Instruction,Word,song,valence,arousal,affectcat,songmark,pracwords.thisRepN,pracwords.thisTrialN,pracwords.thisN,pracwords.thisIndex,songtrials.thisRepN,songtrials.thisTrialN,songtrials.thisN,songtrials.thisIndex,words.thisRepN,words.thisTrialN,words.thisN,words.thisIndex,begin.keys,begin.rt,arousalkey.keys,arousalkey.rt,valencekey.keys,valencekey.rt,likekey.keys,likekey.rt,WordResponse.keys,WordResponse.rt,key_resp_2.keys,key_resp_2.rt,participant,session,date,expName,psychopyVersion,frameRate,
,,,,,,,,,,,,,,,,,,,return,19.359050727999602,,,,,,,,,,,001,001,2019_May_07_0907,MusicAffectPsychophysiology2019,3.0.5,59.95008711605951,
,,,,,,,,,,,,,,,,,,,,,5,4.202052917999936,,,,,,,,,001,001,2019_May_07_0907,MusicAffectPsychophysiology2019,3.0.5,59.95008711605951,
,,,,,,,,,,,,,,,,,,,,,,,5,3.4507957480000186,,,,,,,001,001,2019_May_07_0907,MusicAffectPsychophysiology2019,3.0.5,59.95008711605951,
,,,,,,,,,,,,,,,,,,,,,,,,,5,3.0511113419997855,,,,,001,001,2019_May_07_0907,MusicAffectPsychophysiology2019,3.0.5,59.95008711605951,
To what extent did the music make you feel ,ASHAMED,,,,,,0,0,0,4,,,,,,,,,,,,,,,,,1,8.66058272600003,,,001,001,2019_May_07_0907,MusicAffectPsychophysiology2019,3.0.5,59.95008711605951,
To what extent did the music make you feel ,ALERT,,,,,,0,1,1,8,,,,,,,,,,,,,,,,,2,9.993465563000427,,,001,001,2019_May_07_0907,MusicAffectPsychophysiology2019,3.0.5,59.95008711605951,
To what extent did the music make you feel ,ACTIVE,,,,,,0,2,2,9,,,,,,,,,,,,,,,,,2,3.4020969699995476,,,001,001,2019_May_07_0907,MusicAffectPsychophysiology2019,3.0.5,59.95008711605951,
To what extent did the music make you feel ,TENDER,,,,,,0,3,3,10,,,,,,,,,,,,,,,,,4,3.0847655210000084,,,001,001,2019_May_07_0907,MusicAffectPsychophysiology2019,3.0.5,59.95008711605951,
To what extent did the music make you feel ,SAD,,,,,,0,4,4,0,,,,,,,,,,,,,,,,,4,2.219562193999991,,,001,001,2019_May_07_0907,MusicAffectPsychophysiology2019,3.0.5,59.95008711605951,
To what extent did the music make you feel ,FRUSTRATED,,,,,,0,5,5,3,,,,,,,,,,,,,,,,,1,2.1507008980006503,,,001,001,2019_May_07_0907,MusicAffectPsychophysiology2019,3.0.5,59.95008711605951,
To what extent did the music make you feel ,ANGRY,,,,,,0,6,6,2,,,,,,,,,,,,,,,,,1,1.4008587819998866,,,001,001,2019_May_07_0907,MusicAffectPsychophysiology2019,3.0.5,59.95008711605951,
To what extent did the music make you feel ,ANXIOUS ,,,,,,0,7,7,1,,,,,,,,,,,,,,,,,1,2.002618278999762,,,001,001,2019_May_07_0907,MusicAffectPsychophysiology2019,3.0.5,59.95008711605951,
To what extent did the music make you feel ,EXCITED,,,,,,0,8,8,7,,,,,,,,,,,,,,,,,3,3.867608624999775,,,001,001,2019_May_07_0907,MusicAffectPsychophysiology2019,3.0.5,59.95008711605951,
To what extent did the music make you feel ,HAPPY,,,,,,0,9,9,6,,,,,,,,,,,,,,,,,5,1.6688990290003858,,,001,001,2019_May_07_0907,MusicAffectPsychophysiology2019,3.0.5,59.95008711605951,
To what extent did the music make you feel ,GUILTY,,,,,,0,10,10,5,,,,,,,,,,,,,,,,,2,6.049827562000246,,,001,001,2019_May_07_0907,MusicAffectPsychophysiology2019,3.0.5,59.95008711605951,
To what extent did the music make you feel ,SCARED,,,,,,0,11,11,11,,,,,,,,,,,,,,,,,1,1.5179399410008045,,,001,001,2019_May_07_0907,MusicAffectPsychophysiology2019,3.0.5,59.95008711605951,
To what extent did the music make you feel ,ANXIOUS ,30MonoWAV/30MonoH1.wav,2,2,1,5,,,,,0,0,0,4,0,0,0,1,,,5,5.533826435000265,5,1.7187588670003606,,,1,3.0009585090001565,,,001,001,2019_May_07_0907,MusicAffectPsychophysiology2019,3.0.5,59.95008711605951,
To what extent did the music make you feel ,ASHAMED,30MonoWAV/30MonoH1.wav,2,2,1,5,,,,,0,0,0,4,0,1,1,4,,,,,,,,,1,1.8679195349996007,,,001,001,2019_May_07_0907,MusicAffectPsychophysiology2019,3.0.5,59.95008711605951,
To what extent did the music make you feel ,SCARED,30MonoWAV/30MonoH1.wav,2,2,1,5,,,,,0,0,0,4,0,2,2,11,,,,,,,,,1,0.9350907799998822,,,001,001,2019_May_07_0907,MusicAffectPsychophysiology2019,3.0.5,59.95008711605951,
To what extent did the music make you feel ,ALERT,30MonoWAV/30MonoH1.wav,2,2,1,5,,,,,0,0,0,4,0,3,3,8,,,,,,,,,2,2.8026795100004165,,,001,001,2019_May_07_0907,MusicAffectPsychophysiology2019,3.0.5,59.95008711605951,
To what extent did the music make you feel ,ANGRY,30MonoWAV/30MonoH1.wav,2,2,1,5,,,,,0,0,0,4,0,4,4,2,,,,,,,,,1,1.0022811580001871,,,001,001,2019_May_07_0907,MusicAffectPsychophysiology2019,3.0.5,59.95008711605951,
To what extent did the music make you feel ,HAPPY,30MonoWAV/30MonoH1.wav,2,2,1,5,,,,,0,0,0,4,0,5,5,6,,,,,,,,,5,1.6512634860000617,,,001,001,2019_May_07_0907,MusicAffectPsychophysiology2019,3.0.5,59.95008711605951,
To what extent did the music make you feel ,ACTIVE,30MonoWAV/30MonoH1.wav,2,2,1,5,,,,,0,0,0,4,0,6,6,9,,,,,,,,,4,1.7692027429993686,,,001,001,2019_May_07_0907,MusicAffectPsychophysiology2019,3.0.5,59.95008711605951,
To what extent did the music make you feel ,SAD,30MonoWAV/30MonoH1.wav,2,2,1,5,,,,,0,0,0,4,0,7,7,0,,,,,,,,,1,1.60146883500056,,,001,001,2019_May_07_0907,MusicAffectPsychophysiology2019,3.0.5,59.95008711605951,
To what extent did the music make you feel ,GUILTY,30MonoWAV/30MonoH1.wav,2,2,1,5,,,,,0,0,0,4,0,8,8,5,,,,,,,,,1,1.3337370629997167,,,001,001,2019_May_07_0907,MusicAffectPsychophysiology2019,3.0.5,59.95008711605951,
To what extent did the music make you feel ,TENDER,30MonoWAV/30MonoH1.wav,2,2,1,5,,,,,0,0,0,4,0,9,9,10,,,,,,,,,2,2.919798488000197,,,001,001,2019_May_07_0907,MusicAffectPsychophysiology2019,3.0.5,59.95008711605951,
To what extent did the music make you feel ,FRUSTRATED,30MonoWAV/30MonoH1.wav,2,2,1,5,,,,,0,0,0,4,0,10,10,3,,,,,,,,,1,1.651941369999804,,,001,001,2019_May_07_0907,MusicAffectPsychophysiology2019,3.0.5,59.95008711605951,
To what extent did the music make you feel ,EXCITED,30MonoWAV/30MonoH1.wav,2,2,1,5,,,,,0,0,0,4,0,11,11,7,,,,,,,,,5,1.152095043999907,,,001,001,2019_May_07_0907,MusicAffectPsychophysiology2019,3.0.5,59.95008711605951,
,,30MonoWAV/30MonoH1.wav,2,2,1,5,,,,,0,0,0,4,,,,,,,,,,,,,,,,,001,001,2019_May_07_0907,MusicAffectPsychophysiology2019,3.0.5,59.95008711605951,
To what extent did the music make you feel ,EXCITED,30MonoWAV/30MonoT4.wav,2,1,4,16,,,,,0,1,1,15,0,0,0,7,,,2,5.657821546000378,2,8.076646464000078,,,2,3.041032744000404,,,001,001,2019_May_07_0907,MusicAffectPsychophysiology2019,3.0.5,59.95008711605951,
To what extent did the music make you feel ,SAD,30MonoWAV/30MonoT4.wav,2,1,4,16,,,,,0,1,1,15,0,1,1,0,,,,,,,,,4,4.233976452999741,,,001,001,2019_May_07_0907,MusicAffectPsychophysiology2019,3.0.5,59.95008711605951,
To what extent did the music make you feel ,TENDER,30MonoWAV/30MonoT4.wav,2,1,4,16,,,,,0,1,1,15,0,2,2,10,,,,,,,,,5,1.1189669140003389,,,001,001,2019_May_07_0907,MusicAffectPsychophysiology2019,3.0.5,59.95008711605951,
To what extent did the music make you feel ,ALERT,30MonoWAV/30MonoT4.wav,2,1,4,16,,,,,0,1,1,15,0,3,3,8,,,,,,,,,1,3.918296129000737,,,001,001,2019_May_07_0907,MusicAffectPsychophysiology2019,3.0.5,59.95008711605951,
To what extent did the music make you feel ,ACTIVE,30MonoWAV/30MonoT4.wav,2,1,4,16,,,,,0,1,1,15,0,4,4,9,,,,,,,,,2,3.0005095529995742,,,001,001,2019_May_07_0907,MusicAffectPsychophysiology2019,3.0.5,59.95008711605951,
To what extent did the music make you feel ,ANXIOUS ,30MonoWAV/30MonoT4.wav,2,1,4,16,,,,,0,1,1,15,0,5,5,1,,,,,,,,,3,3.4676764859996183,,,001,001,2019_May_07_0907,MusicAffectPsychophysiology2019,3.0.5,59.95008711605951,
To what extent did the music make you feel ,ANGRY,30MonoWAV/30MonoT4.wav,2,1,4,16,,,,,0,1,1,15,0,6,6,2,,,,,,,,,1,1.2516133970002556,,,001,001,2019_May_07_0907,MusicAffectPsychophysiology2019,3.0.5,59.95008711605951,
To what extent did the music make you feel ,ASHAMED,30MonoWAV/30MonoT4.wav,2,1,4,16,,,,,0,1,1,15,0,7,7,4,,,,,,,,,4,2.2735172990005594,,,001,001,2019_May_07_0907,MusicAffectPsychophysiology2019,3.0.5,59.95008711605951,
To what extent did the music make you feel ,HAPPY,30MonoWAV/30MonoT4.wav,2,1,4,16,,,,,0,1,1,15,0,8,8,6,,,,,,,,,3,3.57236826999997,,,001,001,2019_May_07_0907,MusicAffectPsychophysiology2019,3.0.5,59.95008711605951,
To what extent did the music make you feel ,GUILTY,30MonoWAV/30MonoT4.wav,2,1,4,16,,,,,0,1,1,15,0,9,9,5,,,,,,,,,4,2.5211440869998114,,,001,001,2019_May_07_0907,MusicAffectPsychophysiology2019,3.0.5,59.95008711605951,
To what extent did the music make you feel ,SCARED,30MonoWAV/30MonoT4.wav,2,1,4,16,,,,,0,1,1,15,0,10,10,11,,,,,,,,,1,1.8224373489993013,,,001,001,2019_May_07_0907,MusicAffectPsychophysiology2019,3.0.5,59.95008711605951,
To what extent did the music make you feel ,FRUSTRATED,30MonoWAV/30MonoT4.wav,2,1,4,16,,,,,0,1,1,15,0,11,11,3,,,,,,,,,1,1.5687054169993644,,,001,001,2019_May_07_0907,MusicAffectPsychophysiology2019,3.0.5,59.95008711605951,
,,30MonoWAV/30MonoT4.wav,2,1,4,16,,,,,0,1,1,15,,,,,,,,,,,,,,,,,001,001,2019_May_07_0907,MusicAffectPsychophysiology2019,3.0.5,59.95008711605951,
To what extent did the music make you feel ,ACTIVE,30MonoWAV/30MonoF3.wav,1,2,2,3,,,,,0,2,2,2,0,0,0,9,,,3,4.567740484999376,2,4.317506695000702,,,3,3.635858501000257,,,001,001,2019_May_07_0907,MusicAffectPsychophysiology2019,3.0.5,59.95008711605951,
To what extent did the music make you feel ,TENDER,30MonoWAV/30MonoF3.wav,1,2,2,3,,,,,0,2,2,2,0,1,1,10,,,,,,,,,1,3.4025036210005055,,,001,001,2019_May_07_0907,MusicAffectPsychophysiology2019,3.0.5,59.95008711605951,
To what extent did the music make you feel ,ASHAMED,30MonoWAV/30MonoF3.wav,1,2,2,3,,,,,0,2,2,2,0,2,2,4,,,,,,,,,1,2.4845780679997915,,,001,001,2019_May_07_0907,MusicAffectPsychophysiology2019,3.0.5,59.95008711605951,
To what extent did the music make you feel ,ANGRY,30MonoWAV/30MonoF3.wav,1,2,2,3,,,,,0,2,2,2,0,3,3,2,,,,,,,,,1,1.76862134699968,,,001,001,2019_May_07_0907,MusicAffectPsychophysiology2019,3.0.5,59.95008711605951,
To what extent did the music make you feel ,SCARED,30MonoWAV/30MonoF3.wav,1,2,2,3,,,,,0,2,2,2,0,4,4,11,,,,,,,,,3,2.9180680619992927,,,001,001,2019_May_07_0907,MusicAffectPsychophysiology2019,3.0.5,59.95008711605951,
To what extent did the music make you feel ,ANXIOUS ,30MonoWAV/30MonoF3.wav,1,2,2,3,,,,,0,2,2,2,0,5,5,1,,,,,,,,,3,1.4845626309997897,,,001,001,2019_May_07_0907,MusicAffectPsychophysiology2019,3.0.5,59.95008711605951,
To what extent did the music make you feel ,SAD,30MonoWAV/30MonoF3.wav,1,2,2,3,,,,,0,2,2,2,0,6,6,0,,,,,,,,,1,1.9354984390001846,,,001,001,2019_May_07_0907,MusicAffectPsychophysiology2019,3.0.5,59.95008711605951,
To what extent did the music make you feel ,GUILTY,30MonoWAV/30MonoF3.wav,1,2,2,3,,,,,0,2,2,2,0,7,7,5,,,,,,,,,2,1.4346908439993058,,,001,001,2019_May_07_0907,MusicAffectPsychophysiology2019,3.0.5,59.95008711605951,
To what extent did the music make you feel ,EXCITED,30MonoWAV/30MonoF3.wav,1,2,2,3,,,,,0,2,2,2,0,8,8,7,,,,,,,,,3,1.934877214000153,,,001,001,2019_May_07_0907,MusicAffectPsychophysiology2019,3.0.5,59.95008711605951,
To what extent did the music make you feel ,ALERT,30MonoWAV/30MonoF3.wav,1,2,2,3,,,,,0,2,2,2,0,9,9,8,,,,,,,,,3,1.7023091920000297,,,001,001,2019_May_07_0907,MusicAffectPsychophysiology2019,3.0.5,59.95008711605951,
To what extent did the music make you feel ,FRUSTRATED,30MonoWAV/30MonoF3.wav,1,2,2,3,,,,,0,2,2,2,0,10,10,3,,,,,,,,,1,1.967685585000254,,,001,001,2019_May_07_0907,MusicAffectPsychophysiology2019,3.0.5,59.95008711605951,
To what extent did the music make you feel ,HAPPY,30MonoWAV/30MonoF3.wav,1,2,2,3,,,,,0,2,2,2,0,11,11,6,,,,,,,,,2,5.201202164000279,,,001,001,2019_May_07_0907,MusicAffectPsychophysiology2019,3.0.5,59.95008711605951,
,,30MonoWAV/30MonoF3.wav,1,2,2,3,,,,,0,2,2,2,,,,,,,,,,,,,,,,,001,001,2019_May_07_0907,MusicAffectPsychophysiology2019,3.0.5,59.95008711605951,
To what extent did the music make you feel ,ALERT,30MonoWAV/30MonoS2.wav,1,1,3,10,,,,,0,3,3,9,0,0,0,8,,,2,5.534381161000056,2,2.985118403999877,,,1,2.785067880000497,,,001,001,2019_May_07_0907,MusicAffectPsychophysiology2019,3.0.5,59.95008711605951,
To what extent did the music make you feel ,ASHAMED,30MonoWAV/30MonoS2.wav,1,1,3,10,,,,,0,3,3,9,0,1,1,4,,,,,,,,,4,1.5846704320001663,,,001,001,2019_May_07_0907,MusicAffectPsychophysiology2019,3.0.5,59.95008711605951,
To what extent did the music make you feel ,EXCITED,30MonoWAV/30MonoS2.wav,1,1,3,10,,,,,0,3,3,9,0,2,2,7,,,,,,,,,1,2.0990418139999747,,,001,001,2019_May_07_0907,MusicAffectPsychophysiology2019,3.0.5,59.95008711605951,
To what extent did the music make you feel ,HAPPY,30MonoWAV/30MonoS2.wav,1,1,3,10,,,,,0,3,3,9,0,3,3,6,,,,,,,,,2,1.5022034730000087,,,001,001,2019_May_07_0907,MusicAffectPsychophysiology2019,3.0.5,59.95008711605951,
To what extent did the music make you feel ,ANXIOUS ,30MonoWAV/30MonoS2.wav,1,1,3,10,,,,,0,3,3,9,0,4,4,1,,,,,,,,,4,1.2024607570001535,,,001,001,2019_May_07_0907,MusicAffectPsychophysiology2019,3.0.5,59.95008711605951,
To what extent did the music make you feel ,ACTIVE,30MonoWAV/30MonoS2.wav,1,1,3,10,,,,,0,3,3,9,0,5,5,9,,,,,,,,,1,5.034662093999941,,,001,001,2019_May_07_0907,MusicAffectPsychophysiology2019,3.0.5,59.95008711605951,
To what extent did the music make you feel ,FRUSTRATED,30MonoWAV/30MonoS2.wav,1,1,3,10,,,,,0,3,3,9,0,6,6,3,,,,,,,,,2,2.268433176999679,,,001,001,2019_May_07_0907,MusicAffectPsychophysiology2019,3.0.5,59.95008711605951,
To what extent did the music make you feel ,ANGRY,30MonoWAV/30MonoS2.wav,1,1,3,10,,,,,0,3,3,9,0,7,7,2,,,,,,,,,2,2.068201714000679,,,001,001,2019_May_07_0907,MusicAffectPsychophysiology2019,3.0.5,59.95008711605951,
To what extent did the music make you feel ,GUILTY,30MonoWAV/30MonoS2.wav,1,1,3,10,,,,,0,3,3,9,0,8,8,5,,,,,,,,,5,4.167890747999991,,,001,001,2019_May_07_0907,MusicAffectPsychophysiology2019,3.0.5,59.95008711605951,
To what extent did the music make you feel ,SCARED,30MonoWAV/30MonoS2.wav,1,1,3,10,,,,,0,3,3,9,0,9,9,11,,,,,,,,,4,1.702016543999889,,,001,001,2019_May_07_0907,MusicAffectPsychophysiology2019,3.0.5,59.95008711605951,
To what extent did the music make you feel ,TENDER,30MonoWAV/30MonoS2.wav,1,1,3,10,,,,,0,3,3,9,0,10,10,10,,,,,,,,,4,1.381963236000047,,,001,001,2019_May_07_0907,MusicAffectPsychophysiology2019,3.0.5,59.95008711605951,
To what extent did the music make you feel ,SAD,30MonoWAV/30MonoS2.wav,1,1,3,10,,,,,0,3,3,9,0,11,11,0,,,,,,,,,5,1.318036048999602,,,001,001,2019_May_07_0907,MusicAffectPsychophysiology2019,3.0.5,59.95008711605951,
,,30MonoWAV/30MonoS2.wav,1,1,3,10,,,,,0,3,3,9,,,,,,,,,,,,,,,,,001,001,2019_May_07_0907,MusicAffectPsychophysiology2019,3.0.5,59.95008711605951,
To what extent did the music make you feel ,SCARED,30MonoWAV/30MonoS1.wav,1,1,3,9,,,,,0,4,4,8,0,0,0,11,,,2,5.38404501200057,2,3.134214850999342,,,4,1.8523220260003654,,,001,001,2019_May_07_0907,MusicAffectPsychophysiology2019,3.0.5,59.95008711605951,
To what extent did the music make you feel ,EXCITED,30MonoWAV/30MonoS1.wav,1,1,3,9,,,,,0,4,4,8,0,1,1,7,,,,,,,,,1,3.10266823999973,,,001,001,2019_May_07_0907,MusicAffectPsychophysiology2019,3.0.5,59.95008711605951,
To what extent did the music make you feel ,ACTIVE,30MonoWAV/30MonoS1.wav,1,1,3,9,,,,,0,4,4,8,0,2,2,9,,,,,,,,,1,2.9506813170000896,,,001,001,2019_May_07_0907,MusicAffectPsychophysiology2019,3.0.5,59.95008711605951,
To what extent did the music make you feel ,ALERT,30MonoWAV/30MonoS1.wav,1,1,3,9,,,,,0,4,4,8,0,3,3,8,,,,,,,,,3,1.466726094000478,,,001,001,2019_May_07_0907,MusicAffectPsychophysiology2019,3.0.5,59.95008711605951,
To what extent did the music make you feel ,GUILTY,30MonoWAV/30MonoS1.wav,1,1,3,9,,,,,0,4,4,8,0,4,4,5,,,,,,,,,3,1.73464752900054,,,001,001,2019_May_07_0907,MusicAffectPsychophysiology2019,3.0.5,59.95008711605951,
To what extent did the music make you feel ,FRUSTRATED,30MonoWAV/30MonoS1.wav,1,1,3,9,,,,,0,4,4,8,0,5,5,3,,,,,,,,,2,1.9344258769997396,,,001,001,2019_May_07_0907,MusicAffectPsychophysiology2019,3.0.5,59.95008711605951,
To what extent did the music make you feel ,ANXIOUS ,30MonoWAV/30MonoS1.wav,1,1,3,9,,,,,0,4,4,8,0,6,6,1,,,,,,,,,4,1.2014955120002924,,,001,001,2019_May_07_0907,MusicAffectPsychophysiology2019,3.0.5,59.95008711605951,
To what extent did the music make you feel ,SAD,30MonoWAV/30MonoS1.wav,1,1,3,9,,,,,0,4,4,8,0,7,7,0,,,,,,,,,2,2.8824455149997448,,,001,001,2019_May_07_0907,MusicAffectPsychophysiology2019,3.0.5,59.95008711605951,
To what extent did the music make you feel ,HAPPY,30MonoWAV/30MonoS1.wav,1,1,3,9,,,,,0,4,4,8,0,8,8,6,,,,,,,,,1,1.867946227000175,,,001,001,2019_May_07_0907,MusicAffectPsychophysiology2019,3.0.5,59.95008711605951,
To what extent did the music make you feel ,TENDER,30MonoWAV/30MonoS1.wav,1,1,3,9,,,,,0,4,4,8,0,9,9,10,,,,,,,,,2,1.8013400270001512,,,001,001,2019_May_07_0907,MusicAffectPsychophysiology2019,3.0.5,59.95008711605951,
To what extent did the music make you feel ,ASHAMED,30MonoWAV/30MonoS1.wav,1,1,3,9,,,,,0,4,4,8,0,10,10,4,,,,,,,,,3,3.351402183000573,,,001,001,2019_May_07_0907,MusicAffectPsychophysiology2019,3.0.5,59.95008711605951,
To what extent did the music make you feel ,ANGRY,30MonoWAV/30MonoS1.wav,1,1,3,9,,,,,0,4,4,8,0,11,11,2,,,,,,,,,2,2.467424246000519,,,001,001,2019_May_07_0907,MusicAffectPsychophysiology2019,3.0.5,59.95008711605951,
,,30MonoWAV/30MonoS1.wav,1,1,3,9,,,,,0,4,4,8,,,,,,,,,,,,,,,,,001,001,2019_May_07_0907,MusicAffectPsychophysiology2019,3.0.5,59.95008711605951,
To what extent did the music make you feel ,HAPPY,30MonoWAV/30MonoT2.wav,2,1,4,14,,,,,0,5,5,13,0,0,0,6,,,3,3.5009448169994357,3,2.1514642949996414,,,3,1.751817659000153,,,001,001,2019_May_07_0907,MusicAffectPsychophysiology2019,3.0.5,59.95008711605951,
To what extent did the music make you feel ,EXCITED,30MonoWAV/30MonoT2.wav,2,1,4,14,,,,,0,5,5,13,0,1,1,7,,,,,,,,,4,2.4346418390005056,,,001,001,2019_May_07_0907,MusicAffectPsychophysiology2019,3.0.5,59.95008711605951,
To what extent did the music make you feel ,ANXIOUS ,30MonoWAV/30MonoT2.wav,2,1,4,14,,,,,0,5,5,13,0,2,2,1,,,,,,,,,3,1.318958861000283,,,001,001,2019_May_07_0907,MusicAffectPsychophysiology2019,3.0.5,59.95008711605951,
To what extent did the music make you feel ,ANGRY,30MonoWAV/30MonoT2.wav,2,1,4,14,,,,,0,5,5,13,0,3,3,2,,,,,,,,,1,1.1520407070001966,,,001,001,2019_May_07_0907,MusicAffectPsychophysiology2019,3.0.5,59.95008711605951,
To what extent did the music make you feel ,ALERT,30MonoWAV/30MonoT2.wav,2,1,4,14,,,,,0,5,5,13,0,4,4,8,,,,,,,,,3,2.0182339679995493,,,001,001,2019_May_07_0907,MusicAffectPsychophysiology2019,3.0.5,59.95008711605951,
To what extent did the music make you feel ,ASHAMED,30MonoWAV/30MonoT2.wav,2,1,4,14,,,,,0,5,5,13,0,5,5,4,,,,,,,,,1,1.8684189280002101,,,001,001,2019_May_07_0907,MusicAffectPsychophysiology2019,3.0.5,59.95008711605951,
To what extent did the music make you feel ,SCARED,30MonoWAV/30MonoT2.wav,2,1,4,14,,,,,0,5,5,13,0,6,6,11,,,,,,,,,1,2.001794355999664,,,001,001,2019_May_07_0907,MusicAffectPsychophysiology2019,3.0.5,59.95008711605951,
To what extent did the music make you feel ,ACTIVE,30MonoWAV/30MonoT2.wav,2,1,4,14,,,,,0,5,5,13,0,7,7,9,,,,,,,,,3,1.6849987730001885,,,001,001,2019_May_07_0907,MusicAffectPsychophysiology2019,3.0.5,59.95008711605951,
To what extent did the music make you feel ,GUILTY,30MonoWAV/30MonoT2.wav,2,1,4,14,,,,,0,5,5,13,0,8,8,5,,,,,,,,,2,1.5186720250003418,,,001,001,2019_May_07_0907,MusicAffectPsychophysiology2019,3.0.5,59.95008711605951,
To what extent did the music make you feel ,SAD,30MonoWAV/30MonoT2.wav,2,1,4,14,,,,,0,5,5,13,0,9,9,0,,,,,,,,,2,1.8009299479999754,,,001,001,2019_May_07_0907,MusicAffectPsychophysiology2019,3.0.5,59.95008711605951,
To what extent did the music make you feel ,TENDER,30MonoWAV/30MonoT2.wav,2,1,4,14,,,,,0,5,5,13,0,10,10,10,,,,,,,,,2,1.0668795020001198,,,001,001,2019_May_07_0907,MusicAffectPsychophysiology2019,3.0.5,59.95008711605951,
To what extent did the music make you feel ,FRUSTRATED,30MonoWAV/30MonoT2.wav,2,1,4,14,,,,,0,5,5,13,0,11,11,3,,,,,,,,,1,1.0516381859997637,,,001,001,2019_May_07_0907,MusicAffectPsychophysiology2019,3.0.5,59.95008711605951,
,,30MonoWAV/30MonoT2.wav,2,1,4,14,,,,,0,5,5,13,,,,,,,,,,,,,,,,,001,001,2019_May_07_0907,MusicAffectPsychophysiology2019,3.0.5,59.95008711605951,
To what extent did the music make you feel ,EXCITED,30MonoWAV/30MonoT3.wav,2,1,4,15,,,,,0,6,6,14,0,0,0,7,,,3,6.101794545000303,4,1.5339486069997292,,,3,3.235314560999541,,,001,001,2019_May_07_0907,MusicAffectPsychophysiology2019,3.0.5,59.95008711605951,
To what extent did the music make you feel ,HAPPY,30MonoWAV/30MonoT3.wav,2,1,4,15,,,,,0,6,6,14,0,1,1,6,,,,,,,,,5,1.2181033420001768,,,001,001,2019_May_07_0907,MusicAffectPsychophysiology2019,3.0.5,59.95008711605951,
To what extent did the music make you feel ,ASHAMED,30MonoWAV/30MonoT3.wav,2,1,4,15,,,,,0,6,6,14,0,2,2,4,,,,,,,,,1,1.385692389999349,,,001,001,2019_May_07_0907,MusicAffectPsychophysiology2019,3.0.5,59.95008711605951,
To what extent did the music make you feel ,ANXIOUS ,30MonoWAV/30MonoT3.wav,2,1,4,15,,,,,0,6,6,14,0,3,3,1,,,,,,,,,1,1.6851101250003921,,,001,001,2019_May_07_0907,MusicAffectPsychophysiology2019,3.0.5,59.95008711605951,
To what extent did the music make you feel ,SAD,30MonoWAV/30MonoT3.wav,2,1,4,15,,,,,0,6,6,14,0,4,4,0,,,,,,,,,2,1.3349631150003916,,,001,001,2019_May_07_0907,MusicAffectPsychophysiology2019,3.0.5,59.95008711605951,
To what extent did the music make you feel ,FRUSTRATED,30MonoWAV/30MonoT3.wav,2,1,4,15,,,,,0,6,6,14,0,5,5,3,,,,,,,,,1,1.400061175000701,,,001,001,2019_May_07_0907,MusicAffectPsychophysiology2019,3.0.5,59.95008711605951,
To what extent did the music make you feel ,GUILTY,30MonoWAV/30MonoT3.wav,2,1,4,15,,,,,0,6,6,14,0,6,6,5,,,,,,,,,1,1.8684404040004665,,,001,001,2019_May_07_0907,MusicAffectPsychophysiology2019,3.0.5,59.95008711605951,
To what extent did the music make you feel ,TENDER,30MonoWAV/30MonoT3.wav,2,1,4,15,,,,,0,6,6,14,0,7,7,10,,,,,,,,,2,3.4514451489994826,,,001,001,2019_May_07_0907,MusicAffectPsychophysiology2019,3.0.5,59.95008711605951,
To what extent did the music make you feel ,ACTIVE,30MonoWAV/30MonoT3.wav,2,1,4,15,,,,,0,6,6,14,0,8,8,9,,,,,,,,,2,1.5714763930000117,,,001,001,2019_May_07_0907,MusicAffectPsychophysiology2019,3.0.5,59.95008711605951,
To what extent did the music make you feel ,ANGRY,30MonoWAV/30MonoT3.wav,2,1,4,15,,,,,0,6,6,14,0,9,9,2,,,,,,,,,1,1.2866745880000963,,,001,001,2019_May_07_0907,MusicAffectPsychophysiology2019,3.0.5,59.95008711605951,
To what extent did the music make you feel ,SCARED,30MonoWAV/30MonoT3.wav,2,1,4,15,,,,,0,6,6,14,0,10,10,11,,,,,,,,,1,1.453081912000016,,,001,001,2019_May_07_0907,MusicAffectPsychophysiology2019,3.0.5,59.95008711605951,
To what extent did the music make you feel ,ALERT,30MonoWAV/30MonoT3.wav,2,1,4,15,,,,,0,6,6,14,0,11,11,8,,,,,,,,,1,1.4865555579999636,,,001,001,2019_May_07_0907,MusicAffectPsychophysiology2019,3.0.5,59.95008711605951,
,,30MonoWAV/30MonoT3.wav,2,1,4,15,,,,,0,6,6,14,,,,,,,,,,,,,,,,,001,001,2019_May_07_0907,MusicAffectPsychophysiology2019,3.0.5,59.95008711605951,
To what extent did the music make you feel ,ALERT,30MonoWAV/30MonoH3.wav,2,2,1,7,,,,,0,7,7,6,0,0,0,8,,,4,3.3516662550000547,4,2.383217211999181,,,4,1.3676038929997958,,,001,001,2019_May_07_0907,MusicAffectPsychophysiology2019,3.0.5,59.95008711605951,
To what extent did the music make you feel ,ACTIVE,30MonoWAV/30MonoH3.wav,2,2,1,7,,,,,0,7,7,6,0,1,1,9,,,,,,,,,4,1.101444119000007,,,001,001,2019_May_07_0907,MusicAffectPsychophysiology2019,3.0.5,59.95008711605951,
To what extent did the music make you feel ,HAPPY,30MonoWAV/30MonoH3.wav,2,2,1,7,,,,,0,7,7,6,0,2,2,6,,,,,,,,,3,1.551598895999632,,,001,001,2019_May_07_0907,MusicAffectPsychophysiology2019,3.0.5,59.95008711605951,
To what extent did the music make you feel ,SAD,30MonoWAV/30MonoH3.wav,2,2,1,7,,,,,0,7,7,6,0,3,3,0,,,,,,,,,1,2.1855734750006377,,,001,001,2019_May_07_0907,MusicAffectPsychophysiology2019,3.0.5,59.95008711605951,
To what extent did the music make you feel ,TENDER,30MonoWAV/30MonoH3.wav,2,2,1,7,,,,,0,7,7,6,0,4,4,10,,,,,,,,,1,1.1343235960002858,,,001,001,2019_May_07_0907,MusicAffectPsychophysiology2019,3.0.5,59.95008711605951,
To what extent did the music make you feel ,SCARED,30MonoWAV/30MonoH3.wav,2,2,1,7,,,,,0,7,7,6,0,5,5,11,,,,,,,,,1,1.46667738799988,,,001,001,2019_May_07_0907,MusicAffectPsychophysiology2019,3.0.5,59.95008711605951,
To what extent did the music make you feel ,ANXIOUS ,30MonoWAV/30MonoH3.wav,2,2,1,7,,,,,0,7,7,6,0,6,6,1,,,,,,,,,2,1.4032273209995765,,,001,001,2019_May_07_0907,MusicAffectPsychophysiology2019,3.0.5,59.95008711605951,
To what extent did the music make you feel ,GUILTY,30MonoWAV/30MonoH3.wav,2,2,1,7,,,,,0,7,7,6,0,7,7,5,,,,,,,,,1,1.7016710039997633,,,001,001,2019_May_07_0907,MusicAffectPsychophysiology2019,3.0.5,59.95008711605951,
To what extent did the music make you feel ,FRUSTRATED,30MonoWAV/30MonoH3.wav,2,2,1,7,,,,,0,7,7,6,0,8,8,3,,,,,,,,,2,1.6677630789999967,,,001,001,2019_May_07_0907,MusicAffectPsychophysiology2019,3.0.5,59.95008711605951,
To what extent did the music make you feel ,ANGRY,30MonoWAV/30MonoH3.wav,2,2,1,7,,,,,0,7,7,6,0,9,9,2,,,,,,,,,1,1.8021959759998936,,,001,001,2019_May_07_0907,MusicAffectPsychophysiology2019,3.0.5,59.95008711605951,
To what extent did the music make you feel ,EXCITED,30MonoWAV/30MonoH3.wav,2,2,1,7,,,,,0,7,7,6,0,10,10,7,,,,,,,,,3,1.651749050000035,,,001,001,2019_May_07_0907,MusicAffectPsychophysiology2019,3.0.5,59.95008711605951,
To what extent did the music make you feel ,ASHAMED,30MonoWAV/30MonoH3.wav,2,2,1,7,,,,,0,7,7,6,0,11,11,4,,,,,,,,,1,1.5514602650000597,,,001,001,2019_May_07_0907,MusicAffectPsychophysiology2019,3.0.5,59.95008711605951,
,,30MonoWAV/30MonoH3.wav,2,2,1,7,,,,,0,7,7,6,,,,,,,,,,,,,,,,,001,001,2019_May_07_0907,MusicAffectPsychophysiology2019,3.0.5,59.95008711605951,
To what extent did the music make you feel ,SCARED,30MonoWAV/30MonoF1.wav,1,2,2,1,,,,,0,8,8,0,0,0,0,11,,,1,4.453358693000155,1,2.0183847420003076,,,5,2.202322244000243,,,001,001,2019_May_07_0907,MusicAffectPsychophysiology2019,3.0.5,59.95008711605951,
To what extent did the music make you feel ,GUILTY,30MonoWAV/30MonoF1.wav,1,2,2,1,,,,,0,8,8,0,0,1,1,5,,,,,,,,,1,1.718657372999587,,,001,001,2019_May_07_0907,MusicAffectPsychophysiology2019,3.0.5,59.95008711605951,
To what extent did the music make you feel ,FRUSTRATED,30MonoWAV/30MonoF1.wav,1,2,2,1,,,,,0,8,8,0,0,2,2,3,,,,,,,,,1,1.4022887170003742,,,001,001,2019_May_07_0907,MusicAffectPsychophysiology2019,3.0.5,59.95008711605951,
To what extent did the music make you feel ,ASHAMED,30MonoWAV/30MonoF1.wav,1,2,2,1,,,,,0,8,8,0,0,3,3,4,,,,,,,,,1,1.2026356770002167,,,001,001,2019_May_07_0907,MusicAffectPsychophysiology2019,3.0.5,59.95008711605951,
To what extent did the music make you feel ,ANXIOUS ,30MonoWAV/30MonoF1.wav,1,2,2,1,,,,,0,8,8,0,0,4,4,1,,,,,,,,,5,1.3516859279998243,,,001,001,2019_May_07_0907,MusicAffectPsychophysiology2019,3.0.5,59.95008711605951,
To what extent did the music make you feel ,ACTIVE,30MonoWAV/30MonoF1.wav,1,2,2,1,,,,,0,8,8,0,0,5,5,9,,,,,,,,,4,1.9523341009999058,,,001,001,2019_May_07_0907,MusicAffectPsychophysiology2019,3.0.5,59.95008711605951,
To what extent did the music make you feel ,ANGRY,30MonoWAV/30MonoF1.wav,1,2,2,1,,,,,0,8,8,0,0,6,6,2,,,,,,,,,3,1.8356083819999185,,,001,001,2019_May_07_0907,MusicAffectPsychophysiology2019,3.0.5,59.95008711605951,
To what extent did the music make you feel ,ALERT,30MonoWAV/30MonoF1.wav,1,2,2,1,,,,,0,8,8,0,0,7,7,8,,,,,,,,,5,1.3021002699997553,,,001,001,2019_May_07_0907,MusicAffectPsychophysiology2019,3.0.5,59.95008711605951,
To what extent did the music make you feel ,EXCITED,30MonoWAV/30MonoF1.wav,1,2,2,1,,,,,0,8,8,0,0,8,8,7,,,,,,,,,1,1.2166210830000637,,,001,001,2019_May_07_0907,MusicAffectPsychophysiology2019,3.0.5,59.95008711605951,
To what extent did the music make you feel ,SAD,30MonoWAV/30MonoF1.wav,1,2,2,1,,,,,0,8,8,0,0,9,9,0,,,,,,,,,3,3.6355884970007537,,,001,001,2019_May_07_0907,MusicAffectPsychophysiology2019,3.0.5,59.95008711605951,
To what extent did the music make you feel ,HAPPY,30MonoWAV/30MonoF1.wav,1,2,2,1,,,,,0,8,8,0,0,10,10,6,,,,,,,,,1,1.2010694639993744,,,001,001,2019_May_07_0907,MusicAffectPsychophysiology2019,3.0.5,59.95008711605951,
To what extent did the music make you feel ,TENDER,30MonoWAV/30MonoF1.wav,1,2,2,1,,,,,0,8,8,0,0,11,11,10,,,,,,,,,4,1.9683560239991493,,,001,001,2019_May_07_0907,MusicAffectPsychophysiology2019,3.0.5,59.95008711605951,
,,30MonoWAV/30MonoF1.wav,1,2,2,1,,,,,0,8,8,0,,,,,,,,,,,,,,,,,001,001,2019_May_07_0907,MusicAffectPsychophysiology2019,3.0.5,59.95008711605951,
To what extent did the music make you feel ,SCARED,30MonoWAV/30MonoH4.wav,2,2,1,8,,,,,0,9,9,7,0,0,0,11,,,4,4.655065076999563,4,1.2187767429995802,,,1,1.1534441690000676,,,001,001,2019_May_07_0907,MusicAffectPsychophysiology2019,3.0.5,59.95008711605951,
To what extent did the music make you feel ,FRUSTRATED,30MonoWAV/30MonoH4.wav,2,2,1,8,,,,,0,9,9,7,0,1,1,3,,,,,,,,,1,1.0068641010002466,,,001,001,2019_May_07_0907,MusicAffectPsychophysiology2019,3.0.5,59.95008711605951,
To what extent did the music make you feel ,ASHAMED,30MonoWAV/30MonoH4.wav,2,2,1,8,,,,,0,9,9,7,0,2,2,4,,,,,,,,,1,1.0838194670004668,,,001,001,2019_May_07_0907,MusicAffectPsychophysiology2019,3.0.5,59.95008711605951,
To what extent did the music make you feel ,ACTIVE,30MonoWAV/30MonoH4.wav,2,2,1,8,,,,,0,9,9,7,0,3,3,9,,,,,,,,,4,0.9854358370002956,,,001,001,2019_May_07_0907,MusicAffectPsychophysiology2019,3.0.5,59.95008711605951,
To what extent did the music make you feel ,ANXIOUS ,30MonoWAV/30MonoH4.wav,2,2,1,8,,,,,0,9,9,7,0,4,4,1,,,,,,,,,1,1.1350402789994405,,,001,001,2019_May_07_0907,MusicAffectPsychophysiology2019,3.0.5,59.95008711605951,
To what extent did the music make you feel ,TENDER,30MonoWAV/30MonoH4.wav,2,2,1,8,,,,,0,9,9,7,0,5,5,10,,,,,,,,,2,2.1044590470000912,,,001,001,2019_May_07_0907,MusicAffectPsychophysiology2019,3.0.5,59.95008711605951,
To what extent did the music make you feel ,ANGRY,30MonoWAV/30MonoH4.wav,2,2,1,8,,,,,0,9,9,7,0,6,6,2,,,,,,,,,1,1.1031470440002522,,,001,001,2019_May_07_0907,MusicAffectPsychophysiology2019,3.0.5,59.95008711605951,
To what extent did the music make you feel ,EXCITED,30MonoWAV/30MonoH4.wav,2,2,1,8,,,,,0,9,9,7,0,7,7,7,,,,,,,,,4,1.4533786080000937,,,001,001,2019_May_07_0907,MusicAffectPsychophysiology2019,3.0.5,59.95008711605951,
To what extent did the music make you feel ,SAD,30MonoWAV/30MonoH4.wav,2,2,1,8,,,,,0,9,9,7,0,8,8,0,,,,,,,,,1,1.3197506340002292,,,001,001,2019_May_07_0907,MusicAffectPsychophysiology2019,3.0.5,59.95008711605951,
To what extent did the music make you feel ,GUILTY,30MonoWAV/30MonoH4.wav,2,2,1,8,,,,,0,9,9,7,0,9,9,5,,,,,,,,,1,1.1529066550001517,,,001,001,2019_May_07_0907,MusicAffectPsychophysiology2019,3.0.5,59.95008711605951,
To what extent did the music make you feel ,HAPPY,30MonoWAV/30MonoH4.wav,2,2,1,8,,,,,0,9,9,7,0,10,10,6,,,,,,,,,4,2.0034804530005204,,,001,001,2019_May_07_0907,MusicAffectPsychophysiology2019,3.0.5,59.95008711605951,
To what extent did the music make you feel ,ALERT,30MonoWAV/30MonoH4.wav,2,2,1,8,,,,,0,9,9,7,0,11,11,8,,,,,,,,,3,1.4228426750005383,,,001,001,2019_May_07_0907,MusicAffectPsychophysiology2019,3.0.5,59.95008711605951,
,,30MonoWAV/30MonoH4.wav,2,2,1,8,,,,,0,9,9,7,,,,,,,,,,,,,,,,,001,001,2019_May_07_0907,MusicAffectPsychophysiology2019,3.0.5,59.95008711605951,
To what extent did the music make you feel ,ALERT,30MonoWAV/30MonoF4.wav,1,2,2,4,,,,,0,10,10,3,0,0,0,8,,,3,5.4006848300005,2,1.8846788370001377,,,4,4.384645275999901,,,001,001,2019_May_07_0907,MusicAffectPsychophysiology2019,3.0.5,59.95008711605951,
To what extent did the music make you feel ,EXCITED,30MonoWAV/30MonoF4.wav,1,2,2,4,,,,,0,10,10,3,0,1,1,7,,,,,,,,,4,2.6997705519997908,,,001,001,2019_May_07_0907,MusicAffectPsychophysiology2019,3.0.5,59.95008711605951,
To what extent did the music make you feel ,HAPPY,30MonoWAV/30MonoF4.wav,1,2,2,4,,,,,0,10,10,3,0,2,2,6,,,,,,,,,1,1.3677223889999368,,,001,001,2019_May_07_0907,MusicAffectPsychophysiology2019,3.0.5,59.95008711605951,
To what extent did the music make you feel ,ASHAMED,30MonoWAV/30MonoF4.wav,1,2,2,4,,,,,0,10,10,3,0,3,3,4,,,,,,,,,1,0.9848159709999891,,,001,001,2019_May_07_0907,MusicAffectPsychophysiology2019,3.0.5,59.95008711605951,
To what extent did the music make you feel ,SCARED,30MonoWAV/30MonoF4.wav,1,2,2,4,,,,,0,10,10,3,0,4,4,11,,,,,,,,,3,1.1518901049994383,,,001,001,2019_May_07_0907,MusicAffectPsychophysiology2019,3.0.5,59.95008711605951,
To what extent did the music make you feel ,GUILTY,30MonoWAV/30MonoF4.wav,1,2,2,4,,,,,0,10,10,3,0,5,5,5,,,,,,,,,3,2.001835879000282,,,001,001,2019_May_07_0907,MusicAffectPsychophysiology2019,3.0.5,59.95008711605951,
To what extent did the music make you feel ,SAD,30MonoWAV/30MonoF4.wav,1,2,2,4,,,,,0,10,10,3,0,6,6,0,,,,,,,,,1,1.2179612059999272,,,001,001,2019_May_07_0907,MusicAffectPsychophysiology2019,3.0.5,59.95008711605951,
To what extent did the music make you feel ,ANXIOUS ,30MonoWAV/30MonoF4.wav,1,2,2,4,,,,,0,10,10,3,0,7,7,1,,,,,,,,,5,1.1684352150004997,,,001,001,2019_May_07_0907,MusicAffectPsychophysiology2019,3.0.5,59.95008711605951,
To what extent did the music make you feel ,FRUSTRATED,30MonoWAV/30MonoF4.wav,1,2,2,4,,,,,0,10,10,3,0,8,8,3,,,,,,,,,1,1.2518237779995616,,,001,001,2019_May_07_0907,MusicAffectPsychophysiology2019,3.0.5,59.95008711605951,
To what extent did the music make you feel ,ANGRY,30MonoWAV/30MonoF4.wav,1,2,2,4,,,,,0,10,10,3,0,9,9,2,,,,,,,,,1,2.0673436000006404,,,001,001,2019_May_07_0907,MusicAffectPsychophysiology2019,3.0.5,59.95008711605951,
To what extent did the music make you feel ,ACTIVE,30MonoWAV/30MonoF4.wav,1,2,2,4,,,,,0,10,10,3,0,10,10,9,,,,,,,,,4,1.168181302999983,,,001,001,2019_May_07_0907,MusicAffectPsychophysiology2019,3.0.5,59.95008711605951,
To what extent did the music make you feel ,TENDER,30MonoWAV/30MonoF4.wav,1,2,2,4,,,,,0,10,10,3,0,11,11,10,,,,,,,,,3,2.006373810999321,,,001,001,2019_May_07_0907,MusicAffectPsychophysiology2019,3.0.5,59.95008711605951,
,,30MonoWAV/30MonoF4.wav,1,2,2,4,,,,,0,10,10,3,,,,,,,,,,,,,,,,,001,001,2019_May_07_0907,MusicAffectPsychophysiology2019,3.0.5,59.95008711605951,
To what extent did the music make you feel ,SAD,30MonoWAV/30MonoS4.wav,1,1,3,12,,,,,0,11,11,11,0,0,0,0,,,2,4.718017017999955,2,2.468056002000594,,,4,1.4353219169997828,,,001,001,2019_May_07_0907,MusicAffectPsychophysiology2019,3.0.5,59.95008711605951,
To what extent did the music make you feel ,ANXIOUS ,30MonoWAV/30MonoS4.wav,1,1,3,12,,,,,0,11,11,11,0,1,1,1,,,,,,,,,3,1.1184012880003138,,,001,001,2019_May_07_0907,MusicAffectPsychophysiology2019,3.0.5,59.95008711605951,
To what extent did the music make you feel ,ALERT,30MonoWAV/30MonoS4.wav,1,1,3,12,,,,,0,11,11,11,0,2,2,8,,,,,,,,,2,1.0684763440003735,,,001,001,2019_May_07_0907,MusicAffectPsychophysiology2019,3.0.5,59.95008711605951,
To what extent did the music make you feel ,ACTIVE,30MonoWAV/30MonoS4.wav,1,1,3,12,,,,,0,11,11,11,0,3,3,9,,,,,,,,,1,1.3503520209997077,,,001,001,2019_May_07_0907,MusicAffectPsychophysiology2019,3.0.5,59.95008711605951,
To what extent did the music make you feel ,GUILTY,30MonoWAV/30MonoS4.wav,1,1,3,12,,,,,0,11,11,11,0,4,4,5,,,,,,,,,4,1.4018396870005745,,,001,001,2019_May_07_0907,MusicAffectPsychophysiology2019,3.0.5,59.95008711605951,
To what extent did the music make you feel ,EXCITED,30MonoWAV/30MonoS4.wav,1,1,3,12,,,,,0,11,11,11,0,5,5,7,,,,,,,,,1,1.3499857509996218,,,001,001,2019_May_07_0907,MusicAffectPsychophysiology2019,3.0.5,59.95008711605951,
To what extent did the music make you feel ,FRUSTRATED,30MonoWAV/30MonoS4.wav,1,1,3,12,,,,,0,11,11,11,0,6,6,3,,,,,,,,,2,1.1846965559998353,,,001,001,2019_May_07_0907,MusicAffectPsychophysiology2019,3.0.5,59.95008711605951,
To what extent did the music make you feel ,ASHAMED,30MonoWAV/30MonoS4.wav,1,1,3,12,,,,,0,11,11,11,0,7,7,4,,,,,,,,,4,1.4008299669994813,,,001,001,2019_May_07_0907,MusicAffectPsychophysiology2019,3.0.5,59.95008711605951,
To what extent did the music make you feel ,ANGRY,30MonoWAV/30MonoS4.wav,1,1,3,12,,,,,0,11,11,11,0,8,8,2,,,,,,,,,1,1.3173049989991341,,,001,001,2019_May_07_0907,MusicAffectPsychophysiology2019,3.0.5,59.95008711605951,
To what extent did the music make you feel ,HAPPY,30MonoWAV/30MonoS4.wav,1,1,3,12,,,,,0,11,11,11,0,9,9,6,,,,,,,,,1,1.2336826379996637,,,001,001,2019_May_07_0907,MusicAffectPsychophysiology2019,3.0.5,59.95008711605951,
To what extent did the music make you feel ,SCARED,30MonoWAV/30MonoS4.wav,1,1,3,12,,,,,0,11,11,11,0,10,10,11,,,,,,,,,4,1.3348743059996195,,,001,001,2019_May_07_0907,MusicAffectPsychophysiology2019,3.0.5,59.95008711605951,
To what extent did the music make you feel ,TENDER,30MonoWAV/30MonoS4.wav,1,1,3,12,,,,,0,11,11,11,0,11,11,10,,,,,,,,,2,1.2328517240002839,,,001,001,2019_May_07_0907,MusicAffectPsychophysiology2019,3.0.5,59.95008711605951,
,,30MonoWAV/30MonoS4.wav,1,1,3,12,,,,,0,11,11,11,,,,,,,,,,,,,,,,,001,001,2019_May_07_0907,MusicAffectPsychophysiology2019,3.0.5,59.95008711605951,
To what extent did the music make you feel ,HAPPY,30MonoWAV/30MonoT1.wav,2,1,4,13,,,,,0,12,12,12,0,0,0,6,,,3,3.1388268439995954,3,2.1731515080000463,,,3,1.4850504880005246,,,001,001,2019_May_07_0907,MusicAffectPsychophysiology2019,3.0.5,59.95008711605951,
To what extent did the music make you feel ,ACTIVE,30MonoWAV/30MonoT1.wav,2,1,4,13,,,,,0,12,12,12,0,1,1,9,,,,,,,,,3,1.3850399000002653,,,001,001,2019_May_07_0907,MusicAffectPsychophysiology2019,3.0.5,59.95008711605951,
To what extent did the music make you feel ,EXCITED,30MonoWAV/30MonoT1.wav,2,1,4,13,,,,,0,12,12,12,0,2,2,7,,,,,,,,,3,2.773448597999959,,,001,001,2019_May_07_0907,MusicAffectPsychophysiology2019,3.0.5,59.95008711605951,
To what extent did the music make you feel ,ANGRY,30MonoWAV/30MonoT1.wav,2,1,4,13,,,,,0,12,12,12,0,3,3,2,,,,,,,,,1,1.069546437000099,,,001,001,2019_May_07_0907,MusicAffectPsychophysiology2019,3.0.5,59.95008711605951,
To what extent did the music make you feel ,ALERT,30MonoWAV/30MonoT1.wav,2,1,4,13,,,,,0,12,12,12,0,4,4,8,,,,,,,,,3,1.8024894500003938,,,001,001,2019_May_07_0907,MusicAffectPsychophysiology2019,3.0.5,59.95008711605951,
To what extent did the music make you feel ,FRUSTRATED,30MonoWAV/30MonoT1.wav,2,1,4,13,,,,,0,12,12,12,0,5,5,3,,,,,,,,,1,1.053311047000534,,,001,001,2019_May_07_0907,MusicAffectPsychophysiology2019,3.0.5,59.95008711605951,
To what extent did the music make you feel ,ASHAMED,30MonoWAV/30MonoT1.wav,2,1,4,13,,,,,0,12,12,12,0,6,6,4,,,,,,,,,1,1.4862162870003885,,,001,001,2019_May_07_0907,MusicAffectPsychophysiology2019,3.0.5,59.95008711605951,
To what extent did the music make you feel ,SAD,30MonoWAV/30MonoT1.wav,2,1,4,13,,,,,0,12,12,12,0,7,7,0,,,,,,,,,2,1.740720384999804,,,001,001,2019_May_07_0907,MusicAffectPsychophysiology2019,3.0.5,59.95008711605951,
To what extent did the music make you feel ,ANXIOUS ,30MonoWAV/30MonoT1.wav,2,1,4,13,,,,,0,12,12,12,0,8,8,1,,,,,,,,,2,1.1174569029999475,,,001,001,2019_May_07_0907,MusicAffectPsychophysiology2019,3.0.5,59.95008711605951,
To what extent did the music make you feel ,GUILTY,30MonoWAV/30MonoT1.wav,2,1,4,13,,,,,0,12,12,12,0,9,9,5,,,,,,,,,2,1.136365848999958,,,001,001,2019_May_07_0907,MusicAffectPsychophysiology2019,3.0.5,59.95008711605951,
To what extent did the music make you feel ,TENDER,30MonoWAV/30MonoT1.wav,2,1,4,13,,,,,0,12,12,12,0,10,10,10,,,,,,,,,3,3.3518358499995884,,,001,001,2019_May_07_0907,MusicAffectPsychophysiology2019,3.0.5,59.95008711605951,
To what extent did the music make you feel ,SCARED,30MonoWAV/30MonoT1.wav,2,1,4,13,,,,,0,12,12,12,0,11,11,11,,,,,,,,,1,1.9848362239999915,,,001,001,2019_May_07_0907,MusicAffectPsychophysiology2019,3.0.5,59.95008711605951,
,,30MonoWAV/30MonoT1.wav,2,1,4,13,,,,,0,12,12,12,,,,,,,,,,,,,,,,,001,001,2019_May_07_0907,MusicAffectPsychophysiology2019,3.0.5,59.95008711605951,
To what extent did the music make you feel ,TENDER,30MonoWAV/30MonoS3.wav,1,1,3,11,,,,,0,13,13,10,0,0,0,10,,,1,2.5514535169995725,2,2.5337689790003424,,,4,1.7355517180003517,,,001,001,2019_May_07_0907,MusicAffectPsychophysiology2019,3.0.5,59.95008711605951,
To what extent did the music make you feel ,ANXIOUS ,30MonoWAV/30MonoS3.wav,1,1,3,11,,,,,0,13,13,10,0,1,1,1,,,,,,,,,3,1.8011162650000188,,,001,001,2019_May_07_0907,MusicAffectPsychophysiology2019,3.0.5,59.95008711605951,
To what extent did the music make you feel ,FRUSTRATED,30MonoWAV/30MonoS3.wav,1,1,3,11,,,,,0,13,13,10,0,2,2,3,,,,,,,,,3,1.8665482839996912,,,001,001,2019_May_07_0907,MusicAffectPsychophysiology2019,3.0.5,59.95008711605951,
To what extent did the music make you feel ,ALERT,30MonoWAV/30MonoS3.wav,1,1,3,11,,,,,0,13,13,10,0,3,3,8,,,,,,,,,2,1.5851699109998663,,,001,001,2019_May_07_0907,MusicAffectPsychophysiology2019,3.0.5,59.95008711605951,
To what extent did the music make you feel ,ASHAMED,30MonoWAV/30MonoS3.wav,1,1,3,11,,,,,0,13,13,10,0,4,4,4,,,,,,,,,4,2.06711199900019,,,001,001,2019_May_07_0907,MusicAffectPsychophysiology2019,3.0.5,59.95008711605951,
To what extent did the music make you feel ,GUILTY,30MonoWAV/30MonoS3.wav,1,1,3,11,,,,,0,13,13,10,0,5,5,5,,,,,,,,,5,1.202088998000363,,,001,001,2019_May_07_0907,MusicAffectPsychophysiology2019,3.0.5,59.95008711605951,
To what extent did the music make you feel ,EXCITED,30MonoWAV/30MonoS3.wav,1,1,3,11,,,,,0,13,13,10,0,6,6,7,,,,,,,,,1,3.2015994269995645,,,001,001,2019_May_07_0907,MusicAffectPsychophysiology2019,3.0.5,59.95008711605951,
To what extent did the music make you feel ,SAD,30MonoWAV/30MonoS3.wav,1,1,3,11,,,,,0,13,13,10,0,7,7,0,,,,,,,,,4,1.2345980740001323,,,001,001,2019_May_07_0907,MusicAffectPsychophysiology2019,3.0.5,59.95008711605951,
To what extent did the music make you feel ,HAPPY,30MonoWAV/30MonoS3.wav,1,1,3,11,,,,,0,13,13,10,0,8,8,6,,,,,,,,,1,1.0857215209998685,,,001,001,2019_May_07_0907,MusicAffectPsychophysiology2019,3.0.5,59.95008711605951,
To what extent did the music make you feel ,ANGRY,30MonoWAV/30MonoS3.wav,1,1,3,11,,,,,0,13,13,10,0,9,9,2,,,,,,,,,1,1.1508060410005783,,,001,001,2019_May_07_0907,MusicAffectPsychophysiology2019,3.0.5,59.95008711605951,
To what extent did the music make you feel ,ACTIVE,30MonoWAV/30MonoS3.wav,1,1,3,11,,,,,0,13,13,10,0,10,10,9,,,,,,,,,1,1.068152662999637,,,001,001,2019_May_07_0907,MusicAffectPsychophysiology2019,3.0.5,59.95008711605951,
To what extent did the music make you feel ,SCARED,30MonoWAV/30MonoS3.wav,1,1,3,11,,,,,0,13,13,10,0,11,11,11,,,,,,,,,3,1.034691716999987,,,001,001,2019_May_07_0907,MusicAffectPsychophysiology2019,3.0.5,59.95008711605951,
,,30MonoWAV/30MonoS3.wav,1,1,3,11,,,,,0,13,13,10,,,,,,,,,,,,,,,,,001,001,2019_May_07_0907,MusicAffectPsychophysiology2019,3.0.5,59.95008711605951,
To what extent did the music make you feel ,ANGRY,30MonoWAV/30MonoH2.wav,2,2,1,6,,,,,0,14,14,5,0,0,0,2,,,2,4.1182950969996455,3,1.4686603600002854,,,1,1.7230442210002366,,,001,001,2019_May_07_0907,MusicAffectPsychophysiology2019,3.0.5,59.95008711605951,
To what extent did the music make you feel ,HAPPY,30MonoWAV/30MonoH2.wav,2,2,1,6,,,,,0,14,14,5,0,1,1,6,,,,,,,,,3,0.9360540500001662,,,001,001,2019_May_07_0907,MusicAffectPsychophysiology2019,3.0.5,59.95008711605951,
To what extent did the music make you feel ,EXCITED,30MonoWAV/30MonoH2.wav,2,2,1,6,,,,,0,14,14,5,0,2,2,7,,,,,,,,,2,1.0532247740002276,,,001,001,2019_May_07_0907,MusicAffectPsychophysiology2019,3.0.5,59.95008711605951,
To what extent did the music make you feel ,GUILTY,30MonoWAV/30MonoH2.wav,2,2,1,6,,,,,0,14,14,5,0,3,3,5,,,,,,,,,1,1.3868281340000976,,,001,001,2019_May_07_0907,MusicAffectPsychophysiology2019,3.0.5,59.95008711605951,
To what extent did the music make you feel ,SAD,30MonoWAV/30MonoH2.wav,2,2,1,6,,,,,0,14,14,5,0,4,4,0,,,,,,,,,2,1.2022927380003239,,,001,001,2019_May_07_0907,MusicAffectPsychophysiology2019,3.0.5,59.95008711605951,
To what extent did the music make you feel ,ANXIOUS ,30MonoWAV/30MonoH2.wav,2,2,1,6,,,,,0,14,14,5,0,5,5,1,,,,,,,,,2,1.3701674209996781,,,001,001,2019_May_07_0907,MusicAffectPsychophysiology2019,3.0.5,59.95008711605951,
To what extent did the music make you feel ,FRUSTRATED,30MonoWAV/30MonoH2.wav,2,2,1,6,,,,,0,14,14,5,0,6,6,3,,,,,,,,,1,1.1562016019997827,,,001,001,2019_May_07_0907,MusicAffectPsychophysiology2019,3.0.5,59.95008711605951,
To what extent did the music make you feel ,TENDER,30MonoWAV/30MonoH2.wav,2,2,1,6,,,,,0,14,14,5,0,7,7,10,,,,,,,,,1,1.2519287400000394,,,001,001,2019_May_07_0907,MusicAffectPsychophysiology2019,3.0.5,59.95008711605951,
To what extent did the music make you feel ,SCARED,30MonoWAV/30MonoH2.wav,2,2,1,6,,,,,0,14,14,5,0,8,8,11,,,,,,,,,1,1.4698022859993216,,,001,001,2019_May_07_0907,MusicAffectPsychophysiology2019,3.0.5,59.95008711605951,
To what extent did the music make you feel ,ACTIVE,30MonoWAV/30MonoH2.wav,2,2,1,6,,,,,0,14,14,5,0,9,9,9,,,,,,,,,2,1.234906366999894,,,001,001,2019_May_07_0907,MusicAffectPsychophysiology2019,3.0.5,59.95008711605951,
To what extent did the music make you feel ,ALERT,30MonoWAV/30MonoH2.wav,2,2,1,6,,,,,0,14,14,5,0,10,10,8,,,,,,,,,2,1.388453477999974,,,001,001,2019_May_07_0907,MusicAffectPsychophysiology2019,3.0.5,59.95008711605951,
To what extent did the music make you feel ,ASHAMED,30MonoWAV/30MonoH2.wav,2,2,1,6,,,,,0,14,14,5,0,11,11,4,,,,,,,,,3,1.3181854340000427,,,001,001,2019_May_07_0907,MusicAffectPsychophysiology2019,3.0.5,59.95008711605951,
,,30MonoWAV/30MonoH2.wav,2,2,1,6,,,,,0,14,14,5,,,,,,,,,,,,,,,,,001,001,2019_May_07_0907,MusicAffectPsychophysiology2019,3.0.5,59.95008711605951,
To what extent did the music make you feel ,ANXIOUS ,30MonoWAV/30MonoF2.wav,1,2,2,2,,,,,0,15,15,1,0,0,0,1,,,2,3.2738258879999194,1,1.3003122159998384,,,5,1.3017025939998348,,,001,001,2019_May_07_0907,MusicAffectPsychophysiology2019,3.0.5,59.95008711605951,
To what extent did the music make you feel ,ACTIVE,30MonoWAV/30MonoF2.wav,1,2,2,2,,,,,0,15,15,1,0,1,1,9,,,,,,,,,3,1.3496638819997315,,,001,001,2019_May_07_0907,MusicAffectPsychophysiology2019,3.0.5,59.95008711605951,
To what extent did the music make you feel ,GUILTY,30MonoWAV/30MonoF2.wav,1,2,2,2,,,,,0,15,15,1,0,2,2,5,,,,,,,,,3,3.201517280999724,,,001,001,2019_May_07_0907,MusicAffectPsychophysiology2019,3.0.5,59.95008711605951,
To what extent did the music make you feel ,SCARED,30MonoWAV/30MonoF2.wav,1,2,2,2,,,,,0,15,15,1,0,3,3,11,,,,,,,,,5,1.051520468999115,,,001,001,2019_May_07_0907,MusicAffectPsychophysiology2019,3.0.5,59.95008711605951,
To what extent did the music make you feel ,SAD,30MonoWAV/30MonoF2.wav,1,2,2,2,,,,,0,15,15,1,0,4,4,0,,,,,,,,,3,2.1514011300005222,,,001,001,2019_May_07_0907,MusicAffectPsychophysiology2019,3.0.5,59.95008711605951,
To what extent did the music make you feel ,ASHAMED,30MonoWAV/30MonoF2.wav,1,2,2,2,,,,,0,15,15,1,0,5,5,4,,,,,,,,,2,1.552597419000449,,,001,001,2019_May_07_0907,MusicAffectPsychophysiology2019,3.0.5,59.95008711605951,
To what extent did the music make you feel ,EXCITED,30MonoWAV/30MonoF2.wav,1,2,2,2,,,,,0,15,15,1,0,6,6,7,,,,,,,,,2,1.3852128539992918,,,001,001,2019_May_07_0907,MusicAffectPsychophysiology2019,3.0.5,59.95008711605951,
To what extent did the music make you feel ,ALERT,30MonoWAV/30MonoF2.wav,1,2,2,2,,,,,0,15,15,1,0,7,7,8,,,,,,,,,5,0.9524793679993309,,,001,001,2019_May_07_0907,MusicAffectPsychophysiology2019,3.0.5,59.95008711605951,
To what extent did the music make you feel ,ANGRY,30MonoWAV/30MonoF2.wav,1,2,2,2,,,,,0,15,15,1,0,8,8,2,,,,,,,,,1,1.6345043340006669,,,001,001,2019_May_07_0907,MusicAffectPsychophysiology2019,3.0.5,59.95008711605951,
To what extent did the music make you feel ,HAPPY,30MonoWAV/30MonoF2.wav,1,2,2,2,,,,,0,15,15,1,0,9,9,6,,,,,,,,,1,1.5685258960002102,,,001,001,2019_May_07_0907,MusicAffectPsychophysiology2019,3.0.5,59.95008711605951,
To what extent did the music make you feel ,FRUSTRATED,30MonoWAV/30MonoF2.wav,1,2,2,2,,,,,0,15,15,1,0,10,10,3,,,,,,,,,1,1.352957217999574,,,001,001,2019_May_07_0907,MusicAffectPsychophysiology2019,3.0.5,59.95008711605951,
To what extent did the music make you feel ,TENDER,30MonoWAV/30MonoF2.wav,1,2,2,2,,,,,0,15,15,1,0,11,11,10,,,,,,,,,1,1.056853575999412,,,001,001,2019_May_07_0907,MusicAffectPsychophysiology2019,3.0.5,59.95008711605951,
,,30MonoWAV/30MonoF2.wav,1,2,2,2,,,,,0,15,15,1,,,,,,,,,,,,,,,,,001,001,2019_May_07_0907,MusicAffectPsychophysiology2019,3.0.5,59.95008711605951,
To what extent did the music make you feel ,SAD,30MonoWAV/30MonoS2.wav,1,1,3,10,,,,,1,0,16,9,0,0,0,0,,,2,2.968833983000877,2,2.4182234649997554,,,4,1.5685990719994152,,,001,001,2019_May_07_0907,MusicAffectPsychophysiology2019,3.0.5,59.95008711605951,
To what extent did the music make you feel ,GUILTY,30MonoWAV/30MonoS2.wav,1,1,3,10,,,,,1,0,16,9,0,1,1,5,,,,,,,,,4,2.218213707999894,,,001,001,2019_May_07_0907,MusicAffectPsychophysiology2019,3.0.5,59.95008711605951,
To what extent did the music make you feel ,EXCITED,30MonoWAV/30MonoS2.wav,1,1,3,10,,,,,1,0,16,9,0,2,2,7,,,,,,,,,1,1.6686270420004803,,,001,001,2019_May_07_0907,MusicAffectPsychophysiology2019,3.0.5,59.95008711605951,
To what extent did the music make you feel ,ALERT,30MonoWAV/30MonoS2.wav,1,1,3,10,,,,,1,0,16,9,0,3,3,8,,,,,,,,,2,2.1860279590000573,,,001,001,2019_May_07_0907,MusicAffectPsychophysiology2019,3.0.5,59.95008711605951,
To what extent did the music make you feel ,ANGRY,30MonoWAV/30MonoS2.wav,1,1,3,10,,,,,1,0,16,9,0,4,4,2,,,,,,,,,2,2.0175548679999338,,,001,001,2019_May_07_0907,MusicAffectPsychophysiology2019,3.0.5,59.95008711605951,
To what extent did the music make you feel ,HAPPY,30MonoWAV/30MonoS2.wav,1,1,3,10,,,,,1,0,16,9,0,5,5,6,,,,,,,,,1,1.4687201599999753,,,001,001,2019_May_07_0907,MusicAffectPsychophysiology2019,3.0.5,59.95008711605951,
To what extent did the music make you feel ,TENDER,30MonoWAV/30MonoS2.wav,1,1,3,10,,,,,1,0,16,9,0,6,6,10,,,,,,,,,4,1.0855872049996833,,,001,001,2019_May_07_0907,MusicAffectPsychophysiology2019,3.0.5,59.95008711605951,
To what extent did the music make you feel ,ASHAMED,30MonoWAV/30MonoS2.wav,1,1,3,10,,,,,1,0,16,9,0,7,7,4,,,,,,,,,4,1.0839189199996326,,,001,001,2019_May_07_0907,MusicAffectPsychophysiology2019,3.0.5,59.95008711605951,
To what extent did the music make you feel ,ANXIOUS ,30MonoWAV/30MonoS2.wav,1,1,3,10,,,,,1,0,16,9,0,8,8,1,,,,,,,,,3,1.5683444939995752,,,001,001,2019_May_07_0907,MusicAffectPsychophysiology2019,3.0.5,59.95008711605951,
To what extent did the music make you feel ,SCARED,30MonoWAV/30MonoS2.wav,1,1,3,10,,,,,1,0,16,9,0,9,9,11,,,,,,,,,2,1.4660968210000647,,,001,001,2019_May_07_0907,MusicAffectPsychophysiology2019,3.0.5,59.95008711605951,
To what extent did the music make you feel ,ACTIVE,30MonoWAV/30MonoS2.wav,1,1,3,10,,,,,1,0,16,9,0,10,10,9,,,,,,,,,1,1.4729372729998431,,,001,001,2019_May_07_0907,MusicAffectPsychophysiology2019,3.0.5,59.95008711605951,
To what extent did the music make you feel ,FRUSTRATED,30MonoWAV/30MonoS2.wav,1,1,3,10,,,,,1,0,16,9,0,11,11,3,,,,,,,,,3,1.804458552000142,,,001,001,2019_May_07_0907,MusicAffectPsychophysiology2019,3.0.5,59.95008711605951,
,,30MonoWAV/30MonoS2.wav,1,1,3,10,,,,,1,0,16,9,,,,,,,,,,,,,,,,,001,001,2019_May_07_0907,MusicAffectPsychophysiology2019,3.0.5,59.95008711605951,
To what extent did the music make you feel ,ANGRY,30MonoWAV/30MonoS3.wav,1,1,3,11,,,,,1,1,17,10,0,0,0,2,,,1,4.551698180999665,1,2.000671433000207,,,1,2.0691104090001318,,,001,001,2019_May_07_0907,MusicAffectPsychophysiology2019,3.0.5,59.95008711605951,
To what extent did the music make you feel ,ACTIVE,30MonoWAV/30MonoS3.wav,1,1,3,11,,,,,1,1,17,10,0,1,1,9,,,,,,,,,1,1.1682661349996124,,,001,001,2019_May_07_0907,MusicAffectPsychophysiology2019,3.0.5,59.95008711605951,
To what extent did the music make you feel ,SAD,30MonoWAV/30MonoS3.wav,1,1,3,11,,,,,1,1,17,10,0,2,2,0,,,,,,,,,3,2.965161017000355,,,001,001,2019_May_07_0907,MusicAffectPsychophysiology2019,3.0.5,59.95008711605951,
To what extent did the music make you feel ,GUILTY,30MonoWAV/30MonoS3.wav,1,1,3,11,,,,,1,1,17,10,0,3,3,5,,,,,,,,,2,0.983670716999768,,,001,001,2019_May_07_0907,MusicAffectPsychophysiology2019,3.0.5,59.95008711605951,
To what extent did the music make you feel ,HAPPY,30MonoWAV/30MonoS3.wav,1,1,3,11,,,,,1,1,17,10,0,4,4,6,,,,,,,,,1,1.0185544740006662,,,001,001,2019_May_07_0907,MusicAffectPsychophysiology2019,3.0.5,59.95008711605951,
To what extent did the music make you feel ,EXCITED,30MonoWAV/30MonoS3.wav,1,1,3,11,,,,,1,1,17,10,0,5,5,7,,,,,,,,,1,1.0335682860004454,,,001,001,2019_May_07_0907,MusicAffectPsychophysiology2019,3.0.5,59.95008711605951,
To what extent did the music make you feel ,ANXIOUS ,30MonoWAV/30MonoS3.wav,1,1,3,11,,,,,1,1,17,10,0,6,6,1,,,,,,,,,3,1.0017221170000994,,,001,001,2019_May_07_0907,MusicAffectPsychophysiology2019,3.0.5,59.95008711605951,
To what extent did the music make you feel ,FRUSTRATED,30MonoWAV/30MonoS3.wav,1,1,3,11,,,,,1,1,17,10,0,7,7,3,,,,,,,,,2,1.6848259930002314,,,001,001,2019_May_07_0907,MusicAffectPsychophysiology2019,3.0.5,59.95008711605951,
To what extent did the music make you feel ,ASHAMED,30MonoWAV/30MonoS3.wav,1,1,3,11,,,,,1,1,17,10,0,8,8,4,,,,,,,,,3,1.1511823210003058,,,001,001,2019_May_07_0907,MusicAffectPsychophysiology2019,3.0.5,59.95008711605951,
To what extent did the music make you feel ,SCARED,30MonoWAV/30MonoS3.wav,1,1,3,11,,,,,1,1,17,10,0,9,9,11,,,,,,,,,2,1.9174242909994064,,,001,001,2019_May_07_0907,MusicAffectPsychophysiology2019,3.0.5,59.95008711605951,
To what extent did the music make you feel ,ALERT,30MonoWAV/30MonoS3.wav,1,1,3,11,,,,,1,1,17,10,0,10,10,8,,,,,,,,,2,1.434554178000326,,,001,001,2019_May_07_0907,MusicAffectPsychophysiology2019,3.0.5,59.95008711605951,
To what extent did the music make you feel ,TENDER,30MonoWAV/30MonoS3.wav,1,1,3,11,,,,,1,1,17,10,0,11,11,10,,,,,,,,,3,1.2687169289993108,,,001,001,2019_May_07_0907,MusicAffectPsychophysiology2019,3.0.5,59.95008711605951,
,,30MonoWAV/30MonoS3.wav,1,1,3,11,,,,,1,1,17,10,,,,,,,,,,,,,,,,,001,001,2019_May_07_0907,MusicAffectPsychophysiology2019,3.0.5,59.95008711605951,
To what extent did the music make you feel ,SAD,30MonoWAV/30MonoT4.wav,2,1,4,16,,,,,1,2,18,15,0,0,0,0,,,5,2.802103459999671,5,1.835236590999557,,,1,1.4319678960000601,,,001,001,2019_May_07_0907,MusicAffectPsychophysiology2019,3.0.5,59.95008711605951,
To what extent did the music make you feel ,ANGRY,30MonoWAV/30MonoT4.wav,2,1,4,16,,,,,1,2,18,15,0,1,1,2,,,,,,,,,1,2.286327406000055,,,001,001,2019_May_07_0907,MusicAffectPsychophysiology2019,3.0.5,59.95008711605951,
To what extent did the music make you feel ,GUILTY,30MonoWAV/30MonoT4.wav,2,1,4,16,,,,,1,2,18,15,0,2,2,5,,,,,,,,,1,2.15211885699955,,,001,001,2019_May_07_0907,MusicAffectPsychophysiology2019,3.0.5,59.95008711605951,
To what extent did the music make you feel ,TENDER,30MonoWAV/30MonoT4.wav,2,1,4,16,,,,,1,2,18,15,0,3,3,10,,,,,,,,,3,1.0173570970000583,,,001,001,2019_May_07_0907,MusicAffectPsychophysiology2019,3.0.5,59.95008711605951,
To what extent did the music make you feel ,ANXIOUS ,30MonoWAV/30MonoT4.wav,2,1,4,16,,,,,1,2,18,15,0,4,4,1,,,,,,,,,1,1.9843453339999542,,,001,001,2019_May_07_0907,MusicAffectPsychophysiology2019,3.0.5,59.95008711605951,
To what extent did the music make you feel ,ASHAMED,30MonoWAV/30MonoT4.wav,2,1,4,16,,,,,1,2,18,15,0,5,5,4,,,,,,,,,1,1.1366356239996094,,,001,001,2019_May_07_0907,MusicAffectPsychophysiology2019,3.0.5,59.95008711605951,
To what extent did the music make you feel ,FRUSTRATED,30MonoWAV/30MonoT4.wav,2,1,4,16,,,,,1,2,18,15,0,6,6,3,,,,,,,,,1,0.9177416980000999,,,001,001,2019_May_07_0907,MusicAffectPsychophysiology2019,3.0.5,59.95008711605951,
To what extent did the music make you feel ,ALERT,30MonoWAV/30MonoT4.wav,2,1,4,16,,,,,1,2,18,15,0,7,7,8,,,,,,,,,1,1.6686706390000836,,,001,001,2019_May_07_0907,MusicAffectPsychophysiology2019,3.0.5,59.95008711605951,
To what extent did the music make you feel ,HAPPY,30MonoWAV/30MonoT4.wav,2,1,4,16,,,,,1,2,18,15,0,8,8,6,,,,,,,,,5,1.1165463480001563,,,001,001,2019_May_07_0907,MusicAffectPsychophysiology2019,3.0.5,59.95008711605951,
To what extent did the music make you feel ,EXCITED,30MonoWAV/30MonoT4.wav,2,1,4,16,,,,,1,2,18,15,0,9,9,7,,,,,,,,,5,1.4001958519993423,,,001,001,2019_May_07_0907,MusicAffectPsychophysiology2019,3.0.5,59.95008711605951,
To what extent did the music make you feel ,ACTIVE,30MonoWAV/30MonoT4.wav,2,1,4,16,,,,,1,2,18,15,0,10,10,9,,,,,,,,,5,0.7015038070003357,,,001,001,2019_May_07_0907,MusicAffectPsychophysiology2019,3.0.5,59.95008711605951,
To what extent did the music make you feel ,SCARED,30MonoWAV/30MonoT4.wav,2,1,4,16,,,,,1,2,18,15,0,11,11,11,,,,,,,,,1,1.6023605579994182,,,001,001,2019_May_07_0907,MusicAffectPsychophysiology2019,3.0.5,59.95008711605951,
,,30MonoWAV/30MonoT4.wav,2,1,4,16,,,,,1,2,18,15,,,,,,,,,,,,,,,,,001,001,2019_May_07_0907,MusicAffectPsychophysiology2019,3.0.5,59.95008711605951,
To what extent did the music make you feel ,ACTIVE,30MonoWAV/30MonoS1.wav,1,1,3,9,,,,,1,3,19,8,0,0,0,9,,,1,11.934337024000342,2,3.3682834420005747,,,1,2.201607948999481,,,001,001,2019_May_07_0907,MusicAffectPsychophysiology2019,3.0.5,59.95008711605951,
To what extent did the music make you feel ,TENDER,30MonoWAV/30MonoS1.wav,1,1,3,9,,,,,1,3,19,8,0,1,1,10,,,,,,,,,3,1.5848946249998335,,,001,001,2019_May_07_0907,MusicAffectPsychophysiology2019,3.0.5,59.95008711605951,
To what extent did the music make you feel ,ASHAMED,30MonoWAV/30MonoS1.wav,1,1,3,9,,,,,1,3,19,8,0,2,2,4,,,,,,,,,3,1.2180909570006406,,,001,001,2019_May_07_0907,MusicAffectPsychophysiology2019,3.0.5,59.95008711605951,
To what extent did the music make you feel ,ANGRY,30MonoWAV/30MonoS1.wav,1,1,3,9,,,,,1,3,19,8,0,3,3,2,,,,,,,,,1,0.9682186700001694,,,001,001,2019_May_07_0907,MusicAffectPsychophysiology2019,3.0.5,59.95008711605951,
To what extent did the music make you feel ,SAD,30MonoWAV/30MonoS1.wav,1,1,3,9,,,,,1,3,19,8,0,4,4,0,,,,,,,,,3,1.6360434520001945,,,001,001,2019_May_07_0907,MusicAffectPsychophysiology2019,3.0.5,59.95008711605951,
To what extent did the music make you feel ,FRUSTRATED,30MonoWAV/30MonoS1.wav,1,1,3,9,,,,,1,3,19,8,0,5,5,3,,,,,,,,,2,1.30072272399957,,,001,001,2019_May_07_0907,MusicAffectPsychophysiology2019,3.0.5,59.95008711605951,
To what extent did the music make you feel ,GUILTY,30MonoWAV/30MonoS1.wav,1,1,3,9,,,,,1,3,19,8,0,6,6,5,,,,,,,,,4,1.4179900359995372,,,001,001,2019_May_07_0907,MusicAffectPsychophysiology2019,3.0.5,59.95008711605951,
To what extent did the music make you feel ,EXCITED,30MonoWAV/30MonoS1.wav,1,1,3,9,,,,,1,3,19,8,0,7,7,7,,,,,,,,,1,2.6014512080000713,,,001,001,2019_May_07_0907,MusicAffectPsychophysiology2019,3.0.5,59.95008711605951,
To what extent did the music make you feel ,SCARED,30MonoWAV/30MonoS1.wav,1,1,3,9,,,,,1,3,19,8,0,8,8,11,,,,,,,,,2,1.6663736210002753,,,001,001,2019_May_07_0907,MusicAffectPsychophysiology2019,3.0.5,59.95008711605951,
To what extent did the music make you feel ,HAPPY,30MonoWAV/30MonoS1.wav,1,1,3,9,,,,,1,3,19,8,0,9,9,6,,,,,,,,,1,1.5015404910000143,,,001,001,2019_May_07_0907,MusicAffectPsychophysiology2019,3.0.5,59.95008711605951,
To what extent did the music make you feel ,ALERT,30MonoWAV/30MonoS1.wav,1,1,3,9,,,,,1,3,19,8,0,10,10,8,,,,,,,,,1,1.4024913379998907,,,001,001,2019_May_07_0907,MusicAffectPsychophysiology2019,3.0.5,59.95008711605951,
To what extent did the music make you feel ,ANXIOUS ,30MonoWAV/30MonoS1.wav,1,1,3,9,,,,,1,3,19,8,0,11,11,1,,,,,,,,,3,3.401822212999832,,,001,001,2019_May_07_0907,MusicAffectPsychophysiology2019,3.0.5,59.95008711605951,
,,30MonoWAV/30MonoS1.wav,1,1,3,9,,,,,1,3,19,8,,,,,,,,,,,,,,,,,001,001,2019_May_07_0907,MusicAffectPsychophysiology2019,3.0.5,59.95008711605951,
To what extent did the music make you feel ,GUILTY,30MonoWAV/30MonoH4.wav,2,2,1,8,,,,,1,4,20,7,0,0,0,5,,,4,3.5704978339999798,4,2.2025112000001172,,,1,1.9051079419996313,,,001,001,2019_May_07_0907,MusicAffectPsychophysiology2019,3.0.5,59.95008711605951,
To what extent did the music make you feel ,FRUSTRATED,30MonoWAV/30MonoH4.wav,2,2,1,8,,,,,1,4,20,7,0,1,1,3,,,,,,,,,1,1.7369404920000306,,,001,001,2019_May_07_0907,MusicAffectPsychophysiology2019,3.0.5,59.95008711605951,
To what extent did the music make you feel ,ALERT,30MonoWAV/30MonoH4.wav,2,2,1,8,,,,,1,4,20,7,0,2,2,8,,,,,,,,,3,1.1371969749998243,,,001,001,2019_May_07_0907,MusicAffectPsychophysiology2019,3.0.5,59.95008711605951,
To what extent did the music make you feel ,EXCITED,30MonoWAV/30MonoH4.wav,2,2,1,8,,,,,1,4,20,7,0,3,3,7,,,,,,,,,4,0.8868707479996374,,,001,001,2019_May_07_0907,MusicAffectPsychophysiology2019,3.0.5,59.95008711605951,
To what extent did the music make you feel ,ANXIOUS ,30MonoWAV/30MonoH4.wav,2,2,1,8,,,,,1,4,20,7,0,4,4,1,,,,,,,,,1,1.653691290000097,,,001,001,2019_May_07_0907,MusicAffectPsychophysiology2019,3.0.5,59.95008711605951,
To what extent did the music make you feel ,HAPPY,30MonoWAV/30MonoH4.wav,2,2,1,8,,,,,1,4,20,7,0,5,5,6,,,,,,,,,5,2.17321975699997,,,001,001,2019_May_07_0907,MusicAffectPsychophysiology2019,3.0.5,59.95008711605951,
To what extent did the music make you feel ,ASHAMED,30MonoWAV/30MonoH4.wav,2,2,1,8,,,,,1,4,20,7,0,6,6,4,,,,,,,,,2,1.6512058339994837,,,001,001,2019_May_07_0907,MusicAffectPsychophysiology2019,3.0.5,59.95008711605951,
To what extent did the music make you feel ,SCARED,30MonoWAV/30MonoH4.wav,2,2,1,8,,,,,1,4,20,7,0,7,7,11,,,,,,,,,1,2.9185239879998335,,,001,001,2019_May_07_0907,MusicAffectPsychophysiology2019,3.0.5,59.95008711605951,
To what extent did the music make you feel ,TENDER,30MonoWAV/30MonoH4.wav,2,2,1,8,,,,,1,4,20,7,0,8,8,10,,,,,,,,,1,1.3837929780002014,,,001,001,2019_May_07_0907,MusicAffectPsychophysiology2019,3.0.5,59.95008711605951,
To what extent did the music make you feel ,ANGRY,30MonoWAV/30MonoH4.wav,2,2,1,8,,,,,1,4,20,7,0,9,9,2,,,,,,,,,1,1.9675188420005725,,,001,001,2019_May_07_0907,MusicAffectPsychophysiology2019,3.0.5,59.95008711605951,
To what extent did the music make you feel ,SAD,30MonoWAV/30MonoH4.wav,2,2,1,8,,,,,1,4,20,7,0,10,10,0,,,,,,,,,1,2.1509434069994313,,,001,001,2019_May_07_0907,MusicAffectPsychophysiology2019,3.0.5,59.95008711605951,
To what extent did the music make you feel ,ACTIVE,30MonoWAV/30MonoH4.wav,2,2,1,8,,,,,1,4,20,7,0,11,11,9,,,,,,,,,3,1.1848957879992668,,,001,001,2019_May_07_0907,MusicAffectPsychophysiology2019,3.0.5,59.95008711605951,
,,30MonoWAV/30MonoH4.wav,2,2,1,8,,,,,1,4,20,7,,,,,,,,,,,,,,,,,001,001,2019_May_07_0907,MusicAffectPsychophysiology2019,3.0.5,59.95008711605951,
To what extent did the music make you feel ,TENDER,30MonoWAV/30MonoH2.wav,2,2,1,6,,,,,1,5,21,5,0,0,0,10,,,3,7.23520261900012,3,3.900887099999636,,,2,1.6018044130005364,,,001,001,2019_May_07_0907,MusicAffectPsychophysiology2019,3.0.5,59.95008711605951,
To what extent did the music make you feel ,GUILTY,30MonoWAV/30MonoH2.wav,2,2,1,6,,,,,1,5,21,5,0,1,1,5,,,,,,,,,2,1.3019263989999672,,,001,001,2019_May_07_0907,MusicAffectPsychophysiology2019,3.0.5,59.95008711605951,
To what extent did the music make you feel ,SAD,30MonoWAV/30MonoH2.wav,2,2,1,6,,,,,1,5,21,5,0,2,2,0,,,,,,,,,2,1.585362907999297,,,001,001,2019_May_07_0907,MusicAffectPsychophysiology2019,3.0.5,59.95008711605951,
To what extent did the music make you feel ,ACTIVE,30MonoWAV/30MonoH2.wav,2,2,1,6,,,,,1,5,21,5,0,3,3,9,,,,,,,,,2,1.9019540669996786,,,001,001,2019_May_07_0907,MusicAffectPsychophysiology2019,3.0.5,59.95008711605951,
To what extent did the music make you feel ,ANGRY,30MonoWAV/30MonoH2.wav,2,2,1,6,,,,,1,5,21,5,0,4,4,2,,,,,,,,,1,1.15196619299968,,,001,001,2019_May_07_0907,MusicAffectPsychophysiology2019,3.0.5,59.95008711605951,
To what extent did the music make you feel ,FRUSTRATED,30MonoWAV/30MonoH2.wav,2,2,1,6,,,,,1,5,21,5,0,5,5,3,,,,,,,,,1,1.785724203999962,,,001,001,2019_May_07_0907,MusicAffectPsychophysiology2019,3.0.5,59.95008711605951,
To what extent did the music make you feel ,ASHAMED,30MonoWAV/30MonoH2.wav,2,2,1,6,,,,,1,5,21,5,0,6,6,4,,,,,,,,,1,2.768608790000144,,,001,001,2019_May_07_0907,MusicAffectPsychophysiology2019,3.0.5,59.95008711605951,
To what extent did the music make you feel ,SCARED,30MonoWAV/30MonoH2.wav,2,2,1,6,,,,,1,5,21,5,0,7,7,11,,,,,,,,,1,1.4025138819997665,,,001,001,2019_May_07_0907,MusicAffectPsychophysiology2019,3.0.5,59.95008711605951,
To what extent did the music make you feel ,HAPPY,30MonoWAV/30MonoH2.wav,2,2,1,6,,,,,1,5,21,5,0,8,8,6,,,,,,,,,2,2.000630330999229,,,001,001,2019_May_07_0907,MusicAffectPsychophysiology2019,3.0.5,59.95008711605951,
To what extent did the music make you feel ,ANXIOUS ,30MonoWAV/30MonoH2.wav,2,2,1,6,,,,,1,5,21,5,0,9,9,1,,,,,,,,,3,1.5011104300001534,,,001,001,2019_May_07_0907,MusicAffectPsychophysiology2019,3.0.5,59.95008711605951,
To what extent did the music make you feel ,EXCITED,30MonoWAV/30MonoH2.wav,2,2,1,6,,,,,1,5,21,5,0,10,10,7,,,,,,,,,2,1.6849285150001378,,,001,001,2019_May_07_0907,MusicAffectPsychophysiology2019,3.0.5,59.95008711605951,
To what extent did the music make you feel ,ALERT,30MonoWAV/30MonoH2.wav,2,2,1,6,,,,,1,5,21,5,0,11,11,8,,,,,,,,,2,1.4507306069999686,,,001,001,2019_May_07_0907,MusicAffectPsychophysiology2019,3.0.5,59.95008711605951,
,,30MonoWAV/30MonoH2.wav,2,2,1,6,,,,,1,5,21,5,,,,,,,,,,,,,,,,,001,001,2019_May_07_0907,MusicAffectPsychophysiology2019,3.0.5,59.95008711605951,
To what extent did the music make you feel ,SAD,30MonoWAV/30MonoF3.wav,1,2,2,3,,,,,1,6,22,2,0,0,0,0,,,3,2.705054205000124,1,1.8230719170005614,,,2,2.135806999000124,,,001,001,2019_May_07_0907,MusicAffectPsychophysiology2019,3.0.5,59.95008711605951,
To what extent did the music make you feel ,ASHAMED,30MonoWAV/30MonoF3.wav,1,2,2,3,,,,,1,6,22,2,0,1,1,4,,,,,,,,,2,1.1350321740001164,,,001,001,2019_May_07_0907,MusicAffectPsychophysiology2019,3.0.5,59.95008711605951,
To what extent did the music make you feel ,SCARED,30MonoWAV/30MonoF3.wav,1,2,2,3,,,,,1,6,22,2,0,2,2,11,,,,,,,,,4,1.1682033619999856,,,001,001,2019_May_07_0907,MusicAffectPsychophysiology2019,3.0.5,59.95008711605951,
To what extent did the music make you feel ,ALERT,30MonoWAV/30MonoF3.wav,1,2,2,3,,,,,1,6,22,2,0,3,3,8,,,,,,,,,4,0.8502783949998047,,,001,001,2019_May_07_0907,MusicAffectPsychophysiology2019,3.0.5,59.95008711605951,
To what extent did the music make you feel ,GUILTY,30MonoWAV/30MonoF3.wav,1,2,2,3,,,,,1,6,22,2,0,4,4,5,,,,,,,,,4,1.7179816890002257,,,001,001,2019_May_07_0907,MusicAffectPsychophysiology2019,3.0.5,59.95008711605951,
To what extent did the music make you feel ,ACTIVE,30MonoWAV/30MonoF3.wav,1,2,2,3,,,,,1,6,22,2,0,5,5,9,,,,,,,,,3,1.4019552019999537,,,001,001,2019_May_07_0907,MusicAffectPsychophysiology2019,3.0.5,59.95008711605951,
To what extent did the music make you feel ,HAPPY,30MonoWAV/30MonoF3.wav,1,2,2,3,,,,,1,6,22,2,0,6,6,6,,,,,,,,,1,1.534386242000437,,,001,001,2019_May_07_0907,MusicAffectPsychophysiology2019,3.0.5,59.95008711605951,
To what extent did the music make you feel ,EXCITED,30MonoWAV/30MonoF3.wav,1,2,2,3,,,,,1,6,22,2,0,7,7,7,,,,,,,,,2,1.4514805399994657,,,001,001,2019_May_07_0907,MusicAffectPsychophysiology2019,3.0.5,59.95008711605951,
To what extent did the music make you feel ,ANXIOUS ,30MonoWAV/30MonoF3.wav,1,2,2,3,,,,,1,6,22,2,0,8,8,1,,,,,,,,,4,1.2513934859998699,,,001,001,2019_May_07_0907,MusicAffectPsychophysiology2019,3.0.5,59.95008711605951,
To what extent did the music make you feel ,ANGRY,30MonoWAV/30MonoF3.wav,1,2,2,3,,,,,1,6,22,2,0,9,9,2,,,,,,,,,1,2.0347141840002223,,,001,001,2019_May_07_0907,MusicAffectPsychophysiology2019,3.0.5,59.95008711605951,
To what extent did the music make you feel ,FRUSTRATED,30MonoWAV/30MonoF3.wav,1,2,2,3,,,,,1,6,22,2,0,10,10,3,,,,,,,,,2,1.4190714389997083,,,001,001,2019_May_07_0907,MusicAffectPsychophysiology2019,3.0.5,59.95008711605951,
To what extent did the music make you feel ,TENDER,30MonoWAV/30MonoF3.wav,1,2,2,3,,,,,1,6,22,2,0,11,11,10,,,,,,,,,2,1.3683834459998252,,,001,001,2019_May_07_0907,MusicAffectPsychophysiology2019,3.0.5,59.95008711605951,
,,30MonoWAV/30MonoF3.wav,1,2,2,3,,,,,1,6,22,2,,,,,,,,,,,,,,,,,001,001,2019_May_07_0907,MusicAffectPsychophysiology2019,3.0.5,59.95008711605951,
To what extent did the music make you feel ,ACTIVE,30MonoWAV/30MonoT1.wav,2,1,4,13,,,,,1,7,23,12,0,0,0,9,,,2,5.4588977660005185,4,1.2505335599998944,,,2,1.6847583159997157,,,001,001,2019_May_07_0907,MusicAffectPsychophysiology2019,3.0.5,59.95008711605951,
To what extent did the music make you feel ,SCARED,30MonoWAV/30MonoT1.wav,2,1,4,13,,,,,1,7,23,12,0,1,1,11,,,,,,,,,1,1.5189743170003567,,,001,001,2019_May_07_0907,MusicAffectPsychophysiology2019,3.0.5,59.95008711605951,
To what extent did the music make you feel ,ALERT,30MonoWAV/30MonoT1.wav,2,1,4,13,,,,,1,7,23,12,0,2,2,8,,,,,,,,,2,1.91860822200033,,,001,001,2019_May_07_0907,MusicAffectPsychophysiology2019,3.0.5,59.95008711605951,
To what extent did the music make you feel ,FRUSTRATED,30MonoWAV/30MonoT1.wav,2,1,4,13,,,,,1,7,23,12,0,3,3,3,,,,,,,,,1,0.9353261810001641,,,001,001,2019_May_07_0907,MusicAffectPsychophysiology2019,3.0.5,59.95008711605951,
To what extent did the music make you feel ,TENDER,30MonoWAV/30MonoT1.wav,2,1,4,13,,,,,1,7,23,12,0,4,4,10,,,,,,,,,3,1.1844842419995985,,,001,001,2019_May_07_0907,MusicAffectPsychophysiology2019,3.0.5,59.95008711605951,
To what extent did the music make you feel ,EXCITED,30MonoWAV/30MonoT1.wav,2,1,4,13,,,,,1,7,23,12,0,5,5,7,,,,,,,,,1,1.2187301700005264,,,001,001,2019_May_07_0907,MusicAffectPsychophysiology2019,3.0.5,59.95008711605951,
To what extent did the music make you feel ,ANGRY,30MonoWAV/30MonoT1.wav,2,1,4,13,,,,,1,7,23,12,0,6,6,2,,,,,,,,,1,1.0190572390001762,,,001,001,2019_May_07_0907,MusicAffectPsychophysiology2019,3.0.5,59.95008711605951,
To what extent did the music make you feel ,GUILTY,30MonoWAV/30MonoT1.wav,2,1,4,13,,,,,1,7,23,12,0,7,7,5,,,,,,,,,1,1.002125302999957,,,001,001,2019_May_07_0907,MusicAffectPsychophysiology2019,3.0.5,59.95008711605951,
To what extent did the music make you feel ,ANXIOUS ,30MonoWAV/30MonoT1.wav,2,1,4,13,,,,,1,7,23,12,0,8,8,1,,,,,,,,,1,0.9506611669994527,,,001,001,2019_May_07_0907,MusicAffectPsychophysiology2019,3.0.5,59.95008711605951,
To what extent did the music make you feel ,ASHAMED,30MonoWAV/30MonoT1.wav,2,1,4,13,,,,,1,7,23,12,0,9,9,4,,,,,,,,,1,0.7670327759997235,,,001,001,2019_May_07_0907,MusicAffectPsychophysiology2019,3.0.5,59.95008711605951,
To what extent did the music make you feel ,HAPPY,30MonoWAV/30MonoT1.wav,2,1,4,13,,,,,1,7,23,12,0,10,10,6,,,,,,,,,3,2.234394441999939,,,001,001,2019_May_07_0907,MusicAffectPsychophysiology2019,3.0.5,59.95008711605951,
To what extent did the music make you feel ,SAD,30MonoWAV/30MonoT1.wav,2,1,4,13,,,,,1,7,23,12,0,11,11,0,,,,,,,,,2,1.1850998620002429,,,001,001,2019_May_07_0907,MusicAffectPsychophysiology2019,3.0.5,59.95008711605951,
,,30MonoWAV/30MonoT1.wav,2,1,4,13,,,,,1,7,23,12,,,,,,,,,,,,,,,,,001,001,2019_May_07_0907,MusicAffectPsychophysiology2019,3.0.5,59.95008711605951,
To what extent did the music make you feel ,ANGRY,30MonoWAV/30MonoF4.wav,1,2,2,4,,,,,1,8,24,3,0,0,0,2,,,3,4.434494421000636,2,1.484524755000166,,,2,3.252094538000165,,,001,001,2019_May_07_0907,MusicAffectPsychophysiology2019,3.0.5,59.95008711605951,
To what extent did the music make you feel ,ALERT,30MonoWAV/30MonoF4.wav,1,2,2,4,,,,,1,8,24,3,0,1,1,8,,,,,,,,,4,1.7681105080000634,,,001,001,2019_May_07_0907,MusicAffectPsychophysiology2019,3.0.5,59.95008711605951,
To what extent did the music make you feel ,TENDER,30MonoWAV/30MonoF4.wav,1,2,2,4,,,,,1,8,24,3,0,2,2,10,,,,,,,,,2,1.3353685299998688,,,001,001,2019_May_07_0907,MusicAffectPsychophysiology2019,3.0.5,59.95008711605951,
To what extent did the music make you feel ,SCARED,30MonoWAV/30MonoF4.wav,1,2,2,4,,,,,1,8,24,3,0,3,3,11,,,,,,,,,4,1.1522667720000754,,,001,001,2019_May_07_0907,MusicAffectPsychophysiology2019,3.0.5,59.95008711605951,
To what extent did the music make you feel ,GUILTY,30MonoWAV/30MonoF4.wav,1,2,2,4,,,,,1,8,24,3,0,4,4,5,,,,,,,,,2,1.9018780989999868,,,001,001,2019_May_07_0907,MusicAffectPsychophysiology2019,3.0.5,59.95008711605951,
To what extent did the music make you feel ,HAPPY,30MonoWAV/30MonoF4.wav,1,2,2,4,,,,,1,8,24,3,0,5,5,6,,,,,,,,,1,1.7684381090002717,,,001,001,2019_May_07_0907,MusicAffectPsychophysiology2019,3.0.5,59.95008711605951,
To what extent did the music make you feel ,ANXIOUS ,30MonoWAV/30MonoF4.wav,1,2,2,4,,,,,1,8,24,3,0,6,6,1,,,,,,,,,5,1.2010178059999816,,,001,001,2019_May_07_0907,MusicAffectPsychophysiology2019,3.0.5,59.95008711605951,
To what extent did the music make you feel ,ACTIVE,30MonoWAV/30MonoF4.wav,1,2,2,4,,,,,1,8,24,3,0,7,7,9,,,,,,,,,4,3.468436661999476,,,001,001,2019_May_07_0907,MusicAffectPsychophysiology2019,3.0.5,59.95008711605951,
To what extent did the music make you feel ,EXCITED,30MonoWAV/30MonoF4.wav,1,2,2,4,,,,,1,8,24,3,0,8,8,7,,,,,,,,,1,1.4025591489998988,,,001,001,2019_May_07_0907,MusicAffectPsychophysiology2019,3.0.5,59.95008711605951,
To what extent did the music make you feel ,ASHAMED,30MonoWAV/30MonoF4.wav,1,2,2,4,,,,,1,8,24,3,0,9,9,4,,,,,,,,,3,1.252398159999757,,,001,001,2019_May_07_0907,MusicAffectPsychophysiology2019,3.0.5,59.95008711605951,
To what extent did the music make you feel ,SAD,30MonoWAV/30MonoF4.wav,1,2,2,4,,,,,1,8,24,3,0,10,10,0,,,,,,,,,3,1.8064398369997434,,,001,001,2019_May_07_0907,MusicAffectPsychophysiology2019,3.0.5,59.95008711605951,
To what extent did the music make you feel ,FRUSTRATED,30MonoWAV/30MonoF4.wav,1,2,2,4,,,,,1,8,24,3,0,11,11,3,,,,,,,,,1,1.3013366920004046,,,001,001,2019_May_07_0907,MusicAffectPsychophysiology2019,3.0.5,59.95008711605951,
,,30MonoWAV/30MonoF4.wav,1,2,2,4,,,,,1,8,24,3,,,,,,,,,,,,,,,,,001,001,2019_May_07_0907,MusicAffectPsychophysiology2019,3.0.5,59.95008711605951,
To what extent did the music make you feel ,HAPPY,30MonoWAV/30MonoT3.wav,2,1,4,15,,,,,1,9,25,14,0,0,0,6,,,2,9.22187882199978,5,1.468168541000523,,,5,0.9499478960005945,,,001,001,2019_May_07_0907,MusicAffectPsychophysiology2019,3.0.5,59.95008711605951,
To what extent did the music make you feel ,SCARED,30MonoWAV/30MonoT3.wav,2,1,4,15,,,,,1,9,25,14,0,1,1,11,,,,,,,,,1,1.0845391450002353,,,001,001,2019_May_07_0907,MusicAffectPsychophysiology2019,3.0.5,59.95008711605951,
To what extent did the music make you feel ,ANGRY,30MonoWAV/30MonoT3.wav,2,1,4,15,,,,,1,9,25,14,0,2,2,2,,,,,,,,,1,0.9350900429999456,,,001,001,2019_May_07_0907,MusicAffectPsychophysiology2019,3.0.5,59.95008711605951,
To what extent did the music make you feel ,EXCITED,30MonoWAV/30MonoT3.wav,2,1,4,15,,,,,1,9,25,14,0,3,3,7,,,,,,,,,2,2.0348641230002613,,,001,001,2019_May_07_0907,MusicAffectPsychophysiology2019,3.0.5,59.95008711605951,
To what extent did the music make you feel ,ANXIOUS ,30MonoWAV/30MonoT3.wav,2,1,4,15,,,,,1,9,25,14,0,4,4,1,,,,,,,,,1,1.131808885999817,,,001,001,2019_May_07_0907,MusicAffectPsychophysiology2019,3.0.5,59.95008711605951,
To what extent did the music make you feel ,ASHAMED,30MonoWAV/30MonoT3.wav,2,1,4,15,,,,,1,9,25,14,0,5,5,4,,,,,,,,,1,0.7685392089997549,,,001,001,2019_May_07_0907,MusicAffectPsychophysiology2019,3.0.5,59.95008711605951,
To what extent did the music make you feel ,GUILTY,30MonoWAV/30MonoT3.wav,2,1,4,15,,,,,1,9,25,14,0,6,6,5,,,,,,,,,2,2.1016843220004375,,,001,001,2019_May_07_0907,MusicAffectPsychophysiology2019,3.0.5,59.95008711605951,
To what extent did the music make you feel ,SAD,30MonoWAV/30MonoT3.wav,2,1,4,15,,,,,1,9,25,14,0,7,7,0,,,,,,,,,2,1.469121524000002,,,001,001,2019_May_07_0907,MusicAffectPsychophysiology2019,3.0.5,59.95008711605951,
To what extent did the music make you feel ,ACTIVE,30MonoWAV/30MonoT3.wav,2,1,4,15,,,,,1,9,25,14,0,8,8,9,,,,,,,,,1,2.201810927000224,,,001,001,2019_May_07_0907,MusicAffectPsychophysiology2019,3.0.5,59.95008711605951,
To what extent did the music make you feel ,FRUSTRATED,30MonoWAV/30MonoT3.wav,2,1,4,15,,,,,1,9,25,14,0,9,9,3,,,,,,,,,1,1.0012150069997006,,,001,001,2019_May_07_0907,MusicAffectPsychophysiology2019,3.0.5,59.95008711605951,
To what extent did the music make you feel ,TENDER,30MonoWAV/30MonoT3.wav,2,1,4,15,,,,,1,9,25,14,0,10,10,10,,,,,,,,,3,1.1685340060003,,,001,001,2019_May_07_0907,MusicAffectPsychophysiology2019,3.0.5,59.95008711605951,
To what extent did the music make you feel ,ALERT,30MonoWAV/30MonoT3.wav,2,1,4,15,,,,,1,9,25,14,0,11,11,8,,,,,,,,,1,1.585499689000244,,,001,001,2019_May_07_0907,MusicAffectPsychophysiology2019,3.0.5,59.95008711605951,
,,30MonoWAV/30MonoT3.wav,2,1,4,15,,,,,1,9,25,14,,,,,,,,,,,,,,,,,001,001,2019_May_07_0907,MusicAffectPsychophysiology2019,3.0.5,59.95008711605951,
To what extent did the music make you feel ,SAD,30MonoWAV/30MonoS4.wav,1,1,3,12,,,,,1,10,26,11,0,0,0,0,,,2,11.966342925999015,2,2.401492238999708,,,3,1.368688029000623,,,001,001,2019_May_07_0907,MusicAffectPsychophysiology2019,3.0.5,59.95008711605951,
To what extent did the music make you feel ,ANXIOUS ,30MonoWAV/30MonoS4.wav,1,1,3,12,,,,,1,10,26,11,0,1,1,1,,,,,,,,,1,1.4691133120013546,,,001,001,2019_May_07_0907,MusicAffectPsychophysiology2019,3.0.5,59.95008711605951,
To what extent did the music make you feel ,FRUSTRATED,30MonoWAV/30MonoS4.wav,1,1,3,12,,,,,1,10,26,11,0,2,2,3,,,,,,,,,1,0.9189577289998851,,,001,001,2019_May_07_0907,MusicAffectPsychophysiology2019,3.0.5,59.95008711605951,
To what extent did the music make you feel ,ACTIVE,30MonoWAV/30MonoS4.wav,1,1,3,12,,,,,1,10,26,11,0,3,3,9,,,,,,,,,1,1.2511260230003245,,,001,001,2019_May_07_0907,MusicAffectPsychophysiology2019,3.0.5,59.95008711605951,
To what extent did the music make you feel ,ANGRY,30MonoWAV/30MonoS4.wav,1,1,3,12,,,,,1,10,26,11,0,4,4,2,,,,,,,,,1,1.3681903130000137,,,001,001,2019_May_07_0907,MusicAffectPsychophysiology2019,3.0.5,59.95008711605951,
To what extent did the music make you feel ,GUILTY,30MonoWAV/30MonoS4.wav,1,1,3,12,,,,,1,10,26,11,0,5,5,5,,,,,,,,,2,0.9176592210005765,,,001,001,2019_May_07_0907,MusicAffectPsychophysiology2019,3.0.5,59.95008711605951,
To what extent did the music make you feel ,ALERT,30MonoWAV/30MonoS4.wav,1,1,3,12,,,,,1,10,26,11,0,6,6,8,,,,,,,,,1,1.3187366319998546,,,001,001,2019_May_07_0907,MusicAffectPsychophysiology2019,3.0.5,59.95008711605951,
To what extent did the music make you feel ,ASHAMED,30MonoWAV/30MonoS4.wav,1,1,3,12,,,,,1,10,26,11,0,7,7,4,,,,,,,,,2,1.1197774510001182,,,001,001,2019_May_07_0907,MusicAffectPsychophysiology2019,3.0.5,59.95008711605951,
To what extent did the music make you feel ,HAPPY,30MonoWAV/30MonoS4.wav,1,1,3,12,,,,,1,10,26,11,0,8,8,6,,,,,,,,,1,0.9181239650006319,,,001,001,2019_May_07_0907,MusicAffectPsychophysiology2019,3.0.5,59.95008711605951,
To what extent did the music make you feel ,SCARED,30MonoWAV/30MonoS4.wav,1,1,3,12,,,,,1,10,26,11,0,9,9,11,,,,,,,,,3,0.9839206439992267,,,001,001,2019_May_07_0907,MusicAffectPsychophysiology2019,3.0.5,59.95008711605951,
To what extent did the music make you feel ,TENDER,30MonoWAV/30MonoS4.wav,1,1,3,12,,,,,1,10,26,11,0,10,10,10,,,,,,,,,2,0.9510381290001533,,,001,001,2019_May_07_0907,MusicAffectPsychophysiology2019,3.0.5,59.95008711605951,
To what extent did the music make you feel ,EXCITED,30MonoWAV/30MonoS4.wav,1,1,3,12,,,,,1,10,26,11,0,11,11,7,,,,,,,,,1,1.0335043909999513,,,001,001,2019_May_07_0907,MusicAffectPsychophysiology2019,3.0.5,59.95008711605951,
,,30MonoWAV/30MonoS4.wav,1,1,3,12,,,,,1,10,26,11,,,,,,,,,,,,,,,,,001,001,2019_May_07_0907,MusicAffectPsychophysiology2019,3.0.5,59.95008711605951,
To what extent did the music make you feel ,FRUSTRATED,30MonoWAV/30MonoH3.wav,2,2,1,7,,,,,1,11,27,6,0,0,0,3,,,5,3.9344131460002245,5,1.5021538010005315,,,1,1.3724612400001206,,,001,001,2019_May_07_0907,MusicAffectPsychophysiology2019,3.0.5,59.95008711605951,
To what extent did the music make you feel ,SAD,30MonoWAV/30MonoH3.wav,2,2,1,7,,,,,1,11,27,6,0,1,1,0,,,,,,,,,2,1.083255976000146,,,001,001,2019_May_07_0907,MusicAffectPsychophysiology2019,3.0.5,59.95008711605951,
To what extent did the music make you feel ,ALERT,30MonoWAV/30MonoH3.wav,2,2,1,7,,,,,1,11,27,6,0,2,2,8,,,,,,,,,4,1.0350987349993375,,,001,001,2019_May_07_0907,MusicAffectPsychophysiology2019,3.0.5,59.95008711605951,
To what extent did the music make you feel ,GUILTY,30MonoWAV/30MonoH3.wav,2,2,1,7,,,,,1,11,27,6,0,3,3,5,,,,,,,,,2,1.0504046559999551,,,001,001,2019_May_07_0907,MusicAffectPsychophysiology2019,3.0.5,59.95008711605951,
To what extent did the music make you feel ,HAPPY,30MonoWAV/30MonoH3.wav,2,2,1,7,,,,,1,11,27,6,0,4,4,6,,,,,,,,,5,0.9518500030007999,,,001,001,2019_May_07_0907,MusicAffectPsychophysiology2019,3.0.5,59.95008711605951,
To what extent did the music make you feel ,ANGRY,30MonoWAV/30MonoH3.wav,2,2,1,7,,,,,1,11,27,6,0,5,5,2,,,,,,,,,1,1.239517349999005,,,001,001,2019_May_07_0907,MusicAffectPsychophysiology2019,3.0.5,59.95008711605951,
To what extent did the music make you feel ,ASHAMED,30MonoWAV/30MonoH3.wav,2,2,1,7,,,,,1,11,27,6,0,6,6,4,,,,,,,,,1,1.0032889039994188,,,001,001,2019_May_07_0907,MusicAffectPsychophysiology2019,3.0.5,59.95008711605951,
To what extent did the music make you feel ,TENDER,30MonoWAV/30MonoH3.wav,2,2,1,7,,,,,1,11,27,6,0,7,7,10,,,,,,,,,3,1.1039414379993104,,,001,001,2019_May_07_0907,MusicAffectPsychophysiology2019,3.0.5,59.95008711605951,
To what extent did the music make you feel ,ACTIVE,30MonoWAV/30MonoH3.wav,2,2,1,7,,,,,1,11,27,6,0,8,8,9,,,,,,,,,4,1.2361304969999765,,,001,001,2019_May_07_0907,MusicAffectPsychophysiology2019,3.0.5,59.95008711605951,
To what extent did the music make you feel ,ANXIOUS ,30MonoWAV/30MonoH3.wav,2,2,1,7,,,,,1,11,27,6,0,9,9,1,,,,,,,,,2,1.1198463609998726,,,001,001,2019_May_07_0907,MusicAffectPsychophysiology2019,3.0.5,59.95008711605951,
To what extent did the music make you feel ,SCARED,30MonoWAV/30MonoH3.wav,2,2,1,7,,,,,1,11,27,6,0,10,10,11,,,,,,,,,1,1.0359881260010297,,,001,001,2019_May_07_0907,MusicAffectPsychophysiology2019,3.0.5,59.95008711605951,
To what extent did the music make you feel ,EXCITED,30MonoWAV/30MonoH3.wav,2,2,1,7,,,,,1,11,27,6,0,11,11,7,,,,,,,,,5,1.0033177270015585,,,001,001,2019_May_07_0907,MusicAffectPsychophysiology2019,3.0.5,59.95008711605951,
,,30MonoWAV/30MonoH3.wav,2,2,1,7,,,,,1,11,27,6,,,,,,,,,,,,,,,,,001,001,2019_May_07_0907,MusicAffectPsychophysiology2019,3.0.5,59.95008711605951,
To what extent did the music make you feel ,HAPPY,30MonoWAV/30MonoT2.wav,2,1,4,14,,,,,1,12,28,13,0,0,0,6,,,1,5.583811459999197,4,1.3344907339997008,,,3,1.5507246130000567,,,001,001,2019_May_07_0907,MusicAffectPsychophysiology2019,3.0.5,59.95008711605951,
To what extent did the music make you feel ,ANGRY,30MonoWAV/30MonoT2.wav,2,1,4,14,,,,,1,12,28,13,0,1,1,2,,,,,,,,,1,0.8839107800013153,,,001,001,2019_May_07_0907,MusicAffectPsychophysiology2019,3.0.5,59.95008711605951,
To what extent did the music make you feel ,TENDER,30MonoWAV/30MonoT2.wav,2,1,4,14,,,,,1,12,28,13,0,2,2,10,,,,,,,,,3,0.9522484539993457,,,001,001,2019_May_07_0907,MusicAffectPsychophysiology2019,3.0.5,59.95008711605951,
To what extent did the music make you feel ,SAD,30MonoWAV/30MonoT2.wav,2,1,4,14,,,,,1,12,28,13,0,3,3,0,,,,,,,,,3,1.1359208640005818,,,001,001,2019_May_07_0907,MusicAffectPsychophysiology2019,3.0.5,59.95008711605951,
To what extent did the music make you feel ,ASHAMED,30MonoWAV/30MonoT2.wav,2,1,4,14,,,,,1,12,28,13,0,4,4,4,,,,,,,,,2,1.116871643000195,,,001,001,2019_May_07_0907,MusicAffectPsychophysiology2019,3.0.5,59.95008711605951,
To what extent did the music make you feel ,FRUSTRATED,30MonoWAV/30MonoT2.wav,2,1,4,14,,,,,1,12,28,13,0,5,5,3,,,,,,,,,1,0.9023543519997475,,,001,001,2019_May_07_0907,MusicAffectPsychophysiology2019,3.0.5,59.95008711605951,
To what extent did the music make you feel ,ACTIVE,30MonoWAV/30MonoT2.wav,2,1,4,14,,,,,1,12,28,13,0,6,6,9,,,,,,,,,1,0.9500441460004367,,,001,001,2019_May_07_0907,MusicAffectPsychophysiology2019,3.0.5,59.95008711605951,
To what extent did the music make you feel ,SCARED,30MonoWAV/30MonoT2.wav,2,1,4,14,,,,,1,12,28,13,0,7,7,11,,,,,,,,,1,1.5347192080007517,,,001,001,2019_May_07_0907,MusicAffectPsychophysiology2019,3.0.5,59.95008711605951,
To what extent did the music make you feel ,ALERT,30MonoWAV/30MonoT2.wav,2,1,4,14,,,,,1,12,28,13,0,8,8,8,,,,,,,,,1,1.1516132630003995,,,001,001,2019_May_07_0907,MusicAffectPsychophysiology2019,3.0.5,59.95008711605951,
To what extent did the music make you feel ,ANXIOUS ,30MonoWAV/30MonoT2.wav,2,1,4,14,,,,,1,12,28,13,0,9,9,1,,,,,,,,,3,1.0663348399993993,,,001,001,2019_May_07_0907,MusicAffectPsychophysiology2019,3.0.5,59.95008711605951,
To what extent did the music make you feel ,GUILTY,30MonoWAV/30MonoT2.wav,2,1,4,14,,,,,1,12,28,13,0,10,10,5,,,,,,,,,3,1.434756793998531,,,001,001,2019_May_07_0907,MusicAffectPsychophysiology2019,3.0.5,59.95008711605951,
To what extent did the music make you feel ,EXCITED,30MonoWAV/30MonoT2.wav,2,1,4,14,,,,,1,12,28,13,0,11,11,7,,,,,,,,,1,1.2355614839998452,,,001,001,2019_May_07_0907,MusicAffectPsychophysiology2019,3.0.5,59.95008711605951,
,,30MonoWAV/30MonoT2.wav,2,1,4,14,,,,,1,12,28,13,,,,,,,,,,,,,,,,,001,001,2019_May_07_0907,MusicAffectPsychophysiology2019,3.0.5,59.95008711605951,
To what extent did the music make you feel ,EXCITED,30MonoWAV/30MonoH1.wav,2,2,1,5,,,,,1,13,29,4,0,0,0,7,,,5,6.118214131998684,5,1.2843715219987644,,,4,1.217722285000491,,,001,001,2019_May_07_0907,MusicAffectPsychophysiology2019,3.0.5,59.95008711605951,
To what extent did the music make you feel ,SAD,30MonoWAV/30MonoH1.wav,2,2,1,5,,,,,1,13,29,4,0,1,1,0,,,,,,,,,1,1.0681690110013733,,,001,001,2019_May_07_0907,MusicAffectPsychophysiology2019,3.0.5,59.95008711605951,
To what extent did the music make you feel ,TENDER,30MonoWAV/30MonoH1.wav,2,2,1,5,,,,,1,13,29,4,0,2,2,10,,,,,,,,,1,0.9179538330008654,,,001,001,2019_May_07_0907,MusicAffectPsychophysiology2019,3.0.5,59.95008711605951,
To what extent did the music make you feel ,ANXIOUS ,30MonoWAV/30MonoH1.wav,2,2,1,5,,,,,1,13,29,4,0,3,3,1,,,,,,,,,1,0.9193809680000413,,,001,001,2019_May_07_0907,MusicAffectPsychophysiology2019,3.0.5,59.95008711605951,
To what extent did the music make you feel ,SCARED,30MonoWAV/30MonoH1.wav,2,2,1,5,,,,,1,13,29,4,0,4,4,11,,,,,,,,,1,0.8691466459986259,,,001,001,2019_May_07_0907,MusicAffectPsychophysiology2019,3.0.5,59.95008711605951,
To what extent did the music make you feel ,ASHAMED,30MonoWAV/30MonoH1.wav,2,2,1,5,,,,,1,13,29,4,0,5,5,4,,,,,,,,,1,0.851433060999625,,,001,001,2019_May_07_0907,MusicAffectPsychophysiology2019,3.0.5,59.95008711605951,
To what extent did the music make you feel ,HAPPY,30MonoWAV/30MonoH1.wav,2,2,1,5,,,,,1,13,29,4,0,6,6,6,,,,,,,,,5,0.9838641579990508,,,001,001,2019_May_07_0907,MusicAffectPsychophysiology2019,3.0.5,59.95008711605951,
To what extent did the music make you feel ,ALERT,30MonoWAV/30MonoH1.wav,2,2,1,5,,,,,1,13,29,4,0,7,7,8,,,,,,,,,4,0.9031071940007678,,,001,001,2019_May_07_0907,MusicAffectPsychophysiology2019,3.0.5,59.95008711605951,
To what extent did the music make you feel ,FRUSTRATED,30MonoWAV/30MonoH1.wav,2,2,1,5,,,,,1,13,29,4,0,8,8,3,,,,,,,,,1,1.3685500040010083,,,001,001,2019_May_07_0907,MusicAffectPsychophysiology2019,3.0.5,59.95008711605951,
To what extent did the music make you feel ,ACTIVE,30MonoWAV/30MonoH1.wav,2,2,1,5,,,,,1,13,29,4,0,9,9,9,,,,,,,,,4,0.9191103560006013,,,001,001,2019_May_07_0907,MusicAffectPsychophysiology2019,3.0.5,59.95008711605951,
To what extent did the music make you feel ,GUILTY,30MonoWAV/30MonoH1.wav,2,2,1,5,,,,,1,13,29,4,0,10,10,5,,,,,,,,,1,0.8842852249999851,,,001,001,2019_May_07_0907,MusicAffectPsychophysiology2019,3.0.5,59.95008711605951,
To what extent did the music make you feel ,ANGRY,30MonoWAV/30MonoH1.wav,2,2,1,5,,,,,1,13,29,4,0,11,11,2,,,,,,,,,1,0.9508379139988392,,,001,001,2019_May_07_0907,MusicAffectPsychophysiology2019,3.0.5,59.95008711605951,
,,30MonoWAV/30MonoH1.wav,2,2,1,5,,,,,1,13,29,4,,,,,,,,,,,,,,,,,001,001,2019_May_07_0907,MusicAffectPsychophysiology2019,3.0.5,59.95008711605951,
To what extent did the music make you feel ,ALERT,30MonoWAV/30MonoF1.wav,1,2,2,1,,,,,1,14,30,0,0,0,0,8,,,2,9.767028734999258,2,1.1020090599995456,,,3,1.9851503779991617,,,001,001,2019_May_07_0907,MusicAffectPsychophysiology2019,3.0.5,59.95008711605951,
To what extent did the music make you feel ,FRUSTRATED,30MonoWAV/30MonoF1.wav,1,2,2,1,,,,,1,14,30,0,0,1,1,3,,,,,,,,,2,3.600385906000156,,,001,001,2019_May_07_0907,MusicAffectPsychophysiology2019,3.0.5,59.95008711605951,
To what extent did the music make you feel ,TENDER,30MonoWAV/30MonoF1.wav,1,2,2,1,,,,,1,14,30,0,0,2,2,10,,,,,,,,,2,1.134968108000976,,,001,001,2019_May_07_0907,MusicAffectPsychophysiology2019,3.0.5,59.95008711605951,
To what extent did the music make you feel ,SCARED,30MonoWAV/30MonoF1.wav,1,2,2,1,,,,,1,14,30,0,0,3,3,11,,,,,,,,,4,1.1505753569999797,,,001,001,2019_May_07_0907,MusicAffectPsychophysiology2019,3.0.5,59.95008711605951,
To what extent did the music make you feel ,ASHAMED,30MonoWAV/30MonoF1.wav,1,2,2,1,,,,,1,14,30,0,0,4,4,4,,,,,,,,,1,1.618871296001089,,,001,001,2019_May_07_0907,MusicAffectPsychophysiology2019,3.0.5,59.95008711605951,
To what extent did the music make you feel ,SAD,30MonoWAV/30MonoF1.wav,1,2,2,1,,,,,1,14,30,0,0,5,5,0,,,,,,,,,2,1.500587814998653,,,001,001,2019_May_07_0907,MusicAffectPsychophysiology2019,3.0.5,59.95008711605951,
To what extent did the music make you feel ,ANGRY,30MonoWAV/30MonoF1.wav,1,2,2,1,,,,,1,14,30,0,0,6,6,2,,,,,,,,,1,1.88407776799977,,,001,001,2019_May_07_0907,MusicAffectPsychophysiology2019,3.0.5,59.95008711605951,
To what extent did the music make you feel ,ACTIVE,30MonoWAV/30MonoF1.wav,1,2,2,1,,,,,1,14,30,0,0,7,7,9,,,,,,,,,4,1.93516036300025,,,001,001,2019_May_07_0907,MusicAffectPsychophysiology2019,3.0.5,59.95008711605951,
To what extent did the music make you feel ,GUILTY,30MonoWAV/30MonoF1.wav,1,2,2,1,,,,,1,14,30,0,0,8,8,5,,,,,,,,,4,1.8185389129994292,,,001,001,2019_May_07_0907,MusicAffectPsychophysiology2019,3.0.5,59.95008711605951,
To what extent did the music make you feel ,EXCITED,30MonoWAV/30MonoF1.wav,1,2,2,1,,,,,1,14,30,0,0,9,9,7,,,,,,,,,3,1.3183532359998935,,,001,001,2019_May_07_0907,MusicAffectPsychophysiology2019,3.0.5,59.95008711605951,
To what extent did the music make you feel ,HAPPY,30MonoWAV/30MonoF1.wav,1,2,2,1,,,,,1,14,30,0,0,10,10,6,,,,,,,,,1,1.8352958889990987,,,001,001,2019_May_07_0907,MusicAffectPsychophysiology2019,3.0.5,59.95008711605951,
To what extent did the music make you feel ,ANXIOUS ,30MonoWAV/30MonoF1.wav,1,2,2,1,,,,,1,14,30,0,0,11,11,1,,,,,,,,,5,1.817427771000439,,,001,001,2019_May_07_0907,MusicAffectPsychophysiology2019,3.0.5,59.95008711605951,
,,30MonoWAV/30MonoF1.wav,1,2,2,1,,,,,1,14,30,0,,,,,,,,,,,,,,,,,001,001,2019_May_07_0907,MusicAffectPsychophysiology2019,3.0.5,59.95008711605951,
To what extent did the music make you feel ,ALERT,30MonoWAV/30MonoF2.wav,1,2,2,2,,,,,1,15,31,1,0,0,0,8,,,2,3.2558200800012855,1,1.1022192109994648,,,4,1.3014947720002965,,,001,001,2019_May_07_0907,MusicAffectPsychophysiology2019,3.0.5,59.95008711605951,
To what extent did the music make you feel ,SCARED,30MonoWAV/30MonoF2.wav,1,2,2,2,,,,,1,15,31,1,0,1,1,11,,,,,,,,,5,0.8697932209997816,,,001,001,2019_May_07_0907,MusicAffectPsychophysiology2019,3.0.5,59.95008711605951,
To what extent did the music make you feel ,TENDER,30MonoWAV/30MonoF2.wav,1,2,2,2,,,,,1,15,31,1,0,2,2,10,,,,,,,,,2,1.2738722230005806,,,001,001,2019_May_07_0907,MusicAffectPsychophysiology2019,3.0.5,59.95008711605951,
To what extent did the music make you feel ,ANGRY,30MonoWAV/30MonoF2.wav,1,2,2,2,,,,,1,15,31,1,0,3,3,2,,,,,,,,,1,0.8511417410009017,,,001,001,2019_May_07_0907,MusicAffectPsychophysiology2019,3.0.5,59.95008711605951,
To what extent did the music make you feel ,ACTIVE,30MonoWAV/30MonoF2.wav,1,2,2,2,,,,,1,15,31,1,0,4,4,9,,,,,,,,,3,1.0192440089995216,,,001,001,2019_May_07_0907,MusicAffectPsychophysiology2019,3.0.5,59.95008711605951,
To what extent did the music make you feel ,ASHAMED,30MonoWAV/30MonoF2.wav,1,2,2,2,,,,,1,15,31,1,0,5,5,4,,,,,,,,,1,1.0522018589999789,,,001,001,2019_May_07_0907,MusicAffectPsychophysiology2019,3.0.5,59.95008711605951,
To what extent did the music make you feel ,SAD,30MonoWAV/30MonoF2.wav,1,2,2,2,,,,,1,15,31,1,0,6,6,0,,,,,,,,,2,1.1009776219998457,,,001,001,2019_May_07_0907,MusicAffectPsychophysiology2019,3.0.5,59.95008711605951,
To what extent did the music make you feel ,HAPPY,30MonoWAV/30MonoF2.wav,1,2,2,2,,,,,1,15,31,1,0,7,7,6,,,,,,,,,1,0.8333554949986137,,,001,001,2019_May_07_0907,MusicAffectPsychophysiology2019,3.0.5,59.95008711605951,
To what extent did the music make you feel ,EXCITED,30MonoWAV/30MonoF2.wav,1,2,2,2,,,,,1,15,31,1,0,8,8,7,,,,,,,,,3,0.8850498980009434,,,001,001,2019_May_07_0907,MusicAffectPsychophysiology2019,3.0.5,59.95008711605951,
To what extent did the music make you feel ,FRUSTRATED,30MonoWAV/30MonoF2.wav,1,2,2,2,,,,,1,15,31,1,0,9,9,3,,,,,,,,,1,1.001286655999138,,,001,001,2019_May_07_0907,MusicAffectPsychophysiology2019,3.0.5,59.95008711605951,
To what extent did the music make you feel ,ANXIOUS ,30MonoWAV/30MonoF2.wav,1,2,2,2,,,,,1,15,31,1,0,10,10,1,,,,,,,,,5,1.1857775890002813,,,001,001,2019_May_07_0907,MusicAffectPsychophysiology2019,3.0.5,59.95008711605951,
To what extent did the music make you feel ,GUILTY,30MonoWAV/30MonoF2.wav,1,2,2,2,,,,,1,15,31,1,0,11,11,5,,,,,,,,,4,0.8849944510002388,,,001,001,2019_May_07_0907,MusicAffectPsychophysiology2019,3.0.5,59.95008711605951,
,,30MonoWAV/30MonoF2.wav,1,2,2,2,,,,,1,15,31,1,,,,,,,,,,,,,,,,,001,001,2019_May_07_0907,MusicAffectPsychophysiology2019,3.0.5,59.95008711605951,
,,,,,,,,,,,,,,,,,,,,,,,,,,,,,right,5.451453403000414,001,001,2019_May_07_0907,MusicAffectPsychophysiology2019,3.0.5,59.95008711605951,
