Instruction,Word,song,valence,arousal,affectcat,songmark,pracwords.thisRepN,pracwords.thisTrialN,pracwords.thisN,pracwords.thisIndex,songtrials.thisRepN,songtrials.thisTrialN,songtrials.thisN,songtrials.thisIndex,words.thisRepN,words.thisTrialN,words.thisN,words.thisIndex,begin.keys,begin.rt,arousalkey.keys,arousalkey.rt,valencekey.keys,valencekey.rt,likekey.keys,likekey.rt,WordResponse.keys,WordResponse.rt,key_resp_2.keys,key_resp_2.rt,participant,session,date,expName,psychopyVersion,frameRate,
,,,,,,,,,,,,,,,,,,,space,14.7160760020015,,,,,,,,,,,002,001,2019_May_07_1008,MusicAffectPsychophysiology2019,3.0.5,59.93444035298291,
,,,,,,,,,,,,,,,,,,,,,4,14.616179492999436,,,,,,,,,002,001,2019_May_07_1008,MusicAffectPsychophysiology2019,3.0.5,59.93444035298291,
,,,,,,,,,,,,,,,,,,,,,,,4,5.184552610000537,,,,,,,002,001,2019_May_07_1008,MusicAffectPsychophysiology2019,3.0.5,59.93444035298291,
,,,,,,,,,,,,,,,,,,,,,,,,,4,3.4686604170001374,,,,,002,001,2019_May_07_1008,MusicAffectPsychophysiology2019,3.0.5,59.93444035298291,
To what extent did the music make you feel ,ANXIOUS ,,,,,,0,0,0,1,,,,,,,,,,,,,,,,,1,5.469487383999876,,,002,001,2019_May_07_1008,MusicAffectPsychophysiology2019,3.0.5,59.93444035298291,
To what extent did the music make you feel ,FRUSTRATED,,,,,,0,1,1,3,,,,,,,,,,,,,,,,,1,1.7354634710009123,,,002,001,2019_May_07_1008,MusicAffectPsychophysiology2019,3.0.5,59.93444035298291,
To what extent did the music make you feel ,ACTIVE,,,,,,0,2,2,9,,,,,,,,,,,,,,,,,3,3.584720314000151,,,002,001,2019_May_07_1008,MusicAffectPsychophysiology2019,3.0.5,59.93444035298291,
To what extent did the music make you feel ,GUILTY,,,,,,0,3,3,5,,,,,,,,,,,,,,,,,1,2.9318143679993227,,,002,001,2019_May_07_1008,MusicAffectPsychophysiology2019,3.0.5,59.93444035298291,
To what extent did the music make you feel ,ASHAMED,,,,,,0,4,4,4,,,,,,,,,,,,,,,,,1,1.1675169699992693,,,002,001,2019_May_07_1008,MusicAffectPsychophysiology2019,3.0.5,59.93444035298291,
To what extent did the music make you feel ,ANGRY,,,,,,0,5,5,2,,,,,,,,,,,,,,,,,1,1.0185371299994586,,,002,001,2019_May_07_1008,MusicAffectPsychophysiology2019,3.0.5,59.93444035298291,
To what extent did the music make you feel ,ALERT,,,,,,0,6,6,8,,,,,,,,,,,,,,,,,2,2.135305805999451,,,002,001,2019_May_07_1008,MusicAffectPsychophysiology2019,3.0.5,59.93444035298291,
To what extent did the music make you feel ,SCARED,,,,,,0,7,7,11,,,,,,,,,,,,,,,,,1,1.435565009000129,,,002,001,2019_May_07_1008,MusicAffectPsychophysiology2019,3.0.5,59.93444035298291,
To what extent did the music make you feel ,TENDER,,,,,,0,8,8,10,,,,,,,,,,,,,,,,,1,1.5011925489998248,,,002,001,2019_May_07_1008,MusicAffectPsychophysiology2019,3.0.5,59.93444035298291,
To what extent did the music make you feel ,HAPPY,,,,,,0,9,9,6,,,,,,,,,,,,,,,,,3,2.8353258119987004,,,002,001,2019_May_07_1008,MusicAffectPsychophysiology2019,3.0.5,59.93444035298291,
To what extent did the music make you feel ,EXCITED,,,,,,0,10,10,7,,,,,,,,,,,,,,,,,3,2.3690028529999836,,,002,001,2019_May_07_1008,MusicAffectPsychophysiology2019,3.0.5,59.93444035298291,
To what extent did the music make you feel ,SAD,,,,,,0,11,11,0,,,,,,,,,,,,,,,,,1,2.7186547780002,,,002,001,2019_May_07_1008,MusicAffectPsychophysiology2019,3.0.5,59.93444035298291,
To what extent did the music make you feel ,TENDER,30MonoWAV/30MonoH1.wav,2,2,1,5,,,,,0,0,0,4,0,0,0,10,,,4,4.6685265810010605,3,3.16716954200092,,,1,4.301591142000689,,,002,001,2019_May_07_1008,MusicAffectPsychophysiology2019,3.0.5,59.93444035298291,
To what extent did the music make you feel ,HAPPY,30MonoWAV/30MonoH1.wav,2,2,1,5,,,,,0,0,0,4,0,1,1,6,,,,,,,,,2,2.9016198410008656,,,002,001,2019_May_07_1008,MusicAffectPsychophysiology2019,3.0.5,59.93444035298291,
To what extent did the music make you feel ,EXCITED,30MonoWAV/30MonoH1.wav,2,2,1,5,,,,,0,0,0,4,0,2,2,7,,,,,,,,,2,1.4347413429986773,,,002,001,2019_May_07_1008,MusicAffectPsychophysiology2019,3.0.5,59.93444035298291,
To what extent did the music make you feel ,GUILTY,30MonoWAV/30MonoH1.wav,2,2,1,5,,,,,0,0,0,4,0,3,3,5,,,,,,,,,1,1.2166509880007652,,,002,001,2019_May_07_1008,MusicAffectPsychophysiology2019,3.0.5,59.93444035298291,
To what extent did the music make you feel ,ANXIOUS ,30MonoWAV/30MonoH1.wav,2,2,1,5,,,,,0,0,0,4,0,4,4,1,,,,,,,,,1,2.1023347139998805,,,002,001,2019_May_07_1008,MusicAffectPsychophysiology2019,3.0.5,59.93444035298291,
To what extent did the music make you feel ,SAD,30MonoWAV/30MonoH1.wav,2,2,1,5,,,,,0,0,0,4,0,5,5,0,,,,,,,,,1,1.434056548998342,,,002,001,2019_May_07_1008,MusicAffectPsychophysiology2019,3.0.5,59.93444035298291,
To what extent did the music make you feel ,ALERT,30MonoWAV/30MonoH1.wav,2,2,1,5,,,,,0,0,0,4,0,6,6,8,,,,,,,,,3,1.8175993810000364,,,002,001,2019_May_07_1008,MusicAffectPsychophysiology2019,3.0.5,59.93444035298291,
To what extent did the music make you feel ,ACTIVE,30MonoWAV/30MonoH1.wav,2,2,1,5,,,,,0,0,0,4,0,7,7,9,,,,,,,,,3,1.3179014930010453,,,002,001,2019_May_07_1008,MusicAffectPsychophysiology2019,3.0.5,59.93444035298291,
To what extent did the music make you feel ,ANGRY,30MonoWAV/30MonoH1.wav,2,2,1,5,,,,,0,0,0,4,0,8,8,2,,,,,,,,,1,1.3188892559992382,,,002,001,2019_May_07_1008,MusicAffectPsychophysiology2019,3.0.5,59.93444035298291,
To what extent did the music make you feel ,ASHAMED,30MonoWAV/30MonoH1.wav,2,2,1,5,,,,,0,0,0,4,0,9,9,4,,,,,,,,,1,1.018698821999351,,,002,001,2019_May_07_1008,MusicAffectPsychophysiology2019,3.0.5,59.93444035298291,
To what extent did the music make you feel ,SCARED,30MonoWAV/30MonoH1.wav,2,2,1,5,,,,,0,0,0,4,0,10,10,11,,,,,,,,,2,1.5178934799987474,,,002,001,2019_May_07_1008,MusicAffectPsychophysiology2019,3.0.5,59.93444035298291,
To what extent did the music make you feel ,FRUSTRATED,30MonoWAV/30MonoH1.wav,2,2,1,5,,,,,0,0,0,4,0,11,11,3,,,,,,,,,1,1.4526953480017255,,,002,001,2019_May_07_1008,MusicAffectPsychophysiology2019,3.0.5,59.93444035298291,
,,30MonoWAV/30MonoH1.wav,2,2,1,5,,,,,0,0,0,4,,,,,,,,,,,,,,,,,002,001,2019_May_07_1008,MusicAffectPsychophysiology2019,3.0.5,59.93444035298291,
To what extent did the music make you feel ,GUILTY,30MonoWAV/30MonoS2.wav,1,1,3,10,,,,,0,1,1,9,0,0,0,5,,,1,4.2398326479997195,1,2.4902903469992452,,,2,3.0827176820002933,,,002,001,2019_May_07_1008,MusicAffectPsychophysiology2019,3.0.5,59.93444035298291,
To what extent did the music make you feel ,FRUSTRATED,30MonoWAV/30MonoS2.wav,1,1,3,10,,,,,0,1,1,9,0,1,1,3,,,,,,,,,1,6.43521615499958,,,002,001,2019_May_07_1008,MusicAffectPsychophysiology2019,3.0.5,59.93444035298291,
To what extent did the music make you feel ,ACTIVE,30MonoWAV/30MonoS2.wav,1,1,3,10,,,,,0,1,1,9,0,2,2,9,,,,,,,,,1,2.0685541439997905,,,002,001,2019_May_07_1008,MusicAffectPsychophysiology2019,3.0.5,59.93444035298291,
To what extent did the music make you feel ,SAD,30MonoWAV/30MonoS2.wav,1,1,3,10,,,,,0,1,1,9,0,3,3,0,,,,,,,,,2,1.1682728420000785,,,002,001,2019_May_07_1008,MusicAffectPsychophysiology2019,3.0.5,59.93444035298291,
To what extent did the music make you feel ,EXCITED,30MonoWAV/30MonoS2.wav,1,1,3,10,,,,,0,1,1,9,0,4,4,7,,,,,,,,,1,0.9357922550007061,,,002,001,2019_May_07_1008,MusicAffectPsychophysiology2019,3.0.5,59.93444035298291,
To what extent did the music make you feel ,ALERT,30MonoWAV/30MonoS2.wav,1,1,3,10,,,,,0,1,1,9,0,5,5,8,,,,,,,,,2,1.96571184899949,,,002,001,2019_May_07_1008,MusicAffectPsychophysiology2019,3.0.5,59.93444035298291,
To what extent did the music make you feel ,HAPPY,30MonoWAV/30MonoS2.wav,1,1,3,10,,,,,0,1,1,9,0,6,6,6,,,,,,,,,1,0.9673882709994359,,,002,001,2019_May_07_1008,MusicAffectPsychophysiology2019,3.0.5,59.93444035298291,
To what extent did the music make you feel ,TENDER,30MonoWAV/30MonoS2.wav,1,1,3,10,,,,,0,1,1,9,0,7,7,10,,,,,,,,,1,1.1675567349993798,,,002,001,2019_May_07_1008,MusicAffectPsychophysiology2019,3.0.5,59.93444035298291,
To what extent did the music make you feel ,ASHAMED,30MonoWAV/30MonoS2.wav,1,1,3,10,,,,,0,1,1,9,0,8,8,4,,,,,,,,,2,1.4166147779997118,,,002,001,2019_May_07_1008,MusicAffectPsychophysiology2019,3.0.5,59.93444035298291,
To what extent did the music make you feel ,ANGRY,30MonoWAV/30MonoS2.wav,1,1,3,10,,,,,0,1,1,9,0,9,9,2,,,,,,,,,1,1.1684077400004753,,,002,001,2019_May_07_1008,MusicAffectPsychophysiology2019,3.0.5,59.93444035298291,
To what extent did the music make you feel ,ANXIOUS ,30MonoWAV/30MonoS2.wav,1,1,3,10,,,,,0,1,1,9,0,10,10,1,,,,,,,,,2,2.068220700999518,,,002,001,2019_May_07_1008,MusicAffectPsychophysiology2019,3.0.5,59.93444035298291,
To what extent did the music make you feel ,SCARED,30MonoWAV/30MonoS2.wav,1,1,3,10,,,,,0,1,1,9,0,11,11,11,,,,,,,,,1,1.7517560530013725,,,002,001,2019_May_07_1008,MusicAffectPsychophysiology2019,3.0.5,59.93444035298291,
,,30MonoWAV/30MonoS2.wav,1,1,3,10,,,,,0,1,1,9,,,,,,,,,,,,,,,,,002,001,2019_May_07_1008,MusicAffectPsychophysiology2019,3.0.5,59.93444035298291,
To what extent did the music make you feel ,HAPPY,30MonoWAV/30MonoF1.wav,1,2,2,1,,,,,0,2,2,0,0,0,0,6,,,4,3.6860390060010104,2,2.7683857289994194,,,2,1.8016064329985966,,,002,001,2019_May_07_1008,MusicAffectPsychophysiology2019,3.0.5,59.93444035298291,
To what extent did the music make you feel ,EXCITED,30MonoWAV/30MonoF1.wav,1,2,2,1,,,,,0,2,2,0,0,1,1,7,,,,,,,,,3,1.333613745000548,,,002,001,2019_May_07_1008,MusicAffectPsychophysiology2019,3.0.5,59.93444035298291,
To what extent did the music make you feel ,ACTIVE,30MonoWAV/30MonoF1.wav,1,2,2,1,,,,,0,2,2,0,0,2,2,9,,,,,,,,,4,2.0689529869996477,,,002,001,2019_May_07_1008,MusicAffectPsychophysiology2019,3.0.5,59.93444035298291,
To what extent did the music make you feel ,ALERT,30MonoWAV/30MonoF1.wav,1,2,2,1,,,,,0,2,2,0,0,3,3,8,,,,,,,,,5,2.7677890230006597,,,002,001,2019_May_07_1008,MusicAffectPsychophysiology2019,3.0.5,59.93444035298291,
To what extent did the music make you feel ,ASHAMED,30MonoWAV/30MonoF1.wav,1,2,2,1,,,,,0,2,2,0,0,4,4,4,,,,,,,,,1,1.4024015760005568,,,002,001,2019_May_07_1008,MusicAffectPsychophysiology2019,3.0.5,59.93444035298291,
To what extent did the music make you feel ,ANXIOUS ,30MonoWAV/30MonoF1.wav,1,2,2,1,,,,,0,2,2,0,0,5,5,1,,,,,,,,,2,1.3694686489998276,,,002,001,2019_May_07_1008,MusicAffectPsychophysiology2019,3.0.5,59.93444035298291,
To what extent did the music make you feel ,ANGRY,30MonoWAV/30MonoF1.wav,1,2,2,1,,,,,0,2,2,0,0,6,6,2,,,,,,,,,3,1.2388848999999027,,,002,001,2019_May_07_1008,MusicAffectPsychophysiology2019,3.0.5,59.93444035298291,
To what extent did the music make you feel ,GUILTY,30MonoWAV/30MonoF1.wav,1,2,2,1,,,,,0,2,2,0,0,7,7,5,,,,,,,,,2,1.2038934219999646,,,002,001,2019_May_07_1008,MusicAffectPsychophysiology2019,3.0.5,59.93444035298291,
To what extent did the music make you feel ,TENDER,30MonoWAV/30MonoF1.wav,1,2,2,1,,,,,0,2,2,0,0,8,8,10,,,,,,,,,1,1.2694047069999215,,,002,001,2019_May_07_1008,MusicAffectPsychophysiology2019,3.0.5,59.93444035298291,
To what extent did the music make you feel ,FRUSTRATED,30MonoWAV/30MonoF1.wav,1,2,2,1,,,,,0,2,2,0,0,9,9,3,,,,,,,,,3,2.103734001999328,,,002,001,2019_May_07_1008,MusicAffectPsychophysiology2019,3.0.5,59.93444035298291,
To what extent did the music make you feel ,SCARED,30MonoWAV/30MonoF1.wav,1,2,2,1,,,,,0,2,2,0,0,10,10,11,,,,,,,,,4,1.5037928769997961,,,002,001,2019_May_07_1008,MusicAffectPsychophysiology2019,3.0.5,59.93444035298291,
To what extent did the music make you feel ,SAD,30MonoWAV/30MonoF1.wav,1,2,2,1,,,,,0,2,2,0,0,11,11,0,,,,,,,,,1,1.922814814000958,,,002,001,2019_May_07_1008,MusicAffectPsychophysiology2019,3.0.5,59.93444035298291,
,,30MonoWAV/30MonoF1.wav,1,2,2,1,,,,,0,2,2,0,,,,,,,,,,,,,,,,,002,001,2019_May_07_1008,MusicAffectPsychophysiology2019,3.0.5,59.93444035298291,
To what extent did the music make you feel ,ANXIOUS ,30MonoWAV/30MonoT3.wav,2,1,4,15,,,,,0,3,3,14,0,0,0,1,,,2,4.300848655999289,5,3.2672125560002314,,,1,1.6335966240003472,,,002,001,2019_May_07_1008,MusicAffectPsychophysiology2019,3.0.5,59.93444035298291,
To what extent did the music make you feel ,SAD,30MonoWAV/30MonoT3.wav,2,1,4,15,,,,,0,3,3,14,0,1,1,0,,,,,,,,,1,1.7842664219988364,,,002,001,2019_May_07_1008,MusicAffectPsychophysiology2019,3.0.5,59.93444035298291,
To what extent did the music make you feel ,ASHAMED,30MonoWAV/30MonoT3.wav,2,1,4,15,,,,,0,3,3,14,0,2,2,4,,,,,,,,,1,0.602723848000096,,,002,001,2019_May_07_1008,MusicAffectPsychophysiology2019,3.0.5,59.93444035298291,
To what extent did the music make you feel ,ALERT,30MonoWAV/30MonoT3.wav,2,1,4,15,,,,,0,3,3,14,0,3,3,8,,,,,,,,,1,0.8021246829994197,,,002,001,2019_May_07_1008,MusicAffectPsychophysiology2019,3.0.5,59.93444035298291,
To what extent did the music make you feel ,ACTIVE,30MonoWAV/30MonoT3.wav,2,1,4,15,,,,,0,3,3,14,0,4,4,9,,,,,,,,,1,1.201558319000469,,,002,001,2019_May_07_1008,MusicAffectPsychophysiology2019,3.0.5,59.93444035298291,
To what extent did the music make you feel ,TENDER,30MonoWAV/30MonoT3.wav,2,1,4,15,,,,,0,3,3,14,0,5,5,10,,,,,,,,,1,0.9017993390007177,,,002,001,2019_May_07_1008,MusicAffectPsychophysiology2019,3.0.5,59.93444035298291,
To what extent did the music make you feel ,FRUSTRATED,30MonoWAV/30MonoT3.wav,2,1,4,15,,,,,0,3,3,14,0,6,6,3,,,,,,,,,1,0.718711109000651,,,002,001,2019_May_07_1008,MusicAffectPsychophysiology2019,3.0.5,59.93444035298291,
To what extent did the music make you feel ,ANGRY,30MonoWAV/30MonoT3.wav,2,1,4,15,,,,,0,3,3,14,0,7,7,2,,,,,,,,,1,0.5348736830001144,,,002,001,2019_May_07_1008,MusicAffectPsychophysiology2019,3.0.5,59.93444035298291,
To what extent did the music make you feel ,GUILTY,30MonoWAV/30MonoT3.wav,2,1,4,15,,,,,0,3,3,14,0,8,8,5,,,,,,,,,1,0.6179180440012715,,,002,001,2019_May_07_1008,MusicAffectPsychophysiology2019,3.0.5,59.93444035298291,
To what extent did the music make you feel ,HAPPY,30MonoWAV/30MonoT3.wav,2,1,4,15,,,,,0,3,3,14,0,9,9,6,,,,,,,,,4,2.851461479000136,,,002,001,2019_May_07_1008,MusicAffectPsychophysiology2019,3.0.5,59.93444035298291,
To what extent did the music make you feel ,EXCITED,30MonoWAV/30MonoT3.wav,2,1,4,15,,,,,0,3,3,14,0,10,10,7,,,,,,,,,1,2.585477800999797,,,002,001,2019_May_07_1008,MusicAffectPsychophysiology2019,3.0.5,59.93444035298291,
To what extent did the music make you feel ,SCARED,30MonoWAV/30MonoT3.wav,2,1,4,15,,,,,0,3,3,14,0,11,11,11,,,,,,,,,1,0.9182423040001595,,,002,001,2019_May_07_1008,MusicAffectPsychophysiology2019,3.0.5,59.93444035298291,
,,30MonoWAV/30MonoT3.wav,2,1,4,15,,,,,0,3,3,14,,,,,,,,,,,,,,,,,002,001,2019_May_07_1008,MusicAffectPsychophysiology2019,3.0.5,59.93444035298291,
To what extent did the music make you feel ,ANGRY,30MonoWAV/30MonoS1.wav,1,1,3,9,,,,,0,4,4,8,0,0,0,2,,,1,4.308690931999081,1,2.438007225000547,,,1,1.754733458001283,,,002,001,2019_May_07_1008,MusicAffectPsychophysiology2019,3.0.5,59.93444035298291,
To what extent did the music make you feel ,GUILTY,30MonoWAV/30MonoS1.wav,1,1,3,9,,,,,0,4,4,8,0,1,1,5,,,,,,,,,1,1.089478992000295,,,002,001,2019_May_07_1008,MusicAffectPsychophysiology2019,3.0.5,59.93444035298291,
To what extent did the music make you feel ,FRUSTRATED,30MonoWAV/30MonoS1.wav,1,1,3,9,,,,,0,4,4,8,0,2,2,3,,,,,,,,,1,1.0679038150010456,,,002,001,2019_May_07_1008,MusicAffectPsychophysiology2019,3.0.5,59.93444035298291,
To what extent did the music make you feel ,ANXIOUS ,30MonoWAV/30MonoS1.wav,1,1,3,9,,,,,0,4,4,8,0,3,3,1,,,,,,,,,1,1.7025309919990832,,,002,001,2019_May_07_1008,MusicAffectPsychophysiology2019,3.0.5,59.93444035298291,
To what extent did the music make you feel ,HAPPY,30MonoWAV/30MonoS1.wav,1,1,3,9,,,,,0,4,4,8,0,4,4,6,,,,,,,,,1,0.9185008889999153,,,002,001,2019_May_07_1008,MusicAffectPsychophysiology2019,3.0.5,59.93444035298291,
To what extent did the music make you feel ,TENDER,30MonoWAV/30MonoS1.wav,1,1,3,9,,,,,0,4,4,8,0,5,5,10,,,,,,,,,1,0.6859436730010202,,,002,001,2019_May_07_1008,MusicAffectPsychophysiology2019,3.0.5,59.93444035298291,
To what extent did the music make you feel ,SAD,30MonoWAV/30MonoS1.wav,1,1,3,9,,,,,0,4,4,8,0,6,6,0,,,,,,,,,4,2.3669662379998044,,,002,001,2019_May_07_1008,MusicAffectPsychophysiology2019,3.0.5,59.93444035298291,
To what extent did the music make you feel ,ASHAMED,30MonoWAV/30MonoS1.wav,1,1,3,9,,,,,0,4,4,8,0,7,7,4,,,,,,,,,2,3.9677644629991846,,,002,001,2019_May_07_1008,MusicAffectPsychophysiology2019,3.0.5,59.93444035298291,
To what extent did the music make you feel ,SCARED,30MonoWAV/30MonoS1.wav,1,1,3,9,,,,,0,4,4,8,0,8,8,11,,,,,,,,,1,2.3856976429997303,,,002,001,2019_May_07_1008,MusicAffectPsychophysiology2019,3.0.5,59.93444035298291,
To what extent did the music make you feel ,ALERT,30MonoWAV/30MonoS1.wav,1,1,3,9,,,,,0,4,4,8,0,9,9,8,,,,,,,,,1,0.8516756649987656,,,002,001,2019_May_07_1008,MusicAffectPsychophysiology2019,3.0.5,59.93444035298291,
To what extent did the music make you feel ,EXCITED,30MonoWAV/30MonoS1.wav,1,1,3,9,,,,,0,4,4,8,0,10,10,7,,,,,,,,,1,0.7190796730010334,,,002,001,2019_May_07_1008,MusicAffectPsychophysiology2019,3.0.5,59.93444035298291,
To what extent did the music make you feel ,ACTIVE,30MonoWAV/30MonoS1.wav,1,1,3,9,,,,,0,4,4,8,0,11,11,9,,,,,,,,,1,0.7006411380007194,,,002,001,2019_May_07_1008,MusicAffectPsychophysiology2019,3.0.5,59.93444035298291,
,,30MonoWAV/30MonoS1.wav,1,1,3,9,,,,,0,4,4,8,,,,,,,,,,,,,,,,,002,001,2019_May_07_1008,MusicAffectPsychophysiology2019,3.0.5,59.93444035298291,
To what extent did the music make you feel ,ANXIOUS ,30MonoWAV/30MonoF2.wav,1,2,2,2,,,,,0,5,5,1,0,0,0,1,,,3,5.418276341000819,1,2.6342588320003415,,,4,2.3848006349999196,,,002,001,2019_May_07_1008,MusicAffectPsychophysiology2019,3.0.5,59.93444035298291,
To what extent did the music make you feel ,ANGRY,30MonoWAV/30MonoF2.wav,1,2,2,2,,,,,0,5,5,1,0,1,1,2,,,,,,,,,2,1.5508676909994392,,,002,001,2019_May_07_1008,MusicAffectPsychophysiology2019,3.0.5,59.93444035298291,
To what extent did the music make you feel ,HAPPY,30MonoWAV/30MonoF2.wav,1,2,2,2,,,,,0,5,5,1,0,2,2,6,,,,,,,,,1,1.9524416589993052,,,002,001,2019_May_07_1008,MusicAffectPsychophysiology2019,3.0.5,59.93444035298291,
To what extent did the music make you feel ,EXCITED,30MonoWAV/30MonoF2.wav,1,2,2,2,,,,,0,5,5,1,0,3,3,7,,,,,,,,,2,1.783640663999904,,,002,001,2019_May_07_1008,MusicAffectPsychophysiology2019,3.0.5,59.93444035298291,
To what extent did the music make you feel ,ALERT,30MonoWAV/30MonoF2.wav,1,2,2,2,,,,,0,5,5,1,0,4,4,8,,,,,,,,,5,1.9348057379993406,,,002,001,2019_May_07_1008,MusicAffectPsychophysiology2019,3.0.5,59.93444035298291,
To what extent did the music make you feel ,ASHAMED,30MonoWAV/30MonoF2.wav,1,2,2,2,,,,,0,5,5,1,0,5,5,4,,,,,,,,,1,1.4184054109991848,,,002,001,2019_May_07_1008,MusicAffectPsychophysiology2019,3.0.5,59.93444035298291,
To what extent did the music make you feel ,GUILTY,30MonoWAV/30MonoF2.wav,1,2,2,2,,,,,0,5,5,1,0,6,6,5,,,,,,,,,1,1.1020707179995952,,,002,001,2019_May_07_1008,MusicAffectPsychophysiology2019,3.0.5,59.93444035298291,
To what extent did the music make you feel ,FRUSTRATED,30MonoWAV/30MonoF2.wav,1,2,2,2,,,,,0,5,5,1,0,7,7,3,,,,,,,,,1,1.1503920209997887,,,002,001,2019_May_07_1008,MusicAffectPsychophysiology2019,3.0.5,59.93444035298291,
To what extent did the music make you feel ,ACTIVE,30MonoWAV/30MonoF2.wav,1,2,2,2,,,,,0,5,5,1,0,8,8,9,,,,,,,,,4,1.49931597000068,,,002,001,2019_May_07_1008,MusicAffectPsychophysiology2019,3.0.5,59.93444035298291,
To what extent did the music make you feel ,SCARED,30MonoWAV/30MonoF2.wav,1,2,2,2,,,,,0,5,5,1,0,9,9,11,,,,,,,,,4,1.385791087999678,,,002,001,2019_May_07_1008,MusicAffectPsychophysiology2019,3.0.5,59.93444035298291,
To what extent did the music make you feel ,TENDER,30MonoWAV/30MonoF2.wav,1,2,2,2,,,,,0,5,5,1,0,10,10,10,,,,,,,,,1,1.484871472001032,,,002,001,2019_May_07_1008,MusicAffectPsychophysiology2019,3.0.5,59.93444035298291,
To what extent did the music make you feel ,SAD,30MonoWAV/30MonoF2.wav,1,2,2,2,,,,,0,5,5,1,0,11,11,0,,,,,,,,,1,1.3194376570008899,,,002,001,2019_May_07_1008,MusicAffectPsychophysiology2019,3.0.5,59.93444035298291,
,,30MonoWAV/30MonoF2.wav,1,2,2,2,,,,,0,5,5,1,,,,,,,,,,,,,,,,,002,001,2019_May_07_1008,MusicAffectPsychophysiology2019,3.0.5,59.93444035298291,
To what extent did the music make you feel ,FRUSTRATED,30MonoWAV/30MonoT1.wav,2,1,4,13,,,,,0,6,6,12,0,0,0,3,,,3,4.685145874000227,3,2.3014699129998917,,,1,2.134834010999839,,,002,001,2019_May_07_1008,MusicAffectPsychophysiology2019,3.0.5,59.93444035298291,
To what extent did the music make you feel ,ACTIVE,30MonoWAV/30MonoT1.wav,2,1,4,13,,,,,0,6,6,12,0,1,1,9,,,,,,,,,2,1.8568532939989382,,,002,001,2019_May_07_1008,MusicAffectPsychophysiology2019,3.0.5,59.93444035298291,
To what extent did the music make you feel ,ANGRY,30MonoWAV/30MonoT1.wav,2,1,4,13,,,,,0,6,6,12,0,2,2,2,,,,,,,,,1,2.120862505000332,,,002,001,2019_May_07_1008,MusicAffectPsychophysiology2019,3.0.5,59.93444035298291,
To what extent did the music make you feel ,EXCITED,30MonoWAV/30MonoT1.wav,2,1,4,13,,,,,0,6,6,12,0,3,3,7,,,,,,,,,2,2.8882312269997783,,,002,001,2019_May_07_1008,MusicAffectPsychophysiology2019,3.0.5,59.93444035298291,
To what extent did the music make you feel ,GUILTY,30MonoWAV/30MonoT1.wav,2,1,4,13,,,,,0,6,6,12,0,4,4,5,,,,,,,,,1,1.1405133780008327,,,002,001,2019_May_07_1008,MusicAffectPsychophysiology2019,3.0.5,59.93444035298291,
To what extent did the music make you feel ,SAD,30MonoWAV/30MonoT1.wav,2,1,4,13,,,,,0,6,6,12,0,5,5,0,,,,,,,,,2,1.6679628910005704,,,002,001,2019_May_07_1008,MusicAffectPsychophysiology2019,3.0.5,59.93444035298291,
To what extent did the music make you feel ,HAPPY,30MonoWAV/30MonoT1.wav,2,1,4,13,,,,,0,6,6,12,0,6,6,6,,,,,,,,,1,0.9850867880013539,,,002,001,2019_May_07_1008,MusicAffectPsychophysiology2019,3.0.5,59.93444035298291,
To what extent did the music make you feel ,ALERT,30MonoWAV/30MonoT1.wav,2,1,4,13,,,,,0,6,6,12,0,7,7,8,,,,,,,,,1,1.6018841069999326,,,002,001,2019_May_07_1008,MusicAffectPsychophysiology2019,3.0.5,59.93444035298291,
To what extent did the music make you feel ,TENDER,30MonoWAV/30MonoT1.wav,2,1,4,13,,,,,0,6,6,12,0,8,8,10,,,,,,,,,1,0.6519063639989326,,,002,001,2019_May_07_1008,MusicAffectPsychophysiology2019,3.0.5,59.93444035298291,
To what extent did the music make you feel ,SCARED,30MonoWAV/30MonoT1.wav,2,1,4,13,,,,,0,6,6,12,0,9,9,11,,,,,,,,,1,1.2683550889996695,,,002,001,2019_May_07_1008,MusicAffectPsychophysiology2019,3.0.5,59.93444035298291,
To what extent did the music make you feel ,ASHAMED,30MonoWAV/30MonoT1.wav,2,1,4,13,,,,,0,6,6,12,0,10,10,4,,,,,,,,,1,1.8186663530013902,,,002,001,2019_May_07_1008,MusicAffectPsychophysiology2019,3.0.5,59.93444035298291,
To what extent did the music make you feel ,ANXIOUS ,30MonoWAV/30MonoT1.wav,2,1,4,13,,,,,0,6,6,12,0,11,11,1,,,,,,,,,1,1.684033455001554,,,002,001,2019_May_07_1008,MusicAffectPsychophysiology2019,3.0.5,59.93444035298291,
,,30MonoWAV/30MonoT1.wav,2,1,4,13,,,,,0,6,6,12,,,,,,,,,,,,,,,,,002,001,2019_May_07_1008,MusicAffectPsychophysiology2019,3.0.5,59.93444035298291,
To what extent did the music make you feel ,ALERT,30MonoWAV/30MonoF4.wav,1,2,2,4,,,,,0,7,7,3,0,0,0,8,,,5,4.999647624001227,3,1.7998789379998925,,,5,1.885641544999089,,,002,001,2019_May_07_1008,MusicAffectPsychophysiology2019,3.0.5,59.93444035298291,
To what extent did the music make you feel ,SCARED,30MonoWAV/30MonoF4.wav,1,2,2,4,,,,,0,7,7,3,0,1,1,11,,,,,,,,,3,2.3016351090009266,,,002,001,2019_May_07_1008,MusicAffectPsychophysiology2019,3.0.5,59.93444035298291,
To what extent did the music make you feel ,SAD,30MonoWAV/30MonoF4.wav,1,2,2,4,,,,,0,7,7,3,0,2,2,0,,,,,,,,,1,1.534628026000064,,,002,001,2019_May_07_1008,MusicAffectPsychophysiology2019,3.0.5,59.93444035298291,
To what extent did the music make you feel ,ACTIVE,30MonoWAV/30MonoF4.wav,1,2,2,4,,,,,0,7,7,3,0,3,3,9,,,,,,,,,4,1.352107425000213,,,002,001,2019_May_07_1008,MusicAffectPsychophysiology2019,3.0.5,59.93444035298291,
To what extent did the music make you feel ,ASHAMED,30MonoWAV/30MonoF4.wav,1,2,2,4,,,,,0,7,7,3,0,4,4,4,,,,,,,,,1,1.251742419999573,,,002,001,2019_May_07_1008,MusicAffectPsychophysiology2019,3.0.5,59.93444035298291,
To what extent did the music make you feel ,ANXIOUS ,30MonoWAV/30MonoF4.wav,1,2,2,4,,,,,0,7,7,3,0,5,5,1,,,,,,,,,3,2.201015181999537,,,002,001,2019_May_07_1008,MusicAffectPsychophysiology2019,3.0.5,59.93444035298291,
To what extent did the music make you feel ,FRUSTRATED,30MonoWAV/30MonoF4.wav,1,2,2,4,,,,,0,7,7,3,0,6,6,3,,,,,,,,,1,2.1016521520014066,,,002,001,2019_May_07_1008,MusicAffectPsychophysiology2019,3.0.5,59.93444035298291,
To what extent did the music make you feel ,ANGRY,30MonoWAV/30MonoF4.wav,1,2,2,4,,,,,0,7,7,3,0,7,7,2,,,,,,,,,1,1.0684419569988677,,,002,001,2019_May_07_1008,MusicAffectPsychophysiology2019,3.0.5,59.93444035298291,
To what extent did the music make you feel ,TENDER,30MonoWAV/30MonoF4.wav,1,2,2,4,,,,,0,7,7,3,0,8,8,10,,,,,,,,,1,0.9343996749994403,,,002,001,2019_May_07_1008,MusicAffectPsychophysiology2019,3.0.5,59.93444035298291,
To what extent did the music make you feel ,HAPPY,30MonoWAV/30MonoF4.wav,1,2,2,4,,,,,0,7,7,3,0,9,9,6,,,,,,,,,1,1.001652622999245,,,002,001,2019_May_07_1008,MusicAffectPsychophysiology2019,3.0.5,59.93444035298291,
To what extent did the music make you feel ,GUILTY,30MonoWAV/30MonoF4.wav,1,2,2,4,,,,,0,7,7,3,0,10,10,5,,,,,,,,,1,0.8183867369989457,,,002,001,2019_May_07_1008,MusicAffectPsychophysiology2019,3.0.5,59.93444035298291,
To what extent did the music make you feel ,EXCITED,30MonoWAV/30MonoF4.wav,1,2,2,4,,,,,0,7,7,3,0,11,11,7,,,,,,,,,1,0.9682976639996923,,,002,001,2019_May_07_1008,MusicAffectPsychophysiology2019,3.0.5,59.93444035298291,
,,30MonoWAV/30MonoF4.wav,1,2,2,4,,,,,0,7,7,3,,,,,,,,,,,,,,,,,002,001,2019_May_07_1008,MusicAffectPsychophysiology2019,3.0.5,59.93444035298291,
To what extent did the music make you feel ,HAPPY,30MonoWAV/30MonoH4.wav,2,2,1,8,,,,,0,8,8,7,0,0,0,6,,,5,3.6680544150003698,5,0.9017349770001601,,,5,0.9567059349992633,,,002,001,2019_May_07_1008,MusicAffectPsychophysiology2019,3.0.5,59.93444035298291,
To what extent did the music make you feel ,FRUSTRATED,30MonoWAV/30MonoH4.wav,2,2,1,8,,,,,0,8,8,7,0,1,1,3,,,,,,,,,1,1.4035025980010687,,,002,001,2019_May_07_1008,MusicAffectPsychophysiology2019,3.0.5,59.93444035298291,
To what extent did the music make you feel ,ANGRY,30MonoWAV/30MonoH4.wav,2,2,1,8,,,,,0,8,8,7,0,2,2,2,,,,,,,,,1,0.9862196300000505,,,002,001,2019_May_07_1008,MusicAffectPsychophysiology2019,3.0.5,59.93444035298291,
To what extent did the music make you feel ,ALERT,30MonoWAV/30MonoH4.wav,2,2,1,8,,,,,0,8,8,7,0,3,3,8,,,,,,,,,5,1.5545710460010014,,,002,001,2019_May_07_1008,MusicAffectPsychophysiology2019,3.0.5,59.93444035298291,
To what extent did the music make you feel ,EXCITED,30MonoWAV/30MonoH4.wav,2,2,1,8,,,,,0,8,8,7,0,4,4,7,,,,,,,,,4,1.069601335999323,,,002,001,2019_May_07_1008,MusicAffectPsychophysiology2019,3.0.5,59.93444035298291,
To what extent did the music make you feel ,ASHAMED,30MonoWAV/30MonoH4.wav,2,2,1,8,,,,,0,8,8,7,0,5,5,4,,,,,,,,,1,1.2532582629992248,,,002,001,2019_May_07_1008,MusicAffectPsychophysiology2019,3.0.5,59.93444035298291,
To what extent did the music make you feel ,SAD,30MonoWAV/30MonoH4.wav,2,2,1,8,,,,,0,8,8,7,0,6,6,0,,,,,,,,,1,0.6060496400004922,,,002,001,2019_May_07_1008,MusicAffectPsychophysiology2019,3.0.5,59.93444035298291,
To what extent did the music make you feel ,SCARED,30MonoWAV/30MonoH4.wav,2,2,1,8,,,,,0,8,8,7,0,7,7,11,,,,,,,,,1,0.5350702180003282,,,002,001,2019_May_07_1008,MusicAffectPsychophysiology2019,3.0.5,59.93444035298291,
To what extent did the music make you feel ,TENDER,30MonoWAV/30MonoH4.wav,2,2,1,8,,,,,0,8,8,7,0,8,8,10,,,,,,,,,1,0.5676719519997278,,,002,001,2019_May_07_1008,MusicAffectPsychophysiology2019,3.0.5,59.93444035298291,
To what extent did the music make you feel ,ANXIOUS ,30MonoWAV/30MonoH4.wav,2,2,1,8,,,,,0,8,8,7,0,9,9,1,,,,,,,,,1,0.667411369000547,,,002,001,2019_May_07_1008,MusicAffectPsychophysiology2019,3.0.5,59.93444035298291,
To what extent did the music make you feel ,GUILTY,30MonoWAV/30MonoH4.wav,2,2,1,8,,,,,0,8,8,7,0,10,10,5,,,,,,,,,1,0.44969602600031067,,,002,001,2019_May_07_1008,MusicAffectPsychophysiology2019,3.0.5,59.93444035298291,
To what extent did the music make you feel ,ACTIVE,30MonoWAV/30MonoH4.wav,2,2,1,8,,,,,0,8,8,7,0,11,11,9,,,,,,,,,5,1.3358835510007339,,,002,001,2019_May_07_1008,MusicAffectPsychophysiology2019,3.0.5,59.93444035298291,
,,30MonoWAV/30MonoH4.wav,2,2,1,8,,,,,0,8,8,7,,,,,,,,,,,,,,,,,002,001,2019_May_07_1008,MusicAffectPsychophysiology2019,3.0.5,59.93444035298291,
To what extent did the music make you feel ,FRUSTRATED,30MonoWAV/30MonoS4.wav,1,1,3,12,,,,,0,9,9,11,0,0,0,3,,,1,4.523846650999985,1,0.9531266600006347,,,1,1.017231190999155,,,002,001,2019_May_07_1008,MusicAffectPsychophysiology2019,3.0.5,59.93444035298291,
To what extent did the music make you feel ,HAPPY,30MonoWAV/30MonoS4.wav,1,1,3,12,,,,,0,9,9,11,0,1,1,6,,,,,,,,,1,0.968660362999799,,,002,001,2019_May_07_1008,MusicAffectPsychophysiology2019,3.0.5,59.93444035298291,
To what extent did the music make you feel ,ASHAMED,30MonoWAV/30MonoS4.wav,1,1,3,12,,,,,0,9,9,11,0,2,2,4,,,,,,,,,2,2.284862816999521,,,002,001,2019_May_07_1008,MusicAffectPsychophysiology2019,3.0.5,59.93444035298291,
To what extent did the music make you feel ,TENDER,30MonoWAV/30MonoS4.wav,1,1,3,12,,,,,0,9,9,11,0,3,3,10,,,,,,,,,1,2.3019792280010734,,,002,001,2019_May_07_1008,MusicAffectPsychophysiology2019,3.0.5,59.93444035298291,
To what extent did the music make you feel ,ANXIOUS ,30MonoWAV/30MonoS4.wav,1,1,3,12,,,,,0,9,9,11,0,4,4,1,,,,,,,,,2,1.5349062280001817,,,002,001,2019_May_07_1008,MusicAffectPsychophysiology2019,3.0.5,59.93444035298291,
To what extent did the music make you feel ,ANGRY,30MonoWAV/30MonoS4.wav,1,1,3,12,,,,,0,9,9,11,0,5,5,2,,,,,,,,,1,1.2183595720016456,,,002,001,2019_May_07_1008,MusicAffectPsychophysiology2019,3.0.5,59.93444035298291,
To what extent did the music make you feel ,GUILTY,30MonoWAV/30MonoS4.wav,1,1,3,12,,,,,0,9,9,11,0,6,6,5,,,,,,,,,2,1.1347619739990478,,,002,001,2019_May_07_1008,MusicAffectPsychophysiology2019,3.0.5,59.93444035298291,
To what extent did the music make you feel ,SAD,30MonoWAV/30MonoS4.wav,1,1,3,12,,,,,0,9,9,11,0,7,7,0,,,,,,,,,3,1.801261209000586,,,002,001,2019_May_07_1008,MusicAffectPsychophysiology2019,3.0.5,59.93444035298291,
To what extent did the music make you feel ,ACTIVE,30MonoWAV/30MonoS4.wav,1,1,3,12,,,,,0,9,9,11,0,8,8,9,,,,,,,,,1,1.551293185000759,,,002,001,2019_May_07_1008,MusicAffectPsychophysiology2019,3.0.5,59.93444035298291,
To what extent did the music make you feel ,ALERT,30MonoWAV/30MonoS4.wav,1,1,3,12,,,,,0,9,9,11,0,9,9,8,,,,,,,,,1,1.418499987001269,,,002,001,2019_May_07_1008,MusicAffectPsychophysiology2019,3.0.5,59.93444035298291,
To what extent did the music make you feel ,EXCITED,30MonoWAV/30MonoS4.wav,1,1,3,12,,,,,0,9,9,11,0,10,10,7,,,,,,,,,1,0.8828842400016583,,,002,001,2019_May_07_1008,MusicAffectPsychophysiology2019,3.0.5,59.93444035298291,
To what extent did the music make you feel ,SCARED,30MonoWAV/30MonoS4.wav,1,1,3,12,,,,,0,9,9,11,0,11,11,11,,,,,,,,,1,1.4187709649995668,,,002,001,2019_May_07_1008,MusicAffectPsychophysiology2019,3.0.5,59.93444035298291,
,,30MonoWAV/30MonoS4.wav,1,1,3,12,,,,,0,9,9,11,,,,,,,,,,,,,,,,,002,001,2019_May_07_1008,MusicAffectPsychophysiology2019,3.0.5,59.93444035298291,
To what extent did the music make you feel ,GUILTY,30MonoWAV/30MonoF3.wav,1,2,2,3,,,,,0,10,10,2,0,0,0,5,,,4,4.485036497999317,1,2.568316937999043,,,1,1.784675357001106,,,002,001,2019_May_07_1008,MusicAffectPsychophysiology2019,3.0.5,59.93444035298291,
To what extent did the music make you feel ,ALERT,30MonoWAV/30MonoF3.wav,1,2,2,3,,,,,0,10,10,2,0,1,1,8,,,,,,,,,4,2.351953543999116,,,002,001,2019_May_07_1008,MusicAffectPsychophysiology2019,3.0.5,59.93444035298291,
To what extent did the music make you feel ,ACTIVE,30MonoWAV/30MonoF3.wav,1,2,2,3,,,,,0,10,10,2,0,2,2,9,,,,,,,,,4,1.0182476949994452,,,002,001,2019_May_07_1008,MusicAffectPsychophysiology2019,3.0.5,59.93444035298291,
To what extent did the music make you feel ,FRUSTRATED,30MonoWAV/30MonoF3.wav,1,2,2,3,,,,,0,10,10,2,0,3,3,3,,,,,,,,,1,1.4855172070001572,,,002,001,2019_May_07_1008,MusicAffectPsychophysiology2019,3.0.5,59.93444035298291,
To what extent did the music make you feel ,ANGRY,30MonoWAV/30MonoF3.wav,1,2,2,3,,,,,0,10,10,2,0,4,4,2,,,,,,,,,1,1.2504900470012217,,,002,001,2019_May_07_1008,MusicAffectPsychophysiology2019,3.0.5,59.93444035298291,
To what extent did the music make you feel ,SCARED,30MonoWAV/30MonoF3.wav,1,2,2,3,,,,,0,10,10,2,0,5,5,11,,,,,,,,,4,1.352044912000565,,,002,001,2019_May_07_1008,MusicAffectPsychophysiology2019,3.0.5,59.93444035298291,
To what extent did the music make you feel ,ASHAMED,30MonoWAV/30MonoF3.wav,1,2,2,3,,,,,0,10,10,2,0,6,6,4,,,,,,,,,1,1.3015316979999625,,,002,001,2019_May_07_1008,MusicAffectPsychophysiology2019,3.0.5,59.93444035298291,
To what extent did the music make you feel ,HAPPY,30MonoWAV/30MonoF3.wav,1,2,2,3,,,,,0,10,10,2,0,7,7,6,,,,,,,,,1,0.8341988829997717,,,002,001,2019_May_07_1008,MusicAffectPsychophysiology2019,3.0.5,59.93444035298291,
To what extent did the music make you feel ,ANXIOUS ,30MonoWAV/30MonoF3.wav,1,2,2,3,,,,,0,10,10,2,0,8,8,1,,,,,,,,,4,1.1515459120000742,,,002,001,2019_May_07_1008,MusicAffectPsychophysiology2019,3.0.5,59.93444035298291,
To what extent did the music make you feel ,TENDER,30MonoWAV/30MonoF3.wav,1,2,2,3,,,,,0,10,10,2,0,9,9,10,,,,,,,,,1,0.8520153299996309,,,002,001,2019_May_07_1008,MusicAffectPsychophysiology2019,3.0.5,59.93444035298291,
To what extent did the music make you feel ,SAD,30MonoWAV/30MonoF3.wav,1,2,2,3,,,,,0,10,10,2,0,10,10,0,,,,,,,,,1,1.3678922710005281,,,002,001,2019_May_07_1008,MusicAffectPsychophysiology2019,3.0.5,59.93444035298291,
To what extent did the music make you feel ,EXCITED,30MonoWAV/30MonoF3.wav,1,2,2,3,,,,,0,10,10,2,0,11,11,7,,,,,,,,,1,2.519039197000893,,,002,001,2019_May_07_1008,MusicAffectPsychophysiology2019,3.0.5,59.93444035298291,
,,30MonoWAV/30MonoF3.wav,1,2,2,3,,,,,0,10,10,2,,,,,,,,,,,,,,,,,002,001,2019_May_07_1008,MusicAffectPsychophysiology2019,3.0.5,59.93444035298291,
To what extent did the music make you feel ,ANGRY,30MonoWAV/30MonoS3.wav,1,1,3,11,,,,,0,11,11,10,0,0,0,2,,,3,3.318176687000232,1,1.518281709000803,,,2,1.7351095210015046,,,002,001,2019_May_07_1008,MusicAffectPsychophysiology2019,3.0.5,59.93444035298291,
To what extent did the music make you feel ,ACTIVE,30MonoWAV/30MonoS3.wav,1,1,3,11,,,,,0,11,11,10,0,1,1,9,,,,,,,,,3,1.90092889799962,,,002,001,2019_May_07_1008,MusicAffectPsychophysiology2019,3.0.5,59.93444035298291,
To what extent did the music make you feel ,ASHAMED,30MonoWAV/30MonoS3.wav,1,1,3,11,,,,,0,11,11,10,0,2,2,4,,,,,,,,,3,1.8683525930009637,,,002,001,2019_May_07_1008,MusicAffectPsychophysiology2019,3.0.5,59.93444035298291,
To what extent did the music make you feel ,SAD,30MonoWAV/30MonoS3.wav,1,1,3,11,,,,,0,11,11,10,0,3,3,0,,,,,,,,,2,1.2889676570011943,,,002,001,2019_May_07_1008,MusicAffectPsychophysiology2019,3.0.5,59.93444035298291,
To what extent did the music make you feel ,FRUSTRATED,30MonoWAV/30MonoS3.wav,1,1,3,11,,,,,0,11,11,10,0,4,4,3,,,,,,,,,2,1.4370869390004373,,,002,001,2019_May_07_1008,MusicAffectPsychophysiology2019,3.0.5,59.93444035298291,
To what extent did the music make you feel ,ANXIOUS ,30MonoWAV/30MonoS3.wav,1,1,3,11,,,,,0,11,11,10,0,5,5,1,,,,,,,,,3,2.5713792759997887,,,002,001,2019_May_07_1008,MusicAffectPsychophysiology2019,3.0.5,59.93444035298291,
To what extent did the music make you feel ,TENDER,30MonoWAV/30MonoS3.wav,1,1,3,11,,,,,0,11,11,10,0,6,6,10,,,,,,,,,1,1.2197558939988085,,,002,001,2019_May_07_1008,MusicAffectPsychophysiology2019,3.0.5,59.93444035298291,
To what extent did the music make you feel ,EXCITED,30MonoWAV/30MonoS3.wav,1,1,3,11,,,,,0,11,11,10,0,7,7,7,,,,,,,,,1,1.9240418749996024,,,002,001,2019_May_07_1008,MusicAffectPsychophysiology2019,3.0.5,59.93444035298291,
To what extent did the music make you feel ,GUILTY,30MonoWAV/30MonoS3.wav,1,1,3,11,,,,,0,11,11,10,0,8,8,5,,,,,,,,,3,1.3997232769997936,,,002,001,2019_May_07_1008,MusicAffectPsychophysiology2019,3.0.5,59.93444035298291,
To what extent did the music make you feel ,ALERT,30MonoWAV/30MonoS3.wav,1,1,3,11,,,,,0,11,11,10,0,9,9,8,,,,,,,,,3,1.2018364239993389,,,002,001,2019_May_07_1008,MusicAffectPsychophysiology2019,3.0.5,59.93444035298291,
To what extent did the music make you feel ,HAPPY,30MonoWAV/30MonoS3.wav,1,1,3,11,,,,,0,11,11,10,0,10,10,6,,,,,,,,,1,0.9165592339995783,,,002,001,2019_May_07_1008,MusicAffectPsychophysiology2019,3.0.5,59.93444035298291,
To what extent did the music make you feel ,SCARED,30MonoWAV/30MonoS3.wav,1,1,3,11,,,,,0,11,11,10,0,11,11,11,,,,,,,,,2,1.7186601440007507,,,002,001,2019_May_07_1008,MusicAffectPsychophysiology2019,3.0.5,59.93444035298291,
,,30MonoWAV/30MonoS3.wav,1,1,3,11,,,,,0,11,11,10,,,,,,,,,,,,,,,,,002,001,2019_May_07_1008,MusicAffectPsychophysiology2019,3.0.5,59.93444035298291,
To what extent did the music make you feel ,FRUSTRATED,30MonoWAV/30MonoH2.wav,2,2,1,6,,,,,0,12,12,5,0,0,0,3,,,5,3.972155841998756,4,2.7042414660008944,,,1,1.6027824759985378,,,002,001,2019_May_07_1008,MusicAffectPsychophysiology2019,3.0.5,59.93444035298291,
To what extent did the music make you feel ,GUILTY,30MonoWAV/30MonoH2.wav,2,2,1,6,,,,,0,12,12,5,0,1,1,5,,,,,,,,,1,0.7182169839998096,,,002,001,2019_May_07_1008,MusicAffectPsychophysiology2019,3.0.5,59.93444035298291,
To what extent did the music make you feel ,SAD,30MonoWAV/30MonoH2.wav,2,2,1,6,,,,,0,12,12,5,0,2,2,0,,,,,,,,,1,0.518295969999599,,,002,001,2019_May_07_1008,MusicAffectPsychophysiology2019,3.0.5,59.93444035298291,
To what extent did the music make you feel ,ACTIVE,30MonoWAV/30MonoH2.wav,2,2,1,6,,,,,0,12,12,5,0,3,3,9,,,,,,,,,4,1.5835810400003538,,,002,001,2019_May_07_1008,MusicAffectPsychophysiology2019,3.0.5,59.93444035298291,
To what extent did the music make you feel ,SCARED,30MonoWAV/30MonoH2.wav,2,2,1,6,,,,,0,12,12,5,0,4,4,11,,,,,,,,,1,1.1515755450000142,,,002,001,2019_May_07_1008,MusicAffectPsychophysiology2019,3.0.5,59.93444035298291,
To what extent did the music make you feel ,HAPPY,30MonoWAV/30MonoH2.wav,2,2,1,6,,,,,0,12,12,5,0,5,5,6,,,,,,,,,3,2.9346129429995926,,,002,001,2019_May_07_1008,MusicAffectPsychophysiology2019,3.0.5,59.93444035298291,
To what extent did the music make you feel ,ANXIOUS ,30MonoWAV/30MonoH2.wav,2,2,1,6,,,,,0,12,12,5,0,6,6,1,,,,,,,,,1,1.3183996389998356,,,002,001,2019_May_07_1008,MusicAffectPsychophysiology2019,3.0.5,59.93444035298291,
To what extent did the music make you feel ,ALERT,30MonoWAV/30MonoH2.wav,2,2,1,6,,,,,0,12,12,5,0,7,7,8,,,,,,,,,5,1.485471433999919,,,002,001,2019_May_07_1008,MusicAffectPsychophysiology2019,3.0.5,59.93444035298291,
To what extent did the music make you feel ,ANGRY,30MonoWAV/30MonoH2.wav,2,2,1,6,,,,,0,12,12,5,0,8,8,2,,,,,,,,,1,1.1855170570015616,,,002,001,2019_May_07_1008,MusicAffectPsychophysiology2019,3.0.5,59.93444035298291,
To what extent did the music make you feel ,EXCITED,30MonoWAV/30MonoH2.wav,2,2,1,6,,,,,0,12,12,5,0,9,9,7,,,,,,,,,4,1.4507304020007723,,,002,001,2019_May_07_1008,MusicAffectPsychophysiology2019,3.0.5,59.93444035298291,
To what extent did the music make you feel ,ASHAMED,30MonoWAV/30MonoH2.wav,2,2,1,6,,,,,0,12,12,5,0,10,10,4,,,,,,,,,1,1.1848133330004202,,,002,001,2019_May_07_1008,MusicAffectPsychophysiology2019,3.0.5,59.93444035298291,
To what extent did the music make you feel ,TENDER,30MonoWAV/30MonoH2.wav,2,2,1,6,,,,,0,12,12,5,0,11,11,10,,,,,,,,,1,0.8182844749990181,,,002,001,2019_May_07_1008,MusicAffectPsychophysiology2019,3.0.5,59.93444035298291,
,,30MonoWAV/30MonoH2.wav,2,2,1,6,,,,,0,12,12,5,,,,,,,,,,,,,,,,,002,001,2019_May_07_1008,MusicAffectPsychophysiology2019,3.0.5,59.93444035298291,
To what extent did the music make you feel ,ALERT,30MonoWAV/30MonoT2.wav,2,1,4,14,,,,,0,13,13,13,0,0,0,8,,,4,4.902886542000488,4,1.8027388009995775,,,2,2.0854082299993024,,,002,001,2019_May_07_1008,MusicAffectPsychophysiology2019,3.0.5,59.93444035298291,
To what extent did the music make you feel ,EXCITED,30MonoWAV/30MonoT2.wav,2,1,4,14,,,,,0,13,13,13,0,1,1,7,,,,,,,,,3,2.4190470749999804,,,002,001,2019_May_07_1008,MusicAffectPsychophysiology2019,3.0.5,59.93444035298291,
To what extent did the music make you feel ,FRUSTRATED,30MonoWAV/30MonoT2.wav,2,1,4,14,,,,,0,13,13,13,0,2,2,3,,,,,,,,,1,1.874654246999853,,,002,001,2019_May_07_1008,MusicAffectPsychophysiology2019,3.0.5,59.93444035298291,
To what extent did the music make you feel ,ANXIOUS ,30MonoWAV/30MonoT2.wav,2,1,4,14,,,,,0,13,13,13,0,3,3,1,,,,,,,,,1,1.2034090340002876,,,002,001,2019_May_07_1008,MusicAffectPsychophysiology2019,3.0.5,59.93444035298291,
To what extent did the music make you feel ,GUILTY,30MonoWAV/30MonoT2.wav,2,1,4,14,,,,,0,13,13,13,0,4,4,5,,,,,,,,,1,0.852113716000531,,,002,001,2019_May_07_1008,MusicAffectPsychophysiology2019,3.0.5,59.93444035298291,
To what extent did the music make you feel ,TENDER,30MonoWAV/30MonoT2.wav,2,1,4,14,,,,,0,13,13,13,0,5,5,10,,,,,,,,,3,2.253279530999862,,,002,001,2019_May_07_1008,MusicAffectPsychophysiology2019,3.0.5,59.93444035298291,
To what extent did the music make you feel ,SAD,30MonoWAV/30MonoT2.wav,2,1,4,14,,,,,0,13,13,13,0,6,6,0,,,,,,,,,1,0.8389024959997187,,,002,001,2019_May_07_1008,MusicAffectPsychophysiology2019,3.0.5,59.93444035298291,
To what extent did the music make you feel ,ANGRY,30MonoWAV/30MonoT2.wav,2,1,4,14,,,,,0,13,13,13,0,7,7,2,,,,,,,,,1,1.0843566750008904,,,002,001,2019_May_07_1008,MusicAffectPsychophysiology2019,3.0.5,59.93444035298291,
To what extent did the music make you feel ,HAPPY,30MonoWAV/30MonoT2.wav,2,1,4,14,,,,,0,13,13,13,0,8,8,6,,,,,,,,,3,1.3024258050008939,,,002,001,2019_May_07_1008,MusicAffectPsychophysiology2019,3.0.5,59.93444035298291,
To what extent did the music make you feel ,ASHAMED,30MonoWAV/30MonoT2.wav,2,1,4,14,,,,,0,13,13,13,0,9,9,4,,,,,,,,,1,0.7862517929988826,,,002,001,2019_May_07_1008,MusicAffectPsychophysiology2019,3.0.5,59.93444035298291,
To what extent did the music make you feel ,ACTIVE,30MonoWAV/30MonoT2.wav,2,1,4,14,,,,,0,13,13,13,0,10,10,9,,,,,,,,,3,0.9328599269992992,,,002,001,2019_May_07_1008,MusicAffectPsychophysiology2019,3.0.5,59.93444035298291,
To what extent did the music make you feel ,SCARED,30MonoWAV/30MonoT2.wav,2,1,4,14,,,,,0,13,13,13,0,11,11,11,,,,,,,,,1,1.2010296669996023,,,002,001,2019_May_07_1008,MusicAffectPsychophysiology2019,3.0.5,59.93444035298291,
,,30MonoWAV/30MonoT2.wav,2,1,4,14,,,,,0,13,13,13,,,,,,,,,,,,,,,,,002,001,2019_May_07_1008,MusicAffectPsychophysiology2019,3.0.5,59.93444035298291,
To what extent did the music make you feel ,SCARED,30MonoWAV/30MonoT4.wav,2,1,4,16,,,,,0,14,14,15,0,0,0,11,,,5,3.810830418000478,5,1.0352171610011283,,,1,1.7505539510002563,,,002,001,2019_May_07_1008,MusicAffectPsychophysiology2019,3.0.5,59.93444035298291,
To what extent did the music make you feel ,SAD,30MonoWAV/30MonoT4.wav,2,1,4,16,,,,,0,14,14,15,0,1,1,0,,,,,,,,,4,2.0013823620010953,,,002,001,2019_May_07_1008,MusicAffectPsychophysiology2019,3.0.5,59.93444035298291,
To what extent did the music make you feel ,FRUSTRATED,30MonoWAV/30MonoT4.wav,2,1,4,16,,,,,0,14,14,15,0,2,2,3,,,,,,,,,1,2.0684583359998214,,,002,001,2019_May_07_1008,MusicAffectPsychophysiology2019,3.0.5,59.93444035298291,
To what extent did the music make you feel ,ALERT,30MonoWAV/30MonoT4.wav,2,1,4,16,,,,,0,14,14,15,0,3,3,8,,,,,,,,,4,1.751757820999046,,,002,001,2019_May_07_1008,MusicAffectPsychophysiology2019,3.0.5,59.93444035298291,
To what extent did the music make you feel ,ASHAMED,30MonoWAV/30MonoT4.wav,2,1,4,16,,,,,0,14,14,15,0,4,4,4,,,,,,,,,1,1.1016207829998166,,,002,001,2019_May_07_1008,MusicAffectPsychophysiology2019,3.0.5,59.93444035298291,
To what extent did the music make you feel ,ACTIVE,30MonoWAV/30MonoT4.wav,2,1,4,16,,,,,0,14,14,15,0,5,5,9,,,,,,,,,3,1.6663947600009124,,,002,001,2019_May_07_1008,MusicAffectPsychophysiology2019,3.0.5,59.93444035298291,
To what extent did the music make you feel ,EXCITED,30MonoWAV/30MonoT4.wav,2,1,4,16,,,,,0,14,14,15,0,6,6,7,,,,,,,,,3,1.4519699930006027,,,002,001,2019_May_07_1008,MusicAffectPsychophysiology2019,3.0.5,59.93444035298291,
To what extent did the music make you feel ,ANXIOUS ,30MonoWAV/30MonoT4.wav,2,1,4,16,,,,,0,14,14,15,0,7,7,1,,,,,,,,,1,1.4181687109994527,,,002,001,2019_May_07_1008,MusicAffectPsychophysiology2019,3.0.5,59.93444035298291,
To what extent did the music make you feel ,GUILTY,30MonoWAV/30MonoT4.wav,2,1,4,16,,,,,0,14,14,15,0,8,8,5,,,,,,,,,1,0.8512820920004742,,,002,001,2019_May_07_1008,MusicAffectPsychophysiology2019,3.0.5,59.93444035298291,
To what extent did the music make you feel ,TENDER,30MonoWAV/30MonoT4.wav,2,1,4,16,,,,,0,14,14,15,0,9,9,10,,,,,,,,,1,0.08501188999980513,,,002,001,2019_May_07_1008,MusicAffectPsychophysiology2019,3.0.5,59.93444035298291,
To what extent did the music make you feel ,ANGRY,30MonoWAV/30MonoT4.wav,2,1,4,16,,,,,0,14,14,15,0,10,10,2,,,,,,,,,1,1.7335297490008088,,,002,001,2019_May_07_1008,MusicAffectPsychophysiology2019,3.0.5,59.93444035298291,
To what extent did the music make you feel ,HAPPY,30MonoWAV/30MonoT4.wav,2,1,4,16,,,,,0,14,14,15,0,11,11,6,,,,,,,,,4,1.5523096430006262,,,002,001,2019_May_07_1008,MusicAffectPsychophysiology2019,3.0.5,59.93444035298291,
,,30MonoWAV/30MonoT4.wav,2,1,4,16,,,,,0,14,14,15,,,,,,,,,,,,,,,,,002,001,2019_May_07_1008,MusicAffectPsychophysiology2019,3.0.5,59.93444035298291,
To what extent did the music make you feel ,TENDER,30MonoWAV/30MonoH3.wav,2,2,1,7,,,,,0,15,15,6,0,0,0,10,,,5,2.8844857290005166,5,0.7689161159996729,,,4,1.9185009870016074,,,002,001,2019_May_07_1008,MusicAffectPsychophysiology2019,3.0.5,59.93444035298291,
To what extent did the music make you feel ,ANXIOUS ,30MonoWAV/30MonoH3.wav,2,2,1,7,,,,,0,15,15,6,0,1,1,1,,,,,,,,,1,2.0835407720005605,,,002,001,2019_May_07_1008,MusicAffectPsychophysiology2019,3.0.5,59.93444035298291,
To what extent did the music make you feel ,SCARED,30MonoWAV/30MonoH3.wav,2,2,1,7,,,,,0,15,15,6,0,2,2,11,,,,,,,,,1,0.7185700179998094,,,002,001,2019_May_07_1008,MusicAffectPsychophysiology2019,3.0.5,59.93444035298291,
To what extent did the music make you feel ,SAD,30MonoWAV/30MonoH3.wav,2,2,1,7,,,,,0,15,15,6,0,3,3,0,,,,,,,,,1,0.6994082530000014,,,002,001,2019_May_07_1008,MusicAffectPsychophysiology2019,3.0.5,59.93444035298291,
To what extent did the music make you feel ,ANGRY,30MonoWAV/30MonoH3.wav,2,2,1,7,,,,,0,15,15,6,0,4,4,2,,,,,,,,,1,0.7189547529997071,,,002,001,2019_May_07_1008,MusicAffectPsychophysiology2019,3.0.5,59.93444035298291,
To what extent did the music make you feel ,GUILTY,30MonoWAV/30MonoH3.wav,2,2,1,7,,,,,0,15,15,6,0,5,5,5,,,,,,,,,1,0.7187219870011177,,,002,001,2019_May_07_1008,MusicAffectPsychophysiology2019,3.0.5,59.93444035298291,
To what extent did the music make you feel ,ASHAMED,30MonoWAV/30MonoH3.wav,2,2,1,7,,,,,0,15,15,6,0,6,6,4,,,,,,,,,1,0.6513460930000292,,,002,001,2019_May_07_1008,MusicAffectPsychophysiology2019,3.0.5,59.93444035298291,
To what extent did the music make you feel ,EXCITED,30MonoWAV/30MonoH3.wav,2,2,1,7,,,,,0,15,15,6,0,7,7,7,,,,,,,,,5,1.3523343249999016,,,002,001,2019_May_07_1008,MusicAffectPsychophysiology2019,3.0.5,59.93444035298291,
To what extent did the music make you feel ,HAPPY,30MonoWAV/30MonoH3.wav,2,2,1,7,,,,,0,15,15,6,0,8,8,6,,,,,,,,,5,0.5025368580008944,,,002,001,2019_May_07_1008,MusicAffectPsychophysiology2019,3.0.5,59.93444035298291,
To what extent did the music make you feel ,ACTIVE,30MonoWAV/30MonoH3.wav,2,2,1,7,,,,,0,15,15,6,0,9,9,9,,,,,,,,,5,0.551222019999841,,,002,001,2019_May_07_1008,MusicAffectPsychophysiology2019,3.0.5,59.93444035298291,
To what extent did the music make you feel ,ALERT,30MonoWAV/30MonoH3.wav,2,2,1,7,,,,,0,15,15,6,0,10,10,8,,,,,,,,,5,0.534492112999942,,,002,001,2019_May_07_1008,MusicAffectPsychophysiology2019,3.0.5,59.93444035298291,
To what extent did the music make you feel ,FRUSTRATED,30MonoWAV/30MonoH3.wav,2,2,1,7,,,,,0,15,15,6,0,11,11,3,,,,,,,,,1,1.1178792050013726,,,002,001,2019_May_07_1008,MusicAffectPsychophysiology2019,3.0.5,59.93444035298291,
,,30MonoWAV/30MonoH3.wav,2,2,1,7,,,,,0,15,15,6,,,,,,,,,,,,,,,,,002,001,2019_May_07_1008,MusicAffectPsychophysiology2019,3.0.5,59.93444035298291,
To what extent did the music make you feel ,SAD,30MonoWAV/30MonoT3.wav,2,1,4,15,,,,,1,0,16,14,0,0,0,0,,,2,3.968810300999394,3,4.040297719000591,,,3,3.7563142990002234,,,002,001,2019_May_07_1008,MusicAffectPsychophysiology2019,3.0.5,59.93444035298291,
To what extent did the music make you feel ,SCARED,30MonoWAV/30MonoT3.wav,2,1,4,15,,,,,1,0,16,14,0,1,1,11,,,,,,,,,1,1.2070431910015031,,,002,001,2019_May_07_1008,MusicAffectPsychophysiology2019,3.0.5,59.93444035298291,
To what extent did the music make you feel ,ASHAMED,30MonoWAV/30MonoT3.wav,2,1,4,15,,,,,1,0,16,14,0,2,2,4,,,,,,,,,1,0.7515021309991425,,,002,001,2019_May_07_1008,MusicAffectPsychophysiology2019,3.0.5,59.93444035298291,
To what extent did the music make you feel ,ACTIVE,30MonoWAV/30MonoT3.wav,2,1,4,15,,,,,1,0,16,14,0,3,3,9,,,,,,,,,1,1.0499935800016829,,,002,001,2019_May_07_1008,MusicAffectPsychophysiology2019,3.0.5,59.93444035298291,
To what extent did the music make you feel ,ANXIOUS ,30MonoWAV/30MonoT3.wav,2,1,4,15,,,,,1,0,16,14,0,4,4,1,,,,,,,,,1,0.5518391370005702,,,002,001,2019_May_07_1008,MusicAffectPsychophysiology2019,3.0.5,59.93444035298291,
To what extent did the music make you feel ,TENDER,30MonoWAV/30MonoT3.wav,2,1,4,15,,,,,1,0,16,14,0,5,5,10,,,,,,,,,1,0.5851568820016837,,,002,001,2019_May_07_1008,MusicAffectPsychophysiology2019,3.0.5,59.93444035298291,
To what extent did the music make you feel ,HAPPY,30MonoWAV/30MonoT3.wav,2,1,4,15,,,,,1,0,16,14,0,6,6,6,,,,,,,,,1,0.6841770320006617,,,002,001,2019_May_07_1008,MusicAffectPsychophysiology2019,3.0.5,59.93444035298291,
To what extent did the music make you feel ,FRUSTRATED,30MonoWAV/30MonoT3.wav,2,1,4,15,,,,,1,0,16,14,0,7,7,3,,,,,,,,,1,1.6519374050003535,,,002,001,2019_May_07_1008,MusicAffectPsychophysiology2019,3.0.5,59.93444035298291,
To what extent did the music make you feel ,EXCITED,30MonoWAV/30MonoT3.wav,2,1,4,15,,,,,1,0,16,14,0,8,8,7,,,,,,,,,1,0.8014084999995248,,,002,001,2019_May_07_1008,MusicAffectPsychophysiology2019,3.0.5,59.93444035298291,
To what extent did the music make you feel ,ALERT,30MonoWAV/30MonoT3.wav,2,1,4,15,,,,,1,0,16,14,0,9,9,8,,,,,,,,,1,1.101052936999622,,,002,001,2019_May_07_1008,MusicAffectPsychophysiology2019,3.0.5,59.93444035298291,
To what extent did the music make you feel ,ANGRY,30MonoWAV/30MonoT3.wav,2,1,4,15,,,,,1,0,16,14,0,10,10,2,,,,,,,,,1,0.6014175730015268,,,002,001,2019_May_07_1008,MusicAffectPsychophysiology2019,3.0.5,59.93444035298291,
To what extent did the music make you feel ,GUILTY,30MonoWAV/30MonoT3.wav,2,1,4,15,,,,,1,0,16,14,0,11,11,5,,,,,,,,,1,0.618197058000078,,,002,001,2019_May_07_1008,MusicAffectPsychophysiology2019,3.0.5,59.93444035298291,
,,30MonoWAV/30MonoT3.wav,2,1,4,15,,,,,1,0,16,14,,,,,,,,,,,,,,,,,002,001,2019_May_07_1008,MusicAffectPsychophysiology2019,3.0.5,59.93444035298291,
To what extent did the music make you feel ,EXCITED,30MonoWAV/30MonoT4.wav,2,1,4,16,,,,,1,1,17,15,0,0,0,7,,,5,3.8851970140003687,5,1.0181522980001319,,,4,1.2186257779994776,,,002,001,2019_May_07_1008,MusicAffectPsychophysiology2019,3.0.5,59.93444035298291,
To what extent did the music make you feel ,ANXIOUS ,30MonoWAV/30MonoT4.wav,2,1,4,16,,,,,1,1,17,15,0,1,1,1,,,,,,,,,1,1.1026473689998966,,,002,001,2019_May_07_1008,MusicAffectPsychophysiology2019,3.0.5,59.93444035298291,
To what extent did the music make you feel ,ASHAMED,30MonoWAV/30MonoT4.wav,2,1,4,16,,,,,1,1,17,15,0,2,2,4,,,,,,,,,1,0.6685439230004704,,,002,001,2019_May_07_1008,MusicAffectPsychophysiology2019,3.0.5,59.93444035298291,
To what extent did the music make you feel ,ANGRY,30MonoWAV/30MonoT4.wav,2,1,4,16,,,,,1,1,17,15,0,3,3,2,,,,,,,,,1,0.5681802799990692,,,002,001,2019_May_07_1008,MusicAffectPsychophysiology2019,3.0.5,59.93444035298291,
To what extent did the music make you feel ,TENDER,30MonoWAV/30MonoT4.wav,2,1,4,16,,,,,1,1,17,15,0,4,4,10,,,,,,,,,3,1.501086246000341,,,002,001,2019_May_07_1008,MusicAffectPsychophysiology2019,3.0.5,59.93444035298291,
To what extent did the music make you feel ,ALERT,30MonoWAV/30MonoT4.wav,2,1,4,16,,,,,1,1,17,15,0,5,5,8,,,,,,,,,3,1.2183471230000578,,,002,001,2019_May_07_1008,MusicAffectPsychophysiology2019,3.0.5,59.93444035298291,
To what extent did the music make you feel ,FRUSTRATED,30MonoWAV/30MonoT4.wav,2,1,4,16,,,,,1,1,17,15,0,6,6,3,,,,,,,,,1,0.7516822650013637,,,002,001,2019_May_07_1008,MusicAffectPsychophysiology2019,3.0.5,59.93444035298291,
To what extent did the music make you feel ,SCARED,30MonoWAV/30MonoT4.wav,2,1,4,16,,,,,1,1,17,15,0,7,7,11,,,,,,,,,1,0.584281577001093,,,002,001,2019_May_07_1008,MusicAffectPsychophysiology2019,3.0.5,59.93444035298291,
To what extent did the music make you feel ,ACTIVE,30MonoWAV/30MonoT4.wav,2,1,4,16,,,,,1,1,17,15,0,8,8,9,,,,,,,,,3,1.3011973279990343,,,002,001,2019_May_07_1008,MusicAffectPsychophysiology2019,3.0.5,59.93444035298291,
To what extent did the music make you feel ,HAPPY,30MonoWAV/30MonoT4.wav,2,1,4,16,,,,,1,1,17,15,0,9,9,6,,,,,,,,,4,1.3679389520002587,,,002,001,2019_May_07_1008,MusicAffectPsychophysiology2019,3.0.5,59.93444035298291,
To what extent did the music make you feel ,SAD,30MonoWAV/30MonoT4.wav,2,1,4,16,,,,,1,1,17,15,0,10,10,0,,,,,,,,,3,1.3021627490015817,,,002,001,2019_May_07_1008,MusicAffectPsychophysiology2019,3.0.5,59.93444035298291,
To what extent did the music make you feel ,GUILTY,30MonoWAV/30MonoT4.wav,2,1,4,16,,,,,1,1,17,15,0,11,11,5,,,,,,,,,1,1.0028349929998512,,,002,001,2019_May_07_1008,MusicAffectPsychophysiology2019,3.0.5,59.93444035298291,
,,30MonoWAV/30MonoT4.wav,2,1,4,16,,,,,1,1,17,15,,,,,,,,,,,,,,,,,002,001,2019_May_07_1008,MusicAffectPsychophysiology2019,3.0.5,59.93444035298291,
To what extent did the music make you feel ,ANGRY,30MonoWAV/30MonoT1.wav,2,1,4,13,,,,,1,2,18,12,0,0,0,2,,,2,2.705313517999457,2,0.8521142040008272,,,1,1.136898934999408,,,002,001,2019_May_07_1008,MusicAffectPsychophysiology2019,3.0.5,59.93444035298291,
To what extent did the music make you feel ,FRUSTRATED,30MonoWAV/30MonoT1.wav,2,1,4,13,,,,,1,2,18,12,0,1,1,3,,,,,,,,,1,0.6526819739992789,,,002,001,2019_May_07_1008,MusicAffectPsychophysiology2019,3.0.5,59.93444035298291,
To what extent did the music make you feel ,HAPPY,30MonoWAV/30MonoT1.wav,2,1,4,13,,,,,1,2,18,12,0,2,2,6,,,,,,,,,2,2.0237553080005455,,,002,001,2019_May_07_1008,MusicAffectPsychophysiology2019,3.0.5,59.93444035298291,
To what extent did the music make you feel ,SCARED,30MonoWAV/30MonoT1.wav,2,1,4,13,,,,,1,2,18,12,0,3,3,11,,,,,,,,,1,0.8663364019994333,,,002,001,2019_May_07_1008,MusicAffectPsychophysiology2019,3.0.5,59.93444035298291,
To what extent did the music make you feel ,ACTIVE,30MonoWAV/30MonoT1.wav,2,1,4,13,,,,,1,2,18,12,0,4,4,9,,,,,,,,,2,1.185082064001108,,,002,001,2019_May_07_1008,MusicAffectPsychophysiology2019,3.0.5,59.93444035298291,
To what extent did the music make you feel ,ANXIOUS ,30MonoWAV/30MonoT1.wav,2,1,4,13,,,,,1,2,18,12,0,5,5,1,,,,,,,,,1,0.8357870589989034,,,002,001,2019_May_07_1008,MusicAffectPsychophysiology2019,3.0.5,59.93444035298291,
To what extent did the music make you feel ,SAD,30MonoWAV/30MonoT1.wav,2,1,4,13,,,,,1,2,18,12,0,6,6,0,,,,,,,,,1,0.6847562919992924,,,002,001,2019_May_07_1008,MusicAffectPsychophysiology2019,3.0.5,59.93444035298291,
To what extent did the music make you feel ,EXCITED,30MonoWAV/30MonoT1.wav,2,1,4,13,,,,,1,2,18,12,0,7,7,7,,,,,,,,,1,0.9192882419993111,,,002,001,2019_May_07_1008,MusicAffectPsychophysiology2019,3.0.5,59.93444035298291,
To what extent did the music make you feel ,TENDER,30MonoWAV/30MonoT1.wav,2,1,4,13,,,,,1,2,18,12,0,8,8,10,,,,,,,,,1,0.7682267799991678,,,002,001,2019_May_07_1008,MusicAffectPsychophysiology2019,3.0.5,59.93444035298291,
To what extent did the music make you feel ,ASHAMED,30MonoWAV/30MonoT1.wav,2,1,4,13,,,,,1,2,18,12,0,9,9,4,,,,,,,,,1,1.5014511369990942,,,002,001,2019_May_07_1008,MusicAffectPsychophysiology2019,3.0.5,59.93444035298291,
To what extent did the music make you feel ,GUILTY,30MonoWAV/30MonoT1.wav,2,1,4,13,,,,,1,2,18,12,0,10,10,5,,,,,,,,,1,0.5015717940004834,,,002,001,2019_May_07_1008,MusicAffectPsychophysiology2019,3.0.5,59.93444035298291,
To what extent did the music make you feel ,ALERT,30MonoWAV/30MonoT1.wav,2,1,4,13,,,,,1,2,18,12,0,11,11,8,,,,,,,,,1,1.0013453789997584,,,002,001,2019_May_07_1008,MusicAffectPsychophysiology2019,3.0.5,59.93444035298291,
,,30MonoWAV/30MonoT1.wav,2,1,4,13,,,,,1,2,18,12,,,,,,,,,,,,,,,,,002,001,2019_May_07_1008,MusicAffectPsychophysiology2019,3.0.5,59.93444035298291,
To what extent did the music make you feel ,SAD,30MonoWAV/30MonoS4.wav,1,1,3,12,,,,,1,3,19,11,0,0,0,0,,,1,5.01828062200002,1,1.9845977789991593,,,4,2.0687590170000476,,,002,001,2019_May_07_1008,MusicAffectPsychophysiology2019,3.0.5,59.93444035298291,
To what extent did the music make you feel ,TENDER,30MonoWAV/30MonoS4.wav,1,1,3,12,,,,,1,3,19,11,0,1,1,10,,,,,,,,,2,1.4512168709989055,,,002,001,2019_May_07_1008,MusicAffectPsychophysiology2019,3.0.5,59.93444035298291,
To what extent did the music make you feel ,ALERT,30MonoWAV/30MonoS4.wav,1,1,3,12,,,,,1,3,19,11,0,2,2,8,,,,,,,,,1,1.1845599579992268,,,002,001,2019_May_07_1008,MusicAffectPsychophysiology2019,3.0.5,59.93444035298291,
To what extent did the music make you feel ,EXCITED,30MonoWAV/30MonoS4.wav,1,1,3,12,,,,,1,3,19,11,0,3,3,7,,,,,,,,,1,0.7839200879989221,,,002,001,2019_May_07_1008,MusicAffectPsychophysiology2019,3.0.5,59.93444035298291,
To what extent did the music make you feel ,ANXIOUS ,30MonoWAV/30MonoS4.wav,1,1,3,12,,,,,1,3,19,11,0,4,4,1,,,,,,,,,2,1.4679904719996557,,,002,001,2019_May_07_1008,MusicAffectPsychophysiology2019,3.0.5,59.93444035298291,
To what extent did the music make you feel ,GUILTY,30MonoWAV/30MonoS4.wav,1,1,3,12,,,,,1,3,19,11,0,5,5,5,,,,,,,,,2,1.168715878000512,,,002,001,2019_May_07_1008,MusicAffectPsychophysiology2019,3.0.5,59.93444035298291,
To what extent did the music make you feel ,ASHAMED,30MonoWAV/30MonoS4.wav,1,1,3,12,,,,,1,3,19,11,0,6,6,4,,,,,,,,,2,0.9351164839990815,,,002,001,2019_May_07_1008,MusicAffectPsychophysiology2019,3.0.5,59.93444035298291,
To what extent did the music make you feel ,ANGRY,30MonoWAV/30MonoS4.wav,1,1,3,12,,,,,1,3,19,11,0,7,7,2,,,,,,,,,1,1.0850743589999183,,,002,001,2019_May_07_1008,MusicAffectPsychophysiology2019,3.0.5,59.93444035298291,
To what extent did the music make you feel ,FRUSTRATED,30MonoWAV/30MonoS4.wav,1,1,3,12,,,,,1,3,19,11,0,8,8,3,,,,,,,,,1,0.618198800000755,,,002,001,2019_May_07_1008,MusicAffectPsychophysiology2019,3.0.5,59.93444035298291,
To what extent did the music make you feel ,ACTIVE,30MonoWAV/30MonoS4.wav,1,1,3,12,,,,,1,3,19,11,0,9,9,9,,,,,,,,,1,1.0177361860005476,,,002,001,2019_May_07_1008,MusicAffectPsychophysiology2019,3.0.5,59.93444035298291,
To what extent did the music make you feel ,HAPPY,30MonoWAV/30MonoS4.wav,1,1,3,12,,,,,1,3,19,11,0,10,10,6,,,,,,,,,1,0.618935333999616,,,002,001,2019_May_07_1008,MusicAffectPsychophysiology2019,3.0.5,59.93444035298291,
To what extent did the music make you feel ,SCARED,30MonoWAV/30MonoS4.wav,1,1,3,12,,,,,1,3,19,11,0,11,11,11,,,,,,,,,2,1.085806158998821,,,002,001,2019_May_07_1008,MusicAffectPsychophysiology2019,3.0.5,59.93444035298291,
,,30MonoWAV/30MonoS4.wav,1,1,3,12,,,,,1,3,19,11,,,,,,,,,,,,,,,,,002,001,2019_May_07_1008,MusicAffectPsychophysiology2019,3.0.5,59.93444035298291,
To what extent did the music make you feel ,TENDER,30MonoWAV/30MonoH2.wav,2,2,1,6,,,,,1,4,20,5,0,0,0,10,,,4,4.350173475999327,4,0.08475857499979611,,,1,2.1013123390002875,,,002,001,2019_May_07_1008,MusicAffectPsychophysiology2019,3.0.5,59.93444035298291,
To what extent did the music make you feel ,HAPPY,30MonoWAV/30MonoH2.wav,2,2,1,6,,,,,1,4,20,5,0,1,1,6,,,,,,,,,3,1.8352368129999377,,,002,001,2019_May_07_1008,MusicAffectPsychophysiology2019,3.0.5,59.93444035298291,
To what extent did the music make you feel ,ANXIOUS ,30MonoWAV/30MonoH2.wav,2,2,1,6,,,,,1,4,20,5,0,2,2,1,,,,,,,,,2,1.3888224589991296,,,002,001,2019_May_07_1008,MusicAffectPsychophysiology2019,3.0.5,59.93444035298291,
To what extent did the music make you feel ,SAD,30MonoWAV/30MonoH2.wav,2,2,1,6,,,,,1,4,20,5,0,3,3,0,,,,,,,,,1,1.3040397540007689,,,002,001,2019_May_07_1008,MusicAffectPsychophysiology2019,3.0.5,59.93444035298291,
To what extent did the music make you feel ,ALERT,30MonoWAV/30MonoH2.wav,2,2,1,6,,,,,1,4,20,5,0,4,4,8,,,,,,,,,4,1.7215163089986163,,,002,001,2019_May_07_1008,MusicAffectPsychophysiology2019,3.0.5,59.93444035298291,
To what extent did the music make you feel ,ACTIVE,30MonoWAV/30MonoH2.wav,2,2,1,6,,,,,1,4,20,5,0,5,5,9,,,,,,,,,4,0.7197721709999314,,,002,001,2019_May_07_1008,MusicAffectPsychophysiology2019,3.0.5,59.93444035298291,
To what extent did the music make you feel ,EXCITED,30MonoWAV/30MonoH2.wav,2,2,1,6,,,,,1,4,20,5,0,6,6,7,,,,,,,,,3,1.1528799810002965,,,002,001,2019_May_07_1008,MusicAffectPsychophysiology2019,3.0.5,59.93444035298291,
To what extent did the music make you feel ,SCARED,30MonoWAV/30MonoH2.wav,2,2,1,6,,,,,1,4,20,5,0,7,7,11,,,,,,,,,1,1.2861750640004175,,,002,001,2019_May_07_1008,MusicAffectPsychophysiology2019,3.0.5,59.93444035298291,
To what extent did the music make you feel ,FRUSTRATED,30MonoWAV/30MonoH2.wav,2,2,1,6,,,,,1,4,20,5,0,8,8,3,,,,,,,,,1,0.8901294009992853,,,002,001,2019_May_07_1008,MusicAffectPsychophysiology2019,3.0.5,59.93444035298291,
To what extent did the music make you feel ,ASHAMED,30MonoWAV/30MonoH2.wav,2,2,1,6,,,,,1,4,20,5,0,9,9,4,,,,,,,,,1,1.402607641000941,,,002,001,2019_May_07_1008,MusicAffectPsychophysiology2019,3.0.5,59.93444035298291,
To what extent did the music make you feel ,ANGRY,30MonoWAV/30MonoH2.wav,2,2,1,6,,,,,1,4,20,5,0,10,10,2,,,,,,,,,1,0.8683303690013418,,,002,001,2019_May_07_1008,MusicAffectPsychophysiology2019,3.0.5,59.93444035298291,
To what extent did the music make you feel ,GUILTY,30MonoWAV/30MonoH2.wav,2,2,1,6,,,,,1,4,20,5,0,11,11,5,,,,,,,,,1,0.5191706219993648,,,002,001,2019_May_07_1008,MusicAffectPsychophysiology2019,3.0.5,59.93444035298291,
,,30MonoWAV/30MonoH2.wav,2,2,1,6,,,,,1,4,20,5,,,,,,,,,,,,,,,,,002,001,2019_May_07_1008,MusicAffectPsychophysiology2019,3.0.5,59.93444035298291,
To what extent did the music make you feel ,ANGRY,30MonoWAV/30MonoS2.wav,1,1,3,10,,,,,1,5,21,9,0,0,0,2,,,1,2.5551005079996685,1,2.2374770780006656,,,1,0.9027218209994317,,,002,001,2019_May_07_1008,MusicAffectPsychophysiology2019,3.0.5,59.93444035298291,
To what extent did the music make you feel ,ALERT,30MonoWAV/30MonoS2.wav,1,1,3,10,,,,,1,5,21,9,0,1,1,8,,,,,,,,,1,0.9401142709994019,,,002,001,2019_May_07_1008,MusicAffectPsychophysiology2019,3.0.5,59.93444035298291,
To what extent did the music make you feel ,SAD,30MonoWAV/30MonoS2.wav,1,1,3,10,,,,,1,5,21,9,0,2,2,0,,,,,,,,,4,1.9506055299989384,,,002,001,2019_May_07_1008,MusicAffectPsychophysiology2019,3.0.5,59.93444035298291,
To what extent did the music make you feel ,GUILTY,30MonoWAV/30MonoS2.wav,1,1,3,10,,,,,1,5,21,9,0,3,3,5,,,,,,,,,4,1.450738456000181,,,002,001,2019_May_07_1008,MusicAffectPsychophysiology2019,3.0.5,59.93444035298291,
To what extent did the music make you feel ,HAPPY,30MonoWAV/30MonoS2.wav,1,1,3,10,,,,,1,5,21,9,0,4,4,6,,,,,,,,,1,1.1015572209998936,,,002,001,2019_May_07_1008,MusicAffectPsychophysiology2019,3.0.5,59.93444035298291,
To what extent did the music make you feel ,EXCITED,30MonoWAV/30MonoS2.wav,1,1,3,10,,,,,1,5,21,9,0,5,5,7,,,,,,,,,1,0.6680928180012415,,,002,001,2019_May_07_1008,MusicAffectPsychophysiology2019,3.0.5,59.93444035298291,
To what extent did the music make you feel ,TENDER,30MonoWAV/30MonoS2.wav,1,1,3,10,,,,,1,5,21,9,0,6,6,10,,,,,,,,,1,2.218159822999951,,,002,001,2019_May_07_1008,MusicAffectPsychophysiology2019,3.0.5,59.93444035298291,
To what extent did the music make you feel ,ASHAMED,30MonoWAV/30MonoS2.wav,1,1,3,10,,,,,1,5,21,9,0,7,7,4,,,,,,,,,1,1.5682287549989269,,,002,001,2019_May_07_1008,MusicAffectPsychophysiology2019,3.0.5,59.93444035298291,
To what extent did the music make you feel ,FRUSTRATED,30MonoWAV/30MonoS2.wav,1,1,3,10,,,,,1,5,21,9,0,8,8,3,,,,,,,,,1,0.6170833320011297,,,002,001,2019_May_07_1008,MusicAffectPsychophysiology2019,3.0.5,59.93444035298291,
To what extent did the music make you feel ,ANXIOUS ,30MonoWAV/30MonoS2.wav,1,1,3,10,,,,,1,5,21,9,0,9,9,1,,,,,,,,,1,1.1349264370001038,,,002,001,2019_May_07_1008,MusicAffectPsychophysiology2019,3.0.5,59.93444035298291,
To what extent did the music make you feel ,ACTIVE,30MonoWAV/30MonoS2.wav,1,1,3,10,,,,,1,5,21,9,0,10,10,9,,,,,,,,,1,0.9186680869988777,,,002,001,2019_May_07_1008,MusicAffectPsychophysiology2019,3.0.5,59.93444035298291,
To what extent did the music make you feel ,SCARED,30MonoWAV/30MonoS2.wav,1,1,3,10,,,,,1,5,21,9,0,11,11,11,,,,,,,,,1,0.7015218609994918,,,002,001,2019_May_07_1008,MusicAffectPsychophysiology2019,3.0.5,59.93444035298291,
,,30MonoWAV/30MonoS2.wav,1,1,3,10,,,,,1,5,21,9,,,,,,,,,,,,,,,,,002,001,2019_May_07_1008,MusicAffectPsychophysiology2019,3.0.5,59.93444035298291,
To what extent did the music make you feel ,SCARED,30MonoWAV/30MonoH4.wav,2,2,1,8,,,,,1,6,22,7,0,0,0,11,,,5,3.018361084999924,5,0.8362697069987917,,,1,1.2686102829993615,,,002,001,2019_May_07_1008,MusicAffectPsychophysiology2019,3.0.5,59.93444035298291,
To what extent did the music make you feel ,HAPPY,30MonoWAV/30MonoH4.wav,2,2,1,8,,,,,1,6,22,7,0,1,1,6,,,,,,,,,5,1.3859141430002637,,,002,001,2019_May_07_1008,MusicAffectPsychophysiology2019,3.0.5,59.93444035298291,
To what extent did the music make you feel ,ALERT,30MonoWAV/30MonoH4.wav,2,2,1,8,,,,,1,6,22,7,0,2,2,8,,,,,,,,,4,1.2681921029998193,,,002,001,2019_May_07_1008,MusicAffectPsychophysiology2019,3.0.5,59.93444035298291,
To what extent did the music make you feel ,TENDER,30MonoWAV/30MonoH4.wav,2,2,1,8,,,,,1,6,22,7,0,3,3,10,,,,,,,,,2,1.5681080790000124,,,002,001,2019_May_07_1008,MusicAffectPsychophysiology2019,3.0.5,59.93444035298291,
To what extent did the music make you feel ,FRUSTRATED,30MonoWAV/30MonoH4.wav,2,2,1,8,,,,,1,6,22,7,0,4,4,3,,,,,,,,,1,0.952114163999795,,,002,001,2019_May_07_1008,MusicAffectPsychophysiology2019,3.0.5,59.93444035298291,
To what extent did the music make you feel ,ASHAMED,30MonoWAV/30MonoH4.wav,2,2,1,8,,,,,1,6,22,7,0,5,5,4,,,,,,,,,1,0.5352719019992946,,,002,001,2019_May_07_1008,MusicAffectPsychophysiology2019,3.0.5,59.93444035298291,
To what extent did the music make you feel ,ANGRY,30MonoWAV/30MonoH4.wav,2,2,1,8,,,,,1,6,22,7,0,6,6,2,,,,,,,,,1,0.5014792549991398,,,002,001,2019_May_07_1008,MusicAffectPsychophysiology2019,3.0.5,59.93444035298291,
To what extent did the music make you feel ,ANXIOUS ,30MonoWAV/30MonoH4.wav,2,2,1,8,,,,,1,6,22,7,0,7,7,1,,,,,,,,,1,0.5194783429997187,,,002,001,2019_May_07_1008,MusicAffectPsychophysiology2019,3.0.5,59.93444035298291,
To what extent did the music make you feel ,EXCITED,30MonoWAV/30MonoH4.wav,2,2,1,8,,,,,1,6,22,7,0,8,8,7,,,,,,,,,5,1.2342048150003393,,,002,001,2019_May_07_1008,MusicAffectPsychophysiology2019,3.0.5,59.93444035298291,
To what extent did the music make you feel ,GUILTY,30MonoWAV/30MonoH4.wav,2,2,1,8,,,,,1,6,22,7,0,9,9,5,,,,,,,,,1,0.9527427579996584,,,002,001,2019_May_07_1008,MusicAffectPsychophysiology2019,3.0.5,59.93444035298291,
To what extent did the music make you feel ,ACTIVE,30MonoWAV/30MonoH4.wav,2,2,1,8,,,,,1,6,22,7,0,10,10,9,,,,,,,,,5,1.2664523160001409,,,002,001,2019_May_07_1008,MusicAffectPsychophysiology2019,3.0.5,59.93444035298291,
To what extent did the music make you feel ,SAD,30MonoWAV/30MonoH4.wav,2,2,1,8,,,,,1,6,22,7,0,11,11,0,,,,,,,,,1,1.0181111029996828,,,002,001,2019_May_07_1008,MusicAffectPsychophysiology2019,3.0.5,59.93444035298291,
,,30MonoWAV/30MonoH4.wav,2,2,1,8,,,,,1,6,22,7,,,,,,,,,,,,,,,,,002,001,2019_May_07_1008,MusicAffectPsychophysiology2019,3.0.5,59.93444035298291,
To what extent did the music make you feel ,ALERT,30MonoWAV/30MonoF2.wav,1,2,2,2,,,,,1,7,23,1,0,0,0,8,,,2,2.9012079879994417,1,0.6846403939998709,,,5,2.2016509419991053,,,002,001,2019_May_07_1008,MusicAffectPsychophysiology2019,3.0.5,59.93444035298291,
To what extent did the music make you feel ,HAPPY,30MonoWAV/30MonoF2.wav,1,2,2,2,,,,,1,7,23,1,0,1,1,6,,,,,,,,,1,1.3191590459991858,,,002,001,2019_May_07_1008,MusicAffectPsychophysiology2019,3.0.5,59.93444035298291,
To what extent did the music make you feel ,ASHAMED,30MonoWAV/30MonoF2.wav,1,2,2,2,,,,,1,7,23,1,0,2,2,4,,,,,,,,,1,1.1685450429995399,,,002,001,2019_May_07_1008,MusicAffectPsychophysiology2019,3.0.5,59.93444035298291,
To what extent did the music make you feel ,SAD,30MonoWAV/30MonoF2.wav,1,2,2,2,,,,,1,7,23,1,0,3,3,0,,,,,,,,,1,1.2353835949998029,,,002,001,2019_May_07_1008,MusicAffectPsychophysiology2019,3.0.5,59.93444035298291,
To what extent did the music make you feel ,EXCITED,30MonoWAV/30MonoF2.wav,1,2,2,2,,,,,1,7,23,1,0,4,4,7,,,,,,,,,1,0.81848299900048,,,002,001,2019_May_07_1008,MusicAffectPsychophysiology2019,3.0.5,59.93444035298291,
To what extent did the music make you feel ,GUILTY,30MonoWAV/30MonoF2.wav,1,2,2,2,,,,,1,7,23,1,0,5,5,5,,,,,,,,,1,0.7679119849999552,,,002,001,2019_May_07_1008,MusicAffectPsychophysiology2019,3.0.5,59.93444035298291,
To what extent did the music make you feel ,ANXIOUS ,30MonoWAV/30MonoF2.wav,1,2,2,2,,,,,1,7,23,1,0,6,6,1,,,,,,,,,5,1.3513147350004147,,,002,001,2019_May_07_1008,MusicAffectPsychophysiology2019,3.0.5,59.93444035298291,
To what extent did the music make you feel ,ACTIVE,30MonoWAV/30MonoF2.wav,1,2,2,2,,,,,1,7,23,1,0,7,7,9,,,,,,,,,4,1.6681316750000406,,,002,001,2019_May_07_1008,MusicAffectPsychophysiology2019,3.0.5,59.93444035298291,
To what extent did the music make you feel ,TENDER,30MonoWAV/30MonoF2.wav,1,2,2,2,,,,,1,7,23,1,0,8,8,10,,,,,,,,,1,1.2182664810006827,,,002,001,2019_May_07_1008,MusicAffectPsychophysiology2019,3.0.5,59.93444035298291,
To what extent did the music make you feel ,FRUSTRATED,30MonoWAV/30MonoF2.wav,1,2,2,2,,,,,1,7,23,1,0,9,9,3,,,,,,,,,1,1.2182570149998355,,,002,001,2019_May_07_1008,MusicAffectPsychophysiology2019,3.0.5,59.93444035298291,
To what extent did the music make you feel ,SCARED,30MonoWAV/30MonoF2.wav,1,2,2,2,,,,,1,7,23,1,0,10,10,11,,,,,,,,,5,1.7024787869995635,,,002,001,2019_May_07_1008,MusicAffectPsychophysiology2019,3.0.5,59.93444035298291,
To what extent did the music make you feel ,ANGRY,30MonoWAV/30MonoF2.wav,1,2,2,2,,,,,1,7,23,1,0,11,11,2,,,,,,,,,1,2.6853645270002744,,,002,001,2019_May_07_1008,MusicAffectPsychophysiology2019,3.0.5,59.93444035298291,
,,30MonoWAV/30MonoF2.wav,1,2,2,2,,,,,1,7,23,1,,,,,,,,,,,,,,,,,002,001,2019_May_07_1008,MusicAffectPsychophysiology2019,3.0.5,59.93444035298291,
To what extent did the music make you feel ,SAD,30MonoWAV/30MonoS1.wav,1,1,3,9,,,,,1,8,24,8,0,0,0,0,,,3,3.668310619999829,2,1.5170941600008518,,,4,3.0014692340009788,,,002,001,2019_May_07_1008,MusicAffectPsychophysiology2019,3.0.5,59.93444035298291,
To what extent did the music make you feel ,SCARED,30MonoWAV/30MonoS1.wav,1,1,3,9,,,,,1,8,24,8,0,1,1,11,,,,,,,,,3,1.5522222809995583,,,002,001,2019_May_07_1008,MusicAffectPsychophysiology2019,3.0.5,59.93444035298291,
To what extent did the music make you feel ,ASHAMED,30MonoWAV/30MonoS1.wav,1,1,3,9,,,,,1,8,24,8,0,2,2,4,,,,,,,,,3,1.0344982909991813,,,002,001,2019_May_07_1008,MusicAffectPsychophysiology2019,3.0.5,59.93444035298291,
To what extent did the music make you feel ,TENDER,30MonoWAV/30MonoS1.wav,1,1,3,9,,,,,1,8,24,8,0,3,3,10,,,,,,,,,1,1.885266904000673,,,002,001,2019_May_07_1008,MusicAffectPsychophysiology2019,3.0.5,59.93444035298291,
To what extent did the music make you feel ,ACTIVE,30MonoWAV/30MonoS1.wav,1,1,3,9,,,,,1,8,24,8,0,4,4,9,,,,,,,,,1,1.635098224000103,,,002,001,2019_May_07_1008,MusicAffectPsychophysiology2019,3.0.5,59.93444035298291,
To what extent did the music make you feel ,ALERT,30MonoWAV/30MonoS1.wav,1,1,3,9,,,,,1,8,24,8,0,5,5,8,,,,,,,,,1,1.050707059999695,,,002,001,2019_May_07_1008,MusicAffectPsychophysiology2019,3.0.5,59.93444035298291,
To what extent did the music make you feel ,FRUSTRATED,30MonoWAV/30MonoS1.wav,1,1,3,9,,,,,1,8,24,8,0,6,6,3,,,,,,,,,1,1.0335278710008424,,,002,001,2019_May_07_1008,MusicAffectPsychophysiology2019,3.0.5,59.93444035298291,
To what extent did the music make you feel ,ANGRY,30MonoWAV/30MonoS1.wav,1,1,3,9,,,,,1,8,24,8,0,7,7,2,,,,,,,,,1,0.5349339399999735,,,002,001,2019_May_07_1008,MusicAffectPsychophysiology2019,3.0.5,59.93444035298291,
To what extent did the music make you feel ,HAPPY,30MonoWAV/30MonoS1.wav,1,1,3,9,,,,,1,8,24,8,0,8,8,6,,,,,,,,,1,0.7352507329997024,,,002,001,2019_May_07_1008,MusicAffectPsychophysiology2019,3.0.5,59.93444035298291,
To what extent did the music make you feel ,GUILTY,30MonoWAV/30MonoS1.wav,1,1,3,9,,,,,1,8,24,8,0,9,9,5,,,,,,,,,2,1.36881467800049,,,002,001,2019_May_07_1008,MusicAffectPsychophysiology2019,3.0.5,59.93444035298291,
To what extent did the music make you feel ,ANXIOUS ,30MonoWAV/30MonoS1.wav,1,1,3,9,,,,,1,8,24,8,0,10,10,1,,,,,,,,,3,3.3846799090006243,,,002,001,2019_May_07_1008,MusicAffectPsychophysiology2019,3.0.5,59.93444035298291,
To what extent did the music make you feel ,EXCITED,30MonoWAV/30MonoS1.wav,1,1,3,9,,,,,1,8,24,8,0,11,11,7,,,,,,,,,1,1.3692578579994006,,,002,001,2019_May_07_1008,MusicAffectPsychophysiology2019,3.0.5,59.93444035298291,
,,30MonoWAV/30MonoS1.wav,1,1,3,9,,,,,1,8,24,8,,,,,,,,,,,,,,,,,002,001,2019_May_07_1008,MusicAffectPsychophysiology2019,3.0.5,59.93444035298291,
To what extent did the music make you feel ,SAD,30MonoWAV/30MonoH1.wav,2,2,1,5,,,,,1,9,25,4,0,0,0,0,,,4,3.3895327419995738,4,0.7025893520003592,,,1,1.5206910939996305,,,002,001,2019_May_07_1008,MusicAffectPsychophysiology2019,3.0.5,59.93444035298291,
To what extent did the music make you feel ,TENDER,30MonoWAV/30MonoH1.wav,2,2,1,5,,,,,1,9,25,4,0,1,1,10,,,,,,,,,1,1.188653509998403,,,002,001,2019_May_07_1008,MusicAffectPsychophysiology2019,3.0.5,59.93444035298291,
To what extent did the music make you feel ,ASHAMED,30MonoWAV/30MonoH1.wav,2,2,1,5,,,,,1,9,25,4,0,2,2,4,,,,,,,,,1,0.6021901429994614,,,002,001,2019_May_07_1008,MusicAffectPsychophysiology2019,3.0.5,59.93444035298291,
To what extent did the music make you feel ,ANXIOUS ,30MonoWAV/30MonoH1.wav,2,2,1,5,,,,,1,9,25,4,0,3,3,1,,,,,,,,,1,0.6847926899990853,,,002,001,2019_May_07_1008,MusicAffectPsychophysiology2019,3.0.5,59.93444035298291,
To what extent did the music make you feel ,HAPPY,30MonoWAV/30MonoH1.wav,2,2,1,5,,,,,1,9,25,4,0,4,4,6,,,,,,,,,3,1.368317656999352,,,002,001,2019_May_07_1008,MusicAffectPsychophysiology2019,3.0.5,59.93444035298291,
To what extent did the music make you feel ,GUILTY,30MonoWAV/30MonoH1.wav,2,2,1,5,,,,,1,9,25,4,0,5,5,5,,,,,,,,,1,1.0522494239994558,,,002,001,2019_May_07_1008,MusicAffectPsychophysiology2019,3.0.5,59.93444035298291,
To what extent did the music make you feel ,SCARED,30MonoWAV/30MonoH1.wav,2,2,1,5,,,,,1,9,25,4,0,6,6,11,,,,,,,,,1,1.1843301940007223,,,002,001,2019_May_07_1008,MusicAffectPsychophysiology2019,3.0.5,59.93444035298291,
To what extent did the music make you feel ,ANGRY,30MonoWAV/30MonoH1.wav,2,2,1,5,,,,,1,9,25,4,0,7,7,2,,,,,,,,,1,0.7021564720016613,,,002,001,2019_May_07_1008,MusicAffectPsychophysiology2019,3.0.5,59.93444035298291,
To what extent did the music make you feel ,EXCITED,30MonoWAV/30MonoH1.wav,2,2,1,5,,,,,1,9,25,4,0,8,8,7,,,,,,,,,1,1.1849276520006242,,,002,001,2019_May_07_1008,MusicAffectPsychophysiology2019,3.0.5,59.93444035298291,
To what extent did the music make you feel ,ALERT,30MonoWAV/30MonoH1.wav,2,2,1,5,,,,,1,9,25,4,0,9,9,8,,,,,,,,,4,1.9348717069988197,,,002,001,2019_May_07_1008,MusicAffectPsychophysiology2019,3.0.5,59.93444035298291,
To what extent did the music make you feel ,FRUSTRATED,30MonoWAV/30MonoH1.wav,2,2,1,5,,,,,1,9,25,4,0,10,10,3,,,,,,,,,1,1.1682871889988746,,,002,001,2019_May_07_1008,MusicAffectPsychophysiology2019,3.0.5,59.93444035298291,
To what extent did the music make you feel ,ACTIVE,30MonoWAV/30MonoH1.wav,2,2,1,5,,,,,1,9,25,4,0,11,11,9,,,,,,,,,4,1.7020506500011834,,,002,001,2019_May_07_1008,MusicAffectPsychophysiology2019,3.0.5,59.93444035298291,
,,30MonoWAV/30MonoH1.wav,2,2,1,5,,,,,1,9,25,4,,,,,,,,,,,,,,,,,002,001,2019_May_07_1008,MusicAffectPsychophysiology2019,3.0.5,59.93444035298291,
To what extent did the music make you feel ,ACTIVE,30MonoWAV/30MonoT2.wav,2,1,4,14,,,,,1,10,26,13,0,0,0,9,,,2,3.6019771019982727,2,1.634932574001141,,,1,2.4180090990012104,,,002,001,2019_May_07_1008,MusicAffectPsychophysiology2019,3.0.5,59.93444035298291,
To what extent did the music make you feel ,SAD,30MonoWAV/30MonoT2.wav,2,1,4,14,,,,,1,10,26,13,0,1,1,0,,,,,,,,,2,1.5515844669989747,,,002,001,2019_May_07_1008,MusicAffectPsychophysiology2019,3.0.5,59.93444035298291,
To what extent did the music make you feel ,FRUSTRATED,30MonoWAV/30MonoT2.wav,2,1,4,14,,,,,1,10,26,13,0,2,2,3,,,,,,,,,1,1.0187898549993406,,,002,001,2019_May_07_1008,MusicAffectPsychophysiology2019,3.0.5,59.93444035298291,
To what extent did the music make you feel ,SCARED,30MonoWAV/30MonoT2.wav,2,1,4,14,,,,,1,10,26,13,0,3,3,11,,,,,,,,,1,0.7019668119992275,,,002,001,2019_May_07_1008,MusicAffectPsychophysiology2019,3.0.5,59.93444035298291,
To what extent did the music make you feel ,TENDER,30MonoWAV/30MonoT2.wav,2,1,4,14,,,,,1,10,26,13,0,4,4,10,,,,,,,,,1,0.7011639480006124,,,002,001,2019_May_07_1008,MusicAffectPsychophysiology2019,3.0.5,59.93444035298291,
To what extent did the music make you feel ,ANXIOUS ,30MonoWAV/30MonoT2.wav,2,1,4,14,,,,,1,10,26,13,0,5,5,1,,,,,,,,,1,0.5857628569992812,,,002,001,2019_May_07_1008,MusicAffectPsychophysiology2019,3.0.5,59.93444035298291,
To what extent did the music make you feel ,HAPPY,30MonoWAV/30MonoT2.wav,2,1,4,14,,,,,1,10,26,13,0,6,6,6,,,,,,,,,1,0.7179038880003645,,,002,001,2019_May_07_1008,MusicAffectPsychophysiology2019,3.0.5,59.93444035298291,
To what extent did the music make you feel ,GUILTY,30MonoWAV/30MonoT2.wav,2,1,4,14,,,,,1,10,26,13,0,7,7,5,,,,,,,,,1,0.7027284830001008,,,002,001,2019_May_07_1008,MusicAffectPsychophysiology2019,3.0.5,59.93444035298291,
To what extent did the music make you feel ,ANGRY,30MonoWAV/30MonoT2.wav,2,1,4,14,,,,,1,10,26,13,0,8,8,2,,,,,,,,,1,0.7005508709989954,,,002,001,2019_May_07_1008,MusicAffectPsychophysiology2019,3.0.5,59.93444035298291,
To what extent did the music make you feel ,ALERT,30MonoWAV/30MonoT2.wav,2,1,4,14,,,,,1,10,26,13,0,9,9,8,,,,,,,,,1,0.868583015000695,,,002,001,2019_May_07_1008,MusicAffectPsychophysiology2019,3.0.5,59.93444035298291,
To what extent did the music make you feel ,ASHAMED,30MonoWAV/30MonoT2.wav,2,1,4,14,,,,,1,10,26,13,0,10,10,4,,,,,,,,,1,0.8518557050010713,,,002,001,2019_May_07_1008,MusicAffectPsychophysiology2019,3.0.5,59.93444035298291,
To what extent did the music make you feel ,EXCITED,30MonoWAV/30MonoT2.wav,2,1,4,14,,,,,1,10,26,13,0,11,11,7,,,,,,,,,1,0.6556363799991232,,,002,001,2019_May_07_1008,MusicAffectPsychophysiology2019,3.0.5,59.93444035298291,
,,30MonoWAV/30MonoT2.wav,2,1,4,14,,,,,1,10,26,13,,,,,,,,,,,,,,,,,002,001,2019_May_07_1008,MusicAffectPsychophysiology2019,3.0.5,59.93444035298291,
To what extent did the music make you feel ,EXCITED,30MonoWAV/30MonoH3.wav,2,2,1,7,,,,,1,11,27,6,0,0,0,7,,,5,3.743088610999621,5,0.7014031119997526,,,5,1.2176000660001591,,,002,001,2019_May_07_1008,MusicAffectPsychophysiology2019,3.0.5,59.93444035298291,
To what extent did the music make you feel ,HAPPY,30MonoWAV/30MonoH3.wav,2,2,1,7,,,,,1,11,27,6,0,1,1,6,,,,,,,,,5,0.7189413649994094,,,002,001,2019_May_07_1008,MusicAffectPsychophysiology2019,3.0.5,59.93444035298291,
To what extent did the music make you feel ,FRUSTRATED,30MonoWAV/30MonoH3.wav,2,2,1,7,,,,,1,11,27,6,0,2,2,3,,,,,,,,,1,1.2851694760011014,,,002,001,2019_May_07_1008,MusicAffectPsychophysiology2019,3.0.5,59.93444035298291,
To what extent did the music make you feel ,SCARED,30MonoWAV/30MonoH3.wav,2,2,1,7,,,,,1,11,27,6,0,3,3,11,,,,,,,,,1,0.669351901000482,,,002,001,2019_May_07_1008,MusicAffectPsychophysiology2019,3.0.5,59.93444035298291,
To what extent did the music make you feel ,ANGRY,30MonoWAV/30MonoH3.wav,2,2,1,7,,,,,1,11,27,6,0,4,4,2,,,,,,,,,1,0.7683114589999605,,,002,001,2019_May_07_1008,MusicAffectPsychophysiology2019,3.0.5,59.93444035298291,
To what extent did the music make you feel ,ACTIVE,30MonoWAV/30MonoH3.wav,2,2,1,7,,,,,1,11,27,6,0,5,5,9,,,,,,,,,5,1.1179968540000118,,,002,001,2019_May_07_1008,MusicAffectPsychophysiology2019,3.0.5,59.93444035298291,
To what extent did the music make you feel ,GUILTY,30MonoWAV/30MonoH3.wav,2,2,1,7,,,,,1,11,27,6,0,6,6,5,,,,,,,,,1,1.2991251879993797,,,002,001,2019_May_07_1008,MusicAffectPsychophysiology2019,3.0.5,59.93444035298291,
To what extent did the music make you feel ,TENDER,30MonoWAV/30MonoH3.wav,2,2,1,7,,,,,1,11,27,6,0,7,7,10,,,,,,,,,1,0.8350245950005046,,,002,001,2019_May_07_1008,MusicAffectPsychophysiology2019,3.0.5,59.93444035298291,
To what extent did the music make you feel ,ANXIOUS ,30MonoWAV/30MonoH3.wav,2,2,1,7,,,,,1,11,27,6,0,8,8,1,,,,,,,,,1,0.8510098379992996,,,002,001,2019_May_07_1008,MusicAffectPsychophysiology2019,3.0.5,59.93444035298291,
To what extent did the music make you feel ,ASHAMED,30MonoWAV/30MonoH3.wav,2,2,1,7,,,,,1,11,27,6,0,9,9,4,,,,,,,,,1,0.683606182999938,,,002,001,2019_May_07_1008,MusicAffectPsychophysiology2019,3.0.5,59.93444035298291,
To what extent did the music make you feel ,SAD,30MonoWAV/30MonoH3.wav,2,2,1,7,,,,,1,11,27,6,0,10,10,0,,,,,,,,,1,0.7015554690005956,,,002,001,2019_May_07_1008,MusicAffectPsychophysiology2019,3.0.5,59.93444035298291,
To what extent did the music make you feel ,ALERT,30MonoWAV/30MonoH3.wav,2,2,1,7,,,,,1,11,27,6,0,11,11,8,,,,,,,,,4,1.367908565000107,,,002,001,2019_May_07_1008,MusicAffectPsychophysiology2019,3.0.5,59.93444035298291,
,,30MonoWAV/30MonoH3.wav,2,2,1,7,,,,,1,11,27,6,,,,,,,,,,,,,,,,,002,001,2019_May_07_1008,MusicAffectPsychophysiology2019,3.0.5,59.93444035298291,
To what extent did the music make you feel ,ANGRY,30MonoWAV/30MonoF3.wav,1,2,2,3,,,,,1,12,28,2,0,0,0,2,,,4,3.1511167340013344,1,2.7009689859987702,,,1,4.2349136659995565,,,002,001,2019_May_07_1008,MusicAffectPsychophysiology2019,3.0.5,59.93444035298291,
To what extent did the music make you feel ,ANXIOUS ,30MonoWAV/30MonoF3.wav,1,2,2,3,,,,,1,12,28,2,0,1,1,1,,,,,,,,,4,2.01859277100084,,,002,001,2019_May_07_1008,MusicAffectPsychophysiology2019,3.0.5,59.93444035298291,
To what extent did the music make you feel ,HAPPY,30MonoWAV/30MonoF3.wav,1,2,2,3,,,,,1,12,28,2,0,2,2,6,,,,,,,,,1,1.2188248120000935,,,002,001,2019_May_07_1008,MusicAffectPsychophysiology2019,3.0.5,59.93444035298291,
To what extent did the music make you feel ,ASHAMED,30MonoWAV/30MonoF3.wav,1,2,2,3,,,,,1,12,28,2,0,3,3,4,,,,,,,,,1,0.8863577939991956,,,002,001,2019_May_07_1008,MusicAffectPsychophysiology2019,3.0.5,59.93444035298291,
To what extent did the music make you feel ,GUILTY,30MonoWAV/30MonoF3.wav,1,2,2,3,,,,,1,12,28,2,0,4,4,5,,,,,,,,,3,2.53251655099848,,,002,001,2019_May_07_1008,MusicAffectPsychophysiology2019,3.0.5,59.93444035298291,
To what extent did the music make you feel ,SAD,30MonoWAV/30MonoF3.wav,1,2,2,3,,,,,1,12,28,2,0,5,5,0,,,,,,,,,1,1.2678470730006666,,,002,001,2019_May_07_1008,MusicAffectPsychophysiology2019,3.0.5,59.93444035298291,
To what extent did the music make you feel ,FRUSTRATED,30MonoWAV/30MonoF3.wav,1,2,2,3,,,,,1,12,28,2,0,6,6,3,,,,,,,,,1,1.3016691759985406,,,002,001,2019_May_07_1008,MusicAffectPsychophysiology2019,3.0.5,59.93444035298291,
To what extent did the music make you feel ,TENDER,30MonoWAV/30MonoF3.wav,1,2,2,3,,,,,1,12,28,2,0,7,7,10,,,,,,,,,1,0.7186470929991629,,,002,001,2019_May_07_1008,MusicAffectPsychophysiology2019,3.0.5,59.93444035298291,
To what extent did the music make you feel ,ALERT,30MonoWAV/30MonoF3.wav,1,2,2,3,,,,,1,12,28,2,0,8,8,8,,,,,,,,,4,1.4015273960012564,,,002,001,2019_May_07_1008,MusicAffectPsychophysiology2019,3.0.5,59.93444035298291,
To what extent did the music make you feel ,SCARED,30MonoWAV/30MonoF3.wav,1,2,2,3,,,,,1,12,28,2,0,9,9,11,,,,,,,,,4,1.2844167229995946,,,002,001,2019_May_07_1008,MusicAffectPsychophysiology2019,3.0.5,59.93444035298291,
To what extent did the music make you feel ,ACTIVE,30MonoWAV/30MonoF3.wav,1,2,2,3,,,,,1,12,28,2,0,10,10,9,,,,,,,,,4,1.4852443330000824,,,002,001,2019_May_07_1008,MusicAffectPsychophysiology2019,3.0.5,59.93444035298291,
To what extent did the music make you feel ,EXCITED,30MonoWAV/30MonoF3.wav,1,2,2,3,,,,,1,12,28,2,0,11,11,7,,,,,,,,,1,1.150814585000262,,,002,001,2019_May_07_1008,MusicAffectPsychophysiology2019,3.0.5,59.93444035298291,
,,30MonoWAV/30MonoF3.wav,1,2,2,3,,,,,1,12,28,2,,,,,,,,,,,,,,,,,002,001,2019_May_07_1008,MusicAffectPsychophysiology2019,3.0.5,59.93444035298291,
To what extent did the music make you feel ,ANXIOUS ,30MonoWAV/30MonoF1.wav,1,2,2,1,,,,,1,13,29,0,0,0,0,1,,,5,3.9020572820008965,2,3.450904908000666,,,4,1.9829608399995777,,,002,001,2019_May_07_1008,MusicAffectPsychophysiology2019,3.0.5,59.93444035298291,
To what extent did the music make you feel ,ALERT,30MonoWAV/30MonoF1.wav,1,2,2,1,,,,,1,13,29,0,0,1,1,8,,,,,,,,,4,0.8334081210014119,,,002,001,2019_May_07_1008,MusicAffectPsychophysiology2019,3.0.5,59.93444035298291,
To what extent did the music make you feel ,ANGRY,30MonoWAV/30MonoF1.wav,1,2,2,1,,,,,1,13,29,0,0,2,2,2,,,,,,,,,1,3.1694011820000014,,,002,001,2019_May_07_1008,MusicAffectPsychophysiology2019,3.0.5,59.93444035298291,
To what extent did the music make you feel ,GUILTY,30MonoWAV/30MonoF1.wav,1,2,2,1,,,,,1,13,29,0,0,3,3,5,,,,,,,,,1,0.7185493119995954,,,002,001,2019_May_07_1008,MusicAffectPsychophysiology2019,3.0.5,59.93444035298291,
To what extent did the music make you feel ,SAD,30MonoWAV/30MonoF1.wav,1,2,2,1,,,,,1,13,29,0,0,4,4,0,,,,,,,,,1,0.9173720549988502,,,002,001,2019_May_07_1008,MusicAffectPsychophysiology2019,3.0.5,59.93444035298291,
To what extent did the music make you feel ,ACTIVE,30MonoWAV/30MonoF1.wav,1,2,2,1,,,,,1,13,29,0,0,5,5,9,,,,,,,,,4,1.3163895189991308,,,002,001,2019_May_07_1008,MusicAffectPsychophysiology2019,3.0.5,59.93444035298291,
To what extent did the music make you feel ,HAPPY,30MonoWAV/30MonoF1.wav,1,2,2,1,,,,,1,13,29,0,0,6,6,6,,,,,,,,,1,1.0017536420000397,,,002,001,2019_May_07_1008,MusicAffectPsychophysiology2019,3.0.5,59.93444035298291,
To what extent did the music make you feel ,SCARED,30MonoWAV/30MonoF1.wav,1,2,2,1,,,,,1,13,29,0,0,7,7,11,,,,,,,,,4,1.151717885000835,,,002,001,2019_May_07_1008,MusicAffectPsychophysiology2019,3.0.5,59.93444035298291,
To what extent did the music make you feel ,ASHAMED,30MonoWAV/30MonoF1.wav,1,2,2,1,,,,,1,13,29,0,0,8,8,4,,,,,,,,,1,1.1510624999991705,,,002,001,2019_May_07_1008,MusicAffectPsychophysiology2019,3.0.5,59.93444035298291,
To what extent did the music make you feel ,TENDER,30MonoWAV/30MonoF1.wav,1,2,2,1,,,,,1,13,29,0,0,9,9,10,,,,,,,,,1,0.7345792029991571,,,002,001,2019_May_07_1008,MusicAffectPsychophysiology2019,3.0.5,59.93444035298291,
To what extent did the music make you feel ,FRUSTRATED,30MonoWAV/30MonoF1.wav,1,2,2,1,,,,,1,13,29,0,0,10,10,3,,,,,,,,,1,0.9360689049990469,,,002,001,2019_May_07_1008,MusicAffectPsychophysiology2019,3.0.5,59.93444035298291,
To what extent did the music make you feel ,EXCITED,30MonoWAV/30MonoF1.wav,1,2,2,1,,,,,1,13,29,0,0,11,11,7,,,,,,,,,1,0.9338435369991203,,,002,001,2019_May_07_1008,MusicAffectPsychophysiology2019,3.0.5,59.93444035298291,
,,30MonoWAV/30MonoF1.wav,1,2,2,1,,,,,1,13,29,0,,,,,,,,,,,,,,,,,002,001,2019_May_07_1008,MusicAffectPsychophysiology2019,3.0.5,59.93444035298291,
To what extent did the music make you feel ,HAPPY,30MonoWAV/30MonoS3.wav,1,1,3,11,,,,,1,14,30,10,0,0,0,6,,,2,5.6188101259995165,1,1.93346203100009,,,1,1.035603787000582,,,002,001,2019_May_07_1008,MusicAffectPsychophysiology2019,3.0.5,59.93444035298291,
To what extent did the music make you feel ,EXCITED,30MonoWAV/30MonoS3.wav,1,1,3,11,,,,,1,14,30,10,0,1,1,7,,,,,,,,,1,0.7348867350010551,,,002,001,2019_May_07_1008,MusicAffectPsychophysiology2019,3.0.5,59.93444035298291,
To what extent did the music make you feel ,ANXIOUS ,30MonoWAV/30MonoS3.wav,1,1,3,11,,,,,1,14,30,10,0,2,2,1,,,,,,,,,3,1.385164490000534,,,002,001,2019_May_07_1008,MusicAffectPsychophysiology2019,3.0.5,59.93444035298291,
To what extent did the music make you feel ,ANGRY,30MonoWAV/30MonoS3.wav,1,1,3,11,,,,,1,14,30,10,0,3,3,2,,,,,,,,,1,1.4995792800000345,,,002,001,2019_May_07_1008,MusicAffectPsychophysiology2019,3.0.5,59.93444035298291,
To what extent did the music make you feel ,FRUSTRATED,30MonoWAV/30MonoS3.wav,1,1,3,11,,,,,1,14,30,10,0,4,4,3,,,,,,,,,1,0.6178899530004855,,,002,001,2019_May_07_1008,MusicAffectPsychophysiology2019,3.0.5,59.93444035298291,
To what extent did the music make you feel ,ACTIVE,30MonoWAV/30MonoS3.wav,1,1,3,11,,,,,1,14,30,10,0,5,5,9,,,,,,,,,3,2.718282784000621,,,002,001,2019_May_07_1008,MusicAffectPsychophysiology2019,3.0.5,59.93444035298291,
To what extent did the music make you feel ,ALERT,30MonoWAV/30MonoS3.wav,1,1,3,11,,,,,1,14,30,10,0,6,6,8,,,,,,,,,4,1.2355325699991226,,,002,001,2019_May_07_1008,MusicAffectPsychophysiology2019,3.0.5,59.93444035298291,
To what extent did the music make you feel ,ASHAMED,30MonoWAV/30MonoS3.wav,1,1,3,11,,,,,1,14,30,10,0,7,7,4,,,,,,,,,2,1.4511429169997427,,,002,001,2019_May_07_1008,MusicAffectPsychophysiology2019,3.0.5,59.93444035298291,
To what extent did the music make you feel ,TENDER,30MonoWAV/30MonoS3.wav,1,1,3,11,,,,,1,14,30,10,0,8,8,10,,,,,,,,,1,1.2185147239997605,,,002,001,2019_May_07_1008,MusicAffectPsychophysiology2019,3.0.5,59.93444035298291,
To what extent did the music make you feel ,SAD,30MonoWAV/30MonoS3.wav,1,1,3,11,,,,,1,14,30,10,0,9,9,0,,,,,,,,,1,1.5850181679998059,,,002,001,2019_May_07_1008,MusicAffectPsychophysiology2019,3.0.5,59.93444035298291,
To what extent did the music make you feel ,SCARED,30MonoWAV/30MonoS3.wav,1,1,3,11,,,,,1,14,30,10,0,10,10,11,,,,,,,,,4,1.4180206159999216,,,002,001,2019_May_07_1008,MusicAffectPsychophysiology2019,3.0.5,59.93444035298291,
To what extent did the music make you feel ,GUILTY,30MonoWAV/30MonoS3.wav,1,1,3,11,,,,,1,14,30,10,0,11,11,5,,,,,,,,,4,1.167807582000023,,,002,001,2019_May_07_1008,MusicAffectPsychophysiology2019,3.0.5,59.93444035298291,
,,30MonoWAV/30MonoS3.wav,1,1,3,11,,,,,1,14,30,10,,,,,,,,,,,,,,,,,002,001,2019_May_07_1008,MusicAffectPsychophysiology2019,3.0.5,59.93444035298291,
To what extent did the music make you feel ,ASHAMED,30MonoWAV/30MonoF4.wav,1,2,2,4,,,,,1,15,31,3,0,0,0,4,,,5,3.602201800998955,1,0.8356189339992852,,,2,2.5009362990003865,,,002,001,2019_May_07_1008,MusicAffectPsychophysiology2019,3.0.5,59.93444035298291,
To what extent did the music make you feel ,GUILTY,30MonoWAV/30MonoF4.wav,1,2,2,4,,,,,1,15,31,3,0,1,1,5,,,,,,,,,2,0.9362632060001488,,,002,001,2019_May_07_1008,MusicAffectPsychophysiology2019,3.0.5,59.93444035298291,
To what extent did the music make you feel ,TENDER,30MonoWAV/30MonoF4.wav,1,2,2,4,,,,,1,15,31,3,0,2,2,10,,,,,,,,,1,1.184225504001006,,,002,001,2019_May_07_1008,MusicAffectPsychophysiology2019,3.0.5,59.93444035298291,
To what extent did the music make you feel ,EXCITED,30MonoWAV/30MonoF4.wav,1,2,2,4,,,,,1,15,31,3,0,3,3,7,,,,,,,,,1,2.151052395000079,,,002,001,2019_May_07_1008,MusicAffectPsychophysiology2019,3.0.5,59.93444035298291,
To what extent did the music make you feel ,SAD,30MonoWAV/30MonoF4.wav,1,2,2,4,,,,,1,15,31,3,0,4,4,0,,,,,,,,,1,1.2185132869999507,,,002,001,2019_May_07_1008,MusicAffectPsychophysiology2019,3.0.5,59.93444035298291,
To what extent did the music make you feel ,SCARED,30MonoWAV/30MonoF4.wav,1,2,2,4,,,,,1,15,31,3,0,5,5,11,,,,,,,,,4,1.6336648190008418,,,002,001,2019_May_07_1008,MusicAffectPsychophysiology2019,3.0.5,59.93444035298291,
To what extent did the music make you feel ,ALERT,30MonoWAV/30MonoF4.wav,1,2,2,4,,,,,1,15,31,3,0,6,6,8,,,,,,,,,4,0.9683572459998686,,,002,001,2019_May_07_1008,MusicAffectPsychophysiology2019,3.0.5,59.93444035298291,
To what extent did the music make you feel ,ANXIOUS ,30MonoWAV/30MonoF4.wav,1,2,2,4,,,,,1,15,31,3,0,7,7,1,,,,,,,,,4,1.0674450589995104,,,002,001,2019_May_07_1008,MusicAffectPsychophysiology2019,3.0.5,59.93444035298291,
To what extent did the music make you feel ,ANGRY,30MonoWAV/30MonoF4.wav,1,2,2,4,,,,,1,15,31,3,0,8,8,2,,,,,,,,,2,1.6522860069999297,,,002,001,2019_May_07_1008,MusicAffectPsychophysiology2019,3.0.5,59.93444035298291,
To what extent did the music make you feel ,ACTIVE,30MonoWAV/30MonoF4.wav,1,2,2,4,,,,,1,15,31,3,0,9,9,9,,,,,,,,,4,1.6844549009983893,,,002,001,2019_May_07_1008,MusicAffectPsychophysiology2019,3.0.5,59.93444035298291,
To what extent did the music make you feel ,HAPPY,30MonoWAV/30MonoF4.wav,1,2,2,4,,,,,1,15,31,3,0,10,10,6,,,,,,,,,1,1.1346124019983108,,,002,001,2019_May_07_1008,MusicAffectPsychophysiology2019,3.0.5,59.93444035298291,
To what extent did the music make you feel ,FRUSTRATED,30MonoWAV/30MonoF4.wav,1,2,2,4,,,,,1,15,31,3,0,11,11,3,,,,,,,,,2,1.4837138639995828,,,002,001,2019_May_07_1008,MusicAffectPsychophysiology2019,3.0.5,59.93444035298291,
,,30MonoWAV/30MonoF4.wav,1,2,2,4,,,,,1,15,31,3,,,,,,,,,,,,,,,,,002,001,2019_May_07_1008,MusicAffectPsychophysiology2019,3.0.5,59.93444035298291,
,,,,,,,,,,,,,,,,,,,,,,,,,,,,,space,7.350569320000432,002,001,2019_May_07_1008,MusicAffectPsychophysiology2019,3.0.5,59.93444035298291,
