Instruction,Word,song,valence,arousal,affectcat,songmark,pracwords.thisRepN,pracwords.thisTrialN,pracwords.thisN,pracwords.thisIndex,songtrials.thisRepN,songtrials.thisTrialN,songtrials.thisN,songtrials.thisIndex,words.thisRepN,words.thisTrialN,words.thisN,words.thisIndex,begin.keys,begin.rt,arousalkey.keys,arousalkey.rt,valencekey.keys,valencekey.rt,likekey.keys,likekey.rt,WordResponse.keys,WordResponse.rt,key_resp_2.keys,key_resp_2.rt,participant,session,date,expName,psychopyVersion,frameRate,
,,,,,,,,,,,,,,,,,,,space,6.804016123998736,,,,,,,,,,,003,001,2019_May_07_1111,MusicAffectPsychophysiology2019,3.0.5,60.02271871961927,
,,,,,,,,,,,,,,,,,,,,,3,8.40126485700057,,,,,,,,,003,001,2019_May_07_1111,MusicAffectPsychophysiology2019,3.0.5,60.02271871961927,
,,,,,,,,,,,,,,,,,,,,,,,4,3.6341978149994247,,,,,,,003,001,2019_May_07_1111,MusicAffectPsychophysiology2019,3.0.5,60.02271871961927,
,,,,,,,,,,,,,,,,,,,,,,,,,3,3.6843050210009096,,,,,003,001,2019_May_07_1111,MusicAffectPsychophysiology2019,3.0.5,60.02271871961927,
To what extent did the music make you feel ,HAPPY,,,,,,0,0,0,6,,,,,,,,,,,,,,,,,4,4.208761603000312,,,003,001,2019_May_07_1111,MusicAffectPsychophysiology2019,3.0.5,60.02271871961927,
To what extent did the music make you feel ,ASHAMED,,,,,,0,1,1,4,,,,,,,,,,,,,,,,,1,2.166976201999205,,,003,001,2019_May_07_1111,MusicAffectPsychophysiology2019,3.0.5,60.02271871961927,
To what extent did the music make you feel ,ANGRY,,,,,,0,2,2,2,,,,,,,,,,,,,,,,,1,1.217721918001189,,,003,001,2019_May_07_1111,MusicAffectPsychophysiology2019,3.0.5,60.02271871961927,
To what extent did the music make you feel ,ANXIOUS ,,,,,,0,3,3,1,,,,,,,,,,,,,,,,,1,1.3224299230005272,,,003,001,2019_May_07_1111,MusicAffectPsychophysiology2019,3.0.5,60.02271871961927,
To what extent did the music make you feel ,GUILTY,,,,,,0,4,4,5,,,,,,,,,,,,,,,,,1,1.2869330020002963,,,003,001,2019_May_07_1111,MusicAffectPsychophysiology2019,3.0.5,60.02271871961927,
To what extent did the music make you feel ,SCARED,,,,,,0,5,5,11,,,,,,,,,,,,,,,,,1,1.8365097160003643,,,003,001,2019_May_07_1111,MusicAffectPsychophysiology2019,3.0.5,60.02271871961927,
To what extent did the music make you feel ,SAD,,,,,,0,6,6,0,,,,,,,,,,,,,,,,,2,1.9699571580003976,,,003,001,2019_May_07_1111,MusicAffectPsychophysiology2019,3.0.5,60.02271871961927,
To what extent did the music make you feel ,ACTIVE,,,,,,0,7,7,9,,,,,,,,,,,,,,,,,2,1.703203807999671,,,003,001,2019_May_07_1111,MusicAffectPsychophysiology2019,3.0.5,60.02271871961927,
To what extent did the music make you feel ,ALERT,,,,,,0,8,8,8,,,,,,,,,,,,,,,,,1,2.555669369001407,,,003,001,2019_May_07_1111,MusicAffectPsychophysiology2019,3.0.5,60.02271871961927,
To what extent did the music make you feel ,EXCITED,,,,,,0,9,9,7,,,,,,,,,,,,,,,,,2,1.535793212000499,,,003,001,2019_May_07_1111,MusicAffectPsychophysiology2019,3.0.5,60.02271871961927,
To what extent did the music make you feel ,TENDER,,,,,,0,10,10,10,,,,,,,,,,,,,,,,,1,1.7349929270003486,,,003,001,2019_May_07_1111,MusicAffectPsychophysiology2019,3.0.5,60.02271871961927,
To what extent did the music make you feel ,FRUSTRATED,,,,,,0,11,11,3,,,,,,,,,,,,,,,,,1,1.802232001999073,,,003,001,2019_May_07_1111,MusicAffectPsychophysiology2019,3.0.5,60.02271871961927,
To what extent did the music make you feel ,ANGRY,30MonoWAV/30MonoS4.wav,1,1,3,12,,,,,0,0,0,11,0,0,0,2,,,2,3.8353080520009826,4,3.292849458001001,,,1,2.404885296999055,,,003,001,2019_May_07_1111,MusicAffectPsychophysiology2019,3.0.5,60.02271871961927,
To what extent did the music make you feel ,SCARED,30MonoWAV/30MonoS4.wav,1,1,3,12,,,,,0,0,0,11,0,1,1,11,,,,,,,,,1,1.0365092510000977,,,003,001,2019_May_07_1111,MusicAffectPsychophysiology2019,3.0.5,60.02271871961927,
To what extent did the music make you feel ,ANXIOUS ,30MonoWAV/30MonoS4.wav,1,1,3,12,,,,,0,0,0,11,0,2,2,1,,,,,,,,,1,0.8899298479991558,,,003,001,2019_May_07_1111,MusicAffectPsychophysiology2019,3.0.5,60.02271871961927,
To what extent did the music make you feel ,ACTIVE,30MonoWAV/30MonoS4.wav,1,1,3,12,,,,,0,0,0,11,0,3,3,9,,,,,,,,,2,2.383843767000144,,,003,001,2019_May_07_1111,MusicAffectPsychophysiology2019,3.0.5,60.02271871961927,
To what extent did the music make you feel ,SAD,30MonoWAV/30MonoS4.wav,1,1,3,12,,,,,0,0,0,11,0,4,4,0,,,,,,,,,2,2.784568630000649,,,003,001,2019_May_07_1111,MusicAffectPsychophysiology2019,3.0.5,60.02271871961927,
To what extent did the music make you feel ,FRUSTRATED,30MonoWAV/30MonoS4.wav,1,1,3,12,,,,,0,0,0,11,0,5,5,3,,,,,,,,,1,1.8177254000001994,,,003,001,2019_May_07_1111,MusicAffectPsychophysiology2019,3.0.5,60.02271871961927,
To what extent did the music make you feel ,EXCITED,30MonoWAV/30MonoS4.wav,1,1,3,12,,,,,0,0,0,11,0,6,6,7,,,,,,,,,1,1.7021343169999454,,,003,001,2019_May_07_1111,MusicAffectPsychophysiology2019,3.0.5,60.02271871961927,
To what extent did the music make you feel ,ALERT,30MonoWAV/30MonoS4.wav,1,1,3,12,,,,,0,0,0,11,0,7,7,8,,,,,,,,,2,4.667715946001408,,,003,001,2019_May_07_1111,MusicAffectPsychophysiology2019,3.0.5,60.02271871961927,
To what extent did the music make you feel ,TENDER,30MonoWAV/30MonoS4.wav,1,1,3,12,,,,,0,0,0,11,0,8,8,10,,,,,,,,,1,2.7505989460005367,,,003,001,2019_May_07_1111,MusicAffectPsychophysiology2019,3.0.5,60.02271871961927,
To what extent did the music make you feel ,ASHAMED,30MonoWAV/30MonoS4.wav,1,1,3,12,,,,,0,0,0,11,0,9,9,4,,,,,,,,,1,1.4177957339998102,,,003,001,2019_May_07_1111,MusicAffectPsychophysiology2019,3.0.5,60.02271871961927,
To what extent did the music make you feel ,HAPPY,30MonoWAV/30MonoS4.wav,1,1,3,12,,,,,0,0,0,11,0,10,10,6,,,,,,,,,3,2.1017011140011164,,,003,001,2019_May_07_1111,MusicAffectPsychophysiology2019,3.0.5,60.02271871961927,
To what extent did the music make you feel ,GUILTY,30MonoWAV/30MonoS4.wav,1,1,3,12,,,,,0,0,0,11,0,11,11,5,,,,,,,,,1,1.7009181369994621,,,003,001,2019_May_07_1111,MusicAffectPsychophysiology2019,3.0.5,60.02271871961927,
,,30MonoWAV/30MonoS4.wav,1,1,3,12,,,,,0,0,0,11,,,,,,,,,,,,,,,,,003,001,2019_May_07_1111,MusicAffectPsychophysiology2019,3.0.5,60.02271871961927,
To what extent did the music make you feel ,HAPPY,30MonoWAV/30MonoH1.wav,2,2,1,5,,,,,0,1,1,4,0,0,0,6,,,4,3.0524346540005354,4,1.382025048998912,,,4,1.3354303470005107,,,003,001,2019_May_07_1111,MusicAffectPsychophysiology2019,3.0.5,60.02271871961927,
To what extent did the music make you feel ,GUILTY,30MonoWAV/30MonoH1.wav,2,2,1,5,,,,,0,1,1,4,0,1,1,5,,,,,,,,,1,1.9018770040001982,,,003,001,2019_May_07_1111,MusicAffectPsychophysiology2019,3.0.5,60.02271871961927,
To what extent did the music make you feel ,ANXIOUS ,30MonoWAV/30MonoH1.wav,2,2,1,5,,,,,0,1,1,4,0,2,2,1,,,,,,,,,1,0.9850991029998113,,,003,001,2019_May_07_1111,MusicAffectPsychophysiology2019,3.0.5,60.02271871961927,
To what extent did the music make you feel ,ANGRY,30MonoWAV/30MonoH1.wav,2,2,1,5,,,,,0,1,1,4,0,3,3,2,,,,,,,,,1,0.651711835000242,,,003,001,2019_May_07_1111,MusicAffectPsychophysiology2019,3.0.5,60.02271871961927,
To what extent did the music make you feel ,SAD,30MonoWAV/30MonoH1.wav,2,2,1,5,,,,,0,1,1,4,0,4,4,0,,,,,,,,,1,1.2853551899988815,,,003,001,2019_May_07_1111,MusicAffectPsychophysiology2019,3.0.5,60.02271871961927,
To what extent did the music make you feel ,SCARED,30MonoWAV/30MonoH1.wav,2,2,1,5,,,,,0,1,1,4,0,5,5,11,,,,,,,,,1,0.7350724369989621,,,003,001,2019_May_07_1111,MusicAffectPsychophysiology2019,3.0.5,60.02271871961927,
To what extent did the music make you feel ,TENDER,30MonoWAV/30MonoH1.wav,2,2,1,5,,,,,0,1,1,4,0,6,6,10,,,,,,,,,2,1.3527957379992586,,,003,001,2019_May_07_1111,MusicAffectPsychophysiology2019,3.0.5,60.02271871961927,
To what extent did the music make you feel ,ACTIVE,30MonoWAV/30MonoH1.wav,2,2,1,5,,,,,0,1,1,4,0,7,7,9,,,,,,,,,3,2.8686229519989865,,,003,001,2019_May_07_1111,MusicAffectPsychophysiology2019,3.0.5,60.02271871961927,
To what extent did the music make you feel ,EXCITED,30MonoWAV/30MonoH1.wav,2,2,1,5,,,,,0,1,1,4,0,8,8,7,,,,,,,,,4,1.6859995430004346,,,003,001,2019_May_07_1111,MusicAffectPsychophysiology2019,3.0.5,60.02271871961927,
To what extent did the music make you feel ,ASHAMED,30MonoWAV/30MonoH1.wav,2,2,1,5,,,,,0,1,1,4,0,9,9,4,,,,,,,,,1,1.302047434999622,,,003,001,2019_May_07_1111,MusicAffectPsychophysiology2019,3.0.5,60.02271871961927,
To what extent did the music make you feel ,ALERT,30MonoWAV/30MonoH1.wav,2,2,1,5,,,,,0,1,1,4,0,10,10,8,,,,,,,,,3,2.851887656999679,,,003,001,2019_May_07_1111,MusicAffectPsychophysiology2019,3.0.5,60.02271871961927,
To what extent did the music make you feel ,FRUSTRATED,30MonoWAV/30MonoH1.wav,2,2,1,5,,,,,0,1,1,4,0,11,11,3,,,,,,,,,1,6.284727506999843,,,003,001,2019_May_07_1111,MusicAffectPsychophysiology2019,3.0.5,60.02271871961927,
,,30MonoWAV/30MonoH1.wav,2,2,1,5,,,,,0,1,1,4,,,,,,,,,,,,,,,,,003,001,2019_May_07_1111,MusicAffectPsychophysiology2019,3.0.5,60.02271871961927,
To what extent did the music make you feel ,SCARED,30MonoWAV/30MonoF2.wav,1,2,2,2,,,,,0,2,2,1,0,0,0,11,,,1,3.0857190400001855,1,3.1514881390012306,,,3,2.718468238999776,,,003,001,2019_May_07_1111,MusicAffectPsychophysiology2019,3.0.5,60.02271871961927,
To what extent did the music make you feel ,EXCITED,30MonoWAV/30MonoF2.wav,1,2,2,2,,,,,0,2,2,1,0,1,1,7,,,,,,,,,1,1.8358644279996952,,,003,001,2019_May_07_1111,MusicAffectPsychophysiology2019,3.0.5,60.02271871961927,
To what extent did the music make you feel ,HAPPY,30MonoWAV/30MonoF2.wav,1,2,2,2,,,,,0,2,2,1,0,2,2,6,,,,,,,,,1,0.9842856300001586,,,003,001,2019_May_07_1111,MusicAffectPsychophysiology2019,3.0.5,60.02271871961927,
To what extent did the music make you feel ,ANXIOUS ,30MonoWAV/30MonoF2.wav,1,2,2,2,,,,,0,2,2,1,0,3,3,1,,,,,,,,,2,0.9011346979987138,,,003,001,2019_May_07_1111,MusicAffectPsychophysiology2019,3.0.5,60.02271871961927,
To what extent did the music make you feel ,ACTIVE,30MonoWAV/30MonoF2.wav,1,2,2,2,,,,,0,2,2,1,0,4,4,9,,,,,,,,,1,1.4522262869995757,,,003,001,2019_May_07_1111,MusicAffectPsychophysiology2019,3.0.5,60.02271871961927,
To what extent did the music make you feel ,TENDER,30MonoWAV/30MonoF2.wav,1,2,2,2,,,,,0,2,2,1,0,5,5,10,,,,,,,,,1,1.1515675709997595,,,003,001,2019_May_07_1111,MusicAffectPsychophysiology2019,3.0.5,60.02271871961927,
To what extent did the music make you feel ,ASHAMED,30MonoWAV/30MonoF2.wav,1,2,2,2,,,,,0,2,2,1,0,6,6,4,,,,,,,,,2,2.200901068999883,,,003,001,2019_May_07_1111,MusicAffectPsychophysiology2019,3.0.5,60.02271871961927,
To what extent did the music make you feel ,FRUSTRATED,30MonoWAV/30MonoF2.wav,1,2,2,2,,,,,0,2,2,1,0,7,7,3,,,,,,,,,2,0.9844153209996875,,,003,001,2019_May_07_1111,MusicAffectPsychophysiology2019,3.0.5,60.02271871961927,
To what extent did the music make you feel ,SAD,30MonoWAV/30MonoF2.wav,1,2,2,2,,,,,0,2,2,1,0,8,8,0,,,,,,,,,2,1.0848102660002041,,,003,001,2019_May_07_1111,MusicAffectPsychophysiology2019,3.0.5,60.02271871961927,
To what extent did the music make you feel ,ALERT,30MonoWAV/30MonoF2.wav,1,2,2,2,,,,,0,2,2,1,0,9,9,8,,,,,,,,,2,1.2670960360010213,,,003,001,2019_May_07_1111,MusicAffectPsychophysiology2019,3.0.5,60.02271871961927,
To what extent did the music make you feel ,ANGRY,30MonoWAV/30MonoF2.wav,1,2,2,2,,,,,0,2,2,1,0,10,10,2,,,,,,,,,3,1.3011533799999597,,,003,001,2019_May_07_1111,MusicAffectPsychophysiology2019,3.0.5,60.02271871961927,
To what extent did the music make you feel ,GUILTY,30MonoWAV/30MonoF2.wav,1,2,2,2,,,,,0,2,2,1,0,11,11,5,,,,,,,,,2,1.2851308829995105,,,003,001,2019_May_07_1111,MusicAffectPsychophysiology2019,3.0.5,60.02271871961927,
,,30MonoWAV/30MonoF2.wav,1,2,2,2,,,,,0,2,2,1,,,,,,,,,,,,,,,,,003,001,2019_May_07_1111,MusicAffectPsychophysiology2019,3.0.5,60.02271871961927,
To what extent did the music make you feel ,HAPPY,30MonoWAV/30MonoF3.wav,1,2,2,3,,,,,0,3,3,2,0,0,0,6,,,1,3.035529447999579,1,1.8683402220012795,,,1,1.7018712790013524,,,003,001,2019_May_07_1111,MusicAffectPsychophysiology2019,3.0.5,60.02271871961927,
To what extent did the music make you feel ,FRUSTRATED,30MonoWAV/30MonoF3.wav,1,2,2,3,,,,,0,3,3,2,0,1,1,3,,,,,,,,,2,1.0176379730000917,,,003,001,2019_May_07_1111,MusicAffectPsychophysiology2019,3.0.5,60.02271871961927,
To what extent did the music make you feel ,SCARED,30MonoWAV/30MonoF3.wav,1,2,2,3,,,,,0,3,3,2,0,2,2,11,,,,,,,,,2,1.2687697609999304,,,003,001,2019_May_07_1111,MusicAffectPsychophysiology2019,3.0.5,60.02271871961927,
To what extent did the music make you feel ,ACTIVE,30MonoWAV/30MonoF3.wav,1,2,2,3,,,,,0,3,3,2,0,3,3,9,,,,,,,,,2,2.1027426599994214,,,003,001,2019_May_07_1111,MusicAffectPsychophysiology2019,3.0.5,60.02271871961927,
To what extent did the music make you feel ,TENDER,30MonoWAV/30MonoF3.wav,1,2,2,3,,,,,0,3,3,2,0,4,4,10,,,,,,,,,2,1.5332138379999378,,,003,001,2019_May_07_1111,MusicAffectPsychophysiology2019,3.0.5,60.02271871961927,
To what extent did the music make you feel ,ASHAMED,30MonoWAV/30MonoF3.wav,1,2,2,3,,,,,0,3,3,2,0,5,5,4,,,,,,,,,2,2.70345893800004,,,003,001,2019_May_07_1111,MusicAffectPsychophysiology2019,3.0.5,60.02271871961927,
To what extent did the music make you feel ,GUILTY,30MonoWAV/30MonoF3.wav,1,2,2,3,,,,,0,3,3,2,0,6,6,5,,,,,,,,,2,0.7857125629998336,,,003,001,2019_May_07_1111,MusicAffectPsychophysiology2019,3.0.5,60.02271871961927,
To what extent did the music make you feel ,EXCITED,30MonoWAV/30MonoF3.wav,1,2,2,3,,,,,0,3,3,2,0,7,7,7,,,,,,,,,1,2.1495512679994135,,,003,001,2019_May_07_1111,MusicAffectPsychophysiology2019,3.0.5,60.02271871961927,
To what extent did the music make you feel ,ALERT,30MonoWAV/30MonoF3.wav,1,2,2,3,,,,,0,3,3,2,0,8,8,8,,,,,,,,,3,1.0850671759999386,,,003,001,2019_May_07_1111,MusicAffectPsychophysiology2019,3.0.5,60.02271871961927,
To what extent did the music make you feel ,ANGRY,30MonoWAV/30MonoF3.wav,1,2,2,3,,,,,0,3,3,2,0,9,9,2,,,,,,,,,3,0.9350033700011409,,,003,001,2019_May_07_1111,MusicAffectPsychophysiology2019,3.0.5,60.02271871961927,
To what extent did the music make you feel ,ANXIOUS ,30MonoWAV/30MonoF3.wav,1,2,2,3,,,,,0,3,3,2,0,10,10,1,,,,,,,,,3,0.7687823359992763,,,003,001,2019_May_07_1111,MusicAffectPsychophysiology2019,3.0.5,60.02271871961927,
To what extent did the music make you feel ,SAD,30MonoWAV/30MonoF3.wav,1,2,2,3,,,,,0,3,3,2,0,11,11,0,,,,,,,,,3,0.7333908760010672,,,003,001,2019_May_07_1111,MusicAffectPsychophysiology2019,3.0.5,60.02271871961927,
,,30MonoWAV/30MonoF3.wav,1,2,2,3,,,,,0,3,3,2,,,,,,,,,,,,,,,,,003,001,2019_May_07_1111,MusicAffectPsychophysiology2019,3.0.5,60.02271871961927,
To what extent did the music make you feel ,TENDER,30MonoWAV/30MonoH2.wav,2,2,1,6,,,,,0,4,4,5,0,0,0,10,,,4,3.050698581000688,4,1.6328961979997985,,,3,1.8182803740000963,,,003,001,2019_May_07_1111,MusicAffectPsychophysiology2019,3.0.5,60.02271871961927,
To what extent did the music make you feel ,SCARED,30MonoWAV/30MonoH2.wav,2,2,1,6,,,,,0,4,4,5,0,1,1,11,,,,,,,,,1,1.2349498459989263,,,003,001,2019_May_07_1111,MusicAffectPsychophysiology2019,3.0.5,60.02271871961927,
To what extent did the music make you feel ,ALERT,30MonoWAV/30MonoH2.wav,2,2,1,6,,,,,0,4,4,5,0,2,2,8,,,,,,,,,2,1.7171932609999203,,,003,001,2019_May_07_1111,MusicAffectPsychophysiology2019,3.0.5,60.02271871961927,
To what extent did the music make you feel ,GUILTY,30MonoWAV/30MonoH2.wav,2,2,1,6,,,,,0,4,4,5,0,3,3,5,,,,,,,,,1,1.0684535749987845,,,003,001,2019_May_07_1111,MusicAffectPsychophysiology2019,3.0.5,60.02271871961927,
To what extent did the music make you feel ,ASHAMED,30MonoWAV/30MonoH2.wav,2,2,1,6,,,,,0,4,4,5,0,4,4,4,,,,,,,,,1,0.6343960800004425,,,003,001,2019_May_07_1111,MusicAffectPsychophysiology2019,3.0.5,60.02271871961927,
To what extent did the music make you feel ,HAPPY,30MonoWAV/30MonoH2.wav,2,2,1,6,,,,,0,4,4,5,0,5,5,6,,,,,,,,,3,1.0675191579994134,,,003,001,2019_May_07_1111,MusicAffectPsychophysiology2019,3.0.5,60.02271871961927,
To what extent did the music make you feel ,SAD,30MonoWAV/30MonoH2.wav,2,2,1,6,,,,,0,4,4,5,0,6,6,0,,,,,,,,,1,2.399115084999721,,,003,001,2019_May_07_1111,MusicAffectPsychophysiology2019,3.0.5,60.02271871961927,
To what extent did the music make you feel ,FRUSTRATED,30MonoWAV/30MonoH2.wav,2,2,1,6,,,,,0,4,4,5,0,7,7,3,,,,,,,,,1,2.4680248600016057,,,003,001,2019_May_07_1111,MusicAffectPsychophysiology2019,3.0.5,60.02271871961927,
To what extent did the music make you feel ,ACTIVE,30MonoWAV/30MonoH2.wav,2,2,1,6,,,,,0,4,4,5,0,8,8,9,,,,,,,,,2,1.4516412169996329,,,003,001,2019_May_07_1111,MusicAffectPsychophysiology2019,3.0.5,60.02271871961927,
To what extent did the music make you feel ,ANXIOUS ,30MonoWAV/30MonoH2.wav,2,2,1,6,,,,,0,4,4,5,0,9,9,1,,,,,,,,,1,3.5681124330003513,,,003,001,2019_May_07_1111,MusicAffectPsychophysiology2019,3.0.5,60.02271871961927,
To what extent did the music make you feel ,ANGRY,30MonoWAV/30MonoH2.wav,2,2,1,6,,,,,0,4,4,5,0,10,10,2,,,,,,,,,1,0.6351797120005358,,,003,001,2019_May_07_1111,MusicAffectPsychophysiology2019,3.0.5,60.02271871961927,
To what extent did the music make you feel ,EXCITED,30MonoWAV/30MonoH2.wav,2,2,1,6,,,,,0,4,4,5,0,11,11,7,,,,,,,,,3,1.0175268790007976,,,003,001,2019_May_07_1111,MusicAffectPsychophysiology2019,3.0.5,60.02271871961927,
,,30MonoWAV/30MonoH2.wav,2,2,1,6,,,,,0,4,4,5,,,,,,,,,,,,,,,,,003,001,2019_May_07_1111,MusicAffectPsychophysiology2019,3.0.5,60.02271871961927,
To what extent did the music make you feel ,ASHAMED,30MonoWAV/30MonoT1.wav,2,1,4,13,,,,,0,5,5,12,0,0,0,4,,,2,4.5725948750005045,3,3.171904748000088,,,1,7.540999406999617,,,003,001,2019_May_07_1111,MusicAffectPsychophysiology2019,3.0.5,60.02271871961927,
To what extent did the music make you feel ,SAD,30MonoWAV/30MonoT1.wav,2,1,4,13,,,,,0,5,5,12,0,1,1,0,,,,,,,,,2,1.7186327109993726,,,003,001,2019_May_07_1111,MusicAffectPsychophysiology2019,3.0.5,60.02271871961927,
To what extent did the music make you feel ,HAPPY,30MonoWAV/30MonoT1.wav,2,1,4,13,,,,,0,5,5,12,0,2,2,6,,,,,,,,,3,0.8847928809991572,,,003,001,2019_May_07_1111,MusicAffectPsychophysiology2019,3.0.5,60.02271871961927,
To what extent did the music make you feel ,ANGRY,30MonoWAV/30MonoT1.wav,2,1,4,13,,,,,0,5,5,12,0,3,3,2,,,,,,,,,1,2.385486310999113,,,003,001,2019_May_07_1111,MusicAffectPsychophysiology2019,3.0.5,60.02271871961927,
To what extent did the music make you feel ,EXCITED,30MonoWAV/30MonoT1.wav,2,1,4,13,,,,,0,5,5,12,0,4,4,7,,,,,,,,,2,1.7195439639999677,,,003,001,2019_May_07_1111,MusicAffectPsychophysiology2019,3.0.5,60.02271871961927,
To what extent did the music make you feel ,TENDER,30MonoWAV/30MonoT1.wav,2,1,4,13,,,,,0,5,5,12,0,5,5,10,,,,,,,,,4,3.185133352999401,,,003,001,2019_May_07_1111,MusicAffectPsychophysiology2019,3.0.5,60.02271871961927,
To what extent did the music make you feel ,ACTIVE,30MonoWAV/30MonoT1.wav,2,1,4,13,,,,,0,5,5,12,0,6,6,9,,,,,,,,,1,2.367956536998463,,,003,001,2019_May_07_1111,MusicAffectPsychophysiology2019,3.0.5,60.02271871961927,
To what extent did the music make you feel ,GUILTY,30MonoWAV/30MonoT1.wav,2,1,4,13,,,,,0,5,5,12,0,7,7,5,,,,,,,,,1,1.502828706999935,,,003,001,2019_May_07_1111,MusicAffectPsychophysiology2019,3.0.5,60.02271871961927,
To what extent did the music make you feel ,ANXIOUS ,30MonoWAV/30MonoT1.wav,2,1,4,13,,,,,0,5,5,12,0,8,8,1,,,,,,,,,1,1.4361806220003928,,,003,001,2019_May_07_1111,MusicAffectPsychophysiology2019,3.0.5,60.02271871961927,
To what extent did the music make you feel ,FRUSTRATED,30MonoWAV/30MonoT1.wav,2,1,4,13,,,,,0,5,5,12,0,9,9,3,,,,,,,,,1,0.8346551890008413,,,003,001,2019_May_07_1111,MusicAffectPsychophysiology2019,3.0.5,60.02271871961927,
To what extent did the music make you feel ,ALERT,30MonoWAV/30MonoT1.wav,2,1,4,13,,,,,0,5,5,12,0,10,10,8,,,,,,,,,2,1.9002511899998353,,,003,001,2019_May_07_1111,MusicAffectPsychophysiology2019,3.0.5,60.02271871961927,
To what extent did the music make you feel ,SCARED,30MonoWAV/30MonoT1.wav,2,1,4,13,,,,,0,5,5,12,0,11,11,11,,,,,,,,,1,1.55020661799972,,,003,001,2019_May_07_1111,MusicAffectPsychophysiology2019,3.0.5,60.02271871961927,
,,30MonoWAV/30MonoT1.wav,2,1,4,13,,,,,0,5,5,12,,,,,,,,,,,,,,,,,003,001,2019_May_07_1111,MusicAffectPsychophysiology2019,3.0.5,60.02271871961927,
To what extent did the music make you feel ,ACTIVE,30MonoWAV/30MonoH4.wav,2,2,1,8,,,,,0,6,6,7,0,0,0,9,,,3,3.58446218500103,2,2.037452549999216,,,2,4.557433309999396,,,003,001,2019_May_07_1111,MusicAffectPsychophysiology2019,3.0.5,60.02271871961927,
To what extent did the music make you feel ,SCARED,30MonoWAV/30MonoH4.wav,2,2,1,8,,,,,0,6,6,7,0,1,1,11,,,,,,,,,1,3.004614080000465,,,003,001,2019_May_07_1111,MusicAffectPsychophysiology2019,3.0.5,60.02271871961927,
To what extent did the music make you feel ,FRUSTRATED,30MonoWAV/30MonoH4.wav,2,2,1,8,,,,,0,6,6,7,0,2,2,3,,,,,,,,,1,0.8569445379998797,,,003,001,2019_May_07_1111,MusicAffectPsychophysiology2019,3.0.5,60.02271871961927,
To what extent did the music make you feel ,ASHAMED,30MonoWAV/30MonoH4.wav,2,2,1,8,,,,,0,6,6,7,0,3,3,4,,,,,,,,,1,0.8340305469992018,,,003,001,2019_May_07_1111,MusicAffectPsychophysiology2019,3.0.5,60.02271871961927,
To what extent did the music make you feel ,ANGRY,30MonoWAV/30MonoH4.wav,2,2,1,8,,,,,0,6,6,7,0,4,4,2,,,,,,,,,1,0.8182660490001581,,,003,001,2019_May_07_1111,MusicAffectPsychophysiology2019,3.0.5,60.02271871961927,
To what extent did the music make you feel ,SAD,30MonoWAV/30MonoH4.wav,2,2,1,8,,,,,0,6,6,7,0,5,5,0,,,,,,,,,1,0.9011141720002342,,,003,001,2019_May_07_1111,MusicAffectPsychophysiology2019,3.0.5,60.02271871961927,
To what extent did the music make you feel ,ALERT,30MonoWAV/30MonoH4.wav,2,2,1,8,,,,,0,6,6,7,0,6,6,8,,,,,,,,,1,2.7517557840001245,,,003,001,2019_May_07_1111,MusicAffectPsychophysiology2019,3.0.5,60.02271871961927,
To what extent did the music make you feel ,GUILTY,30MonoWAV/30MonoH4.wav,2,2,1,8,,,,,0,6,6,7,0,7,7,5,,,,,,,,,1,1.6521442559987918,,,003,001,2019_May_07_1111,MusicAffectPsychophysiology2019,3.0.5,60.02271871961927,
To what extent did the music make you feel ,HAPPY,30MonoWAV/30MonoH4.wav,2,2,1,8,,,,,0,6,6,7,0,8,8,6,,,,,,,,,2,2.034701340999163,,,003,001,2019_May_07_1111,MusicAffectPsychophysiology2019,3.0.5,60.02271871961927,
To what extent did the music make you feel ,ANXIOUS ,30MonoWAV/30MonoH4.wav,2,2,1,8,,,,,0,6,6,7,0,9,9,1,,,,,,,,,1,1.235811571999875,,,003,001,2019_May_07_1111,MusicAffectPsychophysiology2019,3.0.5,60.02271871961927,
To what extent did the music make you feel ,EXCITED,30MonoWAV/30MonoH4.wav,2,2,1,8,,,,,0,6,6,7,0,10,10,7,,,,,,,,,2,1.2515601539998897,,,003,001,2019_May_07_1111,MusicAffectPsychophysiology2019,3.0.5,60.02271871961927,
To what extent did the music make you feel ,TENDER,30MonoWAV/30MonoH4.wav,2,2,1,8,,,,,0,6,6,7,0,11,11,10,,,,,,,,,1,1.168504319000931,,,003,001,2019_May_07_1111,MusicAffectPsychophysiology2019,3.0.5,60.02271871961927,
,,30MonoWAV/30MonoH4.wav,2,2,1,8,,,,,0,6,6,7,,,,,,,,,,,,,,,,,003,001,2019_May_07_1111,MusicAffectPsychophysiology2019,3.0.5,60.02271871961927,
To what extent did the music make you feel ,FRUSTRATED,30MonoWAV/30MonoS2.wav,1,1,3,10,,,,,0,7,7,9,0,0,0,3,,,1,3.60175185099979,2,3.5842970850007987,,,1,1.7686341989992798,,,003,001,2019_May_07_1111,MusicAffectPsychophysiology2019,3.0.5,60.02271871961927,
To what extent did the music make you feel ,ACTIVE,30MonoWAV/30MonoS2.wav,1,1,3,10,,,,,0,7,7,9,0,1,1,9,,,,,,,,,1,0.8189491240009374,,,003,001,2019_May_07_1111,MusicAffectPsychophysiology2019,3.0.5,60.02271871961927,
To what extent did the music make you feel ,ANXIOUS ,30MonoWAV/30MonoS2.wav,1,1,3,10,,,,,0,7,7,9,0,2,2,1,,,,,,,,,1,0.6355630140005815,,,003,001,2019_May_07_1111,MusicAffectPsychophysiology2019,3.0.5,60.02271871961927,
To what extent did the music make you feel ,SAD,30MonoWAV/30MonoS2.wav,1,1,3,10,,,,,0,7,7,9,0,3,3,0,,,,,,,,,4,3.3347822109990375,,,003,001,2019_May_07_1111,MusicAffectPsychophysiology2019,3.0.5,60.02271871961927,
To what extent did the music make you feel ,TENDER,30MonoWAV/30MonoS2.wav,1,1,3,10,,,,,0,7,7,9,0,4,4,10,,,,,,,,,3,2.1183175559999654,,,003,001,2019_May_07_1111,MusicAffectPsychophysiology2019,3.0.5,60.02271871961927,
To what extent did the music make you feel ,ASHAMED,30MonoWAV/30MonoS2.wav,1,1,3,10,,,,,0,7,7,9,0,5,5,4,,,,,,,,,1,1.4670783940000547,,,003,001,2019_May_07_1111,MusicAffectPsychophysiology2019,3.0.5,60.02271871961927,
To what extent did the music make you feel ,EXCITED,30MonoWAV/30MonoS2.wav,1,1,3,10,,,,,0,7,7,9,0,6,6,7,,,,,,,,,1,2.468663485000434,,,003,001,2019_May_07_1111,MusicAffectPsychophysiology2019,3.0.5,60.02271871961927,
To what extent did the music make you feel ,SCARED,30MonoWAV/30MonoS2.wav,1,1,3,10,,,,,0,7,7,9,0,7,7,11,,,,,,,,,1,2.8182287529998575,,,003,001,2019_May_07_1111,MusicAffectPsychophysiology2019,3.0.5,60.02271871961927,
To what extent did the music make you feel ,HAPPY,30MonoWAV/30MonoS2.wav,1,1,3,10,,,,,0,7,7,9,0,8,8,6,,,,,,,,,1,1.4344974949999596,,,003,001,2019_May_07_1111,MusicAffectPsychophysiology2019,3.0.5,60.02271871961927,
To what extent did the music make you feel ,ANGRY,30MonoWAV/30MonoS2.wav,1,1,3,10,,,,,0,7,7,9,0,9,9,2,,,,,,,,,1,1.3527098230006231,,,003,001,2019_May_07_1111,MusicAffectPsychophysiology2019,3.0.5,60.02271871961927,
To what extent did the music make you feel ,ALERT,30MonoWAV/30MonoS2.wav,1,1,3,10,,,,,0,7,7,9,0,10,10,8,,,,,,,,,1,1.434960393999063,,,003,001,2019_May_07_1111,MusicAffectPsychophysiology2019,3.0.5,60.02271871961927,
To what extent did the music make you feel ,GUILTY,30MonoWAV/30MonoS2.wav,1,1,3,10,,,,,0,7,7,9,0,11,11,5,,,,,,,,,2,1.433861261999482,,,003,001,2019_May_07_1111,MusicAffectPsychophysiology2019,3.0.5,60.02271871961927,
,,30MonoWAV/30MonoS2.wav,1,1,3,10,,,,,0,7,7,9,,,,,,,,,,,,,,,,,003,001,2019_May_07_1111,MusicAffectPsychophysiology2019,3.0.5,60.02271871961927,
To what extent did the music make you feel ,ANXIOUS ,30MonoWAV/30MonoT4.wav,2,1,4,16,,,,,0,8,8,15,0,0,0,1,,,2,3.23491615400053,4,1.701538287999938,,,1,2.3180141520006146,,,003,001,2019_May_07_1111,MusicAffectPsychophysiology2019,3.0.5,60.02271871961927,
To what extent did the music make you feel ,ACTIVE,30MonoWAV/30MonoT4.wav,2,1,4,16,,,,,0,8,8,15,0,1,1,9,,,,,,,,,1,0.8029509830012103,,,003,001,2019_May_07_1111,MusicAffectPsychophysiology2019,3.0.5,60.02271871961927,
To what extent did the music make you feel ,ANGRY,30MonoWAV/30MonoT4.wav,2,1,4,16,,,,,0,8,8,15,0,2,2,2,,,,,,,,,1,1.1016849810002896,,,003,001,2019_May_07_1111,MusicAffectPsychophysiology2019,3.0.5,60.02271871961927,
To what extent did the music make you feel ,EXCITED,30MonoWAV/30MonoT4.wav,2,1,4,16,,,,,0,8,8,15,0,3,3,7,,,,,,,,,1,1.6521990720011672,,,003,001,2019_May_07_1111,MusicAffectPsychophysiology2019,3.0.5,60.02271871961927,
To what extent did the music make you feel ,TENDER,30MonoWAV/30MonoT4.wav,2,1,4,16,,,,,0,8,8,15,0,4,4,10,,,,,,,,,4,2.985215976999825,,,003,001,2019_May_07_1111,MusicAffectPsychophysiology2019,3.0.5,60.02271871961927,
To what extent did the music make you feel ,FRUSTRATED,30MonoWAV/30MonoT4.wav,2,1,4,16,,,,,0,8,8,15,0,5,5,3,,,,,,,,,1,1.2859133229994768,,,003,001,2019_May_07_1111,MusicAffectPsychophysiology2019,3.0.5,60.02271871961927,
To what extent did the music make you feel ,HAPPY,30MonoWAV/30MonoT4.wav,2,1,4,16,,,,,0,8,8,15,0,6,6,6,,,,,,,,,2,1.6679561669989198,,,003,001,2019_May_07_1111,MusicAffectPsychophysiology2019,3.0.5,60.02271871961927,
To what extent did the music make you feel ,GUILTY,30MonoWAV/30MonoT4.wav,2,1,4,16,,,,,0,8,8,15,0,7,7,5,,,,,,,,,1,0.7843981870009884,,,003,001,2019_May_07_1111,MusicAffectPsychophysiology2019,3.0.5,60.02271871961927,
To what extent did the music make you feel ,ALERT,30MonoWAV/30MonoT4.wav,2,1,4,16,,,,,0,8,8,15,0,8,8,8,,,,,,,,,1,1.067902889000834,,,003,001,2019_May_07_1111,MusicAffectPsychophysiology2019,3.0.5,60.02271871961927,
To what extent did the music make you feel ,SCARED,30MonoWAV/30MonoT4.wav,2,1,4,16,,,,,0,8,8,15,0,9,9,11,,,,,,,,,1,0.9345969299993158,,,003,001,2019_May_07_1111,MusicAffectPsychophysiology2019,3.0.5,60.02271871961927,
To what extent did the music make you feel ,ASHAMED,30MonoWAV/30MonoT4.wav,2,1,4,16,,,,,0,8,8,15,0,10,10,4,,,,,,,,,1,0.901791984000738,,,003,001,2019_May_07_1111,MusicAffectPsychophysiology2019,3.0.5,60.02271871961927,
To what extent did the music make you feel ,SAD,30MonoWAV/30MonoT4.wav,2,1,4,16,,,,,0,8,8,15,0,11,11,0,,,,,,,,,5,1.966844772998229,,,003,001,2019_May_07_1111,MusicAffectPsychophysiology2019,3.0.5,60.02271871961927,
,,30MonoWAV/30MonoT4.wav,2,1,4,16,,,,,0,8,8,15,,,,,,,,,,,,,,,,,003,001,2019_May_07_1111,MusicAffectPsychophysiology2019,3.0.5,60.02271871961927,
To what extent did the music make you feel ,ANXIOUS ,30MonoWAV/30MonoH3.wav,2,2,1,7,,,,,0,9,9,6,0,0,0,1,,,4,2.7014488620006887,4,1.368773895999766,,,1,1.2343139749991678,,,003,001,2019_May_07_1111,MusicAffectPsychophysiology2019,3.0.5,60.02271871961927,
To what extent did the music make you feel ,SAD,30MonoWAV/30MonoH3.wav,2,2,1,7,,,,,0,9,9,6,0,1,1,0,,,,,,,,,1,0.9677647640000941,,,003,001,2019_May_07_1111,MusicAffectPsychophysiology2019,3.0.5,60.02271871961927,
To what extent did the music make you feel ,GUILTY,30MonoWAV/30MonoH3.wav,2,2,1,7,,,,,0,9,9,6,0,2,2,5,,,,,,,,,1,0.9189316200008761,,,003,001,2019_May_07_1111,MusicAffectPsychophysiology2019,3.0.5,60.02271871961927,
To what extent did the music make you feel ,ACTIVE,30MonoWAV/30MonoH3.wav,2,2,1,7,,,,,0,9,9,6,0,3,3,9,,,,,,,,,4,1.9331407809986558,,,003,001,2019_May_07_1111,MusicAffectPsychophysiology2019,3.0.5,60.02271871961927,
To what extent did the music make you feel ,EXCITED,30MonoWAV/30MonoH3.wav,2,2,1,7,,,,,0,9,9,6,0,4,4,7,,,,,,,,,4,1.4523546300006274,,,003,001,2019_May_07_1111,MusicAffectPsychophysiology2019,3.0.5,60.02271871961927,
To what extent did the music make you feel ,HAPPY,30MonoWAV/30MonoH3.wav,2,2,1,7,,,,,0,9,9,6,0,5,5,6,,,,,,,,,4,1.6399349170005735,,,003,001,2019_May_07_1111,MusicAffectPsychophysiology2019,3.0.5,60.02271871961927,
To what extent did the music make you feel ,FRUSTRATED,30MonoWAV/30MonoH3.wav,2,2,1,7,,,,,0,9,9,6,0,6,6,3,,,,,,,,,1,2.1855048970010102,,,003,001,2019_May_07_1111,MusicAffectPsychophysiology2019,3.0.5,60.02271871961927,
To what extent did the music make you feel ,SCARED,30MonoWAV/30MonoH3.wav,2,2,1,7,,,,,0,9,9,6,0,7,7,11,,,,,,,,,1,1.002788887000861,,,003,001,2019_May_07_1111,MusicAffectPsychophysiology2019,3.0.5,60.02271871961927,
To what extent did the music make you feel ,ALERT,30MonoWAV/30MonoH3.wav,2,2,1,7,,,,,0,9,9,6,0,8,8,8,,,,,,,,,2,1.3867703920004715,,,003,001,2019_May_07_1111,MusicAffectPsychophysiology2019,3.0.5,60.02271871961927,
To what extent did the music make you feel ,ASHAMED,30MonoWAV/30MonoH3.wav,2,2,1,7,,,,,0,9,9,6,0,9,9,4,,,,,,,,,1,1.2361796540008072,,,003,001,2019_May_07_1111,MusicAffectPsychophysiology2019,3.0.5,60.02271871961927,
To what extent did the music make you feel ,TENDER,30MonoWAV/30MonoH3.wav,2,2,1,7,,,,,0,9,9,6,0,10,10,10,,,,,,,,,2,1.9235134520004067,,,003,001,2019_May_07_1111,MusicAffectPsychophysiology2019,3.0.5,60.02271871961927,
To what extent did the music make you feel ,ANGRY,30MonoWAV/30MonoH3.wav,2,2,1,7,,,,,0,9,9,6,0,11,11,2,,,,,,,,,1,1.4672041499998159,,,003,001,2019_May_07_1111,MusicAffectPsychophysiology2019,3.0.5,60.02271871961927,
,,30MonoWAV/30MonoH3.wav,2,2,1,7,,,,,0,9,9,6,,,,,,,,,,,,,,,,,003,001,2019_May_07_1111,MusicAffectPsychophysiology2019,3.0.5,60.02271871961927,
To what extent did the music make you feel ,SCARED,30MonoWAV/30MonoT3.wav,2,1,4,15,,,,,0,10,10,14,0,0,0,11,,,1,3.5892478480000136,3,2.404033143999186,,,1,1.1368743890016049,,,003,001,2019_May_07_1111,MusicAffectPsychophysiology2019,3.0.5,60.02271871961927,
To what extent did the music make you feel ,SAD,30MonoWAV/30MonoT3.wav,2,1,4,15,,,,,0,10,10,14,0,1,1,0,,,,,,,,,1,0.7565548450002098,,,003,001,2019_May_07_1111,MusicAffectPsychophysiology2019,3.0.5,60.02271871961927,
To what extent did the music make you feel ,TENDER,30MonoWAV/30MonoT3.wav,2,1,4,15,,,,,0,10,10,14,0,2,2,10,,,,,,,,,4,2.751366009000776,,,003,001,2019_May_07_1111,MusicAffectPsychophysiology2019,3.0.5,60.02271871961927,
To what extent did the music make you feel ,ALERT,30MonoWAV/30MonoT3.wav,2,1,4,15,,,,,0,10,10,14,0,3,3,8,,,,,,,,,1,0.9353094010002678,,,003,001,2019_May_07_1111,MusicAffectPsychophysiology2019,3.0.5,60.02271871961927,
To what extent did the music make you feel ,ANGRY,30MonoWAV/30MonoT3.wav,2,1,4,15,,,,,0,10,10,14,0,4,4,2,,,,,,,,,1,0.5024169190000976,,,003,001,2019_May_07_1111,MusicAffectPsychophysiology2019,3.0.5,60.02271871961927,
To what extent did the music make you feel ,FRUSTRATED,30MonoWAV/30MonoT3.wav,2,1,4,15,,,,,0,10,10,14,0,5,5,3,,,,,,,,,1,0.684881803999815,,,003,001,2019_May_07_1111,MusicAffectPsychophysiology2019,3.0.5,60.02271871961927,
To what extent did the music make you feel ,HAPPY,30MonoWAV/30MonoT3.wav,2,1,4,15,,,,,0,10,10,14,0,6,6,6,,,,,,,,,2,1.2663150130010763,,,003,001,2019_May_07_1111,MusicAffectPsychophysiology2019,3.0.5,60.02271871961927,
To what extent did the music make you feel ,ASHAMED,30MonoWAV/30MonoT3.wav,2,1,4,15,,,,,0,10,10,14,0,7,7,4,,,,,,,,,1,0.7350997470002767,,,003,001,2019_May_07_1111,MusicAffectPsychophysiology2019,3.0.5,60.02271871961927,
To what extent did the music make you feel ,ANXIOUS ,30MonoWAV/30MonoT3.wav,2,1,4,15,,,,,0,10,10,14,0,8,8,1,,,,,,,,,1,1.2026410550006403,,,003,001,2019_May_07_1111,MusicAffectPsychophysiology2019,3.0.5,60.02271871961927,
To what extent did the music make you feel ,ACTIVE,30MonoWAV/30MonoT3.wav,2,1,4,15,,,,,0,10,10,14,0,9,9,9,,,,,,,,,1,1.2681744340006844,,,003,001,2019_May_07_1111,MusicAffectPsychophysiology2019,3.0.5,60.02271871961927,
To what extent did the music make you feel ,GUILTY,30MonoWAV/30MonoT3.wav,2,1,4,15,,,,,0,10,10,14,0,10,10,5,,,,,,,,,1,0.5355642730010004,,,003,001,2019_May_07_1111,MusicAffectPsychophysiology2019,3.0.5,60.02271871961927,
To what extent did the music make you feel ,EXCITED,30MonoWAV/30MonoT3.wav,2,1,4,15,,,,,0,10,10,14,0,11,11,7,,,,,,,,,1,0.9013703630007512,,,003,001,2019_May_07_1111,MusicAffectPsychophysiology2019,3.0.5,60.02271871961927,
,,30MonoWAV/30MonoT3.wav,2,1,4,15,,,,,0,10,10,14,,,,,,,,,,,,,,,,,003,001,2019_May_07_1111,MusicAffectPsychophysiology2019,3.0.5,60.02271871961927,
To what extent did the music make you feel ,ASHAMED,30MonoWAV/30MonoS1.wav,1,1,3,9,,,,,0,11,11,8,0,0,0,4,,,1,6.101845217001028,2,2.018273911999131,,,1,1.7175324279996858,,,003,001,2019_May_07_1111,MusicAffectPsychophysiology2019,3.0.5,60.02271871961927,
To what extent did the music make you feel ,ANGRY,30MonoWAV/30MonoS1.wav,1,1,3,9,,,,,0,11,11,8,0,1,1,2,,,,,,,,,1,0.7679416629998741,,,003,001,2019_May_07_1111,MusicAffectPsychophysiology2019,3.0.5,60.02271871961927,
To what extent did the music make you feel ,TENDER,30MonoWAV/30MonoS1.wav,1,1,3,9,,,,,0,11,11,8,0,2,2,10,,,,,,,,,2,1.2178509269997448,,,003,001,2019_May_07_1111,MusicAffectPsychophysiology2019,3.0.5,60.02271871961927,
To what extent did the music make you feel ,GUILTY,30MonoWAV/30MonoS1.wav,1,1,3,9,,,,,0,11,11,8,0,3,3,5,,,,,,,,,1,1.0851966079990234,,,003,001,2019_May_07_1111,MusicAffectPsychophysiology2019,3.0.5,60.02271871961927,
To what extent did the music make you feel ,ANXIOUS ,30MonoWAV/30MonoS1.wav,1,1,3,9,,,,,0,11,11,8,0,4,4,1,,,,,,,,,1,1.1023601990000316,,,003,001,2019_May_07_1111,MusicAffectPsychophysiology2019,3.0.5,60.02271871961927,
To what extent did the music make you feel ,HAPPY,30MonoWAV/30MonoS1.wav,1,1,3,9,,,,,0,11,11,8,0,5,5,6,,,,,,,,,1,1.2012725189997582,,,003,001,2019_May_07_1111,MusicAffectPsychophysiology2019,3.0.5,60.02271871961927,
To what extent did the music make you feel ,FRUSTRATED,30MonoWAV/30MonoS1.wav,1,1,3,9,,,,,0,11,11,8,0,6,6,3,,,,,,,,,1,1.0517669119999482,,,003,001,2019_May_07_1111,MusicAffectPsychophysiology2019,3.0.5,60.02271871961927,
To what extent did the music make you feel ,SAD,30MonoWAV/30MonoS1.wav,1,1,3,9,,,,,0,11,11,8,0,7,7,0,,,,,,,,,3,1.251708604999294,,,003,001,2019_May_07_1111,MusicAffectPsychophysiology2019,3.0.5,60.02271871961927,
To what extent did the music make you feel ,EXCITED,30MonoWAV/30MonoS1.wav,1,1,3,9,,,,,0,11,11,8,0,8,8,7,,,,,,,,,1,0.9696221940012038,,,003,001,2019_May_07_1111,MusicAffectPsychophysiology2019,3.0.5,60.02271871961927,
To what extent did the music make you feel ,SCARED,30MonoWAV/30MonoS1.wav,1,1,3,9,,,,,0,11,11,8,0,9,9,11,,,,,,,,,1,1.051793683998767,,,003,001,2019_May_07_1111,MusicAffectPsychophysiology2019,3.0.5,60.02271871961927,
To what extent did the music make you feel ,ACTIVE,30MonoWAV/30MonoS1.wav,1,1,3,9,,,,,0,11,11,8,0,10,10,9,,,,,,,,,1,1.2510318710010324,,,003,001,2019_May_07_1111,MusicAffectPsychophysiology2019,3.0.5,60.02271871961927,
To what extent did the music make you feel ,ALERT,30MonoWAV/30MonoS1.wav,1,1,3,9,,,,,0,11,11,8,0,11,11,8,,,,,,,,,2,1.0346852449983999,,,003,001,2019_May_07_1111,MusicAffectPsychophysiology2019,3.0.5,60.02271871961927,
,,30MonoWAV/30MonoS1.wav,1,1,3,9,,,,,0,11,11,8,,,,,,,,,,,,,,,,,003,001,2019_May_07_1111,MusicAffectPsychophysiology2019,3.0.5,60.02271871961927,
To what extent did the music make you feel ,ANXIOUS ,30MonoWAV/30MonoF1.wav,1,2,2,1,,,,,0,12,12,0,0,0,0,1,,,1,4.418250848000753,1,0.8851728190002177,,,3,2.052373059999809,,,003,001,2019_May_07_1111,MusicAffectPsychophysiology2019,3.0.5,60.02271871961927,
To what extent did the music make you feel ,GUILTY,30MonoWAV/30MonoF1.wav,1,2,2,1,,,,,0,12,12,0,0,1,1,5,,,,,,,,,2,1.3340638240006228,,,003,001,2019_May_07_1111,MusicAffectPsychophysiology2019,3.0.5,60.02271871961927,
To what extent did the music make you feel ,ACTIVE,30MonoWAV/30MonoF1.wav,1,2,2,1,,,,,0,12,12,0,0,2,2,9,,,,,,,,,2,1.48488577200078,,,003,001,2019_May_07_1111,MusicAffectPsychophysiology2019,3.0.5,60.02271871961927,
To what extent did the music make you feel ,ANGRY,30MonoWAV/30MonoF1.wav,1,2,2,1,,,,,0,12,12,0,0,3,3,2,,,,,,,,,3,1.7185648289996607,,,003,001,2019_May_07_1111,MusicAffectPsychophysiology2019,3.0.5,60.02271871961927,
To what extent did the music make you feel ,SAD,30MonoWAV/30MonoF1.wav,1,2,2,1,,,,,0,12,12,0,0,4,4,0,,,,,,,,,2,1.217636635999952,,,003,001,2019_May_07_1111,MusicAffectPsychophysiology2019,3.0.5,60.02271871961927,
To what extent did the music make you feel ,TENDER,30MonoWAV/30MonoF1.wav,1,2,2,1,,,,,0,12,12,0,0,5,5,10,,,,,,,,,1,1.0685048640007153,,,003,001,2019_May_07_1111,MusicAffectPsychophysiology2019,3.0.5,60.02271871961927,
To what extent did the music make you feel ,FRUSTRATED,30MonoWAV/30MonoF1.wav,1,2,2,1,,,,,0,12,12,0,0,6,6,3,,,,,,,,,2,1.0496567659993161,,,003,001,2019_May_07_1111,MusicAffectPsychophysiology2019,3.0.5,60.02271871961927,
To what extent did the music make you feel ,EXCITED,30MonoWAV/30MonoF1.wav,1,2,2,1,,,,,0,12,12,0,0,7,7,7,,,,,,,,,1,1.3498809680004342,,,003,001,2019_May_07_1111,MusicAffectPsychophysiology2019,3.0.5,60.02271871961927,
To what extent did the music make you feel ,HAPPY,30MonoWAV/30MonoF1.wav,1,2,2,1,,,,,0,12,12,0,0,8,8,6,,,,,,,,,1,0.6526033049995021,,,003,001,2019_May_07_1111,MusicAffectPsychophysiology2019,3.0.5,60.02271871961927,
To what extent did the music make you feel ,SCARED,30MonoWAV/30MonoF1.wav,1,2,2,1,,,,,0,12,12,0,0,9,9,11,,,,,,,,,2,1.168564203000642,,,003,001,2019_May_07_1111,MusicAffectPsychophysiology2019,3.0.5,60.02271871961927,
To what extent did the music make you feel ,ALERT,30MonoWAV/30MonoF1.wav,1,2,2,1,,,,,0,12,12,0,0,10,10,8,,,,,,,,,2,0.8183371170016471,,,003,001,2019_May_07_1111,MusicAffectPsychophysiology2019,3.0.5,60.02271871961927,
To what extent did the music make you feel ,ASHAMED,30MonoWAV/30MonoF1.wav,1,2,2,1,,,,,0,12,12,0,0,11,11,4,,,,,,,,,1,0.9514917550004611,,,003,001,2019_May_07_1111,MusicAffectPsychophysiology2019,3.0.5,60.02271871961927,
,,30MonoWAV/30MonoF1.wav,1,2,2,1,,,,,0,12,12,0,,,,,,,,,,,,,,,,,003,001,2019_May_07_1111,MusicAffectPsychophysiology2019,3.0.5,60.02271871961927,
To what extent did the music make you feel ,EXCITED,30MonoWAV/30MonoT2.wav,2,1,4,14,,,,,0,13,13,13,0,0,0,7,,,1,2.568280354998933,2,1.5673486320010852,,,2,2.2858112699996127,,,003,001,2019_May_07_1111,MusicAffectPsychophysiology2019,3.0.5,60.02271871961927,
To what extent did the music make you feel ,TENDER,30MonoWAV/30MonoT2.wav,2,1,4,14,,,,,0,13,13,13,0,1,1,10,,,,,,,,,5,1.9997085060003883,,,003,001,2019_May_07_1111,MusicAffectPsychophysiology2019,3.0.5,60.02271871961927,
To what extent did the music make you feel ,FRUSTRATED,30MonoWAV/30MonoT2.wav,2,1,4,14,,,,,0,13,13,13,0,2,2,3,,,,,,,,,1,1.068638500999441,,,003,001,2019_May_07_1111,MusicAffectPsychophysiology2019,3.0.5,60.02271871961927,
To what extent did the music make you feel ,ACTIVE,30MonoWAV/30MonoT2.wav,2,1,4,14,,,,,0,13,13,13,0,3,3,9,,,,,,,,,1,0.8185719699995389,,,003,001,2019_May_07_1111,MusicAffectPsychophysiology2019,3.0.5,60.02271871961927,
To what extent did the music make you feel ,SAD,30MonoWAV/30MonoT2.wav,2,1,4,14,,,,,0,13,13,13,0,4,4,0,,,,,,,,,1,0.5020811449994653,,,003,001,2019_May_07_1111,MusicAffectPsychophysiology2019,3.0.5,60.02271871961927,
To what extent did the music make you feel ,SCARED,30MonoWAV/30MonoT2.wav,2,1,4,14,,,,,0,13,13,13,0,5,5,11,,,,,,,,,1,0.7180670149991784,,,003,001,2019_May_07_1111,MusicAffectPsychophysiology2019,3.0.5,60.02271871961927,
To what extent did the music make you feel ,GUILTY,30MonoWAV/30MonoT2.wav,2,1,4,14,,,,,0,13,13,13,0,6,6,5,,,,,,,,,1,0.4188540719987941,,,003,001,2019_May_07_1111,MusicAffectPsychophysiology2019,3.0.5,60.02271871961927,
To what extent did the music make you feel ,ANXIOUS ,30MonoWAV/30MonoT2.wav,2,1,4,14,,,,,0,13,13,13,0,7,7,1,,,,,,,,,1,0.5179542229998333,,,003,001,2019_May_07_1111,MusicAffectPsychophysiology2019,3.0.5,60.02271871961927,
To what extent did the music make you feel ,ASHAMED,30MonoWAV/30MonoT2.wav,2,1,4,14,,,,,0,13,13,13,0,8,8,4,,,,,,,,,1,0.3846332519988209,,,003,001,2019_May_07_1111,MusicAffectPsychophysiology2019,3.0.5,60.02271871961927,
To what extent did the music make you feel ,HAPPY,30MonoWAV/30MonoT2.wav,2,1,4,14,,,,,0,13,13,13,0,9,9,6,,,,,,,,,2,1.9191384429996106,,,003,001,2019_May_07_1111,MusicAffectPsychophysiology2019,3.0.5,60.02271871961927,
To what extent did the music make you feel ,ANGRY,30MonoWAV/30MonoT2.wav,2,1,4,14,,,,,0,13,13,13,0,10,10,2,,,,,,,,,1,0.8345719949993509,,,003,001,2019_May_07_1111,MusicAffectPsychophysiology2019,3.0.5,60.02271871961927,
To what extent did the music make you feel ,ALERT,30MonoWAV/30MonoT2.wav,2,1,4,14,,,,,0,13,13,13,0,11,11,8,,,,,,,,,1,1.1691064679998817,,,003,001,2019_May_07_1111,MusicAffectPsychophysiology2019,3.0.5,60.02271871961927,
,,30MonoWAV/30MonoT2.wav,2,1,4,14,,,,,0,13,13,13,,,,,,,,,,,,,,,,,003,001,2019_May_07_1111,MusicAffectPsychophysiology2019,3.0.5,60.02271871961927,
To what extent did the music make you feel ,ACTIVE,30MonoWAV/30MonoS3.wav,1,1,3,11,,,,,0,14,14,10,0,0,0,9,,,1,4.968848915999843,2,2.335156545001155,,,1,1.4029181149999204,,,003,001,2019_May_07_1111,MusicAffectPsychophysiology2019,3.0.5,60.02271871961927,
To what extent did the music make you feel ,SAD,30MonoWAV/30MonoS3.wav,1,1,3,11,,,,,0,14,14,10,0,1,1,0,,,,,,,,,3,1.3680726429993229,,,003,001,2019_May_07_1111,MusicAffectPsychophysiology2019,3.0.5,60.02271871961927,
To what extent did the music make you feel ,TENDER,30MonoWAV/30MonoS3.wav,1,1,3,11,,,,,0,14,14,10,0,2,2,10,,,,,,,,,1,1.2183714160000818,,,003,001,2019_May_07_1111,MusicAffectPsychophysiology2019,3.0.5,60.02271871961927,
To what extent did the music make you feel ,SCARED,30MonoWAV/30MonoS3.wav,1,1,3,11,,,,,0,14,14,10,0,3,3,11,,,,,,,,,2,1.152751793999414,,,003,001,2019_May_07_1111,MusicAffectPsychophysiology2019,3.0.5,60.02271871961927,
To what extent did the music make you feel ,HAPPY,30MonoWAV/30MonoS3.wav,1,1,3,11,,,,,0,14,14,10,0,4,4,6,,,,,,,,,1,0.7180524469986267,,,003,001,2019_May_07_1111,MusicAffectPsychophysiology2019,3.0.5,60.02271871961927,
To what extent did the music make you feel ,GUILTY,30MonoWAV/30MonoS3.wav,1,1,3,11,,,,,0,14,14,10,0,5,5,5,,,,,,,,,1,1.002232152999568,,,003,001,2019_May_07_1111,MusicAffectPsychophysiology2019,3.0.5,60.02271871961927,
To what extent did the music make you feel ,ASHAMED,30MonoWAV/30MonoS3.wav,1,1,3,11,,,,,0,14,14,10,0,6,6,4,,,,,,,,,1,1.1686930849991768,,,003,001,2019_May_07_1111,MusicAffectPsychophysiology2019,3.0.5,60.02271871961927,
To what extent did the music make you feel ,EXCITED,30MonoWAV/30MonoS3.wav,1,1,3,11,,,,,0,14,14,10,0,7,7,7,,,,,,,,,1,1.1178486320004595,,,003,001,2019_May_07_1111,MusicAffectPsychophysiology2019,3.0.5,60.02271871961927,
To what extent did the music make you feel ,ANXIOUS ,30MonoWAV/30MonoS3.wav,1,1,3,11,,,,,0,14,14,10,0,8,8,1,,,,,,,,,2,1.085331836999103,,,003,001,2019_May_07_1111,MusicAffectPsychophysiology2019,3.0.5,60.02271871961927,
To what extent did the music make you feel ,FRUSTRATED,30MonoWAV/30MonoS3.wav,1,1,3,11,,,,,0,14,14,10,0,9,9,3,,,,,,,,,2,0.9686792400007107,,,003,001,2019_May_07_1111,MusicAffectPsychophysiology2019,3.0.5,60.02271871961927,
To what extent did the music make you feel ,ALERT,30MonoWAV/30MonoS3.wav,1,1,3,11,,,,,0,14,14,10,0,10,10,8,,,,,,,,,2,1.2690152729992406,,,003,001,2019_May_07_1111,MusicAffectPsychophysiology2019,3.0.5,60.02271871961927,
To what extent did the music make you feel ,ANGRY,30MonoWAV/30MonoS3.wav,1,1,3,11,,,,,0,14,14,10,0,11,11,2,,,,,,,,,2,1.0512351260003925,,,003,001,2019_May_07_1111,MusicAffectPsychophysiology2019,3.0.5,60.02271871961927,
,,30MonoWAV/30MonoS3.wav,1,1,3,11,,,,,0,14,14,10,,,,,,,,,,,,,,,,,003,001,2019_May_07_1111,MusicAffectPsychophysiology2019,3.0.5,60.02271871961927,
To what extent did the music make you feel ,SCARED,30MonoWAV/30MonoF4.wav,1,2,2,4,,,,,0,15,15,3,0,0,0,11,,,1,3.0020808249992115,1,4.001876659000118,,,2,2.1343525490010506,,,003,001,2019_May_07_1111,MusicAffectPsychophysiology2019,3.0.5,60.02271871961927,
To what extent did the music make you feel ,ACTIVE,30MonoWAV/30MonoF4.wav,1,2,2,4,,,,,0,15,15,3,0,1,1,9,,,,,,,,,2,1.0355045980013529,,,003,001,2019_May_07_1111,MusicAffectPsychophysiology2019,3.0.5,60.02271871961927,
To what extent did the music make you feel ,ANXIOUS ,30MonoWAV/30MonoF4.wav,1,2,2,4,,,,,0,15,15,3,0,2,2,1,,,,,,,,,2,0.7014823629997409,,,003,001,2019_May_07_1111,MusicAffectPsychophysiology2019,3.0.5,60.02271871961927,
To what extent did the music make you feel ,HAPPY,30MonoWAV/30MonoF4.wav,1,2,2,4,,,,,0,15,15,3,0,3,3,6,,,,,,,,,1,0.8348151629998029,,,003,001,2019_May_07_1111,MusicAffectPsychophysiology2019,3.0.5,60.02271871961927,
To what extent did the music make you feel ,GUILTY,30MonoWAV/30MonoF4.wav,1,2,2,4,,,,,0,15,15,3,0,4,4,5,,,,,,,,,1,1.1182777650010394,,,003,001,2019_May_07_1111,MusicAffectPsychophysiology2019,3.0.5,60.02271871961927,
To what extent did the music make you feel ,ASHAMED,30MonoWAV/30MonoF4.wav,1,2,2,4,,,,,0,15,15,3,0,5,5,4,,,,,,,,,1,0.6529319789988222,,,003,001,2019_May_07_1111,MusicAffectPsychophysiology2019,3.0.5,60.02271871961927,
To what extent did the music make you feel ,SAD,30MonoWAV/30MonoF4.wav,1,2,2,4,,,,,0,15,15,3,0,6,6,0,,,,,,,,,1,1.184080023000206,,,003,001,2019_May_07_1111,MusicAffectPsychophysiology2019,3.0.5,60.02271871961927,
To what extent did the music make you feel ,FRUSTRATED,30MonoWAV/30MonoF4.wav,1,2,2,4,,,,,0,15,15,3,0,7,7,3,,,,,,,,,1,1.3182531450001989,,,003,001,2019_May_07_1111,MusicAffectPsychophysiology2019,3.0.5,60.02271871961927,
To what extent did the music make you feel ,ANGRY,30MonoWAV/30MonoF4.wav,1,2,2,4,,,,,0,15,15,3,0,8,8,2,,,,,,,,,1,0.8352252620006766,,,003,001,2019_May_07_1111,MusicAffectPsychophysiology2019,3.0.5,60.02271871961927,
To what extent did the music make you feel ,TENDER,30MonoWAV/30MonoF4.wav,1,2,2,4,,,,,0,15,15,3,0,9,9,10,,,,,,,,,1,0.7354632930000662,,,003,001,2019_May_07_1111,MusicAffectPsychophysiology2019,3.0.5,60.02271871961927,
To what extent did the music make you feel ,ALERT,30MonoWAV/30MonoF4.wav,1,2,2,4,,,,,0,15,15,3,0,10,10,8,,,,,,,,,1,0.6847307400003046,,,003,001,2019_May_07_1111,MusicAffectPsychophysiology2019,3.0.5,60.02271871961927,
To what extent did the music make you feel ,EXCITED,30MonoWAV/30MonoF4.wav,1,2,2,4,,,,,0,15,15,3,0,11,11,7,,,,,,,,,1,1.851327262000268,,,003,001,2019_May_07_1111,MusicAffectPsychophysiology2019,3.0.5,60.02271871961927,
,,30MonoWAV/30MonoF4.wav,1,2,2,4,,,,,0,15,15,3,,,,,,,,,,,,,,,,,003,001,2019_May_07_1111,MusicAffectPsychophysiology2019,3.0.5,60.02271871961927,
To what extent did the music make you feel ,ANXIOUS ,30MonoWAV/30MonoH4.wav,2,2,1,8,,,,,1,0,16,7,0,0,0,1,,,2,2.2404032689992164,2,1.0005543369989027,,,1,0.0016947879994404502,,,003,001,2019_May_07_1111,MusicAffectPsychophysiology2019,3.0.5,60.02271871961927,
To what extent did the music make you feel ,SCARED,30MonoWAV/30MonoH4.wav,2,2,1,8,,,,,1,0,16,7,0,1,1,11,,,,,,,,,1,2.6538457670012576,,,003,001,2019_May_07_1111,MusicAffectPsychophysiology2019,3.0.5,60.02271871961927,
To what extent did the music make you feel ,ASHAMED,30MonoWAV/30MonoH4.wav,2,2,1,8,,,,,1,0,16,7,0,2,2,4,,,,,,,,,1,2.4212923659997614,,,003,001,2019_May_07_1111,MusicAffectPsychophysiology2019,3.0.5,60.02271871961927,
To what extent did the music make you feel ,SAD,30MonoWAV/30MonoH4.wav,2,2,1,8,,,,,1,0,16,7,0,3,3,0,,,,,,,,,1,0.7360365240001556,,,003,001,2019_May_07_1111,MusicAffectPsychophysiology2019,3.0.5,60.02271871961927,
To what extent did the music make you feel ,ACTIVE,30MonoWAV/30MonoH4.wav,2,2,1,8,,,,,1,0,16,7,0,4,4,9,,,,,,,,,3,1.6377343999993172,,,003,001,2019_May_07_1111,MusicAffectPsychophysiology2019,3.0.5,60.02271871961927,
To what extent did the music make you feel ,ALERT,30MonoWAV/30MonoH4.wav,2,2,1,8,,,,,1,0,16,7,0,5,5,8,,,,,,,,,2,1.2022690920002788,,,003,001,2019_May_07_1111,MusicAffectPsychophysiology2019,3.0.5,60.02271871961927,
To what extent did the music make you feel ,ANGRY,30MonoWAV/30MonoH4.wav,2,2,1,8,,,,,1,0,16,7,0,6,6,2,,,,,,,,,1,1.1367878720011504,,,003,001,2019_May_07_1111,MusicAffectPsychophysiology2019,3.0.5,60.02271871961927,
To what extent did the music make you feel ,GUILTY,30MonoWAV/30MonoH4.wav,2,2,1,8,,,,,1,0,16,7,0,7,7,5,,,,,,,,,1,0.48571554299996933,,,003,001,2019_May_07_1111,MusicAffectPsychophysiology2019,3.0.5,60.02271871961927,
To what extent did the music make you feel ,EXCITED,30MonoWAV/30MonoH4.wav,2,2,1,8,,,,,1,0,16,7,0,8,8,7,,,,,,,,,2,1.3563963629985665,,,003,001,2019_May_07_1111,MusicAffectPsychophysiology2019,3.0.5,60.02271871961927,
To what extent did the music make you feel ,HAPPY,30MonoWAV/30MonoH4.wav,2,2,1,8,,,,,1,0,16,7,0,9,9,6,,,,,,,,,2,0.7348667549995298,,,003,001,2019_May_07_1111,MusicAffectPsychophysiology2019,3.0.5,60.02271871961927,
To what extent did the music make you feel ,TENDER,30MonoWAV/30MonoH4.wav,2,2,1,8,,,,,1,0,16,7,0,10,10,10,,,,,,,,,2,1.1690442669987533,,,003,001,2019_May_07_1111,MusicAffectPsychophysiology2019,3.0.5,60.02271871961927,
To what extent did the music make you feel ,FRUSTRATED,30MonoWAV/30MonoH4.wav,2,2,1,8,,,,,1,0,16,7,0,11,11,3,,,,,,,,,1,0.768366790998698,,,003,001,2019_May_07_1111,MusicAffectPsychophysiology2019,3.0.5,60.02271871961927,
,,30MonoWAV/30MonoH4.wav,2,2,1,8,,,,,1,0,16,7,,,,,,,,,,,,,,,,,003,001,2019_May_07_1111,MusicAffectPsychophysiology2019,3.0.5,60.02271871961927,
To what extent did the music make you feel ,ANXIOUS ,30MonoWAV/30MonoT3.wav,2,1,4,15,,,,,1,1,17,14,0,0,0,1,,,1,2.5370887809986016,4,1.6868548490001558,,,1,2.6253259389995947,,,003,001,2019_May_07_1111,MusicAffectPsychophysiology2019,3.0.5,60.02271871961927,
To what extent did the music make you feel ,EXCITED,30MonoWAV/30MonoT3.wav,2,1,4,15,,,,,1,1,17,14,0,1,1,7,,,,,,,,,1,0.98518929400052,,,003,001,2019_May_07_1111,MusicAffectPsychophysiology2019,3.0.5,60.02271871961927,
To what extent did the music make you feel ,ACTIVE,30MonoWAV/30MonoT3.wav,2,1,4,15,,,,,1,1,17,14,0,2,2,9,,,,,,,,,1,0.6842122329999256,,,003,001,2019_May_07_1111,MusicAffectPsychophysiology2019,3.0.5,60.02271871961927,
To what extent did the music make you feel ,ANGRY,30MonoWAV/30MonoT3.wav,2,1,4,15,,,,,1,1,17,14,0,3,3,2,,,,,,,,,1,0.602486087998841,,,003,001,2019_May_07_1111,MusicAffectPsychophysiology2019,3.0.5,60.02271871961927,
To what extent did the music make you feel ,FRUSTRATED,30MonoWAV/30MonoT3.wav,2,1,4,15,,,,,1,1,17,14,0,4,4,3,,,,,,,,,1,0.5355275479996635,,,003,001,2019_May_07_1111,MusicAffectPsychophysiology2019,3.0.5,60.02271871961927,
To what extent did the music make you feel ,SAD,30MonoWAV/30MonoT3.wav,2,1,4,15,,,,,1,1,17,14,0,5,5,0,,,,,,,,,1,1.6513338069999008,,,003,001,2019_May_07_1111,MusicAffectPsychophysiology2019,3.0.5,60.02271871961927,
To what extent did the music make you feel ,HAPPY,30MonoWAV/30MonoT3.wav,2,1,4,15,,,,,1,1,17,14,0,6,6,6,,,,,,,,,4,1.3665667419991223,,,003,001,2019_May_07_1111,MusicAffectPsychophysiology2019,3.0.5,60.02271871961927,
To what extent did the music make you feel ,SCARED,30MonoWAV/30MonoT3.wav,2,1,4,15,,,,,1,1,17,14,0,7,7,11,,,,,,,,,1,1.4179593860008026,,,003,001,2019_May_07_1111,MusicAffectPsychophysiology2019,3.0.5,60.02271871961927,
To what extent did the music make you feel ,GUILTY,30MonoWAV/30MonoT3.wav,2,1,4,15,,,,,1,1,17,14,0,8,8,5,,,,,,,,,1,0.6025995410000178,,,003,001,2019_May_07_1111,MusicAffectPsychophysiology2019,3.0.5,60.02271871961927,
To what extent did the music make you feel ,ASHAMED,30MonoWAV/30MonoT3.wav,2,1,4,15,,,,,1,1,17,14,0,9,9,4,,,,,,,,,1,0.5022949520007387,,,003,001,2019_May_07_1111,MusicAffectPsychophysiology2019,3.0.5,60.02271871961927,
To what extent did the music make you feel ,TENDER,30MonoWAV/30MonoT3.wav,2,1,4,15,,,,,1,1,17,14,0,10,10,10,,,,,,,,,5,1.8850566700002673,,,003,001,2019_May_07_1111,MusicAffectPsychophysiology2019,3.0.5,60.02271871961927,
To what extent did the music make you feel ,ALERT,30MonoWAV/30MonoT3.wav,2,1,4,15,,,,,1,1,17,14,0,11,11,8,,,,,,,,,1,2.3505428270000266,,,003,001,2019_May_07_1111,MusicAffectPsychophysiology2019,3.0.5,60.02271871961927,
,,30MonoWAV/30MonoT3.wav,2,1,4,15,,,,,1,1,17,14,,,,,,,,,,,,,,,,,003,001,2019_May_07_1111,MusicAffectPsychophysiology2019,3.0.5,60.02271871961927,
To what extent did the music make you feel ,ANGRY,30MonoWAV/30MonoT2.wav,2,1,4,14,,,,,1,2,18,13,0,0,0,2,,,1,3.035003757000595,5,1.6343006610004522,,,1,4.685001254998497,,,003,001,2019_May_07_1111,MusicAffectPsychophysiology2019,3.0.5,60.02271871961927,
To what extent did the music make you feel ,FRUSTRATED,30MonoWAV/30MonoT2.wav,2,1,4,14,,,,,1,2,18,13,0,1,1,3,,,,,,,,,1,2.935748194999178,,,003,001,2019_May_07_1111,MusicAffectPsychophysiology2019,3.0.5,60.02271871961927,
To what extent did the music make you feel ,SCARED,30MonoWAV/30MonoT2.wav,2,1,4,14,,,,,1,2,18,13,0,2,2,11,,,,,,,,,1,1.0344288569995115,,,003,001,2019_May_07_1111,MusicAffectPsychophysiology2019,3.0.5,60.02271871961927,
To what extent did the music make you feel ,SAD,30MonoWAV/30MonoT2.wav,2,1,4,14,,,,,1,2,18,13,0,3,3,0,,,,,,,,,3,1.9179076599994005,,,003,001,2019_May_07_1111,MusicAffectPsychophysiology2019,3.0.5,60.02271871961927,
To what extent did the music make you feel ,TENDER,30MonoWAV/30MonoT2.wav,2,1,4,14,,,,,1,2,18,13,0,4,4,10,,,,,,,,,5,1.335184665998895,,,003,001,2019_May_07_1111,MusicAffectPsychophysiology2019,3.0.5,60.02271871961927,
To what extent did the music make you feel ,EXCITED,30MonoWAV/30MonoT2.wav,2,1,4,14,,,,,1,2,18,13,0,5,5,7,,,,,,,,,2,1.268093548998877,,,003,001,2019_May_07_1111,MusicAffectPsychophysiology2019,3.0.5,60.02271871961927,
To what extent did the music make you feel ,HAPPY,30MonoWAV/30MonoT2.wav,2,1,4,14,,,,,1,2,18,13,0,6,6,6,,,,,,,,,4,1.3517214789990248,,,003,001,2019_May_07_1111,MusicAffectPsychophysiology2019,3.0.5,60.02271871961927,
To what extent did the music make you feel ,GUILTY,30MonoWAV/30MonoT2.wav,2,1,4,14,,,,,1,2,18,13,0,7,7,5,,,,,,,,,1,1.1849220830008562,,,003,001,2019_May_07_1111,MusicAffectPsychophysiology2019,3.0.5,60.02271871961927,
To what extent did the music make you feel ,ANXIOUS ,30MonoWAV/30MonoT2.wav,2,1,4,14,,,,,1,2,18,13,0,8,8,1,,,,,,,,,1,0.8355699050007388,,,003,001,2019_May_07_1111,MusicAffectPsychophysiology2019,3.0.5,60.02271871961927,
To what extent did the music make you feel ,ASHAMED,30MonoWAV/30MonoT2.wav,2,1,4,14,,,,,1,2,18,13,0,9,9,4,,,,,,,,,1,0.5009270680002373,,,003,001,2019_May_07_1111,MusicAffectPsychophysiology2019,3.0.5,60.02271871961927,
To what extent did the music make you feel ,ACTIVE,30MonoWAV/30MonoT2.wav,2,1,4,14,,,,,1,2,18,13,0,10,10,9,,,,,,,,,1,1.0514725829998497,,,003,001,2019_May_07_1111,MusicAffectPsychophysiology2019,3.0.5,60.02271871961927,
To what extent did the music make you feel ,ALERT,30MonoWAV/30MonoT2.wav,2,1,4,14,,,,,1,2,18,13,0,11,11,8,,,,,,,,,1,0.4024080849994789,,,003,001,2019_May_07_1111,MusicAffectPsychophysiology2019,3.0.5,60.02271871961927,
,,30MonoWAV/30MonoT2.wav,2,1,4,14,,,,,1,2,18,13,,,,,,,,,,,,,,,,,003,001,2019_May_07_1111,MusicAffectPsychophysiology2019,3.0.5,60.02271871961927,
To what extent did the music make you feel ,FRUSTRATED,30MonoWAV/30MonoS2.wav,1,1,3,10,,,,,1,3,19,9,0,0,0,3,,,1,6.350792703999105,2,2.368870059000983,,,1,4.023063610000463,,,003,001,2019_May_07_1111,MusicAffectPsychophysiology2019,3.0.5,60.02271871961927,
To what extent did the music make you feel ,GUILTY,30MonoWAV/30MonoS2.wav,1,1,3,10,,,,,1,3,19,9,0,1,1,5,,,,,,,,,1,1.6356829249998555,,,003,001,2019_May_07_1111,MusicAffectPsychophysiology2019,3.0.5,60.02271871961927,
To what extent did the music make you feel ,TENDER,30MonoWAV/30MonoS2.wav,1,1,3,10,,,,,1,3,19,9,0,2,2,10,,,,,,,,,2,1.3510088790008012,,,003,001,2019_May_07_1111,MusicAffectPsychophysiology2019,3.0.5,60.02271871961927,
To what extent did the music make you feel ,SAD,30MonoWAV/30MonoS2.wav,1,1,3,10,,,,,1,3,19,9,0,3,3,0,,,,,,,,,5,1.2678302959993744,,,003,001,2019_May_07_1111,MusicAffectPsychophysiology2019,3.0.5,60.02271871961927,
To what extent did the music make you feel ,ANXIOUS ,30MonoWAV/30MonoS2.wav,1,1,3,10,,,,,1,3,19,9,0,4,4,1,,,,,,,,,2,1.1017914349995408,,,003,001,2019_May_07_1111,MusicAffectPsychophysiology2019,3.0.5,60.02271871961927,
To what extent did the music make you feel ,ALERT,30MonoWAV/30MonoS2.wav,1,1,3,10,,,,,1,3,19,9,0,5,5,8,,,,,,,,,1,0.6844466839993402,,,003,001,2019_May_07_1111,MusicAffectPsychophysiology2019,3.0.5,60.02271871961927,
To what extent did the music make you feel ,EXCITED,30MonoWAV/30MonoS2.wav,1,1,3,10,,,,,1,3,19,9,0,6,6,7,,,,,,,,,1,0.43572004700035905,,,003,001,2019_May_07_1111,MusicAffectPsychophysiology2019,3.0.5,60.02271871961927,
To what extent did the music make you feel ,ANGRY,30MonoWAV/30MonoS2.wav,1,1,3,10,,,,,1,3,19,9,0,7,7,2,,,,,,,,,1,0.5675744169984682,,,003,001,2019_May_07_1111,MusicAffectPsychophysiology2019,3.0.5,60.02271871961927,
To what extent did the music make you feel ,SCARED,30MonoWAV/30MonoS2.wav,1,1,3,10,,,,,1,3,19,9,0,8,8,11,,,,,,,,,1,1.2348879109995323,,,003,001,2019_May_07_1111,MusicAffectPsychophysiology2019,3.0.5,60.02271871961927,
To what extent did the music make you feel ,ACTIVE,30MonoWAV/30MonoS2.wav,1,1,3,10,,,,,1,3,19,9,0,9,9,9,,,,,,,,,1,0.6852434169995831,,,003,001,2019_May_07_1111,MusicAffectPsychophysiology2019,3.0.5,60.02271871961927,
To what extent did the music make you feel ,HAPPY,30MonoWAV/30MonoS2.wav,1,1,3,10,,,,,1,3,19,9,0,10,10,6,,,,,,,,,1,0.8181819770015863,,,003,001,2019_May_07_1111,MusicAffectPsychophysiology2019,3.0.5,60.02271871961927,
To what extent did the music make you feel ,ASHAMED,30MonoWAV/30MonoS2.wav,1,1,3,10,,,,,1,3,19,9,0,11,11,4,,,,,,,,,1,1.3347566329994152,,,003,001,2019_May_07_1111,MusicAffectPsychophysiology2019,3.0.5,60.02271871961927,
,,30MonoWAV/30MonoS2.wav,1,1,3,10,,,,,1,3,19,9,,,,,,,,,,,,,,,,,003,001,2019_May_07_1111,MusicAffectPsychophysiology2019,3.0.5,60.02271871961927,
To what extent did the music make you feel ,GUILTY,30MonoWAV/30MonoS1.wav,1,1,3,9,,,,,1,4,20,8,0,0,0,5,,,1,3.1233070350008347,2,1.7873850710002444,,,1,5.425863378999566,,,003,001,2019_May_07_1111,MusicAffectPsychophysiology2019,3.0.5,60.02271871961927,
To what extent did the music make you feel ,HAPPY,30MonoWAV/30MonoS1.wav,1,1,3,9,,,,,1,4,20,8,0,1,1,6,,,,,,,,,1,1.2335348340002383,,,003,001,2019_May_07_1111,MusicAffectPsychophysiology2019,3.0.5,60.02271871961927,
To what extent did the music make you feel ,EXCITED,30MonoWAV/30MonoS1.wav,1,1,3,9,,,,,1,4,20,8,0,2,2,7,,,,,,,,,1,1.0194219980003254,,,003,001,2019_May_07_1111,MusicAffectPsychophysiology2019,3.0.5,60.02271871961927,
To what extent did the music make you feel ,ANXIOUS ,30MonoWAV/30MonoS1.wav,1,1,3,9,,,,,1,4,20,8,0,3,3,1,,,,,,,,,1,1.469026255999779,,,003,001,2019_May_07_1111,MusicAffectPsychophysiology2019,3.0.5,60.02271871961927,
To what extent did the music make you feel ,ACTIVE,30MonoWAV/30MonoS1.wav,1,1,3,9,,,,,1,4,20,8,0,4,4,9,,,,,,,,,1,3.351242151000406,,,003,001,2019_May_07_1111,MusicAffectPsychophysiology2019,3.0.5,60.02271871961927,
To what extent did the music make you feel ,SAD,30MonoWAV/30MonoS1.wav,1,1,3,9,,,,,1,4,20,8,0,5,5,0,,,,,,,,,4,1.5691794679987652,,,003,001,2019_May_07_1111,MusicAffectPsychophysiology2019,3.0.5,60.02271871961927,
To what extent did the music make you feel ,TENDER,30MonoWAV/30MonoS1.wav,1,1,3,9,,,,,1,4,20,8,0,6,6,10,,,,,,,,,4,1.1350811049996992,,,003,001,2019_May_07_1111,MusicAffectPsychophysiology2019,3.0.5,60.02271871961927,
To what extent did the music make you feel ,ALERT,30MonoWAV/30MonoS1.wav,1,1,3,9,,,,,1,4,20,8,0,7,7,8,,,,,,,,,1,0.951064093000241,,,003,001,2019_May_07_1111,MusicAffectPsychophysiology2019,3.0.5,60.02271871961927,
To what extent did the music make you feel ,SCARED,30MonoWAV/30MonoS1.wav,1,1,3,9,,,,,1,4,20,8,0,8,8,11,,,,,,,,,1,1.4522571739998966,,,003,001,2019_May_07_1111,MusicAffectPsychophysiology2019,3.0.5,60.02271871961927,
To what extent did the music make you feel ,FRUSTRATED,30MonoWAV/30MonoS1.wav,1,1,3,9,,,,,1,4,20,8,0,9,9,3,,,,,,,,,1,0.701640891000352,,,003,001,2019_May_07_1111,MusicAffectPsychophysiology2019,3.0.5,60.02271871961927,
To what extent did the music make you feel ,ASHAMED,30MonoWAV/30MonoS1.wav,1,1,3,9,,,,,1,4,20,8,0,10,10,4,,,,,,,,,2,1.3852918709999358,,,003,001,2019_May_07_1111,MusicAffectPsychophysiology2019,3.0.5,60.02271871961927,
To what extent did the music make you feel ,ANGRY,30MonoWAV/30MonoS1.wav,1,1,3,9,,,,,1,4,20,8,0,11,11,2,,,,,,,,,1,0.8170950059993629,,,003,001,2019_May_07_1111,MusicAffectPsychophysiology2019,3.0.5,60.02271871961927,
,,30MonoWAV/30MonoS1.wav,1,1,3,9,,,,,1,4,20,8,,,,,,,,,,,,,,,,,003,001,2019_May_07_1111,MusicAffectPsychophysiology2019,3.0.5,60.02271871961927,
To what extent did the music make you feel ,SAD,30MonoWAV/30MonoS4.wav,1,1,3,12,,,,,1,5,21,11,0,0,0,0,,,1,1.9844151189990953,1,1.3849514279991126,,,5,1.616639297000802,,,003,001,2019_May_07_1111,MusicAffectPsychophysiology2019,3.0.5,60.02271871961927,
To what extent did the music make you feel ,ASHAMED,30MonoWAV/30MonoS4.wav,1,1,3,12,,,,,1,5,21,11,0,1,1,4,,,,,,,,,1,1.2181970490000822,,,003,001,2019_May_07_1111,MusicAffectPsychophysiology2019,3.0.5,60.02271871961927,
To what extent did the music make you feel ,GUILTY,30MonoWAV/30MonoS4.wav,1,1,3,12,,,,,1,5,21,11,0,2,2,5,,,,,,,,,1,0.9183906109992677,,,003,001,2019_May_07_1111,MusicAffectPsychophysiology2019,3.0.5,60.02271871961927,
To what extent did the music make you feel ,ACTIVE,30MonoWAV/30MonoS4.wav,1,1,3,12,,,,,1,5,21,11,0,3,3,9,,,,,,,,,1,4.234806771000876,,,003,001,2019_May_07_1111,MusicAffectPsychophysiology2019,3.0.5,60.02271871961927,
To what extent did the music make you feel ,EXCITED,30MonoWAV/30MonoS4.wav,1,1,3,12,,,,,1,5,21,11,0,4,4,7,,,,,,,,,1,0.7518721349988482,,,003,001,2019_May_07_1111,MusicAffectPsychophysiology2019,3.0.5,60.02271871961927,
To what extent did the music make you feel ,ANGRY,30MonoWAV/30MonoS4.wav,1,1,3,12,,,,,1,5,21,11,0,5,5,2,,,,,,,,,1,0.9684935749992292,,,003,001,2019_May_07_1111,MusicAffectPsychophysiology2019,3.0.5,60.02271871961927,
To what extent did the music make you feel ,ANXIOUS ,30MonoWAV/30MonoS4.wav,1,1,3,12,,,,,1,5,21,11,0,6,6,1,,,,,,,,,1,1.1854288459999225,,,003,001,2019_May_07_1111,MusicAffectPsychophysiology2019,3.0.5,60.02271871961927,
To what extent did the music make you feel ,ALERT,30MonoWAV/30MonoS4.wav,1,1,3,12,,,,,1,5,21,11,0,7,7,8,,,,,,,,,1,0.7350046499996097,,,003,001,2019_May_07_1111,MusicAffectPsychophysiology2019,3.0.5,60.02271871961927,
To what extent did the music make you feel ,HAPPY,30MonoWAV/30MonoS4.wav,1,1,3,12,,,,,1,5,21,11,0,8,8,6,,,,,,,,,1,1.6675089030013623,,,003,001,2019_May_07_1111,MusicAffectPsychophysiology2019,3.0.5,60.02271871961927,
To what extent did the music make you feel ,SCARED,30MonoWAV/30MonoS4.wav,1,1,3,12,,,,,1,5,21,11,0,9,9,11,,,,,,,,,1,1.4024327999995876,,,003,001,2019_May_07_1111,MusicAffectPsychophysiology2019,3.0.5,60.02271871961927,
To what extent did the music make you feel ,FRUSTRATED,30MonoWAV/30MonoS4.wav,1,1,3,12,,,,,1,5,21,11,0,10,10,3,,,,,,,,,1,0.6692504299990105,,,003,001,2019_May_07_1111,MusicAffectPsychophysiology2019,3.0.5,60.02271871961927,
To what extent did the music make you feel ,TENDER,30MonoWAV/30MonoS4.wav,1,1,3,12,,,,,1,5,21,11,0,11,11,10,,,,,,,,,4,1.9349391699997796,,,003,001,2019_May_07_1111,MusicAffectPsychophysiology2019,3.0.5,60.02271871961927,
,,30MonoWAV/30MonoS4.wav,1,1,3,12,,,,,1,5,21,11,,,,,,,,,,,,,,,,,003,001,2019_May_07_1111,MusicAffectPsychophysiology2019,3.0.5,60.02271871961927,
To what extent did the music make you feel ,GUILTY,30MonoWAV/30MonoH2.wav,2,2,1,6,,,,,1,6,22,5,0,0,0,5,,,4,2.3889600100010284,5,1.537284603999069,,,1,2.319532015000732,,,003,001,2019_May_07_1111,MusicAffectPsychophysiology2019,3.0.5,60.02271871961927,
To what extent did the music make you feel ,HAPPY,30MonoWAV/30MonoH2.wav,2,2,1,6,,,,,1,6,22,5,0,1,1,6,,,,,,,,,4,1.4371955820006406,,,003,001,2019_May_07_1111,MusicAffectPsychophysiology2019,3.0.5,60.02271871961927,
To what extent did the music make you feel ,SCARED,30MonoWAV/30MonoH2.wav,2,2,1,6,,,,,1,6,22,5,0,2,2,11,,,,,,,,,1,1.0704074450004555,,,003,001,2019_May_07_1111,MusicAffectPsychophysiology2019,3.0.5,60.02271871961927,
To what extent did the music make you feel ,ASHAMED,30MonoWAV/30MonoH2.wav,2,2,1,6,,,,,1,6,22,5,0,3,3,4,,,,,,,,,1,0.8401052499993966,,,003,001,2019_May_07_1111,MusicAffectPsychophysiology2019,3.0.5,60.02271871961927,
To what extent did the music make you feel ,ALERT,30MonoWAV/30MonoH2.wav,2,2,1,6,,,,,1,6,22,5,0,4,4,8,,,,,,,,,1,0.5519717699989997,,,003,001,2019_May_07_1111,MusicAffectPsychophysiology2019,3.0.5,60.02271871961927,
To what extent did the music make you feel ,ANGRY,30MonoWAV/30MonoH2.wav,2,2,1,6,,,,,1,6,22,5,0,5,5,2,,,,,,,,,1,0.6187186570004997,,,003,001,2019_May_07_1111,MusicAffectPsychophysiology2019,3.0.5,60.02271871961927,
To what extent did the music make you feel ,ACTIVE,30MonoWAV/30MonoH2.wav,2,2,1,6,,,,,1,6,22,5,0,6,6,9,,,,,,,,,4,1.3839672679987416,,,003,001,2019_May_07_1111,MusicAffectPsychophysiology2019,3.0.5,60.02271871961927,
To what extent did the music make you feel ,TENDER,30MonoWAV/30MonoH2.wav,2,2,1,6,,,,,1,6,22,5,0,7,7,10,,,,,,,,,4,1.3025249260008422,,,003,001,2019_May_07_1111,MusicAffectPsychophysiology2019,3.0.5,60.02271871961927,
To what extent did the music make you feel ,EXCITED,30MonoWAV/30MonoH2.wav,2,2,1,6,,,,,1,6,22,5,0,8,8,7,,,,,,,,,1,1.0689354259993706,,,003,001,2019_May_07_1111,MusicAffectPsychophysiology2019,3.0.5,60.02271871961927,
To what extent did the music make you feel ,ANXIOUS ,30MonoWAV/30MonoH2.wav,2,2,1,6,,,,,1,6,22,5,0,9,9,1,,,,,,,,,1,0.9189503680008784,,,003,001,2019_May_07_1111,MusicAffectPsychophysiology2019,3.0.5,60.02271871961927,
To what extent did the music make you feel ,FRUSTRATED,30MonoWAV/30MonoH2.wav,2,2,1,6,,,,,1,6,22,5,0,10,10,3,,,,,,,,,1,0.8674377770003048,,,003,001,2019_May_07_1111,MusicAffectPsychophysiology2019,3.0.5,60.02271871961927,
To what extent did the music make you feel ,SAD,30MonoWAV/30MonoH2.wav,2,2,1,6,,,,,1,6,22,5,0,11,11,0,,,,,,,,,2,1.2164207490004628,,,003,001,2019_May_07_1111,MusicAffectPsychophysiology2019,3.0.5,60.02271871961927,
,,30MonoWAV/30MonoH2.wav,2,2,1,6,,,,,1,6,22,5,,,,,,,,,,,,,,,,,003,001,2019_May_07_1111,MusicAffectPsychophysiology2019,3.0.5,60.02271871961927,
To what extent did the music make you feel ,ANXIOUS ,30MonoWAV/30MonoH1.wav,2,2,1,5,,,,,1,7,23,4,0,0,0,1,,,5,2.1512589890007803,5,1.2021951200003969,,,1,1.2195414689995232,,,003,001,2019_May_07_1111,MusicAffectPsychophysiology2019,3.0.5,60.02271871961927,
To what extent did the music make you feel ,ANGRY,30MonoWAV/30MonoH1.wav,2,2,1,5,,,,,1,7,23,4,0,1,1,2,,,,,,,,,1,0.5354207230011525,,,003,001,2019_May_07_1111,MusicAffectPsychophysiology2019,3.0.5,60.02271871961927,
To what extent did the music make you feel ,GUILTY,30MonoWAV/30MonoH1.wav,2,2,1,5,,,,,1,7,23,4,0,2,2,5,,,,,,,,,1,0.48451547699914954,,,003,001,2019_May_07_1111,MusicAffectPsychophysiology2019,3.0.5,60.02271871961927,
To what extent did the music make you feel ,ACTIVE,30MonoWAV/30MonoH1.wav,2,2,1,5,,,,,1,7,23,4,0,3,3,9,,,,,,,,,3,1.5850454589999572,,,003,001,2019_May_07_1111,MusicAffectPsychophysiology2019,3.0.5,60.02271871961927,
To what extent did the music make you feel ,SAD,30MonoWAV/30MonoH1.wav,2,2,1,5,,,,,1,7,23,4,0,4,4,0,,,,,,,,,1,0.7851648819996626,,,003,001,2019_May_07_1111,MusicAffectPsychophysiology2019,3.0.5,60.02271871961927,
To what extent did the music make you feel ,TENDER,30MonoWAV/30MonoH1.wav,2,2,1,5,,,,,1,7,23,4,0,5,5,10,,,,,,,,,3,1.68453734600007,,,003,001,2019_May_07_1111,MusicAffectPsychophysiology2019,3.0.5,60.02271871961927,
To what extent did the music make you feel ,ALERT,30MonoWAV/30MonoH1.wav,2,2,1,5,,,,,1,7,23,4,0,6,6,8,,,,,,,,,1,1.43573218200072,,,003,001,2019_May_07_1111,MusicAffectPsychophysiology2019,3.0.5,60.02271871961927,
To what extent did the music make you feel ,EXCITED,30MonoWAV/30MonoH1.wav,2,2,1,5,,,,,1,7,23,4,0,7,7,7,,,,,,,,,5,1.3164098260003811,,,003,001,2019_May_07_1111,MusicAffectPsychophysiology2019,3.0.5,60.02271871961927,
To what extent did the music make you feel ,FRUSTRATED,30MonoWAV/30MonoH1.wav,2,2,1,5,,,,,1,7,23,4,0,8,8,3,,,,,,,,,1,1.0016143869997904,,,003,001,2019_May_07_1111,MusicAffectPsychophysiology2019,3.0.5,60.02271871961927,
To what extent did the music make you feel ,HAPPY,30MonoWAV/30MonoH1.wav,2,2,1,5,,,,,1,7,23,4,0,9,9,6,,,,,,,,,5,1.3497830149990477,,,003,001,2019_May_07_1111,MusicAffectPsychophysiology2019,3.0.5,60.02271871961927,
To what extent did the music make you feel ,ASHAMED,30MonoWAV/30MonoH1.wav,2,2,1,5,,,,,1,7,23,4,0,10,10,4,,,,,,,,,1,1.0523971749989869,,,003,001,2019_May_07_1111,MusicAffectPsychophysiology2019,3.0.5,60.02271871961927,
To what extent did the music make you feel ,SCARED,30MonoWAV/30MonoH1.wav,2,2,1,5,,,,,1,7,23,4,0,11,11,11,,,,,,,,,1,2.3513171790000342,,,003,001,2019_May_07_1111,MusicAffectPsychophysiology2019,3.0.5,60.02271871961927,
,,30MonoWAV/30MonoH1.wav,2,2,1,5,,,,,1,7,23,4,,,,,,,,,,,,,,,,,003,001,2019_May_07_1111,MusicAffectPsychophysiology2019,3.0.5,60.02271871961927,
To what extent did the music make you feel ,TENDER,30MonoWAV/30MonoH3.wav,2,2,1,7,,,,,1,8,24,6,0,0,0,10,,,4,3.6352114330002223,4,0.3523198590009997,,,4,1.7852089820007677,,,003,001,2019_May_07_1111,MusicAffectPsychophysiology2019,3.0.5,60.02271871961927,
To what extent did the music make you feel ,SAD,30MonoWAV/30MonoH3.wav,2,2,1,7,,,,,1,8,24,6,0,1,1,0,,,,,,,,,2,1.4500991419990896,,,003,001,2019_May_07_1111,MusicAffectPsychophysiology2019,3.0.5,60.02271871961927,
To what extent did the music make you feel ,ACTIVE,30MonoWAV/30MonoH3.wav,2,2,1,7,,,,,1,8,24,6,0,2,2,9,,,,,,,,,4,1.3190426299988758,,,003,001,2019_May_07_1111,MusicAffectPsychophysiology2019,3.0.5,60.02271871961927,
To what extent did the music make you feel ,ALERT,30MonoWAV/30MonoH3.wav,2,2,1,7,,,,,1,8,24,6,0,3,3,8,,,,,,,,,2,1.6178488250006922,,,003,001,2019_May_07_1111,MusicAffectPsychophysiology2019,3.0.5,60.02271871961927,
To what extent did the music make you feel ,EXCITED,30MonoWAV/30MonoH3.wav,2,2,1,7,,,,,1,8,24,6,0,4,4,7,,,,,,,,,5,1.2167708470005891,,,003,001,2019_May_07_1111,MusicAffectPsychophysiology2019,3.0.5,60.02271871961927,
To what extent did the music make you feel ,ANGRY,30MonoWAV/30MonoH3.wav,2,2,1,7,,,,,1,8,24,6,0,5,5,2,,,,,,,,,1,1.5019524979998096,,,003,001,2019_May_07_1111,MusicAffectPsychophysiology2019,3.0.5,60.02271871961927,
To what extent did the music make you feel ,GUILTY,30MonoWAV/30MonoH3.wav,2,2,1,7,,,,,1,8,24,6,0,6,6,5,,,,,,,,,1,0.818255952999607,,,003,001,2019_May_07_1111,MusicAffectPsychophysiology2019,3.0.5,60.02271871961927,
To what extent did the music make you feel ,HAPPY,30MonoWAV/30MonoH3.wav,2,2,1,7,,,,,1,8,24,6,0,7,7,6,,,,,,,,,4,1.5011103710003226,,,003,001,2019_May_07_1111,MusicAffectPsychophysiology2019,3.0.5,60.02271871961927,
To what extent did the music make you feel ,ANXIOUS ,30MonoWAV/30MonoH3.wav,2,2,1,7,,,,,1,8,24,6,0,8,8,1,,,,,,,,,1,0.7665398760000244,,,003,001,2019_May_07_1111,MusicAffectPsychophysiology2019,3.0.5,60.02271871961927,
To what extent did the music make you feel ,FRUSTRATED,30MonoWAV/30MonoH3.wav,2,2,1,7,,,,,1,8,24,6,0,9,9,3,,,,,,,,,1,0.5015244260011968,,,003,001,2019_May_07_1111,MusicAffectPsychophysiology2019,3.0.5,60.02271871961927,
To what extent did the music make you feel ,ASHAMED,30MonoWAV/30MonoH3.wav,2,2,1,7,,,,,1,8,24,6,0,10,10,4,,,,,,,,,1,0.5353797640000266,,,003,001,2019_May_07_1111,MusicAffectPsychophysiology2019,3.0.5,60.02271871961927,
To what extent did the music make you feel ,SCARED,30MonoWAV/30MonoH3.wav,2,2,1,7,,,,,1,8,24,6,0,11,11,11,,,,,,,,,1,0.6006797400004871,,,003,001,2019_May_07_1111,MusicAffectPsychophysiology2019,3.0.5,60.02271871961927,
,,30MonoWAV/30MonoH3.wav,2,2,1,7,,,,,1,8,24,6,,,,,,,,,,,,,,,,,003,001,2019_May_07_1111,MusicAffectPsychophysiology2019,3.0.5,60.02271871961927,
To what extent did the music make you feel ,ACTIVE,30MonoWAV/30MonoF4.wav,1,2,2,4,,,,,1,9,25,3,0,0,0,9,,,1,2.6349728740005958,1,1.1854170779988635,,,1,1.7562815210003464,,,003,001,2019_May_07_1111,MusicAffectPsychophysiology2019,3.0.5,60.02271871961927,
To what extent did the music make you feel ,TENDER,30MonoWAV/30MonoF4.wav,1,2,2,4,,,,,1,9,25,3,0,1,1,10,,,,,,,,,1,0.8350817560003634,,,003,001,2019_May_07_1111,MusicAffectPsychophysiology2019,3.0.5,60.02271871961927,
To what extent did the music make you feel ,GUILTY,30MonoWAV/30MonoF4.wav,1,2,2,4,,,,,1,9,25,3,0,2,2,5,,,,,,,,,2,1.28675734799981,,,003,001,2019_May_07_1111,MusicAffectPsychophysiology2019,3.0.5,60.02271871961927,
To what extent did the music make you feel ,ANXIOUS ,30MonoWAV/30MonoF4.wav,1,2,2,4,,,,,1,9,25,3,0,3,3,1,,,,,,,,,2,0.752341998000702,,,003,001,2019_May_07_1111,MusicAffectPsychophysiology2019,3.0.5,60.02271871961927,
To what extent did the music make you feel ,ASHAMED,30MonoWAV/30MonoF4.wav,1,2,2,4,,,,,1,9,25,3,0,4,4,4,,,,,,,,,1,1.0361589150015789,,,003,001,2019_May_07_1111,MusicAffectPsychophysiology2019,3.0.5,60.02271871961927,
To what extent did the music make you feel ,ANGRY,30MonoWAV/30MonoF4.wav,1,2,2,4,,,,,1,9,25,3,0,5,5,2,,,,,,,,,2,1.5366263249998156,,,003,001,2019_May_07_1111,MusicAffectPsychophysiology2019,3.0.5,60.02271871961927,
To what extent did the music make you feel ,ALERT,30MonoWAV/30MonoF4.wav,1,2,2,4,,,,,1,9,25,3,0,6,6,8,,,,,,,,,3,1.1233539629993174,,,003,001,2019_May_07_1111,MusicAffectPsychophysiology2019,3.0.5,60.02271871961927,
To what extent did the music make you feel ,SAD,30MonoWAV/30MonoF4.wav,1,2,2,4,,,,,1,9,25,3,0,7,7,0,,,,,,,,,4,1.3522821989990916,,,003,001,2019_May_07_1111,MusicAffectPsychophysiology2019,3.0.5,60.02271871961927,
To what extent did the music make you feel ,EXCITED,30MonoWAV/30MonoF4.wav,1,2,2,4,,,,,1,9,25,3,0,8,8,7,,,,,,,,,1,2.0025306719999207,,,003,001,2019_May_07_1111,MusicAffectPsychophysiology2019,3.0.5,60.02271871961927,
To what extent did the music make you feel ,SCARED,30MonoWAV/30MonoF4.wav,1,2,2,4,,,,,1,9,25,3,0,9,9,11,,,,,,,,,2,1.7014734250005858,,,003,001,2019_May_07_1111,MusicAffectPsychophysiology2019,3.0.5,60.02271871961927,
To what extent did the music make you feel ,HAPPY,30MonoWAV/30MonoF4.wav,1,2,2,4,,,,,1,9,25,3,0,10,10,6,,,,,,,,,1,1.3025903929992637,,,003,001,2019_May_07_1111,MusicAffectPsychophysiology2019,3.0.5,60.02271871961927,
To what extent did the music make you feel ,FRUSTRATED,30MonoWAV/30MonoF4.wav,1,2,2,4,,,,,1,9,25,3,0,11,11,3,,,,,,,,,2,1.4518082340000547,,,003,001,2019_May_07_1111,MusicAffectPsychophysiology2019,3.0.5,60.02271871961927,
,,30MonoWAV/30MonoF4.wav,1,2,2,4,,,,,1,9,25,3,,,,,,,,,,,,,,,,,003,001,2019_May_07_1111,MusicAffectPsychophysiology2019,3.0.5,60.02271871961927,
To what extent did the music make you feel ,HAPPY,30MonoWAV/30MonoF1.wav,1,2,2,1,,,,,1,10,26,0,0,0,0,6,,,1,2.7016073140002845,1,0.252336194000236,,,1,1.434695517000364,,,003,001,2019_May_07_1111,MusicAffectPsychophysiology2019,3.0.5,60.02271871961927,
To what extent did the music make you feel ,ASHAMED,30MonoWAV/30MonoF1.wav,1,2,2,1,,,,,1,10,26,0,0,1,1,4,,,,,,,,,2,2.78460620900114,,,003,001,2019_May_07_1111,MusicAffectPsychophysiology2019,3.0.5,60.02271871961927,
To what extent did the music make you feel ,SCARED,30MonoWAV/30MonoF1.wav,1,2,2,1,,,,,1,10,26,0,0,2,2,11,,,,,,,,,3,1.1184801589988638,,,003,001,2019_May_07_1111,MusicAffectPsychophysiology2019,3.0.5,60.02271871961927,
To what extent did the music make you feel ,ACTIVE,30MonoWAV/30MonoF1.wav,1,2,2,1,,,,,1,10,26,0,0,3,3,9,,,,,,,,,1,1.2002594779987703,,,003,001,2019_May_07_1111,MusicAffectPsychophysiology2019,3.0.5,60.02271871961927,
To what extent did the music make you feel ,EXCITED,30MonoWAV/30MonoF1.wav,1,2,2,1,,,,,1,10,26,0,0,4,4,7,,,,,,,,,1,0.7356264919999376,,,003,001,2019_May_07_1111,MusicAffectPsychophysiology2019,3.0.5,60.02271871961927,
To what extent did the music make you feel ,SAD,30MonoWAV/30MonoF1.wav,1,2,2,1,,,,,1,10,26,0,0,5,5,0,,,,,,,,,1,3.0679930000005697,,,003,001,2019_May_07_1111,MusicAffectPsychophysiology2019,3.0.5,60.02271871961927,
To what extent did the music make you feel ,FRUSTRATED,30MonoWAV/30MonoF1.wav,1,2,2,1,,,,,1,10,26,0,0,6,6,3,,,,,,,,,3,1.2849267199999304,,,003,001,2019_May_07_1111,MusicAffectPsychophysiology2019,3.0.5,60.02271871961927,
To what extent did the music make you feel ,ANGRY,30MonoWAV/30MonoF1.wav,1,2,2,1,,,,,1,10,26,0,0,7,7,2,,,,,,,,,3,1.0696731970001565,,,003,001,2019_May_07_1111,MusicAffectPsychophysiology2019,3.0.5,60.02271871961927,
To what extent did the music make you feel ,ALERT,30MonoWAV/30MonoF1.wav,1,2,2,1,,,,,1,10,26,0,0,8,8,8,,,,,,,,,3,1.3016274370002066,,,003,001,2019_May_07_1111,MusicAffectPsychophysiology2019,3.0.5,60.02271871961927,
To what extent did the music make you feel ,TENDER,30MonoWAV/30MonoF1.wav,1,2,2,1,,,,,1,10,26,0,0,9,9,10,,,,,,,,,1,0.9507957810001244,,,003,001,2019_May_07_1111,MusicAffectPsychophysiology2019,3.0.5,60.02271871961927,
To what extent did the music make you feel ,ANXIOUS ,30MonoWAV/30MonoF1.wav,1,2,2,1,,,,,1,10,26,0,0,10,10,1,,,,,,,,,3,1.8188764520000404,,,003,001,2019_May_07_1111,MusicAffectPsychophysiology2019,3.0.5,60.02271871961927,
To what extent did the music make you feel ,GUILTY,30MonoWAV/30MonoF1.wav,1,2,2,1,,,,,1,10,26,0,0,11,11,5,,,,,,,,,2,1.1193050429992581,,,003,001,2019_May_07_1111,MusicAffectPsychophysiology2019,3.0.5,60.02271871961927,
,,30MonoWAV/30MonoF1.wav,1,2,2,1,,,,,1,10,26,0,,,,,,,,,,,,,,,,,003,001,2019_May_07_1111,MusicAffectPsychophysiology2019,3.0.5,60.02271871961927,
To what extent did the music make you feel ,SAD,30MonoWAV/30MonoS3.wav,1,1,3,11,,,,,1,11,27,10,0,0,0,0,,,1,4.051554469999246,2,0.7689976159999787,,,4,2.1344794939996063,,,003,001,2019_May_07_1111,MusicAffectPsychophysiology2019,3.0.5,60.02271871961927,
To what extent did the music make you feel ,ALERT,30MonoWAV/30MonoS3.wav,1,1,3,11,,,,,1,11,27,10,0,1,1,8,,,,,,,,,2,1.6669034799997462,,,003,001,2019_May_07_1111,MusicAffectPsychophysiology2019,3.0.5,60.02271871961927,
To what extent did the music make you feel ,SCARED,30MonoWAV/30MonoS3.wav,1,1,3,11,,,,,1,11,27,10,0,2,2,11,,,,,,,,,2,1.23559243300042,,,003,001,2019_May_07_1111,MusicAffectPsychophysiology2019,3.0.5,60.02271871961927,
To what extent did the music make you feel ,EXCITED,30MonoWAV/30MonoS3.wav,1,1,3,11,,,,,1,11,27,10,0,3,3,7,,,,,,,,,1,1.5850270559985802,,,003,001,2019_May_07_1111,MusicAffectPsychophysiology2019,3.0.5,60.02271871961927,
To what extent did the music make you feel ,TENDER,30MonoWAV/30MonoS3.wav,1,1,3,11,,,,,1,11,27,10,0,4,4,10,,,,,,,,,1,1.1019687870011694,,,003,001,2019_May_07_1111,MusicAffectPsychophysiology2019,3.0.5,60.02271871961927,
To what extent did the music make you feel ,ACTIVE,30MonoWAV/30MonoS3.wav,1,1,3,11,,,,,1,11,27,10,0,5,5,9,,,,,,,,,1,1.7192764199990052,,,003,001,2019_May_07_1111,MusicAffectPsychophysiology2019,3.0.5,60.02271871961927,
To what extent did the music make you feel ,ANGRY,30MonoWAV/30MonoS3.wav,1,1,3,11,,,,,1,11,27,10,0,6,6,2,,,,,,,,,2,1.2682315379988722,,,003,001,2019_May_07_1111,MusicAffectPsychophysiology2019,3.0.5,60.02271871961927,
To what extent did the music make you feel ,FRUSTRATED,30MonoWAV/30MonoS3.wav,1,1,3,11,,,,,1,11,27,10,0,7,7,3,,,,,,,,,2,0.7685692190007103,,,003,001,2019_May_07_1111,MusicAffectPsychophysiology2019,3.0.5,60.02271871961927,
To what extent did the music make you feel ,ANXIOUS ,30MonoWAV/30MonoS3.wav,1,1,3,11,,,,,1,11,27,10,0,8,8,1,,,,,,,,,2,0.668153684000572,,,003,001,2019_May_07_1111,MusicAffectPsychophysiology2019,3.0.5,60.02271871961927,
To what extent did the music make you feel ,ASHAMED,30MonoWAV/30MonoS3.wav,1,1,3,11,,,,,1,11,27,10,0,9,9,4,,,,,,,,,2,1.3352446999997483,,,003,001,2019_May_07_1111,MusicAffectPsychophysiology2019,3.0.5,60.02271871961927,
To what extent did the music make you feel ,GUILTY,30MonoWAV/30MonoS3.wav,1,1,3,11,,,,,1,11,27,10,0,10,10,5,,,,,,,,,3,1.1682719180007552,,,003,001,2019_May_07_1111,MusicAffectPsychophysiology2019,3.0.5,60.02271871961927,
To what extent did the music make you feel ,HAPPY,30MonoWAV/30MonoS3.wav,1,1,3,11,,,,,1,11,27,10,0,11,11,6,,,,,,,,,1,1.301988978000736,,,003,001,2019_May_07_1111,MusicAffectPsychophysiology2019,3.0.5,60.02271871961927,
,,30MonoWAV/30MonoS3.wav,1,1,3,11,,,,,1,11,27,10,,,,,,,,,,,,,,,,,003,001,2019_May_07_1111,MusicAffectPsychophysiology2019,3.0.5,60.02271871961927,
To what extent did the music make you feel ,HAPPY,30MonoWAV/30MonoF2.wav,1,2,2,2,,,,,1,12,28,1,0,0,0,6,,,1,4.268254312000863,1,1.6506665119995887,,,1,1.068497207999826,,,003,001,2019_May_07_1111,MusicAffectPsychophysiology2019,3.0.5,60.02271871961927,
To what extent did the music make you feel ,ACTIVE,30MonoWAV/30MonoF2.wav,1,2,2,2,,,,,1,12,28,1,0,1,1,9,,,,,,,,,1,1.334370440999919,,,003,001,2019_May_07_1111,MusicAffectPsychophysiology2019,3.0.5,60.02271871961927,
To what extent did the music make you feel ,ALERT,30MonoWAV/30MonoF2.wav,1,2,2,2,,,,,1,12,28,1,0,2,2,8,,,,,,,,,1,1.0847604780010442,,,003,001,2019_May_07_1111,MusicAffectPsychophysiology2019,3.0.5,60.02271871961927,
To what extent did the music make you feel ,ASHAMED,30MonoWAV/30MonoF2.wav,1,2,2,2,,,,,1,12,28,1,0,3,3,4,,,,,,,,,2,1.6517840680007794,,,003,001,2019_May_07_1111,MusicAffectPsychophysiology2019,3.0.5,60.02271871961927,
To what extent did the music make you feel ,ANGRY,30MonoWAV/30MonoF2.wav,1,2,2,2,,,,,1,12,28,1,0,4,4,2,,,,,,,,,3,1.3682594479996624,,,003,001,2019_May_07_1111,MusicAffectPsychophysiology2019,3.0.5,60.02271871961927,
To what extent did the music make you feel ,EXCITED,30MonoWAV/30MonoF2.wav,1,2,2,2,,,,,1,12,28,1,0,5,5,7,,,,,,,,,1,1.4510794460002217,,,003,001,2019_May_07_1111,MusicAffectPsychophysiology2019,3.0.5,60.02271871961927,
To what extent did the music make you feel ,TENDER,30MonoWAV/30MonoF2.wav,1,2,2,2,,,,,1,12,28,1,0,6,6,10,,,,,,,,,1,0.866387477999524,,,003,001,2019_May_07_1111,MusicAffectPsychophysiology2019,3.0.5,60.02271871961927,
To what extent did the music make you feel ,SCARED,30MonoWAV/30MonoF2.wav,1,2,2,2,,,,,1,12,28,1,0,7,7,11,,,,,,,,,3,1.7682910000003176,,,003,001,2019_May_07_1111,MusicAffectPsychophysiology2019,3.0.5,60.02271871961927,
To what extent did the music make you feel ,GUILTY,30MonoWAV/30MonoF2.wav,1,2,2,2,,,,,1,12,28,1,0,8,8,5,,,,,,,,,3,1.5680427799998142,,,003,001,2019_May_07_1111,MusicAffectPsychophysiology2019,3.0.5,60.02271871961927,
To what extent did the music make you feel ,FRUSTRATED,30MonoWAV/30MonoF2.wav,1,2,2,2,,,,,1,12,28,1,0,9,9,3,,,,,,,,,3,1.2675100689993997,,,003,001,2019_May_07_1111,MusicAffectPsychophysiology2019,3.0.5,60.02271871961927,
To what extent did the music make you feel ,SAD,30MonoWAV/30MonoF2.wav,1,2,2,2,,,,,1,12,28,1,0,10,10,0,,,,,,,,,2,1.7017432350003219,,,003,001,2019_May_07_1111,MusicAffectPsychophysiology2019,3.0.5,60.02271871961927,
To what extent did the music make you feel ,ANXIOUS ,30MonoWAV/30MonoF2.wav,1,2,2,2,,,,,1,12,28,1,0,11,11,1,,,,,,,,,4,1.1338555910006107,,,003,001,2019_May_07_1111,MusicAffectPsychophysiology2019,3.0.5,60.02271871961927,
,,30MonoWAV/30MonoF2.wav,1,2,2,2,,,,,1,12,28,1,,,,,,,,,,,,,,,,,003,001,2019_May_07_1111,MusicAffectPsychophysiology2019,3.0.5,60.02271871961927,
To what extent did the music make you feel ,GUILTY,30MonoWAV/30MonoF3.wav,1,2,2,3,,,,,1,13,29,2,0,0,0,5,,,1,5.034866476999014,2,1.5172845130000496,,,2,2.10196256800009,,,003,001,2019_May_07_1111,MusicAffectPsychophysiology2019,3.0.5,60.02271871961927,
To what extent did the music make you feel ,EXCITED,30MonoWAV/30MonoF3.wav,1,2,2,3,,,,,1,13,29,2,0,1,1,7,,,,,,,,,1,0.8673511079996388,,,003,001,2019_May_07_1111,MusicAffectPsychophysiology2019,3.0.5,60.02271871961927,
To what extent did the music make you feel ,HAPPY,30MonoWAV/30MonoF3.wav,1,2,2,3,,,,,1,13,29,2,0,2,2,6,,,,,,,,,1,0.7856738740010769,,,003,001,2019_May_07_1111,MusicAffectPsychophysiology2019,3.0.5,60.02271871961927,
To what extent did the music make you feel ,SCARED,30MonoWAV/30MonoF3.wav,1,2,2,3,,,,,1,13,29,2,0,3,3,11,,,,,,,,,2,1.4518047679994197,,,003,001,2019_May_07_1111,MusicAffectPsychophysiology2019,3.0.5,60.02271871961927,
To what extent did the music make you feel ,ACTIVE,30MonoWAV/30MonoF3.wav,1,2,2,3,,,,,1,13,29,2,0,4,4,9,,,,,,,,,3,1.4519892440002877,,,003,001,2019_May_07_1111,MusicAffectPsychophysiology2019,3.0.5,60.02271871961927,
To what extent did the music make you feel ,SAD,30MonoWAV/30MonoF3.wav,1,2,2,3,,,,,1,13,29,2,0,5,5,0,,,,,,,,,1,1.4351521619992127,,,003,001,2019_May_07_1111,MusicAffectPsychophysiology2019,3.0.5,60.02271871961927,
To what extent did the music make you feel ,ALERT,30MonoWAV/30MonoF3.wav,1,2,2,3,,,,,1,13,29,2,0,6,6,8,,,,,,,,,4,2.0848380600000382,,,003,001,2019_May_07_1111,MusicAffectPsychophysiology2019,3.0.5,60.02271871961927,
To what extent did the music make you feel ,TENDER,30MonoWAV/30MonoF3.wav,1,2,2,3,,,,,1,13,29,2,0,7,7,10,,,,,,,,,1,1.068311046999952,,,003,001,2019_May_07_1111,MusicAffectPsychophysiology2019,3.0.5,60.02271871961927,
To what extent did the music make you feel ,ASHAMED,30MonoWAV/30MonoF3.wav,1,2,2,3,,,,,1,13,29,2,0,8,8,4,,,,,,,,,1,1.051671539000381,,,003,001,2019_May_07_1111,MusicAffectPsychophysiology2019,3.0.5,60.02271871961927,
To what extent did the music make you feel ,ANXIOUS ,30MonoWAV/30MonoF3.wav,1,2,2,3,,,,,1,13,29,2,0,9,9,1,,,,,,,,,2,1.6517721110012644,,,003,001,2019_May_07_1111,MusicAffectPsychophysiology2019,3.0.5,60.02271871961927,
To what extent did the music make you feel ,FRUSTRATED,30MonoWAV/30MonoF3.wav,1,2,2,3,,,,,1,13,29,2,0,10,10,3,,,,,,,,,2,2.383907276998798,,,003,001,2019_May_07_1111,MusicAffectPsychophysiology2019,3.0.5,60.02271871961927,
To what extent did the music make you feel ,ANGRY,30MonoWAV/30MonoF3.wav,1,2,2,3,,,,,1,13,29,2,0,11,11,2,,,,,,,,,1,1.1199895120007568,,,003,001,2019_May_07_1111,MusicAffectPsychophysiology2019,3.0.5,60.02271871961927,
,,30MonoWAV/30MonoF3.wav,1,2,2,3,,,,,1,13,29,2,,,,,,,,,,,,,,,,,003,001,2019_May_07_1111,MusicAffectPsychophysiology2019,3.0.5,60.02271871961927,
To what extent did the music make you feel ,SAD,30MonoWAV/30MonoT4.wav,2,1,4,16,,,,,1,14,30,15,0,0,0,0,,,2,3.285240098999566,3,1.3525468480002019,,,5,1.7181804739993822,,,003,001,2019_May_07_1111,MusicAffectPsychophysiology2019,3.0.5,60.02271871961927,
To what extent did the music make you feel ,ANGRY,30MonoWAV/30MonoT4.wav,2,1,4,16,,,,,1,14,30,15,0,1,1,2,,,,,,,,,1,1.0518150860007154,,,003,001,2019_May_07_1111,MusicAffectPsychophysiology2019,3.0.5,60.02271871961927,
To what extent did the music make you feel ,ANXIOUS ,30MonoWAV/30MonoT4.wav,2,1,4,16,,,,,1,14,30,15,0,2,2,1,,,,,,,,,1,1.2349948620012583,,,003,001,2019_May_07_1111,MusicAffectPsychophysiology2019,3.0.5,60.02271871961927,
To what extent did the music make you feel ,GUILTY,30MonoWAV/30MonoT4.wav,2,1,4,16,,,,,1,14,30,15,0,3,3,5,,,,,,,,,1,0.9870221270011825,,,003,001,2019_May_07_1111,MusicAffectPsychophysiology2019,3.0.5,60.02271871961927,
To what extent did the music make you feel ,ASHAMED,30MonoWAV/30MonoT4.wav,2,1,4,16,,,,,1,14,30,15,0,4,4,4,,,,,,,,,1,0.9516605189983238,,,003,001,2019_May_07_1111,MusicAffectPsychophysiology2019,3.0.5,60.02271871961927,
To what extent did the music make you feel ,SCARED,30MonoWAV/30MonoT4.wav,2,1,4,16,,,,,1,14,30,15,0,5,5,11,,,,,,,,,1,1.618676117999712,,,003,001,2019_May_07_1111,MusicAffectPsychophysiology2019,3.0.5,60.02271871961927,
To what extent did the music make you feel ,EXCITED,30MonoWAV/30MonoT4.wav,2,1,4,16,,,,,1,14,30,15,0,6,6,7,,,,,,,,,1,1.6013535450001655,,,003,001,2019_May_07_1111,MusicAffectPsychophysiology2019,3.0.5,60.02271871961927,
To what extent did the music make you feel ,HAPPY,30MonoWAV/30MonoT4.wav,2,1,4,16,,,,,1,14,30,15,0,7,7,6,,,,,,,,,2,1.1351078649986448,,,003,001,2019_May_07_1111,MusicAffectPsychophysiology2019,3.0.5,60.02271871961927,
To what extent did the music make you feel ,TENDER,30MonoWAV/30MonoT4.wav,2,1,4,16,,,,,1,14,30,15,0,8,8,10,,,,,,,,,5,1.369625946999804,,,003,001,2019_May_07_1111,MusicAffectPsychophysiology2019,3.0.5,60.02271871961927,
To what extent did the music make you feel ,FRUSTRATED,30MonoWAV/30MonoT4.wav,2,1,4,16,,,,,1,14,30,15,0,9,9,3,,,,,,,,,1,1.5685097879995737,,,003,001,2019_May_07_1111,MusicAffectPsychophysiology2019,3.0.5,60.02271871961927,
To what extent did the music make you feel ,ALERT,30MonoWAV/30MonoT4.wav,2,1,4,16,,,,,1,14,30,15,0,10,10,8,,,,,,,,,1,1.5187183420002839,,,003,001,2019_May_07_1111,MusicAffectPsychophysiology2019,3.0.5,60.02271871961927,
To what extent did the music make you feel ,ACTIVE,30MonoWAV/30MonoT4.wav,2,1,4,16,,,,,1,14,30,15,0,11,11,9,,,,,,,,,1,1.518783796000207,,,003,001,2019_May_07_1111,MusicAffectPsychophysiology2019,3.0.5,60.02271871961927,
,,30MonoWAV/30MonoT4.wav,2,1,4,16,,,,,1,14,30,15,,,,,,,,,,,,,,,,,003,001,2019_May_07_1111,MusicAffectPsychophysiology2019,3.0.5,60.02271871961927,
To what extent did the music make you feel ,ASHAMED,30MonoWAV/30MonoT1.wav,2,1,4,13,,,,,1,15,31,12,0,0,0,4,,,1,3.267243952001081,2,1.2016808609987493,,,1,3.117869065999912,,,003,001,2019_May_07_1111,MusicAffectPsychophysiology2019,3.0.5,60.02271871961927,
To what extent did the music make you feel ,ANGRY,30MonoWAV/30MonoT1.wav,2,1,4,13,,,,,1,15,31,12,0,1,1,2,,,,,,,,,1,2.084831011999995,,,003,001,2019_May_07_1111,MusicAffectPsychophysiology2019,3.0.5,60.02271871961927,
To what extent did the music make you feel ,EXCITED,30MonoWAV/30MonoT1.wav,2,1,4,13,,,,,1,15,31,12,0,2,2,7,,,,,,,,,2,1.567487895999875,,,003,001,2019_May_07_1111,MusicAffectPsychophysiology2019,3.0.5,60.02271871961927,
To what extent did the music make you feel ,FRUSTRATED,30MonoWAV/30MonoT1.wav,2,1,4,13,,,,,1,15,31,12,0,3,3,3,,,,,,,,,1,1.651454544000444,,,003,001,2019_May_07_1111,MusicAffectPsychophysiology2019,3.0.5,60.02271871961927,
To what extent did the music make you feel ,GUILTY,30MonoWAV/30MonoT1.wav,2,1,4,13,,,,,1,15,31,12,0,4,4,5,,,,,,,,,1,0.9349929439995321,,,003,001,2019_May_07_1111,MusicAffectPsychophysiology2019,3.0.5,60.02271871961927,
To what extent did the music make you feel ,SAD,30MonoWAV/30MonoT1.wav,2,1,4,13,,,,,1,15,31,12,0,5,5,0,,,,,,,,,4,1.5389927109990822,,,003,001,2019_May_07_1111,MusicAffectPsychophysiology2019,3.0.5,60.02271871961927,
To what extent did the music make you feel ,ALERT,30MonoWAV/30MonoT1.wav,2,1,4,13,,,,,1,15,31,12,0,6,6,8,,,,,,,,,1,2.388388338000368,,,003,001,2019_May_07_1111,MusicAffectPsychophysiology2019,3.0.5,60.02271871961927,
To what extent did the music make you feel ,ACTIVE,30MonoWAV/30MonoT1.wav,2,1,4,13,,,,,1,15,31,12,0,7,7,9,,,,,,,,,1,2.086480060001122,,,003,001,2019_May_07_1111,MusicAffectPsychophysiology2019,3.0.5,60.02271871961927,
To what extent did the music make you feel ,TENDER,30MonoWAV/30MonoT1.wav,2,1,4,13,,,,,1,15,31,12,0,8,8,10,,,,,,,,,4,3.674135949000629,,,003,001,2019_May_07_1111,MusicAffectPsychophysiology2019,3.0.5,60.02271871961927,
To what extent did the music make you feel ,SCARED,30MonoWAV/30MonoT1.wav,2,1,4,13,,,,,1,15,31,12,0,9,9,11,,,,,,,,,1,2.102262377999068,,,003,001,2019_May_07_1111,MusicAffectPsychophysiology2019,3.0.5,60.02271871961927,
To what extent did the music make you feel ,ANXIOUS ,30MonoWAV/30MonoT1.wav,2,1,4,13,,,,,1,15,31,12,0,10,10,1,,,,,,,,,1,2.2515209449993563,,,003,001,2019_May_07_1111,MusicAffectPsychophysiology2019,3.0.5,60.02271871961927,
To what extent did the music make you feel ,HAPPY,30MonoWAV/30MonoT1.wav,2,1,4,13,,,,,1,15,31,12,0,11,11,6,,,,,,,,,2,1.7342997119994834,,,003,001,2019_May_07_1111,MusicAffectPsychophysiology2019,3.0.5,60.02271871961927,
,,30MonoWAV/30MonoT1.wav,2,1,4,13,,,,,1,15,31,12,,,,,,,,,,,,,,,,,003,001,2019_May_07_1111,MusicAffectPsychophysiology2019,3.0.5,60.02271871961927,
,,,,,,,,,,,,,,,,,,,,,,,,,,,,,space,380.4082850199993,003,001,2019_May_07_1111,MusicAffectPsychophysiology2019,3.0.5,60.02271871961927,
