Instruction,Word,song,valence,arousal,affectcat,songmark,pracwords.thisRepN,pracwords.thisTrialN,pracwords.thisN,pracwords.thisIndex,songtrials.thisRepN,songtrials.thisTrialN,songtrials.thisN,songtrials.thisIndex,words.thisRepN,words.thisTrialN,words.thisN,words.thisIndex,begin.keys,begin.rt,arousalkey.keys,arousalkey.rt,valencekey.keys,valencekey.rt,likekey.keys,likekey.rt,WordResponse.keys,WordResponse.rt,participant,session,date,expName,psychopyVersion,frameRate,
,,,,,,,,,,,,,,,,,,,space,14.718586375000086,,,,,,,,,004,001,2019_May_07_1301,MusicAffectPsychophysiology2019,3.0.5,59.903228730235696,
,,,,,,,,,,,,,,,,,,,,,4,6.03367850900031,,,,,,,004,001,2019_May_07_1301,MusicAffectPsychophysiology2019,3.0.5,59.903228730235696,
,,,,,,,,,,,,,,,,,,,,,,,4,4.750346701001035,,,,,004,001,2019_May_07_1301,MusicAffectPsychophysiology2019,3.0.5,59.903228730235696,
,,,,,,,,,,,,,,,,,,,,,,,,,3,3.28497382400019,,,004,001,2019_May_07_1301,MusicAffectPsychophysiology2019,3.0.5,59.903228730235696,
To what extent did the music make you feel ,SAD,,,,,,0,0,0,0,,,,,,,,,,,,,,,,,2,4.282564573000855,004,001,2019_May_07_1301,MusicAffectPsychophysiology2019,3.0.5,59.903228730235696,
To what extent did the music make you feel ,FRUSTRATED,,,,,,0,1,1,3,,,,,,,,,,,,,,,,,1,2.0511964750003244,004,001,2019_May_07_1301,MusicAffectPsychophysiology2019,3.0.5,59.903228730235696,
To what extent did the music make you feel ,ANGRY,,,,,,0,2,2,2,,,,,,,,,,,,,,,,,1,1.7500529070002813,004,001,2019_May_07_1301,MusicAffectPsychophysiology2019,3.0.5,59.903228730235696,
To what extent did the music make you feel ,GUILTY,,,,,,0,3,3,5,,,,,,,,,,,,,,,,,2,2.4020678969991422,004,001,2019_May_07_1301,MusicAffectPsychophysiology2019,3.0.5,59.903228730235696,
To what extent did the music make you feel ,EXCITED,,,,,,0,4,4,7,,,,,,,,,,,,,,,,,3,2.78472577499997,004,001,2019_May_07_1301,MusicAffectPsychophysiology2019,3.0.5,59.903228730235696,
To what extent did the music make you feel ,ASHAMED,,,,,,0,5,5,4,,,,,,,,,,,,,,,,,2,2.5674079890013672,004,001,2019_May_07_1301,MusicAffectPsychophysiology2019,3.0.5,59.903228730235696,
To what extent did the music make you feel ,ALERT,,,,,,0,6,6,8,,,,,,,,,,,,,,,,,4,3.6166446059996815,004,001,2019_May_07_1301,MusicAffectPsychophysiology2019,3.0.5,59.903228730235696,
To what extent did the music make you feel ,HAPPY,,,,,,0,7,7,6,,,,,,,,,,,,,,,,,5,2.384454215000005,004,001,2019_May_07_1301,MusicAffectPsychophysiology2019,3.0.5,59.903228730235696,
To what extent did the music make you feel ,ACTIVE,,,,,,0,8,8,9,,,,,,,,,,,,,,,,,5,2.418465799000842,004,001,2019_May_07_1301,MusicAffectPsychophysiology2019,3.0.5,59.903228730235696,
To what extent did the music make you feel ,ANXIOUS ,,,,,,0,9,9,1,,,,,,,,,,,,,,,,,2,2.0012084219997632,004,001,2019_May_07_1301,MusicAffectPsychophysiology2019,3.0.5,59.903228730235696,
To what extent did the music make you feel ,TENDER,,,,,,0,10,10,10,,,,,,,,,,,,,,,,,5,2.3691363819998514,004,001,2019_May_07_1301,MusicAffectPsychophysiology2019,3.0.5,59.903228730235696,
To what extent did the music make you feel ,SCARED,,,,,,0,11,11,11,,,,,,,,,,,,,,,,,1,2.201959440000792,004,001,2019_May_07_1301,MusicAffectPsychophysiology2019,3.0.5,59.903228730235696,
To what extent did the music make you feel ,FRUSTRATED,30MonoWAV/30MonoT2.wav,2,1,4,14,,,,,0,0,0,13,0,0,0,3,,,3,4.468101436999859,4,3.3357206490018143,,,1,2.9075371450016974,004,001,2019_May_07_1301,MusicAffectPsychophysiology2019,3.0.5,59.903228730235696,
To what extent did the music make you feel ,HAPPY,30MonoWAV/30MonoT2.wav,2,1,4,14,,,,,0,0,0,13,0,1,1,6,,,,,,,,,4,2.8350370090010983,004,001,2019_May_07_1301,MusicAffectPsychophysiology2019,3.0.5,59.903228730235696,
To what extent did the music make you feel ,EXCITED,30MonoWAV/30MonoT2.wav,2,1,4,14,,,,,0,0,0,13,0,2,2,7,,,,,,,,,3,1.8355274709992955,004,001,2019_May_07_1301,MusicAffectPsychophysiology2019,3.0.5,59.903228730235696,
To what extent did the music make you feel ,ALERT,30MonoWAV/30MonoT2.wav,2,1,4,14,,,,,0,0,0,13,0,3,3,8,,,,,,,,,3,4.817676646000109,004,001,2019_May_07_1301,MusicAffectPsychophysiology2019,3.0.5,59.903228730235696,
To what extent did the music make you feel ,ANXIOUS ,30MonoWAV/30MonoT2.wav,2,1,4,14,,,,,0,0,0,13,0,4,4,1,,,,,,,,,2,3.084317677999934,004,001,2019_May_07_1301,MusicAffectPsychophysiology2019,3.0.5,59.903228730235696,
To what extent did the music make you feel ,TENDER,30MonoWAV/30MonoT2.wav,2,1,4,14,,,,,0,0,0,13,0,5,5,10,,,,,,,,,5,2.483645302001605,004,001,2019_May_07_1301,MusicAffectPsychophysiology2019,3.0.5,59.903228730235696,
To what extent did the music make you feel ,ACTIVE,30MonoWAV/30MonoT2.wav,2,1,4,14,,,,,0,0,0,13,0,6,6,9,,,,,,,,,2,2.3531725199991342,004,001,2019_May_07_1301,MusicAffectPsychophysiology2019,3.0.5,59.903228730235696,
To what extent did the music make you feel ,ASHAMED,30MonoWAV/30MonoT2.wav,2,1,4,14,,,,,0,0,0,13,0,7,7,4,,,,,,,,,1,2.8232913100000587,004,001,2019_May_07_1301,MusicAffectPsychophysiology2019,3.0.5,59.903228730235696,
To what extent did the music make you feel ,SCARED,30MonoWAV/30MonoT2.wav,2,1,4,14,,,,,0,0,0,13,0,8,8,11,,,,,,,,,1,3.9724564389998704,004,001,2019_May_07_1301,MusicAffectPsychophysiology2019,3.0.5,59.903228730235696,
To what extent did the music make you feel ,GUILTY,30MonoWAV/30MonoT2.wav,2,1,4,14,,,,,0,0,0,13,0,9,9,5,,,,,,,,,2,2.0033914430005098,004,001,2019_May_07_1301,MusicAffectPsychophysiology2019,3.0.5,59.903228730235696,
To what extent did the music make you feel ,SAD,30MonoWAV/30MonoT2.wav,2,1,4,14,,,,,0,0,0,13,0,10,10,0,,,,,,,,,4,3.8053961750010785,004,001,2019_May_07_1301,MusicAffectPsychophysiology2019,3.0.5,59.903228730235696,
To what extent did the music make you feel ,ANGRY,30MonoWAV/30MonoT2.wav,2,1,4,14,,,,,0,0,0,13,0,11,11,2,,,,,,,,,1,5.902133265000884,004,001,2019_May_07_1301,MusicAffectPsychophysiology2019,3.0.5,59.903228730235696,
,,30MonoWAV/30MonoT2.wav,2,1,4,14,,,,,0,0,0,13,,,,,,,,,,,,,,,004,001,2019_May_07_1301,MusicAffectPsychophysiology2019,3.0.5,59.903228730235696,
To what extent did the music make you feel ,ASHAMED,30MonoWAV/30MonoS3.wav,1,1,3,11,,,,,0,1,1,10,0,0,0,4,,,2,5.852220091001072,3,5.51890534300037,,,2,3.7176521649998904,004,001,2019_May_07_1301,MusicAffectPsychophysiology2019,3.0.5,59.903228730235696,
To what extent did the music make you feel ,ACTIVE,30MonoWAV/30MonoS3.wav,1,1,3,11,,,,,0,1,1,10,0,1,1,9,,,,,,,,,2,2.518172992999098,004,001,2019_May_07_1301,MusicAffectPsychophysiology2019,3.0.5,59.903228730235696,
To what extent did the music make you feel ,HAPPY,30MonoWAV/30MonoS3.wav,1,1,3,11,,,,,0,1,1,10,0,2,2,6,,,,,,,,,3,2.367397198000617,004,001,2019_May_07_1301,MusicAffectPsychophysiology2019,3.0.5,59.903228730235696,
To what extent did the music make you feel ,ANGRY,30MonoWAV/30MonoS3.wav,1,1,3,11,,,,,0,1,1,10,0,3,3,2,,,,,,,,,2,4.084713659000045,004,001,2019_May_07_1301,MusicAffectPsychophysiology2019,3.0.5,59.903228730235696,
To what extent did the music make you feel ,ANXIOUS ,30MonoWAV/30MonoS3.wav,1,1,3,11,,,,,0,1,1,10,0,4,4,1,,,,,,,,,3,2.0344629579994944,004,001,2019_May_07_1301,MusicAffectPsychophysiology2019,3.0.5,59.903228730235696,
To what extent did the music make you feel ,SAD,30MonoWAV/30MonoS3.wav,1,1,3,11,,,,,0,1,1,10,0,5,5,0,,,,,,,,,3,3.6682263029997557,004,001,2019_May_07_1301,MusicAffectPsychophysiology2019,3.0.5,59.903228730235696,
To what extent did the music make you feel ,GUILTY,30MonoWAV/30MonoS3.wav,1,1,3,11,,,,,0,1,1,10,0,6,6,5,,,,,,,,,4,2.4696798020013375,004,001,2019_May_07_1301,MusicAffectPsychophysiology2019,3.0.5,59.903228730235696,
To what extent did the music make you feel ,ALERT,30MonoWAV/30MonoS3.wav,1,1,3,11,,,,,0,1,1,10,0,7,7,8,,,,,,,,,2,3.4007049379997625,004,001,2019_May_07_1301,MusicAffectPsychophysiology2019,3.0.5,59.903228730235696,
To what extent did the music make you feel ,EXCITED,30MonoWAV/30MonoS3.wav,1,1,3,11,,,,,0,1,1,10,0,8,8,7,,,,,,,,,1,2.868077525999979,004,001,2019_May_07_1301,MusicAffectPsychophysiology2019,3.0.5,59.903228730235696,
To what extent did the music make you feel ,SCARED,30MonoWAV/30MonoS3.wav,1,1,3,11,,,,,0,1,1,10,0,9,9,11,,,,,,,,,2,1.6021102360009536,004,001,2019_May_07_1301,MusicAffectPsychophysiology2019,3.0.5,59.903228730235696,
To what extent did the music make you feel ,FRUSTRATED,30MonoWAV/30MonoS3.wav,1,1,3,11,,,,,0,1,1,10,0,10,10,3,,,,,,,,,3,2.7024413460003416,004,001,2019_May_07_1301,MusicAffectPsychophysiology2019,3.0.5,59.903228730235696,
To what extent did the music make you feel ,TENDER,30MonoWAV/30MonoS3.wav,1,1,3,11,,,,,0,1,1,10,0,11,11,10,,,,,,,,,4,74.49285162100023,004,001,2019_May_07_1301,MusicAffectPsychophysiology2019,3.0.5,59.903228730235696,
,,30MonoWAV/30MonoS3.wav,1,1,3,11,,,,,0,1,1,10,,,,,,,,,,,,,,,004,001,2019_May_07_1301,MusicAffectPsychophysiology2019,3.0.5,59.903228730235696,
To what extent did the music make you feel ,HAPPY,30MonoWAV/30MonoF2.wav,1,2,2,2,,,,,0,2,2,1,0,0,0,6,,,4,4.918157412001165,2,5.108539326000027,,,2,3.4726249459999963,004,001,2019_May_07_1301,MusicAffectPsychophysiology2019,3.0.5,59.903228730235696,
To what extent did the music make you feel ,ALERT,30MonoWAV/30MonoF2.wav,1,2,2,2,,,,,0,2,2,1,0,1,1,8,,,,,,,,,4,2.5904078330022458,004,001,2019_May_07_1301,MusicAffectPsychophysiology2019,3.0.5,59.903228730235696,
To what extent did the music make you feel ,SCARED,30MonoWAV/30MonoF2.wav,1,2,2,2,,,,,0,2,2,1,0,2,2,11,,,,,,,,,2,2.6849303889976,004,001,2019_May_07_1301,MusicAffectPsychophysiology2019,3.0.5,59.903228730235696,
To what extent did the music make you feel ,ACTIVE,30MonoWAV/30MonoF2.wav,1,2,2,2,,,,,0,2,2,1,0,3,3,9,,,,,,,,,4,2.118827792000957,004,001,2019_May_07_1301,MusicAffectPsychophysiology2019,3.0.5,59.903228730235696,
To what extent did the music make you feel ,ANGRY,30MonoWAV/30MonoF2.wav,1,2,2,2,,,,,0,2,2,1,0,4,4,2,,,,,,,,,2,2.156160358001216,004,001,2019_May_07_1301,MusicAffectPsychophysiology2019,3.0.5,59.903228730235696,
To what extent did the music make you feel ,TENDER,30MonoWAV/30MonoF2.wav,1,2,2,2,,,,,0,2,2,1,0,5,5,10,,,,,,,,,1,1.8040913639997598,004,001,2019_May_07_1301,MusicAffectPsychophysiology2019,3.0.5,59.903228730235696,
To what extent did the music make you feel ,ASHAMED,30MonoWAV/30MonoF2.wav,1,2,2,2,,,,,0,2,2,1,0,6,6,4,,,,,,,,,1,2.354443614000047,004,001,2019_May_07_1301,MusicAffectPsychophysiology2019,3.0.5,59.903228730235696,
To what extent did the music make you feel ,GUILTY,30MonoWAV/30MonoF2.wav,1,2,2,2,,,,,0,2,2,1,0,7,7,5,,,,,,,,,1,2.5576360580016626,004,001,2019_May_07_1301,MusicAffectPsychophysiology2019,3.0.5,59.903228730235696,
To what extent did the music make you feel ,EXCITED,30MonoWAV/30MonoF2.wav,1,2,2,2,,,,,0,2,2,1,0,8,8,7,,,,,,,,,4,2.685028150001017,004,001,2019_May_07_1301,MusicAffectPsychophysiology2019,3.0.5,59.903228730235696,
To what extent did the music make you feel ,ANXIOUS ,30MonoWAV/30MonoF2.wav,1,2,2,2,,,,,0,2,2,1,0,9,9,1,,,,,,,,,4,3.135197601000982,004,001,2019_May_07_1301,MusicAffectPsychophysiology2019,3.0.5,59.903228730235696,
To what extent did the music make you feel ,FRUSTRATED,30MonoWAV/30MonoF2.wav,1,2,2,2,,,,,0,2,2,1,0,10,10,3,,,,,,,,,1,3.2348553329975402,004,001,2019_May_07_1301,MusicAffectPsychophysiology2019,3.0.5,59.903228730235696,
To what extent did the music make you feel ,SAD,30MonoWAV/30MonoF2.wav,1,2,2,2,,,,,0,2,2,1,0,11,11,0,,,,,,,,,2,1.6331033749993367,004,001,2019_May_07_1301,MusicAffectPsychophysiology2019,3.0.5,59.903228730235696,
,,30MonoWAV/30MonoF2.wav,1,2,2,2,,,,,0,2,2,1,,,,,,,,,,,,,,,004,001,2019_May_07_1301,MusicAffectPsychophysiology2019,3.0.5,59.903228730235696,
To what extent did the music make you feel ,SCARED,30MonoWAV/30MonoH1.wav,2,2,1,5,,,,,0,3,3,4,0,0,0,11,,,5,3.7351402479980607,4,2.3356742920004763,,,1,1.8635164339975745,004,001,2019_May_07_1301,MusicAffectPsychophysiology2019,3.0.5,59.903228730235696,
To what extent did the music make you feel ,ANXIOUS ,30MonoWAV/30MonoH1.wav,2,2,1,5,,,,,0,3,3,4,0,1,1,1,,,,,,,,,1,1.5344842470003641,004,001,2019_May_07_1301,MusicAffectPsychophysiology2019,3.0.5,59.903228730235696,
To what extent did the music make you feel ,ALERT,30MonoWAV/30MonoH1.wav,2,2,1,5,,,,,0,3,3,4,0,2,2,8,,,,,,,,,3,4.384929277999618,004,001,2019_May_07_1301,MusicAffectPsychophysiology2019,3.0.5,59.903228730235696,
To what extent did the music make you feel ,ASHAMED,30MonoWAV/30MonoH1.wav,2,2,1,5,,,,,0,3,3,4,0,3,3,4,,,,,,,,,1,1.7845094059994153,004,001,2019_May_07_1301,MusicAffectPsychophysiology2019,3.0.5,59.903228730235696,
To what extent did the music make you feel ,ANGRY,30MonoWAV/30MonoH1.wav,2,2,1,5,,,,,0,3,3,4,0,4,4,2,,,,,,,,,1,1.6357921290000377,004,001,2019_May_07_1301,MusicAffectPsychophysiology2019,3.0.5,59.903228730235696,
To what extent did the music make you feel ,GUILTY,30MonoWAV/30MonoH1.wav,2,2,1,5,,,,,0,3,3,4,0,5,5,5,,,,,,,,,1,2.6680059819991584,004,001,2019_May_07_1301,MusicAffectPsychophysiology2019,3.0.5,59.903228730235696,
To what extent did the music make you feel ,EXCITED,30MonoWAV/30MonoH1.wav,2,2,1,5,,,,,0,3,3,4,0,6,6,7,,,,,,,,,5,2.8834456550030154,004,001,2019_May_07_1301,MusicAffectPsychophysiology2019,3.0.5,59.903228730235696,
To what extent did the music make you feel ,HAPPY,30MonoWAV/30MonoH1.wav,2,2,1,5,,,,,0,3,3,4,0,7,7,6,,,,,,,,,4,3.1173667940020096,004,001,2019_May_07_1301,MusicAffectPsychophysiology2019,3.0.5,59.903228730235696,
To what extent did the music make you feel ,FRUSTRATED,30MonoWAV/30MonoH1.wav,2,2,1,5,,,,,0,3,3,4,0,8,8,3,,,,,,,,,1,2.0823924360011006,004,001,2019_May_07_1301,MusicAffectPsychophysiology2019,3.0.5,59.903228730235696,
To what extent did the music make you feel ,ACTIVE,30MonoWAV/30MonoH1.wav,2,2,1,5,,,,,0,3,3,4,0,9,9,9,,,,,,,,,4,2.6699031259995536,004,001,2019_May_07_1301,MusicAffectPsychophysiology2019,3.0.5,59.903228730235696,
To what extent did the music make you feel ,TENDER,30MonoWAV/30MonoH1.wav,2,2,1,5,,,,,0,3,3,4,0,10,10,10,,,,,,,,,3,2.534973694000655,004,001,2019_May_07_1301,MusicAffectPsychophysiology2019,3.0.5,59.903228730235696,
To what extent did the music make you feel ,SAD,30MonoWAV/30MonoH1.wav,2,2,1,5,,,,,0,3,3,4,0,11,11,0,,,,,,,,,1,2.584622454996861,004,001,2019_May_07_1301,MusicAffectPsychophysiology2019,3.0.5,59.903228730235696,
,,30MonoWAV/30MonoH1.wav,2,2,1,5,,,,,0,3,3,4,,,,,,,,,,,,,,,004,001,2019_May_07_1301,MusicAffectPsychophysiology2019,3.0.5,59.903228730235696,
To what extent did the music make you feel ,FRUSTRATED,30MonoWAV/30MonoH3.wav,2,2,1,7,,,,,0,4,4,6,0,0,0,3,,,4,4.98565884799973,4,4.651664643999538,,,1,2.392487708999397,004,001,2019_May_07_1301,MusicAffectPsychophysiology2019,3.0.5,59.903228730235696,
To what extent did the music make you feel ,ACTIVE,30MonoWAV/30MonoH3.wav,2,2,1,7,,,,,0,4,4,6,0,1,1,9,,,,,,,,,3,4.619167433997063,004,001,2019_May_07_1301,MusicAffectPsychophysiology2019,3.0.5,59.903228730235696,
To what extent did the music make you feel ,GUILTY,30MonoWAV/30MonoH3.wav,2,2,1,7,,,,,0,4,4,6,0,2,2,5,,,,,,,,,1,3.317538869996497,004,001,2019_May_07_1301,MusicAffectPsychophysiology2019,3.0.5,59.903228730235696,
To what extent did the music make you feel ,EXCITED,30MonoWAV/30MonoH3.wav,2,2,1,7,,,,,0,4,4,6,0,3,3,7,,,,,,,,,4,3.000573899997107,004,001,2019_May_07_1301,MusicAffectPsychophysiology2019,3.0.5,59.903228730235696,
To what extent did the music make you feel ,SAD,30MonoWAV/30MonoH3.wav,2,2,1,7,,,,,0,4,4,6,0,4,4,0,,,,,,,,,1,2.9350390270010394,004,001,2019_May_07_1301,MusicAffectPsychophysiology2019,3.0.5,59.903228730235696,
To what extent did the music make you feel ,SCARED,30MonoWAV/30MonoH3.wav,2,2,1,7,,,,,0,4,4,6,0,5,5,11,,,,,,,,,1,2.1857358749984996,004,001,2019_May_07_1301,MusicAffectPsychophysiology2019,3.0.5,59.903228730235696,
To what extent did the music make you feel ,ASHAMED,30MonoWAV/30MonoH3.wav,2,2,1,7,,,,,0,4,4,6,0,6,6,4,,,,,,,,,1,2.6349469529995986,004,001,2019_May_07_1301,MusicAffectPsychophysiology2019,3.0.5,59.903228730235696,
To what extent did the music make you feel ,ALERT,30MonoWAV/30MonoH3.wav,2,2,1,7,,,,,0,4,4,6,0,7,7,8,,,,,,,,,3,4.367704169999342,004,001,2019_May_07_1301,MusicAffectPsychophysiology2019,3.0.5,59.903228730235696,
To what extent did the music make you feel ,ANXIOUS ,30MonoWAV/30MonoH3.wav,2,2,1,7,,,,,0,4,4,6,0,8,8,1,,,,,,,,,2,3.8186091690004105,004,001,2019_May_07_1301,MusicAffectPsychophysiology2019,3.0.5,59.903228730235696,
To what extent did the music make you feel ,ANGRY,30MonoWAV/30MonoH3.wav,2,2,1,7,,,,,0,4,4,6,0,9,9,2,,,,,,,,,1,3.3997916350017476,004,001,2019_May_07_1301,MusicAffectPsychophysiology2019,3.0.5,59.903228730235696,
To what extent did the music make you feel ,HAPPY,30MonoWAV/30MonoH3.wav,2,2,1,7,,,,,0,4,4,6,0,10,10,6,,,,,,,,,3,2.936027183997794,004,001,2019_May_07_1301,MusicAffectPsychophysiology2019,3.0.5,59.903228730235696,
To what extent did the music make you feel ,TENDER,30MonoWAV/30MonoH3.wav,2,2,1,7,,,,,0,4,4,6,0,11,11,10,,,,,,,,,2,3.5516746770008467,004,001,2019_May_07_1301,MusicAffectPsychophysiology2019,3.0.5,59.903228730235696,
,,30MonoWAV/30MonoH3.wav,2,2,1,7,,,,,0,4,4,6,,,,,,,,,,,,,,,004,001,2019_May_07_1301,MusicAffectPsychophysiology2019,3.0.5,59.903228730235696,
To what extent did the music make you feel ,ALERT,30MonoWAV/30MonoF4.wav,1,2,2,4,,,,,0,5,5,3,0,0,0,8,,,4,4.866729722998571,4,4.800391107000905,,,5,2.7176370070010307,004,001,2019_May_07_1301,MusicAffectPsychophysiology2019,3.0.5,59.903228730235696,
To what extent did the music make you feel ,SAD,30MonoWAV/30MonoF4.wav,1,2,2,4,,,,,0,5,5,3,0,1,1,0,,,,,,,,,2,3.2345781750009337,004,001,2019_May_07_1301,MusicAffectPsychophysiology2019,3.0.5,59.903228730235696,
To what extent did the music make you feel ,FRUSTRATED,30MonoWAV/30MonoF4.wav,1,2,2,4,,,,,0,5,5,3,0,2,2,3,,,,,,,,,2,3.8356340379978064,004,001,2019_May_07_1301,MusicAffectPsychophysiology2019,3.0.5,59.903228730235696,
To what extent did the music make you feel ,HAPPY,30MonoWAV/30MonoF4.wav,1,2,2,4,,,,,0,5,5,3,0,3,3,6,,,,,,,,,2,2.3498643040002207,004,001,2019_May_07_1301,MusicAffectPsychophysiology2019,3.0.5,59.903228730235696,
To what extent did the music make you feel ,ASHAMED,30MonoWAV/30MonoF4.wav,1,2,2,4,,,,,0,5,5,3,0,4,4,4,,,,,,,,,2,2.2516976699989755,004,001,2019_May_07_1301,MusicAffectPsychophysiology2019,3.0.5,59.903228730235696,
To what extent did the music make you feel ,SCARED,30MonoWAV/30MonoF4.wav,1,2,2,4,,,,,0,5,5,3,0,5,5,11,,,,,,,,,2,2.5509842639985436,004,001,2019_May_07_1301,MusicAffectPsychophysiology2019,3.0.5,59.903228730235696,
To what extent did the music make you feel ,GUILTY,30MonoWAV/30MonoF4.wav,1,2,2,4,,,,,0,5,5,3,0,6,6,5,,,,,,,,,1,2.0844278530021256,004,001,2019_May_07_1301,MusicAffectPsychophysiology2019,3.0.5,59.903228730235696,
To what extent did the music make you feel ,ANGRY,30MonoWAV/30MonoF4.wav,1,2,2,4,,,,,0,5,5,3,0,7,7,2,,,,,,,,,1,5.301196289998188,004,001,2019_May_07_1301,MusicAffectPsychophysiology2019,3.0.5,59.903228730235696,
To what extent did the music make you feel ,EXCITED,30MonoWAV/30MonoF4.wav,1,2,2,4,,,,,0,5,5,3,0,8,8,7,,,,,,,,,4,3.7344685999996727,004,001,2019_May_07_1301,MusicAffectPsychophysiology2019,3.0.5,59.903228730235696,
To what extent did the music make you feel ,TENDER,30MonoWAV/30MonoF4.wav,1,2,2,4,,,,,0,5,5,3,0,9,9,10,,,,,,,,,1,1.8190499030024512,004,001,2019_May_07_1301,MusicAffectPsychophysiology2019,3.0.5,59.903228730235696,
To what extent did the music make you feel ,ACTIVE,30MonoWAV/30MonoF4.wav,1,2,2,4,,,,,0,5,5,3,0,10,10,9,,,,,,,,,5,2.151167391999479,004,001,2019_May_07_1301,MusicAffectPsychophysiology2019,3.0.5,59.903228730235696,
To what extent did the music make you feel ,ANXIOUS ,30MonoWAV/30MonoF4.wav,1,2,2,4,,,,,0,5,5,3,0,11,11,1,,,,,,,,,4,2.9511367689992767,004,001,2019_May_07_1301,MusicAffectPsychophysiology2019,3.0.5,59.903228730235696,
,,30MonoWAV/30MonoF4.wav,1,2,2,4,,,,,0,5,5,3,,,,,,,,,,,,,,,004,001,2019_May_07_1301,MusicAffectPsychophysiology2019,3.0.5,59.903228730235696,
To what extent did the music make you feel ,ANXIOUS ,30MonoWAV/30MonoT4.wav,2,1,4,16,,,,,0,6,6,15,0,0,0,1,,,5,5.234513010000228,5,2.1849178389966255,,,2,2.8021407980013464,004,001,2019_May_07_1301,MusicAffectPsychophysiology2019,3.0.5,59.903228730235696,
To what extent did the music make you feel ,GUILTY,30MonoWAV/30MonoT4.wav,2,1,4,16,,,,,0,6,6,15,0,1,1,5,,,,,,,,,1,2.6852686390011513,004,001,2019_May_07_1301,MusicAffectPsychophysiology2019,3.0.5,59.903228730235696,
To what extent did the music make you feel ,SCARED,30MonoWAV/30MonoT4.wav,2,1,4,16,,,,,0,6,6,15,0,2,2,11,,,,,,,,,1,2.867547122998076,004,001,2019_May_07_1301,MusicAffectPsychophysiology2019,3.0.5,59.903228730235696,
To what extent did the music make you feel ,ASHAMED,30MonoWAV/30MonoT4.wav,2,1,4,16,,,,,0,6,6,15,0,3,3,4,,,,,,,,,2,2.9492845159984427,004,001,2019_May_07_1301,MusicAffectPsychophysiology2019,3.0.5,59.903228730235696,
To what extent did the music make you feel ,HAPPY,30MonoWAV/30MonoT4.wav,2,1,4,16,,,,,0,6,6,15,0,4,4,6,,,,,,,,,4,2.817745450000075,004,001,2019_May_07_1301,MusicAffectPsychophysiology2019,3.0.5,59.903228730235696,
To what extent did the music make you feel ,ANGRY,30MonoWAV/30MonoT4.wav,2,1,4,16,,,,,0,6,6,15,0,5,5,2,,,,,,,,,1,1.5007576999996672,004,001,2019_May_07_1301,MusicAffectPsychophysiology2019,3.0.5,59.903228730235696,
To what extent did the music make you feel ,ALERT,30MonoWAV/30MonoT4.wav,2,1,4,16,,,,,0,6,6,15,0,6,6,8,,,,,,,,,2,1.8676946429986856,004,001,2019_May_07_1301,MusicAffectPsychophysiology2019,3.0.5,59.903228730235696,
To what extent did the music make you feel ,FRUSTRATED,30MonoWAV/30MonoT4.wav,2,1,4,16,,,,,0,6,6,15,0,7,7,3,,,,,,,,,1,2.6519683320002514,004,001,2019_May_07_1301,MusicAffectPsychophysiology2019,3.0.5,59.903228730235696,
To what extent did the music make you feel ,TENDER,30MonoWAV/30MonoT4.wav,2,1,4,16,,,,,0,6,6,15,0,8,8,10,,,,,,,,,5,2.3021662780010956,004,001,2019_May_07_1301,MusicAffectPsychophysiology2019,3.0.5,59.903228730235696,
To what extent did the music make you feel ,ACTIVE,30MonoWAV/30MonoT4.wav,2,1,4,16,,,,,0,6,6,15,0,9,9,9,,,,,,,,,3,3.9344633699984115,004,001,2019_May_07_1301,MusicAffectPsychophysiology2019,3.0.5,59.903228730235696,
To what extent did the music make you feel ,SAD,30MonoWAV/30MonoT4.wav,2,1,4,16,,,,,0,6,6,15,0,10,10,0,,,,,,,,,4,1.9350605420004285,004,001,2019_May_07_1301,MusicAffectPsychophysiology2019,3.0.5,59.903228730235696,
To what extent did the music make you feel ,EXCITED,30MonoWAV/30MonoT4.wav,2,1,4,16,,,,,0,6,6,15,0,11,11,7,,,,,,,,,3,4.8671229380015575,004,001,2019_May_07_1301,MusicAffectPsychophysiology2019,3.0.5,59.903228730235696,
,,30MonoWAV/30MonoT4.wav,2,1,4,16,,,,,0,6,6,15,,,,,,,,,,,,,,,004,001,2019_May_07_1301,MusicAffectPsychophysiology2019,3.0.5,59.903228730235696,
To what extent did the music make you feel ,HAPPY,30MonoWAV/30MonoF1.wav,1,2,2,1,,,,,0,7,7,0,0,0,0,6,,,4,4.901102865998837,3,2.9184440200006065,,,2,3.8178477569999814,004,001,2019_May_07_1301,MusicAffectPsychophysiology2019,3.0.5,59.903228730235696,
To what extent did the music make you feel ,SCARED,30MonoWAV/30MonoF1.wav,1,2,2,1,,,,,0,7,7,0,0,1,1,11,,,,,,,,,3,1.9185593300026085,004,001,2019_May_07_1301,MusicAffectPsychophysiology2019,3.0.5,59.903228730235696,
To what extent did the music make you feel ,GUILTY,30MonoWAV/30MonoF1.wav,1,2,2,1,,,,,0,7,7,0,0,2,2,5,,,,,,,,,1,2.6846983630020986,004,001,2019_May_07_1301,MusicAffectPsychophysiology2019,3.0.5,59.903228730235696,
To what extent did the music make you feel ,SAD,30MonoWAV/30MonoF1.wav,1,2,2,1,,,,,0,7,7,0,0,3,3,0,,,,,,,,,2,5.601723708998179,004,001,2019_May_07_1301,MusicAffectPsychophysiology2019,3.0.5,59.903228730235696,
To what extent did the music make you feel ,ACTIVE,30MonoWAV/30MonoF1.wav,1,2,2,1,,,,,0,7,7,0,0,4,4,9,,,,,,,,,4,2.718347016001644,004,001,2019_May_07_1301,MusicAffectPsychophysiology2019,3.0.5,59.903228730235696,
To what extent did the music make you feel ,FRUSTRATED,30MonoWAV/30MonoF1.wav,1,2,2,1,,,,,0,7,7,0,0,5,5,3,,,,,,,,,1,2.001509874000476,004,001,2019_May_07_1301,MusicAffectPsychophysiology2019,3.0.5,59.903228730235696,
To what extent did the music make you feel ,EXCITED,30MonoWAV/30MonoF1.wav,1,2,2,1,,,,,0,7,7,0,0,6,6,7,,,,,,,,,4,2.201709854998626,004,001,2019_May_07_1301,MusicAffectPsychophysiology2019,3.0.5,59.903228730235696,
To what extent did the music make you feel ,ALERT,30MonoWAV/30MonoF1.wav,1,2,2,1,,,,,0,7,7,0,0,7,7,8,,,,,,,,,4,3.1509545339977194,004,001,2019_May_07_1301,MusicAffectPsychophysiology2019,3.0.5,59.903228730235696,
To what extent did the music make you feel ,TENDER,30MonoWAV/30MonoF1.wav,1,2,2,1,,,,,0,7,7,0,0,8,8,10,,,,,,,,,1,2.317922329999419,004,001,2019_May_07_1301,MusicAffectPsychophysiology2019,3.0.5,59.903228730235696,
To what extent did the music make you feel ,ASHAMED,30MonoWAV/30MonoF1.wav,1,2,2,1,,,,,0,7,7,0,0,9,9,4,,,,,,,,,2,2.0681597639995744,004,001,2019_May_07_1301,MusicAffectPsychophysiology2019,3.0.5,59.903228730235696,
To what extent did the music make you feel ,ANGRY,30MonoWAV/30MonoF1.wav,1,2,2,1,,,,,0,7,7,0,0,10,10,2,,,,,,,,,3,2.2352844730012293,004,001,2019_May_07_1301,MusicAffectPsychophysiology2019,3.0.5,59.903228730235696,
To what extent did the music make you feel ,ANXIOUS ,30MonoWAV/30MonoF1.wav,1,2,2,1,,,,,0,7,7,0,0,11,11,1,,,,,,,,,3,2.3512392879965773,004,001,2019_May_07_1301,MusicAffectPsychophysiology2019,3.0.5,59.903228730235696,
,,30MonoWAV/30MonoF1.wav,1,2,2,1,,,,,0,7,7,0,,,,,,,,,,,,,,,004,001,2019_May_07_1301,MusicAffectPsychophysiology2019,3.0.5,59.903228730235696,
To what extent did the music make you feel ,HAPPY,30MonoWAV/30MonoH2.wav,2,2,1,6,,,,,0,8,8,5,0,0,0,6,,,3,4.234729988998879,3,2.623352075002913,,,2,3.4883714690004126,004,001,2019_May_07_1301,MusicAffectPsychophysiology2019,3.0.5,59.903228730235696,
To what extent did the music make you feel ,ANXIOUS ,30MonoWAV/30MonoH2.wav,2,2,1,6,,,,,0,8,8,5,0,1,1,1,,,,,,,,,1,3.4082707980014675,004,001,2019_May_07_1301,MusicAffectPsychophysiology2019,3.0.5,59.903228730235696,
To what extent did the music make you feel ,FRUSTRATED,30MonoWAV/30MonoH2.wav,2,2,1,6,,,,,0,8,8,5,0,2,2,3,,,,,,,,,1,1.2346932150030625,004,001,2019_May_07_1301,MusicAffectPsychophysiology2019,3.0.5,59.903228730235696,
To what extent did the music make you feel ,ACTIVE,30MonoWAV/30MonoH2.wav,2,2,1,6,,,,,0,8,8,5,0,3,3,9,,,,,,,,,2,3.4191158909998194,004,001,2019_May_07_1301,MusicAffectPsychophysiology2019,3.0.5,59.903228730235696,
To what extent did the music make you feel ,SCARED,30MonoWAV/30MonoH2.wav,2,2,1,6,,,,,0,8,8,5,0,4,4,11,,,,,,,,,1,1.3339655290001247,004,001,2019_May_07_1301,MusicAffectPsychophysiology2019,3.0.5,59.903228730235696,
To what extent did the music make you feel ,ALERT,30MonoWAV/30MonoH2.wav,2,2,1,6,,,,,0,8,8,5,0,5,5,8,,,,,,,,,2,1.7673821639982634,004,001,2019_May_07_1301,MusicAffectPsychophysiology2019,3.0.5,59.903228730235696,
To what extent did the music make you feel ,GUILTY,30MonoWAV/30MonoH2.wav,2,2,1,6,,,,,0,8,8,5,0,6,6,5,,,,,,,,,1,1.518307605998416,004,001,2019_May_07_1301,MusicAffectPsychophysiology2019,3.0.5,59.903228730235696,
To what extent did the music make you feel ,ANGRY,30MonoWAV/30MonoH2.wav,2,2,1,6,,,,,0,8,8,5,0,7,7,2,,,,,,,,,1,1.6010818049981026,004,001,2019_May_07_1301,MusicAffectPsychophysiology2019,3.0.5,59.903228730235696,
To what extent did the music make you feel ,SAD,30MonoWAV/30MonoH2.wav,2,2,1,6,,,,,0,8,8,5,0,8,8,0,,,,,,,,,1,1.7512916050000058,004,001,2019_May_07_1301,MusicAffectPsychophysiology2019,3.0.5,59.903228730235696,
To what extent did the music make you feel ,EXCITED,30MonoWAV/30MonoH2.wav,2,2,1,6,,,,,0,8,8,5,0,9,9,7,,,,,,,,,2,2.9501187589994515,004,001,2019_May_07_1301,MusicAffectPsychophysiology2019,3.0.5,59.903228730235696,
To what extent did the music make you feel ,TENDER,30MonoWAV/30MonoH2.wav,2,2,1,6,,,,,0,8,8,5,0,10,10,10,,,,,,,,,2,2.451453680998384,004,001,2019_May_07_1301,MusicAffectPsychophysiology2019,3.0.5,59.903228730235696,
To what extent did the music make you feel ,ASHAMED,30MonoWAV/30MonoH2.wav,2,2,1,6,,,,,0,8,8,5,0,11,11,4,,,,,,,,,1,1.2358527020005567,004,001,2019_May_07_1301,MusicAffectPsychophysiology2019,3.0.5,59.903228730235696,
,,30MonoWAV/30MonoH2.wav,2,2,1,6,,,,,0,8,8,5,,,,,,,,,,,,,,,004,001,2019_May_07_1301,MusicAffectPsychophysiology2019,3.0.5,59.903228730235696,
To what extent did the music make you feel ,HAPPY,30MonoWAV/30MonoF3.wav,1,2,2,3,,,,,0,9,9,2,0,0,0,6,,,4,3.317963837998832,3,2.4016217900025367,,,1,2.368265815999621,004,001,2019_May_07_1301,MusicAffectPsychophysiology2019,3.0.5,59.903228730235696,
To what extent did the music make you feel ,ANXIOUS ,30MonoWAV/30MonoF3.wav,1,2,2,3,,,,,0,9,9,2,0,1,1,1,,,,,,,,,3,2.1351849820021016,004,001,2019_May_07_1301,MusicAffectPsychophysiology2019,3.0.5,59.903228730235696,
To what extent did the music make you feel ,ACTIVE,30MonoWAV/30MonoF3.wav,1,2,2,3,,,,,0,9,9,2,0,2,2,9,,,,,,,,,4,1.8015752150022308,004,001,2019_May_07_1301,MusicAffectPsychophysiology2019,3.0.5,59.903228730235696,
To what extent did the music make you feel ,ALERT,30MonoWAV/30MonoF3.wav,1,2,2,3,,,,,0,9,9,2,0,3,3,8,,,,,,,,,4,1.699748852999619,004,001,2019_May_07_1301,MusicAffectPsychophysiology2019,3.0.5,59.903228730235696,
To what extent did the music make you feel ,ANGRY,30MonoWAV/30MonoF3.wav,1,2,2,3,,,,,0,9,9,2,0,4,4,2,,,,,,,,,2,2.501473394000641,004,001,2019_May_07_1301,MusicAffectPsychophysiology2019,3.0.5,59.903228730235696,
To what extent did the music make you feel ,EXCITED,30MonoWAV/30MonoF3.wav,1,2,2,3,,,,,0,9,9,2,0,5,5,7,,,,,,,,,3,3.4182125009974698,004,001,2019_May_07_1301,MusicAffectPsychophysiology2019,3.0.5,59.903228730235696,
To what extent did the music make you feel ,GUILTY,30MonoWAV/30MonoF3.wav,1,2,2,3,,,,,0,9,9,2,0,6,6,5,,,,,,,,,2,1.8684177800023463,004,001,2019_May_07_1301,MusicAffectPsychophysiology2019,3.0.5,59.903228730235696,
To what extent did the music make you feel ,FRUSTRATED,30MonoWAV/30MonoF3.wav,1,2,2,3,,,,,0,9,9,2,0,7,7,3,,,,,,,,,1,2.8676600770013465,004,001,2019_May_07_1301,MusicAffectPsychophysiology2019,3.0.5,59.903228730235696,
To what extent did the music make you feel ,TENDER,30MonoWAV/30MonoF3.wav,1,2,2,3,,,,,0,9,9,2,0,8,8,10,,,,,,,,,1,1.7015490039993892,004,001,2019_May_07_1301,MusicAffectPsychophysiology2019,3.0.5,59.903228730235696,
To what extent did the music make you feel ,SCARED,30MonoWAV/30MonoF3.wav,1,2,2,3,,,,,0,9,9,2,0,9,9,11,,,,,,,,,2,1.2847921809989202,004,001,2019_May_07_1301,MusicAffectPsychophysiology2019,3.0.5,59.903228730235696,
To what extent did the music make you feel ,SAD,30MonoWAV/30MonoF3.wav,1,2,2,3,,,,,0,9,9,2,0,10,10,0,,,,,,,,,2,2.2346287239997764,004,001,2019_May_07_1301,MusicAffectPsychophysiology2019,3.0.5,59.903228730235696,
To what extent did the music make you feel ,ASHAMED,30MonoWAV/30MonoF3.wav,1,2,2,3,,,,,0,9,9,2,0,11,11,4,,,,,,,,,2,1.7521179140021559,004,001,2019_May_07_1301,MusicAffectPsychophysiology2019,3.0.5,59.903228730235696,
,,30MonoWAV/30MonoF3.wav,1,2,2,3,,,,,0,9,9,2,,,,,,,,,,,,,,,004,001,2019_May_07_1301,MusicAffectPsychophysiology2019,3.0.5,59.903228730235696,
To what extent did the music make you feel ,SCARED,30MonoWAV/30MonoS1.wav,1,1,3,9,,,,,0,10,10,8,0,0,0,11,,,3,4.6676075069990475,4,4.0005147800002305,,,1,2.71792398999969,004,001,2019_May_07_1301,MusicAffectPsychophysiology2019,3.0.5,59.903228730235696,
To what extent did the music make you feel ,EXCITED,30MonoWAV/30MonoS1.wav,1,1,3,9,,,,,0,10,10,8,0,1,1,7,,,,,,,,,2,1.8182064059983531,004,001,2019_May_07_1301,MusicAffectPsychophysiology2019,3.0.5,59.903228730235696,
To what extent did the music make you feel ,ANXIOUS ,30MonoWAV/30MonoS1.wav,1,1,3,9,,,,,0,10,10,8,0,2,2,1,,,,,,,,,3,2.068640076002339,004,001,2019_May_07_1301,MusicAffectPsychophysiology2019,3.0.5,59.903228730235696,
To what extent did the music make you feel ,ALERT,30MonoWAV/30MonoS1.wav,1,1,3,9,,,,,0,10,10,8,0,3,3,8,,,,,,,,,1,2.6854643070000748,004,001,2019_May_07_1301,MusicAffectPsychophysiology2019,3.0.5,59.903228730235696,
To what extent did the music make you feel ,FRUSTRATED,30MonoWAV/30MonoS1.wav,1,1,3,9,,,,,0,10,10,8,0,4,4,3,,,,,,,,,2,2.7183282709993364,004,001,2019_May_07_1301,MusicAffectPsychophysiology2019,3.0.5,59.903228730235696,
To what extent did the music make you feel ,ASHAMED,30MonoWAV/30MonoS1.wav,1,1,3,9,,,,,0,10,10,8,0,5,5,4,,,,,,,,,4,2.884396009001648,004,001,2019_May_07_1301,MusicAffectPsychophysiology2019,3.0.5,59.903228730235696,
To what extent did the music make you feel ,HAPPY,30MonoWAV/30MonoS1.wav,1,1,3,9,,,,,0,10,10,8,0,6,6,6,,,,,,,,,2,2.2511191830017196,004,001,2019_May_07_1301,MusicAffectPsychophysiology2019,3.0.5,59.903228730235696,
To what extent did the music make you feel ,ACTIVE,30MonoWAV/30MonoS1.wav,1,1,3,9,,,,,0,10,10,8,0,7,7,9,,,,,,,,,1,1.7850950440006272,004,001,2019_May_07_1301,MusicAffectPsychophysiology2019,3.0.5,59.903228730235696,
To what extent did the music make you feel ,GUILTY,30MonoWAV/30MonoS1.wav,1,1,3,9,,,,,0,10,10,8,0,8,8,5,,,,,,,,,3,3.5342394889994466,004,001,2019_May_07_1301,MusicAffectPsychophysiology2019,3.0.5,59.903228730235696,
To what extent did the music make you feel ,SAD,30MonoWAV/30MonoS1.wav,1,1,3,9,,,,,0,10,10,8,0,9,9,0,,,,,,,,,3,2.7186261400020157,004,001,2019_May_07_1301,MusicAffectPsychophysiology2019,3.0.5,59.903228730235696,
To what extent did the music make you feel ,ANGRY,30MonoWAV/30MonoS1.wav,1,1,3,9,,,,,0,10,10,8,0,10,10,2,,,,,,,,,2,2.467476051999256,004,001,2019_May_07_1301,MusicAffectPsychophysiology2019,3.0.5,59.903228730235696,
To what extent did the music make you feel ,TENDER,30MonoWAV/30MonoS1.wav,1,1,3,9,,,,,0,10,10,8,0,11,11,10,,,,,,,,,5,2.201342846998159,004,001,2019_May_07_1301,MusicAffectPsychophysiology2019,3.0.5,59.903228730235696,
,,30MonoWAV/30MonoS1.wav,1,1,3,9,,,,,0,10,10,8,,,,,,,,,,,,,,,004,001,2019_May_07_1301,MusicAffectPsychophysiology2019,3.0.5,59.903228730235696,
To what extent did the music make you feel ,TENDER,30MonoWAV/30MonoS2.wav,1,1,3,10,,,,,0,11,11,9,0,0,0,10,,,2,6.546488922998833,3,4.20101469400106,,,4,1.8835857159974694,004,001,2019_May_07_1301,MusicAffectPsychophysiology2019,3.0.5,59.903228730235696,
To what extent did the music make you feel ,ALERT,30MonoWAV/30MonoS2.wav,1,1,3,10,,,,,0,11,11,9,0,1,1,8,,,,,,,,,1,3.135232549000648,004,001,2019_May_07_1301,MusicAffectPsychophysiology2019,3.0.5,59.903228730235696,
To what extent did the music make you feel ,SAD,30MonoWAV/30MonoS2.wav,1,1,3,10,,,,,0,11,11,9,0,2,2,0,,,,,,,,,4,2.534599745999003,004,001,2019_May_07_1301,MusicAffectPsychophysiology2019,3.0.5,59.903228730235696,
To what extent did the music make you feel ,GUILTY,30MonoWAV/30MonoS2.wav,1,1,3,10,,,,,0,11,11,9,0,3,3,5,,,,,,,,,3,2.4348761919973185,004,001,2019_May_07_1301,MusicAffectPsychophysiology2019,3.0.5,59.903228730235696,
To what extent did the music make you feel ,ANXIOUS ,30MonoWAV/30MonoS2.wav,1,1,3,10,,,,,0,11,11,9,0,4,4,1,,,,,,,,,1,2.3671832809995976,004,001,2019_May_07_1301,MusicAffectPsychophysiology2019,3.0.5,59.903228730235696,
To what extent did the music make you feel ,FRUSTRATED,30MonoWAV/30MonoS2.wav,1,1,3,10,,,,,0,11,11,9,0,5,5,3,,,,,,,,,2,1.734709156997269,004,001,2019_May_07_1301,MusicAffectPsychophysiology2019,3.0.5,59.903228730235696,
To what extent did the music make you feel ,ASHAMED,30MonoWAV/30MonoS2.wav,1,1,3,10,,,,,0,11,11,9,0,6,6,4,,,,,,,,,2,1.9021308720002708,004,001,2019_May_07_1301,MusicAffectPsychophysiology2019,3.0.5,59.903228730235696,
To what extent did the music make you feel ,HAPPY,30MonoWAV/30MonoS2.wav,1,1,3,10,,,,,0,11,11,9,0,7,7,6,,,,,,,,,1,1.451210359002289,004,001,2019_May_07_1301,MusicAffectPsychophysiology2019,3.0.5,59.903228730235696,
To what extent did the music make you feel ,SCARED,30MonoWAV/30MonoS2.wav,1,1,3,10,,,,,0,11,11,9,0,8,8,11,,,,,,,,,1,1.8010259199982102,004,001,2019_May_07_1301,MusicAffectPsychophysiology2019,3.0.5,59.903228730235696,
To what extent did the music make you feel ,ANGRY,30MonoWAV/30MonoS2.wav,1,1,3,10,,,,,0,11,11,9,0,9,9,2,,,,,,,,,2,2.8012535760026367,004,001,2019_May_07_1301,MusicAffectPsychophysiology2019,3.0.5,59.903228730235696,
To what extent did the music make you feel ,ACTIVE,30MonoWAV/30MonoS2.wav,1,1,3,10,,,,,0,11,11,9,0,10,10,9,,,,,,,,,1,1.3186697730016022,004,001,2019_May_07_1301,MusicAffectPsychophysiology2019,3.0.5,59.903228730235696,
To what extent did the music make you feel ,EXCITED,30MonoWAV/30MonoS2.wav,1,1,3,10,,,,,0,11,11,9,0,11,11,7,,,,,,,,,1,2.0009901269986585,004,001,2019_May_07_1301,MusicAffectPsychophysiology2019,3.0.5,59.903228730235696,
,,30MonoWAV/30MonoS2.wav,1,1,3,10,,,,,0,11,11,9,,,,,,,,,,,,,,,004,001,2019_May_07_1301,MusicAffectPsychophysiology2019,3.0.5,59.903228730235696,
To what extent did the music make you feel ,SCARED,30MonoWAV/30MonoT1.wav,2,1,4,13,,,,,0,12,12,12,0,0,0,11,,,3,6.476632145000622,4,2.072524898001575,,,1,2.0347110529983183,004,001,2019_May_07_1301,MusicAffectPsychophysiology2019,3.0.5,59.903228730235696,
To what extent did the music make you feel ,ANXIOUS ,30MonoWAV/30MonoT1.wav,2,1,4,13,,,,,0,12,12,12,0,1,1,1,,,,,,,,,1,4.234389748999092,004,001,2019_May_07_1301,MusicAffectPsychophysiology2019,3.0.5,59.903228730235696,
To what extent did the music make you feel ,ANGRY,30MonoWAV/30MonoT1.wav,2,1,4,13,,,,,0,12,12,12,0,2,2,2,,,,,,,,,1,1.350279792000947,004,001,2019_May_07_1301,MusicAffectPsychophysiology2019,3.0.5,59.903228730235696,
To what extent did the music make you feel ,GUILTY,30MonoWAV/30MonoT1.wav,2,1,4,13,,,,,0,12,12,12,0,3,3,5,,,,,,,,,1,2.719283139998879,004,001,2019_May_07_1301,MusicAffectPsychophysiology2019,3.0.5,59.903228730235696,
To what extent did the music make you feel ,HAPPY,30MonoWAV/30MonoT1.wav,2,1,4,13,,,,,0,12,12,12,0,4,4,6,,,,,,,,,2,2.867938977000449,004,001,2019_May_07_1301,MusicAffectPsychophysiology2019,3.0.5,59.903228730235696,
To what extent did the music make you feel ,SAD,30MonoWAV/30MonoT1.wav,2,1,4,13,,,,,0,12,12,12,0,5,5,0,,,,,,,,,1,2.5351214239999535,004,001,2019_May_07_1301,MusicAffectPsychophysiology2019,3.0.5,59.903228730235696,
To what extent did the music make you feel ,ALERT,30MonoWAV/30MonoT1.wav,2,1,4,13,,,,,0,12,12,12,0,6,6,8,,,,,,,,,1,3.3188984290027292,004,001,2019_May_07_1301,MusicAffectPsychophysiology2019,3.0.5,59.903228730235696,
To what extent did the music make you feel ,ASHAMED,30MonoWAV/30MonoT1.wav,2,1,4,13,,,,,0,12,12,12,0,7,7,4,,,,,,,,,2,1.7352476169980946,004,001,2019_May_07_1301,MusicAffectPsychophysiology2019,3.0.5,59.903228730235696,
To what extent did the music make you feel ,ACTIVE,30MonoWAV/30MonoT1.wav,2,1,4,13,,,,,0,12,12,12,0,8,8,9,,,,,,,,,1,2.9514824819998466,004,001,2019_May_07_1301,MusicAffectPsychophysiology2019,3.0.5,59.903228730235696,
To what extent did the music make you feel ,FRUSTRATED,30MonoWAV/30MonoT1.wav,2,1,4,13,,,,,0,12,12,12,0,9,9,3,,,,,,,,,1,1.7185239149985136,004,001,2019_May_07_1301,MusicAffectPsychophysiology2019,3.0.5,59.903228730235696,
To what extent did the music make you feel ,EXCITED,30MonoWAV/30MonoT1.wav,2,1,4,13,,,,,0,12,12,12,0,10,10,7,,,,,,,,,1,3.951409938003053,004,001,2019_May_07_1301,MusicAffectPsychophysiology2019,3.0.5,59.903228730235696,
To what extent did the music make you feel ,TENDER,30MonoWAV/30MonoT1.wav,2,1,4,13,,,,,0,12,12,12,0,11,11,10,,,,,,,,,3,1.6850241959982668,004,001,2019_May_07_1301,MusicAffectPsychophysiology2019,3.0.5,59.903228730235696,
,,30MonoWAV/30MonoT1.wav,2,1,4,13,,,,,0,12,12,12,,,,,,,,,,,,,,,004,001,2019_May_07_1301,MusicAffectPsychophysiology2019,3.0.5,59.903228730235696,
To what extent did the music make you feel ,FRUSTRATED,30MonoWAV/30MonoH4.wav,2,2,1,8,,,,,0,13,13,7,0,0,0,3,,,4,5.044380129002093,4,1.9160830160035403,,,1,1.5686083280015737,004,001,2019_May_07_1301,MusicAffectPsychophysiology2019,3.0.5,59.903228730235696,
To what extent did the music make you feel ,TENDER,30MonoWAV/30MonoH4.wav,2,2,1,8,,,,,0,13,13,7,0,1,1,10,,,,,,,,,3,1.483547676998569,004,001,2019_May_07_1301,MusicAffectPsychophysiology2019,3.0.5,59.903228730235696,
To what extent did the music make you feel ,ALERT,30MonoWAV/30MonoH4.wav,2,2,1,8,,,,,0,13,13,7,0,2,2,8,,,,,,,,,2,1.5174876899982337,004,001,2019_May_07_1301,MusicAffectPsychophysiology2019,3.0.5,59.903228730235696,
To what extent did the music make you feel ,ACTIVE,30MonoWAV/30MonoH4.wav,2,2,1,8,,,,,0,13,13,7,0,3,3,9,,,,,,,,,4,2.3515830929973163,004,001,2019_May_07_1301,MusicAffectPsychophysiology2019,3.0.5,59.903228730235696,
To what extent did the music make you feel ,ANGRY,30MonoWAV/30MonoH4.wav,2,2,1,8,,,,,0,13,13,7,0,4,4,2,,,,,,,,,1,2.700079932998051,004,001,2019_May_07_1301,MusicAffectPsychophysiology2019,3.0.5,59.903228730235696,
To what extent did the music make you feel ,HAPPY,30MonoWAV/30MonoH4.wav,2,2,1,8,,,,,0,13,13,7,0,5,5,6,,,,,,,,,3,1.3181075659995258,004,001,2019_May_07_1301,MusicAffectPsychophysiology2019,3.0.5,59.903228730235696,
To what extent did the music make you feel ,GUILTY,30MonoWAV/30MonoH4.wav,2,2,1,8,,,,,0,13,13,7,0,6,6,5,,,,,,,,,1,1.6358489679987542,004,001,2019_May_07_1301,MusicAffectPsychophysiology2019,3.0.5,59.903228730235696,
To what extent did the music make you feel ,SCARED,30MonoWAV/30MonoH4.wav,2,2,1,8,,,,,0,13,13,7,0,7,7,11,,,,,,,,,1,1.3503678090019093,004,001,2019_May_07_1301,MusicAffectPsychophysiology2019,3.0.5,59.903228730235696,
To what extent did the music make you feel ,SAD,30MonoWAV/30MonoH4.wav,2,2,1,8,,,,,0,13,13,7,0,8,8,0,,,,,,,,,1,1.4509341800003313,004,001,2019_May_07_1301,MusicAffectPsychophysiology2019,3.0.5,59.903228730235696,
To what extent did the music make you feel ,EXCITED,30MonoWAV/30MonoH4.wav,2,2,1,8,,,,,0,13,13,7,0,9,9,7,,,,,,,,,3,1.5519183459982742,004,001,2019_May_07_1301,MusicAffectPsychophysiology2019,3.0.5,59.903228730235696,
To what extent did the music make you feel ,ANXIOUS ,30MonoWAV/30MonoH4.wav,2,2,1,8,,,,,0,13,13,7,0,10,10,1,,,,,,,,,2,4.943865392000589,004,001,2019_May_07_1301,MusicAffectPsychophysiology2019,3.0.5,59.903228730235696,
To what extent did the music make you feel ,ASHAMED,30MonoWAV/30MonoH4.wav,2,2,1,8,,,,,0,13,13,7,0,11,11,4,,,,,,,,,1,1.3696925579970411,004,001,2019_May_07_1301,MusicAffectPsychophysiology2019,3.0.5,59.903228730235696,
,,30MonoWAV/30MonoH4.wav,2,2,1,8,,,,,0,13,13,7,,,,,,,,,,,,,,,004,001,2019_May_07_1301,MusicAffectPsychophysiology2019,3.0.5,59.903228730235696,
To what extent did the music make you feel ,GUILTY,30MonoWAV/30MonoT3.wav,2,1,4,15,,,,,0,14,14,14,0,0,0,5,,,2,5.7342977699991025,3,3.568151477000356,,,2,2.9849304819981626,004,001,2019_May_07_1301,MusicAffectPsychophysiology2019,3.0.5,59.903228730235696,
To what extent did the music make you feel ,ANXIOUS ,30MonoWAV/30MonoT3.wav,2,1,4,15,,,,,0,14,14,14,0,1,1,1,,,,,,,,,2,1.618089775001863,004,001,2019_May_07_1301,MusicAffectPsychophysiology2019,3.0.5,59.903228730235696,
To what extent did the music make you feel ,ALERT,30MonoWAV/30MonoT3.wav,2,1,4,15,,,,,0,14,14,14,0,2,2,8,,,,,,,,,1,2.435345249999955,004,001,2019_May_07_1301,MusicAffectPsychophysiology2019,3.0.5,59.903228730235696,
To what extent did the music make you feel ,FRUSTRATED,30MonoWAV/30MonoT3.wav,2,1,4,15,,,,,0,14,14,14,0,3,3,3,,,,,,,,,1,1.7851919290005753,004,001,2019_May_07_1301,MusicAffectPsychophysiology2019,3.0.5,59.903228730235696,
To what extent did the music make you feel ,EXCITED,30MonoWAV/30MonoT3.wav,2,1,4,15,,,,,0,14,14,14,0,4,4,7,,,,,,,,,2,2.4522042780008633,004,001,2019_May_07_1301,MusicAffectPsychophysiology2019,3.0.5,59.903228730235696,
To what extent did the music make you feel ,SCARED,30MonoWAV/30MonoT3.wav,2,1,4,15,,,,,0,14,14,14,0,5,5,11,,,,,,,,,1,2.0851264640004956,004,001,2019_May_07_1301,MusicAffectPsychophysiology2019,3.0.5,59.903228730235696,
To what extent did the music make you feel ,ACTIVE,30MonoWAV/30MonoT3.wav,2,1,4,15,,,,,0,14,14,14,0,6,6,9,,,,,,,,,1,1.2182705150007678,004,001,2019_May_07_1301,MusicAffectPsychophysiology2019,3.0.5,59.903228730235696,
To what extent did the music make you feel ,HAPPY,30MonoWAV/30MonoT3.wav,2,1,4,15,,,,,0,14,14,14,0,7,7,6,,,,,,,,,2,2.384735619001731,004,001,2019_May_07_1301,MusicAffectPsychophysiology2019,3.0.5,59.903228730235696,
To what extent did the music make you feel ,TENDER,30MonoWAV/30MonoT3.wav,2,1,4,15,,,,,0,14,14,14,0,8,8,10,,,,,,,,,4,1.634932746001141,004,001,2019_May_07_1301,MusicAffectPsychophysiology2019,3.0.5,59.903228730235696,
To what extent did the music make you feel ,ASHAMED,30MonoWAV/30MonoT3.wav,2,1,4,15,,,,,0,14,14,14,0,9,9,4,,,,,,,,,1,3.6686888140029623,004,001,2019_May_07_1301,MusicAffectPsychophysiology2019,3.0.5,59.903228730235696,
To what extent did the music make you feel ,SAD,30MonoWAV/30MonoT3.wav,2,1,4,15,,,,,0,14,14,14,0,10,10,0,,,,,,,,,2,3.2522475510013464,004,001,2019_May_07_1301,MusicAffectPsychophysiology2019,3.0.5,59.903228730235696,
To what extent did the music make you feel ,ANGRY,30MonoWAV/30MonoT3.wav,2,1,4,15,,,,,0,14,14,14,0,11,11,2,,,,,,,,,1,1.501593631997821,004,001,2019_May_07_1301,MusicAffectPsychophysiology2019,3.0.5,59.903228730235696,
,,30MonoWAV/30MonoT3.wav,2,1,4,15,,,,,0,14,14,14,,,,,,,,,,,,,,,004,001,2019_May_07_1301,MusicAffectPsychophysiology2019,3.0.5,59.903228730235696,
To what extent did the music make you feel ,ANXIOUS ,30MonoWAV/30MonoS4.wav,1,1,3,12,,,,,0,15,15,11,0,0,0,1,,,2,9.696165614001075,3,2.891639359000692,,,2,3.401317398001993,004,001,2019_May_07_1301,MusicAffectPsychophysiology2019,3.0.5,59.903228730235696,
To what extent did the music make you feel ,ACTIVE,30MonoWAV/30MonoS4.wav,1,1,3,12,,,,,0,15,15,11,0,1,1,9,,,,,,,,,1,1.3346178190004139,004,001,2019_May_07_1301,MusicAffectPsychophysiology2019,3.0.5,59.903228730235696,
To what extent did the music make you feel ,ALERT,30MonoWAV/30MonoS4.wav,1,1,3,12,,,,,0,15,15,11,0,2,2,8,,,,,,,,,1,1.1845960359969467,004,001,2019_May_07_1301,MusicAffectPsychophysiology2019,3.0.5,59.903228730235696,
To what extent did the music make you feel ,GUILTY,30MonoWAV/30MonoS4.wav,1,1,3,12,,,,,0,15,15,11,0,3,3,5,,,,,,,,,3,1.8347132499984582,004,001,2019_May_07_1301,MusicAffectPsychophysiology2019,3.0.5,59.903228730235696,
To what extent did the music make you feel ,ASHAMED,30MonoWAV/30MonoS4.wav,1,1,3,12,,,,,0,15,15,11,0,4,4,4,,,,,,,,,2,1.8676310360024218,004,001,2019_May_07_1301,MusicAffectPsychophysiology2019,3.0.5,59.903228730235696,
To what extent did the music make you feel ,TENDER,30MonoWAV/30MonoS4.wav,1,1,3,12,,,,,0,15,15,11,0,5,5,10,,,,,,,,,3,2.118527320002613,004,001,2019_May_07_1301,MusicAffectPsychophysiology2019,3.0.5,59.903228730235696,
To what extent did the music make you feel ,FRUSTRATED,30MonoWAV/30MonoS4.wav,1,1,3,12,,,,,0,15,15,11,0,6,6,3,,,,,,,,,1,1.9184176980015764,004,001,2019_May_07_1301,MusicAffectPsychophysiology2019,3.0.5,59.903228730235696,
To what extent did the music make you feel ,ANGRY,30MonoWAV/30MonoS4.wav,1,1,3,12,,,,,0,15,15,11,0,7,7,2,,,,,,,,,1,0.9185149939985422,004,001,2019_May_07_1301,MusicAffectPsychophysiology2019,3.0.5,59.903228730235696,
To what extent did the music make you feel ,SAD,30MonoWAV/30MonoS4.wav,1,1,3,12,,,,,0,15,15,11,0,8,8,0,,,,,,,,,3,3.8679271999972116,004,001,2019_May_07_1301,MusicAffectPsychophysiology2019,3.0.5,59.903228730235696,
To what extent did the music make you feel ,SCARED,30MonoWAV/30MonoS4.wav,1,1,3,12,,,,,0,15,15,11,0,9,9,11,,,,,,,,,1,1.6681590910011437,004,001,2019_May_07_1301,MusicAffectPsychophysiology2019,3.0.5,59.903228730235696,
To what extent did the music make you feel ,EXCITED,30MonoWAV/30MonoS4.wav,1,1,3,12,,,,,0,15,15,11,0,10,10,7,,,,,,,,,1,1.0343954900017707,004,001,2019_May_07_1301,MusicAffectPsychophysiology2019,3.0.5,59.903228730235696,
To what extent did the music make you feel ,HAPPY,30MonoWAV/30MonoS4.wav,1,1,3,12,,,,,0,15,15,11,0,11,11,6,,,,,,,,,1,3.7680904459994053,004,001,2019_May_07_1301,MusicAffectPsychophysiology2019,3.0.5,59.903228730235696,
,,30MonoWAV/30MonoS4.wav,1,1,3,12,,,,,0,15,15,11,,,,,,,,,,,,,,,004,001,2019_May_07_1301,MusicAffectPsychophysiology2019,3.0.5,59.903228730235696,
To what extent did the music make you feel ,SCARED,30MonoWAV/30MonoS2.wav,1,1,3,10,,,,,1,0,16,9,0,0,0,11,,,2,5.001339303998975,3,2.668357945000025,,,1,4.235368834997644,004,001,2019_May_07_1301,MusicAffectPsychophysiology2019,3.0.5,59.903228730235696,
To what extent did the music make you feel ,ALERT,30MonoWAV/30MonoS2.wav,1,1,3,10,,,,,1,0,16,9,0,1,1,8,,,,,,,,,1,1.4169909140000527,004,001,2019_May_07_1301,MusicAffectPsychophysiology2019,3.0.5,59.903228730235696,
To what extent did the music make you feel ,ASHAMED,30MonoWAV/30MonoS2.wav,1,1,3,10,,,,,1,0,16,9,0,2,2,4,,,,,,,,,2,2.052156848996674,004,001,2019_May_07_1301,MusicAffectPsychophysiology2019,3.0.5,59.903228730235696,
To what extent did the music make you feel ,TENDER,30MonoWAV/30MonoS2.wav,1,1,3,10,,,,,1,0,16,9,0,3,3,10,,,,,,,,,3,1.7850802690009004,004,001,2019_May_07_1301,MusicAffectPsychophysiology2019,3.0.5,59.903228730235696,
To what extent did the music make you feel ,SAD,30MonoWAV/30MonoS2.wav,1,1,3,10,,,,,1,0,16,9,0,4,4,0,,,,,,,,,3,1.6841228769990266,004,001,2019_May_07_1301,MusicAffectPsychophysiology2019,3.0.5,59.903228730235696,
To what extent did the music make you feel ,HAPPY,30MonoWAV/30MonoS2.wav,1,1,3,10,,,,,1,0,16,9,0,5,5,6,,,,,,,,,1,1.4183184989997244,004,001,2019_May_07_1301,MusicAffectPsychophysiology2019,3.0.5,59.903228730235696,
To what extent did the music make you feel ,ANGRY,30MonoWAV/30MonoS2.wav,1,1,3,10,,,,,1,0,16,9,0,6,6,2,,,,,,,,,1,2.1181994280013896,004,001,2019_May_07_1301,MusicAffectPsychophysiology2019,3.0.5,59.903228730235696,
To what extent did the music make you feel ,FRUSTRATED,30MonoWAV/30MonoS2.wav,1,1,3,10,,,,,1,0,16,9,0,7,7,3,,,,,,,,,1,3.1012645899972995,004,001,2019_May_07_1301,MusicAffectPsychophysiology2019,3.0.5,59.903228730235696,
To what extent did the music make you feel ,ANXIOUS ,30MonoWAV/30MonoS2.wav,1,1,3,10,,,,,1,0,16,9,0,8,8,1,,,,,,,,,2,1.535067037002591,004,001,2019_May_07_1301,MusicAffectPsychophysiology2019,3.0.5,59.903228730235696,
To what extent did the music make you feel ,ACTIVE,30MonoWAV/30MonoS2.wav,1,1,3,10,,,,,1,0,16,9,0,9,9,9,,,,,,,,,1,1.2518810849978763,004,001,2019_May_07_1301,MusicAffectPsychophysiology2019,3.0.5,59.903228730235696,
To what extent did the music make you feel ,GUILTY,30MonoWAV/30MonoS2.wav,1,1,3,10,,,,,1,0,16,9,0,10,10,5,,,,,,,,,3,1.418980382000882,004,001,2019_May_07_1301,MusicAffectPsychophysiology2019,3.0.5,59.903228730235696,
To what extent did the music make you feel ,EXCITED,30MonoWAV/30MonoS2.wav,1,1,3,10,,,,,1,0,16,9,0,11,11,7,,,,,,,,,1,1.6186120310012484,004,001,2019_May_07_1301,MusicAffectPsychophysiology2019,3.0.5,59.903228730235696,
,,30MonoWAV/30MonoS2.wav,1,1,3,10,,,,,1,0,16,9,,,,,,,,,,,,,,,004,001,2019_May_07_1301,MusicAffectPsychophysiology2019,3.0.5,59.903228730235696,
To what extent did the music make you feel ,ASHAMED,30MonoWAV/30MonoF1.wav,1,2,2,1,,,,,1,1,17,0,0,0,0,4,,,4,4.250311291001708,3,4.668135103001987,,,1,2.8673415730008855,004,001,2019_May_07_1301,MusicAffectPsychophysiology2019,3.0.5,59.903228730235696,
To what extent did the music make you feel ,SAD,30MonoWAV/30MonoF1.wav,1,2,2,1,,,,,1,1,17,0,0,1,1,0,,,,,,,,,1,1.2685874519993376,004,001,2019_May_07_1301,MusicAffectPsychophysiology2019,3.0.5,59.903228730235696,
To what extent did the music make you feel ,TENDER,30MonoWAV/30MonoF1.wav,1,2,2,1,,,,,1,1,17,0,0,2,2,10,,,,,,,,,1,1.284714740999334,004,001,2019_May_07_1301,MusicAffectPsychophysiology2019,3.0.5,59.903228730235696,
To what extent did the music make you feel ,SCARED,30MonoWAV/30MonoF1.wav,1,2,2,1,,,,,1,1,17,0,0,3,3,11,,,,,,,,,2,1.4015925069979858,004,001,2019_May_07_1301,MusicAffectPsychophysiology2019,3.0.5,59.903228730235696,
To what extent did the music make you feel ,ANGRY,30MonoWAV/30MonoF1.wav,1,2,2,1,,,,,1,1,17,0,0,4,4,2,,,,,,,,,2,1.8518828960004612,004,001,2019_May_07_1301,MusicAffectPsychophysiology2019,3.0.5,59.903228730235696,
To what extent did the music make you feel ,FRUSTRATED,30MonoWAV/30MonoF1.wav,1,2,2,1,,,,,1,1,17,0,0,5,5,3,,,,,,,,,1,1.3515809749987966,004,001,2019_May_07_1301,MusicAffectPsychophysiology2019,3.0.5,59.903228730235696,
To what extent did the music make you feel ,ALERT,30MonoWAV/30MonoF1.wav,1,2,2,1,,,,,1,1,17,0,0,6,6,8,,,,,,,,,3,1.8525438159995247,004,001,2019_May_07_1301,MusicAffectPsychophysiology2019,3.0.5,59.903228730235696,
To what extent did the music make you feel ,GUILTY,30MonoWAV/30MonoF1.wav,1,2,2,1,,,,,1,1,17,0,0,7,7,5,,,,,,,,,2,1.4677669940028863,004,001,2019_May_07_1301,MusicAffectPsychophysiology2019,3.0.5,59.903228730235696,
To what extent did the music make you feel ,EXCITED,30MonoWAV/30MonoF1.wav,1,2,2,1,,,,,1,1,17,0,0,8,8,7,,,,,,,,,4,1.6355006600024353,004,001,2019_May_07_1301,MusicAffectPsychophysiology2019,3.0.5,59.903228730235696,
To what extent did the music make you feel ,ANXIOUS ,30MonoWAV/30MonoF1.wav,1,2,2,1,,,,,1,1,17,0,0,9,9,1,,,,,,,,,3,1.8189367939994554,004,001,2019_May_07_1301,MusicAffectPsychophysiology2019,3.0.5,59.903228730235696,
To what extent did the music make you feel ,ACTIVE,30MonoWAV/30MonoF1.wav,1,2,2,1,,,,,1,1,17,0,0,10,10,9,,,,,,,,,1,1.884078454997507,004,001,2019_May_07_1301,MusicAffectPsychophysiology2019,3.0.5,59.903228730235696,
To what extent did the music make you feel ,HAPPY,30MonoWAV/30MonoF1.wav,1,2,2,1,,,,,1,1,17,0,0,11,11,6,,,,,,,,,1,2.084797769999568,004,001,2019_May_07_1301,MusicAffectPsychophysiology2019,3.0.5,59.903228730235696,
,,30MonoWAV/30MonoF1.wav,1,2,2,1,,,,,1,1,17,0,,,,,,,,,,,,,,,004,001,2019_May_07_1301,MusicAffectPsychophysiology2019,3.0.5,59.903228730235696,
To what extent did the music make you feel ,ANGRY,30MonoWAV/30MonoH2.wav,2,2,1,6,,,,,1,2,18,5,0,0,0,2,,,3,7.914835132000007,3,1.7189345240003604,,,1,1.5014054880011827,004,001,2019_May_07_1301,MusicAffectPsychophysiology2019,3.0.5,59.903228730235696,
To what extent did the music make you feel ,ACTIVE,30MonoWAV/30MonoH2.wav,2,2,1,6,,,,,1,2,18,5,0,1,1,9,,,,,,,,,2,2.2851467949985818,004,001,2019_May_07_1301,MusicAffectPsychophysiology2019,3.0.5,59.903228730235696,
To what extent did the music make you feel ,SCARED,30MonoWAV/30MonoH2.wav,2,2,1,6,,,,,1,2,18,5,0,2,2,11,,,,,,,,,1,2.068533228000888,004,001,2019_May_07_1301,MusicAffectPsychophysiology2019,3.0.5,59.903228730235696,
To what extent did the music make you feel ,TENDER,30MonoWAV/30MonoH2.wav,2,2,1,6,,,,,1,2,18,5,0,3,3,10,,,,,,,,,2,2.3184953609998047,004,001,2019_May_07_1301,MusicAffectPsychophysiology2019,3.0.5,59.903228730235696,
To what extent did the music make you feel ,FRUSTRATED,30MonoWAV/30MonoH2.wav,2,2,1,6,,,,,1,2,18,5,0,4,4,3,,,,,,,,,1,1.2008957979996921,004,001,2019_May_07_1301,MusicAffectPsychophysiology2019,3.0.5,59.903228730235696,
To what extent did the music make you feel ,EXCITED,30MonoWAV/30MonoH2.wav,2,2,1,6,,,,,1,2,18,5,0,5,5,7,,,,,,,,,3,1.2186819950002246,004,001,2019_May_07_1301,MusicAffectPsychophysiology2019,3.0.5,59.903228730235696,
To what extent did the music make you feel ,ASHAMED,30MonoWAV/30MonoH2.wav,2,2,1,6,,,,,1,2,18,5,0,6,6,4,,,,,,,,,1,1.3830159489989455,004,001,2019_May_07_1301,MusicAffectPsychophysiology2019,3.0.5,59.903228730235696,
To what extent did the music make you feel ,HAPPY,30MonoWAV/30MonoH2.wav,2,2,1,6,,,,,1,2,18,5,0,7,7,6,,,,,,,,,2,1.7832256789988605,004,001,2019_May_07_1301,MusicAffectPsychophysiology2019,3.0.5,59.903228730235696,
To what extent did the music make you feel ,GUILTY,30MonoWAV/30MonoH2.wav,2,2,1,6,,,,,1,2,18,5,0,8,8,5,,,,,,,,,1,1.2009640420001233,004,001,2019_May_07_1301,MusicAffectPsychophysiology2019,3.0.5,59.903228730235696,
To what extent did the music make you feel ,ALERT,30MonoWAV/30MonoH2.wav,2,2,1,6,,,,,1,2,18,5,0,9,9,8,,,,,,,,,1,2.0000212300001294,004,001,2019_May_07_1301,MusicAffectPsychophysiology2019,3.0.5,59.903228730235696,
To what extent did the music make you feel ,ANXIOUS ,30MonoWAV/30MonoH2.wav,2,2,1,6,,,,,1,2,18,5,0,10,10,1,,,,,,,,,2,1.4850655510017532,004,001,2019_May_07_1301,MusicAffectPsychophysiology2019,3.0.5,59.903228730235696,
To what extent did the music make you feel ,SAD,30MonoWAV/30MonoH2.wav,2,2,1,6,,,,,1,2,18,5,0,11,11,0,,,,,,,,,1,1.3354948929991224,004,001,2019_May_07_1301,MusicAffectPsychophysiology2019,3.0.5,59.903228730235696,
,,30MonoWAV/30MonoH2.wav,2,2,1,6,,,,,1,2,18,5,,,,,,,,,,,,,,,004,001,2019_May_07_1301,MusicAffectPsychophysiology2019,3.0.5,59.903228730235696,
To what extent did the music make you feel ,SAD,30MonoWAV/30MonoT4.wav,2,1,4,16,,,,,1,3,19,15,0,0,0,0,,,4,4.75124117499945,4,1.4697140280004533,,,2,1.6698746379988734,004,001,2019_May_07_1301,MusicAffectPsychophysiology2019,3.0.5,59.903228730235696,
To what extent did the music make you feel ,SCARED,30MonoWAV/30MonoT4.wav,2,1,4,16,,,,,1,3,19,15,0,1,1,11,,,,,,,,,1,1.1002691620014957,004,001,2019_May_07_1301,MusicAffectPsychophysiology2019,3.0.5,59.903228730235696,
To what extent did the music make you feel ,ASHAMED,30MonoWAV/30MonoT4.wav,2,1,4,16,,,,,1,3,19,15,0,2,2,4,,,,,,,,,2,1.4187752200014074,004,001,2019_May_07_1301,MusicAffectPsychophysiology2019,3.0.5,59.903228730235696,
To what extent did the music make you feel ,FRUSTRATED,30MonoWAV/30MonoT4.wav,2,1,4,16,,,,,1,3,19,15,0,3,3,3,,,,,,,,,1,1.8678043090003484,004,001,2019_May_07_1301,MusicAffectPsychophysiology2019,3.0.5,59.903228730235696,
To what extent did the music make you feel ,ANGRY,30MonoWAV/30MonoT4.wav,2,1,4,16,,,,,1,3,19,15,0,4,4,2,,,,,,,,,1,1.4516158200021891,004,001,2019_May_07_1301,MusicAffectPsychophysiology2019,3.0.5,59.903228730235696,
To what extent did the music make you feel ,ALERT,30MonoWAV/30MonoT4.wav,2,1,4,16,,,,,1,3,19,15,0,5,5,8,,,,,,,,,1,1.6509835289980401,004,001,2019_May_07_1301,MusicAffectPsychophysiology2019,3.0.5,59.903228730235696,
To what extent did the music make you feel ,GUILTY,30MonoWAV/30MonoT4.wav,2,1,4,16,,,,,1,3,19,15,0,6,6,5,,,,,,,,,3,2.068161086001055,004,001,2019_May_07_1301,MusicAffectPsychophysiology2019,3.0.5,59.903228730235696,
To what extent did the music make you feel ,ANXIOUS ,30MonoWAV/30MonoT4.wav,2,1,4,16,,,,,1,3,19,15,0,7,7,1,,,,,,,,,4,1.7511979310002062,004,001,2019_May_07_1301,MusicAffectPsychophysiology2019,3.0.5,59.903228730235696,
To what extent did the music make you feel ,HAPPY,30MonoWAV/30MonoT4.wav,2,1,4,16,,,,,1,3,19,15,0,8,8,6,,,,,,,,,2,1.3526169450015004,004,001,2019_May_07_1301,MusicAffectPsychophysiology2019,3.0.5,59.903228730235696,
To what extent did the music make you feel ,ACTIVE,30MonoWAV/30MonoT4.wav,2,1,4,16,,,,,1,3,19,15,0,9,9,9,,,,,,,,,1,1.468724441001541,004,001,2019_May_07_1301,MusicAffectPsychophysiology2019,3.0.5,59.903228730235696,
To what extent did the music make you feel ,EXCITED,30MonoWAV/30MonoT4.wav,2,1,4,16,,,,,1,3,19,15,0,10,10,7,,,,,,,,,3,1.8184756740010926,004,001,2019_May_07_1301,MusicAffectPsychophysiology2019,3.0.5,59.903228730235696,
To what extent did the music make you feel ,TENDER,30MonoWAV/30MonoT4.wav,2,1,4,16,,,,,1,3,19,15,0,11,11,10,,,,,,,,,5,1.2014906409967807,004,001,2019_May_07_1301,MusicAffectPsychophysiology2019,3.0.5,59.903228730235696,
,,30MonoWAV/30MonoT4.wav,2,1,4,16,,,,,1,3,19,15,,,,,,,,,,,,,,,004,001,2019_May_07_1301,MusicAffectPsychophysiology2019,3.0.5,59.903228730235696,
To what extent did the music make you feel ,HAPPY,30MonoWAV/30MonoT3.wav,2,1,4,15,,,,,1,4,20,14,0,0,0,6,,,3,3.1922231829994416,3,2.301343603001442,,,2,2.03619541900116,004,001,2019_May_07_1301,MusicAffectPsychophysiology2019,3.0.5,59.903228730235696,
To what extent did the music make you feel ,SCARED,30MonoWAV/30MonoT3.wav,2,1,4,15,,,,,1,4,20,14,0,1,1,11,,,,,,,,,1,1.6686069349998434,004,001,2019_May_07_1301,MusicAffectPsychophysiology2019,3.0.5,59.903228730235696,
To what extent did the music make you feel ,FRUSTRATED,30MonoWAV/30MonoT3.wav,2,1,4,15,,,,,1,4,20,14,0,2,2,3,,,,,,,,,1,1.6347966069988615,004,001,2019_May_07_1301,MusicAffectPsychophysiology2019,3.0.5,59.903228730235696,
To what extent did the music make you feel ,ANXIOUS ,30MonoWAV/30MonoT3.wav,2,1,4,15,,,,,1,4,20,14,0,3,3,1,,,,,,,,,2,1.518118197000149,004,001,2019_May_07_1301,MusicAffectPsychophysiology2019,3.0.5,59.903228730235696,
To what extent did the music make you feel ,ALERT,30MonoWAV/30MonoT3.wav,2,1,4,15,,,,,1,4,20,14,0,4,4,8,,,,,,,,,1,2.0021019679988967,004,001,2019_May_07_1301,MusicAffectPsychophysiology2019,3.0.5,59.903228730235696,
To what extent did the music make you feel ,ACTIVE,30MonoWAV/30MonoT3.wav,2,1,4,15,,,,,1,4,20,14,0,5,5,9,,,,,,,,,1,3.5656254939967766,004,001,2019_May_07_1301,MusicAffectPsychophysiology2019,3.0.5,59.903228730235696,
To what extent did the music make you feel ,SAD,30MonoWAV/30MonoT3.wav,2,1,4,15,,,,,1,4,20,14,0,6,6,0,,,,,,,,,3,1.785730520998186,004,001,2019_May_07_1301,MusicAffectPsychophysiology2019,3.0.5,59.903228730235696,
To what extent did the music make you feel ,GUILTY,30MonoWAV/30MonoT3.wav,2,1,4,15,,,,,1,4,20,14,0,7,7,5,,,,,,,,,2,1.319148751998,004,001,2019_May_07_1301,MusicAffectPsychophysiology2019,3.0.5,59.903228730235696,
To what extent did the music make you feel ,ANGRY,30MonoWAV/30MonoT3.wav,2,1,4,15,,,,,1,4,20,14,0,8,8,2,,,,,,,,,1,1.7069799670025532,004,001,2019_May_07_1301,MusicAffectPsychophysiology2019,3.0.5,59.903228730235696,
To what extent did the music make you feel ,ASHAMED,30MonoWAV/30MonoT3.wav,2,1,4,15,,,,,1,4,20,14,0,9,9,4,,,,,,,,,2,2.187544300999434,004,001,2019_May_07_1301,MusicAffectPsychophysiology2019,3.0.5,59.903228730235696,
To what extent did the music make you feel ,EXCITED,30MonoWAV/30MonoT3.wav,2,1,4,15,,,,,1,4,20,14,0,10,10,7,,,,,,,,,1,1.4202395339998475,004,001,2019_May_07_1301,MusicAffectPsychophysiology2019,3.0.5,59.903228730235696,
To what extent did the music make you feel ,TENDER,30MonoWAV/30MonoT3.wav,2,1,4,15,,,,,1,4,20,14,0,11,11,10,,,,,,,,,4,2.4379076459990756,004,001,2019_May_07_1301,MusicAffectPsychophysiology2019,3.0.5,59.903228730235696,
,,30MonoWAV/30MonoT3.wav,2,1,4,15,,,,,1,4,20,14,,,,,,,,,,,,,,,004,001,2019_May_07_1301,MusicAffectPsychophysiology2019,3.0.5,59.903228730235696,
To what extent did the music make you feel ,TENDER,30MonoWAV/30MonoH4.wav,2,2,1,8,,,,,1,5,21,7,0,0,0,10,,,5,3.468605101999856,5,1.3517037310011801,,,2,2.618351138997241,004,001,2019_May_07_1301,MusicAffectPsychophysiology2019,3.0.5,59.903228730235696,
To what extent did the music make you feel ,ASHAMED,30MonoWAV/30MonoH4.wav,2,2,1,8,,,,,1,5,21,7,0,1,1,4,,,,,,,,,1,1.9352190009994956,004,001,2019_May_07_1301,MusicAffectPsychophysiology2019,3.0.5,59.903228730235696,
To what extent did the music make you feel ,FRUSTRATED,30MonoWAV/30MonoH4.wav,2,2,1,8,,,,,1,5,21,7,0,2,2,3,,,,,,,,,1,1.251887952999823,004,001,2019_May_07_1301,MusicAffectPsychophysiology2019,3.0.5,59.903228730235696,
To what extent did the music make you feel ,SAD,30MonoWAV/30MonoH4.wav,2,2,1,8,,,,,1,5,21,7,0,3,3,0,,,,,,,,,1,2.4508128910019877,004,001,2019_May_07_1301,MusicAffectPsychophysiology2019,3.0.5,59.903228730235696,
To what extent did the music make you feel ,ALERT,30MonoWAV/30MonoH4.wav,2,2,1,8,,,,,1,5,21,7,0,4,4,8,,,,,,,,,3,1.485571904999233,004,001,2019_May_07_1301,MusicAffectPsychophysiology2019,3.0.5,59.903228730235696,
To what extent did the music make you feel ,ANGRY,30MonoWAV/30MonoH4.wav,2,2,1,8,,,,,1,5,21,7,0,5,5,2,,,,,,,,,1,1.301827586001309,004,001,2019_May_07_1301,MusicAffectPsychophysiology2019,3.0.5,59.903228730235696,
To what extent did the music make you feel ,HAPPY,30MonoWAV/30MonoH4.wav,2,2,1,8,,,,,1,5,21,7,0,6,6,6,,,,,,,,,4,1.3009590879992174,004,001,2019_May_07_1301,MusicAffectPsychophysiology2019,3.0.5,59.903228730235696,
To what extent did the music make you feel ,SCARED,30MonoWAV/30MonoH4.wav,2,2,1,8,,,,,1,5,21,7,0,7,7,11,,,,,,,,,1,1.517613464002352,004,001,2019_May_07_1301,MusicAffectPsychophysiology2019,3.0.5,59.903228730235696,
To what extent did the music make you feel ,EXCITED,30MonoWAV/30MonoH4.wav,2,2,1,8,,,,,1,5,21,7,0,8,8,7,,,,,,,,,4,4.152554037998925,004,001,2019_May_07_1301,MusicAffectPsychophysiology2019,3.0.5,59.903228730235696,
To what extent did the music make you feel ,GUILTY,30MonoWAV/30MonoH4.wav,2,2,1,8,,,,,1,5,21,7,0,9,9,5,,,,,,,,,1,2.0506785079996916,004,001,2019_May_07_1301,MusicAffectPsychophysiology2019,3.0.5,59.903228730235696,
To what extent did the music make you feel ,ACTIVE,30MonoWAV/30MonoH4.wav,2,2,1,8,,,,,1,5,21,7,0,10,10,9,,,,,,,,,3,1.5177638710010797,004,001,2019_May_07_1301,MusicAffectPsychophysiology2019,3.0.5,59.903228730235696,
To what extent did the music make you feel ,ANXIOUS ,30MonoWAV/30MonoH4.wav,2,2,1,8,,,,,1,5,21,7,0,11,11,1,,,,,,,,,2,3.0850852620023943,004,001,2019_May_07_1301,MusicAffectPsychophysiology2019,3.0.5,59.903228730235696,
,,30MonoWAV/30MonoH4.wav,2,2,1,8,,,,,1,5,21,7,,,,,,,,,,,,,,,004,001,2019_May_07_1301,MusicAffectPsychophysiology2019,3.0.5,59.903228730235696,
To what extent did the music make you feel ,ALERT,30MonoWAV/30MonoS3.wav,1,1,3,11,,,,,1,6,22,10,0,0,0,8,,,2,3.9994536839985813,3,3.8512374839992844,,,1,1.5340815989984549,004,001,2019_May_07_1301,MusicAffectPsychophysiology2019,3.0.5,59.903228730235696,
To what extent did the music make you feel ,ANGRY,30MonoWAV/30MonoS3.wav,1,1,3,11,,,,,1,6,22,10,0,1,1,2,,,,,,,,,1,2.267814807000832,004,001,2019_May_07_1301,MusicAffectPsychophysiology2019,3.0.5,59.903228730235696,
To what extent did the music make you feel ,SAD,30MonoWAV/30MonoS3.wav,1,1,3,11,,,,,1,6,22,10,0,2,2,0,,,,,,,,,4,1.967753544999141,004,001,2019_May_07_1301,MusicAffectPsychophysiology2019,3.0.5,59.903228730235696,
To what extent did the music make you feel ,ANXIOUS ,30MonoWAV/30MonoS3.wav,1,1,3,11,,,,,1,6,22,10,0,3,3,1,,,,,,,,,1,2.4855610440026794,004,001,2019_May_07_1301,MusicAffectPsychophysiology2019,3.0.5,59.903228730235696,
To what extent did the music make you feel ,TENDER,30MonoWAV/30MonoS3.wav,1,1,3,11,,,,,1,6,22,10,0,4,4,10,,,,,,,,,4,2.5175134899982368,004,001,2019_May_07_1301,MusicAffectPsychophysiology2019,3.0.5,59.903228730235696,
To what extent did the music make you feel ,SCARED,30MonoWAV/30MonoS3.wav,1,1,3,11,,,,,1,6,22,10,0,5,5,11,,,,,,,,,2,3.534837585000787,004,001,2019_May_07_1301,MusicAffectPsychophysiology2019,3.0.5,59.903228730235696,
To what extent did the music make you feel ,EXCITED,30MonoWAV/30MonoS3.wav,1,1,3,11,,,,,1,6,22,10,0,6,6,7,,,,,,,,,1,1.184674128999177,004,001,2019_May_07_1301,MusicAffectPsychophysiology2019,3.0.5,59.903228730235696,
To what extent did the music make you feel ,ASHAMED,30MonoWAV/30MonoS3.wav,1,1,3,11,,,,,1,6,22,10,0,7,7,4,,,,,,,,,2,1.13518696599931,004,001,2019_May_07_1301,MusicAffectPsychophysiology2019,3.0.5,59.903228730235696,
To what extent did the music make you feel ,FRUSTRATED,30MonoWAV/30MonoS3.wav,1,1,3,11,,,,,1,6,22,10,0,8,8,3,,,,,,,,,1,1.4347952329990221,004,001,2019_May_07_1301,MusicAffectPsychophysiology2019,3.0.5,59.903228730235696,
To what extent did the music make you feel ,ACTIVE,30MonoWAV/30MonoS3.wav,1,1,3,11,,,,,1,6,22,10,0,9,9,9,,,,,,,,,1,2.7496565590008686,004,001,2019_May_07_1301,MusicAffectPsychophysiology2019,3.0.5,59.903228730235696,
To what extent did the music make you feel ,HAPPY,30MonoWAV/30MonoS3.wav,1,1,3,11,,,,,1,6,22,10,0,10,10,6,,,,,,,,,1,1.0178981770004611,004,001,2019_May_07_1301,MusicAffectPsychophysiology2019,3.0.5,59.903228730235696,
To what extent did the music make you feel ,GUILTY,30MonoWAV/30MonoS3.wav,1,1,3,11,,,,,1,6,22,10,0,11,11,5,,,,,,,,,3,1.4024273180002638,004,001,2019_May_07_1301,MusicAffectPsychophysiology2019,3.0.5,59.903228730235696,
,,30MonoWAV/30MonoS3.wav,1,1,3,11,,,,,1,6,22,10,,,,,,,,,,,,,,,004,001,2019_May_07_1301,MusicAffectPsychophysiology2019,3.0.5,59.903228730235696,
To what extent did the music make you feel ,EXCITED,30MonoWAV/30MonoH3.wav,2,2,1,7,,,,,1,7,23,6,0,0,0,7,,,4,3.652283488998364,4,1.6020791720002308,,,4,2.918397900000855,004,001,2019_May_07_1301,MusicAffectPsychophysiology2019,3.0.5,59.903228730235696,
To what extent did the music make you feel ,SCARED,30MonoWAV/30MonoH3.wav,2,2,1,7,,,,,1,7,23,6,0,1,1,11,,,,,,,,,1,1.4520743360008055,004,001,2019_May_07_1301,MusicAffectPsychophysiology2019,3.0.5,59.903228730235696,
To what extent did the music make you feel ,ANGRY,30MonoWAV/30MonoH3.wav,2,2,1,7,,,,,1,7,23,6,0,2,2,2,,,,,,,,,1,1.8030716979992576,004,001,2019_May_07_1301,MusicAffectPsychophysiology2019,3.0.5,59.903228730235696,
To what extent did the music make you feel ,ASHAMED,30MonoWAV/30MonoH3.wav,2,2,1,7,,,,,1,7,23,6,0,3,3,4,,,,,,,,,1,1.71837503200004,004,001,2019_May_07_1301,MusicAffectPsychophysiology2019,3.0.5,59.903228730235696,
To what extent did the music make you feel ,ACTIVE,30MonoWAV/30MonoH3.wav,2,2,1,7,,,,,1,7,23,6,0,4,4,9,,,,,,,,,3,1.852277726000466,004,001,2019_May_07_1301,MusicAffectPsychophysiology2019,3.0.5,59.903228730235696,
To what extent did the music make you feel ,TENDER,30MonoWAV/30MonoH3.wav,2,2,1,7,,,,,1,7,23,6,0,5,5,10,,,,,,,,,2,1.8354875330005598,004,001,2019_May_07_1301,MusicAffectPsychophysiology2019,3.0.5,59.903228730235696,
To what extent did the music make you feel ,GUILTY,30MonoWAV/30MonoH3.wav,2,2,1,7,,,,,1,7,23,6,0,6,6,5,,,,,,,,,1,1.7330658629980462,004,001,2019_May_07_1301,MusicAffectPsychophysiology2019,3.0.5,59.903228730235696,
To what extent did the music make you feel ,FRUSTRATED,30MonoWAV/30MonoH3.wav,2,2,1,7,,,,,1,7,23,6,0,7,7,3,,,,,,,,,1,1.352234915997542,004,001,2019_May_07_1301,MusicAffectPsychophysiology2019,3.0.5,59.903228730235696,
To what extent did the music make you feel ,ANXIOUS ,30MonoWAV/30MonoH3.wav,2,2,1,7,,,,,1,7,23,6,0,8,8,1,,,,,,,,,2,1.3856039780002902,004,001,2019_May_07_1301,MusicAffectPsychophysiology2019,3.0.5,59.903228730235696,
To what extent did the music make you feel ,SAD,30MonoWAV/30MonoH3.wav,2,2,1,7,,,,,1,7,23,6,0,9,9,0,,,,,,,,,1,1.6499603560005198,004,001,2019_May_07_1301,MusicAffectPsychophysiology2019,3.0.5,59.903228730235696,
To what extent did the music make you feel ,ALERT,30MonoWAV/30MonoH3.wav,2,2,1,7,,,,,1,7,23,6,0,10,10,8,,,,,,,,,3,1.5831600849996903,004,001,2019_May_07_1301,MusicAffectPsychophysiology2019,3.0.5,59.903228730235696,
To what extent did the music make you feel ,HAPPY,30MonoWAV/30MonoH3.wav,2,2,1,7,,,,,1,7,23,6,0,11,11,6,,,,,,,,,3,2.6017535719984153,004,001,2019_May_07_1301,MusicAffectPsychophysiology2019,3.0.5,59.903228730235696,
,,30MonoWAV/30MonoH3.wav,2,2,1,7,,,,,1,7,23,6,,,,,,,,,,,,,,,004,001,2019_May_07_1301,MusicAffectPsychophysiology2019,3.0.5,59.903228730235696,
To what extent did the music make you feel ,HAPPY,30MonoWAV/30MonoH1.wav,2,2,1,5,,,,,1,8,24,4,0,0,0,6,,,4,3.6678618830010237,4,1.4525675120021333,,,3,2.8503405480005313,004,001,2019_May_07_1301,MusicAffectPsychophysiology2019,3.0.5,59.903228730235696,
To what extent did the music make you feel ,ACTIVE,30MonoWAV/30MonoH1.wav,2,2,1,5,,,,,1,8,24,4,0,1,1,9,,,,,,,,,3,1.5694942980007909,004,001,2019_May_07_1301,MusicAffectPsychophysiology2019,3.0.5,59.903228730235696,
To what extent did the music make you feel ,ALERT,30MonoWAV/30MonoH1.wav,2,2,1,5,,,,,1,8,24,4,0,2,2,8,,,,,,,,,3,1.8828649110000697,004,001,2019_May_07_1301,MusicAffectPsychophysiology2019,3.0.5,59.903228730235696,
To what extent did the music make you feel ,ASHAMED,30MonoWAV/30MonoH1.wav,2,2,1,5,,,,,1,8,24,4,0,3,3,4,,,,,,,,,1,1.33450155799801,004,001,2019_May_07_1301,MusicAffectPsychophysiology2019,3.0.5,59.903228730235696,
To what extent did the music make you feel ,FRUSTRATED,30MonoWAV/30MonoH1.wav,2,2,1,5,,,,,1,8,24,4,0,4,4,3,,,,,,,,,1,1.7513838750019204,004,001,2019_May_07_1301,MusicAffectPsychophysiology2019,3.0.5,59.903228730235696,
To what extent did the music make you feel ,SCARED,30MonoWAV/30MonoH1.wav,2,2,1,5,,,,,1,8,24,4,0,5,5,11,,,,,,,,,1,1.6848169670010975,004,001,2019_May_07_1301,MusicAffectPsychophysiology2019,3.0.5,59.903228730235696,
To what extent did the music make you feel ,TENDER,30MonoWAV/30MonoH1.wav,2,2,1,5,,,,,1,8,24,4,0,6,6,10,,,,,,,,,2,1.2697872669996286,004,001,2019_May_07_1301,MusicAffectPsychophysiology2019,3.0.5,59.903228730235696,
To what extent did the music make you feel ,SAD,30MonoWAV/30MonoH1.wav,2,2,1,5,,,,,1,8,24,4,0,7,7,0,,,,,,,,,1,1.4857814770002733,004,001,2019_May_07_1301,MusicAffectPsychophysiology2019,3.0.5,59.903228730235696,
To what extent did the music make you feel ,EXCITED,30MonoWAV/30MonoH1.wav,2,2,1,5,,,,,1,8,24,4,0,8,8,7,,,,,,,,,3,1.5343405220010027,004,001,2019_May_07_1301,MusicAffectPsychophysiology2019,3.0.5,59.903228730235696,
To what extent did the music make you feel ,ANXIOUS ,30MonoWAV/30MonoH1.wav,2,2,1,5,,,,,1,8,24,4,0,9,9,1,,,,,,,,,1,1.801971209999465,004,001,2019_May_07_1301,MusicAffectPsychophysiology2019,3.0.5,59.903228730235696,
To what extent did the music make you feel ,ANGRY,30MonoWAV/30MonoH1.wav,2,2,1,5,,,,,1,8,24,4,0,10,10,2,,,,,,,,,1,2.3520497279969277,004,001,2019_May_07_1301,MusicAffectPsychophysiology2019,3.0.5,59.903228730235696,
To what extent did the music make you feel ,GUILTY,30MonoWAV/30MonoH1.wav,2,2,1,5,,,,,1,8,24,4,0,11,11,5,,,,,,,,,1,1.356530428998667,004,001,2019_May_07_1301,MusicAffectPsychophysiology2019,3.0.5,59.903228730235696,
,,30MonoWAV/30MonoH1.wav,2,2,1,5,,,,,1,8,24,4,,,,,,,,,,,,,,,004,001,2019_May_07_1301,MusicAffectPsychophysiology2019,3.0.5,59.903228730235696,
To what extent did the music make you feel ,TENDER,30MonoWAV/30MonoF3.wav,1,2,2,3,,,,,1,9,25,2,0,0,0,10,,,3,4.5575932869978715,4,1.8680637770012254,,,1,2.834963727000286,004,001,2019_May_07_1301,MusicAffectPsychophysiology2019,3.0.5,59.903228730235696,
To what extent did the music make you feel ,ACTIVE,30MonoWAV/30MonoF3.wav,1,2,2,3,,,,,1,9,25,2,0,1,1,9,,,,,,,,,3,1.5014858350004943,004,001,2019_May_07_1301,MusicAffectPsychophysiology2019,3.0.5,59.903228730235696,
To what extent did the music make you feel ,GUILTY,30MonoWAV/30MonoF3.wav,1,2,2,3,,,,,1,9,25,2,0,2,2,5,,,,,,,,,2,1.5199088949993893,004,001,2019_May_07_1301,MusicAffectPsychophysiology2019,3.0.5,59.903228730235696,
To what extent did the music make you feel ,HAPPY,30MonoWAV/30MonoF3.wav,1,2,2,3,,,,,1,9,25,2,0,3,3,6,,,,,,,,,1,1.7347952939999232,004,001,2019_May_07_1301,MusicAffectPsychophysiology2019,3.0.5,59.903228730235696,
To what extent did the music make you feel ,FRUSTRATED,30MonoWAV/30MonoF3.wav,1,2,2,3,,,,,1,9,25,2,0,4,4,3,,,,,,,,,1,1.8517614730008063,004,001,2019_May_07_1301,MusicAffectPsychophysiology2019,3.0.5,59.903228730235696,
To what extent did the music make you feel ,ASHAMED,30MonoWAV/30MonoF3.wav,1,2,2,3,,,,,1,9,25,2,0,5,5,4,,,,,,,,,1,2.118582035000145,004,001,2019_May_07_1301,MusicAffectPsychophysiology2019,3.0.5,59.903228730235696,
To what extent did the music make you feel ,SAD,30MonoWAV/30MonoF3.wav,1,2,2,3,,,,,1,9,25,2,0,6,6,0,,,,,,,,,1,1.3517195310014358,004,001,2019_May_07_1301,MusicAffectPsychophysiology2019,3.0.5,59.903228730235696,
To what extent did the music make you feel ,EXCITED,30MonoWAV/30MonoF3.wav,1,2,2,3,,,,,1,9,25,2,0,7,7,7,,,,,,,,,3,2.2182777620000707,004,001,2019_May_07_1301,MusicAffectPsychophysiology2019,3.0.5,59.903228730235696,
To what extent did the music make you feel ,SCARED,30MonoWAV/30MonoF3.wav,1,2,2,3,,,,,1,9,25,2,0,8,8,11,,,,,,,,,1,3.3849045090028085,004,001,2019_May_07_1301,MusicAffectPsychophysiology2019,3.0.5,59.903228730235696,
To what extent did the music make you feel ,ANXIOUS ,30MonoWAV/30MonoF3.wav,1,2,2,3,,,,,1,9,25,2,0,9,9,1,,,,,,,,,3,2.6683745059999637,004,001,2019_May_07_1301,MusicAffectPsychophysiology2019,3.0.5,59.903228730235696,
To what extent did the music make you feel ,ALERT,30MonoWAV/30MonoF3.wav,1,2,2,3,,,,,1,9,25,2,0,10,10,8,,,,,,,,,4,1.552453273001447,004,001,2019_May_07_1301,MusicAffectPsychophysiology2019,3.0.5,59.903228730235696,
To what extent did the music make you feel ,ANGRY,30MonoWAV/30MonoF3.wav,1,2,2,3,,,,,1,9,25,2,0,11,11,2,,,,,,,,,1,1.6183455840000533,004,001,2019_May_07_1301,MusicAffectPsychophysiology2019,3.0.5,59.903228730235696,
,,30MonoWAV/30MonoF3.wav,1,2,2,3,,,,,1,9,25,2,,,,,,,,,,,,,,,004,001,2019_May_07_1301,MusicAffectPsychophysiology2019,3.0.5,59.903228730235696,
To what extent did the music make you feel ,ASHAMED,30MonoWAV/30MonoS1.wav,1,1,3,9,,,,,1,10,26,8,0,0,0,4,,,3,4.792573555998388,3,2.1878070150014537,,,2,1.5073907100013457,004,001,2019_May_07_1301,MusicAffectPsychophysiology2019,3.0.5,59.903228730235696,
To what extent did the music make you feel ,SAD,30MonoWAV/30MonoS1.wav,1,1,3,9,,,,,1,10,26,8,0,1,1,0,,,,,,,,,3,1.9687170739998692,004,001,2019_May_07_1301,MusicAffectPsychophysiology2019,3.0.5,59.903228730235696,
To what extent did the music make you feel ,ACTIVE,30MonoWAV/30MonoS1.wav,1,1,3,9,,,,,1,10,26,8,0,2,2,9,,,,,,,,,1,1.0181318440008909,004,001,2019_May_07_1301,MusicAffectPsychophysiology2019,3.0.5,59.903228730235696,
To what extent did the music make you feel ,HAPPY,30MonoWAV/30MonoS1.wav,1,1,3,9,,,,,1,10,26,8,0,3,3,6,,,,,,,,,1,1.386785399998189,004,001,2019_May_07_1301,MusicAffectPsychophysiology2019,3.0.5,59.903228730235696,
To what extent did the music make you feel ,ANXIOUS ,30MonoWAV/30MonoS1.wav,1,1,3,9,,,,,1,10,26,8,0,4,4,1,,,,,,,,,2,1.951273989998299,004,001,2019_May_07_1301,MusicAffectPsychophysiology2019,3.0.5,59.903228730235696,
To what extent did the music make you feel ,EXCITED,30MonoWAV/30MonoS1.wav,1,1,3,9,,,,,1,10,26,8,0,5,5,7,,,,,,,,,1,1.1686468709995097,004,001,2019_May_07_1301,MusicAffectPsychophysiology2019,3.0.5,59.903228730235696,
To what extent did the music make you feel ,ALERT,30MonoWAV/30MonoS1.wav,1,1,3,9,,,,,1,10,26,8,0,6,6,8,,,,,,,,,1,1.3513598300014564,004,001,2019_May_07_1301,MusicAffectPsychophysiology2019,3.0.5,59.903228730235696,
To what extent did the music make you feel ,FRUSTRATED,30MonoWAV/30MonoS1.wav,1,1,3,9,,,,,1,10,26,8,0,7,7,3,,,,,,,,,2,1.418632165001327,004,001,2019_May_07_1301,MusicAffectPsychophysiology2019,3.0.5,59.903228730235696,
To what extent did the music make you feel ,ANGRY,30MonoWAV/30MonoS1.wav,1,1,3,9,,,,,1,10,26,8,0,8,8,2,,,,,,,,,1,1.201266410000244,004,001,2019_May_07_1301,MusicAffectPsychophysiology2019,3.0.5,59.903228730235696,
To what extent did the music make you feel ,TENDER,30MonoWAV/30MonoS1.wav,1,1,3,9,,,,,1,10,26,8,0,9,9,10,,,,,,,,,4,3.6675595350025105,004,001,2019_May_07_1301,MusicAffectPsychophysiology2019,3.0.5,59.903228730235696,
To what extent did the music make you feel ,GUILTY,30MonoWAV/30MonoS1.wav,1,1,3,9,,,,,1,10,26,8,0,10,10,5,,,,,,,,,2,2.368727138000395,004,001,2019_May_07_1301,MusicAffectPsychophysiology2019,3.0.5,59.903228730235696,
To what extent did the music make you feel ,SCARED,30MonoWAV/30MonoS1.wav,1,1,3,9,,,,,1,10,26,8,0,11,11,11,,,,,,,,,1,1.068338255998242,004,001,2019_May_07_1301,MusicAffectPsychophysiology2019,3.0.5,59.903228730235696,
,,30MonoWAV/30MonoS1.wav,1,1,3,9,,,,,1,10,26,8,,,,,,,,,,,,,,,004,001,2019_May_07_1301,MusicAffectPsychophysiology2019,3.0.5,59.903228730235696,
To what extent did the music make you feel ,ACTIVE,30MonoWAV/30MonoT2.wav,2,1,4,14,,,,,1,11,27,13,0,0,0,9,,,4,5.350730672998907,4,1.4346603120029613,,,1,1.8517641819998971,004,001,2019_May_07_1301,MusicAffectPsychophysiology2019,3.0.5,59.903228730235696,
To what extent did the music make you feel ,GUILTY,30MonoWAV/30MonoT2.wav,2,1,4,14,,,,,1,11,27,13,0,1,1,5,,,,,,,,,2,1.1864254430001893,004,001,2019_May_07_1301,MusicAffectPsychophysiology2019,3.0.5,59.903228730235696,
To what extent did the music make you feel ,TENDER,30MonoWAV/30MonoT2.wav,2,1,4,14,,,,,1,11,27,13,0,2,2,10,,,,,,,,,5,1.684946477998892,004,001,2019_May_07_1301,MusicAffectPsychophysiology2019,3.0.5,59.903228730235696,
To what extent did the music make you feel ,ANGRY,30MonoWAV/30MonoT2.wav,2,1,4,14,,,,,1,11,27,13,0,3,3,2,,,,,,,,,1,1.4850099050017889,004,001,2019_May_07_1301,MusicAffectPsychophysiology2019,3.0.5,59.903228730235696,
To what extent did the music make you feel ,FRUSTRATED,30MonoWAV/30MonoT2.wav,2,1,4,14,,,,,1,11,27,13,0,4,4,3,,,,,,,,,1,1.317960327000037,004,001,2019_May_07_1301,MusicAffectPsychophysiology2019,3.0.5,59.903228730235696,
To what extent did the music make you feel ,SAD,30MonoWAV/30MonoT2.wav,2,1,4,14,,,,,1,11,27,13,0,5,5,0,,,,,,,,,3,1.5681760119987302,004,001,2019_May_07_1301,MusicAffectPsychophysiology2019,3.0.5,59.903228730235696,
To what extent did the music make you feel ,SCARED,30MonoWAV/30MonoT2.wav,2,1,4,14,,,,,1,11,27,13,0,6,6,11,,,,,,,,,1,1.4023185549995105,004,001,2019_May_07_1301,MusicAffectPsychophysiology2019,3.0.5,59.903228730235696,
To what extent did the music make you feel ,HAPPY,30MonoWAV/30MonoT2.wav,2,1,4,14,,,,,1,11,27,13,0,7,7,6,,,,,,,,,2,1.2524220160012192,004,001,2019_May_07_1301,MusicAffectPsychophysiology2019,3.0.5,59.903228730235696,
To what extent did the music make you feel ,EXCITED,30MonoWAV/30MonoT2.wav,2,1,4,14,,,,,1,11,27,13,0,8,8,7,,,,,,,,,1,1.6854582320011104,004,001,2019_May_07_1301,MusicAffectPsychophysiology2019,3.0.5,59.903228730235696,
To what extent did the music make you feel ,ALERT,30MonoWAV/30MonoT2.wav,2,1,4,14,,,,,1,11,27,13,0,9,9,8,,,,,,,,,1,1.9683402439986821,004,001,2019_May_07_1301,MusicAffectPsychophysiology2019,3.0.5,59.903228730235696,
To what extent did the music make you feel ,ANXIOUS ,30MonoWAV/30MonoT2.wav,2,1,4,14,,,,,1,11,27,13,0,10,10,1,,,,,,,,,3,2.1188278930021625,004,001,2019_May_07_1301,MusicAffectPsychophysiology2019,3.0.5,59.903228730235696,
To what extent did the music make you feel ,ASHAMED,30MonoWAV/30MonoT2.wav,2,1,4,14,,,,,1,11,27,13,0,11,11,4,,,,,,,,,2,1.2680563949979842,004,001,2019_May_07_1301,MusicAffectPsychophysiology2019,3.0.5,59.903228730235696,
,,30MonoWAV/30MonoT2.wav,2,1,4,14,,,,,1,11,27,13,,,,,,,,,,,,,,,004,001,2019_May_07_1301,MusicAffectPsychophysiology2019,3.0.5,59.903228730235696,
To what extent did the music make you feel ,ANGRY,30MonoWAV/30MonoS4.wav,1,1,3,12,,,,,1,12,28,11,0,0,0,2,,,2,4.168111951003084,2,2.201037605002057,,,1,1.6197543140006019,004,001,2019_May_07_1301,MusicAffectPsychophysiology2019,3.0.5,59.903228730235696,
To what extent did the music make you feel ,ASHAMED,30MonoWAV/30MonoS4.wav,1,1,3,12,,,,,1,12,28,11,0,1,1,4,,,,,,,,,2,1.4569985019988962,004,001,2019_May_07_1301,MusicAffectPsychophysiology2019,3.0.5,59.903228730235696,
To what extent did the music make you feel ,TENDER,30MonoWAV/30MonoS4.wav,1,1,3,12,,,,,1,12,28,11,0,2,2,10,,,,,,,,,3,2.7463167030000477,004,001,2019_May_07_1301,MusicAffectPsychophysiology2019,3.0.5,59.903228730235696,
To what extent did the music make you feel ,ALERT,30MonoWAV/30MonoS4.wav,1,1,3,12,,,,,1,12,28,11,0,3,3,8,,,,,,,,,1,2.1017497060020105,004,001,2019_May_07_1301,MusicAffectPsychophysiology2019,3.0.5,59.903228730235696,
To what extent did the music make you feel ,SCARED,30MonoWAV/30MonoS4.wav,1,1,3,12,,,,,1,12,28,11,0,4,4,11,,,,,,,,,1,1.4015131759988435,004,001,2019_May_07_1301,MusicAffectPsychophysiology2019,3.0.5,59.903228730235696,
To what extent did the music make you feel ,GUILTY,30MonoWAV/30MonoS4.wav,1,1,3,12,,,,,1,12,28,11,0,5,5,5,,,,,,,,,2,1.533662252000795,004,001,2019_May_07_1301,MusicAffectPsychophysiology2019,3.0.5,59.903228730235696,
To what extent did the music make you feel ,HAPPY,30MonoWAV/30MonoS4.wav,1,1,3,12,,,,,1,12,28,11,0,6,6,6,,,,,,,,,1,1.400131798000075,004,001,2019_May_07_1301,MusicAffectPsychophysiology2019,3.0.5,59.903228730235696,
To what extent did the music make you feel ,ACTIVE,30MonoWAV/30MonoS4.wav,1,1,3,12,,,,,1,12,28,11,0,7,7,9,,,,,,,,,2,2.052709835999849,004,001,2019_May_07_1301,MusicAffectPsychophysiology2019,3.0.5,59.903228730235696,
To what extent did the music make you feel ,EXCITED,30MonoWAV/30MonoS4.wav,1,1,3,12,,,,,1,12,28,11,0,8,8,7,,,,,,,,,1,3.8682919759994547,004,001,2019_May_07_1301,MusicAffectPsychophysiology2019,3.0.5,59.903228730235696,
To what extent did the music make you feel ,ANXIOUS ,30MonoWAV/30MonoS4.wav,1,1,3,12,,,,,1,12,28,11,0,9,9,1,,,,,,,,,2,1.8008343529982085,004,001,2019_May_07_1301,MusicAffectPsychophysiology2019,3.0.5,59.903228730235696,
To what extent did the music make you feel ,FRUSTRATED,30MonoWAV/30MonoS4.wav,1,1,3,12,,,,,1,12,28,11,0,10,10,3,,,,,,,,,1,1.4832730179987266,004,001,2019_May_07_1301,MusicAffectPsychophysiology2019,3.0.5,59.903228730235696,
To what extent did the music make you feel ,SAD,30MonoWAV/30MonoS4.wav,1,1,3,12,,,,,1,12,28,11,0,11,11,0,,,,,,,,,3,1.8518420450018311,004,001,2019_May_07_1301,MusicAffectPsychophysiology2019,3.0.5,59.903228730235696,
,,30MonoWAV/30MonoS4.wav,1,1,3,12,,,,,1,12,28,11,,,,,,,,,,,,,,,004,001,2019_May_07_1301,MusicAffectPsychophysiology2019,3.0.5,59.903228730235696,
To what extent did the music make you feel ,SCARED,30MonoWAV/30MonoT1.wav,2,1,4,13,,,,,1,13,29,12,0,0,0,11,,,3,3.5854652939997322,4,1.1021860770015337,,,1,1.3015684109996073,004,001,2019_May_07_1301,MusicAffectPsychophysiology2019,3.0.5,59.903228730235696,
To what extent did the music make you feel ,FRUSTRATED,30MonoWAV/30MonoT1.wav,2,1,4,13,,,,,1,13,29,12,0,1,1,3,,,,,,,,,1,0.9845073809992755,004,001,2019_May_07_1301,MusicAffectPsychophysiology2019,3.0.5,59.903228730235696,
To what extent did the music make you feel ,SAD,30MonoWAV/30MonoT1.wav,2,1,4,13,,,,,1,13,29,12,0,2,2,0,,,,,,,,,2,1.1020981039982871,004,001,2019_May_07_1301,MusicAffectPsychophysiology2019,3.0.5,59.903228730235696,
To what extent did the music make you feel ,GUILTY,30MonoWAV/30MonoT1.wav,2,1,4,13,,,,,1,13,29,12,0,3,3,5,,,,,,,,,2,2.0851090360010858,004,001,2019_May_07_1301,MusicAffectPsychophysiology2019,3.0.5,59.903228730235696,
To what extent did the music make you feel ,ALERT,30MonoWAV/30MonoT1.wav,2,1,4,13,,,,,1,13,29,12,0,4,4,8,,,,,,,,,1,1.5512273819986149,004,001,2019_May_07_1301,MusicAffectPsychophysiology2019,3.0.5,59.903228730235696,
To what extent did the music make you feel ,EXCITED,30MonoWAV/30MonoT1.wav,2,1,4,13,,,,,1,13,29,12,0,5,5,7,,,,,,,,,2,3.169491550001112,004,001,2019_May_07_1301,MusicAffectPsychophysiology2019,3.0.5,59.903228730235696,
To what extent did the music make you feel ,TENDER,30MonoWAV/30MonoT1.wav,2,1,4,13,,,,,1,13,29,12,0,6,6,10,,,,,,,,,4,1.7848646879974694,004,001,2019_May_07_1301,MusicAffectPsychophysiology2019,3.0.5,59.903228730235696,
To what extent did the music make you feel ,HAPPY,30MonoWAV/30MonoT1.wav,2,1,4,13,,,,,1,13,29,12,0,7,7,6,,,,,,,,,3,2.684534956999414,004,001,2019_May_07_1301,MusicAffectPsychophysiology2019,3.0.5,59.903228730235696,
To what extent did the music make you feel ,ANGRY,30MonoWAV/30MonoT1.wav,2,1,4,13,,,,,1,13,29,12,0,8,8,2,,,,,,,,,1,1.2022669569996651,004,001,2019_May_07_1301,MusicAffectPsychophysiology2019,3.0.5,59.903228730235696,
To what extent did the music make you feel ,ACTIVE,30MonoWAV/30MonoT1.wav,2,1,4,13,,,,,1,13,29,12,0,9,9,9,,,,,,,,,2,1.2018090600031428,004,001,2019_May_07_1301,MusicAffectPsychophysiology2019,3.0.5,59.903228730235696,
To what extent did the music make you feel ,ASHAMED,30MonoWAV/30MonoT1.wav,2,1,4,13,,,,,1,13,29,12,0,10,10,4,,,,,,,,,2,1.3847952619980788,004,001,2019_May_07_1301,MusicAffectPsychophysiology2019,3.0.5,59.903228730235696,
To what extent did the music make you feel ,ANXIOUS ,30MonoWAV/30MonoT1.wav,2,1,4,13,,,,,1,13,29,12,0,11,11,1,,,,,,,,,2,1.7351460569989285,004,001,2019_May_07_1301,MusicAffectPsychophysiology2019,3.0.5,59.903228730235696,
,,30MonoWAV/30MonoT1.wav,2,1,4,13,,,,,1,13,29,12,,,,,,,,,,,,,,,004,001,2019_May_07_1301,MusicAffectPsychophysiology2019,3.0.5,59.903228730235696,
To what extent did the music make you feel ,ALERT,30MonoWAV/30MonoF2.wav,1,2,2,2,,,,,1,14,30,1,0,0,0,8,,,4,2.8353344349998224,3,1.4678044289976242,,,3,1.7505882270015718,004,001,2019_May_07_1301,MusicAffectPsychophysiology2019,3.0.5,59.903228730235696,
To what extent did the music make you feel ,SAD,30MonoWAV/30MonoF2.wav,1,2,2,2,,,,,1,14,30,1,0,1,1,0,,,,,,,,,1,1.668352087999665,004,001,2019_May_07_1301,MusicAffectPsychophysiology2019,3.0.5,59.903228730235696,
To what extent did the music make you feel ,HAPPY,30MonoWAV/30MonoF2.wav,1,2,2,2,,,,,1,14,30,1,0,2,2,6,,,,,,,,,1,1.152615386999969,004,001,2019_May_07_1301,MusicAffectPsychophysiology2019,3.0.5,59.903228730235696,
To what extent did the music make you feel ,FRUSTRATED,30MonoWAV/30MonoF2.wav,1,2,2,2,,,,,1,14,30,1,0,3,3,3,,,,,,,,,1,1.6509305440013122,004,001,2019_May_07_1301,MusicAffectPsychophysiology2019,3.0.5,59.903228730235696,
To what extent did the music make you feel ,EXCITED,30MonoWAV/30MonoF2.wav,1,2,2,2,,,,,1,14,30,1,0,4,4,7,,,,,,,,,3,2.9023798839989468,004,001,2019_May_07_1301,MusicAffectPsychophysiology2019,3.0.5,59.903228730235696,
To what extent did the music make you feel ,TENDER,30MonoWAV/30MonoF2.wav,1,2,2,2,,,,,1,14,30,1,0,5,5,10,,,,,,,,,1,1.4540069040012895,004,001,2019_May_07_1301,MusicAffectPsychophysiology2019,3.0.5,59.903228730235696,
To what extent did the music make you feel ,ASHAMED,30MonoWAV/30MonoF2.wav,1,2,2,2,,,,,1,14,30,1,0,6,6,4,,,,,,,,,2,1.3861038890026975,004,001,2019_May_07_1301,MusicAffectPsychophysiology2019,3.0.5,59.903228730235696,
To what extent did the music make you feel ,ACTIVE,30MonoWAV/30MonoF2.wav,1,2,2,2,,,,,1,14,30,1,0,7,7,9,,,,,,,,,4,2.989154400998814,004,001,2019_May_07_1301,MusicAffectPsychophysiology2019,3.0.5,59.903228730235696,
To what extent did the music make you feel ,GUILTY,30MonoWAV/30MonoF2.wav,1,2,2,2,,,,,1,14,30,1,0,8,8,5,,,,,,,,,2,1.5360207300000184,004,001,2019_May_07_1301,MusicAffectPsychophysiology2019,3.0.5,59.903228730235696,
To what extent did the music make you feel ,SCARED,30MonoWAV/30MonoF2.wav,1,2,2,2,,,,,1,14,30,1,0,9,9,11,,,,,,,,,4,2.6726136639990727,004,001,2019_May_07_1301,MusicAffectPsychophysiology2019,3.0.5,59.903228730235696,
To what extent did the music make you feel ,ANXIOUS ,30MonoWAV/30MonoF2.wav,1,2,2,2,,,,,1,14,30,1,0,10,10,1,,,,,,,,,4,1.586030202000984,004,001,2019_May_07_1301,MusicAffectPsychophysiology2019,3.0.5,59.903228730235696,
To what extent did the music make you feel ,ANGRY,30MonoWAV/30MonoF2.wav,1,2,2,2,,,,,1,14,30,1,0,11,11,2,,,,,,,,,2,1.5687434739993478,004,001,2019_May_07_1301,MusicAffectPsychophysiology2019,3.0.5,59.903228730235696,
,,30MonoWAV/30MonoF2.wav,1,2,2,2,,,,,1,14,30,1,,,,,,,,,,,,,,,004,001,2019_May_07_1301,MusicAffectPsychophysiology2019,3.0.5,59.903228730235696,
To what extent did the music make you feel ,EXCITED,30MonoWAV/30MonoF4.wav,1,2,2,4,,,,,1,15,31,3,0,0,0,7,,,4,3.469126365002012,3,2.3011636350020126,,,4,1.5681455550002283,004,001,2019_May_07_1301,MusicAffectPsychophysiology2019,3.0.5,59.903228730235696,
To what extent did the music make you feel ,ACTIVE,30MonoWAV/30MonoF4.wav,1,2,2,4,,,,,1,15,31,3,0,1,1,9,,,,,,,,,4,2.519207165998523,004,001,2019_May_07_1301,MusicAffectPsychophysiology2019,3.0.5,59.903228730235696,
To what extent did the music make you feel ,TENDER,30MonoWAV/30MonoF4.wav,1,2,2,4,,,,,1,15,31,3,0,2,2,10,,,,,,,,,1,1.4560428309996496,004,001,2019_May_07_1301,MusicAffectPsychophysiology2019,3.0.5,59.903228730235696,
To what extent did the music make you feel ,GUILTY,30MonoWAV/30MonoF4.wav,1,2,2,4,,,,,1,15,31,3,0,3,3,5,,,,,,,,,2,1.2529763800012006,004,001,2019_May_07_1301,MusicAffectPsychophysiology2019,3.0.5,59.903228730235696,
To what extent did the music make you feel ,SAD,30MonoWAV/30MonoF4.wav,1,2,2,4,,,,,1,15,31,3,0,4,4,0,,,,,,,,,1,1.9687894889975723,004,001,2019_May_07_1301,MusicAffectPsychophysiology2019,3.0.5,59.903228730235696,
To what extent did the music make you feel ,ALERT,30MonoWAV/30MonoF4.wav,1,2,2,4,,,,,1,15,31,3,0,5,5,8,,,,,,,,,4,1.5197991819986783,004,001,2019_May_07_1301,MusicAffectPsychophysiology2019,3.0.5,59.903228730235696,
To what extent did the music make you feel ,ASHAMED,30MonoWAV/30MonoF4.wav,1,2,2,4,,,,,1,15,31,3,0,6,6,4,,,,,,,,,1,2.0916234930009523,004,001,2019_May_07_1301,MusicAffectPsychophysiology2019,3.0.5,59.903228730235696,
To what extent did the music make you feel ,ANGRY,30MonoWAV/30MonoF4.wav,1,2,2,4,,,,,1,15,31,3,0,7,7,2,,,,,,,,,2,1.6338146199996118,004,001,2019_May_07_1301,MusicAffectPsychophysiology2019,3.0.5,59.903228730235696,
To what extent did the music make you feel ,HAPPY,30MonoWAV/30MonoF4.wav,1,2,2,4,,,,,1,15,31,3,0,8,8,6,,,,,,,,,1,1.0685394089996407,004,001,2019_May_07_1301,MusicAffectPsychophysiology2019,3.0.5,59.903228730235696,
To what extent did the music make you feel ,FRUSTRATED,30MonoWAV/30MonoF4.wav,1,2,2,4,,,,,1,15,31,3,0,9,9,3,,,,,,,,,1,2.4851163450002787,004,001,2019_May_07_1301,MusicAffectPsychophysiology2019,3.0.5,59.903228730235696,
To what extent did the music make you feel ,SCARED,30MonoWAV/30MonoF4.wav,1,2,2,4,,,,,1,15,31,3,0,10,10,11,,,,,,,,,1,1.9184584220020042,004,001,2019_May_07_1301,MusicAffectPsychophysiology2019,3.0.5,59.903228730235696,
To what extent did the music make you feel ,ANXIOUS ,30MonoWAV/30MonoF4.wav,1,2,2,4,,,,,1,15,31,3,0,11,11,1,,,,,,,,,3,2.30170344599901,004,001,2019_May_07_1301,MusicAffectPsychophysiology2019,3.0.5,59.903228730235696,
,,30MonoWAV/30MonoF4.wav,1,2,2,4,,,,,1,15,31,3,,,,,,,,,,,,,,,004,001,2019_May_07_1301,MusicAffectPsychophysiology2019,3.0.5,59.903228730235696,
