Instruction,Word,song,valence,arousal,affectcat,songmark,pracwords.thisRepN,pracwords.thisTrialN,pracwords.thisN,pracwords.thisIndex,songtrials.thisRepN,songtrials.thisTrialN,songtrials.thisN,songtrials.thisIndex,words.thisRepN,words.thisTrialN,words.thisN,words.thisIndex,begin.keys,begin.rt,arousalkey.keys,arousalkey.rt,valencekey.keys,valencekey.rt,likekey.keys,likekey.rt,WordResponse.keys,WordResponse.rt,key_resp_2.keys,key_resp_2.rt,participant,session,date,expName,psychopyVersion,frameRate,
,,,,,,,,,,,,,,,,,,,b,10.535140913001669,,,,,,,,,,,005,001,2019_May_07_1410,MusicAffectPsychophysiology2019,3.0.5,58.87756412316055,
,,,,,,,,,,,,,,,,,,,,,3,8.83490199500011,,,,,,,,,005,001,2019_May_07_1410,MusicAffectPsychophysiology2019,3.0.5,58.87756412316055,
,,,,,,,,,,,,,,,,,,,,,,,2,6.4518567269988125,,,,,,,005,001,2019_May_07_1410,MusicAffectPsychophysiology2019,3.0.5,58.87756412316055,
,,,,,,,,,,,,,,,,,,,,,,,,,2,3.835655584000051,,,,,005,001,2019_May_07_1410,MusicAffectPsychophysiology2019,3.0.5,58.87756412316055,
To what extent did the music make you feel ,GUILTY,,,,,,0,0,0,5,,,,,,,,,,,,,,,,,1,2.518271057997481,,,005,001,2019_May_07_1410,MusicAffectPsychophysiology2019,3.0.5,58.87756412316055,
To what extent did the music make you feel ,ANXIOUS ,,,,,,0,1,1,1,,,,,,,,,,,,,,,,,1,2.801576918001956,,,005,001,2019_May_07_1410,MusicAffectPsychophysiology2019,3.0.5,58.87756412316055,
To what extent did the music make you feel ,ASHAMED,,,,,,0,2,2,4,,,,,,,,,,,,,,,,,1,1.6187762040026428,,,005,001,2019_May_07_1410,MusicAffectPsychophysiology2019,3.0.5,58.87756412316055,
To what extent did the music make you feel ,SAD,,,,,,0,3,3,0,,,,,,,,,,,,,,,,,2,4.335331081998447,,,005,001,2019_May_07_1410,MusicAffectPsychophysiology2019,3.0.5,58.87756412316055,
To what extent did the music make you feel ,ACTIVE,,,,,,0,4,4,9,,,,,,,,,,,,,,,,,2,2.21812498899817,,,005,001,2019_May_07_1410,MusicAffectPsychophysiology2019,3.0.5,58.87756412316055,
To what extent did the music make you feel ,TENDER,,,,,,0,5,5,10,,,,,,,,,,,,,,,,,1,1.7360853169993788,,,005,001,2019_May_07_1410,MusicAffectPsychophysiology2019,3.0.5,58.87756412316055,
To what extent did the music make you feel ,SCARED,,,,,,0,6,6,11,,,,,,,,,,,,,,,,,1,1.5668123579998792,,,005,001,2019_May_07_1410,MusicAffectPsychophysiology2019,3.0.5,58.87756412316055,
To what extent did the music make you feel ,ALERT,,,,,,0,7,7,8,,,,,,,,,,,,,,,,,3,6.1521524989984755,,,005,001,2019_May_07_1410,MusicAffectPsychophysiology2019,3.0.5,58.87756412316055,
To what extent did the music make you feel ,ANGRY,,,,,,0,8,8,2,,,,,,,,,,,,,,,,,1,1.8187009300017962,,,005,001,2019_May_07_1410,MusicAffectPsychophysiology2019,3.0.5,58.87756412316055,
To what extent did the music make you feel ,FRUSTRATED,,,,,,0,9,9,3,,,,,,,,,,,,,,,,,2,4.051744839998719,,,005,001,2019_May_07_1410,MusicAffectPsychophysiology2019,3.0.5,58.87756412316055,
To what extent did the music make you feel ,EXCITED,,,,,,0,10,10,7,,,,,,,,,,,,,,,,,3,2.300450141003239,,,005,001,2019_May_07_1410,MusicAffectPsychophysiology2019,3.0.5,58.87756412316055,
To what extent did the music make you feel ,HAPPY,,,,,,0,11,11,6,,,,,,,,,,,,,,,,,3,1.9194950780001818,,,005,001,2019_May_07_1410,MusicAffectPsychophysiology2019,3.0.5,58.87756412316055,
To what extent did the music make you feel ,SAD,30MonoWAV/30MonoF2.wav,1,2,2,2,,,,,0,0,0,1,0,0,0,0,,,3,11.632705084000918,1,2.8516493719980645,,,1,1.35266032599975,,,005,001,2019_May_07_1410,MusicAffectPsychophysiology2019,3.0.5,58.87756412316055,
To what extent did the music make you feel ,TENDER,30MonoWAV/30MonoF2.wav,1,2,2,2,,,,,0,0,0,1,0,1,1,10,,,,,,,,,1,1.3181382090006082,,,005,001,2019_May_07_1410,MusicAffectPsychophysiology2019,3.0.5,58.87756412316055,
To what extent did the music make you feel ,ANXIOUS ,30MonoWAV/30MonoF2.wav,1,2,2,2,,,,,0,0,0,1,0,2,2,1,,,,,,,,,3,1.8686880080022092,,,005,001,2019_May_07_1410,MusicAffectPsychophysiology2019,3.0.5,58.87756412316055,
To what extent did the music make you feel ,ASHAMED,30MonoWAV/30MonoF2.wav,1,2,2,2,,,,,0,0,0,1,0,3,3,4,,,,,,,,,1,2.3016616860004433,,,005,001,2019_May_07_1410,MusicAffectPsychophysiology2019,3.0.5,58.87756412316055,
To what extent did the music make you feel ,ALERT,30MonoWAV/30MonoF2.wav,1,2,2,2,,,,,0,0,0,1,0,4,4,8,,,,,,,,,4,4.901015841001936,,,005,001,2019_May_07_1410,MusicAffectPsychophysiology2019,3.0.5,58.87756412316055,
To what extent did the music make you feel ,HAPPY,30MonoWAV/30MonoF2.wav,1,2,2,2,,,,,0,0,0,1,0,5,5,6,,,,,,,,,1,1.5850570900001912,,,005,001,2019_May_07_1410,MusicAffectPsychophysiology2019,3.0.5,58.87756412316055,
To what extent did the music make you feel ,SCARED,30MonoWAV/30MonoF2.wav,1,2,2,2,,,,,0,0,0,1,0,6,6,11,,,,,,,,,3,2.1845334760000696,,,005,001,2019_May_07_1410,MusicAffectPsychophysiology2019,3.0.5,58.87756412316055,
To what extent did the music make you feel ,ANGRY,30MonoWAV/30MonoF2.wav,1,2,2,2,,,,,0,0,0,1,0,7,7,2,,,,,,,,,3,1.7516888469981495,,,005,001,2019_May_07_1410,MusicAffectPsychophysiology2019,3.0.5,58.87756412316055,
To what extent did the music make you feel ,ACTIVE,30MonoWAV/30MonoF2.wav,1,2,2,2,,,,,0,0,0,1,0,8,8,9,,,,,,,,,2,2.7851744430008694,,,005,001,2019_May_07_1410,MusicAffectPsychophysiology2019,3.0.5,58.87756412316055,
To what extent did the music make you feel ,EXCITED,30MonoWAV/30MonoF2.wav,1,2,2,2,,,,,0,0,0,1,0,9,9,7,,,,,,,,,1,3.333251030999236,,,005,001,2019_May_07_1410,MusicAffectPsychophysiology2019,3.0.5,58.87756412316055,
To what extent did the music make you feel ,GUILTY,30MonoWAV/30MonoF2.wav,1,2,2,2,,,,,0,0,0,1,0,10,10,5,,,,,,,,,1,1.0851019660003658,,,005,001,2019_May_07_1410,MusicAffectPsychophysiology2019,3.0.5,58.87756412316055,
To what extent did the music make you feel ,FRUSTRATED,30MonoWAV/30MonoF2.wav,1,2,2,2,,,,,0,0,0,1,0,11,11,3,,,,,,,,,3,2.267546114999277,,,005,001,2019_May_07_1410,MusicAffectPsychophysiology2019,3.0.5,58.87756412316055,
,,30MonoWAV/30MonoF2.wav,1,2,2,2,,,,,0,0,0,1,,,,,,,,,,,,,,,,,005,001,2019_May_07_1410,MusicAffectPsychophysiology2019,3.0.5,58.87756412316055,
To what extent did the music make you feel ,ACTIVE,30MonoWAV/30MonoT3.wav,2,1,4,15,,,,,0,1,1,14,0,0,0,9,,,2,6.451461990000098,4,2.0667232220002916,,,1,3.5339422509969154,,,005,001,2019_May_07_1410,MusicAffectPsychophysiology2019,3.0.5,58.87756412316055,
To what extent did the music make you feel ,ALERT,30MonoWAV/30MonoT3.wav,2,1,4,15,,,,,0,1,1,14,0,1,1,8,,,,,,,,,1,0.802147218000755,,,005,001,2019_May_07_1410,MusicAffectPsychophysiology2019,3.0.5,58.87756412316055,
To what extent did the music make you feel ,FRUSTRATED,30MonoWAV/30MonoT3.wav,2,1,4,15,,,,,0,1,1,14,0,2,2,3,,,,,,,,,1,0.6682156050010235,,,005,001,2019_May_07_1410,MusicAffectPsychophysiology2019,3.0.5,58.87756412316055,
To what extent did the music make you feel ,SCARED,30MonoWAV/30MonoT3.wav,2,1,4,15,,,,,0,1,1,14,0,3,3,11,,,,,,,,,1,0.7354477560002124,,,005,001,2019_May_07_1410,MusicAffectPsychophysiology2019,3.0.5,58.87756412316055,
To what extent did the music make you feel ,EXCITED,30MonoWAV/30MonoT3.wav,2,1,4,15,,,,,0,1,1,14,0,4,4,7,,,,,,,,,1,1.8010622690017044,,,005,001,2019_May_07_1410,MusicAffectPsychophysiology2019,3.0.5,58.87756412316055,
To what extent did the music make you feel ,GUILTY,30MonoWAV/30MonoT3.wav,2,1,4,15,,,,,0,1,1,14,0,5,5,5,,,,,,,,,1,0.6513036029973591,,,005,001,2019_May_07_1410,MusicAffectPsychophysiology2019,3.0.5,58.87756412316055,
To what extent did the music make you feel ,ANGRY,30MonoWAV/30MonoT3.wav,2,1,4,15,,,,,0,1,1,14,0,6,6,2,,,,,,,,,1,1.7344068739985232,,,005,001,2019_May_07_1410,MusicAffectPsychophysiology2019,3.0.5,58.87756412316055,
To what extent did the music make you feel ,ASHAMED,30MonoWAV/30MonoT3.wav,2,1,4,15,,,,,0,1,1,14,0,7,7,4,,,,,,,,,1,0.56794477099902,,,005,001,2019_May_07_1410,MusicAffectPsychophysiology2019,3.0.5,58.87756412316055,
To what extent did the music make you feel ,SAD,30MonoWAV/30MonoT3.wav,2,1,4,15,,,,,0,1,1,14,0,8,8,0,,,,,,,,,1,0.8021979439981806,,,005,001,2019_May_07_1410,MusicAffectPsychophysiology2019,3.0.5,58.87756412316055,
To what extent did the music make you feel ,TENDER,30MonoWAV/30MonoT3.wav,2,1,4,15,,,,,0,1,1,14,0,9,9,10,,,,,,,,,1,1.9831968059988867,,,005,001,2019_May_07_1410,MusicAffectPsychophysiology2019,3.0.5,58.87756412316055,
To what extent did the music make you feel ,ANXIOUS ,30MonoWAV/30MonoT3.wav,2,1,4,15,,,,,0,1,1,14,0,10,10,1,,,,,,,,,1,1.0019835639977828,,,005,001,2019_May_07_1410,MusicAffectPsychophysiology2019,3.0.5,58.87756412316055,
To what extent did the music make you feel ,HAPPY,30MonoWAV/30MonoT3.wav,2,1,4,15,,,,,0,1,1,14,0,11,11,6,,,,,,,,,4,3.366905417002272,,,005,001,2019_May_07_1410,MusicAffectPsychophysiology2019,3.0.5,58.87756412316055,
,,30MonoWAV/30MonoT3.wav,2,1,4,15,,,,,0,1,1,14,,,,,,,,,,,,,,,,,005,001,2019_May_07_1410,MusicAffectPsychophysiology2019,3.0.5,58.87756412316055,
To what extent did the music make you feel ,EXCITED,30MonoWAV/30MonoS4.wav,1,1,3,12,,,,,0,2,2,11,0,0,0,7,,,1,4.200949131001835,1,2.118817308000871,,,1,1.1509040470009495,,,005,001,2019_May_07_1410,MusicAffectPsychophysiology2019,3.0.5,58.87756412316055,
To what extent did the music make you feel ,ASHAMED,30MonoWAV/30MonoS4.wav,1,1,3,12,,,,,0,2,2,11,0,1,1,4,,,,,,,,,1,1.6673156639990339,,,005,001,2019_May_07_1410,MusicAffectPsychophysiology2019,3.0.5,58.87756412316055,
To what extent did the music make you feel ,ANGRY,30MonoWAV/30MonoS4.wav,1,1,3,12,,,,,0,2,2,11,0,2,2,2,,,,,,,,,1,1.2848417259992857,,,005,001,2019_May_07_1410,MusicAffectPsychophysiology2019,3.0.5,58.87756412316055,
To what extent did the music make you feel ,SCARED,30MonoWAV/30MonoS4.wav,1,1,3,12,,,,,0,2,2,11,0,3,3,11,,,,,,,,,1,1.835727372999827,,,005,001,2019_May_07_1410,MusicAffectPsychophysiology2019,3.0.5,58.87756412316055,
To what extent did the music make you feel ,ACTIVE,30MonoWAV/30MonoS4.wav,1,1,3,12,,,,,0,2,2,11,0,4,4,9,,,,,,,,,1,1.1502027710012044,,,005,001,2019_May_07_1410,MusicAffectPsychophysiology2019,3.0.5,58.87756412316055,
To what extent did the music make you feel ,HAPPY,30MonoWAV/30MonoS4.wav,1,1,3,12,,,,,0,2,2,11,0,5,5,6,,,,,,,,,1,1.6350864539999748,,,005,001,2019_May_07_1410,MusicAffectPsychophysiology2019,3.0.5,58.87756412316055,
To what extent did the music make you feel ,TENDER,30MonoWAV/30MonoS4.wav,1,1,3,12,,,,,0,2,2,11,0,6,6,10,,,,,,,,,3,1.5188786389990128,,,005,001,2019_May_07_1410,MusicAffectPsychophysiology2019,3.0.5,58.87756412316055,
To what extent did the music make you feel ,ALERT,30MonoWAV/30MonoS4.wav,1,1,3,12,,,,,0,2,2,11,0,7,7,8,,,,,,,,,1,1.5180797489992983,,,005,001,2019_May_07_1410,MusicAffectPsychophysiology2019,3.0.5,58.87756412316055,
To what extent did the music make you feel ,ANXIOUS ,30MonoWAV/30MonoS4.wav,1,1,3,12,,,,,0,2,2,11,0,8,8,1,,,,,,,,,3,2.517317871999694,,,005,001,2019_May_07_1410,MusicAffectPsychophysiology2019,3.0.5,58.87756412316055,
To what extent did the music make you feel ,SAD,30MonoWAV/30MonoS4.wav,1,1,3,12,,,,,0,2,2,11,0,9,9,0,,,,,,,,,3,2.102079517000675,,,005,001,2019_May_07_1410,MusicAffectPsychophysiology2019,3.0.5,58.87756412316055,
To what extent did the music make you feel ,GUILTY,30MonoWAV/30MonoS4.wav,1,1,3,12,,,,,0,2,2,11,0,10,10,5,,,,,,,,,1,1.951915828998608,,,005,001,2019_May_07_1410,MusicAffectPsychophysiology2019,3.0.5,58.87756412316055,
To what extent did the music make you feel ,FRUSTRATED,30MonoWAV/30MonoS4.wav,1,1,3,12,,,,,0,2,2,11,0,11,11,3,,,,,,,,,1,1.2523271139980352,,,005,001,2019_May_07_1410,MusicAffectPsychophysiology2019,3.0.5,58.87756412316055,
,,30MonoWAV/30MonoS4.wav,1,1,3,12,,,,,0,2,2,11,,,,,,,,,,,,,,,,,005,001,2019_May_07_1410,MusicAffectPsychophysiology2019,3.0.5,58.87756412316055,
To what extent did the music make you feel ,EXCITED,30MonoWAV/30MonoT2.wav,2,1,4,14,,,,,0,3,3,13,0,0,0,7,,,4,7.233489761001692,4,2.3670315929994103,,,3,2.1080489850028243,,,005,001,2019_May_07_1410,MusicAffectPsychophysiology2019,3.0.5,58.87756412316055,
To what extent did the music make you feel ,ANGRY,30MonoWAV/30MonoT2.wav,2,1,4,14,,,,,0,3,3,13,0,1,1,2,,,,,,,,,1,1.1697722190001514,,,005,001,2019_May_07_1410,MusicAffectPsychophysiology2019,3.0.5,58.87756412316055,
To what extent did the music make you feel ,SCARED,30MonoWAV/30MonoT2.wav,2,1,4,14,,,,,0,3,3,13,0,2,2,11,,,,,,,,,1,0.6189641839991964,,,005,001,2019_May_07_1410,MusicAffectPsychophysiology2019,3.0.5,58.87756412316055,
To what extent did the music make you feel ,ALERT,30MonoWAV/30MonoT2.wav,2,1,4,14,,,,,0,3,3,13,0,3,3,8,,,,,,,,,1,1.1199976969983254,,,005,001,2019_May_07_1410,MusicAffectPsychophysiology2019,3.0.5,58.87756412316055,
To what extent did the music make you feel ,ANXIOUS ,30MonoWAV/30MonoT2.wav,2,1,4,14,,,,,0,3,3,13,0,4,4,1,,,,,,,,,1,0.7022379160007404,,,005,001,2019_May_07_1410,MusicAffectPsychophysiology2019,3.0.5,58.87756412316055,
To what extent did the music make you feel ,FRUSTRATED,30MonoWAV/30MonoT2.wav,2,1,4,14,,,,,0,3,3,13,0,5,5,3,,,,,,,,,1,0.7364043630004744,,,005,001,2019_May_07_1410,MusicAffectPsychophysiology2019,3.0.5,58.87756412316055,
To what extent did the music make you feel ,ACTIVE,30MonoWAV/30MonoT2.wav,2,1,4,14,,,,,0,3,3,13,0,6,6,9,,,,,,,,,2,1.60511205900184,,,005,001,2019_May_07_1410,MusicAffectPsychophysiology2019,3.0.5,58.87756412316055,
To what extent did the music make you feel ,SAD,30MonoWAV/30MonoT2.wav,2,1,4,14,,,,,0,3,3,13,0,7,7,0,,,,,,,,,2,1.7342585119986325,,,005,001,2019_May_07_1410,MusicAffectPsychophysiology2019,3.0.5,58.87756412316055,
To what extent did the music make you feel ,HAPPY,30MonoWAV/30MonoT2.wav,2,1,4,14,,,,,0,3,3,13,0,8,8,6,,,,,,,,,3,1.7035418510022282,,,005,001,2019_May_07_1410,MusicAffectPsychophysiology2019,3.0.5,58.87756412316055,
To what extent did the music make you feel ,ASHAMED,30MonoWAV/30MonoT2.wav,2,1,4,14,,,,,0,3,3,13,0,9,9,4,,,,,,,,,1,0.9012511250002717,,,005,001,2019_May_07_1410,MusicAffectPsychophysiology2019,3.0.5,58.87756412316055,
To what extent did the music make you feel ,GUILTY,30MonoWAV/30MonoT2.wav,2,1,4,14,,,,,0,3,3,13,0,10,10,5,,,,,,,,,1,0.9351181569982145,,,005,001,2019_May_07_1410,MusicAffectPsychophysiology2019,3.0.5,58.87756412316055,
To what extent did the music make you feel ,TENDER,30MonoWAV/30MonoT2.wav,2,1,4,14,,,,,0,3,3,13,0,11,11,10,,,,,,,,,2,2.584511005999957,,,005,001,2019_May_07_1410,MusicAffectPsychophysiology2019,3.0.5,58.87756412316055,
,,30MonoWAV/30MonoT2.wav,2,1,4,14,,,,,0,3,3,13,,,,,,,,,,,,,,,,,005,001,2019_May_07_1410,MusicAffectPsychophysiology2019,3.0.5,58.87756412316055,
To what extent did the music make you feel ,ANXIOUS ,30MonoWAV/30MonoS2.wav,1,1,3,10,,,,,0,4,4,9,0,0,0,1,,,1,4.81781196400334,1,2.885156421998545,,,2,2.497950580000179,,,005,001,2019_May_07_1410,MusicAffectPsychophysiology2019,3.0.5,58.87756412316055,
To what extent did the music make you feel ,GUILTY,30MonoWAV/30MonoS2.wav,1,1,3,10,,,,,0,4,4,9,0,1,1,5,,,,,,,,,2,1.7844564289989648,,,005,001,2019_May_07_1410,MusicAffectPsychophysiology2019,3.0.5,58.87756412316055,
To what extent did the music make you feel ,ACTIVE,30MonoWAV/30MonoS2.wav,1,1,3,10,,,,,0,4,4,9,0,2,2,9,,,,,,,,,1,1.2525492690001556,,,005,001,2019_May_07_1410,MusicAffectPsychophysiology2019,3.0.5,58.87756412316055,
To what extent did the music make you feel ,EXCITED,30MonoWAV/30MonoS2.wav,1,1,3,10,,,,,0,4,4,9,0,3,3,7,,,,,,,,,1,1.049416518999351,,,005,001,2019_May_07_1410,MusicAffectPsychophysiology2019,3.0.5,58.87756412316055,
To what extent did the music make you feel ,ANGRY,30MonoWAV/30MonoS2.wav,1,1,3,10,,,,,0,4,4,9,0,4,4,2,,,,,,,,,1,4.084937316998548,,,005,001,2019_May_07_1410,MusicAffectPsychophysiology2019,3.0.5,58.87756412316055,
To what extent did the music make you feel ,FRUSTRATED,30MonoWAV/30MonoS2.wav,1,1,3,10,,,,,0,4,4,9,0,5,5,3,,,,,,,,,1,3.252066064000246,,,005,001,2019_May_07_1410,MusicAffectPsychophysiology2019,3.0.5,58.87756412316055,
To what extent did the music make you feel ,TENDER,30MonoWAV/30MonoS2.wav,1,1,3,10,,,,,0,4,4,9,0,6,6,10,,,,,,,,,3,4.96842360500159,,,005,001,2019_May_07_1410,MusicAffectPsychophysiology2019,3.0.5,58.87756412316055,
To what extent did the music make you feel ,ALERT,30MonoWAV/30MonoS2.wav,1,1,3,10,,,,,0,4,4,9,0,7,7,8,,,,,,,,,1,1.7351898530032486,,,005,001,2019_May_07_1410,MusicAffectPsychophysiology2019,3.0.5,58.87756412316055,
To what extent did the music make you feel ,SAD,30MonoWAV/30MonoS2.wav,1,1,3,10,,,,,0,4,4,9,0,8,8,0,,,,,,,,,3,3.184792036001454,,,005,001,2019_May_07_1410,MusicAffectPsychophysiology2019,3.0.5,58.87756412316055,
To what extent did the music make you feel ,ASHAMED,30MonoWAV/30MonoS2.wav,1,1,3,10,,,,,0,4,4,9,0,9,9,4,,,,,,,,,2,4.468199939001352,,,005,001,2019_May_07_1410,MusicAffectPsychophysiology2019,3.0.5,58.87756412316055,
To what extent did the music make you feel ,SCARED,30MonoWAV/30MonoS2.wav,1,1,3,10,,,,,0,4,4,9,0,10,10,11,,,,,,,,,1,6.2680611579999095,,,005,001,2019_May_07_1410,MusicAffectPsychophysiology2019,3.0.5,58.87756412316055,
To what extent did the music make you feel ,HAPPY,30MonoWAV/30MonoS2.wav,1,1,3,10,,,,,0,4,4,9,0,11,11,6,,,,,,,,,1,1.6184201880023465,,,005,001,2019_May_07_1410,MusicAffectPsychophysiology2019,3.0.5,58.87756412316055,
,,30MonoWAV/30MonoS2.wav,1,1,3,10,,,,,0,4,4,9,,,,,,,,,,,,,,,,,005,001,2019_May_07_1410,MusicAffectPsychophysiology2019,3.0.5,58.87756412316055,
To what extent did the music make you feel ,ASHAMED,30MonoWAV/30MonoH1.wav,2,2,1,5,,,,,0,5,5,4,0,0,0,4,,,3,8.250810599001852,2,1.7677419319988985,,,1,1.0364010269986466,,,005,001,2019_May_07_1410,MusicAffectPsychophysiology2019,3.0.5,58.87756412316055,
To what extent did the music make you feel ,SAD,30MonoWAV/30MonoH1.wav,2,2,1,5,,,,,0,5,5,4,0,1,1,0,,,,,,,,,1,1.0685917250011698,,,005,001,2019_May_07_1410,MusicAffectPsychophysiology2019,3.0.5,58.87756412316055,
To what extent did the music make you feel ,EXCITED,30MonoWAV/30MonoH1.wav,2,2,1,5,,,,,0,5,5,4,0,2,2,7,,,,,,,,,2,2.0341489420025027,,,005,001,2019_May_07_1410,MusicAffectPsychophysiology2019,3.0.5,58.87756412316055,
To what extent did the music make you feel ,GUILTY,30MonoWAV/30MonoH1.wav,2,2,1,5,,,,,0,5,5,4,0,3,3,5,,,,,,,,,1,0.8830177799973171,,,005,001,2019_May_07_1410,MusicAffectPsychophysiology2019,3.0.5,58.87756412316055,
To what extent did the music make you feel ,FRUSTRATED,30MonoWAV/30MonoH1.wav,2,2,1,5,,,,,0,5,5,4,0,4,4,3,,,,,,,,,1,1.80186593200051,,,005,001,2019_May_07_1410,MusicAffectPsychophysiology2019,3.0.5,58.87756412316055,
To what extent did the music make you feel ,ALERT,30MonoWAV/30MonoH1.wav,2,2,1,5,,,,,0,5,5,4,0,5,5,8,,,,,,,,,3,1.9019611360017734,,,005,001,2019_May_07_1410,MusicAffectPsychophysiology2019,3.0.5,58.87756412316055,
To what extent did the music make you feel ,SCARED,30MonoWAV/30MonoH1.wav,2,2,1,5,,,,,0,5,5,4,0,6,6,11,,,,,,,,,1,0.9352948310006468,,,005,001,2019_May_07_1410,MusicAffectPsychophysiology2019,3.0.5,58.87756412316055,
To what extent did the music make you feel ,ANXIOUS ,30MonoWAV/30MonoH1.wav,2,2,1,5,,,,,0,5,5,4,0,7,7,1,,,,,,,,,1,3.1858987329978845,,,005,001,2019_May_07_1410,MusicAffectPsychophysiology2019,3.0.5,58.87756412316055,
To what extent did the music make you feel ,ANGRY,30MonoWAV/30MonoH1.wav,2,2,1,5,,,,,0,5,5,4,0,8,8,2,,,,,,,,,1,1.1831706190023397,,,005,001,2019_May_07_1410,MusicAffectPsychophysiology2019,3.0.5,58.87756412316055,
To what extent did the music make you feel ,HAPPY,30MonoWAV/30MonoH1.wav,2,2,1,5,,,,,0,5,5,4,0,9,9,6,,,,,,,,,3,1.5850983550008095,,,005,001,2019_May_07_1410,MusicAffectPsychophysiology2019,3.0.5,58.87756412316055,
To what extent did the music make you feel ,ACTIVE,30MonoWAV/30MonoH1.wav,2,2,1,5,,,,,0,5,5,4,0,10,10,9,,,,,,,,,4,2.5230822040030034,,,005,001,2019_May_07_1410,MusicAffectPsychophysiology2019,3.0.5,58.87756412316055,
To what extent did the music make you feel ,TENDER,30MonoWAV/30MonoH1.wav,2,2,1,5,,,,,0,5,5,4,0,11,11,10,,,,,,,,,1,1.4521088740002597,,,005,001,2019_May_07_1410,MusicAffectPsychophysiology2019,3.0.5,58.87756412316055,
,,30MonoWAV/30MonoH1.wav,2,2,1,5,,,,,0,5,5,4,,,,,,,,,,,,,,,,,005,001,2019_May_07_1410,MusicAffectPsychophysiology2019,3.0.5,58.87756412316055,
To what extent did the music make you feel ,SAD,30MonoWAV/30MonoH2.wav,2,2,1,6,,,,,0,6,6,5,0,0,0,0,,,4,4.006228660000488,3,2.46854400400116,,,1,3.2338268460007384,,,005,001,2019_May_07_1410,MusicAffectPsychophysiology2019,3.0.5,58.87756412316055,
To what extent did the music make you feel ,TENDER,30MonoWAV/30MonoH2.wav,2,2,1,6,,,,,0,6,6,5,0,1,1,10,,,,,,,,,1,2.018799602999934,,,005,001,2019_May_07_1410,MusicAffectPsychophysiology2019,3.0.5,58.87756412316055,
To what extent did the music make you feel ,EXCITED,30MonoWAV/30MonoH2.wav,2,2,1,6,,,,,0,6,6,5,0,2,2,7,,,,,,,,,4,2.484664342002361,,,005,001,2019_May_07_1410,MusicAffectPsychophysiology2019,3.0.5,58.87756412316055,
To what extent did the music make you feel ,ACTIVE,30MonoWAV/30MonoH2.wav,2,2,1,6,,,,,0,6,6,5,0,3,3,9,,,,,,,,,3,1.3347900299995672,,,005,001,2019_May_07_1410,MusicAffectPsychophysiology2019,3.0.5,58.87756412316055,
To what extent did the music make you feel ,SCARED,30MonoWAV/30MonoH2.wav,2,2,1,6,,,,,0,6,6,5,0,4,4,11,,,,,,,,,1,1.451783725999121,,,005,001,2019_May_07_1410,MusicAffectPsychophysiology2019,3.0.5,58.87756412316055,
To what extent did the music make you feel ,ASHAMED,30MonoWAV/30MonoH2.wav,2,2,1,6,,,,,0,6,6,5,0,5,5,4,,,,,,,,,1,0.9354839309999079,,,005,001,2019_May_07_1410,MusicAffectPsychophysiology2019,3.0.5,58.87756412316055,
To what extent did the music make you feel ,ALERT,30MonoWAV/30MonoH2.wav,2,2,1,6,,,,,0,6,6,5,0,6,6,8,,,,,,,,,3,1.8019867050024914,,,005,001,2019_May_07_1410,MusicAffectPsychophysiology2019,3.0.5,58.87756412316055,
To what extent did the music make you feel ,GUILTY,30MonoWAV/30MonoH2.wav,2,2,1,6,,,,,0,6,6,5,0,7,7,5,,,,,,,,,1,1.939588780998747,,,005,001,2019_May_07_1410,MusicAffectPsychophysiology2019,3.0.5,58.87756412316055,
To what extent did the music make you feel ,FRUSTRATED,30MonoWAV/30MonoH2.wav,2,2,1,6,,,,,0,6,6,5,0,8,8,3,,,,,,,,,1,2.504252176000591,,,005,001,2019_May_07_1410,MusicAffectPsychophysiology2019,3.0.5,58.87756412316055,
To what extent did the music make you feel ,ANXIOUS ,30MonoWAV/30MonoH2.wav,2,2,1,6,,,,,0,6,6,5,0,9,9,1,,,,,,,,,1,1.1020067630015546,,,005,001,2019_May_07_1410,MusicAffectPsychophysiology2019,3.0.5,58.87756412316055,
To what extent did the music make you feel ,HAPPY,30MonoWAV/30MonoH2.wav,2,2,1,6,,,,,0,6,6,5,0,10,10,6,,,,,,,,,2,2.287306477999664,,,005,001,2019_May_07_1410,MusicAffectPsychophysiology2019,3.0.5,58.87756412316055,
To what extent did the music make you feel ,ANGRY,30MonoWAV/30MonoH2.wav,2,2,1,6,,,,,0,6,6,5,0,11,11,2,,,,,,,,,1,0.6359040169991204,,,005,001,2019_May_07_1410,MusicAffectPsychophysiology2019,3.0.5,58.87756412316055,
,,30MonoWAV/30MonoH2.wav,2,2,1,6,,,,,0,6,6,5,,,,,,,,,,,,,,,,,005,001,2019_May_07_1410,MusicAffectPsychophysiology2019,3.0.5,58.87756412316055,
To what extent did the music make you feel ,ANGRY,30MonoWAV/30MonoT4.wav,2,1,4,16,,,,,0,7,7,15,0,0,0,2,,,3,4.184535442000197,3,3.4010792139997648,,,1,1.7020153129997198,,,005,001,2019_May_07_1410,MusicAffectPsychophysiology2019,3.0.5,58.87756412316055,
To what extent did the music make you feel ,FRUSTRATED,30MonoWAV/30MonoT4.wav,2,1,4,16,,,,,0,7,7,15,0,1,1,3,,,,,,,,,1,0.9691481940026279,,,005,001,2019_May_07_1410,MusicAffectPsychophysiology2019,3.0.5,58.87756412316055,
To what extent did the music make you feel ,TENDER,30MonoWAV/30MonoT4.wav,2,1,4,16,,,,,0,7,7,15,0,2,2,10,,,,,,,,,2,1.6833177330008766,,,005,001,2019_May_07_1410,MusicAffectPsychophysiology2019,3.0.5,58.87756412316055,
To what extent did the music make you feel ,EXCITED,30MonoWAV/30MonoT4.wav,2,1,4,16,,,,,0,7,7,15,0,3,3,7,,,,,,,,,3,1.8859328709986585,,,005,001,2019_May_07_1410,MusicAffectPsychophysiology2019,3.0.5,58.87756412316055,
To what extent did the music make you feel ,SCARED,30MonoWAV/30MonoT4.wav,2,1,4,16,,,,,0,7,7,15,0,4,4,11,,,,,,,,,1,0.9852194180020888,,,005,001,2019_May_07_1410,MusicAffectPsychophysiology2019,3.0.5,58.87756412316055,
To what extent did the music make you feel ,ASHAMED,30MonoWAV/30MonoT4.wav,2,1,4,16,,,,,0,7,7,15,0,5,5,4,,,,,,,,,1,0.8841803680006706,,,005,001,2019_May_07_1410,MusicAffectPsychophysiology2019,3.0.5,58.87756412316055,
To what extent did the music make you feel ,ACTIVE,30MonoWAV/30MonoT4.wav,2,1,4,16,,,,,0,7,7,15,0,6,6,9,,,,,,,,,2,1.7516800910016173,,,005,001,2019_May_07_1410,MusicAffectPsychophysiology2019,3.0.5,58.87756412316055,
To what extent did the music make you feel ,ANXIOUS ,30MonoWAV/30MonoT4.wav,2,1,4,16,,,,,0,7,7,15,0,7,7,1,,,,,,,,,1,1.1512968280003406,,,005,001,2019_May_07_1410,MusicAffectPsychophysiology2019,3.0.5,58.87756412316055,
To what extent did the music make you feel ,SAD,30MonoWAV/30MonoT4.wav,2,1,4,16,,,,,0,7,7,15,0,8,8,0,,,,,,,,,1,1.2017144870005723,,,005,001,2019_May_07_1410,MusicAffectPsychophysiology2019,3.0.5,58.87756412316055,
To what extent did the music make you feel ,GUILTY,30MonoWAV/30MonoT4.wav,2,1,4,16,,,,,0,7,7,15,0,9,9,5,,,,,,,,,1,2.3850612649985123,,,005,001,2019_May_07_1410,MusicAffectPsychophysiology2019,3.0.5,58.87756412316055,
To what extent did the music make you feel ,ALERT,30MonoWAV/30MonoT4.wav,2,1,4,16,,,,,0,7,7,15,0,10,10,8,,,,,,,,,2,2.584970288000477,,,005,001,2019_May_07_1410,MusicAffectPsychophysiology2019,3.0.5,58.87756412316055,
To what extent did the music make you feel ,HAPPY,30MonoWAV/30MonoT4.wav,2,1,4,16,,,,,0,7,7,15,0,11,11,6,,,,,,,,,3,1.500803660001111,,,005,001,2019_May_07_1410,MusicAffectPsychophysiology2019,3.0.5,58.87756412316055,
,,30MonoWAV/30MonoT4.wav,2,1,4,16,,,,,0,7,7,15,,,,,,,,,,,,,,,,,005,001,2019_May_07_1410,MusicAffectPsychophysiology2019,3.0.5,58.87756412316055,
To what extent did the music make you feel ,ACTIVE,30MonoWAV/30MonoH4.wav,2,2,1,8,,,,,0,8,8,7,0,0,0,9,,,4,5.467380707999837,4,1.9026687269979448,,,4,2.7512424730011844,,,005,001,2019_May_07_1410,MusicAffectPsychophysiology2019,3.0.5,58.87756412316055,
To what extent did the music make you feel ,ANXIOUS ,30MonoWAV/30MonoH4.wav,2,2,1,8,,,,,0,8,8,7,0,1,1,1,,,,,,,,,1,1.200819487003173,,,005,001,2019_May_07_1410,MusicAffectPsychophysiology2019,3.0.5,58.87756412316055,
To what extent did the music make you feel ,FRUSTRATED,30MonoWAV/30MonoH4.wav,2,2,1,8,,,,,0,8,8,7,0,2,2,3,,,,,,,,,1,3.606974733000243,,,005,001,2019_May_07_1410,MusicAffectPsychophysiology2019,3.0.5,58.87756412316055,
To what extent did the music make you feel ,SCARED,30MonoWAV/30MonoH4.wav,2,2,1,8,,,,,0,8,8,7,0,3,3,11,,,,,,,,,1,0.5858007179995184,,,005,001,2019_May_07_1410,MusicAffectPsychophysiology2019,3.0.5,58.87756412316055,
To what extent did the music make you feel ,EXCITED,30MonoWAV/30MonoH4.wav,2,2,1,8,,,,,0,8,8,7,0,4,4,7,,,,,,,,,3,1.2688087220012676,,,005,001,2019_May_07_1410,MusicAffectPsychophysiology2019,3.0.5,58.87756412316055,
To what extent did the music make you feel ,ALERT,30MonoWAV/30MonoH4.wav,2,2,1,8,,,,,0,8,8,7,0,5,5,8,,,,,,,,,3,1.420312294998439,,,005,001,2019_May_07_1410,MusicAffectPsychophysiology2019,3.0.5,58.87756412316055,
To what extent did the music make you feel ,ANGRY,30MonoWAV/30MonoH4.wav,2,2,1,8,,,,,0,8,8,7,0,6,6,2,,,,,,,,,1,0.7515780530011398,,,005,001,2019_May_07_1410,MusicAffectPsychophysiology2019,3.0.5,58.87756412316055,
To what extent did the music make you feel ,HAPPY,30MonoWAV/30MonoH4.wav,2,2,1,8,,,,,0,8,8,7,0,7,7,6,,,,,,,,,3,1.1221066639991477,,,005,001,2019_May_07_1410,MusicAffectPsychophysiology2019,3.0.5,58.87756412316055,
To what extent did the music make you feel ,ASHAMED,30MonoWAV/30MonoH4.wav,2,2,1,8,,,,,0,8,8,7,0,8,8,4,,,,,,,,,1,0.6513014900010603,,,005,001,2019_May_07_1410,MusicAffectPsychophysiology2019,3.0.5,58.87756412316055,
To what extent did the music make you feel ,GUILTY,30MonoWAV/30MonoH4.wav,2,2,1,8,,,,,0,8,8,7,0,9,9,5,,,,,,,,,1,0.6518964650022099,,,005,001,2019_May_07_1410,MusicAffectPsychophysiology2019,3.0.5,58.87756412316055,
To what extent did the music make you feel ,SAD,30MonoWAV/30MonoH4.wav,2,2,1,8,,,,,0,8,8,7,0,10,10,0,,,,,,,,,1,0.9333285399989109,,,005,001,2019_May_07_1410,MusicAffectPsychophysiology2019,3.0.5,58.87756412316055,
To what extent did the music make you feel ,TENDER,30MonoWAV/30MonoH4.wav,2,2,1,8,,,,,0,8,8,7,0,11,11,10,,,,,,,,,1,0.8349214449990541,,,005,001,2019_May_07_1410,MusicAffectPsychophysiology2019,3.0.5,58.87756412316055,
,,30MonoWAV/30MonoH4.wav,2,2,1,8,,,,,0,8,8,7,,,,,,,,,,,,,,,,,005,001,2019_May_07_1410,MusicAffectPsychophysiology2019,3.0.5,58.87756412316055,
To what extent did the music make you feel ,ACTIVE,30MonoWAV/30MonoF1.wav,1,2,2,1,,,,,0,9,9,0,0,0,0,9,,,4,10.882285507999768,1,1.7018034869979601,,,2,1.7851864199983538,,,005,001,2019_May_07_1410,MusicAffectPsychophysiology2019,3.0.5,58.87756412316055,
To what extent did the music make you feel ,ALERT,30MonoWAV/30MonoF1.wav,1,2,2,1,,,,,0,9,9,0,0,1,1,8,,,,,,,,,5,1.8171168039989425,,,005,001,2019_May_07_1410,MusicAffectPsychophysiology2019,3.0.5,58.87756412316055,
To what extent did the music make you feel ,ANGRY,30MonoWAV/30MonoF1.wav,1,2,2,1,,,,,0,9,9,0,0,2,2,2,,,,,,,,,3,2.117825821002043,,,005,001,2019_May_07_1410,MusicAffectPsychophysiology2019,3.0.5,58.87756412316055,
To what extent did the music make you feel ,SAD,30MonoWAV/30MonoF1.wav,1,2,2,1,,,,,0,9,9,0,0,3,3,0,,,,,,,,,1,1.1686646669986658,,,005,001,2019_May_07_1410,MusicAffectPsychophysiology2019,3.0.5,58.87756412316055,
To what extent did the music make you feel ,ANXIOUS ,30MonoWAV/30MonoF1.wav,1,2,2,1,,,,,0,9,9,0,0,4,4,1,,,,,,,,,4,3.0672473500017077,,,005,001,2019_May_07_1410,MusicAffectPsychophysiology2019,3.0.5,58.87756412316055,
To what extent did the music make you feel ,EXCITED,30MonoWAV/30MonoF1.wav,1,2,2,1,,,,,0,9,9,0,0,5,5,7,,,,,,,,,1,1.8522609899991949,,,005,001,2019_May_07_1410,MusicAffectPsychophysiology2019,3.0.5,58.87756412316055,
To what extent did the music make you feel ,SCARED,30MonoWAV/30MonoF1.wav,1,2,2,1,,,,,0,9,9,0,0,6,6,11,,,,,,,,,3,1.4711879229980696,,,005,001,2019_May_07_1410,MusicAffectPsychophysiology2019,3.0.5,58.87756412316055,
To what extent did the music make you feel ,ASHAMED,30MonoWAV/30MonoF1.wav,1,2,2,1,,,,,0,9,9,0,0,7,7,4,,,,,,,,,1,1.3857623809999495,,,005,001,2019_May_07_1410,MusicAffectPsychophysiology2019,3.0.5,58.87756412316055,
To what extent did the music make you feel ,FRUSTRATED,30MonoWAV/30MonoF1.wav,1,2,2,1,,,,,0,9,9,0,0,8,8,3,,,,,,,,,3,1.6533495139992738,,,005,001,2019_May_07_1410,MusicAffectPsychophysiology2019,3.0.5,58.87756412316055,
To what extent did the music make you feel ,TENDER,30MonoWAV/30MonoF1.wav,1,2,2,1,,,,,0,9,9,0,0,9,9,10,,,,,,,,,1,0.9020908560014504,,,005,001,2019_May_07_1410,MusicAffectPsychophysiology2019,3.0.5,58.87756412316055,
To what extent did the music make you feel ,GUILTY,30MonoWAV/30MonoF1.wav,1,2,2,1,,,,,0,9,9,0,0,10,10,5,,,,,,,,,1,1.1702782579995983,,,005,001,2019_May_07_1410,MusicAffectPsychophysiology2019,3.0.5,58.87756412316055,
To what extent did the music make you feel ,HAPPY,30MonoWAV/30MonoF1.wav,1,2,2,1,,,,,0,9,9,0,0,11,11,6,,,,,,,,,1,2.6545456450003257,,,005,001,2019_May_07_1410,MusicAffectPsychophysiology2019,3.0.5,58.87756412316055,
,,30MonoWAV/30MonoF1.wav,1,2,2,1,,,,,0,9,9,0,,,,,,,,,,,,,,,,,005,001,2019_May_07_1410,MusicAffectPsychophysiology2019,3.0.5,58.87756412316055,
To what extent did the music make you feel ,EXCITED,30MonoWAV/30MonoF3.wav,1,2,2,3,,,,,0,10,10,2,0,0,0,7,,,3,5.3426965869985,1,0.9038318069979141,,,1,1.1178830259996175,,,005,001,2019_May_07_1410,MusicAffectPsychophysiology2019,3.0.5,58.87756412316055,
To what extent did the music make you feel ,FRUSTRATED,30MonoWAV/30MonoF3.wav,1,2,2,3,,,,,0,10,10,2,0,1,1,3,,,,,,,,,1,2.734291601998848,,,005,001,2019_May_07_1410,MusicAffectPsychophysiology2019,3.0.5,58.87756412316055,
To what extent did the music make you feel ,HAPPY,30MonoWAV/30MonoF3.wav,1,2,2,3,,,,,0,10,10,2,0,2,2,6,,,,,,,,,1,0.8521458329996676,,,005,001,2019_May_07_1410,MusicAffectPsychophysiology2019,3.0.5,58.87756412316055,
To what extent did the music make you feel ,ACTIVE,30MonoWAV/30MonoF3.wav,1,2,2,3,,,,,0,10,10,2,0,3,3,9,,,,,,,,,2,2.184722005000367,,,005,001,2019_May_07_1410,MusicAffectPsychophysiology2019,3.0.5,58.87756412316055,
To what extent did the music make you feel ,ASHAMED,30MonoWAV/30MonoF3.wav,1,2,2,3,,,,,0,10,10,2,0,4,4,4,,,,,,,,,1,1.5192292729989276,,,005,001,2019_May_07_1410,MusicAffectPsychophysiology2019,3.0.5,58.87756412316055,
To what extent did the music make you feel ,GUILTY,30MonoWAV/30MonoF3.wav,1,2,2,3,,,,,0,10,10,2,0,5,5,5,,,,,,,,,1,1.3833868990004703,,,005,001,2019_May_07_1410,MusicAffectPsychophysiology2019,3.0.5,58.87756412316055,
To what extent did the music make you feel ,ALERT,30MonoWAV/30MonoF3.wav,1,2,2,3,,,,,0,10,10,2,0,6,6,8,,,,,,,,,4,1.5843394109979272,,,005,001,2019_May_07_1410,MusicAffectPsychophysiology2019,3.0.5,58.87756412316055,
To what extent did the music make you feel ,SCARED,30MonoWAV/30MonoF3.wav,1,2,2,3,,,,,0,10,10,2,0,7,7,11,,,,,,,,,3,1.8852106069971342,,,005,001,2019_May_07_1410,MusicAffectPsychophysiology2019,3.0.5,58.87756412316055,
To what extent did the music make you feel ,SAD,30MonoWAV/30MonoF3.wav,1,2,2,3,,,,,0,10,10,2,0,8,8,0,,,,,,,,,1,1.4522739929998352,,,005,001,2019_May_07_1410,MusicAffectPsychophysiology2019,3.0.5,58.87756412316055,
To what extent did the music make you feel ,ANXIOUS ,30MonoWAV/30MonoF3.wav,1,2,2,3,,,,,0,10,10,2,0,9,9,1,,,,,,,,,3,1.6854679110001598,,,005,001,2019_May_07_1410,MusicAffectPsychophysiology2019,3.0.5,58.87756412316055,
To what extent did the music make you feel ,TENDER,30MonoWAV/30MonoF3.wav,1,2,2,3,,,,,0,10,10,2,0,10,10,10,,,,,,,,,1,1.6680333639997116,,,005,001,2019_May_07_1410,MusicAffectPsychophysiology2019,3.0.5,58.87756412316055,
To what extent did the music make you feel ,ANGRY,30MonoWAV/30MonoF3.wav,1,2,2,3,,,,,0,10,10,2,0,11,11,2,,,,,,,,,2,1.7685385139993741,,,005,001,2019_May_07_1410,MusicAffectPsychophysiology2019,3.0.5,58.87756412316055,
,,30MonoWAV/30MonoF3.wav,1,2,2,3,,,,,0,10,10,2,,,,,,,,,,,,,,,,,005,001,2019_May_07_1410,MusicAffectPsychophysiology2019,3.0.5,58.87756412316055,
To what extent did the music make you feel ,HAPPY,30MonoWAV/30MonoS3.wav,1,1,3,11,,,,,0,11,11,10,0,0,0,6,,,1,3.572776189997967,1,0.9529807580001943,,,1,0.8702304800026468,,,005,001,2019_May_07_1410,MusicAffectPsychophysiology2019,3.0.5,58.87756412316055,
To what extent did the music make you feel ,SAD,30MonoWAV/30MonoS3.wav,1,1,3,11,,,,,0,11,11,10,0,1,1,0,,,,,,,,,4,2.1570856910002476,,,005,001,2019_May_07_1410,MusicAffectPsychophysiology2019,3.0.5,58.87756412316055,
To what extent did the music make you feel ,ASHAMED,30MonoWAV/30MonoS3.wav,1,1,3,11,,,,,0,11,11,10,0,2,2,4,,,,,,,,,3,1.6848828100009996,,,005,001,2019_May_07_1410,MusicAffectPsychophysiology2019,3.0.5,58.87756412316055,
To what extent did the music make you feel ,ACTIVE,30MonoWAV/30MonoS3.wav,1,1,3,11,,,,,0,11,11,10,0,3,3,9,,,,,,,,,1,1.0517727930018737,,,005,001,2019_May_07_1410,MusicAffectPsychophysiology2019,3.0.5,58.87756412316055,
To what extent did the music make you feel ,TENDER,30MonoWAV/30MonoS3.wav,1,1,3,11,,,,,0,11,11,10,0,4,4,10,,,,,,,,,4,1.5348058979980124,,,005,001,2019_May_07_1410,MusicAffectPsychophysiology2019,3.0.5,58.87756412316055,
To what extent did the music make you feel ,GUILTY,30MonoWAV/30MonoS3.wav,1,1,3,11,,,,,0,11,11,10,0,5,5,5,,,,,,,,,2,1.6849579699992319,,,005,001,2019_May_07_1410,MusicAffectPsychophysiology2019,3.0.5,58.87756412316055,
To what extent did the music make you feel ,ANXIOUS ,30MonoWAV/30MonoS3.wav,1,1,3,11,,,,,0,11,11,10,0,6,6,1,,,,,,,,,1,1.03445025900146,,,005,001,2019_May_07_1410,MusicAffectPsychophysiology2019,3.0.5,58.87756412316055,
To what extent did the music make you feel ,SCARED,30MonoWAV/30MonoS3.wav,1,1,3,11,,,,,0,11,11,10,0,7,7,11,,,,,,,,,2,2.0009415810018254,,,005,001,2019_May_07_1410,MusicAffectPsychophysiology2019,3.0.5,58.87756412316055,
To what extent did the music make you feel ,FRUSTRATED,30MonoWAV/30MonoS3.wav,1,1,3,11,,,,,0,11,11,10,0,8,8,3,,,,,,,,,1,0.8677562580014637,,,005,001,2019_May_07_1410,MusicAffectPsychophysiology2019,3.0.5,58.87756412316055,
To what extent did the music make you feel ,ALERT,30MonoWAV/30MonoS3.wav,1,1,3,11,,,,,0,11,11,10,0,9,9,8,,,,,,,,,1,0.7676647889966262,,,005,001,2019_May_07_1410,MusicAffectPsychophysiology2019,3.0.5,58.87756412316055,
To what extent did the music make you feel ,EXCITED,30MonoWAV/30MonoS3.wav,1,1,3,11,,,,,0,11,11,10,0,10,10,7,,,,,,,,,1,0.7519580619991757,,,005,001,2019_May_07_1410,MusicAffectPsychophysiology2019,3.0.5,58.87756412316055,
To what extent did the music make you feel ,ANGRY,30MonoWAV/30MonoS3.wav,1,1,3,11,,,,,0,11,11,10,0,11,11,2,,,,,,,,,1,0.5340556480005034,,,005,001,2019_May_07_1410,MusicAffectPsychophysiology2019,3.0.5,58.87756412316055,
,,30MonoWAV/30MonoS3.wav,1,1,3,11,,,,,0,11,11,10,,,,,,,,,,,,,,,,,005,001,2019_May_07_1410,MusicAffectPsychophysiology2019,3.0.5,58.87756412316055,
To what extent did the music make you feel ,GUILTY,30MonoWAV/30MonoT1.wav,2,1,4,13,,,,,0,12,12,12,0,0,0,5,,,2,3.300121663000027,3,1.7522818940014986,,,1,0.8288561609988392,,,005,001,2019_May_07_1410,MusicAffectPsychophysiology2019,3.0.5,58.87756412316055,
To what extent did the music make you feel ,ASHAMED,30MonoWAV/30MonoT1.wav,2,1,4,13,,,,,0,12,12,12,0,1,1,4,,,,,,,,,1,0.752130341999873,,,005,001,2019_May_07_1410,MusicAffectPsychophysiology2019,3.0.5,58.87756412316055,
To what extent did the music make you feel ,ANGRY,30MonoWAV/30MonoT1.wav,2,1,4,13,,,,,0,12,12,12,0,2,2,2,,,,,,,,,1,0.5687096580004436,,,005,001,2019_May_07_1410,MusicAffectPsychophysiology2019,3.0.5,58.87756412316055,
To what extent did the music make you feel ,ANXIOUS ,30MonoWAV/30MonoT1.wav,2,1,4,13,,,,,0,12,12,12,0,3,3,1,,,,,,,,,1,1.151447490999999,,,005,001,2019_May_07_1410,MusicAffectPsychophysiology2019,3.0.5,58.87756412316055,
To what extent did the music make you feel ,FRUSTRATED,30MonoWAV/30MonoT1.wav,2,1,4,13,,,,,0,12,12,12,0,4,4,3,,,,,,,,,1,1.6348828920017695,,,005,001,2019_May_07_1410,MusicAffectPsychophysiology2019,3.0.5,58.87756412316055,
To what extent did the music make you feel ,HAPPY,30MonoWAV/30MonoT1.wav,2,1,4,13,,,,,0,12,12,12,0,5,5,6,,,,,,,,,2,3.216167223999946,,,005,001,2019_May_07_1410,MusicAffectPsychophysiology2019,3.0.5,58.87756412316055,
To what extent did the music make you feel ,EXCITED,30MonoWAV/30MonoT1.wav,2,1,4,13,,,,,0,12,12,12,0,6,6,7,,,,,,,,,1,1.2533655909974186,,,005,001,2019_May_07_1410,MusicAffectPsychophysiology2019,3.0.5,58.87756412316055,
To what extent did the music make you feel ,SAD,30MonoWAV/30MonoT1.wav,2,1,4,13,,,,,0,12,12,12,0,7,7,0,,,,,,,,,3,1.7354570099996636,,,005,001,2019_May_07_1410,MusicAffectPsychophysiology2019,3.0.5,58.87756412316055,
To what extent did the music make you feel ,SCARED,30MonoWAV/30MonoT1.wav,2,1,4,13,,,,,0,12,12,12,0,8,8,11,,,,,,,,,1,0.8341170819985564,,,005,001,2019_May_07_1410,MusicAffectPsychophysiology2019,3.0.5,58.87756412316055,
To what extent did the music make you feel ,ALERT,30MonoWAV/30MonoT1.wav,2,1,4,13,,,,,0,12,12,12,0,9,9,8,,,,,,,,,1,1.102167189001193,,,005,001,2019_May_07_1410,MusicAffectPsychophysiology2019,3.0.5,58.87756412316055,
To what extent did the music make you feel ,ACTIVE,30MonoWAV/30MonoT1.wav,2,1,4,13,,,,,0,12,12,12,0,10,10,9,,,,,,,,,1,1.1690081220003776,,,005,001,2019_May_07_1410,MusicAffectPsychophysiology2019,3.0.5,58.87756412316055,
To what extent did the music make you feel ,TENDER,30MonoWAV/30MonoT1.wav,2,1,4,13,,,,,0,12,12,12,0,11,11,10,,,,,,,,,4,1.918494636000105,,,005,001,2019_May_07_1410,MusicAffectPsychophysiology2019,3.0.5,58.87756412316055,
,,30MonoWAV/30MonoT1.wav,2,1,4,13,,,,,0,12,12,12,,,,,,,,,,,,,,,,,005,001,2019_May_07_1410,MusicAffectPsychophysiology2019,3.0.5,58.87756412316055,
To what extent did the music make you feel ,EXCITED,30MonoWAV/30MonoH3.wav,2,2,1,7,,,,,0,13,13,6,0,0,0,7,,,3,8.418745488997956,4,4.868017199998576,,,4,1.7550829149986384,,,005,001,2019_May_07_1410,MusicAffectPsychophysiology2019,3.0.5,58.87756412316055,
To what extent did the music make you feel ,HAPPY,30MonoWAV/30MonoH3.wav,2,2,1,7,,,,,0,13,13,6,0,1,1,6,,,,,,,,,4,1.1187347750019399,,,005,001,2019_May_07_1410,MusicAffectPsychophysiology2019,3.0.5,58.87756412316055,
To what extent did the music make you feel ,ANGRY,30MonoWAV/30MonoH3.wav,2,2,1,7,,,,,0,13,13,6,0,2,2,2,,,,,,,,,1,1.5866380460029177,,,005,001,2019_May_07_1410,MusicAffectPsychophysiology2019,3.0.5,58.87756412316055,
To what extent did the music make you feel ,ACTIVE,30MonoWAV/30MonoH3.wav,2,2,1,7,,,,,0,13,13,6,0,3,3,9,,,,,,,,,3,1.5357984529982787,,,005,001,2019_May_07_1410,MusicAffectPsychophysiology2019,3.0.5,58.87756412316055,
To what extent did the music make you feel ,GUILTY,30MonoWAV/30MonoH3.wav,2,2,1,7,,,,,0,13,13,6,0,4,4,5,,,,,,,,,1,0.7512282940006116,,,005,001,2019_May_07_1410,MusicAffectPsychophysiology2019,3.0.5,58.87756412316055,
To what extent did the music make you feel ,ALERT,30MonoWAV/30MonoH3.wav,2,2,1,7,,,,,0,13,13,6,0,5,5,8,,,,,,,,,5,4.817869239999709,,,005,001,2019_May_07_1410,MusicAffectPsychophysiology2019,3.0.5,58.87756412316055,
To what extent did the music make you feel ,ANXIOUS ,30MonoWAV/30MonoH3.wav,2,2,1,7,,,,,0,13,13,6,0,6,6,1,,,,,,,,,1,1.15067158400052,,,005,001,2019_May_07_1410,MusicAffectPsychophysiology2019,3.0.5,58.87756412316055,
To what extent did the music make you feel ,ASHAMED,30MonoWAV/30MonoH3.wav,2,2,1,7,,,,,0,13,13,6,0,7,7,4,,,,,,,,,1,1.0851019259971508,,,005,001,2019_May_07_1410,MusicAffectPsychophysiology2019,3.0.5,58.87756412316055,
To what extent did the music make you feel ,TENDER,30MonoWAV/30MonoH3.wav,2,2,1,7,,,,,0,13,13,6,0,8,8,10,,,,,,,,,1,0.769164784996974,,,005,001,2019_May_07_1410,MusicAffectPsychophysiology2019,3.0.5,58.87756412316055,
To what extent did the music make you feel ,SAD,30MonoWAV/30MonoH3.wav,2,2,1,7,,,,,0,13,13,6,0,9,9,0,,,,,,,,,1,0.735321288000705,,,005,001,2019_May_07_1410,MusicAffectPsychophysiology2019,3.0.5,58.87756412316055,
To what extent did the music make you feel ,FRUSTRATED,30MonoWAV/30MonoH3.wav,2,2,1,7,,,,,0,13,13,6,0,10,10,3,,,,,,,,,1,0.9181845339990105,,,005,001,2019_May_07_1410,MusicAffectPsychophysiology2019,3.0.5,58.87756412316055,
To what extent did the music make you feel ,SCARED,30MonoWAV/30MonoH3.wav,2,2,1,7,,,,,0,13,13,6,0,11,11,11,,,,,,,,,1,0.5178374259994598,,,005,001,2019_May_07_1410,MusicAffectPsychophysiology2019,3.0.5,58.87756412316055,
,,30MonoWAV/30MonoH3.wav,2,2,1,7,,,,,0,13,13,6,,,,,,,,,,,,,,,,,005,001,2019_May_07_1410,MusicAffectPsychophysiology2019,3.0.5,58.87756412316055,
To what extent did the music make you feel ,GUILTY,30MonoWAV/30MonoS1.wav,1,1,3,9,,,,,0,14,14,8,0,0,0,5,,,1,12.370888614997966,1,3.722558626999671,,,2,2.552827327999694,,,005,001,2019_May_07_1410,MusicAffectPsychophysiology2019,3.0.5,58.87756412316055,
To what extent did the music make you feel ,ANGRY,30MonoWAV/30MonoS1.wav,1,1,3,9,,,,,0,14,14,8,0,1,1,2,,,,,,,,,1,1.5893377239990514,,,005,001,2019_May_07_1410,MusicAffectPsychophysiology2019,3.0.5,58.87756412316055,
To what extent did the music make you feel ,ALERT,30MonoWAV/30MonoS1.wav,1,1,3,9,,,,,0,14,14,8,0,2,2,8,,,,,,,,,1,0.7843933330004802,,,005,001,2019_May_07_1410,MusicAffectPsychophysiology2019,3.0.5,58.87756412316055,
To what extent did the music make you feel ,SAD,30MonoWAV/30MonoS1.wav,1,1,3,9,,,,,0,14,14,8,0,3,3,0,,,,,,,,,5,2.435094291999121,,,005,001,2019_May_07_1410,MusicAffectPsychophysiology2019,3.0.5,58.87756412316055,
To what extent did the music make you feel ,FRUSTRATED,30MonoWAV/30MonoS1.wav,1,1,3,9,,,,,0,14,14,8,0,4,4,3,,,,,,,,,1,1.0853274229993986,,,005,001,2019_May_07_1410,MusicAffectPsychophysiology2019,3.0.5,58.87756412316055,
To what extent did the music make you feel ,ANXIOUS ,30MonoWAV/30MonoS1.wav,1,1,3,9,,,,,0,14,14,8,0,5,5,1,,,,,,,,,3,2.784171323000919,,,005,001,2019_May_07_1410,MusicAffectPsychophysiology2019,3.0.5,58.87756412316055,
To what extent did the music make you feel ,ACTIVE,30MonoWAV/30MonoS1.wav,1,1,3,9,,,,,0,14,14,8,0,6,6,9,,,,,,,,,1,0.7516703110013623,,,005,001,2019_May_07_1410,MusicAffectPsychophysiology2019,3.0.5,58.87756412316055,
To what extent did the music make you feel ,ASHAMED,30MonoWAV/30MonoS1.wav,1,1,3,9,,,,,0,14,14,8,0,7,7,4,,,,,,,,,4,1.3848292929978925,,,005,001,2019_May_07_1410,MusicAffectPsychophysiology2019,3.0.5,58.87756412316055,
To what extent did the music make you feel ,EXCITED,30MonoWAV/30MonoS1.wav,1,1,3,9,,,,,0,14,14,8,0,8,8,7,,,,,,,,,1,0.9178660919969843,,,005,001,2019_May_07_1410,MusicAffectPsychophysiology2019,3.0.5,58.87756412316055,
To what extent did the music make you feel ,SCARED,30MonoWAV/30MonoS1.wav,1,1,3,9,,,,,0,14,14,8,0,9,9,11,,,,,,,,,1,1.3510472160014615,,,005,001,2019_May_07_1410,MusicAffectPsychophysiology2019,3.0.5,58.87756412316055,
To what extent did the music make you feel ,TENDER,30MonoWAV/30MonoS1.wav,1,1,3,9,,,,,0,14,14,8,0,10,10,10,,,,,,,,,5,1.3344217539997771,,,005,001,2019_May_07_1410,MusicAffectPsychophysiology2019,3.0.5,58.87756412316055,
To what extent did the music make you feel ,HAPPY,30MonoWAV/30MonoS1.wav,1,1,3,9,,,,,0,14,14,8,0,11,11,6,,,,,,,,,1,0.917666379998991,,,005,001,2019_May_07_1410,MusicAffectPsychophysiology2019,3.0.5,58.87756412316055,
,,30MonoWAV/30MonoS1.wav,1,1,3,9,,,,,0,14,14,8,,,,,,,,,,,,,,,,,005,001,2019_May_07_1410,MusicAffectPsychophysiology2019,3.0.5,58.87756412316055,
To what extent did the music make you feel ,SCARED,30MonoWAV/30MonoF4.wav,1,2,2,4,,,,,0,15,15,3,0,0,0,11,,,5,2.6509002940001665,1,2.3014735100005055,,,5,1.3194525110011455,,,005,001,2019_May_07_1410,MusicAffectPsychophysiology2019,3.0.5,58.87756412316055,
To what extent did the music make you feel ,SAD,30MonoWAV/30MonoF4.wav,1,2,2,4,,,,,0,15,15,3,0,1,1,0,,,,,,,,,1,1.000397873998736,,,005,001,2019_May_07_1410,MusicAffectPsychophysiology2019,3.0.5,58.87756412316055,
To what extent did the music make you feel ,ACTIVE,30MonoWAV/30MonoF4.wav,1,2,2,4,,,,,0,15,15,3,0,2,2,9,,,,,,,,,4,1.1019126460014377,,,005,001,2019_May_07_1410,MusicAffectPsychophysiology2019,3.0.5,58.87756412316055,
To what extent did the music make you feel ,EXCITED,30MonoWAV/30MonoF4.wav,1,2,2,4,,,,,0,15,15,3,0,3,3,7,,,,,,,,,1,1.2183881480013952,,,005,001,2019_May_07_1410,MusicAffectPsychophysiology2019,3.0.5,58.87756412316055,
To what extent did the music make you feel ,ASHAMED,30MonoWAV/30MonoF4.wav,1,2,2,4,,,,,0,15,15,3,0,4,4,4,,,,,,,,,1,1.085168662997603,,,005,001,2019_May_07_1410,MusicAffectPsychophysiology2019,3.0.5,58.87756412316055,
To what extent did the music make you feel ,HAPPY,30MonoWAV/30MonoF4.wav,1,2,2,4,,,,,0,15,15,3,0,5,5,6,,,,,,,,,1,0.7174913340022613,,,005,001,2019_May_07_1410,MusicAffectPsychophysiology2019,3.0.5,58.87756412316055,
To what extent did the music make you feel ,TENDER,30MonoWAV/30MonoF4.wav,1,2,2,4,,,,,0,15,15,3,0,6,6,10,,,,,,,,,1,0.6345765579972067,,,005,001,2019_May_07_1410,MusicAffectPsychophysiology2019,3.0.5,58.87756412316055,
To what extent did the music make you feel ,GUILTY,30MonoWAV/30MonoF4.wav,1,2,2,4,,,,,0,15,15,3,0,7,7,5,,,,,,,,,1,0.7667460630000278,,,005,001,2019_May_07_1410,MusicAffectPsychophysiology2019,3.0.5,58.87756412316055,
To what extent did the music make you feel ,ANGRY,30MonoWAV/30MonoF4.wav,1,2,2,4,,,,,0,15,15,3,0,8,8,2,,,,,,,,,4,1.318530472999555,,,005,001,2019_May_07_1410,MusicAffectPsychophysiology2019,3.0.5,58.87756412316055,
To what extent did the music make you feel ,FRUSTRATED,30MonoWAV/30MonoF4.wav,1,2,2,4,,,,,0,15,15,3,0,9,9,3,,,,,,,,,4,1.934567240998149,,,005,001,2019_May_07_1410,MusicAffectPsychophysiology2019,3.0.5,58.87756412316055,
To what extent did the music make you feel ,ANXIOUS ,30MonoWAV/30MonoF4.wav,1,2,2,4,,,,,0,15,15,3,0,10,10,1,,,,,,,,,1,0.5852539469997282,,,005,001,2019_May_07_1410,MusicAffectPsychophysiology2019,3.0.5,58.87756412316055,
To what extent did the music make you feel ,ALERT,30MonoWAV/30MonoF4.wav,1,2,2,4,,,,,0,15,15,3,0,11,11,8,,,,,,,,,5,1.1693965459999163,,,005,001,2019_May_07_1410,MusicAffectPsychophysiology2019,3.0.5,58.87756412316055,
,,30MonoWAV/30MonoF4.wav,1,2,2,4,,,,,0,15,15,3,,,,,,,,,,,,,,,,,005,001,2019_May_07_1410,MusicAffectPsychophysiology2019,3.0.5,58.87756412316055,
To what extent did the music make you feel ,TENDER,30MonoWAV/30MonoS4.wav,1,1,3,12,,,,,1,0,16,11,0,0,0,10,,,1,3.6883149339992087,1,0.7512605580013769,,,5,1.518643670999154,,,005,001,2019_May_07_1410,MusicAffectPsychophysiology2019,3.0.5,58.87756412316055,
To what extent did the music make you feel ,ANGRY,30MonoWAV/30MonoS4.wav,1,1,3,12,,,,,1,0,16,11,0,1,1,2,,,,,,,,,1,1.0522027689985407,,,005,001,2019_May_07_1410,MusicAffectPsychophysiology2019,3.0.5,58.87756412316055,
To what extent did the music make you feel ,HAPPY,30MonoWAV/30MonoS4.wav,1,1,3,12,,,,,1,0,16,11,0,2,2,6,,,,,,,,,1,0.9846727840013045,,,005,001,2019_May_07_1410,MusicAffectPsychophysiology2019,3.0.5,58.87756412316055,
To what extent did the music make you feel ,ALERT,30MonoWAV/30MonoS4.wav,1,1,3,12,,,,,1,0,16,11,0,3,3,8,,,,,,,,,1,0.884366416001285,,,005,001,2019_May_07_1410,MusicAffectPsychophysiology2019,3.0.5,58.87756412316055,
To what extent did the music make you feel ,SAD,30MonoWAV/30MonoS4.wav,1,1,3,12,,,,,1,0,16,11,0,4,4,0,,,,,,,,,5,1.2669270730002609,,,005,001,2019_May_07_1410,MusicAffectPsychophysiology2019,3.0.5,58.87756412316055,
To what extent did the music make you feel ,FRUSTRATED,30MonoWAV/30MonoS4.wav,1,1,3,12,,,,,1,0,16,11,0,5,5,3,,,,,,,,,1,0.951947809997364,,,005,001,2019_May_07_1410,MusicAffectPsychophysiology2019,3.0.5,58.87756412316055,
To what extent did the music make you feel ,SCARED,30MonoWAV/30MonoS4.wav,1,1,3,12,,,,,1,0,16,11,0,6,6,11,,,,,,,,,1,0.9516914050000196,,,005,001,2019_May_07_1410,MusicAffectPsychophysiology2019,3.0.5,58.87756412316055,
To what extent did the music make you feel ,ASHAMED,30MonoWAV/30MonoS4.wav,1,1,3,12,,,,,1,0,16,11,0,7,7,4,,,,,,,,,3,1.751853031997598,,,005,001,2019_May_07_1410,MusicAffectPsychophysiology2019,3.0.5,58.87756412316055,
To what extent did the music make you feel ,EXCITED,30MonoWAV/30MonoS4.wav,1,1,3,12,,,,,1,0,16,11,0,8,8,7,,,,,,,,,1,0.7003196139994543,,,005,001,2019_May_07_1410,MusicAffectPsychophysiology2019,3.0.5,58.87756412316055,
To what extent did the music make you feel ,ANXIOUS ,30MonoWAV/30MonoS4.wav,1,1,3,12,,,,,1,0,16,11,0,9,9,1,,,,,,,,,3,1.6511163269969984,,,005,001,2019_May_07_1410,MusicAffectPsychophysiology2019,3.0.5,58.87756412316055,
To what extent did the music make you feel ,ACTIVE,30MonoWAV/30MonoS4.wav,1,1,3,12,,,,,1,0,16,11,0,10,10,9,,,,,,,,,1,1.4030943680008932,,,005,001,2019_May_07_1410,MusicAffectPsychophysiology2019,3.0.5,58.87756412316055,
To what extent did the music make you feel ,GUILTY,30MonoWAV/30MonoS4.wav,1,1,3,12,,,,,1,0,16,11,0,11,11,5,,,,,,,,,2,1.4842711290002626,,,005,001,2019_May_07_1410,MusicAffectPsychophysiology2019,3.0.5,58.87756412316055,
,,30MonoWAV/30MonoS4.wav,1,1,3,12,,,,,1,0,16,11,,,,,,,,,,,,,,,,,005,001,2019_May_07_1410,MusicAffectPsychophysiology2019,3.0.5,58.87756412316055,
To what extent did the music make you feel ,ACTIVE,30MonoWAV/30MonoH4.wav,2,2,1,8,,,,,1,1,17,7,0,0,0,9,,,4,2.602286716999515,4,2.451622155997029,,,5,1.6684120709978743,,,005,001,2019_May_07_1410,MusicAffectPsychophysiology2019,3.0.5,58.87756412316055,
To what extent did the music make you feel ,ASHAMED,30MonoWAV/30MonoH4.wav,2,2,1,8,,,,,1,1,17,7,0,1,1,4,,,,,,,,,1,1.0695284830035234,,,005,001,2019_May_07_1410,MusicAffectPsychophysiology2019,3.0.5,58.87756412316055,
To what extent did the music make you feel ,GUILTY,30MonoWAV/30MonoH4.wav,2,2,1,8,,,,,1,1,17,7,0,2,2,5,,,,,,,,,1,0.6516387890005717,,,005,001,2019_May_07_1410,MusicAffectPsychophysiology2019,3.0.5,58.87756412316055,
To what extent did the music make you feel ,SCARED,30MonoWAV/30MonoH4.wav,2,2,1,8,,,,,1,1,17,7,0,3,3,11,,,,,,,,,1,0.6010331390025385,,,005,001,2019_May_07_1410,MusicAffectPsychophysiology2019,3.0.5,58.87756412316055,
To what extent did the music make you feel ,TENDER,30MonoWAV/30MonoH4.wav,2,2,1,8,,,,,1,1,17,7,0,4,4,10,,,,,,,,,1,0.9344347469996137,,,005,001,2019_May_07_1410,MusicAffectPsychophysiology2019,3.0.5,58.87756412316055,
To what extent did the music make you feel ,ANXIOUS ,30MonoWAV/30MonoH4.wav,2,2,1,8,,,,,1,1,17,7,0,5,5,1,,,,,,,,,1,0.6684344480017899,,,005,001,2019_May_07_1410,MusicAffectPsychophysiology2019,3.0.5,58.87756412316055,
To what extent did the music make you feel ,ANGRY,30MonoWAV/30MonoH4.wav,2,2,1,8,,,,,1,1,17,7,0,6,6,2,,,,,,,,,1,0.6184398209989013,,,005,001,2019_May_07_1410,MusicAffectPsychophysiology2019,3.0.5,58.87756412316055,
To what extent did the music make you feel ,SAD,30MonoWAV/30MonoH4.wav,2,2,1,8,,,,,1,1,17,7,0,7,7,0,,,,,,,,,1,0.5510701409984904,,,005,001,2019_May_07_1410,MusicAffectPsychophysiology2019,3.0.5,58.87756412316055,
To what extent did the music make you feel ,ALERT,30MonoWAV/30MonoH4.wav,2,2,1,8,,,,,1,1,17,7,0,8,8,8,,,,,,,,,4,1.518812517002516,,,005,001,2019_May_07_1410,MusicAffectPsychophysiology2019,3.0.5,58.87756412316055,
To what extent did the music make you feel ,EXCITED,30MonoWAV/30MonoH4.wav,2,2,1,8,,,,,1,1,17,7,0,9,9,7,,,,,,,,,4,1.6016793989983853,,,005,001,2019_May_07_1410,MusicAffectPsychophysiology2019,3.0.5,58.87756412316055,
To what extent did the music make you feel ,FRUSTRATED,30MonoWAV/30MonoH4.wav,2,2,1,8,,,,,1,1,17,7,0,10,10,3,,,,,,,,,1,1.067766219999612,,,005,001,2019_May_07_1410,MusicAffectPsychophysiology2019,3.0.5,58.87756412316055,
To what extent did the music make you feel ,HAPPY,30MonoWAV/30MonoH4.wav,2,2,1,8,,,,,1,1,17,7,0,11,11,6,,,,,,,,,3,1.4849886199990578,,,005,001,2019_May_07_1410,MusicAffectPsychophysiology2019,3.0.5,58.87756412316055,
,,30MonoWAV/30MonoH4.wav,2,2,1,8,,,,,1,1,17,7,,,,,,,,,,,,,,,,,005,001,2019_May_07_1410,MusicAffectPsychophysiology2019,3.0.5,58.87756412316055,
To what extent did the music make you feel ,ANGRY,30MonoWAV/30MonoF2.wav,1,2,2,2,,,,,1,2,18,1,0,0,0,2,,,1,4.119018972000049,1,0.8686040960019454,,,3,1.8504077290017449,,,005,001,2019_May_07_1410,MusicAffectPsychophysiology2019,3.0.5,58.87756412316055,
To what extent did the music make you feel ,ANXIOUS ,30MonoWAV/30MonoF2.wav,1,2,2,2,,,,,1,2,18,1,0,1,1,1,,,,,,,,,5,1.184887935000006,,,005,001,2019_May_07_1410,MusicAffectPsychophysiology2019,3.0.5,58.87756412316055,
To what extent did the music make you feel ,ALERT,30MonoWAV/30MonoF2.wav,1,2,2,2,,,,,1,2,18,1,0,2,2,8,,,,,,,,,5,1.5343745989994204,,,005,001,2019_May_07_1410,MusicAffectPsychophysiology2019,3.0.5,58.87756412316055,
To what extent did the music make you feel ,SCARED,30MonoWAV/30MonoF2.wav,1,2,2,2,,,,,1,2,18,1,0,3,3,11,,,,,,,,,4,1.6522917050024262,,,005,001,2019_May_07_1410,MusicAffectPsychophysiology2019,3.0.5,58.87756412316055,
To what extent did the music make you feel ,SAD,30MonoWAV/30MonoF2.wav,1,2,2,2,,,,,1,2,18,1,0,4,4,0,,,,,,,,,1,1.3677595130029658,,,005,001,2019_May_07_1410,MusicAffectPsychophysiology2019,3.0.5,58.87756412316055,
To what extent did the music make you feel ,ASHAMED,30MonoWAV/30MonoF2.wav,1,2,2,2,,,,,1,2,18,1,0,5,5,4,,,,,,,,,1,0.6533004090015311,,,005,001,2019_May_07_1410,MusicAffectPsychophysiology2019,3.0.5,58.87756412316055,
To what extent did the music make you feel ,EXCITED,30MonoWAV/30MonoF2.wav,1,2,2,2,,,,,1,2,18,1,0,6,6,7,,,,,,,,,1,0.6848333609996189,,,005,001,2019_May_07_1410,MusicAffectPsychophysiology2019,3.0.5,58.87756412316055,
To what extent did the music make you feel ,ACTIVE,30MonoWAV/30MonoF2.wav,1,2,2,2,,,,,1,2,18,1,0,7,7,9,,,,,,,,,1,1.3176678020026884,,,005,001,2019_May_07_1410,MusicAffectPsychophysiology2019,3.0.5,58.87756412316055,
To what extent did the music make you feel ,TENDER,30MonoWAV/30MonoF2.wav,1,2,2,2,,,,,1,2,18,1,0,8,8,10,,,,,,,,,1,0.9847754469992651,,,005,001,2019_May_07_1410,MusicAffectPsychophysiology2019,3.0.5,58.87756412316055,
To what extent did the music make you feel ,FRUSTRATED,30MonoWAV/30MonoF2.wav,1,2,2,2,,,,,1,2,18,1,0,9,9,3,,,,,,,,,1,0.8016957760009973,,,005,001,2019_May_07_1410,MusicAffectPsychophysiology2019,3.0.5,58.87756412316055,
To what extent did the music make you feel ,GUILTY,30MonoWAV/30MonoF2.wav,1,2,2,2,,,,,1,2,18,1,0,10,10,5,,,,,,,,,1,1.818279849998362,,,005,001,2019_May_07_1410,MusicAffectPsychophysiology2019,3.0.5,58.87756412316055,
To what extent did the music make you feel ,HAPPY,30MonoWAV/30MonoF2.wav,1,2,2,2,,,,,1,2,18,1,0,11,11,6,,,,,,,,,1,0.818547644001228,,,005,001,2019_May_07_1410,MusicAffectPsychophysiology2019,3.0.5,58.87756412316055,
,,30MonoWAV/30MonoF2.wav,1,2,2,2,,,,,1,2,18,1,,,,,,,,,,,,,,,,,005,001,2019_May_07_1410,MusicAffectPsychophysiology2019,3.0.5,58.87756412316055,
To what extent did the music make you feel ,EXCITED,30MonoWAV/30MonoH1.wav,2,2,1,5,,,,,1,3,19,4,0,0,0,7,,,2,5.051337026998226,3,1.9526126620003197,,,3,2.417419665001944,,,005,001,2019_May_07_1410,MusicAffectPsychophysiology2019,3.0.5,58.87756412316055,
To what extent did the music make you feel ,FRUSTRATED,30MonoWAV/30MonoH1.wav,2,2,1,5,,,,,1,3,19,4,0,1,1,3,,,,,,,,,1,0.8182063370004471,,,005,001,2019_May_07_1410,MusicAffectPsychophysiology2019,3.0.5,58.87756412316055,
To what extent did the music make you feel ,ANXIOUS ,30MonoWAV/30MonoH1.wav,2,2,1,5,,,,,1,3,19,4,0,2,2,1,,,,,,,,,1,0.8519993250010884,,,005,001,2019_May_07_1410,MusicAffectPsychophysiology2019,3.0.5,58.87756412316055,
To what extent did the music make you feel ,GUILTY,30MonoWAV/30MonoH1.wav,2,2,1,5,,,,,1,3,19,4,0,3,3,5,,,,,,,,,1,0.6017710890009766,,,005,001,2019_May_07_1410,MusicAffectPsychophysiology2019,3.0.5,58.87756412316055,
To what extent did the music make you feel ,ASHAMED,30MonoWAV/30MonoH1.wav,2,2,1,5,,,,,1,3,19,4,0,4,4,4,,,,,,,,,1,0.5509405769989826,,,005,001,2019_May_07_1410,MusicAffectPsychophysiology2019,3.0.5,58.87756412316055,
To what extent did the music make you feel ,SAD,30MonoWAV/30MonoH1.wav,2,2,1,5,,,,,1,3,19,4,0,5,5,0,,,,,,,,,1,0.6023630769996089,,,005,001,2019_May_07_1410,MusicAffectPsychophysiology2019,3.0.5,58.87756412316055,
To what extent did the music make you feel ,SCARED,30MonoWAV/30MonoH1.wav,2,2,1,5,,,,,1,3,19,4,0,6,6,11,,,,,,,,,1,0.7858027199981734,,,005,001,2019_May_07_1410,MusicAffectPsychophysiology2019,3.0.5,58.87756412316055,
To what extent did the music make you feel ,HAPPY,30MonoWAV/30MonoH1.wav,2,2,1,5,,,,,1,3,19,4,0,7,7,6,,,,,,,,,3,1.2680588249968423,,,005,001,2019_May_07_1410,MusicAffectPsychophysiology2019,3.0.5,58.87756412316055,
To what extent did the music make you feel ,ACTIVE,30MonoWAV/30MonoH1.wav,2,2,1,5,,,,,1,3,19,4,0,8,8,9,,,,,,,,,3,1.501198916001158,,,005,001,2019_May_07_1410,MusicAffectPsychophysiology2019,3.0.5,58.87756412316055,
To what extent did the music make you feel ,ANGRY,30MonoWAV/30MonoH1.wav,2,2,1,5,,,,,1,3,19,4,0,9,9,2,,,,,,,,,1,0.9681439969972416,,,005,001,2019_May_07_1410,MusicAffectPsychophysiology2019,3.0.5,58.87756412316055,
To what extent did the music make you feel ,ALERT,30MonoWAV/30MonoH1.wav,2,2,1,5,,,,,1,3,19,4,0,10,10,8,,,,,,,,,2,1.4845009179989574,,,005,001,2019_May_07_1410,MusicAffectPsychophysiology2019,3.0.5,58.87756412316055,
To what extent did the music make you feel ,TENDER,30MonoWAV/30MonoH1.wav,2,2,1,5,,,,,1,3,19,4,0,11,11,10,,,,,,,,,1,0.9845632130018203,,,005,001,2019_May_07_1410,MusicAffectPsychophysiology2019,3.0.5,58.87756412316055,
,,30MonoWAV/30MonoH1.wav,2,2,1,5,,,,,1,3,19,4,,,,,,,,,,,,,,,,,005,001,2019_May_07_1410,MusicAffectPsychophysiology2019,3.0.5,58.87756412316055,
To what extent did the music make you feel ,ALERT,30MonoWAV/30MonoT1.wav,2,1,4,13,,,,,1,4,20,12,0,0,0,8,,,1,4.18448981000256,3,8.315315988998918,,,1,1.36923125300018,,,005,001,2019_May_07_1410,MusicAffectPsychophysiology2019,3.0.5,58.87756412316055,
To what extent did the music make you feel ,ACTIVE,30MonoWAV/30MonoT1.wav,2,1,4,13,,,,,1,4,20,12,0,1,1,9,,,,,,,,,1,0.6178530610013695,,,005,001,2019_May_07_1410,MusicAffectPsychophysiology2019,3.0.5,58.87756412316055,
To what extent did the music make you feel ,GUILTY,30MonoWAV/30MonoT1.wav,2,1,4,13,,,,,1,4,20,12,0,2,2,5,,,,,,,,,1,0.5014071100013098,,,005,001,2019_May_07_1410,MusicAffectPsychophysiology2019,3.0.5,58.87756412316055,
To what extent did the music make you feel ,ANXIOUS ,30MonoWAV/30MonoT1.wav,2,1,4,13,,,,,1,4,20,12,0,3,3,1,,,,,,,,,1,0.6017556480001076,,,005,001,2019_May_07_1410,MusicAffectPsychophysiology2019,3.0.5,58.87756412316055,
To what extent did the music make you feel ,ASHAMED,30MonoWAV/30MonoT1.wav,2,1,4,13,,,,,1,4,20,12,0,4,4,4,,,,,,,,,1,0.8685387630030164,,,005,001,2019_May_07_1410,MusicAffectPsychophysiology2019,3.0.5,58.87756412316055,
To what extent did the music make you feel ,FRUSTRATED,30MonoWAV/30MonoT1.wav,2,1,4,13,,,,,1,4,20,12,0,5,5,3,,,,,,,,,1,0.7169665670007817,,,005,001,2019_May_07_1410,MusicAffectPsychophysiology2019,3.0.5,58.87756412316055,
To what extent did the music make you feel ,TENDER,30MonoWAV/30MonoT1.wav,2,1,4,13,,,,,1,4,20,12,0,6,6,10,,,,,,,,,4,1.9673293970008672,,,005,001,2019_May_07_1410,MusicAffectPsychophysiology2019,3.0.5,58.87756412316055,
To what extent did the music make you feel ,ANGRY,30MonoWAV/30MonoT1.wav,2,1,4,13,,,,,1,4,20,12,0,7,7,2,,,,,,,,,1,0.9354561740001373,,,005,001,2019_May_07_1410,MusicAffectPsychophysiology2019,3.0.5,58.87756412316055,
To what extent did the music make you feel ,SCARED,30MonoWAV/30MonoT1.wav,2,1,4,13,,,,,1,4,20,12,0,8,8,11,,,,,,,,,1,0.5684766470003524,,,005,001,2019_May_07_1410,MusicAffectPsychophysiology2019,3.0.5,58.87756412316055,
To what extent did the music make you feel ,SAD,30MonoWAV/30MonoT1.wav,2,1,4,13,,,,,1,4,20,12,0,9,9,0,,,,,,,,,1,0.6519274900019809,,,005,001,2019_May_07_1410,MusicAffectPsychophysiology2019,3.0.5,58.87756412316055,
To what extent did the music make you feel ,HAPPY,30MonoWAV/30MonoT1.wav,2,1,4,13,,,,,1,4,20,12,0,10,10,6,,,,,,,,,3,1.2679585539990512,,,005,001,2019_May_07_1410,MusicAffectPsychophysiology2019,3.0.5,58.87756412316055,
To what extent did the music make you feel ,EXCITED,30MonoWAV/30MonoT1.wav,2,1,4,13,,,,,1,4,20,12,0,11,11,7,,,,,,,,,1,1.284949904998939,,,005,001,2019_May_07_1410,MusicAffectPsychophysiology2019,3.0.5,58.87756412316055,
,,30MonoWAV/30MonoT1.wav,2,1,4,13,,,,,1,4,20,12,,,,,,,,,,,,,,,,,005,001,2019_May_07_1410,MusicAffectPsychophysiology2019,3.0.5,58.87756412316055,
To what extent did the music make you feel ,ALERT,30MonoWAV/30MonoS2.wav,1,1,3,10,,,,,1,5,21,9,0,0,0,8,,,1,2.925097289000405,1,0.6842900509982428,,,1,1.0340706950009917,,,005,001,2019_May_07_1410,MusicAffectPsychophysiology2019,3.0.5,58.87756412316055,
To what extent did the music make you feel ,FRUSTRATED,30MonoWAV/30MonoS2.wav,1,1,3,10,,,,,1,5,21,9,0,1,1,3,,,,,,,,,1,0.9024044879988651,,,005,001,2019_May_07_1410,MusicAffectPsychophysiology2019,3.0.5,58.87756412316055,
To what extent did the music make you feel ,EXCITED,30MonoWAV/30MonoS2.wav,1,1,3,10,,,,,1,5,21,9,0,2,2,7,,,,,,,,,1,0.5854808060030336,,,005,001,2019_May_07_1410,MusicAffectPsychophysiology2019,3.0.5,58.87756412316055,
To what extent did the music make you feel ,TENDER,30MonoWAV/30MonoS2.wav,1,1,3,10,,,,,1,5,21,9,0,3,3,10,,,,,,,,,4,1.4189253139993525,,,005,001,2019_May_07_1410,MusicAffectPsychophysiology2019,3.0.5,58.87756412316055,
To what extent did the music make you feel ,GUILTY,30MonoWAV/30MonoS2.wav,1,1,3,10,,,,,1,5,21,9,0,4,4,5,,,,,,,,,3,2.0174100490003184,,,005,001,2019_May_07_1410,MusicAffectPsychophysiology2019,3.0.5,58.87756412316055,
To what extent did the music make you feel ,ACTIVE,30MonoWAV/30MonoS2.wav,1,1,3,10,,,,,1,5,21,9,0,5,5,9,,,,,,,,,1,1.1019788829980826,,,005,001,2019_May_07_1410,MusicAffectPsychophysiology2019,3.0.5,58.87756412316055,
To what extent did the music make you feel ,ASHAMED,30MonoWAV/30MonoS2.wav,1,1,3,10,,,,,1,5,21,9,0,6,6,4,,,,,,,,,4,1.1682414329989115,,,005,001,2019_May_07_1410,MusicAffectPsychophysiology2019,3.0.5,58.87756412316055,
To what extent did the music make you feel ,SAD,30MonoWAV/30MonoS2.wav,1,1,3,10,,,,,1,5,21,9,0,7,7,0,,,,,,,,,5,1.2013976509988424,,,005,001,2019_May_07_1410,MusicAffectPsychophysiology2019,3.0.5,58.87756412316055,
To what extent did the music make you feel ,ANXIOUS ,30MonoWAV/30MonoS2.wav,1,1,3,10,,,,,1,5,21,9,0,8,8,1,,,,,,,,,1,0.9180413600006432,,,005,001,2019_May_07_1410,MusicAffectPsychophysiology2019,3.0.5,58.87756412316055,
To what extent did the music make you feel ,ANGRY,30MonoWAV/30MonoS2.wav,1,1,3,10,,,,,1,5,21,9,0,9,9,2,,,,,,,,,1,0.5855894930027716,,,005,001,2019_May_07_1410,MusicAffectPsychophysiology2019,3.0.5,58.87756412316055,
To what extent did the music make you feel ,HAPPY,30MonoWAV/30MonoS2.wav,1,1,3,10,,,,,1,5,21,9,0,10,10,6,,,,,,,,,1,0.5853581369992753,,,005,001,2019_May_07_1410,MusicAffectPsychophysiology2019,3.0.5,58.87756412316055,
To what extent did the music make you feel ,SCARED,30MonoWAV/30MonoS2.wav,1,1,3,10,,,,,1,5,21,9,0,11,11,11,,,,,,,,,1,1.3522352559994033,,,005,001,2019_May_07_1410,MusicAffectPsychophysiology2019,3.0.5,58.87756412316055,
,,30MonoWAV/30MonoS2.wav,1,1,3,10,,,,,1,5,21,9,,,,,,,,,,,,,,,,,005,001,2019_May_07_1410,MusicAffectPsychophysiology2019,3.0.5,58.87756412316055,
To what extent did the music make you feel ,EXCITED,30MonoWAV/30MonoF1.wav,1,2,2,1,,,,,1,6,22,0,0,0,0,7,,,4,3.0350141570015694,1,1.149751078999543,,,2,1.983914268999797,,,005,001,2019_May_07_1410,MusicAffectPsychophysiology2019,3.0.5,58.87756412316055,
To what extent did the music make you feel ,ACTIVE,30MonoWAV/30MonoF1.wav,1,2,2,1,,,,,1,6,22,0,0,1,1,9,,,,,,,,,4,1.2675276520021725,,,005,001,2019_May_07_1410,MusicAffectPsychophysiology2019,3.0.5,58.87756412316055,
To what extent did the music make you feel ,SCARED,30MonoWAV/30MonoF1.wav,1,2,2,1,,,,,1,6,22,0,0,2,2,11,,,,,,,,,4,2.135422096998809,,,005,001,2019_May_07_1410,MusicAffectPsychophysiology2019,3.0.5,58.87756412316055,
To what extent did the music make you feel ,TENDER,30MonoWAV/30MonoF1.wav,1,2,2,1,,,,,1,6,22,0,0,3,3,10,,,,,,,,,1,1.1352521890003118,,,005,001,2019_May_07_1410,MusicAffectPsychophysiology2019,3.0.5,58.87756412316055,
To what extent did the music make you feel ,HAPPY,30MonoWAV/30MonoF1.wav,1,2,2,1,,,,,1,6,22,0,0,4,4,6,,,,,,,,,1,0.6023501990021032,,,005,001,2019_May_07_1410,MusicAffectPsychophysiology2019,3.0.5,58.87756412316055,
To what extent did the music make you feel ,ANXIOUS ,30MonoWAV/30MonoF1.wav,1,2,2,1,,,,,1,6,22,0,0,5,5,1,,,,,,,,,4,1.7686893309983134,,,005,001,2019_May_07_1410,MusicAffectPsychophysiology2019,3.0.5,58.87756412316055,
To what extent did the music make you feel ,ANGRY,30MonoWAV/30MonoF1.wav,1,2,2,1,,,,,1,6,22,0,0,6,6,2,,,,,,,,,4,1.6685007470005075,,,005,001,2019_May_07_1410,MusicAffectPsychophysiology2019,3.0.5,58.87756412316055,
To what extent did the music make you feel ,ASHAMED,30MonoWAV/30MonoF1.wav,1,2,2,1,,,,,1,6,22,0,0,7,7,4,,,,,,,,,1,0.933324479003204,,,005,001,2019_May_07_1410,MusicAffectPsychophysiology2019,3.0.5,58.87756412316055,
To what extent did the music make you feel ,GUILTY,30MonoWAV/30MonoF1.wav,1,2,2,1,,,,,1,6,22,0,0,8,8,5,,,,,,,,,1,0.8681038700015051,,,005,001,2019_May_07_1410,MusicAffectPsychophysiology2019,3.0.5,58.87756412316055,
To what extent did the music make you feel ,SAD,30MonoWAV/30MonoF1.wav,1,2,2,1,,,,,1,6,22,0,0,9,9,0,,,,,,,,,1,0.6183289959990361,,,005,001,2019_May_07_1410,MusicAffectPsychophysiology2019,3.0.5,58.87756412316055,
To what extent did the music make you feel ,ALERT,30MonoWAV/30MonoF1.wav,1,2,2,1,,,,,1,6,22,0,0,10,10,8,,,,,,,,,5,1.4348772699995607,,,005,001,2019_May_07_1410,MusicAffectPsychophysiology2019,3.0.5,58.87756412316055,
To what extent did the music make you feel ,FRUSTRATED,30MonoWAV/30MonoF1.wav,1,2,2,1,,,,,1,6,22,0,0,11,11,3,,,,,,,,,2,2.033654569000646,,,005,001,2019_May_07_1410,MusicAffectPsychophysiology2019,3.0.5,58.87756412316055,
,,30MonoWAV/30MonoF1.wav,1,2,2,1,,,,,1,6,22,0,,,,,,,,,,,,,,,,,005,001,2019_May_07_1410,MusicAffectPsychophysiology2019,3.0.5,58.87756412316055,
To what extent did the music make you feel ,FRUSTRATED,30MonoWAV/30MonoT4.wav,2,1,4,16,,,,,1,7,23,15,0,0,0,3,,,4,2.968616149999434,4,0.968968410998059,,,1,1.1674637970027106,,,005,001,2019_May_07_1410,MusicAffectPsychophysiology2019,3.0.5,58.87756412316055,
To what extent did the music make you feel ,ALERT,30MonoWAV/30MonoT4.wav,2,1,4,16,,,,,1,7,23,15,0,1,1,8,,,,,,,,,1,0.8020598859984602,,,005,001,2019_May_07_1410,MusicAffectPsychophysiology2019,3.0.5,58.87756412316055,
To what extent did the music make you feel ,GUILTY,30MonoWAV/30MonoT4.wav,2,1,4,16,,,,,1,7,23,15,0,2,2,5,,,,,,,,,1,1.0847852270017029,,,005,001,2019_May_07_1410,MusicAffectPsychophysiology2019,3.0.5,58.87756412316055,
To what extent did the music make you feel ,SAD,30MonoWAV/30MonoT4.wav,2,1,4,16,,,,,1,7,23,15,0,3,3,0,,,,,,,,,1,0.6352870430018811,,,005,001,2019_May_07_1410,MusicAffectPsychophysiology2019,3.0.5,58.87756412316055,
To what extent did the music make you feel ,ANXIOUS ,30MonoWAV/30MonoT4.wav,2,1,4,16,,,,,1,7,23,15,0,4,4,1,,,,,,,,,1,1.7183496859979641,,,005,001,2019_May_07_1410,MusicAffectPsychophysiology2019,3.0.5,58.87756412316055,
To what extent did the music make you feel ,ASHAMED,30MonoWAV/30MonoT4.wav,2,1,4,16,,,,,1,7,23,15,0,5,5,4,,,,,,,,,1,0.8665102719969582,,,005,001,2019_May_07_1410,MusicAffectPsychophysiology2019,3.0.5,58.87756412316055,
To what extent did the music make you feel ,HAPPY,30MonoWAV/30MonoT4.wav,2,1,4,16,,,,,1,7,23,15,0,6,6,6,,,,,,,,,4,1.6673717199992097,,,005,001,2019_May_07_1410,MusicAffectPsychophysiology2019,3.0.5,58.87756412316055,
To what extent did the music make you feel ,ACTIVE,30MonoWAV/30MonoT4.wav,2,1,4,16,,,,,1,7,23,15,0,7,7,9,,,,,,,,,1,1.0017449959996156,,,005,001,2019_May_07_1410,MusicAffectPsychophysiology2019,3.0.5,58.87756412316055,
To what extent did the music make you feel ,EXCITED,30MonoWAV/30MonoT4.wav,2,1,4,16,,,,,1,7,23,15,0,8,8,7,,,,,,,,,2,2.452780404997611,,,005,001,2019_May_07_1410,MusicAffectPsychophysiology2019,3.0.5,58.87756412316055,
To what extent did the music make you feel ,TENDER,30MonoWAV/30MonoT4.wav,2,1,4,16,,,,,1,7,23,15,0,9,9,10,,,,,,,,,5,1.2845299879991217,,,005,001,2019_May_07_1410,MusicAffectPsychophysiology2019,3.0.5,58.87756412316055,
To what extent did the music make you feel ,SCARED,30MonoWAV/30MonoT4.wav,2,1,4,16,,,,,1,7,23,15,0,10,10,11,,,,,,,,,1,0.9693808800002444,,,005,001,2019_May_07_1410,MusicAffectPsychophysiology2019,3.0.5,58.87756412316055,
To what extent did the music make you feel ,ANGRY,30MonoWAV/30MonoT4.wav,2,1,4,16,,,,,1,7,23,15,0,11,11,2,,,,,,,,,1,0.6014007689991558,,,005,001,2019_May_07_1410,MusicAffectPsychophysiology2019,3.0.5,58.87756412316055,
,,30MonoWAV/30MonoT4.wav,2,1,4,16,,,,,1,7,23,15,,,,,,,,,,,,,,,,,005,001,2019_May_07_1410,MusicAffectPsychophysiology2019,3.0.5,58.87756412316055,
To what extent did the music make you feel ,SCARED,30MonoWAV/30MonoH3.wav,2,2,1,7,,,,,1,8,24,6,0,0,0,11,,,4,2.3852911350004433,4,1.0017598619997443,,,1,1.2550328859979345,,,005,001,2019_May_07_1410,MusicAffectPsychophysiology2019,3.0.5,58.87756412316055,
To what extent did the music make you feel ,SAD,30MonoWAV/30MonoH3.wav,2,2,1,7,,,,,1,8,24,6,0,1,1,0,,,,,,,,,1,0.6519468709993816,,,005,001,2019_May_07_1410,MusicAffectPsychophysiology2019,3.0.5,58.87756412316055,
To what extent did the music make you feel ,HAPPY,30MonoWAV/30MonoH3.wav,2,2,1,7,,,,,1,8,24,6,0,2,2,6,,,,,,,,,4,1.06771903200206,,,005,001,2019_May_07_1410,MusicAffectPsychophysiology2019,3.0.5,58.87756412316055,
To what extent did the music make you feel ,TENDER,30MonoWAV/30MonoH3.wav,2,2,1,7,,,,,1,8,24,6,0,3,3,10,,,,,,,,,1,1.1507903740020993,,,005,001,2019_May_07_1410,MusicAffectPsychophysiology2019,3.0.5,58.87756412316055,
To what extent did the music make you feel ,FRUSTRATED,30MonoWAV/30MonoH3.wav,2,2,1,7,,,,,1,8,24,6,0,4,4,3,,,,,,,,,1,0.6187341139993805,,,005,001,2019_May_07_1410,MusicAffectPsychophysiology2019,3.0.5,58.87756412316055,
To what extent did the music make you feel ,EXCITED,30MonoWAV/30MonoH3.wav,2,2,1,7,,,,,1,8,24,6,0,5,5,7,,,,,,,,,5,1.4854392829984135,,,005,001,2019_May_07_1410,MusicAffectPsychophysiology2019,3.0.5,58.87756412316055,
To what extent did the music make you feel ,ALERT,30MonoWAV/30MonoH3.wav,2,2,1,7,,,,,1,8,24,6,0,6,6,8,,,,,,,,,4,1.1351798270006839,,,005,001,2019_May_07_1410,MusicAffectPsychophysiology2019,3.0.5,58.87756412316055,
To what extent did the music make you feel ,ASHAMED,30MonoWAV/30MonoH3.wav,2,2,1,7,,,,,1,8,24,6,0,7,7,4,,,,,,,,,1,1.0184044939996966,,,005,001,2019_May_07_1410,MusicAffectPsychophysiology2019,3.0.5,58.87756412316055,
To what extent did the music make you feel ,ANGRY,30MonoWAV/30MonoH3.wav,2,2,1,7,,,,,1,8,24,6,0,8,8,2,,,,,,,,,1,0.55222171800051,,,005,001,2019_May_07_1410,MusicAffectPsychophysiology2019,3.0.5,58.87756412316055,
To what extent did the music make you feel ,GUILTY,30MonoWAV/30MonoH3.wav,2,2,1,7,,,,,1,8,24,6,0,9,9,5,,,,,,,,,1,0.7842044249991886,,,005,001,2019_May_07_1410,MusicAffectPsychophysiology2019,3.0.5,58.87756412316055,
To what extent did the music make you feel ,ACTIVE,30MonoWAV/30MonoH3.wav,2,2,1,7,,,,,1,8,24,6,0,10,10,9,,,,,,,,,3,1.2691158280031232,,,005,001,2019_May_07_1410,MusicAffectPsychophysiology2019,3.0.5,58.87756412316055,
To what extent did the music make you feel ,ANXIOUS ,30MonoWAV/30MonoH3.wav,2,2,1,7,,,,,1,8,24,6,0,11,11,1,,,,,,,,,1,1.0015983690027497,,,005,001,2019_May_07_1410,MusicAffectPsychophysiology2019,3.0.5,58.87756412316055,
,,30MonoWAV/30MonoH3.wav,2,2,1,7,,,,,1,8,24,6,,,,,,,,,,,,,,,,,005,001,2019_May_07_1410,MusicAffectPsychophysiology2019,3.0.5,58.87756412316055,
To what extent did the music make you feel ,ALERT,30MonoWAV/30MonoH2.wav,2,2,1,6,,,,,1,9,25,5,0,0,0,8,,,4,2.769445606001682,5,1.273633406002773,,,3,1.6640122050011996,,,005,001,2019_May_07_1410,MusicAffectPsychophysiology2019,3.0.5,58.87756412316055,
To what extent did the music make you feel ,ANXIOUS ,30MonoWAV/30MonoH2.wav,2,2,1,6,,,,,1,9,25,5,0,1,1,1,,,,,,,,,1,1.0191038730008586,,,005,001,2019_May_07_1410,MusicAffectPsychophysiology2019,3.0.5,58.87756412316055,
To what extent did the music make you feel ,GUILTY,30MonoWAV/30MonoH2.wav,2,2,1,6,,,,,1,9,25,5,0,2,2,5,,,,,,,,,1,0.6515904939988104,,,005,001,2019_May_07_1410,MusicAffectPsychophysiology2019,3.0.5,58.87756412316055,
To what extent did the music make you feel ,ASHAMED,30MonoWAV/30MonoH2.wav,2,2,1,6,,,,,1,9,25,5,0,3,3,4,,,,,,,,,1,0.6183010140011902,,,005,001,2019_May_07_1410,MusicAffectPsychophysiology2019,3.0.5,58.87756412316055,
To what extent did the music make you feel ,FRUSTRATED,30MonoWAV/30MonoH2.wav,2,2,1,6,,,,,1,9,25,5,0,4,4,3,,,,,,,,,1,0.751469631002692,,,005,001,2019_May_07_1410,MusicAffectPsychophysiology2019,3.0.5,58.87756412316055,
To what extent did the music make you feel ,SCARED,30MonoWAV/30MonoH2.wav,2,2,1,6,,,,,1,9,25,5,0,5,5,11,,,,,,,,,1,0.5337731489998987,,,005,001,2019_May_07_1410,MusicAffectPsychophysiology2019,3.0.5,58.87756412316055,
To what extent did the music make you feel ,HAPPY,30MonoWAV/30MonoH2.wav,2,2,1,6,,,,,1,9,25,5,0,6,6,6,,,,,,,,,3,1.6851786309998715,,,005,001,2019_May_07_1410,MusicAffectPsychophysiology2019,3.0.5,58.87756412316055,
To what extent did the music make you feel ,SAD,30MonoWAV/30MonoH2.wav,2,2,1,6,,,,,1,9,25,5,0,7,7,0,,,,,,,,,1,1.732857397000771,,,005,001,2019_May_07_1410,MusicAffectPsychophysiology2019,3.0.5,58.87756412316055,
To what extent did the music make you feel ,ANGRY,30MonoWAV/30MonoH2.wav,2,2,1,6,,,,,1,9,25,5,0,8,8,2,,,,,,,,,1,0.9509711909995531,,,005,001,2019_May_07_1410,MusicAffectPsychophysiology2019,3.0.5,58.87756412316055,
To what extent did the music make you feel ,ACTIVE,30MonoWAV/30MonoH2.wav,2,2,1,6,,,,,1,9,25,5,0,9,9,9,,,,,,,,,3,1.301315198001248,,,005,001,2019_May_07_1410,MusicAffectPsychophysiology2019,3.0.5,58.87756412316055,
To what extent did the music make you feel ,EXCITED,30MonoWAV/30MonoH2.wav,2,2,1,6,,,,,1,9,25,5,0,10,10,7,,,,,,,,,4,1.5347634760000801,,,005,001,2019_May_07_1410,MusicAffectPsychophysiology2019,3.0.5,58.87756412316055,
To what extent did the music make you feel ,TENDER,30MonoWAV/30MonoH2.wav,2,2,1,6,,,,,1,9,25,5,0,11,11,10,,,,,,,,,2,3.535564694000641,,,005,001,2019_May_07_1410,MusicAffectPsychophysiology2019,3.0.5,58.87756412316055,
,,30MonoWAV/30MonoH2.wav,2,2,1,6,,,,,1,9,25,5,,,,,,,,,,,,,,,,,005,001,2019_May_07_1410,MusicAffectPsychophysiology2019,3.0.5,58.87756412316055,
To what extent did the music make you feel ,EXCITED,30MonoWAV/30MonoF3.wav,1,2,2,3,,,,,1,10,26,2,0,0,0,7,,,3,3.554419046999101,2,4.3736414539998805,,,1,1.887259012000868,,,005,001,2019_May_07_1410,MusicAffectPsychophysiology2019,3.0.5,58.87756412316055,
To what extent did the music make you feel ,FRUSTRATED,30MonoWAV/30MonoF3.wav,1,2,2,3,,,,,1,10,26,2,0,1,1,3,,,,,,,,,2,1.8705663159998949,,,005,001,2019_May_07_1410,MusicAffectPsychophysiology2019,3.0.5,58.87756412316055,
To what extent did the music make you feel ,TENDER,30MonoWAV/30MonoF3.wav,1,2,2,3,,,,,1,10,26,2,0,2,2,10,,,,,,,,,1,0.98735143399972,,,005,001,2019_May_07_1410,MusicAffectPsychophysiology2019,3.0.5,58.87756412316055,
To what extent did the music make you feel ,ANXIOUS ,30MonoWAV/30MonoF3.wav,1,2,2,3,,,,,1,10,26,2,0,3,3,1,,,,,,,,,3,2.1396883220004383,,,005,001,2019_May_07_1410,MusicAffectPsychophysiology2019,3.0.5,58.87756412316055,
To what extent did the music make you feel ,ALERT,30MonoWAV/30MonoF3.wav,1,2,2,3,,,,,1,10,26,2,0,4,4,8,,,,,,,,,4,2.91825757100014,,,005,001,2019_May_07_1410,MusicAffectPsychophysiology2019,3.0.5,58.87756412316055,
To what extent did the music make you feel ,ASHAMED,30MonoWAV/30MonoF3.wav,1,2,2,3,,,,,1,10,26,2,0,5,5,4,,,,,,,,,1,0.902183538000827,,,005,001,2019_May_07_1410,MusicAffectPsychophysiology2019,3.0.5,58.87756412316055,
To what extent did the music make you feel ,GUILTY,30MonoWAV/30MonoF3.wav,1,2,2,3,,,,,1,10,26,2,0,6,6,5,,,,,,,,,1,0.8182742870012589,,,005,001,2019_May_07_1410,MusicAffectPsychophysiology2019,3.0.5,58.87756412316055,
To what extent did the music make you feel ,SAD,30MonoWAV/30MonoF3.wav,1,2,2,3,,,,,1,10,26,2,0,7,7,0,,,,,,,,,1,0.9228868639984285,,,005,001,2019_May_07_1410,MusicAffectPsychophysiology2019,3.0.5,58.87756412316055,
To what extent did the music make you feel ,HAPPY,30MonoWAV/30MonoF3.wav,1,2,2,3,,,,,1,10,26,2,0,8,8,6,,,,,,,,,1,1.435065644000133,,,005,001,2019_May_07_1410,MusicAffectPsychophysiology2019,3.0.5,58.87756412316055,
To what extent did the music make you feel ,SCARED,30MonoWAV/30MonoF3.wav,1,2,2,3,,,,,1,10,26,2,0,9,9,11,,,,,,,,,3,1.3510768659980386,,,005,001,2019_May_07_1410,MusicAffectPsychophysiology2019,3.0.5,58.87756412316055,
To what extent did the music make you feel ,ACTIVE,30MonoWAV/30MonoF3.wav,1,2,2,3,,,,,1,10,26,2,0,10,10,9,,,,,,,,,2,2.2049389610001526,,,005,001,2019_May_07_1410,MusicAffectPsychophysiology2019,3.0.5,58.87756412316055,
To what extent did the music make you feel ,ANGRY,30MonoWAV/30MonoF3.wav,1,2,2,3,,,,,1,10,26,2,0,11,11,2,,,,,,,,,2,2.0742141570008243,,,005,001,2019_May_07_1410,MusicAffectPsychophysiology2019,3.0.5,58.87756412316055,
,,30MonoWAV/30MonoF3.wav,1,2,2,3,,,,,1,10,26,2,,,,,,,,,,,,,,,,,005,001,2019_May_07_1410,MusicAffectPsychophysiology2019,3.0.5,58.87756412316055,
To what extent did the music make you feel ,FRUSTRATED,30MonoWAV/30MonoT3.wav,2,1,4,15,,,,,1,11,27,14,0,0,0,3,,,2,3.768854742000258,4,1.4011760530011088,,,1,1.4446117769984994,,,005,001,2019_May_07_1410,MusicAffectPsychophysiology2019,3.0.5,58.87756412316055,
To what extent did the music make you feel ,HAPPY,30MonoWAV/30MonoT3.wav,2,1,4,15,,,,,1,11,27,14,0,1,1,6,,,,,,,,,4,1.5347201129989116,,,005,001,2019_May_07_1410,MusicAffectPsychophysiology2019,3.0.5,58.87756412316055,
To what extent did the music make you feel ,ALERT,30MonoWAV/30MonoT3.wav,2,1,4,15,,,,,1,11,27,14,0,2,2,8,,,,,,,,,1,1.1676686869977857,,,005,001,2019_May_07_1410,MusicAffectPsychophysiology2019,3.0.5,58.87756412316055,
To what extent did the music make you feel ,ASHAMED,30MonoWAV/30MonoT3.wav,2,1,4,15,,,,,1,11,27,14,0,3,3,4,,,,,,,,,1,0.7004885370006377,,,005,001,2019_May_07_1410,MusicAffectPsychophysiology2019,3.0.5,58.87756412316055,
To what extent did the music make you feel ,EXCITED,30MonoWAV/30MonoT3.wav,2,1,4,15,,,,,1,11,27,14,0,4,4,7,,,,,,,,,2,1.7183445910013688,,,005,001,2019_May_07_1410,MusicAffectPsychophysiology2019,3.0.5,58.87756412316055,
To what extent did the music make you feel ,GUILTY,30MonoWAV/30MonoT3.wav,2,1,4,15,,,,,1,11,27,14,0,5,5,5,,,,,,,,,1,0.6517995020003582,,,005,001,2019_May_07_1410,MusicAffectPsychophysiology2019,3.0.5,58.87756412316055,
To what extent did the music make you feel ,ANXIOUS ,30MonoWAV/30MonoT3.wav,2,1,4,15,,,,,1,11,27,14,0,6,6,1,,,,,,,,,1,1.25208087899955,,,005,001,2019_May_07_1410,MusicAffectPsychophysiology2019,3.0.5,58.87756412316055,
To what extent did the music make you feel ,ACTIVE,30MonoWAV/30MonoT3.wav,2,1,4,15,,,,,1,11,27,14,0,7,7,9,,,,,,,,,2,2.8013153600004443,,,005,001,2019_May_07_1410,MusicAffectPsychophysiology2019,3.0.5,58.87756412316055,
To what extent did the music make you feel ,TENDER,30MonoWAV/30MonoT3.wav,2,1,4,15,,,,,1,11,27,14,0,8,8,10,,,,,,,,,3,1.2518841640012397,,,005,001,2019_May_07_1410,MusicAffectPsychophysiology2019,3.0.5,58.87756412316055,
To what extent did the music make you feel ,SAD,30MonoWAV/30MonoT3.wav,2,1,4,15,,,,,1,11,27,14,0,9,9,0,,,,,,,,,2,1.9021816900021804,,,005,001,2019_May_07_1410,MusicAffectPsychophysiology2019,3.0.5,58.87756412316055,
To what extent did the music make you feel ,SCARED,30MonoWAV/30MonoT3.wav,2,1,4,15,,,,,1,11,27,14,0,10,10,11,,,,,,,,,1,1.0016170059971046,,,005,001,2019_May_07_1410,MusicAffectPsychophysiology2019,3.0.5,58.87756412316055,
To what extent did the music make you feel ,ANGRY,30MonoWAV/30MonoT3.wav,2,1,4,15,,,,,1,11,27,14,0,11,11,2,,,,,,,,,1,0.9513491300021997,,,005,001,2019_May_07_1410,MusicAffectPsychophysiology2019,3.0.5,58.87756412316055,
,,30MonoWAV/30MonoT3.wav,2,1,4,15,,,,,1,11,27,14,,,,,,,,,,,,,,,,,005,001,2019_May_07_1410,MusicAffectPsychophysiology2019,3.0.5,58.87756412316055,
To what extent did the music make you feel ,SCARED,30MonoWAV/30MonoS1.wav,1,1,3,9,,,,,1,12,28,8,0,0,0,11,,,3,3.8029956179998408,1,1.518729836003331,,,1,1.9844581289980852,,,005,001,2019_May_07_1410,MusicAffectPsychophysiology2019,3.0.5,58.87756412316055,
To what extent did the music make you feel ,SAD,30MonoWAV/30MonoS1.wav,1,1,3,9,,,,,1,12,28,8,0,1,1,0,,,,,,,,,5,1.4174927390013181,,,005,001,2019_May_07_1410,MusicAffectPsychophysiology2019,3.0.5,58.87756412316055,
To what extent did the music make you feel ,HAPPY,30MonoWAV/30MonoS1.wav,1,1,3,9,,,,,1,12,28,8,0,2,2,6,,,,,,,,,1,0.9839343189996725,,,005,001,2019_May_07_1410,MusicAffectPsychophysiology2019,3.0.5,58.87756412316055,
To what extent did the music make you feel ,ANXIOUS ,30MonoWAV/30MonoS1.wav,1,1,3,9,,,,,1,12,28,8,0,3,3,1,,,,,,,,,1,1.0018748850015982,,,005,001,2019_May_07_1410,MusicAffectPsychophysiology2019,3.0.5,58.87756412316055,
To what extent did the music make you feel ,GUILTY,30MonoWAV/30MonoS1.wav,1,1,3,9,,,,,1,12,28,8,0,4,4,5,,,,,,,,,3,2.46886488599921,,,005,001,2019_May_07_1410,MusicAffectPsychophysiology2019,3.0.5,58.87756412316055,
To what extent did the music make you feel ,ANGRY,30MonoWAV/30MonoS1.wav,1,1,3,9,,,,,1,12,28,8,0,5,5,2,,,,,,,,,1,4.167449207001482,,,005,001,2019_May_07_1410,MusicAffectPsychophysiology2019,3.0.5,58.87756412316055,
To what extent did the music make you feel ,FRUSTRATED,30MonoWAV/30MonoS1.wav,1,1,3,9,,,,,1,12,28,8,0,6,6,3,,,,,,,,,1,1.251331522998953,,,005,001,2019_May_07_1410,MusicAffectPsychophysiology2019,3.0.5,58.87756412316055,
To what extent did the music make you feel ,EXCITED,30MonoWAV/30MonoS1.wav,1,1,3,9,,,,,1,12,28,8,0,7,7,7,,,,,,,,,1,0.8347512009968341,,,005,001,2019_May_07_1410,MusicAffectPsychophysiology2019,3.0.5,58.87756412316055,
To what extent did the music make you feel ,ALERT,30MonoWAV/30MonoS1.wav,1,1,3,9,,,,,1,12,28,8,0,8,8,8,,,,,,,,,1,1.017798289998609,,,005,001,2019_May_07_1410,MusicAffectPsychophysiology2019,3.0.5,58.87756412316055,
To what extent did the music make you feel ,ACTIVE,30MonoWAV/30MonoS1.wav,1,1,3,9,,,,,1,12,28,8,0,9,9,9,,,,,,,,,1,2.201686961998348,,,005,001,2019_May_07_1410,MusicAffectPsychophysiology2019,3.0.5,58.87756412316055,
To what extent did the music make you feel ,TENDER,30MonoWAV/30MonoS1.wav,1,1,3,9,,,,,1,12,28,8,0,10,10,10,,,,,,,,,4,1.8843413569993572,,,005,001,2019_May_07_1410,MusicAffectPsychophysiology2019,3.0.5,58.87756412316055,
To what extent did the music make you feel ,ASHAMED,30MonoWAV/30MonoS1.wav,1,1,3,9,,,,,1,12,28,8,0,11,11,4,,,,,,,,,2,2.150132713999483,,,005,001,2019_May_07_1410,MusicAffectPsychophysiology2019,3.0.5,58.87756412316055,
,,30MonoWAV/30MonoS1.wav,1,1,3,9,,,,,1,12,28,8,,,,,,,,,,,,,,,,,005,001,2019_May_07_1410,MusicAffectPsychophysiology2019,3.0.5,58.87756412316055,
To what extent did the music make you feel ,FRUSTRATED,30MonoWAV/30MonoF4.wav,1,2,2,4,,,,,1,13,29,3,0,0,0,3,,,5,3.917992956001399,1,1.50104235300023,,,3,1.6847291180019965,,,005,001,2019_May_07_1410,MusicAffectPsychophysiology2019,3.0.5,58.87756412316055,
To what extent did the music make you feel ,ASHAMED,30MonoWAV/30MonoF4.wav,1,2,2,4,,,,,1,13,29,3,0,1,1,4,,,,,,,,,1,1.3350582239982032,,,005,001,2019_May_07_1410,MusicAffectPsychophysiology2019,3.0.5,58.87756412316055,
To what extent did the music make you feel ,ANXIOUS ,30MonoWAV/30MonoF4.wav,1,2,2,4,,,,,1,13,29,3,0,2,2,1,,,,,,,,,4,1.1838790500005416,,,005,001,2019_May_07_1410,MusicAffectPsychophysiology2019,3.0.5,58.87756412316055,
To what extent did the music make you feel ,SAD,30MonoWAV/30MonoF4.wav,1,2,2,4,,,,,1,13,29,3,0,3,3,0,,,,,,,,,1,0.9359153599980345,,,005,001,2019_May_07_1410,MusicAffectPsychophysiology2019,3.0.5,58.87756412316055,
To what extent did the music make you feel ,GUILTY,30MonoWAV/30MonoF4.wav,1,2,2,4,,,,,1,13,29,3,0,4,4,5,,,,,,,,,1,1.219241355000122,,,005,001,2019_May_07_1410,MusicAffectPsychophysiology2019,3.0.5,58.87756412316055,
To what extent did the music make you feel ,ANGRY,30MonoWAV/30MonoF4.wav,1,2,2,4,,,,,1,13,29,3,0,5,5,2,,,,,,,,,2,1.4351105880014075,,,005,001,2019_May_07_1410,MusicAffectPsychophysiology2019,3.0.5,58.87756412316055,
To what extent did the music make you feel ,HAPPY,30MonoWAV/30MonoF4.wav,1,2,2,4,,,,,1,13,29,3,0,6,6,6,,,,,,,,,1,1.5170751080004266,,,005,001,2019_May_07_1410,MusicAffectPsychophysiology2019,3.0.5,58.87756412316055,
To what extent did the music make you feel ,SCARED,30MonoWAV/30MonoF4.wav,1,2,2,4,,,,,1,13,29,3,0,7,7,11,,,,,,,,,4,1.352667700000893,,,005,001,2019_May_07_1410,MusicAffectPsychophysiology2019,3.0.5,58.87756412316055,
To what extent did the music make you feel ,TENDER,30MonoWAV/30MonoF4.wav,1,2,2,4,,,,,1,13,29,3,0,8,8,10,,,,,,,,,1,1.051511320998543,,,005,001,2019_May_07_1410,MusicAffectPsychophysiology2019,3.0.5,58.87756412316055,
To what extent did the music make you feel ,ACTIVE,30MonoWAV/30MonoF4.wav,1,2,2,4,,,,,1,13,29,3,0,9,9,9,,,,,,,,,3,1.4014212509973731,,,005,001,2019_May_07_1410,MusicAffectPsychophysiology2019,3.0.5,58.87756412316055,
To what extent did the music make you feel ,ALERT,30MonoWAV/30MonoF4.wav,1,2,2,4,,,,,1,13,29,3,0,10,10,8,,,,,,,,,4,1.1505087859986816,,,005,001,2019_May_07_1410,MusicAffectPsychophysiology2019,3.0.5,58.87756412316055,
To what extent did the music make you feel ,EXCITED,30MonoWAV/30MonoF4.wav,1,2,2,4,,,,,1,13,29,3,0,11,11,7,,,,,,,,,1,1.368812163000257,,,005,001,2019_May_07_1410,MusicAffectPsychophysiology2019,3.0.5,58.87756412316055,
,,30MonoWAV/30MonoF4.wav,1,2,2,4,,,,,1,13,29,3,,,,,,,,,,,,,,,,,005,001,2019_May_07_1410,MusicAffectPsychophysiology2019,3.0.5,58.87756412316055,
To what extent did the music make you feel ,SCARED,30MonoWAV/30MonoS3.wav,1,1,3,11,,,,,1,14,30,10,0,0,0,11,,,2,2.7171873659972334,1,0.8687022300000535,,,3,2.2515979839990905,,,005,001,2019_May_07_1410,MusicAffectPsychophysiology2019,3.0.5,58.87756412316055,
To what extent did the music make you feel ,ANGRY,30MonoWAV/30MonoS3.wav,1,1,3,11,,,,,1,14,30,10,0,1,1,2,,,,,,,,,1,0.9682576960003644,,,005,001,2019_May_07_1410,MusicAffectPsychophysiology2019,3.0.5,58.87756412316055,
To what extent did the music make you feel ,HAPPY,30MonoWAV/30MonoS3.wav,1,1,3,11,,,,,1,14,30,10,0,2,2,6,,,,,,,,,1,0.9013919149983849,,,005,001,2019_May_07_1410,MusicAffectPsychophysiology2019,3.0.5,58.87756412316055,
To what extent did the music make you feel ,ACTIVE,30MonoWAV/30MonoS3.wav,1,1,3,11,,,,,1,14,30,10,0,3,3,9,,,,,,,,,1,0.7025246239973058,,,005,001,2019_May_07_1410,MusicAffectPsychophysiology2019,3.0.5,58.87756412316055,
To what extent did the music make you feel ,ALERT,30MonoWAV/30MonoS3.wav,1,1,3,11,,,,,1,14,30,10,0,4,4,8,,,,,,,,,1,0.7677708609990077,,,005,001,2019_May_07_1410,MusicAffectPsychophysiology2019,3.0.5,58.87756412316055,
To what extent did the music make you feel ,FRUSTRATED,30MonoWAV/30MonoS3.wav,1,1,3,11,,,,,1,14,30,10,0,5,5,3,,,,,,,,,1,0.568806413000857,,,005,001,2019_May_07_1410,MusicAffectPsychophysiology2019,3.0.5,58.87756412316055,
To what extent did the music make you feel ,GUILTY,30MonoWAV/30MonoS3.wav,1,1,3,11,,,,,1,14,30,10,0,6,6,5,,,,,,,,,3,1.7151713569983258,,,005,001,2019_May_07_1410,MusicAffectPsychophysiology2019,3.0.5,58.87756412316055,
To what extent did the music make you feel ,EXCITED,30MonoWAV/30MonoS3.wav,1,1,3,11,,,,,1,14,30,10,0,7,7,7,,,,,,,,,1,0.7022125080002297,,,005,001,2019_May_07_1410,MusicAffectPsychophysiology2019,3.0.5,58.87756412316055,
To what extent did the music make you feel ,SAD,30MonoWAV/30MonoS3.wav,1,1,3,11,,,,,1,14,30,10,0,8,8,0,,,,,,,,,3,1.5372256000009656,,,005,001,2019_May_07_1410,MusicAffectPsychophysiology2019,3.0.5,58.87756412316055,
To what extent did the music make you feel ,ASHAMED,30MonoWAV/30MonoS3.wav,1,1,3,11,,,,,1,14,30,10,0,9,9,4,,,,,,,,,3,1.1019364499989024,,,005,001,2019_May_07_1410,MusicAffectPsychophysiology2019,3.0.5,58.87756412316055,
To what extent did the music make you feel ,ANXIOUS ,30MonoWAV/30MonoS3.wav,1,1,3,11,,,,,1,14,30,10,0,10,10,1,,,,,,,,,2,1.7230950849989313,,,005,001,2019_May_07_1410,MusicAffectPsychophysiology2019,3.0.5,58.87756412316055,
To what extent did the music make you feel ,TENDER,30MonoWAV/30MonoS3.wav,1,1,3,11,,,,,1,14,30,10,0,11,11,10,,,,,,,,,4,1.3030307879998873,,,005,001,2019_May_07_1410,MusicAffectPsychophysiology2019,3.0.5,58.87756412316055,
,,30MonoWAV/30MonoS3.wav,1,1,3,11,,,,,1,14,30,10,,,,,,,,,,,,,,,,,005,001,2019_May_07_1410,MusicAffectPsychophysiology2019,3.0.5,58.87756412316055,
To what extent did the music make you feel ,HAPPY,30MonoWAV/30MonoT2.wav,2,1,4,14,,,,,1,15,31,13,0,0,0,6,,,3,2.2350513679994037,4,1.1821390400000382,,,4,2.2531191410016618,,,005,001,2019_May_07_1410,MusicAffectPsychophysiology2019,3.0.5,58.87756412316055,
To what extent did the music make you feel ,FRUSTRATED,30MonoWAV/30MonoT2.wav,2,1,4,14,,,,,1,15,31,13,0,1,1,3,,,,,,,,,1,1.0186728150001727,,,005,001,2019_May_07_1410,MusicAffectPsychophysiology2019,3.0.5,58.87756412316055,
To what extent did the music make you feel ,ANXIOUS ,30MonoWAV/30MonoT2.wav,2,1,4,14,,,,,1,15,31,13,0,2,2,1,,,,,,,,,1,0.7019304779969389,,,005,001,2019_May_07_1410,MusicAffectPsychophysiology2019,3.0.5,58.87756412316055,
To what extent did the music make you feel ,SAD,30MonoWAV/30MonoT2.wav,2,1,4,14,,,,,1,15,31,13,0,3,3,0,,,,,,,,,1,0.5180529460012622,,,005,001,2019_May_07_1410,MusicAffectPsychophysiology2019,3.0.5,58.87756412316055,
To what extent did the music make you feel ,GUILTY,30MonoWAV/30MonoT2.wav,2,1,4,14,,,,,1,15,31,13,0,4,4,5,,,,,,,,,1,0.701007749998098,,,005,001,2019_May_07_1410,MusicAffectPsychophysiology2019,3.0.5,58.87756412316055,
To what extent did the music make you feel ,ANGRY,30MonoWAV/30MonoT2.wav,2,1,4,14,,,,,1,15,31,13,0,5,5,2,,,,,,,,,1,0.5685964500007685,,,005,001,2019_May_07_1410,MusicAffectPsychophysiology2019,3.0.5,58.87756412316055,
To what extent did the music make you feel ,ALERT,30MonoWAV/30MonoT2.wav,2,1,4,14,,,,,1,15,31,13,0,6,6,8,,,,,,,,,1,0.8021383759987657,,,005,001,2019_May_07_1410,MusicAffectPsychophysiology2019,3.0.5,58.87756412316055,
To what extent did the music make you feel ,ACTIVE,30MonoWAV/30MonoT2.wav,2,1,4,14,,,,,1,15,31,13,0,7,7,9,,,,,,,,,2,1.3348725359974196,,,005,001,2019_May_07_1410,MusicAffectPsychophysiology2019,3.0.5,58.87756412316055,
To what extent did the music make you feel ,SCARED,30MonoWAV/30MonoT2.wav,2,1,4,14,,,,,1,15,31,13,0,8,8,11,,,,,,,,,1,0.6358568499999819,,,005,001,2019_May_07_1410,MusicAffectPsychophysiology2019,3.0.5,58.87756412316055,
To what extent did the music make you feel ,ASHAMED,30MonoWAV/30MonoT2.wav,2,1,4,14,,,,,1,15,31,13,0,9,9,4,,,,,,,,,1,0.6358129299987922,,,005,001,2019_May_07_1410,MusicAffectPsychophysiology2019,3.0.5,58.87756412316055,
To what extent did the music make you feel ,EXCITED,30MonoWAV/30MonoT2.wav,2,1,4,14,,,,,1,15,31,13,0,10,10,7,,,,,,,,,2,2.0349900889996206,,,005,001,2019_May_07_1410,MusicAffectPsychophysiology2019,3.0.5,58.87756412316055,
To what extent did the music make you feel ,TENDER,30MonoWAV/30MonoT2.wav,2,1,4,14,,,,,1,15,31,13,0,11,11,10,,,,,,,,,4,1.4686036780003633,,,005,001,2019_May_07_1410,MusicAffectPsychophysiology2019,3.0.5,58.87756412316055,
,,30MonoWAV/30MonoT2.wav,2,1,4,14,,,,,1,15,31,13,,,,,,,,,,,,,,,,,005,001,2019_May_07_1410,MusicAffectPsychophysiology2019,3.0.5,58.87756412316055,
,,,,,,,,,,,,,,,,,,,,,,,,,,,,,space,105.60700967999946,005,001,2019_May_07_1410,MusicAffectPsychophysiology2019,3.0.5,58.87756412316055,
