Instruction,Word,song,valence,arousal,affectcat,songmark,pracwords.thisRepN,pracwords.thisTrialN,pracwords.thisN,pracwords.thisIndex,songtrials.thisRepN,songtrials.thisTrialN,songtrials.thisN,songtrials.thisIndex,words.thisRepN,words.thisTrialN,words.thisN,words.thisIndex,begin.keys,begin.rt,arousalkey.keys,arousalkey.rt,valencekey.keys,valencekey.rt,likekey.keys,likekey.rt,WordResponse.keys,WordResponse.rt,key_resp_2.keys,key_resp_2.rt,participant,session,date,expName,psychopyVersion,frameRate,
,,,,,,,,,,,,,,,,,,,space,22.98369476500011,,,,,,,,,,,006,001,2019_May_07_1511,MusicAffectPsychophysiology2019,3.0.5,60.096970066248645,
,,,,,,,,,,,,,,,,,,,,,2,7.468599104999157,,,,,,,,,006,001,2019_May_07_1511,MusicAffectPsychophysiology2019,3.0.5,60.096970066248645,
,,,,,,,,,,,,,,,,,,,,,,,5,3.2845672280018334,,,,,,,006,001,2019_May_07_1511,MusicAffectPsychophysiology2019,3.0.5,60.096970066248645,
,,,,,,,,,,,,,,,,,,,,,,,,,4,3.0194421560008777,,,,,006,001,2019_May_07_1511,MusicAffectPsychophysiology2019,3.0.5,60.096970066248645,
To what extent did the music make you feel ,GUILTY,,,,,,0,0,0,5,,,,,,,,,,,,,,,,,1,4.3817709290015046,,,006,001,2019_May_07_1511,MusicAffectPsychophysiology2019,3.0.5,60.096970066248645,
To what extent did the music make you feel ,ACTIVE,,,,,,0,1,1,9,,,,,,,,,,,,,,,,,2,3.8183837160031544,,,006,001,2019_May_07_1511,MusicAffectPsychophysiology2019,3.0.5,60.096970066248645,
To what extent did the music make you feel ,FRUSTRATED,,,,,,0,2,2,3,,,,,,,,,,,,,,,,,1,1.1857577660011884,,,006,001,2019_May_07_1511,MusicAffectPsychophysiology2019,3.0.5,60.096970066248645,
To what extent did the music make you feel ,EXCITED,,,,,,0,3,3,7,,,,,,,,,,,,,,,,,2,2.917559485998936,,,006,001,2019_May_07_1511,MusicAffectPsychophysiology2019,3.0.5,60.096970066248645,
To what extent did the music make you feel ,ASHAMED,,,,,,0,4,4,4,,,,,,,,,,,,,,,,,1,1.001542870002595,,,006,001,2019_May_07_1511,MusicAffectPsychophysiology2019,3.0.5,60.096970066248645,
To what extent did the music make you feel ,ALERT,,,,,,0,5,5,8,,,,,,,,,,,,,,,,,2,3.3340347669982293,,,006,001,2019_May_07_1511,MusicAffectPsychophysiology2019,3.0.5,60.096970066248645,
To what extent did the music make you feel ,HAPPY,,,,,,0,6,6,6,,,,,,,,,,,,,,,,,5,1.7020878000002995,,,006,001,2019_May_07_1511,MusicAffectPsychophysiology2019,3.0.5,60.096970066248645,
To what extent did the music make you feel ,TENDER,,,,,,0,7,7,10,,,,,,,,,,,,,,,,,3,4.617522871998517,,,006,001,2019_May_07_1511,MusicAffectPsychophysiology2019,3.0.5,60.096970066248645,
To what extent did the music make you feel ,ANGRY,,,,,,0,8,8,2,,,,,,,,,,,,,,,,,1,2.151668554997741,,,006,001,2019_May_07_1511,MusicAffectPsychophysiology2019,3.0.5,60.096970066248645,
To what extent did the music make you feel ,SAD,,,,,,0,9,9,0,,,,,,,,,,,,,,,,,3,2.635156799999095,,,006,001,2019_May_07_1511,MusicAffectPsychophysiology2019,3.0.5,60.096970066248645,
To what extent did the music make you feel ,SCARED,,,,,,0,10,10,11,,,,,,,,,,,,,,,,,1,1.4679019110008085,,,006,001,2019_May_07_1511,MusicAffectPsychophysiology2019,3.0.5,60.096970066248645,
To what extent did the music make you feel ,ANXIOUS ,,,,,,0,11,11,1,,,,,,,,,,,,,,,,,1,2.5020557520001603,,,006,001,2019_May_07_1511,MusicAffectPsychophysiology2019,3.0.5,60.096970066248645,
To what extent did the music make you feel ,SCARED,30MonoWAV/30MonoT3.wav,2,1,4,15,,,,,0,0,0,14,0,0,0,11,,,1,4.457448181001382,3,5.2253745989983145,,,1,1.801510468001652,,,006,001,2019_May_07_1511,MusicAffectPsychophysiology2019,3.0.5,60.096970066248645,
To what extent did the music make you feel ,ANXIOUS ,30MonoWAV/30MonoT3.wav,2,1,4,15,,,,,0,0,0,14,0,1,1,1,,,,,,,,,2,3.301022344003286,,,006,001,2019_May_07_1511,MusicAffectPsychophysiology2019,3.0.5,60.096970066248645,
To what extent did the music make you feel ,FRUSTRATED,30MonoWAV/30MonoT3.wav,2,1,4,15,,,,,0,0,0,14,0,2,2,3,,,,,,,,,1,1.4004486570011068,,,006,001,2019_May_07_1511,MusicAffectPsychophysiology2019,3.0.5,60.096970066248645,
To what extent did the music make you feel ,TENDER,30MonoWAV/30MonoT3.wav,2,1,4,15,,,,,0,0,0,14,0,3,3,10,,,,,,,,,1,1.8840465149987722,,,006,001,2019_May_07_1511,MusicAffectPsychophysiology2019,3.0.5,60.096970066248645,
To what extent did the music make you feel ,SAD,30MonoWAV/30MonoT3.wav,2,1,4,15,,,,,0,0,0,14,0,4,4,0,,,,,,,,,3,2.6518667450000066,,,006,001,2019_May_07_1511,MusicAffectPsychophysiology2019,3.0.5,60.096970066248645,
To what extent did the music make you feel ,ANGRY,30MonoWAV/30MonoT3.wav,2,1,4,15,,,,,0,0,0,14,0,5,5,2,,,,,,,,,1,2.8000822460016934,,,006,001,2019_May_07_1511,MusicAffectPsychophysiology2019,3.0.5,60.096970066248645,
To what extent did the music make you feel ,EXCITED,30MonoWAV/30MonoT3.wav,2,1,4,15,,,,,0,0,0,14,0,6,6,7,,,,,,,,,1,1.1367373220018635,,,006,001,2019_May_07_1511,MusicAffectPsychophysiology2019,3.0.5,60.096970066248645,
To what extent did the music make you feel ,GUILTY,30MonoWAV/30MonoT3.wav,2,1,4,15,,,,,0,0,0,14,0,7,7,5,,,,,,,,,1,1.0349501710006734,,,006,001,2019_May_07_1511,MusicAffectPsychophysiology2019,3.0.5,60.096970066248645,
To what extent did the music make you feel ,HAPPY,30MonoWAV/30MonoT3.wav,2,1,4,15,,,,,0,0,0,14,0,8,8,6,,,,,,,,,2,1.9187315680028405,,,006,001,2019_May_07_1511,MusicAffectPsychophysiology2019,3.0.5,60.096970066248645,
To what extent did the music make you feel ,ACTIVE,30MonoWAV/30MonoT3.wav,2,1,4,15,,,,,0,0,0,14,0,9,9,9,,,,,,,,,1,1.1690974480006844,,,006,001,2019_May_07_1511,MusicAffectPsychophysiology2019,3.0.5,60.096970066248645,
To what extent did the music make you feel ,ALERT,30MonoWAV/30MonoT3.wav,2,1,4,15,,,,,0,0,0,14,0,10,10,8,,,,,,,,,2,4.36995089300035,,,006,001,2019_May_07_1511,MusicAffectPsychophysiology2019,3.0.5,60.096970066248645,
To what extent did the music make you feel ,ASHAMED,30MonoWAV/30MonoT3.wav,2,1,4,15,,,,,0,0,0,14,0,11,11,4,,,,,,,,,1,3.818352546000824,,,006,001,2019_May_07_1511,MusicAffectPsychophysiology2019,3.0.5,60.096970066248645,
,,30MonoWAV/30MonoT3.wav,2,1,4,15,,,,,0,0,0,14,,,,,,,,,,,,,,,,,006,001,2019_May_07_1511,MusicAffectPsychophysiology2019,3.0.5,60.096970066248645,
To what extent did the music make you feel ,SCARED,30MonoWAV/30MonoS3.wav,1,1,3,11,,,,,0,1,1,10,0,0,0,11,,,1,4.401814215998456,1,5.8689044269995065,,,2,1.6669686770001135,,,006,001,2019_May_07_1511,MusicAffectPsychophysiology2019,3.0.5,60.096970066248645,
To what extent did the music make you feel ,ANXIOUS ,30MonoWAV/30MonoS3.wav,1,1,3,11,,,,,0,1,1,10,0,1,1,1,,,,,,,,,3,2.41739389400027,,,006,001,2019_May_07_1511,MusicAffectPsychophysiology2019,3.0.5,60.096970066248645,
To what extent did the music make you feel ,SAD,30MonoWAV/30MonoS3.wav,1,1,3,11,,,,,0,1,1,10,0,2,2,0,,,,,,,,,2,2.1848909610016563,,,006,001,2019_May_07_1511,MusicAffectPsychophysiology2019,3.0.5,60.096970066248645,
To what extent did the music make you feel ,ASHAMED,30MonoWAV/30MonoS3.wav,1,1,3,11,,,,,0,1,1,10,0,3,3,4,,,,,,,,,1,0.9014999419996457,,,006,001,2019_May_07_1511,MusicAffectPsychophysiology2019,3.0.5,60.096970066248645,
To what extent did the music make you feel ,FRUSTRATED,30MonoWAV/30MonoS3.wav,1,1,3,11,,,,,0,1,1,10,0,4,4,3,,,,,,,,,1,1.0848299809986202,,,006,001,2019_May_07_1511,MusicAffectPsychophysiology2019,3.0.5,60.096970066248645,
To what extent did the music make you feel ,ALERT,30MonoWAV/30MonoS3.wav,1,1,3,11,,,,,0,1,1,10,0,5,5,8,,,,,,,,,2,2.85094272599963,,,006,001,2019_May_07_1511,MusicAffectPsychophysiology2019,3.0.5,60.096970066248645,
To what extent did the music make you feel ,TENDER,30MonoWAV/30MonoS3.wav,1,1,3,11,,,,,0,1,1,10,0,6,6,10,,,,,,,,,2,1.7836148259993934,,,006,001,2019_May_07_1511,MusicAffectPsychophysiology2019,3.0.5,60.096970066248645,
To what extent did the music make you feel ,GUILTY,30MonoWAV/30MonoS3.wav,1,1,3,11,,,,,0,1,1,10,0,7,7,5,,,,,,,,,1,4.922138828998868,,,006,001,2019_May_07_1511,MusicAffectPsychophysiology2019,3.0.5,60.096970066248645,
To what extent did the music make you feel ,EXCITED,30MonoWAV/30MonoS3.wav,1,1,3,11,,,,,0,1,1,10,0,8,8,7,,,,,,,,,1,1.620158239002194,,,006,001,2019_May_07_1511,MusicAffectPsychophysiology2019,3.0.5,60.096970066248645,
To what extent did the music make you feel ,ANGRY,30MonoWAV/30MonoS3.wav,1,1,3,11,,,,,0,1,1,10,0,9,9,2,,,,,,,,,1,1.9539397309999913,,,006,001,2019_May_07_1511,MusicAffectPsychophysiology2019,3.0.5,60.096970066248645,
To what extent did the music make you feel ,ACTIVE,30MonoWAV/30MonoS3.wav,1,1,3,11,,,,,0,1,1,10,0,10,10,9,,,,,,,,,1,2.8217703760019504,,,006,001,2019_May_07_1511,MusicAffectPsychophysiology2019,3.0.5,60.096970066248645,
To what extent did the music make you feel ,HAPPY,30MonoWAV/30MonoS3.wav,1,1,3,11,,,,,0,1,1,10,0,11,11,6,,,,,,,,,1,0.923377936000179,,,006,001,2019_May_07_1511,MusicAffectPsychophysiology2019,3.0.5,60.096970066248645,
,,30MonoWAV/30MonoS3.wav,1,1,3,11,,,,,0,1,1,10,,,,,,,,,,,,,,,,,006,001,2019_May_07_1511,MusicAffectPsychophysiology2019,3.0.5,60.096970066248645,
To what extent did the music make you feel ,HAPPY,30MonoWAV/30MonoS1.wav,1,1,3,9,,,,,0,2,2,8,0,0,0,6,,,1,3.6353456859978905,2,3.7360510180005804,,,2,7.717854086000443,,,006,001,2019_May_07_1511,MusicAffectPsychophysiology2019,3.0.5,60.096970066248645,
To what extent did the music make you feel ,TENDER,30MonoWAV/30MonoS1.wav,1,1,3,9,,,,,0,2,2,8,0,1,1,10,,,,,,,,,2,1.1392538450018037,,,006,001,2019_May_07_1511,MusicAffectPsychophysiology2019,3.0.5,60.096970066248645,
To what extent did the music make you feel ,SAD,30MonoWAV/30MonoS1.wav,1,1,3,9,,,,,0,2,2,8,0,2,2,0,,,,,,,,,3,1.4034499329973187,,,006,001,2019_May_07_1511,MusicAffectPsychophysiology2019,3.0.5,60.096970066248645,
To what extent did the music make you feel ,SCARED,30MonoWAV/30MonoS1.wav,1,1,3,9,,,,,0,2,2,8,0,3,3,11,,,,,,,,,1,1.3361797479992674,,,006,001,2019_May_07_1511,MusicAffectPsychophysiology2019,3.0.5,60.096970066248645,
To what extent did the music make you feel ,ALERT,30MonoWAV/30MonoS1.wav,1,1,3,9,,,,,0,2,2,8,0,4,4,8,,,,,,,,,1,1.6875998739997158,,,006,001,2019_May_07_1511,MusicAffectPsychophysiology2019,3.0.5,60.096970066248645,
To what extent did the music make you feel ,EXCITED,30MonoWAV/30MonoS1.wav,1,1,3,9,,,,,0,2,2,8,0,5,5,7,,,,,,,,,1,1.8535133539990056,,,006,001,2019_May_07_1511,MusicAffectPsychophysiology2019,3.0.5,60.096970066248645,
To what extent did the music make you feel ,ACTIVE,30MonoWAV/30MonoS1.wav,1,1,3,9,,,,,0,2,2,8,0,6,6,9,,,,,,,,,1,0.9552142520005873,,,006,001,2019_May_07_1511,MusicAffectPsychophysiology2019,3.0.5,60.096970066248645,
To what extent did the music make you feel ,ANXIOUS ,30MonoWAV/30MonoS1.wav,1,1,3,9,,,,,0,2,2,8,0,7,7,1,,,,,,,,,3,4.432440517000941,,,006,001,2019_May_07_1511,MusicAffectPsychophysiology2019,3.0.5,60.096970066248645,
To what extent did the music make you feel ,ANGRY,30MonoWAV/30MonoS1.wav,1,1,3,9,,,,,0,2,2,8,0,8,8,2,,,,,,,,,1,5.199031208001543,,,006,001,2019_May_07_1511,MusicAffectPsychophysiology2019,3.0.5,60.096970066248645,
To what extent did the music make you feel ,ASHAMED,30MonoWAV/30MonoS1.wav,1,1,3,9,,,,,0,2,2,8,0,9,9,4,,,,,,,,,1,0.9514139419989078,,,006,001,2019_May_07_1511,MusicAffectPsychophysiology2019,3.0.5,60.096970066248645,
To what extent did the music make you feel ,GUILTY,30MonoWAV/30MonoS1.wav,1,1,3,9,,,,,0,2,2,8,0,10,10,5,,,,,,,,,1,1.6679869569998118,,,006,001,2019_May_07_1511,MusicAffectPsychophysiology2019,3.0.5,60.096970066248645,
To what extent did the music make you feel ,FRUSTRATED,30MonoWAV/30MonoS1.wav,1,1,3,9,,,,,0,2,2,8,0,11,11,3,,,,,,,,,1,5.267940477999218,,,006,001,2019_May_07_1511,MusicAffectPsychophysiology2019,3.0.5,60.096970066248645,
,,30MonoWAV/30MonoS1.wav,1,1,3,9,,,,,0,2,2,8,,,,,,,,,,,,,,,,,006,001,2019_May_07_1511,MusicAffectPsychophysiology2019,3.0.5,60.096970066248645,
To what extent did the music make you feel ,ANGRY,30MonoWAV/30MonoF4.wav,1,2,2,4,,,,,0,3,3,3,0,0,0,2,,,3,7.1776734390005,3,3.0511856169978273,,,2,3.1845582220012147,,,006,001,2019_May_07_1511,MusicAffectPsychophysiology2019,3.0.5,60.096970066248645,
To what extent did the music make you feel ,SAD,30MonoWAV/30MonoF4.wav,1,2,2,4,,,,,0,3,3,3,0,1,1,0,,,,,,,,,1,1.9675010230021144,,,006,001,2019_May_07_1511,MusicAffectPsychophysiology2019,3.0.5,60.096970066248645,
To what extent did the music make you feel ,HAPPY,30MonoWAV/30MonoF4.wav,1,2,2,4,,,,,0,3,3,3,0,2,2,6,,,,,,,,,1,1.7364069519971963,,,006,001,2019_May_07_1511,MusicAffectPsychophysiology2019,3.0.5,60.096970066248645,
To what extent did the music make you feel ,SCARED,30MonoWAV/30MonoF4.wav,1,2,2,4,,,,,0,3,3,3,0,3,3,11,,,,,,,,,2,4.0836648540025635,,,006,001,2019_May_07_1511,MusicAffectPsychophysiology2019,3.0.5,60.096970066248645,
To what extent did the music make you feel ,TENDER,30MonoWAV/30MonoF4.wav,1,2,2,4,,,,,0,3,3,3,0,4,4,10,,,,,,,,,1,1.4859850659995573,,,006,001,2019_May_07_1511,MusicAffectPsychophysiology2019,3.0.5,60.096970066248645,
To what extent did the music make you feel ,ACTIVE,30MonoWAV/30MonoF4.wav,1,2,2,4,,,,,0,3,3,3,0,5,5,9,,,,,,,,,2,1.8686674410018895,,,006,001,2019_May_07_1511,MusicAffectPsychophysiology2019,3.0.5,60.096970066248645,
To what extent did the music make you feel ,GUILTY,30MonoWAV/30MonoF4.wav,1,2,2,4,,,,,0,3,3,3,0,6,6,5,,,,,,,,,1,1.301694915000553,,,006,001,2019_May_07_1511,MusicAffectPsychophysiology2019,3.0.5,60.096970066248645,
To what extent did the music make you feel ,ANXIOUS ,30MonoWAV/30MonoF4.wav,1,2,2,4,,,,,0,3,3,3,0,7,7,1,,,,,,,,,3,2.035542005000025,,,006,001,2019_May_07_1511,MusicAffectPsychophysiology2019,3.0.5,60.096970066248645,
To what extent did the music make you feel ,FRUSTRATED,30MonoWAV/30MonoF4.wav,1,2,2,4,,,,,0,3,3,3,0,8,8,3,,,,,,,,,1,1.551807435000228,,,006,001,2019_May_07_1511,MusicAffectPsychophysiology2019,3.0.5,60.096970066248645,
To what extent did the music make you feel ,EXCITED,30MonoWAV/30MonoF4.wav,1,2,2,4,,,,,0,3,3,3,0,9,9,7,,,,,,,,,2,1.6847485290018085,,,006,001,2019_May_07_1511,MusicAffectPsychophysiology2019,3.0.5,60.096970066248645,
To what extent did the music make you feel ,ALERT,30MonoWAV/30MonoF4.wav,1,2,2,4,,,,,0,3,3,3,0,10,10,8,,,,,,,,,5,2.0851173200026096,,,006,001,2019_May_07_1511,MusicAffectPsychophysiology2019,3.0.5,60.096970066248645,
To what extent did the music make you feel ,ASHAMED,30MonoWAV/30MonoF4.wav,1,2,2,4,,,,,0,3,3,3,0,11,11,4,,,,,,,,,1,2.0853404330009653,,,006,001,2019_May_07_1511,MusicAffectPsychophysiology2019,3.0.5,60.096970066248645,
,,30MonoWAV/30MonoF4.wav,1,2,2,4,,,,,0,3,3,3,,,,,,,,,,,,,,,,,006,001,2019_May_07_1511,MusicAffectPsychophysiology2019,3.0.5,60.096970066248645,
To what extent did the music make you feel ,HAPPY,30MonoWAV/30MonoH1.wav,2,2,1,5,,,,,0,4,4,4,0,0,0,6,,,3,4.11715006400118,5,2.335427793001145,,,4,1.9686894160004158,,,006,001,2019_May_07_1511,MusicAffectPsychophysiology2019,3.0.5,60.096970066248645,
To what extent did the music make you feel ,SAD,30MonoWAV/30MonoH1.wav,2,2,1,5,,,,,0,4,4,4,0,1,1,0,,,,,,,,,2,2.1849151339993114,,,006,001,2019_May_07_1511,MusicAffectPsychophysiology2019,3.0.5,60.096970066248645,
To what extent did the music make you feel ,TENDER,30MonoWAV/30MonoH1.wav,2,2,1,5,,,,,0,4,4,4,0,2,2,10,,,,,,,,,2,1.351336932999402,,,006,001,2019_May_07_1511,MusicAffectPsychophysiology2019,3.0.5,60.096970066248645,
To what extent did the music make you feel ,ANGRY,30MonoWAV/30MonoH1.wav,2,2,1,5,,,,,0,4,4,4,0,3,3,2,,,,,,,,,1,1.05586943399976,,,006,001,2019_May_07_1511,MusicAffectPsychophysiology2019,3.0.5,60.096970066248645,
To what extent did the music make you feel ,GUILTY,30MonoWAV/30MonoH1.wav,2,2,1,5,,,,,0,4,4,4,0,4,4,5,,,,,,,,,1,0.8855477529978089,,,006,001,2019_May_07_1511,MusicAffectPsychophysiology2019,3.0.5,60.096970066248645,
To what extent did the music make you feel ,FRUSTRATED,30MonoWAV/30MonoH1.wav,2,2,1,5,,,,,0,4,4,4,0,5,5,3,,,,,,,,,1,0.900925650003046,,,006,001,2019_May_07_1511,MusicAffectPsychophysiology2019,3.0.5,60.096970066248645,
To what extent did the music make you feel ,SCARED,30MonoWAV/30MonoH1.wav,2,2,1,5,,,,,0,4,4,4,0,6,6,11,,,,,,,,,1,0.9694239180025761,,,006,001,2019_May_07_1511,MusicAffectPsychophysiology2019,3.0.5,60.096970066248645,
To what extent did the music make you feel ,ALERT,30MonoWAV/30MonoH1.wav,2,2,1,5,,,,,0,4,4,4,0,7,7,8,,,,,,,,,4,1.7870178039993334,,,006,001,2019_May_07_1511,MusicAffectPsychophysiology2019,3.0.5,60.096970066248645,
To what extent did the music make you feel ,ASHAMED,30MonoWAV/30MonoH1.wav,2,2,1,5,,,,,0,4,4,4,0,8,8,4,,,,,,,,,1,1.0866652530021383,,,006,001,2019_May_07_1511,MusicAffectPsychophysiology2019,3.0.5,60.096970066248645,
To what extent did the music make you feel ,ANXIOUS ,30MonoWAV/30MonoH1.wav,2,2,1,5,,,,,0,4,4,4,0,9,9,1,,,,,,,,,2,1.6900638170009188,,,006,001,2019_May_07_1511,MusicAffectPsychophysiology2019,3.0.5,60.096970066248645,
To what extent did the music make you feel ,ACTIVE,30MonoWAV/30MonoH1.wav,2,2,1,5,,,,,0,4,4,4,0,10,10,9,,,,,,,,,2,2.9834822340017126,,,006,001,2019_May_07_1511,MusicAffectPsychophysiology2019,3.0.5,60.096970066248645,
To what extent did the music make you feel ,EXCITED,30MonoWAV/30MonoH1.wav,2,2,1,5,,,,,0,4,4,4,0,11,11,7,,,,,,,,,2,1.5349357580016658,,,006,001,2019_May_07_1511,MusicAffectPsychophysiology2019,3.0.5,60.096970066248645,
,,30MonoWAV/30MonoH1.wav,2,2,1,5,,,,,0,4,4,4,,,,,,,,,,,,,,,,,006,001,2019_May_07_1511,MusicAffectPsychophysiology2019,3.0.5,60.096970066248645,
To what extent did the music make you feel ,HAPPY,30MonoWAV/30MonoF1.wav,1,2,2,1,,,,,0,5,5,0,0,0,0,6,,,4,3.6564987290003046,4,1.9074527410011797,,,3,2.018682591002289,,,006,001,2019_May_07_1511,MusicAffectPsychophysiology2019,3.0.5,60.096970066248645,
To what extent did the music make you feel ,FRUSTRATED,30MonoWAV/30MonoF1.wav,1,2,2,1,,,,,0,5,5,0,0,1,1,3,,,,,,,,,2,3.2684120550002262,,,006,001,2019_May_07_1511,MusicAffectPsychophysiology2019,3.0.5,60.096970066248645,
To what extent did the music make you feel ,TENDER,30MonoWAV/30MonoF1.wav,1,2,2,1,,,,,0,5,5,0,0,2,2,10,,,,,,,,,2,1.868271993000235,,,006,001,2019_May_07_1511,MusicAffectPsychophysiology2019,3.0.5,60.096970066248645,
To what extent did the music make you feel ,EXCITED,30MonoWAV/30MonoF1.wav,1,2,2,1,,,,,0,5,5,0,0,3,3,7,,,,,,,,,2,1.4176513979982701,,,006,001,2019_May_07_1511,MusicAffectPsychophysiology2019,3.0.5,60.096970066248645,
To what extent did the music make you feel ,ACTIVE,30MonoWAV/30MonoF1.wav,1,2,2,1,,,,,0,5,5,0,0,4,4,9,,,,,,,,,3,1.3353242470002442,,,006,001,2019_May_07_1511,MusicAffectPsychophysiology2019,3.0.5,60.096970066248645,
To what extent did the music make you feel ,GUILTY,30MonoWAV/30MonoF1.wav,1,2,2,1,,,,,0,5,5,0,0,5,5,5,,,,,,,,,1,1.1687803709974105,,,006,001,2019_May_07_1511,MusicAffectPsychophysiology2019,3.0.5,60.096970066248645,
To what extent did the music make you feel ,SCARED,30MonoWAV/30MonoF1.wav,1,2,2,1,,,,,0,5,5,0,0,6,6,11,,,,,,,,,2,2.8165891989992815,,,006,001,2019_May_07_1511,MusicAffectPsychophysiology2019,3.0.5,60.096970066248645,
To what extent did the music make you feel ,ALERT,30MonoWAV/30MonoF1.wav,1,2,2,1,,,,,0,5,5,0,0,7,7,8,,,,,,,,,4,1.7681388589990092,,,006,001,2019_May_07_1511,MusicAffectPsychophysiology2019,3.0.5,60.096970066248645,
To what extent did the music make you feel ,ANXIOUS ,30MonoWAV/30MonoF1.wav,1,2,2,1,,,,,0,5,5,0,0,8,8,1,,,,,,,,,3,1.4188532539992593,,,006,001,2019_May_07_1511,MusicAffectPsychophysiology2019,3.0.5,60.096970066248645,
To what extent did the music make you feel ,SAD,30MonoWAV/30MonoF1.wav,1,2,2,1,,,,,0,5,5,0,0,9,9,0,,,,,,,,,1,1.400045307000255,,,006,001,2019_May_07_1511,MusicAffectPsychophysiology2019,3.0.5,60.096970066248645,
To what extent did the music make you feel ,ASHAMED,30MonoWAV/30MonoF1.wav,1,2,2,1,,,,,0,5,5,0,0,10,10,4,,,,,,,,,1,1.134578657001839,,,006,001,2019_May_07_1511,MusicAffectPsychophysiology2019,3.0.5,60.096970066248645,
To what extent did the music make you feel ,ANGRY,30MonoWAV/30MonoF1.wav,1,2,2,1,,,,,0,5,5,0,0,11,11,2,,,,,,,,,1,1.235641643001145,,,006,001,2019_May_07_1511,MusicAffectPsychophysiology2019,3.0.5,60.096970066248645,
,,30MonoWAV/30MonoF1.wav,1,2,2,1,,,,,0,5,5,0,,,,,,,,,,,,,,,,,006,001,2019_May_07_1511,MusicAffectPsychophysiology2019,3.0.5,60.096970066248645,
To what extent did the music make you feel ,HAPPY,30MonoWAV/30MonoT4.wav,2,1,4,16,,,,,0,6,6,15,0,0,0,6,,,1,3.4391779510006018,2,1.918584611001279,,,2,3.6837032469993574,,,006,001,2019_May_07_1511,MusicAffectPsychophysiology2019,3.0.5,60.096970066248645,
To what extent did the music make you feel ,ANXIOUS ,30MonoWAV/30MonoT4.wav,2,1,4,16,,,,,0,6,6,15,0,1,1,1,,,,,,,,,3,1.4682530489990313,,,006,001,2019_May_07_1511,MusicAffectPsychophysiology2019,3.0.5,60.096970066248645,
To what extent did the music make you feel ,GUILTY,30MonoWAV/30MonoT4.wav,2,1,4,16,,,,,0,6,6,15,0,2,2,5,,,,,,,,,1,1.7513269180017232,,,006,001,2019_May_07_1511,MusicAffectPsychophysiology2019,3.0.5,60.096970066248645,
To what extent did the music make you feel ,TENDER,30MonoWAV/30MonoT4.wav,2,1,4,16,,,,,0,6,6,15,0,3,3,10,,,,,,,,,2,0.9849878969980637,,,006,001,2019_May_07_1511,MusicAffectPsychophysiology2019,3.0.5,60.096970066248645,
To what extent did the music make you feel ,EXCITED,30MonoWAV/30MonoT4.wav,2,1,4,16,,,,,0,6,6,15,0,4,4,7,,,,,,,,,1,1.9666549560024578,,,006,001,2019_May_07_1511,MusicAffectPsychophysiology2019,3.0.5,60.096970066248645,
To what extent did the music make you feel ,ANGRY,30MonoWAV/30MonoT4.wav,2,1,4,16,,,,,0,6,6,15,0,5,5,2,,,,,,,,,1,0.9684438149997732,,,006,001,2019_May_07_1511,MusicAffectPsychophysiology2019,3.0.5,60.096970066248645,
To what extent did the music make you feel ,SCARED,30MonoWAV/30MonoT4.wav,2,1,4,16,,,,,0,6,6,15,0,6,6,11,,,,,,,,,1,1.0858715110007324,,,006,001,2019_May_07_1511,MusicAffectPsychophysiology2019,3.0.5,60.096970066248645,
To what extent did the music make you feel ,FRUSTRATED,30MonoWAV/30MonoT4.wav,2,1,4,16,,,,,0,6,6,15,0,7,7,3,,,,,,,,,2,1.0849429949994374,,,006,001,2019_May_07_1511,MusicAffectPsychophysiology2019,3.0.5,60.096970066248645,
To what extent did the music make you feel ,ACTIVE,30MonoWAV/30MonoT4.wav,2,1,4,16,,,,,0,6,6,15,0,8,8,9,,,,,,,,,2,1.4848328509979183,,,006,001,2019_May_07_1511,MusicAffectPsychophysiology2019,3.0.5,60.096970066248645,
To what extent did the music make you feel ,ASHAMED,30MonoWAV/30MonoT4.wav,2,1,4,16,,,,,0,6,6,15,0,9,9,4,,,,,,,,,1,1.1352994600019883,,,006,001,2019_May_07_1511,MusicAffectPsychophysiology2019,3.0.5,60.096970066248645,
To what extent did the music make you feel ,ALERT,30MonoWAV/30MonoT4.wav,2,1,4,16,,,,,0,6,6,15,0,10,10,8,,,,,,,,,1,1.5853397030004999,,,006,001,2019_May_07_1511,MusicAffectPsychophysiology2019,3.0.5,60.096970066248645,
To what extent did the music make you feel ,SAD,30MonoWAV/30MonoT4.wav,2,1,4,16,,,,,0,6,6,15,0,11,11,0,,,,,,,,,3,1.2682052980017033,,,006,001,2019_May_07_1511,MusicAffectPsychophysiology2019,3.0.5,60.096970066248645,
,,30MonoWAV/30MonoT4.wav,2,1,4,16,,,,,0,6,6,15,,,,,,,,,,,,,,,,,006,001,2019_May_07_1511,MusicAffectPsychophysiology2019,3.0.5,60.096970066248645,
To what extent did the music make you feel ,TENDER,30MonoWAV/30MonoT2.wav,2,1,4,14,,,,,0,7,7,13,0,0,0,10,,,1,2.7854447819991037,1,0.8173244270001305,,,4,1.9681184719993325,,,006,001,2019_May_07_1511,MusicAffectPsychophysiology2019,3.0.5,60.096970066248645,
To what extent did the music make you feel ,SAD,30MonoWAV/30MonoT2.wav,2,1,4,14,,,,,0,7,7,13,0,1,1,0,,,,,,,,,2,2.5187621360018966,,,006,001,2019_May_07_1511,MusicAffectPsychophysiology2019,3.0.5,60.096970066248645,
To what extent did the music make you feel ,FRUSTRATED,30MonoWAV/30MonoT2.wav,2,1,4,14,,,,,0,7,7,13,0,2,2,3,,,,,,,,,1,1.2680854919999547,,,006,001,2019_May_07_1511,MusicAffectPsychophysiology2019,3.0.5,60.096970066248645,
To what extent did the music make you feel ,ANGRY,30MonoWAV/30MonoT2.wav,2,1,4,14,,,,,0,7,7,13,0,3,3,2,,,,,,,,,1,4.035090422999929,,,006,001,2019_May_07_1511,MusicAffectPsychophysiology2019,3.0.5,60.096970066248645,
To what extent did the music make you feel ,ACTIVE,30MonoWAV/30MonoT2.wav,2,1,4,14,,,,,0,7,7,13,0,4,4,9,,,,,,,,,1,1.4180659169978753,,,006,001,2019_May_07_1511,MusicAffectPsychophysiology2019,3.0.5,60.096970066248645,
To what extent did the music make you feel ,ANXIOUS ,30MonoWAV/30MonoT2.wav,2,1,4,14,,,,,0,7,7,13,0,5,5,1,,,,,,,,,2,1.6522048369988624,,,006,001,2019_May_07_1511,MusicAffectPsychophysiology2019,3.0.5,60.096970066248645,
To what extent did the music make you feel ,ALERT,30MonoWAV/30MonoT2.wav,2,1,4,14,,,,,0,7,7,13,0,6,6,8,,,,,,,,,1,1.1850956269991002,,,006,001,2019_May_07_1511,MusicAffectPsychophysiology2019,3.0.5,60.096970066248645,
To what extent did the music make you feel ,ASHAMED,30MonoWAV/30MonoT2.wav,2,1,4,14,,,,,0,7,7,13,0,7,7,4,,,,,,,,,1,1.1348745390023396,,,006,001,2019_May_07_1511,MusicAffectPsychophysiology2019,3.0.5,60.096970066248645,
To what extent did the music make you feel ,SCARED,30MonoWAV/30MonoT2.wav,2,1,4,14,,,,,0,7,7,13,0,8,8,11,,,,,,,,,1,1.5853763240011176,,,006,001,2019_May_07_1511,MusicAffectPsychophysiology2019,3.0.5,60.096970066248645,
To what extent did the music make you feel ,EXCITED,30MonoWAV/30MonoT2.wav,2,1,4,14,,,,,0,7,7,13,0,9,9,7,,,,,,,,,1,0.8515127049977309,,,006,001,2019_May_07_1511,MusicAffectPsychophysiology2019,3.0.5,60.096970066248645,
To what extent did the music make you feel ,HAPPY,30MonoWAV/30MonoT2.wav,2,1,4,14,,,,,0,7,7,13,0,10,10,6,,,,,,,,,3,2.0027544900003704,,,006,001,2019_May_07_1511,MusicAffectPsychophysiology2019,3.0.5,60.096970066248645,
To what extent did the music make you feel ,GUILTY,30MonoWAV/30MonoT2.wav,2,1,4,14,,,,,0,7,7,13,0,11,11,5,,,,,,,,,1,0.8348616210023465,,,006,001,2019_May_07_1511,MusicAffectPsychophysiology2019,3.0.5,60.096970066248645,
,,30MonoWAV/30MonoT2.wav,2,1,4,14,,,,,0,7,7,13,,,,,,,,,,,,,,,,,006,001,2019_May_07_1511,MusicAffectPsychophysiology2019,3.0.5,60.096970066248645,
To what extent did the music make you feel ,GUILTY,30MonoWAV/30MonoH2.wav,2,2,1,6,,,,,0,8,8,5,0,0,0,5,,,3,4.501678206001088,3,3.05672822699853,,,1,1.653867025001091,,,006,001,2019_May_07_1511,MusicAffectPsychophysiology2019,3.0.5,60.096970066248645,
To what extent did the music make you feel ,EXCITED,30MonoWAV/30MonoH2.wav,2,2,1,6,,,,,0,8,8,5,0,1,1,7,,,,,,,,,1,1.8038180589974218,,,006,001,2019_May_07_1511,MusicAffectPsychophysiology2019,3.0.5,60.096970066248645,
To what extent did the music make you feel ,HAPPY,30MonoWAV/30MonoH2.wav,2,2,1,6,,,,,0,8,8,5,0,2,2,6,,,,,,,,,2,1.1341467240017664,,,006,001,2019_May_07_1511,MusicAffectPsychophysiology2019,3.0.5,60.096970066248645,
To what extent did the music make you feel ,ASHAMED,30MonoWAV/30MonoH2.wav,2,2,1,6,,,,,0,8,8,5,0,3,3,4,,,,,,,,,1,0.7189539489991148,,,006,001,2019_May_07_1511,MusicAffectPsychophysiology2019,3.0.5,60.096970066248645,
To what extent did the music make you feel ,ANXIOUS ,30MonoWAV/30MonoH2.wav,2,2,1,6,,,,,0,8,8,5,0,4,4,1,,,,,,,,,4,1.6063788789979299,,,006,001,2019_May_07_1511,MusicAffectPsychophysiology2019,3.0.5,60.096970066248645,
To what extent did the music make you feel ,SCARED,30MonoWAV/30MonoH2.wav,2,2,1,6,,,,,0,8,8,5,0,5,5,11,,,,,,,,,1,1.5340958499982662,,,006,001,2019_May_07_1511,MusicAffectPsychophysiology2019,3.0.5,60.096970066248645,
To what extent did the music make you feel ,FRUSTRATED,30MonoWAV/30MonoH2.wav,2,2,1,6,,,,,0,8,8,5,0,6,6,3,,,,,,,,,2,6.400905975999194,,,006,001,2019_May_07_1511,MusicAffectPsychophysiology2019,3.0.5,60.096970066248645,
To what extent did the music make you feel ,TENDER,30MonoWAV/30MonoH2.wav,2,2,1,6,,,,,0,8,8,5,0,7,7,10,,,,,,,,,5,1.6679083659983007,,,006,001,2019_May_07_1511,MusicAffectPsychophysiology2019,3.0.5,60.096970066248645,
To what extent did the music make you feel ,ANGRY,30MonoWAV/30MonoH2.wav,2,2,1,6,,,,,0,8,8,5,0,8,8,2,,,,,,,,,2,4.701458530002128,,,006,001,2019_May_07_1511,MusicAffectPsychophysiology2019,3.0.5,60.096970066248645,
To what extent did the music make you feel ,ACTIVE,30MonoWAV/30MonoH2.wav,2,2,1,6,,,,,0,8,8,5,0,9,9,9,,,,,,,,,1,2.334347271000297,,,006,001,2019_May_07_1511,MusicAffectPsychophysiology2019,3.0.5,60.096970066248645,
To what extent did the music make you feel ,SAD,30MonoWAV/30MonoH2.wav,2,2,1,6,,,,,0,8,8,5,0,10,10,0,,,,,,,,,3,1.419603079000808,,,006,001,2019_May_07_1511,MusicAffectPsychophysiology2019,3.0.5,60.096970066248645,
To what extent did the music make you feel ,ALERT,30MonoWAV/30MonoH2.wav,2,2,1,6,,,,,0,8,8,5,0,11,11,8,,,,,,,,,1,1.1712923889972444,,,006,001,2019_May_07_1511,MusicAffectPsychophysiology2019,3.0.5,60.096970066248645,
,,30MonoWAV/30MonoH2.wav,2,2,1,6,,,,,0,8,8,5,,,,,,,,,,,,,,,,,006,001,2019_May_07_1511,MusicAffectPsychophysiology2019,3.0.5,60.096970066248645,
To what extent did the music make you feel ,ANGRY,30MonoWAV/30MonoH4.wav,2,2,1,8,,,,,0,9,9,7,0,0,0,2,,,4,3.959318269000505,4,1.435395062002499,,,1,2.5514483639999526,,,006,001,2019_May_07_1511,MusicAffectPsychophysiology2019,3.0.5,60.096970066248645,
To what extent did the music make you feel ,EXCITED,30MonoWAV/30MonoH4.wav,2,2,1,8,,,,,0,9,9,7,0,1,1,7,,,,,,,,,2,1.818385403999855,,,006,001,2019_May_07_1511,MusicAffectPsychophysiology2019,3.0.5,60.096970066248645,
To what extent did the music make you feel ,GUILTY,30MonoWAV/30MonoH4.wav,2,2,1,8,,,,,0,9,9,7,0,2,2,5,,,,,,,,,1,1.1167451500004972,,,006,001,2019_May_07_1511,MusicAffectPsychophysiology2019,3.0.5,60.096970066248645,
To what extent did the music make you feel ,ASHAMED,30MonoWAV/30MonoH4.wav,2,2,1,8,,,,,0,9,9,7,0,3,3,4,,,,,,,,,1,0.6522893770015799,,,006,001,2019_May_07_1511,MusicAffectPsychophysiology2019,3.0.5,60.096970066248645,
To what extent did the music make you feel ,TENDER,30MonoWAV/30MonoH4.wav,2,2,1,8,,,,,0,9,9,7,0,4,4,10,,,,,,,,,1,0.9358875439975236,,,006,001,2019_May_07_1511,MusicAffectPsychophysiology2019,3.0.5,60.096970066248645,
To what extent did the music make you feel ,SCARED,30MonoWAV/30MonoH4.wav,2,2,1,8,,,,,0,9,9,7,0,5,5,11,,,,,,,,,1,1.0183583950019965,,,006,001,2019_May_07_1511,MusicAffectPsychophysiology2019,3.0.5,60.096970066248645,
To what extent did the music make you feel ,FRUSTRATED,30MonoWAV/30MonoH4.wav,2,2,1,8,,,,,0,9,9,7,0,6,6,3,,,,,,,,,1,1.4516935810024734,,,006,001,2019_May_07_1511,MusicAffectPsychophysiology2019,3.0.5,60.096970066248645,
To what extent did the music make you feel ,SAD,30MonoWAV/30MonoH4.wav,2,2,1,8,,,,,0,9,9,7,0,7,7,0,,,,,,,,,1,0.7177120089982054,,,006,001,2019_May_07_1511,MusicAffectPsychophysiology2019,3.0.5,60.096970066248645,
To what extent did the music make you feel ,HAPPY,30MonoWAV/30MonoH4.wav,2,2,1,8,,,,,0,9,9,7,0,8,8,6,,,,,,,,,3,1.4182467509999697,,,006,001,2019_May_07_1511,MusicAffectPsychophysiology2019,3.0.5,60.096970066248645,
To what extent did the music make you feel ,ANXIOUS ,30MonoWAV/30MonoH4.wav,2,2,1,8,,,,,0,9,9,7,0,9,9,1,,,,,,,,,3,1.1180844420014182,,,006,001,2019_May_07_1511,MusicAffectPsychophysiology2019,3.0.5,60.096970066248645,
To what extent did the music make you feel ,ACTIVE,30MonoWAV/30MonoH4.wav,2,2,1,8,,,,,0,9,9,7,0,10,10,9,,,,,,,,,3,3.6675746549990436,,,006,001,2019_May_07_1511,MusicAffectPsychophysiology2019,3.0.5,60.096970066248645,
To what extent did the music make you feel ,ALERT,30MonoWAV/30MonoH4.wav,2,2,1,8,,,,,0,9,9,7,0,11,11,8,,,,,,,,,3,2.70180727800107,,,006,001,2019_May_07_1511,MusicAffectPsychophysiology2019,3.0.5,60.096970066248645,
,,30MonoWAV/30MonoH4.wav,2,2,1,8,,,,,0,9,9,7,,,,,,,,,,,,,,,,,006,001,2019_May_07_1511,MusicAffectPsychophysiology2019,3.0.5,60.096970066248645,
To what extent did the music make you feel ,EXCITED,30MonoWAV/30MonoS2.wav,1,1,3,10,,,,,0,10,10,9,0,0,0,7,,,1,3.132629216997884,1,1.8680763500015019,,,1,5.168881538000278,,,006,001,2019_May_07_1511,MusicAffectPsychophysiology2019,3.0.5,60.096970066248645,
To what extent did the music make you feel ,ANGRY,30MonoWAV/30MonoS2.wav,1,1,3,10,,,,,0,10,10,9,0,1,1,2,,,,,,,,,1,0.867558089998056,,,006,001,2019_May_07_1511,MusicAffectPsychophysiology2019,3.0.5,60.096970066248645,
To what extent did the music make you feel ,FRUSTRATED,30MonoWAV/30MonoS2.wav,1,1,3,10,,,,,0,10,10,9,0,2,2,3,,,,,,,,,1,0.7016935999999987,,,006,001,2019_May_07_1511,MusicAffectPsychophysiology2019,3.0.5,60.096970066248645,
To what extent did the music make you feel ,ACTIVE,30MonoWAV/30MonoS2.wav,1,1,3,10,,,,,0,10,10,9,0,3,3,9,,,,,,,,,1,1.1328861280017009,,,006,001,2019_May_07_1511,MusicAffectPsychophysiology2019,3.0.5,60.096970066248645,
To what extent did the music make you feel ,ANXIOUS ,30MonoWAV/30MonoS2.wav,1,1,3,10,,,,,0,10,10,9,0,4,4,1,,,,,,,,,2,1.7688683830019727,,,006,001,2019_May_07_1511,MusicAffectPsychophysiology2019,3.0.5,60.096970066248645,
To what extent did the music make you feel ,ALERT,30MonoWAV/30MonoS2.wav,1,1,3,10,,,,,0,10,10,9,0,5,5,8,,,,,,,,,1,1.1845933549993788,,,006,001,2019_May_07_1511,MusicAffectPsychophysiology2019,3.0.5,60.096970066248645,
To what extent did the music make you feel ,ASHAMED,30MonoWAV/30MonoS2.wav,1,1,3,10,,,,,0,10,10,9,0,6,6,4,,,,,,,,,1,1.2010388179987785,,,006,001,2019_May_07_1511,MusicAffectPsychophysiology2019,3.0.5,60.096970066248645,
To what extent did the music make you feel ,GUILTY,30MonoWAV/30MonoS2.wav,1,1,3,10,,,,,0,10,10,9,0,7,7,5,,,,,,,,,1,0.7339383770013228,,,006,001,2019_May_07_1511,MusicAffectPsychophysiology2019,3.0.5,60.096970066248645,
To what extent did the music make you feel ,SCARED,30MonoWAV/30MonoS2.wav,1,1,3,10,,,,,0,10,10,9,0,8,8,11,,,,,,,,,1,4.752227970002423,,,006,001,2019_May_07_1511,MusicAffectPsychophysiology2019,3.0.5,60.096970066248645,
To what extent did the music make you feel ,SAD,30MonoWAV/30MonoS2.wav,1,1,3,10,,,,,0,10,10,9,0,9,9,0,,,,,,,,,2,1.2193205850016966,,,006,001,2019_May_07_1511,MusicAffectPsychophysiology2019,3.0.5,60.096970066248645,
To what extent did the music make you feel ,HAPPY,30MonoWAV/30MonoS2.wav,1,1,3,10,,,,,0,10,10,9,0,10,10,6,,,,,,,,,1,0.8333595219992276,,,006,001,2019_May_07_1511,MusicAffectPsychophysiology2019,3.0.5,60.096970066248645,
To what extent did the music make you feel ,TENDER,30MonoWAV/30MonoS2.wav,1,1,3,10,,,,,0,10,10,9,0,11,11,10,,,,,,,,,5,1.5683495249977568,,,006,001,2019_May_07_1511,MusicAffectPsychophysiology2019,3.0.5,60.096970066248645,
,,30MonoWAV/30MonoS2.wav,1,1,3,10,,,,,0,10,10,9,,,,,,,,,,,,,,,,,006,001,2019_May_07_1511,MusicAffectPsychophysiology2019,3.0.5,60.096970066248645,
To what extent did the music make you feel ,FRUSTRATED,30MonoWAV/30MonoF2.wav,1,2,2,2,,,,,0,11,11,1,0,0,0,3,,,3,4.50188787800289,3,2.0681831529982446,,,2,2.4296469320033793,,,006,001,2019_May_07_1511,MusicAffectPsychophysiology2019,3.0.5,60.096970066248645,
To what extent did the music make you feel ,SAD,30MonoWAV/30MonoF2.wav,1,2,2,2,,,,,0,11,11,1,0,1,1,0,,,,,,,,,1,1.2506765299986,,,006,001,2019_May_07_1511,MusicAffectPsychophysiology2019,3.0.5,60.096970066248645,
To what extent did the music make you feel ,SCARED,30MonoWAV/30MonoF2.wav,1,2,2,2,,,,,0,11,11,1,0,2,2,11,,,,,,,,,3,2.0161831750010606,,,006,001,2019_May_07_1511,MusicAffectPsychophysiology2019,3.0.5,60.096970066248645,
To what extent did the music make you feel ,ANGRY,30MonoWAV/30MonoF2.wav,1,2,2,2,,,,,0,11,11,1,0,3,3,2,,,,,,,,,1,0.9185737520019757,,,006,001,2019_May_07_1511,MusicAffectPsychophysiology2019,3.0.5,60.096970066248645,
To what extent did the music make you feel ,EXCITED,30MonoWAV/30MonoF2.wav,1,2,2,2,,,,,0,11,11,1,0,4,4,7,,,,,,,,,1,0.9026592049995088,,,006,001,2019_May_07_1511,MusicAffectPsychophysiology2019,3.0.5,60.096970066248645,
To what extent did the music make you feel ,TENDER,30MonoWAV/30MonoF2.wav,1,2,2,2,,,,,0,11,11,1,0,5,5,10,,,,,,,,,1,2.300667497998802,,,006,001,2019_May_07_1511,MusicAffectPsychophysiology2019,3.0.5,60.096970066248645,
To what extent did the music make you feel ,ANXIOUS ,30MonoWAV/30MonoF2.wav,1,2,2,2,,,,,0,11,11,1,0,6,6,1,,,,,,,,,3,1.6020292510002037,,,006,001,2019_May_07_1511,MusicAffectPsychophysiology2019,3.0.5,60.096970066248645,
To what extent did the music make you feel ,ALERT,30MonoWAV/30MonoF2.wav,1,2,2,2,,,,,0,11,11,1,0,7,7,8,,,,,,,,,3,1.617064444002608,,,006,001,2019_May_07_1511,MusicAffectPsychophysiology2019,3.0.5,60.096970066248645,
To what extent did the music make you feel ,ACTIVE,30MonoWAV/30MonoF2.wav,1,2,2,2,,,,,0,11,11,1,0,8,8,9,,,,,,,,,1,2.768069965997711,,,006,001,2019_May_07_1511,MusicAffectPsychophysiology2019,3.0.5,60.096970066248645,
To what extent did the music make you feel ,HAPPY,30MonoWAV/30MonoF2.wav,1,2,2,2,,,,,0,11,11,1,0,9,9,6,,,,,,,,,1,0.9348003459999745,,,006,001,2019_May_07_1511,MusicAffectPsychophysiology2019,3.0.5,60.096970066248645,
To what extent did the music make you feel ,ASHAMED,30MonoWAV/30MonoF2.wav,1,2,2,2,,,,,0,11,11,1,0,10,10,4,,,,,,,,,1,0.7353582739997364,,,006,001,2019_May_07_1511,MusicAffectPsychophysiology2019,3.0.5,60.096970066248645,
To what extent did the music make you feel ,GUILTY,30MonoWAV/30MonoF2.wav,1,2,2,2,,,,,0,11,11,1,0,11,11,5,,,,,,,,,1,0.6686407220004185,,,006,001,2019_May_07_1511,MusicAffectPsychophysiology2019,3.0.5,60.096970066248645,
,,30MonoWAV/30MonoF2.wav,1,2,2,2,,,,,0,11,11,1,,,,,,,,,,,,,,,,,006,001,2019_May_07_1511,MusicAffectPsychophysiology2019,3.0.5,60.096970066248645,
To what extent did the music make you feel ,ANXIOUS ,30MonoWAV/30MonoS4.wav,1,1,3,12,,,,,0,12,12,11,0,0,0,1,,,1,3.1856281219988887,3,4.052374843999132,,,2,4.318133233999106,,,006,001,2019_May_07_1511,MusicAffectPsychophysiology2019,3.0.5,60.096970066248645,
To what extent did the music make you feel ,GUILTY,30MonoWAV/30MonoS4.wav,1,1,3,12,,,,,0,12,12,11,0,1,1,5,,,,,,,,,2,1.284012428001006,,,006,001,2019_May_07_1511,MusicAffectPsychophysiology2019,3.0.5,60.096970066248645,
To what extent did the music make you feel ,SAD,30MonoWAV/30MonoS4.wav,1,1,3,12,,,,,0,12,12,11,0,2,2,0,,,,,,,,,2,1.2665792109983158,,,006,001,2019_May_07_1511,MusicAffectPsychophysiology2019,3.0.5,60.096970066248645,
To what extent did the music make you feel ,ASHAMED,30MonoWAV/30MonoS4.wav,1,1,3,12,,,,,0,12,12,11,0,3,3,4,,,,,,,,,1,1.8015525129994785,,,006,001,2019_May_07_1511,MusicAffectPsychophysiology2019,3.0.5,60.096970066248645,
To what extent did the music make you feel ,ALERT,30MonoWAV/30MonoS4.wav,1,1,3,12,,,,,0,12,12,11,0,4,4,8,,,,,,,,,1,1.0522221389983315,,,006,001,2019_May_07_1511,MusicAffectPsychophysiology2019,3.0.5,60.096970066248645,
To what extent did the music make you feel ,HAPPY,30MonoWAV/30MonoS4.wav,1,1,3,12,,,,,0,12,12,11,0,5,5,6,,,,,,,,,2,1.2904625959999976,,,006,001,2019_May_07_1511,MusicAffectPsychophysiology2019,3.0.5,60.096970066248645,
To what extent did the music make you feel ,EXCITED,30MonoWAV/30MonoS4.wav,1,1,3,12,,,,,0,12,12,11,0,6,6,7,,,,,,,,,1,0.9178200980022666,,,006,001,2019_May_07_1511,MusicAffectPsychophysiology2019,3.0.5,60.096970066248645,
To what extent did the music make you feel ,SCARED,30MonoWAV/30MonoS4.wav,1,1,3,12,,,,,0,12,12,11,0,7,7,11,,,,,,,,,1,0.8198131200006173,,,006,001,2019_May_07_1511,MusicAffectPsychophysiology2019,3.0.5,60.096970066248645,
To what extent did the music make you feel ,ACTIVE,30MonoWAV/30MonoS4.wav,1,1,3,12,,,,,0,12,12,11,0,8,8,9,,,,,,,,,1,0.8696176749981532,,,006,001,2019_May_07_1511,MusicAffectPsychophysiology2019,3.0.5,60.096970066248645,
To what extent did the music make you feel ,ANGRY,30MonoWAV/30MonoS4.wav,1,1,3,12,,,,,0,12,12,11,0,9,9,2,,,,,,,,,1,0.7187456539977575,,,006,001,2019_May_07_1511,MusicAffectPsychophysiology2019,3.0.5,60.096970066248645,
To what extent did the music make you feel ,FRUSTRATED,30MonoWAV/30MonoS4.wav,1,1,3,12,,,,,0,12,12,11,0,10,10,3,,,,,,,,,1,0.7523815300010028,,,006,001,2019_May_07_1511,MusicAffectPsychophysiology2019,3.0.5,60.096970066248645,
To what extent did the music make you feel ,TENDER,30MonoWAV/30MonoS4.wav,1,1,3,12,,,,,0,12,12,11,0,11,11,10,,,,,,,,,5,1.837877270001627,,,006,001,2019_May_07_1511,MusicAffectPsychophysiology2019,3.0.5,60.096970066248645,
,,30MonoWAV/30MonoS4.wav,1,1,3,12,,,,,0,12,12,11,,,,,,,,,,,,,,,,,006,001,2019_May_07_1511,MusicAffectPsychophysiology2019,3.0.5,60.096970066248645,
To what extent did the music make you feel ,ASHAMED,30MonoWAV/30MonoH3.wav,2,2,1,7,,,,,0,13,13,6,0,0,0,4,,,4,3.2561160509976617,3,2.255002562997106,,,1,1.8881458500000008,,,006,001,2019_May_07_1511,MusicAffectPsychophysiology2019,3.0.5,60.096970066248645,
To what extent did the music make you feel ,ANXIOUS ,30MonoWAV/30MonoH3.wav,2,2,1,7,,,,,0,13,13,6,0,1,1,1,,,,,,,,,1,1.0350052310022875,,,006,001,2019_May_07_1511,MusicAffectPsychophysiology2019,3.0.5,60.096970066248645,
To what extent did the music make you feel ,SCARED,30MonoWAV/30MonoH3.wav,2,2,1,7,,,,,0,13,13,6,0,2,2,11,,,,,,,,,1,0.8199588270035747,,,006,001,2019_May_07_1511,MusicAffectPsychophysiology2019,3.0.5,60.096970066248645,
To what extent did the music make you feel ,EXCITED,30MonoWAV/30MonoH3.wav,2,2,1,7,,,,,0,13,13,6,0,3,3,7,,,,,,,,,2,1.1403364500001771,,,006,001,2019_May_07_1511,MusicAffectPsychophysiology2019,3.0.5,60.096970066248645,
To what extent did the music make you feel ,SAD,30MonoWAV/30MonoH3.wav,2,2,1,7,,,,,0,13,13,6,0,4,4,0,,,,,,,,,1,1.8987965159976739,,,006,001,2019_May_07_1511,MusicAffectPsychophysiology2019,3.0.5,60.096970066248645,
To what extent did the music make you feel ,ACTIVE,30MonoWAV/30MonoH3.wav,2,2,1,7,,,,,0,13,13,6,0,5,5,9,,,,,,,,,2,0.967507197001396,,,006,001,2019_May_07_1511,MusicAffectPsychophysiology2019,3.0.5,60.096970066248645,
To what extent did the music make you feel ,FRUSTRATED,30MonoWAV/30MonoH3.wav,2,2,1,7,,,,,0,13,13,6,0,6,6,3,,,,,,,,,1,1.0351197909985785,,,006,001,2019_May_07_1511,MusicAffectPsychophysiology2019,3.0.5,60.096970066248645,
To what extent did the music make you feel ,GUILTY,30MonoWAV/30MonoH3.wav,2,2,1,7,,,,,0,13,13,6,0,7,7,5,,,,,,,,,1,3.0517860719992314,,,006,001,2019_May_07_1511,MusicAffectPsychophysiology2019,3.0.5,60.096970066248645,
To what extent did the music make you feel ,TENDER,30MonoWAV/30MonoH3.wav,2,2,1,7,,,,,0,13,13,6,0,8,8,10,,,,,,,,,1,1.7849935040030687,,,006,001,2019_May_07_1511,MusicAffectPsychophysiology2019,3.0.5,60.096970066248645,
To what extent did the music make you feel ,HAPPY,30MonoWAV/30MonoH3.wav,2,2,1,7,,,,,0,13,13,6,0,9,9,6,,,,,,,,,2,1.667938211998262,,,006,001,2019_May_07_1511,MusicAffectPsychophysiology2019,3.0.5,60.096970066248645,
To what extent did the music make you feel ,ANGRY,30MonoWAV/30MonoH3.wav,2,2,1,7,,,,,0,13,13,6,0,10,10,2,,,,,,,,,1,1.084798021001916,,,006,001,2019_May_07_1511,MusicAffectPsychophysiology2019,3.0.5,60.096970066248645,
To what extent did the music make you feel ,ALERT,30MonoWAV/30MonoH3.wav,2,2,1,7,,,,,0,13,13,6,0,11,11,8,,,,,,,,,4,2.0018101169989677,,,006,001,2019_May_07_1511,MusicAffectPsychophysiology2019,3.0.5,60.096970066248645,
,,30MonoWAV/30MonoH3.wav,2,2,1,7,,,,,0,13,13,6,,,,,,,,,,,,,,,,,006,001,2019_May_07_1511,MusicAffectPsychophysiology2019,3.0.5,60.096970066248645,
To what extent did the music make you feel ,TENDER,30MonoWAV/30MonoF3.wav,1,2,2,3,,,,,0,14,14,2,0,0,0,10,,,3,8.717562331999943,3,0.8691318439996394,,,1,4.2509428650009795,,,006,001,2019_May_07_1511,MusicAffectPsychophysiology2019,3.0.5,60.096970066248645,
To what extent did the music make you feel ,FRUSTRATED,30MonoWAV/30MonoF3.wav,1,2,2,3,,,,,0,14,14,2,0,1,1,3,,,,,,,,,1,1.21797791499921,,,006,001,2019_May_07_1511,MusicAffectPsychophysiology2019,3.0.5,60.096970066248645,
To what extent did the music make you feel ,GUILTY,30MonoWAV/30MonoF3.wav,1,2,2,3,,,,,0,14,14,2,0,2,2,5,,,,,,,,,1,0.6520144549976976,,,006,001,2019_May_07_1511,MusicAffectPsychophysiology2019,3.0.5,60.096970066248645,
To what extent did the music make you feel ,ALERT,30MonoWAV/30MonoF3.wav,1,2,2,3,,,,,0,14,14,2,0,3,3,8,,,,,,,,,1,0.5677565619989764,,,006,001,2019_May_07_1511,MusicAffectPsychophysiology2019,3.0.5,60.096970066248645,
To what extent did the music make you feel ,EXCITED,30MonoWAV/30MonoF3.wav,1,2,2,3,,,,,0,14,14,2,0,4,4,7,,,,,,,,,2,5.934873369998968,,,006,001,2019_May_07_1511,MusicAffectPsychophysiology2019,3.0.5,60.096970066248645,
To what extent did the music make you feel ,SAD,30MonoWAV/30MonoF3.wav,1,2,2,3,,,,,0,14,14,2,0,5,5,0,,,,,,,,,2,1.8185292790003587,,,006,001,2019_May_07_1511,MusicAffectPsychophysiology2019,3.0.5,60.096970066248645,
To what extent did the music make you feel ,ANGRY,30MonoWAV/30MonoF3.wav,1,2,2,3,,,,,0,14,14,2,0,6,6,2,,,,,,,,,1,2.3184058849983558,,,006,001,2019_May_07_1511,MusicAffectPsychophysiology2019,3.0.5,60.096970066248645,
To what extent did the music make you feel ,ANXIOUS ,30MonoWAV/30MonoF3.wav,1,2,2,3,,,,,0,14,14,2,0,7,7,1,,,,,,,,,2,1.018526378000388,,,006,001,2019_May_07_1511,MusicAffectPsychophysiology2019,3.0.5,60.096970066248645,
To what extent did the music make you feel ,SCARED,30MonoWAV/30MonoF3.wav,1,2,2,3,,,,,0,14,14,2,0,8,8,11,,,,,,,,,3,1.3019858359984937,,,006,001,2019_May_07_1511,MusicAffectPsychophysiology2019,3.0.5,60.096970066248645,
To what extent did the music make you feel ,HAPPY,30MonoWAV/30MonoF3.wav,1,2,2,3,,,,,0,14,14,2,0,9,9,6,,,,,,,,,1,1.6844234429991047,,,006,001,2019_May_07_1511,MusicAffectPsychophysiology2019,3.0.5,60.096970066248645,
To what extent did the music make you feel ,ASHAMED,30MonoWAV/30MonoF3.wav,1,2,2,3,,,,,0,14,14,2,0,10,10,4,,,,,,,,,1,0.7855261599979713,,,006,001,2019_May_07_1511,MusicAffectPsychophysiology2019,3.0.5,60.096970066248645,
To what extent did the music make you feel ,ACTIVE,30MonoWAV/30MonoF3.wav,1,2,2,3,,,,,0,14,14,2,0,11,11,9,,,,,,,,,2,1.1675125859983382,,,006,001,2019_May_07_1511,MusicAffectPsychophysiology2019,3.0.5,60.096970066248645,
,,30MonoWAV/30MonoF3.wav,1,2,2,3,,,,,0,14,14,2,,,,,,,,,,,,,,,,,006,001,2019_May_07_1511,MusicAffectPsychophysiology2019,3.0.5,60.096970066248645,
To what extent did the music make you feel ,SAD,30MonoWAV/30MonoT1.wav,2,1,4,13,,,,,0,15,15,12,0,0,0,0,,,2,6.800389533000271,3,4.427728451999428,,,2,2.792031222998048,,,006,001,2019_May_07_1511,MusicAffectPsychophysiology2019,3.0.5,60.096970066248645,
To what extent did the music make you feel ,GUILTY,30MonoWAV/30MonoT1.wav,2,1,4,13,,,,,0,15,15,12,0,1,1,5,,,,,,,,,2,1.034242567999172,,,006,001,2019_May_07_1511,MusicAffectPsychophysiology2019,3.0.5,60.096970066248645,
To what extent did the music make you feel ,TENDER,30MonoWAV/30MonoT1.wav,2,1,4,13,,,,,0,15,15,12,0,2,2,10,,,,,,,,,4,2.1190367140006856,,,006,001,2019_May_07_1511,MusicAffectPsychophysiology2019,3.0.5,60.096970066248645,
To what extent did the music make you feel ,SCARED,30MonoWAV/30MonoT1.wav,2,1,4,13,,,,,0,15,15,12,0,3,3,11,,,,,,,,,2,0.8850611960006063,,,006,001,2019_May_07_1511,MusicAffectPsychophysiology2019,3.0.5,60.096970066248645,
To what extent did the music make you feel ,EXCITED,30MonoWAV/30MonoT1.wav,2,1,4,13,,,,,0,15,15,12,0,4,4,7,,,,,,,,,1,1.967950860998826,,,006,001,2019_May_07_1511,MusicAffectPsychophysiology2019,3.0.5,60.096970066248645,
To what extent did the music make you feel ,HAPPY,30MonoWAV/30MonoT1.wav,2,1,4,13,,,,,0,15,15,12,0,5,5,6,,,,,,,,,2,3.4180008959992847,,,006,001,2019_May_07_1511,MusicAffectPsychophysiology2019,3.0.5,60.096970066248645,
To what extent did the music make you feel ,ALERT,30MonoWAV/30MonoT1.wav,2,1,4,13,,,,,0,15,15,12,0,6,6,8,,,,,,,,,1,1.1497573069973441,,,006,001,2019_May_07_1511,MusicAffectPsychophysiology2019,3.0.5,60.096970066248645,
To what extent did the music make you feel ,ANXIOUS ,30MonoWAV/30MonoT1.wav,2,1,4,13,,,,,0,15,15,12,0,7,7,1,,,,,,,,,2,2.2175122640001064,,,006,001,2019_May_07_1511,MusicAffectPsychophysiology2019,3.0.5,60.096970066248645,
To what extent did the music make you feel ,ANGRY,30MonoWAV/30MonoT1.wav,2,1,4,13,,,,,0,15,15,12,0,8,8,2,,,,,,,,,1,0.7341128820007725,,,006,001,2019_May_07_1511,MusicAffectPsychophysiology2019,3.0.5,60.096970066248645,
To what extent did the music make you feel ,FRUSTRATED,30MonoWAV/30MonoT1.wav,2,1,4,13,,,,,0,15,15,12,0,9,9,3,,,,,,,,,1,0.884323599999334,,,006,001,2019_May_07_1511,MusicAffectPsychophysiology2019,3.0.5,60.096970066248645,
To what extent did the music make you feel ,ACTIVE,30MonoWAV/30MonoT1.wav,2,1,4,13,,,,,0,15,15,12,0,10,10,9,,,,,,,,,1,1.1843624310022278,,,006,001,2019_May_07_1511,MusicAffectPsychophysiology2019,3.0.5,60.096970066248645,
To what extent did the music make you feel ,ASHAMED,30MonoWAV/30MonoT1.wav,2,1,4,13,,,,,0,15,15,12,0,11,11,4,,,,,,,,,1,1.5688256539979193,,,006,001,2019_May_07_1511,MusicAffectPsychophysiology2019,3.0.5,60.096970066248645,
,,30MonoWAV/30MonoT1.wav,2,1,4,13,,,,,0,15,15,12,,,,,,,,,,,,,,,,,006,001,2019_May_07_1511,MusicAffectPsychophysiology2019,3.0.5,60.096970066248645,
To what extent did the music make you feel ,GUILTY,30MonoWAV/30MonoH1.wav,2,2,1,5,,,,,1,0,16,4,0,0,0,5,,,3,3.0851427340021473,5,2.0019891729971278,,,1,1.2185596790004638,,,006,001,2019_May_07_1511,MusicAffectPsychophysiology2019,3.0.5,60.096970066248645,
To what extent did the music make you feel ,ACTIVE,30MonoWAV/30MonoH1.wav,2,2,1,5,,,,,1,0,16,4,0,1,1,9,,,,,,,,,3,2.299596693002968,,,006,001,2019_May_07_1511,MusicAffectPsychophysiology2019,3.0.5,60.096970066248645,
To what extent did the music make you feel ,FRUSTRATED,30MonoWAV/30MonoH1.wav,2,2,1,5,,,,,1,0,16,4,0,2,2,3,,,,,,,,,1,0.7018564439968031,,,006,001,2019_May_07_1511,MusicAffectPsychophysiology2019,3.0.5,60.096970066248645,
To what extent did the music make you feel ,ANGRY,30MonoWAV/30MonoH1.wav,2,2,1,5,,,,,1,0,16,4,0,3,3,2,,,,,,,,,1,0.6833899340017524,,,006,001,2019_May_07_1511,MusicAffectPsychophysiology2019,3.0.5,60.096970066248645,
To what extent did the music make you feel ,EXCITED,30MonoWAV/30MonoH1.wav,2,2,1,5,,,,,1,0,16,4,0,4,4,7,,,,,,,,,2,1.2016662620007992,,,006,001,2019_May_07_1511,MusicAffectPsychophysiology2019,3.0.5,60.096970066248645,
To what extent did the music make you feel ,SCARED,30MonoWAV/30MonoH1.wav,2,2,1,5,,,,,1,0,16,4,0,5,5,11,,,,,,,,,1,0.9356388179985515,,,006,001,2019_May_07_1511,MusicAffectPsychophysiology2019,3.0.5,60.096970066248645,
To what extent did the music make you feel ,ANXIOUS ,30MonoWAV/30MonoH1.wav,2,2,1,5,,,,,1,0,16,4,0,6,6,1,,,,,,,,,1,1.8846884849990602,,,006,001,2019_May_07_1511,MusicAffectPsychophysiology2019,3.0.5,60.096970066248645,
To what extent did the music make you feel ,ALERT,30MonoWAV/30MonoH1.wav,2,2,1,5,,,,,1,0,16,4,0,7,7,8,,,,,,,,,2,1.484922417999769,,,006,001,2019_May_07_1511,MusicAffectPsychophysiology2019,3.0.5,60.096970066248645,
To what extent did the music make you feel ,SAD,30MonoWAV/30MonoH1.wav,2,2,1,5,,,,,1,0,16,4,0,8,8,0,,,,,,,,,1,1.8841999409996788,,,006,001,2019_May_07_1511,MusicAffectPsychophysiology2019,3.0.5,60.096970066248645,
To what extent did the music make you feel ,ASHAMED,30MonoWAV/30MonoH1.wav,2,2,1,5,,,,,1,0,16,4,0,9,9,4,,,,,,,,,2,0.901657084999897,,,006,001,2019_May_07_1511,MusicAffectPsychophysiology2019,3.0.5,60.096970066248645,
To what extent did the music make you feel ,TENDER,30MonoWAV/30MonoH1.wav,2,2,1,5,,,,,1,0,16,4,0,10,10,10,,,,,,,,,3,3.1665788460013573,,,006,001,2019_May_07_1511,MusicAffectPsychophysiology2019,3.0.5,60.096970066248645,
To what extent did the music make you feel ,HAPPY,30MonoWAV/30MonoH1.wav,2,2,1,5,,,,,1,0,16,4,0,11,11,6,,,,,,,,,5,1.9853185239990125,,,006,001,2019_May_07_1511,MusicAffectPsychophysiology2019,3.0.5,60.096970066248645,
,,30MonoWAV/30MonoH1.wav,2,2,1,5,,,,,1,0,16,4,,,,,,,,,,,,,,,,,006,001,2019_May_07_1511,MusicAffectPsychophysiology2019,3.0.5,60.096970066248645,
To what extent did the music make you feel ,SAD,30MonoWAV/30MonoF3.wav,1,2,2,3,,,,,1,1,17,2,0,0,0,0,,,2,5.023978437999176,2,2.2222466169987456,,,1,2.919541120998474,,,006,001,2019_May_07_1511,MusicAffectPsychophysiology2019,3.0.5,60.096970066248645,
To what extent did the music make you feel ,TENDER,30MonoWAV/30MonoF3.wav,1,2,2,3,,,,,1,1,17,2,0,1,1,10,,,,,,,,,3,1.3515604099993652,,,006,001,2019_May_07_1511,MusicAffectPsychophysiology2019,3.0.5,60.096970066248645,
To what extent did the music make you feel ,ALERT,30MonoWAV/30MonoF3.wav,1,2,2,3,,,,,1,1,17,2,0,2,2,8,,,,,,,,,2,1.6685448440002801,,,006,001,2019_May_07_1511,MusicAffectPsychophysiology2019,3.0.5,60.096970066248645,
To what extent did the music make you feel ,EXCITED,30MonoWAV/30MonoF3.wav,1,2,2,3,,,,,1,1,17,2,0,3,3,7,,,,,,,,,1,1.1849858909990871,,,006,001,2019_May_07_1511,MusicAffectPsychophysiology2019,3.0.5,60.096970066248645,
To what extent did the music make you feel ,SCARED,30MonoWAV/30MonoF3.wav,1,2,2,3,,,,,1,1,17,2,0,4,4,11,,,,,,,,,1,0.8192175500007579,,,006,001,2019_May_07_1511,MusicAffectPsychophysiology2019,3.0.5,60.096970066248645,
To what extent did the music make you feel ,ASHAMED,30MonoWAV/30MonoF3.wav,1,2,2,3,,,,,1,1,17,2,0,5,5,4,,,,,,,,,1,1.301535189999413,,,006,001,2019_May_07_1511,MusicAffectPsychophysiology2019,3.0.5,60.096970066248645,
To what extent did the music make you feel ,ANGRY,30MonoWAV/30MonoF3.wav,1,2,2,3,,,,,1,1,17,2,0,6,6,2,,,,,,,,,1,1.5829010900015419,,,006,001,2019_May_07_1511,MusicAffectPsychophysiology2019,3.0.5,60.096970066248645,
To what extent did the music make you feel ,FRUSTRATED,30MonoWAV/30MonoF3.wav,1,2,2,3,,,,,1,1,17,2,0,7,7,3,,,,,,,,,1,0.9188417540026421,,,006,001,2019_May_07_1511,MusicAffectPsychophysiology2019,3.0.5,60.096970066248645,
To what extent did the music make you feel ,ANXIOUS ,30MonoWAV/30MonoF3.wav,1,2,2,3,,,,,1,1,17,2,0,8,8,1,,,,,,,,,2,3.6016768739973486,,,006,001,2019_May_07_1511,MusicAffectPsychophysiology2019,3.0.5,60.096970066248645,
To what extent did the music make you feel ,HAPPY,30MonoWAV/30MonoF3.wav,1,2,2,3,,,,,1,1,17,2,0,9,9,6,,,,,,,,,1,0.9844457590006641,,,006,001,2019_May_07_1511,MusicAffectPsychophysiology2019,3.0.5,60.096970066248645,
To what extent did the music make you feel ,GUILTY,30MonoWAV/30MonoF3.wav,1,2,2,3,,,,,1,1,17,2,0,10,10,5,,,,,,,,,1,0.7013606679975055,,,006,001,2019_May_07_1511,MusicAffectPsychophysiology2019,3.0.5,60.096970066248645,
To what extent did the music make you feel ,ACTIVE,30MonoWAV/30MonoF3.wav,1,2,2,3,,,,,1,1,17,2,0,11,11,9,,,,,,,,,2,1.4348308830012684,,,006,001,2019_May_07_1511,MusicAffectPsychophysiology2019,3.0.5,60.096970066248645,
,,30MonoWAV/30MonoF3.wav,1,2,2,3,,,,,1,1,17,2,,,,,,,,,,,,,,,,,006,001,2019_May_07_1511,MusicAffectPsychophysiology2019,3.0.5,60.096970066248645,
To what extent did the music make you feel ,HAPPY,30MonoWAV/30MonoF4.wav,1,2,2,4,,,,,1,2,18,3,0,0,0,6,,,4,2.951814445998025,2,2.3019147150007484,,,2,1.8193837740000163,,,006,001,2019_May_07_1511,MusicAffectPsychophysiology2019,3.0.5,60.096970066248645,
To what extent did the music make you feel ,ALERT,30MonoWAV/30MonoF4.wav,1,2,2,4,,,,,1,2,18,3,0,1,1,8,,,,,,,,,3,1.483547258998442,,,006,001,2019_May_07_1511,MusicAffectPsychophysiology2019,3.0.5,60.096970066248645,
To what extent did the music make you feel ,EXCITED,30MonoWAV/30MonoF4.wav,1,2,2,4,,,,,1,2,18,3,0,2,2,7,,,,,,,,,4,1.8847425109997857,,,006,001,2019_May_07_1511,MusicAffectPsychophysiology2019,3.0.5,60.096970066248645,
To what extent did the music make you feel ,ACTIVE,30MonoWAV/30MonoF4.wav,1,2,2,4,,,,,1,2,18,3,0,3,3,9,,,,,,,,,3,1.6997342189970368,,,006,001,2019_May_07_1511,MusicAffectPsychophysiology2019,3.0.5,60.096970066248645,
To what extent did the music make you feel ,ANXIOUS ,30MonoWAV/30MonoF4.wav,1,2,2,4,,,,,1,2,18,3,0,4,4,1,,,,,,,,,3,1.3858520400026464,,,006,001,2019_May_07_1511,MusicAffectPsychophysiology2019,3.0.5,60.096970066248645,
To what extent did the music make you feel ,ASHAMED,30MonoWAV/30MonoF4.wav,1,2,2,4,,,,,1,2,18,3,0,5,5,4,,,,,,,,,1,1.7999277409981005,,,006,001,2019_May_07_1511,MusicAffectPsychophysiology2019,3.0.5,60.096970066248645,
To what extent did the music make you feel ,GUILTY,30MonoWAV/30MonoF4.wav,1,2,2,4,,,,,1,2,18,3,0,6,6,5,,,,,,,,,1,1.3513653859990882,,,006,001,2019_May_07_1511,MusicAffectPsychophysiology2019,3.0.5,60.096970066248645,
To what extent did the music make you feel ,ANGRY,30MonoWAV/30MonoF4.wav,1,2,2,4,,,,,1,2,18,3,0,7,7,2,,,,,,,,,1,1.0181265369974426,,,006,001,2019_May_07_1511,MusicAffectPsychophysiology2019,3.0.5,60.096970066248645,
To what extent did the music make you feel ,FRUSTRATED,30MonoWAV/30MonoF4.wav,1,2,2,4,,,,,1,2,18,3,0,8,8,3,,,,,,,,,1,1.250453581000329,,,006,001,2019_May_07_1511,MusicAffectPsychophysiology2019,3.0.5,60.096970066248645,
To what extent did the music make you feel ,SCARED,30MonoWAV/30MonoF4.wav,1,2,2,4,,,,,1,2,18,3,0,9,9,11,,,,,,,,,1,1.2842945980009972,,,006,001,2019_May_07_1511,MusicAffectPsychophysiology2019,3.0.5,60.096970066248645,
To what extent did the music make you feel ,SAD,30MonoWAV/30MonoF4.wav,1,2,2,4,,,,,1,2,18,3,0,10,10,0,,,,,,,,,1,2.402115397999296,,,006,001,2019_May_07_1511,MusicAffectPsychophysiology2019,3.0.5,60.096970066248645,
To what extent did the music make you feel ,TENDER,30MonoWAV/30MonoF4.wav,1,2,2,4,,,,,1,2,18,3,0,11,11,10,,,,,,,,,2,3.451387927001633,,,006,001,2019_May_07_1511,MusicAffectPsychophysiology2019,3.0.5,60.096970066248645,
,,30MonoWAV/30MonoF4.wav,1,2,2,4,,,,,1,2,18,3,,,,,,,,,,,,,,,,,006,001,2019_May_07_1511,MusicAffectPsychophysiology2019,3.0.5,60.096970066248645,
To what extent did the music make you feel ,TENDER,30MonoWAV/30MonoS3.wav,1,1,3,11,,,,,1,3,19,10,0,0,0,10,,,1,2.901172960999247,2,1.8853753059993323,,,3,1.650510473002214,,,006,001,2019_May_07_1511,MusicAffectPsychophysiology2019,3.0.5,60.096970066248645,
To what extent did the music make you feel ,FRUSTRATED,30MonoWAV/30MonoS3.wav,1,1,3,11,,,,,1,3,19,10,0,1,1,3,,,,,,,,,1,4.36792499099829,,,006,001,2019_May_07_1511,MusicAffectPsychophysiology2019,3.0.5,60.096970066248645,
To what extent did the music make you feel ,HAPPY,30MonoWAV/30MonoS3.wav,1,1,3,11,,,,,1,3,19,10,0,2,2,6,,,,,,,,,2,1.2499671089972253,,,006,001,2019_May_07_1511,MusicAffectPsychophysiology2019,3.0.5,60.096970066248645,
To what extent did the music make you feel ,ALERT,30MonoWAV/30MonoS3.wav,1,1,3,11,,,,,1,3,19,10,0,3,3,8,,,,,,,,,1,0.918934626999544,,,006,001,2019_May_07_1511,MusicAffectPsychophysiology2019,3.0.5,60.096970066248645,
To what extent did the music make you feel ,ANXIOUS ,30MonoWAV/30MonoS3.wav,1,1,3,11,,,,,1,3,19,10,0,4,4,1,,,,,,,,,2,1.6013426479985355,,,006,001,2019_May_07_1511,MusicAffectPsychophysiology2019,3.0.5,60.096970066248645,
To what extent did the music make you feel ,ANGRY,30MonoWAV/30MonoS3.wav,1,1,3,11,,,,,1,3,19,10,0,5,5,2,,,,,,,,,1,0.8840148340023006,,,006,001,2019_May_07_1511,MusicAffectPsychophysiology2019,3.0.5,60.096970066248645,
To what extent did the music make you feel ,ASHAMED,30MonoWAV/30MonoS3.wav,1,1,3,11,,,,,1,3,19,10,0,6,6,4,,,,,,,,,1,1.0684532150007726,,,006,001,2019_May_07_1511,MusicAffectPsychophysiology2019,3.0.5,60.096970066248645,
To what extent did the music make you feel ,SAD,30MonoWAV/30MonoS3.wav,1,1,3,11,,,,,1,3,19,10,0,7,7,0,,,,,,,,,1,0.5531279810020351,,,006,001,2019_May_07_1511,MusicAffectPsychophysiology2019,3.0.5,60.096970066248645,
To what extent did the music make you feel ,EXCITED,30MonoWAV/30MonoS3.wav,1,1,3,11,,,,,1,3,19,10,0,8,8,7,,,,,,,,,1,1.6522784830012824,,,006,001,2019_May_07_1511,MusicAffectPsychophysiology2019,3.0.5,60.096970066248645,
To what extent did the music make you feel ,ACTIVE,30MonoWAV/30MonoS3.wav,1,1,3,11,,,,,1,3,19,10,0,9,9,9,,,,,,,,,1,0.669022081001458,,,006,001,2019_May_07_1511,MusicAffectPsychophysiology2019,3.0.5,60.096970066248645,
To what extent did the music make you feel ,GUILTY,30MonoWAV/30MonoS3.wav,1,1,3,11,,,,,1,3,19,10,0,10,10,5,,,,,,,,,1,0.6683051489999343,,,006,001,2019_May_07_1511,MusicAffectPsychophysiology2019,3.0.5,60.096970066248645,
To what extent did the music make you feel ,SCARED,30MonoWAV/30MonoS3.wav,1,1,3,11,,,,,1,3,19,10,0,11,11,11,,,,,,,,,1,0.9855275039990374,,,006,001,2019_May_07_1511,MusicAffectPsychophysiology2019,3.0.5,60.096970066248645,
,,30MonoWAV/30MonoS3.wav,1,1,3,11,,,,,1,3,19,10,,,,,,,,,,,,,,,,,006,001,2019_May_07_1511,MusicAffectPsychophysiology2019,3.0.5,60.096970066248645,
To what extent did the music make you feel ,ACTIVE,30MonoWAV/30MonoS1.wav,1,1,3,9,,,,,1,4,20,8,0,0,0,9,,,1,2.9181621999996423,2,2.3012917439991725,,,1,2.402298042001348,,,006,001,2019_May_07_1511,MusicAffectPsychophysiology2019,3.0.5,60.096970066248645,
To what extent did the music make you feel ,SAD,30MonoWAV/30MonoS1.wav,1,1,3,9,,,,,1,4,20,8,0,1,1,0,,,,,,,,,2,1.0353485380001075,,,006,001,2019_May_07_1511,MusicAffectPsychophysiology2019,3.0.5,60.096970066248645,
To what extent did the music make you feel ,HAPPY,30MonoWAV/30MonoS1.wav,1,1,3,9,,,,,1,4,20,8,0,2,2,6,,,,,,,,,1,0.7026980070004356,,,006,001,2019_May_07_1511,MusicAffectPsychophysiology2019,3.0.5,60.096970066248645,
To what extent did the music make you feel ,SCARED,30MonoWAV/30MonoS1.wav,1,1,3,9,,,,,1,4,20,8,0,3,3,11,,,,,,,,,2,1.9355109710013494,,,006,001,2019_May_07_1511,MusicAffectPsychophysiology2019,3.0.5,60.096970066248645,
To what extent did the music make you feel ,FRUSTRATED,30MonoWAV/30MonoS1.wav,1,1,3,9,,,,,1,4,20,8,0,4,4,3,,,,,,,,,1,1.0005874300004507,,,006,001,2019_May_07_1511,MusicAffectPsychophysiology2019,3.0.5,60.096970066248645,
To what extent did the music make you feel ,TENDER,30MonoWAV/30MonoS1.wav,1,1,3,9,,,,,1,4,20,8,0,5,5,10,,,,,,,,,4,1.4345191969987354,,,006,001,2019_May_07_1511,MusicAffectPsychophysiology2019,3.0.5,60.096970066248645,
To what extent did the music make you feel ,EXCITED,30MonoWAV/30MonoS1.wav,1,1,3,9,,,,,1,4,20,8,0,6,6,7,,,,,,,,,1,1.0850527980001061,,,006,001,2019_May_07_1511,MusicAffectPsychophysiology2019,3.0.5,60.096970066248645,
To what extent did the music make you feel ,ANGRY,30MonoWAV/30MonoS1.wav,1,1,3,9,,,,,1,4,20,8,0,7,7,2,,,,,,,,,1,1.4360117839969462,,,006,001,2019_May_07_1511,MusicAffectPsychophysiology2019,3.0.5,60.096970066248645,
To what extent did the music make you feel ,ANXIOUS ,30MonoWAV/30MonoS1.wav,1,1,3,9,,,,,1,4,20,8,0,8,8,1,,,,,,,,,2,1.3663998889969662,,,006,001,2019_May_07_1511,MusicAffectPsychophysiology2019,3.0.5,60.096970066248645,
To what extent did the music make you feel ,GUILTY,30MonoWAV/30MonoS1.wav,1,1,3,9,,,,,1,4,20,8,0,9,9,5,,,,,,,,,1,0.834552314998291,,,006,001,2019_May_07_1511,MusicAffectPsychophysiology2019,3.0.5,60.096970066248645,
To what extent did the music make you feel ,ASHAMED,30MonoWAV/30MonoS1.wav,1,1,3,9,,,,,1,4,20,8,0,10,10,4,,,,,,,,,1,1.2359067440011131,,,006,001,2019_May_07_1511,MusicAffectPsychophysiology2019,3.0.5,60.096970066248645,
To what extent did the music make you feel ,ALERT,30MonoWAV/30MonoS1.wav,1,1,3,9,,,,,1,4,20,8,0,11,11,8,,,,,,,,,1,1.2852591179980664,,,006,001,2019_May_07_1511,MusicAffectPsychophysiology2019,3.0.5,60.096970066248645,
,,30MonoWAV/30MonoS1.wav,1,1,3,9,,,,,1,4,20,8,,,,,,,,,,,,,,,,,006,001,2019_May_07_1511,MusicAffectPsychophysiology2019,3.0.5,60.096970066248645,
To what extent did the music make you feel ,GUILTY,30MonoWAV/30MonoH4.wav,2,2,1,8,,,,,1,5,21,7,0,0,0,5,,,2,3.6344657560002815,3,2.0013492929974745,,,2,2.5009315370007243,,,006,001,2019_May_07_1511,MusicAffectPsychophysiology2019,3.0.5,60.096970066248645,
To what extent did the music make you feel ,TENDER,30MonoWAV/30MonoH4.wav,2,2,1,8,,,,,1,5,21,7,0,1,1,10,,,,,,,,,2,1.4185751889999665,,,006,001,2019_May_07_1511,MusicAffectPsychophysiology2019,3.0.5,60.096970066248645,
To what extent did the music make you feel ,ANGRY,30MonoWAV/30MonoH4.wav,2,2,1,8,,,,,1,5,21,7,0,2,2,2,,,,,,,,,1,1.1334945050002716,,,006,001,2019_May_07_1511,MusicAffectPsychophysiology2019,3.0.5,60.096970066248645,
To what extent did the music make you feel ,ANXIOUS ,30MonoWAV/30MonoH4.wav,2,2,1,8,,,,,1,5,21,7,0,3,3,1,,,,,,,,,1,1.2177285209982074,,,006,001,2019_May_07_1511,MusicAffectPsychophysiology2019,3.0.5,60.096970066248645,
To what extent did the music make you feel ,ALERT,30MonoWAV/30MonoH4.wav,2,2,1,8,,,,,1,5,21,7,0,4,4,8,,,,,,,,,1,1.102564433000225,,,006,001,2019_May_07_1511,MusicAffectPsychophysiology2019,3.0.5,60.096970066248645,
To what extent did the music make you feel ,ACTIVE,30MonoWAV/30MonoH4.wav,2,2,1,8,,,,,1,5,21,7,0,5,5,9,,,,,,,,,1,4.283644402999926,,,006,001,2019_May_07_1511,MusicAffectPsychophysiology2019,3.0.5,60.096970066248645,
To what extent did the music make you feel ,HAPPY,30MonoWAV/30MonoH4.wav,2,2,1,8,,,,,1,5,21,7,0,6,6,6,,,,,,,,,2,1.00222514699999,,,006,001,2019_May_07_1511,MusicAffectPsychophysiology2019,3.0.5,60.096970066248645,
To what extent did the music make you feel ,SCARED,30MonoWAV/30MonoH4.wav,2,2,1,8,,,,,1,5,21,7,0,7,7,11,,,,,,,,,1,0.8022092350001913,,,006,001,2019_May_07_1511,MusicAffectPsychophysiology2019,3.0.5,60.096970066248645,
To what extent did the music make you feel ,ASHAMED,30MonoWAV/30MonoH4.wav,2,2,1,8,,,,,1,5,21,7,0,8,8,4,,,,,,,,,1,1.3011239389998082,,,006,001,2019_May_07_1511,MusicAffectPsychophysiology2019,3.0.5,60.096970066248645,
To what extent did the music make you feel ,EXCITED,30MonoWAV/30MonoH4.wav,2,2,1,8,,,,,1,5,21,7,0,9,9,7,,,,,,,,,2,2.6019452670007013,,,006,001,2019_May_07_1511,MusicAffectPsychophysiology2019,3.0.5,60.096970066248645,
To what extent did the music make you feel ,SAD,30MonoWAV/30MonoH4.wav,2,2,1,8,,,,,1,5,21,7,0,10,10,0,,,,,,,,,1,0.6689537700003712,,,006,001,2019_May_07_1511,MusicAffectPsychophysiology2019,3.0.5,60.096970066248645,
To what extent did the music make you feel ,FRUSTRATED,30MonoWAV/30MonoH4.wav,2,2,1,8,,,,,1,5,21,7,0,11,11,3,,,,,,,,,1,0.7855036159999145,,,006,001,2019_May_07_1511,MusicAffectPsychophysiology2019,3.0.5,60.096970066248645,
,,30MonoWAV/30MonoH4.wav,2,2,1,8,,,,,1,5,21,7,,,,,,,,,,,,,,,,,006,001,2019_May_07_1511,MusicAffectPsychophysiology2019,3.0.5,60.096970066248645,
To what extent did the music make you feel ,ASHAMED,30MonoWAV/30MonoT1.wav,2,1,4,13,,,,,1,6,22,12,0,0,0,4,,,1,3.1264625170006184,1,1.6020645130010962,,,2,3.284199091998744,,,006,001,2019_May_07_1511,MusicAffectPsychophysiology2019,3.0.5,60.096970066248645,
To what extent did the music make you feel ,GUILTY,30MonoWAV/30MonoT1.wav,2,1,4,13,,,,,1,6,22,12,0,1,1,5,,,,,,,,,2,1.0180195089997142,,,006,001,2019_May_07_1511,MusicAffectPsychophysiology2019,3.0.5,60.096970066248645,
To what extent did the music make you feel ,HAPPY,30MonoWAV/30MonoT1.wav,2,1,4,13,,,,,1,6,22,12,0,2,2,6,,,,,,,,,1,1.9665361529987422,,,006,001,2019_May_07_1511,MusicAffectPsychophysiology2019,3.0.5,60.096970066248645,
To what extent did the music make you feel ,ALERT,30MonoWAV/30MonoT1.wav,2,1,4,13,,,,,1,6,22,12,0,3,3,8,,,,,,,,,1,1.218383638002706,,,006,001,2019_May_07_1511,MusicAffectPsychophysiology2019,3.0.5,60.096970066248645,
To what extent did the music make you feel ,FRUSTRATED,30MonoWAV/30MonoT1.wav,2,1,4,13,,,,,1,6,22,12,0,4,4,3,,,,,,,,,1,1.0851208719977876,,,006,001,2019_May_07_1511,MusicAffectPsychophysiology2019,3.0.5,60.096970066248645,
To what extent did the music make you feel ,ANGRY,30MonoWAV/30MonoT1.wav,2,1,4,13,,,,,1,6,22,12,0,5,5,2,,,,,,,,,1,0.8678629080022802,,,006,001,2019_May_07_1511,MusicAffectPsychophysiology2019,3.0.5,60.096970066248645,
To what extent did the music make you feel ,ANXIOUS ,30MonoWAV/30MonoT1.wav,2,1,4,13,,,,,1,6,22,12,0,6,6,1,,,,,,,,,1,0.9194618260007701,,,006,001,2019_May_07_1511,MusicAffectPsychophysiology2019,3.0.5,60.096970066248645,
To what extent did the music make you feel ,ACTIVE,30MonoWAV/30MonoT1.wav,2,1,4,13,,,,,1,6,22,12,0,7,7,9,,,,,,,,,1,4.785185826000088,,,006,001,2019_May_07_1511,MusicAffectPsychophysiology2019,3.0.5,60.096970066248645,
To what extent did the music make you feel ,SAD,30MonoWAV/30MonoT1.wav,2,1,4,13,,,,,1,6,22,12,0,8,8,0,,,,,,,,,2,1.2346248239991837,,,006,001,2019_May_07_1511,MusicAffectPsychophysiology2019,3.0.5,60.096970066248645,
To what extent did the music make you feel ,TENDER,30MonoWAV/30MonoT1.wav,2,1,4,13,,,,,1,6,22,12,0,9,9,10,,,,,,,,,3,1.2166940169990994,,,006,001,2019_May_07_1511,MusicAffectPsychophysiology2019,3.0.5,60.096970066248645,
To what extent did the music make you feel ,EXCITED,30MonoWAV/30MonoT1.wav,2,1,4,13,,,,,1,6,22,12,0,10,10,7,,,,,,,,,1,1.1018068489975121,,,006,001,2019_May_07_1511,MusicAffectPsychophysiology2019,3.0.5,60.096970066248645,
To what extent did the music make you feel ,SCARED,30MonoWAV/30MonoT1.wav,2,1,4,13,,,,,1,6,22,12,0,11,11,11,,,,,,,,,1,1.335066948999156,,,006,001,2019_May_07_1511,MusicAffectPsychophysiology2019,3.0.5,60.096970066248645,
,,30MonoWAV/30MonoT1.wav,2,1,4,13,,,,,1,6,22,12,,,,,,,,,,,,,,,,,006,001,2019_May_07_1511,MusicAffectPsychophysiology2019,3.0.5,60.096970066248645,
To what extent did the music make you feel ,EXCITED,30MonoWAV/30MonoT2.wav,2,1,4,14,,,,,1,7,23,13,0,0,0,7,,,1,4.151885689003393,4,1.4687915400027123,,,1,2.1343888849987707,,,006,001,2019_May_07_1511,MusicAffectPsychophysiology2019,3.0.5,60.096970066248645,
To what extent did the music make you feel ,ANXIOUS ,30MonoWAV/30MonoT2.wav,2,1,4,14,,,,,1,7,23,13,0,1,1,1,,,,,,,,,1,2.3021185870020417,,,006,001,2019_May_07_1511,MusicAffectPsychophysiology2019,3.0.5,60.096970066248645,
To what extent did the music make you feel ,TENDER,30MonoWAV/30MonoT2.wav,2,1,4,14,,,,,1,7,23,13,0,2,2,10,,,,,,,,,4,1.6014410860007047,,,006,001,2019_May_07_1511,MusicAffectPsychophysiology2019,3.0.5,60.096970066248645,
To what extent did the music make you feel ,ALERT,30MonoWAV/30MonoT2.wav,2,1,4,14,,,,,1,7,23,13,0,3,3,8,,,,,,,,,1,2.4508140179968905,,,006,001,2019_May_07_1511,MusicAffectPsychophysiology2019,3.0.5,60.096970066248645,
To what extent did the music make you feel ,FRUSTRATED,30MonoWAV/30MonoT2.wav,2,1,4,14,,,,,1,7,23,13,0,4,4,3,,,,,,,,,1,2.033742636998795,,,006,001,2019_May_07_1511,MusicAffectPsychophysiology2019,3.0.5,60.096970066248645,
To what extent did the music make you feel ,HAPPY,30MonoWAV/30MonoT2.wav,2,1,4,14,,,,,1,7,23,13,0,5,5,6,,,,,,,,,3,1.3499720679974416,,,006,001,2019_May_07_1511,MusicAffectPsychophysiology2019,3.0.5,60.096970066248645,
To what extent did the music make you feel ,ACTIVE,30MonoWAV/30MonoT2.wav,2,1,4,14,,,,,1,7,23,13,0,6,6,9,,,,,,,,,1,2.602512019999267,,,006,001,2019_May_07_1511,MusicAffectPsychophysiology2019,3.0.5,60.096970066248645,
To what extent did the music make you feel ,ANGRY,30MonoWAV/30MonoT2.wav,2,1,4,14,,,,,1,7,23,13,0,7,7,2,,,,,,,,,1,1.3015377650008304,,,006,001,2019_May_07_1511,MusicAffectPsychophysiology2019,3.0.5,60.096970066248645,
To what extent did the music make you feel ,SCARED,30MonoWAV/30MonoT2.wav,2,1,4,14,,,,,1,7,23,13,0,8,8,11,,,,,,,,,1,1.0355611529994349,,,006,001,2019_May_07_1511,MusicAffectPsychophysiology2019,3.0.5,60.096970066248645,
To what extent did the music make you feel ,SAD,30MonoWAV/30MonoT2.wav,2,1,4,14,,,,,1,7,23,13,0,9,9,0,,,,,,,,,1,1.0185380420007277,,,006,001,2019_May_07_1511,MusicAffectPsychophysiology2019,3.0.5,60.096970066248645,
To what extent did the music make you feel ,GUILTY,30MonoWAV/30MonoT2.wav,2,1,4,14,,,,,1,7,23,13,0,10,10,5,,,,,,,,,1,1.0689942820026772,,,006,001,2019_May_07_1511,MusicAffectPsychophysiology2019,3.0.5,60.096970066248645,
To what extent did the music make you feel ,ASHAMED,30MonoWAV/30MonoT2.wav,2,1,4,14,,,,,1,7,23,13,0,11,11,4,,,,,,,,,1,0.6680812690028688,,,006,001,2019_May_07_1511,MusicAffectPsychophysiology2019,3.0.5,60.096970066248645,
,,30MonoWAV/30MonoT2.wav,2,1,4,14,,,,,1,7,23,13,,,,,,,,,,,,,,,,,006,001,2019_May_07_1511,MusicAffectPsychophysiology2019,3.0.5,60.096970066248645,
To what extent did the music make you feel ,GUILTY,30MonoWAV/30MonoS2.wav,1,1,3,10,,,,,1,8,24,9,0,0,0,5,,,1,2.7516315180000674,1,1.9519029049988603,,,1,0.7691538540020701,,,006,001,2019_May_07_1511,MusicAffectPsychophysiology2019,3.0.5,60.096970066248645,
To what extent did the music make you feel ,FRUSTRATED,30MonoWAV/30MonoS2.wav,1,1,3,10,,,,,1,8,24,9,0,1,1,3,,,,,,,,,1,0.7020650430022215,,,006,001,2019_May_07_1511,MusicAffectPsychophysiology2019,3.0.5,60.096970066248645,
To what extent did the music make you feel ,SCARED,30MonoWAV/30MonoS2.wav,1,1,3,10,,,,,1,8,24,9,0,2,2,11,,,,,,,,,1,0.884451120000449,,,006,001,2019_May_07_1511,MusicAffectPsychophysiology2019,3.0.5,60.096970066248645,
To what extent did the music make you feel ,ACTIVE,30MonoWAV/30MonoS2.wav,1,1,3,10,,,,,1,8,24,9,0,3,3,9,,,,,,,,,1,1.1513921599980677,,,006,001,2019_May_07_1511,MusicAffectPsychophysiology2019,3.0.5,60.096970066248645,
To what extent did the music make you feel ,TENDER,30MonoWAV/30MonoS2.wav,1,1,3,10,,,,,1,8,24,9,0,4,4,10,,,,,,,,,5,1.3847429640009068,,,006,001,2019_May_07_1511,MusicAffectPsychophysiology2019,3.0.5,60.096970066248645,
To what extent did the music make you feel ,ANXIOUS ,30MonoWAV/30MonoS2.wav,1,1,3,10,,,,,1,8,24,9,0,5,5,1,,,,,,,,,2,1.484770365001168,,,006,001,2019_May_07_1511,MusicAffectPsychophysiology2019,3.0.5,60.096970066248645,
To what extent did the music make you feel ,SAD,30MonoWAV/30MonoS2.wav,1,1,3,10,,,,,1,8,24,9,0,6,6,0,,,,,,,,,2,1.0848028930013243,,,006,001,2019_May_07_1511,MusicAffectPsychophysiology2019,3.0.5,60.096970066248645,
To what extent did the music make you feel ,ALERT,30MonoWAV/30MonoS2.wav,1,1,3,10,,,,,1,8,24,9,0,7,7,8,,,,,,,,,1,1.13506248900012,,,006,001,2019_May_07_1511,MusicAffectPsychophysiology2019,3.0.5,60.096970066248645,
To what extent did the music make you feel ,HAPPY,30MonoWAV/30MonoS2.wav,1,1,3,10,,,,,1,8,24,9,0,8,8,6,,,,,,,,,2,0.9512963329980266,,,006,001,2019_May_07_1511,MusicAffectPsychophysiology2019,3.0.5,60.096970066248645,
To what extent did the music make you feel ,EXCITED,30MonoWAV/30MonoS2.wav,1,1,3,10,,,,,1,8,24,9,0,9,9,7,,,,,,,,,1,1.5992794660014624,,,006,001,2019_May_07_1511,MusicAffectPsychophysiology2019,3.0.5,60.096970066248645,
To what extent did the music make you feel ,ASHAMED,30MonoWAV/30MonoS2.wav,1,1,3,10,,,,,1,8,24,9,0,10,10,4,,,,,,,,,2,1.351488635998976,,,006,001,2019_May_07_1511,MusicAffectPsychophysiology2019,3.0.5,60.096970066248645,
To what extent did the music make you feel ,ANGRY,30MonoWAV/30MonoS2.wav,1,1,3,10,,,,,1,8,24,9,0,11,11,2,,,,,,,,,1,1.8192868389996875,,,006,001,2019_May_07_1511,MusicAffectPsychophysiology2019,3.0.5,60.096970066248645,
,,30MonoWAV/30MonoS2.wav,1,1,3,10,,,,,1,8,24,9,,,,,,,,,,,,,,,,,006,001,2019_May_07_1511,MusicAffectPsychophysiology2019,3.0.5,60.096970066248645,
To what extent did the music make you feel ,ANXIOUS ,30MonoWAV/30MonoH2.wav,2,2,1,6,,,,,1,9,25,5,0,0,0,1,,,3,3.089006451999012,3,1.6727085129969055,,,2,1.4008963880005467,,,006,001,2019_May_07_1511,MusicAffectPsychophysiology2019,3.0.5,60.096970066248645,
To what extent did the music make you feel ,EXCITED,30MonoWAV/30MonoH2.wav,2,2,1,6,,,,,1,9,25,5,0,1,1,7,,,,,,,,,3,1.1353140459978022,,,006,001,2019_May_07_1511,MusicAffectPsychophysiology2019,3.0.5,60.096970066248645,
To what extent did the music make you feel ,GUILTY,30MonoWAV/30MonoH2.wav,2,2,1,6,,,,,1,9,25,5,0,2,2,5,,,,,,,,,2,1.385280430000421,,,006,001,2019_May_07_1511,MusicAffectPsychophysiology2019,3.0.5,60.096970066248645,
To what extent did the music make you feel ,ALERT,30MonoWAV/30MonoH2.wav,2,2,1,6,,,,,1,9,25,5,0,3,3,8,,,,,,,,,2,2.01775413300129,,,006,001,2019_May_07_1511,MusicAffectPsychophysiology2019,3.0.5,60.096970066248645,
To what extent did the music make you feel ,HAPPY,30MonoWAV/30MonoH2.wav,2,2,1,6,,,,,1,9,25,5,0,4,4,6,,,,,,,,,3,1.9338756819997798,,,006,001,2019_May_07_1511,MusicAffectPsychophysiology2019,3.0.5,60.096970066248645,
To what extent did the music make you feel ,ACTIVE,30MonoWAV/30MonoH2.wav,2,2,1,6,,,,,1,9,25,5,0,5,5,9,,,,,,,,,2,1.0011290609982098,,,006,001,2019_May_07_1511,MusicAffectPsychophysiology2019,3.0.5,60.096970066248645,
To what extent did the music make you feel ,ANGRY,30MonoWAV/30MonoH2.wav,2,2,1,6,,,,,1,9,25,5,0,6,6,2,,,,,,,,,1,1.068898875000741,,,006,001,2019_May_07_1511,MusicAffectPsychophysiology2019,3.0.5,60.096970066248645,
To what extent did the music make you feel ,TENDER,30MonoWAV/30MonoH2.wav,2,2,1,6,,,,,1,9,25,5,0,7,7,10,,,,,,,,,2,1.918107843001053,,,006,001,2019_May_07_1511,MusicAffectPsychophysiology2019,3.0.5,60.096970066248645,
To what extent did the music make you feel ,SCARED,30MonoWAV/30MonoH2.wav,2,2,1,6,,,,,1,9,25,5,0,8,8,11,,,,,,,,,1,2.267796863001422,,,006,001,2019_May_07_1511,MusicAffectPsychophysiology2019,3.0.5,60.096970066248645,
To what extent did the music make you feel ,SAD,30MonoWAV/30MonoH2.wav,2,2,1,6,,,,,1,9,25,5,0,9,9,0,,,,,,,,,1,0.9855242220000946,,,006,001,2019_May_07_1511,MusicAffectPsychophysiology2019,3.0.5,60.096970066248645,
To what extent did the music make you feel ,ASHAMED,30MonoWAV/30MonoH2.wav,2,2,1,6,,,,,1,9,25,5,0,10,10,4,,,,,,,,,1,0.8352689300008933,,,006,001,2019_May_07_1511,MusicAffectPsychophysiology2019,3.0.5,60.096970066248645,
To what extent did the music make you feel ,FRUSTRATED,30MonoWAV/30MonoH2.wav,2,2,1,6,,,,,1,9,25,5,0,11,11,3,,,,,,,,,1,1.218129361001047,,,006,001,2019_May_07_1511,MusicAffectPsychophysiology2019,3.0.5,60.096970066248645,
,,30MonoWAV/30MonoH2.wav,2,2,1,6,,,,,1,9,25,5,,,,,,,,,,,,,,,,,006,001,2019_May_07_1511,MusicAffectPsychophysiology2019,3.0.5,60.096970066248645,
To what extent did the music make you feel ,GUILTY,30MonoWAV/30MonoT4.wav,2,1,4,16,,,,,1,10,26,15,0,0,0,5,,,1,3.302063626000745,2,1.7845978479999758,,,1,2.199729912001203,,,006,001,2019_May_07_1511,MusicAffectPsychophysiology2019,3.0.5,60.096970066248645,
To what extent did the music make you feel ,ASHAMED,30MonoWAV/30MonoT4.wav,2,1,4,16,,,,,1,10,26,15,0,1,1,4,,,,,,,,,1,2.0864774709989433,,,006,001,2019_May_07_1511,MusicAffectPsychophysiology2019,3.0.5,60.096970066248645,
To what extent did the music make you feel ,SAD,30MonoWAV/30MonoT4.wav,2,1,4,16,,,,,1,10,26,15,0,2,2,0,,,,,,,,,2,1.8005081589981273,,,006,001,2019_May_07_1511,MusicAffectPsychophysiology2019,3.0.5,60.096970066248645,
To what extent did the music make you feel ,ANXIOUS ,30MonoWAV/30MonoT4.wav,2,1,4,16,,,,,1,10,26,15,0,3,3,1,,,,,,,,,2,1.1677865609999571,,,006,001,2019_May_07_1511,MusicAffectPsychophysiology2019,3.0.5,60.096970066248645,
To what extent did the music make you feel ,ALERT,30MonoWAV/30MonoT4.wav,2,1,4,16,,,,,1,10,26,15,0,4,4,8,,,,,,,,,1,1.134951883002941,,,006,001,2019_May_07_1511,MusicAffectPsychophysiology2019,3.0.5,60.096970066248645,
To what extent did the music make you feel ,SCARED,30MonoWAV/30MonoT4.wav,2,1,4,16,,,,,1,10,26,15,0,5,5,11,,,,,,,,,1,0.8847976310025842,,,006,001,2019_May_07_1511,MusicAffectPsychophysiology2019,3.0.5,60.096970066248645,
To what extent did the music make you feel ,FRUSTRATED,30MonoWAV/30MonoT4.wav,2,1,4,16,,,,,1,10,26,15,0,6,6,3,,,,,,,,,1,0.81956141900082,,,006,001,2019_May_07_1511,MusicAffectPsychophysiology2019,3.0.5,60.096970066248645,
To what extent did the music make you feel ,HAPPY,30MonoWAV/30MonoT4.wav,2,1,4,16,,,,,1,10,26,15,0,7,7,6,,,,,,,,,1,0.9847132770009921,,,006,001,2019_May_07_1511,MusicAffectPsychophysiology2019,3.0.5,60.096970066248645,
To what extent did the music make you feel ,ANGRY,30MonoWAV/30MonoT4.wav,2,1,4,16,,,,,1,10,26,15,0,8,8,2,,,,,,,,,1,0.9019988079999166,,,006,001,2019_May_07_1511,MusicAffectPsychophysiology2019,3.0.5,60.096970066248645,
To what extent did the music make you feel ,TENDER,30MonoWAV/30MonoT4.wav,2,1,4,16,,,,,1,10,26,15,0,9,9,10,,,,,,,,,4,1.4850034249975579,,,006,001,2019_May_07_1511,MusicAffectPsychophysiology2019,3.0.5,60.096970066248645,
To what extent did the music make you feel ,ACTIVE,30MonoWAV/30MonoT4.wav,2,1,4,16,,,,,1,10,26,15,0,10,10,9,,,,,,,,,1,1.5024897059993236,,,006,001,2019_May_07_1511,MusicAffectPsychophysiology2019,3.0.5,60.096970066248645,
To what extent did the music make you feel ,EXCITED,30MonoWAV/30MonoT4.wav,2,1,4,16,,,,,1,10,26,15,0,11,11,7,,,,,,,,,1,0.8679611799998384,,,006,001,2019_May_07_1511,MusicAffectPsychophysiology2019,3.0.5,60.096970066248645,
,,30MonoWAV/30MonoT4.wav,2,1,4,16,,,,,1,10,26,15,,,,,,,,,,,,,,,,,006,001,2019_May_07_1511,MusicAffectPsychophysiology2019,3.0.5,60.096970066248645,
To what extent did the music make you feel ,ASHAMED,30MonoWAV/30MonoT3.wav,2,1,4,15,,,,,1,11,27,14,0,0,0,4,,,1,2.8216218930028845,2,1.9542769729996508,,,1,1.2033444989974669,,,006,001,2019_May_07_1511,MusicAffectPsychophysiology2019,3.0.5,60.096970066248645,
To what extent did the music make you feel ,FRUSTRATED,30MonoWAV/30MonoT3.wav,2,1,4,15,,,,,1,11,27,14,0,1,1,3,,,,,,,,,1,0.9564771479999763,,,006,001,2019_May_07_1511,MusicAffectPsychophysiology2019,3.0.5,60.096970066248645,
To what extent did the music make you feel ,TENDER,30MonoWAV/30MonoT3.wav,2,1,4,15,,,,,1,11,27,14,0,2,2,10,,,,,,,,,5,2.0016487470020365,,,006,001,2019_May_07_1511,MusicAffectPsychophysiology2019,3.0.5,60.096970066248645,
To what extent did the music make you feel ,GUILTY,30MonoWAV/30MonoT3.wav,2,1,4,15,,,,,1,11,27,14,0,3,3,5,,,,,,,,,1,1.235154452999268,,,006,001,2019_May_07_1511,MusicAffectPsychophysiology2019,3.0.5,60.096970066248645,
To what extent did the music make you feel ,ALERT,30MonoWAV/30MonoT3.wav,2,1,4,15,,,,,1,11,27,14,0,4,4,8,,,,,,,,,1,1.5515718249989732,,,006,001,2019_May_07_1511,MusicAffectPsychophysiology2019,3.0.5,60.096970066248645,
To what extent did the music make you feel ,ANXIOUS ,30MonoWAV/30MonoT3.wav,2,1,4,15,,,,,1,11,27,14,0,5,5,1,,,,,,,,,2,2.5686994240022614,,,006,001,2019_May_07_1511,MusicAffectPsychophysiology2019,3.0.5,60.096970066248645,
To what extent did the music make you feel ,ACTIVE,30MonoWAV/30MonoT3.wav,2,1,4,15,,,,,1,11,27,14,0,6,6,9,,,,,,,,,1,1.3840304109980934,,,006,001,2019_May_07_1511,MusicAffectPsychophysiology2019,3.0.5,60.096970066248645,
To what extent did the music make you feel ,HAPPY,30MonoWAV/30MonoT3.wav,2,1,4,15,,,,,1,11,27,14,0,7,7,6,,,,,,,,,2,1.0520435600010387,,,006,001,2019_May_07_1511,MusicAffectPsychophysiology2019,3.0.5,60.096970066248645,
To what extent did the music make you feel ,SAD,30MonoWAV/30MonoT3.wav,2,1,4,15,,,,,1,11,27,14,0,8,8,0,,,,,,,,,1,0.7847438669996336,,,006,001,2019_May_07_1511,MusicAffectPsychophysiology2019,3.0.5,60.096970066248645,
To what extent did the music make you feel ,EXCITED,30MonoWAV/30MonoT3.wav,2,1,4,15,,,,,1,11,27,14,0,9,9,7,,,,,,,,,1,1.018665934996534,,,006,001,2019_May_07_1511,MusicAffectPsychophysiology2019,3.0.5,60.096970066248645,
To what extent did the music make you feel ,SCARED,30MonoWAV/30MonoT3.wav,2,1,4,15,,,,,1,11,27,14,0,10,10,11,,,,,,,,,1,0.8671211799992307,,,006,001,2019_May_07_1511,MusicAffectPsychophysiology2019,3.0.5,60.096970066248645,
To what extent did the music make you feel ,ANGRY,30MonoWAV/30MonoT3.wav,2,1,4,15,,,,,1,11,27,14,0,11,11,2,,,,,,,,,1,0.7183611820000806,,,006,001,2019_May_07_1511,MusicAffectPsychophysiology2019,3.0.5,60.096970066248645,
,,30MonoWAV/30MonoT3.wav,2,1,4,15,,,,,1,11,27,14,,,,,,,,,,,,,,,,,006,001,2019_May_07_1511,MusicAffectPsychophysiology2019,3.0.5,60.096970066248645,
To what extent did the music make you feel ,FRUSTRATED,30MonoWAV/30MonoH3.wav,2,2,1,7,,,,,1,12,28,6,0,0,0,3,,,5,3.334403527001996,5,1.568302992000099,,,1,1.1617740799993044,,,006,001,2019_May_07_1511,MusicAffectPsychophysiology2019,3.0.5,60.096970066248645,
To what extent did the music make you feel ,ANGRY,30MonoWAV/30MonoH3.wav,2,2,1,7,,,,,1,12,28,6,0,1,1,2,,,,,,,,,1,1.3513512569988961,,,006,001,2019_May_07_1511,MusicAffectPsychophysiology2019,3.0.5,60.096970066248645,
To what extent did the music make you feel ,ACTIVE,30MonoWAV/30MonoH3.wav,2,2,1,7,,,,,1,12,28,6,0,2,2,9,,,,,,,,,5,2.1348151999991387,,,006,001,2019_May_07_1511,MusicAffectPsychophysiology2019,3.0.5,60.096970066248645,
To what extent did the music make you feel ,ANXIOUS ,30MonoWAV/30MonoH3.wav,2,2,1,7,,,,,1,12,28,6,0,3,3,1,,,,,,,,,2,2.449644955999247,,,006,001,2019_May_07_1511,MusicAffectPsychophysiology2019,3.0.5,60.096970066248645,
To what extent did the music make you feel ,SCARED,30MonoWAV/30MonoH3.wav,2,2,1,7,,,,,1,12,28,6,0,4,4,11,,,,,,,,,1,0.9197276049999346,,,006,001,2019_May_07_1511,MusicAffectPsychophysiology2019,3.0.5,60.096970066248645,
To what extent did the music make you feel ,HAPPY,30MonoWAV/30MonoH3.wav,2,2,1,7,,,,,1,12,28,6,0,5,5,6,,,,,,,,,5,1.6686979700025404,,,006,001,2019_May_07_1511,MusicAffectPsychophysiology2019,3.0.5,60.096970066248645,
To what extent did the music make you feel ,TENDER,30MonoWAV/30MonoH3.wav,2,2,1,7,,,,,1,12,28,6,0,6,6,10,,,,,,,,,2,1.9216421809978783,,,006,001,2019_May_07_1511,MusicAffectPsychophysiology2019,3.0.5,60.096970066248645,
To what extent did the music make you feel ,SAD,30MonoWAV/30MonoH3.wav,2,2,1,7,,,,,1,12,28,6,0,7,7,0,,,,,,,,,1,0.7027028989978135,,,006,001,2019_May_07_1511,MusicAffectPsychophysiology2019,3.0.5,60.096970066248645,
To what extent did the music make you feel ,ASHAMED,30MonoWAV/30MonoH3.wav,2,2,1,7,,,,,1,12,28,6,0,8,8,4,,,,,,,,,1,0.5852305280022847,,,006,001,2019_May_07_1511,MusicAffectPsychophysiology2019,3.0.5,60.096970066248645,
To what extent did the music make you feel ,EXCITED,30MonoWAV/30MonoH3.wav,2,2,1,7,,,,,1,12,28,6,0,9,9,7,,,,,,,,,1,0.4505696579981304,,,006,001,2019_May_07_1511,MusicAffectPsychophysiology2019,3.0.5,60.096970066248645,
To what extent did the music make you feel ,GUILTY,30MonoWAV/30MonoH3.wav,2,2,1,7,,,,,1,12,28,6,0,10,10,5,,,,,,,,,1,2.4880990849997033,,,006,001,2019_May_07_1511,MusicAffectPsychophysiology2019,3.0.5,60.096970066248645,
To what extent did the music make you feel ,ALERT,30MonoWAV/30MonoH3.wav,2,2,1,7,,,,,1,12,28,6,0,11,11,8,,,,,,,,,5,2.859141020999232,,,006,001,2019_May_07_1511,MusicAffectPsychophysiology2019,3.0.5,60.096970066248645,
,,30MonoWAV/30MonoH3.wav,2,2,1,7,,,,,1,12,28,6,,,,,,,,,,,,,,,,,006,001,2019_May_07_1511,MusicAffectPsychophysiology2019,3.0.5,60.096970066248645,
To what extent did the music make you feel ,ANGRY,30MonoWAV/30MonoF1.wav,1,2,2,1,,,,,1,13,29,0,0,0,0,2,,,4,6.40179248899949,1,2.3022344640012307,,,2,2.682921666000766,,,006,001,2019_May_07_1511,MusicAffectPsychophysiology2019,3.0.5,60.096970066248645,
To what extent did the music make you feel ,ACTIVE,30MonoWAV/30MonoF1.wav,1,2,2,1,,,,,1,13,29,0,0,1,1,9,,,,,,,,,2,1.318457782999758,,,006,001,2019_May_07_1511,MusicAffectPsychophysiology2019,3.0.5,60.096970066248645,
To what extent did the music make you feel ,HAPPY,30MonoWAV/30MonoF1.wav,1,2,2,1,,,,,1,13,29,0,0,2,2,6,,,,,,,,,1,1.5019107580010314,,,006,001,2019_May_07_1511,MusicAffectPsychophysiology2019,3.0.5,60.096970066248645,
To what extent did the music make you feel ,ANXIOUS ,30MonoWAV/30MonoF1.wav,1,2,2,1,,,,,1,13,29,0,0,3,3,1,,,,,,,,,1,2.17208765200121,,,006,001,2019_May_07_1511,MusicAffectPsychophysiology2019,3.0.5,60.096970066248645,
To what extent did the music make you feel ,SCARED,30MonoWAV/30MonoF1.wav,1,2,2,1,,,,,1,13,29,0,0,4,4,11,,,,,,,,,1,1.7694248970001354,,,006,001,2019_May_07_1511,MusicAffectPsychophysiology2019,3.0.5,60.096970066248645,
To what extent did the music make you feel ,EXCITED,30MonoWAV/30MonoF1.wav,1,2,2,1,,,,,1,13,29,0,0,5,5,7,,,,,,,,,2,1.4866255060005642,,,006,001,2019_May_07_1511,MusicAffectPsychophysiology2019,3.0.5,60.096970066248645,
To what extent did the music make you feel ,ALERT,30MonoWAV/30MonoF1.wav,1,2,2,1,,,,,1,13,29,0,0,6,6,8,,,,,,,,,2,1.8542831109989493,,,006,001,2019_May_07_1511,MusicAffectPsychophysiology2019,3.0.5,60.096970066248645,
To what extent did the music make you feel ,GUILTY,30MonoWAV/30MonoF1.wav,1,2,2,1,,,,,1,13,29,0,0,7,7,5,,,,,,,,,1,1.2029814140005328,,,006,001,2019_May_07_1511,MusicAffectPsychophysiology2019,3.0.5,60.096970066248645,
To what extent did the music make you feel ,ASHAMED,30MonoWAV/30MonoF1.wav,1,2,2,1,,,,,1,13,29,0,0,8,8,4,,,,,,,,,1,0.8876200720005727,,,006,001,2019_May_07_1511,MusicAffectPsychophysiology2019,3.0.5,60.096970066248645,
To what extent did the music make you feel ,FRUSTRATED,30MonoWAV/30MonoF1.wav,1,2,2,1,,,,,1,13,29,0,0,9,9,3,,,,,,,,,1,0.7863987169985194,,,006,001,2019_May_07_1511,MusicAffectPsychophysiology2019,3.0.5,60.096970066248645,
To what extent did the music make you feel ,SAD,30MonoWAV/30MonoF1.wav,1,2,2,1,,,,,1,13,29,0,0,10,10,0,,,,,,,,,1,0.9013259819985251,,,006,001,2019_May_07_1511,MusicAffectPsychophysiology2019,3.0.5,60.096970066248645,
To what extent did the music make you feel ,TENDER,30MonoWAV/30MonoF1.wav,1,2,2,1,,,,,1,13,29,0,0,11,11,10,,,,,,,,,1,1.2182573690006393,,,006,001,2019_May_07_1511,MusicAffectPsychophysiology2019,3.0.5,60.096970066248645,
,,30MonoWAV/30MonoF1.wav,1,2,2,1,,,,,1,13,29,0,,,,,,,,,,,,,,,,,006,001,2019_May_07_1511,MusicAffectPsychophysiology2019,3.0.5,60.096970066248645,
To what extent did the music make you feel ,HAPPY,30MonoWAV/30MonoS4.wav,1,1,3,12,,,,,1,14,30,11,0,0,0,6,,,2,3.518773247000354,2,1.6505460080006742,,,2,1.185349822997523,,,006,001,2019_May_07_1511,MusicAffectPsychophysiology2019,3.0.5,60.096970066248645,
To what extent did the music make you feel ,ACTIVE,30MonoWAV/30MonoS4.wav,1,1,3,12,,,,,1,14,30,11,0,1,1,9,,,,,,,,,1,1.2346723919981741,,,006,001,2019_May_07_1511,MusicAffectPsychophysiology2019,3.0.5,60.096970066248645,
To what extent did the music make you feel ,ANGRY,30MonoWAV/30MonoS4.wav,1,1,3,12,,,,,1,14,30,11,0,2,2,2,,,,,,,,,1,0.9023591990007844,,,006,001,2019_May_07_1511,MusicAffectPsychophysiology2019,3.0.5,60.096970066248645,
To what extent did the music make you feel ,EXCITED,30MonoWAV/30MonoS4.wav,1,1,3,12,,,,,1,14,30,11,0,3,3,7,,,,,,,,,1,1.7526343219979026,,,006,001,2019_May_07_1511,MusicAffectPsychophysiology2019,3.0.5,60.096970066248645,
To what extent did the music make you feel ,SAD,30MonoWAV/30MonoS4.wav,1,1,3,12,,,,,1,14,30,11,0,4,4,0,,,,,,,,,3,1.6338958209998964,,,006,001,2019_May_07_1511,MusicAffectPsychophysiology2019,3.0.5,60.096970066248645,
To what extent did the music make you feel ,ALERT,30MonoWAV/30MonoS4.wav,1,1,3,12,,,,,1,14,30,11,0,5,5,8,,,,,,,,,2,1.7842649710000842,,,006,001,2019_May_07_1511,MusicAffectPsychophysiology2019,3.0.5,60.096970066248645,
To what extent did the music make you feel ,ASHAMED,30MonoWAV/30MonoS4.wav,1,1,3,12,,,,,1,14,30,11,0,6,6,4,,,,,,,,,1,0.9019106199993985,,,006,001,2019_May_07_1511,MusicAffectPsychophysiology2019,3.0.5,60.096970066248645,
To what extent did the music make you feel ,GUILTY,30MonoWAV/30MonoS4.wav,1,1,3,12,,,,,1,14,30,11,0,7,7,5,,,,,,,,,1,0.5009791819975362,,,006,001,2019_May_07_1511,MusicAffectPsychophysiology2019,3.0.5,60.096970066248645,
To what extent did the music make you feel ,SCARED,30MonoWAV/30MonoS4.wav,1,1,3,12,,,,,1,14,30,11,0,8,8,11,,,,,,,,,1,6.002053291998891,,,006,001,2019_May_07_1511,MusicAffectPsychophysiology2019,3.0.5,60.096970066248645,
To what extent did the music make you feel ,FRUSTRATED,30MonoWAV/30MonoS4.wav,1,1,3,12,,,,,1,14,30,11,0,9,9,3,,,,,,,,,1,1.368113603002712,,,006,001,2019_May_07_1511,MusicAffectPsychophysiology2019,3.0.5,60.096970066248645,
To what extent did the music make you feel ,ANXIOUS ,30MonoWAV/30MonoS4.wav,1,1,3,12,,,,,1,14,30,11,0,10,10,1,,,,,,,,,2,2.069010015002277,,,006,001,2019_May_07_1511,MusicAffectPsychophysiology2019,3.0.5,60.096970066248645,
To what extent did the music make you feel ,TENDER,30MonoWAV/30MonoS4.wav,1,1,3,12,,,,,1,14,30,11,0,11,11,10,,,,,,,,,4,3.0235451699991245,,,006,001,2019_May_07_1511,MusicAffectPsychophysiology2019,3.0.5,60.096970066248645,
,,30MonoWAV/30MonoS4.wav,1,1,3,12,,,,,1,14,30,11,,,,,,,,,,,,,,,,,006,001,2019_May_07_1511,MusicAffectPsychophysiology2019,3.0.5,60.096970066248645,
To what extent did the music make you feel ,ALERT,30MonoWAV/30MonoF2.wav,1,2,2,2,,,,,1,15,31,1,0,0,0,8,,,4,3.172410077000677,2,2.01784594000128,,,4,1.4020057870002347,,,006,001,2019_May_07_1511,MusicAffectPsychophysiology2019,3.0.5,60.096970066248645,
To what extent did the music make you feel ,ACTIVE,30MonoWAV/30MonoF2.wav,1,2,2,2,,,,,1,15,31,1,0,1,1,9,,,,,,,,,4,1.8016831630011438,,,006,001,2019_May_07_1511,MusicAffectPsychophysiology2019,3.0.5,60.096970066248645,
To what extent did the music make you feel ,ASHAMED,30MonoWAV/30MonoF2.wav,1,2,2,2,,,,,1,15,31,1,0,2,2,4,,,,,,,,,1,3.9504209180013277,,,006,001,2019_May_07_1511,MusicAffectPsychophysiology2019,3.0.5,60.096970066248645,
To what extent did the music make you feel ,GUILTY,30MonoWAV/30MonoF2.wav,1,2,2,2,,,,,1,15,31,1,0,3,3,5,,,,,,,,,1,0.6178549630021735,,,006,001,2019_May_07_1511,MusicAffectPsychophysiology2019,3.0.5,60.096970066248645,
To what extent did the music make you feel ,ANXIOUS ,30MonoWAV/30MonoF2.wav,1,2,2,2,,,,,1,15,31,1,0,4,4,1,,,,,,,,,2,1.067727728997852,,,006,001,2019_May_07_1511,MusicAffectPsychophysiology2019,3.0.5,60.096970066248645,
To what extent did the music make you feel ,SAD,30MonoWAV/30MonoF2.wav,1,2,2,2,,,,,1,15,31,1,0,5,5,0,,,,,,,,,1,0.6691096230024414,,,006,001,2019_May_07_1511,MusicAffectPsychophysiology2019,3.0.5,60.096970066248645,
To what extent did the music make you feel ,FRUSTRATED,30MonoWAV/30MonoF2.wav,1,2,2,2,,,,,1,15,31,1,0,6,6,3,,,,,,,,,1,1.2192724169981375,,,006,001,2019_May_07_1511,MusicAffectPsychophysiology2019,3.0.5,60.096970066248645,
To what extent did the music make you feel ,ANGRY,30MonoWAV/30MonoF2.wav,1,2,2,2,,,,,1,15,31,1,0,7,7,2,,,,,,,,,1,1.3506156119983643,,,006,001,2019_May_07_1511,MusicAffectPsychophysiology2019,3.0.5,60.096970066248645,
To what extent did the music make you feel ,HAPPY,30MonoWAV/30MonoF2.wav,1,2,2,2,,,,,1,15,31,1,0,8,8,6,,,,,,,,,1,1.0519319570012158,,,006,001,2019_May_07_1511,MusicAffectPsychophysiology2019,3.0.5,60.096970066248645,
To what extent did the music make you feel ,SCARED,30MonoWAV/30MonoF2.wav,1,2,2,2,,,,,1,15,31,1,0,9,9,11,,,,,,,,,1,1.001835533999838,,,006,001,2019_May_07_1511,MusicAffectPsychophysiology2019,3.0.5,60.096970066248645,
To what extent did the music make you feel ,TENDER,30MonoWAV/30MonoF2.wav,1,2,2,2,,,,,1,15,31,1,0,10,10,10,,,,,,,,,1,3.1173319250010536,,,006,001,2019_May_07_1511,MusicAffectPsychophysiology2019,3.0.5,60.096970066248645,
To what extent did the music make you feel ,EXCITED,30MonoWAV/30MonoF2.wav,1,2,2,2,,,,,1,15,31,1,0,11,11,7,,,,,,,,,2,1.9505721039968194,,,006,001,2019_May_07_1511,MusicAffectPsychophysiology2019,3.0.5,60.096970066248645,
,,30MonoWAV/30MonoF2.wav,1,2,2,2,,,,,1,15,31,1,,,,,,,,,,,,,,,,,006,001,2019_May_07_1511,MusicAffectPsychophysiology2019,3.0.5,60.096970066248645,
,,,,,,,,,,,,,,,,,,,,,,,,,,,,,space,4.484644031999778,006,001,2019_May_07_1511,MusicAffectPsychophysiology2019,3.0.5,60.096970066248645,
