Instruction,Word,song,valence,arousal,affectcat,songmark,pracwords.thisRepN,pracwords.thisTrialN,pracwords.thisN,pracwords.thisIndex,songtrials.thisRepN,songtrials.thisTrialN,songtrials.thisN,songtrials.thisIndex,words.thisRepN,words.thisTrialN,words.thisN,words.thisIndex,begin.keys,begin.rt,arousalkey.keys,arousalkey.rt,valencekey.keys,valencekey.rt,likekey.keys,likekey.rt,WordResponse.keys,WordResponse.rt,key_resp_2.keys,key_resp_2.rt,participant,session,date,expName,psychopyVersion,frameRate,
,,,,,,,,,,,,,,,,,,,space,12.92228897699897,,,,,,,,,,,007,001,2019_May_07_1612,MusicAffectPsychophysiology2019,3.0.5,59.93007299166371,
,,,,,,,,,,,,,,,,,,,,,3,6.1277759959994,,,,,,,,,007,001,2019_May_07_1612,MusicAffectPsychophysiology2019,3.0.5,59.93007299166371,
,,,,,,,,,,,,,,,,,,,,,,,4,2.767285802998231,,,,,,,007,001,2019_May_07_1612,MusicAffectPsychophysiology2019,3.0.5,59.93007299166371,
,,,,,,,,,,,,,,,,,,,,,,,,,5,1.6184986360021867,,,,,007,001,2019_May_07_1612,MusicAffectPsychophysiology2019,3.0.5,59.93007299166371,
To what extent did the music make you feel ,ASHAMED,,,,,,0,0,0,4,,,,,,,,,,,,,,,,,1,2.535565903999668,,,007,001,2019_May_07_1612,MusicAffectPsychophysiology2019,3.0.5,59.93007299166371,
To what extent did the music make you feel ,GUILTY,,,,,,0,1,1,5,,,,,,,,,,,,,,,,,1,0.7847423029998026,,,007,001,2019_May_07_1612,MusicAffectPsychophysiology2019,3.0.5,59.93007299166371,
To what extent did the music make you feel ,TENDER,,,,,,0,2,2,10,,,,,,,,,,,,,,,,,1,1.1020559719981975,,,007,001,2019_May_07_1612,MusicAffectPsychophysiology2019,3.0.5,59.93007299166371,
To what extent did the music make you feel ,ALERT,,,,,,0,3,3,8,,,,,,,,,,,,,,,,,3,1.7357960330009519,,,007,001,2019_May_07_1612,MusicAffectPsychophysiology2019,3.0.5,59.93007299166371,
To what extent did the music make you feel ,FRUSTRATED,,,,,,0,4,4,3,,,,,,,,,,,,,,,,,1,1.1022449609990872,,,007,001,2019_May_07_1612,MusicAffectPsychophysiology2019,3.0.5,59.93007299166371,
To what extent did the music make you feel ,HAPPY,,,,,,0,5,5,6,,,,,,,,,,,,,,,,,4,1.650870812998619,,,007,001,2019_May_07_1612,MusicAffectPsychophysiology2019,3.0.5,59.93007299166371,
To what extent did the music make you feel ,ANGRY,,,,,,0,6,6,2,,,,,,,,,,,,,,,,,1,1.1666964530013502,,,007,001,2019_May_07_1612,MusicAffectPsychophysiology2019,3.0.5,59.93007299166371,
To what extent did the music make you feel ,ANXIOUS ,,,,,,0,7,7,1,,,,,,,,,,,,,,,,,1,1.618906245999824,,,007,001,2019_May_07_1612,MusicAffectPsychophysiology2019,3.0.5,59.93007299166371,
To what extent did the music make you feel ,ACTIVE,,,,,,0,8,8,9,,,,,,,,,,,,,,,,,2,1.5021278080021148,,,007,001,2019_May_07_1612,MusicAffectPsychophysiology2019,3.0.5,59.93007299166371,
To what extent did the music make you feel ,EXCITED,,,,,,0,9,9,7,,,,,,,,,,,,,,,,,3,1.318875159999152,,,007,001,2019_May_07_1612,MusicAffectPsychophysiology2019,3.0.5,59.93007299166371,
To what extent did the music make you feel ,SAD,,,,,,0,10,10,0,,,,,,,,,,,,,,,,,1,0.9355396320024738,,,007,001,2019_May_07_1612,MusicAffectPsychophysiology2019,3.0.5,59.93007299166371,
To what extent did the music make you feel ,SCARED,,,,,,0,11,11,11,,,,,,,,,,,,,,,,,1,0.7691643180005485,,,007,001,2019_May_07_1612,MusicAffectPsychophysiology2019,3.0.5,59.93007299166371,
To what extent did the music make you feel ,TENDER,30MonoWAV/30MonoH3.wav,2,2,1,7,,,,,0,0,0,6,0,0,0,10,,,4,3.1189376700021967,3,3.5674808229996415,,,1,1.8513144579992513,,,007,001,2019_May_07_1612,MusicAffectPsychophysiology2019,3.0.5,59.93007299166371,
To what extent did the music make you feel ,ACTIVE,30MonoWAV/30MonoH3.wav,2,2,1,7,,,,,0,0,0,6,0,1,1,9,,,,,,,,,4,1.767051809001714,,,007,001,2019_May_07_1612,MusicAffectPsychophysiology2019,3.0.5,59.93007299166371,
To what extent did the music make you feel ,SAD,30MonoWAV/30MonoH3.wav,2,2,1,7,,,,,0,0,0,6,0,2,2,0,,,,,,,,,1,1.168494910998561,,,007,001,2019_May_07_1612,MusicAffectPsychophysiology2019,3.0.5,59.93007299166371,
To what extent did the music make you feel ,EXCITED,30MonoWAV/30MonoH3.wav,2,2,1,7,,,,,0,0,0,6,0,3,3,7,,,,,,,,,2,1.184154344999115,,,007,001,2019_May_07_1612,MusicAffectPsychophysiology2019,3.0.5,59.93007299166371,
To what extent did the music make you feel ,HAPPY,30MonoWAV/30MonoH3.wav,2,2,1,7,,,,,0,0,0,6,0,4,4,6,,,,,,,,,2,1.8031998059996113,,,007,001,2019_May_07_1612,MusicAffectPsychophysiology2019,3.0.5,59.93007299166371,
To what extent did the music make you feel ,ANXIOUS ,30MonoWAV/30MonoH3.wav,2,2,1,7,,,,,0,0,0,6,0,5,5,1,,,,,,,,,1,1.0683689350007626,,,007,001,2019_May_07_1612,MusicAffectPsychophysiology2019,3.0.5,59.93007299166371,
To what extent did the music make you feel ,SCARED,30MonoWAV/30MonoH3.wav,2,2,1,7,,,,,0,0,0,6,0,6,6,11,,,,,,,,,1,0.7844280710014573,,,007,001,2019_May_07_1612,MusicAffectPsychophysiology2019,3.0.5,59.93007299166371,
To what extent did the music make you feel ,ASHAMED,30MonoWAV/30MonoH3.wav,2,2,1,7,,,,,0,0,0,6,0,7,7,4,,,,,,,,,1,0.6687723229988478,,,007,001,2019_May_07_1612,MusicAffectPsychophysiology2019,3.0.5,59.93007299166371,
To what extent did the music make you feel ,FRUSTRATED,30MonoWAV/30MonoH3.wav,2,2,1,7,,,,,0,0,0,6,0,8,8,3,,,,,,,,,1,0.5850681170013559,,,007,001,2019_May_07_1612,MusicAffectPsychophysiology2019,3.0.5,59.93007299166371,
To what extent did the music make you feel ,ALERT,30MonoWAV/30MonoH3.wav,2,2,1,7,,,,,0,0,0,6,0,9,9,8,,,,,,,,,2,1.4504678789999161,,,007,001,2019_May_07_1612,MusicAffectPsychophysiology2019,3.0.5,59.93007299166371,
To what extent did the music make you feel ,ANGRY,30MonoWAV/30MonoH3.wav,2,2,1,7,,,,,0,0,0,6,0,10,10,2,,,,,,,,,1,0.5854227009986062,,,007,001,2019_May_07_1612,MusicAffectPsychophysiology2019,3.0.5,59.93007299166371,
To what extent did the music make you feel ,GUILTY,30MonoWAV/30MonoH3.wav,2,2,1,7,,,,,0,0,0,6,0,11,11,5,,,,,,,,,1,0.6685728539996489,,,007,001,2019_May_07_1612,MusicAffectPsychophysiology2019,3.0.5,59.93007299166371,
,,30MonoWAV/30MonoH3.wav,2,2,1,7,,,,,0,0,0,6,,,,,,,,,,,,,,,,,007,001,2019_May_07_1612,MusicAffectPsychophysiology2019,3.0.5,59.93007299166371,
To what extent did the music make you feel ,HAPPY,30MonoWAV/30MonoT4.wav,2,1,4,16,,,,,0,1,1,15,0,0,0,6,,,1,5.016065627001808,2,1.9174653890004265,,,2,1.6358272440011206,,,007,001,2019_May_07_1612,MusicAffectPsychophysiology2019,3.0.5,59.93007299166371,
To what extent did the music make you feel ,SCARED,30MonoWAV/30MonoT4.wav,2,1,4,16,,,,,0,1,1,15,0,1,1,11,,,,,,,,,1,1.0678592860022036,,,007,001,2019_May_07_1612,MusicAffectPsychophysiology2019,3.0.5,59.93007299166371,
To what extent did the music make you feel ,ANXIOUS ,30MonoWAV/30MonoT4.wav,2,1,4,16,,,,,0,1,1,15,0,2,2,1,,,,,,,,,1,1.5346068349972484,,,007,001,2019_May_07_1612,MusicAffectPsychophysiology2019,3.0.5,59.93007299166371,
To what extent did the music make you feel ,TENDER,30MonoWAV/30MonoT4.wav,2,1,4,16,,,,,0,1,1,15,0,3,3,10,,,,,,,,,2,1.4344782939988363,,,007,001,2019_May_07_1612,MusicAffectPsychophysiology2019,3.0.5,59.93007299166371,
To what extent did the music make you feel ,ASHAMED,30MonoWAV/30MonoT4.wav,2,1,4,16,,,,,0,1,1,15,0,4,4,4,,,,,,,,,1,0.6689649899999495,,,007,001,2019_May_07_1612,MusicAffectPsychophysiology2019,3.0.5,59.93007299166371,
To what extent did the music make you feel ,ACTIVE,30MonoWAV/30MonoT4.wav,2,1,4,16,,,,,0,1,1,15,0,5,5,9,,,,,,,,,1,0.3359216539975023,,,007,001,2019_May_07_1612,MusicAffectPsychophysiology2019,3.0.5,59.93007299166371,
To what extent did the music make you feel ,ANGRY,30MonoWAV/30MonoT4.wav,2,1,4,16,,,,,0,1,1,15,0,6,6,2,,,,,,,,,1,1.368135805001657,,,007,001,2019_May_07_1612,MusicAffectPsychophysiology2019,3.0.5,59.93007299166371,
To what extent did the music make you feel ,SAD,30MonoWAV/30MonoT4.wav,2,1,4,16,,,,,0,1,1,15,0,7,7,0,,,,,,,,,2,1.401221752003039,,,007,001,2019_May_07_1612,MusicAffectPsychophysiology2019,3.0.5,59.93007299166371,
To what extent did the music make you feel ,EXCITED,30MonoWAV/30MonoT4.wav,2,1,4,16,,,,,0,1,1,15,0,8,8,7,,,,,,,,,1,1.652091506999568,,,007,001,2019_May_07_1612,MusicAffectPsychophysiology2019,3.0.5,59.93007299166371,
To what extent did the music make you feel ,GUILTY,30MonoWAV/30MonoT4.wav,2,1,4,16,,,,,0,1,1,15,0,9,9,5,,,,,,,,,1,0.784925714997371,,,007,001,2019_May_07_1612,MusicAffectPsychophysiology2019,3.0.5,59.93007299166371,
To what extent did the music make you feel ,ALERT,30MonoWAV/30MonoT4.wav,2,1,4,16,,,,,0,1,1,15,0,10,10,8,,,,,,,,,1,1.61917840499882,,,007,001,2019_May_07_1612,MusicAffectPsychophysiology2019,3.0.5,59.93007299166371,
To what extent did the music make you feel ,FRUSTRATED,30MonoWAV/30MonoT4.wav,2,1,4,16,,,,,0,1,1,15,0,11,11,3,,,,,,,,,1,0.8668765420006821,,,007,001,2019_May_07_1612,MusicAffectPsychophysiology2019,3.0.5,59.93007299166371,
,,30MonoWAV/30MonoT4.wav,2,1,4,16,,,,,0,1,1,15,,,,,,,,,,,,,,,,,007,001,2019_May_07_1612,MusicAffectPsychophysiology2019,3.0.5,59.93007299166371,
To what extent did the music make you feel ,TENDER,30MonoWAV/30MonoT1.wav,2,1,4,13,,,,,0,2,2,12,0,0,0,10,,,1,3.151286483000149,2,1.583963514000061,,,2,1.2015357300006144,,,007,001,2019_May_07_1612,MusicAffectPsychophysiology2019,3.0.5,59.93007299166371,
To what extent did the music make you feel ,ALERT,30MonoWAV/30MonoT1.wav,2,1,4,13,,,,,0,2,2,12,0,1,1,8,,,,,,,,,1,1.2189107080012036,,,007,001,2019_May_07_1612,MusicAffectPsychophysiology2019,3.0.5,59.93007299166371,
To what extent did the music make you feel ,EXCITED,30MonoWAV/30MonoT1.wav,2,1,4,13,,,,,0,2,2,12,0,2,2,7,,,,,,,,,1,0.9515157629975874,,,007,001,2019_May_07_1612,MusicAffectPsychophysiology2019,3.0.5,59.93007299166371,
To what extent did the music make you feel ,SAD,30MonoWAV/30MonoT1.wav,2,1,4,13,,,,,0,2,2,12,0,3,3,0,,,,,,,,,3,1.7502254059982079,,,007,001,2019_May_07_1612,MusicAffectPsychophysiology2019,3.0.5,59.93007299166371,
To what extent did the music make you feel ,ANGRY,30MonoWAV/30MonoT1.wav,2,1,4,13,,,,,0,2,2,12,0,4,4,2,,,,,,,,,1,1.1186982059989532,,,007,001,2019_May_07_1612,MusicAffectPsychophysiology2019,3.0.5,59.93007299166371,
To what extent did the music make you feel ,ASHAMED,30MonoWAV/30MonoT1.wav,2,1,4,13,,,,,0,2,2,12,0,5,5,4,,,,,,,,,1,1.3013108880004438,,,007,001,2019_May_07_1612,MusicAffectPsychophysiology2019,3.0.5,59.93007299166371,
To what extent did the music make you feel ,SCARED,30MonoWAV/30MonoT1.wav,2,1,4,13,,,,,0,2,2,12,0,6,6,11,,,,,,,,,2,1.6666528829991876,,,007,001,2019_May_07_1612,MusicAffectPsychophysiology2019,3.0.5,59.93007299166371,
To what extent did the music make you feel ,FRUSTRATED,30MonoWAV/30MonoT1.wav,2,1,4,13,,,,,0,2,2,12,0,7,7,3,,,,,,,,,1,0.7844728009986284,,,007,001,2019_May_07_1612,MusicAffectPsychophysiology2019,3.0.5,59.93007299166371,
To what extent did the music make you feel ,GUILTY,30MonoWAV/30MonoT1.wav,2,1,4,13,,,,,0,2,2,12,0,8,8,5,,,,,,,,,1,0.6188311000005342,,,007,001,2019_May_07_1612,MusicAffectPsychophysiology2019,3.0.5,59.93007299166371,
To what extent did the music make you feel ,ACTIVE,30MonoWAV/30MonoT1.wav,2,1,4,13,,,,,0,2,2,12,0,9,9,9,,,,,,,,,1,0.9332270869999775,,,007,001,2019_May_07_1612,MusicAffectPsychophysiology2019,3.0.5,59.93007299166371,
To what extent did the music make you feel ,ANXIOUS ,30MonoWAV/30MonoT1.wav,2,1,4,13,,,,,0,2,2,12,0,10,10,1,,,,,,,,,1,1.218724292000843,,,007,001,2019_May_07_1612,MusicAffectPsychophysiology2019,3.0.5,59.93007299166371,
To what extent did the music make you feel ,HAPPY,30MonoWAV/30MonoT1.wav,2,1,4,13,,,,,0,2,2,12,0,11,11,6,,,,,,,,,2,2.200091055001394,,,007,001,2019_May_07_1612,MusicAffectPsychophysiology2019,3.0.5,59.93007299166371,
,,30MonoWAV/30MonoT1.wav,2,1,4,13,,,,,0,2,2,12,,,,,,,,,,,,,,,,,007,001,2019_May_07_1612,MusicAffectPsychophysiology2019,3.0.5,59.93007299166371,
To what extent did the music make you feel ,ANXIOUS ,30MonoWAV/30MonoH1.wav,2,2,1,5,,,,,0,3,3,4,0,0,0,1,,,3,3.401936352998746,2,2.501061025002855,,,2,1.4175916950007377,,,007,001,2019_May_07_1612,MusicAffectPsychophysiology2019,3.0.5,59.93007299166371,
To what extent did the music make you feel ,ASHAMED,30MonoWAV/30MonoH1.wav,2,2,1,5,,,,,0,3,3,4,0,1,1,4,,,,,,,,,1,1.2019250729972555,,,007,001,2019_May_07_1612,MusicAffectPsychophysiology2019,3.0.5,59.93007299166371,
To what extent did the music make you feel ,SCARED,30MonoWAV/30MonoH1.wav,2,2,1,5,,,,,0,3,3,4,0,2,2,11,,,,,,,,,2,1.4181412889993226,,,007,001,2019_May_07_1612,MusicAffectPsychophysiology2019,3.0.5,59.93007299166371,
To what extent did the music make you feel ,EXCITED,30MonoWAV/30MonoH1.wav,2,2,1,5,,,,,0,3,3,4,0,3,3,7,,,,,,,,,3,1.555405825998605,,,007,001,2019_May_07_1612,MusicAffectPsychophysiology2019,3.0.5,59.93007299166371,
To what extent did the music make you feel ,ANGRY,30MonoWAV/30MonoH1.wav,2,2,1,5,,,,,0,3,3,4,0,4,4,2,,,,,,,,,1,0.8858703279984184,,,007,001,2019_May_07_1612,MusicAffectPsychophysiology2019,3.0.5,59.93007299166371,
To what extent did the music make you feel ,FRUSTRATED,30MonoWAV/30MonoH1.wav,2,2,1,5,,,,,0,3,3,4,0,5,5,3,,,,,,,,,1,1.152411988001404,,,007,001,2019_May_07_1612,MusicAffectPsychophysiology2019,3.0.5,59.93007299166371,
To what extent did the music make you feel ,SAD,30MonoWAV/30MonoH1.wav,2,2,1,5,,,,,0,3,3,4,0,6,6,0,,,,,,,,,1,0.5687415359971055,,,007,001,2019_May_07_1612,MusicAffectPsychophysiology2019,3.0.5,59.93007299166371,
To what extent did the music make you feel ,TENDER,30MonoWAV/30MonoH1.wav,2,2,1,5,,,,,0,3,3,4,0,7,7,10,,,,,,,,,1,1.1360429799970007,,,007,001,2019_May_07_1612,MusicAffectPsychophysiology2019,3.0.5,59.93007299166371,
To what extent did the music make you feel ,HAPPY,30MonoWAV/30MonoH1.wav,2,2,1,5,,,,,0,3,3,4,0,8,8,6,,,,,,,,,2,1.8034979490003025,,,007,001,2019_May_07_1612,MusicAffectPsychophysiology2019,3.0.5,59.93007299166371,
To what extent did the music make you feel ,ACTIVE,30MonoWAV/30MonoH1.wav,2,2,1,5,,,,,0,3,3,4,0,9,9,9,,,,,,,,,3,1.887059450000379,,,007,001,2019_May_07_1612,MusicAffectPsychophysiology2019,3.0.5,59.93007299166371,
To what extent did the music make you feel ,GUILTY,30MonoWAV/30MonoH1.wav,2,2,1,5,,,,,0,3,3,4,0,10,10,5,,,,,,,,,1,0.9725569469992479,,,007,001,2019_May_07_1612,MusicAffectPsychophysiology2019,3.0.5,59.93007299166371,
To what extent did the music make you feel ,ALERT,30MonoWAV/30MonoH1.wav,2,2,1,5,,,,,0,3,3,4,0,11,11,8,,,,,,,,,2,1.850395651999861,,,007,001,2019_May_07_1612,MusicAffectPsychophysiology2019,3.0.5,59.93007299166371,
,,30MonoWAV/30MonoH1.wav,2,2,1,5,,,,,0,3,3,4,,,,,,,,,,,,,,,,,007,001,2019_May_07_1612,MusicAffectPsychophysiology2019,3.0.5,59.93007299166371,
To what extent did the music make you feel ,ACTIVE,30MonoWAV/30MonoH2.wav,2,2,1,6,,,,,0,4,4,5,0,0,0,9,,,3,3.873195524000039,2,1.704824546999589,,,3,1.6905790259988862,,,007,001,2019_May_07_1612,MusicAffectPsychophysiology2019,3.0.5,59.93007299166371,
To what extent did the music make you feel ,SAD,30MonoWAV/30MonoH2.wav,2,2,1,6,,,,,0,4,4,5,0,1,1,0,,,,,,,,,1,3.484700658998918,,,007,001,2019_May_07_1612,MusicAffectPsychophysiology2019,3.0.5,59.93007299166371,
To what extent did the music make you feel ,GUILTY,30MonoWAV/30MonoH2.wav,2,2,1,6,,,,,0,4,4,5,0,2,2,5,,,,,,,,,1,0.9528816470010497,,,007,001,2019_May_07_1612,MusicAffectPsychophysiology2019,3.0.5,59.93007299166371,
To what extent did the music make you feel ,ANGRY,30MonoWAV/30MonoH2.wav,2,2,1,6,,,,,0,4,4,5,0,3,3,2,,,,,,,,,1,0.9017426409991458,,,007,001,2019_May_07_1612,MusicAffectPsychophysiology2019,3.0.5,59.93007299166371,
To what extent did the music make you feel ,ANXIOUS ,30MonoWAV/30MonoH2.wav,2,2,1,6,,,,,0,4,4,5,0,4,4,1,,,,,,,,,1,1.0011893779992533,,,007,001,2019_May_07_1612,MusicAffectPsychophysiology2019,3.0.5,59.93007299166371,
To what extent did the music make you feel ,EXCITED,30MonoWAV/30MonoH2.wav,2,2,1,6,,,,,0,4,4,5,0,5,5,7,,,,,,,,,2,1.4023179809992143,,,007,001,2019_May_07_1612,MusicAffectPsychophysiology2019,3.0.5,59.93007299166371,
To what extent did the music make you feel ,FRUSTRATED,30MonoWAV/30MonoH2.wav,2,2,1,6,,,,,0,4,4,5,0,6,6,3,,,,,,,,,1,1.366114042000845,,,007,001,2019_May_07_1612,MusicAffectPsychophysiology2019,3.0.5,59.93007299166371,
To what extent did the music make you feel ,HAPPY,30MonoWAV/30MonoH2.wav,2,2,1,6,,,,,0,4,4,5,0,7,7,6,,,,,,,,,2,1.4674222909998207,,,007,001,2019_May_07_1612,MusicAffectPsychophysiology2019,3.0.5,59.93007299166371,
To what extent did the music make you feel ,SCARED,30MonoWAV/30MonoH2.wav,2,2,1,6,,,,,0,4,4,5,0,8,8,11,,,,,,,,,1,1.7174785759998485,,,007,001,2019_May_07_1612,MusicAffectPsychophysiology2019,3.0.5,59.93007299166371,
To what extent did the music make you feel ,ALERT,30MonoWAV/30MonoH2.wav,2,2,1,6,,,,,0,4,4,5,0,9,9,8,,,,,,,,,2,1.5187628519997816,,,007,001,2019_May_07_1612,MusicAffectPsychophysiology2019,3.0.5,59.93007299166371,
To what extent did the music make you feel ,ASHAMED,30MonoWAV/30MonoH2.wav,2,2,1,6,,,,,0,4,4,5,0,10,10,4,,,,,,,,,1,2.0179452919983305,,,007,001,2019_May_07_1612,MusicAffectPsychophysiology2019,3.0.5,59.93007299166371,
To what extent did the music make you feel ,TENDER,30MonoWAV/30MonoH2.wav,2,2,1,6,,,,,0,4,4,5,0,11,11,10,,,,,,,,,1,1.284863922999648,,,007,001,2019_May_07_1612,MusicAffectPsychophysiology2019,3.0.5,59.93007299166371,
,,30MonoWAV/30MonoH2.wav,2,2,1,6,,,,,0,4,4,5,,,,,,,,,,,,,,,,,007,001,2019_May_07_1612,MusicAffectPsychophysiology2019,3.0.5,59.93007299166371,
To what extent did the music make you feel ,GUILTY,30MonoWAV/30MonoF3.wav,1,2,2,3,,,,,0,5,5,2,0,0,0,5,,,3,3.0561471180008084,1,2.104103045996453,,,1,1.0399364820004848,,,007,001,2019_May_07_1612,MusicAffectPsychophysiology2019,3.0.5,59.93007299166371,
To what extent did the music make you feel ,SAD,30MonoWAV/30MonoF3.wav,1,2,2,3,,,,,0,5,5,2,0,1,1,0,,,,,,,,,1,0.9830711260001408,,,007,001,2019_May_07_1612,MusicAffectPsychophysiology2019,3.0.5,59.93007299166371,
To what extent did the music make you feel ,HAPPY,30MonoWAV/30MonoF3.wav,1,2,2,3,,,,,0,5,5,2,0,2,2,6,,,,,,,,,1,2.601803628000198,,,007,001,2019_May_07_1612,MusicAffectPsychophysiology2019,3.0.5,59.93007299166371,
To what extent did the music make you feel ,ACTIVE,30MonoWAV/30MonoF3.wav,1,2,2,3,,,,,0,5,5,2,0,3,3,9,,,,,,,,,3,2.0017315539989795,,,007,001,2019_May_07_1612,MusicAffectPsychophysiology2019,3.0.5,59.93007299166371,
To what extent did the music make you feel ,ASHAMED,30MonoWAV/30MonoF3.wav,1,2,2,3,,,,,0,5,5,2,0,4,4,4,,,,,,,,,1,1.2510890280027525,,,007,001,2019_May_07_1612,MusicAffectPsychophysiology2019,3.0.5,59.93007299166371,
To what extent did the music make you feel ,FRUSTRATED,30MonoWAV/30MonoF3.wav,1,2,2,3,,,,,0,5,5,2,0,5,5,3,,,,,,,,,1,2.834770079000009,,,007,001,2019_May_07_1612,MusicAffectPsychophysiology2019,3.0.5,59.93007299166371,
To what extent did the music make you feel ,EXCITED,30MonoWAV/30MonoF3.wav,1,2,2,3,,,,,0,5,5,2,0,6,6,7,,,,,,,,,1,1.1517915910008014,,,007,001,2019_May_07_1612,MusicAffectPsychophysiology2019,3.0.5,59.93007299166371,
To what extent did the music make you feel ,ANGRY,30MonoWAV/30MonoF3.wav,1,2,2,3,,,,,0,5,5,2,0,7,7,2,,,,,,,,,1,1.585159078000288,,,007,001,2019_May_07_1612,MusicAffectPsychophysiology2019,3.0.5,59.93007299166371,
To what extent did the music make you feel ,ANXIOUS ,30MonoWAV/30MonoF3.wav,1,2,2,3,,,,,0,5,5,2,0,8,8,1,,,,,,,,,4,1.9675687229973846,,,007,001,2019_May_07_1612,MusicAffectPsychophysiology2019,3.0.5,59.93007299166371,
To what extent did the music make you feel ,ALERT,30MonoWAV/30MonoF3.wav,1,2,2,3,,,,,0,5,5,2,0,9,9,8,,,,,,,,,3,1.351576681001461,,,007,001,2019_May_07_1612,MusicAffectPsychophysiology2019,3.0.5,59.93007299166371,
To what extent did the music make you feel ,TENDER,30MonoWAV/30MonoF3.wav,1,2,2,3,,,,,0,5,5,2,0,10,10,10,,,,,,,,,1,0.9666709229968546,,,007,001,2019_May_07_1612,MusicAffectPsychophysiology2019,3.0.5,59.93007299166371,
To what extent did the music make you feel ,SCARED,30MonoWAV/30MonoF3.wav,1,2,2,3,,,,,0,5,5,2,0,11,11,11,,,,,,,,,2,1.1178338030003943,,,007,001,2019_May_07_1612,MusicAffectPsychophysiology2019,3.0.5,59.93007299166371,
,,30MonoWAV/30MonoF3.wav,1,2,2,3,,,,,0,5,5,2,,,,,,,,,,,,,,,,,007,001,2019_May_07_1612,MusicAffectPsychophysiology2019,3.0.5,59.93007299166371,
To what extent did the music make you feel ,TENDER,30MonoWAV/30MonoF1.wav,1,2,2,1,,,,,0,6,6,0,0,0,0,10,,,4,3.0342794389980554,1,2.0346330720021797,,,1,1.8336757319993922,,,007,001,2019_May_07_1612,MusicAffectPsychophysiology2019,3.0.5,59.93007299166371,
To what extent did the music make you feel ,GUILTY,30MonoWAV/30MonoF1.wav,1,2,2,1,,,,,0,6,6,0,0,1,1,5,,,,,,,,,1,1.3518671819983865,,,007,001,2019_May_07_1612,MusicAffectPsychophysiology2019,3.0.5,59.93007299166371,
To what extent did the music make you feel ,HAPPY,30MonoWAV/30MonoF1.wav,1,2,2,1,,,,,0,6,6,0,0,2,2,6,,,,,,,,,1,0.9346762740024133,,,007,001,2019_May_07_1612,MusicAffectPsychophysiology2019,3.0.5,59.93007299166371,
To what extent did the music make you feel ,SAD,30MonoWAV/30MonoF1.wav,1,2,2,1,,,,,0,6,6,0,0,3,3,0,,,,,,,,,1,1.0672209779986588,,,007,001,2019_May_07_1612,MusicAffectPsychophysiology2019,3.0.5,59.93007299166371,
To what extent did the music make you feel ,ASHAMED,30MonoWAV/30MonoF1.wav,1,2,2,1,,,,,0,6,6,0,0,4,4,4,,,,,,,,,1,0.7856952769980126,,,007,001,2019_May_07_1612,MusicAffectPsychophysiology2019,3.0.5,59.93007299166371,
To what extent did the music make you feel ,EXCITED,30MonoWAV/30MonoF1.wav,1,2,2,1,,,,,0,6,6,0,0,5,5,7,,,,,,,,,1,1.7351113649965555,,,007,001,2019_May_07_1612,MusicAffectPsychophysiology2019,3.0.5,59.93007299166371,
To what extent did the music make you feel ,ANGRY,30MonoWAV/30MonoF1.wav,1,2,2,1,,,,,0,6,6,0,0,6,6,2,,,,,,,,,2,1.66780343299979,,,007,001,2019_May_07_1612,MusicAffectPsychophysiology2019,3.0.5,59.93007299166371,
To what extent did the music make you feel ,SCARED,30MonoWAV/30MonoF1.wav,1,2,2,1,,,,,0,6,6,0,0,7,7,11,,,,,,,,,3,1.6179388290001953,,,007,001,2019_May_07_1612,MusicAffectPsychophysiology2019,3.0.5,59.93007299166371,
To what extent did the music make you feel ,ACTIVE,30MonoWAV/30MonoF1.wav,1,2,2,1,,,,,0,6,6,0,0,8,8,9,,,,,,,,,3,1.1515084780003235,,,007,001,2019_May_07_1612,MusicAffectPsychophysiology2019,3.0.5,59.93007299166371,
To what extent did the music make you feel ,FRUSTRATED,30MonoWAV/30MonoF1.wav,1,2,2,1,,,,,0,6,6,0,0,9,9,3,,,,,,,,,1,1.401860049998504,,,007,001,2019_May_07_1612,MusicAffectPsychophysiology2019,3.0.5,59.93007299166371,
To what extent did the music make you feel ,ANXIOUS ,30MonoWAV/30MonoF1.wav,1,2,2,1,,,,,0,6,6,0,0,10,10,1,,,,,,,,,4,1.649764279001829,,,007,001,2019_May_07_1612,MusicAffectPsychophysiology2019,3.0.5,59.93007299166371,
To what extent did the music make you feel ,ALERT,30MonoWAV/30MonoF1.wav,1,2,2,1,,,,,0,6,6,0,0,11,11,8,,,,,,,,,2,2.0681432189994666,,,007,001,2019_May_07_1612,MusicAffectPsychophysiology2019,3.0.5,59.93007299166371,
,,30MonoWAV/30MonoF1.wav,1,2,2,1,,,,,0,6,6,0,,,,,,,,,,,,,,,,,007,001,2019_May_07_1612,MusicAffectPsychophysiology2019,3.0.5,59.93007299166371,
To what extent did the music make you feel ,TENDER,30MonoWAV/30MonoF4.wav,1,2,2,4,,,,,0,7,7,3,0,0,0,10,,,2,3.672687219997897,1,1.5197721139993519,,,1,2.2544635979975283,,,007,001,2019_May_07_1612,MusicAffectPsychophysiology2019,3.0.5,59.93007299166371,
To what extent did the music make you feel ,ASHAMED,30MonoWAV/30MonoF4.wav,1,2,2,4,,,,,0,7,7,3,0,1,1,4,,,,,,,,,1,0.7848364070014213,,,007,001,2019_May_07_1612,MusicAffectPsychophysiology2019,3.0.5,59.93007299166371,
To what extent did the music make you feel ,HAPPY,30MonoWAV/30MonoF4.wav,1,2,2,4,,,,,0,7,7,3,0,2,2,6,,,,,,,,,1,1.285181235998607,,,007,001,2019_May_07_1612,MusicAffectPsychophysiology2019,3.0.5,59.93007299166371,
To what extent did the music make you feel ,GUILTY,30MonoWAV/30MonoF4.wav,1,2,2,4,,,,,0,7,7,3,0,3,3,5,,,,,,,,,1,0.7681837159980205,,,007,001,2019_May_07_1612,MusicAffectPsychophysiology2019,3.0.5,59.93007299166371,
To what extent did the music make you feel ,ALERT,30MonoWAV/30MonoF4.wav,1,2,2,4,,,,,0,7,7,3,0,4,4,8,,,,,,,,,2,1.4022748930001399,,,007,001,2019_May_07_1612,MusicAffectPsychophysiology2019,3.0.5,59.93007299166371,
To what extent did the music make you feel ,ACTIVE,30MonoWAV/30MonoF4.wav,1,2,2,4,,,,,0,7,7,3,0,5,5,9,,,,,,,,,2,1.8854492110003775,,,007,001,2019_May_07_1612,MusicAffectPsychophysiology2019,3.0.5,59.93007299166371,
To what extent did the music make you feel ,FRUSTRATED,30MonoWAV/30MonoF4.wav,1,2,2,4,,,,,0,7,7,3,0,6,6,3,,,,,,,,,1,1.085799496002437,,,007,001,2019_May_07_1612,MusicAffectPsychophysiology2019,3.0.5,59.93007299166371,
To what extent did the music make you feel ,ANGRY,30MonoWAV/30MonoF4.wav,1,2,2,4,,,,,0,7,7,3,0,7,7,2,,,,,,,,,1,1.3353048479984864,,,007,001,2019_May_07_1612,MusicAffectPsychophysiology2019,3.0.5,59.93007299166371,
To what extent did the music make you feel ,ANXIOUS ,30MonoWAV/30MonoF4.wav,1,2,2,4,,,,,0,7,7,3,0,8,8,1,,,,,,,,,4,1.7016354749976017,,,007,001,2019_May_07_1612,MusicAffectPsychophysiology2019,3.0.5,59.93007299166371,
To what extent did the music make you feel ,SCARED,30MonoWAV/30MonoF4.wav,1,2,2,4,,,,,0,7,7,3,0,9,9,11,,,,,,,,,3,1.2691190099976666,,,007,001,2019_May_07_1612,MusicAffectPsychophysiology2019,3.0.5,59.93007299166371,
To what extent did the music make you feel ,EXCITED,30MonoWAV/30MonoF4.wav,1,2,2,4,,,,,0,7,7,3,0,10,10,7,,,,,,,,,1,1.3352866450004512,,,007,001,2019_May_07_1612,MusicAffectPsychophysiology2019,3.0.5,59.93007299166371,
To what extent did the music make you feel ,SAD,30MonoWAV/30MonoF4.wav,1,2,2,4,,,,,0,7,7,3,0,11,11,0,,,,,,,,,2,1.4493780080010765,,,007,001,2019_May_07_1612,MusicAffectPsychophysiology2019,3.0.5,59.93007299166371,
,,30MonoWAV/30MonoF4.wav,1,2,2,4,,,,,0,7,7,3,,,,,,,,,,,,,,,,,007,001,2019_May_07_1612,MusicAffectPsychophysiology2019,3.0.5,59.93007299166371,
To what extent did the music make you feel ,TENDER,30MonoWAV/30MonoT3.wav,2,1,4,15,,,,,0,8,8,14,0,0,0,10,,,2,3.084673446999659,3,1.4685070689993154,,,2,1.6175996880010644,,,007,001,2019_May_07_1612,MusicAffectPsychophysiology2019,3.0.5,59.93007299166371,
To what extent did the music make you feel ,ALERT,30MonoWAV/30MonoT3.wav,2,1,4,15,,,,,0,8,8,14,0,1,1,8,,,,,,,,,3,1.6184597359970212,,,007,001,2019_May_07_1612,MusicAffectPsychophysiology2019,3.0.5,59.93007299166371,
To what extent did the music make you feel ,ACTIVE,30MonoWAV/30MonoT3.wav,2,1,4,15,,,,,0,8,8,14,0,2,2,9,,,,,,,,,1,1.5169474729991634,,,007,001,2019_May_07_1612,MusicAffectPsychophysiology2019,3.0.5,59.93007299166371,
To what extent did the music make you feel ,ANGRY,30MonoWAV/30MonoT3.wav,2,1,4,15,,,,,0,8,8,14,0,3,3,2,,,,,,,,,1,0.8861886039994715,,,007,001,2019_May_07_1612,MusicAffectPsychophysiology2019,3.0.5,59.93007299166371,
To what extent did the music make you feel ,FRUSTRATED,30MonoWAV/30MonoT3.wav,2,1,4,15,,,,,0,8,8,14,0,4,4,3,,,,,,,,,1,0.6676002499989409,,,007,001,2019_May_07_1612,MusicAffectPsychophysiology2019,3.0.5,59.93007299166371,
To what extent did the music make you feel ,GUILTY,30MonoWAV/30MonoT3.wav,2,1,4,15,,,,,0,8,8,14,0,5,5,5,,,,,,,,,1,1.2853372360004869,,,007,001,2019_May_07_1612,MusicAffectPsychophysiology2019,3.0.5,59.93007299166371,
To what extent did the music make you feel ,HAPPY,30MonoWAV/30MonoT3.wav,2,1,4,15,,,,,0,8,8,14,0,6,6,6,,,,,,,,,2,1.1188414499993087,,,007,001,2019_May_07_1612,MusicAffectPsychophysiology2019,3.0.5,59.93007299166371,
To what extent did the music make you feel ,ASHAMED,30MonoWAV/30MonoT3.wav,2,1,4,15,,,,,0,8,8,14,0,7,7,4,,,,,,,,,1,0.6853733689968067,,,007,001,2019_May_07_1612,MusicAffectPsychophysiology2019,3.0.5,59.93007299166371,
To what extent did the music make you feel ,EXCITED,30MonoWAV/30MonoT3.wav,2,1,4,15,,,,,0,8,8,14,0,8,8,7,,,,,,,,,1,1.0689861030004977,,,007,001,2019_May_07_1612,MusicAffectPsychophysiology2019,3.0.5,59.93007299166371,
To what extent did the music make you feel ,ANXIOUS ,30MonoWAV/30MonoT3.wav,2,1,4,15,,,,,0,8,8,14,0,9,9,1,,,,,,,,,1,1.1179941580012382,,,007,001,2019_May_07_1612,MusicAffectPsychophysiology2019,3.0.5,59.93007299166371,
To what extent did the music make you feel ,SCARED,30MonoWAV/30MonoT3.wav,2,1,4,15,,,,,0,8,8,14,0,10,10,11,,,,,,,,,1,1.3999785659980262,,,007,001,2019_May_07_1612,MusicAffectPsychophysiology2019,3.0.5,59.93007299166371,
To what extent did the music make you feel ,SAD,30MonoWAV/30MonoT3.wav,2,1,4,15,,,,,0,8,8,14,0,11,11,0,,,,,,,,,1,0.5850064020014543,,,007,001,2019_May_07_1612,MusicAffectPsychophysiology2019,3.0.5,59.93007299166371,
,,30MonoWAV/30MonoT3.wav,2,1,4,15,,,,,0,8,8,14,,,,,,,,,,,,,,,,,007,001,2019_May_07_1612,MusicAffectPsychophysiology2019,3.0.5,59.93007299166371,
To what extent did the music make you feel ,TENDER,30MonoWAV/30MonoH4.wav,2,2,1,8,,,,,0,9,9,7,0,0,0,10,,,3,2.551028067999141,4,1.835900161000609,,,1,1.2179219639983785,,,007,001,2019_May_07_1612,MusicAffectPsychophysiology2019,3.0.5,59.93007299166371,
To what extent did the music make you feel ,HAPPY,30MonoWAV/30MonoH4.wav,2,2,1,8,,,,,0,9,9,7,0,1,1,6,,,,,,,,,4,1.6519895550009096,,,007,001,2019_May_07_1612,MusicAffectPsychophysiology2019,3.0.5,59.93007299166371,
To what extent did the music make you feel ,ACTIVE,30MonoWAV/30MonoH4.wav,2,2,1,8,,,,,0,9,9,7,0,2,2,9,,,,,,,,,4,1.5186307990006753,,,007,001,2019_May_07_1612,MusicAffectPsychophysiology2019,3.0.5,59.93007299166371,
To what extent did the music make you feel ,ANGRY,30MonoWAV/30MonoH4.wav,2,2,1,8,,,,,0,9,9,7,0,3,3,2,,,,,,,,,1,0.9512364419970254,,,007,001,2019_May_07_1612,MusicAffectPsychophysiology2019,3.0.5,59.93007299166371,
To what extent did the music make you feel ,SAD,30MonoWAV/30MonoH4.wav,2,2,1,8,,,,,0,9,9,7,0,4,4,0,,,,,,,,,1,1.1004199750022963,,,007,001,2019_May_07_1612,MusicAffectPsychophysiology2019,3.0.5,59.93007299166371,
To what extent did the music make you feel ,ANXIOUS ,30MonoWAV/30MonoH4.wav,2,2,1,8,,,,,0,9,9,7,0,5,5,1,,,,,,,,,1,0.6026713510000263,,,007,001,2019_May_07_1612,MusicAffectPsychophysiology2019,3.0.5,59.93007299166371,
To what extent did the music make you feel ,ALERT,30MonoWAV/30MonoH4.wav,2,2,1,8,,,,,0,9,9,7,0,6,6,8,,,,,,,,,3,1.368747249001899,,,007,001,2019_May_07_1612,MusicAffectPsychophysiology2019,3.0.5,59.93007299166371,
To what extent did the music make you feel ,ASHAMED,30MonoWAV/30MonoH4.wav,2,2,1,8,,,,,0,9,9,7,0,7,7,4,,,,,,,,,1,0.8854198840017489,,,007,001,2019_May_07_1612,MusicAffectPsychophysiology2019,3.0.5,59.93007299166371,
To what extent did the music make you feel ,GUILTY,30MonoWAV/30MonoH4.wav,2,2,1,8,,,,,0,9,9,7,0,8,8,5,,,,,,,,,1,1.1862429559987504,,,007,001,2019_May_07_1612,MusicAffectPsychophysiology2019,3.0.5,59.93007299166371,
To what extent did the music make you feel ,EXCITED,30MonoWAV/30MonoH4.wav,2,2,1,8,,,,,0,9,9,7,0,9,9,7,,,,,,,,,3,1.9858413980000478,,,007,001,2019_May_07_1612,MusicAffectPsychophysiology2019,3.0.5,59.93007299166371,
To what extent did the music make you feel ,SCARED,30MonoWAV/30MonoH4.wav,2,2,1,8,,,,,0,9,9,7,0,10,10,11,,,,,,,,,1,1.1013638889999129,,,007,001,2019_May_07_1612,MusicAffectPsychophysiology2019,3.0.5,59.93007299166371,
To what extent did the music make you feel ,FRUSTRATED,30MonoWAV/30MonoH4.wav,2,2,1,8,,,,,0,9,9,7,0,11,11,3,,,,,,,,,1,0.6681619449991558,,,007,001,2019_May_07_1612,MusicAffectPsychophysiology2019,3.0.5,59.93007299166371,
,,30MonoWAV/30MonoH4.wav,2,2,1,8,,,,,0,9,9,7,,,,,,,,,,,,,,,,,007,001,2019_May_07_1612,MusicAffectPsychophysiology2019,3.0.5,59.93007299166371,
To what extent did the music make you feel ,ANGRY,30MonoWAV/30MonoT2.wav,2,1,4,14,,,,,0,10,10,13,0,0,0,2,,,2,2.8259767010022188,4,1.8175339590015938,,,1,1.1523227830002725,,,007,001,2019_May_07_1612,MusicAffectPsychophysiology2019,3.0.5,59.93007299166371,
To what extent did the music make you feel ,ASHAMED,30MonoWAV/30MonoT2.wav,2,1,4,14,,,,,0,10,10,13,0,1,1,4,,,,,,,,,1,1.3021252129983623,,,007,001,2019_May_07_1612,MusicAffectPsychophysiology2019,3.0.5,59.93007299166371,
To what extent did the music make you feel ,ACTIVE,30MonoWAV/30MonoT2.wav,2,1,4,14,,,,,0,10,10,13,0,2,2,9,,,,,,,,,2,1.3839729339997575,,,007,001,2019_May_07_1612,MusicAffectPsychophysiology2019,3.0.5,59.93007299166371,
To what extent did the music make you feel ,SCARED,30MonoWAV/30MonoT2.wav,2,1,4,14,,,,,0,10,10,13,0,3,3,11,,,,,,,,,1,0.7217415170016466,,,007,001,2019_May_07_1612,MusicAffectPsychophysiology2019,3.0.5,59.93007299166371,
To what extent did the music make you feel ,GUILTY,30MonoWAV/30MonoT2.wav,2,1,4,14,,,,,0,10,10,13,0,4,4,5,,,,,,,,,1,0.7030213990001357,,,007,001,2019_May_07_1612,MusicAffectPsychophysiology2019,3.0.5,59.93007299166371,
To what extent did the music make you feel ,TENDER,30MonoWAV/30MonoT2.wav,2,1,4,14,,,,,0,10,10,13,0,5,5,10,,,,,,,,,2,1.6207275099986873,,,007,001,2019_May_07_1612,MusicAffectPsychophysiology2019,3.0.5,59.93007299166371,
To what extent did the music make you feel ,SAD,30MonoWAV/30MonoT2.wav,2,1,4,14,,,,,0,10,10,13,0,6,6,0,,,,,,,,,1,0.6859541439989698,,,007,001,2019_May_07_1612,MusicAffectPsychophysiology2019,3.0.5,59.93007299166371,
To what extent did the music make you feel ,ANXIOUS ,30MonoWAV/30MonoT2.wav,2,1,4,14,,,,,0,10,10,13,0,7,7,1,,,,,,,,,1,1.5536411149987543,,,007,001,2019_May_07_1612,MusicAffectPsychophysiology2019,3.0.5,59.93007299166371,
To what extent did the music make you feel ,FRUSTRATED,30MonoWAV/30MonoT2.wav,2,1,4,14,,,,,0,10,10,13,0,8,8,3,,,,,,,,,1,0.7696333790008794,,,007,001,2019_May_07_1612,MusicAffectPsychophysiology2019,3.0.5,59.93007299166371,
To what extent did the music make you feel ,ALERT,30MonoWAV/30MonoT2.wav,2,1,4,14,,,,,0,10,10,13,0,9,9,8,,,,,,,,,2,1.4860306580012548,,,007,001,2019_May_07_1612,MusicAffectPsychophysiology2019,3.0.5,59.93007299166371,
To what extent did the music make you feel ,HAPPY,30MonoWAV/30MonoT2.wav,2,1,4,14,,,,,0,10,10,13,0,10,10,6,,,,,,,,,4,1.5224735160009004,,,007,001,2019_May_07_1612,MusicAffectPsychophysiology2019,3.0.5,59.93007299166371,
To what extent did the music make you feel ,EXCITED,30MonoWAV/30MonoT2.wav,2,1,4,14,,,,,0,10,10,13,0,11,11,7,,,,,,,,,2,1.317222819001472,,,007,001,2019_May_07_1612,MusicAffectPsychophysiology2019,3.0.5,59.93007299166371,
,,30MonoWAV/30MonoT2.wav,2,1,4,14,,,,,0,10,10,13,,,,,,,,,,,,,,,,,007,001,2019_May_07_1612,MusicAffectPsychophysiology2019,3.0.5,59.93007299166371,
To what extent did the music make you feel ,EXCITED,30MonoWAV/30MonoS2.wav,1,1,3,10,,,,,0,11,11,9,0,0,0,7,,,1,2.7514511289991788,1,1.2676424860001134,,,1,1.0842501379993337,,,007,001,2019_May_07_1612,MusicAffectPsychophysiology2019,3.0.5,59.93007299166371,
To what extent did the music make you feel ,TENDER,30MonoWAV/30MonoS2.wav,1,1,3,10,,,,,0,11,11,9,0,1,1,10,,,,,,,,,2,1.2351145829998131,,,007,001,2019_May_07_1612,MusicAffectPsychophysiology2019,3.0.5,59.93007299166371,
To what extent did the music make you feel ,HAPPY,30MonoWAV/30MonoS2.wav,1,1,3,10,,,,,0,11,11,9,0,2,2,6,,,,,,,,,1,1.0350988229984068,,,007,001,2019_May_07_1612,MusicAffectPsychophysiology2019,3.0.5,59.93007299166371,
To what extent did the music make you feel ,ALERT,30MonoWAV/30MonoS2.wav,1,1,3,10,,,,,0,11,11,9,0,3,3,8,,,,,,,,,1,1.217811538001115,,,007,001,2019_May_07_1612,MusicAffectPsychophysiology2019,3.0.5,59.93007299166371,
To what extent did the music make you feel ,ASHAMED,30MonoWAV/30MonoS2.wav,1,1,3,10,,,,,0,11,11,9,0,4,4,4,,,,,,,,,1,1.4017107500003476,,,007,001,2019_May_07_1612,MusicAffectPsychophysiology2019,3.0.5,59.93007299166371,
To what extent did the music make you feel ,SAD,30MonoWAV/30MonoS2.wav,1,1,3,10,,,,,0,11,11,9,0,5,5,0,,,,,,,,,4,2.501137857998401,,,007,001,2019_May_07_1612,MusicAffectPsychophysiology2019,3.0.5,59.93007299166371,
To what extent did the music make you feel ,ANXIOUS ,30MonoWAV/30MonoS2.wav,1,1,3,10,,,,,0,11,11,9,0,6,6,1,,,,,,,,,2,1.6400059769985091,,,007,001,2019_May_07_1612,MusicAffectPsychophysiology2019,3.0.5,59.93007299166371,
To what extent did the music make you feel ,GUILTY,30MonoWAV/30MonoS2.wav,1,1,3,10,,,,,0,11,11,9,0,7,7,5,,,,,,,,,2,1.9879632009979105,,,007,001,2019_May_07_1612,MusicAffectPsychophysiology2019,3.0.5,59.93007299166371,
To what extent did the music make you feel ,ACTIVE,30MonoWAV/30MonoS2.wav,1,1,3,10,,,,,0,11,11,9,0,8,8,9,,,,,,,,,1,1.3852233870020427,,,007,001,2019_May_07_1612,MusicAffectPsychophysiology2019,3.0.5,59.93007299166371,
To what extent did the music make you feel ,SCARED,30MonoWAV/30MonoS2.wav,1,1,3,10,,,,,0,11,11,9,0,9,9,11,,,,,,,,,1,1.6533981319989834,,,007,001,2019_May_07_1612,MusicAffectPsychophysiology2019,3.0.5,59.93007299166371,
To what extent did the music make you feel ,ANGRY,30MonoWAV/30MonoS2.wav,1,1,3,10,,,,,0,11,11,9,0,10,10,2,,,,,,,,,1,0.9521454380010255,,,007,001,2019_May_07_1612,MusicAffectPsychophysiology2019,3.0.5,59.93007299166371,
To what extent did the music make you feel ,FRUSTRATED,30MonoWAV/30MonoS2.wav,1,1,3,10,,,,,0,11,11,9,0,11,11,3,,,,,,,,,1,1.288939048001339,,,007,001,2019_May_07_1612,MusicAffectPsychophysiology2019,3.0.5,59.93007299166371,
,,30MonoWAV/30MonoS2.wav,1,1,3,10,,,,,0,11,11,9,,,,,,,,,,,,,,,,,007,001,2019_May_07_1612,MusicAffectPsychophysiology2019,3.0.5,59.93007299166371,
To what extent did the music make you feel ,GUILTY,30MonoWAV/30MonoS3.wav,1,1,3,11,,,,,0,12,12,10,0,0,0,5,,,1,3.401893696998741,1,2.001033411001117,,,2,1.4686320569999225,,,007,001,2019_May_07_1612,MusicAffectPsychophysiology2019,3.0.5,59.93007299166371,
To what extent did the music make you feel ,ANGRY,30MonoWAV/30MonoS3.wav,1,1,3,11,,,,,0,12,12,10,0,1,1,2,,,,,,,,,1,1.1686179589996755,,,007,001,2019_May_07_1612,MusicAffectPsychophysiology2019,3.0.5,59.93007299166371,
To what extent did the music make you feel ,ACTIVE,30MonoWAV/30MonoS3.wav,1,1,3,11,,,,,0,12,12,10,0,2,2,9,,,,,,,,,1,0.7520861630000581,,,007,001,2019_May_07_1612,MusicAffectPsychophysiology2019,3.0.5,59.93007299166371,
To what extent did the music make you feel ,TENDER,30MonoWAV/30MonoS3.wav,1,1,3,11,,,,,0,12,12,10,0,3,3,10,,,,,,,,,3,1.5343422980004107,,,007,001,2019_May_07_1612,MusicAffectPsychophysiology2019,3.0.5,59.93007299166371,
To what extent did the music make you feel ,EXCITED,30MonoWAV/30MonoS3.wav,1,1,3,11,,,,,0,12,12,10,0,4,4,7,,,,,,,,,1,1.1366681889994652,,,007,001,2019_May_07_1612,MusicAffectPsychophysiology2019,3.0.5,59.93007299166371,
To what extent did the music make you feel ,ALERT,30MonoWAV/30MonoS3.wav,1,1,3,11,,,,,0,12,12,10,0,5,5,8,,,,,,,,,1,1.7691218050022144,,,007,001,2019_May_07_1612,MusicAffectPsychophysiology2019,3.0.5,59.93007299166371,
To what extent did the music make you feel ,SCARED,30MonoWAV/30MonoS3.wav,1,1,3,11,,,,,0,12,12,10,0,6,6,11,,,,,,,,,3,1.9524820349979564,,,007,001,2019_May_07_1612,MusicAffectPsychophysiology2019,3.0.5,59.93007299166371,
To what extent did the music make you feel ,SAD,30MonoWAV/30MonoS3.wav,1,1,3,11,,,,,0,12,12,10,0,7,7,0,,,,,,,,,4,1.7914496180019341,,,007,001,2019_May_07_1612,MusicAffectPsychophysiology2019,3.0.5,59.93007299166371,
To what extent did the music make you feel ,ASHAMED,30MonoWAV/30MonoS3.wav,1,1,3,11,,,,,0,12,12,10,0,8,8,4,,,,,,,,,2,1.9371155310000177,,,007,001,2019_May_07_1612,MusicAffectPsychophysiology2019,3.0.5,59.93007299166371,
To what extent did the music make you feel ,ANXIOUS ,30MonoWAV/30MonoS3.wav,1,1,3,11,,,,,0,12,12,10,0,9,9,1,,,,,,,,,1,1.6707296240019787,,,007,001,2019_May_07_1612,MusicAffectPsychophysiology2019,3.0.5,59.93007299166371,
To what extent did the music make you feel ,FRUSTRATED,30MonoWAV/30MonoS3.wav,1,1,3,11,,,,,0,12,12,10,0,10,10,3,,,,,,,,,1,1.0358479560018168,,,007,001,2019_May_07_1612,MusicAffectPsychophysiology2019,3.0.5,59.93007299166371,
To what extent did the music make you feel ,HAPPY,30MonoWAV/30MonoS3.wav,1,1,3,11,,,,,0,12,12,10,0,11,11,6,,,,,,,,,1,0.7895992119993025,,,007,001,2019_May_07_1612,MusicAffectPsychophysiology2019,3.0.5,59.93007299166371,
,,30MonoWAV/30MonoS3.wav,1,1,3,11,,,,,0,12,12,10,,,,,,,,,,,,,,,,,007,001,2019_May_07_1612,MusicAffectPsychophysiology2019,3.0.5,59.93007299166371,
To what extent did the music make you feel ,EXCITED,30MonoWAV/30MonoS4.wav,1,1,3,12,,,,,0,13,13,11,0,0,0,7,,,1,2.967974390001473,1,0.8683242210026947,,,1,1.2860745920006593,,,007,001,2019_May_07_1612,MusicAffectPsychophysiology2019,3.0.5,59.93007299166371,
To what extent did the music make you feel ,ALERT,30MonoWAV/30MonoS4.wav,1,1,3,12,,,,,0,13,13,11,0,1,1,8,,,,,,,,,1,1.0351995960008935,,,007,001,2019_May_07_1612,MusicAffectPsychophysiology2019,3.0.5,59.93007299166371,
To what extent did the music make you feel ,SCARED,30MonoWAV/30MonoS4.wav,1,1,3,12,,,,,0,13,13,11,0,2,2,11,,,,,,,,,2,2.7183327679995273,,,007,001,2019_May_07_1612,MusicAffectPsychophysiology2019,3.0.5,59.93007299166371,
To what extent did the music make you feel ,GUILTY,30MonoWAV/30MonoS4.wav,1,1,3,12,,,,,0,13,13,11,0,3,3,5,,,,,,,,,3,1.7522940970011405,,,007,001,2019_May_07_1612,MusicAffectPsychophysiology2019,3.0.5,59.93007299166371,
To what extent did the music make you feel ,ANXIOUS ,30MonoWAV/30MonoS4.wav,1,1,3,12,,,,,0,13,13,11,0,4,4,1,,,,,,,,,1,2.234857619001559,,,007,001,2019_May_07_1612,MusicAffectPsychophysiology2019,3.0.5,59.93007299166371,
To what extent did the music make you feel ,SAD,30MonoWAV/30MonoS4.wav,1,1,3,12,,,,,0,13,13,11,0,5,5,0,,,,,,,,,4,1.4512325159994361,,,007,001,2019_May_07_1612,MusicAffectPsychophysiology2019,3.0.5,59.93007299166371,
To what extent did the music make you feel ,HAPPY,30MonoWAV/30MonoS4.wav,1,1,3,12,,,,,0,13,13,11,0,6,6,6,,,,,,,,,1,1.1518630539976584,,,007,001,2019_May_07_1612,MusicAffectPsychophysiology2019,3.0.5,59.93007299166371,
To what extent did the music make you feel ,FRUSTRATED,30MonoWAV/30MonoS4.wav,1,1,3,12,,,,,0,13,13,11,0,7,7,3,,,,,,,,,2,1.4359667089993309,,,007,001,2019_May_07_1612,MusicAffectPsychophysiology2019,3.0.5,59.93007299166371,
To what extent did the music make you feel ,ASHAMED,30MonoWAV/30MonoS4.wav,1,1,3,12,,,,,0,13,13,11,0,8,8,4,,,,,,,,,3,1.7524954059990705,,,007,001,2019_May_07_1612,MusicAffectPsychophysiology2019,3.0.5,59.93007299166371,
To what extent did the music make you feel ,ANGRY,30MonoWAV/30MonoS4.wav,1,1,3,12,,,,,0,13,13,11,0,9,9,2,,,,,,,,,1,1.2523177059993031,,,007,001,2019_May_07_1612,MusicAffectPsychophysiology2019,3.0.5,59.93007299166371,
To what extent did the music make you feel ,TENDER,30MonoWAV/30MonoS4.wav,1,1,3,12,,,,,0,13,13,11,0,10,10,10,,,,,,,,,3,1.7012923889997182,,,007,001,2019_May_07_1612,MusicAffectPsychophysiology2019,3.0.5,59.93007299166371,
To what extent did the music make you feel ,ACTIVE,30MonoWAV/30MonoS4.wav,1,1,3,12,,,,,0,13,13,11,0,11,11,9,,,,,,,,,1,1.83513760400092,,,007,001,2019_May_07_1612,MusicAffectPsychophysiology2019,3.0.5,59.93007299166371,
,,30MonoWAV/30MonoS4.wav,1,1,3,12,,,,,0,13,13,11,,,,,,,,,,,,,,,,,007,001,2019_May_07_1612,MusicAffectPsychophysiology2019,3.0.5,59.93007299166371,
To what extent did the music make you feel ,HAPPY,30MonoWAV/30MonoS1.wav,1,1,3,9,,,,,0,14,14,8,0,0,0,6,,,1,3.0520125669972913,1,1.0019253809987276,,,1,0.8018663309994736,,,007,001,2019_May_07_1612,MusicAffectPsychophysiology2019,3.0.5,59.93007299166371,
To what extent did the music make you feel ,ACTIVE,30MonoWAV/30MonoS1.wav,1,1,3,9,,,,,0,14,14,8,0,1,1,9,,,,,,,,,1,1.2019756800000323,,,007,001,2019_May_07_1612,MusicAffectPsychophysiology2019,3.0.5,59.93007299166371,
To what extent did the music make you feel ,ALERT,30MonoWAV/30MonoS1.wav,1,1,3,9,,,,,0,14,14,8,0,2,2,8,,,,,,,,,2,1.2686123899984523,,,007,001,2019_May_07_1612,MusicAffectPsychophysiology2019,3.0.5,59.93007299166371,
To what extent did the music make you feel ,ASHAMED,30MonoWAV/30MonoS1.wav,1,1,3,9,,,,,0,14,14,8,0,3,3,4,,,,,,,,,2,1.8515815229984582,,,007,001,2019_May_07_1612,MusicAffectPsychophysiology2019,3.0.5,59.93007299166371,
To what extent did the music make you feel ,ANXIOUS ,30MonoWAV/30MonoS1.wav,1,1,3,9,,,,,0,14,14,8,0,4,4,1,,,,,,,,,3,1.6354064080005628,,,007,001,2019_May_07_1612,MusicAffectPsychophysiology2019,3.0.5,59.93007299166371,
To what extent did the music make you feel ,TENDER,30MonoWAV/30MonoS1.wav,1,1,3,9,,,,,0,14,14,8,0,5,5,10,,,,,,,,,3,1.101484969000012,,,007,001,2019_May_07_1612,MusicAffectPsychophysiology2019,3.0.5,59.93007299166371,
To what extent did the music make you feel ,FRUSTRATED,30MonoWAV/30MonoS1.wav,1,1,3,9,,,,,0,14,14,8,0,6,6,3,,,,,,,,,1,1.4191375650007103,,,007,001,2019_May_07_1612,MusicAffectPsychophysiology2019,3.0.5,59.93007299166371,
To what extent did the music make you feel ,SCARED,30MonoWAV/30MonoS1.wav,1,1,3,9,,,,,0,14,14,8,0,7,7,11,,,,,,,,,1,1.6185002220008755,,,007,001,2019_May_07_1612,MusicAffectPsychophysiology2019,3.0.5,59.93007299166371,
To what extent did the music make you feel ,SAD,30MonoWAV/30MonoS1.wav,1,1,3,9,,,,,0,14,14,8,0,8,8,0,,,,,,,,,4,1.3013666039987584,,,007,001,2019_May_07_1612,MusicAffectPsychophysiology2019,3.0.5,59.93007299166371,
To what extent did the music make you feel ,EXCITED,30MonoWAV/30MonoS1.wav,1,1,3,9,,,,,0,14,14,8,0,9,9,7,,,,,,,,,1,0.9684549220000918,,,007,001,2019_May_07_1612,MusicAffectPsychophysiology2019,3.0.5,59.93007299166371,
To what extent did the music make you feel ,ANGRY,30MonoWAV/30MonoS1.wav,1,1,3,9,,,,,0,14,14,8,0,10,10,2,,,,,,,,,1,0.8685458170002676,,,007,001,2019_May_07_1612,MusicAffectPsychophysiology2019,3.0.5,59.93007299166371,
To what extent did the music make you feel ,GUILTY,30MonoWAV/30MonoS1.wav,1,1,3,9,,,,,0,14,14,8,0,11,11,5,,,,,,,,,1,1.501858051000454,,,007,001,2019_May_07_1612,MusicAffectPsychophysiology2019,3.0.5,59.93007299166371,
,,30MonoWAV/30MonoS1.wav,1,1,3,9,,,,,0,14,14,8,,,,,,,,,,,,,,,,,007,001,2019_May_07_1612,MusicAffectPsychophysiology2019,3.0.5,59.93007299166371,
To what extent did the music make you feel ,ASHAMED,30MonoWAV/30MonoF2.wav,1,2,2,2,,,,,0,15,15,1,0,0,0,4,,,3,3.1518813319999026,1,1.585451651000767,,,1,1.285669553999469,,,007,001,2019_May_07_1612,MusicAffectPsychophysiology2019,3.0.5,59.93007299166371,
To what extent did the music make you feel ,TENDER,30MonoWAV/30MonoF2.wav,1,2,2,2,,,,,0,15,15,1,0,1,1,10,,,,,,,,,1,1.067385351001576,,,007,001,2019_May_07_1612,MusicAffectPsychophysiology2019,3.0.5,59.93007299166371,
To what extent did the music make you feel ,HAPPY,30MonoWAV/30MonoF2.wav,1,2,2,2,,,,,0,15,15,1,0,2,2,6,,,,,,,,,1,0.7992241920001106,,,007,001,2019_May_07_1612,MusicAffectPsychophysiology2019,3.0.5,59.93007299166371,
To what extent did the music make you feel ,EXCITED,30MonoWAV/30MonoF2.wav,1,2,2,2,,,,,0,15,15,1,0,3,3,7,,,,,,,,,1,0.8002255179999338,,,007,001,2019_May_07_1612,MusicAffectPsychophysiology2019,3.0.5,59.93007299166371,
To what extent did the music make you feel ,GUILTY,30MonoWAV/30MonoF2.wav,1,2,2,2,,,,,0,15,15,1,0,4,4,5,,,,,,,,,1,0.9014638919979916,,,007,001,2019_May_07_1612,MusicAffectPsychophysiology2019,3.0.5,59.93007299166371,
To what extent did the music make you feel ,ANXIOUS ,30MonoWAV/30MonoF2.wav,1,2,2,2,,,,,0,15,15,1,0,5,5,1,,,,,,,,,4,1.51812086100108,,,007,001,2019_May_07_1612,MusicAffectPsychophysiology2019,3.0.5,59.93007299166371,
To what extent did the music make you feel ,ACTIVE,30MonoWAV/30MonoF2.wav,1,2,2,2,,,,,0,15,15,1,0,6,6,9,,,,,,,,,2,1.5840808479988482,,,007,001,2019_May_07_1612,MusicAffectPsychophysiology2019,3.0.5,59.93007299166371,
To what extent did the music make you feel ,FRUSTRATED,30MonoWAV/30MonoF2.wav,1,2,2,2,,,,,0,15,15,1,0,7,7,3,,,,,,,,,1,1.2852774250022776,,,007,001,2019_May_07_1612,MusicAffectPsychophysiology2019,3.0.5,59.93007299166371,
To what extent did the music make you feel ,SAD,30MonoWAV/30MonoF2.wav,1,2,2,2,,,,,0,15,15,1,0,8,8,0,,,,,,,,,1,1.6841182249991107,,,007,001,2019_May_07_1612,MusicAffectPsychophysiology2019,3.0.5,59.93007299166371,
To what extent did the music make you feel ,SCARED,30MonoWAV/30MonoF2.wav,1,2,2,2,,,,,0,15,15,1,0,9,9,11,,,,,,,,,5,1.4019310760013468,,,007,001,2019_May_07_1612,MusicAffectPsychophysiology2019,3.0.5,59.93007299166371,
To what extent did the music make you feel ,ALERT,30MonoWAV/30MonoF2.wav,1,2,2,2,,,,,0,15,15,1,0,10,10,8,,,,,,,,,4,1.6019446310019703,,,007,001,2019_May_07_1612,MusicAffectPsychophysiology2019,3.0.5,59.93007299166371,
To what extent did the music make you feel ,ANGRY,30MonoWAV/30MonoF2.wav,1,2,2,2,,,,,0,15,15,1,0,11,11,2,,,,,,,,,1,1.4517994730013015,,,007,001,2019_May_07_1612,MusicAffectPsychophysiology2019,3.0.5,59.93007299166371,
,,30MonoWAV/30MonoF2.wav,1,2,2,2,,,,,0,15,15,1,,,,,,,,,,,,,,,,,007,001,2019_May_07_1612,MusicAffectPsychophysiology2019,3.0.5,59.93007299166371,
To what extent did the music make you feel ,EXCITED,30MonoWAV/30MonoS1.wav,1,1,3,9,,,,,1,0,16,8,0,0,0,7,,,2,2.8188661579988548,1,3.618489024000155,,,1,2.0511049870001443,,,007,001,2019_May_07_1612,MusicAffectPsychophysiology2019,3.0.5,59.93007299166371,
To what extent did the music make you feel ,ALERT,30MonoWAV/30MonoS1.wav,1,1,3,9,,,,,1,0,16,8,0,1,1,8,,,,,,,,,1,1.2850501499997335,,,007,001,2019_May_07_1612,MusicAffectPsychophysiology2019,3.0.5,59.93007299166371,
To what extent did the music make you feel ,GUILTY,30MonoWAV/30MonoS1.wav,1,1,3,9,,,,,1,0,16,8,0,2,2,5,,,,,,,,,1,0.7845735720002267,,,007,001,2019_May_07_1612,MusicAffectPsychophysiology2019,3.0.5,59.93007299166371,
To what extent did the music make you feel ,FRUSTRATED,30MonoWAV/30MonoS1.wav,1,1,3,9,,,,,1,0,16,8,0,3,3,3,,,,,,,,,1,0.9685614490008447,,,007,001,2019_May_07_1612,MusicAffectPsychophysiology2019,3.0.5,59.93007299166371,
To what extent did the music make you feel ,ANXIOUS ,30MonoWAV/30MonoS1.wav,1,1,3,9,,,,,1,0,16,8,0,4,4,1,,,,,,,,,2,1.2009662190030213,,,007,001,2019_May_07_1612,MusicAffectPsychophysiology2019,3.0.5,59.93007299166371,
To what extent did the music make you feel ,SAD,30MonoWAV/30MonoS1.wav,1,1,3,9,,,,,1,0,16,8,0,5,5,0,,,,,,,,,3,1.1181770839975798,,,007,001,2019_May_07_1612,MusicAffectPsychophysiology2019,3.0.5,59.93007299166371,
To what extent did the music make you feel ,ACTIVE,30MonoWAV/30MonoS1.wav,1,1,3,9,,,,,1,0,16,8,0,6,6,9,,,,,,,,,1,1.0851789570006076,,,007,001,2019_May_07_1612,MusicAffectPsychophysiology2019,3.0.5,59.93007299166371,
To what extent did the music make you feel ,SCARED,30MonoWAV/30MonoS1.wav,1,1,3,9,,,,,1,0,16,8,0,7,7,11,,,,,,,,,1,1.619303867999406,,,007,001,2019_May_07_1612,MusicAffectPsychophysiology2019,3.0.5,59.93007299166371,
To what extent did the music make you feel ,TENDER,30MonoWAV/30MonoS1.wav,1,1,3,9,,,,,1,0,16,8,0,8,8,10,,,,,,,,,4,1.5341057229998114,,,007,001,2019_May_07_1612,MusicAffectPsychophysiology2019,3.0.5,59.93007299166371,
To what extent did the music make you feel ,ASHAMED,30MonoWAV/30MonoS1.wav,1,1,3,9,,,,,1,0,16,8,0,9,9,4,,,,,,,,,1,1.0686813590000384,,,007,001,2019_May_07_1612,MusicAffectPsychophysiology2019,3.0.5,59.93007299166371,
To what extent did the music make you feel ,ANGRY,30MonoWAV/30MonoS1.wav,1,1,3,9,,,,,1,0,16,8,0,10,10,2,,,,,,,,,1,0.5687650339968968,,,007,001,2019_May_07_1612,MusicAffectPsychophysiology2019,3.0.5,59.93007299166371,
To what extent did the music make you feel ,HAPPY,30MonoWAV/30MonoS1.wav,1,1,3,9,,,,,1,0,16,8,0,11,11,6,,,,,,,,,1,0.8186347330010904,,,007,001,2019_May_07_1612,MusicAffectPsychophysiology2019,3.0.5,59.93007299166371,
,,30MonoWAV/30MonoS1.wav,1,1,3,9,,,,,1,0,16,8,,,,,,,,,,,,,,,,,007,001,2019_May_07_1612,MusicAffectPsychophysiology2019,3.0.5,59.93007299166371,
To what extent did the music make you feel ,ASHAMED,30MonoWAV/30MonoT4.wav,2,1,4,16,,,,,1,1,17,15,0,0,0,4,,,3,3.435369709997758,3,1.7177567119979358,,,1,1.7829075680019741,,,007,001,2019_May_07_1612,MusicAffectPsychophysiology2019,3.0.5,59.93007299166371,
To what extent did the music make you feel ,ANGRY,30MonoWAV/30MonoT4.wav,2,1,4,16,,,,,1,1,17,15,0,1,1,2,,,,,,,,,1,0.6359775109995098,,,007,001,2019_May_07_1612,MusicAffectPsychophysiology2019,3.0.5,59.93007299166371,
To what extent did the music make you feel ,ANXIOUS ,30MonoWAV/30MonoT4.wav,2,1,4,16,,,,,1,1,17,15,0,2,2,1,,,,,,,,,1,0.9682823469993309,,,007,001,2019_May_07_1612,MusicAffectPsychophysiology2019,3.0.5,59.93007299166371,
To what extent did the music make you feel ,ACTIVE,30MonoWAV/30MonoT4.wav,2,1,4,16,,,,,1,1,17,15,0,3,3,9,,,,,,,,,2,2.018871049000154,,,007,001,2019_May_07_1612,MusicAffectPsychophysiology2019,3.0.5,59.93007299166371,
To what extent did the music make you feel ,TENDER,30MonoWAV/30MonoT4.wav,2,1,4,16,,,,,1,1,17,15,0,4,4,10,,,,,,,,,3,1.101680450999993,,,007,001,2019_May_07_1612,MusicAffectPsychophysiology2019,3.0.5,59.93007299166371,
To what extent did the music make you feel ,GUILTY,30MonoWAV/30MonoT4.wav,2,1,4,16,,,,,1,1,17,15,0,5,5,5,,,,,,,,,1,0.8676277580016176,,,007,001,2019_May_07_1612,MusicAffectPsychophysiology2019,3.0.5,59.93007299166371,
To what extent did the music make you feel ,ALERT,30MonoWAV/30MonoT4.wav,2,1,4,16,,,,,1,1,17,15,0,6,6,8,,,,,,,,,3,1.551704541001527,,,007,001,2019_May_07_1612,MusicAffectPsychophysiology2019,3.0.5,59.93007299166371,
To what extent did the music make you feel ,FRUSTRATED,30MonoWAV/30MonoT4.wav,2,1,4,16,,,,,1,1,17,15,0,7,7,3,,,,,,,,,1,1.0184513609965506,,,007,001,2019_May_07_1612,MusicAffectPsychophysiology2019,3.0.5,59.93007299166371,
To what extent did the music make you feel ,SCARED,30MonoWAV/30MonoT4.wav,2,1,4,16,,,,,1,1,17,15,0,8,8,11,,,,,,,,,1,0.7497593419975601,,,007,001,2019_May_07_1612,MusicAffectPsychophysiology2019,3.0.5,59.93007299166371,
To what extent did the music make you feel ,SAD,30MonoWAV/30MonoT4.wav,2,1,4,16,,,,,1,1,17,15,0,9,9,0,,,,,,,,,1,0.5015499309993174,,,007,001,2019_May_07_1612,MusicAffectPsychophysiology2019,3.0.5,59.93007299166371,
To what extent did the music make you feel ,EXCITED,30MonoWAV/30MonoT4.wav,2,1,4,16,,,,,1,1,17,15,0,10,10,7,,,,,,,,,1,1.1011173339975358,,,007,001,2019_May_07_1612,MusicAffectPsychophysiology2019,3.0.5,59.93007299166371,
To what extent did the music make you feel ,HAPPY,30MonoWAV/30MonoT4.wav,2,1,4,16,,,,,1,1,17,15,0,11,11,6,,,,,,,,,2,1.4356544039983419,,,007,001,2019_May_07_1612,MusicAffectPsychophysiology2019,3.0.5,59.93007299166371,
,,30MonoWAV/30MonoT4.wav,2,1,4,16,,,,,1,1,17,15,,,,,,,,,,,,,,,,,007,001,2019_May_07_1612,MusicAffectPsychophysiology2019,3.0.5,59.93007299166371,
To what extent did the music make you feel ,ANXIOUS ,30MonoWAV/30MonoT2.wav,2,1,4,14,,,,,1,2,18,13,0,0,0,1,,,2,3.418464316000609,3,1.2516625700009172,,,1,1.3018948070020997,,,007,001,2019_May_07_1612,MusicAffectPsychophysiology2019,3.0.5,59.93007299166371,
To what extent did the music make you feel ,SCARED,30MonoWAV/30MonoT2.wav,2,1,4,14,,,,,1,2,18,13,0,1,1,11,,,,,,,,,1,1.267563497996889,,,007,001,2019_May_07_1612,MusicAffectPsychophysiology2019,3.0.5,59.93007299166371,
To what extent did the music make you feel ,ANGRY,30MonoWAV/30MonoT2.wav,2,1,4,14,,,,,1,2,18,13,0,2,2,2,,,,,,,,,1,0.5517838999985543,,,007,001,2019_May_07_1612,MusicAffectPsychophysiology2019,3.0.5,59.93007299166371,
To what extent did the music make you feel ,ACTIVE,30MonoWAV/30MonoT2.wav,2,1,4,14,,,,,1,2,18,13,0,3,3,9,,,,,,,,,2,1.0675066749972757,,,007,001,2019_May_07_1612,MusicAffectPsychophysiology2019,3.0.5,59.93007299166371,
To what extent did the music make you feel ,ASHAMED,30MonoWAV/30MonoT2.wav,2,1,4,14,,,,,1,2,18,13,0,4,4,4,,,,,,,,,1,0.6024464680012898,,,007,001,2019_May_07_1612,MusicAffectPsychophysiology2019,3.0.5,59.93007299166371,
To what extent did the music make you feel ,GUILTY,30MonoWAV/30MonoT2.wav,2,1,4,14,,,,,1,2,18,13,0,5,5,5,,,,,,,,,1,0.785617261997686,,,007,001,2019_May_07_1612,MusicAffectPsychophysiology2019,3.0.5,59.93007299166371,
To what extent did the music make you feel ,TENDER,30MonoWAV/30MonoT2.wav,2,1,4,14,,,,,1,2,18,13,0,6,6,10,,,,,,,,,2,1.1846812590010813,,,007,001,2019_May_07_1612,MusicAffectPsychophysiology2019,3.0.5,59.93007299166371,
To what extent did the music make you feel ,FRUSTRATED,30MonoWAV/30MonoT2.wav,2,1,4,14,,,,,1,2,18,13,0,7,7,3,,,,,,,,,1,0.46830217100068694,,,007,001,2019_May_07_1612,MusicAffectPsychophysiology2019,3.0.5,59.93007299166371,
To what extent did the music make you feel ,HAPPY,30MonoWAV/30MonoT2.wav,2,1,4,14,,,,,1,2,18,13,0,8,8,6,,,,,,,,,3,1.2351961509993998,,,007,001,2019_May_07_1612,MusicAffectPsychophysiology2019,3.0.5,59.93007299166371,
To what extent did the music make you feel ,EXCITED,30MonoWAV/30MonoT2.wav,2,1,4,14,,,,,1,2,18,13,0,9,9,7,,,,,,,,,1,1.0687863059974916,,,007,001,2019_May_07_1612,MusicAffectPsychophysiology2019,3.0.5,59.93007299166371,
To what extent did the music make you feel ,ALERT,30MonoWAV/30MonoT2.wav,2,1,4,14,,,,,1,2,18,13,0,10,10,8,,,,,,,,,2,1.1519153629997163,,,007,001,2019_May_07_1612,MusicAffectPsychophysiology2019,3.0.5,59.93007299166371,
To what extent did the music make you feel ,SAD,30MonoWAV/30MonoT2.wav,2,1,4,14,,,,,1,2,18,13,0,11,11,0,,,,,,,,,1,0.5525968939982704,,,007,001,2019_May_07_1612,MusicAffectPsychophysiology2019,3.0.5,59.93007299166371,
,,30MonoWAV/30MonoT2.wav,2,1,4,14,,,,,1,2,18,13,,,,,,,,,,,,,,,,,007,001,2019_May_07_1612,MusicAffectPsychophysiology2019,3.0.5,59.93007299166371,
To what extent did the music make you feel ,ALERT,30MonoWAV/30MonoT3.wav,2,1,4,15,,,,,1,3,19,14,0,0,0,8,,,1,2.8178664990009565,4,1.8356958429976657,,,1,2.350280085000122,,,007,001,2019_May_07_1612,MusicAffectPsychophysiology2019,3.0.5,59.93007299166371,
To what extent did the music make you feel ,ACTIVE,30MonoWAV/30MonoT3.wav,2,1,4,15,,,,,1,3,19,14,0,1,1,9,,,,,,,,,1,0.9516159840022738,,,007,001,2019_May_07_1612,MusicAffectPsychophysiology2019,3.0.5,59.93007299166371,
To what extent did the music make you feel ,SCARED,30MonoWAV/30MonoT3.wav,2,1,4,15,,,,,1,3,19,14,0,2,2,11,,,,,,,,,1,1.4185651560001133,,,007,001,2019_May_07_1612,MusicAffectPsychophysiology2019,3.0.5,59.93007299166371,
To what extent did the music make you feel ,HAPPY,30MonoWAV/30MonoT3.wav,2,1,4,15,,,,,1,3,19,14,0,3,3,6,,,,,,,,,3,1.5839838629981386,,,007,001,2019_May_07_1612,MusicAffectPsychophysiology2019,3.0.5,59.93007299166371,
To what extent did the music make you feel ,TENDER,30MonoWAV/30MonoT3.wav,2,1,4,15,,,,,1,3,19,14,0,4,4,10,,,,,,,,,2,1.0344512650008255,,,007,001,2019_May_07_1612,MusicAffectPsychophysiology2019,3.0.5,59.93007299166371,
To what extent did the music make you feel ,GUILTY,30MonoWAV/30MonoT3.wav,2,1,4,15,,,,,1,3,19,14,0,5,5,5,,,,,,,,,1,0.7518444829984219,,,007,001,2019_May_07_1612,MusicAffectPsychophysiology2019,3.0.5,59.93007299166371,
To what extent did the music make you feel ,ASHAMED,30MonoWAV/30MonoT3.wav,2,1,4,15,,,,,1,3,19,14,0,6,6,4,,,,,,,,,1,0.7181165190013417,,,007,001,2019_May_07_1612,MusicAffectPsychophysiology2019,3.0.5,59.93007299166371,
To what extent did the music make you feel ,EXCITED,30MonoWAV/30MonoT3.wav,2,1,4,15,,,,,1,3,19,14,0,7,7,7,,,,,,,,,1,0.8858763930002169,,,007,001,2019_May_07_1612,MusicAffectPsychophysiology2019,3.0.5,59.93007299166371,
To what extent did the music make you feel ,FRUSTRATED,30MonoWAV/30MonoT3.wav,2,1,4,15,,,,,1,3,19,14,0,8,8,3,,,,,,,,,1,0.5349554429994896,,,007,001,2019_May_07_1612,MusicAffectPsychophysiology2019,3.0.5,59.93007299166371,
To what extent did the music make you feel ,ANGRY,30MonoWAV/30MonoT3.wav,2,1,4,15,,,,,1,3,19,14,0,9,9,2,,,,,,,,,1,0.5016565199985052,,,007,001,2019_May_07_1612,MusicAffectPsychophysiology2019,3.0.5,59.93007299166371,
To what extent did the music make you feel ,ANXIOUS ,30MonoWAV/30MonoT3.wav,2,1,4,15,,,,,1,3,19,14,0,10,10,1,,,,,,,,,1,1.0848691800019878,,,007,001,2019_May_07_1612,MusicAffectPsychophysiology2019,3.0.5,59.93007299166371,
To what extent did the music make you feel ,SAD,30MonoWAV/30MonoT3.wav,2,1,4,15,,,,,1,3,19,14,0,11,11,0,,,,,,,,,1,1.9500014389996068,,,007,001,2019_May_07_1612,MusicAffectPsychophysiology2019,3.0.5,59.93007299166371,
,,30MonoWAV/30MonoT3.wav,2,1,4,15,,,,,1,3,19,14,,,,,,,,,,,,,,,,,007,001,2019_May_07_1612,MusicAffectPsychophysiology2019,3.0.5,59.93007299166371,
To what extent did the music make you feel ,ALERT,30MonoWAV/30MonoH1.wav,2,2,1,5,,,,,1,4,20,4,0,0,0,8,,,3,2.786008174000017,3,1.368515195998043,,,3,2.1335086150029383,,,007,001,2019_May_07_1612,MusicAffectPsychophysiology2019,3.0.5,59.93007299166371,
To what extent did the music make you feel ,EXCITED,30MonoWAV/30MonoH1.wav,2,2,1,5,,,,,1,4,20,4,0,1,1,7,,,,,,,,,2,1.0184693789997254,,,007,001,2019_May_07_1612,MusicAffectPsychophysiology2019,3.0.5,59.93007299166371,
To what extent did the music make you feel ,SAD,30MonoWAV/30MonoH1.wav,2,2,1,5,,,,,1,4,20,4,0,2,2,0,,,,,,,,,1,1.018759932001558,,,007,001,2019_May_07_1612,MusicAffectPsychophysiology2019,3.0.5,59.93007299166371,
To what extent did the music make you feel ,ANXIOUS ,30MonoWAV/30MonoH1.wav,2,2,1,5,,,,,1,4,20,4,0,3,3,1,,,,,,,,,1,0.5349121790022764,,,007,001,2019_May_07_1612,MusicAffectPsychophysiology2019,3.0.5,59.93007299166371,
To what extent did the music make you feel ,TENDER,30MonoWAV/30MonoH1.wav,2,2,1,5,,,,,1,4,20,4,0,4,4,10,,,,,,,,,1,0.9016382910012908,,,007,001,2019_May_07_1612,MusicAffectPsychophysiology2019,3.0.5,59.93007299166371,
To what extent did the music make you feel ,GUILTY,30MonoWAV/30MonoH1.wav,2,2,1,5,,,,,1,4,20,4,0,5,5,5,,,,,,,,,1,0.4527594620012678,,,007,001,2019_May_07_1612,MusicAffectPsychophysiology2019,3.0.5,59.93007299166371,
To what extent did the music make you feel ,ANGRY,30MonoWAV/30MonoH1.wav,2,2,1,5,,,,,1,4,20,4,0,6,6,2,,,,,,,,,1,0.4351476450028713,,,007,001,2019_May_07_1612,MusicAffectPsychophysiology2019,3.0.5,59.93007299166371,
To what extent did the music make you feel ,HAPPY,30MonoWAV/30MonoH1.wav,2,2,1,5,,,,,1,4,20,4,0,7,7,6,,,,,,,,,4,2.0351946740011044,,,007,001,2019_May_07_1612,MusicAffectPsychophysiology2019,3.0.5,59.93007299166371,
To what extent did the music make you feel ,ACTIVE,30MonoWAV/30MonoH1.wav,2,2,1,5,,,,,1,4,20,4,0,8,8,9,,,,,,,,,3,1.1353427340000053,,,007,001,2019_May_07_1612,MusicAffectPsychophysiology2019,3.0.5,59.93007299166371,
To what extent did the music make you feel ,ASHAMED,30MonoWAV/30MonoH1.wav,2,2,1,5,,,,,1,4,20,4,0,9,9,4,,,,,,,,,1,0.7518646880016604,,,007,001,2019_May_07_1612,MusicAffectPsychophysiology2019,3.0.5,59.93007299166371,
To what extent did the music make you feel ,SCARED,30MonoWAV/30MonoH1.wav,2,2,1,5,,,,,1,4,20,4,0,10,10,11,,,,,,,,,1,0.6849942789995112,,,007,001,2019_May_07_1612,MusicAffectPsychophysiology2019,3.0.5,59.93007299166371,
To what extent did the music make you feel ,FRUSTRATED,30MonoWAV/30MonoH1.wav,2,2,1,5,,,,,1,4,20,4,0,11,11,3,,,,,,,,,1,0.6684843029979675,,,007,001,2019_May_07_1612,MusicAffectPsychophysiology2019,3.0.5,59.93007299166371,
,,30MonoWAV/30MonoH1.wav,2,2,1,5,,,,,1,4,20,4,,,,,,,,,,,,,,,,,007,001,2019_May_07_1612,MusicAffectPsychophysiology2019,3.0.5,59.93007299166371,
To what extent did the music make you feel ,ALERT,30MonoWAV/30MonoS4.wav,1,1,3,12,,,,,1,5,21,11,0,0,0,8,,,1,2.6059071269992273,1,1.8352025519998278,,,1,2.152291335998598,,,007,001,2019_May_07_1612,MusicAffectPsychophysiology2019,3.0.5,59.93007299166371,
To what extent did the music make you feel ,SCARED,30MonoWAV/30MonoS4.wav,1,1,3,12,,,,,1,5,21,11,0,1,1,11,,,,,,,,,2,1.801861080002709,,,007,001,2019_May_07_1612,MusicAffectPsychophysiology2019,3.0.5,59.93007299166371,
To what extent did the music make you feel ,ASHAMED,30MonoWAV/30MonoS4.wav,1,1,3,12,,,,,1,5,21,11,0,2,2,4,,,,,,,,,1,1.6346935130022757,,,007,001,2019_May_07_1612,MusicAffectPsychophysiology2019,3.0.5,59.93007299166371,
To what extent did the music make you feel ,TENDER,30MonoWAV/30MonoS4.wav,1,1,3,12,,,,,1,5,21,11,0,3,3,10,,,,,,,,,3,1.452312321998761,,,007,001,2019_May_07_1612,MusicAffectPsychophysiology2019,3.0.5,59.93007299166371,
To what extent did the music make you feel ,HAPPY,30MonoWAV/30MonoS4.wav,1,1,3,12,,,,,1,5,21,11,0,4,4,6,,,,,,,,,1,1.3991263159987284,,,007,001,2019_May_07_1612,MusicAffectPsychophysiology2019,3.0.5,59.93007299166371,
To what extent did the music make you feel ,EXCITED,30MonoWAV/30MonoS4.wav,1,1,3,12,,,,,1,5,21,11,0,5,5,7,,,,,,,,,1,0.68539748600233,,,007,001,2019_May_07_1612,MusicAffectPsychophysiology2019,3.0.5,59.93007299166371,
To what extent did the music make you feel ,ANXIOUS ,30MonoWAV/30MonoS4.wav,1,1,3,12,,,,,1,5,21,11,0,6,6,1,,,,,,,,,2,1.1014589159967727,,,007,001,2019_May_07_1612,MusicAffectPsychophysiology2019,3.0.5,59.93007299166371,
To what extent did the music make you feel ,FRUSTRATED,30MonoWAV/30MonoS4.wav,1,1,3,12,,,,,1,5,21,11,0,7,7,3,,,,,,,,,1,1.1359673150000162,,,007,001,2019_May_07_1612,MusicAffectPsychophysiology2019,3.0.5,59.93007299166371,
To what extent did the music make you feel ,ACTIVE,30MonoWAV/30MonoS4.wav,1,1,3,12,,,,,1,5,21,11,0,8,8,9,,,,,,,,,1,0.9161834129990893,,,007,001,2019_May_07_1612,MusicAffectPsychophysiology2019,3.0.5,59.93007299166371,
To what extent did the music make you feel ,SAD,30MonoWAV/30MonoS4.wav,1,1,3,12,,,,,1,5,21,11,0,9,9,0,,,,,,,,,5,1.817652673998964,,,007,001,2019_May_07_1612,MusicAffectPsychophysiology2019,3.0.5,59.93007299166371,
To what extent did the music make you feel ,GUILTY,30MonoWAV/30MonoS4.wav,1,1,3,12,,,,,1,5,21,11,0,10,10,5,,,,,,,,,2,1.385666553000192,,,007,001,2019_May_07_1612,MusicAffectPsychophysiology2019,3.0.5,59.93007299166371,
To what extent did the music make you feel ,ANGRY,30MonoWAV/30MonoS4.wav,1,1,3,12,,,,,1,5,21,11,0,11,11,2,,,,,,,,,2,1.1931595969981572,,,007,001,2019_May_07_1612,MusicAffectPsychophysiology2019,3.0.5,59.93007299166371,
,,30MonoWAV/30MonoS4.wav,1,1,3,12,,,,,1,5,21,11,,,,,,,,,,,,,,,,,007,001,2019_May_07_1612,MusicAffectPsychophysiology2019,3.0.5,59.93007299166371,
To what extent did the music make you feel ,GUILTY,30MonoWAV/30MonoF3.wav,1,2,2,3,,,,,1,6,22,2,0,0,0,5,,,2,2.6845378170000913,1,1.6677325939999719,,,1,1.3175078360000043,,,007,001,2019_May_07_1612,MusicAffectPsychophysiology2019,3.0.5,59.93007299166371,
To what extent did the music make you feel ,HAPPY,30MonoWAV/30MonoF3.wav,1,2,2,3,,,,,1,6,22,2,0,1,1,6,,,,,,,,,1,0.752053980002529,,,007,001,2019_May_07_1612,MusicAffectPsychophysiology2019,3.0.5,59.93007299166371,
To what extent did the music make you feel ,TENDER,30MonoWAV/30MonoF3.wav,1,2,2,3,,,,,1,6,22,2,0,2,2,10,,,,,,,,,1,1.0183105770011025,,,007,001,2019_May_07_1612,MusicAffectPsychophysiology2019,3.0.5,59.93007299166371,
To what extent did the music make you feel ,SCARED,30MonoWAV/30MonoF3.wav,1,2,2,3,,,,,1,6,22,2,0,3,3,11,,,,,,,,,3,1.0520709099982923,,,007,001,2019_May_07_1612,MusicAffectPsychophysiology2019,3.0.5,59.93007299166371,
To what extent did the music make you feel ,EXCITED,30MonoWAV/30MonoF3.wav,1,2,2,3,,,,,1,6,22,2,0,4,4,7,,,,,,,,,2,1.1187417149994872,,,007,001,2019_May_07_1612,MusicAffectPsychophysiology2019,3.0.5,59.93007299166371,
To what extent did the music make you feel ,FRUSTRATED,30MonoWAV/30MonoF3.wav,1,2,2,3,,,,,1,6,22,2,0,5,5,3,,,,,,,,,1,1.1185694679988956,,,007,001,2019_May_07_1612,MusicAffectPsychophysiology2019,3.0.5,59.93007299166371,
To what extent did the music make you feel ,ANGRY,30MonoWAV/30MonoF3.wav,1,2,2,3,,,,,1,6,22,2,0,6,6,2,,,,,,,,,1,0.8856658510012494,,,007,001,2019_May_07_1612,MusicAffectPsychophysiology2019,3.0.5,59.93007299166371,
To what extent did the music make you feel ,ASHAMED,30MonoWAV/30MonoF3.wav,1,2,2,3,,,,,1,6,22,2,0,7,7,4,,,,,,,,,1,0.73515812000187,,,007,001,2019_May_07_1612,MusicAffectPsychophysiology2019,3.0.5,59.93007299166371,
To what extent did the music make you feel ,ALERT,30MonoWAV/30MonoF3.wav,1,2,2,3,,,,,1,6,22,2,0,8,8,8,,,,,,,,,4,1.6031001709998236,,,007,001,2019_May_07_1612,MusicAffectPsychophysiology2019,3.0.5,59.93007299166371,
To what extent did the music make you feel ,ACTIVE,30MonoWAV/30MonoF3.wav,1,2,2,3,,,,,1,6,22,2,0,9,9,9,,,,,,,,,2,1.4527038680025726,,,007,001,2019_May_07_1612,MusicAffectPsychophysiology2019,3.0.5,59.93007299166371,
To what extent did the music make you feel ,ANXIOUS ,30MonoWAV/30MonoF3.wav,1,2,2,3,,,,,1,6,22,2,0,10,10,1,,,,,,,,,5,2.45225711799867,,,007,001,2019_May_07_1612,MusicAffectPsychophysiology2019,3.0.5,59.93007299166371,
To what extent did the music make you feel ,SAD,30MonoWAV/30MonoF3.wav,1,2,2,3,,,,,1,6,22,2,0,11,11,0,,,,,,,,,2,1.5352549240014923,,,007,001,2019_May_07_1612,MusicAffectPsychophysiology2019,3.0.5,59.93007299166371,
,,30MonoWAV/30MonoF3.wav,1,2,2,3,,,,,1,6,22,2,,,,,,,,,,,,,,,,,007,001,2019_May_07_1612,MusicAffectPsychophysiology2019,3.0.5,59.93007299166371,
To what extent did the music make you feel ,TENDER,30MonoWAV/30MonoS2.wav,1,1,3,10,,,,,1,7,23,9,0,0,0,10,,,1,3.2012185509993287,1,1.318584191998525,,,2,1.184990576999553,,,007,001,2019_May_07_1612,MusicAffectPsychophysiology2019,3.0.5,59.93007299166371,
To what extent did the music make you feel ,EXCITED,30MonoWAV/30MonoS2.wav,1,1,3,10,,,,,1,7,23,9,0,1,1,7,,,,,,,,,1,1.0185051240005123,,,007,001,2019_May_07_1612,MusicAffectPsychophysiology2019,3.0.5,59.93007299166371,
To what extent did the music make you feel ,ANXIOUS ,30MonoWAV/30MonoS2.wav,1,1,3,10,,,,,1,7,23,9,0,2,2,1,,,,,,,,,3,1.2186222920026921,,,007,001,2019_May_07_1612,MusicAffectPsychophysiology2019,3.0.5,59.93007299166371,
To what extent did the music make you feel ,GUILTY,30MonoWAV/30MonoS2.wav,1,1,3,10,,,,,1,7,23,9,0,3,3,5,,,,,,,,,2,1.4852267489986843,,,007,001,2019_May_07_1612,MusicAffectPsychophysiology2019,3.0.5,59.93007299166371,
To what extent did the music make you feel ,FRUSTRATED,30MonoWAV/30MonoS2.wav,1,1,3,10,,,,,1,7,23,9,0,4,4,3,,,,,,,,,1,1.1676876380006433,,,007,001,2019_May_07_1612,MusicAffectPsychophysiology2019,3.0.5,59.93007299166371,
To what extent did the music make you feel ,ALERT,30MonoWAV/30MonoS2.wav,1,1,3,10,,,,,1,7,23,9,0,5,5,8,,,,,,,,,1,1.0519454040004348,,,007,001,2019_May_07_1612,MusicAffectPsychophysiology2019,3.0.5,59.93007299166371,
To what extent did the music make you feel ,ACTIVE,30MonoWAV/30MonoS2.wav,1,1,3,10,,,,,1,7,23,9,0,6,6,9,,,,,,,,,1,0.7518343819974689,,,007,001,2019_May_07_1612,MusicAffectPsychophysiology2019,3.0.5,59.93007299166371,
To what extent did the music make you feel ,ASHAMED,30MonoWAV/30MonoS2.wav,1,1,3,10,,,,,1,7,23,9,0,7,7,4,,,,,,,,,2,1.085065905997908,,,007,001,2019_May_07_1612,MusicAffectPsychophysiology2019,3.0.5,59.93007299166371,
To what extent did the music make you feel ,SCARED,30MonoWAV/30MonoS2.wav,1,1,3,10,,,,,1,7,23,9,0,8,8,11,,,,,,,,,3,1.3011959270006628,,,007,001,2019_May_07_1612,MusicAffectPsychophysiology2019,3.0.5,59.93007299166371,
To what extent did the music make you feel ,ANGRY,30MonoWAV/30MonoS2.wav,1,1,3,10,,,,,1,7,23,9,0,9,9,2,,,,,,,,,1,0.9855955970015202,,,007,001,2019_May_07_1612,MusicAffectPsychophysiology2019,3.0.5,59.93007299166371,
To what extent did the music make you feel ,HAPPY,30MonoWAV/30MonoS2.wav,1,1,3,10,,,,,1,7,23,9,0,10,10,6,,,,,,,,,1,0.9514173870011291,,,007,001,2019_May_07_1612,MusicAffectPsychophysiology2019,3.0.5,59.93007299166371,
To what extent did the music make you feel ,SAD,30MonoWAV/30MonoS2.wav,1,1,3,10,,,,,1,7,23,9,0,11,11,0,,,,,,,,,4,2.001452219999919,,,007,001,2019_May_07_1612,MusicAffectPsychophysiology2019,3.0.5,59.93007299166371,
,,30MonoWAV/30MonoS2.wav,1,1,3,10,,,,,1,7,23,9,,,,,,,,,,,,,,,,,007,001,2019_May_07_1612,MusicAffectPsychophysiology2019,3.0.5,59.93007299166371,
To what extent did the music make you feel ,ACTIVE,30MonoWAV/30MonoS3.wav,1,1,3,11,,,,,1,8,24,10,0,0,0,9,,,1,2.9855596400011564,1,0.6012901660033094,,,1,1.2021502729985514,,,007,001,2019_May_07_1612,MusicAffectPsychophysiology2019,3.0.5,59.93007299166371,
To what extent did the music make you feel ,GUILTY,30MonoWAV/30MonoS3.wav,1,1,3,11,,,,,1,8,24,10,0,1,1,5,,,,,,,,,2,1.0506617419996473,,,007,001,2019_May_07_1612,MusicAffectPsychophysiology2019,3.0.5,59.93007299166371,
To what extent did the music make you feel ,ANXIOUS ,30MonoWAV/30MonoS3.wav,1,1,3,11,,,,,1,8,24,10,0,2,2,1,,,,,,,,,3,1.5850376280031924,,,007,001,2019_May_07_1612,MusicAffectPsychophysiology2019,3.0.5,59.93007299166371,
To what extent did the music make you feel ,HAPPY,30MonoWAV/30MonoS3.wav,1,1,3,11,,,,,1,8,24,10,0,3,3,6,,,,,,,,,1,0.867216341997846,,,007,001,2019_May_07_1612,MusicAffectPsychophysiology2019,3.0.5,59.93007299166371,
To what extent did the music make you feel ,SCARED,30MonoWAV/30MonoS3.wav,1,1,3,11,,,,,1,8,24,10,0,4,4,11,,,,,,,,,3,1.3178848900024605,,,007,001,2019_May_07_1612,MusicAffectPsychophysiology2019,3.0.5,59.93007299166371,
To what extent did the music make you feel ,SAD,30MonoWAV/30MonoS3.wav,1,1,3,11,,,,,1,8,24,10,0,5,5,0,,,,,,,,,4,2.7513252870012366,,,007,001,2019_May_07_1612,MusicAffectPsychophysiology2019,3.0.5,59.93007299166371,
To what extent did the music make you feel ,ALERT,30MonoWAV/30MonoS3.wav,1,1,3,11,,,,,1,8,24,10,0,6,6,8,,,,,,,,,2,1.3182175590009138,,,007,001,2019_May_07_1612,MusicAffectPsychophysiology2019,3.0.5,59.93007299166371,
To what extent did the music make you feel ,TENDER,30MonoWAV/30MonoS3.wav,1,1,3,11,,,,,1,8,24,10,0,7,7,10,,,,,,,,,1,1.285577155998908,,,007,001,2019_May_07_1612,MusicAffectPsychophysiology2019,3.0.5,59.93007299166371,
To what extent did the music make you feel ,ANGRY,30MonoWAV/30MonoS3.wav,1,1,3,11,,,,,1,8,24,10,0,8,8,2,,,,,,,,,1,0.8859800509999332,,,007,001,2019_May_07_1612,MusicAffectPsychophysiology2019,3.0.5,59.93007299166371,
To what extent did the music make you feel ,FRUSTRATED,30MonoWAV/30MonoS3.wav,1,1,3,11,,,,,1,8,24,10,0,9,9,3,,,,,,,,,1,0.7021433679983602,,,007,001,2019_May_07_1612,MusicAffectPsychophysiology2019,3.0.5,59.93007299166371,
To what extent did the music make you feel ,EXCITED,30MonoWAV/30MonoS3.wav,1,1,3,11,,,,,1,8,24,10,0,10,10,7,,,,,,,,,1,0.7677475790005701,,,007,001,2019_May_07_1612,MusicAffectPsychophysiology2019,3.0.5,59.93007299166371,
To what extent did the music make you feel ,ASHAMED,30MonoWAV/30MonoS3.wav,1,1,3,11,,,,,1,8,24,10,0,11,11,4,,,,,,,,,1,0.9066111809988797,,,007,001,2019_May_07_1612,MusicAffectPsychophysiology2019,3.0.5,59.93007299166371,
,,30MonoWAV/30MonoS3.wav,1,1,3,11,,,,,1,8,24,10,,,,,,,,,,,,,,,,,007,001,2019_May_07_1612,MusicAffectPsychophysiology2019,3.0.5,59.93007299166371,
To what extent did the music make you feel ,GUILTY,30MonoWAV/30MonoH2.wav,2,2,1,6,,,,,1,9,25,5,0,0,0,5,,,4,2.968412938997062,4,1.5194004500008305,,,1,1.0023999120021472,,,007,001,2019_May_07_1612,MusicAffectPsychophysiology2019,3.0.5,59.93007299166371,
To what extent did the music make you feel ,ACTIVE,30MonoWAV/30MonoH2.wav,2,2,1,6,,,,,1,9,25,5,0,1,1,9,,,,,,,,,3,1.2669424239975342,,,007,001,2019_May_07_1612,MusicAffectPsychophysiology2019,3.0.5,59.93007299166371,
To what extent did the music make you feel ,TENDER,30MonoWAV/30MonoH2.wav,2,2,1,6,,,,,1,9,25,5,0,2,2,10,,,,,,,,,1,1.401564920997771,,,007,001,2019_May_07_1612,MusicAffectPsychophysiology2019,3.0.5,59.93007299166371,
To what extent did the music make you feel ,ANXIOUS ,30MonoWAV/30MonoH2.wav,2,2,1,6,,,,,1,9,25,5,0,3,3,1,,,,,,,,,1,0.5012188149994472,,,007,001,2019_May_07_1612,MusicAffectPsychophysiology2019,3.0.5,59.93007299166371,
To what extent did the music make you feel ,ASHAMED,30MonoWAV/30MonoH2.wav,2,2,1,6,,,,,1,9,25,5,0,4,4,4,,,,,,,,,1,0.9182419749995461,,,007,001,2019_May_07_1612,MusicAffectPsychophysiology2019,3.0.5,59.93007299166371,
To what extent did the music make you feel ,FRUSTRATED,30MonoWAV/30MonoH2.wav,2,2,1,6,,,,,1,9,25,5,0,5,5,3,,,,,,,,,1,0.7187168499986001,,,007,001,2019_May_07_1612,MusicAffectPsychophysiology2019,3.0.5,59.93007299166371,
To what extent did the music make you feel ,SAD,30MonoWAV/30MonoH2.wav,2,2,1,6,,,,,1,9,25,5,0,6,6,0,,,,,,,,,1,0.7017828239986557,,,007,001,2019_May_07_1612,MusicAffectPsychophysiology2019,3.0.5,59.93007299166371,
To what extent did the music make you feel ,ALERT,30MonoWAV/30MonoH2.wav,2,2,1,6,,,,,1,9,25,5,0,7,7,8,,,,,,,,,4,1.2842306380007358,,,007,001,2019_May_07_1612,MusicAffectPsychophysiology2019,3.0.5,59.93007299166371,
To what extent did the music make you feel ,EXCITED,30MonoWAV/30MonoH2.wav,2,2,1,6,,,,,1,9,25,5,0,8,8,7,,,,,,,,,3,1.251185148001241,,,007,001,2019_May_07_1612,MusicAffectPsychophysiology2019,3.0.5,59.93007299166371,
To what extent did the music make you feel ,SCARED,30MonoWAV/30MonoH2.wav,2,2,1,6,,,,,1,9,25,5,0,9,9,11,,,,,,,,,1,0.6853069050011982,,,007,001,2019_May_07_1612,MusicAffectPsychophysiology2019,3.0.5,59.93007299166371,
To what extent did the music make you feel ,HAPPY,30MonoWAV/30MonoH2.wav,2,2,1,6,,,,,1,9,25,5,0,10,10,6,,,,,,,,,2,1.401690131999203,,,007,001,2019_May_07_1612,MusicAffectPsychophysiology2019,3.0.5,59.93007299166371,
To what extent did the music make you feel ,ANGRY,30MonoWAV/30MonoH2.wav,2,2,1,6,,,,,1,9,25,5,0,11,11,2,,,,,,,,,1,0.8348397279987694,,,007,001,2019_May_07_1612,MusicAffectPsychophysiology2019,3.0.5,59.93007299166371,
,,30MonoWAV/30MonoH2.wav,2,2,1,6,,,,,1,9,25,5,,,,,,,,,,,,,,,,,007,001,2019_May_07_1612,MusicAffectPsychophysiology2019,3.0.5,59.93007299166371,
To what extent did the music make you feel ,FRUSTRATED,30MonoWAV/30MonoF1.wav,1,2,2,1,,,,,1,10,26,0,0,0,0,3,,,2,3.134659275998274,1,0.8677903879979567,,,1,1.168459251999593,,,007,001,2019_May_07_1612,MusicAffectPsychophysiology2019,3.0.5,59.93007299166371,
To what extent did the music make you feel ,GUILTY,30MonoWAV/30MonoF1.wav,1,2,2,1,,,,,1,10,26,0,0,1,1,5,,,,,,,,,1,1.0688676649988338,,,007,001,2019_May_07_1612,MusicAffectPsychophysiology2019,3.0.5,59.93007299166371,
To what extent did the music make you feel ,ACTIVE,30MonoWAV/30MonoF1.wav,1,2,2,1,,,,,1,10,26,0,0,2,2,9,,,,,,,,,1,1.4183991860008973,,,007,001,2019_May_07_1612,MusicAffectPsychophysiology2019,3.0.5,59.93007299166371,
To what extent did the music make you feel ,TENDER,30MonoWAV/30MonoF1.wav,1,2,2,1,,,,,1,10,26,0,0,3,3,10,,,,,,,,,1,0.7507688599980611,,,007,001,2019_May_07_1612,MusicAffectPsychophysiology2019,3.0.5,59.93007299166371,
To what extent did the music make you feel ,ALERT,30MonoWAV/30MonoF1.wav,1,2,2,1,,,,,1,10,26,0,0,4,4,8,,,,,,,,,3,1.2344179339997936,,,007,001,2019_May_07_1612,MusicAffectPsychophysiology2019,3.0.5,59.93007299166371,
To what extent did the music make you feel ,EXCITED,30MonoWAV/30MonoF1.wav,1,2,2,1,,,,,1,10,26,0,0,5,5,7,,,,,,,,,1,1.1521730909989856,,,007,001,2019_May_07_1612,MusicAffectPsychophysiology2019,3.0.5,59.93007299166371,
To what extent did the music make you feel ,ANXIOUS ,30MonoWAV/30MonoF1.wav,1,2,2,1,,,,,1,10,26,0,0,6,6,1,,,,,,,,,4,1.0862376500008395,,,007,001,2019_May_07_1612,MusicAffectPsychophysiology2019,3.0.5,59.93007299166371,
To what extent did the music make you feel ,ASHAMED,30MonoWAV/30MonoF1.wav,1,2,2,1,,,,,1,10,26,0,0,7,7,4,,,,,,,,,1,0.8516802100020868,,,007,001,2019_May_07_1612,MusicAffectPsychophysiology2019,3.0.5,59.93007299166371,
To what extent did the music make you feel ,SCARED,30MonoWAV/30MonoF1.wav,1,2,2,1,,,,,1,10,26,0,0,8,8,11,,,,,,,,,4,1.4687914719979744,,,007,001,2019_May_07_1612,MusicAffectPsychophysiology2019,3.0.5,59.93007299166371,
To what extent did the music make you feel ,HAPPY,30MonoWAV/30MonoF1.wav,1,2,2,1,,,,,1,10,26,0,0,9,9,6,,,,,,,,,1,0.9859604859993851,,,007,001,2019_May_07_1612,MusicAffectPsychophysiology2019,3.0.5,59.93007299166371,
To what extent did the music make you feel ,SAD,30MonoWAV/30MonoF1.wav,1,2,2,1,,,,,1,10,26,0,0,10,10,0,,,,,,,,,1,1.0517933029987034,,,007,001,2019_May_07_1612,MusicAffectPsychophysiology2019,3.0.5,59.93007299166371,
To what extent did the music make you feel ,ANGRY,30MonoWAV/30MonoF1.wav,1,2,2,1,,,,,1,10,26,0,0,11,11,2,,,,,,,,,1,0.7684699300007196,,,007,001,2019_May_07_1612,MusicAffectPsychophysiology2019,3.0.5,59.93007299166371,
,,30MonoWAV/30MonoF1.wav,1,2,2,1,,,,,1,10,26,0,,,,,,,,,,,,,,,,,007,001,2019_May_07_1612,MusicAffectPsychophysiology2019,3.0.5,59.93007299166371,
To what extent did the music make you feel ,ACTIVE,30MonoWAV/30MonoF4.wav,1,2,2,4,,,,,1,11,27,3,0,0,0,9,,,2,3.1236094199994113,1,1.36851473200295,,,3,1.7849075349986379,,,007,001,2019_May_07_1612,MusicAffectPsychophysiology2019,3.0.5,59.93007299166371,
To what extent did the music make you feel ,TENDER,30MonoWAV/30MonoF4.wav,1,2,2,4,,,,,1,11,27,3,0,1,1,10,,,,,,,,,1,0.8514575240005797,,,007,001,2019_May_07_1612,MusicAffectPsychophysiology2019,3.0.5,59.93007299166371,
To what extent did the music make you feel ,ALERT,30MonoWAV/30MonoF4.wav,1,2,2,4,,,,,1,11,27,3,0,2,2,8,,,,,,,,,3,1.2848310160006804,,,007,001,2019_May_07_1612,MusicAffectPsychophysiology2019,3.0.5,59.93007299166371,
To what extent did the music make you feel ,SAD,30MonoWAV/30MonoF4.wav,1,2,2,4,,,,,1,11,27,3,0,3,3,0,,,,,,,,,2,1.3522128029981104,,,007,001,2019_May_07_1612,MusicAffectPsychophysiology2019,3.0.5,59.93007299166371,
To what extent did the music make you feel ,SCARED,30MonoWAV/30MonoF4.wav,1,2,2,4,,,,,1,11,27,3,0,4,4,11,,,,,,,,,4,2.0184140550009033,,,007,001,2019_May_07_1612,MusicAffectPsychophysiology2019,3.0.5,59.93007299166371,
To what extent did the music make you feel ,GUILTY,30MonoWAV/30MonoF4.wav,1,2,2,4,,,,,1,11,27,3,0,5,5,5,,,,,,,,,1,1.035223748000135,,,007,001,2019_May_07_1612,MusicAffectPsychophysiology2019,3.0.5,59.93007299166371,
To what extent did the music make you feel ,ASHAMED,30MonoWAV/30MonoF4.wav,1,2,2,4,,,,,1,11,27,3,0,6,6,4,,,,,,,,,1,0.9683253879993572,,,007,001,2019_May_07_1612,MusicAffectPsychophysiology2019,3.0.5,59.93007299166371,
To what extent did the music make you feel ,ANXIOUS ,30MonoWAV/30MonoF4.wav,1,2,2,4,,,,,1,11,27,3,0,7,7,1,,,,,,,,,4,1.4175835540008848,,,007,001,2019_May_07_1612,MusicAffectPsychophysiology2019,3.0.5,59.93007299166371,
To what extent did the music make you feel ,FRUSTRATED,30MonoWAV/30MonoF4.wav,1,2,2,4,,,,,1,11,27,3,0,8,8,3,,,,,,,,,1,0.9346340610027255,,,007,001,2019_May_07_1612,MusicAffectPsychophysiology2019,3.0.5,59.93007299166371,
To what extent did the music make you feel ,HAPPY,30MonoWAV/30MonoF4.wav,1,2,2,4,,,,,1,11,27,3,0,9,9,6,,,,,,,,,1,0.6351746589971299,,,007,001,2019_May_07_1612,MusicAffectPsychophysiology2019,3.0.5,59.93007299166371,
To what extent did the music make you feel ,ANGRY,30MonoWAV/30MonoF4.wav,1,2,2,4,,,,,1,11,27,3,0,10,10,2,,,,,,,,,1,0.8676967190003779,,,007,001,2019_May_07_1612,MusicAffectPsychophysiology2019,3.0.5,59.93007299166371,
To what extent did the music make you feel ,EXCITED,30MonoWAV/30MonoF4.wav,1,2,2,4,,,,,1,11,27,3,0,11,11,7,,,,,,,,,1,1.0194858360009675,,,007,001,2019_May_07_1612,MusicAffectPsychophysiology2019,3.0.5,59.93007299166371,
,,30MonoWAV/30MonoF4.wav,1,2,2,4,,,,,1,11,27,3,,,,,,,,,,,,,,,,,007,001,2019_May_07_1612,MusicAffectPsychophysiology2019,3.0.5,59.93007299166371,
To what extent did the music make you feel ,ASHAMED,30MonoWAV/30MonoF2.wav,1,2,2,2,,,,,1,12,28,1,0,0,0,4,,,2,3.3007840139980544,1,0.8513111409993144,,,1,0.9019404339996981,,,007,001,2019_May_07_1612,MusicAffectPsychophysiology2019,3.0.5,59.93007299166371,
To what extent did the music make you feel ,HAPPY,30MonoWAV/30MonoF2.wav,1,2,2,2,,,,,1,12,28,1,0,1,1,6,,,,,,,,,1,1.018384466002317,,,007,001,2019_May_07_1612,MusicAffectPsychophysiology2019,3.0.5,59.93007299166371,
To what extent did the music make you feel ,GUILTY,30MonoWAV/30MonoF2.wav,1,2,2,2,,,,,1,12,28,1,0,2,2,5,,,,,,,,,1,0.6016931640006078,,,007,001,2019_May_07_1612,MusicAffectPsychophysiology2019,3.0.5,59.93007299166371,
To what extent did the music make you feel ,TENDER,30MonoWAV/30MonoF2.wav,1,2,2,2,,,,,1,12,28,1,0,3,3,10,,,,,,,,,1,0.7507769420008117,,,007,001,2019_May_07_1612,MusicAffectPsychophysiology2019,3.0.5,59.93007299166371,
To what extent did the music make you feel ,ALERT,30MonoWAV/30MonoF2.wav,1,2,2,2,,,,,1,12,28,1,0,4,4,8,,,,,,,,,3,1.2005982040027448,,,007,001,2019_May_07_1612,MusicAffectPsychophysiology2019,3.0.5,59.93007299166371,
To what extent did the music make you feel ,SAD,30MonoWAV/30MonoF2.wav,1,2,2,2,,,,,1,12,28,1,0,5,5,0,,,,,,,,,1,0.9681307540013222,,,007,001,2019_May_07_1612,MusicAffectPsychophysiology2019,3.0.5,59.93007299166371,
To what extent did the music make you feel ,FRUSTRATED,30MonoWAV/30MonoF2.wav,1,2,2,2,,,,,1,12,28,1,0,6,6,3,,,,,,,,,1,0.7184788720005599,,,007,001,2019_May_07_1612,MusicAffectPsychophysiology2019,3.0.5,59.93007299166371,
To what extent did the music make you feel ,EXCITED,30MonoWAV/30MonoF2.wav,1,2,2,2,,,,,1,12,28,1,0,7,7,7,,,,,,,,,1,0.7018740620005701,,,007,001,2019_May_07_1612,MusicAffectPsychophysiology2019,3.0.5,59.93007299166371,
To what extent did the music make you feel ,ANXIOUS ,30MonoWAV/30MonoF2.wav,1,2,2,2,,,,,1,12,28,1,0,8,8,1,,,,,,,,,4,0.9020812620001379,,,007,001,2019_May_07_1612,MusicAffectPsychophysiology2019,3.0.5,59.93007299166371,
To what extent did the music make you feel ,SCARED,30MonoWAV/30MonoF2.wav,1,2,2,2,,,,,1,12,28,1,0,9,9,11,,,,,,,,,4,0.5852918889977445,,,007,001,2019_May_07_1612,MusicAffectPsychophysiology2019,3.0.5,59.93007299166371,
To what extent did the music make you feel ,ANGRY,30MonoWAV/30MonoF2.wav,1,2,2,2,,,,,1,12,28,1,0,10,10,2,,,,,,,,,1,1.1502515559986932,,,007,001,2019_May_07_1612,MusicAffectPsychophysiology2019,3.0.5,59.93007299166371,
To what extent did the music make you feel ,ACTIVE,30MonoWAV/30MonoF2.wav,1,2,2,2,,,,,1,12,28,1,0,11,11,9,,,,,,,,,2,1.0355010130006121,,,007,001,2019_May_07_1612,MusicAffectPsychophysiology2019,3.0.5,59.93007299166371,
,,30MonoWAV/30MonoF2.wav,1,2,2,2,,,,,1,12,28,1,,,,,,,,,,,,,,,,,007,001,2019_May_07_1612,MusicAffectPsychophysiology2019,3.0.5,59.93007299166371,
To what extent did the music make you feel ,SAD,30MonoWAV/30MonoH3.wav,2,2,1,7,,,,,1,13,29,6,0,0,0,0,,,3,2.717750657000579,3,1.5851825179997832,,,1,1.283490708003228,,,007,001,2019_May_07_1612,MusicAffectPsychophysiology2019,3.0.5,59.93007299166371,
To what extent did the music make you feel ,FRUSTRATED,30MonoWAV/30MonoH3.wav,2,2,1,7,,,,,1,13,29,6,0,1,1,3,,,,,,,,,1,0.7684135010022146,,,007,001,2019_May_07_1612,MusicAffectPsychophysiology2019,3.0.5,59.93007299166371,
To what extent did the music make you feel ,ACTIVE,30MonoWAV/30MonoH3.wav,2,2,1,7,,,,,1,13,29,6,0,2,2,9,,,,,,,,,2,1.61805236699729,,,007,001,2019_May_07_1612,MusicAffectPsychophysiology2019,3.0.5,59.93007299166371,
To what extent did the music make you feel ,ALERT,30MonoWAV/30MonoH3.wav,2,2,1,7,,,,,1,13,29,6,0,3,3,8,,,,,,,,,2,1.3015111639979295,,,007,001,2019_May_07_1612,MusicAffectPsychophysiology2019,3.0.5,59.93007299166371,
To what extent did the music make you feel ,ASHAMED,30MonoWAV/30MonoH3.wav,2,2,1,7,,,,,1,13,29,6,0,4,4,4,,,,,,,,,1,0.8014332239981741,,,007,001,2019_May_07_1612,MusicAffectPsychophysiology2019,3.0.5,59.93007299166371,
To what extent did the music make you feel ,HAPPY,30MonoWAV/30MonoH3.wav,2,2,1,7,,,,,1,13,29,6,0,5,5,6,,,,,,,,,4,1.2357225989981089,,,007,001,2019_May_07_1612,MusicAffectPsychophysiology2019,3.0.5,59.93007299166371,
To what extent did the music make you feel ,EXCITED,30MonoWAV/30MonoH3.wav,2,2,1,7,,,,,1,13,29,6,0,6,6,7,,,,,,,,,2,0.9678867019974859,,,007,001,2019_May_07_1612,MusicAffectPsychophysiology2019,3.0.5,59.93007299166371,
To what extent did the music make you feel ,ANGRY,30MonoWAV/30MonoH3.wav,2,2,1,7,,,,,1,13,29,6,0,7,7,2,,,,,,,,,1,1.1852323769999202,,,007,001,2019_May_07_1612,MusicAffectPsychophysiology2019,3.0.5,59.93007299166371,
To what extent did the music make you feel ,SCARED,30MonoWAV/30MonoH3.wav,2,2,1,7,,,,,1,13,29,6,0,8,8,11,,,,,,,,,1,1.1846447419993638,,,007,001,2019_May_07_1612,MusicAffectPsychophysiology2019,3.0.5,59.93007299166371,
To what extent did the music make you feel ,ANXIOUS ,30MonoWAV/30MonoH3.wav,2,2,1,7,,,,,1,13,29,6,0,9,9,1,,,,,,,,,1,1.485464891000447,,,007,001,2019_May_07_1612,MusicAffectPsychophysiology2019,3.0.5,59.93007299166371,
To what extent did the music make you feel ,TENDER,30MonoWAV/30MonoH3.wav,2,2,1,7,,,,,1,13,29,6,0,10,10,10,,,,,,,,,1,0.8853972119977698,,,007,001,2019_May_07_1612,MusicAffectPsychophysiology2019,3.0.5,59.93007299166371,
To what extent did the music make you feel ,GUILTY,30MonoWAV/30MonoH3.wav,2,2,1,7,,,,,1,13,29,6,0,11,11,5,,,,,,,,,1,1.2354331450005702,,,007,001,2019_May_07_1612,MusicAffectPsychophysiology2019,3.0.5,59.93007299166371,
,,30MonoWAV/30MonoH3.wav,2,2,1,7,,,,,1,13,29,6,,,,,,,,,,,,,,,,,007,001,2019_May_07_1612,MusicAffectPsychophysiology2019,3.0.5,59.93007299166371,
To what extent did the music make you feel ,SCARED,30MonoWAV/30MonoH4.wav,2,2,1,8,,,,,1,14,30,7,0,0,0,11,,,3,3.8397900739983015,4,1.253012237000803,,,1,1.1015437039968674,,,007,001,2019_May_07_1612,MusicAffectPsychophysiology2019,3.0.5,59.93007299166371,
To what extent did the music make you feel ,TENDER,30MonoWAV/30MonoH4.wav,2,2,1,8,,,,,1,14,30,7,0,1,1,10,,,,,,,,,1,0.7183617609989597,,,007,001,2019_May_07_1612,MusicAffectPsychophysiology2019,3.0.5,59.93007299166371,
To what extent did the music make you feel ,ASHAMED,30MonoWAV/30MonoH4.wav,2,2,1,8,,,,,1,14,30,7,0,2,2,4,,,,,,,,,1,0.6846257350007363,,,007,001,2019_May_07_1612,MusicAffectPsychophysiology2019,3.0.5,59.93007299166371,
To what extent did the music make you feel ,ACTIVE,30MonoWAV/30MonoH4.wav,2,2,1,8,,,,,1,14,30,7,0,3,3,9,,,,,,,,,3,1.0348781139982748,,,007,001,2019_May_07_1612,MusicAffectPsychophysiology2019,3.0.5,59.93007299166371,
To what extent did the music make you feel ,EXCITED,30MonoWAV/30MonoH4.wav,2,2,1,8,,,,,1,14,30,7,0,4,4,7,,,,,,,,,2,0.8696223939987249,,,007,001,2019_May_07_1612,MusicAffectPsychophysiology2019,3.0.5,59.93007299166371,
To what extent did the music make you feel ,HAPPY,30MonoWAV/30MonoH4.wav,2,2,1,8,,,,,1,14,30,7,0,5,5,6,,,,,,,,,4,1.3026722689974122,,,007,001,2019_May_07_1612,MusicAffectPsychophysiology2019,3.0.5,59.93007299166371,
To what extent did the music make you feel ,FRUSTRATED,30MonoWAV/30MonoH4.wav,2,2,1,8,,,,,1,14,30,7,0,6,6,3,,,,,,,,,1,0.7510233009998046,,,007,001,2019_May_07_1612,MusicAffectPsychophysiology2019,3.0.5,59.93007299166371,
To what extent did the music make you feel ,ALERT,30MonoWAV/30MonoH4.wav,2,2,1,8,,,,,1,14,30,7,0,7,7,8,,,,,,,,,3,2.234360648999427,,,007,001,2019_May_07_1612,MusicAffectPsychophysiology2019,3.0.5,59.93007299166371,
To what extent did the music make you feel ,ANGRY,30MonoWAV/30MonoH4.wav,2,2,1,8,,,,,1,14,30,7,0,8,8,2,,,,,,,,,1,0.6694044649993884,,,007,001,2019_May_07_1612,MusicAffectPsychophysiology2019,3.0.5,59.93007299166371,
To what extent did the music make you feel ,ANXIOUS ,30MonoWAV/30MonoH4.wav,2,2,1,8,,,,,1,14,30,7,0,9,9,1,,,,,,,,,1,0.9681623130018124,,,007,001,2019_May_07_1612,MusicAffectPsychophysiology2019,3.0.5,59.93007299166371,
To what extent did the music make you feel ,SAD,30MonoWAV/30MonoH4.wav,2,2,1,8,,,,,1,14,30,7,0,10,10,0,,,,,,,,,1,0.768444338998961,,,007,001,2019_May_07_1612,MusicAffectPsychophysiology2019,3.0.5,59.93007299166371,
To what extent did the music make you feel ,GUILTY,30MonoWAV/30MonoH4.wav,2,2,1,8,,,,,1,14,30,7,0,11,11,5,,,,,,,,,1,0.9691316349999397,,,007,001,2019_May_07_1612,MusicAffectPsychophysiology2019,3.0.5,59.93007299166371,
,,30MonoWAV/30MonoH4.wav,2,2,1,8,,,,,1,14,30,7,,,,,,,,,,,,,,,,,007,001,2019_May_07_1612,MusicAffectPsychophysiology2019,3.0.5,59.93007299166371,
To what extent did the music make you feel ,SCARED,30MonoWAV/30MonoT1.wav,2,1,4,13,,,,,1,15,31,12,0,0,0,11,,,2,2.753034781999304,2,3.302113237001322,,,1,1.4176944780010672,,,007,001,2019_May_07_1612,MusicAffectPsychophysiology2019,3.0.5,59.93007299166371,
To what extent did the music make you feel ,ALERT,30MonoWAV/30MonoT1.wav,2,1,4,13,,,,,1,15,31,12,0,1,1,8,,,,,,,,,2,1.501893710999866,,,007,001,2019_May_07_1612,MusicAffectPsychophysiology2019,3.0.5,59.93007299166371,
To what extent did the music make you feel ,ASHAMED,30MonoWAV/30MonoT1.wav,2,1,4,13,,,,,1,15,31,12,0,2,2,4,,,,,,,,,1,1.0198987049989228,,,007,001,2019_May_07_1612,MusicAffectPsychophysiology2019,3.0.5,59.93007299166371,
To what extent did the music make you feel ,EXCITED,30MonoWAV/30MonoT1.wav,2,1,4,13,,,,,1,15,31,12,0,3,3,7,,,,,,,,,1,1.1353454529998999,,,007,001,2019_May_07_1612,MusicAffectPsychophysiology2019,3.0.5,59.93007299166371,
To what extent did the music make you feel ,ANXIOUS ,30MonoWAV/30MonoT1.wav,2,1,4,13,,,,,1,15,31,12,0,4,4,1,,,,,,,,,1,0.9687745499977609,,,007,001,2019_May_07_1612,MusicAffectPsychophysiology2019,3.0.5,59.93007299166371,
To what extent did the music make you feel ,HAPPY,30MonoWAV/30MonoT1.wav,2,1,4,13,,,,,1,15,31,12,0,5,5,6,,,,,,,,,2,3.701067622001574,,,007,001,2019_May_07_1612,MusicAffectPsychophysiology2019,3.0.5,59.93007299166371,
To what extent did the music make you feel ,SAD,30MonoWAV/30MonoT1.wav,2,1,4,13,,,,,1,15,31,12,0,6,6,0,,,,,,,,,2,3.4190141129984113,,,007,001,2019_May_07_1612,MusicAffectPsychophysiology2019,3.0.5,59.93007299166371,
To what extent did the music make you feel ,GUILTY,30MonoWAV/30MonoT1.wav,2,1,4,13,,,,,1,15,31,12,0,7,7,5,,,,,,,,,1,1.818678487001307,,,007,001,2019_May_07_1612,MusicAffectPsychophysiology2019,3.0.5,59.93007299166371,
To what extent did the music make you feel ,ACTIVE,30MonoWAV/30MonoT1.wav,2,1,4,13,,,,,1,15,31,12,0,8,8,9,,,,,,,,,1,0.8179692609992344,,,007,001,2019_May_07_1612,MusicAffectPsychophysiology2019,3.0.5,59.93007299166371,
To what extent did the music make you feel ,FRUSTRATED,30MonoWAV/30MonoT1.wav,2,1,4,13,,,,,1,15,31,12,0,9,9,3,,,,,,,,,1,0.4680965240004298,,,007,001,2019_May_07_1612,MusicAffectPsychophysiology2019,3.0.5,59.93007299166371,
To what extent did the music make you feel ,TENDER,30MonoWAV/30MonoT1.wav,2,1,4,13,,,,,1,15,31,12,0,10,10,10,,,,,,,,,3,1.5027330949997122,,,007,001,2019_May_07_1612,MusicAffectPsychophysiology2019,3.0.5,59.93007299166371,
To what extent did the music make you feel ,ANGRY,30MonoWAV/30MonoT1.wav,2,1,4,13,,,,,1,15,31,12,0,11,11,2,,,,,,,,,1,0.6846433069986233,,,007,001,2019_May_07_1612,MusicAffectPsychophysiology2019,3.0.5,59.93007299166371,
,,30MonoWAV/30MonoT1.wav,2,1,4,13,,,,,1,15,31,12,,,,,,,,,,,,,,,,,007,001,2019_May_07_1612,MusicAffectPsychophysiology2019,3.0.5,59.93007299166371,
,,,,,,,,,,,,,,,,,,,,,,,,,,,,,space,5.301796470997942,007,001,2019_May_07_1612,MusicAffectPsychophysiology2019,3.0.5,59.93007299166371,
