Instruction,Word,song,valence,arousal,affectcat,songmark,pracwords.thisRepN,pracwords.thisTrialN,pracwords.thisN,pracwords.thisIndex,songtrials.thisRepN,songtrials.thisTrialN,songtrials.thisN,songtrials.thisIndex,words.thisRepN,words.thisTrialN,words.thisN,words.thisIndex,begin.keys,begin.rt,arousalkey.keys,arousalkey.rt,valencekey.keys,valencekey.rt,likekey.keys,likekey.rt,WordResponse.keys,WordResponse.rt,key_resp_2.keys,key_resp_2.rt,participant,session,date,expName,psychopyVersion,frameRate,
,,,,,,,,,,,,,,,,,,,1,11.775862799999913,,,,,,,,,,,008,001,2019_May_08_1311,MusicAffectPsychophysiology2019,3.0.5,59.990697842447275,
,,,,,,,,,,,,,,,,,,,,,4,5.484231382999951,,,,,,,,,008,001,2019_May_08_1311,MusicAffectPsychophysiology2019,3.0.5,59.990697842447275,
,,,,,,,,,,,,,,,,,,,,,,,4,3.1059999270000844,,,,,,,008,001,2019_May_08_1311,MusicAffectPsychophysiology2019,3.0.5,59.990697842447275,
,,,,,,,,,,,,,,,,,,,,,,,,,4,3.5735855639998135,,,,,008,001,2019_May_08_1311,MusicAffectPsychophysiology2019,3.0.5,59.990697842447275,
To what extent did the music make you feel ,FRUSTRATED,,,,,,0,0,0,3,,,,,,,,,,,,,,,,,1,3.542019623999977,,,008,001,2019_May_08_1311,MusicAffectPsychophysiology2019,3.0.5,59.990697842447275,
To what extent did the music make you feel ,HAPPY,,,,,,0,1,1,6,,,,,,,,,,,,,,,,,4,2.4012508789999174,,,008,001,2019_May_08_1311,MusicAffectPsychophysiology2019,3.0.5,59.990697842447275,
To what extent did the music make you feel ,ANXIOUS ,,,,,,0,2,2,1,,,,,,,,,,,,,,,,,1,1.8689698200000748,,,008,001,2019_May_08_1311,MusicAffectPsychophysiology2019,3.0.5,59.990697842447275,
To what extent did the music make you feel ,GUILTY,,,,,,0,3,3,5,,,,,,,,,,,,,,,,,1,1.617572569999993,,,008,001,2019_May_08_1311,MusicAffectPsychophysiology2019,3.0.5,59.990697842447275,
To what extent did the music make you feel ,ACTIVE,,,,,,0,4,4,9,,,,,,,,,,,,,,,,,3,2.368485074999853,,,008,001,2019_May_08_1311,MusicAffectPsychophysiology2019,3.0.5,59.990697842447275,
To what extent did the music make you feel ,EXCITED,,,,,,0,5,5,7,,,,,,,,,,,,,,,,,3,1.9352677310000672,,,008,001,2019_May_08_1311,MusicAffectPsychophysiology2019,3.0.5,59.990697842447275,
To what extent did the music make you feel ,SCARED,,,,,,0,6,6,11,,,,,,,,,,,,,,,,,1,1.551693615999966,,,008,001,2019_May_08_1311,MusicAffectPsychophysiology2019,3.0.5,59.990697842447275,
To what extent did the music make you feel ,SAD,,,,,,0,7,7,0,,,,,,,,,,,,,,,,,1,3.4004341580000528,,,008,001,2019_May_08_1311,MusicAffectPsychophysiology2019,3.0.5,59.990697842447275,
To what extent did the music make you feel ,TENDER,,,,,,0,8,8,10,,,,,,,,,,,,,,,,,1,2.8027444740000647,,,008,001,2019_May_08_1311,MusicAffectPsychophysiology2019,3.0.5,59.990697842447275,
To what extent did the music make you feel ,ANGRY,,,,,,0,9,9,2,,,,,,,,,,,,,,,,,1,1.502103821999981,,,008,001,2019_May_08_1311,MusicAffectPsychophysiology2019,3.0.5,59.990697842447275,
To what extent did the music make you feel ,ALERT,,,,,,0,10,10,8,,,,,,,,,,,,,,,,,3,4.200410289999809,,,008,001,2019_May_08_1311,MusicAffectPsychophysiology2019,3.0.5,59.990697842447275,
To what extent did the music make you feel ,ASHAMED,,,,,,0,11,11,4,,,,,,,,,,,,,,,,,1,1.6844373700000688,,,008,001,2019_May_08_1311,MusicAffectPsychophysiology2019,3.0.5,59.990697842447275,
To what extent did the music make you feel ,EXCITED,30MonoWAV/30MonoH4.wav,2,2,1,8,,,,,0,0,0,7,0,0,0,7,,,5,4.068055702000038,4,6.1180553740000505,,,5,2.401863370000001,,,008,001,2019_May_08_1311,MusicAffectPsychophysiology2019,3.0.5,59.990697842447275,
To what extent did the music make you feel ,TENDER,30MonoWAV/30MonoH4.wav,2,2,1,8,,,,,0,0,0,7,0,1,1,10,,,,,,,,,2,5.650749657000006,,,008,001,2019_May_08_1311,MusicAffectPsychophysiology2019,3.0.5,59.990697842447275,
To what extent did the music make you feel ,GUILTY,30MonoWAV/30MonoH4.wav,2,2,1,8,,,,,0,0,0,7,0,2,2,5,,,,,,,,,1,0.8856004179999672,,,008,001,2019_May_08_1311,MusicAffectPsychophysiology2019,3.0.5,59.990697842447275,
To what extent did the music make you feel ,ALERT,30MonoWAV/30MonoH4.wav,2,2,1,8,,,,,0,0,0,7,0,3,3,8,,,,,,,,,5,2.152245740000126,,,008,001,2019_May_08_1311,MusicAffectPsychophysiology2019,3.0.5,59.990697842447275,
To what extent did the music make you feel ,FRUSTRATED,30MonoWAV/30MonoH4.wav,2,2,1,8,,,,,0,0,0,7,0,4,4,3,,,,,,,,,1,1.3523129709999466,,,008,001,2019_May_08_1311,MusicAffectPsychophysiology2019,3.0.5,59.990697842447275,
To what extent did the music make you feel ,ANXIOUS ,30MonoWAV/30MonoH4.wav,2,2,1,8,,,,,0,0,0,7,0,5,5,1,,,,,,,,,1,1.4063104510000812,,,008,001,2019_May_08_1311,MusicAffectPsychophysiology2019,3.0.5,59.990697842447275,
To what extent did the music make you feel ,ASHAMED,30MonoWAV/30MonoH4.wav,2,2,1,8,,,,,0,0,0,7,0,6,6,4,,,,,,,,,1,1.453155094000067,,,008,001,2019_May_08_1311,MusicAffectPsychophysiology2019,3.0.5,59.990697842447275,
To what extent did the music make you feel ,SAD,30MonoWAV/30MonoH4.wav,2,2,1,8,,,,,0,0,0,7,0,7,7,0,,,,,,,,,1,1.8024428609999177,,,008,001,2019_May_08_1311,MusicAffectPsychophysiology2019,3.0.5,59.990697842447275,
To what extent did the music make you feel ,ACTIVE,30MonoWAV/30MonoH4.wav,2,2,1,8,,,,,0,0,0,7,0,8,8,9,,,,,,,,,5,1.737171811000053,,,008,001,2019_May_08_1311,MusicAffectPsychophysiology2019,3.0.5,59.990697842447275,
To what extent did the music make you feel ,HAPPY,30MonoWAV/30MonoH4.wav,2,2,1,8,,,,,0,0,0,7,0,9,9,6,,,,,,,,,5,2.9734986769999523,,,008,001,2019_May_08_1311,MusicAffectPsychophysiology2019,3.0.5,59.990697842447275,
To what extent did the music make you feel ,SCARED,30MonoWAV/30MonoH4.wav,2,2,1,8,,,,,0,0,0,7,0,10,10,11,,,,,,,,,1,1.535451347999924,,,008,001,2019_May_08_1311,MusicAffectPsychophysiology2019,3.0.5,59.990697842447275,
To what extent did the music make you feel ,ANGRY,30MonoWAV/30MonoH4.wav,2,2,1,8,,,,,0,0,0,7,0,11,11,2,,,,,,,,,1,1.5174373759998616,,,008,001,2019_May_08_1311,MusicAffectPsychophysiology2019,3.0.5,59.990697842447275,
,,30MonoWAV/30MonoH4.wav,2,2,1,8,,,,,0,0,0,7,,,,,,,,,,,,,,,,,008,001,2019_May_08_1311,MusicAffectPsychophysiology2019,3.0.5,59.990697842447275,
To what extent did the music make you feel ,SAD,30MonoWAV/30MonoS2.wav,1,1,3,10,,,,,0,1,1,9,0,0,0,0,,,1,5.201512348000051,2,4.551945211999964,,,4,5.350946096000143,,,008,001,2019_May_08_1311,MusicAffectPsychophysiology2019,3.0.5,59.990697842447275,
To what extent did the music make you feel ,FRUSTRATED,30MonoWAV/30MonoS2.wav,1,1,3,10,,,,,0,1,1,9,0,1,1,3,,,,,,,,,1,2.967474159999938,,,008,001,2019_May_08_1311,MusicAffectPsychophysiology2019,3.0.5,59.990697842447275,
To what extent did the music make you feel ,ASHAMED,30MonoWAV/30MonoS2.wav,1,1,3,10,,,,,0,1,1,9,0,2,2,4,,,,,,,,,1,3.9161032409999734,,,008,001,2019_May_08_1311,MusicAffectPsychophysiology2019,3.0.5,59.990697842447275,
To what extent did the music make you feel ,TENDER,30MonoWAV/30MonoS2.wav,1,1,3,10,,,,,0,1,1,9,0,3,3,10,,,,,,,,,2,2.4516141139999945,,,008,001,2019_May_08_1311,MusicAffectPsychophysiology2019,3.0.5,59.990697842447275,
To what extent did the music make you feel ,ANXIOUS ,30MonoWAV/30MonoS2.wav,1,1,3,10,,,,,0,1,1,9,0,4,4,1,,,,,,,,,3,1.8014917370001058,,,008,001,2019_May_08_1311,MusicAffectPsychophysiology2019,3.0.5,59.990697842447275,
To what extent did the music make you feel ,ACTIVE,30MonoWAV/30MonoS2.wav,1,1,3,10,,,,,0,1,1,9,0,5,5,9,,,,,,,,,1,1.502167112999814,,,008,001,2019_May_08_1311,MusicAffectPsychophysiology2019,3.0.5,59.990697842447275,
To what extent did the music make you feel ,EXCITED,30MonoWAV/30MonoS2.wav,1,1,3,10,,,,,0,1,1,9,0,6,6,7,,,,,,,,,1,1.600743717000114,,,008,001,2019_May_08_1311,MusicAffectPsychophysiology2019,3.0.5,59.990697842447275,
To what extent did the music make you feel ,SCARED,30MonoWAV/30MonoS2.wav,1,1,3,10,,,,,0,1,1,9,0,7,7,11,,,,,,,,,2,1.8178640700000415,,,008,001,2019_May_08_1311,MusicAffectPsychophysiology2019,3.0.5,59.990697842447275,
To what extent did the music make you feel ,ALERT,30MonoWAV/30MonoS2.wav,1,1,3,10,,,,,0,1,1,9,0,8,8,8,,,,,,,,,2,3.0853898509999453,,,008,001,2019_May_08_1311,MusicAffectPsychophysiology2019,3.0.5,59.990697842447275,
To what extent did the music make you feel ,GUILTY,30MonoWAV/30MonoS2.wav,1,1,3,10,,,,,0,1,1,9,0,9,9,5,,,,,,,,,1,1.4183339490000435,,,008,001,2019_May_08_1311,MusicAffectPsychophysiology2019,3.0.5,59.990697842447275,
To what extent did the music make you feel ,HAPPY,30MonoWAV/30MonoS2.wav,1,1,3,10,,,,,0,1,1,9,0,10,10,6,,,,,,,,,2,3.935362117000068,,,008,001,2019_May_08_1311,MusicAffectPsychophysiology2019,3.0.5,59.990697842447275,
To what extent did the music make you feel ,ANGRY,30MonoWAV/30MonoS2.wav,1,1,3,10,,,,,0,1,1,9,0,11,11,2,,,,,,,,,1,1.7016770740001448,,,008,001,2019_May_08_1311,MusicAffectPsychophysiology2019,3.0.5,59.990697842447275,
,,30MonoWAV/30MonoS2.wav,1,1,3,10,,,,,0,1,1,9,,,,,,,,,,,,,,,,,008,001,2019_May_08_1311,MusicAffectPsychophysiology2019,3.0.5,59.990697842447275,
To what extent did the music make you feel ,EXCITED,30MonoWAV/30MonoH1.wav,2,2,1,5,,,,,0,2,2,4,0,0,0,7,,,5,6.001030676000028,4,3.1521128960000624,,,5,6.232678687999851,,,008,001,2019_May_08_1311,MusicAffectPsychophysiology2019,3.0.5,59.990697842447275,
To what extent did the music make you feel ,TENDER,30MonoWAV/30MonoH1.wav,2,2,1,5,,,,,0,2,2,4,0,1,1,10,,,,,,,,,3,3.8519847609998124,,,008,001,2019_May_08_1311,MusicAffectPsychophysiology2019,3.0.5,59.990697842447275,
To what extent did the music make you feel ,HAPPY,30MonoWAV/30MonoH1.wav,2,2,1,5,,,,,0,2,2,4,0,2,2,6,,,,,,,,,4,2.0515714370001206,,,008,001,2019_May_08_1311,MusicAffectPsychophysiology2019,3.0.5,59.990697842447275,
To what extent did the music make you feel ,ANGRY,30MonoWAV/30MonoH1.wav,2,2,1,5,,,,,0,2,2,4,0,3,3,2,,,,,,,,,1,1.1346088289999443,,,008,001,2019_May_08_1311,MusicAffectPsychophysiology2019,3.0.5,59.990697842447275,
To what extent did the music make you feel ,ASHAMED,30MonoWAV/30MonoH1.wav,2,2,1,5,,,,,0,2,2,4,0,4,4,4,,,,,,,,,1,0.9521063739998681,,,008,001,2019_May_08_1311,MusicAffectPsychophysiology2019,3.0.5,59.990697842447275,
To what extent did the music make you feel ,ANXIOUS ,30MonoWAV/30MonoH1.wav,2,2,1,5,,,,,0,2,2,4,0,5,5,1,,,,,,,,,1,3.818113273000108,,,008,001,2019_May_08_1311,MusicAffectPsychophysiology2019,3.0.5,59.990697842447275,
To what extent did the music make you feel ,ACTIVE,30MonoWAV/30MonoH1.wav,2,2,1,5,,,,,0,2,2,4,0,6,6,9,,,,,,,,,3,3.901257423999823,,,008,001,2019_May_08_1311,MusicAffectPsychophysiology2019,3.0.5,59.990697842447275,
To what extent did the music make you feel ,ALERT,30MonoWAV/30MonoH1.wav,2,2,1,5,,,,,0,2,2,4,0,7,7,8,,,,,,,,,4,1.601143602999855,,,008,001,2019_May_08_1311,MusicAffectPsychophysiology2019,3.0.5,59.990697842447275,
To what extent did the music make you feel ,SAD,30MonoWAV/30MonoH1.wav,2,2,1,5,,,,,0,2,2,4,0,8,8,0,,,,,,,,,1,1.0847498609998638,,,008,001,2019_May_08_1311,MusicAffectPsychophysiology2019,3.0.5,59.990697842447275,
To what extent did the music make you feel ,SCARED,30MonoWAV/30MonoH1.wav,2,2,1,5,,,,,0,2,2,4,0,9,9,11,,,,,,,,,1,1.3685611490000156,,,008,001,2019_May_08_1311,MusicAffectPsychophysiology2019,3.0.5,59.990697842447275,
To what extent did the music make you feel ,GUILTY,30MonoWAV/30MonoH1.wav,2,2,1,5,,,,,0,2,2,4,0,10,10,5,,,,,,,,,1,1.018583289000162,,,008,001,2019_May_08_1311,MusicAffectPsychophysiology2019,3.0.5,59.990697842447275,
To what extent did the music make you feel ,FRUSTRATED,30MonoWAV/30MonoH1.wav,2,2,1,5,,,,,0,2,2,4,0,11,11,3,,,,,,,,,1,6.4009082430000035,,,008,001,2019_May_08_1311,MusicAffectPsychophysiology2019,3.0.5,59.990697842447275,
,,30MonoWAV/30MonoH1.wav,2,2,1,5,,,,,0,2,2,4,,,,,,,,,,,,,,,,,008,001,2019_May_08_1311,MusicAffectPsychophysiology2019,3.0.5,59.990697842447275,
To what extent did the music make you feel ,EXCITED,30MonoWAV/30MonoS4.wav,1,1,3,12,,,,,0,3,3,11,0,0,0,7,,,1,5.243581897000013,2,3.7083952830000726,,,1,3.1679552049999984,,,008,001,2019_May_08_1311,MusicAffectPsychophysiology2019,3.0.5,59.990697842447275,
To what extent did the music make you feel ,FRUSTRATED,30MonoWAV/30MonoS4.wav,1,1,3,12,,,,,0,3,3,11,0,1,1,3,,,,,,,,,1,2.0685020680000434,,,008,001,2019_May_08_1311,MusicAffectPsychophysiology2019,3.0.5,59.990697842447275,
To what extent did the music make you feel ,SAD,30MonoWAV/30MonoS4.wav,1,1,3,12,,,,,0,3,3,11,0,2,2,0,,,,,,,,,4,5.267526915999952,,,008,001,2019_May_08_1311,MusicAffectPsychophysiology2019,3.0.5,59.990697842447275,
To what extent did the music make you feel ,ANGRY,30MonoWAV/30MonoS4.wav,1,1,3,12,,,,,0,3,3,11,0,3,3,2,,,,,,,,,1,2.534699473000046,,,008,001,2019_May_08_1311,MusicAffectPsychophysiology2019,3.0.5,59.990697842447275,
To what extent did the music make you feel ,ACTIVE,30MonoWAV/30MonoS4.wav,1,1,3,12,,,,,0,3,3,11,0,4,4,9,,,,,,,,,1,1.4682970419999037,,,008,001,2019_May_08_1311,MusicAffectPsychophysiology2019,3.0.5,59.990697842447275,
To what extent did the music make you feel ,ASHAMED,30MonoWAV/30MonoS4.wav,1,1,3,12,,,,,0,3,3,11,0,5,5,4,,,,,,,,,2,4.150830018999841,,,008,001,2019_May_08_1311,MusicAffectPsychophysiology2019,3.0.5,59.990697842447275,
To what extent did the music make you feel ,ALERT,30MonoWAV/30MonoS4.wav,1,1,3,12,,,,,0,3,3,11,0,6,6,8,,,,,,,,,2,2.651805448999994,,,008,001,2019_May_08_1311,MusicAffectPsychophysiology2019,3.0.5,59.990697842447275,
To what extent did the music make you feel ,TENDER,30MonoWAV/30MonoS4.wav,1,1,3,12,,,,,0,3,3,11,0,7,7,10,,,,,,,,,2,1.3517540759999065,,,008,001,2019_May_08_1311,MusicAffectPsychophysiology2019,3.0.5,59.990697842447275,
To what extent did the music make you feel ,GUILTY,30MonoWAV/30MonoS4.wav,1,1,3,12,,,,,0,3,3,11,0,8,8,5,,,,,,,,,2,2.233089006,,,008,001,2019_May_08_1311,MusicAffectPsychophysiology2019,3.0.5,59.990697842447275,
To what extent did the music make you feel ,HAPPY,30MonoWAV/30MonoS4.wav,1,1,3,12,,,,,0,3,3,11,0,9,9,6,,,,,,,,,2,2.8351899300000696,,,008,001,2019_May_08_1311,MusicAffectPsychophysiology2019,3.0.5,59.990697842447275,
To what extent did the music make you feel ,SCARED,30MonoWAV/30MonoS4.wav,1,1,3,12,,,,,0,3,3,11,0,10,10,11,,,,,,,,,1,5.566008768000074,,,008,001,2019_May_08_1311,MusicAffectPsychophysiology2019,3.0.5,59.990697842447275,
To what extent did the music make you feel ,ANXIOUS ,30MonoWAV/30MonoS4.wav,1,1,3,12,,,,,0,3,3,11,0,11,11,1,,,,,,,,,2,1.7180903450000642,,,008,001,2019_May_08_1311,MusicAffectPsychophysiology2019,3.0.5,59.990697842447275,
,,30MonoWAV/30MonoS4.wav,1,1,3,12,,,,,0,3,3,11,,,,,,,,,,,,,,,,,008,001,2019_May_08_1311,MusicAffectPsychophysiology2019,3.0.5,59.990697842447275,
To what extent did the music make you feel ,ALERT,30MonoWAV/30MonoS3.wav,1,1,3,11,,,,,0,4,4,10,0,0,0,8,,,3,5.235454447999928,2,3.351550859000099,,,3,1.979438527999946,,,008,001,2019_May_08_1311,MusicAffectPsychophysiology2019,3.0.5,59.990697842447275,
To what extent did the music make you feel ,ANXIOUS ,30MonoWAV/30MonoS3.wav,1,1,3,11,,,,,0,4,4,10,0,1,1,1,,,,,,,,,3,1.4684241960001145,,,008,001,2019_May_08_1311,MusicAffectPsychophysiology2019,3.0.5,59.990697842447275,
To what extent did the music make you feel ,SAD,30MonoWAV/30MonoS3.wav,1,1,3,11,,,,,0,4,4,10,0,2,2,0,,,,,,,,,3,5.750611315000015,,,008,001,2019_May_08_1311,MusicAffectPsychophysiology2019,3.0.5,59.990697842447275,
To what extent did the music make you feel ,EXCITED,30MonoWAV/30MonoS3.wav,1,1,3,11,,,,,0,4,4,10,0,3,3,7,,,,,,,,,1,1.6684271710000758,,,008,001,2019_May_08_1311,MusicAffectPsychophysiology2019,3.0.5,59.990697842447275,
To what extent did the music make you feel ,ASHAMED,30MonoWAV/30MonoS3.wav,1,1,3,11,,,,,0,4,4,10,0,4,4,4,,,,,,,,,2,1.5851822330000687,,,008,001,2019_May_08_1311,MusicAffectPsychophysiology2019,3.0.5,59.990697842447275,
To what extent did the music make you feel ,TENDER,30MonoWAV/30MonoS3.wav,1,1,3,11,,,,,0,4,4,10,0,5,5,10,,,,,,,,,2,1.0350876709999284,,,008,001,2019_May_08_1311,MusicAffectPsychophysiology2019,3.0.5,59.990697842447275,
To what extent did the music make you feel ,SCARED,30MonoWAV/30MonoS3.wav,1,1,3,11,,,,,0,4,4,10,0,6,6,11,,,,,,,,,3,2.2513232619999144,,,008,001,2019_May_08_1311,MusicAffectPsychophysiology2019,3.0.5,59.990697842447275,
To what extent did the music make you feel ,ANGRY,30MonoWAV/30MonoS3.wav,1,1,3,11,,,,,0,4,4,10,0,7,7,2,,,,,,,,,2,2.718400868000117,,,008,001,2019_May_08_1311,MusicAffectPsychophysiology2019,3.0.5,59.990697842447275,
To what extent did the music make you feel ,HAPPY,30MonoWAV/30MonoS3.wav,1,1,3,11,,,,,0,4,4,10,0,8,8,6,,,,,,,,,1,2.366968261000011,,,008,001,2019_May_08_1311,MusicAffectPsychophysiology2019,3.0.5,59.990697842447275,
To what extent did the music make you feel ,GUILTY,30MonoWAV/30MonoS3.wav,1,1,3,11,,,,,0,4,4,10,0,9,9,5,,,,,,,,,2,1.4156835979999869,,,008,001,2019_May_08_1311,MusicAffectPsychophysiology2019,3.0.5,59.990697842447275,
To what extent did the music make you feel ,ACTIVE,30MonoWAV/30MonoS3.wav,1,1,3,11,,,,,0,4,4,10,0,10,10,9,,,,,,,,,1,1.168749508000019,,,008,001,2019_May_08_1311,MusicAffectPsychophysiology2019,3.0.5,59.990697842447275,
To what extent did the music make you feel ,FRUSTRATED,30MonoWAV/30MonoS3.wav,1,1,3,11,,,,,0,4,4,10,0,11,11,3,,,,,,,,,1,4.818047064999973,,,008,001,2019_May_08_1311,MusicAffectPsychophysiology2019,3.0.5,59.990697842447275,
,,30MonoWAV/30MonoS3.wav,1,1,3,11,,,,,0,4,4,10,,,,,,,,,,,,,,,,,008,001,2019_May_08_1311,MusicAffectPsychophysiology2019,3.0.5,59.990697842447275,
To what extent did the music make you feel ,EXCITED,30MonoWAV/30MonoH3.wav,2,2,1,7,,,,,0,5,5,6,0,0,0,7,,,4,6.084477178999805,4,2.4843708670000524,,,4,1.78434133199994,,,008,001,2019_May_08_1311,MusicAffectPsychophysiology2019,3.0.5,59.990697842447275,
To what extent did the music make you feel ,ANGRY,30MonoWAV/30MonoH3.wav,2,2,1,7,,,,,0,5,5,6,0,1,1,2,,,,,,,,,1,1.600690921000023,,,008,001,2019_May_08_1311,MusicAffectPsychophysiology2019,3.0.5,59.990697842447275,
To what extent did the music make you feel ,SAD,30MonoWAV/30MonoH3.wav,2,2,1,7,,,,,0,5,5,6,0,2,2,0,,,,,,,,,1,0.9848035600000458,,,008,001,2019_May_08_1311,MusicAffectPsychophysiology2019,3.0.5,59.990697842447275,
To what extent did the music make you feel ,ALERT,30MonoWAV/30MonoH3.wav,2,2,1,7,,,,,0,5,5,6,0,3,3,8,,,,,,,,,5,2.801589642999943,,,008,001,2019_May_08_1311,MusicAffectPsychophysiology2019,3.0.5,59.990697842447275,
To what extent did the music make you feel ,HAPPY,30MonoWAV/30MonoH3.wav,2,2,1,7,,,,,0,5,5,6,0,4,4,6,,,,,,,,,4,4.584965210000064,,,008,001,2019_May_08_1311,MusicAffectPsychophysiology2019,3.0.5,59.990697842447275,
To what extent did the music make you feel ,ASHAMED,30MonoWAV/30MonoH3.wav,2,2,1,7,,,,,0,5,5,6,0,5,5,4,,,,,,,,,1,1.1186140589998104,,,008,001,2019_May_08_1311,MusicAffectPsychophysiology2019,3.0.5,59.990697842447275,
To what extent did the music make you feel ,SCARED,30MonoWAV/30MonoH3.wav,2,2,1,7,,,,,0,5,5,6,0,6,6,11,,,,,,,,,1,6.350357149000047,,,008,001,2019_May_08_1311,MusicAffectPsychophysiology2019,3.0.5,59.990697842447275,
To what extent did the music make you feel ,FRUSTRATED,30MonoWAV/30MonoH3.wav,2,2,1,7,,,,,0,5,5,6,0,7,7,3,,,,,,,,,1,0.8853397080001741,,,008,001,2019_May_08_1311,MusicAffectPsychophysiology2019,3.0.5,59.990697842447275,
To what extent did the music make you feel ,TENDER,30MonoWAV/30MonoH3.wav,2,2,1,7,,,,,0,5,5,6,0,8,8,10,,,,,,,,,1,1.7188215850001143,,,008,001,2019_May_08_1311,MusicAffectPsychophysiology2019,3.0.5,59.990697842447275,
To what extent did the music make you feel ,ANXIOUS ,30MonoWAV/30MonoH3.wav,2,2,1,7,,,,,0,5,5,6,0,9,9,1,,,,,,,,,1,3.818108193999933,,,008,001,2019_May_08_1311,MusicAffectPsychophysiology2019,3.0.5,59.990697842447275,
To what extent did the music make you feel ,GUILTY,30MonoWAV/30MonoH3.wav,2,2,1,7,,,,,0,5,5,6,0,10,10,5,,,,,,,,,1,1.0852854590000334,,,008,001,2019_May_08_1311,MusicAffectPsychophysiology2019,3.0.5,59.990697842447275,
To what extent did the music make you feel ,ACTIVE,30MonoWAV/30MonoH3.wav,2,2,1,7,,,,,0,5,5,6,0,11,11,9,,,,,,,,,4,2.2670270289997916,,,008,001,2019_May_08_1311,MusicAffectPsychophysiology2019,3.0.5,59.990697842447275,
,,30MonoWAV/30MonoH3.wav,2,2,1,7,,,,,0,5,5,6,,,,,,,,,,,,,,,,,008,001,2019_May_08_1311,MusicAffectPsychophysiology2019,3.0.5,59.990697842447275,
To what extent did the music make you feel ,EXCITED,30MonoWAV/30MonoT1.wav,2,1,4,13,,,,,0,6,6,12,0,0,0,7,,,2,4.051680958999896,4,3.5892405480001344,,,2,2.6714155449999453,,,008,001,2019_May_08_1311,MusicAffectPsychophysiology2019,3.0.5,59.990697842447275,
To what extent did the music make you feel ,GUILTY,30MonoWAV/30MonoT1.wav,2,1,4,13,,,,,0,6,6,12,0,1,1,5,,,,,,,,,1,1.202753684000072,,,008,001,2019_May_08_1311,MusicAffectPsychophysiology2019,3.0.5,59.990697842447275,
To what extent did the music make you feel ,ANXIOUS ,30MonoWAV/30MonoT1.wav,2,1,4,13,,,,,0,6,6,12,0,2,2,1,,,,,,,,,1,0.8033374940000613,,,008,001,2019_May_08_1311,MusicAffectPsychophysiology2019,3.0.5,59.990697842447275,
To what extent did the music make you feel ,ANGRY,30MonoWAV/30MonoT1.wav,2,1,4,13,,,,,0,6,6,12,0,3,3,2,,,,,,,,,1,0.7353601610000169,,,008,001,2019_May_08_1311,MusicAffectPsychophysiology2019,3.0.5,59.990697842447275,
To what extent did the music make you feel ,ALERT,30MonoWAV/30MonoT1.wav,2,1,4,13,,,,,0,6,6,12,0,4,4,8,,,,,,,,,2,2.0397751680000056,,,008,001,2019_May_08_1311,MusicAffectPsychophysiology2019,3.0.5,59.990697842447275,
To what extent did the music make you feel ,HAPPY,30MonoWAV/30MonoT1.wav,2,1,4,13,,,,,0,6,6,12,0,5,5,6,,,,,,,,,3,4.682650733999935,,,008,001,2019_May_08_1311,MusicAffectPsychophysiology2019,3.0.5,59.990697842447275,
To what extent did the music make you feel ,SCARED,30MonoWAV/30MonoT1.wav,2,1,4,13,,,,,0,6,6,12,0,6,6,11,,,,,,,,,1,1.5848318080002173,,,008,001,2019_May_08_1311,MusicAffectPsychophysiology2019,3.0.5,59.990697842447275,
To what extent did the music make you feel ,TENDER,30MonoWAV/30MonoT1.wav,2,1,4,13,,,,,0,6,6,12,0,7,7,10,,,,,,,,,1,0.8850201580003159,,,008,001,2019_May_08_1311,MusicAffectPsychophysiology2019,3.0.5,59.990697842447275,
To what extent did the music make you feel ,FRUSTRATED,30MonoWAV/30MonoT1.wav,2,1,4,13,,,,,0,6,6,12,0,8,8,3,,,,,,,,,1,1.3186348979998002,,,008,001,2019_May_08_1311,MusicAffectPsychophysiology2019,3.0.5,59.990697842447275,
To what extent did the music make you feel ,SAD,30MonoWAV/30MonoT1.wav,2,1,4,13,,,,,0,6,6,12,0,9,9,0,,,,,,,,,1,4.469169962999786,,,008,001,2019_May_08_1311,MusicAffectPsychophysiology2019,3.0.5,59.990697842447275,
To what extent did the music make you feel ,ACTIVE,30MonoWAV/30MonoT1.wav,2,1,4,13,,,,,0,6,6,12,0,10,10,9,,,,,,,,,2,3.0021882790001655,,,008,001,2019_May_08_1311,MusicAffectPsychophysiology2019,3.0.5,59.990697842447275,
To what extent did the music make you feel ,ASHAMED,30MonoWAV/30MonoT1.wav,2,1,4,13,,,,,0,6,6,12,0,11,11,4,,,,,,,,,1,1.0347247069998957,,,008,001,2019_May_08_1311,MusicAffectPsychophysiology2019,3.0.5,59.990697842447275,
,,30MonoWAV/30MonoT1.wav,2,1,4,13,,,,,0,6,6,12,,,,,,,,,,,,,,,,,008,001,2019_May_08_1311,MusicAffectPsychophysiology2019,3.0.5,59.990697842447275,
To what extent did the music make you feel ,HAPPY,30MonoWAV/30MonoT3.wav,2,1,4,15,,,,,0,7,7,14,0,0,0,6,,,2,4.418110535999858,4,4.533910082999682,,,4,2.2182256920000327,,,008,001,2019_May_08_1311,MusicAffectPsychophysiology2019,3.0.5,59.990697842447275,
To what extent did the music make you feel ,GUILTY,30MonoWAV/30MonoT3.wav,2,1,4,15,,,,,0,7,7,14,0,1,1,5,,,,,,,,,1,1.0901106520000212,,,008,001,2019_May_08_1311,MusicAffectPsychophysiology2019,3.0.5,59.990697842447275,
To what extent did the music make you feel ,EXCITED,30MonoWAV/30MonoT3.wav,2,1,4,15,,,,,0,7,7,14,0,2,2,7,,,,,,,,,1,3.1219393330002276,,,008,001,2019_May_08_1311,MusicAffectPsychophysiology2019,3.0.5,59.990697842447275,
To what extent did the music make you feel ,SCARED,30MonoWAV/30MonoT3.wav,2,1,4,15,,,,,0,7,7,14,0,3,3,11,,,,,,,,,1,1.153035035999892,,,008,001,2019_May_08_1311,MusicAffectPsychophysiology2019,3.0.5,59.990697842447275,
To what extent did the music make you feel ,ASHAMED,30MonoWAV/30MonoT3.wav,2,1,4,15,,,,,0,7,7,14,0,4,4,4,,,,,,,,,1,1.5368198699998175,,,008,001,2019_May_08_1311,MusicAffectPsychophysiology2019,3.0.5,59.990697842447275,
To what extent did the music make you feel ,ACTIVE,30MonoWAV/30MonoT3.wav,2,1,4,15,,,,,0,7,7,14,0,5,5,9,,,,,,,,,1,2.123050673999842,,,008,001,2019_May_08_1311,MusicAffectPsychophysiology2019,3.0.5,59.990697842447275,
To what extent did the music make you feel ,SAD,30MonoWAV/30MonoT3.wav,2,1,4,15,,,,,0,7,7,14,0,6,6,0,,,,,,,,,2,3.267614543000036,,,008,001,2019_May_08_1311,MusicAffectPsychophysiology2019,3.0.5,59.990697842447275,
To what extent did the music make you feel ,ALERT,30MonoWAV/30MonoT3.wav,2,1,4,15,,,,,0,7,7,14,0,7,7,8,,,,,,,,,1,2.5345746719999624,,,008,001,2019_May_08_1311,MusicAffectPsychophysiology2019,3.0.5,59.990697842447275,
To what extent did the music make you feel ,ANXIOUS ,30MonoWAV/30MonoT3.wav,2,1,4,15,,,,,0,7,7,14,0,8,8,1,,,,,,,,,1,2.8014259560000028,,,008,001,2019_May_08_1311,MusicAffectPsychophysiology2019,3.0.5,59.990697842447275,
To what extent did the music make you feel ,ANGRY,30MonoWAV/30MonoT3.wav,2,1,4,15,,,,,0,7,7,14,0,9,9,2,,,,,,,,,1,1.0022211810000954,,,008,001,2019_May_08_1311,MusicAffectPsychophysiology2019,3.0.5,59.990697842447275,
To what extent did the music make you feel ,TENDER,30MonoWAV/30MonoT3.wav,2,1,4,15,,,,,0,7,7,14,0,10,10,10,,,,,,,,,1,1.2506591110000045,,,008,001,2019_May_08_1311,MusicAffectPsychophysiology2019,3.0.5,59.990697842447275,
To what extent did the music make you feel ,FRUSTRATED,30MonoWAV/30MonoT3.wav,2,1,4,15,,,,,0,7,7,14,0,11,11,3,,,,,,,,,1,1.5349880300000223,,,008,001,2019_May_08_1311,MusicAffectPsychophysiology2019,3.0.5,59.990697842447275,
,,30MonoWAV/30MonoT3.wav,2,1,4,15,,,,,0,7,7,14,,,,,,,,,,,,,,,,,008,001,2019_May_08_1311,MusicAffectPsychophysiology2019,3.0.5,59.990697842447275,
To what extent did the music make you feel ,ACTIVE,30MonoWAV/30MonoF2.wav,1,2,2,2,,,,,0,8,8,1,0,0,0,9,,,4,6.277166056000169,2,2.8419715689997247,,,3,9.425472844000069,,,008,001,2019_May_08_1311,MusicAffectPsychophysiology2019,3.0.5,59.990697842447275,
To what extent did the music make you feel ,SAD,30MonoWAV/30MonoF2.wav,1,2,2,2,,,,,0,8,8,1,0,1,1,0,,,,,,,,,1,3.388953752999896,,,008,001,2019_May_08_1311,MusicAffectPsychophysiology2019,3.0.5,59.990697842447275,
To what extent did the music make you feel ,HAPPY,30MonoWAV/30MonoF2.wav,1,2,2,2,,,,,0,8,8,1,0,2,2,6,,,,,,,,,2,1.1563381959999788,,,008,001,2019_May_08_1311,MusicAffectPsychophysiology2019,3.0.5,59.990697842447275,
To what extent did the music make you feel ,SCARED,30MonoWAV/30MonoF2.wav,1,2,2,2,,,,,0,8,8,1,0,3,3,11,,,,,,,,,3,4.151676056999804,,,008,001,2019_May_08_1311,MusicAffectPsychophysiology2019,3.0.5,59.990697842447275,
To what extent did the music make you feel ,ASHAMED,30MonoWAV/30MonoF2.wav,1,2,2,2,,,,,0,8,8,1,0,4,4,4,,,,,,,,,1,1.9020819950001169,,,008,001,2019_May_08_1311,MusicAffectPsychophysiology2019,3.0.5,59.990697842447275,
To what extent did the music make you feel ,ANGRY,30MonoWAV/30MonoF2.wav,1,2,2,2,,,,,0,8,8,1,0,5,5,2,,,,,,,,,1,1.4349096060000193,,,008,001,2019_May_08_1311,MusicAffectPsychophysiology2019,3.0.5,59.990697842447275,
To what extent did the music make you feel ,ANXIOUS ,30MonoWAV/30MonoF2.wav,1,2,2,2,,,,,0,8,8,1,0,6,6,1,,,,,,,,,3,2.118667215000187,,,008,001,2019_May_08_1311,MusicAffectPsychophysiology2019,3.0.5,59.990697842447275,
To what extent did the music make you feel ,TENDER,30MonoWAV/30MonoF2.wav,1,2,2,2,,,,,0,8,8,1,0,7,7,10,,,,,,,,,3,3.367193610999948,,,008,001,2019_May_08_1311,MusicAffectPsychophysiology2019,3.0.5,59.990697842447275,
To what extent did the music make you feel ,EXCITED,30MonoWAV/30MonoF2.wav,1,2,2,2,,,,,0,8,8,1,0,8,8,7,,,,,,,,,2,2.186088171999927,,,008,001,2019_May_08_1311,MusicAffectPsychophysiology2019,3.0.5,59.990697842447275,
To what extent did the music make you feel ,GUILTY,30MonoWAV/30MonoF2.wav,1,2,2,2,,,,,0,8,8,1,0,9,9,5,,,,,,,,,1,1.0503963719997955,,,008,001,2019_May_08_1311,MusicAffectPsychophysiology2019,3.0.5,59.990697842447275,
To what extent did the music make you feel ,ALERT,30MonoWAV/30MonoF2.wav,1,2,2,2,,,,,0,8,8,1,0,10,10,8,,,,,,,,,4,2.1680095110000366,,,008,001,2019_May_08_1311,MusicAffectPsychophysiology2019,3.0.5,59.990697842447275,
To what extent did the music make you feel ,FRUSTRATED,30MonoWAV/30MonoF2.wav,1,2,2,2,,,,,0,8,8,1,0,11,11,3,,,,,,,,,1,1.618977619999896,,,008,001,2019_May_08_1311,MusicAffectPsychophysiology2019,3.0.5,59.990697842447275,
,,30MonoWAV/30MonoF2.wav,1,2,2,2,,,,,0,8,8,1,,,,,,,,,,,,,,,,,008,001,2019_May_08_1311,MusicAffectPsychophysiology2019,3.0.5,59.990697842447275,
To what extent did the music make you feel ,ANXIOUS ,30MonoWAV/30MonoF4.wav,1,2,2,4,,,,,0,9,9,3,0,0,0,1,,,5,4.601351880000038,3,4.285331527999915,,,3,5.6018846179999855,,,008,001,2019_May_08_1311,MusicAffectPsychophysiology2019,3.0.5,59.990697842447275,
To what extent did the music make you feel ,TENDER,30MonoWAV/30MonoF4.wav,1,2,2,4,,,,,0,9,9,3,0,1,1,10,,,,,,,,,2,2.117852716000016,,,008,001,2019_May_08_1311,MusicAffectPsychophysiology2019,3.0.5,59.990697842447275,
To what extent did the music make you feel ,ALERT,30MonoWAV/30MonoF4.wav,1,2,2,4,,,,,0,9,9,3,0,2,2,8,,,,,,,,,4,2.0183123399997385,,,008,001,2019_May_08_1311,MusicAffectPsychophysiology2019,3.0.5,59.990697842447275,
To what extent did the music make you feel ,GUILTY,30MonoWAV/30MonoF4.wav,1,2,2,4,,,,,0,9,9,3,0,3,3,5,,,,,,,,,1,1.9523630589997083,,,008,001,2019_May_08_1311,MusicAffectPsychophysiology2019,3.0.5,59.990697842447275,
To what extent did the music make you feel ,ASHAMED,30MonoWAV/30MonoF4.wav,1,2,2,4,,,,,0,9,9,3,0,4,4,4,,,,,,,,,1,4.751730018000217,,,008,001,2019_May_08_1311,MusicAffectPsychophysiology2019,3.0.5,59.990697842447275,
To what extent did the music make you feel ,ACTIVE,30MonoWAV/30MonoF4.wav,1,2,2,4,,,,,0,9,9,3,0,5,5,9,,,,,,,,,3,1.6853474169997753,,,008,001,2019_May_08_1311,MusicAffectPsychophysiology2019,3.0.5,59.990697842447275,
To what extent did the music make you feel ,EXCITED,30MonoWAV/30MonoF4.wav,1,2,2,4,,,,,0,9,9,3,0,6,6,7,,,,,,,,,3,2.4686155709996456,,,008,001,2019_May_08_1311,MusicAffectPsychophysiology2019,3.0.5,59.990697842447275,
To what extent did the music make you feel ,SCARED,30MonoWAV/30MonoF4.wav,1,2,2,4,,,,,0,9,9,3,0,7,7,11,,,,,,,,,2,1.8511981609999566,,,008,001,2019_May_08_1311,MusicAffectPsychophysiology2019,3.0.5,59.990697842447275,
To what extent did the music make you feel ,FRUSTRATED,30MonoWAV/30MonoF4.wav,1,2,2,4,,,,,0,9,9,3,0,8,8,3,,,,,,,,,2,2.151941220000026,,,008,001,2019_May_08_1311,MusicAffectPsychophysiology2019,3.0.5,59.990697842447275,
To what extent did the music make you feel ,ANGRY,30MonoWAV/30MonoF4.wav,1,2,2,4,,,,,0,9,9,3,0,9,9,2,,,,,,,,,1,1.734190172000126,,,008,001,2019_May_08_1311,MusicAffectPsychophysiology2019,3.0.5,59.990697842447275,
To what extent did the music make you feel ,SAD,30MonoWAV/30MonoF4.wav,1,2,2,4,,,,,0,9,9,3,0,10,10,0,,,,,,,,,1,1.1186725790003038,,,008,001,2019_May_08_1311,MusicAffectPsychophysiology2019,3.0.5,59.990697842447275,
To what extent did the music make you feel ,HAPPY,30MonoWAV/30MonoF4.wav,1,2,2,4,,,,,0,9,9,3,0,11,11,6,,,,,,,,,2,1.335526591999951,,,008,001,2019_May_08_1311,MusicAffectPsychophysiology2019,3.0.5,59.990697842447275,
,,30MonoWAV/30MonoF4.wav,1,2,2,4,,,,,0,9,9,3,,,,,,,,,,,,,,,,,008,001,2019_May_08_1311,MusicAffectPsychophysiology2019,3.0.5,59.990697842447275,
To what extent did the music make you feel ,GUILTY,30MonoWAV/30MonoF1.wav,1,2,2,1,,,,,0,10,10,0,0,0,0,5,,,4,9.58434927899998,2,2.685082651999892,,,1,2.6659675679998145,,,008,001,2019_May_08_1311,MusicAffectPsychophysiology2019,3.0.5,59.990697842447275,
To what extent did the music make you feel ,EXCITED,30MonoWAV/30MonoF1.wav,1,2,2,1,,,,,0,10,10,0,0,1,1,7,,,,,,,,,3,1.2518612509998093,,,008,001,2019_May_08_1311,MusicAffectPsychophysiology2019,3.0.5,59.990697842447275,
To what extent did the music make you feel ,ALERT,30MonoWAV/30MonoF1.wav,1,2,2,1,,,,,0,10,10,0,0,2,2,8,,,,,,,,,4,1.300072187999831,,,008,001,2019_May_08_1311,MusicAffectPsychophysiology2019,3.0.5,59.990697842447275,
To what extent did the music make you feel ,ANXIOUS ,30MonoWAV/30MonoF1.wav,1,2,2,1,,,,,0,10,10,0,0,3,3,1,,,,,,,,,3,1.885846378000224,,,008,001,2019_May_08_1311,MusicAffectPsychophysiology2019,3.0.5,59.990697842447275,
To what extent did the music make you feel ,SAD,30MonoWAV/30MonoF1.wav,1,2,2,1,,,,,0,10,10,0,0,4,4,0,,,,,,,,,1,1.669046777999938,,,008,001,2019_May_08_1311,MusicAffectPsychophysiology2019,3.0.5,59.990697842447275,
To what extent did the music make you feel ,ACTIVE,30MonoWAV/30MonoF1.wav,1,2,2,1,,,,,0,10,10,0,0,5,5,9,,,,,,,,,3,3.049654903999908,,,008,001,2019_May_08_1311,MusicAffectPsychophysiology2019,3.0.5,59.990697842447275,
To what extent did the music make you feel ,FRUSTRATED,30MonoWAV/30MonoF1.wav,1,2,2,1,,,,,0,10,10,0,0,6,6,3,,,,,,,,,2,3.4345267549997516,,,008,001,2019_May_08_1311,MusicAffectPsychophysiology2019,3.0.5,59.990697842447275,
To what extent did the music make you feel ,ASHAMED,30MonoWAV/30MonoF1.wav,1,2,2,1,,,,,0,10,10,0,0,7,7,4,,,,,,,,,1,2.7013637569998536,,,008,001,2019_May_08_1311,MusicAffectPsychophysiology2019,3.0.5,59.990697842447275,
To what extent did the music make you feel ,TENDER,30MonoWAV/30MonoF1.wav,1,2,2,1,,,,,0,10,10,0,0,8,8,10,,,,,,,,,2,2.567564134999884,,,008,001,2019_May_08_1311,MusicAffectPsychophysiology2019,3.0.5,59.990697842447275,
To what extent did the music make you feel ,ANGRY,30MonoWAV/30MonoF1.wav,1,2,2,1,,,,,0,10,10,0,0,9,9,2,,,,,,,,,1,3.2855942529999993,,,008,001,2019_May_08_1311,MusicAffectPsychophysiology2019,3.0.5,59.990697842447275,
To what extent did the music make you feel ,SCARED,30MonoWAV/30MonoF1.wav,1,2,2,1,,,,,0,10,10,0,0,10,10,11,,,,,,,,,3,2.8343733699998666,,,008,001,2019_May_08_1311,MusicAffectPsychophysiology2019,3.0.5,59.990697842447275,
To what extent did the music make you feel ,HAPPY,30MonoWAV/30MonoF1.wav,1,2,2,1,,,,,0,10,10,0,0,11,11,6,,,,,,,,,2,3.0179188259999137,,,008,001,2019_May_08_1311,MusicAffectPsychophysiology2019,3.0.5,59.990697842447275,
,,30MonoWAV/30MonoF1.wav,1,2,2,1,,,,,0,10,10,0,,,,,,,,,,,,,,,,,008,001,2019_May_08_1311,MusicAffectPsychophysiology2019,3.0.5,59.990697842447275,
To what extent did the music make you feel ,HAPPY,30MonoWAV/30MonoH2.wav,2,2,1,6,,,,,0,11,11,5,0,0,0,6,,,3,6.566509343000234,3,2.7680412619997696,,,3,1.968331923000278,,,008,001,2019_May_08_1311,MusicAffectPsychophysiology2019,3.0.5,59.990697842447275,
To what extent did the music make you feel ,ASHAMED,30MonoWAV/30MonoH2.wav,2,2,1,6,,,,,0,11,11,5,0,1,1,4,,,,,,,,,1,1.2008785329999228,,,008,001,2019_May_08_1311,MusicAffectPsychophysiology2019,3.0.5,59.990697842447275,
To what extent did the music make you feel ,ANGRY,30MonoWAV/30MonoH2.wav,2,2,1,6,,,,,0,11,11,5,0,2,2,2,,,,,,,,,1,1.119495944999926,,,008,001,2019_May_08_1311,MusicAffectPsychophysiology2019,3.0.5,59.990697842447275,
To what extent did the music make you feel ,GUILTY,30MonoWAV/30MonoH2.wav,2,2,1,6,,,,,0,11,11,5,0,3,3,5,,,,,,,,,1,1.168578260999766,,,008,001,2019_May_08_1311,MusicAffectPsychophysiology2019,3.0.5,59.990697842447275,
To what extent did the music make you feel ,TENDER,30MonoWAV/30MonoH2.wav,2,2,1,6,,,,,0,11,11,5,0,4,4,10,,,,,,,,,1,2.050218385000335,,,008,001,2019_May_08_1311,MusicAffectPsychophysiology2019,3.0.5,59.990697842447275,
To what extent did the music make you feel ,FRUSTRATED,30MonoWAV/30MonoH2.wav,2,2,1,6,,,,,0,11,11,5,0,5,5,3,,,,,,,,,1,1.1523309869999139,,,008,001,2019_May_08_1311,MusicAffectPsychophysiology2019,3.0.5,59.990697842447275,
To what extent did the music make you feel ,ALERT,30MonoWAV/30MonoH2.wav,2,2,1,6,,,,,0,11,11,5,0,6,6,8,,,,,,,,,3,1.2846584359999724,,,008,001,2019_May_08_1311,MusicAffectPsychophysiology2019,3.0.5,59.990697842447275,
To what extent did the music make you feel ,SCARED,30MonoWAV/30MonoH2.wav,2,2,1,6,,,,,0,11,11,5,0,7,7,11,,,,,,,,,1,1.051226811000106,,,008,001,2019_May_08_1311,MusicAffectPsychophysiology2019,3.0.5,59.990697842447275,
To what extent did the music make you feel ,ANXIOUS ,30MonoWAV/30MonoH2.wav,2,2,1,6,,,,,0,11,11,5,0,8,8,1,,,,,,,,,1,1.0846444590001738,,,008,001,2019_May_08_1311,MusicAffectPsychophysiology2019,3.0.5,59.990697842447275,
To what extent did the music make you feel ,SAD,30MonoWAV/30MonoH2.wav,2,2,1,6,,,,,0,11,11,5,0,9,9,0,,,,,,,,,1,1.1525473329998022,,,008,001,2019_May_08_1311,MusicAffectPsychophysiology2019,3.0.5,59.990697842447275,
To what extent did the music make you feel ,EXCITED,30MonoWAV/30MonoH2.wav,2,2,1,6,,,,,0,11,11,5,0,10,10,7,,,,,,,,,2,2.9499518859997806,,,008,001,2019_May_08_1311,MusicAffectPsychophysiology2019,3.0.5,59.990697842447275,
To what extent did the music make you feel ,ACTIVE,30MonoWAV/30MonoH2.wav,2,2,1,6,,,,,0,11,11,5,0,11,11,9,,,,,,,,,2,1.7853838799996993,,,008,001,2019_May_08_1311,MusicAffectPsychophysiology2019,3.0.5,59.990697842447275,
,,30MonoWAV/30MonoH2.wav,2,2,1,6,,,,,0,11,11,5,,,,,,,,,,,,,,,,,008,001,2019_May_08_1311,MusicAffectPsychophysiology2019,3.0.5,59.990697842447275,
To what extent did the music make you feel ,TENDER,30MonoWAV/30MonoT2.wav,2,1,4,14,,,,,0,12,12,13,0,0,0,10,,,3,3.6011272690002443,4,1.6855068169998049,,,2,2.5685334910003803,,,008,001,2019_May_08_1311,MusicAffectPsychophysiology2019,3.0.5,59.990697842447275,
To what extent did the music make you feel ,EXCITED,30MonoWAV/30MonoT2.wav,2,1,4,14,,,,,0,12,12,13,0,1,1,7,,,,,,,,,2,3.9688290700000834,,,008,001,2019_May_08_1311,MusicAffectPsychophysiology2019,3.0.5,59.990697842447275,
To what extent did the music make you feel ,GUILTY,30MonoWAV/30MonoT2.wav,2,1,4,14,,,,,0,12,12,13,0,2,2,5,,,,,,,,,2,2.617456035000032,,,008,001,2019_May_08_1311,MusicAffectPsychophysiology2019,3.0.5,59.990697842447275,
To what extent did the music make you feel ,ANXIOUS ,30MonoWAV/30MonoT2.wav,2,1,4,14,,,,,0,12,12,13,0,3,3,1,,,,,,,,,1,1.067762238999876,,,008,001,2019_May_08_1311,MusicAffectPsychophysiology2019,3.0.5,59.990697842447275,
To what extent did the music make you feel ,FRUSTRATED,30MonoWAV/30MonoT2.wav,2,1,4,14,,,,,0,12,12,13,0,4,4,3,,,,,,,,,1,4.8178706409998995,,,008,001,2019_May_08_1311,MusicAffectPsychophysiology2019,3.0.5,59.990697842447275,
To what extent did the music make you feel ,ASHAMED,30MonoWAV/30MonoT2.wav,2,1,4,14,,,,,0,12,12,13,0,5,5,4,,,,,,,,,1,1.3167821510000977,,,008,001,2019_May_08_1311,MusicAffectPsychophysiology2019,3.0.5,59.990697842447275,
To what extent did the music make you feel ,ACTIVE,30MonoWAV/30MonoT2.wav,2,1,4,14,,,,,0,12,12,13,0,6,6,9,,,,,,,,,2,1.8508375719998185,,,008,001,2019_May_08_1311,MusicAffectPsychophysiology2019,3.0.5,59.990697842447275,
To what extent did the music make you feel ,ALERT,30MonoWAV/30MonoT2.wav,2,1,4,14,,,,,0,12,12,13,0,7,7,8,,,,,,,,,3,2.5022252099997786,,,008,001,2019_May_08_1311,MusicAffectPsychophysiology2019,3.0.5,59.990697842447275,
To what extent did the music make you feel ,HAPPY,30MonoWAV/30MonoT2.wav,2,1,4,14,,,,,0,12,12,13,0,8,8,6,,,,,,,,,4,1.8850459969999065,,,008,001,2019_May_08_1311,MusicAffectPsychophysiology2019,3.0.5,59.990697842447275,
To what extent did the music make you feel ,SAD,30MonoWAV/30MonoT2.wav,2,1,4,14,,,,,0,12,12,13,0,9,9,0,,,,,,,,,1,2.5180722899999637,,,008,001,2019_May_08_1311,MusicAffectPsychophysiology2019,3.0.5,59.990697842447275,
To what extent did the music make you feel ,ANGRY,30MonoWAV/30MonoT2.wav,2,1,4,14,,,,,0,12,12,13,0,10,10,2,,,,,,,,,1,1.034496862999731,,,008,001,2019_May_08_1311,MusicAffectPsychophysiology2019,3.0.5,59.990697842447275,
To what extent did the music make you feel ,SCARED,30MonoWAV/30MonoT2.wav,2,1,4,14,,,,,0,12,12,13,0,11,11,11,,,,,,,,,1,1.0348208919999706,,,008,001,2019_May_08_1311,MusicAffectPsychophysiology2019,3.0.5,59.990697842447275,
,,30MonoWAV/30MonoT2.wav,2,1,4,14,,,,,0,12,12,13,,,,,,,,,,,,,,,,,008,001,2019_May_08_1311,MusicAffectPsychophysiology2019,3.0.5,59.990697842447275,
To what extent did the music make you feel ,FRUSTRATED,30MonoWAV/30MonoF3.wav,1,2,2,3,,,,,0,13,13,2,0,0,0,3,,,3,5.508175919000223,2,1.7851644790002865,,,2,1.5709099030000289,,,008,001,2019_May_08_1311,MusicAffectPsychophysiology2019,3.0.5,59.990697842447275,
To what extent did the music make you feel ,ANGRY,30MonoWAV/30MonoF3.wav,1,2,2,3,,,,,0,13,13,2,0,1,1,2,,,,,,,,,2,1.7216408780000165,,,008,001,2019_May_08_1311,MusicAffectPsychophysiology2019,3.0.5,59.990697842447275,
To what extent did the music make you feel ,ALERT,30MonoWAV/30MonoF3.wav,1,2,2,3,,,,,0,13,13,2,0,2,2,8,,,,,,,,,3,3.068031106000035,,,008,001,2019_May_08_1311,MusicAffectPsychophysiology2019,3.0.5,59.990697842447275,
To what extent did the music make you feel ,ANXIOUS ,30MonoWAV/30MonoF3.wav,1,2,2,3,,,,,0,13,13,2,0,3,3,1,,,,,,,,,3,1.2510026410000137,,,008,001,2019_May_08_1311,MusicAffectPsychophysiology2019,3.0.5,59.990697842447275,
To what extent did the music make you feel ,EXCITED,30MonoWAV/30MonoF3.wav,1,2,2,3,,,,,0,13,13,2,0,4,4,7,,,,,,,,,3,4.235692358000051,,,008,001,2019_May_08_1311,MusicAffectPsychophysiology2019,3.0.5,59.990697842447275,
To what extent did the music make you feel ,ASHAMED,30MonoWAV/30MonoF3.wav,1,2,2,3,,,,,0,13,13,2,0,5,5,4,,,,,,,,,1,2.1851502280001114,,,008,001,2019_May_08_1311,MusicAffectPsychophysiology2019,3.0.5,59.990697842447275,
To what extent did the music make you feel ,SAD,30MonoWAV/30MonoF3.wav,1,2,2,3,,,,,0,13,13,2,0,6,6,0,,,,,,,,,1,0.9514258310000514,,,008,001,2019_May_08_1311,MusicAffectPsychophysiology2019,3.0.5,59.990697842447275,
To what extent did the music make you feel ,HAPPY,30MonoWAV/30MonoF3.wav,1,2,2,3,,,,,0,13,13,2,0,7,7,6,,,,,,,,,2,4.316393580000295,,,008,001,2019_May_08_1311,MusicAffectPsychophysiology2019,3.0.5,59.990697842447275,
To what extent did the music make you feel ,GUILTY,30MonoWAV/30MonoF3.wav,1,2,2,3,,,,,0,13,13,2,0,8,8,5,,,,,,,,,1,1.2185081309999077,,,008,001,2019_May_08_1311,MusicAffectPsychophysiology2019,3.0.5,59.990697842447275,
To what extent did the music make you feel ,TENDER,30MonoWAV/30MonoF3.wav,1,2,2,3,,,,,0,13,13,2,0,9,9,10,,,,,,,,,2,1.3857228439997016,,,008,001,2019_May_08_1311,MusicAffectPsychophysiology2019,3.0.5,59.990697842447275,
To what extent did the music make you feel ,ACTIVE,30MonoWAV/30MonoF3.wav,1,2,2,3,,,,,0,13,13,2,0,10,10,9,,,,,,,,,2,1.418214030999934,,,008,001,2019_May_08_1311,MusicAffectPsychophysiology2019,3.0.5,59.990697842447275,
To what extent did the music make you feel ,SCARED,30MonoWAV/30MonoF3.wav,1,2,2,3,,,,,0,13,13,2,0,11,11,11,,,,,,,,,2,1.9347801450003317,,,008,001,2019_May_08_1311,MusicAffectPsychophysiology2019,3.0.5,59.990697842447275,
,,30MonoWAV/30MonoF3.wav,1,2,2,3,,,,,0,13,13,2,,,,,,,,,,,,,,,,,008,001,2019_May_08_1311,MusicAffectPsychophysiology2019,3.0.5,59.990697842447275,
To what extent did the music make you feel ,ANXIOUS ,30MonoWAV/30MonoT4.wav,2,1,4,16,,,,,0,14,14,15,0,0,0,1,,,3,4.589926736000052,4,3.0184106680003424,,,1,3.017330246000256,,,008,001,2019_May_08_1311,MusicAffectPsychophysiology2019,3.0.5,59.990697842447275,
To what extent did the music make you feel ,ASHAMED,30MonoWAV/30MonoT4.wav,2,1,4,16,,,,,0,14,14,15,0,1,1,4,,,,,,,,,1,1.0685781490001318,,,008,001,2019_May_08_1311,MusicAffectPsychophysiology2019,3.0.5,59.990697842447275,
To what extent did the music make you feel ,ANGRY,30MonoWAV/30MonoT4.wav,2,1,4,16,,,,,0,14,14,15,0,2,2,2,,,,,,,,,1,0.6845002090003618,,,008,001,2019_May_08_1311,MusicAffectPsychophysiology2019,3.0.5,59.990697842447275,
To what extent did the music make you feel ,ALERT,30MonoWAV/30MonoT4.wav,2,1,4,16,,,,,0,14,14,15,0,3,3,8,,,,,,,,,3,1.6182629730001281,,,008,001,2019_May_08_1311,MusicAffectPsychophysiology2019,3.0.5,59.990697842447275,
To what extent did the music make you feel ,ACTIVE,30MonoWAV/30MonoT4.wav,2,1,4,16,,,,,0,14,14,15,0,4,4,9,,,,,,,,,2,1.350909813999806,,,008,001,2019_May_08_1311,MusicAffectPsychophysiology2019,3.0.5,59.990697842447275,
To what extent did the music make you feel ,HAPPY,30MonoWAV/30MonoT4.wav,2,1,4,16,,,,,0,14,14,15,0,5,5,6,,,,,,,,,4,1.1351555080000253,,,008,001,2019_May_08_1311,MusicAffectPsychophysiology2019,3.0.5,59.990697842447275,
To what extent did the music make you feel ,GUILTY,30MonoWAV/30MonoT4.wav,2,1,4,16,,,,,0,14,14,15,0,6,6,5,,,,,,,,,1,3.568197932000203,,,008,001,2019_May_08_1311,MusicAffectPsychophysiology2019,3.0.5,59.990697842447275,
To what extent did the music make you feel ,SCARED,30MonoWAV/30MonoT4.wav,2,1,4,16,,,,,0,14,14,15,0,7,7,11,,,,,,,,,1,1.3398736640001516,,,008,001,2019_May_08_1311,MusicAffectPsychophysiology2019,3.0.5,59.990697842447275,
To what extent did the music make you feel ,EXCITED,30MonoWAV/30MonoT4.wav,2,1,4,16,,,,,0,14,14,15,0,8,8,7,,,,,,,,,3,1.920841510000173,,,008,001,2019_May_08_1311,MusicAffectPsychophysiology2019,3.0.5,59.990697842447275,
To what extent did the music make you feel ,SAD,30MonoWAV/30MonoT4.wav,2,1,4,16,,,,,0,14,14,15,0,9,9,0,,,,,,,,,2,2.2878996009999355,,,008,001,2019_May_08_1311,MusicAffectPsychophysiology2019,3.0.5,59.990697842447275,
To what extent did the music make you feel ,FRUSTRATED,30MonoWAV/30MonoT4.wav,2,1,4,16,,,,,0,14,14,15,0,10,10,3,,,,,,,,,2,1.9207065370001146,,,008,001,2019_May_08_1311,MusicAffectPsychophysiology2019,3.0.5,59.990697842447275,
To what extent did the music make you feel ,TENDER,30MonoWAV/30MonoT4.wav,2,1,4,16,,,,,0,14,14,15,0,11,11,10,,,,,,,,,1,1.2883999840000797,,,008,001,2019_May_08_1311,MusicAffectPsychophysiology2019,3.0.5,59.990697842447275,
,,30MonoWAV/30MonoT4.wav,2,1,4,16,,,,,0,14,14,15,,,,,,,,,,,,,,,,,008,001,2019_May_08_1311,MusicAffectPsychophysiology2019,3.0.5,59.990697842447275,
To what extent did the music make you feel ,ALERT,30MonoWAV/30MonoS1.wav,1,1,3,9,,,,,0,15,15,8,0,0,0,8,,,3,5.351140902000225,2,4.167763919000208,,,3,2.551771902999917,,,008,001,2019_May_08_1311,MusicAffectPsychophysiology2019,3.0.5,59.990697842447275,
To what extent did the music make you feel ,TENDER,30MonoWAV/30MonoS1.wav,1,1,3,9,,,,,0,15,15,8,0,1,1,10,,,,,,,,,3,1.8696792579999055,,,008,001,2019_May_08_1311,MusicAffectPsychophysiology2019,3.0.5,59.990697842447275,
To what extent did the music make you feel ,ANXIOUS ,30MonoWAV/30MonoS1.wav,1,1,3,9,,,,,0,15,15,8,0,2,2,1,,,,,,,,,3,2.501860151999608,,,008,001,2019_May_08_1311,MusicAffectPsychophysiology2019,3.0.5,59.990697842447275,
To what extent did the music make you feel ,SAD,30MonoWAV/30MonoS1.wav,1,1,3,9,,,,,0,15,15,8,0,3,3,0,,,,,,,,,3,1.0524049190003097,,,008,001,2019_May_08_1311,MusicAffectPsychophysiology2019,3.0.5,59.990697842447275,
To what extent did the music make you feel ,ACTIVE,30MonoWAV/30MonoS1.wav,1,1,3,9,,,,,0,15,15,8,0,4,4,9,,,,,,,,,2,1.0521839590001036,,,008,001,2019_May_08_1311,MusicAffectPsychophysiology2019,3.0.5,59.990697842447275,
To what extent did the music make you feel ,ANGRY,30MonoWAV/30MonoS1.wav,1,1,3,9,,,,,0,15,15,8,0,5,5,2,,,,,,,,,1,1.2013928609999311,,,008,001,2019_May_08_1311,MusicAffectPsychophysiology2019,3.0.5,59.990697842447275,
To what extent did the music make you feel ,GUILTY,30MonoWAV/30MonoS1.wav,1,1,3,9,,,,,0,15,15,8,0,6,6,5,,,,,,,,,2,1.034497877999911,,,008,001,2019_May_08_1311,MusicAffectPsychophysiology2019,3.0.5,59.990697842447275,
To what extent did the music make you feel ,SCARED,30MonoWAV/30MonoS1.wav,1,1,3,9,,,,,0,15,15,8,0,7,7,11,,,,,,,,,2,1.6702262610001526,,,008,001,2019_May_08_1311,MusicAffectPsychophysiology2019,3.0.5,59.990697842447275,
To what extent did the music make you feel ,EXCITED,30MonoWAV/30MonoS1.wav,1,1,3,9,,,,,0,15,15,8,0,8,8,7,,,,,,,,,2,1.5354894769998282,,,008,001,2019_May_08_1311,MusicAffectPsychophysiology2019,3.0.5,59.990697842447275,
To what extent did the music make you feel ,FRUSTRATED,30MonoWAV/30MonoS1.wav,1,1,3,9,,,,,0,15,15,8,0,9,9,3,,,,,,,,,2,1.735009658999843,,,008,001,2019_May_08_1311,MusicAffectPsychophysiology2019,3.0.5,59.990697842447275,
To what extent did the music make you feel ,ASHAMED,30MonoWAV/30MonoS1.wav,1,1,3,9,,,,,0,15,15,8,0,10,10,4,,,,,,,,,2,2.4858593430003566,,,008,001,2019_May_08_1311,MusicAffectPsychophysiology2019,3.0.5,59.990697842447275,
To what extent did the music make you feel ,HAPPY,30MonoWAV/30MonoS1.wav,1,1,3,9,,,,,0,15,15,8,0,11,11,6,,,,,,,,,2,2.8018073359999107,,,008,001,2019_May_08_1311,MusicAffectPsychophysiology2019,3.0.5,59.990697842447275,
,,30MonoWAV/30MonoS1.wav,1,1,3,9,,,,,0,15,15,8,,,,,,,,,,,,,,,,,008,001,2019_May_08_1311,MusicAffectPsychophysiology2019,3.0.5,59.990697842447275,
To what extent did the music make you feel ,SAD,30MonoWAV/30MonoF1.wav,1,2,2,1,,,,,1,0,16,0,0,0,0,0,,,4,8.084950786999798,2,3.951061308000135,,,1,1.3846923959999913,,,008,001,2019_May_08_1311,MusicAffectPsychophysiology2019,3.0.5,59.990697842447275,
To what extent did the music make you feel ,ANGRY,30MonoWAV/30MonoF1.wav,1,2,2,1,,,,,1,0,16,0,0,1,1,2,,,,,,,,,2,1.4181895630003964,,,008,001,2019_May_08_1311,MusicAffectPsychophysiology2019,3.0.5,59.990697842447275,
To what extent did the music make you feel ,ALERT,30MonoWAV/30MonoF1.wav,1,2,2,1,,,,,1,0,16,0,0,2,2,8,,,,,,,,,4,1.684829708000052,,,008,001,2019_May_08_1311,MusicAffectPsychophysiology2019,3.0.5,59.990697842447275,
To what extent did the music make you feel ,ASHAMED,30MonoWAV/30MonoF1.wav,1,2,2,1,,,,,1,0,16,0,0,3,3,4,,,,,,,,,1,2.033700226000292,,,008,001,2019_May_08_1311,MusicAffectPsychophysiology2019,3.0.5,59.990697842447275,
To what extent did the music make you feel ,FRUSTRATED,30MonoWAV/30MonoF1.wav,1,2,2,1,,,,,1,0,16,0,0,4,4,3,,,,,,,,,2,1.8519269710000117,,,008,001,2019_May_08_1311,MusicAffectPsychophysiology2019,3.0.5,59.990697842447275,
To what extent did the music make you feel ,ANXIOUS ,30MonoWAV/30MonoF1.wav,1,2,2,1,,,,,1,0,16,0,0,5,5,1,,,,,,,,,4,3.324222870000085,,,008,001,2019_May_08_1311,MusicAffectPsychophysiology2019,3.0.5,59.990697842447275,
To what extent did the music make you feel ,HAPPY,30MonoWAV/30MonoF1.wav,1,2,2,1,,,,,1,0,16,0,0,6,6,6,,,,,,,,,2,1.9035880239998733,,,008,001,2019_May_08_1311,MusicAffectPsychophysiology2019,3.0.5,59.990697842447275,
To what extent did the music make you feel ,ACTIVE,30MonoWAV/30MonoF1.wav,1,2,2,1,,,,,1,0,16,0,0,7,7,9,,,,,,,,,3,3.6064614629999596,,,008,001,2019_May_08_1311,MusicAffectPsychophysiology2019,3.0.5,59.990697842447275,
To what extent did the music make you feel ,SCARED,30MonoWAV/30MonoF1.wav,1,2,2,1,,,,,1,0,16,0,0,8,8,11,,,,,,,,,3,3.616993101999924,,,008,001,2019_May_08_1311,MusicAffectPsychophysiology2019,3.0.5,59.990697842447275,
To what extent did the music make you feel ,GUILTY,30MonoWAV/30MonoF1.wav,1,2,2,1,,,,,1,0,16,0,0,9,9,5,,,,,,,,,1,2.0845640899997306,,,008,001,2019_May_08_1311,MusicAffectPsychophysiology2019,3.0.5,59.990697842447275,
To what extent did the music make you feel ,TENDER,30MonoWAV/30MonoF1.wav,1,2,2,1,,,,,1,0,16,0,0,10,10,10,,,,,,,,,3,2.1349196319997645,,,008,001,2019_May_08_1311,MusicAffectPsychophysiology2019,3.0.5,59.990697842447275,
To what extent did the music make you feel ,EXCITED,30MonoWAV/30MonoF1.wav,1,2,2,1,,,,,1,0,16,0,0,11,11,7,,,,,,,,,3,2.8356916749999073,,,008,001,2019_May_08_1311,MusicAffectPsychophysiology2019,3.0.5,59.990697842447275,
,,30MonoWAV/30MonoF1.wav,1,2,2,1,,,,,1,0,16,0,,,,,,,,,,,,,,,,,008,001,2019_May_08_1311,MusicAffectPsychophysiology2019,3.0.5,59.990697842447275,
To what extent did the music make you feel ,TENDER,30MonoWAV/30MonoT2.wav,2,1,4,14,,,,,1,1,17,13,0,0,0,10,,,3,7.485445302000244,5,1.9347295100001247,,,2,3.1520093729996006,,,008,001,2019_May_08_1311,MusicAffectPsychophysiology2019,3.0.5,59.990697842447275,
To what extent did the music make you feel ,EXCITED,30MonoWAV/30MonoT2.wav,2,1,4,14,,,,,1,1,17,13,0,1,1,7,,,,,,,,,3,2.0508032769998863,,,008,001,2019_May_08_1311,MusicAffectPsychophysiology2019,3.0.5,59.990697842447275,
To what extent did the music make you feel ,ANGRY,30MonoWAV/30MonoT2.wav,2,1,4,14,,,,,1,1,17,13,0,2,2,2,,,,,,,,,1,1.034737640000003,,,008,001,2019_May_08_1311,MusicAffectPsychophysiology2019,3.0.5,59.990697842447275,
To what extent did the music make you feel ,FRUSTRATED,30MonoWAV/30MonoT2.wav,2,1,4,14,,,,,1,1,17,13,0,3,3,3,,,,,,,,,1,3.2012292929998694,,,008,001,2019_May_08_1311,MusicAffectPsychophysiology2019,3.0.5,59.990697842447275,
To what extent did the music make you feel ,SAD,30MonoWAV/30MonoT2.wav,2,1,4,14,,,,,1,1,17,13,0,4,4,0,,,,,,,,,1,3.4349185030000626,,,008,001,2019_May_08_1311,MusicAffectPsychophysiology2019,3.0.5,59.990697842447275,
To what extent did the music make you feel ,GUILTY,30MonoWAV/30MonoT2.wav,2,1,4,14,,,,,1,1,17,13,0,5,5,5,,,,,,,,,1,1.33429355699991,,,008,001,2019_May_08_1311,MusicAffectPsychophysiology2019,3.0.5,59.990697842447275,
To what extent did the music make you feel ,ANXIOUS ,30MonoWAV/30MonoT2.wav,2,1,4,14,,,,,1,1,17,13,0,6,6,1,,,,,,,,,1,1.2017164710000543,,,008,001,2019_May_08_1311,MusicAffectPsychophysiology2019,3.0.5,59.990697842447275,
To what extent did the music make you feel ,SCARED,30MonoWAV/30MonoT2.wav,2,1,4,14,,,,,1,1,17,13,0,7,7,11,,,,,,,,,1,1.3016011330000765,,,008,001,2019_May_08_1311,MusicAffectPsychophysiology2019,3.0.5,59.990697842447275,
To what extent did the music make you feel ,ALERT,30MonoWAV/30MonoT2.wav,2,1,4,14,,,,,1,1,17,13,0,8,8,8,,,,,,,,,2,1.68541233499991,,,008,001,2019_May_08_1311,MusicAffectPsychophysiology2019,3.0.5,59.990697842447275,
To what extent did the music make you feel ,ACTIVE,30MonoWAV/30MonoT2.wav,2,1,4,14,,,,,1,1,17,13,0,9,9,9,,,,,,,,,1,1.9681595690003633,,,008,001,2019_May_08_1311,MusicAffectPsychophysiology2019,3.0.5,59.990697842447275,
To what extent did the music make you feel ,ASHAMED,30MonoWAV/30MonoT2.wav,2,1,4,14,,,,,1,1,17,13,0,10,10,4,,,,,,,,,1,1.0177063769997403,,,008,001,2019_May_08_1311,MusicAffectPsychophysiology2019,3.0.5,59.990697842447275,
To what extent did the music make you feel ,HAPPY,30MonoWAV/30MonoT2.wav,2,1,4,14,,,,,1,1,17,13,0,11,11,6,,,,,,,,,4,2.018021724999926,,,008,001,2019_May_08_1311,MusicAffectPsychophysiology2019,3.0.5,59.990697842447275,
,,30MonoWAV/30MonoT2.wav,2,1,4,14,,,,,1,1,17,13,,,,,,,,,,,,,,,,,008,001,2019_May_08_1311,MusicAffectPsychophysiology2019,3.0.5,59.990697842447275,
To what extent did the music make you feel ,SAD,30MonoWAV/30MonoT4.wav,2,1,4,16,,,,,1,2,18,15,0,0,0,0,,,3,3.7851526290000947,4,1.2343608159999349,,,2,1.567867404000026,,,008,001,2019_May_08_1311,MusicAffectPsychophysiology2019,3.0.5,59.990697842447275,
To what extent did the music make you feel ,ANXIOUS ,30MonoWAV/30MonoT4.wav,2,1,4,16,,,,,1,2,18,15,0,1,1,1,,,,,,,,,1,1.2344853979998334,,,008,001,2019_May_08_1311,MusicAffectPsychophysiology2019,3.0.5,59.990697842447275,
To what extent did the music make you feel ,EXCITED,30MonoWAV/30MonoT4.wav,2,1,4,16,,,,,1,2,18,15,0,2,2,7,,,,,,,,,3,2.7849585719995957,,,008,001,2019_May_08_1311,MusicAffectPsychophysiology2019,3.0.5,59.990697842447275,
To what extent did the music make you feel ,FRUSTRATED,30MonoWAV/30MonoT4.wav,2,1,4,16,,,,,1,2,18,15,0,3,3,3,,,,,,,,,1,1.317615849000049,,,008,001,2019_May_08_1311,MusicAffectPsychophysiology2019,3.0.5,59.990697842447275,
To what extent did the music make you feel ,HAPPY,30MonoWAV/30MonoT4.wav,2,1,4,16,,,,,1,2,18,15,0,4,4,6,,,,,,,,,4,1.5020037629997205,,,008,001,2019_May_08_1311,MusicAffectPsychophysiology2019,3.0.5,59.990697842447275,
To what extent did the music make you feel ,ASHAMED,30MonoWAV/30MonoT4.wav,2,1,4,16,,,,,1,2,18,15,0,5,5,4,,,,,,,,,1,3.816062749000139,,,008,001,2019_May_08_1311,MusicAffectPsychophysiology2019,3.0.5,59.990697842447275,
To what extent did the music make you feel ,ACTIVE,30MonoWAV/30MonoT4.wav,2,1,4,16,,,,,1,2,18,15,0,6,6,9,,,,,,,,,2,1.2181911949996902,,,008,001,2019_May_08_1311,MusicAffectPsychophysiology2019,3.0.5,59.990697842447275,
To what extent did the music make you feel ,ALERT,30MonoWAV/30MonoT4.wav,2,1,4,16,,,,,1,2,18,15,0,7,7,8,,,,,,,,,3,1.8847636679997777,,,008,001,2019_May_08_1311,MusicAffectPsychophysiology2019,3.0.5,59.990697842447275,
To what extent did the music make you feel ,ANGRY,30MonoWAV/30MonoT4.wav,2,1,4,16,,,,,1,2,18,15,0,8,8,2,,,,,,,,,1,1.1511699650000082,,,008,001,2019_May_08_1311,MusicAffectPsychophysiology2019,3.0.5,59.990697842447275,
To what extent did the music make you feel ,GUILTY,30MonoWAV/30MonoT4.wav,2,1,4,16,,,,,1,2,18,15,0,9,9,5,,,,,,,,,1,2.7689330190000874,,,008,001,2019_May_08_1311,MusicAffectPsychophysiology2019,3.0.5,59.990697842447275,
To what extent did the music make you feel ,TENDER,30MonoWAV/30MonoT4.wav,2,1,4,16,,,,,1,2,18,15,0,10,10,10,,,,,,,,,1,1.4849386850000883,,,008,001,2019_May_08_1311,MusicAffectPsychophysiology2019,3.0.5,59.990697842447275,
To what extent did the music make you feel ,SCARED,30MonoWAV/30MonoT4.wav,2,1,4,16,,,,,1,2,18,15,0,11,11,11,,,,,,,,,1,1.5847204389997387,,,008,001,2019_May_08_1311,MusicAffectPsychophysiology2019,3.0.5,59.990697842447275,
,,30MonoWAV/30MonoT4.wav,2,1,4,16,,,,,1,2,18,15,,,,,,,,,,,,,,,,,008,001,2019_May_08_1311,MusicAffectPsychophysiology2019,3.0.5,59.990697842447275,
To what extent did the music make you feel ,EXCITED,30MonoWAV/30MonoH1.wav,2,2,1,5,,,,,1,3,19,4,0,0,0,7,,,4,4.98496429800025,4,1.2352571149999676,,,3,2.700143523999941,,,008,001,2019_May_08_1311,MusicAffectPsychophysiology2019,3.0.5,59.990697842447275,
To what extent did the music make you feel ,ACTIVE,30MonoWAV/30MonoH1.wav,2,2,1,5,,,,,1,3,19,4,0,1,1,9,,,,,,,,,2,1.4006115680003859,,,008,001,2019_May_08_1311,MusicAffectPsychophysiology2019,3.0.5,59.990697842447275,
To what extent did the music make you feel ,ANGRY,30MonoWAV/30MonoH1.wav,2,2,1,5,,,,,1,3,19,4,0,2,2,2,,,,,,,,,1,1.2684345150000809,,,008,001,2019_May_08_1311,MusicAffectPsychophysiology2019,3.0.5,59.990697842447275,
To what extent did the music make you feel ,ANXIOUS ,30MonoWAV/30MonoH1.wav,2,2,1,5,,,,,1,3,19,4,0,3,3,1,,,,,,,,,1,1.1351711830002387,,,008,001,2019_May_08_1311,MusicAffectPsychophysiology2019,3.0.5,59.990697842447275,
To what extent did the music make you feel ,GUILTY,30MonoWAV/30MonoH1.wav,2,2,1,5,,,,,1,3,19,4,0,4,4,5,,,,,,,,,1,1.2171471619999465,,,008,001,2019_May_08_1311,MusicAffectPsychophysiology2019,3.0.5,59.990697842447275,
To what extent did the music make you feel ,SAD,30MonoWAV/30MonoH1.wav,2,2,1,5,,,,,1,3,19,4,0,5,5,0,,,,,,,,,1,1.220279379999738,,,008,001,2019_May_08_1311,MusicAffectPsychophysiology2019,3.0.5,59.990697842447275,
To what extent did the music make you feel ,SCARED,30MonoWAV/30MonoH1.wav,2,2,1,5,,,,,1,3,19,4,0,6,6,11,,,,,,,,,1,1.2020201179998367,,,008,001,2019_May_08_1311,MusicAffectPsychophysiology2019,3.0.5,59.990697842447275,
To what extent did the music make you feel ,TENDER,30MonoWAV/30MonoH1.wav,2,2,1,5,,,,,1,3,19,4,0,7,7,10,,,,,,,,,1,2.283550333999756,,,008,001,2019_May_08_1311,MusicAffectPsychophysiology2019,3.0.5,59.990697842447275,
To what extent did the music make you feel ,ASHAMED,30MonoWAV/30MonoH1.wav,2,2,1,5,,,,,1,3,19,4,0,8,8,4,,,,,,,,,1,1.4180132510000476,,,008,001,2019_May_08_1311,MusicAffectPsychophysiology2019,3.0.5,59.990697842447275,
To what extent did the music make you feel ,FRUSTRATED,30MonoWAV/30MonoH1.wav,2,2,1,5,,,,,1,3,19,4,0,9,9,3,,,,,,,,,1,1.9508975390003798,,,008,001,2019_May_08_1311,MusicAffectPsychophysiology2019,3.0.5,59.990697842447275,
To what extent did the music make you feel ,ALERT,30MonoWAV/30MonoH1.wav,2,2,1,5,,,,,1,3,19,4,0,10,10,8,,,,,,,,,3,1.8175141050001002,,,008,001,2019_May_08_1311,MusicAffectPsychophysiology2019,3.0.5,59.990697842447275,
To what extent did the music make you feel ,HAPPY,30MonoWAV/30MonoH1.wav,2,2,1,5,,,,,1,3,19,4,0,11,11,6,,,,,,,,,4,1.349776342000041,,,008,001,2019_May_08_1311,MusicAffectPsychophysiology2019,3.0.5,59.990697842447275,
,,30MonoWAV/30MonoH1.wav,2,2,1,5,,,,,1,3,19,4,,,,,,,,,,,,,,,,,008,001,2019_May_08_1311,MusicAffectPsychophysiology2019,3.0.5,59.990697842447275,
To what extent did the music make you feel ,ANGRY,30MonoWAV/30MonoH3.wav,2,2,1,7,,,,,1,4,20,6,0,0,0,2,,,5,3.167182534999938,4,1.8347967879999487,,,1,1.318191785000181,,,008,001,2019_May_08_1311,MusicAffectPsychophysiology2019,3.0.5,59.990697842447275,
To what extent did the music make you feel ,FRUSTRATED,30MonoWAV/30MonoH3.wav,2,2,1,7,,,,,1,4,20,6,0,1,1,3,,,,,,,,,1,1.1182731530002457,,,008,001,2019_May_08_1311,MusicAffectPsychophysiology2019,3.0.5,59.990697842447275,
To what extent did the music make you feel ,ASHAMED,30MonoWAV/30MonoH3.wav,2,2,1,7,,,,,1,4,20,6,0,2,2,4,,,,,,,,,1,0.7683539879999444,,,008,001,2019_May_08_1311,MusicAffectPsychophysiology2019,3.0.5,59.990697842447275,
To what extent did the music make you feel ,TENDER,30MonoWAV/30MonoH3.wav,2,2,1,7,,,,,1,4,20,6,0,3,3,10,,,,,,,,,2,1.0335424320001039,,,008,001,2019_May_08_1311,MusicAffectPsychophysiology2019,3.0.5,59.990697842447275,
To what extent did the music make you feel ,GUILTY,30MonoWAV/30MonoH3.wav,2,2,1,7,,,,,1,4,20,6,0,4,4,5,,,,,,,,,1,0.9349359369998638,,,008,001,2019_May_08_1311,MusicAffectPsychophysiology2019,3.0.5,59.990697842447275,
To what extent did the music make you feel ,ACTIVE,30MonoWAV/30MonoH3.wav,2,2,1,7,,,,,1,4,20,6,0,5,5,9,,,,,,,,,3,2.266935966999881,,,008,001,2019_May_08_1311,MusicAffectPsychophysiology2019,3.0.5,59.990697842447275,
To what extent did the music make you feel ,SAD,30MonoWAV/30MonoH3.wav,2,2,1,7,,,,,1,4,20,6,0,6,6,0,,,,,,,,,1,1.3686592900003234,,,008,001,2019_May_08_1311,MusicAffectPsychophysiology2019,3.0.5,59.990697842447275,
To what extent did the music make you feel ,SCARED,30MonoWAV/30MonoH3.wav,2,2,1,7,,,,,1,4,20,6,0,7,7,11,,,,,,,,,1,1.052048527000352,,,008,001,2019_May_08_1311,MusicAffectPsychophysiology2019,3.0.5,59.990697842447275,
To what extent did the music make you feel ,ANXIOUS ,30MonoWAV/30MonoH3.wav,2,2,1,7,,,,,1,4,20,6,0,8,8,1,,,,,,,,,1,0.9693082280000453,,,008,001,2019_May_08_1311,MusicAffectPsychophysiology2019,3.0.5,59.990697842447275,
To what extent did the music make you feel ,ALERT,30MonoWAV/30MonoH3.wav,2,2,1,7,,,,,1,4,20,6,0,9,9,8,,,,,,,,,4,1.618375862999983,,,008,001,2019_May_08_1311,MusicAffectPsychophysiology2019,3.0.5,59.990697842447275,
To what extent did the music make you feel ,EXCITED,30MonoWAV/30MonoH3.wav,2,2,1,7,,,,,1,4,20,6,0,10,10,7,,,,,,,,,4,1.4512503070000093,,,008,001,2019_May_08_1311,MusicAffectPsychophysiology2019,3.0.5,59.990697842447275,
To what extent did the music make you feel ,HAPPY,30MonoWAV/30MonoH3.wav,2,2,1,7,,,,,1,4,20,6,0,11,11,6,,,,,,,,,4,1.2186992329998247,,,008,001,2019_May_08_1311,MusicAffectPsychophysiology2019,3.0.5,59.990697842447275,
,,30MonoWAV/30MonoH3.wav,2,2,1,7,,,,,1,4,20,6,,,,,,,,,,,,,,,,,008,001,2019_May_08_1311,MusicAffectPsychophysiology2019,3.0.5,59.990697842447275,
To what extent did the music make you feel ,FRUSTRATED,30MonoWAV/30MonoF4.wav,1,2,2,4,,,,,1,5,21,3,0,0,0,3,,,4,5.2679709010003535,2,3.9014942079998036,,,2,2.2937344330002816,,,008,001,2019_May_08_1311,MusicAffectPsychophysiology2019,3.0.5,59.990697842447275,
To what extent did the music make you feel ,ACTIVE,30MonoWAV/30MonoF4.wav,1,2,2,4,,,,,1,5,21,3,0,1,1,9,,,,,,,,,2,2.8840828319998764,,,008,001,2019_May_08_1311,MusicAffectPsychophysiology2019,3.0.5,59.990697842447275,
To what extent did the music make you feel ,GUILTY,30MonoWAV/30MonoF4.wav,1,2,2,4,,,,,1,5,21,3,0,2,2,5,,,,,,,,,1,0.8350369160002629,,,008,001,2019_May_08_1311,MusicAffectPsychophysiology2019,3.0.5,59.990697842447275,
To what extent did the music make you feel ,ANGRY,30MonoWAV/30MonoF4.wav,1,2,2,4,,,,,1,5,21,3,0,3,3,2,,,,,,,,,1,1.5854240829999071,,,008,001,2019_May_08_1311,MusicAffectPsychophysiology2019,3.0.5,59.990697842447275,
To what extent did the music make you feel ,EXCITED,30MonoWAV/30MonoF4.wav,1,2,2,4,,,,,1,5,21,3,0,4,4,7,,,,,,,,,3,2.201453850999769,,,008,001,2019_May_08_1311,MusicAffectPsychophysiology2019,3.0.5,59.990697842447275,
To what extent did the music make you feel ,TENDER,30MonoWAV/30MonoF4.wav,1,2,2,4,,,,,1,5,21,3,0,5,5,10,,,,,,,,,2,1.9189969640001436,,,008,001,2019_May_08_1311,MusicAffectPsychophysiology2019,3.0.5,59.990697842447275,
To what extent did the music make you feel ,ANXIOUS ,30MonoWAV/30MonoF4.wav,1,2,2,4,,,,,1,5,21,3,0,6,6,1,,,,,,,,,2,1.3179562080003961,,,008,001,2019_May_08_1311,MusicAffectPsychophysiology2019,3.0.5,59.990697842447275,
To what extent did the music make you feel ,SCARED,30MonoWAV/30MonoF4.wav,1,2,2,4,,,,,1,5,21,3,0,7,7,11,,,,,,,,,1,1.8329260420000537,,,008,001,2019_May_08_1311,MusicAffectPsychophysiology2019,3.0.5,59.990697842447275,
To what extent did the music make you feel ,HAPPY,30MonoWAV/30MonoF4.wav,1,2,2,4,,,,,1,5,21,3,0,8,8,6,,,,,,,,,2,2.968841542000064,,,008,001,2019_May_08_1311,MusicAffectPsychophysiology2019,3.0.5,59.990697842447275,
To what extent did the music make you feel ,ALERT,30MonoWAV/30MonoF4.wav,1,2,2,4,,,,,1,5,21,3,0,9,9,8,,,,,,,,,4,2.534313846000259,,,008,001,2019_May_08_1311,MusicAffectPsychophysiology2019,3.0.5,59.990697842447275,
To what extent did the music make you feel ,SAD,30MonoWAV/30MonoF4.wav,1,2,2,4,,,,,1,5,21,3,0,10,10,0,,,,,,,,,1,3.0512460449999708,,,008,001,2019_May_08_1311,MusicAffectPsychophysiology2019,3.0.5,59.990697842447275,
To what extent did the music make you feel ,ASHAMED,30MonoWAV/30MonoF4.wav,1,2,2,4,,,,,1,5,21,3,0,11,11,4,,,,,,,,,1,0.8349920860000566,,,008,001,2019_May_08_1311,MusicAffectPsychophysiology2019,3.0.5,59.990697842447275,
,,30MonoWAV/30MonoF4.wav,1,2,2,4,,,,,1,5,21,3,,,,,,,,,,,,,,,,,008,001,2019_May_08_1311,MusicAffectPsychophysiology2019,3.0.5,59.990697842447275,
To what extent did the music make you feel ,TENDER,30MonoWAV/30MonoF3.wav,1,2,2,3,,,,,1,6,22,2,0,0,0,10,,,3,5.952089267000247,2,2.8356320640000376,,,2,1.318465992000256,,,008,001,2019_May_08_1311,MusicAffectPsychophysiology2019,3.0.5,59.990697842447275,
To what extent did the music make you feel ,ANGRY,30MonoWAV/30MonoF3.wav,1,2,2,3,,,,,1,6,22,2,0,1,1,2,,,,,,,,,1,1.4683302729999923,,,008,001,2019_May_08_1311,MusicAffectPsychophysiology2019,3.0.5,59.990697842447275,
To what extent did the music make you feel ,SAD,30MonoWAV/30MonoF3.wav,1,2,2,3,,,,,1,6,22,2,0,2,2,0,,,,,,,,,1,0.902169296000011,,,008,001,2019_May_08_1311,MusicAffectPsychophysiology2019,3.0.5,59.990697842447275,
To what extent did the music make you feel ,GUILTY,30MonoWAV/30MonoF3.wav,1,2,2,3,,,,,1,6,22,2,0,3,3,5,,,,,,,,,2,1.1015952350003317,,,008,001,2019_May_08_1311,MusicAffectPsychophysiology2019,3.0.5,59.990697842447275,
To what extent did the music make you feel ,ALERT,30MonoWAV/30MonoF3.wav,1,2,2,3,,,,,1,6,22,2,0,4,4,8,,,,,,,,,2,2.8008446540002296,,,008,001,2019_May_08_1311,MusicAffectPsychophysiology2019,3.0.5,59.990697842447275,
To what extent did the music make you feel ,EXCITED,30MonoWAV/30MonoF3.wav,1,2,2,3,,,,,1,6,22,2,0,5,5,7,,,,,,,,,1,4.734832190000361,,,008,001,2019_May_08_1311,MusicAffectPsychophysiology2019,3.0.5,59.990697842447275,
To what extent did the music make you feel ,ANXIOUS ,30MonoWAV/30MonoF3.wav,1,2,2,3,,,,,1,6,22,2,0,6,6,1,,,,,,,,,3,2.1022304299999632,,,008,001,2019_May_08_1311,MusicAffectPsychophysiology2019,3.0.5,59.990697842447275,
To what extent did the music make you feel ,SCARED,30MonoWAV/30MonoF3.wav,1,2,2,3,,,,,1,6,22,2,0,7,7,11,,,,,,,,,2,1.7836716229999183,,,008,001,2019_May_08_1311,MusicAffectPsychophysiology2019,3.0.5,59.990697842447275,
To what extent did the music make you feel ,FRUSTRATED,30MonoWAV/30MonoF3.wav,1,2,2,3,,,,,1,6,22,2,0,8,8,3,,,,,,,,,2,2.0018750610001916,,,008,001,2019_May_08_1311,MusicAffectPsychophysiology2019,3.0.5,59.990697842447275,
To what extent did the music make you feel ,ASHAMED,30MonoWAV/30MonoF3.wav,1,2,2,3,,,,,1,6,22,2,0,9,9,4,,,,,,,,,1,1.8680380900000273,,,008,001,2019_May_08_1311,MusicAffectPsychophysiology2019,3.0.5,59.990697842447275,
To what extent did the music make you feel ,ACTIVE,30MonoWAV/30MonoF3.wav,1,2,2,3,,,,,1,6,22,2,0,10,10,9,,,,,,,,,1,2.5501684490000116,,,008,001,2019_May_08_1311,MusicAffectPsychophysiology2019,3.0.5,59.990697842447275,
To what extent did the music make you feel ,HAPPY,30MonoWAV/30MonoF3.wav,1,2,2,3,,,,,1,6,22,2,0,11,11,6,,,,,,,,,2,3.5496448740000233,,,008,001,2019_May_08_1311,MusicAffectPsychophysiology2019,3.0.5,59.990697842447275,
,,30MonoWAV/30MonoF3.wav,1,2,2,3,,,,,1,6,22,2,,,,,,,,,,,,,,,,,008,001,2019_May_08_1311,MusicAffectPsychophysiology2019,3.0.5,59.990697842447275,
To what extent did the music make you feel ,GUILTY,30MonoWAV/30MonoH4.wav,2,2,1,8,,,,,1,7,23,7,0,0,0,5,,,4,4.8024956200001725,4,2.768235003999962,,,1,2.0351963060002163,,,008,001,2019_May_08_1311,MusicAffectPsychophysiology2019,3.0.5,59.990697842447275,
To what extent did the music make you feel ,ANGRY,30MonoWAV/30MonoH4.wav,2,2,1,8,,,,,1,7,23,7,0,1,1,2,,,,,,,,,1,0.6354849730000751,,,008,001,2019_May_08_1311,MusicAffectPsychophysiology2019,3.0.5,59.990697842447275,
To what extent did the music make you feel ,SCARED,30MonoWAV/30MonoH4.wav,2,2,1,8,,,,,1,7,23,7,0,2,2,11,,,,,,,,,1,0.599855431999913,,,008,001,2019_May_08_1311,MusicAffectPsychophysiology2019,3.0.5,59.990697842447275,
To what extent did the music make you feel ,EXCITED,30MonoWAV/30MonoH4.wav,2,2,1,8,,,,,1,7,23,7,0,3,3,7,,,,,,,,,4,1.651919366999664,,,008,001,2019_May_08_1311,MusicAffectPsychophysiology2019,3.0.5,59.990697842447275,
To what extent did the music make you feel ,SAD,30MonoWAV/30MonoH4.wav,2,2,1,8,,,,,1,7,23,7,0,4,4,0,,,,,,,,,1,1.0518959810001434,,,008,001,2019_May_08_1311,MusicAffectPsychophysiology2019,3.0.5,59.990697842447275,
To what extent did the music make you feel ,TENDER,30MonoWAV/30MonoH4.wav,2,2,1,8,,,,,1,7,23,7,0,5,5,10,,,,,,,,,1,0.9517302780000136,,,008,001,2019_May_08_1311,MusicAffectPsychophysiology2019,3.0.5,59.990697842447275,
To what extent did the music make you feel ,ASHAMED,30MonoWAV/30MonoH4.wav,2,2,1,8,,,,,1,7,23,7,0,6,6,4,,,,,,,,,1,1.25135802900013,,,008,001,2019_May_08_1311,MusicAffectPsychophysiology2019,3.0.5,59.990697842447275,
To what extent did the music make you feel ,ACTIVE,30MonoWAV/30MonoH4.wav,2,2,1,8,,,,,1,7,23,7,0,7,7,9,,,,,,,,,4,2.502450551000038,,,008,001,2019_May_08_1311,MusicAffectPsychophysiology2019,3.0.5,59.990697842447275,
To what extent did the music make you feel ,ALERT,30MonoWAV/30MonoH4.wav,2,2,1,8,,,,,1,7,23,7,0,8,8,8,,,,,,,,,4,1.1012882250001894,,,008,001,2019_May_08_1311,MusicAffectPsychophysiology2019,3.0.5,59.990697842447275,
To what extent did the music make you feel ,FRUSTRATED,30MonoWAV/30MonoH4.wav,2,2,1,8,,,,,1,7,23,7,0,9,9,3,,,,,,,,,1,2.335128600000189,,,008,001,2019_May_08_1311,MusicAffectPsychophysiology2019,3.0.5,59.990697842447275,
To what extent did the music make you feel ,HAPPY,30MonoWAV/30MonoH4.wav,2,2,1,8,,,,,1,7,23,7,0,10,10,6,,,,,,,,,4,1.4673146800000723,,,008,001,2019_May_08_1311,MusicAffectPsychophysiology2019,3.0.5,59.990697842447275,
To what extent did the music make you feel ,ANXIOUS ,30MonoWAV/30MonoH4.wav,2,2,1,8,,,,,1,7,23,7,0,11,11,1,,,,,,,,,1,1.0507836440001483,,,008,001,2019_May_08_1311,MusicAffectPsychophysiology2019,3.0.5,59.990697842447275,
,,30MonoWAV/30MonoH4.wav,2,2,1,8,,,,,1,7,23,7,,,,,,,,,,,,,,,,,008,001,2019_May_08_1311,MusicAffectPsychophysiology2019,3.0.5,59.990697842447275,
To what extent did the music make you feel ,ALERT,30MonoWAV/30MonoT1.wav,2,1,4,13,,,,,1,8,24,12,0,0,0,8,,,2,4.051245428999664,3,2.4184826309997334,,,2,3.5856824340003186,,,008,001,2019_May_08_1311,MusicAffectPsychophysiology2019,3.0.5,59.990697842447275,
To what extent did the music make you feel ,ANXIOUS ,30MonoWAV/30MonoT1.wav,2,1,4,13,,,,,1,8,24,12,0,1,1,1,,,,,,,,,1,1.3843366609999066,,,008,001,2019_May_08_1311,MusicAffectPsychophysiology2019,3.0.5,59.990697842447275,
To what extent did the music make you feel ,SCARED,30MonoWAV/30MonoT1.wav,2,1,4,13,,,,,1,8,24,12,0,2,2,11,,,,,,,,,1,0.5669955690000279,,,008,001,2019_May_08_1311,MusicAffectPsychophysiology2019,3.0.5,59.990697842447275,
To what extent did the music make you feel ,ASHAMED,30MonoWAV/30MonoT1.wav,2,1,4,13,,,,,1,8,24,12,0,3,3,4,,,,,,,,,1,0.5853799290002826,,,008,001,2019_May_08_1311,MusicAffectPsychophysiology2019,3.0.5,59.990697842447275,
To what extent did the music make you feel ,TENDER,30MonoWAV/30MonoT1.wav,2,1,4,13,,,,,1,8,24,12,0,4,4,10,,,,,,,,,1,0.6010058770002615,,,008,001,2019_May_08_1311,MusicAffectPsychophysiology2019,3.0.5,59.990697842447275,
To what extent did the music make you feel ,ANGRY,30MonoWAV/30MonoT1.wav,2,1,4,13,,,,,1,8,24,12,0,5,5,2,,,,,,,,,1,0.9850670320001882,,,008,001,2019_May_08_1311,MusicAffectPsychophysiology2019,3.0.5,59.990697842447275,
To what extent did the music make you feel ,GUILTY,30MonoWAV/30MonoT1.wav,2,1,4,13,,,,,1,8,24,12,0,6,6,5,,,,,,,,,1,1.7014150580002934,,,008,001,2019_May_08_1311,MusicAffectPsychophysiology2019,3.0.5,59.990697842447275,
To what extent did the music make you feel ,FRUSTRATED,30MonoWAV/30MonoT1.wav,2,1,4,13,,,,,1,8,24,12,0,7,7,3,,,,,,,,,1,0.9358247049999591,,,008,001,2019_May_08_1311,MusicAffectPsychophysiology2019,3.0.5,59.990697842447275,
To what extent did the music make you feel ,EXCITED,30MonoWAV/30MonoT1.wav,2,1,4,13,,,,,1,8,24,12,0,8,8,7,,,,,,,,,2,1.7007406380002976,,,008,001,2019_May_08_1311,MusicAffectPsychophysiology2019,3.0.5,59.990697842447275,
To what extent did the music make you feel ,HAPPY,30MonoWAV/30MonoT1.wav,2,1,4,13,,,,,1,8,24,12,0,9,9,6,,,,,,,,,3,1.4678012260001196,,,008,001,2019_May_08_1311,MusicAffectPsychophysiology2019,3.0.5,59.990697842447275,
To what extent did the music make you feel ,ACTIVE,30MonoWAV/30MonoT1.wav,2,1,4,13,,,,,1,8,24,12,0,10,10,9,,,,,,,,,1,1.9180624380001063,,,008,001,2019_May_08_1311,MusicAffectPsychophysiology2019,3.0.5,59.990697842447275,
To what extent did the music make you feel ,SAD,30MonoWAV/30MonoT1.wav,2,1,4,13,,,,,1,8,24,12,0,11,11,0,,,,,,,,,2,1.2519004420000783,,,008,001,2019_May_08_1311,MusicAffectPsychophysiology2019,3.0.5,59.990697842447275,
,,30MonoWAV/30MonoT1.wav,2,1,4,13,,,,,1,8,24,12,,,,,,,,,,,,,,,,,008,001,2019_May_08_1311,MusicAffectPsychophysiology2019,3.0.5,59.990697842447275,
To what extent did the music make you feel ,SCARED,30MonoWAV/30MonoT3.wav,2,1,4,15,,,,,1,9,25,14,0,0,0,11,,,2,4.867677091000132,4,2.002678577000097,,,1,2.1684247630000755,,,008,001,2019_May_08_1311,MusicAffectPsychophysiology2019,3.0.5,59.990697842447275,
To what extent did the music make you feel ,SAD,30MonoWAV/30MonoT3.wav,2,1,4,15,,,,,1,9,25,14,0,1,1,0,,,,,,,,,2,1.085594451000361,,,008,001,2019_May_08_1311,MusicAffectPsychophysiology2019,3.0.5,59.990697842447275,
To what extent did the music make you feel ,ANXIOUS ,30MonoWAV/30MonoT3.wav,2,1,4,15,,,,,1,9,25,14,0,2,2,1,,,,,,,,,1,1.6188854889996946,,,008,001,2019_May_08_1311,MusicAffectPsychophysiology2019,3.0.5,59.990697842447275,
To what extent did the music make you feel ,EXCITED,30MonoWAV/30MonoT3.wav,2,1,4,15,,,,,1,9,25,14,0,3,3,7,,,,,,,,,1,2.2842734350001592,,,008,001,2019_May_08_1311,MusicAffectPsychophysiology2019,3.0.5,59.990697842447275,
To what extent did the music make you feel ,ASHAMED,30MonoWAV/30MonoT3.wav,2,1,4,15,,,,,1,9,25,14,0,4,4,4,,,,,,,,,1,1.5347663090001333,,,008,001,2019_May_08_1311,MusicAffectPsychophysiology2019,3.0.5,59.990697842447275,
To what extent did the music make you feel ,ALERT,30MonoWAV/30MonoT3.wav,2,1,4,15,,,,,1,9,25,14,0,5,5,8,,,,,,,,,2,2.6509342110002763,,,008,001,2019_May_08_1311,MusicAffectPsychophysiology2019,3.0.5,59.990697842447275,
To what extent did the music make you feel ,TENDER,30MonoWAV/30MonoT3.wav,2,1,4,15,,,,,1,9,25,14,0,6,6,10,,,,,,,,,1,1.5687232409995886,,,008,001,2019_May_08_1311,MusicAffectPsychophysiology2019,3.0.5,59.990697842447275,
To what extent did the music make you feel ,ANGRY,30MonoWAV/30MonoT3.wav,2,1,4,15,,,,,1,9,25,14,0,7,7,2,,,,,,,,,1,1.201735263000046,,,008,001,2019_May_08_1311,MusicAffectPsychophysiology2019,3.0.5,59.990697842447275,
To what extent did the music make you feel ,GUILTY,30MonoWAV/30MonoT3.wav,2,1,4,15,,,,,1,9,25,14,0,8,8,5,,,,,,,,,1,1.2689458459999514,,,008,001,2019_May_08_1311,MusicAffectPsychophysiology2019,3.0.5,59.990697842447275,
To what extent did the music make you feel ,HAPPY,30MonoWAV/30MonoT3.wav,2,1,4,15,,,,,1,9,25,14,0,9,9,6,,,,,,,,,3,2.8849343909996605,,,008,001,2019_May_08_1311,MusicAffectPsychophysiology2019,3.0.5,59.990697842447275,
To what extent did the music make you feel ,ACTIVE,30MonoWAV/30MonoT3.wav,2,1,4,15,,,,,1,9,25,14,0,10,10,9,,,,,,,,,1,4.951036658999783,,,008,001,2019_May_08_1311,MusicAffectPsychophysiology2019,3.0.5,59.990697842447275,
To what extent did the music make you feel ,FRUSTRATED,30MonoWAV/30MonoT3.wav,2,1,4,15,,,,,1,9,25,14,0,11,11,3,,,,,,,,,1,0.7522380760001397,,,008,001,2019_May_08_1311,MusicAffectPsychophysiology2019,3.0.5,59.990697842447275,
,,30MonoWAV/30MonoT3.wav,2,1,4,15,,,,,1,9,25,14,,,,,,,,,,,,,,,,,008,001,2019_May_08_1311,MusicAffectPsychophysiology2019,3.0.5,59.990697842447275,
To what extent did the music make you feel ,ALERT,30MonoWAV/30MonoS1.wav,1,1,3,9,,,,,1,10,26,8,0,0,0,8,,,2,4.284356706999915,3,1.885421168999983,,,3,2.3019782290002695,,,008,001,2019_May_08_1311,MusicAffectPsychophysiology2019,3.0.5,59.990697842447275,
To what extent did the music make you feel ,ACTIVE,30MonoWAV/30MonoS1.wav,1,1,3,9,,,,,1,10,26,8,0,1,1,9,,,,,,,,,1,1.5514156209997054,,,008,001,2019_May_08_1311,MusicAffectPsychophysiology2019,3.0.5,59.990697842447275,
To what extent did the music make you feel ,ANXIOUS ,30MonoWAV/30MonoS1.wav,1,1,3,9,,,,,1,10,26,8,0,2,2,1,,,,,,,,,3,1.4341122890000406,,,008,001,2019_May_08_1311,MusicAffectPsychophysiology2019,3.0.5,59.990697842447275,
To what extent did the music make you feel ,ANGRY,30MonoWAV/30MonoS1.wav,1,1,3,9,,,,,1,10,26,8,0,3,3,2,,,,,,,,,2,1.9027631670001028,,,008,001,2019_May_08_1311,MusicAffectPsychophysiology2019,3.0.5,59.990697842447275,
To what extent did the music make you feel ,SCARED,30MonoWAV/30MonoS1.wav,1,1,3,9,,,,,1,10,26,8,0,4,4,11,,,,,,,,,2,1.368396269999721,,,008,001,2019_May_08_1311,MusicAffectPsychophysiology2019,3.0.5,59.990697842447275,
To what extent did the music make you feel ,GUILTY,30MonoWAV/30MonoS1.wav,1,1,3,9,,,,,1,10,26,8,0,5,5,5,,,,,,,,,2,1.2015577359998133,,,008,001,2019_May_08_1311,MusicAffectPsychophysiology2019,3.0.5,59.990697842447275,
To what extent did the music make you feel ,EXCITED,30MonoWAV/30MonoS1.wav,1,1,3,9,,,,,1,10,26,8,0,6,6,7,,,,,,,,,2,2.5516285620001327,,,008,001,2019_May_08_1311,MusicAffectPsychophysiology2019,3.0.5,59.990697842447275,
To what extent did the music make you feel ,HAPPY,30MonoWAV/30MonoS1.wav,1,1,3,9,,,,,1,10,26,8,0,7,7,6,,,,,,,,,2,1.7857613500000298,,,008,001,2019_May_08_1311,MusicAffectPsychophysiology2019,3.0.5,59.990697842447275,
To what extent did the music make you feel ,ASHAMED,30MonoWAV/30MonoS1.wav,1,1,3,9,,,,,1,10,26,8,0,8,8,4,,,,,,,,,3,3.033979835000082,,,008,001,2019_May_08_1311,MusicAffectPsychophysiology2019,3.0.5,59.990697842447275,
To what extent did the music make you feel ,TENDER,30MonoWAV/30MonoS1.wav,1,1,3,9,,,,,1,10,26,8,0,9,9,10,,,,,,,,,2,2.5505687889999535,,,008,001,2019_May_08_1311,MusicAffectPsychophysiology2019,3.0.5,59.990697842447275,
To what extent did the music make you feel ,SAD,30MonoWAV/30MonoS1.wav,1,1,3,9,,,,,1,10,26,8,0,10,10,0,,,,,,,,,3,1.9193274290000772,,,008,001,2019_May_08_1311,MusicAffectPsychophysiology2019,3.0.5,59.990697842447275,
To what extent did the music make you feel ,FRUSTRATED,30MonoWAV/30MonoS1.wav,1,1,3,9,,,,,1,10,26,8,0,11,11,3,,,,,,,,,1,2.784651853000014,,,008,001,2019_May_08_1311,MusicAffectPsychophysiology2019,3.0.5,59.990697842447275,
,,30MonoWAV/30MonoS1.wav,1,1,3,9,,,,,1,10,26,8,,,,,,,,,,,,,,,,,008,001,2019_May_08_1311,MusicAffectPsychophysiology2019,3.0.5,59.990697842447275,
To what extent did the music make you feel ,ANXIOUS ,30MonoWAV/30MonoH2.wav,2,2,1,6,,,,,1,11,27,5,0,0,0,1,,,3,6.95132548599986,3,2.5023283590003302,,,1,3.65101401200036,,,008,001,2019_May_08_1311,MusicAffectPsychophysiology2019,3.0.5,59.990697842447275,
To what extent did the music make you feel ,HAPPY,30MonoWAV/30MonoH2.wav,2,2,1,6,,,,,1,11,27,5,0,1,1,6,,,,,,,,,3,2.0347914910003055,,,008,001,2019_May_08_1311,MusicAffectPsychophysiology2019,3.0.5,59.990697842447275,
To what extent did the music make you feel ,EXCITED,30MonoWAV/30MonoH2.wav,2,2,1,6,,,,,1,11,27,5,0,2,2,7,,,,,,,,,3,2.1161586130001524,,,008,001,2019_May_08_1311,MusicAffectPsychophysiology2019,3.0.5,59.990697842447275,
To what extent did the music make you feel ,ACTIVE,30MonoWAV/30MonoH2.wav,2,2,1,6,,,,,1,11,27,5,0,3,3,9,,,,,,,,,3,7.335497280999789,,,008,001,2019_May_08_1311,MusicAffectPsychophysiology2019,3.0.5,59.990697842447275,
To what extent did the music make you feel ,TENDER,30MonoWAV/30MonoH2.wav,2,2,1,6,,,,,1,11,27,5,0,4,4,10,,,,,,,,,1,1.5503872299996146,,,008,001,2019_May_08_1311,MusicAffectPsychophysiology2019,3.0.5,59.990697842447275,
To what extent did the music make you feel ,FRUSTRATED,30MonoWAV/30MonoH2.wav,2,2,1,6,,,,,1,11,27,5,0,5,5,3,,,,,,,,,1,2.1190492679997988,,,008,001,2019_May_08_1311,MusicAffectPsychophysiology2019,3.0.5,59.990697842447275,
To what extent did the music make you feel ,GUILTY,30MonoWAV/30MonoH2.wav,2,2,1,6,,,,,1,11,27,5,0,6,6,5,,,,,,,,,1,0.8023136510000768,,,008,001,2019_May_08_1311,MusicAffectPsychophysiology2019,3.0.5,59.990697842447275,
To what extent did the music make you feel ,ASHAMED,30MonoWAV/30MonoH2.wav,2,2,1,6,,,,,1,11,27,5,0,7,7,4,,,,,,,,,1,1.0017573499999344,,,008,001,2019_May_08_1311,MusicAffectPsychophysiology2019,3.0.5,59.990697842447275,
To what extent did the music make you feel ,ANGRY,30MonoWAV/30MonoH2.wav,2,2,1,6,,,,,1,11,27,5,0,8,8,2,,,,,,,,,1,0.8335781339997084,,,008,001,2019_May_08_1311,MusicAffectPsychophysiology2019,3.0.5,59.990697842447275,
To what extent did the music make you feel ,ALERT,30MonoWAV/30MonoH2.wav,2,2,1,6,,,,,1,11,27,5,0,9,9,8,,,,,,,,,3,2.0362228389999473,,,008,001,2019_May_08_1311,MusicAffectPsychophysiology2019,3.0.5,59.990697842447275,
To what extent did the music make you feel ,SCARED,30MonoWAV/30MonoH2.wav,2,2,1,6,,,,,1,11,27,5,0,10,10,11,,,,,,,,,1,4.318623306000063,,,008,001,2019_May_08_1311,MusicAffectPsychophysiology2019,3.0.5,59.990697842447275,
To what extent did the music make you feel ,SAD,30MonoWAV/30MonoH2.wav,2,2,1,6,,,,,1,11,27,5,0,11,11,0,,,,,,,,,1,1.0850241480002296,,,008,001,2019_May_08_1311,MusicAffectPsychophysiology2019,3.0.5,59.990697842447275,
,,30MonoWAV/30MonoH2.wav,2,2,1,6,,,,,1,11,27,5,,,,,,,,,,,,,,,,,008,001,2019_May_08_1311,MusicAffectPsychophysiology2019,3.0.5,59.990697842447275,
To what extent did the music make you feel ,ACTIVE,30MonoWAV/30MonoS3.wav,1,1,3,11,,,,,1,12,28,10,0,0,0,9,,,3,2.9512341889999334,2,4.2360379229999126,,,1,2.8668651400003,,,008,001,2019_May_08_1311,MusicAffectPsychophysiology2019,3.0.5,59.990697842447275,
To what extent did the music make you feel ,ASHAMED,30MonoWAV/30MonoS3.wav,1,1,3,11,,,,,1,12,28,10,0,1,1,4,,,,,,,,,1,3.2684336369998164,,,008,001,2019_May_08_1311,MusicAffectPsychophysiology2019,3.0.5,59.990697842447275,
To what extent did the music make you feel ,SCARED,30MonoWAV/30MonoS3.wav,1,1,3,11,,,,,1,12,28,10,0,2,2,11,,,,,,,,,2,1.0015940500002216,,,008,001,2019_May_08_1311,MusicAffectPsychophysiology2019,3.0.5,59.990697842447275,
To what extent did the music make you feel ,TENDER,30MonoWAV/30MonoS3.wav,1,1,3,11,,,,,1,12,28,10,0,3,3,10,,,,,,,,,2,1.0023108400000638,,,008,001,2019_May_08_1311,MusicAffectPsychophysiology2019,3.0.5,59.990697842447275,
To what extent did the music make you feel ,HAPPY,30MonoWAV/30MonoS3.wav,1,1,3,11,,,,,1,12,28,10,0,4,4,6,,,,,,,,,2,1.0836428889997478,,,008,001,2019_May_08_1311,MusicAffectPsychophysiology2019,3.0.5,59.990697842447275,
To what extent did the music make you feel ,FRUSTRATED,30MonoWAV/30MonoS3.wav,1,1,3,11,,,,,1,12,28,10,0,5,5,3,,,,,,,,,2,3.685497242999645,,,008,001,2019_May_08_1311,MusicAffectPsychophysiology2019,3.0.5,59.990697842447275,
To what extent did the music make you feel ,EXCITED,30MonoWAV/30MonoS3.wav,1,1,3,11,,,,,1,12,28,10,0,6,6,7,,,,,,,,,1,1.568140277999646,,,008,001,2019_May_08_1311,MusicAffectPsychophysiology2019,3.0.5,59.990697842447275,
To what extent did the music make you feel ,GUILTY,30MonoWAV/30MonoS3.wav,1,1,3,11,,,,,1,12,28,10,0,7,7,5,,,,,,,,,2,1.7516649620001772,,,008,001,2019_May_08_1311,MusicAffectPsychophysiology2019,3.0.5,59.990697842447275,
To what extent did the music make you feel ,ALERT,30MonoWAV/30MonoS3.wav,1,1,3,11,,,,,1,12,28,10,0,8,8,8,,,,,,,,,2,1.5019233600000916,,,008,001,2019_May_08_1311,MusicAffectPsychophysiology2019,3.0.5,59.990697842447275,
To what extent did the music make you feel ,ANXIOUS ,30MonoWAV/30MonoS3.wav,1,1,3,11,,,,,1,12,28,10,0,9,9,1,,,,,,,,,3,1.318935586000407,,,008,001,2019_May_08_1311,MusicAffectPsychophysiology2019,3.0.5,59.990697842447275,
To what extent did the music make you feel ,SAD,30MonoWAV/30MonoS3.wav,1,1,3,11,,,,,1,12,28,10,0,10,10,0,,,,,,,,,1,2.115696941999886,,,008,001,2019_May_08_1311,MusicAffectPsychophysiology2019,3.0.5,59.990697842447275,
To what extent did the music make you feel ,ANGRY,30MonoWAV/30MonoS3.wav,1,1,3,11,,,,,1,12,28,10,0,11,11,2,,,,,,,,,2,2.1331095799996547,,,008,001,2019_May_08_1311,MusicAffectPsychophysiology2019,3.0.5,59.990697842447275,
,,30MonoWAV/30MonoS3.wav,1,1,3,11,,,,,1,12,28,10,,,,,,,,,,,,,,,,,008,001,2019_May_08_1311,MusicAffectPsychophysiology2019,3.0.5,59.990697842447275,
To what extent did the music make you feel ,SAD,30MonoWAV/30MonoF2.wav,1,2,2,2,,,,,1,13,29,1,0,0,0,0,,,3,6.441841760999978,2,3.754894737000086,,,2,3.9351718580001034,,,008,001,2019_May_08_1311,MusicAffectPsychophysiology2019,3.0.5,59.990697842447275,
To what extent did the music make you feel ,TENDER,30MonoWAV/30MonoF2.wav,1,2,2,2,,,,,1,13,29,1,0,1,1,10,,,,,,,,,2,1.601039278999906,,,008,001,2019_May_08_1311,MusicAffectPsychophysiology2019,3.0.5,59.990697842447275,
To what extent did the music make you feel ,SCARED,30MonoWAV/30MonoF2.wav,1,2,2,2,,,,,1,13,29,1,0,2,2,11,,,,,,,,,3,0.9684466889998475,,,008,001,2019_May_08_1311,MusicAffectPsychophysiology2019,3.0.5,59.990697842447275,
To what extent did the music make you feel ,ANGRY,30MonoWAV/30MonoF2.wav,1,2,2,2,,,,,1,13,29,1,0,3,3,2,,,,,,,,,2,3.6020755740000823,,,008,001,2019_May_08_1311,MusicAffectPsychophysiology2019,3.0.5,59.990697842447275,
To what extent did the music make you feel ,EXCITED,30MonoWAV/30MonoF2.wav,1,2,2,2,,,,,1,13,29,1,0,4,4,7,,,,,,,,,3,1.218738214000041,,,008,001,2019_May_08_1311,MusicAffectPsychophysiology2019,3.0.5,59.990697842447275,
To what extent did the music make you feel ,ACTIVE,30MonoWAV/30MonoF2.wav,1,2,2,2,,,,,1,13,29,1,0,5,5,9,,,,,,,,,1,1.2170518959997025,,,008,001,2019_May_08_1311,MusicAffectPsychophysiology2019,3.0.5,59.990697842447275,
To what extent did the music make you feel ,ALERT,30MonoWAV/30MonoF2.wav,1,2,2,2,,,,,1,13,29,1,0,6,6,8,,,,,,,,,3,6.635591436000141,,,008,001,2019_May_08_1311,MusicAffectPsychophysiology2019,3.0.5,59.990697842447275,
To what extent did the music make you feel ,FRUSTRATED,30MonoWAV/30MonoF2.wav,1,2,2,2,,,,,1,13,29,1,0,7,7,3,,,,,,,,,2,3.284607335999681,,,008,001,2019_May_08_1311,MusicAffectPsychophysiology2019,3.0.5,59.990697842447275,
To what extent did the music make you feel ,ANXIOUS ,30MonoWAV/30MonoF2.wav,1,2,2,2,,,,,1,13,29,1,0,8,8,1,,,,,,,,,3,1.318549203999737,,,008,001,2019_May_08_1311,MusicAffectPsychophysiology2019,3.0.5,59.990697842447275,
To what extent did the music make you feel ,GUILTY,30MonoWAV/30MonoF2.wav,1,2,2,2,,,,,1,13,29,1,0,9,9,5,,,,,,,,,1,3.617846611999994,,,008,001,2019_May_08_1311,MusicAffectPsychophysiology2019,3.0.5,59.990697842447275,
To what extent did the music make you feel ,ASHAMED,30MonoWAV/30MonoF2.wav,1,2,2,2,,,,,1,13,29,1,0,10,10,4,,,,,,,,,1,2.2016016580000723,,,008,001,2019_May_08_1311,MusicAffectPsychophysiology2019,3.0.5,59.990697842447275,
To what extent did the music make you feel ,HAPPY,30MonoWAV/30MonoF2.wav,1,2,2,2,,,,,1,13,29,1,0,11,11,6,,,,,,,,,2,1.7524277369998345,,,008,001,2019_May_08_1311,MusicAffectPsychophysiology2019,3.0.5,59.990697842447275,
,,30MonoWAV/30MonoF2.wav,1,2,2,2,,,,,1,13,29,1,,,,,,,,,,,,,,,,,008,001,2019_May_08_1311,MusicAffectPsychophysiology2019,3.0.5,59.990697842447275,
To what extent did the music make you feel ,FRUSTRATED,30MonoWAV/30MonoS4.wav,1,1,3,12,,,,,1,14,30,11,0,0,0,3,,,1,7.117483451000226,1,6.550898104000225,,,2,1.5573935669999628,,,008,001,2019_May_08_1311,MusicAffectPsychophysiology2019,3.0.5,59.990697842447275,
To what extent did the music make you feel ,ACTIVE,30MonoWAV/30MonoS4.wav,1,1,3,12,,,,,1,14,30,11,0,1,1,9,,,,,,,,,1,1.0023347799997282,,,008,001,2019_May_08_1311,MusicAffectPsychophysiology2019,3.0.5,59.990697842447275,
To what extent did the music make you feel ,TENDER,30MonoWAV/30MonoS4.wav,1,1,3,12,,,,,1,14,30,11,0,2,2,10,,,,,,,,,2,0.9015140830001656,,,008,001,2019_May_08_1311,MusicAffectPsychophysiology2019,3.0.5,59.990697842447275,
To what extent did the music make you feel ,GUILTY,30MonoWAV/30MonoS4.wav,1,1,3,12,,,,,1,14,30,11,0,3,3,5,,,,,,,,,1,1.2518754279999484,,,008,001,2019_May_08_1311,MusicAffectPsychophysiology2019,3.0.5,59.990697842447275,
To what extent did the music make you feel ,ANXIOUS ,30MonoWAV/30MonoS4.wav,1,1,3,12,,,,,1,14,30,11,0,4,4,1,,,,,,,,,3,1.5350931829998444,,,008,001,2019_May_08_1311,MusicAffectPsychophysiology2019,3.0.5,59.990697842447275,
To what extent did the music make you feel ,HAPPY,30MonoWAV/30MonoS4.wav,1,1,3,12,,,,,1,14,30,11,0,5,5,6,,,,,,,,,1,1.9681359160003922,,,008,001,2019_May_08_1311,MusicAffectPsychophysiology2019,3.0.5,59.990697842447275,
To what extent did the music make you feel ,SCARED,30MonoWAV/30MonoS4.wav,1,1,3,12,,,,,1,14,30,11,0,6,6,11,,,,,,,,,2,2.151464414000202,,,008,001,2019_May_08_1311,MusicAffectPsychophysiology2019,3.0.5,59.990697842447275,
To what extent did the music make you feel ,ALERT,30MonoWAV/30MonoS4.wav,1,1,3,12,,,,,1,14,30,11,0,7,7,8,,,,,,,,,1,1.2520495260000644,,,008,001,2019_May_08_1311,MusicAffectPsychophysiology2019,3.0.5,59.990697842447275,
To what extent did the music make you feel ,ASHAMED,30MonoWAV/30MonoS4.wav,1,1,3,12,,,,,1,14,30,11,0,8,8,4,,,,,,,,,1,5.234392193000076,,,008,001,2019_May_08_1311,MusicAffectPsychophysiology2019,3.0.5,59.990697842447275,
To what extent did the music make you feel ,ANGRY,30MonoWAV/30MonoS4.wav,1,1,3,12,,,,,1,14,30,11,0,9,9,2,,,,,,,,,1,1.6007485260001886,,,008,001,2019_May_08_1311,MusicAffectPsychophysiology2019,3.0.5,59.990697842447275,
To what extent did the music make you feel ,EXCITED,30MonoWAV/30MonoS4.wav,1,1,3,12,,,,,1,14,30,11,0,10,10,7,,,,,,,,,1,1.116891085000134,,,008,001,2019_May_08_1311,MusicAffectPsychophysiology2019,3.0.5,59.990697842447275,
To what extent did the music make you feel ,SAD,30MonoWAV/30MonoS4.wav,1,1,3,12,,,,,1,14,30,11,0,11,11,0,,,,,,,,,3,1.5348149299998113,,,008,001,2019_May_08_1311,MusicAffectPsychophysiology2019,3.0.5,59.990697842447275,
,,30MonoWAV/30MonoS4.wav,1,1,3,12,,,,,1,14,30,11,,,,,,,,,,,,,,,,,008,001,2019_May_08_1311,MusicAffectPsychophysiology2019,3.0.5,59.990697842447275,
To what extent did the music make you feel ,ASHAMED,30MonoWAV/30MonoS2.wav,1,1,3,10,,,,,1,15,31,9,0,0,0,4,,,1,4.018098976000147,2,2.0665539019996686,,,2,1.635260561999985,,,008,001,2019_May_08_1311,MusicAffectPsychophysiology2019,3.0.5,59.990697842447275,
To what extent did the music make you feel ,HAPPY,30MonoWAV/30MonoS2.wav,1,1,3,10,,,,,1,15,31,9,0,1,1,6,,,,,,,,,2,2.9847664519998034,,,008,001,2019_May_08_1311,MusicAffectPsychophysiology2019,3.0.5,59.990697842447275,
To what extent did the music make you feel ,ANGRY,30MonoWAV/30MonoS2.wav,1,1,3,10,,,,,1,15,31,9,0,2,2,2,,,,,,,,,1,1.8189918410002974,,,008,001,2019_May_08_1311,MusicAffectPsychophysiology2019,3.0.5,59.990697842447275,
To what extent did the music make you feel ,ACTIVE,30MonoWAV/30MonoS2.wav,1,1,3,10,,,,,1,15,31,9,0,3,3,9,,,,,,,,,1,0.8845258520000243,,,008,001,2019_May_08_1311,MusicAffectPsychophysiology2019,3.0.5,59.990697842447275,
To what extent did the music make you feel ,SAD,30MonoWAV/30MonoS2.wav,1,1,3,10,,,,,1,15,31,9,0,4,4,0,,,,,,,,,3,1.8998173770000903,,,008,001,2019_May_08_1311,MusicAffectPsychophysiology2019,3.0.5,59.990697842447275,
To what extent did the music make you feel ,SCARED,30MonoWAV/30MonoS2.wav,1,1,3,10,,,,,1,15,31,9,0,5,5,11,,,,,,,,,2,1.5517639560002863,,,008,001,2019_May_08_1311,MusicAffectPsychophysiology2019,3.0.5,59.990697842447275,
To what extent did the music make you feel ,EXCITED,30MonoWAV/30MonoS2.wav,1,1,3,10,,,,,1,15,31,9,0,6,6,7,,,,,,,,,1,1.7689328520000345,,,008,001,2019_May_08_1311,MusicAffectPsychophysiology2019,3.0.5,59.990697842447275,
To what extent did the music make you feel ,FRUSTRATED,30MonoWAV/30MonoS2.wav,1,1,3,10,,,,,1,15,31,9,0,7,7,3,,,,,,,,,2,1.4817113470003278,,,008,001,2019_May_08_1311,MusicAffectPsychophysiology2019,3.0.5,59.990697842447275,
To what extent did the music make you feel ,ANXIOUS ,30MonoWAV/30MonoS2.wav,1,1,3,10,,,,,1,15,31,9,0,8,8,1,,,,,,,,,2,3.352367673000117,,,008,001,2019_May_08_1311,MusicAffectPsychophysiology2019,3.0.5,59.990697842447275,
To what extent did the music make you feel ,TENDER,30MonoWAV/30MonoS2.wav,1,1,3,10,,,,,1,15,31,9,0,9,9,10,,,,,,,,,2,0.9348227109999243,,,008,001,2019_May_08_1311,MusicAffectPsychophysiology2019,3.0.5,59.990697842447275,
To what extent did the music make you feel ,ALERT,30MonoWAV/30MonoS2.wav,1,1,3,10,,,,,1,15,31,9,0,10,10,8,,,,,,,,,2,2.317681497000194,,,008,001,2019_May_08_1311,MusicAffectPsychophysiology2019,3.0.5,59.990697842447275,
To what extent did the music make you feel ,GUILTY,30MonoWAV/30MonoS2.wav,1,1,3,10,,,,,1,15,31,9,0,11,11,5,,,,,,,,,1,1.9519906470000024,,,008,001,2019_May_08_1311,MusicAffectPsychophysiology2019,3.0.5,59.990697842447275,
,,30MonoWAV/30MonoS2.wav,1,1,3,10,,,,,1,15,31,9,,,,,,,,,,,,,,,,,008,001,2019_May_08_1311,MusicAffectPsychophysiology2019,3.0.5,59.990697842447275,
,,,,,,,,,,,,,,,,,,,,,,,,,,,,,space,134.37058091200015,008,001,2019_May_08_1311,MusicAffectPsychophysiology2019,3.0.5,59.990697842447275,
