Instruction,Word,song,valence,arousal,affectcat,songmark,pracwords.thisRepN,pracwords.thisTrialN,pracwords.thisN,pracwords.thisIndex,songtrials.thisRepN,songtrials.thisTrialN,songtrials.thisN,songtrials.thisIndex,words.thisRepN,words.thisTrialN,words.thisN,words.thisIndex,begin.keys,begin.rt,arousalkey.keys,arousalkey.rt,valencekey.keys,valencekey.rt,likekey.keys,likekey.rt,WordResponse.keys,WordResponse.rt,participant,session,date,expName,psychopyVersion,frameRate,
,,,,,,,,,,,,,,,,,,,space,26.415736351000305,,,,,,,,,009,001,2019_May_08_1412,MusicAffectPsychophysiology2019,3.0.5,59.953041899698135,
,,,,,,,,,,,,,,,,,,,,,2,5.402117667999846,,,,,,,009,001,2019_May_08_1412,MusicAffectPsychophysiology2019,3.0.5,59.953041899698135,
,,,,,,,,,,,,,,,,,,,,,,,4,4.152208024000174,,,,,009,001,2019_May_08_1412,MusicAffectPsychophysiology2019,3.0.5,59.953041899698135,
,,,,,,,,,,,,,,,,,,,,,,,,,3,3.4353776600000856,,,009,001,2019_May_08_1412,MusicAffectPsychophysiology2019,3.0.5,59.953041899698135,
To what extent did the music make you feel ,ALERT,,,,,,0,0,0,8,,,,,,,,,,,,,,,,,1,4.967872917999557,009,001,2019_May_08_1412,MusicAffectPsychophysiology2019,3.0.5,59.953041899698135,
To what extent did the music make you feel ,EXCITED,,,,,,0,1,1,7,,,,,,,,,,,,,,,,,2,2.0677656870002465,009,001,2019_May_08_1412,MusicAffectPsychophysiology2019,3.0.5,59.953041899698135,
To what extent did the music make you feel ,ASHAMED,,,,,,0,2,2,4,,,,,,,,,,,,,,,,,1,1.9682683840001118,009,001,2019_May_08_1412,MusicAffectPsychophysiology2019,3.0.5,59.953041899698135,
To what extent did the music make you feel ,HAPPY,,,,,,0,3,3,6,,,,,,,,,,,,,,,,,4,2.682114219000141,009,001,2019_May_08_1412,MusicAffectPsychophysiology2019,3.0.5,59.953041899698135,
To what extent did the music make you feel ,GUILTY,,,,,,0,4,4,5,,,,,,,,,,,,,,,,,1,1.4851599829999031,009,001,2019_May_08_1412,MusicAffectPsychophysiology2019,3.0.5,59.953041899698135,
To what extent did the music make you feel ,SAD,,,,,,0,5,5,0,,,,,,,,,,,,,,,,,2,3.8844371989998763,009,001,2019_May_08_1412,MusicAffectPsychophysiology2019,3.0.5,59.953041899698135,
To what extent did the music make you feel ,FRUSTRATED,,,,,,0,6,6,3,,,,,,,,,,,,,,,,,1,1.2854738159994668,009,001,2019_May_08_1412,MusicAffectPsychophysiology2019,3.0.5,59.953041899698135,
To what extent did the music make you feel ,TENDER,,,,,,0,7,7,10,,,,,,,,,,,,,,,,,1,2.0347536220006077,009,001,2019_May_08_1412,MusicAffectPsychophysiology2019,3.0.5,59.953041899698135,
To what extent did the music make you feel ,ANGRY,,,,,,0,8,8,2,,,,,,,,,,,,,,,,,1,1.100914090000515,009,001,2019_May_08_1412,MusicAffectPsychophysiology2019,3.0.5,59.953041899698135,
To what extent did the music make you feel ,ANXIOUS ,,,,,,0,9,9,1,,,,,,,,,,,,,,,,,1,1.4515911359994789,009,001,2019_May_08_1412,MusicAffectPsychophysiology2019,3.0.5,59.953041899698135,
To what extent did the music make you feel ,ACTIVE,,,,,,0,10,10,9,,,,,,,,,,,,,,,,,1,3.61805346500023,009,001,2019_May_08_1412,MusicAffectPsychophysiology2019,3.0.5,59.953041899698135,
To what extent did the music make you feel ,SCARED,,,,,,0,11,11,11,,,,,,,,,,,,,,,,,1,0.9010934800007817,009,001,2019_May_08_1412,MusicAffectPsychophysiology2019,3.0.5,59.953041899698135,
To what extent did the music make you feel ,EXCITED,30MonoWAV/30MonoT2.wav,2,1,4,14,,,,,0,0,0,13,0,0,0,7,,,1,3.6359419259997594,3,2.6023221530003866,,,2,3.1347119049996763,009,001,2019_May_08_1412,MusicAffectPsychophysiology2019,3.0.5,59.953041899698135,
To what extent did the music make you feel ,FRUSTRATED,30MonoWAV/30MonoT2.wav,2,1,4,14,,,,,0,0,0,13,0,1,1,3,,,,,,,,,1,1.335404419999577,009,001,2019_May_08_1412,MusicAffectPsychophysiology2019,3.0.5,59.953041899698135,
To what extent did the music make you feel ,ANGRY,30MonoWAV/30MonoT2.wav,2,1,4,14,,,,,0,0,0,13,0,2,2,2,,,,,,,,,1,0.8189215049997074,009,001,2019_May_08_1412,MusicAffectPsychophysiology2019,3.0.5,59.953041899698135,
To what extent did the music make you feel ,GUILTY,30MonoWAV/30MonoT2.wav,2,1,4,14,,,,,0,0,0,13,0,3,3,5,,,,,,,,,1,0.7353886189994228,009,001,2019_May_08_1412,MusicAffectPsychophysiology2019,3.0.5,59.953041899698135,
To what extent did the music make you feel ,ASHAMED,30MonoWAV/30MonoT2.wav,2,1,4,14,,,,,0,0,0,13,0,4,4,4,,,,,,,,,1,0.8348953219992836,009,001,2019_May_08_1412,MusicAffectPsychophysiology2019,3.0.5,59.953041899698135,
To what extent did the music make you feel ,SAD,30MonoWAV/30MonoT2.wav,2,1,4,14,,,,,0,0,0,13,0,5,5,0,,,,,,,,,1,0.9858716980006648,009,001,2019_May_08_1412,MusicAffectPsychophysiology2019,3.0.5,59.953041899698135,
To what extent did the music make you feel ,TENDER,30MonoWAV/30MonoT2.wav,2,1,4,14,,,,,0,0,0,13,0,6,6,10,,,,,,,,,3,2.6344235999995362,009,001,2019_May_08_1412,MusicAffectPsychophysiology2019,3.0.5,59.953041899698135,
To what extent did the music make you feel ,ANXIOUS ,30MonoWAV/30MonoT2.wav,2,1,4,14,,,,,0,0,0,13,0,7,7,1,,,,,,,,,1,1.351098078999712,009,001,2019_May_08_1412,MusicAffectPsychophysiology2019,3.0.5,59.953041899698135,
To what extent did the music make you feel ,ALERT,30MonoWAV/30MonoT2.wav,2,1,4,14,,,,,0,0,0,13,0,8,8,8,,,,,,,,,1,2.4021913800006587,009,001,2019_May_08_1412,MusicAffectPsychophysiology2019,3.0.5,59.953041899698135,
To what extent did the music make you feel ,HAPPY,30MonoWAV/30MonoT2.wav,2,1,4,14,,,,,0,0,0,13,0,9,9,6,,,,,,,,,3,2.757814277999387,009,001,2019_May_08_1412,MusicAffectPsychophysiology2019,3.0.5,59.953041899698135,
To what extent did the music make you feel ,ACTIVE,30MonoWAV/30MonoT2.wav,2,1,4,14,,,,,0,0,0,13,0,10,10,9,,,,,,,,,2,2.921746600000006,009,001,2019_May_08_1412,MusicAffectPsychophysiology2019,3.0.5,59.953041899698135,
To what extent did the music make you feel ,SCARED,30MonoWAV/30MonoT2.wav,2,1,4,14,,,,,0,0,0,13,0,11,11,11,,,,,,,,,1,1.0699414640002942,009,001,2019_May_08_1412,MusicAffectPsychophysiology2019,3.0.5,59.953041899698135,
,,30MonoWAV/30MonoT2.wav,2,1,4,14,,,,,0,0,0,13,,,,,,,,,,,,,,,009,001,2019_May_08_1412,MusicAffectPsychophysiology2019,3.0.5,59.953041899698135,
To what extent did the music make you feel ,ALERT,30MonoWAV/30MonoT4.wav,2,1,4,16,,,,,0,1,1,15,0,0,0,8,,,2,3.768907059999947,5,4.134806022000703,,,1,2.951650971000163,009,001,2019_May_08_1412,MusicAffectPsychophysiology2019,3.0.5,59.953041899698135,
To what extent did the music make you feel ,SCARED,30MonoWAV/30MonoT4.wav,2,1,4,16,,,,,0,1,1,15,0,1,1,11,,,,,,,,,1,1.4683520530006717,009,001,2019_May_08_1412,MusicAffectPsychophysiology2019,3.0.5,59.953041899698135,
To what extent did the music make you feel ,FRUSTRATED,30MonoWAV/30MonoT4.wav,2,1,4,16,,,,,0,1,1,15,0,2,2,3,,,,,,,,,1,0.8683542230000967,009,001,2019_May_08_1412,MusicAffectPsychophysiology2019,3.0.5,59.953041899698135,
To what extent did the music make you feel ,SAD,30MonoWAV/30MonoT4.wav,2,1,4,16,,,,,0,1,1,15,0,3,3,0,,,,,,,,,3,4.020398210999701,009,001,2019_May_08_1412,MusicAffectPsychophysiology2019,3.0.5,59.953041899698135,
To what extent did the music make you feel ,ACTIVE,30MonoWAV/30MonoT4.wav,2,1,4,16,,,,,0,1,1,15,0,4,4,9,,,,,,,,,1,2.1191391069996826,009,001,2019_May_08_1412,MusicAffectPsychophysiology2019,3.0.5,59.953041899698135,
To what extent did the music make you feel ,HAPPY,30MonoWAV/30MonoT4.wav,2,1,4,16,,,,,0,1,1,15,0,5,5,6,,,,,,,,,4,5.835439597000004,009,001,2019_May_08_1412,MusicAffectPsychophysiology2019,3.0.5,59.953041899698135,
To what extent did the music make you feel ,EXCITED,30MonoWAV/30MonoT4.wav,2,1,4,16,,,,,0,1,1,15,0,6,6,7,,,,,,,,,4,2.8010531489999266,009,001,2019_May_08_1412,MusicAffectPsychophysiology2019,3.0.5,59.953041899698135,
To what extent did the music make you feel ,ASHAMED,30MonoWAV/30MonoT4.wav,2,1,4,16,,,,,0,1,1,15,0,7,7,4,,,,,,,,,1,1.0517646909993346,009,001,2019_May_08_1412,MusicAffectPsychophysiology2019,3.0.5,59.953041899698135,
To what extent did the music make you feel ,TENDER,30MonoWAV/30MonoT4.wav,2,1,4,16,,,,,0,1,1,15,0,8,8,10,,,,,,,,,3,2.318697035000696,009,001,2019_May_08_1412,MusicAffectPsychophysiology2019,3.0.5,59.953041899698135,
To what extent did the music make you feel ,ANGRY,30MonoWAV/30MonoT4.wav,2,1,4,16,,,,,0,1,1,15,0,9,9,2,,,,,,,,,1,1.0514292669995484,009,001,2019_May_08_1412,MusicAffectPsychophysiology2019,3.0.5,59.953041899698135,
To what extent did the music make you feel ,ANXIOUS ,30MonoWAV/30MonoT4.wav,2,1,4,16,,,,,0,1,1,15,0,10,10,1,,,,,,,,,1,1.0674303050000162,009,001,2019_May_08_1412,MusicAffectPsychophysiology2019,3.0.5,59.953041899698135,
To what extent did the music make you feel ,GUILTY,30MonoWAV/30MonoT4.wav,2,1,4,16,,,,,0,1,1,15,0,11,11,5,,,,,,,,,1,1.5187430750002022,009,001,2019_May_08_1412,MusicAffectPsychophysiology2019,3.0.5,59.953041899698135,
,,30MonoWAV/30MonoT4.wav,2,1,4,16,,,,,0,1,1,15,,,,,,,,,,,,,,,009,001,2019_May_08_1412,MusicAffectPsychophysiology2019,3.0.5,59.953041899698135,
To what extent did the music make you feel ,ANXIOUS ,30MonoWAV/30MonoH1.wav,2,2,1,5,,,,,0,2,2,4,0,0,0,1,,,4,4.633978636000393,3,2.451132198000778,,,4,2.735199131999252,009,001,2019_May_08_1412,MusicAffectPsychophysiology2019,3.0.5,59.953041899698135,
To what extent did the music make you feel ,SAD,30MonoWAV/30MonoH1.wav,2,2,1,5,,,,,0,2,2,4,0,1,1,0,,,,,,,,,1,1.5688777770001252,009,001,2019_May_08_1412,MusicAffectPsychophysiology2019,3.0.5,59.953041899698135,
To what extent did the music make you feel ,GUILTY,30MonoWAV/30MonoH1.wav,2,2,1,5,,,,,0,2,2,4,0,2,2,5,,,,,,,,,1,1.2185110649998023,009,001,2019_May_08_1412,MusicAffectPsychophysiology2019,3.0.5,59.953041899698135,
To what extent did the music make you feel ,ANGRY,30MonoWAV/30MonoH1.wav,2,2,1,5,,,,,0,2,2,4,0,3,3,2,,,,,,,,,1,1.0011731699996744,009,001,2019_May_08_1412,MusicAffectPsychophysiology2019,3.0.5,59.953041899698135,
To what extent did the music make you feel ,EXCITED,30MonoWAV/30MonoH1.wav,2,2,1,5,,,,,0,2,2,4,0,4,4,7,,,,,,,,,3,3.284874994999882,009,001,2019_May_08_1412,MusicAffectPsychophysiology2019,3.0.5,59.953041899698135,
To what extent did the music make you feel ,ASHAMED,30MonoWAV/30MonoH1.wav,2,2,1,5,,,,,0,2,2,4,0,5,5,4,,,,,,,,,1,0.9852254669995091,009,001,2019_May_08_1412,MusicAffectPsychophysiology2019,3.0.5,59.953041899698135,
To what extent did the music make you feel ,ALERT,30MonoWAV/30MonoH1.wav,2,2,1,5,,,,,0,2,2,4,0,6,6,8,,,,,,,,,4,1.8346257370003514,009,001,2019_May_08_1412,MusicAffectPsychophysiology2019,3.0.5,59.953041899698135,
To what extent did the music make you feel ,SCARED,30MonoWAV/30MonoH1.wav,2,2,1,5,,,,,0,2,2,4,0,7,7,11,,,,,,,,,1,1.0353381579998313,009,001,2019_May_08_1412,MusicAffectPsychophysiology2019,3.0.5,59.953041899698135,
To what extent did the music make you feel ,HAPPY,30MonoWAV/30MonoH1.wav,2,2,1,5,,,,,0,2,2,4,0,8,8,6,,,,,,,,,3,3.3836667059995307,009,001,2019_May_08_1412,MusicAffectPsychophysiology2019,3.0.5,59.953041899698135,
To what extent did the music make you feel ,ACTIVE,30MonoWAV/30MonoH1.wav,2,2,1,5,,,,,0,2,2,4,0,9,9,9,,,,,,,,,4,2.149983680999867,009,001,2019_May_08_1412,MusicAffectPsychophysiology2019,3.0.5,59.953041899698135,
To what extent did the music make you feel ,TENDER,30MonoWAV/30MonoH1.wav,2,2,1,5,,,,,0,2,2,4,0,10,10,10,,,,,,,,,2,2.9338422149994585,009,001,2019_May_08_1412,MusicAffectPsychophysiology2019,3.0.5,59.953041899698135,
To what extent did the music make you feel ,FRUSTRATED,30MonoWAV/30MonoH1.wav,2,2,1,5,,,,,0,2,2,4,0,11,11,3,,,,,,,,,1,1.8848354890005794,009,001,2019_May_08_1412,MusicAffectPsychophysiology2019,3.0.5,59.953041899698135,
,,30MonoWAV/30MonoH1.wav,2,2,1,5,,,,,0,2,2,4,,,,,,,,,,,,,,,009,001,2019_May_08_1412,MusicAffectPsychophysiology2019,3.0.5,59.953041899698135,
To what extent did the music make you feel ,HAPPY,30MonoWAV/30MonoF2.wav,1,2,2,2,,,,,0,3,3,1,0,0,0,6,,,4,3.7674067750003815,1,4.283141631000035,,,1,1.9362192139997205,009,001,2019_May_08_1412,MusicAffectPsychophysiology2019,3.0.5,59.953041899698135,
To what extent did the music make you feel ,SAD,30MonoWAV/30MonoF2.wav,1,2,2,2,,,,,0,3,3,1,0,1,1,0,,,,,,,,,1,1.951349413000571,009,001,2019_May_08_1412,MusicAffectPsychophysiology2019,3.0.5,59.953041899698135,
To what extent did the music make you feel ,GUILTY,30MonoWAV/30MonoF2.wav,1,2,2,2,,,,,0,3,3,1,0,2,2,5,,,,,,,,,1,0.9017773599998691,009,001,2019_May_08_1412,MusicAffectPsychophysiology2019,3.0.5,59.953041899698135,
To what extent did the music make you feel ,EXCITED,30MonoWAV/30MonoF2.wav,1,2,2,2,,,,,0,3,3,1,0,3,3,7,,,,,,,,,2,3.901795476999723,009,001,2019_May_08_1412,MusicAffectPsychophysiology2019,3.0.5,59.953041899698135,
To what extent did the music make you feel ,ALERT,30MonoWAV/30MonoF2.wav,1,2,2,2,,,,,0,3,3,1,0,4,4,8,,,,,,,,,5,2.7682020490001378,009,001,2019_May_08_1412,MusicAffectPsychophysiology2019,3.0.5,59.953041899698135,
To what extent did the music make you feel ,ACTIVE,30MonoWAV/30MonoF2.wav,1,2,2,2,,,,,0,3,3,1,0,5,5,9,,,,,,,,,3,2.882687389000239,009,001,2019_May_08_1412,MusicAffectPsychophysiology2019,3.0.5,59.953041899698135,
To what extent did the music make you feel ,FRUSTRATED,30MonoWAV/30MonoF2.wav,1,2,2,2,,,,,0,3,3,1,0,6,6,3,,,,,,,,,5,2.383139594999193,009,001,2019_May_08_1412,MusicAffectPsychophysiology2019,3.0.5,59.953041899698135,
To what extent did the music make you feel ,TENDER,30MonoWAV/30MonoF2.wav,1,2,2,2,,,,,0,3,3,1,0,7,7,10,,,,,,,,,2,1.7846682390008937,009,001,2019_May_08_1412,MusicAffectPsychophysiology2019,3.0.5,59.953041899698135,
To what extent did the music make you feel ,SCARED,30MonoWAV/30MonoF2.wav,1,2,2,2,,,,,0,3,3,1,0,8,8,11,,,,,,,,,5,1.5854855500001577,009,001,2019_May_08_1412,MusicAffectPsychophysiology2019,3.0.5,59.953041899698135,
To what extent did the music make you feel ,ANGRY,30MonoWAV/30MonoF2.wav,1,2,2,2,,,,,0,3,3,1,0,9,9,2,,,,,,,,,1,2.135555411000496,009,001,2019_May_08_1412,MusicAffectPsychophysiology2019,3.0.5,59.953041899698135,
To what extent did the music make you feel ,ANXIOUS ,30MonoWAV/30MonoF2.wav,1,2,2,2,,,,,0,3,3,1,0,10,10,1,,,,,,,,,5,1.718266219000725,009,001,2019_May_08_1412,MusicAffectPsychophysiology2019,3.0.5,59.953041899698135,
To what extent did the music make you feel ,ASHAMED,30MonoWAV/30MonoF2.wav,1,2,2,2,,,,,0,3,3,1,0,11,11,4,,,,,,,,,1,1.3681316069996683,009,001,2019_May_08_1412,MusicAffectPsychophysiology2019,3.0.5,59.953041899698135,
,,30MonoWAV/30MonoF2.wav,1,2,2,2,,,,,0,3,3,1,,,,,,,,,,,,,,,009,001,2019_May_08_1412,MusicAffectPsychophysiology2019,3.0.5,59.953041899698135,
To what extent did the music make you feel ,ANXIOUS ,30MonoWAV/30MonoH3.wav,2,2,1,7,,,,,0,4,4,6,0,0,0,1,,,3,4.601498673000606,4,2.351405679999516,,,1,1.834951808000369,009,001,2019_May_08_1412,MusicAffectPsychophysiology2019,3.0.5,59.953041899698135,
To what extent did the music make you feel ,FRUSTRATED,30MonoWAV/30MonoH3.wav,2,2,1,7,,,,,0,4,4,6,0,1,1,3,,,,,,,,,1,1.0353643130001728,009,001,2019_May_08_1412,MusicAffectPsychophysiology2019,3.0.5,59.953041899698135,
To what extent did the music make you feel ,ACTIVE,30MonoWAV/30MonoH3.wav,2,2,1,7,,,,,0,4,4,6,0,2,2,9,,,,,,,,,4,2.6348821199999293,009,001,2019_May_08_1412,MusicAffectPsychophysiology2019,3.0.5,59.953041899698135,
To what extent did the music make you feel ,GUILTY,30MonoWAV/30MonoH3.wav,2,2,1,7,,,,,0,4,4,6,0,3,3,5,,,,,,,,,1,1.035086828999738,009,001,2019_May_08_1412,MusicAffectPsychophysiology2019,3.0.5,59.953041899698135,
To what extent did the music make you feel ,ANGRY,30MonoWAV/30MonoH3.wav,2,2,1,7,,,,,0,4,4,6,0,4,4,2,,,,,,,,,1,1.018099988999893,009,001,2019_May_08_1412,MusicAffectPsychophysiology2019,3.0.5,59.953041899698135,
To what extent did the music make you feel ,EXCITED,30MonoWAV/30MonoH3.wav,2,2,1,7,,,,,0,4,4,6,0,5,5,7,,,,,,,,,4,1.9853331559997969,009,001,2019_May_08_1412,MusicAffectPsychophysiology2019,3.0.5,59.953041899698135,
To what extent did the music make you feel ,ASHAMED,30MonoWAV/30MonoH3.wav,2,2,1,7,,,,,0,4,4,6,0,6,6,4,,,,,,,,,1,1.0346337259998108,009,001,2019_May_08_1412,MusicAffectPsychophysiology2019,3.0.5,59.953041899698135,
To what extent did the music make you feel ,SAD,30MonoWAV/30MonoH3.wav,2,2,1,7,,,,,0,4,4,6,0,7,7,0,,,,,,,,,1,1.3185096100005467,009,001,2019_May_08_1412,MusicAffectPsychophysiology2019,3.0.5,59.953041899698135,
To what extent did the music make you feel ,SCARED,30MonoWAV/30MonoH3.wav,2,2,1,7,,,,,0,4,4,6,0,8,8,11,,,,,,,,,1,1.2680172549999043,009,001,2019_May_08_1412,MusicAffectPsychophysiology2019,3.0.5,59.953041899698135,
To what extent did the music make you feel ,TENDER,30MonoWAV/30MonoH3.wav,2,2,1,7,,,,,0,4,4,6,0,9,9,10,,,,,,,,,2,2.0024042280001595,009,001,2019_May_08_1412,MusicAffectPsychophysiology2019,3.0.5,59.953041899698135,
To what extent did the music make you feel ,ALERT,30MonoWAV/30MonoH3.wav,2,2,1,7,,,,,0,4,4,6,0,10,10,8,,,,,,,,,1,2.7847123139999894,009,001,2019_May_08_1412,MusicAffectPsychophysiology2019,3.0.5,59.953041899698135,
To what extent did the music make you feel ,HAPPY,30MonoWAV/30MonoH3.wav,2,2,1,7,,,,,0,4,4,6,0,11,11,6,,,,,,,,,5,2.3854712160000417,009,001,2019_May_08_1412,MusicAffectPsychophysiology2019,3.0.5,59.953041899698135,
,,30MonoWAV/30MonoH3.wav,2,2,1,7,,,,,0,4,4,6,,,,,,,,,,,,,,,009,001,2019_May_08_1412,MusicAffectPsychophysiology2019,3.0.5,59.953041899698135,
To what extent did the music make you feel ,SCARED,30MonoWAV/30MonoS3.wav,1,1,3,11,,,,,0,5,5,10,0,0,0,11,,,1,3.2857205400005114,2,3.1177536229997713,,,1,2.0353632679998555,009,001,2019_May_08_1412,MusicAffectPsychophysiology2019,3.0.5,59.953041899698135,
To what extent did the music make you feel ,ANXIOUS ,30MonoWAV/30MonoS3.wav,1,1,3,11,,,,,0,5,5,10,0,1,1,1,,,,,,,,,1,2.4019458649991066,009,001,2019_May_08_1412,MusicAffectPsychophysiology2019,3.0.5,59.953041899698135,
To what extent did the music make you feel ,ALERT,30MonoWAV/30MonoS3.wav,1,1,3,11,,,,,0,5,5,10,0,2,2,8,,,,,,,,,1,0.8515943230004268,009,001,2019_May_08_1412,MusicAffectPsychophysiology2019,3.0.5,59.953041899698135,
To what extent did the music make you feel ,TENDER,30MonoWAV/30MonoS3.wav,1,1,3,11,,,,,0,5,5,10,0,3,3,10,,,,,,,,,3,2.4688464350001595,009,001,2019_May_08_1412,MusicAffectPsychophysiology2019,3.0.5,59.953041899698135,
To what extent did the music make you feel ,FRUSTRATED,30MonoWAV/30MonoS3.wav,1,1,3,11,,,,,0,5,5,10,0,4,4,3,,,,,,,,,1,1.7008739129996684,009,001,2019_May_08_1412,MusicAffectPsychophysiology2019,3.0.5,59.953041899698135,
To what extent did the music make you feel ,GUILTY,30MonoWAV/30MonoS3.wav,1,1,3,11,,,,,0,5,5,10,0,5,5,5,,,,,,,,,1,1.0517311849998805,009,001,2019_May_08_1412,MusicAffectPsychophysiology2019,3.0.5,59.953041899698135,
To what extent did the music make you feel ,ACTIVE,30MonoWAV/30MonoS3.wav,1,1,3,11,,,,,0,5,5,10,0,6,6,9,,,,,,,,,1,1.6694224869997925,009,001,2019_May_08_1412,MusicAffectPsychophysiology2019,3.0.5,59.953041899698135,
To what extent did the music make you feel ,ANGRY,30MonoWAV/30MonoS3.wav,1,1,3,11,,,,,0,5,5,10,0,7,7,2,,,,,,,,,1,1.3017491310001787,009,001,2019_May_08_1412,MusicAffectPsychophysiology2019,3.0.5,59.953041899698135,
To what extent did the music make you feel ,SAD,30MonoWAV/30MonoS3.wav,1,1,3,11,,,,,0,5,5,10,0,8,8,0,,,,,,,,,4,1.7503162530001646,009,001,2019_May_08_1412,MusicAffectPsychophysiology2019,3.0.5,59.953041899698135,
To what extent did the music make you feel ,HAPPY,30MonoWAV/30MonoS3.wav,1,1,3,11,,,,,0,5,5,10,0,9,9,6,,,,,,,,,1,1.3681742489998214,009,001,2019_May_08_1412,MusicAffectPsychophysiology2019,3.0.5,59.953041899698135,
To what extent did the music make you feel ,EXCITED,30MonoWAV/30MonoS3.wav,1,1,3,11,,,,,0,5,5,10,0,10,10,7,,,,,,,,,1,1.5518590929996208,009,001,2019_May_08_1412,MusicAffectPsychophysiology2019,3.0.5,59.953041899698135,
To what extent did the music make you feel ,ASHAMED,30MonoWAV/30MonoS3.wav,1,1,3,11,,,,,0,5,5,10,0,11,11,4,,,,,,,,,1,1.318438535999121,009,001,2019_May_08_1412,MusicAffectPsychophysiology2019,3.0.5,59.953041899698135,
,,30MonoWAV/30MonoS3.wav,1,1,3,11,,,,,0,5,5,10,,,,,,,,,,,,,,,009,001,2019_May_08_1412,MusicAffectPsychophysiology2019,3.0.5,59.953041899698135,
To what extent did the music make you feel ,ASHAMED,30MonoWAV/30MonoF3.wav,1,2,2,3,,,,,0,6,6,2,0,0,0,4,,,4,3.8191396409993104,3,2.668031847000748,,,1,1.4858210240008702,009,001,2019_May_08_1412,MusicAffectPsychophysiology2019,3.0.5,59.953041899698135,
To what extent did the music make you feel ,SAD,30MonoWAV/30MonoF3.wav,1,2,2,3,,,,,0,6,6,2,0,1,1,0,,,,,,,,,1,1.2195109690001118,009,001,2019_May_08_1412,MusicAffectPsychophysiology2019,3.0.5,59.953041899698135,
To what extent did the music make you feel ,ANGRY,30MonoWAV/30MonoF3.wav,1,2,2,3,,,,,0,6,6,2,0,2,2,2,,,,,,,,,1,1.5016057640004874,009,001,2019_May_08_1412,MusicAffectPsychophysiology2019,3.0.5,59.953041899698135,
To what extent did the music make you feel ,FRUSTRATED,30MonoWAV/30MonoF3.wav,1,2,2,3,,,,,0,6,6,2,0,3,3,3,,,,,,,,,4,1.9523398270002872,009,001,2019_May_08_1412,MusicAffectPsychophysiology2019,3.0.5,59.953041899698135,
To what extent did the music make you feel ,ACTIVE,30MonoWAV/30MonoF3.wav,1,2,2,3,,,,,0,6,6,2,0,4,4,9,,,,,,,,,4,1.5180825960005677,009,001,2019_May_08_1412,MusicAffectPsychophysiology2019,3.0.5,59.953041899698135,
To what extent did the music make you feel ,ALERT,30MonoWAV/30MonoF3.wav,1,2,2,3,,,,,0,6,6,2,0,5,5,8,,,,,,,,,5,1.3342769270002464,009,001,2019_May_08_1412,MusicAffectPsychophysiology2019,3.0.5,59.953041899698135,
To what extent did the music make you feel ,TENDER,30MonoWAV/30MonoF3.wav,1,2,2,3,,,,,0,6,6,2,0,6,6,10,,,,,,,,,1,2.1188123849997282,009,001,2019_May_08_1412,MusicAffectPsychophysiology2019,3.0.5,59.953041899698135,
To what extent did the music make you feel ,ANXIOUS ,30MonoWAV/30MonoF3.wav,1,2,2,3,,,,,0,6,6,2,0,7,7,1,,,,,,,,,4,2.2849800029998732,009,001,2019_May_08_1412,MusicAffectPsychophysiology2019,3.0.5,59.953041899698135,
To what extent did the music make you feel ,HAPPY,30MonoWAV/30MonoF3.wav,1,2,2,3,,,,,0,6,6,2,0,8,8,6,,,,,,,,,3,2.368015930999718,009,001,2019_May_08_1412,MusicAffectPsychophysiology2019,3.0.5,59.953041899698135,
To what extent did the music make you feel ,SCARED,30MonoWAV/30MonoF3.wav,1,2,2,3,,,,,0,6,6,2,0,9,9,11,,,,,,,,,1,2.1010929839994787,009,001,2019_May_08_1412,MusicAffectPsychophysiology2019,3.0.5,59.953041899698135,
To what extent did the music make you feel ,EXCITED,30MonoWAV/30MonoF3.wav,1,2,2,3,,,,,0,6,6,2,0,10,10,7,,,,,,,,,3,3.7175685259999227,009,001,2019_May_08_1412,MusicAffectPsychophysiology2019,3.0.5,59.953041899698135,
To what extent did the music make you feel ,GUILTY,30MonoWAV/30MonoF3.wav,1,2,2,3,,,,,0,6,6,2,0,11,11,5,,,,,,,,,1,1.0009221029995388,009,001,2019_May_08_1412,MusicAffectPsychophysiology2019,3.0.5,59.953041899698135,
,,30MonoWAV/30MonoF3.wav,1,2,2,3,,,,,0,6,6,2,,,,,,,,,,,,,,,009,001,2019_May_08_1412,MusicAffectPsychophysiology2019,3.0.5,59.953041899698135,
To what extent did the music make you feel ,EXCITED,30MonoWAV/30MonoS2.wav,1,1,3,10,,,,,0,7,7,9,0,0,0,7,,,1,3.155817759999991,2,2.6890804459999345,,,1,1.5372491719999744,009,001,2019_May_08_1412,MusicAffectPsychophysiology2019,3.0.5,59.953041899698135,
To what extent did the music make you feel ,ASHAMED,30MonoWAV/30MonoS2.wav,1,1,3,10,,,,,0,7,7,9,0,1,1,4,,,,,,,,,1,0.7536606089997804,009,001,2019_May_08_1412,MusicAffectPsychophysiology2019,3.0.5,59.953041899698135,
To what extent did the music make you feel ,FRUSTRATED,30MonoWAV/30MonoS2.wav,1,1,3,10,,,,,0,7,7,9,0,2,2,3,,,,,,,,,1,1.1680836980003733,009,001,2019_May_08_1412,MusicAffectPsychophysiology2019,3.0.5,59.953041899698135,
To what extent did the music make you feel ,SCARED,30MonoWAV/30MonoS2.wav,1,1,3,10,,,,,0,7,7,9,0,3,3,11,,,,,,,,,1,0.8875580369995077,009,001,2019_May_08_1412,MusicAffectPsychophysiology2019,3.0.5,59.953041899698135,
To what extent did the music make you feel ,TENDER,30MonoWAV/30MonoS2.wav,1,1,3,10,,,,,0,7,7,9,0,4,4,10,,,,,,,,,4,2.165484249999281,009,001,2019_May_08_1412,MusicAffectPsychophysiology2019,3.0.5,59.953041899698135,
To what extent did the music make you feel ,ALERT,30MonoWAV/30MonoS2.wav,1,1,3,10,,,,,0,7,7,9,0,5,5,8,,,,,,,,,1,1.7355918129997008,009,001,2019_May_08_1412,MusicAffectPsychophysiology2019,3.0.5,59.953041899698135,
To what extent did the music make you feel ,ANGRY,30MonoWAV/30MonoS2.wav,1,1,3,10,,,,,0,7,7,9,0,6,6,2,,,,,,,,,1,1.1350356450002437,009,001,2019_May_08_1412,MusicAffectPsychophysiology2019,3.0.5,59.953041899698135,
To what extent did the music make you feel ,HAPPY,30MonoWAV/30MonoS2.wav,1,1,3,10,,,,,0,7,7,9,0,7,7,6,,,,,,,,,2,3.20224208000036,009,001,2019_May_08_1412,MusicAffectPsychophysiology2019,3.0.5,59.953041899698135,
To what extent did the music make you feel ,SAD,30MonoWAV/30MonoS2.wav,1,1,3,10,,,,,0,7,7,9,0,8,8,0,,,,,,,,,4,3.601077518999773,009,001,2019_May_08_1412,MusicAffectPsychophysiology2019,3.0.5,59.953041899698135,
To what extent did the music make you feel ,ACTIVE,30MonoWAV/30MonoS2.wav,1,1,3,10,,,,,0,7,7,9,0,9,9,9,,,,,,,,,1,1.9177954850001697,009,001,2019_May_08_1412,MusicAffectPsychophysiology2019,3.0.5,59.953041899698135,
To what extent did the music make you feel ,ANXIOUS ,30MonoWAV/30MonoS2.wav,1,1,3,10,,,,,0,7,7,9,0,10,10,1,,,,,,,,,1,1.0844349489998422,009,001,2019_May_08_1412,MusicAffectPsychophysiology2019,3.0.5,59.953041899698135,
To what extent did the music make you feel ,GUILTY,30MonoWAV/30MonoS2.wav,1,1,3,10,,,,,0,7,7,9,0,11,11,5,,,,,,,,,1,2.1999122740007806,009,001,2019_May_08_1412,MusicAffectPsychophysiology2019,3.0.5,59.953041899698135,
,,30MonoWAV/30MonoS2.wav,1,1,3,10,,,,,0,7,7,9,,,,,,,,,,,,,,,009,001,2019_May_08_1412,MusicAffectPsychophysiology2019,3.0.5,59.953041899698135,
To what extent did the music make you feel ,ALERT,30MonoWAV/30MonoS4.wav,1,1,3,12,,,,,0,8,8,11,0,0,0,8,,,2,8.917909334000797,2,5.683854531000179,,,1,3.818188707000445,009,001,2019_May_08_1412,MusicAffectPsychophysiology2019,3.0.5,59.953041899698135,
To what extent did the music make you feel ,ANXIOUS ,30MonoWAV/30MonoS4.wav,1,1,3,12,,,,,0,8,8,11,0,1,1,1,,,,,,,,,1,4.217573430999437,009,001,2019_May_08_1412,MusicAffectPsychophysiology2019,3.0.5,59.953041899698135,
To what extent did the music make you feel ,TENDER,30MonoWAV/30MonoS4.wav,1,1,3,12,,,,,0,8,8,11,0,2,2,10,,,,,,,,,5,3.533837410999695,009,001,2019_May_08_1412,MusicAffectPsychophysiology2019,3.0.5,59.953041899698135,
To what extent did the music make you feel ,ACTIVE,30MonoWAV/30MonoS4.wav,1,1,3,12,,,,,0,8,8,11,0,3,3,9,,,,,,,,,1,1.686101762999897,009,001,2019_May_08_1412,MusicAffectPsychophysiology2019,3.0.5,59.953041899698135,
To what extent did the music make you feel ,EXCITED,30MonoWAV/30MonoS4.wav,1,1,3,12,,,,,0,8,8,11,0,4,4,7,,,,,,,,,2,2.4678417230006744,009,001,2019_May_08_1412,MusicAffectPsychophysiology2019,3.0.5,59.953041899698135,
To what extent did the music make you feel ,SAD,30MonoWAV/30MonoS4.wav,1,1,3,12,,,,,0,8,8,11,0,5,5,0,,,,,,,,,5,1.983709252999688,009,001,2019_May_08_1412,MusicAffectPsychophysiology2019,3.0.5,59.953041899698135,
To what extent did the music make you feel ,SCARED,30MonoWAV/30MonoS4.wav,1,1,3,12,,,,,0,8,8,11,0,6,6,11,,,,,,,,,1,1.4851162470004056,009,001,2019_May_08_1412,MusicAffectPsychophysiology2019,3.0.5,59.953041899698135,
To what extent did the music make you feel ,HAPPY,30MonoWAV/30MonoS4.wav,1,1,3,12,,,,,0,8,8,11,0,7,7,6,,,,,,,,,1,4.318394216999877,009,001,2019_May_08_1412,MusicAffectPsychophysiology2019,3.0.5,59.953041899698135,
To what extent did the music make you feel ,FRUSTRATED,30MonoWAV/30MonoS4.wav,1,1,3,12,,,,,0,8,8,11,0,8,8,3,,,,,,,,,1,1.052662918000351,009,001,2019_May_08_1412,MusicAffectPsychophysiology2019,3.0.5,59.953041899698135,
To what extent did the music make you feel ,GUILTY,30MonoWAV/30MonoS4.wav,1,1,3,12,,,,,0,8,8,11,0,9,9,5,,,,,,,,,4,3.0520425929998964,009,001,2019_May_08_1412,MusicAffectPsychophysiology2019,3.0.5,59.953041899698135,
To what extent did the music make you feel ,ASHAMED,30MonoWAV/30MonoS4.wav,1,1,3,12,,,,,0,8,8,11,0,10,10,4,,,,,,,,,4,4.102279043000635,009,001,2019_May_08_1412,MusicAffectPsychophysiology2019,3.0.5,59.953041899698135,
To what extent did the music make you feel ,ANGRY,30MonoWAV/30MonoS4.wav,1,1,3,12,,,,,0,8,8,11,0,11,11,2,,,,,,,,,1,1.0846773349994692,009,001,2019_May_08_1412,MusicAffectPsychophysiology2019,3.0.5,59.953041899698135,
,,30MonoWAV/30MonoS4.wav,1,1,3,12,,,,,0,8,8,11,,,,,,,,,,,,,,,009,001,2019_May_08_1412,MusicAffectPsychophysiology2019,3.0.5,59.953041899698135,
To what extent did the music make you feel ,EXCITED,30MonoWAV/30MonoF1.wav,1,2,2,1,,,,,0,9,9,0,0,0,0,7,,,3,4.701630128999568,2,4.918252329000097,,,3,3.703079412000079,009,001,2019_May_08_1412,MusicAffectPsychophysiology2019,3.0.5,59.953041899698135,
To what extent did the music make you feel ,GUILTY,30MonoWAV/30MonoF1.wav,1,2,2,1,,,,,0,9,9,0,0,1,1,5,,,,,,,,,1,1.3355003470005613,009,001,2019_May_08_1412,MusicAffectPsychophysiology2019,3.0.5,59.953041899698135,
To what extent did the music make you feel ,ANXIOUS ,30MonoWAV/30MonoF1.wav,1,2,2,1,,,,,0,9,9,0,0,2,2,1,,,,,,,,,4,1.7512938199997734,009,001,2019_May_08_1412,MusicAffectPsychophysiology2019,3.0.5,59.953041899698135,
To what extent did the music make you feel ,SCARED,30MonoWAV/30MonoF1.wav,1,2,2,1,,,,,0,9,9,0,0,3,3,11,,,,,,,,,4,2.7194014510005218,009,001,2019_May_08_1412,MusicAffectPsychophysiology2019,3.0.5,59.953041899698135,
To what extent did the music make you feel ,HAPPY,30MonoWAV/30MonoF1.wav,1,2,2,1,,,,,0,9,9,0,0,4,4,6,,,,,,,,,1,1.6508421200005614,009,001,2019_May_08_1412,MusicAffectPsychophysiology2019,3.0.5,59.953041899698135,
To what extent did the music make you feel ,SAD,30MonoWAV/30MonoF1.wav,1,2,2,1,,,,,0,9,9,0,0,5,5,0,,,,,,,,,1,1.2348979859998508,009,001,2019_May_08_1412,MusicAffectPsychophysiology2019,3.0.5,59.953041899698135,
To what extent did the music make you feel ,ACTIVE,30MonoWAV/30MonoF1.wav,1,2,2,1,,,,,0,9,9,0,0,6,6,9,,,,,,,,,3,4.784000851000201,009,001,2019_May_08_1412,MusicAffectPsychophysiology2019,3.0.5,59.953041899698135,
To what extent did the music make you feel ,ASHAMED,30MonoWAV/30MonoF1.wav,1,2,2,1,,,,,0,9,9,0,0,7,7,4,,,,,,,,,1,1.235346522999862,009,001,2019_May_08_1412,MusicAffectPsychophysiology2019,3.0.5,59.953041899698135,
To what extent did the music make you feel ,ALERT,30MonoWAV/30MonoF1.wav,1,2,2,1,,,,,0,9,9,0,0,8,8,8,,,,,,,,,5,1.5180740240002706,009,001,2019_May_08_1412,MusicAffectPsychophysiology2019,3.0.5,59.953041899698135,
To what extent did the music make you feel ,FRUSTRATED,30MonoWAV/30MonoF1.wav,1,2,2,1,,,,,0,9,9,0,0,9,9,3,,,,,,,,,4,1.8656391160002386,009,001,2019_May_08_1412,MusicAffectPsychophysiology2019,3.0.5,59.953041899698135,
To what extent did the music make you feel ,TENDER,30MonoWAV/30MonoF1.wav,1,2,2,1,,,,,0,9,9,0,0,10,10,10,,,,,,,,,1,1.1844086800001605,009,001,2019_May_08_1412,MusicAffectPsychophysiology2019,3.0.5,59.953041899698135,
To what extent did the music make you feel ,ANGRY,30MonoWAV/30MonoF1.wav,1,2,2,1,,,,,0,9,9,0,0,11,11,2,,,,,,,,,1,2.0686086599998816,009,001,2019_May_08_1412,MusicAffectPsychophysiology2019,3.0.5,59.953041899698135,
,,30MonoWAV/30MonoF1.wav,1,2,2,1,,,,,0,9,9,0,,,,,,,,,,,,,,,009,001,2019_May_08_1412,MusicAffectPsychophysiology2019,3.0.5,59.953041899698135,
To what extent did the music make you feel ,SCARED,30MonoWAV/30MonoT3.wav,2,1,4,15,,,,,0,10,10,14,0,0,0,11,,,3,3.1854532400002427,5,1.8015940650002449,,,1,1.4622325189993717,009,001,2019_May_08_1412,MusicAffectPsychophysiology2019,3.0.5,59.953041899698135,
To what extent did the music make you feel ,GUILTY,30MonoWAV/30MonoT3.wav,2,1,4,15,,,,,0,10,10,14,0,1,1,5,,,,,,,,,1,1.4181482989997676,009,001,2019_May_08_1412,MusicAffectPsychophysiology2019,3.0.5,59.953041899698135,
To what extent did the music make you feel ,ALERT,30MonoWAV/30MonoT3.wav,2,1,4,15,,,,,0,10,10,14,0,2,2,8,,,,,,,,,3,3.2513257499995234,009,001,2019_May_08_1412,MusicAffectPsychophysiology2019,3.0.5,59.953041899698135,
To what extent did the music make you feel ,ASHAMED,30MonoWAV/30MonoT3.wav,2,1,4,15,,,,,0,10,10,14,0,3,3,4,,,,,,,,,1,1.6675065220006218,009,001,2019_May_08_1412,MusicAffectPsychophysiology2019,3.0.5,59.953041899698135,
To what extent did the music make you feel ,ANGRY,30MonoWAV/30MonoT3.wav,2,1,4,15,,,,,0,10,10,14,0,4,4,2,,,,,,,,,1,0.9511421569995946,009,001,2019_May_08_1412,MusicAffectPsychophysiology2019,3.0.5,59.953041899698135,
To what extent did the music make you feel ,SAD,30MonoWAV/30MonoT3.wav,2,1,4,15,,,,,0,10,10,14,0,5,5,0,,,,,,,,,1,1.4023646209998333,009,001,2019_May_08_1412,MusicAffectPsychophysiology2019,3.0.5,59.953041899698135,
To what extent did the music make you feel ,ANXIOUS ,30MonoWAV/30MonoT3.wav,2,1,4,15,,,,,0,10,10,14,0,6,6,1,,,,,,,,,1,1.1852878639992923,009,001,2019_May_08_1412,MusicAffectPsychophysiology2019,3.0.5,59.953041899698135,
To what extent did the music make you feel ,ACTIVE,30MonoWAV/30MonoT3.wav,2,1,4,15,,,,,0,10,10,14,0,7,7,9,,,,,,,,,3,2.002105498999299,009,001,2019_May_08_1412,MusicAffectPsychophysiology2019,3.0.5,59.953041899698135,
To what extent did the music make you feel ,HAPPY,30MonoWAV/30MonoT3.wav,2,1,4,15,,,,,0,10,10,14,0,8,8,6,,,,,,,,,5,1.852674205000767,009,001,2019_May_08_1412,MusicAffectPsychophysiology2019,3.0.5,59.953041899698135,
To what extent did the music make you feel ,FRUSTRATED,30MonoWAV/30MonoT3.wav,2,1,4,15,,,,,0,10,10,14,0,9,9,3,,,,,,,,,1,1.3175602019991857,009,001,2019_May_08_1412,MusicAffectPsychophysiology2019,3.0.5,59.953041899698135,
To what extent did the music make you feel ,TENDER,30MonoWAV/30MonoT3.wav,2,1,4,15,,,,,0,10,10,14,0,10,10,10,,,,,,,,,4,1.3519235139992816,009,001,2019_May_08_1412,MusicAffectPsychophysiology2019,3.0.5,59.953041899698135,
To what extent did the music make you feel ,EXCITED,30MonoWAV/30MonoT3.wav,2,1,4,15,,,,,0,10,10,14,0,11,11,7,,,,,,,,,3,1.885246756000015,009,001,2019_May_08_1412,MusicAffectPsychophysiology2019,3.0.5,59.953041899698135,
,,30MonoWAV/30MonoT3.wav,2,1,4,15,,,,,0,10,10,14,,,,,,,,,,,,,,,009,001,2019_May_08_1412,MusicAffectPsychophysiology2019,3.0.5,59.953041899698135,
To what extent did the music make you feel ,SCARED,30MonoWAV/30MonoF4.wav,1,2,2,4,,,,,0,11,11,3,0,0,0,11,,,3,2.9519340679999004,2,1.9682580230000895,,,2,3.935280812000201,009,001,2019_May_08_1412,MusicAffectPsychophysiology2019,3.0.5,59.953041899698135,
To what extent did the music make you feel ,EXCITED,30MonoWAV/30MonoF4.wav,1,2,2,4,,,,,0,11,11,3,0,1,1,7,,,,,,,,,1,2.2000685020002493,009,001,2019_May_08_1412,MusicAffectPsychophysiology2019,3.0.5,59.953041899698135,
To what extent did the music make you feel ,ASHAMED,30MonoWAV/30MonoF4.wav,1,2,2,4,,,,,0,11,11,3,0,2,2,4,,,,,,,,,1,0.8684871689993088,009,001,2019_May_08_1412,MusicAffectPsychophysiology2019,3.0.5,59.953041899698135,
To what extent did the music make you feel ,ALERT,30MonoWAV/30MonoF4.wav,1,2,2,4,,,,,0,11,11,3,0,3,3,8,,,,,,,,,5,2.3684574910002993,009,001,2019_May_08_1412,MusicAffectPsychophysiology2019,3.0.5,59.953041899698135,
To what extent did the music make you feel ,FRUSTRATED,30MonoWAV/30MonoF4.wav,1,2,2,4,,,,,0,11,11,3,0,4,4,3,,,,,,,,,1,2.3679412459996456,009,001,2019_May_08_1412,MusicAffectPsychophysiology2019,3.0.5,59.953041899698135,
To what extent did the music make you feel ,ANGRY,30MonoWAV/30MonoF4.wav,1,2,2,4,,,,,0,11,11,3,0,5,5,2,,,,,,,,,2,2.4350431779994324,009,001,2019_May_08_1412,MusicAffectPsychophysiology2019,3.0.5,59.953041899698135,
To what extent did the music make you feel ,GUILTY,30MonoWAV/30MonoF4.wav,1,2,2,4,,,,,0,11,11,3,0,6,6,5,,,,,,,,,1,1.1017744979999406,009,001,2019_May_08_1412,MusicAffectPsychophysiology2019,3.0.5,59.953041899698135,
To what extent did the music make you feel ,TENDER,30MonoWAV/30MonoF4.wav,1,2,2,4,,,,,0,11,11,3,0,7,7,10,,,,,,,,,1,1.3008241050001743,009,001,2019_May_08_1412,MusicAffectPsychophysiology2019,3.0.5,59.953041899698135,
To what extent did the music make you feel ,SAD,30MonoWAV/30MonoF4.wav,1,2,2,4,,,,,0,11,11,3,0,8,8,0,,,,,,,,,3,2.5346518299993477,009,001,2019_May_08_1412,MusicAffectPsychophysiology2019,3.0.5,59.953041899698135,
To what extent did the music make you feel ,HAPPY,30MonoWAV/30MonoF4.wav,1,2,2,4,,,,,0,11,11,3,0,9,9,6,,,,,,,,,1,3.8009853069997916,009,001,2019_May_08_1412,MusicAffectPsychophysiology2019,3.0.5,59.953041899698135,
To what extent did the music make you feel ,ACTIVE,30MonoWAV/30MonoF4.wav,1,2,2,4,,,,,0,11,11,3,0,10,10,9,,,,,,,,,3,1.9856380150004043,009,001,2019_May_08_1412,MusicAffectPsychophysiology2019,3.0.5,59.953041899698135,
To what extent did the music make you feel ,ANXIOUS ,30MonoWAV/30MonoF4.wav,1,2,2,4,,,,,0,11,11,3,0,11,11,1,,,,,,,,,5,1.7176830739999787,009,001,2019_May_08_1412,MusicAffectPsychophysiology2019,3.0.5,59.953041899698135,
,,30MonoWAV/30MonoF4.wav,1,2,2,4,,,,,0,11,11,3,,,,,,,,,,,,,,,009,001,2019_May_08_1412,MusicAffectPsychophysiology2019,3.0.5,59.953041899698135,
To what extent did the music make you feel ,TENDER,30MonoWAV/30MonoH2.wav,2,2,1,6,,,,,0,12,12,5,0,0,0,10,,,4,3.0898297810008444,3,3.1699064889999136,,,1,1.7667011499997898,009,001,2019_May_08_1412,MusicAffectPsychophysiology2019,3.0.5,59.953041899698135,
To what extent did the music make you feel ,ACTIVE,30MonoWAV/30MonoH2.wav,2,2,1,6,,,,,0,12,12,5,0,1,1,9,,,,,,,,,4,2.6343033049997757,009,001,2019_May_08_1412,MusicAffectPsychophysiology2019,3.0.5,59.953041899698135,
To what extent did the music make you feel ,ANXIOUS ,30MonoWAV/30MonoH2.wav,2,2,1,6,,,,,0,12,12,5,0,2,2,1,,,,,,,,,2,3.915820669999448,009,001,2019_May_08_1412,MusicAffectPsychophysiology2019,3.0.5,59.953041899698135,
To what extent did the music make you feel ,ASHAMED,30MonoWAV/30MonoH2.wav,2,2,1,6,,,,,0,12,12,5,0,3,3,4,,,,,,,,,1,1.0183897480001178,009,001,2019_May_08_1412,MusicAffectPsychophysiology2019,3.0.5,59.953041899698135,
To what extent did the music make you feel ,HAPPY,30MonoWAV/30MonoH2.wav,2,2,1,6,,,,,0,12,12,5,0,4,4,6,,,,,,,,,3,2.0687269589998323,009,001,2019_May_08_1412,MusicAffectPsychophysiology2019,3.0.5,59.953041899698135,
To what extent did the music make you feel ,FRUSTRATED,30MonoWAV/30MonoH2.wav,2,2,1,6,,,,,0,12,12,5,0,5,5,3,,,,,,,,,1,1.3687129419995472,009,001,2019_May_08_1412,MusicAffectPsychophysiology2019,3.0.5,59.953041899698135,
To what extent did the music make you feel ,EXCITED,30MonoWAV/30MonoH2.wav,2,2,1,6,,,,,0,12,12,5,0,6,6,7,,,,,,,,,5,2.16879583500031,009,001,2019_May_08_1412,MusicAffectPsychophysiology2019,3.0.5,59.953041899698135,
To what extent did the music make you feel ,SAD,30MonoWAV/30MonoH2.wav,2,2,1,6,,,,,0,12,12,5,0,7,7,0,,,,,,,,,1,1.235153043999162,009,001,2019_May_08_1412,MusicAffectPsychophysiology2019,3.0.5,59.953041899698135,
To what extent did the music make you feel ,GUILTY,30MonoWAV/30MonoH2.wav,2,2,1,6,,,,,0,12,12,5,0,8,8,5,,,,,,,,,1,1.0689390480001748,009,001,2019_May_08_1412,MusicAffectPsychophysiology2019,3.0.5,59.953041899698135,
To what extent did the music make you feel ,SCARED,30MonoWAV/30MonoH2.wav,2,2,1,6,,,,,0,12,12,5,0,9,9,11,,,,,,,,,1,0.9511102659998869,009,001,2019_May_08_1412,MusicAffectPsychophysiology2019,3.0.5,59.953041899698135,
To what extent did the music make you feel ,ANGRY,30MonoWAV/30MonoH2.wav,2,2,1,6,,,,,0,12,12,5,0,10,10,2,,,,,,,,,1,1.5511074410005676,009,001,2019_May_08_1412,MusicAffectPsychophysiology2019,3.0.5,59.953041899698135,
To what extent did the music make you feel ,ALERT,30MonoWAV/30MonoH2.wav,2,2,1,6,,,,,0,12,12,5,0,11,11,8,,,,,,,,,3,1.7362980690004406,009,001,2019_May_08_1412,MusicAffectPsychophysiology2019,3.0.5,59.953041899698135,
,,30MonoWAV/30MonoH2.wav,2,2,1,6,,,,,0,12,12,5,,,,,,,,,,,,,,,009,001,2019_May_08_1412,MusicAffectPsychophysiology2019,3.0.5,59.953041899698135,
To what extent did the music make you feel ,SAD,30MonoWAV/30MonoS1.wav,1,1,3,9,,,,,0,13,13,8,0,0,0,0,,,1,3.0350829249991875,2,2.3353891639999347,,,5,1.8518539730002885,009,001,2019_May_08_1412,MusicAffectPsychophysiology2019,3.0.5,59.953041899698135,
To what extent did the music make you feel ,HAPPY,30MonoWAV/30MonoS1.wav,1,1,3,9,,,,,0,13,13,8,0,1,1,6,,,,,,,,,1,1.7180827000001955,009,001,2019_May_08_1412,MusicAffectPsychophysiology2019,3.0.5,59.953041899698135,
To what extent did the music make you feel ,FRUSTRATED,30MonoWAV/30MonoS1.wav,1,1,3,9,,,,,0,13,13,8,0,2,2,3,,,,,,,,,2,2.9846451390003494,009,001,2019_May_08_1412,MusicAffectPsychophysiology2019,3.0.5,59.953041899698135,
To what extent did the music make you feel ,TENDER,30MonoWAV/30MonoS1.wav,1,1,3,9,,,,,0,13,13,8,0,3,3,10,,,,,,,,,4,2.284395841999867,009,001,2019_May_08_1412,MusicAffectPsychophysiology2019,3.0.5,59.953041899698135,
To what extent did the music make you feel ,ACTIVE,30MonoWAV/30MonoS1.wav,1,1,3,9,,,,,0,13,13,8,0,4,4,9,,,,,,,,,1,1.4184569869994448,009,001,2019_May_08_1412,MusicAffectPsychophysiology2019,3.0.5,59.953041899698135,
To what extent did the music make you feel ,ANGRY,30MonoWAV/30MonoS1.wav,1,1,3,9,,,,,0,13,13,8,0,5,5,2,,,,,,,,,2,2.51818792999984,009,001,2019_May_08_1412,MusicAffectPsychophysiology2019,3.0.5,59.953041899698135,
To what extent did the music make you feel ,SCARED,30MonoWAV/30MonoS1.wav,1,1,3,9,,,,,0,13,13,8,0,6,6,11,,,,,,,,,2,2.018132556000637,009,001,2019_May_08_1412,MusicAffectPsychophysiology2019,3.0.5,59.953041899698135,
To what extent did the music make you feel ,EXCITED,30MonoWAV/30MonoS1.wav,1,1,3,9,,,,,0,13,13,8,0,7,7,7,,,,,,,,,1,1.3359215200007384,009,001,2019_May_08_1412,MusicAffectPsychophysiology2019,3.0.5,59.953041899698135,
To what extent did the music make you feel ,GUILTY,30MonoWAV/30MonoS1.wav,1,1,3,9,,,,,0,13,13,8,0,8,8,5,,,,,,,,,3,1.534868543999437,009,001,2019_May_08_1412,MusicAffectPsychophysiology2019,3.0.5,59.953041899698135,
To what extent did the music make you feel ,ANXIOUS ,30MonoWAV/30MonoS1.wav,1,1,3,9,,,,,0,13,13,8,0,9,9,1,,,,,,,,,1,1.3857495519996519,009,001,2019_May_08_1412,MusicAffectPsychophysiology2019,3.0.5,59.953041899698135,
To what extent did the music make you feel ,ALERT,30MonoWAV/30MonoS1.wav,1,1,3,9,,,,,0,13,13,8,0,10,10,8,,,,,,,,,1,1.6507446570003594,009,001,2019_May_08_1412,MusicAffectPsychophysiology2019,3.0.5,59.953041899698135,
To what extent did the music make you feel ,ASHAMED,30MonoWAV/30MonoS1.wav,1,1,3,9,,,,,0,13,13,8,0,11,11,4,,,,,,,,,2,1.9359601770001973,009,001,2019_May_08_1412,MusicAffectPsychophysiology2019,3.0.5,59.953041899698135,
,,30MonoWAV/30MonoS1.wav,1,1,3,9,,,,,0,13,13,8,,,,,,,,,,,,,,,009,001,2019_May_08_1412,MusicAffectPsychophysiology2019,3.0.5,59.953041899698135,
To what extent did the music make you feel ,TENDER,30MonoWAV/30MonoH4.wav,2,2,1,8,,,,,0,14,14,7,0,0,0,10,,,5,5.151664890000575,4,2.217311503000019,,,2,2.8175940049995916,009,001,2019_May_08_1412,MusicAffectPsychophysiology2019,3.0.5,59.953041899698135,
To what extent did the music make you feel ,SCARED,30MonoWAV/30MonoH4.wav,2,2,1,8,,,,,0,14,14,7,0,1,1,11,,,,,,,,,1,1.2522491890003948,009,001,2019_May_08_1412,MusicAffectPsychophysiology2019,3.0.5,59.953041899698135,
To what extent did the music make you feel ,EXCITED,30MonoWAV/30MonoH4.wav,2,2,1,8,,,,,0,14,14,7,0,2,2,7,,,,,,,,,4,1.501177123999696,009,001,2019_May_08_1412,MusicAffectPsychophysiology2019,3.0.5,59.953041899698135,
To what extent did the music make you feel ,HAPPY,30MonoWAV/30MonoH4.wav,2,2,1,8,,,,,0,14,14,7,0,3,3,6,,,,,,,,,5,1.0674956149996433,009,001,2019_May_08_1412,MusicAffectPsychophysiology2019,3.0.5,59.953041899698135,
To what extent did the music make you feel ,ANXIOUS ,30MonoWAV/30MonoH4.wav,2,2,1,8,,,,,0,14,14,7,0,4,4,1,,,,,,,,,1,1.2515603910005666,009,001,2019_May_08_1412,MusicAffectPsychophysiology2019,3.0.5,59.953041899698135,
To what extent did the music make you feel ,ALERT,30MonoWAV/30MonoH4.wav,2,2,1,8,,,,,0,14,14,7,0,5,5,8,,,,,,,,,4,1.7674220349999814,009,001,2019_May_08_1412,MusicAffectPsychophysiology2019,3.0.5,59.953041899698135,
To what extent did the music make you feel ,ASHAMED,30MonoWAV/30MonoH4.wav,2,2,1,8,,,,,0,14,14,7,0,6,6,4,,,,,,,,,1,1.0688177219999488,009,001,2019_May_08_1412,MusicAffectPsychophysiology2019,3.0.5,59.953041899698135,
To what extent did the music make you feel ,ANGRY,30MonoWAV/30MonoH4.wav,2,2,1,8,,,,,0,14,14,7,0,7,7,2,,,,,,,,,1,1.2173326000001907,009,001,2019_May_08_1412,MusicAffectPsychophysiology2019,3.0.5,59.953041899698135,
To what extent did the music make you feel ,SAD,30MonoWAV/30MonoH4.wav,2,2,1,8,,,,,0,14,14,7,0,8,8,0,,,,,,,,,1,1.117357279999851,009,001,2019_May_08_1412,MusicAffectPsychophysiology2019,3.0.5,59.953041899698135,
To what extent did the music make you feel ,ACTIVE,30MonoWAV/30MonoH4.wav,2,2,1,8,,,,,0,14,14,7,0,9,9,9,,,,,,,,,5,1.4348053870007789,009,001,2019_May_08_1412,MusicAffectPsychophysiology2019,3.0.5,59.953041899698135,
To what extent did the music make you feel ,FRUSTRATED,30MonoWAV/30MonoH4.wav,2,2,1,8,,,,,0,14,14,7,0,10,10,3,,,,,,,,,1,1.0185814770002253,009,001,2019_May_08_1412,MusicAffectPsychophysiology2019,3.0.5,59.953041899698135,
To what extent did the music make you feel ,GUILTY,30MonoWAV/30MonoH4.wav,2,2,1,8,,,,,0,14,14,7,0,11,11,5,,,,,,,,,1,1.0680434730002162,009,001,2019_May_08_1412,MusicAffectPsychophysiology2019,3.0.5,59.953041899698135,
,,30MonoWAV/30MonoH4.wav,2,2,1,8,,,,,0,14,14,7,,,,,,,,,,,,,,,009,001,2019_May_08_1412,MusicAffectPsychophysiology2019,3.0.5,59.953041899698135,
To what extent did the music make you feel ,TENDER,30MonoWAV/30MonoT1.wav,2,1,4,13,,,,,0,15,15,12,0,0,0,10,,,2,3.81807033899986,4,2.9334607199998572,,,4,1.9673771949992442,009,001,2019_May_08_1412,MusicAffectPsychophysiology2019,3.0.5,59.953041899698135,
To what extent did the music make you feel ,SAD,30MonoWAV/30MonoT1.wav,2,1,4,13,,,,,0,15,15,12,0,1,1,0,,,,,,,,,4,3.9353533220000827,009,001,2019_May_08_1412,MusicAffectPsychophysiology2019,3.0.5,59.953041899698135,
To what extent did the music make you feel ,ALERT,30MonoWAV/30MonoT1.wav,2,1,4,13,,,,,0,15,15,12,0,2,2,8,,,,,,,,,1,1.751383385999361,009,001,2019_May_08_1412,MusicAffectPsychophysiology2019,3.0.5,59.953041899698135,
To what extent did the music make you feel ,ACTIVE,30MonoWAV/30MonoT1.wav,2,1,4,13,,,,,0,15,15,12,0,3,3,9,,,,,,,,,2,2.0846697010001662,009,001,2019_May_08_1412,MusicAffectPsychophysiology2019,3.0.5,59.953041899698135,
To what extent did the music make you feel ,FRUSTRATED,30MonoWAV/30MonoT1.wav,2,1,4,13,,,,,0,15,15,12,0,4,4,3,,,,,,,,,1,1.1352686549998907,009,001,2019_May_08_1412,MusicAffectPsychophysiology2019,3.0.5,59.953041899698135,
To what extent did the music make you feel ,GUILTY,30MonoWAV/30MonoT1.wav,2,1,4,13,,,,,0,15,15,12,0,5,5,5,,,,,,,,,2,3.2180597229998966,009,001,2019_May_08_1412,MusicAffectPsychophysiology2019,3.0.5,59.953041899698135,
To what extent did the music make you feel ,ANGRY,30MonoWAV/30MonoT1.wav,2,1,4,13,,,,,0,15,15,12,0,6,6,2,,,,,,,,,1,1.7688419980004255,009,001,2019_May_08_1412,MusicAffectPsychophysiology2019,3.0.5,59.953041899698135,
To what extent did the music make you feel ,SCARED,30MonoWAV/30MonoT1.wav,2,1,4,13,,,,,0,15,15,12,0,7,7,11,,,,,,,,,1,1.1186200679994727,009,001,2019_May_08_1412,MusicAffectPsychophysiology2019,3.0.5,59.953041899698135,
To what extent did the music make you feel ,ANXIOUS ,30MonoWAV/30MonoT1.wav,2,1,4,13,,,,,0,15,15,12,0,8,8,1,,,,,,,,,1,1.2683600869995644,009,001,2019_May_08_1412,MusicAffectPsychophysiology2019,3.0.5,59.953041899698135,
To what extent did the music make you feel ,EXCITED,30MonoWAV/30MonoT1.wav,2,1,4,13,,,,,0,15,15,12,0,9,9,7,,,,,,,,,1,2.268229338999845,009,001,2019_May_08_1412,MusicAffectPsychophysiology2019,3.0.5,59.953041899698135,
To what extent did the music make you feel ,ASHAMED,30MonoWAV/30MonoT1.wav,2,1,4,13,,,,,0,15,15,12,0,10,10,4,,,,,,,,,1,1.7498252879995562,009,001,2019_May_08_1412,MusicAffectPsychophysiology2019,3.0.5,59.953041899698135,
To what extent did the music make you feel ,HAPPY,30MonoWAV/30MonoT1.wav,2,1,4,13,,,,,0,15,15,12,0,11,11,6,,,,,,,,,3,2.6345996069994726,009,001,2019_May_08_1412,MusicAffectPsychophysiology2019,3.0.5,59.953041899698135,
,,30MonoWAV/30MonoT1.wav,2,1,4,13,,,,,0,15,15,12,,,,,,,,,,,,,,,009,001,2019_May_08_1412,MusicAffectPsychophysiology2019,3.0.5,59.953041899698135,
To what extent did the music make you feel ,ANGRY,30MonoWAV/30MonoT3.wav,2,1,4,15,,,,,1,0,16,14,0,0,0,2,,,1,3.8346776559992577,3,2.2685875080005644,,,1,1.4675470920001317,009,001,2019_May_08_1412,MusicAffectPsychophysiology2019,3.0.5,59.953041899698135,
To what extent did the music make you feel ,TENDER,30MonoWAV/30MonoT3.wav,2,1,4,15,,,,,1,0,16,14,0,1,1,10,,,,,,,,,3,2.8662158330007514,009,001,2019_May_08_1412,MusicAffectPsychophysiology2019,3.0.5,59.953041899698135,
To what extent did the music make you feel ,HAPPY,30MonoWAV/30MonoT3.wav,2,1,4,15,,,,,1,0,16,14,0,2,2,6,,,,,,,,,4,1.6171757450001678,009,001,2019_May_08_1412,MusicAffectPsychophysiology2019,3.0.5,59.953041899698135,
To what extent did the music make you feel ,ASHAMED,30MonoWAV/30MonoT3.wav,2,1,4,15,,,,,1,0,16,14,0,3,3,4,,,,,,,,,1,1.3183263869996154,009,001,2019_May_08_1412,MusicAffectPsychophysiology2019,3.0.5,59.953041899698135,
To what extent did the music make you feel ,ANXIOUS ,30MonoWAV/30MonoT3.wav,2,1,4,15,,,,,1,0,16,14,0,4,4,1,,,,,,,,,2,2.169185223000568,009,001,2019_May_08_1412,MusicAffectPsychophysiology2019,3.0.5,59.953041899698135,
To what extent did the music make you feel ,SAD,30MonoWAV/30MonoT3.wav,2,1,4,15,,,,,1,0,16,14,0,5,5,0,,,,,,,,,2,1.3674410120001994,009,001,2019_May_08_1412,MusicAffectPsychophysiology2019,3.0.5,59.953041899698135,
To what extent did the music make you feel ,ALERT,30MonoWAV/30MonoT3.wav,2,1,4,15,,,,,1,0,16,14,0,6,6,8,,,,,,,,,1,1.9180884389998027,009,001,2019_May_08_1412,MusicAffectPsychophysiology2019,3.0.5,59.953041899698135,
To what extent did the music make you feel ,SCARED,30MonoWAV/30MonoT3.wav,2,1,4,15,,,,,1,0,16,14,0,7,7,11,,,,,,,,,1,1.4521326000003683,009,001,2019_May_08_1412,MusicAffectPsychophysiology2019,3.0.5,59.953041899698135,
To what extent did the music make you feel ,FRUSTRATED,30MonoWAV/30MonoT3.wav,2,1,4,15,,,,,1,0,16,14,0,8,8,3,,,,,,,,,1,1.084422701999756,009,001,2019_May_08_1412,MusicAffectPsychophysiology2019,3.0.5,59.953041899698135,
To what extent did the music make you feel ,ACTIVE,30MonoWAV/30MonoT3.wav,2,1,4,15,,,,,1,0,16,14,0,9,9,9,,,,,,,,,2,2.6849999910000406,009,001,2019_May_08_1412,MusicAffectPsychophysiology2019,3.0.5,59.953041899698135,
To what extent did the music make you feel ,EXCITED,30MonoWAV/30MonoT3.wav,2,1,4,15,,,,,1,0,16,14,0,10,10,7,,,,,,,,,3,1.5158330150006805,009,001,2019_May_08_1412,MusicAffectPsychophysiology2019,3.0.5,59.953041899698135,
To what extent did the music make you feel ,GUILTY,30MonoWAV/30MonoT3.wav,2,1,4,15,,,,,1,0,16,14,0,11,11,5,,,,,,,,,1,1.069417897000676,009,001,2019_May_08_1412,MusicAffectPsychophysiology2019,3.0.5,59.953041899698135,
,,30MonoWAV/30MonoT3.wav,2,1,4,15,,,,,1,0,16,14,,,,,,,,,,,,,,,009,001,2019_May_08_1412,MusicAffectPsychophysiology2019,3.0.5,59.953041899698135,
To what extent did the music make you feel ,ANXIOUS ,30MonoWAV/30MonoH1.wav,2,2,1,5,,,,,1,1,17,4,0,0,0,1,,,4,2.9847441680003612,3,2.1183845189998465,,,4,2.2853411389996836,009,001,2019_May_08_1412,MusicAffectPsychophysiology2019,3.0.5,59.953041899698135,
To what extent did the music make you feel ,EXCITED,30MonoWAV/30MonoH1.wav,2,2,1,5,,,,,1,1,17,4,0,1,1,7,,,,,,,,,4,1.5670270000000528,009,001,2019_May_08_1412,MusicAffectPsychophysiology2019,3.0.5,59.953041899698135,
To what extent did the music make you feel ,ALERT,30MonoWAV/30MonoH1.wav,2,2,1,5,,,,,1,1,17,4,0,2,2,8,,,,,,,,,4,1.401555040999483,009,001,2019_May_08_1412,MusicAffectPsychophysiology2019,3.0.5,59.953041899698135,
To what extent did the music make you feel ,TENDER,30MonoWAV/30MonoH1.wav,2,2,1,5,,,,,1,1,17,4,0,3,3,10,,,,,,,,,1,1.3188771519999136,009,001,2019_May_08_1412,MusicAffectPsychophysiology2019,3.0.5,59.953041899698135,
To what extent did the music make you feel ,SCARED,30MonoWAV/30MonoH1.wav,2,2,1,5,,,,,1,1,17,4,0,4,4,11,,,,,,,,,1,1.5679729450002924,009,001,2019_May_08_1412,MusicAffectPsychophysiology2019,3.0.5,59.953041899698135,
To what extent did the music make you feel ,FRUSTRATED,30MonoWAV/30MonoH1.wav,2,2,1,5,,,,,1,1,17,4,0,5,5,3,,,,,,,,,1,1.0359156750000693,009,001,2019_May_08_1412,MusicAffectPsychophysiology2019,3.0.5,59.953041899698135,
To what extent did the music make you feel ,ASHAMED,30MonoWAV/30MonoH1.wav,2,2,1,5,,,,,1,1,17,4,0,6,6,4,,,,,,,,,1,1.0179658540000673,009,001,2019_May_08_1412,MusicAffectPsychophysiology2019,3.0.5,59.953041899698135,
To what extent did the music make you feel ,GUILTY,30MonoWAV/30MonoH1.wav,2,2,1,5,,,,,1,1,17,4,0,7,7,5,,,,,,,,,1,1.051266812999529,009,001,2019_May_08_1412,MusicAffectPsychophysiology2019,3.0.5,59.953041899698135,
To what extent did the music make you feel ,ANGRY,30MonoWAV/30MonoH1.wav,2,2,1,5,,,,,1,1,17,4,0,8,8,2,,,,,,,,,1,0.700045422000585,009,001,2019_May_08_1412,MusicAffectPsychophysiology2019,3.0.5,59.953041899698135,
To what extent did the music make you feel ,ACTIVE,30MonoWAV/30MonoH1.wav,2,2,1,5,,,,,1,1,17,4,0,9,9,9,,,,,,,,,4,2.1364590479997787,009,001,2019_May_08_1412,MusicAffectPsychophysiology2019,3.0.5,59.953041899698135,
To what extent did the music make you feel ,HAPPY,30MonoWAV/30MonoH1.wav,2,2,1,5,,,,,1,1,17,4,0,10,10,6,,,,,,,,,3,2.1008394569998927,009,001,2019_May_08_1412,MusicAffectPsychophysiology2019,3.0.5,59.953041899698135,
To what extent did the music make you feel ,SAD,30MonoWAV/30MonoH1.wav,2,2,1,5,,,,,1,1,17,4,0,11,11,0,,,,,,,,,1,1.086797519999891,009,001,2019_May_08_1412,MusicAffectPsychophysiology2019,3.0.5,59.953041899698135,
,,30MonoWAV/30MonoH1.wav,2,2,1,5,,,,,1,1,17,4,,,,,,,,,,,,,,,009,001,2019_May_08_1412,MusicAffectPsychophysiology2019,3.0.5,59.953041899698135,
To what extent did the music make you feel ,HAPPY,30MonoWAV/30MonoT4.wav,2,1,4,16,,,,,1,2,18,15,0,0,0,6,,,1,6.150656411000455,5,2.518633229000443,,,5,2.1839420770002107,009,001,2019_May_08_1412,MusicAffectPsychophysiology2019,3.0.5,59.953041899698135,
To what extent did the music make you feel ,EXCITED,30MonoWAV/30MonoT4.wav,2,1,4,16,,,,,1,2,18,15,0,1,1,7,,,,,,,,,3,3.102146315999562,009,001,2019_May_08_1412,MusicAffectPsychophysiology2019,3.0.5,59.953041899698135,
To what extent did the music make you feel ,ANGRY,30MonoWAV/30MonoT4.wav,2,1,4,16,,,,,1,2,18,15,0,2,2,2,,,,,,,,,1,1.084534980999706,009,001,2019_May_08_1412,MusicAffectPsychophysiology2019,3.0.5,59.953041899698135,
To what extent did the music make you feel ,ASHAMED,30MonoWAV/30MonoT4.wav,2,1,4,16,,,,,1,2,18,15,0,3,3,4,,,,,,,,,1,0.9529217890003565,009,001,2019_May_08_1412,MusicAffectPsychophysiology2019,3.0.5,59.953041899698135,
To what extent did the music make you feel ,ALERT,30MonoWAV/30MonoT4.wav,2,1,4,16,,,,,1,2,18,15,0,4,4,8,,,,,,,,,1,1.0520828230000916,009,001,2019_May_08_1412,MusicAffectPsychophysiology2019,3.0.5,59.953041899698135,
To what extent did the music make you feel ,TENDER,30MonoWAV/30MonoT4.wav,2,1,4,16,,,,,1,2,18,15,0,5,5,10,,,,,,,,,4,1.836194421000073,009,001,2019_May_08_1412,MusicAffectPsychophysiology2019,3.0.5,59.953041899698135,
To what extent did the music make you feel ,ACTIVE,30MonoWAV/30MonoT4.wav,2,1,4,16,,,,,1,2,18,15,0,6,6,9,,,,,,,,,1,3.0675457319994166,009,001,2019_May_08_1412,MusicAffectPsychophysiology2019,3.0.5,59.953041899698135,
To what extent did the music make you feel ,ANXIOUS ,30MonoWAV/30MonoT4.wav,2,1,4,16,,,,,1,2,18,15,0,7,7,1,,,,,,,,,1,1.235504082999796,009,001,2019_May_08_1412,MusicAffectPsychophysiology2019,3.0.5,59.953041899698135,
To what extent did the music make you feel ,GUILTY,30MonoWAV/30MonoT4.wav,2,1,4,16,,,,,1,2,18,15,0,8,8,5,,,,,,,,,1,0.7354045010006303,009,001,2019_May_08_1412,MusicAffectPsychophysiology2019,3.0.5,59.953041899698135,
To what extent did the music make you feel ,SCARED,30MonoWAV/30MonoT4.wav,2,1,4,16,,,,,1,2,18,15,0,9,9,11,,,,,,,,,1,0.7334714699991309,009,001,2019_May_08_1412,MusicAffectPsychophysiology2019,3.0.5,59.953041899698135,
To what extent did the music make you feel ,SAD,30MonoWAV/30MonoT4.wav,2,1,4,16,,,,,1,2,18,15,0,10,10,0,,,,,,,,,1,0.7336199790006503,009,001,2019_May_08_1412,MusicAffectPsychophysiology2019,3.0.5,59.953041899698135,
To what extent did the music make you feel ,FRUSTRATED,30MonoWAV/30MonoT4.wav,2,1,4,16,,,,,1,2,18,15,0,11,11,3,,,,,,,,,1,1.4730772369994156,009,001,2019_May_08_1412,MusicAffectPsychophysiology2019,3.0.5,59.953041899698135,
,,30MonoWAV/30MonoT4.wav,2,1,4,16,,,,,1,2,18,15,,,,,,,,,,,,,,,009,001,2019_May_08_1412,MusicAffectPsychophysiology2019,3.0.5,59.953041899698135,
To what extent did the music make you feel ,EXCITED,30MonoWAV/30MonoH2.wav,2,2,1,6,,,,,1,3,19,5,0,0,0,7,,,4,5.9844458530005795,3,2.4178258789997926,,,4,3.435066117000133,009,001,2019_May_08_1412,MusicAffectPsychophysiology2019,3.0.5,59.953041899698135,
To what extent did the music make you feel ,ANGRY,30MonoWAV/30MonoH2.wav,2,2,1,6,,,,,1,3,19,5,0,1,1,2,,,,,,,,,1,1.2848134890000438,009,001,2019_May_08_1412,MusicAffectPsychophysiology2019,3.0.5,59.953041899698135,
To what extent did the music make you feel ,TENDER,30MonoWAV/30MonoH2.wav,2,2,1,6,,,,,1,3,19,5,0,2,2,10,,,,,,,,,1,1.618861597000432,009,001,2019_May_08_1412,MusicAffectPsychophysiology2019,3.0.5,59.953041899698135,
To what extent did the music make you feel ,FRUSTRATED,30MonoWAV/30MonoH2.wav,2,2,1,6,,,,,1,3,19,5,0,3,3,3,,,,,,,,,1,2.4342907979998927,009,001,2019_May_08_1412,MusicAffectPsychophysiology2019,3.0.5,59.953041899698135,
To what extent did the music make you feel ,HAPPY,30MonoWAV/30MonoH2.wav,2,2,1,6,,,,,1,3,19,5,0,4,4,6,,,,,,,,,3,1.767785609999919,009,001,2019_May_08_1412,MusicAffectPsychophysiology2019,3.0.5,59.953041899698135,
To what extent did the music make you feel ,SAD,30MonoWAV/30MonoH2.wav,2,2,1,6,,,,,1,3,19,5,0,5,5,0,,,,,,,,,1,1.0853893760004212,009,001,2019_May_08_1412,MusicAffectPsychophysiology2019,3.0.5,59.953041899698135,
To what extent did the music make you feel ,ACTIVE,30MonoWAV/30MonoH2.wav,2,2,1,6,,,,,1,3,19,5,0,6,6,9,,,,,,,,,4,1.9185446240007877,009,001,2019_May_08_1412,MusicAffectPsychophysiology2019,3.0.5,59.953041899698135,
To what extent did the music make you feel ,SCARED,30MonoWAV/30MonoH2.wav,2,2,1,6,,,,,1,3,19,5,0,7,7,11,,,,,,,,,1,1.1012035549993016,009,001,2019_May_08_1412,MusicAffectPsychophysiology2019,3.0.5,59.953041899698135,
To what extent did the music make you feel ,ANXIOUS ,30MonoWAV/30MonoH2.wav,2,2,1,6,,,,,1,3,19,5,0,8,8,1,,,,,,,,,3,3.2858345499998904,009,001,2019_May_08_1412,MusicAffectPsychophysiology2019,3.0.5,59.953041899698135,
To what extent did the music make you feel ,ALERT,30MonoWAV/30MonoH2.wav,2,2,1,6,,,,,1,3,19,5,0,9,9,8,,,,,,,,,4,1.2342472609998367,009,001,2019_May_08_1412,MusicAffectPsychophysiology2019,3.0.5,59.953041899698135,
To what extent did the music make you feel ,ASHAMED,30MonoWAV/30MonoH2.wav,2,2,1,6,,,,,1,3,19,5,0,10,10,4,,,,,,,,,1,1.2512847859998146,009,001,2019_May_08_1412,MusicAffectPsychophysiology2019,3.0.5,59.953041899698135,
To what extent did the music make you feel ,GUILTY,30MonoWAV/30MonoH2.wav,2,2,1,6,,,,,1,3,19,5,0,11,11,5,,,,,,,,,1,0.885309509999388,009,001,2019_May_08_1412,MusicAffectPsychophysiology2019,3.0.5,59.953041899698135,
,,30MonoWAV/30MonoH2.wav,2,2,1,6,,,,,1,3,19,5,,,,,,,,,,,,,,,009,001,2019_May_08_1412,MusicAffectPsychophysiology2019,3.0.5,59.953041899698135,
To what extent did the music make you feel ,ALERT,30MonoWAV/30MonoT1.wav,2,1,4,13,,,,,1,4,20,12,0,0,0,8,,,1,2.68477291399995,4,3.8015529469994362,,,1,1.1833012670003882,009,001,2019_May_08_1412,MusicAffectPsychophysiology2019,3.0.5,59.953041899698135,
To what extent did the music make you feel ,ANGRY,30MonoWAV/30MonoT1.wav,2,1,4,13,,,,,1,4,20,12,0,1,1,2,,,,,,,,,1,1.1995592190005482,009,001,2019_May_08_1412,MusicAffectPsychophysiology2019,3.0.5,59.953041899698135,
To what extent did the music make you feel ,EXCITED,30MonoWAV/30MonoT1.wav,2,1,4,13,,,,,1,4,20,12,0,2,2,7,,,,,,,,,1,2.7184253790001094,009,001,2019_May_08_1412,MusicAffectPsychophysiology2019,3.0.5,59.953041899698135,
To what extent did the music make you feel ,GUILTY,30MonoWAV/30MonoT1.wav,2,1,4,13,,,,,1,4,20,12,0,3,3,5,,,,,,,,,2,2.801712653999857,009,001,2019_May_08_1412,MusicAffectPsychophysiology2019,3.0.5,59.953041899698135,
To what extent did the music make you feel ,ACTIVE,30MonoWAV/30MonoT1.wav,2,1,4,13,,,,,1,4,20,12,0,4,4,9,,,,,,,,,1,1.285233196000263,009,001,2019_May_08_1412,MusicAffectPsychophysiology2019,3.0.5,59.953041899698135,
To what extent did the music make you feel ,TENDER,30MonoWAV/30MonoT1.wav,2,1,4,13,,,,,1,4,20,12,0,5,5,10,,,,,,,,,4,1.4405860900005791,009,001,2019_May_08_1412,MusicAffectPsychophysiology2019,3.0.5,59.953041899698135,
To what extent did the music make you feel ,SAD,30MonoWAV/30MonoT1.wav,2,1,4,13,,,,,1,4,20,12,0,6,6,0,,,,,,,,,4,1.50334692099932,009,001,2019_May_08_1412,MusicAffectPsychophysiology2019,3.0.5,59.953041899698135,
To what extent did the music make you feel ,FRUSTRATED,30MonoWAV/30MonoT1.wav,2,1,4,13,,,,,1,4,20,12,0,7,7,3,,,,,,,,,1,1.768311795000045,009,001,2019_May_08_1412,MusicAffectPsychophysiology2019,3.0.5,59.953041899698135,
To what extent did the music make you feel ,ANXIOUS ,30MonoWAV/30MonoT1.wav,2,1,4,13,,,,,1,4,20,12,0,8,8,1,,,,,,,,,2,2.021217452000201,009,001,2019_May_08_1412,MusicAffectPsychophysiology2019,3.0.5,59.953041899698135,
To what extent did the music make you feel ,HAPPY,30MonoWAV/30MonoT1.wav,2,1,4,13,,,,,1,4,20,12,0,9,9,6,,,,,,,,,3,4.623257530999581,009,001,2019_May_08_1412,MusicAffectPsychophysiology2019,3.0.5,59.953041899698135,
To what extent did the music make you feel ,ASHAMED,30MonoWAV/30MonoT1.wav,2,1,4,13,,,,,1,4,20,12,0,10,10,4,,,,,,,,,1,1.4851018240005942,009,001,2019_May_08_1412,MusicAffectPsychophysiology2019,3.0.5,59.953041899698135,
To what extent did the music make you feel ,SCARED,30MonoWAV/30MonoT1.wav,2,1,4,13,,,,,1,4,20,12,0,11,11,11,,,,,,,,,1,1.6678742479998618,009,001,2019_May_08_1412,MusicAffectPsychophysiology2019,3.0.5,59.953041899698135,
,,30MonoWAV/30MonoT1.wav,2,1,4,13,,,,,1,4,20,12,,,,,,,,,,,,,,,009,001,2019_May_08_1412,MusicAffectPsychophysiology2019,3.0.5,59.953041899698135,
To what extent did the music make you feel ,ALERT,30MonoWAV/30MonoF1.wav,1,2,2,1,,,,,1,5,21,0,0,0,0,8,,,3,4.956924097999945,1,2.5848572189997867,,,4,2.0848945269999604,009,001,2019_May_08_1412,MusicAffectPsychophysiology2019,3.0.5,59.953041899698135,
To what extent did the music make you feel ,FRUSTRATED,30MonoWAV/30MonoF1.wav,1,2,2,1,,,,,1,5,21,0,0,1,1,3,,,,,,,,,4,1.935115279999991,009,001,2019_May_08_1412,MusicAffectPsychophysiology2019,3.0.5,59.953041899698135,
To what extent did the music make you feel ,TENDER,30MonoWAV/30MonoF1.wav,1,2,2,1,,,,,1,5,21,0,0,2,2,10,,,,,,,,,1,1.2351973720005844,009,001,2019_May_08_1412,MusicAffectPsychophysiology2019,3.0.5,59.953041899698135,
To what extent did the music make you feel ,SCARED,30MonoWAV/30MonoF1.wav,1,2,2,1,,,,,1,5,21,0,0,3,3,11,,,,,,,,,3,1.5187232230000518,009,001,2019_May_08_1412,MusicAffectPsychophysiology2019,3.0.5,59.953041899698135,
To what extent did the music make you feel ,EXCITED,30MonoWAV/30MonoF1.wav,1,2,2,1,,,,,1,5,21,0,0,4,4,7,,,,,,,,,3,2.235408978000123,009,001,2019_May_08_1412,MusicAffectPsychophysiology2019,3.0.5,59.953041899698135,
To what extent did the music make you feel ,ASHAMED,30MonoWAV/30MonoF1.wav,1,2,2,1,,,,,1,5,21,0,0,5,5,4,,,,,,,,,1,1.3342777959996965,009,001,2019_May_08_1412,MusicAffectPsychophysiology2019,3.0.5,59.953041899698135,
To what extent did the music make you feel ,ACTIVE,30MonoWAV/30MonoF1.wav,1,2,2,1,,,,,1,5,21,0,0,6,6,9,,,,,,,,,4,1.334548580000046,009,001,2019_May_08_1412,MusicAffectPsychophysiology2019,3.0.5,59.953041899698135,
To what extent did the music make you feel ,HAPPY,30MonoWAV/30MonoF1.wav,1,2,2,1,,,,,1,5,21,0,0,7,7,6,,,,,,,,,1,1.5179331749995981,009,001,2019_May_08_1412,MusicAffectPsychophysiology2019,3.0.5,59.953041899698135,
To what extent did the music make you feel ,ANXIOUS ,30MonoWAV/30MonoF1.wav,1,2,2,1,,,,,1,5,21,0,0,8,8,1,,,,,,,,,4,1.7015495100004046,009,001,2019_May_08_1412,MusicAffectPsychophysiology2019,3.0.5,59.953041899698135,
To what extent did the music make you feel ,GUILTY,30MonoWAV/30MonoF1.wav,1,2,2,1,,,,,1,5,21,0,0,9,9,5,,,,,,,,,1,1.2180624899992836,009,001,2019_May_08_1412,MusicAffectPsychophysiology2019,3.0.5,59.953041899698135,
To what extent did the music make you feel ,ANGRY,30MonoWAV/30MonoF1.wav,1,2,2,1,,,,,1,5,21,0,0,10,10,2,,,,,,,,,2,3.1019123349997244,009,001,2019_May_08_1412,MusicAffectPsychophysiology2019,3.0.5,59.953041899698135,
To what extent did the music make you feel ,SAD,30MonoWAV/30MonoF1.wav,1,2,2,1,,,,,1,5,21,0,0,11,11,0,,,,,,,,,1,2.3673147070003324,009,001,2019_May_08_1412,MusicAffectPsychophysiology2019,3.0.5,59.953041899698135,
,,30MonoWAV/30MonoF1.wav,1,2,2,1,,,,,1,5,21,0,,,,,,,,,,,,,,,009,001,2019_May_08_1412,MusicAffectPsychophysiology2019,3.0.5,59.953041899698135,
To what extent did the music make you feel ,TENDER,30MonoWAV/30MonoS3.wav,1,1,3,11,,,,,1,6,22,10,0,0,0,10,,,1,5.101293551999333,1,5.951316528000461,,,4,3.5173913530006757,009,001,2019_May_08_1412,MusicAffectPsychophysiology2019,3.0.5,59.953041899698135,
To what extent did the music make you feel ,ANGRY,30MonoWAV/30MonoS3.wav,1,1,3,11,,,,,1,6,22,10,0,1,1,2,,,,,,,,,1,1.8522590200000195,009,001,2019_May_08_1412,MusicAffectPsychophysiology2019,3.0.5,59.953041899698135,
To what extent did the music make you feel ,ANXIOUS ,30MonoWAV/30MonoS3.wav,1,1,3,11,,,,,1,6,22,10,0,2,2,1,,,,,,,,,1,1.2018169429993577,009,001,2019_May_08_1412,MusicAffectPsychophysiology2019,3.0.5,59.953041899698135,
To what extent did the music make you feel ,SCARED,30MonoWAV/30MonoS3.wav,1,1,3,11,,,,,1,6,22,10,0,3,3,11,,,,,,,,,1,1.283571676000065,009,001,2019_May_08_1412,MusicAffectPsychophysiology2019,3.0.5,59.953041899698135,
To what extent did the music make you feel ,GUILTY,30MonoWAV/30MonoS3.wav,1,1,3,11,,,,,1,6,22,10,0,4,4,5,,,,,,,,,3,2.4847052260001874,009,001,2019_May_08_1412,MusicAffectPsychophysiology2019,3.0.5,59.953041899698135,
To what extent did the music make you feel ,ACTIVE,30MonoWAV/30MonoS3.wav,1,1,3,11,,,,,1,6,22,10,0,5,5,9,,,,,,,,,1,1.3183518169998933,009,001,2019_May_08_1412,MusicAffectPsychophysiology2019,3.0.5,59.953041899698135,
To what extent did the music make you feel ,ALERT,30MonoWAV/30MonoS3.wav,1,1,3,11,,,,,1,6,22,10,0,6,6,8,,,,,,,,,1,1.735263197999302,009,001,2019_May_08_1412,MusicAffectPsychophysiology2019,3.0.5,59.953041899698135,
To what extent did the music make you feel ,SAD,30MonoWAV/30MonoS3.wav,1,1,3,11,,,,,1,6,22,10,0,7,7,0,,,,,,,,,4,1.6514048489998459,009,001,2019_May_08_1412,MusicAffectPsychophysiology2019,3.0.5,59.953041899698135,
To what extent did the music make you feel ,FRUSTRATED,30MonoWAV/30MonoS3.wav,1,1,3,11,,,,,1,6,22,10,0,8,8,3,,,,,,,,,2,2.06832524299989,009,001,2019_May_08_1412,MusicAffectPsychophysiology2019,3.0.5,59.953041899698135,
To what extent did the music make you feel ,ASHAMED,30MonoWAV/30MonoS3.wav,1,1,3,11,,,,,1,6,22,10,0,9,9,4,,,,,,,,,3,2.4189705640001193,009,001,2019_May_08_1412,MusicAffectPsychophysiology2019,3.0.5,59.953041899698135,
To what extent did the music make you feel ,HAPPY,30MonoWAV/30MonoS3.wav,1,1,3,11,,,,,1,6,22,10,0,10,10,6,,,,,,,,,1,1.584739637999519,009,001,2019_May_08_1412,MusicAffectPsychophysiology2019,3.0.5,59.953041899698135,
To what extent did the music make you feel ,EXCITED,30MonoWAV/30MonoS3.wav,1,1,3,11,,,,,1,6,22,10,0,11,11,7,,,,,,,,,1,1.6331495709991941,009,001,2019_May_08_1412,MusicAffectPsychophysiology2019,3.0.5,59.953041899698135,
,,30MonoWAV/30MonoS3.wav,1,1,3,11,,,,,1,6,22,10,,,,,,,,,,,,,,,009,001,2019_May_08_1412,MusicAffectPsychophysiology2019,3.0.5,59.953041899698135,
To what extent did the music make you feel ,FRUSTRATED,30MonoWAV/30MonoH3.wav,2,2,1,7,,,,,1,7,23,6,0,0,0,3,,,5,4.466517512000792,4,2.2847371529996963,,,1,1.5744433170002594,009,001,2019_May_08_1412,MusicAffectPsychophysiology2019,3.0.5,59.953041899698135,
To what extent did the music make you feel ,ACTIVE,30MonoWAV/30MonoH3.wav,2,2,1,7,,,,,1,7,23,6,0,1,1,9,,,,,,,,,4,1.5372168840003724,009,001,2019_May_08_1412,MusicAffectPsychophysiology2019,3.0.5,59.953041899698135,
To what extent did the music make you feel ,EXCITED,30MonoWAV/30MonoH3.wav,2,2,1,7,,,,,1,7,23,6,0,2,2,7,,,,,,,,,4,1.5880873360001715,009,001,2019_May_08_1412,MusicAffectPsychophysiology2019,3.0.5,59.953041899698135,
To what extent did the music make you feel ,HAPPY,30MonoWAV/30MonoH3.wav,2,2,1,7,,,,,1,7,23,6,0,3,3,6,,,,,,,,,5,1.0864095779998024,009,001,2019_May_08_1412,MusicAffectPsychophysiology2019,3.0.5,59.953041899698135,
To what extent did the music make you feel ,GUILTY,30MonoWAV/30MonoH3.wav,2,2,1,7,,,,,1,7,23,6,0,4,4,5,,,,,,,,,1,1.0360298989999137,009,001,2019_May_08_1412,MusicAffectPsychophysiology2019,3.0.5,59.953041899698135,
To what extent did the music make you feel ,SCARED,30MonoWAV/30MonoH3.wav,2,2,1,7,,,,,1,7,23,6,0,5,5,11,,,,,,,,,1,1.255554621000556,009,001,2019_May_08_1412,MusicAffectPsychophysiology2019,3.0.5,59.953041899698135,
To what extent did the music make you feel ,TENDER,30MonoWAV/30MonoH3.wav,2,2,1,7,,,,,1,7,23,6,0,6,6,10,,,,,,,,,1,1.534541571999398,009,001,2019_May_08_1412,MusicAffectPsychophysiology2019,3.0.5,59.953041899698135,
To what extent did the music make you feel ,ANGRY,30MonoWAV/30MonoH3.wav,2,2,1,7,,,,,1,7,23,6,0,7,7,2,,,,,,,,,1,0.7698780150003586,009,001,2019_May_08_1412,MusicAffectPsychophysiology2019,3.0.5,59.953041899698135,
To what extent did the music make you feel ,ALERT,30MonoWAV/30MonoH3.wav,2,2,1,7,,,,,1,7,23,6,0,8,8,8,,,,,,,,,4,1.685145857999487,009,001,2019_May_08_1412,MusicAffectPsychophysiology2019,3.0.5,59.953041899698135,
To what extent did the music make you feel ,ANXIOUS ,30MonoWAV/30MonoH3.wav,2,2,1,7,,,,,1,7,23,6,0,9,9,1,,,,,,,,,1,2.4181909139997515,009,001,2019_May_08_1412,MusicAffectPsychophysiology2019,3.0.5,59.953041899698135,
To what extent did the music make you feel ,SAD,30MonoWAV/30MonoH3.wav,2,2,1,7,,,,,1,7,23,6,0,10,10,0,,,,,,,,,1,0.8520172130001811,009,001,2019_May_08_1412,MusicAffectPsychophysiology2019,3.0.5,59.953041899698135,
To what extent did the music make you feel ,ASHAMED,30MonoWAV/30MonoH3.wav,2,2,1,7,,,,,1,7,23,6,0,11,11,4,,,,,,,,,1,0.751518199000202,009,001,2019_May_08_1412,MusicAffectPsychophysiology2019,3.0.5,59.953041899698135,
,,30MonoWAV/30MonoH3.wav,2,2,1,7,,,,,1,7,23,6,,,,,,,,,,,,,,,009,001,2019_May_08_1412,MusicAffectPsychophysiology2019,3.0.5,59.953041899698135,
To what extent did the music make you feel ,SAD,30MonoWAV/30MonoF4.wav,1,2,2,4,,,,,1,8,24,3,0,0,0,0,,,2,3.4722760200002085,3,2.9857211260004988,,,1,1.8015644039996914,009,001,2019_May_08_1412,MusicAffectPsychophysiology2019,3.0.5,59.953041899698135,
To what extent did the music make you feel ,ANXIOUS ,30MonoWAV/30MonoF4.wav,1,2,2,4,,,,,1,8,24,3,0,1,1,1,,,,,,,,,4,1.8020688870001322,009,001,2019_May_08_1412,MusicAffectPsychophysiology2019,3.0.5,59.953041899698135,
To what extent did the music make you feel ,FRUSTRATED,30MonoWAV/30MonoF4.wav,1,2,2,4,,,,,1,8,24,3,0,2,2,3,,,,,,,,,1,1.3356713349994607,009,001,2019_May_08_1412,MusicAffectPsychophysiology2019,3.0.5,59.953041899698135,
To what extent did the music make you feel ,EXCITED,30MonoWAV/30MonoF4.wav,1,2,2,4,,,,,1,8,24,3,0,3,3,7,,,,,,,,,2,2.517134513000201,009,001,2019_May_08_1412,MusicAffectPsychophysiology2019,3.0.5,59.953041899698135,
To what extent did the music make you feel ,ACTIVE,30MonoWAV/30MonoF4.wav,1,2,2,4,,,,,1,8,24,3,0,4,4,9,,,,,,,,,4,1.7353915450003115,009,001,2019_May_08_1412,MusicAffectPsychophysiology2019,3.0.5,59.953041899698135,
To what extent did the music make you feel ,GUILTY,30MonoWAV/30MonoF4.wav,1,2,2,4,,,,,1,8,24,3,0,5,5,5,,,,,,,,,1,1.6843836369998826,009,001,2019_May_08_1412,MusicAffectPsychophysiology2019,3.0.5,59.953041899698135,
To what extent did the music make you feel ,ALERT,30MonoWAV/30MonoF4.wav,1,2,2,4,,,,,1,8,24,3,0,6,6,8,,,,,,,,,4,1.5516461200004414,009,001,2019_May_08_1412,MusicAffectPsychophysiology2019,3.0.5,59.953041899698135,
To what extent did the music make you feel ,HAPPY,30MonoWAV/30MonoF4.wav,1,2,2,4,,,,,1,8,24,3,0,7,7,6,,,,,,,,,1,1.200614580000547,009,001,2019_May_08_1412,MusicAffectPsychophysiology2019,3.0.5,59.953041899698135,
To what extent did the music make you feel ,ANGRY,30MonoWAV/30MonoF4.wav,1,2,2,4,,,,,1,8,24,3,0,8,8,2,,,,,,,,,1,1.084605781999926,009,001,2019_May_08_1412,MusicAffectPsychophysiology2019,3.0.5,59.953041899698135,
To what extent did the music make you feel ,ASHAMED,30MonoWAV/30MonoF4.wav,1,2,2,4,,,,,1,8,24,3,0,9,9,4,,,,,,,,,1,1.08486107599947,009,001,2019_May_08_1412,MusicAffectPsychophysiology2019,3.0.5,59.953041899698135,
To what extent did the music make you feel ,TENDER,30MonoWAV/30MonoF4.wav,1,2,2,4,,,,,1,8,24,3,0,10,10,10,,,,,,,,,1,1.0351480900008028,009,001,2019_May_08_1412,MusicAffectPsychophysiology2019,3.0.5,59.953041899698135,
To what extent did the music make you feel ,SCARED,30MonoWAV/30MonoF4.wav,1,2,2,4,,,,,1,8,24,3,0,11,11,11,,,,,,,,,2,2.751409875999343,009,001,2019_May_08_1412,MusicAffectPsychophysiology2019,3.0.5,59.953041899698135,
,,30MonoWAV/30MonoF4.wav,1,2,2,4,,,,,1,8,24,3,,,,,,,,,,,,,,,009,001,2019_May_08_1412,MusicAffectPsychophysiology2019,3.0.5,59.953041899698135,
To what extent did the music make you feel ,SAD,30MonoWAV/30MonoS4.wav,1,1,3,12,,,,,1,9,25,11,0,0,0,0,,,1,2.933292648999668,2,1.5014048680004635,,,4,1.817766643000141,009,001,2019_May_08_1412,MusicAffectPsychophysiology2019,3.0.5,59.953041899698135,
To what extent did the music make you feel ,SCARED,30MonoWAV/30MonoS4.wav,1,1,3,12,,,,,1,9,25,11,0,1,1,11,,,,,,,,,1,1.6169654639998043,009,001,2019_May_08_1412,MusicAffectPsychophysiology2019,3.0.5,59.953041899698135,
To what extent did the music make you feel ,ASHAMED,30MonoWAV/30MonoS4.wav,1,1,3,12,,,,,1,9,25,11,0,2,2,4,,,,,,,,,3,1.7187408889994913,009,001,2019_May_08_1412,MusicAffectPsychophysiology2019,3.0.5,59.953041899698135,
To what extent did the music make you feel ,GUILTY,30MonoWAV/30MonoS4.wav,1,1,3,12,,,,,1,9,25,11,0,3,3,5,,,,,,,,,3,1.43516978200023,009,001,2019_May_08_1412,MusicAffectPsychophysiology2019,3.0.5,59.953041899698135,
To what extent did the music make you feel ,FRUSTRATED,30MonoWAV/30MonoS4.wav,1,1,3,12,,,,,1,9,25,11,0,4,4,3,,,,,,,,,2,2.350865853999494,009,001,2019_May_08_1412,MusicAffectPsychophysiology2019,3.0.5,59.953041899698135,
To what extent did the music make you feel ,ACTIVE,30MonoWAV/30MonoS4.wav,1,1,3,12,,,,,1,9,25,11,0,5,5,9,,,,,,,,,1,1.1351176490006765,009,001,2019_May_08_1412,MusicAffectPsychophysiology2019,3.0.5,59.953041899698135,
To what extent did the music make you feel ,ANXIOUS ,30MonoWAV/30MonoS4.wav,1,1,3,12,,,,,1,9,25,11,0,6,6,1,,,,,,,,,1,1.668233766999947,009,001,2019_May_08_1412,MusicAffectPsychophysiology2019,3.0.5,59.953041899698135,
To what extent did the music make you feel ,HAPPY,30MonoWAV/30MonoS4.wav,1,1,3,12,,,,,1,9,25,11,0,7,7,6,,,,,,,,,2,1.401999113999409,009,001,2019_May_08_1412,MusicAffectPsychophysiology2019,3.0.5,59.953041899698135,
To what extent did the music make you feel ,ALERT,30MonoWAV/30MonoS4.wav,1,1,3,12,,,,,1,9,25,11,0,8,8,8,,,,,,,,,1,1.7515566479996778,009,001,2019_May_08_1412,MusicAffectPsychophysiology2019,3.0.5,59.953041899698135,
To what extent did the music make you feel ,EXCITED,30MonoWAV/30MonoS4.wav,1,1,3,12,,,,,1,9,25,11,0,9,9,7,,,,,,,,,1,1.3355340670004807,009,001,2019_May_08_1412,MusicAffectPsychophysiology2019,3.0.5,59.953041899698135,
To what extent did the music make you feel ,ANGRY,30MonoWAV/30MonoS4.wav,1,1,3,12,,,,,1,9,25,11,0,10,10,2,,,,,,,,,1,2.0189770440001666,009,001,2019_May_08_1412,MusicAffectPsychophysiology2019,3.0.5,59.953041899698135,
To what extent did the music make you feel ,TENDER,30MonoWAV/30MonoS4.wav,1,1,3,12,,,,,1,9,25,11,0,11,11,10,,,,,,,,,4,1.6356913549998353,009,001,2019_May_08_1412,MusicAffectPsychophysiology2019,3.0.5,59.953041899698135,
,,30MonoWAV/30MonoS4.wav,1,1,3,12,,,,,1,9,25,11,,,,,,,,,,,,,,,009,001,2019_May_08_1412,MusicAffectPsychophysiology2019,3.0.5,59.953041899698135,
To what extent did the music make you feel ,SCARED,30MonoWAV/30MonoT2.wav,2,1,4,14,,,,,1,10,26,13,0,0,0,11,,,3,3.083967710000252,3,2.1354186040007335,,,1,2.733607893000226,009,001,2019_May_08_1412,MusicAffectPsychophysiology2019,3.0.5,59.953041899698135,
To what extent did the music make you feel ,SAD,30MonoWAV/30MonoT2.wav,2,1,4,14,,,,,1,10,26,13,0,1,1,0,,,,,,,,,1,0.8849366340000415,009,001,2019_May_08_1412,MusicAffectPsychophysiology2019,3.0.5,59.953041899698135,
To what extent did the music make you feel ,ASHAMED,30MonoWAV/30MonoT2.wav,2,1,4,14,,,,,1,10,26,13,0,2,2,4,,,,,,,,,1,1.9178882010000962,009,001,2019_May_08_1412,MusicAffectPsychophysiology2019,3.0.5,59.953041899698135,
To what extent did the music make you feel ,ALERT,30MonoWAV/30MonoT2.wav,2,1,4,14,,,,,1,10,26,13,0,3,3,8,,,,,,,,,1,2.383378470000025,009,001,2019_May_08_1412,MusicAffectPsychophysiology2019,3.0.5,59.953041899698135,
To what extent did the music make you feel ,ANGRY,30MonoWAV/30MonoT2.wav,2,1,4,14,,,,,1,10,26,13,0,4,4,2,,,,,,,,,1,1.168237732000307,009,001,2019_May_08_1412,MusicAffectPsychophysiology2019,3.0.5,59.953041899698135,
To what extent did the music make you feel ,FRUSTRATED,30MonoWAV/30MonoT2.wav,2,1,4,14,,,,,1,10,26,13,0,5,5,3,,,,,,,,,1,0.6850350180002351,009,001,2019_May_08_1412,MusicAffectPsychophysiology2019,3.0.5,59.953041899698135,
To what extent did the music make you feel ,HAPPY,30MonoWAV/30MonoT2.wav,2,1,4,14,,,,,1,10,26,13,0,6,6,6,,,,,,,,,4,1.9522672929997498,009,001,2019_May_08_1412,MusicAffectPsychophysiology2019,3.0.5,59.953041899698135,
To what extent did the music make you feel ,GUILTY,30MonoWAV/30MonoT2.wav,2,1,4,14,,,,,1,10,26,13,0,7,7,5,,,,,,,,,1,1.2993227019996993,009,001,2019_May_08_1412,MusicAffectPsychophysiology2019,3.0.5,59.953041899698135,
To what extent did the music make you feel ,ANXIOUS ,30MonoWAV/30MonoT2.wav,2,1,4,14,,,,,1,10,26,13,0,8,8,1,,,,,,,,,1,1.317531334000705,009,001,2019_May_08_1412,MusicAffectPsychophysiology2019,3.0.5,59.953041899698135,
To what extent did the music make you feel ,EXCITED,30MonoWAV/30MonoT2.wav,2,1,4,14,,,,,1,10,26,13,0,9,9,7,,,,,,,,,4,1.3683472170005189,009,001,2019_May_08_1412,MusicAffectPsychophysiology2019,3.0.5,59.953041899698135,
To what extent did the music make you feel ,TENDER,30MonoWAV/30MonoT2.wav,2,1,4,14,,,,,1,10,26,13,0,10,10,10,,,,,,,,,4,2.0854367839992847,009,001,2019_May_08_1412,MusicAffectPsychophysiology2019,3.0.5,59.953041899698135,
To what extent did the music make you feel ,ACTIVE,30MonoWAV/30MonoT2.wav,2,1,4,14,,,,,1,10,26,13,0,11,11,9,,,,,,,,,2,1.6016795840005216,009,001,2019_May_08_1412,MusicAffectPsychophysiology2019,3.0.5,59.953041899698135,
,,30MonoWAV/30MonoT2.wav,2,1,4,14,,,,,1,10,26,13,,,,,,,,,,,,,,,009,001,2019_May_08_1412,MusicAffectPsychophysiology2019,3.0.5,59.953041899698135,
To what extent did the music make you feel ,SCARED,30MonoWAV/30MonoS1.wav,1,1,3,9,,,,,1,11,27,8,0,0,0,11,,,1,2.518290648999937,4,1.834969133999948,,,1,3.7505680300000677,009,001,2019_May_08_1412,MusicAffectPsychophysiology2019,3.0.5,59.953041899698135,
To what extent did the music make you feel ,FRUSTRATED,30MonoWAV/30MonoS1.wav,1,1,3,9,,,,,1,11,27,8,0,1,1,3,,,,,,,,,1,1.0346865080000498,009,001,2019_May_08_1412,MusicAffectPsychophysiology2019,3.0.5,59.953041899698135,
To what extent did the music make you feel ,HAPPY,30MonoWAV/30MonoS1.wav,1,1,3,9,,,,,1,11,27,8,0,2,2,6,,,,,,,,,2,2.6507730560006166,009,001,2019_May_08_1412,MusicAffectPsychophysiology2019,3.0.5,59.953041899698135,
To what extent did the music make you feel ,GUILTY,30MonoWAV/30MonoS1.wav,1,1,3,9,,,,,1,11,27,8,0,3,3,5,,,,,,,,,4,2.1187238860002253,009,001,2019_May_08_1412,MusicAffectPsychophysiology2019,3.0.5,59.953041899698135,
To what extent did the music make you feel ,SAD,30MonoWAV/30MonoS1.wav,1,1,3,9,,,,,1,11,27,8,0,4,4,0,,,,,,,,,4,1.634375235999869,009,001,2019_May_08_1412,MusicAffectPsychophysiology2019,3.0.5,59.953041899698135,
To what extent did the music make you feel ,ALERT,30MonoWAV/30MonoS1.wav,1,1,3,9,,,,,1,11,27,8,0,5,5,8,,,,,,,,,1,2.1341433229999893,009,001,2019_May_08_1412,MusicAffectPsychophysiology2019,3.0.5,59.953041899698135,
To what extent did the music make you feel ,TENDER,30MonoWAV/30MonoS1.wav,1,1,3,9,,,,,1,11,27,8,0,6,6,10,,,,,,,,,3,1.5015345159999924,009,001,2019_May_08_1412,MusicAffectPsychophysiology2019,3.0.5,59.953041899698135,
To what extent did the music make you feel ,ASHAMED,30MonoWAV/30MonoS1.wav,1,1,3,9,,,,,1,11,27,8,0,7,7,4,,,,,,,,,4,1.8850691509996977,009,001,2019_May_08_1412,MusicAffectPsychophysiology2019,3.0.5,59.953041899698135,
To what extent did the music make you feel ,ANGRY,30MonoWAV/30MonoS1.wav,1,1,3,9,,,,,1,11,27,8,0,8,8,2,,,,,,,,,1,1.151748815999781,009,001,2019_May_08_1412,MusicAffectPsychophysiology2019,3.0.5,59.953041899698135,
To what extent did the music make you feel ,ANXIOUS ,30MonoWAV/30MonoS1.wav,1,1,3,9,,,,,1,11,27,8,0,9,9,1,,,,,,,,,2,1.8683953660001862,009,001,2019_May_08_1412,MusicAffectPsychophysiology2019,3.0.5,59.953041899698135,
To what extent did the music make you feel ,EXCITED,30MonoWAV/30MonoS1.wav,1,1,3,9,,,,,1,11,27,8,0,10,10,7,,,,,,,,,1,1.0327993640003115,009,001,2019_May_08_1412,MusicAffectPsychophysiology2019,3.0.5,59.953041899698135,
To what extent did the music make you feel ,ACTIVE,30MonoWAV/30MonoS1.wav,1,1,3,9,,,,,1,11,27,8,0,11,11,9,,,,,,,,,1,2.001620222999918,009,001,2019_May_08_1412,MusicAffectPsychophysiology2019,3.0.5,59.953041899698135,
,,30MonoWAV/30MonoS1.wav,1,1,3,9,,,,,1,11,27,8,,,,,,,,,,,,,,,009,001,2019_May_08_1412,MusicAffectPsychophysiology2019,3.0.5,59.953041899698135,
To what extent did the music make you feel ,ASHAMED,30MonoWAV/30MonoH4.wav,2,2,1,8,,,,,1,12,28,7,0,0,0,4,,,5,3.3725473289996444,4,1.3570362199998272,,,1,1.3186015880000923,009,001,2019_May_08_1412,MusicAffectPsychophysiology2019,3.0.5,59.953041899698135,
To what extent did the music make you feel ,ANXIOUS ,30MonoWAV/30MonoH4.wav,2,2,1,8,,,,,1,12,28,7,0,1,1,1,,,,,,,,,2,3.0007691150003666,009,001,2019_May_08_1412,MusicAffectPsychophysiology2019,3.0.5,59.953041899698135,
To what extent did the music make you feel ,EXCITED,30MonoWAV/30MonoH4.wav,2,2,1,8,,,,,1,12,28,7,0,2,2,7,,,,,,,,,4,1.7676993929999298,009,001,2019_May_08_1412,MusicAffectPsychophysiology2019,3.0.5,59.953041899698135,
To what extent did the music make you feel ,ANGRY,30MonoWAV/30MonoH4.wav,2,2,1,8,,,,,1,12,28,7,0,3,3,2,,,,,,,,,1,1.0512812839997423,009,001,2019_May_08_1412,MusicAffectPsychophysiology2019,3.0.5,59.953041899698135,
To what extent did the music make you feel ,ALERT,30MonoWAV/30MonoH4.wav,2,2,1,8,,,,,1,12,28,7,0,4,4,8,,,,,,,,,3,1.8520311370002673,009,001,2019_May_08_1412,MusicAffectPsychophysiology2019,3.0.5,59.953041899698135,
To what extent did the music make you feel ,HAPPY,30MonoWAV/30MonoH4.wav,2,2,1,8,,,,,1,12,28,7,0,5,5,6,,,,,,,,,5,1.868049030000293,009,001,2019_May_08_1412,MusicAffectPsychophysiology2019,3.0.5,59.953041899698135,
To what extent did the music make you feel ,SCARED,30MonoWAV/30MonoH4.wav,2,2,1,8,,,,,1,12,28,7,0,6,6,11,,,,,,,,,1,1.3182969959998445,009,001,2019_May_08_1412,MusicAffectPsychophysiology2019,3.0.5,59.953041899698135,
To what extent did the music make you feel ,ACTIVE,30MonoWAV/30MonoH4.wav,2,2,1,8,,,,,1,12,28,7,0,7,7,9,,,,,,,,,4,1.3030266459991253,009,001,2019_May_08_1412,MusicAffectPsychophysiology2019,3.0.5,59.953041899698135,
To what extent did the music make you feel ,FRUSTRATED,30MonoWAV/30MonoH4.wav,2,2,1,8,,,,,1,12,28,7,0,8,8,3,,,,,,,,,1,1.0341671559999668,009,001,2019_May_08_1412,MusicAffectPsychophysiology2019,3.0.5,59.953041899698135,
To what extent did the music make you feel ,SAD,30MonoWAV/30MonoH4.wav,2,2,1,8,,,,,1,12,28,7,0,9,9,0,,,,,,,,,1,1.100362211999709,009,001,2019_May_08_1412,MusicAffectPsychophysiology2019,3.0.5,59.953041899698135,
To what extent did the music make you feel ,GUILTY,30MonoWAV/30MonoH4.wav,2,2,1,8,,,,,1,12,28,7,0,10,10,5,,,,,,,,,1,0.9697477169993363,009,001,2019_May_08_1412,MusicAffectPsychophysiology2019,3.0.5,59.953041899698135,
To what extent did the music make you feel ,TENDER,30MonoWAV/30MonoH4.wav,2,2,1,8,,,,,1,12,28,7,0,11,11,10,,,,,,,,,1,1.1015303210006095,009,001,2019_May_08_1412,MusicAffectPsychophysiology2019,3.0.5,59.953041899698135,
,,30MonoWAV/30MonoH4.wav,2,2,1,8,,,,,1,12,28,7,,,,,,,,,,,,,,,009,001,2019_May_08_1412,MusicAffectPsychophysiology2019,3.0.5,59.953041899698135,
To what extent did the music make you feel ,TENDER,30MonoWAV/30MonoF2.wav,1,2,2,2,,,,,1,13,29,1,0,0,0,10,,,2,5.734342865999679,1,3.2663675550002154,,,1,1.2002917009995144,009,001,2019_May_08_1412,MusicAffectPsychophysiology2019,3.0.5,59.953041899698135,
To what extent did the music make you feel ,SAD,30MonoWAV/30MonoF2.wav,1,2,2,2,,,,,1,13,29,1,0,1,1,0,,,,,,,,,2,1.9511985950002781,009,001,2019_May_08_1412,MusicAffectPsychophysiology2019,3.0.5,59.953041899698135,
To what extent did the music make you feel ,ACTIVE,30MonoWAV/30MonoF2.wav,1,2,2,2,,,,,1,13,29,1,0,2,2,9,,,,,,,,,3,2.25182720399971,009,001,2019_May_08_1412,MusicAffectPsychophysiology2019,3.0.5,59.953041899698135,
To what extent did the music make you feel ,ANXIOUS ,30MonoWAV/30MonoF2.wav,1,2,2,2,,,,,1,13,29,1,0,3,3,1,,,,,,,,,4,1.7185239010004807,009,001,2019_May_08_1412,MusicAffectPsychophysiology2019,3.0.5,59.953041899698135,
To what extent did the music make you feel ,HAPPY,30MonoWAV/30MonoF2.wav,1,2,2,2,,,,,1,13,29,1,0,4,4,6,,,,,,,,,1,1.33463421200031,009,001,2019_May_08_1412,MusicAffectPsychophysiology2019,3.0.5,59.953041899698135,
To what extent did the music make you feel ,FRUSTRATED,30MonoWAV/30MonoF2.wav,1,2,2,2,,,,,1,13,29,1,0,5,5,3,,,,,,,,,4,1.5850611480000225,009,001,2019_May_08_1412,MusicAffectPsychophysiology2019,3.0.5,59.953041899698135,
To what extent did the music make you feel ,ASHAMED,30MonoWAV/30MonoF2.wav,1,2,2,2,,,,,1,13,29,1,0,6,6,4,,,,,,,,,1,1.6348144529993078,009,001,2019_May_08_1412,MusicAffectPsychophysiology2019,3.0.5,59.953041899698135,
To what extent did the music make you feel ,ANGRY,30MonoWAV/30MonoF2.wav,1,2,2,2,,,,,1,13,29,1,0,7,7,2,,,,,,,,,2,1.9185343560002366,009,001,2019_May_08_1412,MusicAffectPsychophysiology2019,3.0.5,59.953041899698135,
To what extent did the music make you feel ,SCARED,30MonoWAV/30MonoF2.wav,1,2,2,2,,,,,1,13,29,1,0,8,8,11,,,,,,,,,3,2.2855668800002604,009,001,2019_May_08_1412,MusicAffectPsychophysiology2019,3.0.5,59.953041899698135,
To what extent did the music make you feel ,GUILTY,30MonoWAV/30MonoF2.wav,1,2,2,2,,,,,1,13,29,1,0,9,9,5,,,,,,,,,1,1.2512366079999993,009,001,2019_May_08_1412,MusicAffectPsychophysiology2019,3.0.5,59.953041899698135,
To what extent did the music make you feel ,EXCITED,30MonoWAV/30MonoF2.wav,1,2,2,2,,,,,1,13,29,1,0,10,10,7,,,,,,,,,2,1.3664987759993892,009,001,2019_May_08_1412,MusicAffectPsychophysiology2019,3.0.5,59.953041899698135,
To what extent did the music make you feel ,ALERT,30MonoWAV/30MonoF2.wav,1,2,2,2,,,,,1,13,29,1,0,11,11,8,,,,,,,,,5,1.5011102890002803,009,001,2019_May_08_1412,MusicAffectPsychophysiology2019,3.0.5,59.953041899698135,
,,30MonoWAV/30MonoF2.wav,1,2,2,2,,,,,1,13,29,1,,,,,,,,,,,,,,,009,001,2019_May_08_1412,MusicAffectPsychophysiology2019,3.0.5,59.953041899698135,
To what extent did the music make you feel ,ALERT,30MonoWAV/30MonoF3.wav,1,2,2,3,,,,,1,14,30,2,0,0,0,8,,,3,4.685139066000374,2,2.63568542899975,,,4,2.0674875340000654,009,001,2019_May_08_1412,MusicAffectPsychophysiology2019,3.0.5,59.953041899698135,
To what extent did the music make you feel ,ANXIOUS ,30MonoWAV/30MonoF3.wav,1,2,2,3,,,,,1,14,30,2,0,1,1,1,,,,,,,,,4,2.1020197620000545,009,001,2019_May_08_1412,MusicAffectPsychophysiology2019,3.0.5,59.953041899698135,
To what extent did the music make you feel ,ACTIVE,30MonoWAV/30MonoF3.wav,1,2,2,3,,,,,1,14,30,2,0,2,2,9,,,,,,,,,2,3.7166371410003194,009,001,2019_May_08_1412,MusicAffectPsychophysiology2019,3.0.5,59.953041899698135,
To what extent did the music make you feel ,HAPPY,30MonoWAV/30MonoF3.wav,1,2,2,3,,,,,1,14,30,2,0,3,3,6,,,,,,,,,1,1.201789233999989,009,001,2019_May_08_1412,MusicAffectPsychophysiology2019,3.0.5,59.953041899698135,
To what extent did the music make you feel ,EXCITED,30MonoWAV/30MonoF3.wav,1,2,2,3,,,,,1,14,30,2,0,4,4,7,,,,,,,,,2,1.5505541780003114,009,001,2019_May_08_1412,MusicAffectPsychophysiology2019,3.0.5,59.953041899698135,
To what extent did the music make you feel ,SCARED,30MonoWAV/30MonoF3.wav,1,2,2,3,,,,,1,14,30,2,0,5,5,11,,,,,,,,,3,1.602643418000298,009,001,2019_May_08_1412,MusicAffectPsychophysiology2019,3.0.5,59.953041899698135,
To what extent did the music make you feel ,FRUSTRATED,30MonoWAV/30MonoF3.wav,1,2,2,3,,,,,1,14,30,2,0,6,6,3,,,,,,,,,1,1.2356466429991997,009,001,2019_May_08_1412,MusicAffectPsychophysiology2019,3.0.5,59.953041899698135,
To what extent did the music make you feel ,GUILTY,30MonoWAV/30MonoF3.wav,1,2,2,3,,,,,1,14,30,2,0,7,7,5,,,,,,,,,1,1.0846204769995893,009,001,2019_May_08_1412,MusicAffectPsychophysiology2019,3.0.5,59.953041899698135,
To what extent did the music make you feel ,ANGRY,30MonoWAV/30MonoF3.wav,1,2,2,3,,,,,1,14,30,2,0,8,8,2,,,,,,,,,3,2.434235286999865,009,001,2019_May_08_1412,MusicAffectPsychophysiology2019,3.0.5,59.953041899698135,
To what extent did the music make you feel ,ASHAMED,30MonoWAV/30MonoF3.wav,1,2,2,3,,,,,1,14,30,2,0,9,9,4,,,,,,,,,1,1.3855344610001339,009,001,2019_May_08_1412,MusicAffectPsychophysiology2019,3.0.5,59.953041899698135,
To what extent did the music make you feel ,TENDER,30MonoWAV/30MonoF3.wav,1,2,2,3,,,,,1,14,30,2,0,10,10,10,,,,,,,,,1,1.05208445199969,009,001,2019_May_08_1412,MusicAffectPsychophysiology2019,3.0.5,59.953041899698135,
To what extent did the music make you feel ,SAD,30MonoWAV/30MonoF3.wav,1,2,2,3,,,,,1,14,30,2,0,11,11,0,,,,,,,,,1,1.3511265409997577,009,001,2019_May_08_1412,MusicAffectPsychophysiology2019,3.0.5,59.953041899698135,
,,30MonoWAV/30MonoF3.wav,1,2,2,3,,,,,1,14,30,2,,,,,,,,,,,,,,,009,001,2019_May_08_1412,MusicAffectPsychophysiology2019,3.0.5,59.953041899698135,
To what extent did the music make you feel ,ANXIOUS ,30MonoWAV/30MonoS2.wav,1,1,3,10,,,,,1,15,31,9,0,0,0,1,,,1,2.6178543219994026,2,1.418408878000264,,,2,2.150852472999759,009,001,2019_May_08_1412,MusicAffectPsychophysiology2019,3.0.5,59.953041899698135,
To what extent did the music make you feel ,SAD,30MonoWAV/30MonoS2.wav,1,1,3,10,,,,,1,15,31,9,0,1,1,0,,,,,,,,,4,1.9019016090005607,009,001,2019_May_08_1412,MusicAffectPsychophysiology2019,3.0.5,59.953041899698135,
To what extent did the music make you feel ,HAPPY,30MonoWAV/30MonoS2.wav,1,1,3,10,,,,,1,15,31,9,0,2,2,6,,,,,,,,,1,2.199742550999872,009,001,2019_May_08_1412,MusicAffectPsychophysiology2019,3.0.5,59.953041899698135,
To what extent did the music make you feel ,ASHAMED,30MonoWAV/30MonoS2.wav,1,1,3,10,,,,,1,15,31,9,0,3,3,4,,,,,,,,,2,1.6538678580000123,009,001,2019_May_08_1412,MusicAffectPsychophysiology2019,3.0.5,59.953041899698135,
To what extent did the music make you feel ,ACTIVE,30MonoWAV/30MonoS2.wav,1,1,3,10,,,,,1,15,31,9,0,4,4,9,,,,,,,,,1,1.335105969000324,009,001,2019_May_08_1412,MusicAffectPsychophysiology2019,3.0.5,59.953041899698135,
To what extent did the music make you feel ,FRUSTRATED,30MonoWAV/30MonoS2.wav,1,1,3,10,,,,,1,15,31,9,0,5,5,3,,,,,,,,,1,1.5345687500002896,009,001,2019_May_08_1412,MusicAffectPsychophysiology2019,3.0.5,59.953041899698135,
To what extent did the music make you feel ,EXCITED,30MonoWAV/30MonoS2.wav,1,1,3,10,,,,,1,15,31,9,0,6,6,7,,,,,,,,,1,0.9341901620000499,009,001,2019_May_08_1412,MusicAffectPsychophysiology2019,3.0.5,59.953041899698135,
To what extent did the music make you feel ,GUILTY,30MonoWAV/30MonoS2.wav,1,1,3,10,,,,,1,15,31,9,0,7,7,5,,,,,,,,,3,1.3178787420001754,009,001,2019_May_08_1412,MusicAffectPsychophysiology2019,3.0.5,59.953041899698135,
To what extent did the music make you feel ,TENDER,30MonoWAV/30MonoS2.wav,1,1,3,10,,,,,1,15,31,9,0,8,8,10,,,,,,,,,3,2.2523060009998517,009,001,2019_May_08_1412,MusicAffectPsychophysiology2019,3.0.5,59.953041899698135,
To what extent did the music make you feel ,ALERT,30MonoWAV/30MonoS2.wav,1,1,3,10,,,,,1,15,31,9,0,9,9,8,,,,,,,,,1,2.034803948999979,009,001,2019_May_08_1412,MusicAffectPsychophysiology2019,3.0.5,59.953041899698135,
To what extent did the music make you feel ,SCARED,30MonoWAV/30MonoS2.wav,1,1,3,10,,,,,1,15,31,9,0,10,10,11,,,,,,,,,2,1.4849679680000918,009,001,2019_May_08_1412,MusicAffectPsychophysiology2019,3.0.5,59.953041899698135,
To what extent did the music make you feel ,ANGRY,30MonoWAV/30MonoS2.wav,1,1,3,10,,,,,1,15,31,9,0,11,11,2,,,,,,,,,1,1.3014936909994503,009,001,2019_May_08_1412,MusicAffectPsychophysiology2019,3.0.5,59.953041899698135,
,,30MonoWAV/30MonoS2.wav,1,1,3,10,,,,,1,15,31,9,,,,,,,,,,,,,,,009,001,2019_May_08_1412,MusicAffectPsychophysiology2019,3.0.5,59.953041899698135,
