Instruction,Word,song,valence,arousal,affectcat,songmark,pracwords.thisRepN,pracwords.thisTrialN,pracwords.thisN,pracwords.thisIndex,songtrials.thisRepN,songtrials.thisTrialN,songtrials.thisN,songtrials.thisIndex,words.thisRepN,words.thisTrialN,words.thisN,words.thisIndex,begin.keys,begin.rt,arousalkey.keys,arousalkey.rt,valencekey.keys,valencekey.rt,likekey.keys,likekey.rt,WordResponse.keys,WordResponse.rt,participant,session,date,expName,psychopyVersion,frameRate,
,,,,,,,,,,,,,,,,,,,space,11.497239984999396,,,,,,,,,010,001,2019_May_08_1606,MusicAffectPsychophysiology2019,3.0.5,59.98258021926837,
,,,,,,,,,,,,,,,,,,,,,2,10.53421114699995,,,,,,,010,001,2019_May_08_1606,MusicAffectPsychophysiology2019,3.0.5,59.98258021926837,
,,,,,,,,,,,,,,,,,,,,,,,3,6.383269346999441,,,,,010,001,2019_May_08_1606,MusicAffectPsychophysiology2019,3.0.5,59.98258021926837,
,,,,,,,,,,,,,,,,,,,,,,,,,3,5.551414978001048,,,010,001,2019_May_08_1606,MusicAffectPsychophysiology2019,3.0.5,59.98258021926837,
To what extent did the music make you feel ,ANXIOUS ,,,,,,0,0,0,1,,,,,,,,,,,,,,,,,1,6.817335806999836,010,001,2019_May_08_1606,MusicAffectPsychophysiology2019,3.0.5,59.98258021926837,
To what extent did the music make you feel ,SAD,,,,,,0,1,1,0,,,,,,,,,,,,,,,,,1,8.315822026001115,010,001,2019_May_08_1606,MusicAffectPsychophysiology2019,3.0.5,59.98258021926837,
To what extent did the music make you feel ,FRUSTRATED,,,,,,0,2,2,3,,,,,,,,,,,,,,,,,1,1.1848108409994893,010,001,2019_May_08_1606,MusicAffectPsychophysiology2019,3.0.5,59.98258021926837,
To what extent did the music make you feel ,GUILTY,,,,,,0,3,3,5,,,,,,,,,,,,,,,,,1,1.8350948330007668,010,001,2019_May_08_1606,MusicAffectPsychophysiology2019,3.0.5,59.98258021926837,
To what extent did the music make you feel ,SCARED,,,,,,0,4,4,11,,,,,,,,,,,,,,,,,1,1.4678177630012215,010,001,2019_May_08_1606,MusicAffectPsychophysiology2019,3.0.5,59.98258021926837,
To what extent did the music make you feel ,ALERT,,,,,,0,5,5,8,,,,,,,,,,,,,,,,,1,4.467677754999386,010,001,2019_May_08_1606,MusicAffectPsychophysiology2019,3.0.5,59.98258021926837,
To what extent did the music make you feel ,TENDER,,,,,,0,6,6,10,,,,,,,,,,,,,,,,,3,3.3509566920001816,010,001,2019_May_08_1606,MusicAffectPsychophysiology2019,3.0.5,59.98258021926837,
To what extent did the music make you feel ,ACTIVE,,,,,,0,7,7,9,,,,,,,,,,,,,,,,,1,3.267119353000453,010,001,2019_May_08_1606,MusicAffectPsychophysiology2019,3.0.5,59.98258021926837,
To what extent did the music make you feel ,EXCITED,,,,,,0,8,8,7,,,,,,,,,,,,,,,,,1,9.017131648000941,010,001,2019_May_08_1606,MusicAffectPsychophysiology2019,3.0.5,59.98258021926837,
To what extent did the music make you feel ,ANGRY,,,,,,0,9,9,2,,,,,,,,,,,,,,,,,1,1.2012909459990624,010,001,2019_May_08_1606,MusicAffectPsychophysiology2019,3.0.5,59.98258021926837,
To what extent did the music make you feel ,HAPPY,,,,,,0,10,10,6,,,,,,,,,,,,,,,,,2,1.9023159349999332,010,001,2019_May_08_1606,MusicAffectPsychophysiology2019,3.0.5,59.98258021926837,
To what extent did the music make you feel ,ASHAMED,,,,,,0,11,11,4,,,,,,,,,,,,,,,,,1,1.8186324810012593,010,001,2019_May_08_1606,MusicAffectPsychophysiology2019,3.0.5,59.98258021926837,
To what extent did the music make you feel ,FRUSTRATED,30MonoWAV/30MonoF2.wav,1,2,2,2,,,,,0,0,0,1,0,0,0,3,,,1,13.916193139000825,2,6.867391019000934,,,1,2.9183568360003846,010,001,2019_May_08_1606,MusicAffectPsychophysiology2019,3.0.5,59.98258021926837,
To what extent did the music make you feel ,GUILTY,30MonoWAV/30MonoF2.wav,1,2,2,2,,,,,0,0,0,1,0,1,1,5,,,,,,,,,1,3.234857818999444,010,001,2019_May_08_1606,MusicAffectPsychophysiology2019,3.0.5,59.98258021926837,
To what extent did the music make you feel ,SAD,30MonoWAV/30MonoF2.wav,1,2,2,2,,,,,0,0,0,1,0,2,2,0,,,,,,,,,1,2.3657610430000204,010,001,2019_May_08_1606,MusicAffectPsychophysiology2019,3.0.5,59.98258021926837,
To what extent did the music make you feel ,EXCITED,30MonoWAV/30MonoF2.wav,1,2,2,2,,,,,0,0,0,1,0,3,3,7,,,,,,,,,2,1.7521140199987713,010,001,2019_May_08_1606,MusicAffectPsychophysiology2019,3.0.5,59.98258021926837,
To what extent did the music make you feel ,SCARED,30MonoWAV/30MonoF2.wav,1,2,2,2,,,,,0,0,0,1,0,4,4,11,,,,,,,,,3,3.8175682609999058,010,001,2019_May_08_1606,MusicAffectPsychophysiology2019,3.0.5,59.98258021926837,
To what extent did the music make you feel ,ANXIOUS ,30MonoWAV/30MonoF2.wav,1,2,2,2,,,,,0,0,0,1,0,5,5,1,,,,,,,,,4,2.2848627470011706,010,001,2019_May_08_1606,MusicAffectPsychophysiology2019,3.0.5,59.98258021926837,
To what extent did the music make you feel ,TENDER,30MonoWAV/30MonoF2.wav,1,2,2,2,,,,,0,0,0,1,0,6,6,10,,,,,,,,,1,1.9840020419997018,010,001,2019_May_08_1606,MusicAffectPsychophysiology2019,3.0.5,59.98258021926837,
To what extent did the music make you feel ,ANGRY,30MonoWAV/30MonoF2.wav,1,2,2,2,,,,,0,0,0,1,0,7,7,2,,,,,,,,,1,3.3356546470004105,010,001,2019_May_08_1606,MusicAffectPsychophysiology2019,3.0.5,59.98258021926837,
To what extent did the music make you feel ,ALERT,30MonoWAV/30MonoF2.wav,1,2,2,2,,,,,0,0,0,1,0,8,8,8,,,,,,,,,3,2.4018649919999007,010,001,2019_May_08_1606,MusicAffectPsychophysiology2019,3.0.5,59.98258021926837,
To what extent did the music make you feel ,ASHAMED,30MonoWAV/30MonoF2.wav,1,2,2,2,,,,,0,0,0,1,0,9,9,4,,,,,,,,,1,2.1345179859999917,010,001,2019_May_08_1606,MusicAffectPsychophysiology2019,3.0.5,59.98258021926837,
To what extent did the music make you feel ,ACTIVE,30MonoWAV/30MonoF2.wav,1,2,2,2,,,,,0,0,0,1,0,10,10,9,,,,,,,,,1,2.1523320579999563,010,001,2019_May_08_1606,MusicAffectPsychophysiology2019,3.0.5,59.98258021926837,
To what extent did the music make you feel ,HAPPY,30MonoWAV/30MonoF2.wav,1,2,2,2,,,,,0,0,0,1,0,11,11,6,,,,,,,,,1,1.8732328280002548,010,001,2019_May_08_1606,MusicAffectPsychophysiology2019,3.0.5,59.98258021926837,
,,30MonoWAV/30MonoF2.wav,1,2,2,2,,,,,0,0,0,1,,,,,,,,,,,,,,,010,001,2019_May_08_1606,MusicAffectPsychophysiology2019,3.0.5,59.98258021926837,
To what extent did the music make you feel ,ALERT,30MonoWAV/30MonoS2.wav,1,1,3,10,,,,,0,1,1,9,0,0,0,8,,,1,8.837569598999835,4,5.457986116998654,,,2,9.095818223000606,010,001,2019_May_08_1606,MusicAffectPsychophysiology2019,3.0.5,59.98258021926837,
To what extent did the music make you feel ,ANXIOUS ,30MonoWAV/30MonoS2.wav,1,1,3,10,,,,,0,1,1,9,0,1,1,1,,,,,,,,,1,3.3550660830005654,010,001,2019_May_08_1606,MusicAffectPsychophysiology2019,3.0.5,59.98258021926837,
To what extent did the music make you feel ,ANGRY,30MonoWAV/30MonoS2.wav,1,1,3,10,,,,,0,1,1,9,0,2,2,2,,,,,,,,,1,1.1362582849997125,010,001,2019_May_08_1606,MusicAffectPsychophysiology2019,3.0.5,59.98258021926837,
To what extent did the music make you feel ,TENDER,30MonoWAV/30MonoS2.wav,1,1,3,10,,,,,0,1,1,9,0,3,3,10,,,,,,,,,4,3.8090088949993515,010,001,2019_May_08_1606,MusicAffectPsychophysiology2019,3.0.5,59.98258021926837,
To what extent did the music make you feel ,EXCITED,30MonoWAV/30MonoS2.wav,1,1,3,10,,,,,0,1,1,9,0,4,4,7,,,,,,,,,2,2.0355573360011476,010,001,2019_May_08_1606,MusicAffectPsychophysiology2019,3.0.5,59.98258021926837,
To what extent did the music make you feel ,FRUSTRATED,30MonoWAV/30MonoS2.wav,1,1,3,10,,,,,0,1,1,9,0,5,5,3,,,,,,,,,1,1.2353169199996046,010,001,2019_May_08_1606,MusicAffectPsychophysiology2019,3.0.5,59.98258021926837,
To what extent did the music make you feel ,HAPPY,30MonoWAV/30MonoS2.wav,1,1,3,10,,,,,0,1,1,9,0,6,6,6,,,,,,,,,2,7.067437921999954,010,001,2019_May_08_1606,MusicAffectPsychophysiology2019,3.0.5,59.98258021926837,
To what extent did the music make you feel ,SAD,30MonoWAV/30MonoS2.wav,1,1,3,10,,,,,0,1,1,9,0,7,7,0,,,,,,,,,3,1.999353314999098,010,001,2019_May_08_1606,MusicAffectPsychophysiology2019,3.0.5,59.98258021926837,
To what extent did the music make you feel ,ASHAMED,30MonoWAV/30MonoS2.wav,1,1,3,10,,,,,0,1,1,9,0,8,8,4,,,,,,,,,1,1.7671353429996088,010,001,2019_May_08_1606,MusicAffectPsychophysiology2019,3.0.5,59.98258021926837,
To what extent did the music make you feel ,GUILTY,30MonoWAV/30MonoS2.wav,1,1,3,10,,,,,0,1,1,9,0,9,9,5,,,,,,,,,1,2.017645530999289,010,001,2019_May_08_1606,MusicAffectPsychophysiology2019,3.0.5,59.98258021926837,
To what extent did the music make you feel ,ACTIVE,30MonoWAV/30MonoS2.wav,1,1,3,10,,,,,0,1,1,9,0,10,10,9,,,,,,,,,1,2.5676681360000657,010,001,2019_May_08_1606,MusicAffectPsychophysiology2019,3.0.5,59.98258021926837,
To what extent did the music make you feel ,SCARED,30MonoWAV/30MonoS2.wav,1,1,3,10,,,,,0,1,1,9,0,11,11,11,,,,,,,,,1,2.5013857249996363,010,001,2019_May_08_1606,MusicAffectPsychophysiology2019,3.0.5,59.98258021926837,
,,30MonoWAV/30MonoS2.wav,1,1,3,10,,,,,0,1,1,9,,,,,,,,,,,,,,,010,001,2019_May_08_1606,MusicAffectPsychophysiology2019,3.0.5,59.98258021926837,
To what extent did the music make you feel ,ANXIOUS ,30MonoWAV/30MonoT2.wav,2,1,4,14,,,,,0,2,2,13,0,0,0,1,,,1,16.88252566600022,2,2.918413359000624,,,3,3.485928389000037,010,001,2019_May_08_1606,MusicAffectPsychophysiology2019,3.0.5,59.98258021926837,
To what extent did the music make you feel ,ACTIVE,30MonoWAV/30MonoT2.wav,2,1,4,14,,,,,0,2,2,13,0,1,1,9,,,,,,,,,1,2.2344218939997518,010,001,2019_May_08_1606,MusicAffectPsychophysiology2019,3.0.5,59.98258021926837,
To what extent did the music make you feel ,ASHAMED,30MonoWAV/30MonoT2.wav,2,1,4,14,,,,,0,2,2,13,0,2,2,4,,,,,,,,,1,5.168494482000824,010,001,2019_May_08_1606,MusicAffectPsychophysiology2019,3.0.5,59.98258021926837,
To what extent did the music make you feel ,HAPPY,30MonoWAV/30MonoT2.wav,2,1,4,14,,,,,0,2,2,13,0,3,3,6,,,,,,,,,2,2.9351814959991316,010,001,2019_May_08_1606,MusicAffectPsychophysiology2019,3.0.5,59.98258021926837,
To what extent did the music make you feel ,EXCITED,30MonoWAV/30MonoT2.wav,2,1,4,14,,,,,0,2,2,13,0,4,4,7,,,,,,,,,1,4.9011964189994615,010,001,2019_May_08_1606,MusicAffectPsychophysiology2019,3.0.5,59.98258021926837,
To what extent did the music make you feel ,ANGRY,30MonoWAV/30MonoT2.wav,2,1,4,14,,,,,0,2,2,13,0,5,5,2,,,,,,,,,2,5.28359657799956,010,001,2019_May_08_1606,MusicAffectPsychophysiology2019,3.0.5,59.98258021926837,
To what extent did the music make you feel ,FRUSTRATED,30MonoWAV/30MonoT2.wav,2,1,4,14,,,,,0,2,2,13,0,6,6,3,,,,,,,,,3,3.251782433000699,010,001,2019_May_08_1606,MusicAffectPsychophysiology2019,3.0.5,59.98258021926837,
To what extent did the music make you feel ,ALERT,30MonoWAV/30MonoT2.wav,2,1,4,14,,,,,0,2,2,13,0,7,7,8,,,,,,,,,3,1.716986547999113,010,001,2019_May_08_1606,MusicAffectPsychophysiology2019,3.0.5,59.98258021926837,
To what extent did the music make you feel ,TENDER,30MonoWAV/30MonoT2.wav,2,1,4,14,,,,,0,2,2,13,0,8,8,10,,,,,,,,,2,2.5516092289999506,010,001,2019_May_08_1606,MusicAffectPsychophysiology2019,3.0.5,59.98258021926837,
To what extent did the music make you feel ,SCARED,30MonoWAV/30MonoT2.wav,2,1,4,14,,,,,0,2,2,13,0,9,9,11,,,,,,,,,1,1.734820801000751,010,001,2019_May_08_1606,MusicAffectPsychophysiology2019,3.0.5,59.98258021926837,
To what extent did the music make you feel ,SAD,30MonoWAV/30MonoT2.wav,2,1,4,14,,,,,0,2,2,13,0,10,10,0,,,,,,,,,2,2.6016877350011782,010,001,2019_May_08_1606,MusicAffectPsychophysiology2019,3.0.5,59.98258021926837,
To what extent did the music make you feel ,GUILTY,30MonoWAV/30MonoT2.wav,2,1,4,14,,,,,0,2,2,13,0,11,11,5,,,,,,,,,1,1.9015015610002592,010,001,2019_May_08_1606,MusicAffectPsychophysiology2019,3.0.5,59.98258021926837,
,,30MonoWAV/30MonoT2.wav,2,1,4,14,,,,,0,2,2,13,,,,,,,,,,,,,,,010,001,2019_May_08_1606,MusicAffectPsychophysiology2019,3.0.5,59.98258021926837,
To what extent did the music make you feel ,TENDER,30MonoWAV/30MonoT4.wav,2,1,4,16,,,,,0,3,3,15,0,0,0,10,,,2,7.280726340000911,5,5.018260232000102,,,4,3.7192947330004245,010,001,2019_May_08_1606,MusicAffectPsychophysiology2019,3.0.5,59.98258021926837,
To what extent did the music make you feel ,ANXIOUS ,30MonoWAV/30MonoT4.wav,2,1,4,16,,,,,0,3,3,15,0,1,1,1,,,,,,,,,1,2.3015470530008315,010,001,2019_May_08_1606,MusicAffectPsychophysiology2019,3.0.5,59.98258021926837,
To what extent did the music make you feel ,ASHAMED,30MonoWAV/30MonoT4.wav,2,1,4,16,,,,,0,3,3,15,0,2,2,4,,,,,,,,,1,2.101200005999999,010,001,2019_May_08_1606,MusicAffectPsychophysiology2019,3.0.5,59.98258021926837,
To what extent did the music make you feel ,ACTIVE,30MonoWAV/30MonoT4.wav,2,1,4,16,,,,,0,3,3,15,0,3,3,9,,,,,,,,,2,3.717195012000957,010,001,2019_May_08_1606,MusicAffectPsychophysiology2019,3.0.5,59.98258021926837,
To what extent did the music make you feel ,SAD,30MonoWAV/30MonoT4.wav,2,1,4,16,,,,,0,3,3,15,0,4,4,0,,,,,,,,,2,2.2015719470000477,010,001,2019_May_08_1606,MusicAffectPsychophysiology2019,3.0.5,59.98258021926837,
To what extent did the music make you feel ,HAPPY,30MonoWAV/30MonoT4.wav,2,1,4,16,,,,,0,3,3,15,0,5,5,6,,,,,,,,,4,2.4832226849994186,010,001,2019_May_08_1606,MusicAffectPsychophysiology2019,3.0.5,59.98258021926837,
To what extent did the music make you feel ,EXCITED,30MonoWAV/30MonoT4.wav,2,1,4,16,,,,,0,3,3,15,0,6,6,7,,,,,,,,,1,1.5851279280013841,010,001,2019_May_08_1606,MusicAffectPsychophysiology2019,3.0.5,59.98258021926837,
To what extent did the music make you feel ,FRUSTRATED,30MonoWAV/30MonoT4.wav,2,1,4,16,,,,,0,3,3,15,0,7,7,3,,,,,,,,,1,1.5662674750001315,010,001,2019_May_08_1606,MusicAffectPsychophysiology2019,3.0.5,59.98258021926837,
To what extent did the music make you feel ,GUILTY,30MonoWAV/30MonoT4.wav,2,1,4,16,,,,,0,3,3,15,0,8,8,5,,,,,,,,,1,0.985241591999511,010,001,2019_May_08_1606,MusicAffectPsychophysiology2019,3.0.5,59.98258021926837,
To what extent did the music make you feel ,ALERT,30MonoWAV/30MonoT4.wav,2,1,4,16,,,,,0,3,3,15,0,9,9,8,,,,,,,,,2,2.7850743790004344,010,001,2019_May_08_1606,MusicAffectPsychophysiology2019,3.0.5,59.98258021926837,
To what extent did the music make you feel ,ANGRY,30MonoWAV/30MonoT4.wav,2,1,4,16,,,,,0,3,3,15,0,10,10,2,,,,,,,,,1,1.8679672890011716,010,001,2019_May_08_1606,MusicAffectPsychophysiology2019,3.0.5,59.98258021926837,
To what extent did the music make you feel ,SCARED,30MonoWAV/30MonoT4.wav,2,1,4,16,,,,,0,3,3,15,0,11,11,11,,,,,,,,,1,1.6180582020006113,010,001,2019_May_08_1606,MusicAffectPsychophysiology2019,3.0.5,59.98258021926837,
,,30MonoWAV/30MonoT4.wav,2,1,4,16,,,,,0,3,3,15,,,,,,,,,,,,,,,010,001,2019_May_08_1606,MusicAffectPsychophysiology2019,3.0.5,59.98258021926837,
To what extent did the music make you feel ,EXCITED,30MonoWAV/30MonoT1.wav,2,1,4,13,,,,,0,4,4,12,0,0,0,7,,,2,7.733567444000073,3,3.735025478001262,,,2,3.3838772509989212,010,001,2019_May_08_1606,MusicAffectPsychophysiology2019,3.0.5,59.98258021926837,
To what extent did the music make you feel ,ANGRY,30MonoWAV/30MonoT1.wav,2,1,4,13,,,,,0,4,4,12,0,1,1,2,,,,,,,,,1,1.2188731120004377,010,001,2019_May_08_1606,MusicAffectPsychophysiology2019,3.0.5,59.98258021926837,
To what extent did the music make you feel ,ACTIVE,30MonoWAV/30MonoT1.wav,2,1,4,13,,,,,0,4,4,12,0,2,2,9,,,,,,,,,1,2.684222439000223,010,001,2019_May_08_1606,MusicAffectPsychophysiology2019,3.0.5,59.98258021926837,
To what extent did the music make you feel ,SAD,30MonoWAV/30MonoT1.wav,2,1,4,13,,,,,0,4,4,12,0,3,3,0,,,,,,,,,3,2.3011919210002816,010,001,2019_May_08_1606,MusicAffectPsychophysiology2019,3.0.5,59.98258021926837,
To what extent did the music make you feel ,FRUSTRATED,30MonoWAV/30MonoT1.wav,2,1,4,13,,,,,0,4,4,12,0,4,4,3,,,,,,,,,1,2.4681264569990162,010,001,2019_May_08_1606,MusicAffectPsychophysiology2019,3.0.5,59.98258021926837,
To what extent did the music make you feel ,SCARED,30MonoWAV/30MonoT1.wav,2,1,4,13,,,,,0,4,4,12,0,5,5,11,,,,,,,,,1,2.6015714969998953,010,001,2019_May_08_1606,MusicAffectPsychophysiology2019,3.0.5,59.98258021926837,
To what extent did the music make you feel ,TENDER,30MonoWAV/30MonoT1.wav,2,1,4,13,,,,,0,4,4,12,0,6,6,10,,,,,,,,,4,3.1515942070000165,010,001,2019_May_08_1606,MusicAffectPsychophysiology2019,3.0.5,59.98258021926837,
To what extent did the music make you feel ,HAPPY,30MonoWAV/30MonoT1.wav,2,1,4,13,,,,,0,4,4,12,0,7,7,6,,,,,,,,,2,3.2340229370001907,010,001,2019_May_08_1606,MusicAffectPsychophysiology2019,3.0.5,59.98258021926837,
To what extent did the music make you feel ,ALERT,30MonoWAV/30MonoT1.wav,2,1,4,13,,,,,0,4,4,12,0,8,8,8,,,,,,,,,1,2.6350452930000756,010,001,2019_May_08_1606,MusicAffectPsychophysiology2019,3.0.5,59.98258021926837,
To what extent did the music make you feel ,ASHAMED,30MonoWAV/30MonoT1.wav,2,1,4,13,,,,,0,4,4,12,0,9,9,4,,,,,,,,,1,2.034847365001042,010,001,2019_May_08_1606,MusicAffectPsychophysiology2019,3.0.5,59.98258021926837,
To what extent did the music make you feel ,ANXIOUS ,30MonoWAV/30MonoT1.wav,2,1,4,13,,,,,0,4,4,12,0,10,10,1,,,,,,,,,1,2.2686550580001494,010,001,2019_May_08_1606,MusicAffectPsychophysiology2019,3.0.5,59.98258021926837,
To what extent did the music make you feel ,GUILTY,30MonoWAV/30MonoT1.wav,2,1,4,13,,,,,0,4,4,12,0,11,11,5,,,,,,,,,1,2.433263105000151,010,001,2019_May_08_1606,MusicAffectPsychophysiology2019,3.0.5,59.98258021926837,
,,30MonoWAV/30MonoT1.wav,2,1,4,13,,,,,0,4,4,12,,,,,,,,,,,,,,,010,001,2019_May_08_1606,MusicAffectPsychophysiology2019,3.0.5,59.98258021926837,
To what extent did the music make you feel ,ASHAMED,30MonoWAV/30MonoT3.wav,2,1,4,15,,,,,0,5,5,14,0,0,0,4,,,3,5.001058416999513,5,3.883694144000401,,,1,2.517888612999741,010,001,2019_May_08_1606,MusicAffectPsychophysiology2019,3.0.5,59.98258021926837,
To what extent did the music make you feel ,EXCITED,30MonoWAV/30MonoT3.wav,2,1,4,15,,,,,0,5,5,14,0,1,1,7,,,,,,,,,3,2.918483739998919,010,001,2019_May_08_1606,MusicAffectPsychophysiology2019,3.0.5,59.98258021926837,
To what extent did the music make you feel ,ACTIVE,30MonoWAV/30MonoT3.wav,2,1,4,15,,,,,0,5,5,14,0,2,2,9,,,,,,,,,2,3.634214644000167,010,001,2019_May_08_1606,MusicAffectPsychophysiology2019,3.0.5,59.98258021926837,
To what extent did the music make you feel ,SCARED,30MonoWAV/30MonoT3.wav,2,1,4,15,,,,,0,5,5,14,0,3,3,11,,,,,,,,,1,1.8184847020002053,010,001,2019_May_08_1606,MusicAffectPsychophysiology2019,3.0.5,59.98258021926837,
To what extent did the music make you feel ,ALERT,30MonoWAV/30MonoT3.wav,2,1,4,15,,,,,0,5,5,14,0,4,4,8,,,,,,,,,2,2.4852725119999377,010,001,2019_May_08_1606,MusicAffectPsychophysiology2019,3.0.5,59.98258021926837,
To what extent did the music make you feel ,ANXIOUS ,30MonoWAV/30MonoT3.wav,2,1,4,15,,,,,0,5,5,14,0,5,5,1,,,,,,,,,1,1.5186953949996678,010,001,2019_May_08_1606,MusicAffectPsychophysiology2019,3.0.5,59.98258021926837,
To what extent did the music make you feel ,TENDER,30MonoWAV/30MonoT3.wav,2,1,4,15,,,,,0,5,5,14,0,6,6,10,,,,,,,,,4,2.034193358000266,010,001,2019_May_08_1606,MusicAffectPsychophysiology2019,3.0.5,59.98258021926837,
To what extent did the music make you feel ,GUILTY,30MonoWAV/30MonoT3.wav,2,1,4,15,,,,,0,5,5,14,0,7,7,5,,,,,,,,,1,2.7179539619992283,010,001,2019_May_08_1606,MusicAffectPsychophysiology2019,3.0.5,59.98258021926837,
To what extent did the music make you feel ,FRUSTRATED,30MonoWAV/30MonoT3.wav,2,1,4,15,,,,,0,5,5,14,0,8,8,3,,,,,,,,,1,1.8698332130006747,010,001,2019_May_08_1606,MusicAffectPsychophysiology2019,3.0.5,59.98258021926837,
To what extent did the music make you feel ,ANGRY,30MonoWAV/30MonoT3.wav,2,1,4,15,,,,,0,5,5,14,0,9,9,2,,,,,,,,,1,2.9848079990006227,010,001,2019_May_08_1606,MusicAffectPsychophysiology2019,3.0.5,59.98258021926837,
To what extent did the music make you feel ,HAPPY,30MonoWAV/30MonoT3.wav,2,1,4,15,,,,,0,5,5,14,0,10,10,6,,,,,,,,,5,2.9992718379999133,010,001,2019_May_08_1606,MusicAffectPsychophysiology2019,3.0.5,59.98258021926837,
To what extent did the music make you feel ,SAD,30MonoWAV/30MonoT3.wav,2,1,4,15,,,,,0,5,5,14,0,11,11,0,,,,,,,,,2,6.500052307999795,010,001,2019_May_08_1606,MusicAffectPsychophysiology2019,3.0.5,59.98258021926837,
,,30MonoWAV/30MonoT3.wav,2,1,4,15,,,,,0,5,5,14,,,,,,,,,,,,,,,010,001,2019_May_08_1606,MusicAffectPsychophysiology2019,3.0.5,59.98258021926837,
To what extent did the music make you feel ,EXCITED,30MonoWAV/30MonoH4.wav,2,2,1,8,,,,,0,6,6,7,0,0,0,7,,,4,4.857379748000312,4,3.874301492000086,,,5,5.383723884999199,010,001,2019_May_08_1606,MusicAffectPsychophysiology2019,3.0.5,59.98258021926837,
To what extent did the music make you feel ,ACTIVE,30MonoWAV/30MonoH4.wav,2,2,1,8,,,,,0,6,6,7,0,1,1,9,,,,,,,,,3,2.635355418000472,010,001,2019_May_08_1606,MusicAffectPsychophysiology2019,3.0.5,59.98258021926837,
To what extent did the music make you feel ,HAPPY,30MonoWAV/30MonoH4.wav,2,2,1,8,,,,,0,6,6,7,0,2,2,6,,,,,,,,,4,2.7512341040001047,010,001,2019_May_08_1606,MusicAffectPsychophysiology2019,3.0.5,59.98258021926837,
To what extent did the music make you feel ,SAD,30MonoWAV/30MonoH4.wav,2,2,1,8,,,,,0,6,6,7,0,3,3,0,,,,,,,,,1,1.8018833719997929,010,001,2019_May_08_1606,MusicAffectPsychophysiology2019,3.0.5,59.98258021926837,
To what extent did the music make you feel ,GUILTY,30MonoWAV/30MonoH4.wav,2,2,1,8,,,,,0,6,6,7,0,4,4,5,,,,,,,,,1,1.8661602569991373,010,001,2019_May_08_1606,MusicAffectPsychophysiology2019,3.0.5,59.98258021926837,
To what extent did the music make you feel ,SCARED,30MonoWAV/30MonoH4.wav,2,2,1,8,,,,,0,6,6,7,0,5,5,11,,,,,,,,,1,1.7188994200005254,010,001,2019_May_08_1606,MusicAffectPsychophysiology2019,3.0.5,59.98258021926837,
To what extent did the music make you feel ,ANGRY,30MonoWAV/30MonoH4.wav,2,2,1,8,,,,,0,6,6,7,0,6,6,2,,,,,,,,,1,2.4852129300015804,010,001,2019_May_08_1606,MusicAffectPsychophysiology2019,3.0.5,59.98258021926837,
To what extent did the music make you feel ,TENDER,30MonoWAV/30MonoH4.wav,2,2,1,8,,,,,0,6,6,7,0,7,7,10,,,,,,,,,2,2.351294121999672,010,001,2019_May_08_1606,MusicAffectPsychophysiology2019,3.0.5,59.98258021926837,
To what extent did the music make you feel ,ALERT,30MonoWAV/30MonoH4.wav,2,2,1,8,,,,,0,6,6,7,0,8,8,8,,,,,,,,,3,2.450867962999837,010,001,2019_May_08_1606,MusicAffectPsychophysiology2019,3.0.5,59.98258021926837,
To what extent did the music make you feel ,FRUSTRATED,30MonoWAV/30MonoH4.wav,2,2,1,8,,,,,0,6,6,7,0,9,9,3,,,,,,,,,1,1.9676096230014082,010,001,2019_May_08_1606,MusicAffectPsychophysiology2019,3.0.5,59.98258021926837,
To what extent did the music make you feel ,ANXIOUS ,30MonoWAV/30MonoH4.wav,2,2,1,8,,,,,0,6,6,7,0,10,10,1,,,,,,,,,1,2.4687014919982175,010,001,2019_May_08_1606,MusicAffectPsychophysiology2019,3.0.5,59.98258021926837,
To what extent did the music make you feel ,ASHAMED,30MonoWAV/30MonoH4.wav,2,2,1,8,,,,,0,6,6,7,0,11,11,4,,,,,,,,,1,2.302516404999551,010,001,2019_May_08_1606,MusicAffectPsychophysiology2019,3.0.5,59.98258021926837,
,,30MonoWAV/30MonoH4.wav,2,2,1,8,,,,,0,6,6,7,,,,,,,,,,,,,,,010,001,2019_May_08_1606,MusicAffectPsychophysiology2019,3.0.5,59.98258021926837,
To what extent did the music make you feel ,ALERT,30MonoWAV/30MonoH1.wav,2,2,1,5,,,,,0,7,7,4,0,0,0,8,,,3,4.33540809599981,3,3.9182087990011496,,,3,10.800064829998519,010,001,2019_May_08_1606,MusicAffectPsychophysiology2019,3.0.5,59.98258021926837,
To what extent did the music make you feel ,HAPPY,30MonoWAV/30MonoH1.wav,2,2,1,5,,,,,0,7,7,4,0,1,1,6,,,,,,,,,4,6.001451164000173,010,001,2019_May_08_1606,MusicAffectPsychophysiology2019,3.0.5,59.98258021926837,
To what extent did the music make you feel ,EXCITED,30MonoWAV/30MonoH1.wav,2,2,1,5,,,,,0,7,7,4,0,2,2,7,,,,,,,,,2,1.6853130300005432,010,001,2019_May_08_1606,MusicAffectPsychophysiology2019,3.0.5,59.98258021926837,
To what extent did the music make you feel ,ANXIOUS ,30MonoWAV/30MonoH1.wav,2,2,1,5,,,,,0,7,7,4,0,3,3,1,,,,,,,,,1,1.7685635590005404,010,001,2019_May_08_1606,MusicAffectPsychophysiology2019,3.0.5,59.98258021926837,
To what extent did the music make you feel ,ACTIVE,30MonoWAV/30MonoH1.wav,2,2,1,5,,,,,0,7,7,4,0,4,4,9,,,,,,,,,3,6.365340616999674,010,001,2019_May_08_1606,MusicAffectPsychophysiology2019,3.0.5,59.98258021926837,
To what extent did the music make you feel ,SAD,30MonoWAV/30MonoH1.wav,2,2,1,5,,,,,0,7,7,4,0,5,5,0,,,,,,,,,1,1.769468271999358,010,001,2019_May_08_1606,MusicAffectPsychophysiology2019,3.0.5,59.98258021926837,
To what extent did the music make you feel ,ASHAMED,30MonoWAV/30MonoH1.wav,2,2,1,5,,,,,0,7,7,4,0,6,6,4,,,,,,,,,1,1.1525762510009372,010,001,2019_May_08_1606,MusicAffectPsychophysiology2019,3.0.5,59.98258021926837,
To what extent did the music make you feel ,ANGRY,30MonoWAV/30MonoH1.wav,2,2,1,5,,,,,0,7,7,4,0,7,7,2,,,,,,,,,1,1.9011591050002608,010,001,2019_May_08_1606,MusicAffectPsychophysiology2019,3.0.5,59.98258021926837,
To what extent did the music make you feel ,GUILTY,30MonoWAV/30MonoH1.wav,2,2,1,5,,,,,0,7,7,4,0,8,8,5,,,,,,,,,1,2.300860190000094,010,001,2019_May_08_1606,MusicAffectPsychophysiology2019,3.0.5,59.98258021926837,
To what extent did the music make you feel ,FRUSTRATED,30MonoWAV/30MonoH1.wav,2,2,1,5,,,,,0,7,7,4,0,9,9,3,,,,,,,,,1,1.8680330500010314,010,001,2019_May_08_1606,MusicAffectPsychophysiology2019,3.0.5,59.98258021926837,
To what extent did the music make you feel ,TENDER,30MonoWAV/30MonoH1.wav,2,2,1,5,,,,,0,7,7,4,0,10,10,10,,,,,,,,,1,2.8510531850006373,010,001,2019_May_08_1606,MusicAffectPsychophysiology2019,3.0.5,59.98258021926837,
To what extent did the music make you feel ,SCARED,30MonoWAV/30MonoH1.wav,2,2,1,5,,,,,0,7,7,4,0,11,11,11,,,,,,,,,1,2.2680610829993384,010,001,2019_May_08_1606,MusicAffectPsychophysiology2019,3.0.5,59.98258021926837,
,,30MonoWAV/30MonoH1.wav,2,2,1,5,,,,,0,7,7,4,,,,,,,,,,,,,,,010,001,2019_May_08_1606,MusicAffectPsychophysiology2019,3.0.5,59.98258021926837,
To what extent did the music make you feel ,HAPPY,30MonoWAV/30MonoS1.wav,1,1,3,9,,,,,0,8,8,8,0,0,0,6,,,1,9.315382336000766,2,3.1022739540003386,,,1,8.499034616001154,010,001,2019_May_08_1606,MusicAffectPsychophysiology2019,3.0.5,59.98258021926837,
To what extent did the music make you feel ,ASHAMED,30MonoWAV/30MonoS1.wav,1,1,3,9,,,,,0,8,8,8,0,1,1,4,,,,,,,,,2,8.684746812999947,010,001,2019_May_08_1606,MusicAffectPsychophysiology2019,3.0.5,59.98258021926837,
To what extent did the music make you feel ,SCARED,30MonoWAV/30MonoS1.wav,1,1,3,9,,,,,0,8,8,8,0,2,2,11,,,,,,,,,1,1.2832343569989462,010,001,2019_May_08_1606,MusicAffectPsychophysiology2019,3.0.5,59.98258021926837,
To what extent did the music make you feel ,EXCITED,30MonoWAV/30MonoS1.wav,1,1,3,9,,,,,0,8,8,8,0,3,3,7,,,,,,,,,1,2.9516879740003787,010,001,2019_May_08_1606,MusicAffectPsychophysiology2019,3.0.5,59.98258021926837,
To what extent did the music make you feel ,ACTIVE,30MonoWAV/30MonoS1.wav,1,1,3,9,,,,,0,8,8,8,0,4,4,9,,,,,,,,,1,2.4174811619996035,010,001,2019_May_08_1606,MusicAffectPsychophysiology2019,3.0.5,59.98258021926837,
To what extent did the music make you feel ,TENDER,30MonoWAV/30MonoS1.wav,1,1,3,9,,,,,0,8,8,8,0,5,5,10,,,,,,,,,3,2.5193938269985665,010,001,2019_May_08_1606,MusicAffectPsychophysiology2019,3.0.5,59.98258021926837,
To what extent did the music make you feel ,ALERT,30MonoWAV/30MonoS1.wav,1,1,3,9,,,,,0,8,8,8,0,6,6,8,,,,,,,,,1,2.7191074209986255,010,001,2019_May_08_1606,MusicAffectPsychophysiology2019,3.0.5,59.98258021926837,
To what extent did the music make you feel ,FRUSTRATED,30MonoWAV/30MonoS1.wav,1,1,3,9,,,,,0,8,8,8,0,7,7,3,,,,,,,,,1,3.035199764999561,010,001,2019_May_08_1606,MusicAffectPsychophysiology2019,3.0.5,59.98258021926837,
To what extent did the music make you feel ,GUILTY,30MonoWAV/30MonoS1.wav,1,1,3,9,,,,,0,8,8,8,0,8,8,5,,,,,,,,,2,2.967026390000683,010,001,2019_May_08_1606,MusicAffectPsychophysiology2019,3.0.5,59.98258021926837,
To what extent did the music make you feel ,SAD,30MonoWAV/30MonoS1.wav,1,1,3,9,,,,,0,8,8,8,0,9,9,0,,,,,,,,,4,2.4167738870000903,010,001,2019_May_08_1606,MusicAffectPsychophysiology2019,3.0.5,59.98258021926837,
To what extent did the music make you feel ,ANGRY,30MonoWAV/30MonoS1.wav,1,1,3,9,,,,,0,8,8,8,0,10,10,2,,,,,,,,,1,2.6363086530000146,010,001,2019_May_08_1606,MusicAffectPsychophysiology2019,3.0.5,59.98258021926837,
To what extent did the music make you feel ,ANXIOUS ,30MonoWAV/30MonoS1.wav,1,1,3,9,,,,,0,8,8,8,0,11,11,1,,,,,,,,,2,2.189250097000695,010,001,2019_May_08_1606,MusicAffectPsychophysiology2019,3.0.5,59.98258021926837,
,,30MonoWAV/30MonoS1.wav,1,1,3,9,,,,,0,8,8,8,,,,,,,,,,,,,,,010,001,2019_May_08_1606,MusicAffectPsychophysiology2019,3.0.5,59.98258021926837,
To what extent did the music make you feel ,GUILTY,30MonoWAV/30MonoH3.wav,2,2,1,7,,,,,0,9,9,6,0,0,0,5,,,4,6.934408144999907,3,5.051286715999595,,,1,2.6025685029999295,010,001,2019_May_08_1606,MusicAffectPsychophysiology2019,3.0.5,59.98258021926837,
To what extent did the music make you feel ,HAPPY,30MonoWAV/30MonoH3.wav,2,2,1,7,,,,,0,9,9,6,0,1,1,6,,,,,,,,,3,2.800046696998834,010,001,2019_May_08_1606,MusicAffectPsychophysiology2019,3.0.5,59.98258021926837,
To what extent did the music make you feel ,ALERT,30MonoWAV/30MonoH3.wav,2,2,1,7,,,,,0,9,9,6,0,2,2,8,,,,,,,,,3,7.034987913000805,010,001,2019_May_08_1606,MusicAffectPsychophysiology2019,3.0.5,59.98258021926837,
To what extent did the music make you feel ,SAD,30MonoWAV/30MonoH3.wav,2,2,1,7,,,,,0,9,9,6,0,3,3,0,,,,,,,,,1,2.017712336000841,010,001,2019_May_08_1606,MusicAffectPsychophysiology2019,3.0.5,59.98258021926837,
To what extent did the music make you feel ,ANGRY,30MonoWAV/30MonoH3.wav,2,2,1,7,,,,,0,9,9,6,0,4,4,2,,,,,,,,,1,2.0018547260006017,010,001,2019_May_08_1606,MusicAffectPsychophysiology2019,3.0.5,59.98258021926837,
To what extent did the music make you feel ,SCARED,30MonoWAV/30MonoH3.wav,2,2,1,7,,,,,0,9,9,6,0,5,5,11,,,,,,,,,1,2.6174326350010233,010,001,2019_May_08_1606,MusicAffectPsychophysiology2019,3.0.5,59.98258021926837,
To what extent did the music make you feel ,ANXIOUS ,30MonoWAV/30MonoH3.wav,2,2,1,7,,,,,0,9,9,6,0,6,6,1,,,,,,,,,1,2.9856316530003824,010,001,2019_May_08_1606,MusicAffectPsychophysiology2019,3.0.5,59.98258021926837,
To what extent did the music make you feel ,ACTIVE,30MonoWAV/30MonoH3.wav,2,2,1,7,,,,,0,9,9,6,0,7,7,9,,,,,,,,,4,2.2015823510009795,010,001,2019_May_08_1606,MusicAffectPsychophysiology2019,3.0.5,59.98258021926837,
To what extent did the music make you feel ,EXCITED,30MonoWAV/30MonoH3.wav,2,2,1,7,,,,,0,9,9,6,0,8,8,7,,,,,,,,,4,3.735392913000396,010,001,2019_May_08_1606,MusicAffectPsychophysiology2019,3.0.5,59.98258021926837,
To what extent did the music make you feel ,TENDER,30MonoWAV/30MonoH3.wav,2,2,1,7,,,,,0,9,9,6,0,9,9,10,,,,,,,,,2,2.601606203999836,010,001,2019_May_08_1606,MusicAffectPsychophysiology2019,3.0.5,59.98258021926837,
To what extent did the music make you feel ,ASHAMED,30MonoWAV/30MonoH3.wav,2,2,1,7,,,,,0,9,9,6,0,10,10,4,,,,,,,,,1,3.1833522450015153,010,001,2019_May_08_1606,MusicAffectPsychophysiology2019,3.0.5,59.98258021926837,
To what extent did the music make you feel ,FRUSTRATED,30MonoWAV/30MonoH3.wav,2,2,1,7,,,,,0,9,9,6,0,11,11,3,,,,,,,,,1,2.086495664998438,010,001,2019_May_08_1606,MusicAffectPsychophysiology2019,3.0.5,59.98258021926837,
,,30MonoWAV/30MonoH3.wav,2,2,1,7,,,,,0,9,9,6,,,,,,,,,,,,,,,010,001,2019_May_08_1606,MusicAffectPsychophysiology2019,3.0.5,59.98258021926837,
To what extent did the music make you feel ,ALERT,30MonoWAV/30MonoS3.wav,1,1,3,11,,,,,0,10,10,10,0,0,0,8,,,1,6.201260015999651,2,2.9163416780011175,,,1,3.0019725040001504,010,001,2019_May_08_1606,MusicAffectPsychophysiology2019,3.0.5,59.98258021926837,
To what extent did the music make you feel ,ANGRY,30MonoWAV/30MonoS3.wav,1,1,3,11,,,,,0,10,10,10,0,1,1,2,,,,,,,,,1,2.0340088670000114,010,001,2019_May_08_1606,MusicAffectPsychophysiology2019,3.0.5,59.98258021926837,
To what extent did the music make you feel ,FRUSTRATED,30MonoWAV/30MonoS3.wav,1,1,3,11,,,,,0,10,10,10,0,2,2,3,,,,,,,,,1,3.1357887699996354,010,001,2019_May_08_1606,MusicAffectPsychophysiology2019,3.0.5,59.98258021926837,
To what extent did the music make you feel ,ACTIVE,30MonoWAV/30MonoS3.wav,1,1,3,11,,,,,0,10,10,10,0,3,3,9,,,,,,,,,1,2.599540445000457,010,001,2019_May_08_1606,MusicAffectPsychophysiology2019,3.0.5,59.98258021926837,
To what extent did the music make you feel ,ASHAMED,30MonoWAV/30MonoS3.wav,1,1,3,11,,,,,0,10,10,10,0,4,4,4,,,,,,,,,2,3.034514525999839,010,001,2019_May_08_1606,MusicAffectPsychophysiology2019,3.0.5,59.98258021926837,
To what extent did the music make you feel ,ANXIOUS ,30MonoWAV/30MonoS3.wav,1,1,3,11,,,,,0,10,10,10,0,5,5,1,,,,,,,,,2,2.3179984979997243,010,001,2019_May_08_1606,MusicAffectPsychophysiology2019,3.0.5,59.98258021926837,
To what extent did the music make you feel ,GUILTY,30MonoWAV/30MonoS3.wav,1,1,3,11,,,,,0,10,10,10,0,6,6,5,,,,,,,,,3,2.449898979999489,010,001,2019_May_08_1606,MusicAffectPsychophysiology2019,3.0.5,59.98258021926837,
To what extent did the music make you feel ,SCARED,30MonoWAV/30MonoS3.wav,1,1,3,11,,,,,0,10,10,10,0,7,7,11,,,,,,,,,1,3.2180865919999633,010,001,2019_May_08_1606,MusicAffectPsychophysiology2019,3.0.5,59.98258021926837,
To what extent did the music make you feel ,SAD,30MonoWAV/30MonoS3.wav,1,1,3,11,,,,,0,10,10,10,0,8,8,0,,,,,,,,,4,2.05187181600013,010,001,2019_May_08_1606,MusicAffectPsychophysiology2019,3.0.5,59.98258021926837,
To what extent did the music make you feel ,EXCITED,30MonoWAV/30MonoS3.wav,1,1,3,11,,,,,0,10,10,10,0,9,9,7,,,,,,,,,1,2.6010827569989488,010,001,2019_May_08_1606,MusicAffectPsychophysiology2019,3.0.5,59.98258021926837,
To what extent did the music make you feel ,HAPPY,30MonoWAV/30MonoS3.wav,1,1,3,11,,,,,0,10,10,10,0,10,10,6,,,,,,,,,1,3.3340462570013187,010,001,2019_May_08_1606,MusicAffectPsychophysiology2019,3.0.5,59.98258021926837,
To what extent did the music make you feel ,TENDER,30MonoWAV/30MonoS3.wav,1,1,3,11,,,,,0,10,10,10,0,11,11,10,,,,,,,,,1,2.684590376000415,010,001,2019_May_08_1606,MusicAffectPsychophysiology2019,3.0.5,59.98258021926837,
,,30MonoWAV/30MonoS3.wav,1,1,3,11,,,,,0,10,10,10,,,,,,,,,,,,,,,010,001,2019_May_08_1606,MusicAffectPsychophysiology2019,3.0.5,59.98258021926837,
To what extent did the music make you feel ,ASHAMED,30MonoWAV/30MonoH2.wav,2,2,1,6,,,,,0,11,11,5,0,0,0,4,,,3,4.184321396000087,2,5.201827422999486,,,1,5.368339765000201,010,001,2019_May_08_1606,MusicAffectPsychophysiology2019,3.0.5,59.98258021926837,
To what extent did the music make you feel ,TENDER,30MonoWAV/30MonoH2.wav,2,2,1,6,,,,,0,11,11,5,0,1,1,10,,,,,,,,,2,3.450800309999977,010,001,2019_May_08_1606,MusicAffectPsychophysiology2019,3.0.5,59.98258021926837,
To what extent did the music make you feel ,SAD,30MonoWAV/30MonoH2.wav,2,2,1,6,,,,,0,11,11,5,0,2,2,0,,,,,,,,,1,3.3891347409989976,010,001,2019_May_08_1606,MusicAffectPsychophysiology2019,3.0.5,59.98258021926837,
To what extent did the music make you feel ,EXCITED,30MonoWAV/30MonoH2.wav,2,2,1,6,,,,,0,11,11,5,0,3,3,7,,,,,,,,,3,2.0379462790006073,010,001,2019_May_08_1606,MusicAffectPsychophysiology2019,3.0.5,59.98258021926837,
To what extent did the music make you feel ,SCARED,30MonoWAV/30MonoH2.wav,2,2,1,6,,,,,0,11,11,5,0,4,4,11,,,,,,,,,1,2.221118371000557,010,001,2019_May_08_1606,MusicAffectPsychophysiology2019,3.0.5,59.98258021926837,
To what extent did the music make you feel ,ALERT,30MonoWAV/30MonoH2.wav,2,2,1,6,,,,,0,11,11,5,0,5,5,8,,,,,,,,,3,2.9735778519989253,010,001,2019_May_08_1606,MusicAffectPsychophysiology2019,3.0.5,59.98258021926837,
To what extent did the music make you feel ,HAPPY,30MonoWAV/30MonoH2.wav,2,2,1,6,,,,,0,11,11,5,0,6,6,6,,,,,,,,,2,2.568507261999912,010,001,2019_May_08_1606,MusicAffectPsychophysiology2019,3.0.5,59.98258021926837,
To what extent did the music make you feel ,FRUSTRATED,30MonoWAV/30MonoH2.wav,2,2,1,6,,,,,0,11,11,5,0,7,7,3,,,,,,,,,1,2.0343123049988208,010,001,2019_May_08_1606,MusicAffectPsychophysiology2019,3.0.5,59.98258021926837,
To what extent did the music make you feel ,ANGRY,30MonoWAV/30MonoH2.wav,2,2,1,6,,,,,0,11,11,5,0,8,8,2,,,,,,,,,1,2.4685051269989344,010,001,2019_May_08_1606,MusicAffectPsychophysiology2019,3.0.5,59.98258021926837,
To what extent did the music make you feel ,ACTIVE,30MonoWAV/30MonoH2.wav,2,2,1,6,,,,,0,11,11,5,0,9,9,9,,,,,,,,,2,2.868052207999426,010,001,2019_May_08_1606,MusicAffectPsychophysiology2019,3.0.5,59.98258021926837,
To what extent did the music make you feel ,GUILTY,30MonoWAV/30MonoH2.wav,2,2,1,6,,,,,0,11,11,5,0,10,10,5,,,,,,,,,1,1.5861535519998142,010,001,2019_May_08_1606,MusicAffectPsychophysiology2019,3.0.5,59.98258021926837,
To what extent did the music make you feel ,ANXIOUS ,30MonoWAV/30MonoH2.wav,2,2,1,6,,,,,0,11,11,5,0,11,11,1,,,,,,,,,1,2.4676910860016505,010,001,2019_May_08_1606,MusicAffectPsychophysiology2019,3.0.5,59.98258021926837,
,,30MonoWAV/30MonoH2.wav,2,2,1,6,,,,,0,11,11,5,,,,,,,,,,,,,,,010,001,2019_May_08_1606,MusicAffectPsychophysiology2019,3.0.5,59.98258021926837,
To what extent did the music make you feel ,ACTIVE,30MonoWAV/30MonoS4.wav,1,1,3,12,,,,,0,12,12,11,0,0,0,9,,,1,5.97783326300123,3,4.123025500999574,,,1,1.8699429259995668,010,001,2019_May_08_1606,MusicAffectPsychophysiology2019,3.0.5,59.98258021926837,
To what extent did the music make you feel ,SCARED,30MonoWAV/30MonoS4.wav,1,1,3,12,,,,,0,12,12,11,0,1,1,11,,,,,,,,,1,6.117880976000379,010,001,2019_May_08_1606,MusicAffectPsychophysiology2019,3.0.5,59.98258021926837,
To what extent did the music make you feel ,FRUSTRATED,30MonoWAV/30MonoS4.wav,1,1,3,12,,,,,0,12,12,11,0,2,2,3,,,,,,,,,1,2.551657136000358,010,001,2019_May_08_1606,MusicAffectPsychophysiology2019,3.0.5,59.98258021926837,
To what extent did the music make you feel ,ASHAMED,30MonoWAV/30MonoS4.wav,1,1,3,12,,,,,0,12,12,11,0,3,3,4,,,,,,,,,1,2.5669129180005257,010,001,2019_May_08_1606,MusicAffectPsychophysiology2019,3.0.5,59.98258021926837,
To what extent did the music make you feel ,ANGRY,30MonoWAV/30MonoS4.wav,1,1,3,12,,,,,0,12,12,11,0,4,4,2,,,,,,,,,1,3.186470172000554,010,001,2019_May_08_1606,MusicAffectPsychophysiology2019,3.0.5,59.98258021926837,
To what extent did the music make you feel ,ANXIOUS ,30MonoWAV/30MonoS4.wav,1,1,3,12,,,,,0,12,12,11,0,5,5,1,,,,,,,,,1,4.084629414999654,010,001,2019_May_08_1606,MusicAffectPsychophysiology2019,3.0.5,59.98258021926837,
To what extent did the music make you feel ,GUILTY,30MonoWAV/30MonoS4.wav,1,1,3,12,,,,,0,12,12,11,0,6,6,5,,,,,,,,,2,4.301724285000091,010,001,2019_May_08_1606,MusicAffectPsychophysiology2019,3.0.5,59.98258021926837,
To what extent did the music make you feel ,ALERT,30MonoWAV/30MonoS4.wav,1,1,3,12,,,,,0,12,12,11,0,7,7,8,,,,,,,,,1,5.301396001999819,010,001,2019_May_08_1606,MusicAffectPsychophysiology2019,3.0.5,59.98258021926837,
To what extent did the music make you feel ,SAD,30MonoWAV/30MonoS4.wav,1,1,3,12,,,,,0,12,12,11,0,8,8,0,,,,,,,,,5,4.000756712999646,010,001,2019_May_08_1606,MusicAffectPsychophysiology2019,3.0.5,59.98258021926837,
To what extent did the music make you feel ,EXCITED,30MonoWAV/30MonoS4.wav,1,1,3,12,,,,,0,12,12,11,0,9,9,7,,,,,,,,,2,4.567785825998726,010,001,2019_May_08_1606,MusicAffectPsychophysiology2019,3.0.5,59.98258021926837,
To what extent did the music make you feel ,HAPPY,30MonoWAV/30MonoS4.wav,1,1,3,12,,,,,0,12,12,11,0,10,10,6,,,,,,,,,2,4.118723826999485,010,001,2019_May_08_1606,MusicAffectPsychophysiology2019,3.0.5,59.98258021926837,
To what extent did the music make you feel ,TENDER,30MonoWAV/30MonoS4.wav,1,1,3,12,,,,,0,12,12,11,0,11,11,10,,,,,,,,,2,2.0179820419998578,010,001,2019_May_08_1606,MusicAffectPsychophysiology2019,3.0.5,59.98258021926837,
,,30MonoWAV/30MonoS4.wav,1,1,3,12,,,,,0,12,12,11,,,,,,,,,,,,,,,010,001,2019_May_08_1606,MusicAffectPsychophysiology2019,3.0.5,59.98258021926837,
To what extent did the music make you feel ,HAPPY,30MonoWAV/30MonoF1.wav,1,2,2,1,,,,,0,13,13,0,0,0,0,6,,,3,6.242021019999811,1,3.06900807600141,,,1,3.718141820998426,010,001,2019_May_08_1606,MusicAffectPsychophysiology2019,3.0.5,59.98258021926837,
To what extent did the music make you feel ,EXCITED,30MonoWAV/30MonoF1.wav,1,2,2,1,,,,,0,13,13,0,0,1,1,7,,,,,,,,,2,2.9520683729988377,010,001,2019_May_08_1606,MusicAffectPsychophysiology2019,3.0.5,59.98258021926837,
To what extent did the music make you feel ,SAD,30MonoWAV/30MonoF1.wav,1,2,2,1,,,,,0,13,13,0,0,2,2,0,,,,,,,,,1,4.383610498000053,010,001,2019_May_08_1606,MusicAffectPsychophysiology2019,3.0.5,59.98258021926837,
To what extent did the music make you feel ,GUILTY,30MonoWAV/30MonoF1.wav,1,2,2,1,,,,,0,13,13,0,0,3,3,5,,,,,,,,,1,2.3695707000006223,010,001,2019_May_08_1606,MusicAffectPsychophysiology2019,3.0.5,59.98258021926837,
To what extent did the music make you feel ,SCARED,30MonoWAV/30MonoF1.wav,1,2,2,1,,,,,0,13,13,0,0,4,4,11,,,,,,,,,2,2.0840352430004714,010,001,2019_May_08_1606,MusicAffectPsychophysiology2019,3.0.5,59.98258021926837,
To what extent did the music make you feel ,ASHAMED,30MonoWAV/30MonoF1.wav,1,2,2,1,,,,,0,13,13,0,0,5,5,4,,,,,,,,,1,1.9683683359999122,010,001,2019_May_08_1606,MusicAffectPsychophysiology2019,3.0.5,59.98258021926837,
To what extent did the music make you feel ,ANXIOUS ,30MonoWAV/30MonoF1.wav,1,2,2,1,,,,,0,13,13,0,0,6,6,1,,,,,,,,,3,1.9179933599989454,010,001,2019_May_08_1606,MusicAffectPsychophysiology2019,3.0.5,59.98258021926837,
To what extent did the music make you feel ,ACTIVE,30MonoWAV/30MonoF1.wav,1,2,2,1,,,,,0,13,13,0,0,7,7,9,,,,,,,,,2,2.5519063449992245,010,001,2019_May_08_1606,MusicAffectPsychophysiology2019,3.0.5,59.98258021926837,
To what extent did the music make you feel ,ALERT,30MonoWAV/30MonoF1.wav,1,2,2,1,,,,,0,13,13,0,0,8,8,8,,,,,,,,,2,2.433149644999503,010,001,2019_May_08_1606,MusicAffectPsychophysiology2019,3.0.5,59.98258021926837,
To what extent did the music make you feel ,FRUSTRATED,30MonoWAV/30MonoF1.wav,1,2,2,1,,,,,0,13,13,0,0,9,9,3,,,,,,,,,4,2.6685339840005327,010,001,2019_May_08_1606,MusicAffectPsychophysiology2019,3.0.5,59.98258021926837,
To what extent did the music make you feel ,TENDER,30MonoWAV/30MonoF1.wav,1,2,2,1,,,,,0,13,13,0,0,10,10,10,,,,,,,,,1,1.7016992209992168,010,001,2019_May_08_1606,MusicAffectPsychophysiology2019,3.0.5,59.98258021926837,
To what extent did the music make you feel ,ANGRY,30MonoWAV/30MonoF1.wav,1,2,2,1,,,,,0,13,13,0,0,11,11,2,,,,,,,,,3,2.901789825000378,010,001,2019_May_08_1606,MusicAffectPsychophysiology2019,3.0.5,59.98258021926837,
,,30MonoWAV/30MonoF1.wav,1,2,2,1,,,,,0,13,13,0,,,,,,,,,,,,,,,010,001,2019_May_08_1606,MusicAffectPsychophysiology2019,3.0.5,59.98258021926837,
To what extent did the music make you feel ,TENDER,30MonoWAV/30MonoF3.wav,1,2,2,3,,,,,0,14,14,2,0,0,0,10,,,3,6.601188014999934,2,4.365633287001401,,,1,2.45157795400155,010,001,2019_May_08_1606,MusicAffectPsychophysiology2019,3.0.5,59.98258021926837,
To what extent did the music make you feel ,ALERT,30MonoWAV/30MonoF3.wav,1,2,2,3,,,,,0,14,14,2,0,1,1,8,,,,,,,,,3,5.417445417000636,010,001,2019_May_08_1606,MusicAffectPsychophysiology2019,3.0.5,59.98258021926837,
To what extent did the music make you feel ,SCARED,30MonoWAV/30MonoF3.wav,1,2,2,3,,,,,0,14,14,2,0,2,2,11,,,,,,,,,2,2.8016380999997637,010,001,2019_May_08_1606,MusicAffectPsychophysiology2019,3.0.5,59.98258021926837,
To what extent did the music make you feel ,FRUSTRATED,30MonoWAV/30MonoF3.wav,1,2,2,3,,,,,0,14,14,2,0,3,3,3,,,,,,,,,1,2.834718434000024,010,001,2019_May_08_1606,MusicAffectPsychophysiology2019,3.0.5,59.98258021926837,
To what extent did the music make you feel ,GUILTY,30MonoWAV/30MonoF3.wav,1,2,2,3,,,,,0,14,14,2,0,4,4,5,,,,,,,,,1,1.836031090000688,010,001,2019_May_08_1606,MusicAffectPsychophysiology2019,3.0.5,59.98258021926837,
To what extent did the music make you feel ,EXCITED,30MonoWAV/30MonoF3.wav,1,2,2,3,,,,,0,14,14,2,0,5,5,7,,,,,,,,,2,2.301712070000576,010,001,2019_May_08_1606,MusicAffectPsychophysiology2019,3.0.5,59.98258021926837,
To what extent did the music make you feel ,ANGRY,30MonoWAV/30MonoF3.wav,1,2,2,3,,,,,0,14,14,2,0,6,6,2,,,,,,,,,1,2.2346556370011967,010,001,2019_May_08_1606,MusicAffectPsychophysiology2019,3.0.5,59.98258021926837,
To what extent did the music make you feel ,ASHAMED,30MonoWAV/30MonoF3.wav,1,2,2,3,,,,,0,14,14,2,0,7,7,4,,,,,,,,,1,1.9515896550001344,010,001,2019_May_08_1606,MusicAffectPsychophysiology2019,3.0.5,59.98258021926837,
To what extent did the music make you feel ,ACTIVE,30MonoWAV/30MonoF3.wav,1,2,2,3,,,,,0,14,14,2,0,8,8,9,,,,,,,,,3,4.118614381999578,010,001,2019_May_08_1606,MusicAffectPsychophysiology2019,3.0.5,59.98258021926837,
To what extent did the music make you feel ,ANXIOUS ,30MonoWAV/30MonoF3.wav,1,2,2,3,,,,,0,14,14,2,0,9,9,1,,,,,,,,,4,2.6006050649993995,010,001,2019_May_08_1606,MusicAffectPsychophysiology2019,3.0.5,59.98258021926837,
To what extent did the music make you feel ,HAPPY,30MonoWAV/30MonoF3.wav,1,2,2,3,,,,,0,14,14,2,0,10,10,6,,,,,,,,,1,1.9851931060002244,010,001,2019_May_08_1606,MusicAffectPsychophysiology2019,3.0.5,59.98258021926837,
To what extent did the music make you feel ,SAD,30MonoWAV/30MonoF3.wav,1,2,2,3,,,,,0,14,14,2,0,11,11,0,,,,,,,,,1,1.9181405369999993,010,001,2019_May_08_1606,MusicAffectPsychophysiology2019,3.0.5,59.98258021926837,
,,30MonoWAV/30MonoF3.wav,1,2,2,3,,,,,0,14,14,2,,,,,,,,,,,,,,,010,001,2019_May_08_1606,MusicAffectPsychophysiology2019,3.0.5,59.98258021926837,
To what extent did the music make you feel ,ALERT,30MonoWAV/30MonoF4.wav,1,2,2,4,,,,,0,15,15,3,0,0,0,8,,,4,7.762858392999988,2,3.3848457999993116,,,2,0.451829537998492,010,001,2019_May_08_1606,MusicAffectPsychophysiology2019,3.0.5,59.98258021926837,
To what extent did the music make you feel ,ACTIVE,30MonoWAV/30MonoF4.wav,1,2,2,4,,,,,0,15,15,3,0,1,1,9,,,,,,,,,2,3.484984919999988,010,001,2019_May_08_1606,MusicAffectPsychophysiology2019,3.0.5,59.98258021926837,
To what extent did the music make you feel ,ANXIOUS ,30MonoWAV/30MonoF4.wav,1,2,2,4,,,,,0,15,15,3,0,2,2,1,,,,,,,,,4,4.384985123999286,010,001,2019_May_08_1606,MusicAffectPsychophysiology2019,3.0.5,59.98258021926837,
To what extent did the music make you feel ,ANGRY,30MonoWAV/30MonoF4.wav,1,2,2,4,,,,,0,15,15,3,0,3,3,2,,,,,,,,,1,2.049616378000792,010,001,2019_May_08_1606,MusicAffectPsychophysiology2019,3.0.5,59.98258021926837,
To what extent did the music make you feel ,ASHAMED,30MonoWAV/30MonoF4.wav,1,2,2,4,,,,,0,15,15,3,0,4,4,4,,,,,,,,,1,1.7181991799989191,010,001,2019_May_08_1606,MusicAffectPsychophysiology2019,3.0.5,59.98258021926837,
To what extent did the music make you feel ,HAPPY,30MonoWAV/30MonoF4.wav,1,2,2,4,,,,,0,15,15,3,0,5,5,6,,,,,,,,,1,5.10159616799865,010,001,2019_May_08_1606,MusicAffectPsychophysiology2019,3.0.5,59.98258021926837,
To what extent did the music make you feel ,TENDER,30MonoWAV/30MonoF4.wav,1,2,2,4,,,,,0,15,15,3,0,6,6,10,,,,,,,,,1,1.76618228299958,010,001,2019_May_08_1606,MusicAffectPsychophysiology2019,3.0.5,59.98258021926837,
To what extent did the music make you feel ,SAD,30MonoWAV/30MonoF4.wav,1,2,2,4,,,,,0,15,15,3,0,7,7,0,,,,,,,,,2,2.9663016089998564,010,001,2019_May_08_1606,MusicAffectPsychophysiology2019,3.0.5,59.98258021926837,
To what extent did the music make you feel ,GUILTY,30MonoWAV/30MonoF4.wav,1,2,2,4,,,,,0,15,15,3,0,8,8,5,,,,,,,,,1,1.999777526998514,010,001,2019_May_08_1606,MusicAffectPsychophysiology2019,3.0.5,59.98258021926837,
To what extent did the music make you feel ,EXCITED,30MonoWAV/30MonoF4.wav,1,2,2,4,,,,,0,15,15,3,0,9,9,7,,,,,,,,,4,3.2513019559992244,010,001,2019_May_08_1606,MusicAffectPsychophysiology2019,3.0.5,59.98258021926837,
To what extent did the music make you feel ,FRUSTRATED,30MonoWAV/30MonoF4.wav,1,2,2,4,,,,,0,15,15,3,0,10,10,3,,,,,,,,,1,2.5672815549987718,010,001,2019_May_08_1606,MusicAffectPsychophysiology2019,3.0.5,59.98258021926837,
To what extent did the music make you feel ,SCARED,30MonoWAV/30MonoF4.wav,1,2,2,4,,,,,0,15,15,3,0,11,11,11,,,,,,,,,3,3.1181079510006384,010,001,2019_May_08_1606,MusicAffectPsychophysiology2019,3.0.5,59.98258021926837,
,,30MonoWAV/30MonoF4.wav,1,2,2,4,,,,,0,15,15,3,,,,,,,,,,,,,,,010,001,2019_May_08_1606,MusicAffectPsychophysiology2019,3.0.5,59.98258021926837,
To what extent did the music make you feel ,TENDER,30MonoWAV/30MonoF2.wav,1,2,2,2,,,,,1,0,16,1,0,0,0,10,,,3,6.000295470999845,1,2.5492055699996854,,,1,2.543923052999162,010,001,2019_May_08_1606,MusicAffectPsychophysiology2019,3.0.5,59.98258021926837,
To what extent did the music make you feel ,SAD,30MonoWAV/30MonoF2.wav,1,2,2,2,,,,,1,0,16,1,0,1,1,0,,,,,,,,,1,3.2347203320005065,010,001,2019_May_08_1606,MusicAffectPsychophysiology2019,3.0.5,59.98258021926837,
To what extent did the music make you feel ,EXCITED,30MonoWAV/30MonoF2.wav,1,2,2,2,,,,,1,0,16,1,0,2,2,7,,,,,,,,,3,2.468408131000615,010,001,2019_May_08_1606,MusicAffectPsychophysiology2019,3.0.5,59.98258021926837,
To what extent did the music make you feel ,SCARED,30MonoWAV/30MonoF2.wav,1,2,2,2,,,,,1,0,16,1,0,3,3,11,,,,,,,,,4,2.8019369409994397,010,001,2019_May_08_1606,MusicAffectPsychophysiology2019,3.0.5,59.98258021926837,
To what extent did the music make you feel ,ALERT,30MonoWAV/30MonoF2.wav,1,2,2,2,,,,,1,0,16,1,0,4,4,8,,,,,,,,,4,2.7678380079996714,010,001,2019_May_08_1606,MusicAffectPsychophysiology2019,3.0.5,59.98258021926837,
To what extent did the music make you feel ,GUILTY,30MonoWAV/30MonoF2.wav,1,2,2,2,,,,,1,0,16,1,0,5,5,5,,,,,,,,,1,1.8015298819991585,010,001,2019_May_08_1606,MusicAffectPsychophysiology2019,3.0.5,59.98258021926837,
To what extent did the music make you feel ,ASHAMED,30MonoWAV/30MonoF2.wav,1,2,2,2,,,,,1,0,16,1,0,6,6,4,,,,,,,,,1,1.5845295609997265,010,001,2019_May_08_1606,MusicAffectPsychophysiology2019,3.0.5,59.98258021926837,
To what extent did the music make you feel ,ANGRY,30MonoWAV/30MonoF2.wav,1,2,2,2,,,,,1,0,16,1,0,7,7,2,,,,,,,,,1,1.6352071639994392,010,001,2019_May_08_1606,MusicAffectPsychophysiology2019,3.0.5,59.98258021926837,
To what extent did the music make you feel ,ANXIOUS ,30MonoWAV/30MonoF2.wav,1,2,2,2,,,,,1,0,16,1,0,8,8,1,,,,,,,,,5,1.7335725120010466,010,001,2019_May_08_1606,MusicAffectPsychophysiology2019,3.0.5,59.98258021926837,
To what extent did the music make you feel ,ACTIVE,30MonoWAV/30MonoF2.wav,1,2,2,2,,,,,1,0,16,1,0,9,9,9,,,,,,,,,2,2.7189955779995216,010,001,2019_May_08_1606,MusicAffectPsychophysiology2019,3.0.5,59.98258021926837,
To what extent did the music make you feel ,HAPPY,30MonoWAV/30MonoF2.wav,1,2,2,2,,,,,1,0,16,1,0,10,10,6,,,,,,,,,1,2.1515784750008606,010,001,2019_May_08_1606,MusicAffectPsychophysiology2019,3.0.5,59.98258021926837,
To what extent did the music make you feel ,FRUSTRATED,30MonoWAV/30MonoF2.wav,1,2,2,2,,,,,1,0,16,1,0,11,11,3,,,,,,,,,1,2.168469694999658,010,001,2019_May_08_1606,MusicAffectPsychophysiology2019,3.0.5,59.98258021926837,
,,30MonoWAV/30MonoF2.wav,1,2,2,2,,,,,1,0,16,1,,,,,,,,,,,,,,,010,001,2019_May_08_1606,MusicAffectPsychophysiology2019,3.0.5,59.98258021926837,
To what extent did the music make you feel ,ACTIVE,30MonoWAV/30MonoF4.wav,1,2,2,4,,,,,1,1,17,3,0,0,0,9,,,3,7.0558555830011755,1,1.8539049409992003,,,2,2.8710576230005245,010,001,2019_May_08_1606,MusicAffectPsychophysiology2019,3.0.5,59.98258021926837,
To what extent did the music make you feel ,GUILTY,30MonoWAV/30MonoF4.wav,1,2,2,4,,,,,1,1,17,3,0,1,1,5,,,,,,,,,1,2.3902366860002076,010,001,2019_May_08_1606,MusicAffectPsychophysiology2019,3.0.5,59.98258021926837,
To what extent did the music make you feel ,SCARED,30MonoWAV/30MonoF4.wav,1,2,2,4,,,,,1,1,17,3,0,2,2,11,,,,,,,,,3,3.2516109570005938,010,001,2019_May_08_1606,MusicAffectPsychophysiology2019,3.0.5,59.98258021926837,
To what extent did the music make you feel ,ANXIOUS ,30MonoWAV/30MonoF4.wav,1,2,2,4,,,,,1,1,17,3,0,3,3,1,,,,,,,,,4,2.2992451709997113,010,001,2019_May_08_1606,MusicAffectPsychophysiology2019,3.0.5,59.98258021926837,
To what extent did the music make you feel ,EXCITED,30MonoWAV/30MonoF4.wav,1,2,2,4,,,,,1,1,17,3,0,4,4,7,,,,,,,,,3,2.984218546000193,010,001,2019_May_08_1606,MusicAffectPsychophysiology2019,3.0.5,59.98258021926837,
To what extent did the music make you feel ,FRUSTRATED,30MonoWAV/30MonoF4.wav,1,2,2,4,,,,,1,1,17,3,0,5,5,3,,,,,,,,,1,2.1351136220000626,010,001,2019_May_08_1606,MusicAffectPsychophysiology2019,3.0.5,59.98258021926837,
To what extent did the music make you feel ,ANGRY,30MonoWAV/30MonoF4.wav,1,2,2,4,,,,,1,1,17,3,0,6,6,2,,,,,,,,,1,1.9690477149997605,010,001,2019_May_08_1606,MusicAffectPsychophysiology2019,3.0.5,59.98258021926837,
To what extent did the music make you feel ,TENDER,30MonoWAV/30MonoF4.wav,1,2,2,4,,,,,1,1,17,3,0,7,7,10,,,,,,,,,1,1.3684132969992788,010,001,2019_May_08_1606,MusicAffectPsychophysiology2019,3.0.5,59.98258021926837,
To what extent did the music make you feel ,HAPPY,30MonoWAV/30MonoF4.wav,1,2,2,4,,,,,1,1,17,3,0,8,8,6,,,,,,,,,1,3.067589563999718,010,001,2019_May_08_1606,MusicAffectPsychophysiology2019,3.0.5,59.98258021926837,
To what extent did the music make you feel ,ASHAMED,30MonoWAV/30MonoF4.wav,1,2,2,4,,,,,1,1,17,3,0,9,9,4,,,,,,,,,1,1.385000686001149,010,001,2019_May_08_1606,MusicAffectPsychophysiology2019,3.0.5,59.98258021926837,
To what extent did the music make you feel ,SAD,30MonoWAV/30MonoF4.wav,1,2,2,4,,,,,1,1,17,3,0,10,10,0,,,,,,,,,1,1.9172502540004643,010,001,2019_May_08_1606,MusicAffectPsychophysiology2019,3.0.5,59.98258021926837,
To what extent did the music make you feel ,ALERT,30MonoWAV/30MonoF4.wav,1,2,2,4,,,,,1,1,17,3,0,11,11,8,,,,,,,,,4,2.6184292299985827,010,001,2019_May_08_1606,MusicAffectPsychophysiology2019,3.0.5,59.98258021926837,
,,30MonoWAV/30MonoF4.wav,1,2,2,4,,,,,1,1,17,3,,,,,,,,,,,,,,,010,001,2019_May_08_1606,MusicAffectPsychophysiology2019,3.0.5,59.98258021926837,
To what extent did the music make you feel ,ALERT,30MonoWAV/30MonoF1.wav,1,2,2,1,,,,,1,2,18,0,0,0,0,8,,,3,12.431758622999041,1,4.084940912000093,,,4,3.702655983001023,010,001,2019_May_08_1606,MusicAffectPsychophysiology2019,3.0.5,59.98258021926837,
To what extent did the music make you feel ,SCARED,30MonoWAV/30MonoF1.wav,1,2,2,1,,,,,1,2,18,0,0,1,1,11,,,,,,,,,2,2.634980678998545,010,001,2019_May_08_1606,MusicAffectPsychophysiology2019,3.0.5,59.98258021926837,
To what extent did the music make you feel ,ACTIVE,30MonoWAV/30MonoF1.wav,1,2,2,1,,,,,1,2,18,0,0,2,2,9,,,,,,,,,3,4.6341752909993374,010,001,2019_May_08_1606,MusicAffectPsychophysiology2019,3.0.5,59.98258021926837,
To what extent did the music make you feel ,SAD,30MonoWAV/30MonoF1.wav,1,2,2,1,,,,,1,2,18,0,0,3,3,0,,,,,,,,,1,2.501259241000298,010,001,2019_May_08_1606,MusicAffectPsychophysiology2019,3.0.5,59.98258021926837,
To what extent did the music make you feel ,TENDER,30MonoWAV/30MonoF1.wav,1,2,2,1,,,,,1,2,18,0,0,4,4,10,,,,,,,,,1,2.2179007810009352,010,001,2019_May_08_1606,MusicAffectPsychophysiology2019,3.0.5,59.98258021926837,
To what extent did the music make you feel ,EXCITED,30MonoWAV/30MonoF1.wav,1,2,2,1,,,,,1,2,18,0,0,5,5,7,,,,,,,,,2,2.5688260330007324,010,001,2019_May_08_1606,MusicAffectPsychophysiology2019,3.0.5,59.98258021926837,
To what extent did the music make you feel ,GUILTY,30MonoWAV/30MonoF1.wav,1,2,2,1,,,,,1,2,18,0,0,6,6,5,,,,,,,,,1,1.9354025869997713,010,001,2019_May_08_1606,MusicAffectPsychophysiology2019,3.0.5,59.98258021926837,
To what extent did the music make you feel ,HAPPY,30MonoWAV/30MonoF1.wav,1,2,2,1,,,,,1,2,18,0,0,7,7,6,,,,,,,,,1,1.2494086070000776,010,001,2019_May_08_1606,MusicAffectPsychophysiology2019,3.0.5,59.98258021926837,
To what extent did the music make you feel ,ANXIOUS ,30MonoWAV/30MonoF1.wav,1,2,2,1,,,,,1,2,18,0,0,8,8,1,,,,,,,,,4,3.2016756189987063,010,001,2019_May_08_1606,MusicAffectPsychophysiology2019,3.0.5,59.98258021926837,
To what extent did the music make you feel ,FRUSTRATED,30MonoWAV/30MonoF1.wav,1,2,2,1,,,,,1,2,18,0,0,9,9,3,,,,,,,,,2,2.6674056439987908,010,001,2019_May_08_1606,MusicAffectPsychophysiology2019,3.0.5,59.98258021926837,
To what extent did the music make you feel ,ASHAMED,30MonoWAV/30MonoF1.wav,1,2,2,1,,,,,1,2,18,0,0,10,10,4,,,,,,,,,1,2.0852467739987333,010,001,2019_May_08_1606,MusicAffectPsychophysiology2019,3.0.5,59.98258021926837,
To what extent did the music make you feel ,ANGRY,30MonoWAV/30MonoF1.wav,1,2,2,1,,,,,1,2,18,0,0,11,11,2,,,,,,,,,1,2.168015902001571,010,001,2019_May_08_1606,MusicAffectPsychophysiology2019,3.0.5,59.98258021926837,
,,30MonoWAV/30MonoF1.wav,1,2,2,1,,,,,1,2,18,0,,,,,,,,,,,,,,,010,001,2019_May_08_1606,MusicAffectPsychophysiology2019,3.0.5,59.98258021926837,
To what extent did the music make you feel ,EXCITED,30MonoWAV/30MonoH2.wav,2,2,1,6,,,,,1,3,19,5,0,0,0,7,,,2,6.924612325999988,3,3.3679128350013343,,,3,3.8841097759996046,010,001,2019_May_08_1606,MusicAffectPsychophysiology2019,3.0.5,59.98258021926837,
To what extent did the music make you feel ,SCARED,30MonoWAV/30MonoH2.wav,2,2,1,6,,,,,1,3,19,5,0,1,1,11,,,,,,,,,1,3.5014780630008318,010,001,2019_May_08_1606,MusicAffectPsychophysiology2019,3.0.5,59.98258021926837,
To what extent did the music make you feel ,GUILTY,30MonoWAV/30MonoH2.wav,2,2,1,6,,,,,1,3,19,5,0,2,2,5,,,,,,,,,1,1.8680047999987437,010,001,2019_May_08_1606,MusicAffectPsychophysiology2019,3.0.5,59.98258021926837,
To what extent did the music make you feel ,ALERT,30MonoWAV/30MonoH2.wav,2,2,1,6,,,,,1,3,19,5,0,3,3,8,,,,,,,,,3,3.1507430889996613,010,001,2019_May_08_1606,MusicAffectPsychophysiology2019,3.0.5,59.98258021926837,
To what extent did the music make you feel ,FRUSTRATED,30MonoWAV/30MonoH2.wav,2,2,1,6,,,,,1,3,19,5,0,4,4,3,,,,,,,,,1,1.918810687999212,010,001,2019_May_08_1606,MusicAffectPsychophysiology2019,3.0.5,59.98258021926837,
To what extent did the music make you feel ,ACTIVE,30MonoWAV/30MonoH2.wav,2,2,1,6,,,,,1,3,19,5,0,5,5,9,,,,,,,,,4,2.9855396459988697,010,001,2019_May_08_1606,MusicAffectPsychophysiology2019,3.0.5,59.98258021926837,
To what extent did the music make you feel ,ASHAMED,30MonoWAV/30MonoH2.wav,2,2,1,6,,,,,1,3,19,5,0,6,6,4,,,,,,,,,1,2.3352956939997966,010,001,2019_May_08_1606,MusicAffectPsychophysiology2019,3.0.5,59.98258021926837,
To what extent did the music make you feel ,HAPPY,30MonoWAV/30MonoH2.wav,2,2,1,6,,,,,1,3,19,5,0,7,7,6,,,,,,,,,3,3.084736440998313,010,001,2019_May_08_1606,MusicAffectPsychophysiology2019,3.0.5,59.98258021926837,
To what extent did the music make you feel ,ANGRY,30MonoWAV/30MonoH2.wav,2,2,1,6,,,,,1,3,19,5,0,8,8,2,,,,,,,,,1,1.7680139610001788,010,001,2019_May_08_1606,MusicAffectPsychophysiology2019,3.0.5,59.98258021926837,
To what extent did the music make you feel ,ANXIOUS ,30MonoWAV/30MonoH2.wav,2,2,1,6,,,,,1,3,19,5,0,9,9,1,,,,,,,,,1,3.001345411001239,010,001,2019_May_08_1606,MusicAffectPsychophysiology2019,3.0.5,59.98258021926837,
To what extent did the music make you feel ,TENDER,30MonoWAV/30MonoH2.wav,2,2,1,6,,,,,1,3,19,5,0,10,10,10,,,,,,,,,1,2.101525814001434,010,001,2019_May_08_1606,MusicAffectPsychophysiology2019,3.0.5,59.98258021926837,
To what extent did the music make you feel ,SAD,30MonoWAV/30MonoH2.wav,2,2,1,6,,,,,1,3,19,5,0,11,11,0,,,,,,,,,1,2.116449120001562,010,001,2019_May_08_1606,MusicAffectPsychophysiology2019,3.0.5,59.98258021926837,
,,30MonoWAV/30MonoH2.wav,2,2,1,6,,,,,1,3,19,5,,,,,,,,,,,,,,,010,001,2019_May_08_1606,MusicAffectPsychophysiology2019,3.0.5,59.98258021926837,
To what extent did the music make you feel ,ASHAMED,30MonoWAV/30MonoT1.wav,2,1,4,13,,,,,1,4,20,12,0,0,0,4,,,1,6.051434844999676,3,2.884957176998796,,,1,2.0687902530007705,010,001,2019_May_08_1606,MusicAffectPsychophysiology2019,3.0.5,59.98258021926837,
To what extent did the music make you feel ,GUILTY,30MonoWAV/30MonoT1.wav,2,1,4,13,,,,,1,4,20,12,0,1,1,5,,,,,,,,,1,1.5664089379988582,010,001,2019_May_08_1606,MusicAffectPsychophysiology2019,3.0.5,59.98258021926837,
To what extent did the music make you feel ,SCARED,30MonoWAV/30MonoT1.wav,2,1,4,13,,,,,1,4,20,12,0,2,2,11,,,,,,,,,1,1.5691766670006473,010,001,2019_May_08_1606,MusicAffectPsychophysiology2019,3.0.5,59.98258021926837,
To what extent did the music make you feel ,SAD,30MonoWAV/30MonoT1.wav,2,1,4,13,,,,,1,4,20,12,0,3,3,0,,,,,,,,,2,3.9009963199987396,010,001,2019_May_08_1606,MusicAffectPsychophysiology2019,3.0.5,59.98258021926837,
To what extent did the music make you feel ,FRUSTRATED,30MonoWAV/30MonoT1.wav,2,1,4,13,,,,,1,4,20,12,0,4,4,3,,,,,,,,,1,1.7849582170001668,010,001,2019_May_08_1606,MusicAffectPsychophysiology2019,3.0.5,59.98258021926837,
To what extent did the music make you feel ,TENDER,30MonoWAV/30MonoT1.wav,2,1,4,13,,,,,1,4,20,12,0,5,5,10,,,,,,,,,4,2.2182523179999407,010,001,2019_May_08_1606,MusicAffectPsychophysiology2019,3.0.5,59.98258021926837,
To what extent did the music make you feel ,HAPPY,30MonoWAV/30MonoT1.wav,2,1,4,13,,,,,1,4,20,12,0,6,6,6,,,,,,,,,3,3.0677782269995078,010,001,2019_May_08_1606,MusicAffectPsychophysiology2019,3.0.5,59.98258021926837,
To what extent did the music make you feel ,ACTIVE,30MonoWAV/30MonoT1.wav,2,1,4,13,,,,,1,4,20,12,0,7,7,9,,,,,,,,,1,1.7186458690011932,010,001,2019_May_08_1606,MusicAffectPsychophysiology2019,3.0.5,59.98258021926837,
To what extent did the music make you feel ,ANGRY,30MonoWAV/30MonoT1.wav,2,1,4,13,,,,,1,4,20,12,0,8,8,2,,,,,,,,,1,1.918960265998976,010,001,2019_May_08_1606,MusicAffectPsychophysiology2019,3.0.5,59.98258021926837,
To what extent did the music make you feel ,EXCITED,30MonoWAV/30MonoT1.wav,2,1,4,13,,,,,1,4,20,12,0,9,9,7,,,,,,,,,1,2.18426325099972,010,001,2019_May_08_1606,MusicAffectPsychophysiology2019,3.0.5,59.98258021926837,
To what extent did the music make you feel ,ALERT,30MonoWAV/30MonoT1.wav,2,1,4,13,,,,,1,4,20,12,0,10,10,8,,,,,,,,,1,1.8827805910004827,010,001,2019_May_08_1606,MusicAffectPsychophysiology2019,3.0.5,59.98258021926837,
To what extent did the music make you feel ,ANXIOUS ,30MonoWAV/30MonoT1.wav,2,1,4,13,,,,,1,4,20,12,0,11,11,1,,,,,,,,,1,1.7179535870000109,010,001,2019_May_08_1606,MusicAffectPsychophysiology2019,3.0.5,59.98258021926837,
,,30MonoWAV/30MonoT1.wav,2,1,4,13,,,,,1,4,20,12,,,,,,,,,,,,,,,010,001,2019_May_08_1606,MusicAffectPsychophysiology2019,3.0.5,59.98258021926837,
To what extent did the music make you feel ,ASHAMED,30MonoWAV/30MonoS3.wav,1,1,3,11,,,,,1,5,21,10,0,0,0,4,,,1,8.817275867000717,2,8.566940015,,,2,3.4683700099994894,010,001,2019_May_08_1606,MusicAffectPsychophysiology2019,3.0.5,59.98258021926837,
To what extent did the music make you feel ,TENDER,30MonoWAV/30MonoS3.wav,1,1,3,11,,,,,1,5,21,10,0,1,1,10,,,,,,,,,1,2.134030975999849,010,001,2019_May_08_1606,MusicAffectPsychophysiology2019,3.0.5,59.98258021926837,
To what extent did the music make you feel ,ALERT,30MonoWAV/30MonoS3.wav,1,1,3,11,,,,,1,5,21,10,0,2,2,8,,,,,,,,,1,1.3522607630002312,010,001,2019_May_08_1606,MusicAffectPsychophysiology2019,3.0.5,59.98258021926837,
To what extent did the music make you feel ,EXCITED,30MonoWAV/30MonoS3.wav,1,1,3,11,,,,,1,5,21,10,0,3,3,7,,,,,,,,,1,2.8686870239998825,010,001,2019_May_08_1606,MusicAffectPsychophysiology2019,3.0.5,59.98258021926837,
To what extent did the music make you feel ,GUILTY,30MonoWAV/30MonoS3.wav,1,1,3,11,,,,,1,5,21,10,0,4,4,5,,,,,,,,,3,2.6521495429988136,010,001,2019_May_08_1606,MusicAffectPsychophysiology2019,3.0.5,59.98258021926837,
To what extent did the music make you feel ,SCARED,30MonoWAV/30MonoS3.wav,1,1,3,11,,,,,1,5,21,10,0,5,5,11,,,,,,,,,1,1.7680453149987443,010,001,2019_May_08_1606,MusicAffectPsychophysiology2019,3.0.5,59.98258021926837,
To what extent did the music make you feel ,SAD,30MonoWAV/30MonoS3.wav,1,1,3,11,,,,,1,5,21,10,0,6,6,0,,,,,,,,,4,1.915845810999599,010,001,2019_May_08_1606,MusicAffectPsychophysiology2019,3.0.5,59.98258021926837,
To what extent did the music make you feel ,FRUSTRATED,30MonoWAV/30MonoS3.wav,1,1,3,11,,,,,1,5,21,10,0,7,7,3,,,,,,,,,2,6.284559370998977,010,001,2019_May_08_1606,MusicAffectPsychophysiology2019,3.0.5,59.98258021926837,
To what extent did the music make you feel ,HAPPY,30MonoWAV/30MonoS3.wav,1,1,3,11,,,,,1,5,21,10,0,8,8,6,,,,,,,,,1,1.5691182319988002,010,001,2019_May_08_1606,MusicAffectPsychophysiology2019,3.0.5,59.98258021926837,
To what extent did the music make you feel ,ANXIOUS ,30MonoWAV/30MonoS3.wav,1,1,3,11,,,,,1,5,21,10,0,9,9,1,,,,,,,,,2,2.7324398269993253,010,001,2019_May_08_1606,MusicAffectPsychophysiology2019,3.0.5,59.98258021926837,
To what extent did the music make you feel ,ACTIVE,30MonoWAV/30MonoS3.wav,1,1,3,11,,,,,1,5,21,10,0,10,10,9,,,,,,,,,1,1.901482462999411,010,001,2019_May_08_1606,MusicAffectPsychophysiology2019,3.0.5,59.98258021926837,
To what extent did the music make you feel ,ANGRY,30MonoWAV/30MonoS3.wav,1,1,3,11,,,,,1,5,21,10,0,11,11,2,,,,,,,,,1,3.218368837999151,010,001,2019_May_08_1606,MusicAffectPsychophysiology2019,3.0.5,59.98258021926837,
,,30MonoWAV/30MonoS3.wav,1,1,3,11,,,,,1,5,21,10,,,,,,,,,,,,,,,010,001,2019_May_08_1606,MusicAffectPsychophysiology2019,3.0.5,59.98258021926837,
To what extent did the music make you feel ,ANXIOUS ,30MonoWAV/30MonoH4.wav,2,2,1,8,,,,,1,6,22,7,0,0,0,1,,,4,5.584502797000823,5,3.950355553000918,,,1,2.8447352980001597,010,001,2019_May_08_1606,MusicAffectPsychophysiology2019,3.0.5,59.98258021926837,
To what extent did the music make you feel ,ASHAMED,30MonoWAV/30MonoH4.wav,2,2,1,8,,,,,1,6,22,7,0,1,1,4,,,,,,,,,1,1.2177196819993696,010,001,2019_May_08_1606,MusicAffectPsychophysiology2019,3.0.5,59.98258021926837,
To what extent did the music make you feel ,FRUSTRATED,30MonoWAV/30MonoH4.wav,2,2,1,8,,,,,1,6,22,7,0,2,2,3,,,,,,,,,1,2.117630160000772,010,001,2019_May_08_1606,MusicAffectPsychophysiology2019,3.0.5,59.98258021926837,
To what extent did the music make you feel ,HAPPY,30MonoWAV/30MonoH4.wav,2,2,1,8,,,,,1,6,22,7,0,3,3,6,,,,,,,,,4,2.235330444998908,010,001,2019_May_08_1606,MusicAffectPsychophysiology2019,3.0.5,59.98258021926837,
To what extent did the music make you feel ,SAD,30MonoWAV/30MonoH4.wav,2,2,1,8,,,,,1,6,22,7,0,4,4,0,,,,,,,,,1,1.6843709299992042,010,001,2019_May_08_1606,MusicAffectPsychophysiology2019,3.0.5,59.98258021926837,
To what extent did the music make you feel ,EXCITED,30MonoWAV/30MonoH4.wav,2,2,1,8,,,,,1,6,22,7,0,5,5,7,,,,,,,,,4,1.6350341500001377,010,001,2019_May_08_1606,MusicAffectPsychophysiology2019,3.0.5,59.98258021926837,
To what extent did the music make you feel ,ANGRY,30MonoWAV/30MonoH4.wav,2,2,1,8,,,,,1,6,22,7,0,6,6,2,,,,,,,,,1,1.5058424029994057,010,001,2019_May_08_1606,MusicAffectPsychophysiology2019,3.0.5,59.98258021926837,
To what extent did the music make you feel ,GUILTY,30MonoWAV/30MonoH4.wav,2,2,1,8,,,,,1,6,22,7,0,7,7,5,,,,,,,,,1,1.6010337930001697,010,001,2019_May_08_1606,MusicAffectPsychophysiology2019,3.0.5,59.98258021926837,
To what extent did the music make you feel ,ACTIVE,30MonoWAV/30MonoH4.wav,2,2,1,8,,,,,1,6,22,7,0,8,8,9,,,,,,,,,5,3.2522236810000322,010,001,2019_May_08_1606,MusicAffectPsychophysiology2019,3.0.5,59.98258021926837,
To what extent did the music make you feel ,ALERT,30MonoWAV/30MonoH4.wav,2,2,1,8,,,,,1,6,22,7,0,9,9,8,,,,,,,,,3,2.9340574850011762,010,001,2019_May_08_1606,MusicAffectPsychophysiology2019,3.0.5,59.98258021926837,
To what extent did the music make you feel ,SCARED,30MonoWAV/30MonoH4.wav,2,2,1,8,,,,,1,6,22,7,0,10,10,11,,,,,,,,,1,1.5686442290007108,010,001,2019_May_08_1606,MusicAffectPsychophysiology2019,3.0.5,59.98258021926837,
To what extent did the music make you feel ,TENDER,30MonoWAV/30MonoH4.wav,2,2,1,8,,,,,1,6,22,7,0,11,11,10,,,,,,,,,2,1.8701088359994174,010,001,2019_May_08_1606,MusicAffectPsychophysiology2019,3.0.5,59.98258021926837,
,,30MonoWAV/30MonoH4.wav,2,2,1,8,,,,,1,6,22,7,,,,,,,,,,,,,,,010,001,2019_May_08_1606,MusicAffectPsychophysiology2019,3.0.5,59.98258021926837,
To what extent did the music make you feel ,SAD,30MonoWAV/30MonoS1.wav,1,1,3,9,,,,,1,7,23,8,0,0,0,0,,,1,5.299417933998484,1,2.268210717000329,,,3,3.201775853000072,010,001,2019_May_08_1606,MusicAffectPsychophysiology2019,3.0.5,59.98258021926837,
To what extent did the music make you feel ,HAPPY,30MonoWAV/30MonoS1.wav,1,1,3,9,,,,,1,7,23,8,0,1,1,6,,,,,,,,,1,1.6174796049999713,010,001,2019_May_08_1606,MusicAffectPsychophysiology2019,3.0.5,59.98258021926837,
To what extent did the music make you feel ,ANGRY,30MonoWAV/30MonoS1.wav,1,1,3,9,,,,,1,7,23,8,0,2,2,2,,,,,,,,,1,3.0514779950008233,010,001,2019_May_08_1606,MusicAffectPsychophysiology2019,3.0.5,59.98258021926837,
To what extent did the music make you feel ,ACTIVE,30MonoWAV/30MonoS1.wav,1,1,3,9,,,,,1,7,23,8,0,3,3,9,,,,,,,,,1,1.7854099070009397,010,001,2019_May_08_1606,MusicAffectPsychophysiology2019,3.0.5,59.98258021926837,
To what extent did the music make you feel ,ASHAMED,30MonoWAV/30MonoS1.wav,1,1,3,9,,,,,1,7,23,8,0,4,4,4,,,,,,,,,2,1.897992386999249,010,001,2019_May_08_1606,MusicAffectPsychophysiology2019,3.0.5,59.98258021926837,
To what extent did the music make you feel ,ALERT,30MonoWAV/30MonoS1.wav,1,1,3,9,,,,,1,7,23,8,0,5,5,8,,,,,,,,,1,1.852259695999237,010,001,2019_May_08_1606,MusicAffectPsychophysiology2019,3.0.5,59.98258021926837,
To what extent did the music make you feel ,SCARED,30MonoWAV/30MonoS1.wav,1,1,3,9,,,,,1,7,23,8,0,6,6,11,,,,,,,,,1,1.6853898739991564,010,001,2019_May_08_1606,MusicAffectPsychophysiology2019,3.0.5,59.98258021926837,
To what extent did the music make you feel ,GUILTY,30MonoWAV/30MonoS1.wav,1,1,3,9,,,,,1,7,23,8,0,7,7,5,,,,,,,,,3,2.2673289379999915,010,001,2019_May_08_1606,MusicAffectPsychophysiology2019,3.0.5,59.98258021926837,
To what extent did the music make you feel ,ANXIOUS ,30MonoWAV/30MonoS1.wav,1,1,3,9,,,,,1,7,23,8,0,8,8,1,,,,,,,,,2,1.8351190610010235,010,001,2019_May_08_1606,MusicAffectPsychophysiology2019,3.0.5,59.98258021926837,
To what extent did the music make you feel ,TENDER,30MonoWAV/30MonoS1.wav,1,1,3,9,,,,,1,7,23,8,0,9,9,10,,,,,,,,,2,3.3841744649998873,010,001,2019_May_08_1606,MusicAffectPsychophysiology2019,3.0.5,59.98258021926837,
To what extent did the music make you feel ,EXCITED,30MonoWAV/30MonoS1.wav,1,1,3,9,,,,,1,7,23,8,0,10,10,7,,,,,,,,,1,0.9517756170007488,010,001,2019_May_08_1606,MusicAffectPsychophysiology2019,3.0.5,59.98258021926837,
To what extent did the music make you feel ,FRUSTRATED,30MonoWAV/30MonoS1.wav,1,1,3,9,,,,,1,7,23,8,0,11,11,3,,,,,,,,,1,1.9511736019994714,010,001,2019_May_08_1606,MusicAffectPsychophysiology2019,3.0.5,59.98258021926837,
,,30MonoWAV/30MonoS1.wav,1,1,3,9,,,,,1,7,23,8,,,,,,,,,,,,,,,010,001,2019_May_08_1606,MusicAffectPsychophysiology2019,3.0.5,59.98258021926837,
To what extent did the music make you feel ,ANGRY,30MonoWAV/30MonoH1.wav,2,2,1,5,,,,,1,8,24,4,0,0,0,2,,,3,5.318080008999459,3,4.351136619001409,,,1,2.220239414000389,010,001,2019_May_08_1606,MusicAffectPsychophysiology2019,3.0.5,59.98258021926837,
To what extent did the music make you feel ,EXCITED,30MonoWAV/30MonoH1.wav,2,2,1,5,,,,,1,8,24,4,0,1,1,7,,,,,,,,,3,2.1844266960015375,010,001,2019_May_08_1606,MusicAffectPsychophysiology2019,3.0.5,59.98258021926837,
To what extent did the music make you feel ,SCARED,30MonoWAV/30MonoH1.wav,2,2,1,5,,,,,1,8,24,4,0,2,2,11,,,,,,,,,1,2.300331536000158,010,001,2019_May_08_1606,MusicAffectPsychophysiology2019,3.0.5,59.98258021926837,
To what extent did the music make you feel ,FRUSTRATED,30MonoWAV/30MonoH1.wav,2,2,1,5,,,,,1,8,24,4,0,3,3,3,,,,,,,,,1,1.8844864320017223,010,001,2019_May_08_1606,MusicAffectPsychophysiology2019,3.0.5,59.98258021926837,
To what extent did the music make you feel ,ASHAMED,30MonoWAV/30MonoH1.wav,2,2,1,5,,,,,1,8,24,4,0,4,4,4,,,,,,,,,1,1.6185453420002887,010,001,2019_May_08_1606,MusicAffectPsychophysiology2019,3.0.5,59.98258021926837,
To what extent did the music make you feel ,SAD,30MonoWAV/30MonoH1.wav,2,2,1,5,,,,,1,8,24,4,0,5,5,0,,,,,,,,,1,2.2992710510006873,010,001,2019_May_08_1606,MusicAffectPsychophysiology2019,3.0.5,59.98258021926837,
To what extent did the music make you feel ,TENDER,30MonoWAV/30MonoH1.wav,2,2,1,5,,,,,1,8,24,4,0,6,6,10,,,,,,,,,2,2.7837808890017186,010,001,2019_May_08_1606,MusicAffectPsychophysiology2019,3.0.5,59.98258021926837,
To what extent did the music make you feel ,ALERT,30MonoWAV/30MonoH1.wav,2,2,1,5,,,,,1,8,24,4,0,7,7,8,,,,,,,,,2,2.6015551860000414,010,001,2019_May_08_1606,MusicAffectPsychophysiology2019,3.0.5,59.98258021926837,
To what extent did the music make you feel ,HAPPY,30MonoWAV/30MonoH1.wav,2,2,1,5,,,,,1,8,24,4,0,8,8,6,,,,,,,,,3,4.151061180999022,010,001,2019_May_08_1606,MusicAffectPsychophysiology2019,3.0.5,59.98258021926837,
To what extent did the music make you feel ,ACTIVE,30MonoWAV/30MonoH1.wav,2,2,1,5,,,,,1,8,24,4,0,9,9,9,,,,,,,,,2,3.050648435999392,010,001,2019_May_08_1606,MusicAffectPsychophysiology2019,3.0.5,59.98258021926837,
To what extent did the music make you feel ,GUILTY,30MonoWAV/30MonoH1.wav,2,2,1,5,,,,,1,8,24,4,0,10,10,5,,,,,,,,,1,1.7168095800006995,010,001,2019_May_08_1606,MusicAffectPsychophysiology2019,3.0.5,59.98258021926837,
To what extent did the music make you feel ,ANXIOUS ,30MonoWAV/30MonoH1.wav,2,2,1,5,,,,,1,8,24,4,0,11,11,1,,,,,,,,,1,1.1860770279999997,010,001,2019_May_08_1606,MusicAffectPsychophysiology2019,3.0.5,59.98258021926837,
,,30MonoWAV/30MonoH1.wav,2,2,1,5,,,,,1,8,24,4,,,,,,,,,,,,,,,010,001,2019_May_08_1606,MusicAffectPsychophysiology2019,3.0.5,59.98258021926837,
To what extent did the music make you feel ,EXCITED,30MonoWAV/30MonoT3.wav,2,1,4,15,,,,,1,9,25,14,0,0,0,7,,,1,4.184274864001054,4,2.401826224000615,,,2,2.5508362090004084,010,001,2019_May_08_1606,MusicAffectPsychophysiology2019,3.0.5,59.98258021926837,
To what extent did the music make you feel ,ANGRY,30MonoWAV/30MonoT3.wav,2,1,4,15,,,,,1,9,25,14,0,1,1,2,,,,,,,,,1,1.0684284739982104,010,001,2019_May_08_1606,MusicAffectPsychophysiology2019,3.0.5,59.98258021926837,
To what extent did the music make you feel ,ASHAMED,30MonoWAV/30MonoT3.wav,2,1,4,15,,,,,1,9,25,14,0,2,2,4,,,,,,,,,1,2.0855521539997426,010,001,2019_May_08_1606,MusicAffectPsychophysiology2019,3.0.5,59.98258021926837,
To what extent did the music make you feel ,TENDER,30MonoWAV/30MonoT3.wav,2,1,4,15,,,,,1,9,25,14,0,3,3,10,,,,,,,,,4,1.7872297689991683,010,001,2019_May_08_1606,MusicAffectPsychophysiology2019,3.0.5,59.98258021926837,
To what extent did the music make you feel ,FRUSTRATED,30MonoWAV/30MonoT3.wav,2,1,4,15,,,,,1,9,25,14,0,4,4,3,,,,,,,,,1,1.413085886000772,010,001,2019_May_08_1606,MusicAffectPsychophysiology2019,3.0.5,59.98258021926837,
To what extent did the music make you feel ,ACTIVE,30MonoWAV/30MonoT3.wav,2,1,4,15,,,,,1,9,25,14,0,5,5,9,,,,,,,,,1,1.901353105000453,010,001,2019_May_08_1606,MusicAffectPsychophysiology2019,3.0.5,59.98258021926837,
To what extent did the music make you feel ,SAD,30MonoWAV/30MonoT3.wav,2,1,4,15,,,,,1,9,25,14,0,6,6,0,,,,,,,,,2,3.117931769000279,010,001,2019_May_08_1606,MusicAffectPsychophysiology2019,3.0.5,59.98258021926837,
To what extent did the music make you feel ,SCARED,30MonoWAV/30MonoT3.wav,2,1,4,15,,,,,1,9,25,14,0,7,7,11,,,,,,,,,1,1.5683144139984506,010,001,2019_May_08_1606,MusicAffectPsychophysiology2019,3.0.5,59.98258021926837,
To what extent did the music make you feel ,ANXIOUS ,30MonoWAV/30MonoT3.wav,2,1,4,15,,,,,1,9,25,14,0,8,8,1,,,,,,,,,1,1.2519318609993206,010,001,2019_May_08_1606,MusicAffectPsychophysiology2019,3.0.5,59.98258021926837,
To what extent did the music make you feel ,GUILTY,30MonoWAV/30MonoT3.wav,2,1,4,15,,,,,1,9,25,14,0,9,9,5,,,,,,,,,1,1.384797222999623,010,001,2019_May_08_1606,MusicAffectPsychophysiology2019,3.0.5,59.98258021926837,
To what extent did the music make you feel ,HAPPY,30MonoWAV/30MonoT3.wav,2,1,4,15,,,,,1,9,25,14,0,10,10,6,,,,,,,,,4,1.9690227990013227,010,001,2019_May_08_1606,MusicAffectPsychophysiology2019,3.0.5,59.98258021926837,
To what extent did the music make you feel ,ALERT,30MonoWAV/30MonoT3.wav,2,1,4,15,,,,,1,9,25,14,0,11,11,8,,,,,,,,,2,1.7849920179996843,010,001,2019_May_08_1606,MusicAffectPsychophysiology2019,3.0.5,59.98258021926837,
,,30MonoWAV/30MonoT3.wav,2,1,4,15,,,,,1,9,25,14,,,,,,,,,,,,,,,010,001,2019_May_08_1606,MusicAffectPsychophysiology2019,3.0.5,59.98258021926837,
To what extent did the music make you feel ,EXCITED,30MonoWAV/30MonoT2.wav,2,1,4,14,,,,,1,10,26,13,0,0,0,7,,,1,5.018669989998671,1,3.1184387859993876,,,1,3.45076609500029,010,001,2019_May_08_1606,MusicAffectPsychophysiology2019,3.0.5,59.98258021926837,
To what extent did the music make you feel ,HAPPY,30MonoWAV/30MonoT2.wav,2,1,4,14,,,,,1,10,26,13,0,1,1,6,,,,,,,,,2,3.667083004000233,010,001,2019_May_08_1606,MusicAffectPsychophysiology2019,3.0.5,59.98258021926837,
To what extent did the music make you feel ,SAD,30MonoWAV/30MonoT2.wav,2,1,4,14,,,,,1,10,26,13,0,2,2,0,,,,,,,,,3,2.8182279520005977,010,001,2019_May_08_1606,MusicAffectPsychophysiology2019,3.0.5,59.98258021926837,
To what extent did the music make you feel ,SCARED,30MonoWAV/30MonoT2.wav,2,1,4,14,,,,,1,10,26,13,0,3,3,11,,,,,,,,,1,2.035526644998754,010,001,2019_May_08_1606,MusicAffectPsychophysiology2019,3.0.5,59.98258021926837,
To what extent did the music make you feel ,ANGRY,30MonoWAV/30MonoT2.wav,2,1,4,14,,,,,1,10,26,13,0,4,4,2,,,,,,,,,1,4.368646409000576,010,001,2019_May_08_1606,MusicAffectPsychophysiology2019,3.0.5,59.98258021926837,
To what extent did the music make you feel ,ASHAMED,30MonoWAV/30MonoT2.wav,2,1,4,14,,,,,1,10,26,13,0,5,5,4,,,,,,,,,1,3.951455938999061,010,001,2019_May_08_1606,MusicAffectPsychophysiology2019,3.0.5,59.98258021926837,
To what extent did the music make you feel ,TENDER,30MonoWAV/30MonoT2.wav,2,1,4,14,,,,,1,10,26,13,0,6,6,10,,,,,,,,,2,5.51831737700013,010,001,2019_May_08_1606,MusicAffectPsychophysiology2019,3.0.5,59.98258021926837,
To what extent did the music make you feel ,ALERT,30MonoWAV/30MonoT2.wav,2,1,4,14,,,,,1,10,26,13,0,7,7,8,,,,,,,,,1,1.4339414080004644,010,001,2019_May_08_1606,MusicAffectPsychophysiology2019,3.0.5,59.98258021926837,
To what extent did the music make you feel ,FRUSTRATED,30MonoWAV/30MonoT2.wav,2,1,4,14,,,,,1,10,26,13,0,8,8,3,,,,,,,,,3,4.651614166999934,010,001,2019_May_08_1606,MusicAffectPsychophysiology2019,3.0.5,59.98258021926837,
To what extent did the music make you feel ,ANXIOUS ,30MonoWAV/30MonoT2.wav,2,1,4,14,,,,,1,10,26,13,0,9,9,1,,,,,,,,,3,2.252177031999963,010,001,2019_May_08_1606,MusicAffectPsychophysiology2019,3.0.5,59.98258021926837,
To what extent did the music make you feel ,GUILTY,30MonoWAV/30MonoT2.wav,2,1,4,14,,,,,1,10,26,13,0,10,10,5,,,,,,,,,1,1.8352002190003986,010,001,2019_May_08_1606,MusicAffectPsychophysiology2019,3.0.5,59.98258021926837,
To what extent did the music make you feel ,ACTIVE,30MonoWAV/30MonoT2.wav,2,1,4,14,,,,,1,10,26,13,0,11,11,9,,,,,,,,,1,1.900705502999699,010,001,2019_May_08_1606,MusicAffectPsychophysiology2019,3.0.5,59.98258021926837,
,,30MonoWAV/30MonoT2.wav,2,1,4,14,,,,,1,10,26,13,,,,,,,,,,,,,,,010,001,2019_May_08_1606,MusicAffectPsychophysiology2019,3.0.5,59.98258021926837,
To what extent did the music make you feel ,FRUSTRATED,30MonoWAV/30MonoS2.wav,1,1,3,10,,,,,1,11,27,9,0,0,0,3,,,1,4.668450798000777,3,2.7850099520001095,,,1,2.086039198000435,010,001,2019_May_08_1606,MusicAffectPsychophysiology2019,3.0.5,59.98258021926837,
To what extent did the music make you feel ,EXCITED,30MonoWAV/30MonoS2.wav,1,1,3,10,,,,,1,11,27,9,0,1,1,7,,,,,,,,,1,1.6024186169997847,010,001,2019_May_08_1606,MusicAffectPsychophysiology2019,3.0.5,59.98258021926837,
To what extent did the music make you feel ,TENDER,30MonoWAV/30MonoS2.wav,1,1,3,10,,,,,1,11,27,9,0,2,2,10,,,,,,,,,2,2.4018194990003394,010,001,2019_May_08_1606,MusicAffectPsychophysiology2019,3.0.5,59.98258021926837,
To what extent did the music make you feel ,HAPPY,30MonoWAV/30MonoS2.wav,1,1,3,10,,,,,1,11,27,9,0,3,3,6,,,,,,,,,1,2.4843425330000173,010,001,2019_May_08_1606,MusicAffectPsychophysiology2019,3.0.5,59.98258021926837,
To what extent did the music make you feel ,GUILTY,30MonoWAV/30MonoS2.wav,1,1,3,10,,,,,1,11,27,9,0,4,4,5,,,,,,,,,2,1.9349315200015553,010,001,2019_May_08_1606,MusicAffectPsychophysiology2019,3.0.5,59.98258021926837,
To what extent did the music make you feel ,ASHAMED,30MonoWAV/30MonoS2.wav,1,1,3,10,,,,,1,11,27,9,0,5,5,4,,,,,,,,,3,2.384501171000011,010,001,2019_May_08_1606,MusicAffectPsychophysiology2019,3.0.5,59.98258021926837,
To what extent did the music make you feel ,ANXIOUS ,30MonoWAV/30MonoS2.wav,1,1,3,10,,,,,1,11,27,9,0,6,6,1,,,,,,,,,1,2.0347195169997576,010,001,2019_May_08_1606,MusicAffectPsychophysiology2019,3.0.5,59.98258021926837,
To what extent did the music make you feel ,SAD,30MonoWAV/30MonoS2.wav,1,1,3,10,,,,,1,11,27,9,0,7,7,0,,,,,,,,,4,1.95140057000026,010,001,2019_May_08_1606,MusicAffectPsychophysiology2019,3.0.5,59.98258021926837,
To what extent did the music make you feel ,ALERT,30MonoWAV/30MonoS2.wav,1,1,3,10,,,,,1,11,27,9,0,8,8,8,,,,,,,,,1,1.6514177700009895,010,001,2019_May_08_1606,MusicAffectPsychophysiology2019,3.0.5,59.98258021926837,
To what extent did the music make you feel ,ANGRY,30MonoWAV/30MonoS2.wav,1,1,3,10,,,,,1,11,27,9,0,9,9,2,,,,,,,,,1,1.1528219640003954,010,001,2019_May_08_1606,MusicAffectPsychophysiology2019,3.0.5,59.98258021926837,
To what extent did the music make you feel ,SCARED,30MonoWAV/30MonoS2.wav,1,1,3,10,,,,,1,11,27,9,0,10,10,11,,,,,,,,,1,2.584338716000275,010,001,2019_May_08_1606,MusicAffectPsychophysiology2019,3.0.5,59.98258021926837,
To what extent did the music make you feel ,ACTIVE,30MonoWAV/30MonoS2.wav,1,1,3,10,,,,,1,11,27,9,0,11,11,9,,,,,,,,,1,2.2346135829993727,010,001,2019_May_08_1606,MusicAffectPsychophysiology2019,3.0.5,59.98258021926837,
,,30MonoWAV/30MonoS2.wav,1,1,3,10,,,,,1,11,27,9,,,,,,,,,,,,,,,010,001,2019_May_08_1606,MusicAffectPsychophysiology2019,3.0.5,59.98258021926837,
To what extent did the music make you feel ,SAD,30MonoWAV/30MonoS4.wav,1,1,3,12,,,,,1,12,28,11,0,0,0,0,,,1,5.9682774230004725,2,4.300868148999143,,,4,2.5502871759999834,010,001,2019_May_08_1606,MusicAffectPsychophysiology2019,3.0.5,59.98258021926837,
To what extent did the music make you feel ,FRUSTRATED,30MonoWAV/30MonoS4.wav,1,1,3,12,,,,,1,12,28,11,0,1,1,3,,,,,,,,,1,2.117143675000989,010,001,2019_May_08_1606,MusicAffectPsychophysiology2019,3.0.5,59.98258021926837,
To what extent did the music make you feel ,SCARED,30MonoWAV/30MonoS4.wav,1,1,3,12,,,,,1,12,28,11,0,2,2,11,,,,,,,,,1,1.2182404959985433,010,001,2019_May_08_1606,MusicAffectPsychophysiology2019,3.0.5,59.98258021926837,
To what extent did the music make you feel ,EXCITED,30MonoWAV/30MonoS4.wav,1,1,3,12,,,,,1,12,28,11,0,3,3,7,,,,,,,,,1,3.050927749998664,010,001,2019_May_08_1606,MusicAffectPsychophysiology2019,3.0.5,59.98258021926837,
To what extent did the music make you feel ,ANGRY,30MonoWAV/30MonoS4.wav,1,1,3,12,,,,,1,12,28,11,0,4,4,2,,,,,,,,,1,1.28519773699918,010,001,2019_May_08_1606,MusicAffectPsychophysiology2019,3.0.5,59.98258021926837,
To what extent did the music make you feel ,ALERT,30MonoWAV/30MonoS4.wav,1,1,3,12,,,,,1,12,28,11,0,5,5,8,,,,,,,,,1,2.2507993929993972,010,001,2019_May_08_1606,MusicAffectPsychophysiology2019,3.0.5,59.98258021926837,
To what extent did the music make you feel ,GUILTY,30MonoWAV/30MonoS4.wav,1,1,3,12,,,,,1,12,28,11,0,6,6,5,,,,,,,,,2,1.418063434999567,010,001,2019_May_08_1606,MusicAffectPsychophysiology2019,3.0.5,59.98258021926837,
To what extent did the music make you feel ,HAPPY,30MonoWAV/30MonoS4.wav,1,1,3,12,,,,,1,12,28,11,0,7,7,6,,,,,,,,,1,1.7683512519997748,010,001,2019_May_08_1606,MusicAffectPsychophysiology2019,3.0.5,59.98258021926837,
To what extent did the music make you feel ,ASHAMED,30MonoWAV/30MonoS4.wav,1,1,3,12,,,,,1,12,28,11,0,8,8,4,,,,,,,,,2,1.5173049510012788,010,001,2019_May_08_1606,MusicAffectPsychophysiology2019,3.0.5,59.98258021926837,
To what extent did the music make you feel ,ANXIOUS ,30MonoWAV/30MonoS4.wav,1,1,3,12,,,,,1,12,28,11,0,9,9,1,,,,,,,,,1,2.2847219119994406,010,001,2019_May_08_1606,MusicAffectPsychophysiology2019,3.0.5,59.98258021926837,
To what extent did the music make you feel ,ACTIVE,30MonoWAV/30MonoS4.wav,1,1,3,12,,,,,1,12,28,11,0,10,10,9,,,,,,,,,1,1.486480933999701,010,001,2019_May_08_1606,MusicAffectPsychophysiology2019,3.0.5,59.98258021926837,
To what extent did the music make you feel ,TENDER,30MonoWAV/30MonoS4.wav,1,1,3,12,,,,,1,12,28,11,0,11,11,10,,,,,,,,,3,4.301534999000069,010,001,2019_May_08_1606,MusicAffectPsychophysiology2019,3.0.5,59.98258021926837,
,,30MonoWAV/30MonoS4.wav,1,1,3,12,,,,,1,12,28,11,,,,,,,,,,,,,,,010,001,2019_May_08_1606,MusicAffectPsychophysiology2019,3.0.5,59.98258021926837,
To what extent did the music make you feel ,ALERT,30MonoWAV/30MonoT4.wav,2,1,4,16,,,,,1,13,29,15,0,0,0,8,,,2,9.200945374001094,3,2.784999493000214,,,2,2.1182198240003345,010,001,2019_May_08_1606,MusicAffectPsychophysiology2019,3.0.5,59.98258021926837,
To what extent did the music make you feel ,SAD,30MonoWAV/30MonoT4.wav,2,1,4,16,,,,,1,13,29,15,0,1,1,0,,,,,,,,,3,4.569443104999664,010,001,2019_May_08_1606,MusicAffectPsychophysiology2019,3.0.5,59.98258021926837,
To what extent did the music make you feel ,FRUSTRATED,30MonoWAV/30MonoT4.wav,2,1,4,16,,,,,1,13,29,15,0,2,2,3,,,,,,,,,1,1.5031077310013643,010,001,2019_May_08_1606,MusicAffectPsychophysiology2019,3.0.5,59.98258021926837,
To what extent did the music make you feel ,HAPPY,30MonoWAV/30MonoT4.wav,2,1,4,16,,,,,1,13,29,15,0,3,3,6,,,,,,,,,3,4.935142805999931,010,001,2019_May_08_1606,MusicAffectPsychophysiology2019,3.0.5,59.98258021926837,
To what extent did the music make you feel ,EXCITED,30MonoWAV/30MonoT4.wav,2,1,4,16,,,,,1,13,29,15,0,4,4,7,,,,,,,,,1,1.2842502959992999,010,001,2019_May_08_1606,MusicAffectPsychophysiology2019,3.0.5,59.98258021926837,
To what extent did the music make you feel ,ANXIOUS ,30MonoWAV/30MonoT4.wav,2,1,4,16,,,,,1,13,29,15,0,5,5,1,,,,,,,,,1,1.4678974429989466,010,001,2019_May_08_1606,MusicAffectPsychophysiology2019,3.0.5,59.98258021926837,
To what extent did the music make you feel ,SCARED,30MonoWAV/30MonoT4.wav,2,1,4,16,,,,,1,13,29,15,0,6,6,11,,,,,,,,,1,2.3186626030001207,010,001,2019_May_08_1606,MusicAffectPsychophysiology2019,3.0.5,59.98258021926837,
To what extent did the music make you feel ,TENDER,30MonoWAV/30MonoT4.wav,2,1,4,16,,,,,1,13,29,15,0,7,7,10,,,,,,,,,4,3.1681009519998042,010,001,2019_May_08_1606,MusicAffectPsychophysiology2019,3.0.5,59.98258021926837,
To what extent did the music make you feel ,ANGRY,30MonoWAV/30MonoT4.wav,2,1,4,16,,,,,1,13,29,15,0,8,8,2,,,,,,,,,1,2.2518927010005427,010,001,2019_May_08_1606,MusicAffectPsychophysiology2019,3.0.5,59.98258021926837,
To what extent did the music make you feel ,ACTIVE,30MonoWAV/30MonoT4.wav,2,1,4,16,,,,,1,13,29,15,0,9,9,9,,,,,,,,,1,1.685251437998886,010,001,2019_May_08_1606,MusicAffectPsychophysiology2019,3.0.5,59.98258021926837,
To what extent did the music make you feel ,GUILTY,30MonoWAV/30MonoT4.wav,2,1,4,16,,,,,1,13,29,15,0,10,10,5,,,,,,,,,1,2.551692948998607,010,001,2019_May_08_1606,MusicAffectPsychophysiology2019,3.0.5,59.98258021926837,
To what extent did the music make you feel ,ASHAMED,30MonoWAV/30MonoT4.wav,2,1,4,16,,,,,1,13,29,15,0,11,11,4,,,,,,,,,1,3.635125524999239,010,001,2019_May_08_1606,MusicAffectPsychophysiology2019,3.0.5,59.98258021926837,
,,30MonoWAV/30MonoT4.wav,2,1,4,16,,,,,1,13,29,15,,,,,,,,,,,,,,,010,001,2019_May_08_1606,MusicAffectPsychophysiology2019,3.0.5,59.98258021926837,
To what extent did the music make you feel ,ANXIOUS ,30MonoWAV/30MonoF3.wav,1,2,2,3,,,,,1,14,30,2,0,0,0,1,,,3,5.584083363999525,1,2.167887775998679,,,4,4.202643298000112,010,001,2019_May_08_1606,MusicAffectPsychophysiology2019,3.0.5,59.98258021926837,
To what extent did the music make you feel ,SCARED,30MonoWAV/30MonoF3.wav,1,2,2,3,,,,,1,14,30,2,0,1,1,11,,,,,,,,,3,4.051337039001737,010,001,2019_May_08_1606,MusicAffectPsychophysiology2019,3.0.5,59.98258021926837,
To what extent did the music make you feel ,EXCITED,30MonoWAV/30MonoF3.wav,1,2,2,3,,,,,1,14,30,2,0,2,2,7,,,,,,,,,1,2.3179753980002715,010,001,2019_May_08_1606,MusicAffectPsychophysiology2019,3.0.5,59.98258021926837,
To what extent did the music make you feel ,ASHAMED,30MonoWAV/30MonoF3.wav,1,2,2,3,,,,,1,14,30,2,0,3,3,4,,,,,,,,,1,2.215383959000974,010,001,2019_May_08_1606,MusicAffectPsychophysiology2019,3.0.5,59.98258021926837,
To what extent did the music make you feel ,ALERT,30MonoWAV/30MonoF3.wav,1,2,2,3,,,,,1,14,30,2,0,4,4,8,,,,,,,,,3,2.653193508000186,010,001,2019_May_08_1606,MusicAffectPsychophysiology2019,3.0.5,59.98258021926837,
To what extent did the music make you feel ,GUILTY,30MonoWAV/30MonoF3.wav,1,2,2,3,,,,,1,14,30,2,0,5,5,5,,,,,,,,,1,1.8512981410003704,010,001,2019_May_08_1606,MusicAffectPsychophysiology2019,3.0.5,59.98258021926837,
To what extent did the music make you feel ,ACTIVE,30MonoWAV/30MonoF3.wav,1,2,2,3,,,,,1,14,30,2,0,6,6,9,,,,,,,,,2,3.768426487000397,010,001,2019_May_08_1606,MusicAffectPsychophysiology2019,3.0.5,59.98258021926837,
To what extent did the music make you feel ,HAPPY,30MonoWAV/30MonoF3.wav,1,2,2,3,,,,,1,14,30,2,0,7,7,6,,,,,,,,,1,3.2023335750000115,010,001,2019_May_08_1606,MusicAffectPsychophysiology2019,3.0.5,59.98258021926837,
To what extent did the music make you feel ,FRUSTRATED,30MonoWAV/30MonoF3.wav,1,2,2,3,,,,,1,14,30,2,0,8,8,3,,,,,,,,,1,1.5222191929988185,010,001,2019_May_08_1606,MusicAffectPsychophysiology2019,3.0.5,59.98258021926837,
To what extent did the music make you feel ,ANGRY,30MonoWAV/30MonoF3.wav,1,2,2,3,,,,,1,14,30,2,0,9,9,2,,,,,,,,,1,2.2183080009999685,010,001,2019_May_08_1606,MusicAffectPsychophysiology2019,3.0.5,59.98258021926837,
To what extent did the music make you feel ,SAD,30MonoWAV/30MonoF3.wav,1,2,2,3,,,,,1,14,30,2,0,10,10,0,,,,,,,,,1,2.6021426110000903,010,001,2019_May_08_1606,MusicAffectPsychophysiology2019,3.0.5,59.98258021926837,
To what extent did the music make you feel ,TENDER,30MonoWAV/30MonoF3.wav,1,2,2,3,,,,,1,14,30,2,0,11,11,10,,,,,,,,,1,2.0851845409997622,010,001,2019_May_08_1606,MusicAffectPsychophysiology2019,3.0.5,59.98258021926837,
,,30MonoWAV/30MonoF3.wav,1,2,2,3,,,,,1,14,30,2,,,,,,,,,,,,,,,010,001,2019_May_08_1606,MusicAffectPsychophysiology2019,3.0.5,59.98258021926837,
To what extent did the music make you feel ,ASHAMED,30MonoWAV/30MonoH3.wav,2,2,1,7,,,,,1,15,31,6,0,0,0,4,,,3,7.001041814999553,2,5.117512856999383,,,1,2.1838429549989087,010,001,2019_May_08_1606,MusicAffectPsychophysiology2019,3.0.5,59.98258021926837,
To what extent did the music make you feel ,SCARED,30MonoWAV/30MonoH3.wav,2,2,1,7,,,,,1,15,31,6,0,1,1,11,,,,,,,,,1,0.9183332519987744,010,001,2019_May_08_1606,MusicAffectPsychophysiology2019,3.0.5,59.98258021926837,
To what extent did the music make you feel ,ACTIVE,30MonoWAV/30MonoH3.wav,2,2,1,7,,,,,1,15,31,6,0,2,2,9,,,,,,,,,3,2.6505219070004387,010,001,2019_May_08_1606,MusicAffectPsychophysiology2019,3.0.5,59.98258021926837,
To what extent did the music make you feel ,HAPPY,30MonoWAV/30MonoH3.wav,2,2,1,7,,,,,1,15,31,6,0,3,3,6,,,,,,,,,4,2.819013915999676,010,001,2019_May_08_1606,MusicAffectPsychophysiology2019,3.0.5,59.98258021926837,
To what extent did the music make you feel ,TENDER,30MonoWAV/30MonoH3.wav,2,2,1,7,,,,,1,15,31,6,0,4,4,10,,,,,,,,,2,3.5015350970006693,010,001,2019_May_08_1606,MusicAffectPsychophysiology2019,3.0.5,59.98258021926837,
To what extent did the music make you feel ,EXCITED,30MonoWAV/30MonoH3.wav,2,2,1,7,,,,,1,15,31,6,0,5,5,7,,,,,,,,,3,1.8351424499996938,010,001,2019_May_08_1606,MusicAffectPsychophysiology2019,3.0.5,59.98258021926837,
To what extent did the music make you feel ,ANGRY,30MonoWAV/30MonoH3.wav,2,2,1,7,,,,,1,15,31,6,0,6,6,2,,,,,,,,,1,1.9348763030011469,010,001,2019_May_08_1606,MusicAffectPsychophysiology2019,3.0.5,59.98258021926837,
To what extent did the music make you feel ,SAD,30MonoWAV/30MonoH3.wav,2,2,1,7,,,,,1,15,31,6,0,7,7,0,,,,,,,,,1,1.8843323750006675,010,001,2019_May_08_1606,MusicAffectPsychophysiology2019,3.0.5,59.98258021926837,
To what extent did the music make you feel ,ANXIOUS ,30MonoWAV/30MonoH3.wav,2,2,1,7,,,,,1,15,31,6,0,8,8,1,,,,,,,,,1,1.6008794030003628,010,001,2019_May_08_1606,MusicAffectPsychophysiology2019,3.0.5,59.98258021926837,
To what extent did the music make you feel ,ALERT,30MonoWAV/30MonoH3.wav,2,2,1,7,,,,,1,15,31,6,0,9,9,8,,,,,,,,,4,3.9730749580012343,010,001,2019_May_08_1606,MusicAffectPsychophysiology2019,3.0.5,59.98258021926837,
To what extent did the music make you feel ,FRUSTRATED,30MonoWAV/30MonoH3.wav,2,2,1,7,,,,,1,15,31,6,0,10,10,3,,,,,,,,,1,2.103931879999436,010,001,2019_May_08_1606,MusicAffectPsychophysiology2019,3.0.5,59.98258021926837,
To what extent did the music make you feel ,GUILTY,30MonoWAV/30MonoH3.wav,2,2,1,7,,,,,1,15,31,6,0,11,11,5,,,,,,,,,1,1.7369197089992667,010,001,2019_May_08_1606,MusicAffectPsychophysiology2019,3.0.5,59.98258021926837,
,,30MonoWAV/30MonoH3.wav,2,2,1,7,,,,,1,15,31,6,,,,,,,,,,,,,,,010,001,2019_May_08_1606,MusicAffectPsychophysiology2019,3.0.5,59.98258021926837,
