Instruction,Word,song,valence,arousal,affectcat,songmark,pracwords.thisRepN,pracwords.thisTrialN,pracwords.thisN,pracwords.thisIndex,songtrials.thisRepN,songtrials.thisTrialN,songtrials.thisN,songtrials.thisIndex,words.thisRepN,words.thisTrialN,words.thisN,words.thisIndex,begin.keys,begin.rt,arousalkey.keys,arousalkey.rt,valencekey.keys,valencekey.rt,likekey.keys,likekey.rt,WordResponse.keys,WordResponse.rt,key_resp_2.keys,key_resp_2.rt,participant,session,date,expName,psychopyVersion,frameRate,
,,,,,,,,,,,,,,,,,,,space,8.052733797998371,,,,,,,,,,,011,001,2019_May_09_0917,MusicAffectPsychophysiology2019,3.0.5,59.54154581568938,
,,,,,,,,,,,,,,,,,,,,,3,6.652634450998448,,,,,,,,,011,001,2019_May_09_0917,MusicAffectPsychophysiology2019,3.0.5,59.54154581568938,
,,,,,,,,,,,,,,,,,,,,,,,3,3.901464868999028,,,,,,,011,001,2019_May_09_0917,MusicAffectPsychophysiology2019,3.0.5,59.54154581568938,
,,,,,,,,,,,,,,,,,,,,,,,,,2,2.5184351410025556,,,,,011,001,2019_May_09_0917,MusicAffectPsychophysiology2019,3.0.5,59.54154581568938,
To what extent did the music make you feel ,ACTIVE,,,,,,0,0,0,9,,,,,,,,,,,,,,,,,2,3.8205510410007264,,,011,001,2019_May_09_0917,MusicAffectPsychophysiology2019,3.0.5,59.54154581568938,
To what extent did the music make you feel ,HAPPY,,,,,,0,1,1,6,,,,,,,,,,,,,,,,,3,1.9186748680003802,,,011,001,2019_May_09_0917,MusicAffectPsychophysiology2019,3.0.5,59.54154581568938,
To what extent did the music make you feel ,GUILTY,,,,,,0,2,2,5,,,,,,,,,,,,,,,,,1,1.7350184720016841,,,011,001,2019_May_09_0917,MusicAffectPsychophysiology2019,3.0.5,59.54154581568938,
To what extent did the music make you feel ,ASHAMED,,,,,,0,3,3,4,,,,,,,,,,,,,,,,,1,0.9518292649991054,,,011,001,2019_May_09_0917,MusicAffectPsychophysiology2019,3.0.5,59.54154581568938,
To what extent did the music make you feel ,EXCITED,,,,,,0,4,4,7,,,,,,,,,,,,,,,,,2,1.401561964998109,,,011,001,2019_May_09_0917,MusicAffectPsychophysiology2019,3.0.5,59.54154581568938,
To what extent did the music make you feel ,SCARED,,,,,,0,5,5,11,,,,,,,,,,,,,,,,,1,1.0019936009994126,,,011,001,2019_May_09_0917,MusicAffectPsychophysiology2019,3.0.5,59.54154581568938,
To what extent did the music make you feel ,ANGRY,,,,,,0,6,6,2,,,,,,,,,,,,,,,,,1,0.7356554210018658,,,011,001,2019_May_09_0917,MusicAffectPsychophysiology2019,3.0.5,59.54154581568938,
To what extent did the music make you feel ,ANXIOUS ,,,,,,0,7,7,1,,,,,,,,,,,,,,,,,1,0.6851447190019826,,,011,001,2019_May_09_0917,MusicAffectPsychophysiology2019,3.0.5,59.54154581568938,
To what extent did the music make you feel ,SAD,,,,,,0,8,8,0,,,,,,,,,,,,,,,,,1,2.4674411439991673,,,011,001,2019_May_09_0917,MusicAffectPsychophysiology2019,3.0.5,59.54154581568938,
To what extent did the music make you feel ,TENDER,,,,,,0,9,9,10,,,,,,,,,,,,,,,,,2,1.1503029979976418,,,011,001,2019_May_09_0917,MusicAffectPsychophysiology2019,3.0.5,59.54154581568938,
To what extent did the music make you feel ,ALERT,,,,,,0,10,10,8,,,,,,,,,,,,,,,,,1,1.2686445830004232,,,011,001,2019_May_09_0917,MusicAffectPsychophysiology2019,3.0.5,59.54154581568938,
To what extent did the music make you feel ,FRUSTRATED,,,,,,0,11,11,3,,,,,,,,,,,,,,,,,1,0.7185859029996209,,,011,001,2019_May_09_0917,MusicAffectPsychophysiology2019,3.0.5,59.54154581568938,
To what extent did the music make you feel ,SCARED,30MonoWAV/30MonoT3.wav,2,1,4,15,,,,,0,0,0,14,0,0,0,11,,,1,3.1557170759988367,2,1.4358051850031188,2,1.3189724839976407,1,1.4186196200025734,,,011,001,2019_May_09_0917,MusicAffectPsychophysiology2019,3.0.5,59.54154581568938,
To what extent did the music make you feel ,FRUSTRATED,30MonoWAV/30MonoT3.wav,2,1,4,15,,,,,0,0,0,14,0,1,1,3,,,,,,,,,1,0.4511667509977997,,,011,001,2019_May_09_0917,MusicAffectPsychophysiology2019,3.0.5,59.54154581568938,
To what extent did the music make you feel ,SAD,30MonoWAV/30MonoT3.wav,2,1,4,15,,,,,0,0,0,14,0,2,2,0,,,,,,,,,1,0.5013378000003286,,,011,001,2019_May_09_0917,MusicAffectPsychophysiology2019,3.0.5,59.54154581568938,
To what extent did the music make you feel ,ANXIOUS ,30MonoWAV/30MonoT3.wav,2,1,4,15,,,,,0,0,0,14,0,3,3,1,,,,,,,,,1,0.5360167349972471,,,011,001,2019_May_09_0917,MusicAffectPsychophysiology2019,3.0.5,59.54154581568938,
To what extent did the music make you feel ,EXCITED,30MonoWAV/30MonoT3.wav,2,1,4,15,,,,,0,0,0,14,0,4,4,7,,,,,,,,,1,1.0184475440000824,,,011,001,2019_May_09_0917,MusicAffectPsychophysiology2019,3.0.5,59.54154581568938,
To what extent did the music make you feel ,HAPPY,30MonoWAV/30MonoT3.wav,2,1,4,15,,,,,0,0,0,14,0,5,5,6,,,,,,,,,1,1.0020451380005397,,,011,001,2019_May_09_0917,MusicAffectPsychophysiology2019,3.0.5,59.54154581568938,
To what extent did the music make you feel ,GUILTY,30MonoWAV/30MonoT3.wav,2,1,4,15,,,,,0,0,0,14,0,6,6,5,,,,,,,,,1,1.518097398999089,,,011,001,2019_May_09_0917,MusicAffectPsychophysiology2019,3.0.5,59.54154581568938,
To what extent did the music make you feel ,TENDER,30MonoWAV/30MonoT3.wav,2,1,4,15,,,,,0,0,0,14,0,7,7,10,,,,,,,,,1,2.101510964999761,,,011,001,2019_May_09_0917,MusicAffectPsychophysiology2019,3.0.5,59.54154581568938,
To what extent did the music make you feel ,ALERT,30MonoWAV/30MonoT3.wav,2,1,4,15,,,,,0,0,0,14,0,8,8,8,,,,,,,,,1,0.4680686309984594,,,011,001,2019_May_09_0917,MusicAffectPsychophysiology2019,3.0.5,59.54154581568938,
To what extent did the music make you feel ,ACTIVE,30MonoWAV/30MonoT3.wav,2,1,4,15,,,,,0,0,0,14,0,9,9,9,,,,,,,,,1,0.5502746880010818,,,011,001,2019_May_09_0917,MusicAffectPsychophysiology2019,3.0.5,59.54154581568938,
To what extent did the music make you feel ,ANGRY,30MonoWAV/30MonoT3.wav,2,1,4,15,,,,,0,0,0,14,0,10,10,2,,,,,,,,,1,0.46773978299825103,,,011,001,2019_May_09_0917,MusicAffectPsychophysiology2019,3.0.5,59.54154581568938,
To what extent did the music make you feel ,ASHAMED,30MonoWAV/30MonoT3.wav,2,1,4,15,,,,,0,0,0,14,0,11,11,4,,,,,,,,,1,0.6017132569977548,,,011,001,2019_May_09_0917,MusicAffectPsychophysiology2019,3.0.5,59.54154581568938,
,,30MonoWAV/30MonoT3.wav,2,1,4,15,,,,,0,0,0,14,,,,,,,,,,,,,,,,,011,001,2019_May_09_0917,MusicAffectPsychophysiology2019,3.0.5,59.54154581568938,
To what extent did the music make you feel ,TENDER,30MonoWAV/30MonoH2.wav,2,2,1,6,,,,,0,1,1,5,0,0,0,10,,,2,2.969746178998321,2,1.5681534290015406,1,1.9351677949998702,1,1.285154284996679,,,011,001,2019_May_09_0917,MusicAffectPsychophysiology2019,3.0.5,59.54154581568938,
To what extent did the music make you feel ,FRUSTRATED,30MonoWAV/30MonoH2.wav,2,2,1,6,,,,,0,1,1,5,0,1,1,3,,,,,,,,,1,0.9351313849983853,,,011,001,2019_May_09_0917,MusicAffectPsychophysiology2019,3.0.5,59.54154581568938,
To what extent did the music make you feel ,ANXIOUS ,30MonoWAV/30MonoH2.wav,2,2,1,6,,,,,0,1,1,5,0,2,2,1,,,,,,,,,1,0.7506192279979587,,,011,001,2019_May_09_0917,MusicAffectPsychophysiology2019,3.0.5,59.54154581568938,
To what extent did the music make you feel ,ACTIVE,30MonoWAV/30MonoH2.wav,2,2,1,6,,,,,0,1,1,5,0,3,3,9,,,,,,,,,1,0.8194370089986478,,,011,001,2019_May_09_0917,MusicAffectPsychophysiology2019,3.0.5,59.54154581568938,
To what extent did the music make you feel ,HAPPY,30MonoWAV/30MonoH2.wav,2,2,1,6,,,,,0,1,1,5,0,4,4,6,,,,,,,,,1,1.3351585260024876,,,011,001,2019_May_09_0917,MusicAffectPsychophysiology2019,3.0.5,59.54154581568938,
To what extent did the music make you feel ,EXCITED,30MonoWAV/30MonoH2.wav,2,2,1,6,,,,,0,1,1,5,0,5,5,7,,,,,,,,,2,1.0023428870008502,,,011,001,2019_May_09_0917,MusicAffectPsychophysiology2019,3.0.5,59.54154581568938,
To what extent did the music make you feel ,ALERT,30MonoWAV/30MonoH2.wav,2,2,1,6,,,,,0,1,1,5,0,6,6,8,,,,,,,,,3,1.9848408260004362,,,011,001,2019_May_09_0917,MusicAffectPsychophysiology2019,3.0.5,59.54154581568938,
To what extent did the music make you feel ,ANGRY,30MonoWAV/30MonoH2.wav,2,2,1,6,,,,,0,1,1,5,0,7,7,2,,,,,,,,,1,1.018403677000606,,,011,001,2019_May_09_0917,MusicAffectPsychophysiology2019,3.0.5,59.54154581568938,
To what extent did the music make you feel ,SCARED,30MonoWAV/30MonoH2.wav,2,2,1,6,,,,,0,1,1,5,0,8,8,11,,,,,,,,,1,0.7020688480006356,,,011,001,2019_May_09_0917,MusicAffectPsychophysiology2019,3.0.5,59.54154581568938,
To what extent did the music make you feel ,GUILTY,30MonoWAV/30MonoH2.wav,2,2,1,6,,,,,0,1,1,5,0,9,9,5,,,,,,,,,1,0.5514982550012064,,,011,001,2019_May_09_0917,MusicAffectPsychophysiology2019,3.0.5,59.54154581568938,
To what extent did the music make you feel ,SAD,30MonoWAV/30MonoH2.wav,2,2,1,6,,,,,0,1,1,5,0,10,10,0,,,,,,,,,1,0.6026732789978269,,,011,001,2019_May_09_0917,MusicAffectPsychophysiology2019,3.0.5,59.54154581568938,
To what extent did the music make you feel ,ASHAMED,30MonoWAV/30MonoH2.wav,2,2,1,6,,,,,0,1,1,5,0,11,11,4,,,,,,,,,1,0.6179483310006617,,,011,001,2019_May_09_0917,MusicAffectPsychophysiology2019,3.0.5,59.54154581568938,
,,30MonoWAV/30MonoH2.wav,2,2,1,6,,,,,0,1,1,5,,,,,,,,,,,,,,,,,011,001,2019_May_09_0917,MusicAffectPsychophysiology2019,3.0.5,59.54154581568938,
To what extent did the music make you feel ,SAD,30MonoWAV/30MonoH3.wav,2,2,1,7,,,,,0,2,2,6,0,0,0,0,,,3,2.501590314001078,3,1.2691708310012473,1,1.5855391149998468,1,1.4518625720011187,,,011,001,2019_May_09_0917,MusicAffectPsychophysiology2019,3.0.5,59.54154581568938,
To what extent did the music make you feel ,SCARED,30MonoWAV/30MonoH3.wav,2,2,1,7,,,,,0,2,2,6,0,1,1,11,,,,,,,,,1,0.5002600529987831,,,011,001,2019_May_09_0917,MusicAffectPsychophysiology2019,3.0.5,59.54154581568938,
To what extent did the music make you feel ,EXCITED,30MonoWAV/30MonoH3.wav,2,2,1,7,,,,,0,2,2,6,0,2,2,7,,,,,,,,,2,0.7178461429975869,,,011,001,2019_May_09_0917,MusicAffectPsychophysiology2019,3.0.5,59.54154581568938,
To what extent did the music make you feel ,FRUSTRATED,30MonoWAV/30MonoH3.wav,2,2,1,7,,,,,0,2,2,6,0,3,3,3,,,,,,,,,1,0.78546340399771,,,011,001,2019_May_09_0917,MusicAffectPsychophysiology2019,3.0.5,59.54154581568938,
To what extent did the music make you feel ,TENDER,30MonoWAV/30MonoH3.wav,2,2,1,7,,,,,0,2,2,6,0,4,4,10,,,,,,,,,1,1.1178213830025925,,,011,001,2019_May_09_0917,MusicAffectPsychophysiology2019,3.0.5,59.54154581568938,
To what extent did the music make you feel ,ASHAMED,30MonoWAV/30MonoH3.wav,2,2,1,7,,,,,0,2,2,6,0,5,5,4,,,,,,,,,1,0.7018489820002287,,,011,001,2019_May_09_0917,MusicAffectPsychophysiology2019,3.0.5,59.54154581568938,
To what extent did the music make you feel ,ALERT,30MonoWAV/30MonoH3.wav,2,2,1,7,,,,,0,2,2,6,0,6,6,8,,,,,,,,,1,0.5849980310013052,,,011,001,2019_May_09_0917,MusicAffectPsychophysiology2019,3.0.5,59.54154581568938,
To what extent did the music make you feel ,ACTIVE,30MonoWAV/30MonoH3.wav,2,2,1,7,,,,,0,2,2,6,0,7,7,9,,,,,,,,,2,1.084669768002641,,,011,001,2019_May_09_0917,MusicAffectPsychophysiology2019,3.0.5,59.54154581568938,
To what extent did the music make you feel ,ANGRY,30MonoWAV/30MonoH3.wav,2,2,1,7,,,,,0,2,2,6,0,8,8,2,,,,,,,,,1,0.584632258000056,,,011,001,2019_May_09_0917,MusicAffectPsychophysiology2019,3.0.5,59.54154581568938,
To what extent did the music make you feel ,GUILTY,30MonoWAV/30MonoH3.wav,2,2,1,7,,,,,0,2,2,6,0,9,9,5,,,,,,,,,1,1.1333121719981136,,,011,001,2019_May_09_0917,MusicAffectPsychophysiology2019,3.0.5,59.54154581568938,
To what extent did the music make you feel ,ANXIOUS ,30MonoWAV/30MonoH3.wav,2,2,1,7,,,,,0,2,2,6,0,10,10,1,,,,,,,,,1,0.5014563589975296,,,011,001,2019_May_09_0917,MusicAffectPsychophysiology2019,3.0.5,59.54154581568938,
To what extent did the music make you feel ,HAPPY,30MonoWAV/30MonoH3.wav,2,2,1,7,,,,,0,2,2,6,0,11,11,6,,,,,,,,,1,1.2193739440008358,,,011,001,2019_May_09_0917,MusicAffectPsychophysiology2019,3.0.5,59.54154581568938,
,,30MonoWAV/30MonoH3.wav,2,2,1,7,,,,,0,2,2,6,,,,,,,,,,,,,,,,,011,001,2019_May_09_0917,MusicAffectPsychophysiology2019,3.0.5,59.54154581568938,
To what extent did the music make you feel ,SCARED,30MonoWAV/30MonoS1.wav,1,1,3,9,,,,,0,3,3,8,0,0,0,11,,,3,3.9020192579992,3,1.2516473530013172,3,1.118105679997825,1,1.2856407549988944,,,011,001,2019_May_09_0917,MusicAffectPsychophysiology2019,3.0.5,59.54154581568938,
To what extent did the music make you feel ,HAPPY,30MonoWAV/30MonoS1.wav,1,1,3,9,,,,,0,3,3,8,0,1,1,6,,,,,,,,,2,1.9695696650014725,,,011,001,2019_May_09_0917,MusicAffectPsychophysiology2019,3.0.5,59.54154581568938,
To what extent did the music make you feel ,GUILTY,30MonoWAV/30MonoS1.wav,1,1,3,9,,,,,0,3,3,8,0,2,2,5,,,,,,,,,1,0.9507997830005479,,,011,001,2019_May_09_0917,MusicAffectPsychophysiology2019,3.0.5,59.54154581568938,
To what extent did the music make you feel ,FRUSTRATED,30MonoWAV/30MonoS1.wav,1,1,3,9,,,,,0,3,3,8,0,3,3,3,,,,,,,,,1,0.750242349000473,,,011,001,2019_May_09_0917,MusicAffectPsychophysiology2019,3.0.5,59.54154581568938,
To what extent did the music make you feel ,SAD,30MonoWAV/30MonoS1.wav,1,1,3,9,,,,,0,3,3,8,0,4,4,0,,,,,,,,,2,0.8349655869969865,,,011,001,2019_May_09_0917,MusicAffectPsychophysiology2019,3.0.5,59.54154581568938,
To what extent did the music make you feel ,TENDER,30MonoWAV/30MonoS1.wav,1,1,3,9,,,,,0,3,3,8,0,5,5,10,,,,,,,,,2,0.567909437999333,,,011,001,2019_May_09_0917,MusicAffectPsychophysiology2019,3.0.5,59.54154581568938,
To what extent did the music make you feel ,ANGRY,30MonoWAV/30MonoS1.wav,1,1,3,9,,,,,0,3,3,8,0,6,6,2,,,,,,,,,1,0.5514975279984355,,,011,001,2019_May_09_0917,MusicAffectPsychophysiology2019,3.0.5,59.54154581568938,
To what extent did the music make you feel ,ACTIVE,30MonoWAV/30MonoS1.wav,1,1,3,9,,,,,0,3,3,8,0,7,7,9,,,,,,,,,1,1.0688001700000314,,,011,001,2019_May_09_0917,MusicAffectPsychophysiology2019,3.0.5,59.54154581568938,
To what extent did the music make you feel ,ALERT,30MonoWAV/30MonoS1.wav,1,1,3,9,,,,,0,3,3,8,0,8,8,8,,,,,,,,,2,0.6680918679994647,,,011,001,2019_May_09_0917,MusicAffectPsychophysiology2019,3.0.5,59.54154581568938,
To what extent did the music make you feel ,ANXIOUS ,30MonoWAV/30MonoS1.wav,1,1,3,9,,,,,0,3,3,8,0,9,9,1,,,,,,,,,1,0.6189075959991897,,,011,001,2019_May_09_0917,MusicAffectPsychophysiology2019,3.0.5,59.54154581568938,
To what extent did the music make you feel ,EXCITED,30MonoWAV/30MonoS1.wav,1,1,3,9,,,,,0,3,3,8,0,10,10,7,,,,,,,,,1,1.301413812001556,,,011,001,2019_May_09_0917,MusicAffectPsychophysiology2019,3.0.5,59.54154581568938,
To what extent did the music make you feel ,ASHAMED,30MonoWAV/30MonoS1.wav,1,1,3,9,,,,,0,3,3,8,0,11,11,4,,,,,,,,,1,0.8512263250013348,,,011,001,2019_May_09_0917,MusicAffectPsychophysiology2019,3.0.5,59.54154581568938,
,,30MonoWAV/30MonoS1.wav,1,1,3,9,,,,,0,3,3,8,,,,,,,,,,,,,,,,,011,001,2019_May_09_0917,MusicAffectPsychophysiology2019,3.0.5,59.54154581568938,
To what extent did the music make you feel ,ASHAMED,30MonoWAV/30MonoT4.wav,2,1,4,16,,,,,0,4,4,15,0,0,0,4,,,2,2.320012273001339,2,2.2682517879984516,2,1.3012073840000085,1,1.0521705780010961,,,011,001,2019_May_09_0917,MusicAffectPsychophysiology2019,3.0.5,59.54154581568938,
To what extent did the music make you feel ,SAD,30MonoWAV/30MonoT4.wav,2,1,4,16,,,,,0,4,4,15,0,1,1,0,,,,,,,,,1,0.6013294240001414,,,011,001,2019_May_09_0917,MusicAffectPsychophysiology2019,3.0.5,59.54154581568938,
To what extent did the music make you feel ,EXCITED,30MonoWAV/30MonoT4.wav,2,1,4,16,,,,,0,4,4,15,0,2,2,7,,,,,,,,,2,1.2513501280009223,,,011,001,2019_May_09_0917,MusicAffectPsychophysiology2019,3.0.5,59.54154581568938,
To what extent did the music make you feel ,GUILTY,30MonoWAV/30MonoT4.wav,2,1,4,16,,,,,0,4,4,15,0,3,3,5,,,,,,,,,1,0.5850109479979437,,,011,001,2019_May_09_0917,MusicAffectPsychophysiology2019,3.0.5,59.54154581568938,
To what extent did the music make you feel ,FRUSTRATED,30MonoWAV/30MonoT4.wav,2,1,4,16,,,,,0,4,4,15,0,4,4,3,,,,,,,,,1,0.6851615129999118,,,011,001,2019_May_09_0917,MusicAffectPsychophysiology2019,3.0.5,59.54154581568938,
To what extent did the music make you feel ,SCARED,30MonoWAV/30MonoT4.wav,2,1,4,16,,,,,0,4,4,15,0,5,5,11,,,,,,,,,1,0.835360357999889,,,011,001,2019_May_09_0917,MusicAffectPsychophysiology2019,3.0.5,59.54154581568938,
To what extent did the music make you feel ,ACTIVE,30MonoWAV/30MonoT4.wav,2,1,4,16,,,,,0,4,4,15,0,6,6,9,,,,,,,,,1,0.7345121550024487,,,011,001,2019_May_09_0917,MusicAffectPsychophysiology2019,3.0.5,59.54154581568938,
To what extent did the music make you feel ,ANGRY,30MonoWAV/30MonoT4.wav,2,1,4,16,,,,,0,4,4,15,0,7,7,2,,,,,,,,,1,0.5010647199997038,,,011,001,2019_May_09_0917,MusicAffectPsychophysiology2019,3.0.5,59.54154581568938,
To what extent did the music make you feel ,ALERT,30MonoWAV/30MonoT4.wav,2,1,4,16,,,,,0,4,4,15,0,8,8,8,,,,,,,,,1,1.1503045999997994,,,011,001,2019_May_09_0917,MusicAffectPsychophysiology2019,3.0.5,59.54154581568938,
To what extent did the music make you feel ,HAPPY,30MonoWAV/30MonoT4.wav,2,1,4,16,,,,,0,4,4,15,0,9,9,6,,,,,,,,,2,0.9693477429973427,,,011,001,2019_May_09_0917,MusicAffectPsychophysiology2019,3.0.5,59.54154581568938,
To what extent did the music make you feel ,ANXIOUS ,30MonoWAV/30MonoT4.wav,2,1,4,16,,,,,0,4,4,15,0,10,10,1,,,,,,,,,1,0.5523428650012647,,,011,001,2019_May_09_0917,MusicAffectPsychophysiology2019,3.0.5,59.54154581568938,
To what extent did the music make you feel ,TENDER,30MonoWAV/30MonoT4.wav,2,1,4,16,,,,,0,4,4,15,0,11,11,10,,,,,,,,,2,0.6186624389993085,,,011,001,2019_May_09_0917,MusicAffectPsychophysiology2019,3.0.5,59.54154581568938,
,,30MonoWAV/30MonoT4.wav,2,1,4,16,,,,,0,4,4,15,,,,,,,,,,,,,,,,,011,001,2019_May_09_0917,MusicAffectPsychophysiology2019,3.0.5,59.54154581568938,
To what extent did the music make you feel ,ANGRY,30MonoWAV/30MonoF2.wav,1,2,2,2,,,,,0,5,5,1,0,0,0,2,,,3,3.101756349002244,2,2.168447019997984,2,1.5857281520002289,1,1.2677891860003,,,011,001,2019_May_09_0917,MusicAffectPsychophysiology2019,3.0.5,59.54154581568938,
To what extent did the music make you feel ,SAD,30MonoWAV/30MonoF2.wav,1,2,2,2,,,,,0,5,5,1,0,1,1,0,,,,,,,,,2,1.3350877540033252,,,011,001,2019_May_09_0917,MusicAffectPsychophysiology2019,3.0.5,59.54154581568938,
To what extent did the music make you feel ,HAPPY,30MonoWAV/30MonoF2.wav,1,2,2,2,,,,,0,5,5,1,0,2,2,6,,,,,,,,,1,0.6526363820012193,,,011,001,2019_May_09_0917,MusicAffectPsychophysiology2019,3.0.5,59.54154581568938,
To what extent did the music make you feel ,TENDER,30MonoWAV/30MonoF2.wav,1,2,2,2,,,,,0,5,5,1,0,3,3,10,,,,,,,,,2,0.8349996599972656,,,011,001,2019_May_09_0917,MusicAffectPsychophysiology2019,3.0.5,59.54154581568938,
To what extent did the music make you feel ,FRUSTRATED,30MonoWAV/30MonoF2.wav,1,2,2,2,,,,,0,5,5,1,0,4,4,3,,,,,,,,,1,1.0164214940014062,,,011,001,2019_May_09_0917,MusicAffectPsychophysiology2019,3.0.5,59.54154581568938,
To what extent did the music make you feel ,ALERT,30MonoWAV/30MonoF2.wav,1,2,2,2,,,,,0,5,5,1,0,5,5,8,,,,,,,,,4,2.2022951930011914,,,011,001,2019_May_09_0917,MusicAffectPsychophysiology2019,3.0.5,59.54154581568938,
To what extent did the music make you feel ,SCARED,30MonoWAV/30MonoF2.wav,1,2,2,2,,,,,0,5,5,1,0,6,6,11,,,,,,,,,1,2.0861593390000053,,,011,001,2019_May_09_0917,MusicAffectPsychophysiology2019,3.0.5,59.54154581568938,
To what extent did the music make you feel ,EXCITED,30MonoWAV/30MonoF2.wav,1,2,2,2,,,,,0,5,5,1,0,7,7,7,,,,,,,,,4,1.1177289660008682,,,011,001,2019_May_09_0917,MusicAffectPsychophysiology2019,3.0.5,59.54154581568938,
To what extent did the music make you feel ,ASHAMED,30MonoWAV/30MonoF2.wav,1,2,2,2,,,,,0,5,5,1,0,8,8,4,,,,,,,,,1,0.9178973919988493,,,011,001,2019_May_09_0917,MusicAffectPsychophysiology2019,3.0.5,59.54154581568938,
To what extent did the music make you feel ,ANXIOUS ,30MonoWAV/30MonoF2.wav,1,2,2,2,,,,,0,5,5,1,0,9,9,1,,,,,,,,,1,1.0186058300023433,,,011,001,2019_May_09_0917,MusicAffectPsychophysiology2019,3.0.5,59.54154581568938,
To what extent did the music make you feel ,ACTIVE,30MonoWAV/30MonoF2.wav,1,2,2,2,,,,,0,5,5,1,0,10,10,9,,,,,,,,,2,2.45143982800073,,,011,001,2019_May_09_0917,MusicAffectPsychophysiology2019,3.0.5,59.54154581568938,
To what extent did the music make you feel ,GUILTY,30MonoWAV/30MonoF2.wav,1,2,2,2,,,,,0,5,5,1,0,11,11,5,,,,,,,,,1,0.8190253309985565,,,011,001,2019_May_09_0917,MusicAffectPsychophysiology2019,3.0.5,59.54154581568938,
,,30MonoWAV/30MonoF2.wav,1,2,2,2,,,,,0,5,5,1,,,,,,,,,,,,,,,,,011,001,2019_May_09_0917,MusicAffectPsychophysiology2019,3.0.5,59.54154581568938,
To what extent did the music make you feel ,HAPPY,30MonoWAV/30MonoH4.wav,2,2,1,8,,,,,0,6,6,7,0,0,0,6,,,3,2.053758221998578,3,0.6026507870010391,3,1.0181820670004527,3,1.4534930140034703,,,011,001,2019_May_09_0917,MusicAffectPsychophysiology2019,3.0.5,59.54154581568938,
To what extent did the music make you feel ,ANGRY,30MonoWAV/30MonoH4.wav,2,2,1,8,,,,,0,6,6,7,0,1,1,2,,,,,,,,,1,1.1738405329997477,,,011,001,2019_May_09_0917,MusicAffectPsychophysiology2019,3.0.5,59.54154581568938,
To what extent did the music make you feel ,EXCITED,30MonoWAV/30MonoH4.wav,2,2,1,8,,,,,0,6,6,7,0,2,2,7,,,,,,,,,3,0.7347185660000832,,,011,001,2019_May_09_0917,MusicAffectPsychophysiology2019,3.0.5,59.54154581568938,
To what extent did the music make you feel ,FRUSTRATED,30MonoWAV/30MonoH4.wav,2,2,1,8,,,,,0,6,6,7,0,3,3,3,,,,,,,,,1,0.6684843849980098,,,011,001,2019_May_09_0917,MusicAffectPsychophysiology2019,3.0.5,59.54154581568938,
To what extent did the music make you feel ,ASHAMED,30MonoWAV/30MonoH4.wav,2,2,1,8,,,,,0,6,6,7,0,4,4,4,,,,,,,,,1,0.5841195419998257,,,011,001,2019_May_09_0917,MusicAffectPsychophysiology2019,3.0.5,59.54154581568938,
To what extent did the music make you feel ,TENDER,30MonoWAV/30MonoH4.wav,2,2,1,8,,,,,0,6,6,7,0,5,5,10,,,,,,,,,1,1.217358983001759,,,011,001,2019_May_09_0917,MusicAffectPsychophysiology2019,3.0.5,59.54154581568938,
To what extent did the music make you feel ,ANXIOUS ,30MonoWAV/30MonoH4.wav,2,2,1,8,,,,,0,6,6,7,0,6,6,1,,,,,,,,,1,0.5343880910004373,,,011,001,2019_May_09_0917,MusicAffectPsychophysiology2019,3.0.5,59.54154581568938,
To what extent did the music make you feel ,SAD,30MonoWAV/30MonoH4.wav,2,2,1,8,,,,,0,6,6,7,0,7,7,0,,,,,,,,,1,0.5683657709996623,,,011,001,2019_May_09_0917,MusicAffectPsychophysiology2019,3.0.5,59.54154581568938,
To what extent did the music make you feel ,SCARED,30MonoWAV/30MonoH4.wav,2,2,1,8,,,,,0,6,6,7,0,8,8,11,,,,,,,,,1,0.5188605889998144,,,011,001,2019_May_09_0917,MusicAffectPsychophysiology2019,3.0.5,59.54154581568938,
To what extent did the music make you feel ,ALERT,30MonoWAV/30MonoH4.wav,2,2,1,8,,,,,0,6,6,7,0,9,9,8,,,,,,,,,3,1.0348326660023304,,,011,001,2019_May_09_0917,MusicAffectPsychophysiology2019,3.0.5,59.54154581568938,
To what extent did the music make you feel ,ACTIVE,30MonoWAV/30MonoH4.wav,2,2,1,8,,,,,0,6,6,7,0,10,10,9,,,,,,,,,3,0.3516225699968345,,,011,001,2019_May_09_0917,MusicAffectPsychophysiology2019,3.0.5,59.54154581568938,
To what extent did the music make you feel ,GUILTY,30MonoWAV/30MonoH4.wav,2,2,1,8,,,,,0,6,6,7,0,11,11,5,,,,,,,,,1,0.7355271070009621,,,011,001,2019_May_09_0917,MusicAffectPsychophysiology2019,3.0.5,59.54154581568938,
,,30MonoWAV/30MonoH4.wav,2,2,1,8,,,,,0,6,6,7,,,,,,,,,,,,,,,,,011,001,2019_May_09_0917,MusicAffectPsychophysiology2019,3.0.5,59.54154581568938,
To what extent did the music make you feel ,GUILTY,30MonoWAV/30MonoT2.wav,2,1,4,14,,,,,0,7,7,13,0,0,0,5,,,2,2.351532942997437,3,1.2174751599995943,3,1.0690533420020074,1,1.184716968997236,,,011,001,2019_May_09_0917,MusicAffectPsychophysiology2019,3.0.5,59.54154581568938,
To what extent did the music make you feel ,HAPPY,30MonoWAV/30MonoT2.wav,2,1,4,14,,,,,0,7,7,13,0,1,1,6,,,,,,,,,2,0.6181390399979136,,,011,001,2019_May_09_0917,MusicAffectPsychophysiology2019,3.0.5,59.54154581568938,
To what extent did the music make you feel ,SCARED,30MonoWAV/30MonoT2.wav,2,1,4,14,,,,,0,7,7,13,0,2,2,11,,,,,,,,,1,0.7683322049997514,,,011,001,2019_May_09_0917,MusicAffectPsychophysiology2019,3.0.5,59.54154581568938,
To what extent did the music make you feel ,ALERT,30MonoWAV/30MonoT2.wav,2,1,4,14,,,,,0,7,7,13,0,3,3,8,,,,,,,,,1,1.0352504580005188,,,011,001,2019_May_09_0917,MusicAffectPsychophysiology2019,3.0.5,59.54154581568938,
To what extent did the music make you feel ,EXCITED,30MonoWAV/30MonoT2.wav,2,1,4,14,,,,,0,7,7,13,0,4,4,7,,,,,,,,,1,0.8013830780000717,,,011,001,2019_May_09_0917,MusicAffectPsychophysiology2019,3.0.5,59.54154581568938,
To what extent did the music make you feel ,SAD,30MonoWAV/30MonoT2.wav,2,1,4,14,,,,,0,7,7,13,0,5,5,0,,,,,,,,,2,1.0513868029993318,,,011,001,2019_May_09_0917,MusicAffectPsychophysiology2019,3.0.5,59.54154581568938,
To what extent did the music make you feel ,TENDER,30MonoWAV/30MonoT2.wav,2,1,4,14,,,,,0,7,7,13,0,6,6,10,,,,,,,,,2,0.46764837500086287,,,011,001,2019_May_09_0917,MusicAffectPsychophysiology2019,3.0.5,59.54154581568938,
To what extent did the music make you feel ,FRUSTRATED,30MonoWAV/30MonoT2.wav,2,1,4,14,,,,,0,7,7,13,0,7,7,3,,,,,,,,,1,0.568195679999917,,,011,001,2019_May_09_0917,MusicAffectPsychophysiology2019,3.0.5,59.54154581568938,
To what extent did the music make you feel ,ACTIVE,30MonoWAV/30MonoT2.wav,2,1,4,14,,,,,0,7,7,13,0,8,8,9,,,,,,,,,1,0.4176473219995387,,,011,001,2019_May_09_0917,MusicAffectPsychophysiology2019,3.0.5,59.54154581568938,
To what extent did the music make you feel ,ANGRY,30MonoWAV/30MonoT2.wav,2,1,4,14,,,,,0,7,7,13,0,9,9,2,,,,,,,,,1,0.48362068200003705,,,011,001,2019_May_09_0917,MusicAffectPsychophysiology2019,3.0.5,59.54154581568938,
To what extent did the music make you feel ,ANXIOUS ,30MonoWAV/30MonoT2.wav,2,1,4,14,,,,,0,7,7,13,0,10,10,1,,,,,,,,,1,0.7015527730000031,,,011,001,2019_May_09_0917,MusicAffectPsychophysiology2019,3.0.5,59.54154581568938,
To what extent did the music make you feel ,ASHAMED,30MonoWAV/30MonoT2.wav,2,1,4,14,,,,,0,7,7,13,0,11,11,4,,,,,,,,,1,0.4848752899997635,,,011,001,2019_May_09_0917,MusicAffectPsychophysiology2019,3.0.5,59.54154581568938,
,,30MonoWAV/30MonoT2.wav,2,1,4,14,,,,,0,7,7,13,,,,,,,,,,,,,,,,,011,001,2019_May_09_0917,MusicAffectPsychophysiology2019,3.0.5,59.54154581568938,
To what extent did the music make you feel ,ANGRY,30MonoWAV/30MonoS2.wav,1,1,3,10,,,,,0,8,8,9,0,0,0,2,,,3,2.1857713690005767,3,0.8507180560009147,3,0.8697676140000112,1,1.002076474000205,,,011,001,2019_May_09_0917,MusicAffectPsychophysiology2019,3.0.5,59.54154581568938,
To what extent did the music make you feel ,ANXIOUS ,30MonoWAV/30MonoS2.wav,1,1,3,10,,,,,0,8,8,9,0,1,1,1,,,,,,,,,1,0.5016321670009347,,,011,001,2019_May_09_0917,MusicAffectPsychophysiology2019,3.0.5,59.54154581568938,
To what extent did the music make you feel ,SAD,30MonoWAV/30MonoS2.wav,1,1,3,10,,,,,0,8,8,9,0,2,2,0,,,,,,,,,1,0.8847685030013963,,,011,001,2019_May_09_0917,MusicAffectPsychophysiology2019,3.0.5,59.54154581568938,
To what extent did the music make you feel ,ALERT,30MonoWAV/30MonoS2.wav,1,1,3,10,,,,,0,8,8,9,0,3,3,8,,,,,,,,,1,1.5843588419993466,,,011,001,2019_May_09_0917,MusicAffectPsychophysiology2019,3.0.5,59.54154581568938,
To what extent did the music make you feel ,TENDER,30MonoWAV/30MonoS2.wav,1,1,3,10,,,,,0,8,8,9,0,4,4,10,,,,,,,,,2,0.6181100539979525,,,011,001,2019_May_09_0917,MusicAffectPsychophysiology2019,3.0.5,59.54154581568938,
To what extent did the music make you feel ,HAPPY,30MonoWAV/30MonoS2.wav,1,1,3,10,,,,,0,8,8,9,0,5,5,6,,,,,,,,,1,1.1520448840019526,,,011,001,2019_May_09_0917,MusicAffectPsychophysiology2019,3.0.5,59.54154581568938,
To what extent did the music make you feel ,SCARED,30MonoWAV/30MonoS2.wav,1,1,3,10,,,,,0,8,8,9,0,6,6,11,,,,,,,,,1,0.6682464839977911,,,011,001,2019_May_09_0917,MusicAffectPsychophysiology2019,3.0.5,59.54154581568938,
To what extent did the music make you feel ,FRUSTRATED,30MonoWAV/30MonoS2.wav,1,1,3,10,,,,,0,8,8,9,0,7,7,3,,,,,,,,,1,0.601990012000897,,,011,001,2019_May_09_0917,MusicAffectPsychophysiology2019,3.0.5,59.54154581568938,
To what extent did the music make you feel ,GUILTY,30MonoWAV/30MonoS2.wav,1,1,3,10,,,,,0,8,8,9,0,8,8,5,,,,,,,,,1,0.451111848000437,,,011,001,2019_May_09_0917,MusicAffectPsychophysiology2019,3.0.5,59.54154581568938,
To what extent did the music make you feel ,ACTIVE,30MonoWAV/30MonoS2.wav,1,1,3,10,,,,,0,8,8,9,0,9,9,9,,,,,,,,,1,1.084744742998737,,,011,001,2019_May_09_0917,MusicAffectPsychophysiology2019,3.0.5,59.54154581568938,
To what extent did the music make you feel ,EXCITED,30MonoWAV/30MonoS2.wav,1,1,3,10,,,,,0,8,8,9,0,10,10,7,,,,,,,,,1,0.9010658899969712,,,011,001,2019_May_09_0917,MusicAffectPsychophysiology2019,3.0.5,59.54154581568938,
To what extent did the music make you feel ,ASHAMED,30MonoWAV/30MonoS2.wav,1,1,3,10,,,,,0,8,8,9,0,11,11,4,,,,,,,,,1,0.6030245460024162,,,011,001,2019_May_09_0917,MusicAffectPsychophysiology2019,3.0.5,59.54154581568938,
,,30MonoWAV/30MonoS2.wav,1,1,3,10,,,,,0,8,8,9,,,,,,,,,,,,,,,,,011,001,2019_May_09_0917,MusicAffectPsychophysiology2019,3.0.5,59.54154581568938,
To what extent did the music make you feel ,ACTIVE,30MonoWAV/30MonoS3.wav,1,1,3,11,,,,,0,9,9,10,0,0,0,9,,,3,2.7021145120015717,2,1.2517273929988733,2,1.0183427590018255,1,1.05162314199697,,,011,001,2019_May_09_0917,MusicAffectPsychophysiology2019,3.0.5,59.54154581568938,
To what extent did the music make you feel ,GUILTY,30MonoWAV/30MonoS3.wav,1,1,3,11,,,,,0,9,9,10,0,1,1,5,,,,,,,,,1,0.9681650839993381,,,011,001,2019_May_09_0917,MusicAffectPsychophysiology2019,3.0.5,59.54154581568938,
To what extent did the music make you feel ,SCARED,30MonoWAV/30MonoS3.wav,1,1,3,11,,,,,0,9,9,10,0,2,2,11,,,,,,,,,2,1.1178012789969216,,,011,001,2019_May_09_0917,MusicAffectPsychophysiology2019,3.0.5,59.54154581568938,
To what extent did the music make you feel ,ANGRY,30MonoWAV/30MonoS3.wav,1,1,3,11,,,,,0,9,9,10,0,3,3,2,,,,,,,,,1,0.8845257040011347,,,011,001,2019_May_09_0917,MusicAffectPsychophysiology2019,3.0.5,59.54154581568938,
To what extent did the music make you feel ,SAD,30MonoWAV/30MonoS3.wav,1,1,3,11,,,,,0,9,9,10,0,4,4,0,,,,,,,,,1,1.3327579379983945,,,011,001,2019_May_09_0917,MusicAffectPsychophysiology2019,3.0.5,59.54154581568938,
To what extent did the music make you feel ,ANXIOUS ,30MonoWAV/30MonoS3.wav,1,1,3,11,,,,,0,9,9,10,0,5,5,1,,,,,,,,,2,0.8193010620016139,,,011,001,2019_May_09_0917,MusicAffectPsychophysiology2019,3.0.5,59.54154581568938,
To what extent did the music make you feel ,TENDER,30MonoWAV/30MonoS3.wav,1,1,3,11,,,,,0,9,9,10,0,6,6,10,,,,,,,,,1,1.23425973600024,,,011,001,2019_May_09_0917,MusicAffectPsychophysiology2019,3.0.5,59.54154581568938,
To what extent did the music make you feel ,ASHAMED,30MonoWAV/30MonoS3.wav,1,1,3,11,,,,,0,9,9,10,0,7,7,4,,,,,,,,,1,0.7680567040006281,,,011,001,2019_May_09_0917,MusicAffectPsychophysiology2019,3.0.5,59.54154581568938,
To what extent did the music make you feel ,ALERT,30MonoWAV/30MonoS3.wav,1,1,3,11,,,,,0,9,9,10,0,8,8,8,,,,,,,,,3,1.3161270620003052,,,011,001,2019_May_09_0917,MusicAffectPsychophysiology2019,3.0.5,59.54154581568938,
To what extent did the music make you feel ,HAPPY,30MonoWAV/30MonoS3.wav,1,1,3,11,,,,,0,9,9,10,0,9,9,6,,,,,,,,,1,0.7182521939976141,,,011,001,2019_May_09_0917,MusicAffectPsychophysiology2019,3.0.5,59.54154581568938,
To what extent did the music make you feel ,EXCITED,30MonoWAV/30MonoS3.wav,1,1,3,11,,,,,0,9,9,10,0,10,10,7,,,,,,,,,1,1.2022174459998496,,,011,001,2019_May_09_0917,MusicAffectPsychophysiology2019,3.0.5,59.54154581568938,
To what extent did the music make you feel ,FRUSTRATED,30MonoWAV/30MonoS3.wav,1,1,3,11,,,,,0,9,9,10,0,11,11,3,,,,,,,,,1,0.9346972659986932,,,011,001,2019_May_09_0917,MusicAffectPsychophysiology2019,3.0.5,59.54154581568938,
,,30MonoWAV/30MonoS3.wav,1,1,3,11,,,,,0,9,9,10,,,,,,,,,,,,,,,,,011,001,2019_May_09_0917,MusicAffectPsychophysiology2019,3.0.5,59.54154581568938,
To what extent did the music make you feel ,ANXIOUS ,30MonoWAV/30MonoH1.wav,2,2,1,5,,,,,0,10,10,4,0,0,0,1,,,4,1.9505093769985251,4,0.6192922730006103,3,0.9858317500002158,1,1.2018179180013249,,,011,001,2019_May_09_0917,MusicAffectPsychophysiology2019,3.0.5,59.54154581568938,
To what extent did the music make you feel ,ANGRY,30MonoWAV/30MonoH1.wav,2,2,1,5,,,,,0,10,10,4,0,1,1,2,,,,,,,,,1,0.5688752899986866,,,011,001,2019_May_09_0917,MusicAffectPsychophysiology2019,3.0.5,59.54154581568938,
To what extent did the music make you feel ,SAD,30MonoWAV/30MonoH1.wav,2,2,1,5,,,,,0,10,10,4,0,2,2,0,,,,,,,,,1,0.686869460001617,,,011,001,2019_May_09_0917,MusicAffectPsychophysiology2019,3.0.5,59.54154581568938,
To what extent did the music make you feel ,EXCITED,30MonoWAV/30MonoH1.wav,2,2,1,5,,,,,0,10,10,4,0,3,3,7,,,,,,,,,3,1.0361555960007536,,,011,001,2019_May_09_0917,MusicAffectPsychophysiology2019,3.0.5,59.54154581568938,
To what extent did the music make you feel ,FRUSTRATED,30MonoWAV/30MonoH1.wav,2,2,1,5,,,,,0,10,10,4,0,4,4,3,,,,,,,,,1,0.5691533259996504,,,011,001,2019_May_09_0917,MusicAffectPsychophysiology2019,3.0.5,59.54154581568938,
To what extent did the music make you feel ,HAPPY,30MonoWAV/30MonoH1.wav,2,2,1,5,,,,,0,10,10,4,0,5,5,6,,,,,,,,,3,0.5693817520004814,,,011,001,2019_May_09_0917,MusicAffectPsychophysiology2019,3.0.5,59.54154581568938,
To what extent did the music make you feel ,ACTIVE,30MonoWAV/30MonoH1.wav,2,2,1,5,,,,,0,10,10,4,0,6,6,9,,,,,,,,,3,0.7860950989997946,,,011,001,2019_May_09_0917,MusicAffectPsychophysiology2019,3.0.5,59.54154581568938,
To what extent did the music make you feel ,ASHAMED,30MonoWAV/30MonoH1.wav,2,2,1,5,,,,,0,10,10,4,0,7,7,4,,,,,,,,,1,0.5689936839989969,,,011,001,2019_May_09_0917,MusicAffectPsychophysiology2019,3.0.5,59.54154581568938,
To what extent did the music make you feel ,ALERT,30MonoWAV/30MonoH1.wav,2,2,1,5,,,,,0,10,10,4,0,8,8,8,,,,,,,,,2,2.138461460999679,,,011,001,2019_May_09_0917,MusicAffectPsychophysiology2019,3.0.5,59.54154581568938,
To what extent did the music make you feel ,TENDER,30MonoWAV/30MonoH1.wav,2,2,1,5,,,,,0,10,10,4,0,9,9,10,,,,,,,,,2,0.7364700550024281,,,011,001,2019_May_09_0917,MusicAffectPsychophysiology2019,3.0.5,59.54154581568938,
To what extent did the music make you feel ,SCARED,30MonoWAV/30MonoH1.wav,2,2,1,5,,,,,0,10,10,4,0,10,10,11,,,,,,,,,1,0.6678706890015746,,,011,001,2019_May_09_0917,MusicAffectPsychophysiology2019,3.0.5,59.54154581568938,
To what extent did the music make you feel ,GUILTY,30MonoWAV/30MonoH1.wav,2,2,1,5,,,,,0,10,10,4,0,11,11,5,,,,,,,,,1,0.5223684489974403,,,011,001,2019_May_09_0917,MusicAffectPsychophysiology2019,3.0.5,59.54154581568938,
,,30MonoWAV/30MonoH1.wav,2,2,1,5,,,,,0,10,10,4,,,,,,,,,,,,,,,,,011,001,2019_May_09_0917,MusicAffectPsychophysiology2019,3.0.5,59.54154581568938,
To what extent did the music make you feel ,ANXIOUS ,30MonoWAV/30MonoF1.wav,1,2,2,1,,,,,0,11,11,0,0,0,0,1,,,4,2.0190631929981464,3,1.8340617419999035,2,0.9348584250001295,1,1.6165818779991241,,,011,001,2019_May_09_0917,MusicAffectPsychophysiology2019,3.0.5,59.54154581568938,
To what extent did the music make you feel ,TENDER,30MonoWAV/30MonoF1.wav,1,2,2,1,,,,,0,11,11,0,0,1,1,10,,,,,,,,,1,0.6176213299986557,,,011,001,2019_May_09_0917,MusicAffectPsychophysiology2019,3.0.5,59.54154581568938,
To what extent did the music make you feel ,GUILTY,30MonoWAV/30MonoF1.wav,1,2,2,1,,,,,0,11,11,0,0,2,2,5,,,,,,,,,1,0.6341890879994025,,,011,001,2019_May_09_0917,MusicAffectPsychophysiology2019,3.0.5,59.54154581568938,
To what extent did the music make you feel ,SCARED,30MonoWAV/30MonoF1.wav,1,2,2,1,,,,,0,11,11,0,0,3,3,11,,,,,,,,,1,0.7513093640009174,,,011,001,2019_May_09_0917,MusicAffectPsychophysiology2019,3.0.5,59.54154581568938,
To what extent did the music make you feel ,ASHAMED,30MonoWAV/30MonoF1.wav,1,2,2,1,,,,,0,11,11,0,0,4,4,4,,,,,,,,,1,0.7501093549981306,,,011,001,2019_May_09_0917,MusicAffectPsychophysiology2019,3.0.5,59.54154581568938,
To what extent did the music make you feel ,ANGRY,30MonoWAV/30MonoF1.wav,1,2,2,1,,,,,0,11,11,0,0,5,5,2,,,,,,,,,1,0.7509825070010265,,,011,001,2019_May_09_0917,MusicAffectPsychophysiology2019,3.0.5,59.54154581568938,
To what extent did the music make you feel ,FRUSTRATED,30MonoWAV/30MonoF1.wav,1,2,2,1,,,,,0,11,11,0,0,6,6,3,,,,,,,,,1,0.6681746689973806,,,011,001,2019_May_09_0917,MusicAffectPsychophysiology2019,3.0.5,59.54154581568938,
To what extent did the music make you feel ,ALERT,30MonoWAV/30MonoF1.wav,1,2,2,1,,,,,0,11,11,0,0,7,7,8,,,,,,,,,4,1.4508657650003443,,,011,001,2019_May_09_0917,MusicAffectPsychophysiology2019,3.0.5,59.54154581568938,
To what extent did the music make you feel ,ACTIVE,30MonoWAV/30MonoF1.wav,1,2,2,1,,,,,0,11,11,0,0,8,8,9,,,,,,,,,4,0.9025276640022639,,,011,001,2019_May_09_0917,MusicAffectPsychophysiology2019,3.0.5,59.54154581568938,
To what extent did the music make you feel ,EXCITED,30MonoWAV/30MonoF1.wav,1,2,2,1,,,,,0,11,11,0,0,9,9,7,,,,,,,,,1,0.7853103800007375,,,011,001,2019_May_09_0917,MusicAffectPsychophysiology2019,3.0.5,59.54154581568938,
To what extent did the music make you feel ,HAPPY,30MonoWAV/30MonoF1.wav,1,2,2,1,,,,,0,11,11,0,0,10,10,6,,,,,,,,,2,1.4051545889997215,,,011,001,2019_May_09_0917,MusicAffectPsychophysiology2019,3.0.5,59.54154581568938,
To what extent did the music make you feel ,SAD,30MonoWAV/30MonoF1.wav,1,2,2,1,,,,,0,11,11,0,0,11,11,0,,,,,,,,,2,1.102897242999461,,,011,001,2019_May_09_0917,MusicAffectPsychophysiology2019,3.0.5,59.54154581568938,
,,30MonoWAV/30MonoF1.wav,1,2,2,1,,,,,0,11,11,0,,,,,,,,,,,,,,,,,011,001,2019_May_09_0917,MusicAffectPsychophysiology2019,3.0.5,59.54154581568938,
To what extent did the music make you feel ,TENDER,30MonoWAV/30MonoS4.wav,1,1,3,12,,,,,0,12,12,11,0,0,0,10,,,3,1.9203785649988276,3,1.8065770539978985,4,0.8691729719976138,3,1.6348510990028444,,,011,001,2019_May_09_0917,MusicAffectPsychophysiology2019,3.0.5,59.54154581568938,
To what extent did the music make you feel ,ASHAMED,30MonoWAV/30MonoS4.wav,1,1,3,12,,,,,0,12,12,11,0,1,1,4,,,,,,,,,1,0.6516219579971221,,,011,001,2019_May_09_0917,MusicAffectPsychophysiology2019,3.0.5,59.54154581568938,
To what extent did the music make you feel ,EXCITED,30MonoWAV/30MonoS4.wav,1,1,3,12,,,,,0,12,12,11,0,2,2,7,,,,,,,,,1,1.2355715929988946,,,011,001,2019_May_09_0917,MusicAffectPsychophysiology2019,3.0.5,59.54154581568938,
To what extent did the music make you feel ,GUILTY,30MonoWAV/30MonoS4.wav,1,1,3,12,,,,,0,12,12,11,0,3,3,5,,,,,,,,,1,0.6021732199988037,,,011,001,2019_May_09_0917,MusicAffectPsychophysiology2019,3.0.5,59.54154581568938,
To what extent did the music make you feel ,HAPPY,30MonoWAV/30MonoS4.wav,1,1,3,12,,,,,0,12,12,11,0,4,4,6,,,,,,,,,3,0.9517056920012692,,,011,001,2019_May_09_0917,MusicAffectPsychophysiology2019,3.0.5,59.54154581568938,
To what extent did the music make you feel ,ANGRY,30MonoWAV/30MonoS4.wav,1,1,3,12,,,,,0,12,12,11,0,5,5,2,,,,,,,,,1,0.9186805980025383,,,011,001,2019_May_09_0917,MusicAffectPsychophysiology2019,3.0.5,59.54154581568938,
To what extent did the music make you feel ,ANXIOUS ,30MonoWAV/30MonoS4.wav,1,1,3,12,,,,,0,12,12,11,0,6,6,1,,,,,,,,,1,0.784510704997956,,,011,001,2019_May_09_0917,MusicAffectPsychophysiology2019,3.0.5,59.54154581568938,
To what extent did the music make you feel ,SCARED,30MonoWAV/30MonoS4.wav,1,1,3,12,,,,,0,12,12,11,0,7,7,11,,,,,,,,,1,0.7675290820006921,,,011,001,2019_May_09_0917,MusicAffectPsychophysiology2019,3.0.5,59.54154581568938,
To what extent did the music make you feel ,FRUSTRATED,30MonoWAV/30MonoS4.wav,1,1,3,12,,,,,0,12,12,11,0,8,8,3,,,,,,,,,1,0.6518011719999777,,,011,001,2019_May_09_0917,MusicAffectPsychophysiology2019,3.0.5,59.54154581568938,
To what extent did the music make you feel ,ALERT,30MonoWAV/30MonoS4.wav,1,1,3,12,,,,,0,12,12,11,0,9,9,8,,,,,,,,,3,1.1185525500004587,,,011,001,2019_May_09_0917,MusicAffectPsychophysiology2019,3.0.5,59.54154581568938,
To what extent did the music make you feel ,SAD,30MonoWAV/30MonoS4.wav,1,1,3,12,,,,,0,12,12,11,0,10,10,0,,,,,,,,,1,0.7525789890023589,,,011,001,2019_May_09_0917,MusicAffectPsychophysiology2019,3.0.5,59.54154581568938,
To what extent did the music make you feel ,ACTIVE,30MonoWAV/30MonoS4.wav,1,1,3,12,,,,,0,12,12,11,0,11,11,9,,,,,,,,,1,1.2176554899997427,,,011,001,2019_May_09_0917,MusicAffectPsychophysiology2019,3.0.5,59.54154581568938,
,,30MonoWAV/30MonoS4.wav,1,1,3,12,,,,,0,12,12,11,,,,,,,,,,,,,,,,,011,001,2019_May_09_0917,MusicAffectPsychophysiology2019,3.0.5,59.54154581568938,
To what extent did the music make you feel ,ASHAMED,30MonoWAV/30MonoF4.wav,1,2,2,4,,,,,0,13,13,3,0,0,0,4,,,4,1.985318068000197,3,1.218413127000531,3,1.0351226830025553,1,1.2515576660007355,,,011,001,2019_May_09_0917,MusicAffectPsychophysiology2019,3.0.5,59.54154581568938,
To what extent did the music make you feel ,ALERT,30MonoWAV/30MonoF4.wav,1,2,2,4,,,,,0,13,13,3,0,1,1,8,,,,,,,,,4,1.3014750500005903,,,011,001,2019_May_09_0917,MusicAffectPsychophysiology2019,3.0.5,59.54154581568938,
To what extent did the music make you feel ,ACTIVE,30MonoWAV/30MonoF4.wav,1,2,2,4,,,,,0,13,13,3,0,2,2,9,,,,,,,,,4,0.7683552430025884,,,011,001,2019_May_09_0917,MusicAffectPsychophysiology2019,3.0.5,59.54154581568938,
To what extent did the music make you feel ,SAD,30MonoWAV/30MonoF4.wav,1,2,2,4,,,,,0,13,13,3,0,3,3,0,,,,,,,,,2,1.401615184997354,,,011,001,2019_May_09_0917,MusicAffectPsychophysiology2019,3.0.5,59.54154581568938,
To what extent did the music make you feel ,ANGRY,30MonoWAV/30MonoF4.wav,1,2,2,4,,,,,0,13,13,3,0,4,4,2,,,,,,,,,1,0.8351209059983375,,,011,001,2019_May_09_0917,MusicAffectPsychophysiology2019,3.0.5,59.54154581568938,
To what extent did the music make you feel ,ANXIOUS ,30MonoWAV/30MonoF4.wav,1,2,2,4,,,,,0,13,13,3,0,5,5,1,,,,,,,,,1,0.6500736669986509,,,011,001,2019_May_09_0917,MusicAffectPsychophysiology2019,3.0.5,59.54154581568938,
To what extent did the music make you feel ,TENDER,30MonoWAV/30MonoF4.wav,1,2,2,4,,,,,0,13,13,3,0,6,6,10,,,,,,,,,1,0.901276226999471,,,011,001,2019_May_09_0917,MusicAffectPsychophysiology2019,3.0.5,59.54154581568938,
To what extent did the music make you feel ,EXCITED,30MonoWAV/30MonoF4.wav,1,2,2,4,,,,,0,13,13,3,0,7,7,7,,,,,,,,,4,1.2844699609995587,,,011,001,2019_May_09_0917,MusicAffectPsychophysiology2019,3.0.5,59.54154581568938,
To what extent did the music make you feel ,FRUSTRATED,30MonoWAV/30MonoF4.wav,1,2,2,4,,,,,0,13,13,3,0,8,8,3,,,,,,,,,1,0.919979828002397,,,011,001,2019_May_09_0917,MusicAffectPsychophysiology2019,3.0.5,59.54154581568938,
To what extent did the music make you feel ,SCARED,30MonoWAV/30MonoF4.wav,1,2,2,4,,,,,0,13,13,3,0,9,9,11,,,,,,,,,1,0.985381893999147,,,011,001,2019_May_09_0917,MusicAffectPsychophysiology2019,3.0.5,59.54154581568938,
To what extent did the music make you feel ,GUILTY,30MonoWAV/30MonoF4.wav,1,2,2,4,,,,,0,13,13,3,0,10,10,5,,,,,,,,,1,1.0026533109994489,,,011,001,2019_May_09_0917,MusicAffectPsychophysiology2019,3.0.5,59.54154581568938,
To what extent did the music make you feel ,HAPPY,30MonoWAV/30MonoF4.wav,1,2,2,4,,,,,0,13,13,3,0,11,11,6,,,,,,,,,1,0.6857297200003813,,,011,001,2019_May_09_0917,MusicAffectPsychophysiology2019,3.0.5,59.54154581568938,
,,30MonoWAV/30MonoF4.wav,1,2,2,4,,,,,0,13,13,3,,,,,,,,,,,,,,,,,011,001,2019_May_09_0917,MusicAffectPsychophysiology2019,3.0.5,59.54154581568938,
To what extent did the music make you feel ,ANXIOUS ,30MonoWAV/30MonoT1.wav,2,1,4,13,,,,,0,14,14,12,0,0,0,1,,,2,3.3593495709974377,3,1.034208116998343,3,0.8504745309983264,1,0.719703942999331,,,011,001,2019_May_09_0917,MusicAffectPsychophysiology2019,3.0.5,59.54154581568938,
To what extent did the music make you feel ,ASHAMED,30MonoWAV/30MonoT1.wav,2,1,4,13,,,,,0,14,14,12,0,1,1,4,,,,,,,,,1,0.8524252249990241,,,011,001,2019_May_09_0917,MusicAffectPsychophysiology2019,3.0.5,59.54154581568938,
To what extent did the music make you feel ,ALERT,30MonoWAV/30MonoT1.wav,2,1,4,13,,,,,0,14,14,12,0,2,2,8,,,,,,,,,2,1.0352654919988709,,,011,001,2019_May_09_0917,MusicAffectPsychophysiology2019,3.0.5,59.54154581568938,
To what extent did the music make you feel ,EXCITED,30MonoWAV/30MonoT1.wav,2,1,4,13,,,,,0,14,14,12,0,3,3,7,,,,,,,,,1,0.9002833319973433,,,011,001,2019_May_09_0917,MusicAffectPsychophysiology2019,3.0.5,59.54154581568938,
To what extent did the music make you feel ,GUILTY,30MonoWAV/30MonoT1.wav,2,1,4,13,,,,,0,14,14,12,0,4,4,5,,,,,,,,,1,0.7833909129985841,,,011,001,2019_May_09_0917,MusicAffectPsychophysiology2019,3.0.5,59.54154581568938,
To what extent did the music make you feel ,HAPPY,30MonoWAV/30MonoT1.wav,2,1,4,13,,,,,0,14,14,12,0,5,5,6,,,,,,,,,2,0.9017308699985733,,,011,001,2019_May_09_0917,MusicAffectPsychophysiology2019,3.0.5,59.54154581568938,
To what extent did the music make you feel ,ANGRY,30MonoWAV/30MonoT1.wav,2,1,4,13,,,,,0,14,14,12,0,6,6,2,,,,,,,,,1,1.0686165410006652,,,011,001,2019_May_09_0917,MusicAffectPsychophysiology2019,3.0.5,59.54154581568938,
To what extent did the music make you feel ,SAD,30MonoWAV/30MonoT1.wav,2,1,4,13,,,,,0,14,14,12,0,7,7,0,,,,,,,,,2,0.616968217997055,,,011,001,2019_May_09_0917,MusicAffectPsychophysiology2019,3.0.5,59.54154581568938,
To what extent did the music make you feel ,TENDER,30MonoWAV/30MonoT1.wav,2,1,4,13,,,,,0,14,14,12,0,8,8,10,,,,,,,,,2,0.5016573760003666,,,011,001,2019_May_09_0917,MusicAffectPsychophysiology2019,3.0.5,59.54154581568938,
To what extent did the music make you feel ,FRUSTRATED,30MonoWAV/30MonoT1.wav,2,1,4,13,,,,,0,14,14,12,0,9,9,3,,,,,,,,,1,0.6498827889990935,,,011,001,2019_May_09_0917,MusicAffectPsychophysiology2019,3.0.5,59.54154581568938,
To what extent did the music make you feel ,ACTIVE,30MonoWAV/30MonoT1.wav,2,1,4,13,,,,,0,14,14,12,0,10,10,9,,,,,,,,,1,1.052093368001806,,,011,001,2019_May_09_0917,MusicAffectPsychophysiology2019,3.0.5,59.54154581568938,
To what extent did the music make you feel ,SCARED,30MonoWAV/30MonoT1.wav,2,1,4,13,,,,,0,14,14,12,0,11,11,11,,,,,,,,,1,1.067832411998097,,,011,001,2019_May_09_0917,MusicAffectPsychophysiology2019,3.0.5,59.54154581568938,
,,30MonoWAV/30MonoT1.wav,2,1,4,13,,,,,0,14,14,12,,,,,,,,,,,,,,,,,011,001,2019_May_09_0917,MusicAffectPsychophysiology2019,3.0.5,59.54154581568938,
To what extent did the music make you feel ,SAD,30MonoWAV/30MonoF3.wav,1,2,2,3,,,,,0,15,15,2,0,0,0,0,,,4,2.1854600080005184,3,0.7183733300007589,3,0.9184650460010744,1,1.213688875999651,,,011,001,2019_May_09_0917,MusicAffectPsychophysiology2019,3.0.5,59.54154581568938,
To what extent did the music make you feel ,SCARED,30MonoWAV/30MonoF3.wav,1,2,2,3,,,,,0,15,15,2,0,1,1,11,,,,,,,,,1,0.6843479390008724,,,011,001,2019_May_09_0917,MusicAffectPsychophysiology2019,3.0.5,59.54154581568938,
To what extent did the music make you feel ,ASHAMED,30MonoWAV/30MonoF3.wav,1,2,2,3,,,,,0,15,15,2,0,2,2,4,,,,,,,,,1,0.5857616840003175,,,011,001,2019_May_09_0917,MusicAffectPsychophysiology2019,3.0.5,59.54154581568938,
To what extent did the music make you feel ,HAPPY,30MonoWAV/30MonoF3.wav,1,2,2,3,,,,,0,15,15,2,0,3,3,6,,,,,,,,,1,2.185500517000037,,,011,001,2019_May_09_0917,MusicAffectPsychophysiology2019,3.0.5,59.54154581568938,
To what extent did the music make you feel ,FRUSTRATED,30MonoWAV/30MonoF3.wav,1,2,2,3,,,,,0,15,15,2,0,4,4,3,,,,,,,,,1,0.7353327889977663,,,011,001,2019_May_09_0917,MusicAffectPsychophysiology2019,3.0.5,59.54154581568938,
To what extent did the music make you feel ,GUILTY,30MonoWAV/30MonoF3.wav,1,2,2,3,,,,,0,15,15,2,0,5,5,5,,,,,,,,,1,0.6183946700002707,,,011,001,2019_May_09_0917,MusicAffectPsychophysiology2019,3.0.5,59.54154581568938,
To what extent did the music make you feel ,ANXIOUS ,30MonoWAV/30MonoF3.wav,1,2,2,3,,,,,0,15,15,2,0,6,6,1,,,,,,,,,1,0.7026727170014055,,,011,001,2019_May_09_0917,MusicAffectPsychophysiology2019,3.0.5,59.54154581568938,
To what extent did the music make you feel ,ALERT,30MonoWAV/30MonoF3.wav,1,2,2,3,,,,,0,15,15,2,0,7,7,8,,,,,,,,,4,1.1350709709986404,,,011,001,2019_May_09_0917,MusicAffectPsychophysiology2019,3.0.5,59.54154581568938,
To what extent did the music make you feel ,ACTIVE,30MonoWAV/30MonoF3.wav,1,2,2,3,,,,,0,15,15,2,0,8,8,9,,,,,,,,,4,0.6510494610010937,,,011,001,2019_May_09_0917,MusicAffectPsychophysiology2019,3.0.5,59.54154581568938,
To what extent did the music make you feel ,EXCITED,30MonoWAV/30MonoF3.wav,1,2,2,3,,,,,0,15,15,2,0,9,9,7,,,,,,,,,4,0.5850086390018987,,,011,001,2019_May_09_0917,MusicAffectPsychophysiology2019,3.0.5,59.54154581568938,
To what extent did the music make you feel ,TENDER,30MonoWAV/30MonoF3.wav,1,2,2,3,,,,,0,15,15,2,0,10,10,10,,,,,,,,,1,0.8363696880005591,,,011,001,2019_May_09_0917,MusicAffectPsychophysiology2019,3.0.5,59.54154581568938,
To what extent did the music make you feel ,ANGRY,30MonoWAV/30MonoF3.wav,1,2,2,3,,,,,0,15,15,2,0,11,11,2,,,,,,,,,1,0.6682108619970677,,,011,001,2019_May_09_0917,MusicAffectPsychophysiology2019,3.0.5,59.54154581568938,
,,30MonoWAV/30MonoF3.wav,1,2,2,3,,,,,0,15,15,2,,,,,,,,,,,,,,,,,011,001,2019_May_09_0917,MusicAffectPsychophysiology2019,3.0.5,59.54154581568938,
To what extent did the music make you feel ,SCARED,30MonoWAV/30MonoF3.wav,1,2,2,3,,,,,1,0,16,2,0,0,0,11,,,4,2.354412892997061,3,0.9863605609971273,3,0.8359617120004259,1,1.0536265900009312,,,011,001,2019_May_09_0917,MusicAffectPsychophysiology2019,3.0.5,59.54154581568938,
To what extent did the music make you feel ,ANGRY,30MonoWAV/30MonoF3.wav,1,2,2,3,,,,,1,0,16,2,0,1,1,2,,,,,,,,,1,0.6560744710004656,,,011,001,2019_May_09_0917,MusicAffectPsychophysiology2019,3.0.5,59.54154581568938,
To what extent did the music make you feel ,GUILTY,30MonoWAV/30MonoF3.wav,1,2,2,3,,,,,1,0,16,2,0,2,2,5,,,,,,,,,1,0.5683865329992841,,,011,001,2019_May_09_0917,MusicAffectPsychophysiology2019,3.0.5,59.54154581568938,
To what extent did the music make you feel ,ANXIOUS ,30MonoWAV/30MonoF3.wav,1,2,2,3,,,,,1,0,16,2,0,3,3,1,,,,,,,,,1,0.7195170149971091,,,011,001,2019_May_09_0917,MusicAffectPsychophysiology2019,3.0.5,59.54154581568938,
To what extent did the music make you feel ,HAPPY,30MonoWAV/30MonoF3.wav,1,2,2,3,,,,,1,0,16,2,0,4,4,6,,,,,,,,,1,0.7020245870007784,,,011,001,2019_May_09_0917,MusicAffectPsychophysiology2019,3.0.5,59.54154581568938,
To what extent did the music make you feel ,ACTIVE,30MonoWAV/30MonoF3.wav,1,2,2,3,,,,,1,0,16,2,0,5,5,9,,,,,,,,,4,1.0026693339968915,,,011,001,2019_May_09_0917,MusicAffectPsychophysiology2019,3.0.5,59.54154581568938,
To what extent did the music make you feel ,TENDER,30MonoWAV/30MonoF3.wav,1,2,2,3,,,,,1,0,16,2,0,6,6,10,,,,,,,,,1,0.8185035920032533,,,011,001,2019_May_09_0917,MusicAffectPsychophysiology2019,3.0.5,59.54154581568938,
To what extent did the music make you feel ,EXCITED,30MonoWAV/30MonoF3.wav,1,2,2,3,,,,,1,0,16,2,0,7,7,7,,,,,,,,,4,0.5183498580008745,,,011,001,2019_May_09_0917,MusicAffectPsychophysiology2019,3.0.5,59.54154581568938,
To what extent did the music make you feel ,ASHAMED,30MonoWAV/30MonoF3.wav,1,2,2,3,,,,,1,0,16,2,0,8,8,4,,,,,,,,,1,0.5348916850016394,,,011,001,2019_May_09_0917,MusicAffectPsychophysiology2019,3.0.5,59.54154581568938,
To what extent did the music make you feel ,SAD,30MonoWAV/30MonoF3.wav,1,2,2,3,,,,,1,0,16,2,0,9,9,0,,,,,,,,,1,0.8028967320024094,,,011,001,2019_May_09_0917,MusicAffectPsychophysiology2019,3.0.5,59.54154581568938,
To what extent did the music make you feel ,ALERT,30MonoWAV/30MonoF3.wav,1,2,2,3,,,,,1,0,16,2,0,10,10,8,,,,,,,,,4,0.6394457509995846,,,011,001,2019_May_09_0917,MusicAffectPsychophysiology2019,3.0.5,59.54154581568938,
To what extent did the music make you feel ,FRUSTRATED,30MonoWAV/30MonoF3.wav,1,2,2,3,,,,,1,0,16,2,0,11,11,3,,,,,,,,,1,0.5357982339992304,,,011,001,2019_May_09_0917,MusicAffectPsychophysiology2019,3.0.5,59.54154581568938,
,,30MonoWAV/30MonoF3.wav,1,2,2,3,,,,,1,0,16,2,,,,,,,,,,,,,,,,,011,001,2019_May_09_0917,MusicAffectPsychophysiology2019,3.0.5,59.54154581568938,
To what extent did the music make you feel ,EXCITED,30MonoWAV/30MonoT2.wav,2,1,4,14,,,,,1,1,17,13,0,0,0,7,,,4,2.0026505979985814,3,0.8171820620009385,3,1.0017925510001078,3,1.4179845550024766,,,011,001,2019_May_09_0917,MusicAffectPsychophysiology2019,3.0.5,59.54154581568938,
To what extent did the music make you feel ,SCARED,30MonoWAV/30MonoT2.wav,2,1,4,14,,,,,1,1,17,13,0,1,1,11,,,,,,,,,1,0.6517590780022147,,,011,001,2019_May_09_0917,MusicAffectPsychophysiology2019,3.0.5,59.54154581568938,
To what extent did the music make you feel ,ACTIVE,30MonoWAV/30MonoT2.wav,2,1,4,14,,,,,1,1,17,13,0,2,2,9,,,,,,,,,1,1.0353885639997316,,,011,001,2019_May_09_0917,MusicAffectPsychophysiology2019,3.0.5,59.54154581568938,
To what extent did the music make you feel ,ANXIOUS ,30MonoWAV/30MonoT2.wav,2,1,4,14,,,,,1,1,17,13,0,3,3,1,,,,,,,,,1,0.6019986960018286,,,011,001,2019_May_09_0917,MusicAffectPsychophysiology2019,3.0.5,59.54154581568938,
To what extent did the music make you feel ,ALERT,30MonoWAV/30MonoT2.wav,2,1,4,14,,,,,1,1,17,13,0,4,4,8,,,,,,,,,3,0.9358074010015116,,,011,001,2019_May_09_0917,MusicAffectPsychophysiology2019,3.0.5,59.54154581568938,
To what extent did the music make you feel ,HAPPY,30MonoWAV/30MonoT2.wav,2,1,4,14,,,,,1,1,17,13,0,5,5,6,,,,,,,,,3,0.5685877179967065,,,011,001,2019_May_09_0917,MusicAffectPsychophysiology2019,3.0.5,59.54154581568938,
To what extent did the music make you feel ,GUILTY,30MonoWAV/30MonoT2.wav,2,1,4,14,,,,,1,1,17,13,0,6,6,5,,,,,,,,,1,0.6009875039999315,,,011,001,2019_May_09_0917,MusicAffectPsychophysiology2019,3.0.5,59.54154581568938,
To what extent did the music make you feel ,ASHAMED,30MonoWAV/30MonoT2.wav,2,1,4,14,,,,,1,1,17,13,0,7,7,4,,,,,,,,,1,0.6512596969987499,,,011,001,2019_May_09_0917,MusicAffectPsychophysiology2019,3.0.5,59.54154581568938,
To what extent did the music make you feel ,TENDER,30MonoWAV/30MonoT2.wav,2,1,4,14,,,,,1,1,17,13,0,8,8,10,,,,,,,,,3,0.999370175999502,,,011,001,2019_May_09_0917,MusicAffectPsychophysiology2019,3.0.5,59.54154581568938,
To what extent did the music make you feel ,SAD,30MonoWAV/30MonoT2.wav,2,1,4,14,,,,,1,1,17,13,0,9,9,0,,,,,,,,,1,0.617981591996795,,,011,001,2019_May_09_0917,MusicAffectPsychophysiology2019,3.0.5,59.54154581568938,
To what extent did the music make you feel ,FRUSTRATED,30MonoWAV/30MonoT2.wav,2,1,4,14,,,,,1,1,17,13,0,10,10,3,,,,,,,,,1,0.7688677530022687,,,011,001,2019_May_09_0917,MusicAffectPsychophysiology2019,3.0.5,59.54154581568938,
To what extent did the music make you feel ,ANGRY,30MonoWAV/30MonoT2.wav,2,1,4,14,,,,,1,1,17,13,0,11,11,2,,,,,,,,,1,0.5681387019976682,,,011,001,2019_May_09_0917,MusicAffectPsychophysiology2019,3.0.5,59.54154581568938,
,,30MonoWAV/30MonoT2.wav,2,1,4,14,,,,,1,1,17,13,,,,,,,,,,,,,,,,,011,001,2019_May_09_0917,MusicAffectPsychophysiology2019,3.0.5,59.54154581568938,
To what extent did the music make you feel ,ASHAMED,30MonoWAV/30MonoS4.wav,1,1,3,12,,,,,1,2,18,11,0,0,0,4,,,3,3.0844130529985705,3,2.084424599997874,3,0.7018531840003561,1,1.2016897479988984,,,011,001,2019_May_09_0917,MusicAffectPsychophysiology2019,3.0.5,59.54154581568938,
To what extent did the music make you feel ,EXCITED,30MonoWAV/30MonoS4.wav,1,1,3,12,,,,,1,2,18,11,0,1,1,7,,,,,,,,,1,0.8018325769990042,,,011,001,2019_May_09_0917,MusicAffectPsychophysiology2019,3.0.5,59.54154581568938,
To what extent did the music make you feel ,ANXIOUS ,30MonoWAV/30MonoS4.wav,1,1,3,12,,,,,1,2,18,11,0,2,2,1,,,,,,,,,1,0.6524474419966282,,,011,001,2019_May_09_0917,MusicAffectPsychophysiology2019,3.0.5,59.54154581568938,
To what extent did the music make you feel ,ALERT,30MonoWAV/30MonoS4.wav,1,1,3,12,,,,,1,2,18,11,0,3,3,8,,,,,,,,,1,0.7340232669994293,,,011,001,2019_May_09_0917,MusicAffectPsychophysiology2019,3.0.5,59.54154581568938,
To what extent did the music make you feel ,FRUSTRATED,30MonoWAV/30MonoS4.wav,1,1,3,12,,,,,1,2,18,11,0,4,4,3,,,,,,,,,1,0.6847615070000757,,,011,001,2019_May_09_0917,MusicAffectPsychophysiology2019,3.0.5,59.54154581568938,
To what extent did the music make you feel ,ACTIVE,30MonoWAV/30MonoS4.wav,1,1,3,12,,,,,1,2,18,11,0,5,5,9,,,,,,,,,1,0.9017801190020691,,,011,001,2019_May_09_0917,MusicAffectPsychophysiology2019,3.0.5,59.54154581568938,
To what extent did the music make you feel ,ANGRY,30MonoWAV/30MonoS4.wav,1,1,3,12,,,,,1,2,18,11,0,6,6,2,,,,,,,,,1,0.5189182959984464,,,011,001,2019_May_09_0917,MusicAffectPsychophysiology2019,3.0.5,59.54154581568938,
To what extent did the music make you feel ,GUILTY,30MonoWAV/30MonoS4.wav,1,1,3,12,,,,,1,2,18,11,0,7,7,5,,,,,,,,,1,0.5024241140017693,,,011,001,2019_May_09_0917,MusicAffectPsychophysiology2019,3.0.5,59.54154581568938,
To what extent did the music make you feel ,SCARED,30MonoWAV/30MonoS4.wav,1,1,3,12,,,,,1,2,18,11,0,8,8,11,,,,,,,,,1,0.7181813280003553,,,011,001,2019_May_09_0917,MusicAffectPsychophysiology2019,3.0.5,59.54154581568938,
To what extent did the music make you feel ,HAPPY,30MonoWAV/30MonoS4.wav,1,1,3,12,,,,,1,2,18,11,0,9,9,6,,,,,,,,,1,0.9521286050003255,,,011,001,2019_May_09_0917,MusicAffectPsychophysiology2019,3.0.5,59.54154581568938,
To what extent did the music make you feel ,TENDER,30MonoWAV/30MonoS4.wav,1,1,3,12,,,,,1,2,18,11,0,10,10,10,,,,,,,,,3,0.783333858998958,,,011,001,2019_May_09_0917,MusicAffectPsychophysiology2019,3.0.5,59.54154581568938,
To what extent did the music make you feel ,SAD,30MonoWAV/30MonoS4.wav,1,1,3,12,,,,,1,2,18,11,0,11,11,0,,,,,,,,,3,0.8183991129990318,,,011,001,2019_May_09_0917,MusicAffectPsychophysiology2019,3.0.5,59.54154581568938,
,,30MonoWAV/30MonoS4.wav,1,1,3,12,,,,,1,2,18,11,,,,,,,,,,,,,,,,,011,001,2019_May_09_0917,MusicAffectPsychophysiology2019,3.0.5,59.54154581568938,
To what extent did the music make you feel ,ANGRY,30MonoWAV/30MonoH1.wav,2,2,1,5,,,,,1,3,19,4,0,0,0,2,,,4,1.854403512999852,4,0.8173682300002838,3,0.8108480279988726,1,1.3440103089997137,,,011,001,2019_May_09_0917,MusicAffectPsychophysiology2019,3.0.5,59.54154581568938,
To what extent did the music make you feel ,SCARED,30MonoWAV/30MonoH1.wav,2,2,1,5,,,,,1,3,19,4,0,1,1,11,,,,,,,,,1,0.7904331819991057,,,011,001,2019_May_09_0917,MusicAffectPsychophysiology2019,3.0.5,59.54154581568938,
To what extent did the music make you feel ,HAPPY,30MonoWAV/30MonoH1.wav,2,2,1,5,,,,,1,3,19,4,0,2,2,6,,,,,,,,,3,1.0188006310017954,,,011,001,2019_May_09_0917,MusicAffectPsychophysiology2019,3.0.5,59.54154581568938,
To what extent did the music make you feel ,TENDER,30MonoWAV/30MonoH1.wav,2,2,1,5,,,,,1,3,19,4,0,3,3,10,,,,,,,,,3,1.332390937001037,,,011,001,2019_May_09_0917,MusicAffectPsychophysiology2019,3.0.5,59.54154581568938,
To what extent did the music make you feel ,ACTIVE,30MonoWAV/30MonoH1.wav,2,2,1,5,,,,,1,3,19,4,0,4,4,9,,,,,,,,,3,0.5351287459998275,,,011,001,2019_May_09_0917,MusicAffectPsychophysiology2019,3.0.5,59.54154581568938,
To what extent did the music make you feel ,FRUSTRATED,30MonoWAV/30MonoH1.wav,2,2,1,5,,,,,1,3,19,4,0,5,5,3,,,,,,,,,1,0.517534593000164,,,011,001,2019_May_09_0917,MusicAffectPsychophysiology2019,3.0.5,59.54154581568938,
To what extent did the music make you feel ,ANXIOUS ,30MonoWAV/30MonoH1.wav,2,2,1,5,,,,,1,3,19,4,0,6,6,1,,,,,,,,,1,0.653037868996762,,,011,001,2019_May_09_0917,MusicAffectPsychophysiology2019,3.0.5,59.54154581568938,
To what extent did the music make you feel ,GUILTY,30MonoWAV/30MonoH1.wav,2,2,1,5,,,,,1,3,19,4,0,7,7,5,,,,,,,,,1,0.7023511740007962,,,011,001,2019_May_09_0917,MusicAffectPsychophysiology2019,3.0.5,59.54154581568938,
To what extent did the music make you feel ,SAD,30MonoWAV/30MonoH1.wav,2,2,1,5,,,,,1,3,19,4,0,8,8,0,,,,,,,,,3,1.0198625390003144,,,011,001,2019_May_09_0917,MusicAffectPsychophysiology2019,3.0.5,59.54154581568938,
To what extent did the music make you feel ,ASHAMED,30MonoWAV/30MonoH1.wav,2,2,1,5,,,,,1,3,19,4,0,9,9,4,,,,,,,,,1,1.8845773410030233,,,011,001,2019_May_09_0917,MusicAffectPsychophysiology2019,3.0.5,59.54154581568938,
To what extent did the music make you feel ,EXCITED,30MonoWAV/30MonoH1.wav,2,2,1,5,,,,,1,3,19,4,0,10,10,7,,,,,,,,,3,0.6858572180026385,,,011,001,2019_May_09_0917,MusicAffectPsychophysiology2019,3.0.5,59.54154581568938,
To what extent did the music make you feel ,ALERT,30MonoWAV/30MonoH1.wav,2,2,1,5,,,,,1,3,19,4,0,11,11,8,,,,,,,,,3,0.6686115939992305,,,011,001,2019_May_09_0917,MusicAffectPsychophysiology2019,3.0.5,59.54154581568938,
,,30MonoWAV/30MonoH1.wav,2,2,1,5,,,,,1,3,19,4,,,,,,,,,,,,,,,,,011,001,2019_May_09_0917,MusicAffectPsychophysiology2019,3.0.5,59.54154581568938,
To what extent did the music make you feel ,ASHAMED,30MonoWAV/30MonoH4.wav,2,2,1,8,,,,,1,4,20,7,0,0,0,4,,,3,2.035502880997228,3,0.4847246390017972,2,0.6018943980016047,1,0.7342712390018278,,,011,001,2019_May_09_0917,MusicAffectPsychophysiology2019,3.0.5,59.54154581568938,
To what extent did the music make you feel ,ACTIVE,30MonoWAV/30MonoH4.wav,2,2,1,8,,,,,1,4,20,7,0,1,1,9,,,,,,,,,3,0.7531840650008235,,,011,001,2019_May_09_0917,MusicAffectPsychophysiology2019,3.0.5,59.54154581568938,
To what extent did the music make you feel ,HAPPY,30MonoWAV/30MonoH4.wav,2,2,1,8,,,,,1,4,20,7,0,2,2,6,,,,,,,,,3,0.5025712619972182,,,011,001,2019_May_09_0917,MusicAffectPsychophysiology2019,3.0.5,59.54154581568938,
To what extent did the music make you feel ,FRUSTRATED,30MonoWAV/30MonoH4.wav,2,2,1,8,,,,,1,4,20,7,0,3,3,3,,,,,,,,,1,0.4519544180002413,,,011,001,2019_May_09_0917,MusicAffectPsychophysiology2019,3.0.5,59.54154581568938,
To what extent did the music make you feel ,SAD,30MonoWAV/30MonoH4.wav,2,2,1,8,,,,,1,4,20,7,0,4,4,0,,,,,,,,,1,0.6013471390033374,,,011,001,2019_May_09_0917,MusicAffectPsychophysiology2019,3.0.5,59.54154581568938,
To what extent did the music make you feel ,ALERT,30MonoWAV/30MonoH4.wav,2,2,1,8,,,,,1,4,20,7,0,5,5,8,,,,,,,,,3,0.602197806998447,,,011,001,2019_May_09_0917,MusicAffectPsychophysiology2019,3.0.5,59.54154581568938,
To what extent did the music make you feel ,GUILTY,30MonoWAV/30MonoH4.wav,2,2,1,8,,,,,1,4,20,7,0,6,6,5,,,,,,,,,1,0.5016970969991235,,,011,001,2019_May_09_0917,MusicAffectPsychophysiology2019,3.0.5,59.54154581568938,
To what extent did the music make you feel ,ANGRY,30MonoWAV/30MonoH4.wav,2,2,1,8,,,,,1,4,20,7,0,7,7,2,,,,,,,,,1,0.6506759809999494,,,011,001,2019_May_09_0917,MusicAffectPsychophysiology2019,3.0.5,59.54154581568938,
To what extent did the music make you feel ,SCARED,30MonoWAV/30MonoH4.wav,2,2,1,8,,,,,1,4,20,7,0,8,8,11,,,,,,,,,1,1.3181437780003762,,,011,001,2019_May_09_0917,MusicAffectPsychophysiology2019,3.0.5,59.54154581568938,
To what extent did the music make you feel ,TENDER,30MonoWAV/30MonoH4.wav,2,2,1,8,,,,,1,4,20,7,0,9,9,10,,,,,,,,,1,1.0023179819982033,,,011,001,2019_May_09_0917,MusicAffectPsychophysiology2019,3.0.5,59.54154581568938,
To what extent did the music make you feel ,EXCITED,30MonoWAV/30MonoH4.wav,2,2,1,8,,,,,1,4,20,7,0,10,10,7,,,,,,,,,3,0.5524716569998418,,,011,001,2019_May_09_0917,MusicAffectPsychophysiology2019,3.0.5,59.54154581568938,
To what extent did the music make you feel ,ANXIOUS ,30MonoWAV/30MonoH4.wav,2,2,1,8,,,,,1,4,20,7,0,11,11,1,,,,,,,,,1,0.46827151000252343,,,011,001,2019_May_09_0917,MusicAffectPsychophysiology2019,3.0.5,59.54154581568938,
,,30MonoWAV/30MonoH4.wav,2,2,1,8,,,,,1,4,20,7,,,,,,,,,,,,,,,,,011,001,2019_May_09_0917,MusicAffectPsychophysiology2019,3.0.5,59.54154581568938,
To what extent did the music make you feel ,ANGRY,30MonoWAV/30MonoH3.wav,2,2,1,7,,,,,1,5,21,6,0,0,0,2,,,3,2.2016480109996337,3,0.8192783920021611,3,0.71819518600023,1,1.0687793979996059,,,011,001,2019_May_09_0917,MusicAffectPsychophysiology2019,3.0.5,59.54154581568938,
To what extent did the music make you feel ,ACTIVE,30MonoWAV/30MonoH3.wav,2,2,1,7,,,,,1,5,21,6,0,1,1,9,,,,,,,,,3,1.2676670299988473,,,011,001,2019_May_09_0917,MusicAffectPsychophysiology2019,3.0.5,59.54154581568938,
To what extent did the music make you feel ,GUILTY,30MonoWAV/30MonoH3.wav,2,2,1,7,,,,,1,5,21,6,0,2,2,5,,,,,,,,,1,0.5184432370006107,,,011,001,2019_May_09_0917,MusicAffectPsychophysiology2019,3.0.5,59.54154581568938,
To what extent did the music make you feel ,EXCITED,30MonoWAV/30MonoH3.wav,2,2,1,7,,,,,1,5,21,6,0,3,3,7,,,,,,,,,3,0.5684783389988297,,,011,001,2019_May_09_0917,MusicAffectPsychophysiology2019,3.0.5,59.54154581568938,
To what extent did the music make you feel ,SAD,30MonoWAV/30MonoH3.wav,2,2,1,7,,,,,1,5,21,6,0,4,4,0,,,,,,,,,1,0.6520232039983966,,,011,001,2019_May_09_0917,MusicAffectPsychophysiology2019,3.0.5,59.54154581568938,
To what extent did the music make you feel ,ANXIOUS ,30MonoWAV/30MonoH3.wav,2,2,1,7,,,,,1,5,21,6,0,5,5,1,,,,,,,,,1,0.634867368000414,,,011,001,2019_May_09_0917,MusicAffectPsychophysiology2019,3.0.5,59.54154581568938,
To what extent did the music make you feel ,TENDER,30MonoWAV/30MonoH3.wav,2,2,1,7,,,,,1,5,21,6,0,6,6,10,,,,,,,,,1,0.9529203179990873,,,011,001,2019_May_09_0917,MusicAffectPsychophysiology2019,3.0.5,59.54154581568938,
To what extent did the music make you feel ,FRUSTRATED,30MonoWAV/30MonoH3.wav,2,2,1,7,,,,,1,5,21,6,0,7,7,3,,,,,,,,,1,0.6845746020007937,,,011,001,2019_May_09_0917,MusicAffectPsychophysiology2019,3.0.5,59.54154581568938,
To what extent did the music make you feel ,HAPPY,30MonoWAV/30MonoH3.wav,2,2,1,7,,,,,1,5,21,6,0,8,8,6,,,,,,,,,3,0.6996540680011094,,,011,001,2019_May_09_0917,MusicAffectPsychophysiology2019,3.0.5,59.54154581568938,
To what extent did the music make you feel ,ASHAMED,30MonoWAV/30MonoH3.wav,2,2,1,7,,,,,1,5,21,6,0,9,9,4,,,,,,,,,1,0.584438574998785,,,011,001,2019_May_09_0917,MusicAffectPsychophysiology2019,3.0.5,59.54154581568938,
To what extent did the music make you feel ,SCARED,30MonoWAV/30MonoH3.wav,2,2,1,7,,,,,1,5,21,6,0,10,10,11,,,,,,,,,1,0.800119084000471,,,011,001,2019_May_09_0917,MusicAffectPsychophysiology2019,3.0.5,59.54154581568938,
To what extent did the music make you feel ,ALERT,30MonoWAV/30MonoH3.wav,2,2,1,7,,,,,1,5,21,6,0,11,11,8,,,,,,,,,3,0.8349626549970708,,,011,001,2019_May_09_0917,MusicAffectPsychophysiology2019,3.0.5,59.54154581568938,
,,30MonoWAV/30MonoH3.wav,2,2,1,7,,,,,1,5,21,6,,,,,,,,,,,,,,,,,011,001,2019_May_09_0917,MusicAffectPsychophysiology2019,3.0.5,59.54154581568938,
To what extent did the music make you feel ,ALERT,30MonoWAV/30MonoT1.wav,2,1,4,13,,,,,1,6,22,12,0,0,0,8,,,2,3.3676734879991272,3,1.5191977100002987,3,1.0522680050016788,1,1.5686399860023812,,,011,001,2019_May_09_0917,MusicAffectPsychophysiology2019,3.0.5,59.54154581568938,
To what extent did the music make you feel ,GUILTY,30MonoWAV/30MonoT1.wav,2,1,4,13,,,,,1,6,22,12,0,1,1,5,,,,,,,,,1,0.5357045849996211,,,011,001,2019_May_09_0917,MusicAffectPsychophysiology2019,3.0.5,59.54154581568938,
To what extent did the music make you feel ,TENDER,30MonoWAV/30MonoT1.wav,2,1,4,13,,,,,1,6,22,12,0,2,2,10,,,,,,,,,2,0.6677679620006529,,,011,001,2019_May_09_0917,MusicAffectPsychophysiology2019,3.0.5,59.54154581568938,
To what extent did the music make you feel ,SCARED,30MonoWAV/30MonoT1.wav,2,1,4,13,,,,,1,6,22,12,0,3,3,11,,,,,,,,,1,0.6683791010000277,,,011,001,2019_May_09_0917,MusicAffectPsychophysiology2019,3.0.5,59.54154581568938,
To what extent did the music make you feel ,HAPPY,30MonoWAV/30MonoT1.wav,2,1,4,13,,,,,1,6,22,12,0,4,4,6,,,,,,,,,2,1.5357583820004947,,,011,001,2019_May_09_0917,MusicAffectPsychophysiology2019,3.0.5,59.54154581568938,
To what extent did the music make you feel ,ASHAMED,30MonoWAV/30MonoT1.wav,2,1,4,13,,,,,1,6,22,12,0,5,5,4,,,,,,,,,1,0.5854703820004943,,,011,001,2019_May_09_0917,MusicAffectPsychophysiology2019,3.0.5,59.54154581568938,
To what extent did the music make you feel ,FRUSTRATED,30MonoWAV/30MonoT1.wav,2,1,4,13,,,,,1,6,22,12,0,6,6,3,,,,,,,,,1,0.8349496109985921,,,011,001,2019_May_09_0917,MusicAffectPsychophysiology2019,3.0.5,59.54154581568938,
To what extent did the music make you feel ,ACTIVE,30MonoWAV/30MonoT1.wav,2,1,4,13,,,,,1,6,22,12,0,7,7,9,,,,,,,,,1,0.9180757979993359,,,011,001,2019_May_09_0917,MusicAffectPsychophysiology2019,3.0.5,59.54154581568938,
To what extent did the music make you feel ,ANXIOUS ,30MonoWAV/30MonoT1.wav,2,1,4,13,,,,,1,6,22,12,0,8,8,1,,,,,,,,,1,0.6356142709992127,,,011,001,2019_May_09_0917,MusicAffectPsychophysiology2019,3.0.5,59.54154581568938,
To what extent did the music make you feel ,SAD,30MonoWAV/30MonoT1.wav,2,1,4,13,,,,,1,6,22,12,0,9,9,0,,,,,,,,,2,1.0352119359995413,,,011,001,2019_May_09_0917,MusicAffectPsychophysiology2019,3.0.5,59.54154581568938,
To what extent did the music make you feel ,ANGRY,30MonoWAV/30MonoT1.wav,2,1,4,13,,,,,1,6,22,12,0,10,10,2,,,,,,,,,1,0.5018795469986799,,,011,001,2019_May_09_0917,MusicAffectPsychophysiology2019,3.0.5,59.54154581568938,
To what extent did the music make you feel ,EXCITED,30MonoWAV/30MonoT1.wav,2,1,4,13,,,,,1,6,22,12,0,11,11,7,,,,,,,,,1,0.8860618159997102,,,011,001,2019_May_09_0917,MusicAffectPsychophysiology2019,3.0.5,59.54154581568938,
,,30MonoWAV/30MonoT1.wav,2,1,4,13,,,,,1,6,22,12,,,,,,,,,,,,,,,,,011,001,2019_May_09_0917,MusicAffectPsychophysiology2019,3.0.5,59.54154581568938,
To what extent did the music make you feel ,ANXIOUS ,30MonoWAV/30MonoS3.wav,1,1,3,11,,,,,1,7,23,10,0,0,0,1,,,2,2.6340195080010744,2,0.7356713879999006,2,0.8352764839983138,1,0.8178933330018481,,,011,001,2019_May_09_0917,MusicAffectPsychophysiology2019,3.0.5,59.54154581568938,
To what extent did the music make you feel ,SAD,30MonoWAV/30MonoS3.wav,1,1,3,11,,,,,1,7,23,10,0,1,1,0,,,,,,,,,2,0.8340802759994403,,,011,001,2019_May_09_0917,MusicAffectPsychophysiology2019,3.0.5,59.54154581568938,
To what extent did the music make you feel ,EXCITED,30MonoWAV/30MonoS3.wav,1,1,3,11,,,,,1,7,23,10,0,2,2,7,,,,,,,,,1,0.6025710619978781,,,011,001,2019_May_09_0917,MusicAffectPsychophysiology2019,3.0.5,59.54154581568938,
To what extent did the music make you feel ,SCARED,30MonoWAV/30MonoS3.wav,1,1,3,11,,,,,1,7,23,10,0,3,3,11,,,,,,,,,1,0.7013206830015406,,,011,001,2019_May_09_0917,MusicAffectPsychophysiology2019,3.0.5,59.54154581568938,
To what extent did the music make you feel ,ALERT,30MonoWAV/30MonoS3.wav,1,1,3,11,,,,,1,7,23,10,0,4,4,8,,,,,,,,,1,0.7857935760002874,,,011,001,2019_May_09_0917,MusicAffectPsychophysiology2019,3.0.5,59.54154581568938,
To what extent did the music make you feel ,TENDER,30MonoWAV/30MonoS3.wav,1,1,3,11,,,,,1,7,23,10,0,5,5,10,,,,,,,,,2,0.7852979130002495,,,011,001,2019_May_09_0917,MusicAffectPsychophysiology2019,3.0.5,59.54154581568938,
To what extent did the music make you feel ,FRUSTRATED,30MonoWAV/30MonoS3.wav,1,1,3,11,,,,,1,7,23,10,0,6,6,3,,,,,,,,,1,0.551480015998095,,,011,001,2019_May_09_0917,MusicAffectPsychophysiology2019,3.0.5,59.54154581568938,
To what extent did the music make you feel ,HAPPY,30MonoWAV/30MonoS3.wav,1,1,3,11,,,,,1,7,23,10,0,7,7,6,,,,,,,,,1,0.8181237079988932,,,011,001,2019_May_09_0917,MusicAffectPsychophysiology2019,3.0.5,59.54154581568938,
To what extent did the music make you feel ,ANGRY,30MonoWAV/30MonoS3.wav,1,1,3,11,,,,,1,7,23,10,0,8,8,2,,,,,,,,,1,0.8679375520005124,,,011,001,2019_May_09_0917,MusicAffectPsychophysiology2019,3.0.5,59.54154581568938,
To what extent did the music make you feel ,ASHAMED,30MonoWAV/30MonoS3.wav,1,1,3,11,,,,,1,7,23,10,0,9,9,4,,,,,,,,,1,0.7506523580013891,,,011,001,2019_May_09_0917,MusicAffectPsychophysiology2019,3.0.5,59.54154581568938,
To what extent did the music make you feel ,GUILTY,30MonoWAV/30MonoS3.wav,1,1,3,11,,,,,1,7,23,10,0,10,10,5,,,,,,,,,1,0.9685273350005446,,,011,001,2019_May_09_0917,MusicAffectPsychophysiology2019,3.0.5,59.54154581568938,
To what extent did the music make you feel ,ACTIVE,30MonoWAV/30MonoS3.wav,1,1,3,11,,,,,1,7,23,10,0,11,11,9,,,,,,,,,1,0.6850592139999208,,,011,001,2019_May_09_0917,MusicAffectPsychophysiology2019,3.0.5,59.54154581568938,
,,30MonoWAV/30MonoS3.wav,1,1,3,11,,,,,1,7,23,10,,,,,,,,,,,,,,,,,011,001,2019_May_09_0917,MusicAffectPsychophysiology2019,3.0.5,59.54154581568938,
To what extent did the music make you feel ,TENDER,30MonoWAV/30MonoH2.wav,2,2,1,6,,,,,1,8,24,5,0,0,0,10,,,2,2.1183292550012993,2,0.6026626909988408,2,0.7992185609982698,1,0.6845839689995046,,,011,001,2019_May_09_0917,MusicAffectPsychophysiology2019,3.0.5,59.54154581568938,
To what extent did the music make you feel ,ALERT,30MonoWAV/30MonoH2.wav,2,2,1,6,,,,,1,8,24,5,0,1,1,8,,,,,,,,,1,0.6512829050006985,,,011,001,2019_May_09_0917,MusicAffectPsychophysiology2019,3.0.5,59.54154581568938,
To what extent did the music make you feel ,ASHAMED,30MonoWAV/30MonoH2.wav,2,2,1,6,,,,,1,8,24,5,0,2,2,4,,,,,,,,,1,0.7361292979985592,,,011,001,2019_May_09_0917,MusicAffectPsychophysiology2019,3.0.5,59.54154581568938,
To what extent did the music make you feel ,ANGRY,30MonoWAV/30MonoH2.wav,2,2,1,6,,,,,1,8,24,5,0,3,3,2,,,,,,,,,1,0.4017113839981903,,,011,001,2019_May_09_0917,MusicAffectPsychophysiology2019,3.0.5,59.54154581568938,
To what extent did the music make you feel ,ACTIVE,30MonoWAV/30MonoH2.wav,2,2,1,6,,,,,1,8,24,5,0,4,4,9,,,,,,,,,1,0.21790710699860938,,,011,001,2019_May_09_0917,MusicAffectPsychophysiology2019,3.0.5,59.54154581568938,
To what extent did the music make you feel ,SCARED,30MonoWAV/30MonoH2.wav,2,2,1,6,,,,,1,8,24,5,0,5,5,11,,,,,,,,,1,0.21690128599948366,,,011,001,2019_May_09_0917,MusicAffectPsychophysiology2019,3.0.5,59.54154581568938,
To what extent did the music make you feel ,ANXIOUS ,30MonoWAV/30MonoH2.wav,2,2,1,6,,,,,1,8,24,5,0,6,6,1,,,,,,,,,1,0.15158936100124265,,,011,001,2019_May_09_0917,MusicAffectPsychophysiology2019,3.0.5,59.54154581568938,
To what extent did the music make you feel ,SAD,30MonoWAV/30MonoH2.wav,2,2,1,6,,,,,1,8,24,5,0,7,7,0,,,,,,,,,1,0.15194817099836655,,,011,001,2019_May_09_0917,MusicAffectPsychophysiology2019,3.0.5,59.54154581568938,
To what extent did the music make you feel ,GUILTY,30MonoWAV/30MonoH2.wav,2,2,1,6,,,,,1,8,24,5,0,8,8,5,,,,,,,,,1,0.3687526279973099,,,011,001,2019_May_09_0917,MusicAffectPsychophysiology2019,3.0.5,59.54154581568938,
To what extent did the music make you feel ,EXCITED,30MonoWAV/30MonoH2.wav,2,2,1,6,,,,,1,8,24,5,0,9,9,7,,,,,,,,,1,1.4347205510021013,,,011,001,2019_May_09_0917,MusicAffectPsychophysiology2019,3.0.5,59.54154581568938,
To what extent did the music make you feel ,HAPPY,30MonoWAV/30MonoH2.wav,2,2,1,6,,,,,1,8,24,5,0,10,10,6,,,,,,,,,1,0.5352043240018247,,,011,001,2019_May_09_0917,MusicAffectPsychophysiology2019,3.0.5,59.54154581568938,
To what extent did the music make you feel ,FRUSTRATED,30MonoWAV/30MonoH2.wav,2,2,1,6,,,,,1,8,24,5,0,11,11,3,,,,,,,,,1,0.5686814709988539,,,011,001,2019_May_09_0917,MusicAffectPsychophysiology2019,3.0.5,59.54154581568938,
,,30MonoWAV/30MonoH2.wav,2,2,1,6,,,,,1,8,24,5,,,,,,,,,,,,,,,,,011,001,2019_May_09_0917,MusicAffectPsychophysiology2019,3.0.5,59.54154581568938,
To what extent did the music make you feel ,SCARED,30MonoWAV/30MonoS1.wav,1,1,3,9,,,,,1,9,25,8,0,0,0,11,,,2,2.152156254000147,3,0.7187783810004476,3,0.5511829559982289,1,1.3691128580030636,,,011,001,2019_May_09_0917,MusicAffectPsychophysiology2019,3.0.5,59.54154581568938,
To what extent did the music make you feel ,ALERT,30MonoWAV/30MonoS1.wav,1,1,3,9,,,,,1,9,25,8,0,1,1,8,,,,,,,,,1,2.1850367770020966,,,011,001,2019_May_09_0917,MusicAffectPsychophysiology2019,3.0.5,59.54154581568938,
To what extent did the music make you feel ,SAD,30MonoWAV/30MonoS1.wav,1,1,3,9,,,,,1,9,25,8,0,2,2,0,,,,,,,,,2,1.1510621689994878,,,011,001,2019_May_09_0917,MusicAffectPsychophysiology2019,3.0.5,59.54154581568938,
To what extent did the music make you feel ,FRUSTRATED,30MonoWAV/30MonoS1.wav,1,1,3,9,,,,,1,9,25,8,0,3,3,3,,,,,,,,,1,0.618035247996886,,,011,001,2019_May_09_0917,MusicAffectPsychophysiology2019,3.0.5,59.54154581568938,
To what extent did the music make you feel ,ANGRY,30MonoWAV/30MonoS1.wav,1,1,3,9,,,,,1,9,25,8,0,4,4,2,,,,,,,,,1,0.5851185390019964,,,011,001,2019_May_09_0917,MusicAffectPsychophysiology2019,3.0.5,59.54154581568938,
To what extent did the music make you feel ,GUILTY,30MonoWAV/30MonoS1.wav,1,1,3,9,,,,,1,9,25,8,0,5,5,5,,,,,,,,,1,0.6848307999971439,,,011,001,2019_May_09_0917,MusicAffectPsychophysiology2019,3.0.5,59.54154581568938,
To what extent did the music make you feel ,TENDER,30MonoWAV/30MonoS1.wav,1,1,3,9,,,,,1,9,25,8,0,6,6,10,,,,,,,,,2,0.4998823159985477,,,011,001,2019_May_09_0917,MusicAffectPsychophysiology2019,3.0.5,59.54154581568938,
To what extent did the music make you feel ,EXCITED,30MonoWAV/30MonoS1.wav,1,1,3,9,,,,,1,9,25,8,0,7,7,7,,,,,,,,,1,0.5688557300018147,,,011,001,2019_May_09_0917,MusicAffectPsychophysiology2019,3.0.5,59.54154581568938,
To what extent did the music make you feel ,ANXIOUS ,30MonoWAV/30MonoS1.wav,1,1,3,9,,,,,1,9,25,8,0,8,8,1,,,,,,,,,1,0.985721092998574,,,011,001,2019_May_09_0917,MusicAffectPsychophysiology2019,3.0.5,59.54154581568938,
To what extent did the music make you feel ,HAPPY,30MonoWAV/30MonoS1.wav,1,1,3,9,,,,,1,9,25,8,0,9,9,6,,,,,,,,,1,0.6345315970029333,,,011,001,2019_May_09_0917,MusicAffectPsychophysiology2019,3.0.5,59.54154581568938,
To what extent did the music make you feel ,ASHAMED,30MonoWAV/30MonoS1.wav,1,1,3,9,,,,,1,9,25,8,0,10,10,4,,,,,,,,,1,0.5683436549988983,,,011,001,2019_May_09_0917,MusicAffectPsychophysiology2019,3.0.5,59.54154581568938,
To what extent did the music make you feel ,ACTIVE,30MonoWAV/30MonoS1.wav,1,1,3,9,,,,,1,9,25,8,0,11,11,9,,,,,,,,,1,0.5849893849990622,,,011,001,2019_May_09_0917,MusicAffectPsychophysiology2019,3.0.5,59.54154581568938,
,,30MonoWAV/30MonoS1.wav,1,1,3,9,,,,,1,9,25,8,,,,,,,,,,,,,,,,,011,001,2019_May_09_0917,MusicAffectPsychophysiology2019,3.0.5,59.54154581568938,
To what extent did the music make you feel ,ANXIOUS ,30MonoWAV/30MonoF4.wav,1,2,2,4,,,,,1,10,26,3,0,0,0,1,,,4,3.5582412570001907,2,1.4706216020022111,3,1.0862688640008855,1,1.252653071001987,,,011,001,2019_May_09_0917,MusicAffectPsychophysiology2019,3.0.5,59.54154581568938,
To what extent did the music make you feel ,ACTIVE,30MonoWAV/30MonoF4.wav,1,2,2,4,,,,,1,10,26,3,0,1,1,9,,,,,,,,,4,1.2566548089998832,,,011,001,2019_May_09_0917,MusicAffectPsychophysiology2019,3.0.5,59.54154581568938,
To what extent did the music make you feel ,HAPPY,30MonoWAV/30MonoF4.wav,1,2,2,4,,,,,1,10,26,3,0,2,2,6,,,,,,,,,1,1.5167796380010259,,,011,001,2019_May_09_0917,MusicAffectPsychophysiology2019,3.0.5,59.54154581568938,
To what extent did the music make you feel ,SAD,30MonoWAV/30MonoF4.wav,1,2,2,4,,,,,1,10,26,3,0,3,3,0,,,,,,,,,2,1.8684509380000236,,,011,001,2019_May_09_0917,MusicAffectPsychophysiology2019,3.0.5,59.54154581568938,
To what extent did the music make you feel ,ALERT,30MonoWAV/30MonoF4.wav,1,2,2,4,,,,,1,10,26,3,0,4,4,8,,,,,,,,,4,0.9183026589998917,,,011,001,2019_May_09_0917,MusicAffectPsychophysiology2019,3.0.5,59.54154581568938,
To what extent did the music make you feel ,SCARED,30MonoWAV/30MonoF4.wav,1,2,2,4,,,,,1,10,26,3,0,5,5,11,,,,,,,,,1,1.5025913169993146,,,011,001,2019_May_09_0917,MusicAffectPsychophysiology2019,3.0.5,59.54154581568938,
To what extent did the music make you feel ,GUILTY,30MonoWAV/30MonoF4.wav,1,2,2,4,,,,,1,10,26,3,0,6,6,5,,,,,,,,,1,0.6345558300017728,,,011,001,2019_May_09_0917,MusicAffectPsychophysiology2019,3.0.5,59.54154581568938,
To what extent did the music make you feel ,ASHAMED,30MonoWAV/30MonoF4.wav,1,2,2,4,,,,,1,10,26,3,0,7,7,4,,,,,,,,,1,0.584805160000542,,,011,001,2019_May_09_0917,MusicAffectPsychophysiology2019,3.0.5,59.54154581568938,
To what extent did the music make you feel ,ANGRY,30MonoWAV/30MonoF4.wav,1,2,2,4,,,,,1,10,26,3,0,8,8,2,,,,,,,,,1,0.5684619999992719,,,011,001,2019_May_09_0917,MusicAffectPsychophysiology2019,3.0.5,59.54154581568938,
To what extent did the music make you feel ,FRUSTRATED,30MonoWAV/30MonoF4.wav,1,2,2,4,,,,,1,10,26,3,0,9,9,3,,,,,,,,,1,0.5854041300008248,,,011,001,2019_May_09_0917,MusicAffectPsychophysiology2019,3.0.5,59.54154581568938,
To what extent did the music make you feel ,EXCITED,30MonoWAV/30MonoF4.wav,1,2,2,4,,,,,1,10,26,3,0,10,10,7,,,,,,,,,4,1.1686376219986414,,,011,001,2019_May_09_0917,MusicAffectPsychophysiology2019,3.0.5,59.54154581568938,
To what extent did the music make you feel ,TENDER,30MonoWAV/30MonoF4.wav,1,2,2,4,,,,,1,10,26,3,0,11,11,10,,,,,,,,,1,0.8179154009994818,,,011,001,2019_May_09_0917,MusicAffectPsychophysiology2019,3.0.5,59.54154581568938,
,,30MonoWAV/30MonoF4.wav,1,2,2,4,,,,,1,10,26,3,,,,,,,,,,,,,,,,,011,001,2019_May_09_0917,MusicAffectPsychophysiology2019,3.0.5,59.54154581568938,
To what extent did the music make you feel ,SAD,30MonoWAV/30MonoT4.wav,2,1,4,16,,,,,1,11,27,15,0,0,0,0,,,3,2.0513048479988356,3,0.6685724229973857,3,0.2516652209997119,3,1.0681579199990665,,,011,001,2019_May_09_0917,MusicAffectPsychophysiology2019,3.0.5,59.54154581568938,
To what extent did the music make you feel ,GUILTY,30MonoWAV/30MonoT4.wav,2,1,4,16,,,,,1,11,27,15,0,1,1,5,,,,,,,,,2,0.7216038029982883,,,011,001,2019_May_09_0917,MusicAffectPsychophysiology2019,3.0.5,59.54154581568938,
To what extent did the music make you feel ,ACTIVE,30MonoWAV/30MonoT4.wav,2,1,4,16,,,,,1,11,27,15,0,2,2,9,,,,,,,,,2,0.7696706309980073,,,011,001,2019_May_09_0917,MusicAffectPsychophysiology2019,3.0.5,59.54154581568938,
To what extent did the music make you feel ,HAPPY,30MonoWAV/30MonoT4.wav,2,1,4,16,,,,,1,11,27,15,0,3,3,6,,,,,,,,,3,0.935824013002275,,,011,001,2019_May_09_0917,MusicAffectPsychophysiology2019,3.0.5,59.54154581568938,
To what extent did the music make you feel ,FRUSTRATED,30MonoWAV/30MonoT4.wav,2,1,4,16,,,,,1,11,27,15,0,4,4,3,,,,,,,,,2,0.553638969999156,,,011,001,2019_May_09_0917,MusicAffectPsychophysiology2019,3.0.5,59.54154581568938,
To what extent did the music make you feel ,EXCITED,30MonoWAV/30MonoT4.wav,2,1,4,16,,,,,1,11,27,15,0,5,5,7,,,,,,,,,3,0.6029010000020207,,,011,001,2019_May_09_0917,MusicAffectPsychophysiology2019,3.0.5,59.54154581568938,
To what extent did the music make you feel ,SCARED,30MonoWAV/30MonoT4.wav,2,1,4,16,,,,,1,11,27,15,0,6,6,11,,,,,,,,,2,0.6703863389993785,,,011,001,2019_May_09_0917,MusicAffectPsychophysiology2019,3.0.5,59.54154581568938,
To what extent did the music make you feel ,ALERT,30MonoWAV/30MonoT4.wav,2,1,4,16,,,,,1,11,27,15,0,7,7,8,,,,,,,,,3,0.9529811380016326,,,011,001,2019_May_09_0917,MusicAffectPsychophysiology2019,3.0.5,59.54154581568938,
To what extent did the music make you feel ,ANXIOUS ,30MonoWAV/30MonoT4.wav,2,1,4,16,,,,,1,11,27,15,0,8,8,1,,,,,,,,,2,0.5192518389994802,,,011,001,2019_May_09_0917,MusicAffectPsychophysiology2019,3.0.5,59.54154581568938,
To what extent did the music make you feel ,ASHAMED,30MonoWAV/30MonoT4.wav,2,1,4,16,,,,,1,11,27,15,0,9,9,4,,,,,,,,,2,0.6009113310028624,,,011,001,2019_May_09_0917,MusicAffectPsychophysiology2019,3.0.5,59.54154581568938,
To what extent did the music make you feel ,TENDER,30MonoWAV/30MonoT4.wav,2,1,4,16,,,,,1,11,27,15,0,10,10,10,,,,,,,,,3,0.6026679809983762,,,011,001,2019_May_09_0917,MusicAffectPsychophysiology2019,3.0.5,59.54154581568938,
To what extent did the music make you feel ,ANGRY,30MonoWAV/30MonoT4.wav,2,1,4,16,,,,,1,11,27,15,0,11,11,2,,,,,,,,,2,0.6181753339988063,,,011,001,2019_May_09_0917,MusicAffectPsychophysiology2019,3.0.5,59.54154581568938,
,,30MonoWAV/30MonoT4.wav,2,1,4,16,,,,,1,11,27,15,,,,,,,,,,,,,,,,,011,001,2019_May_09_0917,MusicAffectPsychophysiology2019,3.0.5,59.54154581568938,
To what extent did the music make you feel ,ASHAMED,30MonoWAV/30MonoF2.wav,1,2,2,2,,,,,1,12,28,1,0,0,0,4,,,3,3.083535178000602,2,1.001580782001838,2,0.9674415270019381,1,1.0186963560008735,,,011,001,2019_May_09_0917,MusicAffectPsychophysiology2019,3.0.5,59.54154581568938,
To what extent did the music make you feel ,ACTIVE,30MonoWAV/30MonoF2.wav,1,2,2,2,,,,,1,12,28,1,0,1,1,9,,,,,,,,,1,1.3660730139999941,,,011,001,2019_May_09_0917,MusicAffectPsychophysiology2019,3.0.5,59.54154581568938,
To what extent did the music make you feel ,SCARED,30MonoWAV/30MonoF2.wav,1,2,2,2,,,,,1,12,28,1,0,2,2,11,,,,,,,,,3,1.3689659359988582,,,011,001,2019_May_09_0917,MusicAffectPsychophysiology2019,3.0.5,59.54154581568938,
To what extent did the music make you feel ,ALERT,30MonoWAV/30MonoF2.wav,1,2,2,2,,,,,1,12,28,1,0,3,3,8,,,,,,,,,4,1.2845648100010294,,,011,001,2019_May_09_0917,MusicAffectPsychophysiology2019,3.0.5,59.54154581568938,
To what extent did the music make you feel ,HAPPY,30MonoWAV/30MonoF2.wav,1,2,2,2,,,,,1,12,28,1,0,4,4,6,,,,,,,,,1,0.8691501339999377,,,011,001,2019_May_09_0917,MusicAffectPsychophysiology2019,3.0.5,59.54154581568938,
To what extent did the music make you feel ,GUILTY,30MonoWAV/30MonoF2.wav,1,2,2,2,,,,,1,12,28,1,0,5,5,5,,,,,,,,,1,1.102034225998068,,,011,001,2019_May_09_0917,MusicAffectPsychophysiology2019,3.0.5,59.54154581568938,
To what extent did the music make you feel ,ANXIOUS ,30MonoWAV/30MonoF2.wav,1,2,2,2,,,,,1,12,28,1,0,6,6,1,,,,,,,,,2,1.1680217480025021,,,011,001,2019_May_09_0917,MusicAffectPsychophysiology2019,3.0.5,59.54154581568938,
To what extent did the music make you feel ,ANGRY,30MonoWAV/30MonoF2.wav,1,2,2,2,,,,,1,12,28,1,0,7,7,2,,,,,,,,,1,1.2519272960016679,,,011,001,2019_May_09_0917,MusicAffectPsychophysiology2019,3.0.5,59.54154581568938,
To what extent did the music make you feel ,TENDER,30MonoWAV/30MonoF2.wav,1,2,2,2,,,,,1,12,28,1,0,8,8,10,,,,,,,,,1,1.1356307210007799,,,011,001,2019_May_09_0917,MusicAffectPsychophysiology2019,3.0.5,59.54154581568938,
To what extent did the music make you feel ,SAD,30MonoWAV/30MonoF2.wav,1,2,2,2,,,,,1,12,28,1,0,9,9,0,,,,,,,,,1,0.6686241829993378,,,011,001,2019_May_09_0917,MusicAffectPsychophysiology2019,3.0.5,59.54154581568938,
To what extent did the music make you feel ,EXCITED,30MonoWAV/30MonoF2.wav,1,2,2,2,,,,,1,12,28,1,0,10,10,7,,,,,,,,,4,1.1185586899991904,,,011,001,2019_May_09_0917,MusicAffectPsychophysiology2019,3.0.5,59.54154581568938,
To what extent did the music make you feel ,FRUSTRATED,30MonoWAV/30MonoF2.wav,1,2,2,2,,,,,1,12,28,1,0,11,11,3,,,,,,,,,1,0.835171425002045,,,011,001,2019_May_09_0917,MusicAffectPsychophysiology2019,3.0.5,59.54154581568938,
,,30MonoWAV/30MonoF2.wav,1,2,2,2,,,,,1,12,28,1,,,,,,,,,,,,,,,,,011,001,2019_May_09_0917,MusicAffectPsychophysiology2019,3.0.5,59.54154581568938,
To what extent did the music make you feel ,SCARED,30MonoWAV/30MonoS2.wav,1,1,3,10,,,,,1,13,29,9,0,0,0,11,,,3,1.9517336979988613,3,0.3688758639982552,3,0.3022332850014209,1,1.4031431389994395,,,011,001,2019_May_09_0917,MusicAffectPsychophysiology2019,3.0.5,59.54154581568938,
To what extent did the music make you feel ,FRUSTRATED,30MonoWAV/30MonoS2.wav,1,1,3,10,,,,,1,13,29,9,0,1,1,3,,,,,,,,,1,0.4346230349983671,,,011,001,2019_May_09_0917,MusicAffectPsychophysiology2019,3.0.5,59.54154581568938,
To what extent did the music make you feel ,GUILTY,30MonoWAV/30MonoS2.wav,1,1,3,10,,,,,1,13,29,9,0,2,2,5,,,,,,,,,1,0.5019409060005273,,,011,001,2019_May_09_0917,MusicAffectPsychophysiology2019,3.0.5,59.54154581568938,
To what extent did the music make you feel ,ACTIVE,30MonoWAV/30MonoS2.wav,1,1,3,10,,,,,1,13,29,9,0,3,3,9,,,,,,,,,1,0.7013468340010149,,,011,001,2019_May_09_0917,MusicAffectPsychophysiology2019,3.0.5,59.54154581568938,
To what extent did the music make you feel ,ALERT,30MonoWAV/30MonoS2.wav,1,1,3,10,,,,,1,13,29,9,0,4,4,8,,,,,,,,,1,0.6349439510013326,,,011,001,2019_May_09_0917,MusicAffectPsychophysiology2019,3.0.5,59.54154581568938,
To what extent did the music make you feel ,ANXIOUS ,30MonoWAV/30MonoS2.wav,1,1,3,10,,,,,1,13,29,9,0,5,5,1,,,,,,,,,1,0.6016217350006627,,,011,001,2019_May_09_0917,MusicAffectPsychophysiology2019,3.0.5,59.54154581568938,
To what extent did the music make you feel ,EXCITED,30MonoWAV/30MonoS2.wav,1,1,3,10,,,,,1,13,29,9,0,6,6,7,,,,,,,,,3,1.8683847300017078,,,011,001,2019_May_09_0917,MusicAffectPsychophysiology2019,3.0.5,59.54154581568938,
To what extent did the music make you feel ,ASHAMED,30MonoWAV/30MonoS2.wav,1,1,3,10,,,,,1,13,29,9,0,7,7,4,,,,,,,,,1,0.6026234700002533,,,011,001,2019_May_09_0917,MusicAffectPsychophysiology2019,3.0.5,59.54154581568938,
To what extent did the music make you feel ,TENDER,30MonoWAV/30MonoS2.wav,1,1,3,10,,,,,1,13,29,9,0,8,8,10,,,,,,,,,3,0.6848733650003851,,,011,001,2019_May_09_0917,MusicAffectPsychophysiology2019,3.0.5,59.54154581568938,
To what extent did the music make you feel ,SAD,30MonoWAV/30MonoS2.wav,1,1,3,10,,,,,1,13,29,9,0,9,9,0,,,,,,,,,3,1.0689271439987351,,,011,001,2019_May_09_0917,MusicAffectPsychophysiology2019,3.0.5,59.54154581568938,
To what extent did the music make you feel ,HAPPY,30MonoWAV/30MonoS2.wav,1,1,3,10,,,,,1,13,29,9,0,10,10,6,,,,,,,,,1,0.6849238200011314,,,011,001,2019_May_09_0917,MusicAffectPsychophysiology2019,3.0.5,59.54154581568938,
To what extent did the music make you feel ,ANGRY,30MonoWAV/30MonoS2.wav,1,1,3,10,,,,,1,13,29,9,0,11,11,2,,,,,,,,,1,0.6682638130005216,,,011,001,2019_May_09_0917,MusicAffectPsychophysiology2019,3.0.5,59.54154581568938,
,,30MonoWAV/30MonoS2.wav,1,1,3,10,,,,,1,13,29,9,,,,,,,,,,,,,,,,,011,001,2019_May_09_0917,MusicAffectPsychophysiology2019,3.0.5,59.54154581568938,
To what extent did the music make you feel ,SCARED,30MonoWAV/30MonoT3.wav,2,1,4,15,,,,,1,14,30,14,0,0,0,11,,,3,3.2199290250027843,3,0.7667802289979591,3,1.0675726350018522,1,1.001469475999329,,,011,001,2019_May_09_0917,MusicAffectPsychophysiology2019,3.0.5,59.54154581568938,
To what extent did the music make you feel ,EXCITED,30MonoWAV/30MonoT3.wav,2,1,4,15,,,,,1,14,30,14,0,1,1,7,,,,,,,,,1,0.8679281290023937,,,011,001,2019_May_09_0917,MusicAffectPsychophysiology2019,3.0.5,59.54154581568938,
To what extent did the music make you feel ,ALERT,30MonoWAV/30MonoT3.wav,2,1,4,15,,,,,1,14,30,14,0,2,2,8,,,,,,,,,2,1.1188954579993151,,,011,001,2019_May_09_0917,MusicAffectPsychophysiology2019,3.0.5,59.54154581568938,
To what extent did the music make you feel ,ACTIVE,30MonoWAV/30MonoT3.wav,2,1,4,15,,,,,1,14,30,14,0,3,3,9,,,,,,,,,1,0.4678412120010762,,,011,001,2019_May_09_0917,MusicAffectPsychophysiology2019,3.0.5,59.54154581568938,
To what extent did the music make you feel ,ANXIOUS ,30MonoWAV/30MonoT3.wav,2,1,4,15,,,,,1,14,30,14,0,4,4,1,,,,,,,,,1,0.5013353080030356,,,011,001,2019_May_09_0917,MusicAffectPsychophysiology2019,3.0.5,59.54154581568938,
To what extent did the music make you feel ,ANGRY,30MonoWAV/30MonoT3.wav,2,1,4,15,,,,,1,14,30,14,0,5,5,2,,,,,,,,,1,0.5350181670000893,,,011,001,2019_May_09_0917,MusicAffectPsychophysiology2019,3.0.5,59.54154581568938,
To what extent did the music make you feel ,TENDER,30MonoWAV/30MonoT3.wav,2,1,4,15,,,,,1,14,30,14,0,6,6,10,,,,,,,,,3,1.1183244210005796,,,011,001,2019_May_09_0917,MusicAffectPsychophysiology2019,3.0.5,59.54154581568938,
To what extent did the music make you feel ,GUILTY,30MonoWAV/30MonoT3.wav,2,1,4,15,,,,,1,14,30,14,0,7,7,5,,,,,,,,,1,0.6019349260022864,,,011,001,2019_May_09_0917,MusicAffectPsychophysiology2019,3.0.5,59.54154581568938,
To what extent did the music make you feel ,SAD,30MonoWAV/30MonoT3.wav,2,1,4,15,,,,,1,14,30,14,0,8,8,0,,,,,,,,,3,0.7523396249998768,,,011,001,2019_May_09_0917,MusicAffectPsychophysiology2019,3.0.5,59.54154581568938,
To what extent did the music make you feel ,HAPPY,30MonoWAV/30MonoT3.wav,2,1,4,15,,,,,1,14,30,14,0,9,9,6,,,,,,,,,1,0.5358511230006116,,,011,001,2019_May_09_0917,MusicAffectPsychophysiology2019,3.0.5,59.54154581568938,
To what extent did the music make you feel ,FRUSTRATED,30MonoWAV/30MonoT3.wav,2,1,4,15,,,,,1,14,30,14,0,10,10,3,,,,,,,,,1,0.5842728250026994,,,011,001,2019_May_09_0917,MusicAffectPsychophysiology2019,3.0.5,59.54154581568938,
To what extent did the music make you feel ,ASHAMED,30MonoWAV/30MonoT3.wav,2,1,4,15,,,,,1,14,30,14,0,11,11,4,,,,,,,,,1,0.8670431220016326,,,011,001,2019_May_09_0917,MusicAffectPsychophysiology2019,3.0.5,59.54154581568938,
,,30MonoWAV/30MonoT3.wav,2,1,4,15,,,,,1,14,30,14,,,,,,,,,,,,,,,,,011,001,2019_May_09_0917,MusicAffectPsychophysiology2019,3.0.5,59.54154581568938,
To what extent did the music make you feel ,ACTIVE,30MonoWAV/30MonoF1.wav,1,2,2,1,,,,,1,15,31,0,0,0,0,9,,,4,2.2855885499993747,2,1.2847770129992568,2,1.1178202880000754,4,1.2682109029992716,,,011,001,2019_May_09_0917,MusicAffectPsychophysiology2019,3.0.5,59.54154581568938,
To what extent did the music make you feel ,ANXIOUS ,30MonoWAV/30MonoF1.wav,1,2,2,1,,,,,1,15,31,0,0,1,1,1,,,,,,,,,1,0.9679619099988486,,,011,001,2019_May_09_0917,MusicAffectPsychophysiology2019,3.0.5,59.54154581568938,
To what extent did the music make you feel ,TENDER,30MonoWAV/30MonoF1.wav,1,2,2,1,,,,,1,15,31,0,0,2,2,10,,,,,,,,,1,0.7195598010002868,,,011,001,2019_May_09_0917,MusicAffectPsychophysiology2019,3.0.5,59.54154581568938,
To what extent did the music make you feel ,SAD,30MonoWAV/30MonoF1.wav,1,2,2,1,,,,,1,15,31,0,0,3,3,0,,,,,,,,,1,0.7023538850007753,,,011,001,2019_May_09_0917,MusicAffectPsychophysiology2019,3.0.5,59.54154581568938,
To what extent did the music make you feel ,ASHAMED,30MonoWAV/30MonoF1.wav,1,2,2,1,,,,,1,15,31,0,0,4,4,4,,,,,,,,,1,0.551400324999122,,,011,001,2019_May_09_0917,MusicAffectPsychophysiology2019,3.0.5,59.54154581568938,
To what extent did the music make you feel ,SCARED,30MonoWAV/30MonoF1.wav,1,2,2,1,,,,,1,15,31,0,0,5,5,11,,,,,,,,,1,0.7330360660016595,,,011,001,2019_May_09_0917,MusicAffectPsychophysiology2019,3.0.5,59.54154581568938,
To what extent did the music make you feel ,GUILTY,30MonoWAV/30MonoF1.wav,1,2,2,1,,,,,1,15,31,0,0,6,6,5,,,,,,,,,1,0.6014408160008315,,,011,001,2019_May_09_0917,MusicAffectPsychophysiology2019,3.0.5,59.54154581568938,
To what extent did the music make you feel ,ALERT,30MonoWAV/30MonoF1.wav,1,2,2,1,,,,,1,15,31,0,0,7,7,8,,,,,,,,,4,0.6691146929988463,,,011,001,2019_May_09_0917,MusicAffectPsychophysiology2019,3.0.5,59.54154581568938,
To what extent did the music make you feel ,HAPPY,30MonoWAV/30MonoF1.wav,1,2,2,1,,,,,1,15,31,0,0,8,8,6,,,,,,,,,4,0.6012934190002852,,,011,001,2019_May_09_0917,MusicAffectPsychophysiology2019,3.0.5,59.54154581568938,
To what extent did the music make you feel ,EXCITED,30MonoWAV/30MonoF1.wav,1,2,2,1,,,,,1,15,31,0,0,9,9,7,,,,,,,,,4,0.6852413149972563,,,011,001,2019_May_09_0917,MusicAffectPsychophysiology2019,3.0.5,59.54154581568938,
To what extent did the music make you feel ,FRUSTRATED,30MonoWAV/30MonoF1.wav,1,2,2,1,,,,,1,15,31,0,0,10,10,3,,,,,,,,,1,0.5687596579991805,,,011,001,2019_May_09_0917,MusicAffectPsychophysiology2019,3.0.5,59.54154581568938,
To what extent did the music make you feel ,ANGRY,30MonoWAV/30MonoF1.wav,1,2,2,1,,,,,1,15,31,0,0,11,11,2,,,,,,,,,1,0.5692611410013342,,,011,001,2019_May_09_0917,MusicAffectPsychophysiology2019,3.0.5,59.54154581568938,
,,30MonoWAV/30MonoF1.wav,1,2,2,1,,,,,1,15,31,0,,,,,,,,,,,,,,,,,011,001,2019_May_09_0917,MusicAffectPsychophysiology2019,3.0.5,59.54154581568938,
,,,,,,,,,,,,,,,,,,,,,,,,,,,,,space,7.284084603001247,011,001,2019_May_09_0917,MusicAffectPsychophysiology2019,3.0.5,59.54154581568938,
