Instruction,Word,song,valence,arousal,affectcat,songmark,pracwords.thisRepN,pracwords.thisTrialN,pracwords.thisN,pracwords.thisIndex,songtrials.thisRepN,songtrials.thisTrialN,songtrials.thisN,songtrials.thisIndex,words.thisRepN,words.thisTrialN,words.thisN,words.thisIndex,begin.keys,begin.rt,arousalkey.keys,arousalkey.rt,valencekey.keys,valencekey.rt,likekey.keys,likekey.rt,WordResponse.keys,WordResponse.rt,key_resp_2.keys,key_resp_2.rt,participant,session,date,expName,psychopyVersion,frameRate,
,,,,,,,,,,,,,,,,,,,space,21.65354034900156,,,,,,,,,,,012,001,2019_May_09_1020,MusicAffectPsychophysiology2019,3.0.5,60.078135820353296,
,,,,,,,,,,,,,,,,,,,,,3,6.8677509970002575,,,,,,,,,012,001,2019_May_09_1020,MusicAffectPsychophysiology2019,3.0.5,60.078135820353296,
,,,,,,,,,,,,,,,,,,,,,,,4,2.669149113997264,,,,,,,012,001,2019_May_09_1020,MusicAffectPsychophysiology2019,3.0.5,60.078135820353296,
,,,,,,,,,,,,,,,,,,,,,,,,,2,2.7848078290007834,,,,,012,001,2019_May_09_1020,MusicAffectPsychophysiology2019,3.0.5,60.078135820353296,
To what extent did the music make you feel ,ACTIVE,,,,,,0,0,0,9,,,,,,,,,,,,,,,,,3,3.97090108699922,,,012,001,2019_May_09_1020,MusicAffectPsychophysiology2019,3.0.5,60.078135820353296,
To what extent did the music make you feel ,TENDER,,,,,,0,1,1,10,,,,,,,,,,,,,,,,,4,1.4495704030014167,,,012,001,2019_May_09_1020,MusicAffectPsychophysiology2019,3.0.5,60.078135820353296,
To what extent did the music make you feel ,EXCITED,,,,,,0,2,2,7,,,,,,,,,,,,,,,,,2,2.1027557250017708,,,012,001,2019_May_09_1020,MusicAffectPsychophysiology2019,3.0.5,60.078135820353296,
To what extent did the music make you feel ,SCARED,,,,,,0,3,3,11,,,,,,,,,,,,,,,,,1,2.049464014999103,,,012,001,2019_May_09_1020,MusicAffectPsychophysiology2019,3.0.5,60.078135820353296,
To what extent did the music make you feel ,FRUSTRATED,,,,,,0,4,4,3,,,,,,,,,,,,,,,,,1,1.5855263590019604,,,012,001,2019_May_09_1020,MusicAffectPsychophysiology2019,3.0.5,60.078135820353296,
To what extent did the music make you feel ,GUILTY,,,,,,0,5,5,5,,,,,,,,,,,,,,,,,1,0.7851493420021143,,,012,001,2019_May_09_1020,MusicAffectPsychophysiology2019,3.0.5,60.078135820353296,
To what extent did the music make you feel ,ALERT,,,,,,0,6,6,8,,,,,,,,,,,,,,,,,2,2.1841619959996024,,,012,001,2019_May_09_1020,MusicAffectPsychophysiology2019,3.0.5,60.078135820353296,
To what extent did the music make you feel ,ASHAMED,,,,,,0,7,7,4,,,,,,,,,,,,,,,,,1,1.2346563739993144,,,012,001,2019_May_09_1020,MusicAffectPsychophysiology2019,3.0.5,60.078135820353296,
To what extent did the music make you feel ,HAPPY,,,,,,0,8,8,6,,,,,,,,,,,,,,,,,4,1.4356140339987178,,,012,001,2019_May_09_1020,MusicAffectPsychophysiology2019,3.0.5,60.078135820353296,
To what extent did the music make you feel ,ANGRY,,,,,,0,9,9,2,,,,,,,,,,,,,,,,,1,2.7510673760007194,,,012,001,2019_May_09_1020,MusicAffectPsychophysiology2019,3.0.5,60.078135820353296,
To what extent did the music make you feel ,SAD,,,,,,0,10,10,0,,,,,,,,,,,,,,,,,1,0.5178455929999473,,,012,001,2019_May_09_1020,MusicAffectPsychophysiology2019,3.0.5,60.078135820353296,
To what extent did the music make you feel ,ANXIOUS ,,,,,,0,11,11,1,,,,,,,,,,,,,,,,,1,0.91848067400133,,,012,001,2019_May_09_1020,MusicAffectPsychophysiology2019,3.0.5,60.078135820353296,
To what extent did the music make you feel ,FRUSTRATED,30MonoWAV/30MonoS2.wav,1,1,3,10,,,,,0,0,0,9,0,0,0,3,,,2,4.685313713998767,1,3.000471426999866,4,2.3184976630000165,1,3.918422789000033,,,012,001,2019_May_09_1020,MusicAffectPsychophysiology2019,3.0.5,60.078135820353296,
To what extent did the music make you feel ,ANGRY,30MonoWAV/30MonoS2.wav,1,1,3,10,,,,,0,0,0,9,0,1,1,2,,,,,,,,,1,1.5687556739976571,,,012,001,2019_May_09_1020,MusicAffectPsychophysiology2019,3.0.5,60.078135820353296,
To what extent did the music make you feel ,EXCITED,30MonoWAV/30MonoS2.wav,1,1,3,10,,,,,0,0,0,9,0,2,2,7,,,,,,,,,1,1.3332370380012435,,,012,001,2019_May_09_1020,MusicAffectPsychophysiology2019,3.0.5,60.078135820353296,
To what extent did the music make you feel ,TENDER,30MonoWAV/30MonoS2.wav,1,1,3,10,,,,,0,0,0,9,0,3,3,10,,,,,,,,,1,1.4345627299990156,,,012,001,2019_May_09_1020,MusicAffectPsychophysiology2019,3.0.5,60.078135820353296,
To what extent did the music make you feel ,HAPPY,30MonoWAV/30MonoS2.wav,1,1,3,10,,,,,0,0,0,9,0,4,4,6,,,,,,,,,1,0.6683582600016962,,,012,001,2019_May_09_1020,MusicAffectPsychophysiology2019,3.0.5,60.078135820353296,
To what extent did the music make you feel ,SCARED,30MonoWAV/30MonoS2.wav,1,1,3,10,,,,,0,0,0,9,0,5,5,11,,,,,,,,,1,2.651967723002599,,,012,001,2019_May_09_1020,MusicAffectPsychophysiology2019,3.0.5,60.078135820353296,
To what extent did the music make you feel ,ANXIOUS ,30MonoWAV/30MonoS2.wav,1,1,3,10,,,,,0,0,0,9,0,6,6,1,,,,,,,,,1,0.7179936690008617,,,012,001,2019_May_09_1020,MusicAffectPsychophysiology2019,3.0.5,60.078135820353296,
To what extent did the music make you feel ,GUILTY,30MonoWAV/30MonoS2.wav,1,1,3,10,,,,,0,0,0,9,0,7,7,5,,,,,,,,,3,3.0019986379993497,,,012,001,2019_May_09_1020,MusicAffectPsychophysiology2019,3.0.5,60.078135820353296,
To what extent did the music make you feel ,ACTIVE,30MonoWAV/30MonoS2.wav,1,1,3,10,,,,,0,0,0,9,0,8,8,9,,,,,,,,,1,1.8672797409999475,,,012,001,2019_May_09_1020,MusicAffectPsychophysiology2019,3.0.5,60.078135820353296,
To what extent did the music make you feel ,ALERT,30MonoWAV/30MonoS2.wav,1,1,3,10,,,,,0,0,0,9,0,9,9,8,,,,,,,,,1,1.1862842369991995,,,012,001,2019_May_09_1020,MusicAffectPsychophysiology2019,3.0.5,60.078135820353296,
To what extent did the music make you feel ,SAD,30MonoWAV/30MonoS2.wav,1,1,3,10,,,,,0,0,0,9,0,10,10,0,,,,,,,,,4,1.5021322199972929,,,012,001,2019_May_09_1020,MusicAffectPsychophysiology2019,3.0.5,60.078135820353296,
To what extent did the music make you feel ,ASHAMED,30MonoWAV/30MonoS2.wav,1,1,3,10,,,,,0,0,0,9,0,11,11,4,,,,,,,,,4,2.4846707440010505,,,012,001,2019_May_09_1020,MusicAffectPsychophysiology2019,3.0.5,60.078135820353296,
,,30MonoWAV/30MonoS2.wav,1,1,3,10,,,,,0,0,0,9,,,,,,,,,,,,,,,,,012,001,2019_May_09_1020,MusicAffectPsychophysiology2019,3.0.5,60.078135820353296,
To what extent did the music make you feel ,HAPPY,30MonoWAV/30MonoF3.wav,1,2,2,3,,,,,0,1,1,2,0,0,0,6,,,4,2.518021765001322,2,3.7016241970013652,4,2.2012266870005988,2,2.401511397001741,,,012,001,2019_May_09_1020,MusicAffectPsychophysiology2019,3.0.5,60.078135820353296,
To what extent did the music make you feel ,ACTIVE,30MonoWAV/30MonoF3.wav,1,2,2,3,,,,,0,1,1,2,0,1,1,9,,,,,,,,,4,1.183656968001742,,,012,001,2019_May_09_1020,MusicAffectPsychophysiology2019,3.0.5,60.078135820353296,
To what extent did the music make you feel ,EXCITED,30MonoWAV/30MonoF3.wav,1,2,2,3,,,,,0,1,1,2,0,2,2,7,,,,,,,,,4,0.8853274379980576,,,012,001,2019_May_09_1020,MusicAffectPsychophysiology2019,3.0.5,60.078135820353296,
To what extent did the music make you feel ,TENDER,30MonoWAV/30MonoF3.wav,1,2,2,3,,,,,0,1,1,2,0,3,3,10,,,,,,,,,1,3.018229323999549,,,012,001,2019_May_09_1020,MusicAffectPsychophysiology2019,3.0.5,60.078135820353296,
To what extent did the music make you feel ,ANGRY,30MonoWAV/30MonoF3.wav,1,2,2,3,,,,,0,1,1,2,0,4,4,2,,,,,,,,,1,1.202563292998093,,,012,001,2019_May_09_1020,MusicAffectPsychophysiology2019,3.0.5,60.078135820353296,
To what extent did the music make you feel ,SAD,30MonoWAV/30MonoF3.wav,1,2,2,3,,,,,0,1,1,2,0,5,5,0,,,,,,,,,1,0.6174232869998377,,,012,001,2019_May_09_1020,MusicAffectPsychophysiology2019,3.0.5,60.078135820353296,
To what extent did the music make you feel ,GUILTY,30MonoWAV/30MonoF3.wav,1,2,2,3,,,,,0,1,1,2,0,6,6,5,,,,,,,,,1,1.2364372859992727,,,012,001,2019_May_09_1020,MusicAffectPsychophysiology2019,3.0.5,60.078135820353296,
To what extent did the music make you feel ,SCARED,30MonoWAV/30MonoF3.wav,1,2,2,3,,,,,0,1,1,2,0,7,7,11,,,,,,,,,4,1.1846764660003828,,,012,001,2019_May_09_1020,MusicAffectPsychophysiology2019,3.0.5,60.078135820353296,
To what extent did the music make you feel ,ASHAMED,30MonoWAV/30MonoF3.wav,1,2,2,3,,,,,0,1,1,2,0,8,8,4,,,,,,,,,1,1.3353294230000756,,,012,001,2019_May_09_1020,MusicAffectPsychophysiology2019,3.0.5,60.078135820353296,
To what extent did the music make you feel ,ALERT,30MonoWAV/30MonoF3.wav,1,2,2,3,,,,,0,1,1,2,0,9,9,8,,,,,,,,,4,0.939956518002873,,,012,001,2019_May_09_1020,MusicAffectPsychophysiology2019,3.0.5,60.078135820353296,
To what extent did the music make you feel ,FRUSTRATED,30MonoWAV/30MonoF3.wav,1,2,2,3,,,,,0,1,1,2,0,10,10,3,,,,,,,,,1,1.5203581159985333,,,012,001,2019_May_09_1020,MusicAffectPsychophysiology2019,3.0.5,60.078135820353296,
To what extent did the music make you feel ,ANXIOUS ,30MonoWAV/30MonoF3.wav,1,2,2,3,,,,,0,1,1,2,0,11,11,1,,,,,,,,,4,0.8865352519969747,,,012,001,2019_May_09_1020,MusicAffectPsychophysiology2019,3.0.5,60.078135820353296,
,,30MonoWAV/30MonoF3.wav,1,2,2,3,,,,,0,1,1,2,,,,,,,,,,,,,,,,,012,001,2019_May_09_1020,MusicAffectPsychophysiology2019,3.0.5,60.078135820353296,
To what extent did the music make you feel ,EXCITED,30MonoWAV/30MonoF2.wav,1,2,2,2,,,,,0,2,2,1,0,0,0,7,,,5,6.949402665002708,1,4.001140306001616,4,2.818960315998993,4,4.0674108839994005,,,012,001,2019_May_09_1020,MusicAffectPsychophysiology2019,3.0.5,60.078135820353296,
To what extent did the music make you feel ,TENDER,30MonoWAV/30MonoF2.wav,1,2,2,2,,,,,0,2,2,1,0,1,1,10,,,,,,,,,1,0.7351941750021069,,,012,001,2019_May_09_1020,MusicAffectPsychophysiology2019,3.0.5,60.078135820353296,
To what extent did the music make you feel ,ANXIOUS ,30MonoWAV/30MonoF2.wav,1,2,2,2,,,,,0,2,2,1,0,2,2,1,,,,,,,,,4,0.5848871460002556,,,012,001,2019_May_09_1020,MusicAffectPsychophysiology2019,3.0.5,60.078135820353296,
To what extent did the music make you feel ,SCARED,30MonoWAV/30MonoF2.wav,1,2,2,2,,,,,0,2,2,1,0,3,3,11,,,,,,,,,4,0.5841536459993222,,,012,001,2019_May_09_1020,MusicAffectPsychophysiology2019,3.0.5,60.078135820353296,
To what extent did the music make you feel ,ASHAMED,30MonoWAV/30MonoF2.wav,1,2,2,2,,,,,0,2,2,1,0,4,4,4,,,,,,,,,1,3.643627176999871,,,012,001,2019_May_09_1020,MusicAffectPsychophysiology2019,3.0.5,60.078135820353296,
To what extent did the music make you feel ,GUILTY,30MonoWAV/30MonoF2.wav,1,2,2,2,,,,,0,2,2,1,0,5,5,5,,,,,,,,,1,1.3542942290005158,,,012,001,2019_May_09_1020,MusicAffectPsychophysiology2019,3.0.5,60.078135820353296,
To what extent did the music make you feel ,ANGRY,30MonoWAV/30MonoF2.wav,1,2,2,2,,,,,0,2,2,1,0,6,6,2,,,,,,,,,1,0.9022738380008377,,,012,001,2019_May_09_1020,MusicAffectPsychophysiology2019,3.0.5,60.078135820353296,
To what extent did the music make you feel ,ACTIVE,30MonoWAV/30MonoF2.wav,1,2,2,2,,,,,0,2,2,1,0,7,7,9,,,,,,,,,4,0.7858934759969998,,,012,001,2019_May_09_1020,MusicAffectPsychophysiology2019,3.0.5,60.078135820353296,
To what extent did the music make you feel ,HAPPY,30MonoWAV/30MonoF2.wav,1,2,2,2,,,,,0,2,2,1,0,8,8,6,,,,,,,,,2,2.1736303439975018,,,012,001,2019_May_09_1020,MusicAffectPsychophysiology2019,3.0.5,60.078135820353296,
To what extent did the music make you feel ,SAD,30MonoWAV/30MonoF2.wav,1,2,2,2,,,,,0,2,2,1,0,9,9,0,,,,,,,,,1,1.032742829000199,,,012,001,2019_May_09_1020,MusicAffectPsychophysiology2019,3.0.5,60.078135820353296,
To what extent did the music make you feel ,FRUSTRATED,30MonoWAV/30MonoF2.wav,1,2,2,2,,,,,0,2,2,1,0,10,10,3,,,,,,,,,1,1.3031262869990314,,,012,001,2019_May_09_1020,MusicAffectPsychophysiology2019,3.0.5,60.078135820353296,
To what extent did the music make you feel ,ALERT,30MonoWAV/30MonoF2.wav,1,2,2,2,,,,,0,2,2,1,0,11,11,8,,,,,,,,,4,0.8854604990010557,,,012,001,2019_May_09_1020,MusicAffectPsychophysiology2019,3.0.5,60.078135820353296,
,,30MonoWAV/30MonoF2.wav,1,2,2,2,,,,,0,2,2,1,,,,,,,,,,,,,,,,,012,001,2019_May_09_1020,MusicAffectPsychophysiology2019,3.0.5,60.078135820353296,
To what extent did the music make you feel ,GUILTY,30MonoWAV/30MonoH4.wav,2,2,1,8,,,,,0,3,3,7,0,0,0,5,,,5,3.873133651999524,5,1.140961420001986,5,1.2522309550004138,1,1.2177373510021425,,,012,001,2019_May_09_1020,MusicAffectPsychophysiology2019,3.0.5,60.078135820353296,
To what extent did the music make you feel ,FRUSTRATED,30MonoWAV/30MonoH4.wav,2,2,1,8,,,,,0,3,3,7,0,1,1,3,,,,,,,,,1,0.4513547110000218,,,012,001,2019_May_09_1020,MusicAffectPsychophysiology2019,3.0.5,60.078135820353296,
To what extent did the music make you feel ,ASHAMED,30MonoWAV/30MonoH4.wav,2,2,1,8,,,,,0,3,3,7,0,2,2,4,,,,,,,,,1,0.45257097799913026,,,012,001,2019_May_09_1020,MusicAffectPsychophysiology2019,3.0.5,60.078135820353296,
To what extent did the music make you feel ,TENDER,30MonoWAV/30MonoH4.wav,2,2,1,8,,,,,0,3,3,7,0,3,3,10,,,,,,,,,1,0.43522431800010963,,,012,001,2019_May_09_1020,MusicAffectPsychophysiology2019,3.0.5,60.078135820353296,
To what extent did the music make you feel ,ACTIVE,30MonoWAV/30MonoH4.wav,2,2,1,8,,,,,0,3,3,7,0,4,4,9,,,,,,,,,5,2.2855617969980813,,,012,001,2019_May_09_1020,MusicAffectPsychophysiology2019,3.0.5,60.078135820353296,
To what extent did the music make you feel ,EXCITED,30MonoWAV/30MonoH4.wav,2,2,1,8,,,,,0,3,3,7,0,5,5,7,,,,,,,,,5,1.018890592000389,,,012,001,2019_May_09_1020,MusicAffectPsychophysiology2019,3.0.5,60.078135820353296,
To what extent did the music make you feel ,ANXIOUS ,30MonoWAV/30MonoH4.wav,2,2,1,8,,,,,0,3,3,7,0,6,6,1,,,,,,,,,1,1.951182509001228,,,012,001,2019_May_09_1020,MusicAffectPsychophysiology2019,3.0.5,60.078135820353296,
To what extent did the music make you feel ,ANGRY,30MonoWAV/30MonoH4.wav,2,2,1,8,,,,,0,3,3,7,0,7,7,2,,,,,,,,,1,0.6346770870004548,,,012,001,2019_May_09_1020,MusicAffectPsychophysiology2019,3.0.5,60.078135820353296,
To what extent did the music make you feel ,HAPPY,30MonoWAV/30MonoH4.wav,2,2,1,8,,,,,0,3,3,7,0,8,8,6,,,,,,,,,5,0.6510343970003305,,,012,001,2019_May_09_1020,MusicAffectPsychophysiology2019,3.0.5,60.078135820353296,
To what extent did the music make you feel ,SAD,30MonoWAV/30MonoH4.wav,2,2,1,8,,,,,0,3,3,7,0,9,9,0,,,,,,,,,1,2.867426553999394,,,012,001,2019_May_09_1020,MusicAffectPsychophysiology2019,3.0.5,60.078135820353296,
To what extent did the music make you feel ,SCARED,30MonoWAV/30MonoH4.wav,2,2,1,8,,,,,0,3,3,7,0,10,10,11,,,,,,,,,1,2.168645578996802,,,012,001,2019_May_09_1020,MusicAffectPsychophysiology2019,3.0.5,60.078135820353296,
To what extent did the music make you feel ,ALERT,30MonoWAV/30MonoH4.wav,2,2,1,8,,,,,0,3,3,7,0,11,11,8,,,,,,,,,3,3.967760226001701,,,012,001,2019_May_09_1020,MusicAffectPsychophysiology2019,3.0.5,60.078135820353296,
,,30MonoWAV/30MonoH4.wav,2,2,1,8,,,,,0,3,3,7,,,,,,,,,,,,,,,,,012,001,2019_May_09_1020,MusicAffectPsychophysiology2019,3.0.5,60.078135820353296,
To what extent did the music make you feel ,SAD,30MonoWAV/30MonoS1.wav,1,1,3,9,,,,,0,4,4,8,0,0,0,0,,,1,4.751513985997008,4,2.668713621002098,4,1.6178663999999117,4,5.834214086000429,,,012,001,2019_May_09_1020,MusicAffectPsychophysiology2019,3.0.5,60.078135820353296,
To what extent did the music make you feel ,ACTIVE,30MonoWAV/30MonoS1.wav,1,1,3,9,,,,,0,4,4,8,0,1,1,9,,,,,,,,,1,2.868664125999203,,,012,001,2019_May_09_1020,MusicAffectPsychophysiology2019,3.0.5,60.078135820353296,
To what extent did the music make you feel ,SCARED,30MonoWAV/30MonoS1.wav,1,1,3,9,,,,,0,4,4,8,0,2,2,11,,,,,,,,,2,3.168197192997468,,,012,001,2019_May_09_1020,MusicAffectPsychophysiology2019,3.0.5,60.078135820353296,
To what extent did the music make you feel ,ALERT,30MonoWAV/30MonoS1.wav,1,1,3,9,,,,,0,4,4,8,0,3,3,8,,,,,,,,,1,2.11923214700073,,,012,001,2019_May_09_1020,MusicAffectPsychophysiology2019,3.0.5,60.078135820353296,
To what extent did the music make you feel ,EXCITED,30MonoWAV/30MonoS1.wav,1,1,3,9,,,,,0,4,4,8,0,4,4,7,,,,,,,,,1,1.4681730679985776,,,012,001,2019_May_09_1020,MusicAffectPsychophysiology2019,3.0.5,60.078135820353296,
To what extent did the music make you feel ,ANGRY,30MonoWAV/30MonoS1.wav,1,1,3,9,,,,,0,4,4,8,0,5,5,2,,,,,,,,,1,0.9012876329979918,,,012,001,2019_May_09_1020,MusicAffectPsychophysiology2019,3.0.5,60.078135820353296,
To what extent did the music make you feel ,ANXIOUS ,30MonoWAV/30MonoS1.wav,1,1,3,9,,,,,0,4,4,8,0,6,6,1,,,,,,,,,2,1.5855784699997457,,,012,001,2019_May_09_1020,MusicAffectPsychophysiology2019,3.0.5,60.078135820353296,
To what extent did the music make you feel ,FRUSTRATED,30MonoWAV/30MonoS1.wav,1,1,3,9,,,,,0,4,4,8,0,7,7,3,,,,,,,,,1,2.8190473329996166,,,012,001,2019_May_09_1020,MusicAffectPsychophysiology2019,3.0.5,60.078135820353296,
To what extent did the music make you feel ,TENDER,30MonoWAV/30MonoS1.wav,1,1,3,9,,,,,0,4,4,8,0,8,8,10,,,,,,,,,4,1.7189895709998382,,,012,001,2019_May_09_1020,MusicAffectPsychophysiology2019,3.0.5,60.078135820353296,
To what extent did the music make you feel ,GUILTY,30MonoWAV/30MonoS1.wav,1,1,3,9,,,,,0,4,4,8,0,9,9,5,,,,,,,,,2,3.36787253300281,,,012,001,2019_May_09_1020,MusicAffectPsychophysiology2019,3.0.5,60.078135820353296,
To what extent did the music make you feel ,ASHAMED,30MonoWAV/30MonoS1.wav,1,1,3,9,,,,,0,4,4,8,0,10,10,4,,,,,,,,,2,2.4191199130000314,,,012,001,2019_May_09_1020,MusicAffectPsychophysiology2019,3.0.5,60.078135820353296,
To what extent did the music make you feel ,HAPPY,30MonoWAV/30MonoS1.wav,1,1,3,9,,,,,0,4,4,8,0,11,11,6,,,,,,,,,1,2.0852119449991733,,,012,001,2019_May_09_1020,MusicAffectPsychophysiology2019,3.0.5,60.078135820353296,
,,30MonoWAV/30MonoS1.wav,1,1,3,9,,,,,0,4,4,8,,,,,,,,,,,,,,,,,012,001,2019_May_09_1020,MusicAffectPsychophysiology2019,3.0.5,60.078135820353296,
To what extent did the music make you feel ,ACTIVE,30MonoWAV/30MonoF1.wav,1,2,2,1,,,,,0,5,5,0,0,0,0,9,,,4,5.267557241000759,1,1.5009974249987863,3,2.273557393000374,5,6.49542685599954,,,012,001,2019_May_09_1020,MusicAffectPsychophysiology2019,3.0.5,60.078135820353296,
To what extent did the music make you feel ,SCARED,30MonoWAV/30MonoF1.wav,1,2,2,1,,,,,0,5,5,0,0,1,1,11,,,,,,,,,4,2.4667296599982365,,,012,001,2019_May_09_1020,MusicAffectPsychophysiology2019,3.0.5,60.078135820353296,
To what extent did the music make you feel ,ASHAMED,30MonoWAV/30MonoF1.wav,1,2,2,1,,,,,0,5,5,0,0,2,2,4,,,,,,,,,1,2.852318824003305,,,012,001,2019_May_09_1020,MusicAffectPsychophysiology2019,3.0.5,60.078135820353296,
To what extent did the music make you feel ,HAPPY,30MonoWAV/30MonoF1.wav,1,2,2,1,,,,,0,5,5,0,0,3,3,6,,,,,,,,,4,2.001843745001679,,,012,001,2019_May_09_1020,MusicAffectPsychophysiology2019,3.0.5,60.078135820353296,
To what extent did the music make you feel ,SAD,30MonoWAV/30MonoF1.wav,1,2,2,1,,,,,0,5,5,0,0,4,4,0,,,,,,,,,1,2.251791049999156,,,012,001,2019_May_09_1020,MusicAffectPsychophysiology2019,3.0.5,60.078135820353296,
To what extent did the music make you feel ,ANXIOUS ,30MonoWAV/30MonoF1.wav,1,2,2,1,,,,,0,5,5,0,0,5,5,1,,,,,,,,,4,1.2849891299993033,,,012,001,2019_May_09_1020,MusicAffectPsychophysiology2019,3.0.5,60.078135820353296,
To what extent did the music make you feel ,TENDER,30MonoWAV/30MonoF1.wav,1,2,2,1,,,,,0,5,5,0,0,6,6,10,,,,,,,,,1,0.9022548450011527,,,012,001,2019_May_09_1020,MusicAffectPsychophysiology2019,3.0.5,60.078135820353296,
To what extent did the music make you feel ,ANGRY,30MonoWAV/30MonoF1.wav,1,2,2,1,,,,,0,5,5,0,0,7,7,2,,,,,,,,,4,1.11933326000144,,,012,001,2019_May_09_1020,MusicAffectPsychophysiology2019,3.0.5,60.078135820353296,
To what extent did the music make you feel ,EXCITED,30MonoWAV/30MonoF1.wav,1,2,2,1,,,,,0,5,5,0,0,8,8,7,,,,,,,,,4,1.8157765449977887,,,012,001,2019_May_09_1020,MusicAffectPsychophysiology2019,3.0.5,60.078135820353296,
To what extent did the music make you feel ,GUILTY,30MonoWAV/30MonoF1.wav,1,2,2,1,,,,,0,5,5,0,0,9,9,5,,,,,,,,,1,2.136728358000255,,,012,001,2019_May_09_1020,MusicAffectPsychophysiology2019,3.0.5,60.078135820353296,
To what extent did the music make you feel ,FRUSTRATED,30MonoWAV/30MonoF1.wav,1,2,2,1,,,,,0,5,5,0,0,10,10,3,,,,,,,,,2,2.285368318996916,,,012,001,2019_May_09_1020,MusicAffectPsychophysiology2019,3.0.5,60.078135820353296,
To what extent did the music make you feel ,ALERT,30MonoWAV/30MonoF1.wav,1,2,2,1,,,,,0,5,5,0,0,11,11,8,,,,,,,,,4,1.3854445569995733,,,012,001,2019_May_09_1020,MusicAffectPsychophysiology2019,3.0.5,60.078135820353296,
,,30MonoWAV/30MonoF1.wav,1,2,2,1,,,,,0,5,5,0,,,,,,,,,,,,,,,,,012,001,2019_May_09_1020,MusicAffectPsychophysiology2019,3.0.5,60.078135820353296,
To what extent did the music make you feel ,GUILTY,30MonoWAV/30MonoT4.wav,2,1,4,16,,,,,0,6,6,15,0,0,0,5,,,3,4.323421838998911,4,1.9535073730003205,4,1.6179923310010054,1,2.3675353239996184,,,012,001,2019_May_09_1020,MusicAffectPsychophysiology2019,3.0.5,60.078135820353296,
To what extent did the music make you feel ,TENDER,30MonoWAV/30MonoT4.wav,2,1,4,16,,,,,0,6,6,15,0,1,1,10,,,,,,,,,4,1.0687362470016524,,,012,001,2019_May_09_1020,MusicAffectPsychophysiology2019,3.0.5,60.078135820353296,
To what extent did the music make you feel ,FRUSTRATED,30MonoWAV/30MonoT4.wav,2,1,4,16,,,,,0,6,6,15,0,2,2,3,,,,,,,,,1,2.401478780000616,,,012,001,2019_May_09_1020,MusicAffectPsychophysiology2019,3.0.5,60.078135820353296,
To what extent did the music make you feel ,ANXIOUS ,30MonoWAV/30MonoT4.wav,2,1,4,16,,,,,0,6,6,15,0,3,3,1,,,,,,,,,1,0.6348174259983352,,,012,001,2019_May_09_1020,MusicAffectPsychophysiology2019,3.0.5,60.078135820353296,
To what extent did the music make you feel ,HAPPY,30MonoWAV/30MonoT4.wav,2,1,4,16,,,,,0,6,6,15,0,4,4,6,,,,,,,,,4,1.1011144160002004,,,012,001,2019_May_09_1020,MusicAffectPsychophysiology2019,3.0.5,60.078135820353296,
To what extent did the music make you feel ,ACTIVE,30MonoWAV/30MonoT4.wav,2,1,4,16,,,,,0,6,6,15,0,5,5,9,,,,,,,,,4,2.5674306490000163,,,012,001,2019_May_09_1020,MusicAffectPsychophysiology2019,3.0.5,60.078135820353296,
To what extent did the music make you feel ,ASHAMED,30MonoWAV/30MonoT4.wav,2,1,4,16,,,,,0,6,6,15,0,6,6,4,,,,,,,,,1,1.4030259020000813,,,012,001,2019_May_09_1020,MusicAffectPsychophysiology2019,3.0.5,60.078135820353296,
To what extent did the music make you feel ,ALERT,30MonoWAV/30MonoT4.wav,2,1,4,16,,,,,0,6,6,15,0,7,7,8,,,,,,,,,2,1.585554844001308,,,012,001,2019_May_09_1020,MusicAffectPsychophysiology2019,3.0.5,60.078135820353296,
To what extent did the music make you feel ,ANGRY,30MonoWAV/30MonoT4.wav,2,1,4,16,,,,,0,6,6,15,0,8,8,2,,,,,,,,,1,2.199653343999671,,,012,001,2019_May_09_1020,MusicAffectPsychophysiology2019,3.0.5,60.078135820353296,
To what extent did the music make you feel ,SCARED,30MonoWAV/30MonoT4.wav,2,1,4,16,,,,,0,6,6,15,0,9,9,11,,,,,,,,,1,0.7667788049984665,,,012,001,2019_May_09_1020,MusicAffectPsychophysiology2019,3.0.5,60.078135820353296,
To what extent did the music make you feel ,EXCITED,30MonoWAV/30MonoT4.wav,2,1,4,16,,,,,0,6,6,15,0,10,10,7,,,,,,,,,3,1.6682481780007947,,,012,001,2019_May_09_1020,MusicAffectPsychophysiology2019,3.0.5,60.078135820353296,
To what extent did the music make you feel ,SAD,30MonoWAV/30MonoT4.wav,2,1,4,16,,,,,0,6,6,15,0,11,11,0,,,,,,,,,1,1.3348795769998105,,,012,001,2019_May_09_1020,MusicAffectPsychophysiology2019,3.0.5,60.078135820353296,
,,30MonoWAV/30MonoT4.wav,2,1,4,16,,,,,0,6,6,15,,,,,,,,,,,,,,,,,012,001,2019_May_09_1020,MusicAffectPsychophysiology2019,3.0.5,60.078135820353296,
To what extent did the music make you feel ,ANGRY,30MonoWAV/30MonoS3.wav,1,1,3,11,,,,,0,7,7,10,0,0,0,2,,,1,5.572995851001906,1,1.470243602001574,4,1.6530181180023646,2,5.858137015999091,,,012,001,2019_May_09_1020,MusicAffectPsychophysiology2019,3.0.5,60.078135820353296,
To what extent did the music make you feel ,ASHAMED,30MonoWAV/30MonoS3.wav,1,1,3,11,,,,,0,7,7,10,0,1,1,4,,,,,,,,,2,1.8693269540017354,,,012,001,2019_May_09_1020,MusicAffectPsychophysiology2019,3.0.5,60.078135820353296,
To what extent did the music make you feel ,ACTIVE,30MonoWAV/30MonoS3.wav,1,1,3,11,,,,,0,7,7,10,0,2,2,9,,,,,,,,,1,2.3513848149996193,,,012,001,2019_May_09_1020,MusicAffectPsychophysiology2019,3.0.5,60.078135820353296,
To what extent did the music make you feel ,SCARED,30MonoWAV/30MonoS3.wav,1,1,3,11,,,,,0,7,7,10,0,3,3,11,,,,,,,,,2,1.735218628000439,,,012,001,2019_May_09_1020,MusicAffectPsychophysiology2019,3.0.5,60.078135820353296,
To what extent did the music make you feel ,GUILTY,30MonoWAV/30MonoS3.wav,1,1,3,11,,,,,0,7,7,10,0,4,4,5,,,,,,,,,4,2.2348067789971537,,,012,001,2019_May_09_1020,MusicAffectPsychophysiology2019,3.0.5,60.078135820353296,
To what extent did the music make you feel ,ANXIOUS ,30MonoWAV/30MonoS3.wav,1,1,3,11,,,,,0,7,7,10,0,5,5,1,,,,,,,,,1,1.168144426002982,,,012,001,2019_May_09_1020,MusicAffectPsychophysiology2019,3.0.5,60.078135820353296,
To what extent did the music make you feel ,TENDER,30MonoWAV/30MonoS3.wav,1,1,3,11,,,,,0,7,7,10,0,6,6,10,,,,,,,,,3,2.5676609030015243,,,012,001,2019_May_09_1020,MusicAffectPsychophysiology2019,3.0.5,60.078135820353296,
To what extent did the music make you feel ,EXCITED,30MonoWAV/30MonoS3.wav,1,1,3,11,,,,,0,7,7,10,0,7,7,7,,,,,,,,,1,1.1004121520018089,,,012,001,2019_May_09_1020,MusicAffectPsychophysiology2019,3.0.5,60.078135820353296,
To what extent did the music make you feel ,FRUSTRATED,30MonoWAV/30MonoS3.wav,1,1,3,11,,,,,0,7,7,10,0,8,8,3,,,,,,,,,1,2.251999086998694,,,012,001,2019_May_09_1020,MusicAffectPsychophysiology2019,3.0.5,60.078135820353296,
To what extent did the music make you feel ,HAPPY,30MonoWAV/30MonoS3.wav,1,1,3,11,,,,,0,7,7,10,0,9,9,6,,,,,,,,,1,0.9335391709973919,,,012,001,2019_May_09_1020,MusicAffectPsychophysiology2019,3.0.5,60.078135820353296,
To what extent did the music make you feel ,SAD,30MonoWAV/30MonoS3.wav,1,1,3,11,,,,,0,7,7,10,0,10,10,0,,,,,,,,,5,1.6001157630016678,,,012,001,2019_May_09_1020,MusicAffectPsychophysiology2019,3.0.5,60.078135820353296,
To what extent did the music make you feel ,ALERT,30MonoWAV/30MonoS3.wav,1,1,3,11,,,,,0,7,7,10,0,11,11,8,,,,,,,,,2,4.251250793997315,,,012,001,2019_May_09_1020,MusicAffectPsychophysiology2019,3.0.5,60.078135820353296,
,,30MonoWAV/30MonoS3.wav,1,1,3,11,,,,,0,7,7,10,,,,,,,,,,,,,,,,,012,001,2019_May_09_1020,MusicAffectPsychophysiology2019,3.0.5,60.078135820353296,
To what extent did the music make you feel ,ALERT,30MonoWAV/30MonoH1.wav,2,2,1,5,,,,,0,8,8,4,0,0,0,8,,,5,4.087779841000156,5,1.8037061810027808,5,1.8371632390008017,5,2.2710973329994886,,,012,001,2019_May_09_1020,MusicAffectPsychophysiology2019,3.0.5,60.078135820353296,
To what extent did the music make you feel ,SCARED,30MonoWAV/30MonoH1.wav,2,2,1,5,,,,,0,8,8,4,0,1,1,11,,,,,,,,,1,2.424299135000183,,,012,001,2019_May_09_1020,MusicAffectPsychophysiology2019,3.0.5,60.078135820353296,
To what extent did the music make you feel ,FRUSTRATED,30MonoWAV/30MonoH1.wav,2,2,1,5,,,,,0,8,8,4,0,2,2,3,,,,,,,,,1,0.7524355980021937,,,012,001,2019_May_09_1020,MusicAffectPsychophysiology2019,3.0.5,60.078135820353296,
To what extent did the music make you feel ,ANXIOUS ,30MonoWAV/30MonoH1.wav,2,2,1,5,,,,,0,8,8,4,0,3,3,1,,,,,,,,,1,0.46769736500209547,,,012,001,2019_May_09_1020,MusicAffectPsychophysiology2019,3.0.5,60.078135820353296,
To what extent did the music make you feel ,EXCITED,30MonoWAV/30MonoH1.wav,2,2,1,5,,,,,0,8,8,4,0,4,4,7,,,,,,,,,5,1.2173310020007193,,,012,001,2019_May_09_1020,MusicAffectPsychophysiology2019,3.0.5,60.078135820353296,
To what extent did the music make you feel ,TENDER,30MonoWAV/30MonoH1.wav,2,2,1,5,,,,,0,8,8,4,0,5,5,10,,,,,,,,,2,4.484816744999989,,,012,001,2019_May_09_1020,MusicAffectPsychophysiology2019,3.0.5,60.078135820353296,
To what extent did the music make you feel ,ANGRY,30MonoWAV/30MonoH1.wav,2,2,1,5,,,,,0,8,8,4,0,6,6,2,,,,,,,,,1,2.018693057998462,,,012,001,2019_May_09_1020,MusicAffectPsychophysiology2019,3.0.5,60.078135820353296,
To what extent did the music make you feel ,ASHAMED,30MonoWAV/30MonoH1.wav,2,2,1,5,,,,,0,8,8,4,0,7,7,4,,,,,,,,,1,0.618181325000478,,,012,001,2019_May_09_1020,MusicAffectPsychophysiology2019,3.0.5,60.078135820353296,
To what extent did the music make you feel ,SAD,30MonoWAV/30MonoH1.wav,2,2,1,5,,,,,0,8,8,4,0,8,8,0,,,,,,,,,1,0.5353538219969778,,,012,001,2019_May_09_1020,MusicAffectPsychophysiology2019,3.0.5,60.078135820353296,
To what extent did the music make you feel ,ACTIVE,30MonoWAV/30MonoH1.wav,2,2,1,5,,,,,0,8,8,4,0,9,9,9,,,,,,,,,5,0.8686098130019673,,,012,001,2019_May_09_1020,MusicAffectPsychophysiology2019,3.0.5,60.078135820353296,
To what extent did the music make you feel ,HAPPY,30MonoWAV/30MonoH1.wav,2,2,1,5,,,,,0,8,8,4,0,10,10,6,,,,,,,,,5,0.7689942039978632,,,012,001,2019_May_09_1020,MusicAffectPsychophysiology2019,3.0.5,60.078135820353296,
To what extent did the music make you feel ,GUILTY,30MonoWAV/30MonoH1.wav,2,2,1,5,,,,,0,8,8,4,0,11,11,5,,,,,,,,,1,3.217548304997763,,,012,001,2019_May_09_1020,MusicAffectPsychophysiology2019,3.0.5,60.078135820353296,
,,30MonoWAV/30MonoH1.wav,2,2,1,5,,,,,0,8,8,4,,,,,,,,,,,,,,,,,012,001,2019_May_09_1020,MusicAffectPsychophysiology2019,3.0.5,60.078135820353296,
To what extent did the music make you feel ,SAD,30MonoWAV/30MonoS4.wav,1,1,3,12,,,,,0,9,9,11,0,0,0,0,,,1,3.1012295709988393,1,1.8185274150018813,5,1.5677851699983876,5,3.8006946989989956,,,012,001,2019_May_09_1020,MusicAffectPsychophysiology2019,3.0.5,60.078135820353296,
To what extent did the music make you feel ,TENDER,30MonoWAV/30MonoS4.wav,1,1,3,12,,,,,0,9,9,11,0,1,1,10,,,,,,,,,5,0.7517681699973764,,,012,001,2019_May_09_1020,MusicAffectPsychophysiology2019,3.0.5,60.078135820353296,
To what extent did the music make you feel ,FRUSTRATED,30MonoWAV/30MonoS4.wav,1,1,3,12,,,,,0,9,9,11,0,2,2,3,,,,,,,,,1,2.934722646998125,,,012,001,2019_May_09_1020,MusicAffectPsychophysiology2019,3.0.5,60.078135820353296,
To what extent did the music make you feel ,SCARED,30MonoWAV/30MonoS4.wav,1,1,3,12,,,,,0,9,9,11,0,3,3,11,,,,,,,,,1,0.7332624090013269,,,012,001,2019_May_09_1020,MusicAffectPsychophysiology2019,3.0.5,60.078135820353296,
To what extent did the music make you feel ,ALERT,30MonoWAV/30MonoS4.wav,1,1,3,12,,,,,0,9,9,11,0,4,4,8,,,,,,,,,1,2.351781484998355,,,012,001,2019_May_09_1020,MusicAffectPsychophysiology2019,3.0.5,60.078135820353296,
To what extent did the music make you feel ,ACTIVE,30MonoWAV/30MonoS4.wav,1,1,3,12,,,,,0,9,9,11,0,5,5,9,,,,,,,,,1,0.7187082509990432,,,012,001,2019_May_09_1020,MusicAffectPsychophysiology2019,3.0.5,60.078135820353296,
To what extent did the music make you feel ,EXCITED,30MonoWAV/30MonoS4.wav,1,1,3,12,,,,,0,9,9,11,0,6,6,7,,,,,,,,,1,0.6998369049979374,,,012,001,2019_May_09_1020,MusicAffectPsychophysiology2019,3.0.5,60.078135820353296,
To what extent did the music make you feel ,ANXIOUS ,30MonoWAV/30MonoS4.wav,1,1,3,12,,,,,0,9,9,11,0,7,7,1,,,,,,,,,1,0.7018876129986893,,,012,001,2019_May_09_1020,MusicAffectPsychophysiology2019,3.0.5,60.078135820353296,
To what extent did the music make you feel ,HAPPY,30MonoWAV/30MonoS4.wav,1,1,3,12,,,,,0,9,9,11,0,8,8,6,,,,,,,,,1,0.601778459000343,,,012,001,2019_May_09_1020,MusicAffectPsychophysiology2019,3.0.5,60.078135820353296,
To what extent did the music make you feel ,ANGRY,30MonoWAV/30MonoS4.wav,1,1,3,12,,,,,0,9,9,11,0,9,9,2,,,,,,,,,1,0.6017999809992034,,,012,001,2019_May_09_1020,MusicAffectPsychophysiology2019,3.0.5,60.078135820353296,
To what extent did the music make you feel ,GUILTY,30MonoWAV/30MonoS4.wav,1,1,3,12,,,,,0,9,9,11,0,10,10,5,,,,,,,,,5,1.4021566110022832,,,012,001,2019_May_09_1020,MusicAffectPsychophysiology2019,3.0.5,60.078135820353296,
To what extent did the music make you feel ,ASHAMED,30MonoWAV/30MonoS4.wav,1,1,3,12,,,,,0,9,9,11,0,11,11,4,,,,,,,,,5,1.832052346002456,,,012,001,2019_May_09_1020,MusicAffectPsychophysiology2019,3.0.5,60.078135820353296,
,,30MonoWAV/30MonoS4.wav,1,1,3,12,,,,,0,9,9,11,,,,,,,,,,,,,,,,,012,001,2019_May_09_1020,MusicAffectPsychophysiology2019,3.0.5,60.078135820353296,
To what extent did the music make you feel ,ANGRY,30MonoWAV/30MonoT3.wav,2,1,4,15,,,,,0,10,10,14,0,0,0,2,,,3,4.85158003199831,4,2.5690639660024317,5,1.3681327310005145,1,1.801834083002177,,,012,001,2019_May_09_1020,MusicAffectPsychophysiology2019,3.0.5,60.078135820353296,
To what extent did the music make you feel ,SCARED,30MonoWAV/30MonoT3.wav,2,1,4,15,,,,,0,10,10,14,0,1,1,11,,,,,,,,,1,0.8016937659995165,,,012,001,2019_May_09_1020,MusicAffectPsychophysiology2019,3.0.5,60.078135820353296,
To what extent did the music make you feel ,SAD,30MonoWAV/30MonoT3.wav,2,1,4,15,,,,,0,10,10,14,0,2,2,0,,,,,,,,,1,0.6336797260009916,,,012,001,2019_May_09_1020,MusicAffectPsychophysiology2019,3.0.5,60.078135820353296,
To what extent did the music make you feel ,HAPPY,30MonoWAV/30MonoT3.wav,2,1,4,15,,,,,0,10,10,14,0,3,3,6,,,,,,,,,4,1.549704732002283,,,012,001,2019_May_09_1020,MusicAffectPsychophysiology2019,3.0.5,60.078135820353296,
To what extent did the music make you feel ,ANXIOUS ,30MonoWAV/30MonoT3.wav,2,1,4,15,,,,,0,10,10,14,0,4,4,1,,,,,,,,,1,1.4171929910007748,,,012,001,2019_May_09_1020,MusicAffectPsychophysiology2019,3.0.5,60.078135820353296,
To what extent did the music make you feel ,EXCITED,30MonoWAV/30MonoT3.wav,2,1,4,15,,,,,0,10,10,14,0,5,5,7,,,,,,,,,2,2.718252375998418,,,012,001,2019_May_09_1020,MusicAffectPsychophysiology2019,3.0.5,60.078135820353296,
To what extent did the music make you feel ,ASHAMED,30MonoWAV/30MonoT3.wav,2,1,4,15,,,,,0,10,10,14,0,6,6,4,,,,,,,,,1,2.017228772998351,,,012,001,2019_May_09_1020,MusicAffectPsychophysiology2019,3.0.5,60.078135820353296,
To what extent did the music make you feel ,GUILTY,30MonoWAV/30MonoT3.wav,2,1,4,15,,,,,0,10,10,14,0,7,7,5,,,,,,,,,1,0.5514333299979626,,,012,001,2019_May_09_1020,MusicAffectPsychophysiology2019,3.0.5,60.078135820353296,
To what extent did the music make you feel ,FRUSTRATED,30MonoWAV/30MonoT3.wav,2,1,4,15,,,,,0,10,10,14,0,8,8,3,,,,,,,,,1,0.6184414649978862,,,012,001,2019_May_09_1020,MusicAffectPsychophysiology2019,3.0.5,60.078135820353296,
To what extent did the music make you feel ,TENDER,30MonoWAV/30MonoT3.wav,2,1,4,15,,,,,0,10,10,14,0,9,9,10,,,,,,,,,4,1.251251827001397,,,012,001,2019_May_09_1020,MusicAffectPsychophysiology2019,3.0.5,60.078135820353296,
To what extent did the music make you feel ,ACTIVE,30MonoWAV/30MonoT3.wav,2,1,4,15,,,,,0,10,10,14,0,10,10,9,,,,,,,,,2,2.382352976997936,,,012,001,2019_May_09_1020,MusicAffectPsychophysiology2019,3.0.5,60.078135820353296,
To what extent did the music make you feel ,ALERT,30MonoWAV/30MonoT3.wav,2,1,4,15,,,,,0,10,10,14,0,11,11,8,,,,,,,,,2,2.4193711360021553,,,012,001,2019_May_09_1020,MusicAffectPsychophysiology2019,3.0.5,60.078135820353296,
,,30MonoWAV/30MonoT3.wav,2,1,4,15,,,,,0,10,10,14,,,,,,,,,,,,,,,,,012,001,2019_May_09_1020,MusicAffectPsychophysiology2019,3.0.5,60.078135820353296,
To what extent did the music make you feel ,EXCITED,30MonoWAV/30MonoT2.wav,2,1,4,14,,,,,0,11,11,13,0,0,0,7,,,3,3.8432957340010034,3,3.4841736470007163,3,4.151413940999191,2,3.4691661430006207,,,012,001,2019_May_09_1020,MusicAffectPsychophysiology2019,3.0.5,60.078135820353296,
To what extent did the music make you feel ,SCARED,30MonoWAV/30MonoT2.wav,2,1,4,14,,,,,0,11,11,13,0,1,1,11,,,,,,,,,1,1.185052632001316,,,012,001,2019_May_09_1020,MusicAffectPsychophysiology2019,3.0.5,60.078135820353296,
To what extent did the music make you feel ,ANGRY,30MonoWAV/30MonoT2.wav,2,1,4,14,,,,,0,11,11,13,0,2,2,2,,,,,,,,,1,1.0836411759992188,,,012,001,2019_May_09_1020,MusicAffectPsychophysiology2019,3.0.5,60.078135820353296,
To what extent did the music make you feel ,SAD,30MonoWAV/30MonoT2.wav,2,1,4,14,,,,,0,11,11,13,0,3,3,0,,,,,,,,,1,0.6683676540014858,,,012,001,2019_May_09_1020,MusicAffectPsychophysiology2019,3.0.5,60.078135820353296,
To what extent did the music make you feel ,ACTIVE,30MonoWAV/30MonoT2.wav,2,1,4,14,,,,,0,11,11,13,0,4,4,9,,,,,,,,,2,3.067274647000886,,,012,001,2019_May_09_1020,MusicAffectPsychophysiology2019,3.0.5,60.078135820353296,
To what extent did the music make you feel ,ALERT,30MonoWAV/30MonoT2.wav,2,1,4,14,,,,,0,11,11,13,0,5,5,8,,,,,,,,,2,1.101291378003225,,,012,001,2019_May_09_1020,MusicAffectPsychophysiology2019,3.0.5,60.078135820353296,
To what extent did the music make you feel ,GUILTY,30MonoWAV/30MonoT2.wav,2,1,4,14,,,,,0,11,11,13,0,6,6,5,,,,,,,,,1,1.6183364849966893,,,012,001,2019_May_09_1020,MusicAffectPsychophysiology2019,3.0.5,60.078135820353296,
To what extent did the music make you feel ,ANXIOUS ,30MonoWAV/30MonoT2.wav,2,1,4,14,,,,,0,11,11,13,0,7,7,1,,,,,,,,,1,0.636259513998084,,,012,001,2019_May_09_1020,MusicAffectPsychophysiology2019,3.0.5,60.078135820353296,
To what extent did the music make you feel ,TENDER,30MonoWAV/30MonoT2.wav,2,1,4,14,,,,,0,11,11,13,0,8,8,10,,,,,,,,,1,0.4684581180008536,,,012,001,2019_May_09_1020,MusicAffectPsychophysiology2019,3.0.5,60.078135820353296,
To what extent did the music make you feel ,FRUSTRATED,30MonoWAV/30MonoT2.wav,2,1,4,14,,,,,0,11,11,13,0,9,9,3,,,,,,,,,1,2.234249072000239,,,012,001,2019_May_09_1020,MusicAffectPsychophysiology2019,3.0.5,60.078135820353296,
To what extent did the music make you feel ,ASHAMED,30MonoWAV/30MonoT2.wav,2,1,4,14,,,,,0,11,11,13,0,10,10,4,,,,,,,,,1,3.235814923998987,,,012,001,2019_May_09_1020,MusicAffectPsychophysiology2019,3.0.5,60.078135820353296,
To what extent did the music make you feel ,HAPPY,30MonoWAV/30MonoT2.wav,2,1,4,14,,,,,0,11,11,13,0,11,11,6,,,,,,,,,4,2.6339706580001803,,,012,001,2019_May_09_1020,MusicAffectPsychophysiology2019,3.0.5,60.078135820353296,
,,30MonoWAV/30MonoT2.wav,2,1,4,14,,,,,0,11,11,13,,,,,,,,,,,,,,,,,012,001,2019_May_09_1020,MusicAffectPsychophysiology2019,3.0.5,60.078135820353296,
To what extent did the music make you feel ,SCARED,30MonoWAV/30MonoT1.wav,2,1,4,13,,,,,0,12,12,12,0,0,0,11,,,1,3.9101853350002784,3,3.1887267390011402,3,1.4881554559979122,1,1.7017014779994497,,,012,001,2019_May_09_1020,MusicAffectPsychophysiology2019,3.0.5,60.078135820353296,
To what extent did the music make you feel ,SAD,30MonoWAV/30MonoT1.wav,2,1,4,13,,,,,0,12,12,12,0,1,1,0,,,,,,,,,1,0.6185265329986578,,,012,001,2019_May_09_1020,MusicAffectPsychophysiology2019,3.0.5,60.078135820353296,
To what extent did the music make you feel ,ANXIOUS ,30MonoWAV/30MonoT1.wav,2,1,4,13,,,,,0,12,12,12,0,2,2,1,,,,,,,,,1,0.6514117040023848,,,012,001,2019_May_09_1020,MusicAffectPsychophysiology2019,3.0.5,60.078135820353296,
To what extent did the music make you feel ,GUILTY,30MonoWAV/30MonoT1.wav,2,1,4,13,,,,,0,12,12,12,0,3,3,5,,,,,,,,,1,0.6857627630015486,,,012,001,2019_May_09_1020,MusicAffectPsychophysiology2019,3.0.5,60.078135820353296,
To what extent did the music make you feel ,ANGRY,30MonoWAV/30MonoT1.wav,2,1,4,13,,,,,0,12,12,12,0,4,4,2,,,,,,,,,1,0.6514934760016331,,,012,001,2019_May_09_1020,MusicAffectPsychophysiology2019,3.0.5,60.078135820353296,
To what extent did the music make you feel ,ALERT,30MonoWAV/30MonoT1.wav,2,1,4,13,,,,,0,12,12,12,0,5,5,8,,,,,,,,,2,1.7346844479980064,,,012,001,2019_May_09_1020,MusicAffectPsychophysiology2019,3.0.5,60.078135820353296,
To what extent did the music make you feel ,EXCITED,30MonoWAV/30MonoT1.wav,2,1,4,13,,,,,0,12,12,12,0,6,6,7,,,,,,,,,2,1.3849387760019454,,,012,001,2019_May_09_1020,MusicAffectPsychophysiology2019,3.0.5,60.078135820353296,
To what extent did the music make you feel ,FRUSTRATED,30MonoWAV/30MonoT1.wav,2,1,4,13,,,,,0,12,12,12,0,7,7,3,,,,,,,,,1,1.802015877001395,,,012,001,2019_May_09_1020,MusicAffectPsychophysiology2019,3.0.5,60.078135820353296,
To what extent did the music make you feel ,TENDER,30MonoWAV/30MonoT1.wav,2,1,4,13,,,,,0,12,12,12,0,8,8,10,,,,,,,,,2,2.901163185997575,,,012,001,2019_May_09_1020,MusicAffectPsychophysiology2019,3.0.5,60.078135820353296,
To what extent did the music make you feel ,ASHAMED,30MonoWAV/30MonoT1.wav,2,1,4,13,,,,,0,12,12,12,0,9,9,4,,,,,,,,,1,1.551146224999684,,,012,001,2019_May_09_1020,MusicAffectPsychophysiology2019,3.0.5,60.078135820353296,
To what extent did the music make you feel ,ACTIVE,30MonoWAV/30MonoT1.wav,2,1,4,13,,,,,0,12,12,12,0,10,10,9,,,,,,,,,2,1.0663174020010047,,,012,001,2019_May_09_1020,MusicAffectPsychophysiology2019,3.0.5,60.078135820353296,
To what extent did the music make you feel ,HAPPY,30MonoWAV/30MonoT1.wav,2,1,4,13,,,,,0,12,12,12,0,11,11,6,,,,,,,,,4,1.0190898290020414,,,012,001,2019_May_09_1020,MusicAffectPsychophysiology2019,3.0.5,60.078135820353296,
,,30MonoWAV/30MonoT1.wav,2,1,4,13,,,,,0,12,12,12,,,,,,,,,,,,,,,,,012,001,2019_May_09_1020,MusicAffectPsychophysiology2019,3.0.5,60.078135820353296,
To what extent did the music make you feel ,ASHAMED,30MonoWAV/30MonoH3.wav,2,2,1,7,,,,,0,13,13,6,0,0,0,4,,,4,3.2187797379992844,5,3.1513393229979556,4,1.4016467619985633,1,2.117305028001283,,,012,001,2019_May_09_1020,MusicAffectPsychophysiology2019,3.0.5,60.078135820353296,
To what extent did the music make you feel ,ANGRY,30MonoWAV/30MonoH3.wav,2,2,1,7,,,,,0,13,13,6,0,1,1,2,,,,,,,,,1,0.9687241330029792,,,012,001,2019_May_09_1020,MusicAffectPsychophysiology2019,3.0.5,60.078135820353296,
To what extent did the music make you feel ,HAPPY,30MonoWAV/30MonoH3.wav,2,2,1,7,,,,,0,13,13,6,0,2,2,6,,,,,,,,,4,1.2851724329993885,,,012,001,2019_May_09_1020,MusicAffectPsychophysiology2019,3.0.5,60.078135820353296,
To what extent did the music make you feel ,ACTIVE,30MonoWAV/30MonoH3.wav,2,2,1,7,,,,,0,13,13,6,0,3,3,9,,,,,,,,,4,2.3005950589977147,,,012,001,2019_May_09_1020,MusicAffectPsychophysiology2019,3.0.5,60.078135820353296,
To what extent did the music make you feel ,ANXIOUS ,30MonoWAV/30MonoH3.wav,2,2,1,7,,,,,0,13,13,6,0,4,4,1,,,,,,,,,1,0.885652539000148,,,012,001,2019_May_09_1020,MusicAffectPsychophysiology2019,3.0.5,60.078135820353296,
To what extent did the music make you feel ,GUILTY,30MonoWAV/30MonoH3.wav,2,2,1,7,,,,,0,13,13,6,0,5,5,5,,,,,,,,,1,0.7845455179995042,,,012,001,2019_May_09_1020,MusicAffectPsychophysiology2019,3.0.5,60.078135820353296,
To what extent did the music make you feel ,ALERT,30MonoWAV/30MonoH3.wav,2,2,1,7,,,,,0,13,13,6,0,6,6,8,,,,,,,,,4,1.06662244400286,,,012,001,2019_May_09_1020,MusicAffectPsychophysiology2019,3.0.5,60.078135820353296,
To what extent did the music make you feel ,SAD,30MonoWAV/30MonoH3.wav,2,2,1,7,,,,,0,13,13,6,0,7,7,0,,,,,,,,,1,1.3017207609991601,,,012,001,2019_May_09_1020,MusicAffectPsychophysiology2019,3.0.5,60.078135820353296,
To what extent did the music make you feel ,TENDER,30MonoWAV/30MonoH3.wav,2,2,1,7,,,,,0,13,13,6,0,8,8,10,,,,,,,,,1,1.3834627289979835,,,012,001,2019_May_09_1020,MusicAffectPsychophysiology2019,3.0.5,60.078135820353296,
To what extent did the music make you feel ,SCARED,30MonoWAV/30MonoH3.wav,2,2,1,7,,,,,0,13,13,6,0,9,9,11,,,,,,,,,1,2.267527700998471,,,012,001,2019_May_09_1020,MusicAffectPsychophysiology2019,3.0.5,60.078135820353296,
To what extent did the music make you feel ,EXCITED,30MonoWAV/30MonoH3.wav,2,2,1,7,,,,,0,13,13,6,0,10,10,7,,,,,,,,,4,3.402345113001502,,,012,001,2019_May_09_1020,MusicAffectPsychophysiology2019,3.0.5,60.078135820353296,
To what extent did the music make you feel ,FRUSTRATED,30MonoWAV/30MonoH3.wav,2,2,1,7,,,,,0,13,13,6,0,11,11,3,,,,,,,,,1,0.8013344749997486,,,012,001,2019_May_09_1020,MusicAffectPsychophysiology2019,3.0.5,60.078135820353296,
,,30MonoWAV/30MonoH3.wav,2,2,1,7,,,,,0,13,13,6,,,,,,,,,,,,,,,,,012,001,2019_May_09_1020,MusicAffectPsychophysiology2019,3.0.5,60.078135820353296,
To what extent did the music make you feel ,ALERT,30MonoWAV/30MonoH2.wav,2,2,1,6,,,,,0,14,14,5,0,0,0,8,,,3,3.4421481389981636,3,4.184584480000922,2,2.8330928690011206,3,3.2182770150029683,,,012,001,2019_May_09_1020,MusicAffectPsychophysiology2019,3.0.5,60.078135820353296,
To what extent did the music make you feel ,ANXIOUS ,30MonoWAV/30MonoH2.wav,2,2,1,6,,,,,0,14,14,5,0,1,1,1,,,,,,,,,2,3.4695752579973487,,,012,001,2019_May_09_1020,MusicAffectPsychophysiology2019,3.0.5,60.078135820353296,
To what extent did the music make you feel ,ASHAMED,30MonoWAV/30MonoH2.wav,2,2,1,6,,,,,0,14,14,5,0,2,2,4,,,,,,,,,1,1.4660147620015778,,,012,001,2019_May_09_1020,MusicAffectPsychophysiology2019,3.0.5,60.078135820353296,
To what extent did the music make you feel ,HAPPY,30MonoWAV/30MonoH2.wav,2,2,1,6,,,,,0,14,14,5,0,3,3,6,,,,,,,,,3,1.501536292998935,,,012,001,2019_May_09_1020,MusicAffectPsychophysiology2019,3.0.5,60.078135820353296,
To what extent did the music make you feel ,EXCITED,30MonoWAV/30MonoH2.wav,2,2,1,6,,,,,0,14,14,5,0,4,4,7,,,,,,,,,3,0.9857109160002437,,,012,001,2019_May_09_1020,MusicAffectPsychophysiology2019,3.0.5,60.078135820353296,
To what extent did the music make you feel ,ANGRY,30MonoWAV/30MonoH2.wav,2,2,1,6,,,,,0,14,14,5,0,5,5,2,,,,,,,,,1,1.7674510799988639,,,012,001,2019_May_09_1020,MusicAffectPsychophysiology2019,3.0.5,60.078135820353296,
To what extent did the music make you feel ,TENDER,30MonoWAV/30MonoH2.wav,2,2,1,6,,,,,0,14,14,5,0,6,6,10,,,,,,,,,1,1.0851453949981078,,,012,001,2019_May_09_1020,MusicAffectPsychophysiology2019,3.0.5,60.078135820353296,
To what extent did the music make you feel ,SCARED,30MonoWAV/30MonoH2.wav,2,2,1,6,,,,,0,14,14,5,0,7,7,11,,,,,,,,,2,1.6008904609989258,,,012,001,2019_May_09_1020,MusicAffectPsychophysiology2019,3.0.5,60.078135820353296,
To what extent did the music make you feel ,GUILTY,30MonoWAV/30MonoH2.wav,2,2,1,6,,,,,0,14,14,5,0,8,8,5,,,,,,,,,2,1.051359646000492,,,012,001,2019_May_09_1020,MusicAffectPsychophysiology2019,3.0.5,60.078135820353296,
To what extent did the music make you feel ,SAD,30MonoWAV/30MonoH2.wav,2,2,1,6,,,,,0,14,14,5,0,9,9,0,,,,,,,,,2,1.0680714849986543,,,012,001,2019_May_09_1020,MusicAffectPsychophysiology2019,3.0.5,60.078135820353296,
To what extent did the music make you feel ,FRUSTRATED,30MonoWAV/30MonoH2.wav,2,2,1,6,,,,,0,14,14,5,0,10,10,3,,,,,,,,,5,1.9179804689993034,,,012,001,2019_May_09_1020,MusicAffectPsychophysiology2019,3.0.5,60.078135820353296,
To what extent did the music make you feel ,ACTIVE,30MonoWAV/30MonoH2.wav,2,2,1,6,,,,,0,14,14,5,0,11,11,9,,,,,,,,,2,4.268286380000063,,,012,001,2019_May_09_1020,MusicAffectPsychophysiology2019,3.0.5,60.078135820353296,
,,30MonoWAV/30MonoH2.wav,2,2,1,6,,,,,0,14,14,5,,,,,,,,,,,,,,,,,012,001,2019_May_09_1020,MusicAffectPsychophysiology2019,3.0.5,60.078135820353296,
To what extent did the music make you feel ,ALERT,30MonoWAV/30MonoF4.wav,1,2,2,4,,,,,0,15,15,3,0,0,0,8,,,5,2.7347703909981647,1,1.3681723219997366,4,2.8181098029999703,5,2.084344388000318,,,012,001,2019_May_09_1020,MusicAffectPsychophysiology2019,3.0.5,60.078135820353296,
To what extent did the music make you feel ,ASHAMED,30MonoWAV/30MonoF4.wav,1,2,2,4,,,,,0,15,15,3,0,1,1,4,,,,,,,,,3,3.5684786519996123,,,012,001,2019_May_09_1020,MusicAffectPsychophysiology2019,3.0.5,60.078135820353296,
To what extent did the music make you feel ,ACTIVE,30MonoWAV/30MonoF4.wav,1,2,2,4,,,,,0,15,15,3,0,2,2,9,,,,,,,,,5,1.0690304310010106,,,012,001,2019_May_09_1020,MusicAffectPsychophysiology2019,3.0.5,60.078135820353296,
To what extent did the music make you feel ,FRUSTRATED,30MonoWAV/30MonoF4.wav,1,2,2,4,,,,,0,15,15,3,0,3,3,3,,,,,,,,,3,2.1679338840003766,,,012,001,2019_May_09_1020,MusicAffectPsychophysiology2019,3.0.5,60.078135820353296,
To what extent did the music make you feel ,SAD,30MonoWAV/30MonoF4.wav,1,2,2,4,,,,,0,15,15,3,0,4,4,0,,,,,,,,,2,4.2013381169999775,,,012,001,2019_May_09_1020,MusicAffectPsychophysiology2019,3.0.5,60.078135820353296,
To what extent did the music make you feel ,ANXIOUS ,30MonoWAV/30MonoF4.wav,1,2,2,4,,,,,0,15,15,3,0,5,5,1,,,,,,,,,5,2.0984760369974538,,,012,001,2019_May_09_1020,MusicAffectPsychophysiology2019,3.0.5,60.078135820353296,
To what extent did the music make you feel ,HAPPY,30MonoWAV/30MonoF4.wav,1,2,2,4,,,,,0,15,15,3,0,6,6,6,,,,,,,,,1,0.7353376890023355,,,012,001,2019_May_09_1020,MusicAffectPsychophysiology2019,3.0.5,60.078135820353296,
To what extent did the music make you feel ,TENDER,30MonoWAV/30MonoF4.wav,1,2,2,4,,,,,0,15,15,3,0,7,7,10,,,,,,,,,1,0.7848229529990931,,,012,001,2019_May_09_1020,MusicAffectPsychophysiology2019,3.0.5,60.078135820353296,
To what extent did the music make you feel ,EXCITED,30MonoWAV/30MonoF4.wav,1,2,2,4,,,,,0,15,15,3,0,8,8,7,,,,,,,,,5,1.6851253649983846,,,012,001,2019_May_09_1020,MusicAffectPsychophysiology2019,3.0.5,60.078135820353296,
To what extent did the music make you feel ,GUILTY,30MonoWAV/30MonoF4.wav,1,2,2,4,,,,,0,15,15,3,0,9,9,5,,,,,,,,,1,1.9333360330019786,,,012,001,2019_May_09_1020,MusicAffectPsychophysiology2019,3.0.5,60.078135820353296,
To what extent did the music make you feel ,ANGRY,30MonoWAV/30MonoF4.wav,1,2,2,4,,,,,0,15,15,3,0,10,10,2,,,,,,,,,2,2.8337633260016446,,,012,001,2019_May_09_1020,MusicAffectPsychophysiology2019,3.0.5,60.078135820353296,
To what extent did the music make you feel ,SCARED,30MonoWAV/30MonoF4.wav,1,2,2,4,,,,,0,15,15,3,0,11,11,11,,,,,,,,,1,1.501598726001248,,,012,001,2019_May_09_1020,MusicAffectPsychophysiology2019,3.0.5,60.078135820353296,
,,30MonoWAV/30MonoF4.wav,1,2,2,4,,,,,0,15,15,3,,,,,,,,,,,,,,,,,012,001,2019_May_09_1020,MusicAffectPsychophysiology2019,3.0.5,60.078135820353296,
To what extent did the music make you feel ,ALERT,30MonoWAV/30MonoF4.wav,1,2,2,4,,,,,1,0,16,3,0,0,0,8,,,5,6.8258626440001535,1,1.1012203840000439,3,1.7681900240022514,5,3.049618084998656,,,012,001,2019_May_09_1020,MusicAffectPsychophysiology2019,3.0.5,60.078135820353296,
To what extent did the music make you feel ,FRUSTRATED,30MonoWAV/30MonoF4.wav,1,2,2,4,,,,,1,0,16,3,0,1,1,3,,,,,,,,,2,1.452239862002898,,,012,001,2019_May_09_1020,MusicAffectPsychophysiology2019,3.0.5,60.078135820353296,
To what extent did the music make you feel ,SCARED,30MonoWAV/30MonoF4.wav,1,2,2,4,,,,,1,0,16,3,0,2,2,11,,,,,,,,,5,1.1355850090003514,,,012,001,2019_May_09_1020,MusicAffectPsychophysiology2019,3.0.5,60.078135820353296,
To what extent did the music make you feel ,ANXIOUS ,30MonoWAV/30MonoF4.wav,1,2,2,4,,,,,1,0,16,3,0,3,3,1,,,,,,,,,5,0.5680902230014908,,,012,001,2019_May_09_1020,MusicAffectPsychophysiology2019,3.0.5,60.078135820353296,
To what extent did the music make you feel ,GUILTY,30MonoWAV/30MonoF4.wav,1,2,2,4,,,,,1,0,16,3,0,4,4,5,,,,,,,,,2,2.018507189997763,,,012,001,2019_May_09_1020,MusicAffectPsychophysiology2019,3.0.5,60.078135820353296,
To what extent did the music make you feel ,HAPPY,30MonoWAV/30MonoF4.wav,1,2,2,4,,,,,1,0,16,3,0,5,5,6,,,,,,,,,1,0.9178142870005104,,,012,001,2019_May_09_1020,MusicAffectPsychophysiology2019,3.0.5,60.078135820353296,
To what extent did the music make you feel ,TENDER,30MonoWAV/30MonoF4.wav,1,2,2,4,,,,,1,0,16,3,0,6,6,10,,,,,,,,,1,0.9853287839978293,,,012,001,2019_May_09_1020,MusicAffectPsychophysiology2019,3.0.5,60.078135820353296,
To what extent did the music make you feel ,ASHAMED,30MonoWAV/30MonoF4.wav,1,2,2,4,,,,,1,0,16,3,0,7,7,4,,,,,,,,,2,2.1681645909993676,,,012,001,2019_May_09_1020,MusicAffectPsychophysiology2019,3.0.5,60.078135820353296,
To what extent did the music make you feel ,ANGRY,30MonoWAV/30MonoF4.wav,1,2,2,4,,,,,1,0,16,3,0,8,8,2,,,,,,,,,2,1.5837958039992373,,,012,001,2019_May_09_1020,MusicAffectPsychophysiology2019,3.0.5,60.078135820353296,
To what extent did the music make you feel ,SAD,30MonoWAV/30MonoF4.wav,1,2,2,4,,,,,1,0,16,3,0,9,9,0,,,,,,,,,2,1.1516274989990052,,,012,001,2019_May_09_1020,MusicAffectPsychophysiology2019,3.0.5,60.078135820353296,
To what extent did the music make you feel ,ACTIVE,30MonoWAV/30MonoF4.wav,1,2,2,4,,,,,1,0,16,3,0,10,10,9,,,,,,,,,5,0.9187369169994781,,,012,001,2019_May_09_1020,MusicAffectPsychophysiology2019,3.0.5,60.078135820353296,
To what extent did the music make you feel ,EXCITED,30MonoWAV/30MonoF4.wav,1,2,2,4,,,,,1,0,16,3,0,11,11,7,,,,,,,,,5,0.9513223390022176,,,012,001,2019_May_09_1020,MusicAffectPsychophysiology2019,3.0.5,60.078135820353296,
,,30MonoWAV/30MonoF4.wav,1,2,2,4,,,,,1,0,16,3,,,,,,,,,,,,,,,,,012,001,2019_May_09_1020,MusicAffectPsychophysiology2019,3.0.5,60.078135820353296,
To what extent did the music make you feel ,ASHAMED,30MonoWAV/30MonoT4.wav,2,1,4,16,,,,,1,1,17,15,0,0,0,4,,,4,3.489306053001201,4,3.7723799550003605,3,2.1394804819974524,1,2.2498970060005377,,,012,001,2019_May_09_1020,MusicAffectPsychophysiology2019,3.0.5,60.078135820353296,
To what extent did the music make you feel ,ANXIOUS ,30MonoWAV/30MonoT4.wav,2,1,4,16,,,,,1,1,17,15,0,1,1,1,,,,,,,,,1,1.0356677400013723,,,012,001,2019_May_09_1020,MusicAffectPsychophysiology2019,3.0.5,60.078135820353296,
To what extent did the music make you feel ,SAD,30MonoWAV/30MonoT4.wav,2,1,4,16,,,,,1,1,17,15,0,2,2,0,,,,,,,,,1,0.6015230570010317,,,012,001,2019_May_09_1020,MusicAffectPsychophysiology2019,3.0.5,60.078135820353296,
To what extent did the music make you feel ,ACTIVE,30MonoWAV/30MonoT4.wav,2,1,4,16,,,,,1,1,17,15,0,3,3,9,,,,,,,,,3,3.6681119589993614,,,012,001,2019_May_09_1020,MusicAffectPsychophysiology2019,3.0.5,60.078135820353296,
To what extent did the music make you feel ,GUILTY,30MonoWAV/30MonoT4.wav,2,1,4,16,,,,,1,1,17,15,0,4,4,5,,,,,,,,,1,2.467616633999569,,,012,001,2019_May_09_1020,MusicAffectPsychophysiology2019,3.0.5,60.078135820353296,
To what extent did the music make you feel ,ANGRY,30MonoWAV/30MonoT4.wav,2,1,4,16,,,,,1,1,17,15,0,5,5,2,,,,,,,,,1,0.701655444001517,,,012,001,2019_May_09_1020,MusicAffectPsychophysiology2019,3.0.5,60.078135820353296,
To what extent did the music make you feel ,ALERT,30MonoWAV/30MonoT4.wav,2,1,4,16,,,,,1,1,17,15,0,6,6,8,,,,,,,,,3,1.2183511190014542,,,012,001,2019_May_09_1020,MusicAffectPsychophysiology2019,3.0.5,60.078135820353296,
To what extent did the music make you feel ,FRUSTRATED,30MonoWAV/30MonoT4.wav,2,1,4,16,,,,,1,1,17,15,0,7,7,3,,,,,,,,,1,1.8514269370025431,,,012,001,2019_May_09_1020,MusicAffectPsychophysiology2019,3.0.5,60.078135820353296,
To what extent did the music make you feel ,HAPPY,30MonoWAV/30MonoT4.wav,2,1,4,16,,,,,1,1,17,15,0,8,8,6,,,,,,,,,4,1.2190587629993388,,,012,001,2019_May_09_1020,MusicAffectPsychophysiology2019,3.0.5,60.078135820353296,
To what extent did the music make you feel ,EXCITED,30MonoWAV/30MonoT4.wav,2,1,4,16,,,,,1,1,17,15,0,9,9,7,,,,,,,,,4,0.7848126479984785,,,012,001,2019_May_09_1020,MusicAffectPsychophysiology2019,3.0.5,60.078135820353296,
To what extent did the music make you feel ,TENDER,30MonoWAV/30MonoT4.wav,2,1,4,16,,,,,1,1,17,15,0,10,10,10,,,,,,,,,4,3.518096574000083,,,012,001,2019_May_09_1020,MusicAffectPsychophysiology2019,3.0.5,60.078135820353296,
To what extent did the music make you feel ,SCARED,30MonoWAV/30MonoT4.wav,2,1,4,16,,,,,1,1,17,15,0,11,11,11,,,,,,,,,1,2.5853279910006677,,,012,001,2019_May_09_1020,MusicAffectPsychophysiology2019,3.0.5,60.078135820353296,
,,30MonoWAV/30MonoT4.wav,2,1,4,16,,,,,1,1,17,15,,,,,,,,,,,,,,,,,012,001,2019_May_09_1020,MusicAffectPsychophysiology2019,3.0.5,60.078135820353296,
To what extent did the music make you feel ,ANGRY,30MonoWAV/30MonoF2.wav,1,2,2,2,,,,,1,2,18,1,0,0,0,2,,,5,3.101503682002658,1,1.1349667070026044,4,1.4553303089996916,1,5.174110157000541,,,012,001,2019_May_09_1020,MusicAffectPsychophysiology2019,3.0.5,60.078135820353296,
To what extent did the music make you feel ,HAPPY,30MonoWAV/30MonoF2.wav,1,2,2,2,,,,,1,2,18,1,0,1,1,6,,,,,,,,,1,1.069838677001826,,,012,001,2019_May_09_1020,MusicAffectPsychophysiology2019,3.0.5,60.078135820353296,
To what extent did the music make you feel ,ALERT,30MonoWAV/30MonoF2.wav,1,2,2,2,,,,,1,2,18,1,0,2,2,8,,,,,,,,,5,1.0365832860006776,,,012,001,2019_May_09_1020,MusicAffectPsychophysiology2019,3.0.5,60.078135820353296,
To what extent did the music make you feel ,ANXIOUS ,30MonoWAV/30MonoF2.wav,1,2,2,2,,,,,1,2,18,1,0,3,3,1,,,,,,,,,5,0.7722281019996444,,,012,001,2019_May_09_1020,MusicAffectPsychophysiology2019,3.0.5,60.078135820353296,
To what extent did the music make you feel ,GUILTY,30MonoWAV/30MonoF2.wav,1,2,2,2,,,,,1,2,18,1,0,4,4,5,,,,,,,,,1,2.900767914001335,,,012,001,2019_May_09_1020,MusicAffectPsychophysiology2019,3.0.5,60.078135820353296,
To what extent did the music make you feel ,FRUSTRATED,30MonoWAV/30MonoF2.wav,1,2,2,2,,,,,1,2,18,1,0,5,5,3,,,,,,,,,1,2.851099798001087,,,012,001,2019_May_09_1020,MusicAffectPsychophysiology2019,3.0.5,60.078135820353296,
To what extent did the music make you feel ,TENDER,30MonoWAV/30MonoF2.wav,1,2,2,2,,,,,1,2,18,1,0,6,6,10,,,,,,,,,1,1.206128213001648,,,012,001,2019_May_09_1020,MusicAffectPsychophysiology2019,3.0.5,60.078135820353296,
To what extent did the music make you feel ,EXCITED,30MonoWAV/30MonoF2.wav,1,2,2,2,,,,,1,2,18,1,0,7,7,7,,,,,,,,,4,1.4530554310003936,,,012,001,2019_May_09_1020,MusicAffectPsychophysiology2019,3.0.5,60.078135820353296,
To what extent did the music make you feel ,SAD,30MonoWAV/30MonoF2.wav,1,2,2,2,,,,,1,2,18,1,0,8,8,0,,,,,,,,,1,1.3689907190018857,,,012,001,2019_May_09_1020,MusicAffectPsychophysiology2019,3.0.5,60.078135820353296,
To what extent did the music make you feel ,ASHAMED,30MonoWAV/30MonoF2.wav,1,2,2,2,,,,,1,2,18,1,0,9,9,4,,,,,,,,,1,1.219486179001251,,,012,001,2019_May_09_1020,MusicAffectPsychophysiology2019,3.0.5,60.078135820353296,
To what extent did the music make you feel ,SCARED,30MonoWAV/30MonoF2.wav,1,2,2,2,,,,,1,2,18,1,0,10,10,11,,,,,,,,,5,0.902959766001004,,,012,001,2019_May_09_1020,MusicAffectPsychophysiology2019,3.0.5,60.078135820353296,
To what extent did the music make you feel ,ACTIVE,30MonoWAV/30MonoF2.wav,1,2,2,2,,,,,1,2,18,1,0,11,11,9,,,,,,,,,5,0.8366690409966395,,,012,001,2019_May_09_1020,MusicAffectPsychophysiology2019,3.0.5,60.078135820353296,
,,30MonoWAV/30MonoF2.wav,1,2,2,2,,,,,1,2,18,1,,,,,,,,,,,,,,,,,012,001,2019_May_09_1020,MusicAffectPsychophysiology2019,3.0.5,60.078135820353296,
To what extent did the music make you feel ,GUILTY,30MonoWAV/30MonoH3.wav,2,2,1,7,,,,,1,3,19,6,0,0,0,5,,,4,6.3675731680014,4,1.9850648960018589,4,1.4849290839993046,1,3.1689011999987997,,,012,001,2019_May_09_1020,MusicAffectPsychophysiology2019,3.0.5,60.078135820353296,
To what extent did the music make you feel ,ANGRY,30MonoWAV/30MonoH3.wav,2,2,1,7,,,,,1,3,19,6,0,1,1,2,,,,,,,,,1,0.5687919740012148,,,012,001,2019_May_09_1020,MusicAffectPsychophysiology2019,3.0.5,60.078135820353296,
To what extent did the music make you feel ,EXCITED,30MonoWAV/30MonoH3.wav,2,2,1,7,,,,,1,3,19,6,0,2,2,7,,,,,,,,,4,1.367153856997902,,,012,001,2019_May_09_1020,MusicAffectPsychophysiology2019,3.0.5,60.078135820353296,
To what extent did the music make you feel ,ANXIOUS ,30MonoWAV/30MonoH3.wav,2,2,1,7,,,,,1,3,19,6,0,3,3,1,,,,,,,,,1,1.0018287550010427,,,012,001,2019_May_09_1020,MusicAffectPsychophysiology2019,3.0.5,60.078135820353296,
To what extent did the music make you feel ,FRUSTRATED,30MonoWAV/30MonoH3.wav,2,2,1,7,,,,,1,3,19,6,0,4,4,3,,,,,,,,,1,1.4025617219995183,,,012,001,2019_May_09_1020,MusicAffectPsychophysiology2019,3.0.5,60.078135820353296,
To what extent did the music make you feel ,TENDER,30MonoWAV/30MonoH3.wav,2,2,1,7,,,,,1,3,19,6,0,5,5,10,,,,,,,,,1,1.5510570799997367,,,012,001,2019_May_09_1020,MusicAffectPsychophysiology2019,3.0.5,60.078135820353296,
To what extent did the music make you feel ,ACTIVE,30MonoWAV/30MonoH3.wav,2,2,1,7,,,,,1,3,19,6,0,6,6,9,,,,,,,,,4,3.5826628710019577,,,012,001,2019_May_09_1020,MusicAffectPsychophysiology2019,3.0.5,60.078135820353296,
To what extent did the music make you feel ,SCARED,30MonoWAV/30MonoH3.wav,2,2,1,7,,,,,1,3,19,6,0,7,7,11,,,,,,,,,1,0.7832424580010411,,,012,001,2019_May_09_1020,MusicAffectPsychophysiology2019,3.0.5,60.078135820353296,
To what extent did the music make you feel ,ALERT,30MonoWAV/30MonoH3.wav,2,2,1,7,,,,,1,3,19,6,0,8,8,8,,,,,,,,,4,0.7356408599989663,,,012,001,2019_May_09_1020,MusicAffectPsychophysiology2019,3.0.5,60.078135820353296,
To what extent did the music make you feel ,HAPPY,30MonoWAV/30MonoH3.wav,2,2,1,7,,,,,1,3,19,6,0,9,9,6,,,,,,,,,5,1.3018549350017565,,,012,001,2019_May_09_1020,MusicAffectPsychophysiology2019,3.0.5,60.078135820353296,
To what extent did the music make you feel ,SAD,30MonoWAV/30MonoH3.wav,2,2,1,7,,,,,1,3,19,6,0,10,10,0,,,,,,,,,1,0.8188940769978217,,,012,001,2019_May_09_1020,MusicAffectPsychophysiology2019,3.0.5,60.078135820353296,
To what extent did the music make you feel ,ASHAMED,30MonoWAV/30MonoH3.wav,2,2,1,7,,,,,1,3,19,6,0,11,11,4,,,,,,,,,1,0.6693374610003957,,,012,001,2019_May_09_1020,MusicAffectPsychophysiology2019,3.0.5,60.078135820353296,
,,30MonoWAV/30MonoH3.wav,2,2,1,7,,,,,1,3,19,6,,,,,,,,,,,,,,,,,012,001,2019_May_09_1020,MusicAffectPsychophysiology2019,3.0.5,60.078135820353296,
To what extent did the music make you feel ,ALERT,30MonoWAV/30MonoT3.wav,2,1,4,15,,,,,1,4,20,14,0,0,0,8,,,4,3.221390874001372,4,2.5048404620029032,5,2.0888391970001976,3,4.384986779998144,,,012,001,2019_May_09_1020,MusicAffectPsychophysiology2019,3.0.5,60.078135820353296,
To what extent did the music make you feel ,EXCITED,30MonoWAV/30MonoT3.wav,2,1,4,15,,,,,1,4,20,14,0,1,1,7,,,,,,,,,2,3.0679511620000994,,,012,001,2019_May_09_1020,MusicAffectPsychophysiology2019,3.0.5,60.078135820353296,
To what extent did the music make you feel ,GUILTY,30MonoWAV/30MonoT3.wav,2,1,4,15,,,,,1,4,20,14,0,2,2,5,,,,,,,,,1,0.9017181750023155,,,012,001,2019_May_09_1020,MusicAffectPsychophysiology2019,3.0.5,60.078135820353296,
To what extent did the music make you feel ,ANGRY,30MonoWAV/30MonoT3.wav,2,1,4,15,,,,,1,4,20,14,0,3,3,2,,,,,,,,,1,1.1499880350020248,,,012,001,2019_May_09_1020,MusicAffectPsychophysiology2019,3.0.5,60.078135820353296,
To what extent did the music make you feel ,TENDER,30MonoWAV/30MonoT3.wav,2,1,4,15,,,,,1,4,20,14,0,4,4,10,,,,,,,,,4,1.3010142050006834,,,012,001,2019_May_09_1020,MusicAffectPsychophysiology2019,3.0.5,60.078135820353296,
To what extent did the music make you feel ,SAD,30MonoWAV/30MonoT3.wav,2,1,4,15,,,,,1,4,20,14,0,5,5,0,,,,,,,,,1,1.3348190059987246,,,012,001,2019_May_09_1020,MusicAffectPsychophysiology2019,3.0.5,60.078135820353296,
To what extent did the music make you feel ,HAPPY,30MonoWAV/30MonoT3.wav,2,1,4,15,,,,,1,4,20,14,0,6,6,6,,,,,,,,,4,1.2013644219987327,,,012,001,2019_May_09_1020,MusicAffectPsychophysiology2019,3.0.5,60.078135820353296,
To what extent did the music make you feel ,ACTIVE,30MonoWAV/30MonoT3.wav,2,1,4,15,,,,,1,4,20,14,0,7,7,9,,,,,,,,,1,3.5521366280008806,,,012,001,2019_May_09_1020,MusicAffectPsychophysiology2019,3.0.5,60.078135820353296,
To what extent did the music make you feel ,ASHAMED,30MonoWAV/30MonoT3.wav,2,1,4,15,,,,,1,4,20,14,0,8,8,4,,,,,,,,,1,0.7164804740023101,,,012,001,2019_May_09_1020,MusicAffectPsychophysiology2019,3.0.5,60.078135820353296,
To what extent did the music make you feel ,FRUSTRATED,30MonoWAV/30MonoT3.wav,2,1,4,15,,,,,1,4,20,14,0,9,9,3,,,,,,,,,1,1.1508899239997845,,,012,001,2019_May_09_1020,MusicAffectPsychophysiology2019,3.0.5,60.078135820353296,
To what extent did the music make you feel ,SCARED,30MonoWAV/30MonoT3.wav,2,1,4,15,,,,,1,4,20,14,0,10,10,11,,,,,,,,,1,0.635364470002969,,,012,001,2019_May_09_1020,MusicAffectPsychophysiology2019,3.0.5,60.078135820353296,
To what extent did the music make you feel ,ANXIOUS ,30MonoWAV/30MonoT3.wav,2,1,4,15,,,,,1,4,20,14,0,11,11,1,,,,,,,,,1,0.6852234760008287,,,012,001,2019_May_09_1020,MusicAffectPsychophysiology2019,3.0.5,60.078135820353296,
,,30MonoWAV/30MonoT3.wav,2,1,4,15,,,,,1,4,20,14,,,,,,,,,,,,,,,,,012,001,2019_May_09_1020,MusicAffectPsychophysiology2019,3.0.5,60.078135820353296,
To what extent did the music make you feel ,FRUSTRATED,30MonoWAV/30MonoH4.wav,2,2,1,8,,,,,1,5,21,7,0,0,0,3,,,5,5.701322511999024,5,4.0831653630011715,5,0.9355901800008724,1,1.92722748199958,,,012,001,2019_May_09_1020,MusicAffectPsychophysiology2019,3.0.5,60.078135820353296,
To what extent did the music make you feel ,ACTIVE,30MonoWAV/30MonoH4.wav,2,2,1,8,,,,,1,5,21,7,0,1,1,9,,,,,,,,,5,0.9523072140000295,,,012,001,2019_May_09_1020,MusicAffectPsychophysiology2019,3.0.5,60.078135820353296,
To what extent did the music make you feel ,HAPPY,30MonoWAV/30MonoH4.wav,2,2,1,8,,,,,1,5,21,7,0,2,2,6,,,,,,,,,5,0.6685868599997775,,,012,001,2019_May_09_1020,MusicAffectPsychophysiology2019,3.0.5,60.078135820353296,
To what extent did the music make you feel ,TENDER,30MonoWAV/30MonoH4.wav,2,2,1,8,,,,,1,5,21,7,0,3,3,10,,,,,,,,,2,3.6681699079999817,,,012,001,2019_May_09_1020,MusicAffectPsychophysiology2019,3.0.5,60.078135820353296,
To what extent did the music make you feel ,ANGRY,30MonoWAV/30MonoH4.wav,2,2,1,8,,,,,1,5,21,7,0,4,4,2,,,,,,,,,1,2.119378785999288,,,012,001,2019_May_09_1020,MusicAffectPsychophysiology2019,3.0.5,60.078135820353296,
To what extent did the music make you feel ,ASHAMED,30MonoWAV/30MonoH4.wav,2,2,1,8,,,,,1,5,21,7,0,5,5,4,,,,,,,,,1,1.035516331998224,,,012,001,2019_May_09_1020,MusicAffectPsychophysiology2019,3.0.5,60.078135820353296,
To what extent did the music make you feel ,EXCITED,30MonoWAV/30MonoH4.wav,2,2,1,8,,,,,1,5,21,7,0,6,6,7,,,,,,,,,5,0.9232363439987239,,,012,001,2019_May_09_1020,MusicAffectPsychophysiology2019,3.0.5,60.078135820353296,
To what extent did the music make you feel ,ANXIOUS ,30MonoWAV/30MonoH4.wav,2,2,1,8,,,,,1,5,21,7,0,7,7,1,,,,,,,,,1,0.6851101550018939,,,012,001,2019_May_09_1020,MusicAffectPsychophysiology2019,3.0.5,60.078135820353296,
To what extent did the music make you feel ,ALERT,30MonoWAV/30MonoH4.wav,2,2,1,8,,,,,1,5,21,7,0,8,8,8,,,,,,,,,5,1.0701273500017123,,,012,001,2019_May_09_1020,MusicAffectPsychophysiology2019,3.0.5,60.078135820353296,
To what extent did the music make you feel ,SAD,30MonoWAV/30MonoH4.wav,2,2,1,8,,,,,1,5,21,7,0,9,9,0,,,,,,,,,1,0.8198257149997517,,,012,001,2019_May_09_1020,MusicAffectPsychophysiology2019,3.0.5,60.078135820353296,
To what extent did the music make you feel ,SCARED,30MonoWAV/30MonoH4.wav,2,2,1,8,,,,,1,5,21,7,0,10,10,11,,,,,,,,,1,2.155014570998901,,,012,001,2019_May_09_1020,MusicAffectPsychophysiology2019,3.0.5,60.078135820353296,
To what extent did the music make you feel ,GUILTY,30MonoWAV/30MonoH4.wav,2,2,1,8,,,,,1,5,21,7,0,11,11,5,,,,,,,,,1,0.6358067569999548,,,012,001,2019_May_09_1020,MusicAffectPsychophysiology2019,3.0.5,60.078135820353296,
,,30MonoWAV/30MonoH4.wav,2,2,1,8,,,,,1,5,21,7,,,,,,,,,,,,,,,,,012,001,2019_May_09_1020,MusicAffectPsychophysiology2019,3.0.5,60.078135820353296,
To what extent did the music make you feel ,ANGRY,30MonoWAV/30MonoT1.wav,2,1,4,13,,,,,1,6,22,12,0,0,0,2,,,3,4.168779468000139,4,5.0180923550033185,4,1.3189707419987826,1,1.8012856639979873,,,012,001,2019_May_09_1020,MusicAffectPsychophysiology2019,3.0.5,60.078135820353296,
To what extent did the music make you feel ,EXCITED,30MonoWAV/30MonoT1.wav,2,1,4,13,,,,,1,6,22,12,0,1,1,7,,,,,,,,,2,1.5852453930019692,,,012,001,2019_May_09_1020,MusicAffectPsychophysiology2019,3.0.5,60.078135820353296,
To what extent did the music make you feel ,ASHAMED,30MonoWAV/30MonoT1.wav,2,1,4,13,,,,,1,6,22,12,0,2,2,4,,,,,,,,,1,1.0352501699999266,,,012,001,2019_May_09_1020,MusicAffectPsychophysiology2019,3.0.5,60.078135820353296,
To what extent did the music make you feel ,SCARED,30MonoWAV/30MonoT1.wav,2,1,4,13,,,,,1,6,22,12,0,3,3,11,,,,,,,,,1,0.5848718369998096,,,012,001,2019_May_09_1020,MusicAffectPsychophysiology2019,3.0.5,60.078135820353296,
To what extent did the music make you feel ,SAD,30MonoWAV/30MonoT1.wav,2,1,4,13,,,,,1,6,22,12,0,4,4,0,,,,,,,,,1,0.7665021950015216,,,012,001,2019_May_09_1020,MusicAffectPsychophysiology2019,3.0.5,60.078135820353296,
To what extent did the music make you feel ,ANXIOUS ,30MonoWAV/30MonoT1.wav,2,1,4,13,,,,,1,6,22,12,0,5,5,1,,,,,,,,,1,0.8010599560002447,,,012,001,2019_May_09_1020,MusicAffectPsychophysiology2019,3.0.5,60.078135820353296,
To what extent did the music make you feel ,ACTIVE,30MonoWAV/30MonoT1.wav,2,1,4,13,,,,,1,6,22,12,0,6,6,9,,,,,,,,,2,1.4850986510027724,,,012,001,2019_May_09_1020,MusicAffectPsychophysiology2019,3.0.5,60.078135820353296,
To what extent did the music make you feel ,HAPPY,30MonoWAV/30MonoT1.wav,2,1,4,13,,,,,1,6,22,12,0,7,7,6,,,,,,,,,4,1.0681818209995981,,,012,001,2019_May_09_1020,MusicAffectPsychophysiology2019,3.0.5,60.078135820353296,
To what extent did the music make you feel ,FRUSTRATED,30MonoWAV/30MonoT1.wav,2,1,4,13,,,,,1,6,22,12,0,8,8,3,,,,,,,,,1,2.5508570519996283,,,012,001,2019_May_09_1020,MusicAffectPsychophysiology2019,3.0.5,60.078135820353296,
To what extent did the music make you feel ,TENDER,30MonoWAV/30MonoT1.wav,2,1,4,13,,,,,1,6,22,12,0,9,9,10,,,,,,,,,4,1.8338972229976207,,,012,001,2019_May_09_1020,MusicAffectPsychophysiology2019,3.0.5,60.078135820353296,
To what extent did the music make you feel ,ALERT,30MonoWAV/30MonoT1.wav,2,1,4,13,,,,,1,6,22,12,0,10,10,8,,,,,,,,,2,4.568340254998475,,,012,001,2019_May_09_1020,MusicAffectPsychophysiology2019,3.0.5,60.078135820353296,
To what extent did the music make you feel ,GUILTY,30MonoWAV/30MonoT1.wav,2,1,4,13,,,,,1,6,22,12,0,11,11,5,,,,,,,,,1,1.3856962300014857,,,012,001,2019_May_09_1020,MusicAffectPsychophysiology2019,3.0.5,60.078135820353296,
,,30MonoWAV/30MonoT1.wav,2,1,4,13,,,,,1,6,22,12,,,,,,,,,,,,,,,,,012,001,2019_May_09_1020,MusicAffectPsychophysiology2019,3.0.5,60.078135820353296,
To what extent did the music make you feel ,EXCITED,30MonoWAV/30MonoF1.wav,1,2,2,1,,,,,1,7,23,0,0,0,0,7,,,5,3.0843982529986533,2,4.518361234000622,4,2.4689248069989844,5,1.7856835320017126,,,012,001,2019_May_09_1020,MusicAffectPsychophysiology2019,3.0.5,60.078135820353296,
To what extent did the music make you feel ,SCARED,30MonoWAV/30MonoF1.wav,1,2,2,1,,,,,1,7,23,0,0,1,1,11,,,,,,,,,5,1.1349162749975221,,,012,001,2019_May_09_1020,MusicAffectPsychophysiology2019,3.0.5,60.078135820353296,
To what extent did the music make you feel ,ALERT,30MonoWAV/30MonoF1.wav,1,2,2,1,,,,,1,7,23,0,0,2,2,8,,,,,,,,,5,0.852306368000427,,,012,001,2019_May_09_1020,MusicAffectPsychophysiology2019,3.0.5,60.078135820353296,
To what extent did the music make you feel ,GUILTY,30MonoWAV/30MonoF1.wav,1,2,2,1,,,,,1,7,23,0,0,3,3,5,,,,,,,,,1,1.0348140580026666,,,012,001,2019_May_09_1020,MusicAffectPsychophysiology2019,3.0.5,60.078135820353296,
To what extent did the music make you feel ,ANGRY,30MonoWAV/30MonoF1.wav,1,2,2,1,,,,,1,7,23,0,0,4,4,2,,,,,,,,,4,2.0517328400019323,,,012,001,2019_May_09_1020,MusicAffectPsychophysiology2019,3.0.5,60.078135820353296,
To what extent did the music make you feel ,SAD,30MonoWAV/30MonoF1.wav,1,2,2,1,,,,,1,7,23,0,0,5,5,0,,,,,,,,,1,4.383937827002228,,,012,001,2019_May_09_1020,MusicAffectPsychophysiology2019,3.0.5,60.078135820353296,
To what extent did the music make you feel ,ASHAMED,30MonoWAV/30MonoF1.wav,1,2,2,1,,,,,1,7,23,0,0,6,6,4,,,,,,,,,1,0.952605880000192,,,012,001,2019_May_09_1020,MusicAffectPsychophysiology2019,3.0.5,60.078135820353296,
To what extent did the music make you feel ,TENDER,30MonoWAV/30MonoF1.wav,1,2,2,1,,,,,1,7,23,0,0,7,7,10,,,,,,,,,1,1.0184081560000777,,,012,001,2019_May_09_1020,MusicAffectPsychophysiology2019,3.0.5,60.078135820353296,
To what extent did the music make you feel ,ACTIVE,30MonoWAV/30MonoF1.wav,1,2,2,1,,,,,1,7,23,0,0,8,8,9,,,,,,,,,5,1.1348188499978278,,,012,001,2019_May_09_1020,MusicAffectPsychophysiology2019,3.0.5,60.078135820353296,
To what extent did the music make you feel ,HAPPY,30MonoWAV/30MonoF1.wav,1,2,2,1,,,,,1,7,23,0,0,9,9,6,,,,,,,,,1,1.2013268090013298,,,012,001,2019_May_09_1020,MusicAffectPsychophysiology2019,3.0.5,60.078135820353296,
To what extent did the music make you feel ,ANXIOUS ,30MonoWAV/30MonoF1.wav,1,2,2,1,,,,,1,7,23,0,0,10,10,1,,,,,,,,,5,1.3014093109995883,,,012,001,2019_May_09_1020,MusicAffectPsychophysiology2019,3.0.5,60.078135820353296,
To what extent did the music make you feel ,FRUSTRATED,30MonoWAV/30MonoF1.wav,1,2,2,1,,,,,1,7,23,0,0,11,11,3,,,,,,,,,1,2.4355708789989876,,,012,001,2019_May_09_1020,MusicAffectPsychophysiology2019,3.0.5,60.078135820353296,
,,30MonoWAV/30MonoF1.wav,1,2,2,1,,,,,1,7,23,0,,,,,,,,,,,,,,,,,012,001,2019_May_09_1020,MusicAffectPsychophysiology2019,3.0.5,60.078135820353296,
To what extent did the music make you feel ,HAPPY,30MonoWAV/30MonoH1.wav,2,2,1,5,,,,,1,8,24,4,0,0,0,6,,,4,4.551078900996799,5,1.7515042949999042,5,0.9839318340018508,5,1.2519465490004222,,,012,001,2019_May_09_1020,MusicAffectPsychophysiology2019,3.0.5,60.078135820353296,
To what extent did the music make you feel ,ANGRY,30MonoWAV/30MonoH1.wav,2,2,1,5,,,,,1,8,24,4,0,1,1,2,,,,,,,,,1,1.116688307000004,,,012,001,2019_May_09_1020,MusicAffectPsychophysiology2019,3.0.5,60.078135820353296,
To what extent did the music make you feel ,ACTIVE,30MonoWAV/30MonoH1.wav,2,2,1,5,,,,,1,8,24,4,0,2,2,9,,,,,,,,,5,0.8018077289998473,,,012,001,2019_May_09_1020,MusicAffectPsychophysiology2019,3.0.5,60.078135820353296,
To what extent did the music make you feel ,SAD,30MonoWAV/30MonoH1.wav,2,2,1,5,,,,,1,8,24,4,0,3,3,0,,,,,,,,,1,0.8007041189994197,,,012,001,2019_May_09_1020,MusicAffectPsychophysiology2019,3.0.5,60.078135820353296,
To what extent did the music make you feel ,ANXIOUS ,30MonoWAV/30MonoH1.wav,2,2,1,5,,,,,1,8,24,4,0,4,4,1,,,,,,,,,1,0.7514572119980585,,,012,001,2019_May_09_1020,MusicAffectPsychophysiology2019,3.0.5,60.078135820353296,
To what extent did the music make you feel ,GUILTY,30MonoWAV/30MonoH1.wav,2,2,1,5,,,,,1,8,24,4,0,5,5,5,,,,,,,,,1,0.7016405750000558,,,012,001,2019_May_09_1020,MusicAffectPsychophysiology2019,3.0.5,60.078135820353296,
To what extent did the music make you feel ,FRUSTRATED,30MonoWAV/30MonoH1.wav,2,2,1,5,,,,,1,8,24,4,0,6,6,3,,,,,,,,,1,0.9847159210003156,,,012,001,2019_May_09_1020,MusicAffectPsychophysiology2019,3.0.5,60.078135820353296,
To what extent did the music make you feel ,EXCITED,30MonoWAV/30MonoH1.wav,2,2,1,5,,,,,1,8,24,4,0,7,7,7,,,,,,,,,5,1.4846566359992721,,,012,001,2019_May_09_1020,MusicAffectPsychophysiology2019,3.0.5,60.078135820353296,
To what extent did the music make you feel ,ALERT,30MonoWAV/30MonoH1.wav,2,2,1,5,,,,,1,8,24,4,0,8,8,8,,,,,,,,,4,3.433698060998722,,,012,001,2019_May_09_1020,MusicAffectPsychophysiology2019,3.0.5,60.078135820353296,
To what extent did the music make you feel ,ASHAMED,30MonoWAV/30MonoH1.wav,2,2,1,5,,,,,1,8,24,4,0,9,9,4,,,,,,,,,1,1.5849515649970272,,,012,001,2019_May_09_1020,MusicAffectPsychophysiology2019,3.0.5,60.078135820353296,
To what extent did the music make you feel ,SCARED,30MonoWAV/30MonoH1.wav,2,2,1,5,,,,,1,8,24,4,0,10,10,11,,,,,,,,,1,0.8021024469999247,,,012,001,2019_May_09_1020,MusicAffectPsychophysiology2019,3.0.5,60.078135820353296,
To what extent did the music make you feel ,TENDER,30MonoWAV/30MonoH1.wav,2,2,1,5,,,,,1,8,24,4,0,11,11,10,,,,,,,,,2,2.0021643030013365,,,012,001,2019_May_09_1020,MusicAffectPsychophysiology2019,3.0.5,60.078135820353296,
,,30MonoWAV/30MonoH1.wav,2,2,1,5,,,,,1,8,24,4,,,,,,,,,,,,,,,,,012,001,2019_May_09_1020,MusicAffectPsychophysiology2019,3.0.5,60.078135820353296,
To what extent did the music make you feel ,GUILTY,30MonoWAV/30MonoS4.wav,1,1,3,12,,,,,1,9,25,11,0,0,0,5,,,1,4.553361213002063,1,1.4181645489989023,4,2.4514600389993575,5,4.351173826999002,,,012,001,2019_May_09_1020,MusicAffectPsychophysiology2019,3.0.5,60.078135820353296,
To what extent did the music make you feel ,FRUSTRATED,30MonoWAV/30MonoS4.wav,1,1,3,12,,,,,1,9,25,11,0,1,1,3,,,,,,,,,2,1.8177204080020601,,,012,001,2019_May_09_1020,MusicAffectPsychophysiology2019,3.0.5,60.078135820353296,
To what extent did the music make you feel ,TENDER,30MonoWAV/30MonoS4.wav,1,1,3,12,,,,,1,9,25,11,0,2,2,10,,,,,,,,,5,1.7354805190007028,,,012,001,2019_May_09_1020,MusicAffectPsychophysiology2019,3.0.5,60.078135820353296,
To what extent did the music make you feel ,ASHAMED,30MonoWAV/30MonoS4.wav,1,1,3,12,,,,,1,9,25,11,0,3,3,4,,,,,,,,,5,2.568852529999276,,,012,001,2019_May_09_1020,MusicAffectPsychophysiology2019,3.0.5,60.078135820353296,
To what extent did the music make you feel ,ANGRY,30MonoWAV/30MonoS4.wav,1,1,3,12,,,,,1,9,25,11,0,4,4,2,,,,,,,,,1,1.8337535979990207,,,012,001,2019_May_09_1020,MusicAffectPsychophysiology2019,3.0.5,60.078135820353296,
To what extent did the music make you feel ,ANXIOUS ,30MonoWAV/30MonoS4.wav,1,1,3,12,,,,,1,9,25,11,0,5,5,1,,,,,,,,,1,1.0011887760010723,,,012,001,2019_May_09_1020,MusicAffectPsychophysiology2019,3.0.5,60.078135820353296,
To what extent did the music make you feel ,SAD,30MonoWAV/30MonoS4.wav,1,1,3,12,,,,,1,9,25,11,0,6,6,0,,,,,,,,,5,0.9342967020020296,,,012,001,2019_May_09_1020,MusicAffectPsychophysiology2019,3.0.5,60.078135820353296,
To what extent did the music make you feel ,HAPPY,30MonoWAV/30MonoS4.wav,1,1,3,12,,,,,1,9,25,11,0,7,7,6,,,,,,,,,1,1.0516350389989384,,,012,001,2019_May_09_1020,MusicAffectPsychophysiology2019,3.0.5,60.078135820353296,
To what extent did the music make you feel ,ACTIVE,30MonoWAV/30MonoS4.wav,1,1,3,12,,,,,1,9,25,11,0,8,8,9,,,,,,,,,1,1.366139223002392,,,012,001,2019_May_09_1020,MusicAffectPsychophysiology2019,3.0.5,60.078135820353296,
To what extent did the music make you feel ,ALERT,30MonoWAV/30MonoS4.wav,1,1,3,12,,,,,1,9,25,11,0,9,9,8,,,,,,,,,1,0.6853118549988721,,,012,001,2019_May_09_1020,MusicAffectPsychophysiology2019,3.0.5,60.078135820353296,
To what extent did the music make you feel ,SCARED,30MonoWAV/30MonoS4.wav,1,1,3,12,,,,,1,9,25,11,0,10,10,11,,,,,,,,,1,0.8180772740015527,,,012,001,2019_May_09_1020,MusicAffectPsychophysiology2019,3.0.5,60.078135820353296,
To what extent did the music make you feel ,EXCITED,30MonoWAV/30MonoS4.wav,1,1,3,12,,,,,1,9,25,11,0,11,11,7,,,,,,,,,1,1.2008078209983069,,,012,001,2019_May_09_1020,MusicAffectPsychophysiology2019,3.0.5,60.078135820353296,
,,30MonoWAV/30MonoS4.wav,1,1,3,12,,,,,1,9,25,11,,,,,,,,,,,,,,,,,012,001,2019_May_09_1020,MusicAffectPsychophysiology2019,3.0.5,60.078135820353296,
To what extent did the music make you feel ,ALERT,30MonoWAV/30MonoS1.wav,1,1,3,9,,,,,1,10,26,8,0,0,0,8,,,1,2.418529105001653,1,2.918081636998977,4,1.218452459997934,1,1.2523053600016283,,,012,001,2019_May_09_1020,MusicAffectPsychophysiology2019,3.0.5,60.078135820353296,
To what extent did the music make you feel ,GUILTY,30MonoWAV/30MonoS1.wav,1,1,3,9,,,,,1,10,26,8,0,1,1,5,,,,,,,,,4,1.585835384998063,,,012,001,2019_May_09_1020,MusicAffectPsychophysiology2019,3.0.5,60.078135820353296,
To what extent did the music make you feel ,EXCITED,30MonoWAV/30MonoS1.wav,1,1,3,9,,,,,1,10,26,8,0,2,2,7,,,,,,,,,1,2.869192998001381,,,012,001,2019_May_09_1020,MusicAffectPsychophysiology2019,3.0.5,60.078135820353296,
To what extent did the music make you feel ,ASHAMED,30MonoWAV/30MonoS1.wav,1,1,3,9,,,,,1,10,26,8,0,3,3,4,,,,,,,,,4,0.818362915997568,,,012,001,2019_May_09_1020,MusicAffectPsychophysiology2019,3.0.5,60.078135820353296,
To what extent did the music make you feel ,ANXIOUS ,30MonoWAV/30MonoS1.wav,1,1,3,9,,,,,1,10,26,8,0,4,4,1,,,,,,,,,1,0.8848417320004955,,,012,001,2019_May_09_1020,MusicAffectPsychophysiology2019,3.0.5,60.078135820353296,
To what extent did the music make you feel ,TENDER,30MonoWAV/30MonoS1.wav,1,1,3,9,,,,,1,10,26,8,0,5,5,10,,,,,,,,,4,1.067766855998343,,,012,001,2019_May_09_1020,MusicAffectPsychophysiology2019,3.0.5,60.078135820353296,
To what extent did the music make you feel ,ANGRY,30MonoWAV/30MonoS1.wav,1,1,3,9,,,,,1,10,26,8,0,6,6,2,,,,,,,,,1,1.6843034220000845,,,012,001,2019_May_09_1020,MusicAffectPsychophysiology2019,3.0.5,60.078135820353296,
To what extent did the music make you feel ,ACTIVE,30MonoWAV/30MonoS1.wav,1,1,3,9,,,,,1,10,26,8,0,7,7,9,,,,,,,,,1,0.9844354119995842,,,012,001,2019_May_09_1020,MusicAffectPsychophysiology2019,3.0.5,60.078135820353296,
To what extent did the music make you feel ,SAD,30MonoWAV/30MonoS1.wav,1,1,3,9,,,,,1,10,26,8,0,8,8,0,,,,,,,,,4,2.667568441000185,,,012,001,2019_May_09_1020,MusicAffectPsychophysiology2019,3.0.5,60.078135820353296,
To what extent did the music make you feel ,HAPPY,30MonoWAV/30MonoS1.wav,1,1,3,9,,,,,1,10,26,8,0,9,9,6,,,,,,,,,1,4.0492231369971705,,,012,001,2019_May_09_1020,MusicAffectPsychophysiology2019,3.0.5,60.078135820353296,
To what extent did the music make you feel ,SCARED,30MonoWAV/30MonoS1.wav,1,1,3,9,,,,,1,10,26,8,0,10,10,11,,,,,,,,,1,4.8507954650012834,,,012,001,2019_May_09_1020,MusicAffectPsychophysiology2019,3.0.5,60.078135820353296,
To what extent did the music make you feel ,FRUSTRATED,30MonoWAV/30MonoS1.wav,1,1,3,9,,,,,1,10,26,8,0,11,11,3,,,,,,,,,1,2.0008983480001916,,,012,001,2019_May_09_1020,MusicAffectPsychophysiology2019,3.0.5,60.078135820353296,
,,30MonoWAV/30MonoS1.wav,1,1,3,9,,,,,1,10,26,8,,,,,,,,,,,,,,,,,012,001,2019_May_09_1020,MusicAffectPsychophysiology2019,3.0.5,60.078135820353296,
To what extent did the music make you feel ,ACTIVE,30MonoWAV/30MonoF3.wav,1,2,2,3,,,,,1,11,27,2,0,0,0,9,,,5,3.317789646000165,2,2.1511322549995384,4,1.7186661020023166,5,2.5345903679990442,,,012,001,2019_May_09_1020,MusicAffectPsychophysiology2019,3.0.5,60.078135820353296,
To what extent did the music make you feel ,TENDER,30MonoWAV/30MonoF3.wav,1,2,2,3,,,,,1,11,27,2,0,1,1,10,,,,,,,,,1,0.8515959790020133,,,012,001,2019_May_09_1020,MusicAffectPsychophysiology2019,3.0.5,60.078135820353296,
To what extent did the music make you feel ,ASHAMED,30MonoWAV/30MonoF3.wav,1,2,2,3,,,,,1,11,27,2,0,2,2,4,,,,,,,,,1,1.3184044469999208,,,012,001,2019_May_09_1020,MusicAffectPsychophysiology2019,3.0.5,60.078135820353296,
To what extent did the music make you feel ,ANGRY,30MonoWAV/30MonoF3.wav,1,2,2,3,,,,,1,11,27,2,0,3,3,2,,,,,,,,,4,3.4836835030000657,,,012,001,2019_May_09_1020,MusicAffectPsychophysiology2019,3.0.5,60.078135820353296,
To what extent did the music make you feel ,SAD,30MonoWAV/30MonoF3.wav,1,2,2,3,,,,,1,11,27,2,0,4,4,0,,,,,,,,,1,2.5191974740009755,,,012,001,2019_May_09_1020,MusicAffectPsychophysiology2019,3.0.5,60.078135820353296,
To what extent did the music make you feel ,GUILTY,30MonoWAV/30MonoF3.wav,1,2,2,3,,,,,1,11,27,2,0,5,5,5,,,,,,,,,1,0.7189816329992027,,,012,001,2019_May_09_1020,MusicAffectPsychophysiology2019,3.0.5,60.078135820353296,
To what extent did the music make you feel ,FRUSTRATED,30MonoWAV/30MonoF3.wav,1,2,2,3,,,,,1,11,27,2,0,6,6,3,,,,,,,,,1,1.4350749229997746,,,012,001,2019_May_09_1020,MusicAffectPsychophysiology2019,3.0.5,60.078135820353296,
To what extent did the music make you feel ,ALERT,30MonoWAV/30MonoF3.wav,1,2,2,3,,,,,1,11,27,2,0,7,7,8,,,,,,,,,5,3.30145697899934,,,012,001,2019_May_09_1020,MusicAffectPsychophysiology2019,3.0.5,60.078135820353296,
To what extent did the music make you feel ,SCARED,30MonoWAV/30MonoF3.wav,1,2,2,3,,,,,1,11,27,2,0,8,8,11,,,,,,,,,4,3.2846674200009147,,,012,001,2019_May_09_1020,MusicAffectPsychophysiology2019,3.0.5,60.078135820353296,
To what extent did the music make you feel ,HAPPY,30MonoWAV/30MonoF3.wav,1,2,2,3,,,,,1,11,27,2,0,9,9,6,,,,,,,,,1,1.2851733149982465,,,012,001,2019_May_09_1020,MusicAffectPsychophysiology2019,3.0.5,60.078135820353296,
To what extent did the music make you feel ,EXCITED,30MonoWAV/30MonoF3.wav,1,2,2,3,,,,,1,11,27,2,0,10,10,7,,,,,,,,,4,2.5186783320023096,,,012,001,2019_May_09_1020,MusicAffectPsychophysiology2019,3.0.5,60.078135820353296,
To what extent did the music make you feel ,ANXIOUS ,30MonoWAV/30MonoF3.wav,1,2,2,3,,,,,1,11,27,2,0,11,11,1,,,,,,,,,4,3.4850776359999145,,,012,001,2019_May_09_1020,MusicAffectPsychophysiology2019,3.0.5,60.078135820353296,
,,30MonoWAV/30MonoF3.wav,1,2,2,3,,,,,1,11,27,2,,,,,,,,,,,,,,,,,012,001,2019_May_09_1020,MusicAffectPsychophysiology2019,3.0.5,60.078135820353296,
To what extent did the music make you feel ,ACTIVE,30MonoWAV/30MonoS3.wav,1,1,3,11,,,,,1,12,28,10,0,0,0,9,,,1,2.9742682149990287,1,1.1188546619996487,4,0.9514959490006731,1,4.6857975569982955,,,012,001,2019_May_09_1020,MusicAffectPsychophysiology2019,3.0.5,60.078135820353296,
To what extent did the music make you feel ,GUILTY,30MonoWAV/30MonoS3.wav,1,1,3,11,,,,,1,12,28,10,0,1,1,5,,,,,,,,,4,1.6024952989973826,,,012,001,2019_May_09_1020,MusicAffectPsychophysiology2019,3.0.5,60.078135820353296,
To what extent did the music make you feel ,FRUSTRATED,30MonoWAV/30MonoS3.wav,1,1,3,11,,,,,1,12,28,10,0,2,2,3,,,,,,,,,2,3.3001109849974455,,,012,001,2019_May_09_1020,MusicAffectPsychophysiology2019,3.0.5,60.078135820353296,
To what extent did the music make you feel ,EXCITED,30MonoWAV/30MonoS3.wav,1,1,3,11,,,,,1,12,28,10,0,3,3,7,,,,,,,,,1,1.3828871969999454,,,012,001,2019_May_09_1020,MusicAffectPsychophysiology2019,3.0.5,60.078135820353296,
To what extent did the music make you feel ,SAD,30MonoWAV/30MonoS3.wav,1,1,3,11,,,,,1,12,28,10,0,4,4,0,,,,,,,,,4,1.234116384999652,,,012,001,2019_May_09_1020,MusicAffectPsychophysiology2019,3.0.5,60.078135820353296,
To what extent did the music make you feel ,HAPPY,30MonoWAV/30MonoS3.wav,1,1,3,11,,,,,1,12,28,10,0,5,5,6,,,,,,,,,1,2.0849764439990395,,,012,001,2019_May_09_1020,MusicAffectPsychophysiology2019,3.0.5,60.078135820353296,
To what extent did the music make you feel ,ANGRY,30MonoWAV/30MonoS3.wav,1,1,3,11,,,,,1,12,28,10,0,6,6,2,,,,,,,,,4,2.567734999000095,,,012,001,2019_May_09_1020,MusicAffectPsychophysiology2019,3.0.5,60.078135820353296,
To what extent did the music make you feel ,ASHAMED,30MonoWAV/30MonoS3.wav,1,1,3,11,,,,,1,12,28,10,0,7,7,4,,,,,,,,,4,2.00307800399969,,,012,001,2019_May_09_1020,MusicAffectPsychophysiology2019,3.0.5,60.078135820353296,
To what extent did the music make you feel ,SCARED,30MonoWAV/30MonoS3.wav,1,1,3,11,,,,,1,12,28,10,0,8,8,11,,,,,,,,,1,1.8180530639983772,,,012,001,2019_May_09_1020,MusicAffectPsychophysiology2019,3.0.5,60.078135820353296,
To what extent did the music make you feel ,TENDER,30MonoWAV/30MonoS3.wav,1,1,3,11,,,,,1,12,28,10,0,9,9,10,,,,,,,,,4,1.735302667999349,,,012,001,2019_May_09_1020,MusicAffectPsychophysiology2019,3.0.5,60.078135820353296,
To what extent did the music make you feel ,ALERT,30MonoWAV/30MonoS3.wav,1,1,3,11,,,,,1,12,28,10,0,10,10,8,,,,,,,,,1,3.733408493000752,,,012,001,2019_May_09_1020,MusicAffectPsychophysiology2019,3.0.5,60.078135820353296,
To what extent did the music make you feel ,ANXIOUS ,30MonoWAV/30MonoS3.wav,1,1,3,11,,,,,1,12,28,10,0,11,11,1,,,,,,,,,1,1.5022301800017885,,,012,001,2019_May_09_1020,MusicAffectPsychophysiology2019,3.0.5,60.078135820353296,
,,30MonoWAV/30MonoS3.wav,1,1,3,11,,,,,1,12,28,10,,,,,,,,,,,,,,,,,012,001,2019_May_09_1020,MusicAffectPsychophysiology2019,3.0.5,60.078135820353296,
To what extent did the music make you feel ,SCARED,30MonoWAV/30MonoT2.wav,2,1,4,14,,,,,1,13,29,13,0,0,0,11,,,3,5.124409385000035,3,1.7236437419996946,3,1.4508976619981695,1,1.9519877380007529,,,012,001,2019_May_09_1020,MusicAffectPsychophysiology2019,3.0.5,60.078135820353296,
To what extent did the music make you feel ,EXCITED,30MonoWAV/30MonoT2.wav,2,1,4,14,,,,,1,13,29,13,0,1,1,7,,,,,,,,,1,1.4684223670010397,,,012,001,2019_May_09_1020,MusicAffectPsychophysiology2019,3.0.5,60.078135820353296,
To what extent did the music make you feel ,ACTIVE,30MonoWAV/30MonoT2.wav,2,1,4,14,,,,,1,13,29,13,0,2,2,9,,,,,,,,,2,2.3680527710021124,,,012,001,2019_May_09_1020,MusicAffectPsychophysiology2019,3.0.5,60.078135820353296,
To what extent did the music make you feel ,FRUSTRATED,30MonoWAV/30MonoT2.wav,2,1,4,14,,,,,1,13,29,13,0,3,3,3,,,,,,,,,1,1.9529234549991088,,,012,001,2019_May_09_1020,MusicAffectPsychophysiology2019,3.0.5,60.078135820353296,
To what extent did the music make you feel ,ANGRY,30MonoWAV/30MonoT2.wav,2,1,4,14,,,,,1,13,29,13,0,4,4,2,,,,,,,,,1,1.101834665001661,,,012,001,2019_May_09_1020,MusicAffectPsychophysiology2019,3.0.5,60.078135820353296,
To what extent did the music make you feel ,GUILTY,30MonoWAV/30MonoT2.wav,2,1,4,14,,,,,1,13,29,13,0,5,5,5,,,,,,,,,1,1.4997836579968862,,,012,001,2019_May_09_1020,MusicAffectPsychophysiology2019,3.0.5,60.078135820353296,
To what extent did the music make you feel ,TENDER,30MonoWAV/30MonoT2.wav,2,1,4,14,,,,,1,13,29,13,0,6,6,10,,,,,,,,,4,1.2177058289998968,,,012,001,2019_May_09_1020,MusicAffectPsychophysiology2019,3.0.5,60.078135820353296,
To what extent did the music make you feel ,ANXIOUS ,30MonoWAV/30MonoT2.wav,2,1,4,14,,,,,1,13,29,13,0,7,7,1,,,,,,,,,1,3.4343999910015555,,,012,001,2019_May_09_1020,MusicAffectPsychophysiology2019,3.0.5,60.078135820353296,
To what extent did the music make you feel ,SAD,30MonoWAV/30MonoT2.wav,2,1,4,14,,,,,1,13,29,13,0,8,8,0,,,,,,,,,1,1.3335475089988904,,,012,001,2019_May_09_1020,MusicAffectPsychophysiology2019,3.0.5,60.078135820353296,
To what extent did the music make you feel ,HAPPY,30MonoWAV/30MonoT2.wav,2,1,4,14,,,,,1,13,29,13,0,9,9,6,,,,,,,,,2,1.3515400790020067,,,012,001,2019_May_09_1020,MusicAffectPsychophysiology2019,3.0.5,60.078135820353296,
To what extent did the music make you feel ,ASHAMED,30MonoWAV/30MonoT2.wav,2,1,4,14,,,,,1,13,29,13,0,10,10,4,,,,,,,,,1,4.134137994999037,,,012,001,2019_May_09_1020,MusicAffectPsychophysiology2019,3.0.5,60.078135820353296,
To what extent did the music make you feel ,ALERT,30MonoWAV/30MonoT2.wav,2,1,4,14,,,,,1,13,29,13,0,11,11,8,,,,,,,,,1,0.784186752000096,,,012,001,2019_May_09_1020,MusicAffectPsychophysiology2019,3.0.5,60.078135820353296,
,,30MonoWAV/30MonoT2.wav,2,1,4,14,,,,,1,13,29,13,,,,,,,,,,,,,,,,,012,001,2019_May_09_1020,MusicAffectPsychophysiology2019,3.0.5,60.078135820353296,
To what extent did the music make you feel ,ALERT,30MonoWAV/30MonoS2.wav,1,1,3,10,,,,,1,14,30,9,0,0,0,8,,,1,3.234634701999312,1,1.2856142179989547,4,1.1015058740013046,1,1.7508595699982834,,,012,001,2019_May_09_1020,MusicAffectPsychophysiology2019,3.0.5,60.078135820353296,
To what extent did the music make you feel ,SCARED,30MonoWAV/30MonoS2.wav,1,1,3,10,,,,,1,14,30,9,0,1,1,11,,,,,,,,,1,0.5837944009981584,,,012,001,2019_May_09_1020,MusicAffectPsychophysiology2019,3.0.5,60.078135820353296,
To what extent did the music make you feel ,FRUSTRATED,30MonoWAV/30MonoS2.wav,1,1,3,10,,,,,1,14,30,9,0,2,2,3,,,,,,,,,1,0.5853991299991321,,,012,001,2019_May_09_1020,MusicAffectPsychophysiology2019,3.0.5,60.078135820353296,
To what extent did the music make you feel ,EXCITED,30MonoWAV/30MonoS2.wav,1,1,3,10,,,,,1,14,30,9,0,3,3,7,,,,,,,,,1,0.8010883460010518,,,012,001,2019_May_09_1020,MusicAffectPsychophysiology2019,3.0.5,60.078135820353296,
To what extent did the music make you feel ,TENDER,30MonoWAV/30MonoS2.wav,1,1,3,10,,,,,1,14,30,9,0,4,4,10,,,,,,,,,4,1.4870945360016776,,,012,001,2019_May_09_1020,MusicAffectPsychophysiology2019,3.0.5,60.078135820353296,
To what extent did the music make you feel ,ANGRY,30MonoWAV/30MonoS2.wav,1,1,3,10,,,,,1,14,30,9,0,5,5,2,,,,,,,,,1,1.1678694120018918,,,012,001,2019_May_09_1020,MusicAffectPsychophysiology2019,3.0.5,60.078135820353296,
To what extent did the music make you feel ,GUILTY,30MonoWAV/30MonoS2.wav,1,1,3,10,,,,,1,14,30,9,0,6,6,5,,,,,,,,,4,1.417892182002106,,,012,001,2019_May_09_1020,MusicAffectPsychophysiology2019,3.0.5,60.078135820353296,
To what extent did the music make you feel ,ASHAMED,30MonoWAV/30MonoS2.wav,1,1,3,10,,,,,1,14,30,9,0,7,7,4,,,,,,,,,4,0.7518373979983153,,,012,001,2019_May_09_1020,MusicAffectPsychophysiology2019,3.0.5,60.078135820353296,
To what extent did the music make you feel ,SAD,30MonoWAV/30MonoS2.wav,1,1,3,10,,,,,1,14,30,9,0,8,8,0,,,,,,,,,4,0.867898487002094,,,012,001,2019_May_09_1020,MusicAffectPsychophysiology2019,3.0.5,60.078135820353296,
To what extent did the music make you feel ,HAPPY,30MonoWAV/30MonoS2.wav,1,1,3,10,,,,,1,14,30,9,0,9,9,6,,,,,,,,,1,1.0854294829987339,,,012,001,2019_May_09_1020,MusicAffectPsychophysiology2019,3.0.5,60.078135820353296,
To what extent did the music make you feel ,ANXIOUS ,30MonoWAV/30MonoS2.wav,1,1,3,10,,,,,1,14,30,9,0,10,10,1,,,,,,,,,1,2.533028737998393,,,012,001,2019_May_09_1020,MusicAffectPsychophysiology2019,3.0.5,60.078135820353296,
To what extent did the music make you feel ,ACTIVE,30MonoWAV/30MonoS2.wav,1,1,3,10,,,,,1,14,30,9,0,11,11,9,,,,,,,,,1,0.8348643479985185,,,012,001,2019_May_09_1020,MusicAffectPsychophysiology2019,3.0.5,60.078135820353296,
,,30MonoWAV/30MonoS2.wav,1,1,3,10,,,,,1,14,30,9,,,,,,,,,,,,,,,,,012,001,2019_May_09_1020,MusicAffectPsychophysiology2019,3.0.5,60.078135820353296,
To what extent did the music make you feel ,GUILTY,30MonoWAV/30MonoH2.wav,2,2,1,6,,,,,1,15,31,5,0,0,0,5,,,4,3.051238722000562,5,1.0511304060019029,5,0.8862542070019117,2,1.969289477001439,,,012,001,2019_May_09_1020,MusicAffectPsychophysiology2019,3.0.5,60.078135820353296,
To what extent did the music make you feel ,SCARED,30MonoWAV/30MonoH2.wav,2,2,1,6,,,,,1,15,31,5,0,1,1,11,,,,,,,,,2,0.80172931999914,,,012,001,2019_May_09_1020,MusicAffectPsychophysiology2019,3.0.5,60.078135820353296,
To what extent did the music make you feel ,ALERT,30MonoWAV/30MonoH2.wav,2,2,1,6,,,,,1,15,31,5,0,2,2,8,,,,,,,,,5,1.6180071990020224,,,012,001,2019_May_09_1020,MusicAffectPsychophysiology2019,3.0.5,60.078135820353296,
To what extent did the music make you feel ,HAPPY,30MonoWAV/30MonoH2.wav,2,2,1,6,,,,,1,15,31,5,0,3,3,6,,,,,,,,,5,0.6349009040022793,,,012,001,2019_May_09_1020,MusicAffectPsychophysiology2019,3.0.5,60.078135820353296,
To what extent did the music make you feel ,SAD,30MonoWAV/30MonoH2.wav,2,2,1,6,,,,,1,15,31,5,0,4,4,0,,,,,,,,,2,1.9342719550004404,,,012,001,2019_May_09_1020,MusicAffectPsychophysiology2019,3.0.5,60.078135820353296,
To what extent did the music make you feel ,ACTIVE,30MonoWAV/30MonoH2.wav,2,2,1,6,,,,,1,15,31,5,0,5,5,9,,,,,,,,,5,0.7186118220015487,,,012,001,2019_May_09_1020,MusicAffectPsychophysiology2019,3.0.5,60.078135820353296,
To what extent did the music make you feel ,EXCITED,30MonoWAV/30MonoH2.wav,2,2,1,6,,,,,1,15,31,5,0,6,6,7,,,,,,,,,5,0.6518271999993885,,,012,001,2019_May_09_1020,MusicAffectPsychophysiology2019,3.0.5,60.078135820353296,
To what extent did the music make you feel ,ANXIOUS ,30MonoWAV/30MonoH2.wav,2,2,1,6,,,,,1,15,31,5,0,7,7,1,,,,,,,,,2,1.1022932410014619,,,012,001,2019_May_09_1020,MusicAffectPsychophysiology2019,3.0.5,60.078135820353296,
To what extent did the music make you feel ,ASHAMED,30MonoWAV/30MonoH2.wav,2,2,1,6,,,,,1,15,31,5,0,8,8,4,,,,,,,,,2,0.7355373470018094,,,012,001,2019_May_09_1020,MusicAffectPsychophysiology2019,3.0.5,60.078135820353296,
To what extent did the music make you feel ,FRUSTRATED,30MonoWAV/30MonoH2.wav,2,2,1,6,,,,,1,15,31,5,0,9,9,3,,,,,,,,,2,0.735633243999473,,,012,001,2019_May_09_1020,MusicAffectPsychophysiology2019,3.0.5,60.078135820353296,
To what extent did the music make you feel ,ANGRY,30MonoWAV/30MonoH2.wav,2,2,1,6,,,,,1,15,31,5,0,10,10,2,,,,,,,,,2,0.6186099960032152,,,012,001,2019_May_09_1020,MusicAffectPsychophysiology2019,3.0.5,60.078135820353296,
To what extent did the music make you feel ,TENDER,30MonoWAV/30MonoH2.wav,2,2,1,6,,,,,1,15,31,5,0,11,11,10,,,,,,,,,2,1.6168144729999767,,,012,001,2019_May_09_1020,MusicAffectPsychophysiology2019,3.0.5,60.078135820353296,
,,30MonoWAV/30MonoH2.wav,2,2,1,6,,,,,1,15,31,5,,,,,,,,,,,,,,,,,012,001,2019_May_09_1020,MusicAffectPsychophysiology2019,3.0.5,60.078135820353296,
,,,,,,,,,,,,,,,,,,,,,,,,,,,,,space,8.467727374001697,012,001,2019_May_09_1020,MusicAffectPsychophysiology2019,3.0.5,60.078135820353296,
