Instruction,Word,song,valence,arousal,affectcat,songmark,pracwords.thisRepN,pracwords.thisTrialN,pracwords.thisN,pracwords.thisIndex,songtrials.thisRepN,songtrials.thisTrialN,songtrials.thisN,songtrials.thisIndex,words.thisRepN,words.thisTrialN,words.thisN,words.thisIndex,begin.keys,begin.rt,arousalkey.keys,arousalkey.rt,valencekey.keys,valencekey.rt,likekey.keys,likekey.rt,WordResponse.keys,WordResponse.rt,participant,session,date,expName,psychopyVersion,frameRate,
,,,,,,,,,,,,,,,,,,,space,13.768812062000507,,,,,,,,,013,001,2019_May_09_1118,MusicAffectPsychophysiology2019,3.0.5,59.99650916357739,
,,,,,,,,,,,,,,,,,,,,,4,14.741755224000372,,,,,,,013,001,2019_May_09_1118,MusicAffectPsychophysiology2019,3.0.5,59.99650916357739,
,,,,,,,,,,,,,,,,,,,,,,,5,4.300482126000134,,,,,013,001,2019_May_09_1118,MusicAffectPsychophysiology2019,3.0.5,59.99650916357739,
,,,,,,,,,,,,,,,,,,,,,,,,,5,2.8016752100011217,,,013,001,2019_May_09_1118,MusicAffectPsychophysiology2019,3.0.5,59.99650916357739,
To what extent did the music make you feel ,ASHAMED,,,,,,0,0,0,4,,,,,,,,,,,,,,,,,1,6.168780780000816,013,001,2019_May_09_1118,MusicAffectPsychophysiology2019,3.0.5,59.99650916357739,
To what extent did the music make you feel ,ALERT,,,,,,0,1,1,8,,,,,,,,,,,,,,,,,2,3.267468622998422,013,001,2019_May_09_1118,MusicAffectPsychophysiology2019,3.0.5,59.99650916357739,
To what extent did the music make you feel ,SAD,,,,,,0,2,2,0,,,,,,,,,,,,,,,,,2,4.351205753999238,013,001,2019_May_09_1118,MusicAffectPsychophysiology2019,3.0.5,59.99650916357739,
To what extent did the music make you feel ,HAPPY,,,,,,0,3,3,6,,,,,,,,,,,,,,,,,4,2.1848517910002556,013,001,2019_May_09_1118,MusicAffectPsychophysiology2019,3.0.5,59.99650916357739,
To what extent did the music make you feel ,EXCITED,,,,,,0,4,4,7,,,,,,,,,,,,,,,,,3,2.168464951002534,013,001,2019_May_09_1118,MusicAffectPsychophysiology2019,3.0.5,59.99650916357739,
To what extent did the music make you feel ,ACTIVE,,,,,,0,5,5,9,,,,,,,,,,,,,,,,,3,2.5682843120011967,013,001,2019_May_09_1118,MusicAffectPsychophysiology2019,3.0.5,59.99650916357739,
To what extent did the music make you feel ,FRUSTRATED,,,,,,0,6,6,3,,,,,,,,,,,,,,,,,1,2.0179098730004625,013,001,2019_May_09_1118,MusicAffectPsychophysiology2019,3.0.5,59.99650916357739,
To what extent did the music make you feel ,GUILTY,,,,,,0,7,7,5,,,,,,,,,,,,,,,,,1,1.7689741979993414,013,001,2019_May_09_1118,MusicAffectPsychophysiology2019,3.0.5,59.99650916357739,
To what extent did the music make you feel ,ANXIOUS ,,,,,,0,8,8,1,,,,,,,,,,,,,,,,,2,2.0528499820029538,013,001,2019_May_09_1118,MusicAffectPsychophysiology2019,3.0.5,59.99650916357739,
To what extent did the music make you feel ,SCARED,,,,,,0,9,9,11,,,,,,,,,,,,,,,,,3,10.001640343998588,013,001,2019_May_09_1118,MusicAffectPsychophysiology2019,3.0.5,59.99650916357739,
To what extent did the music make you feel ,TENDER,,,,,,0,10,10,10,,,,,,,,,,,,,,,,,3,2.4338779080026143,013,001,2019_May_09_1118,MusicAffectPsychophysiology2019,3.0.5,59.99650916357739,
To what extent did the music make you feel ,ANGRY,,,,,,0,11,11,2,,,,,,,,,,,,,,,,,1,1.4517062729973986,013,001,2019_May_09_1118,MusicAffectPsychophysiology2019,3.0.5,59.99650916357739,
To what extent did the music make you feel ,GUILTY,30MonoWAV/30MonoF3.wav,1,2,2,3,,,,,0,0,0,2,0,0,0,5,,,4,6.082882680999319,4,2.651165832998231,4,4.11786161100099,1,2.352143984000577,013,001,2019_May_09_1118,MusicAffectPsychophysiology2019,3.0.5,59.99650916357739,
To what extent did the music make you feel ,ACTIVE,30MonoWAV/30MonoF3.wav,1,2,2,3,,,,,0,0,0,2,0,1,1,9,,,,,,,,,4,4.66625221600043,013,001,2019_May_09_1118,MusicAffectPsychophysiology2019,3.0.5,59.99650916357739,
To what extent did the music make you feel ,TENDER,30MonoWAV/30MonoF3.wav,1,2,2,3,,,,,0,0,0,2,0,2,2,10,,,,,,,,,2,2.436836619002861,013,001,2019_May_09_1118,MusicAffectPsychophysiology2019,3.0.5,59.99650916357739,
To what extent did the music make you feel ,SCARED,30MonoWAV/30MonoF3.wav,1,2,2,3,,,,,0,0,0,2,0,3,3,11,,,,,,,,,2,1.7001462389998778,013,001,2019_May_09_1118,MusicAffectPsychophysiology2019,3.0.5,59.99650916357739,
To what extent did the music make you feel ,ANGRY,30MonoWAV/30MonoF3.wav,1,2,2,3,,,,,0,0,0,2,0,4,4,2,,,,,,,,,1,1.7339239590000943,013,001,2019_May_09_1118,MusicAffectPsychophysiology2019,3.0.5,59.99650916357739,
To what extent did the music make you feel ,ANXIOUS ,30MonoWAV/30MonoF3.wav,1,2,2,3,,,,,0,0,0,2,0,5,5,1,,,,,,,,,3,2.5358362789993407,013,001,2019_May_09_1118,MusicAffectPsychophysiology2019,3.0.5,59.99650916357739,
To what extent did the music make you feel ,ASHAMED,30MonoWAV/30MonoF3.wav,1,2,2,3,,,,,0,0,0,2,0,6,6,4,,,,,,,,,1,1.1681348560014158,013,001,2019_May_09_1118,MusicAffectPsychophysiology2019,3.0.5,59.99650916357739,
To what extent did the music make you feel ,SAD,30MonoWAV/30MonoF3.wav,1,2,2,3,,,,,0,0,0,2,0,7,7,0,,,,,,,,,1,1.5673363280002377,013,001,2019_May_09_1118,MusicAffectPsychophysiology2019,3.0.5,59.99650916357739,
To what extent did the music make you feel ,EXCITED,30MonoWAV/30MonoF3.wav,1,2,2,3,,,,,0,0,0,2,0,8,8,7,,,,,,,,,4,1.983606158002658,013,001,2019_May_09_1118,MusicAffectPsychophysiology2019,3.0.5,59.99650916357739,
To what extent did the music make you feel ,HAPPY,30MonoWAV/30MonoF3.wav,1,2,2,3,,,,,0,0,0,2,0,9,9,6,,,,,,,,,4,0.6015825020003831,013,001,2019_May_09_1118,MusicAffectPsychophysiology2019,3.0.5,59.99650916357739,
To what extent did the music make you feel ,FRUSTRATED,30MonoWAV/30MonoF3.wav,1,2,2,3,,,,,0,0,0,2,0,10,10,3,,,,,,,,,1,1.8173344829992857,013,001,2019_May_09_1118,MusicAffectPsychophysiology2019,3.0.5,59.99650916357739,
To what extent did the music make you feel ,ALERT,30MonoWAV/30MonoF3.wav,1,2,2,3,,,,,0,0,0,2,0,11,11,8,,,,,,,,,4,2.6194697989994893,013,001,2019_May_09_1118,MusicAffectPsychophysiology2019,3.0.5,59.99650916357739,
,,30MonoWAV/30MonoF3.wav,1,2,2,3,,,,,0,0,0,2,,,,,,,,,,,,,,,013,001,2019_May_09_1118,MusicAffectPsychophysiology2019,3.0.5,59.99650916357739,
To what extent did the music make you feel ,ANGRY,30MonoWAV/30MonoH4.wav,2,2,1,8,,,,,0,1,1,7,0,0,0,2,,,5,4.492308565000712,5,2.0999429170005897,5,1.6857131109973125,1,1.6524475340011122,013,001,2019_May_09_1118,MusicAffectPsychophysiology2019,3.0.5,59.99650916357739,
To what extent did the music make you feel ,EXCITED,30MonoWAV/30MonoH4.wav,2,2,1,8,,,,,0,1,1,7,0,1,1,7,,,,,,,,,5,2.2511487849988043,013,001,2019_May_09_1118,MusicAffectPsychophysiology2019,3.0.5,59.99650916357739,
To what extent did the music make you feel ,ACTIVE,30MonoWAV/30MonoH4.wav,2,2,1,8,,,,,0,1,1,7,0,2,2,9,,,,,,,,,5,1.2685128839984827,013,001,2019_May_09_1118,MusicAffectPsychophysiology2019,3.0.5,59.99650916357739,
To what extent did the music make you feel ,SAD,30MonoWAV/30MonoH4.wav,2,2,1,8,,,,,0,1,1,7,0,3,3,0,,,,,,,,,1,1.3679119810003613,013,001,2019_May_09_1118,MusicAffectPsychophysiology2019,3.0.5,59.99650916357739,
To what extent did the music make you feel ,FRUSTRATED,30MonoWAV/30MonoH4.wav,2,2,1,8,,,,,0,1,1,7,0,4,4,3,,,,,,,,,1,0.9684962489991449,013,001,2019_May_09_1118,MusicAffectPsychophysiology2019,3.0.5,59.99650916357739,
To what extent did the music make you feel ,GUILTY,30MonoWAV/30MonoH4.wav,2,2,1,8,,,,,0,1,1,7,0,5,5,5,,,,,,,,,1,3.218404842999007,013,001,2019_May_09_1118,MusicAffectPsychophysiology2019,3.0.5,59.99650916357739,
To what extent did the music make you feel ,ANXIOUS ,30MonoWAV/30MonoH4.wav,2,2,1,8,,,,,0,1,1,7,0,6,6,1,,,,,,,,,2,1.7859613399996306,013,001,2019_May_09_1118,MusicAffectPsychophysiology2019,3.0.5,59.99650916357739,
To what extent did the music make you feel ,ALERT,30MonoWAV/30MonoH4.wav,2,2,1,8,,,,,0,1,1,7,0,7,7,8,,,,,,,,,4,1.6996667069979594,013,001,2019_May_09_1118,MusicAffectPsychophysiology2019,3.0.5,59.99650916357739,
To what extent did the music make you feel ,SCARED,30MonoWAV/30MonoH4.wav,2,2,1,8,,,,,0,1,1,7,0,8,8,11,,,,,,,,,1,1.6357865399986622,013,001,2019_May_09_1118,MusicAffectPsychophysiology2019,3.0.5,59.99650916357739,
To what extent did the music make you feel ,TENDER,30MonoWAV/30MonoH4.wav,2,2,1,8,,,,,0,1,1,7,0,9,9,10,,,,,,,,,3,1.4516723939996155,013,001,2019_May_09_1118,MusicAffectPsychophysiology2019,3.0.5,59.99650916357739,
To what extent did the music make you feel ,HAPPY,30MonoWAV/30MonoH4.wav,2,2,1,8,,,,,0,1,1,7,0,10,10,6,,,,,,,,,5,2.284386622999591,013,001,2019_May_09_1118,MusicAffectPsychophysiology2019,3.0.5,59.99650916357739,
To what extent did the music make you feel ,ASHAMED,30MonoWAV/30MonoH4.wav,2,2,1,8,,,,,0,1,1,7,0,11,11,4,,,,,,,,,1,1.3860255110012076,013,001,2019_May_09_1118,MusicAffectPsychophysiology2019,3.0.5,59.99650916357739,
,,30MonoWAV/30MonoH4.wav,2,2,1,8,,,,,0,1,1,7,,,,,,,,,,,,,,,013,001,2019_May_09_1118,MusicAffectPsychophysiology2019,3.0.5,59.99650916357739,
To what extent did the music make you feel ,ACTIVE,30MonoWAV/30MonoS1.wav,1,1,3,9,,,,,0,2,2,8,0,0,0,9,,,3,5.217590060001385,4,3.3172650250016886,4,2.26835482700335,2,2.2843016690021614,013,001,2019_May_09_1118,MusicAffectPsychophysiology2019,3.0.5,59.99650916357739,
To what extent did the music make you feel ,SCARED,30MonoWAV/30MonoS1.wav,1,1,3,9,,,,,0,2,2,8,0,1,1,11,,,,,,,,,2,2.635565458000201,013,001,2019_May_09_1118,MusicAffectPsychophysiology2019,3.0.5,59.99650916357739,
To what extent did the music make you feel ,ANGRY,30MonoWAV/30MonoS1.wav,1,1,3,9,,,,,0,2,2,8,0,2,2,2,,,,,,,,,1,1.0681761909982015,013,001,2019_May_09_1118,MusicAffectPsychophysiology2019,3.0.5,59.99650916357739,
To what extent did the music make you feel ,TENDER,30MonoWAV/30MonoS1.wav,1,1,3,9,,,,,0,2,2,8,0,3,3,10,,,,,,,,,3,1.101591221999115,013,001,2019_May_09_1118,MusicAffectPsychophysiology2019,3.0.5,59.99650916357739,
To what extent did the music make you feel ,GUILTY,30MonoWAV/30MonoS1.wav,1,1,3,9,,,,,0,2,2,8,0,4,4,5,,,,,,,,,1,2.418255691998638,013,001,2019_May_09_1118,MusicAffectPsychophysiology2019,3.0.5,59.99650916357739,
To what extent did the music make you feel ,ASHAMED,30MonoWAV/30MonoS1.wav,1,1,3,9,,,,,0,2,2,8,0,5,5,4,,,,,,,,,1,1.6349749330001941,013,001,2019_May_09_1118,MusicAffectPsychophysiology2019,3.0.5,59.99650916357739,
To what extent did the music make you feel ,ANXIOUS ,30MonoWAV/30MonoS1.wav,1,1,3,9,,,,,0,2,2,8,0,6,6,1,,,,,,,,,3,3.4835760479982127,013,001,2019_May_09_1118,MusicAffectPsychophysiology2019,3.0.5,59.99650916357739,
To what extent did the music make you feel ,SAD,30MonoWAV/30MonoS1.wav,1,1,3,9,,,,,0,2,2,8,0,7,7,0,,,,,,,,,2,4.169119084999693,013,001,2019_May_09_1118,MusicAffectPsychophysiology2019,3.0.5,59.99650916357739,
To what extent did the music make you feel ,ALERT,30MonoWAV/30MonoS1.wav,1,1,3,9,,,,,0,2,2,8,0,8,8,8,,,,,,,,,1,1.8014586600002076,013,001,2019_May_09_1118,MusicAffectPsychophysiology2019,3.0.5,59.99650916357739,
To what extent did the music make you feel ,HAPPY,30MonoWAV/30MonoS1.wav,1,1,3,9,,,,,0,2,2,8,0,9,9,6,,,,,,,,,3,4.135165579002205,013,001,2019_May_09_1118,MusicAffectPsychophysiology2019,3.0.5,59.99650916357739,
To what extent did the music make you feel ,FRUSTRATED,30MonoWAV/30MonoS1.wav,1,1,3,9,,,,,0,2,2,8,0,10,10,3,,,,,,,,,1,1.9502062979991024,013,001,2019_May_09_1118,MusicAffectPsychophysiology2019,3.0.5,59.99650916357739,
To what extent did the music make you feel ,EXCITED,30MonoWAV/30MonoS1.wav,1,1,3,9,,,,,0,2,2,8,0,11,11,7,,,,,,,,,2,2.501076650001778,013,001,2019_May_09_1118,MusicAffectPsychophysiology2019,3.0.5,59.99650916357739,
,,30MonoWAV/30MonoS1.wav,1,1,3,9,,,,,0,2,2,8,,,,,,,,,,,,,,,013,001,2019_May_09_1118,MusicAffectPsychophysiology2019,3.0.5,59.99650916357739,
To what extent did the music make you feel ,TENDER,30MonoWAV/30MonoS2.wav,1,1,3,10,,,,,0,3,3,9,0,0,0,10,,,3,7.417299066000851,3,2.2006642510023084,4,1.9706562259998464,3,2.4513959340001747,013,001,2019_May_09_1118,MusicAffectPsychophysiology2019,3.0.5,59.99650916357739,
To what extent did the music make you feel ,GUILTY,30MonoWAV/30MonoS2.wav,1,1,3,10,,,,,0,3,3,9,0,1,1,5,,,,,,,,,2,2.53545755000232,013,001,2019_May_09_1118,MusicAffectPsychophysiology2019,3.0.5,59.99650916357739,
To what extent did the music make you feel ,EXCITED,30MonoWAV/30MonoS2.wav,1,1,3,10,,,,,0,3,3,9,0,2,2,7,,,,,,,,,2,4.501475213000958,013,001,2019_May_09_1118,MusicAffectPsychophysiology2019,3.0.5,59.99650916357739,
To what extent did the music make you feel ,ASHAMED,30MonoWAV/30MonoS2.wav,1,1,3,10,,,,,0,3,3,9,0,3,3,4,,,,,,,,,3,3.4018634050007677,013,001,2019_May_09_1118,MusicAffectPsychophysiology2019,3.0.5,59.99650916357739,
To what extent did the music make you feel ,ACTIVE,30MonoWAV/30MonoS2.wav,1,1,3,10,,,,,0,3,3,9,0,4,4,9,,,,,,,,,2,1.2352006430010078,013,001,2019_May_09_1118,MusicAffectPsychophysiology2019,3.0.5,59.99650916357739,
To what extent did the music make you feel ,FRUSTRATED,30MonoWAV/30MonoS2.wav,1,1,3,10,,,,,0,3,3,9,0,5,5,3,,,,,,,,,1,1.2350644449979882,013,001,2019_May_09_1118,MusicAffectPsychophysiology2019,3.0.5,59.99650916357739,
To what extent did the music make you feel ,ALERT,30MonoWAV/30MonoS2.wav,1,1,3,10,,,,,0,3,3,9,0,6,6,8,,,,,,,,,2,2.334929264998209,013,001,2019_May_09_1118,MusicAffectPsychophysiology2019,3.0.5,59.99650916357739,
To what extent did the music make you feel ,ANXIOUS ,30MonoWAV/30MonoS2.wav,1,1,3,10,,,,,0,3,3,9,0,7,7,1,,,,,,,,,3,1.6349469710003177,013,001,2019_May_09_1118,MusicAffectPsychophysiology2019,3.0.5,59.99650916357739,
To what extent did the music make you feel ,HAPPY,30MonoWAV/30MonoS2.wav,1,1,3,10,,,,,0,3,3,9,0,8,8,6,,,,,,,,,2,3.7341921250008454,013,001,2019_May_09_1118,MusicAffectPsychophysiology2019,3.0.5,59.99650916357739,
To what extent did the music make you feel ,ANGRY,30MonoWAV/30MonoS2.wav,1,1,3,10,,,,,0,3,3,9,0,9,9,2,,,,,,,,,1,1.4026118100009626,013,001,2019_May_09_1118,MusicAffectPsychophysiology2019,3.0.5,59.99650916357739,
To what extent did the music make you feel ,SCARED,30MonoWAV/30MonoS2.wav,1,1,3,10,,,,,0,3,3,9,0,10,10,11,,,,,,,,,3,2.3175644549992285,013,001,2019_May_09_1118,MusicAffectPsychophysiology2019,3.0.5,59.99650916357739,
To what extent did the music make you feel ,SAD,30MonoWAV/30MonoS2.wav,1,1,3,10,,,,,0,3,3,9,0,11,11,0,,,,,,,,,4,3.6392134800007625,013,001,2019_May_09_1118,MusicAffectPsychophysiology2019,3.0.5,59.99650916357739,
,,30MonoWAV/30MonoS2.wav,1,1,3,10,,,,,0,3,3,9,,,,,,,,,,,,,,,013,001,2019_May_09_1118,MusicAffectPsychophysiology2019,3.0.5,59.99650916357739,
To what extent did the music make you feel ,EXCITED,30MonoWAV/30MonoT2.wav,2,1,4,14,,,,,0,4,4,13,0,0,0,7,,,3,5.8511549690010725,4,3.5675742690000334,5,2.3511749530007364,3,3.435076179001044,013,001,2019_May_09_1118,MusicAffectPsychophysiology2019,3.0.5,59.99650916357739,
To what extent did the music make you feel ,TENDER,30MonoWAV/30MonoT2.wav,2,1,4,14,,,,,0,4,4,13,0,1,1,10,,,,,,,,,4,1.3689246510002704,013,001,2019_May_09_1118,MusicAffectPsychophysiology2019,3.0.5,59.99650916357739,
To what extent did the music make you feel ,FRUSTRATED,30MonoWAV/30MonoT2.wav,2,1,4,14,,,,,0,4,4,13,0,2,2,3,,,,,,,,,1,1.3504376849996333,013,001,2019_May_09_1118,MusicAffectPsychophysiology2019,3.0.5,59.99650916357739,
To what extent did the music make you feel ,SAD,30MonoWAV/30MonoT2.wav,2,1,4,14,,,,,0,4,4,13,0,3,3,0,,,,,,,,,2,2.0330582089991367,013,001,2019_May_09_1118,MusicAffectPsychophysiology2019,3.0.5,59.99650916357739,
To what extent did the music make you feel ,SCARED,30MonoWAV/30MonoT2.wav,2,1,4,14,,,,,0,4,4,13,0,4,4,11,,,,,,,,,1,1.4326667459972668,013,001,2019_May_09_1118,MusicAffectPsychophysiology2019,3.0.5,59.99650916357739,
To what extent did the music make you feel ,ACTIVE,30MonoWAV/30MonoT2.wav,2,1,4,14,,,,,0,4,4,13,0,5,5,9,,,,,,,,,1,1.6849575029991684,013,001,2019_May_09_1118,MusicAffectPsychophysiology2019,3.0.5,59.99650916357739,
To what extent did the music make you feel ,ANXIOUS ,30MonoWAV/30MonoT2.wav,2,1,4,14,,,,,0,4,4,13,0,6,6,1,,,,,,,,,3,4.834616123996966,013,001,2019_May_09_1118,MusicAffectPsychophysiology2019,3.0.5,59.99650916357739,
To what extent did the music make you feel ,ANGRY,30MonoWAV/30MonoT2.wav,2,1,4,14,,,,,0,4,4,13,0,7,7,2,,,,,,,,,2,0.8178819290005777,013,001,2019_May_09_1118,MusicAffectPsychophysiology2019,3.0.5,59.99650916357739,
To what extent did the music make you feel ,HAPPY,30MonoWAV/30MonoT2.wav,2,1,4,14,,,,,0,4,4,13,0,8,8,6,,,,,,,,,3,6.567822537999746,013,001,2019_May_09_1118,MusicAffectPsychophysiology2019,3.0.5,59.99650916357739,
To what extent did the music make you feel ,ASHAMED,30MonoWAV/30MonoT2.wav,2,1,4,14,,,,,0,4,4,13,0,9,9,4,,,,,,,,,1,1.1350362339981075,013,001,2019_May_09_1118,MusicAffectPsychophysiology2019,3.0.5,59.99650916357739,
To what extent did the music make you feel ,GUILTY,30MonoWAV/30MonoT2.wav,2,1,4,14,,,,,0,4,4,13,0,10,10,5,,,,,,,,,1,1.8347884600007092,013,001,2019_May_09_1118,MusicAffectPsychophysiology2019,3.0.5,59.99650916357739,
To what extent did the music make you feel ,ALERT,30MonoWAV/30MonoT2.wav,2,1,4,14,,,,,0,4,4,13,0,11,11,8,,,,,,,,,2,1.601387678001629,013,001,2019_May_09_1118,MusicAffectPsychophysiology2019,3.0.5,59.99650916357739,
,,30MonoWAV/30MonoT2.wav,2,1,4,14,,,,,0,4,4,13,,,,,,,,,,,,,,,013,001,2019_May_09_1118,MusicAffectPsychophysiology2019,3.0.5,59.99650916357739,
To what extent did the music make you feel ,EXCITED,30MonoWAV/30MonoS4.wav,1,1,3,12,,,,,0,5,5,11,0,0,0,7,,,2,4.552519974997267,3,2.851128892001725,4,1.2529061900022498,2,2.4006074979988625,013,001,2019_May_09_1118,MusicAffectPsychophysiology2019,3.0.5,59.99650916357739,
To what extent did the music make you feel ,ANXIOUS ,30MonoWAV/30MonoS4.wav,1,1,3,12,,,,,0,5,5,11,0,1,1,1,,,,,,,,,4,2.6851528660008626,013,001,2019_May_09_1118,MusicAffectPsychophysiology2019,3.0.5,59.99650916357739,
To what extent did the music make you feel ,FRUSTRATED,30MonoWAV/30MonoS4.wav,1,1,3,12,,,,,0,5,5,11,0,2,2,3,,,,,,,,,1,1.917775123998581,013,001,2019_May_09_1118,MusicAffectPsychophysiology2019,3.0.5,59.99650916357739,
To what extent did the music make you feel ,ASHAMED,30MonoWAV/30MonoS4.wav,1,1,3,12,,,,,0,5,5,11,0,3,3,4,,,,,,,,,1,1.8016877720001503,013,001,2019_May_09_1118,MusicAffectPsychophysiology2019,3.0.5,59.99650916357739,
To what extent did the music make you feel ,GUILTY,30MonoWAV/30MonoS4.wav,1,1,3,12,,,,,0,5,5,11,0,4,4,5,,,,,,,,,2,2.3344314389978535,013,001,2019_May_09_1118,MusicAffectPsychophysiology2019,3.0.5,59.99650916357739,
To what extent did the music make you feel ,SCARED,30MonoWAV/30MonoS4.wav,1,1,3,12,,,,,0,5,5,11,0,5,5,11,,,,,,,,,3,1.5685739520013158,013,001,2019_May_09_1118,MusicAffectPsychophysiology2019,3.0.5,59.99650916357739,
To what extent did the music make you feel ,SAD,30MonoWAV/30MonoS4.wav,1,1,3,12,,,,,0,5,5,11,0,6,6,0,,,,,,,,,4,1.3356501789967297,013,001,2019_May_09_1118,MusicAffectPsychophysiology2019,3.0.5,59.99650916357739,
To what extent did the music make you feel ,ACTIVE,30MonoWAV/30MonoS4.wav,1,1,3,12,,,,,0,5,5,11,0,7,7,9,,,,,,,,,1,1.501146926999354,013,001,2019_May_09_1118,MusicAffectPsychophysiology2019,3.0.5,59.99650916357739,
To what extent did the music make you feel ,ANGRY,30MonoWAV/30MonoS4.wav,1,1,3,12,,,,,0,5,5,11,0,8,8,2,,,,,,,,,1,1.151259084999765,013,001,2019_May_09_1118,MusicAffectPsychophysiology2019,3.0.5,59.99650916357739,
To what extent did the music make you feel ,TENDER,30MonoWAV/30MonoS4.wav,1,1,3,12,,,,,0,5,5,11,0,9,9,10,,,,,,,,,4,1.4851063070018427,013,001,2019_May_09_1118,MusicAffectPsychophysiology2019,3.0.5,59.99650916357739,
To what extent did the music make you feel ,ALERT,30MonoWAV/30MonoS4.wav,1,1,3,12,,,,,0,5,5,11,0,10,10,8,,,,,,,,,2,1.5020740420004586,013,001,2019_May_09_1118,MusicAffectPsychophysiology2019,3.0.5,59.99650916357739,
To what extent did the music make you feel ,HAPPY,30MonoWAV/30MonoS4.wav,1,1,3,12,,,,,0,5,5,11,0,11,11,6,,,,,,,,,3,1.8010308129996702,013,001,2019_May_09_1118,MusicAffectPsychophysiology2019,3.0.5,59.99650916357739,
,,30MonoWAV/30MonoS4.wav,1,1,3,12,,,,,0,5,5,11,,,,,,,,,,,,,,,013,001,2019_May_09_1118,MusicAffectPsychophysiology2019,3.0.5,59.99650916357739,
To what extent did the music make you feel ,TENDER,30MonoWAV/30MonoT4.wav,2,1,4,16,,,,,0,6,6,15,0,0,0,10,,,3,3.284796620999259,5,2.9011591160015087,5,0.8025492349988781,4,1.6672755809995579,013,001,2019_May_09_1118,MusicAffectPsychophysiology2019,3.0.5,59.99650916357739,
To what extent did the music make you feel ,ALERT,30MonoWAV/30MonoT4.wav,2,1,4,16,,,,,0,6,6,15,0,1,1,8,,,,,,,,,2,2.2352778040003614,013,001,2019_May_09_1118,MusicAffectPsychophysiology2019,3.0.5,59.99650916357739,
To what extent did the music make you feel ,HAPPY,30MonoWAV/30MonoT4.wav,2,1,4,16,,,,,0,6,6,15,0,2,2,6,,,,,,,,,4,3.1346668229998613,013,001,2019_May_09_1118,MusicAffectPsychophysiology2019,3.0.5,59.99650916357739,
To what extent did the music make you feel ,ANGRY,30MonoWAV/30MonoT4.wav,2,1,4,16,,,,,0,6,6,15,0,3,3,2,,,,,,,,,1,1.0512470549983846,013,001,2019_May_09_1118,MusicAffectPsychophysiology2019,3.0.5,59.99650916357739,
To what extent did the music make you feel ,GUILTY,30MonoWAV/30MonoT4.wav,2,1,4,16,,,,,0,6,6,15,0,4,4,5,,,,,,,,,3,1.7671101019986963,013,001,2019_May_09_1118,MusicAffectPsychophysiology2019,3.0.5,59.99650916357739,
To what extent did the music make you feel ,FRUSTRATED,30MonoWAV/30MonoT4.wav,2,1,4,16,,,,,0,6,6,15,0,5,5,3,,,,,,,,,2,1.7348825650005892,013,001,2019_May_09_1118,MusicAffectPsychophysiology2019,3.0.5,59.99650916357739,
To what extent did the music make you feel ,ASHAMED,30MonoWAV/30MonoT4.wav,2,1,4,16,,,,,0,6,6,15,0,6,6,4,,,,,,,,,2,1.0845789100021648,013,001,2019_May_09_1118,MusicAffectPsychophysiology2019,3.0.5,59.99650916357739,
To what extent did the music make you feel ,ANXIOUS ,30MonoWAV/30MonoT4.wav,2,1,4,16,,,,,0,6,6,15,0,7,7,1,,,,,,,,,3,1.516837374001625,013,001,2019_May_09_1118,MusicAffectPsychophysiology2019,3.0.5,59.99650916357739,
To what extent did the music make you feel ,EXCITED,30MonoWAV/30MonoT4.wav,2,1,4,16,,,,,0,6,6,15,0,8,8,7,,,,,,,,,2,1.8185087229976489,013,001,2019_May_09_1118,MusicAffectPsychophysiology2019,3.0.5,59.99650916357739,
To what extent did the music make you feel ,ACTIVE,30MonoWAV/30MonoT4.wav,2,1,4,16,,,,,0,6,6,15,0,9,9,9,,,,,,,,,1,1.31843605800168,013,001,2019_May_09_1118,MusicAffectPsychophysiology2019,3.0.5,59.99650916357739,
To what extent did the music make you feel ,SCARED,30MonoWAV/30MonoT4.wav,2,1,4,16,,,,,0,6,6,15,0,10,10,11,,,,,,,,,2,1.918063818000519,013,001,2019_May_09_1118,MusicAffectPsychophysiology2019,3.0.5,59.99650916357739,
To what extent did the music make you feel ,SAD,30MonoWAV/30MonoT4.wav,2,1,4,16,,,,,0,6,6,15,0,11,11,0,,,,,,,,,3,1.7016257920004136,013,001,2019_May_09_1118,MusicAffectPsychophysiology2019,3.0.5,59.99650916357739,
,,30MonoWAV/30MonoT4.wav,2,1,4,16,,,,,0,6,6,15,,,,,,,,,,,,,,,013,001,2019_May_09_1118,MusicAffectPsychophysiology2019,3.0.5,59.99650916357739,
To what extent did the music make you feel ,GUILTY,30MonoWAV/30MonoH3.wav,2,2,1,7,,,,,0,7,7,6,0,0,0,5,,,4,8.884477446001256,4,1.8171322970010806,5,1.0176248819989269,1,2.4519125949991576,013,001,2019_May_09_1118,MusicAffectPsychophysiology2019,3.0.5,59.99650916357739,
To what extent did the music make you feel ,TENDER,30MonoWAV/30MonoH3.wav,2,2,1,7,,,,,0,7,7,6,0,1,1,10,,,,,,,,,2,1.118857470999501,013,001,2019_May_09_1118,MusicAffectPsychophysiology2019,3.0.5,59.99650916357739,
To what extent did the music make you feel ,SAD,30MonoWAV/30MonoH3.wav,2,2,1,7,,,,,0,7,7,6,0,2,2,0,,,,,,,,,2,1.8349389919967507,013,001,2019_May_09_1118,MusicAffectPsychophysiology2019,3.0.5,59.99650916357739,
To what extent did the music make you feel ,ASHAMED,30MonoWAV/30MonoH3.wav,2,2,1,7,,,,,0,7,7,6,0,3,3,4,,,,,,,,,1,1.803509410998231,013,001,2019_May_09_1118,MusicAffectPsychophysiology2019,3.0.5,59.99650916357739,
To what extent did the music make you feel ,EXCITED,30MonoWAV/30MonoH3.wav,2,2,1,7,,,,,0,7,7,6,0,4,4,7,,,,,,,,,4,3.068309299000248,013,001,2019_May_09_1118,MusicAffectPsychophysiology2019,3.0.5,59.99650916357739,
To what extent did the music make you feel ,SCARED,30MonoWAV/30MonoH3.wav,2,2,1,7,,,,,0,7,7,6,0,5,5,11,,,,,,,,,3,1.1853799570017145,013,001,2019_May_09_1118,MusicAffectPsychophysiology2019,3.0.5,59.99650916357739,
To what extent did the music make you feel ,FRUSTRATED,30MonoWAV/30MonoH3.wav,2,2,1,7,,,,,0,7,7,6,0,6,6,3,,,,,,,,,1,1.984942154998862,013,001,2019_May_09_1118,MusicAffectPsychophysiology2019,3.0.5,59.99650916357739,
To what extent did the music make you feel ,HAPPY,30MonoWAV/30MonoH3.wav,2,2,1,7,,,,,0,7,7,6,0,7,7,6,,,,,,,,,3,1.7178918609970424,013,001,2019_May_09_1118,MusicAffectPsychophysiology2019,3.0.5,59.99650916357739,
To what extent did the music make you feel ,ANXIOUS ,30MonoWAV/30MonoH3.wav,2,2,1,7,,,,,0,7,7,6,0,8,8,1,,,,,,,,,4,1.3005005569975765,013,001,2019_May_09_1118,MusicAffectPsychophysiology2019,3.0.5,59.99650916357739,
To what extent did the music make you feel ,ACTIVE,30MonoWAV/30MonoH3.wav,2,2,1,7,,,,,0,7,7,6,0,9,9,9,,,,,,,,,1,2.018420802000037,013,001,2019_May_09_1118,MusicAffectPsychophysiology2019,3.0.5,59.99650916357739,
To what extent did the music make you feel ,ANGRY,30MonoWAV/30MonoH3.wav,2,2,1,7,,,,,0,7,7,6,0,10,10,2,,,,,,,,,1,2.051045856998826,013,001,2019_May_09_1118,MusicAffectPsychophysiology2019,3.0.5,59.99650916357739,
To what extent did the music make you feel ,ALERT,30MonoWAV/30MonoH3.wav,2,2,1,7,,,,,0,7,7,6,0,11,11,8,,,,,,,,,3,1.7353692139986379,013,001,2019_May_09_1118,MusicAffectPsychophysiology2019,3.0.5,59.99650916357739,
,,30MonoWAV/30MonoH3.wav,2,2,1,7,,,,,0,7,7,6,,,,,,,,,,,,,,,013,001,2019_May_09_1118,MusicAffectPsychophysiology2019,3.0.5,59.99650916357739,
To what extent did the music make you feel ,ANGRY,30MonoWAV/30MonoF1.wav,1,2,2,1,,,,,0,8,8,0,0,0,0,2,,,4,3.7430567080009496,3,2.7351505249971524,5,1.001686918996711,2,3.0691449629994167,013,001,2019_May_09_1118,MusicAffectPsychophysiology2019,3.0.5,59.99650916357739,
To what extent did the music make you feel ,EXCITED,30MonoWAV/30MonoF1.wav,1,2,2,1,,,,,0,8,8,0,0,1,1,7,,,,,,,,,3,1.50138261200118,013,001,2019_May_09_1118,MusicAffectPsychophysiology2019,3.0.5,59.99650916357739,
To what extent did the music make you feel ,SCARED,30MonoWAV/30MonoF1.wav,1,2,2,1,,,,,0,8,8,0,0,2,2,11,,,,,,,,,5,1.6342382860020734,013,001,2019_May_09_1118,MusicAffectPsychophysiology2019,3.0.5,59.99650916357739,
To what extent did the music make you feel ,ANXIOUS ,30MonoWAV/30MonoF1.wav,1,2,2,1,,,,,0,8,8,0,0,3,3,1,,,,,,,,,5,1.0524025509985222,013,001,2019_May_09_1118,MusicAffectPsychophysiology2019,3.0.5,59.99650916357739,
To what extent did the music make you feel ,TENDER,30MonoWAV/30MonoF1.wav,1,2,2,1,,,,,0,8,8,0,0,4,4,10,,,,,,,,,2,1.2509685030017863,013,001,2019_May_09_1118,MusicAffectPsychophysiology2019,3.0.5,59.99650916357739,
To what extent did the music make you feel ,HAPPY,30MonoWAV/30MonoF1.wav,1,2,2,1,,,,,0,8,8,0,0,5,5,6,,,,,,,,,2,2.08478661999834,013,001,2019_May_09_1118,MusicAffectPsychophysiology2019,3.0.5,59.99650916357739,
To what extent did the music make you feel ,ALERT,30MonoWAV/30MonoF1.wav,1,2,2,1,,,,,0,8,8,0,0,6,6,8,,,,,,,,,5,1.4664497820012912,013,001,2019_May_09_1118,MusicAffectPsychophysiology2019,3.0.5,59.99650916357739,
To what extent did the music make you feel ,ASHAMED,30MonoWAV/30MonoF1.wav,1,2,2,1,,,,,0,8,8,0,0,7,7,4,,,,,,,,,1,1.303483742998651,013,001,2019_May_09_1118,MusicAffectPsychophysiology2019,3.0.5,59.99650916357739,
To what extent did the music make you feel ,FRUSTRATED,30MonoWAV/30MonoF1.wav,1,2,2,1,,,,,0,8,8,0,0,8,8,3,,,,,,,,,2,2.7686308699994697,013,001,2019_May_09_1118,MusicAffectPsychophysiology2019,3.0.5,59.99650916357739,
To what extent did the music make you feel ,ACTIVE,30MonoWAV/30MonoF1.wav,1,2,2,1,,,,,0,8,8,0,0,9,9,9,,,,,,,,,4,1.5171893099977751,013,001,2019_May_09_1118,MusicAffectPsychophysiology2019,3.0.5,59.99650916357739,
To what extent did the music make you feel ,GUILTY,30MonoWAV/30MonoF1.wav,1,2,2,1,,,,,0,8,8,0,0,10,10,5,,,,,,,,,1,2.2522906770027475,013,001,2019_May_09_1118,MusicAffectPsychophysiology2019,3.0.5,59.99650916357739,
To what extent did the music make you feel ,SAD,30MonoWAV/30MonoF1.wav,1,2,2,1,,,,,0,8,8,0,0,11,11,0,,,,,,,,,2,1.9680752589993062,013,001,2019_May_09_1118,MusicAffectPsychophysiology2019,3.0.5,59.99650916357739,
,,30MonoWAV/30MonoF1.wav,1,2,2,1,,,,,0,8,8,0,,,,,,,,,,,,,,,013,001,2019_May_09_1118,MusicAffectPsychophysiology2019,3.0.5,59.99650916357739,
To what extent did the music make you feel ,SCARED,30MonoWAV/30MonoS3.wav,1,1,3,11,,,,,0,9,9,10,0,0,0,11,,,4,3.818484134000755,3,2.6665991619993292,4,1.4857953819991963,3,1.9667223910000757,013,001,2019_May_09_1118,MusicAffectPsychophysiology2019,3.0.5,59.99650916357739,
To what extent did the music make you feel ,TENDER,30MonoWAV/30MonoS3.wav,1,1,3,11,,,,,0,9,9,10,0,1,1,10,,,,,,,,,3,1.43461857100192,013,001,2019_May_09_1118,MusicAffectPsychophysiology2019,3.0.5,59.99650916357739,
To what extent did the music make you feel ,ASHAMED,30MonoWAV/30MonoS3.wav,1,1,3,11,,,,,0,9,9,10,0,2,2,4,,,,,,,,,4,2.2007853420000174,013,001,2019_May_09_1118,MusicAffectPsychophysiology2019,3.0.5,59.99650916357739,
To what extent did the music make you feel ,HAPPY,30MonoWAV/30MonoS3.wav,1,1,3,11,,,,,0,9,9,10,0,3,3,6,,,,,,,,,2,3.034455089000403,013,001,2019_May_09_1118,MusicAffectPsychophysiology2019,3.0.5,59.99650916357739,
To what extent did the music make you feel ,ANXIOUS ,30MonoWAV/30MonoS3.wav,1,1,3,11,,,,,0,9,9,10,0,4,4,1,,,,,,,,,4,1.1354411569991498,013,001,2019_May_09_1118,MusicAffectPsychophysiology2019,3.0.5,59.99650916357739,
To what extent did the music make you feel ,ALERT,30MonoWAV/30MonoS3.wav,1,1,3,11,,,,,0,9,9,10,0,5,5,8,,,,,,,,,3,2.5675583529991854,013,001,2019_May_09_1118,MusicAffectPsychophysiology2019,3.0.5,59.99650916357739,
To what extent did the music make you feel ,EXCITED,30MonoWAV/30MonoS3.wav,1,1,3,11,,,,,0,9,9,10,0,6,6,7,,,,,,,,,1,2.484868554998684,013,001,2019_May_09_1118,MusicAffectPsychophysiology2019,3.0.5,59.99650916357739,
To what extent did the music make you feel ,GUILTY,30MonoWAV/30MonoS3.wav,1,1,3,11,,,,,0,9,9,10,0,7,7,5,,,,,,,,,1,1.0511358180010575,013,001,2019_May_09_1118,MusicAffectPsychophysiology2019,3.0.5,59.99650916357739,
To what extent did the music make you feel ,SAD,30MonoWAV/30MonoS3.wav,1,1,3,11,,,,,0,9,9,10,0,8,8,0,,,,,,,,,2,1.1844988079974428,013,001,2019_May_09_1118,MusicAffectPsychophysiology2019,3.0.5,59.99650916357739,
To what extent did the music make you feel ,ACTIVE,30MonoWAV/30MonoS3.wav,1,1,3,11,,,,,0,9,9,10,0,9,9,9,,,,,,,,,2,1.8183850409986917,013,001,2019_May_09_1118,MusicAffectPsychophysiology2019,3.0.5,59.99650916357739,
To what extent did the music make you feel ,ANGRY,30MonoWAV/30MonoS3.wav,1,1,3,11,,,,,0,9,9,10,0,10,10,2,,,,,,,,,1,1.6013169789985113,013,001,2019_May_09_1118,MusicAffectPsychophysiology2019,3.0.5,59.99650916357739,
To what extent did the music make you feel ,FRUSTRATED,30MonoWAV/30MonoS3.wav,1,1,3,11,,,,,0,9,9,10,0,11,11,3,,,,,,,,,1,1.5181684470007895,013,001,2019_May_09_1118,MusicAffectPsychophysiology2019,3.0.5,59.99650916357739,
,,30MonoWAV/30MonoS3.wav,1,1,3,11,,,,,0,9,9,10,,,,,,,,,,,,,,,013,001,2019_May_09_1118,MusicAffectPsychophysiology2019,3.0.5,59.99650916357739,
To what extent did the music make you feel ,SCARED,30MonoWAV/30MonoH1.wav,2,2,1,5,,,,,0,10,10,4,0,0,0,11,,,4,2.6711078279986396,5,1.657346535997931,5,0.38568070299879764,2,1.8353795440016256,013,001,2019_May_09_1118,MusicAffectPsychophysiology2019,3.0.5,59.99650916357739,
To what extent did the music make you feel ,TENDER,30MonoWAV/30MonoH1.wav,2,2,1,5,,,,,0,10,10,4,0,1,1,10,,,,,,,,,4,1.652090469000541,013,001,2019_May_09_1118,MusicAffectPsychophysiology2019,3.0.5,59.99650916357739,
To what extent did the music make you feel ,SAD,30MonoWAV/30MonoH1.wav,2,2,1,5,,,,,0,10,10,4,0,2,2,0,,,,,,,,,2,1.3685179390013218,013,001,2019_May_09_1118,MusicAffectPsychophysiology2019,3.0.5,59.99650916357739,
To what extent did the music make you feel ,ANGRY,30MonoWAV/30MonoH1.wav,2,2,1,5,,,,,0,10,10,4,0,3,3,2,,,,,,,,,1,1.1351883320021443,013,001,2019_May_09_1118,MusicAffectPsychophysiology2019,3.0.5,59.99650916357739,
To what extent did the music make you feel ,FRUSTRATED,30MonoWAV/30MonoH1.wav,2,2,1,5,,,,,0,10,10,4,0,4,4,3,,,,,,,,,1,0.6684715100018366,013,001,2019_May_09_1118,MusicAffectPsychophysiology2019,3.0.5,59.99650916357739,
To what extent did the music make you feel ,ACTIVE,30MonoWAV/30MonoH1.wav,2,2,1,5,,,,,0,10,10,4,0,5,5,9,,,,,,,,,4,1.317692773998715,013,001,2019_May_09_1118,MusicAffectPsychophysiology2019,3.0.5,59.99650916357739,
To what extent did the music make you feel ,EXCITED,30MonoWAV/30MonoH1.wav,2,2,1,5,,,,,0,10,10,4,0,6,6,7,,,,,,,,,3,1.4847469000014826,013,001,2019_May_09_1118,MusicAffectPsychophysiology2019,3.0.5,59.99650916357739,
To what extent did the music make you feel ,ALERT,30MonoWAV/30MonoH1.wav,2,2,1,5,,,,,0,10,10,4,0,7,7,8,,,,,,,,,5,3.035538832999009,013,001,2019_May_09_1118,MusicAffectPsychophysiology2019,3.0.5,59.99650916357739,
To what extent did the music make you feel ,ANXIOUS ,30MonoWAV/30MonoH1.wav,2,2,1,5,,,,,0,10,10,4,0,8,8,1,,,,,,,,,3,3.7344224359985674,013,001,2019_May_09_1118,MusicAffectPsychophysiology2019,3.0.5,59.99650916357739,
To what extent did the music make you feel ,GUILTY,30MonoWAV/30MonoH1.wav,2,2,1,5,,,,,0,10,10,4,0,9,9,5,,,,,,,,,1,1.367955173001974,013,001,2019_May_09_1118,MusicAffectPsychophysiology2019,3.0.5,59.99650916357739,
To what extent did the music make you feel ,ASHAMED,30MonoWAV/30MonoH1.wav,2,2,1,5,,,,,0,10,10,4,0,10,10,4,,,,,,,,,1,0.8844647400001122,013,001,2019_May_09_1118,MusicAffectPsychophysiology2019,3.0.5,59.99650916357739,
To what extent did the music make you feel ,HAPPY,30MonoWAV/30MonoH1.wav,2,2,1,5,,,,,0,10,10,4,0,11,11,6,,,,,,,,,3,2.102236858998367,013,001,2019_May_09_1118,MusicAffectPsychophysiology2019,3.0.5,59.99650916357739,
,,30MonoWAV/30MonoH1.wav,2,2,1,5,,,,,0,10,10,4,,,,,,,,,,,,,,,013,001,2019_May_09_1118,MusicAffectPsychophysiology2019,3.0.5,59.99650916357739,
To what extent did the music make you feel ,SAD,30MonoWAV/30MonoH2.wav,2,2,1,6,,,,,0,11,11,5,0,0,0,0,,,4,2.4351066280032683,4,2.38407985899903,5,1.0031191609996313,3,3.4172995689987147,013,001,2019_May_09_1118,MusicAffectPsychophysiology2019,3.0.5,59.99650916357739,
To what extent did the music make you feel ,ALERT,30MonoWAV/30MonoH2.wav,2,2,1,6,,,,,0,11,11,5,0,1,1,8,,,,,,,,,4,1.1521549439967202,013,001,2019_May_09_1118,MusicAffectPsychophysiology2019,3.0.5,59.99650916357739,
To what extent did the music make you feel ,HAPPY,30MonoWAV/30MonoH2.wav,2,2,1,6,,,,,0,11,11,5,0,2,2,6,,,,,,,,,3,1.5521098869976413,013,001,2019_May_09_1118,MusicAffectPsychophysiology2019,3.0.5,59.99650916357739,
To what extent did the music make you feel ,ANGRY,30MonoWAV/30MonoH2.wav,2,2,1,6,,,,,0,11,11,5,0,3,3,2,,,,,,,,,1,1.2353120779989695,013,001,2019_May_09_1118,MusicAffectPsychophysiology2019,3.0.5,59.99650916357739,
To what extent did the music make you feel ,TENDER,30MonoWAV/30MonoH2.wav,2,2,1,6,,,,,0,11,11,5,0,4,4,10,,,,,,,,,2,1.0515447189973202,013,001,2019_May_09_1118,MusicAffectPsychophysiology2019,3.0.5,59.99650916357739,
To what extent did the music make you feel ,ASHAMED,30MonoWAV/30MonoH2.wav,2,2,1,6,,,,,0,11,11,5,0,5,5,4,,,,,,,,,1,1.2520592479995685,013,001,2019_May_09_1118,MusicAffectPsychophysiology2019,3.0.5,59.99650916357739,
To what extent did the music make you feel ,GUILTY,30MonoWAV/30MonoH2.wav,2,2,1,6,,,,,0,11,11,5,0,6,6,5,,,,,,,,,1,2.1858429219973914,013,001,2019_May_09_1118,MusicAffectPsychophysiology2019,3.0.5,59.99650916357739,
To what extent did the music make you feel ,FRUSTRATED,30MonoWAV/30MonoH2.wav,2,2,1,6,,,,,0,11,11,5,0,7,7,3,,,,,,,,,1,2.768472062998626,013,001,2019_May_09_1118,MusicAffectPsychophysiology2019,3.0.5,59.99650916357739,
To what extent did the music make you feel ,EXCITED,30MonoWAV/30MonoH2.wav,2,2,1,6,,,,,0,11,11,5,0,8,8,7,,,,,,,,,3,2.8520348810016003,013,001,2019_May_09_1118,MusicAffectPsychophysiology2019,3.0.5,59.99650916357739,
To what extent did the music make you feel ,ACTIVE,30MonoWAV/30MonoH2.wav,2,2,1,6,,,,,0,11,11,5,0,9,9,9,,,,,,,,,2,1.0847644690002198,013,001,2019_May_09_1118,MusicAffectPsychophysiology2019,3.0.5,59.99650916357739,
To what extent did the music make you feel ,ANXIOUS ,30MonoWAV/30MonoH2.wav,2,2,1,6,,,,,0,11,11,5,0,10,10,1,,,,,,,,,4,1.8517342470004223,013,001,2019_May_09_1118,MusicAffectPsychophysiology2019,3.0.5,59.99650916357739,
To what extent did the music make you feel ,SCARED,30MonoWAV/30MonoH2.wav,2,2,1,6,,,,,0,11,11,5,0,11,11,11,,,,,,,,,4,2.451209413997276,013,001,2019_May_09_1118,MusicAffectPsychophysiology2019,3.0.5,59.99650916357739,
,,30MonoWAV/30MonoH2.wav,2,2,1,6,,,,,0,11,11,5,,,,,,,,,,,,,,,013,001,2019_May_09_1118,MusicAffectPsychophysiology2019,3.0.5,59.99650916357739,
To what extent did the music make you feel ,SCARED,30MonoWAV/30MonoT3.wav,2,1,4,15,,,,,0,12,12,14,0,0,0,11,,,3,2.518083040999045,3,2.951171732001967,5,1.5518691500001296,1,1.6018414899990603,013,001,2019_May_09_1118,MusicAffectPsychophysiology2019,3.0.5,59.99650916357739,
To what extent did the music make you feel ,TENDER,30MonoWAV/30MonoT3.wav,2,1,4,15,,,,,0,12,12,14,0,1,1,10,,,,,,,,,4,1.4015576210003928,013,001,2019_May_09_1118,MusicAffectPsychophysiology2019,3.0.5,59.99650916357739,
To what extent did the music make you feel ,ALERT,30MonoWAV/30MonoT3.wav,2,1,4,15,,,,,0,12,12,14,0,2,2,8,,,,,,,,,2,3.6175665500013565,013,001,2019_May_09_1118,MusicAffectPsychophysiology2019,3.0.5,59.99650916357739,
To what extent did the music make you feel ,ANGRY,30MonoWAV/30MonoT3.wav,2,1,4,15,,,,,0,12,12,14,0,3,3,2,,,,,,,,,1,1.318368501997611,013,001,2019_May_09_1118,MusicAffectPsychophysiology2019,3.0.5,59.99650916357739,
To what extent did the music make you feel ,HAPPY,30MonoWAV/30MonoT3.wav,2,1,4,15,,,,,0,12,12,14,0,4,4,6,,,,,,,,,4,3.2227820930020243,013,001,2019_May_09_1118,MusicAffectPsychophysiology2019,3.0.5,59.99650916357739,
To what extent did the music make you feel ,SAD,30MonoWAV/30MonoT3.wav,2,1,4,15,,,,,0,12,12,14,0,5,5,0,,,,,,,,,4,1.6037544630016782,013,001,2019_May_09_1118,MusicAffectPsychophysiology2019,3.0.5,59.99650916357739,
To what extent did the music make you feel ,ACTIVE,30MonoWAV/30MonoT3.wav,2,1,4,15,,,,,0,12,12,14,0,6,6,9,,,,,,,,,1,1.186396999997669,013,001,2019_May_09_1118,MusicAffectPsychophysiology2019,3.0.5,59.99650916357739,
To what extent did the music make you feel ,GUILTY,30MonoWAV/30MonoT3.wav,2,1,4,15,,,,,0,12,12,14,0,7,7,5,,,,,,,,,1,1.2183788460024516,013,001,2019_May_09_1118,MusicAffectPsychophysiology2019,3.0.5,59.99650916357739,
To what extent did the music make you feel ,ASHAMED,30MonoWAV/30MonoT3.wav,2,1,4,15,,,,,0,12,12,14,0,8,8,4,,,,,,,,,1,1.4032730420003645,013,001,2019_May_09_1118,MusicAffectPsychophysiology2019,3.0.5,59.99650916357739,
To what extent did the music make you feel ,FRUSTRATED,30MonoWAV/30MonoT3.wav,2,1,4,15,,,,,0,12,12,14,0,9,9,3,,,,,,,,,1,1.0058724939990498,013,001,2019_May_09_1118,MusicAffectPsychophysiology2019,3.0.5,59.99650916357739,
To what extent did the music make you feel ,ANXIOUS ,30MonoWAV/30MonoT3.wav,2,1,4,15,,,,,0,12,12,14,0,10,10,1,,,,,,,,,3,3.618391773001349,013,001,2019_May_09_1118,MusicAffectPsychophysiology2019,3.0.5,59.99650916357739,
To what extent did the music make you feel ,EXCITED,30MonoWAV/30MonoT3.wav,2,1,4,15,,,,,0,12,12,14,0,11,11,7,,,,,,,,,1,1.785687309999048,013,001,2019_May_09_1118,MusicAffectPsychophysiology2019,3.0.5,59.99650916357739,
,,30MonoWAV/30MonoT3.wav,2,1,4,15,,,,,0,12,12,14,,,,,,,,,,,,,,,013,001,2019_May_09_1118,MusicAffectPsychophysiology2019,3.0.5,59.99650916357739,
To what extent did the music make you feel ,ASHAMED,30MonoWAV/30MonoF2.wav,1,2,2,2,,,,,0,13,13,1,0,0,0,4,,,3,2.9018499039993912,2,5.568062769001699,4,1.584546000998671,2,1.8001944069983438,013,001,2019_May_09_1118,MusicAffectPsychophysiology2019,3.0.5,59.99650916357739,
To what extent did the music make you feel ,EXCITED,30MonoWAV/30MonoF2.wav,1,2,2,2,,,,,0,13,13,1,0,1,1,7,,,,,,,,,1,1.383198874998925,013,001,2019_May_09_1118,MusicAffectPsychophysiology2019,3.0.5,59.99650916357739,
To what extent did the music make you feel ,ACTIVE,30MonoWAV/30MonoF2.wav,1,2,2,2,,,,,0,13,13,1,0,2,2,9,,,,,,,,,3,1.4514205710001988,013,001,2019_May_09_1118,MusicAffectPsychophysiology2019,3.0.5,59.99650916357739,
To what extent did the music make you feel ,HAPPY,30MonoWAV/30MonoF2.wav,1,2,2,2,,,,,0,13,13,1,0,3,3,6,,,,,,,,,1,1.1185996179992799,013,001,2019_May_09_1118,MusicAffectPsychophysiology2019,3.0.5,59.99650916357739,
To what extent did the music make you feel ,TENDER,30MonoWAV/30MonoF2.wav,1,2,2,2,,,,,0,13,13,1,0,4,4,10,,,,,,,,,2,1.3186710810005025,013,001,2019_May_09_1118,MusicAffectPsychophysiology2019,3.0.5,59.99650916357739,
To what extent did the music make you feel ,ANXIOUS ,30MonoWAV/30MonoF2.wav,1,2,2,2,,,,,0,13,13,1,0,5,5,1,,,,,,,,,5,1.250937098000577,013,001,2019_May_09_1118,MusicAffectPsychophysiology2019,3.0.5,59.99650916357739,
To what extent did the music make you feel ,SAD,30MonoWAV/30MonoF2.wav,1,2,2,2,,,,,0,13,13,1,0,6,6,0,,,,,,,,,4,1.2150628820018028,013,001,2019_May_09_1118,MusicAffectPsychophysiology2019,3.0.5,59.99650916357739,
To what extent did the music make you feel ,GUILTY,30MonoWAV/30MonoF2.wav,1,2,2,2,,,,,0,13,13,1,0,7,7,5,,,,,,,,,4,1.9020942860006471,013,001,2019_May_09_1118,MusicAffectPsychophysiology2019,3.0.5,59.99650916357739,
To what extent did the music make you feel ,ALERT,30MonoWAV/30MonoF2.wav,1,2,2,2,,,,,0,13,13,1,0,8,8,8,,,,,,,,,4,1.8681582329991215,013,001,2019_May_09_1118,MusicAffectPsychophysiology2019,3.0.5,59.99650916357739,
To what extent did the music make you feel ,ANGRY,30MonoWAV/30MonoF2.wav,1,2,2,2,,,,,0,13,13,1,0,9,9,2,,,,,,,,,1,2.084482771999319,013,001,2019_May_09_1118,MusicAffectPsychophysiology2019,3.0.5,59.99650916357739,
To what extent did the music make you feel ,FRUSTRATED,30MonoWAV/30MonoF2.wav,1,2,2,2,,,,,0,13,13,1,0,10,10,3,,,,,,,,,2,2.1513467420008965,013,001,2019_May_09_1118,MusicAffectPsychophysiology2019,3.0.5,59.99650916357739,
To what extent did the music make you feel ,SCARED,30MonoWAV/30MonoF2.wav,1,2,2,2,,,,,0,13,13,1,0,11,11,11,,,,,,,,,5,2.451664359999995,013,001,2019_May_09_1118,MusicAffectPsychophysiology2019,3.0.5,59.99650916357739,
,,30MonoWAV/30MonoF2.wav,1,2,2,2,,,,,0,13,13,1,,,,,,,,,,,,,,,013,001,2019_May_09_1118,MusicAffectPsychophysiology2019,3.0.5,59.99650916357739,
To what extent did the music make you feel ,GUILTY,30MonoWAV/30MonoT1.wav,2,1,4,13,,,,,0,14,14,12,0,0,0,5,,,3,5.1010443969971675,4,1.602077036000992,5,1.218606530001125,2,1.5187378760019783,013,001,2019_May_09_1118,MusicAffectPsychophysiology2019,3.0.5,59.99650916357739,
To what extent did the music make you feel ,SAD,30MonoWAV/30MonoT1.wav,2,1,4,13,,,,,0,14,14,12,0,1,1,0,,,,,,,,,3,3.7345379079997656,013,001,2019_May_09_1118,MusicAffectPsychophysiology2019,3.0.5,59.99650916357739,
To what extent did the music make you feel ,SCARED,30MonoWAV/30MonoT1.wav,2,1,4,13,,,,,0,14,14,12,0,2,2,11,,,,,,,,,1,1.4017474069987657,013,001,2019_May_09_1118,MusicAffectPsychophysiology2019,3.0.5,59.99650916357739,
To what extent did the music make you feel ,HAPPY,30MonoWAV/30MonoT1.wav,2,1,4,13,,,,,0,14,14,12,0,3,3,6,,,,,,,,,3,1.7330425069994817,013,001,2019_May_09_1118,MusicAffectPsychophysiology2019,3.0.5,59.99650916357739,
To what extent did the music make you feel ,TENDER,30MonoWAV/30MonoT1.wav,2,1,4,13,,,,,0,14,14,12,0,4,4,10,,,,,,,,,4,1.935269977999269,013,001,2019_May_09_1118,MusicAffectPsychophysiology2019,3.0.5,59.99650916357739,
To what extent did the music make you feel ,ACTIVE,30MonoWAV/30MonoT1.wav,2,1,4,13,,,,,0,14,14,12,0,5,5,9,,,,,,,,,1,2.2187714089996007,013,001,2019_May_09_1118,MusicAffectPsychophysiology2019,3.0.5,59.99650916357739,
To what extent did the music make you feel ,EXCITED,30MonoWAV/30MonoT1.wav,2,1,4,13,,,,,0,14,14,12,0,6,6,7,,,,,,,,,1,1.8688635520011303,013,001,2019_May_09_1118,MusicAffectPsychophysiology2019,3.0.5,59.99650916357739,
To what extent did the music make you feel ,ANGRY,30MonoWAV/30MonoT1.wav,2,1,4,13,,,,,0,14,14,12,0,7,7,2,,,,,,,,,1,1.0688124100015557,013,001,2019_May_09_1118,MusicAffectPsychophysiology2019,3.0.5,59.99650916357739,
To what extent did the music make you feel ,ALERT,30MonoWAV/30MonoT1.wav,2,1,4,13,,,,,0,14,14,12,0,8,8,8,,,,,,,,,2,1.6671514580011717,013,001,2019_May_09_1118,MusicAffectPsychophysiology2019,3.0.5,59.99650916357739,
To what extent did the music make you feel ,FRUSTRATED,30MonoWAV/30MonoT1.wav,2,1,4,13,,,,,0,14,14,12,0,9,9,3,,,,,,,,,1,1.7183454529986193,013,001,2019_May_09_1118,MusicAffectPsychophysiology2019,3.0.5,59.99650916357739,
To what extent did the music make you feel ,ANXIOUS ,30MonoWAV/30MonoT1.wav,2,1,4,13,,,,,0,14,14,12,0,10,10,1,,,,,,,,,3,1.6169753430003766,013,001,2019_May_09_1118,MusicAffectPsychophysiology2019,3.0.5,59.99650916357739,
To what extent did the music make you feel ,ASHAMED,30MonoWAV/30MonoT1.wav,2,1,4,13,,,,,0,14,14,12,0,11,11,4,,,,,,,,,2,1.3349170590008725,013,001,2019_May_09_1118,MusicAffectPsychophysiology2019,3.0.5,59.99650916357739,
,,30MonoWAV/30MonoT1.wav,2,1,4,13,,,,,0,14,14,12,,,,,,,,,,,,,,,013,001,2019_May_09_1118,MusicAffectPsychophysiology2019,3.0.5,59.99650916357739,
To what extent did the music make you feel ,FRUSTRATED,30MonoWAV/30MonoF4.wav,1,2,2,4,,,,,0,15,15,3,0,0,0,3,,,4,7.199803782001254,3,1.1688365900008648,4,1.7390106319980987,2,1.969532695999078,013,001,2019_May_09_1118,MusicAffectPsychophysiology2019,3.0.5,59.99650916357739,
To what extent did the music make you feel ,ACTIVE,30MonoWAV/30MonoF4.wav,1,2,2,4,,,,,0,15,15,3,0,1,1,9,,,,,,,,,4,1.6845951750001404,013,001,2019_May_09_1118,MusicAffectPsychophysiology2019,3.0.5,59.99650916357739,
To what extent did the music make you feel ,TENDER,30MonoWAV/30MonoF4.wav,1,2,2,4,,,,,0,15,15,3,0,2,2,10,,,,,,,,,3,1.3350044680009887,013,001,2019_May_09_1118,MusicAffectPsychophysiology2019,3.0.5,59.99650916357739,
To what extent did the music make you feel ,ASHAMED,30MonoWAV/30MonoF4.wav,1,2,2,4,,,,,0,15,15,3,0,3,3,4,,,,,,,,,1,1.1855259880030644,013,001,2019_May_09_1118,MusicAffectPsychophysiology2019,3.0.5,59.99650916357739,
To what extent did the music make you feel ,ANGRY,30MonoWAV/30MonoF4.wav,1,2,2,4,,,,,0,15,15,3,0,4,4,2,,,,,,,,,1,1.2005281640012981,013,001,2019_May_09_1118,MusicAffectPsychophysiology2019,3.0.5,59.99650916357739,
To what extent did the music make you feel ,SCARED,30MonoWAV/30MonoF4.wav,1,2,2,4,,,,,0,15,15,3,0,5,5,11,,,,,,,,,4,1.4849258350004675,013,001,2019_May_09_1118,MusicAffectPsychophysiology2019,3.0.5,59.99650916357739,
To what extent did the music make you feel ,GUILTY,30MonoWAV/30MonoF4.wav,1,2,2,4,,,,,0,15,15,3,0,6,6,5,,,,,,,,,3,1.6174397300019336,013,001,2019_May_09_1118,MusicAffectPsychophysiology2019,3.0.5,59.99650916357739,
To what extent did the music make you feel ,ALERT,30MonoWAV/30MonoF4.wav,1,2,2,4,,,,,0,15,15,3,0,7,7,8,,,,,,,,,4,2.1518553669993707,013,001,2019_May_09_1118,MusicAffectPsychophysiology2019,3.0.5,59.99650916357739,
To what extent did the music make you feel ,HAPPY,30MonoWAV/30MonoF4.wav,1,2,2,4,,,,,0,15,15,3,0,8,8,6,,,,,,,,,1,1.3855598629997985,013,001,2019_May_09_1118,MusicAffectPsychophysiology2019,3.0.5,59.99650916357739,
To what extent did the music make you feel ,SAD,30MonoWAV/30MonoF4.wav,1,2,2,4,,,,,0,15,15,3,0,9,9,0,,,,,,,,,3,1.7177011359999597,013,001,2019_May_09_1118,MusicAffectPsychophysiology2019,3.0.5,59.99650916357739,
To what extent did the music make you feel ,ANXIOUS ,30MonoWAV/30MonoF4.wav,1,2,2,4,,,,,0,15,15,3,0,10,10,1,,,,,,,,,3,1.2686109349997423,013,001,2019_May_09_1118,MusicAffectPsychophysiology2019,3.0.5,59.99650916357739,
To what extent did the music make you feel ,EXCITED,30MonoWAV/30MonoF4.wav,1,2,2,4,,,,,0,15,15,3,0,11,11,7,,,,,,,,,1,1.6185914669986232,013,001,2019_May_09_1118,MusicAffectPsychophysiology2019,3.0.5,59.99650916357739,
,,30MonoWAV/30MonoF4.wav,1,2,2,4,,,,,0,15,15,3,,,,,,,,,,,,,,,013,001,2019_May_09_1118,MusicAffectPsychophysiology2019,3.0.5,59.99650916357739,
To what extent did the music make you feel ,ASHAMED,30MonoWAV/30MonoS2.wav,1,1,3,10,,,,,1,0,16,9,0,0,0,4,,,2,2.6016276849986752,3,1.8514942349975172,4,1.2011389729996154,1,1.2843246510019526,013,001,2019_May_09_1118,MusicAffectPsychophysiology2019,3.0.5,59.99650916357739,
To what extent did the music make you feel ,SAD,30MonoWAV/30MonoS2.wav,1,1,3,10,,,,,1,0,16,9,0,1,1,0,,,,,,,,,4,1.3182627390015114,013,001,2019_May_09_1118,MusicAffectPsychophysiology2019,3.0.5,59.99650916357739,
To what extent did the music make you feel ,EXCITED,30MonoWAV/30MonoS2.wav,1,1,3,10,,,,,1,0,16,9,0,2,2,7,,,,,,,,,1,1.0675919950008392,013,001,2019_May_09_1118,MusicAffectPsychophysiology2019,3.0.5,59.99650916357739,
To what extent did the music make you feel ,ANXIOUS ,30MonoWAV/30MonoS2.wav,1,1,3,10,,,,,1,0,16,9,0,3,3,1,,,,,,,,,3,3.0014474500021606,013,001,2019_May_09_1118,MusicAffectPsychophysiology2019,3.0.5,59.99650916357739,
To what extent did the music make you feel ,ACTIVE,30MonoWAV/30MonoS2.wav,1,1,3,10,,,,,1,0,16,9,0,4,4,9,,,,,,,,,2,1.8007206709989987,013,001,2019_May_09_1118,MusicAffectPsychophysiology2019,3.0.5,59.99650916357739,
To what extent did the music make you feel ,ANGRY,30MonoWAV/30MonoS2.wav,1,1,3,10,,,,,1,0,16,9,0,5,5,2,,,,,,,,,2,1.1516284970020934,013,001,2019_May_09_1118,MusicAffectPsychophysiology2019,3.0.5,59.99650916357739,
To what extent did the music make you feel ,SCARED,30MonoWAV/30MonoS2.wav,1,1,3,10,,,,,1,0,16,9,0,6,6,11,,,,,,,,,4,1.5346127609991527,013,001,2019_May_09_1118,MusicAffectPsychophysiology2019,3.0.5,59.99650916357739,
To what extent did the music make you feel ,GUILTY,30MonoWAV/30MonoS2.wav,1,1,3,10,,,,,1,0,16,9,0,7,7,5,,,,,,,,,2,2.701846474999911,013,001,2019_May_09_1118,MusicAffectPsychophysiology2019,3.0.5,59.99650916357739,
To what extent did the music make you feel ,TENDER,30MonoWAV/30MonoS2.wav,1,1,3,10,,,,,1,0,16,9,0,8,8,10,,,,,,,,,4,1.935047585000575,013,001,2019_May_09_1118,MusicAffectPsychophysiology2019,3.0.5,59.99650916357739,
To what extent did the music make you feel ,FRUSTRATED,30MonoWAV/30MonoS2.wav,1,1,3,10,,,,,1,0,16,9,0,9,9,3,,,,,,,,,1,3.418610592998448,013,001,2019_May_09_1118,MusicAffectPsychophysiology2019,3.0.5,59.99650916357739,
To what extent did the music make you feel ,HAPPY,30MonoWAV/30MonoS2.wav,1,1,3,10,,,,,1,0,16,9,0,10,10,6,,,,,,,,,3,2.717457362999994,013,001,2019_May_09_1118,MusicAffectPsychophysiology2019,3.0.5,59.99650916357739,
To what extent did the music make you feel ,ALERT,30MonoWAV/30MonoS2.wav,1,1,3,10,,,,,1,0,16,9,0,11,11,8,,,,,,,,,2,2.4342729650015826,013,001,2019_May_09_1118,MusicAffectPsychophysiology2019,3.0.5,59.99650916357739,
,,30MonoWAV/30MonoS2.wav,1,1,3,10,,,,,1,0,16,9,,,,,,,,,,,,,,,013,001,2019_May_09_1118,MusicAffectPsychophysiology2019,3.0.5,59.99650916357739,
To what extent did the music make you feel ,ANGRY,30MonoWAV/30MonoF3.wav,1,2,2,3,,,,,1,1,17,2,0,0,0,2,,,3,3.701853669997945,4,1.3682294400023238,5,0.5849245980025444,1,2.2347229100014374,013,001,2019_May_09_1118,MusicAffectPsychophysiology2019,3.0.5,59.99650916357739,
To what extent did the music make you feel ,ALERT,30MonoWAV/30MonoF3.wav,1,2,2,3,,,,,1,1,17,2,0,1,1,8,,,,,,,,,4,1.8518085479990987,013,001,2019_May_09_1118,MusicAffectPsychophysiology2019,3.0.5,59.99650916357739,
To what extent did the music make you feel ,FRUSTRATED,30MonoWAV/30MonoF3.wav,1,2,2,3,,,,,1,1,17,2,0,2,2,3,,,,,,,,,1,1.2011142779992952,013,001,2019_May_09_1118,MusicAffectPsychophysiology2019,3.0.5,59.99650916357739,
To what extent did the music make you feel ,ACTIVE,30MonoWAV/30MonoF3.wav,1,2,2,3,,,,,1,1,17,2,0,3,3,9,,,,,,,,,4,2.851365362999786,013,001,2019_May_09_1118,MusicAffectPsychophysiology2019,3.0.5,59.99650916357739,
To what extent did the music make you feel ,ASHAMED,30MonoWAV/30MonoF3.wav,1,2,2,3,,,,,1,1,17,2,0,4,4,4,,,,,,,,,2,1.3851303639967227,013,001,2019_May_09_1118,MusicAffectPsychophysiology2019,3.0.5,59.99650916357739,
To what extent did the music make you feel ,TENDER,30MonoWAV/30MonoF3.wav,1,2,2,3,,,,,1,1,17,2,0,5,5,10,,,,,,,,,3,1.0670596230011142,013,001,2019_May_09_1118,MusicAffectPsychophysiology2019,3.0.5,59.99650916357739,
To what extent did the music make you feel ,ANXIOUS ,30MonoWAV/30MonoF3.wav,1,2,2,3,,,,,1,1,17,2,0,6,6,1,,,,,,,,,4,1.0853918200009502,013,001,2019_May_09_1118,MusicAffectPsychophysiology2019,3.0.5,59.99650916357739,
To what extent did the music make you feel ,SAD,30MonoWAV/30MonoF3.wav,1,2,2,3,,,,,1,1,17,2,0,7,7,0,,,,,,,,,2,1.8343145079998067,013,001,2019_May_09_1118,MusicAffectPsychophysiology2019,3.0.5,59.99650916357739,
To what extent did the music make you feel ,HAPPY,30MonoWAV/30MonoF3.wav,1,2,2,3,,,,,1,1,17,2,0,8,8,6,,,,,,,,,1,3.7021631930001604,013,001,2019_May_09_1118,MusicAffectPsychophysiology2019,3.0.5,59.99650916357739,
To what extent did the music make you feel ,EXCITED,30MonoWAV/30MonoF3.wav,1,2,2,3,,,,,1,1,17,2,0,9,9,7,,,,,,,,,1,1.1338513750015409,013,001,2019_May_09_1118,MusicAffectPsychophysiology2019,3.0.5,59.99650916357739,
To what extent did the music make you feel ,GUILTY,30MonoWAV/30MonoF3.wav,1,2,2,3,,,,,1,1,17,2,0,10,10,5,,,,,,,,,2,0.9671827210004267,013,001,2019_May_09_1118,MusicAffectPsychophysiology2019,3.0.5,59.99650916357739,
To what extent did the music make you feel ,SCARED,30MonoWAV/30MonoF3.wav,1,2,2,3,,,,,1,1,17,2,0,11,11,11,,,,,,,,,4,1.6008244059994468,013,001,2019_May_09_1118,MusicAffectPsychophysiology2019,3.0.5,59.99650916357739,
,,30MonoWAV/30MonoF3.wav,1,2,2,3,,,,,1,1,17,2,,,,,,,,,,,,,,,013,001,2019_May_09_1118,MusicAffectPsychophysiology2019,3.0.5,59.99650916357739,
To what extent did the music make you feel ,EXCITED,30MonoWAV/30MonoF1.wav,1,2,2,1,,,,,1,2,18,0,0,0,0,7,,,5,2.0907706520010834,4,1.01834783799859,5,0.45187624100071844,4,1.7013096530026814,013,001,2019_May_09_1118,MusicAffectPsychophysiology2019,3.0.5,59.99650916357739,
To what extent did the music make you feel ,SAD,30MonoWAV/30MonoF1.wav,1,2,2,1,,,,,1,2,18,0,0,1,1,0,,,,,,,,,1,1.3859027219987183,013,001,2019_May_09_1118,MusicAffectPsychophysiology2019,3.0.5,59.99650916357739,
To what extent did the music make you feel ,ALERT,30MonoWAV/30MonoF1.wav,1,2,2,1,,,,,1,2,18,0,0,2,2,8,,,,,,,,,5,1.4013378680028836,013,001,2019_May_09_1118,MusicAffectPsychophysiology2019,3.0.5,59.99650916357739,
To what extent did the music make you feel ,ANGRY,30MonoWAV/30MonoF1.wav,1,2,2,1,,,,,1,2,18,0,0,3,3,2,,,,,,,,,2,1.3501683220019913,013,001,2019_May_09_1118,MusicAffectPsychophysiology2019,3.0.5,59.99650916357739,
To what extent did the music make you feel ,ANXIOUS ,30MonoWAV/30MonoF1.wav,1,2,2,1,,,,,1,2,18,0,0,4,4,1,,,,,,,,,4,1.7181461800028046,013,001,2019_May_09_1118,MusicAffectPsychophysiology2019,3.0.5,59.99650916357739,
To what extent did the music make you feel ,ASHAMED,30MonoWAV/30MonoF1.wav,1,2,2,1,,,,,1,2,18,0,0,5,5,4,,,,,,,,,1,1.3355351179998252,013,001,2019_May_09_1118,MusicAffectPsychophysiology2019,3.0.5,59.99650916357739,
To what extent did the music make you feel ,FRUSTRATED,30MonoWAV/30MonoF1.wav,1,2,2,1,,,,,1,2,18,0,0,6,6,3,,,,,,,,,2,4.018011832999036,013,001,2019_May_09_1118,MusicAffectPsychophysiology2019,3.0.5,59.99650916357739,
To what extent did the music make you feel ,GUILTY,30MonoWAV/30MonoF1.wav,1,2,2,1,,,,,1,2,18,0,0,7,7,5,,,,,,,,,1,1.5186491499989643,013,001,2019_May_09_1118,MusicAffectPsychophysiology2019,3.0.5,59.99650916357739,
To what extent did the music make you feel ,SCARED,30MonoWAV/30MonoF1.wav,1,2,2,1,,,,,1,2,18,0,0,8,8,11,,,,,,,,,4,2.651602190999256,013,001,2019_May_09_1118,MusicAffectPsychophysiology2019,3.0.5,59.99650916357739,
To what extent did the music make you feel ,ACTIVE,30MonoWAV/30MonoF1.wav,1,2,2,1,,,,,1,2,18,0,0,9,9,9,,,,,,,,,5,1.4182067679976171,013,001,2019_May_09_1118,MusicAffectPsychophysiology2019,3.0.5,59.99650916357739,
To what extent did the music make you feel ,TENDER,30MonoWAV/30MonoF1.wav,1,2,2,1,,,,,1,2,18,0,0,10,10,10,,,,,,,,,2,1.4022453200013842,013,001,2019_May_09_1118,MusicAffectPsychophysiology2019,3.0.5,59.99650916357739,
To what extent did the music make you feel ,HAPPY,30MonoWAV/30MonoF1.wav,1,2,2,1,,,,,1,2,18,0,0,11,11,6,,,,,,,,,1,1.8823521109989088,013,001,2019_May_09_1118,MusicAffectPsychophysiology2019,3.0.5,59.99650916357739,
,,30MonoWAV/30MonoF1.wav,1,2,2,1,,,,,1,2,18,0,,,,,,,,,,,,,,,013,001,2019_May_09_1118,MusicAffectPsychophysiology2019,3.0.5,59.99650916357739,
To what extent did the music make you feel ,ALERT,30MonoWAV/30MonoS3.wav,1,1,3,11,,,,,1,3,19,10,0,0,0,8,,,2,4.835663951998868,2,4.9853100559994346,4,1.9183234260017343,3,1.9167548479999823,013,001,2019_May_09_1118,MusicAffectPsychophysiology2019,3.0.5,59.99650916357739,
To what extent did the music make you feel ,EXCITED,30MonoWAV/30MonoS3.wav,1,1,3,11,,,,,1,3,19,10,0,1,1,7,,,,,,,,,1,1.6155257749996963,013,001,2019_May_09_1118,MusicAffectPsychophysiology2019,3.0.5,59.99650916357739,
To what extent did the music make you feel ,TENDER,30MonoWAV/30MonoS3.wav,1,1,3,11,,,,,1,3,19,10,0,2,2,10,,,,,,,,,2,0.9862166499988234,013,001,2019_May_09_1118,MusicAffectPsychophysiology2019,3.0.5,59.99650916357739,
To what extent did the music make you feel ,SCARED,30MonoWAV/30MonoS3.wav,1,1,3,11,,,,,1,3,19,10,0,3,3,11,,,,,,,,,4,1.2852439799971762,013,001,2019_May_09_1118,MusicAffectPsychophysiology2019,3.0.5,59.99650916357739,
To what extent did the music make you feel ,ANGRY,30MonoWAV/30MonoS3.wav,1,1,3,11,,,,,1,3,19,10,0,4,4,2,,,,,,,,,2,2.1849239710027177,013,001,2019_May_09_1118,MusicAffectPsychophysiology2019,3.0.5,59.99650916357739,
To what extent did the music make you feel ,HAPPY,30MonoWAV/30MonoS3.wav,1,1,3,11,,,,,1,3,19,10,0,5,5,6,,,,,,,,,1,3.61829222400047,013,001,2019_May_09_1118,MusicAffectPsychophysiology2019,3.0.5,59.99650916357739,
To what extent did the music make you feel ,ACTIVE,30MonoWAV/30MonoS3.wav,1,1,3,11,,,,,1,3,19,10,0,6,6,9,,,,,,,,,3,2.984477712001535,013,001,2019_May_09_1118,MusicAffectPsychophysiology2019,3.0.5,59.99650916357739,
To what extent did the music make you feel ,SAD,30MonoWAV/30MonoS3.wav,1,1,3,11,,,,,1,3,19,10,0,7,7,0,,,,,,,,,2,1.1357928229990648,013,001,2019_May_09_1118,MusicAffectPsychophysiology2019,3.0.5,59.99650916357739,
To what extent did the music make you feel ,ANXIOUS ,30MonoWAV/30MonoS3.wav,1,1,3,11,,,,,1,3,19,10,0,8,8,1,,,,,,,,,4,1.3006328659976134,013,001,2019_May_09_1118,MusicAffectPsychophysiology2019,3.0.5,59.99650916357739,
To what extent did the music make you feel ,FRUSTRATED,30MonoWAV/30MonoS3.wav,1,1,3,11,,,,,1,3,19,10,0,9,9,3,,,,,,,,,2,1.218323747998511,013,001,2019_May_09_1118,MusicAffectPsychophysiology2019,3.0.5,59.99650916357739,
To what extent did the music make you feel ,GUILTY,30MonoWAV/30MonoS3.wav,1,1,3,11,,,,,1,3,19,10,0,10,10,5,,,,,,,,,1,2.052630668000347,013,001,2019_May_09_1118,MusicAffectPsychophysiology2019,3.0.5,59.99650916357739,
To what extent did the music make you feel ,ASHAMED,30MonoWAV/30MonoS3.wav,1,1,3,11,,,,,1,3,19,10,0,11,11,4,,,,,,,,,1,1.784807133997674,013,001,2019_May_09_1118,MusicAffectPsychophysiology2019,3.0.5,59.99650916357739,
,,30MonoWAV/30MonoS3.wav,1,1,3,11,,,,,1,3,19,10,,,,,,,,,,,,,,,013,001,2019_May_09_1118,MusicAffectPsychophysiology2019,3.0.5,59.99650916357739,
To what extent did the music make you feel ,ASHAMED,30MonoWAV/30MonoF2.wav,1,2,2,2,,,,,1,4,20,1,0,0,0,4,,,4,4.848900775999937,3,1.352907132000837,5,2.6352677419999964,4,5.66793971199877,013,001,2019_May_09_1118,MusicAffectPsychophysiology2019,3.0.5,59.99650916357739,
To what extent did the music make you feel ,EXCITED,30MonoWAV/30MonoF2.wav,1,2,2,2,,,,,1,4,20,1,0,1,1,7,,,,,,,,,2,1.8851445030013565,013,001,2019_May_09_1118,MusicAffectPsychophysiology2019,3.0.5,59.99650916357739,
To what extent did the music make you feel ,ACTIVE,30MonoWAV/30MonoF2.wav,1,2,2,2,,,,,1,4,20,1,0,2,2,9,,,,,,,,,4,1.7356577319987991,013,001,2019_May_09_1118,MusicAffectPsychophysiology2019,3.0.5,59.99650916357739,
To what extent did the music make you feel ,SCARED,30MonoWAV/30MonoF2.wav,1,2,2,2,,,,,1,4,20,1,0,3,3,11,,,,,,,,,5,1.2869808060022478,013,001,2019_May_09_1118,MusicAffectPsychophysiology2019,3.0.5,59.99650916357739,
To what extent did the music make you feel ,ANGRY,30MonoWAV/30MonoF2.wav,1,2,2,2,,,,,1,4,20,1,0,4,4,2,,,,,,,,,2,1.801375476999965,013,001,2019_May_09_1118,MusicAffectPsychophysiology2019,3.0.5,59.99650916357739,
To what extent did the music make you feel ,ALERT,30MonoWAV/30MonoF2.wav,1,2,2,2,,,,,1,4,20,1,0,5,5,8,,,,,,,,,5,1.6852004709980974,013,001,2019_May_09_1118,MusicAffectPsychophysiology2019,3.0.5,59.99650916357739,
To what extent did the music make you feel ,FRUSTRATED,30MonoWAV/30MonoF2.wav,1,2,2,2,,,,,1,4,20,1,0,6,6,3,,,,,,,,,2,2.0349599789988133,013,001,2019_May_09_1118,MusicAffectPsychophysiology2019,3.0.5,59.99650916357739,
To what extent did the music make you feel ,GUILTY,30MonoWAV/30MonoF2.wav,1,2,2,2,,,,,1,4,20,1,0,7,7,5,,,,,,,,,4,1.4519858870007738,013,001,2019_May_09_1118,MusicAffectPsychophysiology2019,3.0.5,59.99650916357739,
To what extent did the music make you feel ,ANXIOUS ,30MonoWAV/30MonoF2.wav,1,2,2,2,,,,,1,4,20,1,0,8,8,1,,,,,,,,,4,0.9679331580009602,013,001,2019_May_09_1118,MusicAffectPsychophysiology2019,3.0.5,59.99650916357739,
To what extent did the music make you feel ,TENDER,30MonoWAV/30MonoF2.wav,1,2,2,2,,,,,1,4,20,1,0,9,9,10,,,,,,,,,3,1.6516973249999864,013,001,2019_May_09_1118,MusicAffectPsychophysiology2019,3.0.5,59.99650916357739,
To what extent did the music make you feel ,SAD,30MonoWAV/30MonoF2.wav,1,2,2,2,,,,,1,4,20,1,0,10,10,0,,,,,,,,,2,1.1186465669998142,013,001,2019_May_09_1118,MusicAffectPsychophysiology2019,3.0.5,59.99650916357739,
To what extent did the music make you feel ,HAPPY,30MonoWAV/30MonoF2.wav,1,2,2,2,,,,,1,4,20,1,0,11,11,6,,,,,,,,,1,0.9330480290009291,013,001,2019_May_09_1118,MusicAffectPsychophysiology2019,3.0.5,59.99650916357739,
,,30MonoWAV/30MonoF2.wav,1,2,2,2,,,,,1,4,20,1,,,,,,,,,,,,,,,013,001,2019_May_09_1118,MusicAffectPsychophysiology2019,3.0.5,59.99650916357739,
To what extent did the music make you feel ,SCARED,30MonoWAV/30MonoT3.wav,2,1,4,15,,,,,1,5,21,14,0,0,0,11,,,2,2.974472515998059,4,3.5394968379987404,5,0.4521093089970236,1,1.8844673610001337,013,001,2019_May_09_1118,MusicAffectPsychophysiology2019,3.0.5,59.99650916357739,
To what extent did the music make you feel ,ALERT,30MonoWAV/30MonoT3.wav,2,1,4,15,,,,,1,5,21,14,0,1,1,8,,,,,,,,,1,1.6678528060001554,013,001,2019_May_09_1118,MusicAffectPsychophysiology2019,3.0.5,59.99650916357739,
To what extent did the music make you feel ,HAPPY,30MonoWAV/30MonoT3.wav,2,1,4,15,,,,,1,5,21,14,0,2,2,6,,,,,,,,,4,2.768501752998418,013,001,2019_May_09_1118,MusicAffectPsychophysiology2019,3.0.5,59.99650916357739,
To what extent did the music make you feel ,ANXIOUS ,30MonoWAV/30MonoT3.wav,2,1,4,15,,,,,1,5,21,14,0,3,3,1,,,,,,,,,1,1.3674499490007292,013,001,2019_May_09_1118,MusicAffectPsychophysiology2019,3.0.5,59.99650916357739,
To what extent did the music make you feel ,FRUSTRATED,30MonoWAV/30MonoT3.wav,2,1,4,15,,,,,1,5,21,14,0,4,4,3,,,,,,,,,2,1.9855354840001382,013,001,2019_May_09_1118,MusicAffectPsychophysiology2019,3.0.5,59.99650916357739,
To what extent did the music make you feel ,ACTIVE,30MonoWAV/30MonoT3.wav,2,1,4,15,,,,,1,5,21,14,0,5,5,9,,,,,,,,,1,3.385244198001601,013,001,2019_May_09_1118,MusicAffectPsychophysiology2019,3.0.5,59.99650916357739,
To what extent did the music make you feel ,TENDER,30MonoWAV/30MonoT3.wav,2,1,4,15,,,,,1,5,21,14,0,6,6,10,,,,,,,,,5,3.950491116000194,013,001,2019_May_09_1118,MusicAffectPsychophysiology2019,3.0.5,59.99650916357739,
To what extent did the music make you feel ,EXCITED,30MonoWAV/30MonoT3.wav,2,1,4,15,,,,,1,5,21,14,0,7,7,7,,,,,,,,,4,0.016919235000386834,013,001,2019_May_09_1118,MusicAffectPsychophysiology2019,3.0.5,59.99650916357739,
To what extent did the music make you feel ,ASHAMED,30MonoWAV/30MonoT3.wav,2,1,4,15,,,,,1,5,21,14,0,8,8,4,,,,,,,,,2,4.983627327001159,013,001,2019_May_09_1118,MusicAffectPsychophysiology2019,3.0.5,59.99650916357739,
To what extent did the music make you feel ,GUILTY,30MonoWAV/30MonoT3.wav,2,1,4,15,,,,,1,5,21,14,0,9,9,5,,,,,,,,,2,1.2516285040001094,013,001,2019_May_09_1118,MusicAffectPsychophysiology2019,3.0.5,59.99650916357739,
To what extent did the music make you feel ,ANGRY,30MonoWAV/30MonoT3.wav,2,1,4,15,,,,,1,5,21,14,0,10,10,2,,,,,,,,,1,0.885567330999038,013,001,2019_May_09_1118,MusicAffectPsychophysiology2019,3.0.5,59.99650916357739,
To what extent did the music make you feel ,SAD,30MonoWAV/30MonoT3.wav,2,1,4,15,,,,,1,5,21,14,0,11,11,0,,,,,,,,,3,1.7015003919987066,013,001,2019_May_09_1118,MusicAffectPsychophysiology2019,3.0.5,59.99650916357739,
,,30MonoWAV/30MonoT3.wav,2,1,4,15,,,,,1,5,21,14,,,,,,,,,,,,,,,013,001,2019_May_09_1118,MusicAffectPsychophysiology2019,3.0.5,59.99650916357739,
To what extent did the music make you feel ,SCARED,30MonoWAV/30MonoH2.wav,2,2,1,6,,,,,1,6,22,5,0,0,0,11,,,4,3.1671359349966224,4,1.922913754999172,4,1.152807437996671,2,1.352098045997991,013,001,2019_May_09_1118,MusicAffectPsychophysiology2019,3.0.5,59.99650916357739,
To what extent did the music make you feel ,GUILTY,30MonoWAV/30MonoH2.wav,2,2,1,6,,,,,1,6,22,5,0,1,1,5,,,,,,,,,2,1.704137508997519,013,001,2019_May_09_1118,MusicAffectPsychophysiology2019,3.0.5,59.99650916357739,
To what extent did the music make you feel ,ANXIOUS ,30MonoWAV/30MonoH2.wav,2,2,1,6,,,,,1,6,22,5,0,2,2,1,,,,,,,,,4,1.7542688169996836,013,001,2019_May_09_1118,MusicAffectPsychophysiology2019,3.0.5,59.99650916357739,
To what extent did the music make you feel ,ASHAMED,30MonoWAV/30MonoH2.wav,2,2,1,6,,,,,1,6,22,5,0,3,3,4,,,,,,,,,2,1.4564066880011524,013,001,2019_May_09_1118,MusicAffectPsychophysiology2019,3.0.5,59.99650916357739,
To what extent did the music make you feel ,FRUSTRATED,30MonoWAV/30MonoH2.wav,2,2,1,6,,,,,1,6,22,5,0,4,4,3,,,,,,,,,1,1.2521152070003154,013,001,2019_May_09_1118,MusicAffectPsychophysiology2019,3.0.5,59.99650916357739,
To what extent did the music make you feel ,SAD,30MonoWAV/30MonoH2.wav,2,2,1,6,,,,,1,6,22,5,0,5,5,0,,,,,,,,,1,1.2345771430009336,013,001,2019_May_09_1118,MusicAffectPsychophysiology2019,3.0.5,59.99650916357739,
To what extent did the music make you feel ,ANGRY,30MonoWAV/30MonoH2.wav,2,2,1,6,,,,,1,6,22,5,0,6,6,2,,,,,,,,,1,1.018142072000046,013,001,2019_May_09_1118,MusicAffectPsychophysiology2019,3.0.5,59.99650916357739,
To what extent did the music make you feel ,TENDER,30MonoWAV/30MonoH2.wav,2,2,1,6,,,,,1,6,22,5,0,7,7,10,,,,,,,,,3,1.4018495369964512,013,001,2019_May_09_1118,MusicAffectPsychophysiology2019,3.0.5,59.99650916357739,
To what extent did the music make you feel ,ALERT,30MonoWAV/30MonoH2.wav,2,2,1,6,,,,,1,6,22,5,0,8,8,8,,,,,,,,,4,1.2227857959987887,013,001,2019_May_09_1118,MusicAffectPsychophysiology2019,3.0.5,59.99650916357739,
To what extent did the music make you feel ,ACTIVE,30MonoWAV/30MonoH2.wav,2,2,1,6,,,,,1,6,22,5,0,9,9,9,,,,,,,,,4,1.3037333940010285,013,001,2019_May_09_1118,MusicAffectPsychophysiology2019,3.0.5,59.99650916357739,
To what extent did the music make you feel ,HAPPY,30MonoWAV/30MonoH2.wav,2,2,1,6,,,,,1,6,22,5,0,10,10,6,,,,,,,,,2,4.1556259490025695,013,001,2019_May_09_1118,MusicAffectPsychophysiology2019,3.0.5,59.99650916357739,
To what extent did the music make you feel ,EXCITED,30MonoWAV/30MonoH2.wav,2,2,1,6,,,,,1,6,22,5,0,11,11,7,,,,,,,,,2,1.0532972310029436,013,001,2019_May_09_1118,MusicAffectPsychophysiology2019,3.0.5,59.99650916357739,
,,30MonoWAV/30MonoH2.wav,2,2,1,6,,,,,1,6,22,5,,,,,,,,,,,,,,,013,001,2019_May_09_1118,MusicAffectPsychophysiology2019,3.0.5,59.99650916357739,
To what extent did the music make you feel ,HAPPY,30MonoWAV/30MonoT1.wav,2,1,4,13,,,,,1,7,23,12,0,0,0,6,,,4,3.1176582030020654,5,1.2837549859978026,5,0.5683370119986648,5,1.38305640100225,013,001,2019_May_09_1118,MusicAffectPsychophysiology2019,3.0.5,59.99650916357739,
To what extent did the music make you feel ,ANGRY,30MonoWAV/30MonoT1.wav,2,1,4,13,,,,,1,7,23,12,0,1,1,2,,,,,,,,,1,1.052475937998679,013,001,2019_May_09_1118,MusicAffectPsychophysiology2019,3.0.5,59.99650916357739,
To what extent did the music make you feel ,EXCITED,30MonoWAV/30MonoT1.wav,2,1,4,13,,,,,1,7,23,12,0,2,2,7,,,,,,,,,2,1.6015912340008072,013,001,2019_May_09_1118,MusicAffectPsychophysiology2019,3.0.5,59.99650916357739,
To what extent did the music make you feel ,SAD,30MonoWAV/30MonoT1.wav,2,1,4,13,,,,,1,7,23,12,0,3,3,0,,,,,,,,,1,1.0860424610000337,013,001,2019_May_09_1118,MusicAffectPsychophysiology2019,3.0.5,59.99650916357739,
To what extent did the music make you feel ,TENDER,30MonoWAV/30MonoT1.wav,2,1,4,13,,,,,1,7,23,12,0,4,4,10,,,,,,,,,4,1.7340104620016064,013,001,2019_May_09_1118,MusicAffectPsychophysiology2019,3.0.5,59.99650916357739,
To what extent did the music make you feel ,ALERT,30MonoWAV/30MonoT1.wav,2,1,4,13,,,,,1,7,23,12,0,5,5,8,,,,,,,,,1,1.8367959419992985,013,001,2019_May_09_1118,MusicAffectPsychophysiology2019,3.0.5,59.99650916357739,
To what extent did the music make you feel ,FRUSTRATED,30MonoWAV/30MonoT1.wav,2,1,4,13,,,,,1,7,23,12,0,6,6,3,,,,,,,,,1,1.2021344380009396,013,001,2019_May_09_1118,MusicAffectPsychophysiology2019,3.0.5,59.99650916357739,
To what extent did the music make you feel ,ASHAMED,30MonoWAV/30MonoT1.wav,2,1,4,13,,,,,1,7,23,12,0,7,7,4,,,,,,,,,1,1.6182508189995133,013,001,2019_May_09_1118,MusicAffectPsychophysiology2019,3.0.5,59.99650916357739,
To what extent did the music make you feel ,ANXIOUS ,30MonoWAV/30MonoT1.wav,2,1,4,13,,,,,1,7,23,12,0,8,8,1,,,,,,,,,3,1.2357586970028933,013,001,2019_May_09_1118,MusicAffectPsychophysiology2019,3.0.5,59.99650916357739,
To what extent did the music make you feel ,SCARED,30MonoWAV/30MonoT1.wav,2,1,4,13,,,,,1,7,23,12,0,9,9,11,,,,,,,,,2,2.0355604590004077,013,001,2019_May_09_1118,MusicAffectPsychophysiology2019,3.0.5,59.99650916357739,
To what extent did the music make you feel ,ACTIVE,30MonoWAV/30MonoT1.wav,2,1,4,13,,,,,1,7,23,12,0,10,10,9,,,,,,,,,1,2.0346226539986674,013,001,2019_May_09_1118,MusicAffectPsychophysiology2019,3.0.5,59.99650916357739,
To what extent did the music make you feel ,GUILTY,30MonoWAV/30MonoT1.wav,2,1,4,13,,,,,1,7,23,12,0,11,11,5,,,,,,,,,2,1.9021071489987662,013,001,2019_May_09_1118,MusicAffectPsychophysiology2019,3.0.5,59.99650916357739,
,,30MonoWAV/30MonoT1.wav,2,1,4,13,,,,,1,7,23,12,,,,,,,,,,,,,,,013,001,2019_May_09_1118,MusicAffectPsychophysiology2019,3.0.5,59.99650916357739,
To what extent did the music make you feel ,ANXIOUS ,30MonoWAV/30MonoS4.wav,1,1,3,12,,,,,1,8,24,11,0,0,0,1,,,2,3.74094857000091,3,2.855212358001154,5,1.1364449040011095,1,3.506905406997248,013,001,2019_May_09_1118,MusicAffectPsychophysiology2019,3.0.5,59.99650916357739,
To what extent did the music make you feel ,FRUSTRATED,30MonoWAV/30MonoS4.wav,1,1,3,12,,,,,1,8,24,11,0,1,1,3,,,,,,,,,1,0.7001892869993753,013,001,2019_May_09_1118,MusicAffectPsychophysiology2019,3.0.5,59.99650916357739,
To what extent did the music make you feel ,ALERT,30MonoWAV/30MonoS4.wav,1,1,3,12,,,,,1,8,24,11,0,2,2,8,,,,,,,,,1,1.3194911829996272,013,001,2019_May_09_1118,MusicAffectPsychophysiology2019,3.0.5,59.99650916357739,
To what extent did the music make you feel ,HAPPY,30MonoWAV/30MonoS4.wav,1,1,3,12,,,,,1,8,24,11,0,3,3,6,,,,,,,,,2,1.4191366280028888,013,001,2019_May_09_1118,MusicAffectPsychophysiology2019,3.0.5,59.99650916357739,
To what extent did the music make you feel ,ACTIVE,30MonoWAV/30MonoS4.wav,1,1,3,12,,,,,1,8,24,11,0,4,4,9,,,,,,,,,1,1.2185871799993038,013,001,2019_May_09_1118,MusicAffectPsychophysiology2019,3.0.5,59.99650916357739,
To what extent did the music make you feel ,TENDER,30MonoWAV/30MonoS4.wav,1,1,3,12,,,,,1,8,24,11,0,5,5,10,,,,,,,,,4,1.6684535150016018,013,001,2019_May_09_1118,MusicAffectPsychophysiology2019,3.0.5,59.99650916357739,
To what extent did the music make you feel ,ASHAMED,30MonoWAV/30MonoS4.wav,1,1,3,12,,,,,1,8,24,11,0,6,6,4,,,,,,,,,1,1.2851693960001285,013,001,2019_May_09_1118,MusicAffectPsychophysiology2019,3.0.5,59.99650916357739,
To what extent did the music make you feel ,GUILTY,30MonoWAV/30MonoS4.wav,1,1,3,12,,,,,1,8,24,11,0,7,7,5,,,,,,,,,1,0.7686107629997423,013,001,2019_May_09_1118,MusicAffectPsychophysiology2019,3.0.5,59.99650916357739,
To what extent did the music make you feel ,ANGRY,30MonoWAV/30MonoS4.wav,1,1,3,12,,,,,1,8,24,11,0,8,8,2,,,,,,,,,1,1.1168109690006531,013,001,2019_May_09_1118,MusicAffectPsychophysiology2019,3.0.5,59.99650916357739,
To what extent did the music make you feel ,SAD,30MonoWAV/30MonoS4.wav,1,1,3,12,,,,,1,8,24,11,0,9,9,0,,,,,,,,,2,1.1684241789989755,013,001,2019_May_09_1118,MusicAffectPsychophysiology2019,3.0.5,59.99650916357739,
To what extent did the music make you feel ,SCARED,30MonoWAV/30MonoS4.wav,1,1,3,12,,,,,1,8,24,11,0,10,10,11,,,,,,,,,3,1.4684462630029884,013,001,2019_May_09_1118,MusicAffectPsychophysiology2019,3.0.5,59.99650916357739,
To what extent did the music make you feel ,EXCITED,30MonoWAV/30MonoS4.wav,1,1,3,12,,,,,1,8,24,11,0,11,11,7,,,,,,,,,1,1.2013763840004685,013,001,2019_May_09_1118,MusicAffectPsychophysiology2019,3.0.5,59.99650916357739,
,,30MonoWAV/30MonoS4.wav,1,1,3,12,,,,,1,8,24,11,,,,,,,,,,,,,,,013,001,2019_May_09_1118,MusicAffectPsychophysiology2019,3.0.5,59.99650916357739,
To what extent did the music make you feel ,ASHAMED,30MonoWAV/30MonoT2.wav,2,1,4,14,,,,,1,9,25,13,0,0,0,4,,,4,3.4858150539985218,5,1.3843265070026973,5,0.3183245939981134,2,2.317771313999401,013,001,2019_May_09_1118,MusicAffectPsychophysiology2019,3.0.5,59.99650916357739,
To what extent did the music make you feel ,ANXIOUS ,30MonoWAV/30MonoT2.wav,2,1,4,14,,,,,1,9,25,13,0,1,1,1,,,,,,,,,3,1.3685468980002042,013,001,2019_May_09_1118,MusicAffectPsychophysiology2019,3.0.5,59.99650916357739,
To what extent did the music make you feel ,HAPPY,30MonoWAV/30MonoT2.wav,2,1,4,14,,,,,1,9,25,13,0,2,2,6,,,,,,,,,4,1.4676578280013928,013,001,2019_May_09_1118,MusicAffectPsychophysiology2019,3.0.5,59.99650916357739,
To what extent did the music make you feel ,ACTIVE,30MonoWAV/30MonoT2.wav,2,1,4,14,,,,,1,9,25,13,0,3,3,9,,,,,,,,,4,2.469483967000997,013,001,2019_May_09_1118,MusicAffectPsychophysiology2019,3.0.5,59.99650916357739,
To what extent did the music make you feel ,ALERT,30MonoWAV/30MonoT2.wav,2,1,4,14,,,,,1,9,25,13,0,4,4,8,,,,,,,,,2,2.0395048490026966,013,001,2019_May_09_1118,MusicAffectPsychophysiology2019,3.0.5,59.99650916357739,
To what extent did the music make you feel ,ANGRY,30MonoWAV/30MonoT2.wav,2,1,4,14,,,,,1,9,25,13,0,5,5,2,,,,,,,,,1,1.3532077169984404,013,001,2019_May_09_1118,MusicAffectPsychophysiology2019,3.0.5,59.99650916357739,
To what extent did the music make you feel ,TENDER,30MonoWAV/30MonoT2.wav,2,1,4,14,,,,,1,9,25,13,0,6,6,10,,,,,,,,,4,2.053987037998013,013,001,2019_May_09_1118,MusicAffectPsychophysiology2019,3.0.5,59.99650916357739,
To what extent did the music make you feel ,SCARED,30MonoWAV/30MonoT2.wav,2,1,4,14,,,,,1,9,25,13,0,7,7,11,,,,,,,,,3,0.953233223001007,013,001,2019_May_09_1118,MusicAffectPsychophysiology2019,3.0.5,59.99650916357739,
To what extent did the music make you feel ,SAD,30MonoWAV/30MonoT2.wav,2,1,4,14,,,,,1,9,25,13,0,8,8,0,,,,,,,,,1,0.9363355829991633,013,001,2019_May_09_1118,MusicAffectPsychophysiology2019,3.0.5,59.99650916357739,
To what extent did the music make you feel ,GUILTY,30MonoWAV/30MonoT2.wav,2,1,4,14,,,,,1,9,25,13,0,9,9,5,,,,,,,,,2,1.5372405640009674,013,001,2019_May_09_1118,MusicAffectPsychophysiology2019,3.0.5,59.99650916357739,
To what extent did the music make you feel ,EXCITED,30MonoWAV/30MonoT2.wav,2,1,4,14,,,,,1,9,25,13,0,10,10,7,,,,,,,,,3,1.088151697000285,013,001,2019_May_09_1118,MusicAffectPsychophysiology2019,3.0.5,59.99650916357739,
To what extent did the music make you feel ,FRUSTRATED,30MonoWAV/30MonoT2.wav,2,1,4,14,,,,,1,9,25,13,0,11,11,3,,,,,,,,,1,0.950048598999274,013,001,2019_May_09_1118,MusicAffectPsychophysiology2019,3.0.5,59.99650916357739,
