Instruction,Word,song,valence,arousal,affectcat,songmark,pracwords.thisRepN,pracwords.thisTrialN,pracwords.thisN,pracwords.thisIndex,songtrials.thisRepN,songtrials.thisTrialN,songtrials.thisN,songtrials.thisIndex,words.thisRepN,words.thisTrialN,words.thisN,words.thisIndex,begin.keys,begin.rt,arousalkey.keys,arousalkey.rt,valencekey.keys,valencekey.rt,likekey.keys,likekey.rt,WordResponse.keys,WordResponse.rt,key_resp_2.keys,key_resp_2.rt,participant,session,date,expName,psychopyVersion,frameRate,
,,,,,,,,,,,,,,,,,,,space,14.718549186000018,,,,,,,,,,,014,001,2019_May_09_1306,MusicAffectPsychophysiology2019,3.0.5,60.229866684544305,
,,,,,,,,,,,,,,,,,,,,,4,8.283701932999975,,,,,,,,,014,001,2019_May_09_1306,MusicAffectPsychophysiology2019,3.0.5,60.229866684544305,
,,,,,,,,,,,,,,,,,,,,,,,4,2.7518615879998833,,,,,,,014,001,2019_May_09_1306,MusicAffectPsychophysiology2019,3.0.5,60.229866684544305,
,,,,,,,,,,,,,,,,,,,,,,,,,4,2.701185722002265,,,,,014,001,2019_May_09_1306,MusicAffectPsychophysiology2019,3.0.5,60.229866684544305,
To what extent did the music make you feel ,SCARED,,,,,,0,0,0,11,,,,,,,,,,,,,,,,,1,2.767927018998307,,,014,001,2019_May_09_1306,MusicAffectPsychophysiology2019,3.0.5,60.229866684544305,
To what extent did the music make you feel ,HAPPY,,,,,,0,1,1,6,,,,,,,,,,,,,,,,,4,3.0523807989993657,,,014,001,2019_May_09_1306,MusicAffectPsychophysiology2019,3.0.5,60.229866684544305,
To what extent did the music make you feel ,TENDER,,,,,,0,2,2,10,,,,,,,,,,,,,,,,,3,3.6515092690024176,,,014,001,2019_May_09_1306,MusicAffectPsychophysiology2019,3.0.5,60.229866684544305,
To what extent did the music make you feel ,ANGRY,,,,,,0,3,3,2,,,,,,,,,,,,,,,,,1,1.4507221660023788,,,014,001,2019_May_09_1306,MusicAffectPsychophysiology2019,3.0.5,60.229866684544305,
To what extent did the music make you feel ,FRUSTRATED,,,,,,0,4,4,3,,,,,,,,,,,,,,,,,1,1.603135270997882,,,014,001,2019_May_09_1306,MusicAffectPsychophysiology2019,3.0.5,60.229866684544305,
To what extent did the music make you feel ,ANXIOUS ,,,,,,0,5,5,1,,,,,,,,,,,,,,,,,1,1.4183683669980383,,,014,001,2019_May_09_1306,MusicAffectPsychophysiology2019,3.0.5,60.229866684544305,
To what extent did the music make you feel ,ALERT,,,,,,0,6,6,8,,,,,,,,,,,,,,,,,3,3.0669881419999,,,014,001,2019_May_09_1306,MusicAffectPsychophysiology2019,3.0.5,60.229866684544305,
To what extent did the music make you feel ,ASHAMED,,,,,,0,7,7,4,,,,,,,,,,,,,,,,,1,1.534887281999545,,,014,001,2019_May_09_1306,MusicAffectPsychophysiology2019,3.0.5,60.229866684544305,
To what extent did the music make you feel ,GUILTY,,,,,,0,8,8,5,,,,,,,,,,,,,,,,,1,1.4350869179979782,,,014,001,2019_May_09_1306,MusicAffectPsychophysiology2019,3.0.5,60.229866684544305,
To what extent did the music make you feel ,EXCITED,,,,,,0,9,9,7,,,,,,,,,,,,,,,,,4,2.552244280002924,,,014,001,2019_May_09_1306,MusicAffectPsychophysiology2019,3.0.5,60.229866684544305,
To what extent did the music make you feel ,ACTIVE,,,,,,0,10,10,9,,,,,,,,,,,,,,,,,4,5.4506256749991735,,,014,001,2019_May_09_1306,MusicAffectPsychophysiology2019,3.0.5,60.229866684544305,
To what extent did the music make you feel ,SAD,,,,,,0,11,11,0,,,,,,,,,,,,,,,,,1,2.418670420000126,,,014,001,2019_May_09_1306,MusicAffectPsychophysiology2019,3.0.5,60.229866684544305,
To what extent did the music make you feel ,EXCITED,30MonoWAV/30MonoH4.wav,2,2,1,8,,,,,0,0,0,7,0,0,0,7,,,5,3.0028546249995998,5,2.019006591002835,5,1.1514545980026014,5,1.7340890779996698,,,014,001,2019_May_09_1306,MusicAffectPsychophysiology2019,3.0.5,60.229866684544305,
To what extent did the music make you feel ,ANXIOUS ,30MonoWAV/30MonoH4.wav,2,2,1,8,,,,,0,0,0,7,0,1,1,1,,,,,,,,,1,1.2185907530001714,,,014,001,2019_May_09_1306,MusicAffectPsychophysiology2019,3.0.5,60.229866684544305,
To what extent did the music make you feel ,GUILTY,30MonoWAV/30MonoH4.wav,2,2,1,8,,,,,0,0,0,7,0,2,2,5,,,,,,,,,1,1.0012255670008017,,,014,001,2019_May_09_1306,MusicAffectPsychophysiology2019,3.0.5,60.229866684544305,
To what extent did the music make you feel ,TENDER,30MonoWAV/30MonoH4.wav,2,2,1,8,,,,,0,0,0,7,0,3,3,10,,,,,,,,,2,2.718670671001746,,,014,001,2019_May_09_1306,MusicAffectPsychophysiology2019,3.0.5,60.229866684544305,
To what extent did the music make you feel ,SCARED,30MonoWAV/30MonoH4.wav,2,2,1,8,,,,,0,0,0,7,0,4,4,11,,,,,,,,,1,1.050042721999489,,,014,001,2019_May_09_1306,MusicAffectPsychophysiology2019,3.0.5,60.229866684544305,
To what extent did the music make you feel ,HAPPY,30MonoWAV/30MonoH4.wav,2,2,1,8,,,,,0,0,0,7,0,5,5,6,,,,,,,,,5,1.5524294559982081,,,014,001,2019_May_09_1306,MusicAffectPsychophysiology2019,3.0.5,60.229866684544305,
To what extent did the music make you feel ,ACTIVE,30MonoWAV/30MonoH4.wav,2,2,1,8,,,,,0,0,0,7,0,6,6,9,,,,,,,,,5,2.7502908520000346,,,014,001,2019_May_09_1306,MusicAffectPsychophysiology2019,3.0.5,60.229866684544305,
To what extent did the music make you feel ,ASHAMED,30MonoWAV/30MonoH4.wav,2,2,1,8,,,,,0,0,0,7,0,7,7,4,,,,,,,,,1,1.0181052130028547,,,014,001,2019_May_09_1306,MusicAffectPsychophysiology2019,3.0.5,60.229866684544305,
To what extent did the music make you feel ,ANGRY,30MonoWAV/30MonoH4.wav,2,2,1,8,,,,,0,0,0,7,0,8,8,2,,,,,,,,,1,1.1356987910003227,,,014,001,2019_May_09_1306,MusicAffectPsychophysiology2019,3.0.5,60.229866684544305,
To what extent did the music make you feel ,ALERT,30MonoWAV/30MonoH4.wav,2,2,1,8,,,,,0,0,0,7,0,9,9,8,,,,,,,,,3,1.9678896890000033,,,014,001,2019_May_09_1306,MusicAffectPsychophysiology2019,3.0.5,60.229866684544305,
To what extent did the music make you feel ,FRUSTRATED,30MonoWAV/30MonoH4.wav,2,2,1,8,,,,,0,0,0,7,0,10,10,3,,,,,,,,,1,1.2677690390009957,,,014,001,2019_May_09_1306,MusicAffectPsychophysiology2019,3.0.5,60.229866684544305,
To what extent did the music make you feel ,SAD,30MonoWAV/30MonoH4.wav,2,2,1,8,,,,,0,0,0,7,0,11,11,0,,,,,,,,,1,1.2687784539994027,,,014,001,2019_May_09_1306,MusicAffectPsychophysiology2019,3.0.5,60.229866684544305,
,,30MonoWAV/30MonoH4.wav,2,2,1,8,,,,,0,0,0,7,,,,,,,,,,,,,,,,,014,001,2019_May_09_1306,MusicAffectPsychophysiology2019,3.0.5,60.229866684544305,
To what extent did the music make you feel ,FRUSTRATED,30MonoWAV/30MonoT4.wav,2,1,4,16,,,,,0,1,1,15,0,0,0,3,,,3,3.651341851997131,3,4.301499373999832,5,2.8350055139999313,1,1.8203772550004942,,,014,001,2019_May_09_1306,MusicAffectPsychophysiology2019,3.0.5,60.229866684544305,
To what extent did the music make you feel ,ANGRY,30MonoWAV/30MonoT4.wav,2,1,4,16,,,,,0,1,1,15,0,1,1,2,,,,,,,,,1,0.8349696879995463,,,014,001,2019_May_09_1306,MusicAffectPsychophysiology2019,3.0.5,60.229866684544305,
To what extent did the music make you feel ,TENDER,30MonoWAV/30MonoT4.wav,2,1,4,16,,,,,0,1,1,15,0,2,2,10,,,,,,,,,4,1.8186650060015381,,,014,001,2019_May_09_1306,MusicAffectPsychophysiology2019,3.0.5,60.229866684544305,
To what extent did the music make you feel ,ACTIVE,30MonoWAV/30MonoT4.wav,2,1,4,16,,,,,0,1,1,15,0,3,3,9,,,,,,,,,2,3.6183852139984083,,,014,001,2019_May_09_1306,MusicAffectPsychophysiology2019,3.0.5,60.229866684544305,
To what extent did the music make you feel ,HAPPY,30MonoWAV/30MonoT4.wav,2,1,4,16,,,,,0,1,1,15,0,4,4,6,,,,,,,,,2,1.4849506339996879,,,014,001,2019_May_09_1306,MusicAffectPsychophysiology2019,3.0.5,60.229866684544305,
To what extent did the music make you feel ,SAD,30MonoWAV/30MonoT4.wav,2,1,4,16,,,,,0,1,1,15,0,5,5,0,,,,,,,,,5,2.0519881440013705,,,014,001,2019_May_09_1306,MusicAffectPsychophysiology2019,3.0.5,60.229866684544305,
To what extent did the music make you feel ,EXCITED,30MonoWAV/30MonoT4.wav,2,1,4,16,,,,,0,1,1,15,0,6,6,7,,,,,,,,,3,2.65160823000042,,,014,001,2019_May_09_1306,MusicAffectPsychophysiology2019,3.0.5,60.229866684544305,
To what extent did the music make you feel ,GUILTY,30MonoWAV/30MonoT4.wav,2,1,4,16,,,,,0,1,1,15,0,7,7,5,,,,,,,,,1,1.216338967999036,,,014,001,2019_May_09_1306,MusicAffectPsychophysiology2019,3.0.5,60.229866684544305,
To what extent did the music make you feel ,SCARED,30MonoWAV/30MonoT4.wav,2,1,4,16,,,,,0,1,1,15,0,8,8,11,,,,,,,,,1,0.8513626259991725,,,014,001,2019_May_09_1306,MusicAffectPsychophysiology2019,3.0.5,60.229866684544305,
To what extent did the music make you feel ,ASHAMED,30MonoWAV/30MonoT4.wav,2,1,4,16,,,,,0,1,1,15,0,9,9,4,,,,,,,,,1,0.968273662001593,,,014,001,2019_May_09_1306,MusicAffectPsychophysiology2019,3.0.5,60.229866684544305,
To what extent did the music make you feel ,ANXIOUS ,30MonoWAV/30MonoT4.wav,2,1,4,16,,,,,0,1,1,15,0,10,10,1,,,,,,,,,2,1.6686163379999925,,,014,001,2019_May_09_1306,MusicAffectPsychophysiology2019,3.0.5,60.229866684544305,
To what extent did the music make you feel ,ALERT,30MonoWAV/30MonoT4.wav,2,1,4,16,,,,,0,1,1,15,0,11,11,8,,,,,,,,,4,2.3520995629987738,,,014,001,2019_May_09_1306,MusicAffectPsychophysiology2019,3.0.5,60.229866684544305,
,,30MonoWAV/30MonoT4.wav,2,1,4,16,,,,,0,1,1,15,,,,,,,,,,,,,,,,,014,001,2019_May_09_1306,MusicAffectPsychophysiology2019,3.0.5,60.229866684544305,
To what extent did the music make you feel ,SCARED,30MonoWAV/30MonoS2.wav,1,1,3,10,,,,,0,2,2,9,0,0,0,11,,,1,3.105343119997997,2,3.8398724979997496,4,2.487832224000158,1,1.8202328789993771,,,014,001,2019_May_09_1306,MusicAffectPsychophysiology2019,3.0.5,60.229866684544305,
To what extent did the music make you feel ,EXCITED,30MonoWAV/30MonoS2.wav,1,1,3,10,,,,,0,2,2,9,0,1,1,7,,,,,,,,,1,0.8530028339991986,,,014,001,2019_May_09_1306,MusicAffectPsychophysiology2019,3.0.5,60.229866684544305,
To what extent did the music make you feel ,ASHAMED,30MonoWAV/30MonoS2.wav,1,1,3,10,,,,,0,2,2,9,0,2,2,4,,,,,,,,,1,1.1868316770014644,,,014,001,2019_May_09_1306,MusicAffectPsychophysiology2019,3.0.5,60.229866684544305,
To what extent did the music make you feel ,ALERT,30MonoWAV/30MonoS2.wav,1,1,3,10,,,,,0,2,2,9,0,3,3,8,,,,,,,,,1,1.8733907159985392,,,014,001,2019_May_09_1306,MusicAffectPsychophysiology2019,3.0.5,60.229866684544305,
To what extent did the music make you feel ,ACTIVE,30MonoWAV/30MonoS2.wav,1,1,3,10,,,,,0,2,2,9,0,4,4,9,,,,,,,,,1,1.3671851440012688,,,014,001,2019_May_09_1306,MusicAffectPsychophysiology2019,3.0.5,60.229866684544305,
To what extent did the music make you feel ,HAPPY,30MonoWAV/30MonoS2.wav,1,1,3,10,,,,,0,2,2,9,0,5,5,6,,,,,,,,,2,1.7678798729975824,,,014,001,2019_May_09_1306,MusicAffectPsychophysiology2019,3.0.5,60.229866684544305,
To what extent did the music make you feel ,TENDER,30MonoWAV/30MonoS2.wav,1,1,3,10,,,,,0,2,2,9,0,6,6,10,,,,,,,,,4,1.5831194979982683,,,014,001,2019_May_09_1306,MusicAffectPsychophysiology2019,3.0.5,60.229866684544305,
To what extent did the music make you feel ,SAD,30MonoWAV/30MonoS2.wav,1,1,3,10,,,,,0,2,2,9,0,7,7,0,,,,,,,,,5,2.40179011500004,,,014,001,2019_May_09_1306,MusicAffectPsychophysiology2019,3.0.5,60.229866684544305,
To what extent did the music make you feel ,ANXIOUS ,30MonoWAV/30MonoS2.wav,1,1,3,10,,,,,0,2,2,9,0,8,8,1,,,,,,,,,3,2.167870960998698,,,014,001,2019_May_09_1306,MusicAffectPsychophysiology2019,3.0.5,60.229866684544305,
To what extent did the music make you feel ,ANGRY,30MonoWAV/30MonoS2.wav,1,1,3,10,,,,,0,2,2,9,0,9,9,2,,,,,,,,,1,1.7684571399986453,,,014,001,2019_May_09_1306,MusicAffectPsychophysiology2019,3.0.5,60.229866684544305,
To what extent did the music make you feel ,FRUSTRATED,30MonoWAV/30MonoS2.wav,1,1,3,10,,,,,0,2,2,9,0,10,10,3,,,,,,,,,1,1.2348238800004765,,,014,001,2019_May_09_1306,MusicAffectPsychophysiology2019,3.0.5,60.229866684544305,
To what extent did the music make you feel ,GUILTY,30MonoWAV/30MonoS2.wav,1,1,3,10,,,,,0,2,2,9,0,11,11,5,,,,,,,,,1,0.8019167849997757,,,014,001,2019_May_09_1306,MusicAffectPsychophysiology2019,3.0.5,60.229866684544305,
,,30MonoWAV/30MonoS2.wav,1,1,3,10,,,,,0,2,2,9,,,,,,,,,,,,,,,,,014,001,2019_May_09_1306,MusicAffectPsychophysiology2019,3.0.5,60.229866684544305,
To what extent did the music make you feel ,SCARED,30MonoWAV/30MonoT1.wav,2,1,4,13,,,,,0,3,3,12,0,0,0,11,,,2,3.034645178999199,4,1.8514263260003645,4,2.0843438310002966,1,1.6021506270008103,,,014,001,2019_May_09_1306,MusicAffectPsychophysiology2019,3.0.5,60.229866684544305,
To what extent did the music make you feel ,SAD,30MonoWAV/30MonoT1.wav,2,1,4,13,,,,,0,3,3,12,0,1,1,0,,,,,,,,,2,1.3013647199986735,,,014,001,2019_May_09_1306,MusicAffectPsychophysiology2019,3.0.5,60.229866684544305,
To what extent did the music make you feel ,ASHAMED,30MonoWAV/30MonoT1.wav,2,1,4,13,,,,,0,3,3,12,0,2,2,4,,,,,,,,,1,1.1190436420001788,,,014,001,2019_May_09_1306,MusicAffectPsychophysiology2019,3.0.5,60.229866684544305,
To what extent did the music make you feel ,ACTIVE,30MonoWAV/30MonoT1.wav,2,1,4,13,,,,,0,3,3,12,0,3,3,9,,,,,,,,,2,3.0021187210004427,,,014,001,2019_May_09_1306,MusicAffectPsychophysiology2019,3.0.5,60.229866684544305,
To what extent did the music make you feel ,HAPPY,30MonoWAV/30MonoT1.wav,2,1,4,13,,,,,0,3,3,12,0,4,4,6,,,,,,,,,3,1.433687237000413,,,014,001,2019_May_09_1306,MusicAffectPsychophysiology2019,3.0.5,60.229866684544305,
To what extent did the music make you feel ,ANXIOUS ,30MonoWAV/30MonoT1.wav,2,1,4,13,,,,,0,3,3,12,0,5,5,1,,,,,,,,,2,1.751592692999111,,,014,001,2019_May_09_1306,MusicAffectPsychophysiology2019,3.0.5,60.229866684544305,
To what extent did the music make you feel ,GUILTY,30MonoWAV/30MonoT1.wav,2,1,4,13,,,,,0,3,3,12,0,6,6,5,,,,,,,,,1,0.9188412200019229,,,014,001,2019_May_09_1306,MusicAffectPsychophysiology2019,3.0.5,60.229866684544305,
To what extent did the music make you feel ,TENDER,30MonoWAV/30MonoT1.wav,2,1,4,13,,,,,0,3,3,12,0,7,7,10,,,,,,,,,3,1.6511530120005773,,,014,001,2019_May_09_1306,MusicAffectPsychophysiology2019,3.0.5,60.229866684544305,
To what extent did the music make you feel ,ANGRY,30MonoWAV/30MonoT1.wav,2,1,4,13,,,,,0,3,3,12,0,8,8,2,,,,,,,,,1,1.6004349299983005,,,014,001,2019_May_09_1306,MusicAffectPsychophysiology2019,3.0.5,60.229866684544305,
To what extent did the music make you feel ,EXCITED,30MonoWAV/30MonoT1.wav,2,1,4,13,,,,,0,3,3,12,0,9,9,7,,,,,,,,,1,3.652078598999651,,,014,001,2019_May_09_1306,MusicAffectPsychophysiology2019,3.0.5,60.229866684544305,
To what extent did the music make you feel ,FRUSTRATED,30MonoWAV/30MonoT1.wav,2,1,4,13,,,,,0,3,3,12,0,10,10,3,,,,,,,,,1,2.117875403000653,,,014,001,2019_May_09_1306,MusicAffectPsychophysiology2019,3.0.5,60.229866684544305,
To what extent did the music make you feel ,ALERT,30MonoWAV/30MonoT1.wav,2,1,4,13,,,,,0,3,3,12,0,11,11,8,,,,,,,,,3,2.335352674002934,,,014,001,2019_May_09_1306,MusicAffectPsychophysiology2019,3.0.5,60.229866684544305,
,,30MonoWAV/30MonoT1.wav,2,1,4,13,,,,,0,3,3,12,,,,,,,,,,,,,,,,,014,001,2019_May_09_1306,MusicAffectPsychophysiology2019,3.0.5,60.229866684544305,
To what extent did the music make you feel ,SCARED,30MonoWAV/30MonoS1.wav,1,1,3,9,,,,,0,4,4,8,0,0,0,11,,,1,3.0922880370017083,2,1.9167723989994556,4,2.853253766999842,1,1.666853448998154,,,014,001,2019_May_09_1306,MusicAffectPsychophysiology2019,3.0.5,60.229866684544305,
To what extent did the music make you feel ,TENDER,30MonoWAV/30MonoS1.wav,1,1,3,9,,,,,0,4,4,8,0,1,1,10,,,,,,,,,5,2.0685418150023906,,,014,001,2019_May_09_1306,MusicAffectPsychophysiology2019,3.0.5,60.229866684544305,
To what extent did the music make you feel ,ASHAMED,30MonoWAV/30MonoS1.wav,1,1,3,9,,,,,0,4,4,8,0,2,2,4,,,,,,,,,1,3.6183322709985077,,,014,001,2019_May_09_1306,MusicAffectPsychophysiology2019,3.0.5,60.229866684544305,
To what extent did the music make you feel ,ANXIOUS ,30MonoWAV/30MonoS1.wav,1,1,3,9,,,,,0,4,4,8,0,3,3,1,,,,,,,,,2,1.9362477069989836,,,014,001,2019_May_09_1306,MusicAffectPsychophysiology2019,3.0.5,60.229866684544305,
To what extent did the music make you feel ,GUILTY,30MonoWAV/30MonoS1.wav,1,1,3,9,,,,,0,4,4,8,0,4,4,5,,,,,,,,,1,0.9839262310015329,,,014,001,2019_May_09_1306,MusicAffectPsychophysiology2019,3.0.5,60.229866684544305,
To what extent did the music make you feel ,SAD,30MonoWAV/30MonoS1.wav,1,1,3,9,,,,,0,4,4,8,0,5,5,0,,,,,,,,,5,1.8862599409985705,,,014,001,2019_May_09_1306,MusicAffectPsychophysiology2019,3.0.5,60.229866684544305,
To what extent did the music make you feel ,HAPPY,30MonoWAV/30MonoS1.wav,1,1,3,9,,,,,0,4,4,8,0,6,6,6,,,,,,,,,1,2.251147729999502,,,014,001,2019_May_09_1306,MusicAffectPsychophysiology2019,3.0.5,60.229866684544305,
To what extent did the music make you feel ,ACTIVE,30MonoWAV/30MonoS1.wav,1,1,3,9,,,,,0,4,4,8,0,7,7,9,,,,,,,,,1,2.2180629539980146,,,014,001,2019_May_09_1306,MusicAffectPsychophysiology2019,3.0.5,60.229866684544305,
To what extent did the music make you feel ,FRUSTRATED,30MonoWAV/30MonoS1.wav,1,1,3,9,,,,,0,4,4,8,0,8,8,3,,,,,,,,,1,3.167999093002436,,,014,001,2019_May_09_1306,MusicAffectPsychophysiology2019,3.0.5,60.229866684544305,
To what extent did the music make you feel ,ALERT,30MonoWAV/30MonoS1.wav,1,1,3,9,,,,,0,4,4,8,0,9,9,8,,,,,,,,,4,1.8690840109993587,,,014,001,2019_May_09_1306,MusicAffectPsychophysiology2019,3.0.5,60.229866684544305,
To what extent did the music make you feel ,ANGRY,30MonoWAV/30MonoS1.wav,1,1,3,9,,,,,0,4,4,8,0,10,10,2,,,,,,,,,1,3.4176695900023333,,,014,001,2019_May_09_1306,MusicAffectPsychophysiology2019,3.0.5,60.229866684544305,
To what extent did the music make you feel ,EXCITED,30MonoWAV/30MonoS1.wav,1,1,3,9,,,,,0,4,4,8,0,11,11,7,,,,,,,,,1,1.4183109879995754,,,014,001,2019_May_09_1306,MusicAffectPsychophysiology2019,3.0.5,60.229866684544305,
,,30MonoWAV/30MonoS1.wav,1,1,3,9,,,,,0,4,4,8,,,,,,,,,,,,,,,,,014,001,2019_May_09_1306,MusicAffectPsychophysiology2019,3.0.5,60.229866684544305,
To what extent did the music make you feel ,ASHAMED,30MonoWAV/30MonoS3.wav,1,1,3,11,,,,,0,5,5,10,0,0,0,4,,,1,4.617872187998728,1,3.6680360270001984,3,2.70139235500028,2,4.392531444998895,,,014,001,2019_May_09_1306,MusicAffectPsychophysiology2019,3.0.5,60.229866684544305,
To what extent did the music make you feel ,GUILTY,30MonoWAV/30MonoS3.wav,1,1,3,11,,,,,0,5,5,10,0,1,1,5,,,,,,,,,1,3.8432667189990752,,,014,001,2019_May_09_1306,MusicAffectPsychophysiology2019,3.0.5,60.229866684544305,
To what extent did the music make you feel ,FRUSTRATED,30MonoWAV/30MonoS3.wav,1,1,3,11,,,,,0,5,5,10,0,2,2,3,,,,,,,,,2,1.23413156800234,,,014,001,2019_May_09_1306,MusicAffectPsychophysiology2019,3.0.5,60.229866684544305,
To what extent did the music make you feel ,HAPPY,30MonoWAV/30MonoS3.wav,1,1,3,11,,,,,0,5,5,10,0,3,3,6,,,,,,,,,1,0.8677425210007641,,,014,001,2019_May_09_1306,MusicAffectPsychophysiology2019,3.0.5,60.229866684544305,
To what extent did the music make you feel ,EXCITED,30MonoWAV/30MonoS3.wav,1,1,3,11,,,,,0,5,5,10,0,4,4,7,,,,,,,,,1,2.601629403001425,,,014,001,2019_May_09_1306,MusicAffectPsychophysiology2019,3.0.5,60.229866684544305,
To what extent did the music make you feel ,SAD,30MonoWAV/30MonoS3.wav,1,1,3,11,,,,,0,5,5,10,0,5,5,0,,,,,,,,,4,7.217656372002239,,,014,001,2019_May_09_1306,MusicAffectPsychophysiology2019,3.0.5,60.229866684544305,
To what extent did the music make you feel ,ANXIOUS ,30MonoWAV/30MonoS3.wav,1,1,3,11,,,,,0,5,5,10,0,6,6,1,,,,,,,,,4,4.668290655001329,,,014,001,2019_May_09_1306,MusicAffectPsychophysiology2019,3.0.5,60.229866684544305,
To what extent did the music make you feel ,ALERT,30MonoWAV/30MonoS3.wav,1,1,3,11,,,,,0,5,5,10,0,7,7,8,,,,,,,,,4,1.0188690400027554,,,014,001,2019_May_09_1306,MusicAffectPsychophysiology2019,3.0.5,60.229866684544305,
To what extent did the music make you feel ,SCARED,30MonoWAV/30MonoS3.wav,1,1,3,11,,,,,0,5,5,10,0,8,8,11,,,,,,,,,3,2.267977013998461,,,014,001,2019_May_09_1306,MusicAffectPsychophysiology2019,3.0.5,60.229866684544305,
To what extent did the music make you feel ,ACTIVE,30MonoWAV/30MonoS3.wav,1,1,3,11,,,,,0,5,5,10,0,9,9,9,,,,,,,,,1,2.274606423001387,,,014,001,2019_May_09_1306,MusicAffectPsychophysiology2019,3.0.5,60.229866684544305,
To what extent did the music make you feel ,TENDER,30MonoWAV/30MonoS3.wav,1,1,3,11,,,,,0,5,5,10,0,10,10,10,,,,,,,,,2,1.2878037949994905,,,014,001,2019_May_09_1306,MusicAffectPsychophysiology2019,3.0.5,60.229866684544305,
To what extent did the music make you feel ,ANGRY,30MonoWAV/30MonoS3.wav,1,1,3,11,,,,,0,5,5,10,0,11,11,2,,,,,,,,,1,3.5389227579980798,,,014,001,2019_May_09_1306,MusicAffectPsychophysiology2019,3.0.5,60.229866684544305,
,,30MonoWAV/30MonoS3.wav,1,1,3,11,,,,,0,5,5,10,,,,,,,,,,,,,,,,,014,001,2019_May_09_1306,MusicAffectPsychophysiology2019,3.0.5,60.229866684544305,
To what extent did the music make you feel ,SAD,30MonoWAV/30MonoT2.wav,2,1,4,14,,,,,0,6,6,13,0,0,0,0,,,5,4.451728971002012,4,1.2858975189992634,5,1.151308815999073,2,2.384796260001167,,,014,001,2019_May_09_1306,MusicAffectPsychophysiology2019,3.0.5,60.229866684544305,
To what extent did the music make you feel ,SCARED,30MonoWAV/30MonoT2.wav,2,1,4,14,,,,,0,6,6,13,0,1,1,11,,,,,,,,,1,1.2690007620003598,,,014,001,2019_May_09_1306,MusicAffectPsychophysiology2019,3.0.5,60.229866684544305,
To what extent did the music make you feel ,GUILTY,30MonoWAV/30MonoT2.wav,2,1,4,14,,,,,0,6,6,13,0,2,2,5,,,,,,,,,1,1.4341089230001671,,,014,001,2019_May_09_1306,MusicAffectPsychophysiology2019,3.0.5,60.229866684544305,
To what extent did the music make you feel ,EXCITED,30MonoWAV/30MonoT2.wav,2,1,4,14,,,,,0,6,6,13,0,3,3,7,,,,,,,,,4,1.7027733600007195,,,014,001,2019_May_09_1306,MusicAffectPsychophysiology2019,3.0.5,60.229866684544305,
To what extent did the music make you feel ,FRUSTRATED,30MonoWAV/30MonoT2.wav,2,1,4,14,,,,,0,6,6,13,0,4,4,3,,,,,,,,,1,2.617952132000937,,,014,001,2019_May_09_1306,MusicAffectPsychophysiology2019,3.0.5,60.229866684544305,
To what extent did the music make you feel ,ACTIVE,30MonoWAV/30MonoT2.wav,2,1,4,14,,,,,0,6,6,13,0,5,5,9,,,,,,,,,4,2.084610016001534,,,014,001,2019_May_09_1306,MusicAffectPsychophysiology2019,3.0.5,60.229866684544305,
To what extent did the music make you feel ,ALERT,30MonoWAV/30MonoT2.wav,2,1,4,14,,,,,0,6,6,13,0,6,6,8,,,,,,,,,4,1.03540026599876,,,014,001,2019_May_09_1306,MusicAffectPsychophysiology2019,3.0.5,60.229866684544305,
To what extent did the music make you feel ,HAPPY,30MonoWAV/30MonoT2.wav,2,1,4,14,,,,,0,6,6,13,0,7,7,6,,,,,,,,,4,0.9849814629997127,,,014,001,2019_May_09_1306,MusicAffectPsychophysiology2019,3.0.5,60.229866684544305,
To what extent did the music make you feel ,TENDER,30MonoWAV/30MonoT2.wav,2,1,4,14,,,,,0,6,6,13,0,8,8,10,,,,,,,,,4,2.3350221470027464,,,014,001,2019_May_09_1306,MusicAffectPsychophysiology2019,3.0.5,60.229866684544305,
To what extent did the music make you feel ,ANXIOUS ,30MonoWAV/30MonoT2.wav,2,1,4,14,,,,,0,6,6,13,0,9,9,1,,,,,,,,,1,2.5349799430005078,,,014,001,2019_May_09_1306,MusicAffectPsychophysiology2019,3.0.5,60.229866684544305,
To what extent did the music make you feel ,ASHAMED,30MonoWAV/30MonoT2.wav,2,1,4,14,,,,,0,6,6,13,0,10,10,4,,,,,,,,,1,1.9329688969992276,,,014,001,2019_May_09_1306,MusicAffectPsychophysiology2019,3.0.5,60.229866684544305,
To what extent did the music make you feel ,ANGRY,30MonoWAV/30MonoT2.wav,2,1,4,14,,,,,0,6,6,13,0,11,11,2,,,,,,,,,1,2.435413100000005,,,014,001,2019_May_09_1306,MusicAffectPsychophysiology2019,3.0.5,60.229866684544305,
,,30MonoWAV/30MonoT2.wav,2,1,4,14,,,,,0,6,6,13,,,,,,,,,,,,,,,,,014,001,2019_May_09_1306,MusicAffectPsychophysiology2019,3.0.5,60.229866684544305,
To what extent did the music make you feel ,ACTIVE,30MonoWAV/30MonoF2.wav,1,2,2,2,,,,,0,7,7,1,0,0,0,9,,,5,4.000990617998468,1,1.9352790829980222,1,2.1516491449983732,5,2.1677538719995937,,,014,001,2019_May_09_1306,MusicAffectPsychophysiology2019,3.0.5,60.229866684544305,
To what extent did the music make you feel ,EXCITED,30MonoWAV/30MonoF2.wav,1,2,2,2,,,,,0,7,7,1,0,1,1,7,,,,,,,,,1,1.6358588130024145,,,014,001,2019_May_09_1306,MusicAffectPsychophysiology2019,3.0.5,60.229866684544305,
To what extent did the music make you feel ,GUILTY,30MonoWAV/30MonoF2.wav,1,2,2,2,,,,,0,7,7,1,0,2,2,5,,,,,,,,,1,1.2831322729980457,,,014,001,2019_May_09_1306,MusicAffectPsychophysiology2019,3.0.5,60.229866684544305,
To what extent did the music make you feel ,ALERT,30MonoWAV/30MonoF2.wav,1,2,2,2,,,,,0,7,7,1,0,3,3,8,,,,,,,,,5,1.9859895230001712,,,014,001,2019_May_09_1306,MusicAffectPsychophysiology2019,3.0.5,60.229866684544305,
To what extent did the music make you feel ,SAD,30MonoWAV/30MonoF2.wav,1,2,2,2,,,,,0,7,7,1,0,4,4,0,,,,,,,,,1,2.0683842830003414,,,014,001,2019_May_09_1306,MusicAffectPsychophysiology2019,3.0.5,60.229866684544305,
To what extent did the music make you feel ,FRUSTRATED,30MonoWAV/30MonoF2.wav,1,2,2,2,,,,,0,7,7,1,0,5,5,3,,,,,,,,,1,1.450532454000495,,,014,001,2019_May_09_1306,MusicAffectPsychophysiology2019,3.0.5,60.229866684544305,
To what extent did the music make you feel ,HAPPY,30MonoWAV/30MonoF2.wav,1,2,2,2,,,,,0,7,7,1,0,6,6,6,,,,,,,,,1,1.1189033570008178,,,014,001,2019_May_09_1306,MusicAffectPsychophysiology2019,3.0.5,60.229866684544305,
To what extent did the music make you feel ,ASHAMED,30MonoWAV/30MonoF2.wav,1,2,2,2,,,,,0,7,7,1,0,7,7,4,,,,,,,,,1,1.2516807170031825,,,014,001,2019_May_09_1306,MusicAffectPsychophysiology2019,3.0.5,60.229866684544305,
To what extent did the music make you feel ,ANGRY,30MonoWAV/30MonoF2.wav,1,2,2,2,,,,,0,7,7,1,0,8,8,2,,,,,,,,,3,2.4353316579981765,,,014,001,2019_May_09_1306,MusicAffectPsychophysiology2019,3.0.5,60.229866684544305,
To what extent did the music make you feel ,SCARED,30MonoWAV/30MonoF2.wav,1,2,2,2,,,,,0,7,7,1,0,9,9,11,,,,,,,,,5,1.3515239830012433,,,014,001,2019_May_09_1306,MusicAffectPsychophysiology2019,3.0.5,60.229866684544305,
To what extent did the music make you feel ,TENDER,30MonoWAV/30MonoF2.wav,1,2,2,2,,,,,0,7,7,1,0,10,10,10,,,,,,,,,2,2.318209414002922,,,014,001,2019_May_09_1306,MusicAffectPsychophysiology2019,3.0.5,60.229866684544305,
To what extent did the music make you feel ,ANXIOUS ,30MonoWAV/30MonoF2.wav,1,2,2,2,,,,,0,7,7,1,0,11,11,1,,,,,,,,,5,1.4183206410016282,,,014,001,2019_May_09_1306,MusicAffectPsychophysiology2019,3.0.5,60.229866684544305,
,,30MonoWAV/30MonoF2.wav,1,2,2,2,,,,,0,7,7,1,,,,,,,,,,,,,,,,,014,001,2019_May_09_1306,MusicAffectPsychophysiology2019,3.0.5,60.229866684544305,
To what extent did the music make you feel ,FRUSTRATED,30MonoWAV/30MonoF1.wav,1,2,2,1,,,,,0,8,8,0,0,0,0,3,,,5,4.1692947869996715,1,1.6017874750032206,1,1.9680083310013288,1,1.9684133210030268,,,014,001,2019_May_09_1306,MusicAffectPsychophysiology2019,3.0.5,60.229866684544305,
To what extent did the music make you feel ,ANXIOUS ,30MonoWAV/30MonoF1.wav,1,2,2,1,,,,,0,8,8,0,0,1,1,1,,,,,,,,,5,5.750735741999961,,,014,001,2019_May_09_1306,MusicAffectPsychophysiology2019,3.0.5,60.229866684544305,
To what extent did the music make you feel ,ACTIVE,30MonoWAV/30MonoF1.wav,1,2,2,1,,,,,0,8,8,0,0,2,2,9,,,,,,,,,5,2.96873678799966,,,014,001,2019_May_09_1306,MusicAffectPsychophysiology2019,3.0.5,60.229866684544305,
To what extent did the music make you feel ,TENDER,30MonoWAV/30MonoF1.wav,1,2,2,1,,,,,0,8,8,0,0,3,3,10,,,,,,,,,4,2.1852345169972978,,,014,001,2019_May_09_1306,MusicAffectPsychophysiology2019,3.0.5,60.229866684544305,
To what extent did the music make you feel ,GUILTY,30MonoWAV/30MonoF1.wav,1,2,2,1,,,,,0,8,8,0,0,4,4,5,,,,,,,,,1,1.2519293280020065,,,014,001,2019_May_09_1306,MusicAffectPsychophysiology2019,3.0.5,60.229866684544305,
To what extent did the music make you feel ,SCARED,30MonoWAV/30MonoF1.wav,1,2,2,1,,,,,0,8,8,0,0,5,5,11,,,,,,,,,5,1.3032613830000628,,,014,001,2019_May_09_1306,MusicAffectPsychophysiology2019,3.0.5,60.229866684544305,
To what extent did the music make you feel ,ANGRY,30MonoWAV/30MonoF1.wav,1,2,2,1,,,,,0,8,8,0,0,6,6,2,,,,,,,,,4,8.015586437999445,,,014,001,2019_May_09_1306,MusicAffectPsychophysiology2019,3.0.5,60.229866684544305,
To what extent did the music make you feel ,EXCITED,30MonoWAV/30MonoF1.wav,1,2,2,1,,,,,0,8,8,0,0,7,7,7,,,,,,,,,3,2.502018210998358,,,014,001,2019_May_09_1306,MusicAffectPsychophysiology2019,3.0.5,60.229866684544305,
To what extent did the music make you feel ,ALERT,30MonoWAV/30MonoF1.wav,1,2,2,1,,,,,0,8,8,0,0,8,8,8,,,,,,,,,5,1.3690078369982075,,,014,001,2019_May_09_1306,MusicAffectPsychophysiology2019,3.0.5,60.229866684544305,
To what extent did the music make you feel ,SAD,30MonoWAV/30MonoF1.wav,1,2,2,1,,,,,0,8,8,0,0,9,9,0,,,,,,,,,1,1.1853475950010761,,,014,001,2019_May_09_1306,MusicAffectPsychophysiology2019,3.0.5,60.229866684544305,
To what extent did the music make you feel ,ASHAMED,30MonoWAV/30MonoF1.wav,1,2,2,1,,,,,0,8,8,0,0,10,10,4,,,,,,,,,1,1.1518735380013823,,,014,001,2019_May_09_1306,MusicAffectPsychophysiology2019,3.0.5,60.229866684544305,
To what extent did the music make you feel ,HAPPY,30MonoWAV/30MonoF1.wav,1,2,2,1,,,,,0,8,8,0,0,11,11,6,,,,,,,,,1,1.2850419149981462,,,014,001,2019_May_09_1306,MusicAffectPsychophysiology2019,3.0.5,60.229866684544305,
,,30MonoWAV/30MonoF1.wav,1,2,2,1,,,,,0,8,8,0,,,,,,,,,,,,,,,,,014,001,2019_May_09_1306,MusicAffectPsychophysiology2019,3.0.5,60.229866684544305,
To what extent did the music make you feel ,HAPPY,30MonoWAV/30MonoH2.wav,2,2,1,6,,,,,0,9,9,5,0,0,0,6,,,3,3.7678926049993606,3,1.7676395799971942,3,2.034882038999058,3,1.918908151998039,,,014,001,2019_May_09_1306,MusicAffectPsychophysiology2019,3.0.5,60.229866684544305,
To what extent did the music make you feel ,GUILTY,30MonoWAV/30MonoH2.wav,2,2,1,6,,,,,0,9,9,5,0,1,1,5,,,,,,,,,1,1.2515512680001848,,,014,001,2019_May_09_1306,MusicAffectPsychophysiology2019,3.0.5,60.229866684544305,
To what extent did the music make you feel ,ANGRY,30MonoWAV/30MonoH2.wav,2,2,1,6,,,,,0,9,9,5,0,2,2,2,,,,,,,,,1,1.2516316740002367,,,014,001,2019_May_09_1306,MusicAffectPsychophysiology2019,3.0.5,60.229866684544305,
To what extent did the music make you feel ,FRUSTRATED,30MonoWAV/30MonoH2.wav,2,2,1,6,,,,,0,9,9,5,0,3,3,3,,,,,,,,,1,1.0857483060026425,,,014,001,2019_May_09_1306,MusicAffectPsychophysiology2019,3.0.5,60.229866684544305,
To what extent did the music make you feel ,SAD,30MonoWAV/30MonoH2.wav,2,2,1,6,,,,,0,9,9,5,0,4,4,0,,,,,,,,,2,2.568265560999862,,,014,001,2019_May_09_1306,MusicAffectPsychophysiology2019,3.0.5,60.229866684544305,
To what extent did the music make you feel ,SCARED,30MonoWAV/30MonoH2.wav,2,2,1,6,,,,,0,9,9,5,0,5,5,11,,,,,,,,,1,2.2179347640012566,,,014,001,2019_May_09_1306,MusicAffectPsychophysiology2019,3.0.5,60.229866684544305,
To what extent did the music make you feel ,ASHAMED,30MonoWAV/30MonoH2.wav,2,2,1,6,,,,,0,9,9,5,0,6,6,4,,,,,,,,,1,2.5489762270008214,,,014,001,2019_May_09_1306,MusicAffectPsychophysiology2019,3.0.5,60.229866684544305,
To what extent did the music make you feel ,TENDER,30MonoWAV/30MonoH2.wav,2,2,1,6,,,,,0,9,9,5,0,7,7,10,,,,,,,,,4,3.60235241600094,,,014,001,2019_May_09_1306,MusicAffectPsychophysiology2019,3.0.5,60.229866684544305,
To what extent did the music make you feel ,ALERT,30MonoWAV/30MonoH2.wav,2,2,1,6,,,,,0,9,9,5,0,8,8,8,,,,,,,,,1,2.1512913090009533,,,014,001,2019_May_09_1306,MusicAffectPsychophysiology2019,3.0.5,60.229866684544305,
To what extent did the music make you feel ,EXCITED,30MonoWAV/30MonoH2.wav,2,2,1,6,,,,,0,9,9,5,0,9,9,7,,,,,,,,,2,1.6340123430018139,,,014,001,2019_May_09_1306,MusicAffectPsychophysiology2019,3.0.5,60.229866684544305,
To what extent did the music make you feel ,ANXIOUS ,30MonoWAV/30MonoH2.wav,2,2,1,6,,,,,0,9,9,5,0,10,10,1,,,,,,,,,2,3.0177854629982903,,,014,001,2019_May_09_1306,MusicAffectPsychophysiology2019,3.0.5,60.229866684544305,
To what extent did the music make you feel ,ACTIVE,30MonoWAV/30MonoH2.wav,2,2,1,6,,,,,0,9,9,5,0,11,11,9,,,,,,,,,1,2.333972192998772,,,014,001,2019_May_09_1306,MusicAffectPsychophysiology2019,3.0.5,60.229866684544305,
,,30MonoWAV/30MonoH2.wav,2,2,1,6,,,,,0,9,9,5,,,,,,,,,,,,,,,,,014,001,2019_May_09_1306,MusicAffectPsychophysiology2019,3.0.5,60.229866684544305,
To what extent did the music make you feel ,SCARED,30MonoWAV/30MonoH3.wav,2,2,1,7,,,,,0,10,10,6,0,0,0,11,,,4,3.2669550419996085,4,1.9693577529978938,4,2.851642407000327,1,1.2353799100019387,,,014,001,2019_May_09_1306,MusicAffectPsychophysiology2019,3.0.5,60.229866684544305,
To what extent did the music make you feel ,ASHAMED,30MonoWAV/30MonoH3.wav,2,2,1,7,,,,,0,10,10,6,0,1,1,4,,,,,,,,,1,1.3840640539965534,,,014,001,2019_May_09_1306,MusicAffectPsychophysiology2019,3.0.5,60.229866684544305,
To what extent did the music make you feel ,HAPPY,30MonoWAV/30MonoH3.wav,2,2,1,7,,,,,0,10,10,6,0,2,2,6,,,,,,,,,5,2.701519450998603,,,014,001,2019_May_09_1306,MusicAffectPsychophysiology2019,3.0.5,60.229866684544305,
To what extent did the music make you feel ,EXCITED,30MonoWAV/30MonoH3.wav,2,2,1,7,,,,,0,10,10,6,0,3,3,7,,,,,,,,,5,1.433392601000378,,,014,001,2019_May_09_1306,MusicAffectPsychophysiology2019,3.0.5,60.229866684544305,
To what extent did the music make you feel ,ACTIVE,30MonoWAV/30MonoH3.wav,2,2,1,7,,,,,0,10,10,6,0,4,4,9,,,,,,,,,5,0.8002717800009123,,,014,001,2019_May_09_1306,MusicAffectPsychophysiology2019,3.0.5,60.229866684544305,
To what extent did the music make you feel ,ALERT,30MonoWAV/30MonoH3.wav,2,2,1,7,,,,,0,10,10,6,0,5,5,8,,,,,,,,,4,4.068905645002815,,,014,001,2019_May_09_1306,MusicAffectPsychophysiology2019,3.0.5,60.229866684544305,
To what extent did the music make you feel ,SAD,30MonoWAV/30MonoH3.wav,2,2,1,7,,,,,0,10,10,6,0,6,6,0,,,,,,,,,1,1.6191946209983143,,,014,001,2019_May_09_1306,MusicAffectPsychophysiology2019,3.0.5,60.229866684544305,
To what extent did the music make you feel ,TENDER,30MonoWAV/30MonoH3.wav,2,2,1,7,,,,,0,10,10,6,0,7,7,10,,,,,,,,,1,2.3001223589999427,,,014,001,2019_May_09_1306,MusicAffectPsychophysiology2019,3.0.5,60.229866684544305,
To what extent did the music make you feel ,FRUSTRATED,30MonoWAV/30MonoH3.wav,2,2,1,7,,,,,0,10,10,6,0,8,8,3,,,,,,,,,1,0.7682413479997194,,,014,001,2019_May_09_1306,MusicAffectPsychophysiology2019,3.0.5,60.229866684544305,
To what extent did the music make you feel ,GUILTY,30MonoWAV/30MonoH3.wav,2,2,1,7,,,,,0,10,10,6,0,9,9,5,,,,,,,,,1,1.2859049859980587,,,014,001,2019_May_09_1306,MusicAffectPsychophysiology2019,3.0.5,60.229866684544305,
To what extent did the music make you feel ,ANGRY,30MonoWAV/30MonoH3.wav,2,2,1,7,,,,,0,10,10,6,0,10,10,2,,,,,,,,,1,1.2836228019987175,,,014,001,2019_May_09_1306,MusicAffectPsychophysiology2019,3.0.5,60.229866684544305,
To what extent did the music make you feel ,ANXIOUS ,30MonoWAV/30MonoH3.wav,2,2,1,7,,,,,0,10,10,6,0,11,11,1,,,,,,,,,1,1.7014207790016371,,,014,001,2019_May_09_1306,MusicAffectPsychophysiology2019,3.0.5,60.229866684544305,
,,30MonoWAV/30MonoH3.wav,2,2,1,7,,,,,0,10,10,6,,,,,,,,,,,,,,,,,014,001,2019_May_09_1306,MusicAffectPsychophysiology2019,3.0.5,60.229866684544305,
To what extent did the music make you feel ,ANXIOUS ,30MonoWAV/30MonoF3.wav,1,2,2,3,,,,,0,11,11,2,0,0,0,1,,,4,5.274739368000155,1,4.406770796998899,1,1.702724296002998,5,1.7664118230022723,,,014,001,2019_May_09_1306,MusicAffectPsychophysiology2019,3.0.5,60.229866684544305,
To what extent did the music make you feel ,ACTIVE,30MonoWAV/30MonoF3.wav,1,2,2,3,,,,,0,11,11,2,0,1,1,9,,,,,,,,,4,1.8402653869998176,,,014,001,2019_May_09_1306,MusicAffectPsychophysiology2019,3.0.5,60.229866684544305,
To what extent did the music make you feel ,TENDER,30MonoWAV/30MonoF3.wav,1,2,2,3,,,,,0,11,11,2,0,2,2,10,,,,,,,,,1,1.1864631940006802,,,014,001,2019_May_09_1306,MusicAffectPsychophysiology2019,3.0.5,60.229866684544305,
To what extent did the music make you feel ,EXCITED,30MonoWAV/30MonoF3.wav,1,2,2,3,,,,,0,11,11,2,0,3,3,7,,,,,,,,,1,1.219070474999171,,,014,001,2019_May_09_1306,MusicAffectPsychophysiology2019,3.0.5,60.229866684544305,
To what extent did the music make you feel ,GUILTY,30MonoWAV/30MonoF3.wav,1,2,2,3,,,,,0,11,11,2,0,4,4,5,,,,,,,,,1,1.1190481880003063,,,014,001,2019_May_09_1306,MusicAffectPsychophysiology2019,3.0.5,60.229866684544305,
To what extent did the music make you feel ,FRUSTRATED,30MonoWAV/30MonoF3.wav,1,2,2,3,,,,,0,11,11,2,0,5,5,3,,,,,,,,,3,1.9370978139995714,,,014,001,2019_May_09_1306,MusicAffectPsychophysiology2019,3.0.5,60.229866684544305,
To what extent did the music make you feel ,ASHAMED,30MonoWAV/30MonoF3.wav,1,2,2,3,,,,,0,11,11,2,0,6,6,4,,,,,,,,,1,1.2736144900009094,,,014,001,2019_May_09_1306,MusicAffectPsychophysiology2019,3.0.5,60.229866684544305,
To what extent did the music make you feel ,ANGRY,30MonoWAV/30MonoF3.wav,1,2,2,3,,,,,0,11,11,2,0,7,7,2,,,,,,,,,3,1.4016704870009562,,,014,001,2019_May_09_1306,MusicAffectPsychophysiology2019,3.0.5,60.229866684544305,
To what extent did the music make you feel ,SCARED,30MonoWAV/30MonoF3.wav,1,2,2,3,,,,,0,11,11,2,0,8,8,11,,,,,,,,,5,1.3196990819997154,,,014,001,2019_May_09_1306,MusicAffectPsychophysiology2019,3.0.5,60.229866684544305,
To what extent did the music make you feel ,HAPPY,30MonoWAV/30MonoF3.wav,1,2,2,3,,,,,0,11,11,2,0,9,9,6,,,,,,,,,1,2.1351752800001123,,,014,001,2019_May_09_1306,MusicAffectPsychophysiology2019,3.0.5,60.229866684544305,
To what extent did the music make you feel ,SAD,30MonoWAV/30MonoF3.wav,1,2,2,3,,,,,0,11,11,2,0,10,10,0,,,,,,,,,1,1.1186601740009792,,,014,001,2019_May_09_1306,MusicAffectPsychophysiology2019,3.0.5,60.229866684544305,
To what extent did the music make you feel ,ALERT,30MonoWAV/30MonoF3.wav,1,2,2,3,,,,,0,11,11,2,0,11,11,8,,,,,,,,,5,1.4189463680013432,,,014,001,2019_May_09_1306,MusicAffectPsychophysiology2019,3.0.5,60.229866684544305,
,,30MonoWAV/30MonoF3.wav,1,2,2,3,,,,,0,11,11,2,,,,,,,,,,,,,,,,,014,001,2019_May_09_1306,MusicAffectPsychophysiology2019,3.0.5,60.229866684544305,
To what extent did the music make you feel ,EXCITED,30MonoWAV/30MonoT3.wav,2,1,4,15,,,,,0,12,12,14,0,0,0,7,,,2,3.3515097749987035,2,2.234794702999352,2,1.5522869429987622,1,2.0181941139999253,,,014,001,2019_May_09_1306,MusicAffectPsychophysiology2019,3.0.5,60.229866684544305,
To what extent did the music make you feel ,ANGRY,30MonoWAV/30MonoT3.wav,2,1,4,15,,,,,0,12,12,14,0,1,1,2,,,,,,,,,1,1.0514485849998891,,,014,001,2019_May_09_1306,MusicAffectPsychophysiology2019,3.0.5,60.229866684544305,
To what extent did the music make you feel ,ASHAMED,30MonoWAV/30MonoT3.wav,2,1,4,15,,,,,0,12,12,14,0,2,2,4,,,,,,,,,1,0.7347059349995106,,,014,001,2019_May_09_1306,MusicAffectPsychophysiology2019,3.0.5,60.229866684544305,
To what extent did the music make you feel ,ALERT,30MonoWAV/30MonoT3.wav,2,1,4,15,,,,,0,12,12,14,0,3,3,8,,,,,,,,,3,2.3187740329994995,,,014,001,2019_May_09_1306,MusicAffectPsychophysiology2019,3.0.5,60.229866684544305,
To what extent did the music make you feel ,ACTIVE,30MonoWAV/30MonoT3.wav,2,1,4,15,,,,,0,12,12,14,0,4,4,9,,,,,,,,,3,0.968024282999977,,,014,001,2019_May_09_1306,MusicAffectPsychophysiology2019,3.0.5,60.229866684544305,
To what extent did the music make you feel ,ANXIOUS ,30MonoWAV/30MonoT3.wav,2,1,4,15,,,,,0,12,12,14,0,5,5,1,,,,,,,,,1,1.1519446540005447,,,014,001,2019_May_09_1306,MusicAffectPsychophysiology2019,3.0.5,60.229866684544305,
To what extent did the music make you feel ,HAPPY,30MonoWAV/30MonoT3.wav,2,1,4,15,,,,,0,12,12,14,0,6,6,6,,,,,,,,,3,3.6346099580005102,,,014,001,2019_May_09_1306,MusicAffectPsychophysiology2019,3.0.5,60.229866684544305,
To what extent did the music make you feel ,TENDER,30MonoWAV/30MonoT3.wav,2,1,4,15,,,,,0,12,12,14,0,7,7,10,,,,,,,,,2,1.3535234219998529,,,014,001,2019_May_09_1306,MusicAffectPsychophysiology2019,3.0.5,60.229866684544305,
To what extent did the music make you feel ,GUILTY,30MonoWAV/30MonoT3.wav,2,1,4,15,,,,,0,12,12,14,0,8,8,5,,,,,,,,,1,0.9005081709983642,,,014,001,2019_May_09_1306,MusicAffectPsychophysiology2019,3.0.5,60.229866684544305,
To what extent did the music make you feel ,SAD,30MonoWAV/30MonoT3.wav,2,1,4,15,,,,,0,12,12,14,0,9,9,0,,,,,,,,,1,1.284987816998182,,,014,001,2019_May_09_1306,MusicAffectPsychophysiology2019,3.0.5,60.229866684544305,
To what extent did the music make you feel ,FRUSTRATED,30MonoWAV/30MonoT3.wav,2,1,4,15,,,,,0,12,12,14,0,10,10,3,,,,,,,,,1,1.2024823840001773,,,014,001,2019_May_09_1306,MusicAffectPsychophysiology2019,3.0.5,60.229866684544305,
To what extent did the music make you feel ,SCARED,30MonoWAV/30MonoT3.wav,2,1,4,15,,,,,0,12,12,14,0,11,11,11,,,,,,,,,1,0.9687594240022008,,,014,001,2019_May_09_1306,MusicAffectPsychophysiology2019,3.0.5,60.229866684544305,
,,30MonoWAV/30MonoT3.wav,2,1,4,15,,,,,0,12,12,14,,,,,,,,,,,,,,,,,014,001,2019_May_09_1306,MusicAffectPsychophysiology2019,3.0.5,60.229866684544305,
To what extent did the music make you feel ,ACTIVE,30MonoWAV/30MonoS4.wav,1,1,3,12,,,,,0,13,13,11,0,0,0,9,,,1,2.6348745270006475,3,2.618427410001459,3,1.3007432730009896,1,1.351832383999863,,,014,001,2019_May_09_1306,MusicAffectPsychophysiology2019,3.0.5,60.229866684544305,
To what extent did the music make you feel ,ANGRY,30MonoWAV/30MonoS4.wav,1,1,3,12,,,,,0,13,13,11,0,1,1,2,,,,,,,,,1,1.1841975590032234,,,014,001,2019_May_09_1306,MusicAffectPsychophysiology2019,3.0.5,60.229866684544305,
To what extent did the music make you feel ,FRUSTRATED,30MonoWAV/30MonoS4.wav,1,1,3,12,,,,,0,13,13,11,0,2,2,3,,,,,,,,,1,0.9680571770004462,,,014,001,2019_May_09_1306,MusicAffectPsychophysiology2019,3.0.5,60.229866684544305,
To what extent did the music make you feel ,ALERT,30MonoWAV/30MonoS4.wav,1,1,3,12,,,,,0,13,13,11,0,3,3,8,,,,,,,,,1,1.150942437001504,,,014,001,2019_May_09_1306,MusicAffectPsychophysiology2019,3.0.5,60.229866684544305,
To what extent did the music make you feel ,TENDER,30MonoWAV/30MonoS4.wav,1,1,3,12,,,,,0,13,13,11,0,4,4,10,,,,,,,,,4,1.7850882900020224,,,014,001,2019_May_09_1306,MusicAffectPsychophysiology2019,3.0.5,60.229866684544305,
To what extent did the music make you feel ,HAPPY,30MonoWAV/30MonoS4.wav,1,1,3,12,,,,,0,13,13,11,0,5,5,6,,,,,,,,,2,1.6181218329984404,,,014,001,2019_May_09_1306,MusicAffectPsychophysiology2019,3.0.5,60.229866684544305,
To what extent did the music make you feel ,ASHAMED,30MonoWAV/30MonoS4.wav,1,1,3,12,,,,,0,13,13,11,0,6,6,4,,,,,,,,,1,1.0168808060006995,,,014,001,2019_May_09_1306,MusicAffectPsychophysiology2019,3.0.5,60.229866684544305,
To what extent did the music make you feel ,EXCITED,30MonoWAV/30MonoS4.wav,1,1,3,12,,,,,0,13,13,11,0,7,7,7,,,,,,,,,1,1.668412768998678,,,014,001,2019_May_09_1306,MusicAffectPsychophysiology2019,3.0.5,60.229866684544305,
To what extent did the music make you feel ,SCARED,30MonoWAV/30MonoS4.wav,1,1,3,12,,,,,0,13,13,11,0,8,8,11,,,,,,,,,1,1.0684677550016204,,,014,001,2019_May_09_1306,MusicAffectPsychophysiology2019,3.0.5,60.229866684544305,
To what extent did the music make you feel ,GUILTY,30MonoWAV/30MonoS4.wav,1,1,3,12,,,,,0,13,13,11,0,9,9,5,,,,,,,,,1,2.151768063999043,,,014,001,2019_May_09_1306,MusicAffectPsychophysiology2019,3.0.5,60.229866684544305,
To what extent did the music make you feel ,SAD,30MonoWAV/30MonoS4.wav,1,1,3,12,,,,,0,13,13,11,0,10,10,0,,,,,,,,,4,2.3687572839990025,,,014,001,2019_May_09_1306,MusicAffectPsychophysiology2019,3.0.5,60.229866684544305,
To what extent did the music make you feel ,ANXIOUS ,30MonoWAV/30MonoS4.wav,1,1,3,12,,,,,0,13,13,11,0,11,11,1,,,,,,,,,1,1.8514149180009554,,,014,001,2019_May_09_1306,MusicAffectPsychophysiology2019,3.0.5,60.229866684544305,
,,30MonoWAV/30MonoS4.wav,1,1,3,12,,,,,0,13,13,11,,,,,,,,,,,,,,,,,014,001,2019_May_09_1306,MusicAffectPsychophysiology2019,3.0.5,60.229866684544305,
To what extent did the music make you feel ,HAPPY,30MonoWAV/30MonoF4.wav,1,2,2,4,,,,,0,14,14,3,0,0,0,6,,,4,3.2682598939973104,2,1.9173775400013255,1,1.8520180929990602,1,1.085172300998238,,,014,001,2019_May_09_1306,MusicAffectPsychophysiology2019,3.0.5,60.229866684544305,
To what extent did the music make you feel ,EXCITED,30MonoWAV/30MonoF4.wav,1,2,2,4,,,,,0,14,14,3,0,1,1,7,,,,,,,,,2,1.30210376100149,,,014,001,2019_May_09_1306,MusicAffectPsychophysiology2019,3.0.5,60.229866684544305,
To what extent did the music make you feel ,SCARED,30MonoWAV/30MonoF4.wav,1,2,2,4,,,,,0,14,14,3,0,2,2,11,,,,,,,,,4,1.5005526690001716,,,014,001,2019_May_09_1306,MusicAffectPsychophysiology2019,3.0.5,60.229866684544305,
To what extent did the music make you feel ,GUILTY,30MonoWAV/30MonoF4.wav,1,2,2,4,,,,,0,14,14,3,0,3,3,5,,,,,,,,,1,2.2686762679986714,,,014,001,2019_May_09_1306,MusicAffectPsychophysiology2019,3.0.5,60.229866684544305,
To what extent did the music make you feel ,TENDER,30MonoWAV/30MonoF4.wav,1,2,2,4,,,,,0,14,14,3,0,4,4,10,,,,,,,,,1,0.9853301500006637,,,014,001,2019_May_09_1306,MusicAffectPsychophysiology2019,3.0.5,60.229866684544305,
To what extent did the music make you feel ,ACTIVE,30MonoWAV/30MonoF4.wav,1,2,2,4,,,,,0,14,14,3,0,5,5,9,,,,,,,,,5,1.9342061310017016,,,014,001,2019_May_09_1306,MusicAffectPsychophysiology2019,3.0.5,60.229866684544305,
To what extent did the music make you feel ,FRUSTRATED,30MonoWAV/30MonoF4.wav,1,2,2,4,,,,,0,14,14,3,0,6,6,3,,,,,,,,,1,1.4862785809964407,,,014,001,2019_May_09_1306,MusicAffectPsychophysiology2019,3.0.5,60.229866684544305,
To what extent did the music make you feel ,ASHAMED,30MonoWAV/30MonoF4.wav,1,2,2,4,,,,,0,14,14,3,0,7,7,4,,,,,,,,,1,0.9349654140023631,,,014,001,2019_May_09_1306,MusicAffectPsychophysiology2019,3.0.5,60.229866684544305,
To what extent did the music make you feel ,ALERT,30MonoWAV/30MonoF4.wav,1,2,2,4,,,,,0,14,14,3,0,8,8,8,,,,,,,,,5,1.9343169099993247,,,014,001,2019_May_09_1306,MusicAffectPsychophysiology2019,3.0.5,60.229866684544305,
To what extent did the music make you feel ,ANXIOUS ,30MonoWAV/30MonoF4.wav,1,2,2,4,,,,,0,14,14,3,0,9,9,1,,,,,,,,,5,1.3179553289992327,,,014,001,2019_May_09_1306,MusicAffectPsychophysiology2019,3.0.5,60.229866684544305,
To what extent did the music make you feel ,SAD,30MonoWAV/30MonoF4.wav,1,2,2,4,,,,,0,14,14,3,0,10,10,0,,,,,,,,,1,1.6335279920022003,,,014,001,2019_May_09_1306,MusicAffectPsychophysiology2019,3.0.5,60.229866684544305,
To what extent did the music make you feel ,ANGRY,30MonoWAV/30MonoF4.wav,1,2,2,4,,,,,0,14,14,3,0,11,11,2,,,,,,,,,1,1.01616007100165,,,014,001,2019_May_09_1306,MusicAffectPsychophysiology2019,3.0.5,60.229866684544305,
,,30MonoWAV/30MonoF4.wav,1,2,2,4,,,,,0,14,14,3,,,,,,,,,,,,,,,,,014,001,2019_May_09_1306,MusicAffectPsychophysiology2019,3.0.5,60.229866684544305,
To what extent did the music make you feel ,ANXIOUS ,30MonoWAV/30MonoH1.wav,2,2,1,5,,,,,0,15,15,4,0,0,0,1,,,5,2.41907030999937,5,2.46879936500045,5,2.3020975409999664,1,1.7692340640023758,,,014,001,2019_May_09_1306,MusicAffectPsychophysiology2019,3.0.5,60.229866684544305,
To what extent did the music make you feel ,FRUSTRATED,30MonoWAV/30MonoH1.wav,2,2,1,5,,,,,0,15,15,4,0,1,1,3,,,,,,,,,1,2.785251027002232,,,014,001,2019_May_09_1306,MusicAffectPsychophysiology2019,3.0.5,60.229866684544305,
To what extent did the music make you feel ,SCARED,30MonoWAV/30MonoH1.wav,2,2,1,5,,,,,0,15,15,4,0,2,2,11,,,,,,,,,1,1.1854505299997982,,,014,001,2019_May_09_1306,MusicAffectPsychophysiology2019,3.0.5,60.229866684544305,
To what extent did the music make you feel ,ASHAMED,30MonoWAV/30MonoH1.wav,2,2,1,5,,,,,0,15,15,4,0,3,3,4,,,,,,,,,1,1.0193368989966984,,,014,001,2019_May_09_1306,MusicAffectPsychophysiology2019,3.0.5,60.229866684544305,
To what extent did the music make you feel ,GUILTY,30MonoWAV/30MonoH1.wav,2,2,1,5,,,,,0,15,15,4,0,4,4,5,,,,,,,,,1,0.6020801239974389,,,014,001,2019_May_09_1306,MusicAffectPsychophysiology2019,3.0.5,60.229866684544305,
To what extent did the music make you feel ,ALERT,30MonoWAV/30MonoH1.wav,2,2,1,5,,,,,0,15,15,4,0,5,5,8,,,,,,,,,5,1.4855649800010724,,,014,001,2019_May_09_1306,MusicAffectPsychophysiology2019,3.0.5,60.229866684544305,
To what extent did the music make you feel ,TENDER,30MonoWAV/30MonoH1.wav,2,2,1,5,,,,,0,15,15,4,0,6,6,10,,,,,,,,,3,1.369473108999955,,,014,001,2019_May_09_1306,MusicAffectPsychophysiology2019,3.0.5,60.229866684544305,
To what extent did the music make you feel ,SAD,30MonoWAV/30MonoH1.wav,2,2,1,5,,,,,0,15,15,4,0,7,7,0,,,,,,,,,1,1.1678008460003184,,,014,001,2019_May_09_1306,MusicAffectPsychophysiology2019,3.0.5,60.229866684544305,
To what extent did the music make you feel ,EXCITED,30MonoWAV/30MonoH1.wav,2,2,1,5,,,,,0,15,15,4,0,8,8,7,,,,,,,,,5,1.1022109240002465,,,014,001,2019_May_09_1306,MusicAffectPsychophysiology2019,3.0.5,60.229866684544305,
To what extent did the music make you feel ,ACTIVE,30MonoWAV/30MonoH1.wav,2,2,1,5,,,,,0,15,15,4,0,9,9,9,,,,,,,,,5,0.7346533830022963,,,014,001,2019_May_09_1306,MusicAffectPsychophysiology2019,3.0.5,60.229866684544305,
To what extent did the music make you feel ,HAPPY,30MonoWAV/30MonoH1.wav,2,2,1,5,,,,,0,15,15,4,0,10,10,6,,,,,,,,,5,0.8834931689998484,,,014,001,2019_May_09_1306,MusicAffectPsychophysiology2019,3.0.5,60.229866684544305,
To what extent did the music make you feel ,ANGRY,30MonoWAV/30MonoH1.wav,2,2,1,5,,,,,0,15,15,4,0,11,11,2,,,,,,,,,1,2.052374414000951,,,014,001,2019_May_09_1306,MusicAffectPsychophysiology2019,3.0.5,60.229866684544305,
,,30MonoWAV/30MonoH1.wav,2,2,1,5,,,,,0,15,15,4,,,,,,,,,,,,,,,,,014,001,2019_May_09_1306,MusicAffectPsychophysiology2019,3.0.5,60.229866684544305,
To what extent did the music make you feel ,SCARED,30MonoWAV/30MonoT1.wav,2,1,4,13,,,,,1,0,16,12,0,0,0,11,,,2,3.0017858630017145,2,3.784697523999057,3,1.7517574379999132,1,1.65250551400095,,,014,001,2019_May_09_1306,MusicAffectPsychophysiology2019,3.0.5,60.229866684544305,
To what extent did the music make you feel ,EXCITED,30MonoWAV/30MonoT1.wav,2,1,4,13,,,,,1,0,16,12,0,1,1,7,,,,,,,,,2,1.1844380179973086,,,014,001,2019_May_09_1306,MusicAffectPsychophysiology2019,3.0.5,60.229866684544305,
To what extent did the music make you feel ,ASHAMED,30MonoWAV/30MonoT1.wav,2,1,4,13,,,,,1,0,16,12,0,2,2,4,,,,,,,,,1,0.7011204559967155,,,014,001,2019_May_09_1306,MusicAffectPsychophysiology2019,3.0.5,60.229866684544305,
To what extent did the music make you feel ,ANXIOUS ,30MonoWAV/30MonoT1.wav,2,1,4,13,,,,,1,0,16,12,0,3,3,1,,,,,,,,,1,2.0856451889994787,,,014,001,2019_May_09_1306,MusicAffectPsychophysiology2019,3.0.5,60.229866684544305,
To what extent did the music make you feel ,SAD,30MonoWAV/30MonoT1.wav,2,1,4,13,,,,,1,0,16,12,0,4,4,0,,,,,,,,,1,1.0358526390009501,,,014,001,2019_May_09_1306,MusicAffectPsychophysiology2019,3.0.5,60.229866684544305,
To what extent did the music make you feel ,TENDER,30MonoWAV/30MonoT1.wav,2,1,4,13,,,,,1,0,16,12,0,5,5,10,,,,,,,,,4,2.102127483998629,,,014,001,2019_May_09_1306,MusicAffectPsychophysiology2019,3.0.5,60.229866684544305,
To what extent did the music make you feel ,GUILTY,30MonoWAV/30MonoT1.wav,2,1,4,13,,,,,1,0,16,12,0,6,6,5,,,,,,,,,1,3.284965672999533,,,014,001,2019_May_09_1306,MusicAffectPsychophysiology2019,3.0.5,60.229866684544305,
To what extent did the music make you feel ,ALERT,30MonoWAV/30MonoT1.wav,2,1,4,13,,,,,1,0,16,12,0,7,7,8,,,,,,,,,3,2.234776974997658,,,014,001,2019_May_09_1306,MusicAffectPsychophysiology2019,3.0.5,60.229866684544305,
To what extent did the music make you feel ,FRUSTRATED,30MonoWAV/30MonoT1.wav,2,1,4,13,,,,,1,0,16,12,0,8,8,3,,,,,,,,,1,2.1683748360010213,,,014,001,2019_May_09_1306,MusicAffectPsychophysiology2019,3.0.5,60.229866684544305,
To what extent did the music make you feel ,ACTIVE,30MonoWAV/30MonoT1.wav,2,1,4,13,,,,,1,0,16,12,0,9,9,9,,,,,,,,,2,4.102117021000595,,,014,001,2019_May_09_1306,MusicAffectPsychophysiology2019,3.0.5,60.229866684544305,
To what extent did the music make you feel ,ANGRY,30MonoWAV/30MonoT1.wav,2,1,4,13,,,,,1,0,16,12,0,10,10,2,,,,,,,,,1,1.0686628869989363,,,014,001,2019_May_09_1306,MusicAffectPsychophysiology2019,3.0.5,60.229866684544305,
To what extent did the music make you feel ,HAPPY,30MonoWAV/30MonoT1.wav,2,1,4,13,,,,,1,0,16,12,0,11,11,6,,,,,,,,,4,4.818015492000995,,,014,001,2019_May_09_1306,MusicAffectPsychophysiology2019,3.0.5,60.229866684544305,
,,30MonoWAV/30MonoT1.wav,2,1,4,13,,,,,1,0,16,12,,,,,,,,,,,,,,,,,014,001,2019_May_09_1306,MusicAffectPsychophysiology2019,3.0.5,60.229866684544305,
To what extent did the music make you feel ,EXCITED,30MonoWAV/30MonoH1.wav,2,2,1,5,,,,,1,1,17,4,0,0,0,7,,,4,2.252529648001655,4,2.018410500000755,5,1.2215190189999703,4,2.2877686110005016,,,014,001,2019_May_09_1306,MusicAffectPsychophysiology2019,3.0.5,60.229866684544305,
To what extent did the music make you feel ,ALERT,30MonoWAV/30MonoH1.wav,2,2,1,5,,,,,1,1,17,4,0,1,1,8,,,,,,,,,4,1.404047020998405,,,014,001,2019_May_09_1306,MusicAffectPsychophysiology2019,3.0.5,60.229866684544305,
To what extent did the music make you feel ,ACTIVE,30MonoWAV/30MonoH1.wav,2,2,1,5,,,,,1,1,17,4,0,2,2,9,,,,,,,,,4,1.0865172159974463,,,014,001,2019_May_09_1306,MusicAffectPsychophysiology2019,3.0.5,60.229866684544305,
To what extent did the music make you feel ,HAPPY,30MonoWAV/30MonoH1.wav,2,2,1,5,,,,,1,1,17,4,0,3,3,6,,,,,,,,,4,1.3869322489990736,,,014,001,2019_May_09_1306,MusicAffectPsychophysiology2019,3.0.5,60.229866684544305,
To what extent did the music make you feel ,ASHAMED,30MonoWAV/30MonoH1.wav,2,2,1,5,,,,,1,1,17,4,0,4,4,4,,,,,,,,,1,1.1067717559999437,,,014,001,2019_May_09_1306,MusicAffectPsychophysiology2019,3.0.5,60.229866684544305,
To what extent did the music make you feel ,TENDER,30MonoWAV/30MonoH1.wav,2,2,1,5,,,,,1,1,17,4,0,5,5,10,,,,,,,,,2,1.3518307610029296,,,014,001,2019_May_09_1306,MusicAffectPsychophysiology2019,3.0.5,60.229866684544305,
To what extent did the music make you feel ,ANXIOUS ,30MonoWAV/30MonoH1.wav,2,2,1,5,,,,,1,1,17,4,0,6,6,1,,,,,,,,,4,2.636120717997983,,,014,001,2019_May_09_1306,MusicAffectPsychophysiology2019,3.0.5,60.229866684544305,
To what extent did the music make you feel ,GUILTY,30MonoWAV/30MonoH1.wav,2,2,1,5,,,,,1,1,17,4,0,7,7,5,,,,,,,,,1,0.9182155569978931,,,014,001,2019_May_09_1306,MusicAffectPsychophysiology2019,3.0.5,60.229866684544305,
To what extent did the music make you feel ,ANGRY,30MonoWAV/30MonoH1.wav,2,2,1,5,,,,,1,1,17,4,0,8,8,2,,,,,,,,,1,3.518753290998575,,,014,001,2019_May_09_1306,MusicAffectPsychophysiology2019,3.0.5,60.229866684544305,
To what extent did the music make you feel ,SCARED,30MonoWAV/30MonoH1.wav,2,2,1,5,,,,,1,1,17,4,0,9,9,11,,,,,,,,,1,0.7154350880009588,,,014,001,2019_May_09_1306,MusicAffectPsychophysiology2019,3.0.5,60.229866684544305,
To what extent did the music make you feel ,FRUSTRATED,30MonoWAV/30MonoH1.wav,2,2,1,5,,,,,1,1,17,4,0,10,10,3,,,,,,,,,1,1.1522982389979006,,,014,001,2019_May_09_1306,MusicAffectPsychophysiology2019,3.0.5,60.229866684544305,
To what extent did the music make you feel ,SAD,30MonoWAV/30MonoH1.wav,2,2,1,5,,,,,1,1,17,4,0,11,11,0,,,,,,,,,1,1.4679687579991878,,,014,001,2019_May_09_1306,MusicAffectPsychophysiology2019,3.0.5,60.229866684544305,
,,30MonoWAV/30MonoH1.wav,2,2,1,5,,,,,1,1,17,4,,,,,,,,,,,,,,,,,014,001,2019_May_09_1306,MusicAffectPsychophysiology2019,3.0.5,60.229866684544305,
To what extent did the music make you feel ,SCARED,30MonoWAV/30MonoF1.wav,1,2,2,1,,,,,1,2,18,0,0,0,0,11,,,4,3.8220193540000764,1,2.2372121730004437,1,1.8372814690010273,4,1.8202753760015185,,,014,001,2019_May_09_1306,MusicAffectPsychophysiology2019,3.0.5,60.229866684544305,
To what extent did the music make you feel ,EXCITED,30MonoWAV/30MonoF1.wav,1,2,2,1,,,,,1,2,18,0,0,1,1,7,,,,,,,,,2,1.9403235009995115,,,014,001,2019_May_09_1306,MusicAffectPsychophysiology2019,3.0.5,60.229866684544305,
To what extent did the music make you feel ,ANXIOUS ,30MonoWAV/30MonoF1.wav,1,2,2,1,,,,,1,2,18,0,0,2,2,1,,,,,,,,,4,1.7175469860012527,,,014,001,2019_May_09_1306,MusicAffectPsychophysiology2019,3.0.5,60.229866684544305,
To what extent did the music make you feel ,FRUSTRATED,30MonoWAV/30MonoF1.wav,1,2,2,1,,,,,1,2,18,0,0,3,3,3,,,,,,,,,2,3.718952844999876,,,014,001,2019_May_09_1306,MusicAffectPsychophysiology2019,3.0.5,60.229866684544305,
To what extent did the music make you feel ,TENDER,30MonoWAV/30MonoF1.wav,1,2,2,1,,,,,1,2,18,0,0,4,4,10,,,,,,,,,1,1.7187894720009353,,,014,001,2019_May_09_1306,MusicAffectPsychophysiology2019,3.0.5,60.229866684544305,
To what extent did the music make you feel ,ASHAMED,30MonoWAV/30MonoF1.wav,1,2,2,1,,,,,1,2,18,0,0,5,5,4,,,,,,,,,1,1.651469840999198,,,014,001,2019_May_09_1306,MusicAffectPsychophysiology2019,3.0.5,60.229866684544305,
To what extent did the music make you feel ,ACTIVE,30MonoWAV/30MonoF1.wav,1,2,2,1,,,,,1,2,18,0,0,6,6,9,,,,,,,,,5,2.3016872689986485,,,014,001,2019_May_09_1306,MusicAffectPsychophysiology2019,3.0.5,60.229866684544305,
To what extent did the music make you feel ,HAPPY,30MonoWAV/30MonoF1.wav,1,2,2,1,,,,,1,2,18,0,0,7,7,6,,,,,,,,,1,1.2002246150004794,,,014,001,2019_May_09_1306,MusicAffectPsychophysiology2019,3.0.5,60.229866684544305,
To what extent did the music make you feel ,SAD,30MonoWAV/30MonoF1.wav,1,2,2,1,,,,,1,2,18,0,0,8,8,0,,,,,,,,,1,2.2352098310002475,,,014,001,2019_May_09_1306,MusicAffectPsychophysiology2019,3.0.5,60.229866684544305,
To what extent did the music make you feel ,ALERT,30MonoWAV/30MonoF1.wav,1,2,2,1,,,,,1,2,18,0,0,9,9,8,,,,,,,,,5,1.3168793879995064,,,014,001,2019_May_09_1306,MusicAffectPsychophysiology2019,3.0.5,60.229866684544305,
To what extent did the music make you feel ,ANGRY,30MonoWAV/30MonoF1.wav,1,2,2,1,,,,,1,2,18,0,0,10,10,2,,,,,,,,,1,1.3690344230017217,,,014,001,2019_May_09_1306,MusicAffectPsychophysiology2019,3.0.5,60.229866684544305,
To what extent did the music make you feel ,GUILTY,30MonoWAV/30MonoF1.wav,1,2,2,1,,,,,1,2,18,0,0,11,11,5,,,,,,,,,1,1.1854057810014638,,,014,001,2019_May_09_1306,MusicAffectPsychophysiology2019,3.0.5,60.229866684544305,
,,30MonoWAV/30MonoF1.wav,1,2,2,1,,,,,1,2,18,0,,,,,,,,,,,,,,,,,014,001,2019_May_09_1306,MusicAffectPsychophysiology2019,3.0.5,60.229866684544305,
To what extent did the music make you feel ,ANGRY,30MonoWAV/30MonoF2.wav,1,2,2,2,,,,,1,3,19,1,0,0,0,2,,,3,5.64358481599993,1,2.118902366000839,1,2.4850335259980056,2,3.534871417999966,,,014,001,2019_May_09_1306,MusicAffectPsychophysiology2019,3.0.5,60.229866684544305,
To what extent did the music make you feel ,ACTIVE,30MonoWAV/30MonoF2.wav,1,2,2,2,,,,,1,3,19,1,0,1,1,9,,,,,,,,,4,3.0847726840001997,,,014,001,2019_May_09_1306,MusicAffectPsychophysiology2019,3.0.5,60.229866684544305,
To what extent did the music make you feel ,ALERT,30MonoWAV/30MonoF2.wav,1,2,2,2,,,,,1,3,19,1,0,2,2,8,,,,,,,,,4,0.9344811009978002,,,014,001,2019_May_09_1306,MusicAffectPsychophysiology2019,3.0.5,60.229866684544305,
To what extent did the music make you feel ,SAD,30MonoWAV/30MonoF2.wav,1,2,2,2,,,,,1,3,19,1,0,3,3,0,,,,,,,,,1,1.4674537079990841,,,014,001,2019_May_09_1306,MusicAffectPsychophysiology2019,3.0.5,60.229866684544305,
To what extent did the music make you feel ,EXCITED,30MonoWAV/30MonoF2.wav,1,2,2,2,,,,,1,3,19,1,0,4,4,7,,,,,,,,,2,1.6171013679995667,,,014,001,2019_May_09_1306,MusicAffectPsychophysiology2019,3.0.5,60.229866684544305,
To what extent did the music make you feel ,TENDER,30MonoWAV/30MonoF2.wav,1,2,2,2,,,,,1,3,19,1,0,5,5,10,,,,,,,,,1,1.1997538230025384,,,014,001,2019_May_09_1306,MusicAffectPsychophysiology2019,3.0.5,60.229866684544305,
To what extent did the music make you feel ,HAPPY,30MonoWAV/30MonoF2.wav,1,2,2,2,,,,,1,3,19,1,0,6,6,6,,,,,,,,,1,1.4018161150015658,,,014,001,2019_May_09_1306,MusicAffectPsychophysiology2019,3.0.5,60.229866684544305,
To what extent did the music make you feel ,ASHAMED,30MonoWAV/30MonoF2.wav,1,2,2,2,,,,,1,3,19,1,0,7,7,4,,,,,,,,,1,2.5511658579998766,,,014,001,2019_May_09_1306,MusicAffectPsychophysiology2019,3.0.5,60.229866684544305,
To what extent did the music make you feel ,SCARED,30MonoWAV/30MonoF2.wav,1,2,2,2,,,,,1,3,19,1,0,8,8,11,,,,,,,,,3,1.3852484650014958,,,014,001,2019_May_09_1306,MusicAffectPsychophysiology2019,3.0.5,60.229866684544305,
To what extent did the music make you feel ,FRUSTRATED,30MonoWAV/30MonoF2.wav,1,2,2,2,,,,,1,3,19,1,0,9,9,3,,,,,,,,,1,1.7181687110023631,,,014,001,2019_May_09_1306,MusicAffectPsychophysiology2019,3.0.5,60.229866684544305,
To what extent did the music make you feel ,GUILTY,30MonoWAV/30MonoF2.wav,1,2,2,2,,,,,1,3,19,1,0,10,10,5,,,,,,,,,1,2.4352383249970444,,,014,001,2019_May_09_1306,MusicAffectPsychophysiology2019,3.0.5,60.229866684544305,
To what extent did the music make you feel ,ANXIOUS ,30MonoWAV/30MonoF2.wav,1,2,2,2,,,,,1,3,19,1,0,11,11,1,,,,,,,,,4,1.2501962069982255,,,014,001,2019_May_09_1306,MusicAffectPsychophysiology2019,3.0.5,60.229866684544305,
,,30MonoWAV/30MonoF2.wav,1,2,2,2,,,,,1,3,19,1,,,,,,,,,,,,,,,,,014,001,2019_May_09_1306,MusicAffectPsychophysiology2019,3.0.5,60.229866684544305,
To what extent did the music make you feel ,ACTIVE,30MonoWAV/30MonoH2.wav,2,2,1,6,,,,,1,4,20,5,0,0,0,9,,,3,2.1515548799980024,3,1.485334029999649,3,1.984123473001091,3,2.2011543580010766,,,014,001,2019_May_09_1306,MusicAffectPsychophysiology2019,3.0.5,60.229866684544305,
To what extent did the music make you feel ,EXCITED,30MonoWAV/30MonoH2.wav,2,2,1,6,,,,,1,4,20,5,0,1,1,7,,,,,,,,,3,2.1176969410007587,,,014,001,2019_May_09_1306,MusicAffectPsychophysiology2019,3.0.5,60.229866684544305,
To what extent did the music make you feel ,ALERT,30MonoWAV/30MonoH2.wav,2,2,1,6,,,,,1,4,20,5,0,2,2,8,,,,,,,,,4,0.8525787649996346,,,014,001,2019_May_09_1306,MusicAffectPsychophysiology2019,3.0.5,60.229866684544305,
To what extent did the music make you feel ,ANGRY,30MonoWAV/30MonoH2.wav,2,2,1,6,,,,,1,4,20,5,0,3,3,2,,,,,,,,,1,1.2357348299992736,,,014,001,2019_May_09_1306,MusicAffectPsychophysiology2019,3.0.5,60.229866684544305,
To what extent did the music make you feel ,ASHAMED,30MonoWAV/30MonoH2.wav,2,2,1,6,,,,,1,4,20,5,0,4,4,4,,,,,,,,,1,0.9851650829987193,,,014,001,2019_May_09_1306,MusicAffectPsychophysiology2019,3.0.5,60.229866684544305,
To what extent did the music make you feel ,SCARED,30MonoWAV/30MonoH2.wav,2,2,1,6,,,,,1,4,20,5,0,5,5,11,,,,,,,,,1,1.2505945869997959,,,014,001,2019_May_09_1306,MusicAffectPsychophysiology2019,3.0.5,60.229866684544305,
To what extent did the music make you feel ,HAPPY,30MonoWAV/30MonoH2.wav,2,2,1,6,,,,,1,4,20,5,0,6,6,6,,,,,,,,,3,1.6015163679985562,,,014,001,2019_May_09_1306,MusicAffectPsychophysiology2019,3.0.5,60.229866684544305,
To what extent did the music make you feel ,SAD,30MonoWAV/30MonoH2.wav,2,2,1,6,,,,,1,4,20,5,0,7,7,0,,,,,,,,,1,1.2191188860015245,,,014,001,2019_May_09_1306,MusicAffectPsychophysiology2019,3.0.5,60.229866684544305,
To what extent did the music make you feel ,FRUSTRATED,30MonoWAV/30MonoH2.wav,2,2,1,6,,,,,1,4,20,5,0,8,8,3,,,,,,,,,1,0.8849764920014422,,,014,001,2019_May_09_1306,MusicAffectPsychophysiology2019,3.0.5,60.229866684544305,
To what extent did the music make you feel ,TENDER,30MonoWAV/30MonoH2.wav,2,2,1,6,,,,,1,4,20,5,0,9,9,10,,,,,,,,,3,2.3677483860010398,,,014,001,2019_May_09_1306,MusicAffectPsychophysiology2019,3.0.5,60.229866684544305,
To what extent did the music make you feel ,GUILTY,30MonoWAV/30MonoH2.wav,2,2,1,6,,,,,1,4,20,5,0,10,10,5,,,,,,,,,1,0.968401083999197,,,014,001,2019_May_09_1306,MusicAffectPsychophysiology2019,3.0.5,60.229866684544305,
To what extent did the music make you feel ,ANXIOUS ,30MonoWAV/30MonoH2.wav,2,2,1,6,,,,,1,4,20,5,0,11,11,1,,,,,,,,,3,2.0520857570008957,,,014,001,2019_May_09_1306,MusicAffectPsychophysiology2019,3.0.5,60.229866684544305,
,,30MonoWAV/30MonoH2.wav,2,2,1,6,,,,,1,4,20,5,,,,,,,,,,,,,,,,,014,001,2019_May_09_1306,MusicAffectPsychophysiology2019,3.0.5,60.229866684544305,
To what extent did the music make you feel ,GUILTY,30MonoWAV/30MonoT3.wav,2,1,4,15,,,,,1,5,21,14,0,0,0,5,,,2,2.6842603829973086,4,2.9180386129992257,3,1.2348529390001204,1,1.5847715979980421,,,014,001,2019_May_09_1306,MusicAffectPsychophysiology2019,3.0.5,60.229866684544305,
To what extent did the music make you feel ,TENDER,30MonoWAV/30MonoT3.wav,2,1,4,15,,,,,1,5,21,14,0,1,1,10,,,,,,,,,4,1.4848678060006932,,,014,001,2019_May_09_1306,MusicAffectPsychophysiology2019,3.0.5,60.229866684544305,
To what extent did the music make you feel ,SAD,30MonoWAV/30MonoT3.wav,2,1,4,15,,,,,1,5,21,14,0,2,2,0,,,,,,,,,1,1.466893873999652,,,014,001,2019_May_09_1306,MusicAffectPsychophysiology2019,3.0.5,60.229866684544305,
To what extent did the music make you feel ,SCARED,30MonoWAV/30MonoT3.wav,2,1,4,15,,,,,1,5,21,14,0,3,3,11,,,,,,,,,1,2.1518985550028447,,,014,001,2019_May_09_1306,MusicAffectPsychophysiology2019,3.0.5,60.229866684544305,
To what extent did the music make you feel ,ASHAMED,30MonoWAV/30MonoT3.wav,2,1,4,15,,,,,1,5,21,14,0,4,4,4,,,,,,,,,1,1.201928565002163,,,014,001,2019_May_09_1306,MusicAffectPsychophysiology2019,3.0.5,60.229866684544305,
To what extent did the music make you feel ,ACTIVE,30MonoWAV/30MonoT3.wav,2,1,4,15,,,,,1,5,21,14,0,5,5,9,,,,,,,,,2,2.134569322999596,,,014,001,2019_May_09_1306,MusicAffectPsychophysiology2019,3.0.5,60.229866684544305,
To what extent did the music make you feel ,ANXIOUS ,30MonoWAV/30MonoT3.wav,2,1,4,15,,,,,1,5,21,14,0,6,6,1,,,,,,,,,1,1.1521294109988958,,,014,001,2019_May_09_1306,MusicAffectPsychophysiology2019,3.0.5,60.229866684544305,
To what extent did the music make you feel ,FRUSTRATED,30MonoWAV/30MonoT3.wav,2,1,4,15,,,,,1,5,21,14,0,7,7,3,,,,,,,,,1,1.1190166699998372,,,014,001,2019_May_09_1306,MusicAffectPsychophysiology2019,3.0.5,60.229866684544305,
To what extent did the music make you feel ,EXCITED,30MonoWAV/30MonoT3.wav,2,1,4,15,,,,,1,5,21,14,0,8,8,7,,,,,,,,,1,1.9345676960001583,,,014,001,2019_May_09_1306,MusicAffectPsychophysiology2019,3.0.5,60.229866684544305,
To what extent did the music make you feel ,ALERT,30MonoWAV/30MonoT3.wav,2,1,4,15,,,,,1,5,21,14,0,9,9,8,,,,,,,,,2,2.252445885002089,,,014,001,2019_May_09_1306,MusicAffectPsychophysiology2019,3.0.5,60.229866684544305,
To what extent did the music make you feel ,HAPPY,30MonoWAV/30MonoT3.wav,2,1,4,15,,,,,1,5,21,14,0,10,10,6,,,,,,,,,4,1.8693239059975895,,,014,001,2019_May_09_1306,MusicAffectPsychophysiology2019,3.0.5,60.229866684544305,
To what extent did the music make you feel ,ANGRY,30MonoWAV/30MonoT3.wav,2,1,4,15,,,,,1,5,21,14,0,11,11,2,,,,,,,,,1,1.0999150549978367,,,014,001,2019_May_09_1306,MusicAffectPsychophysiology2019,3.0.5,60.229866684544305,
,,30MonoWAV/30MonoT3.wav,2,1,4,15,,,,,1,5,21,14,,,,,,,,,,,,,,,,,014,001,2019_May_09_1306,MusicAffectPsychophysiology2019,3.0.5,60.229866684544305,
To what extent did the music make you feel ,ANXIOUS ,30MonoWAV/30MonoS4.wav,1,1,3,12,,,,,1,6,22,11,0,0,0,1,,,1,6.866199471998698,3,1.6345827450022625,3,1.050422244999936,1,1.5858164609999221,,,014,001,2019_May_09_1306,MusicAffectPsychophysiology2019,3.0.5,60.229866684544305,
To what extent did the music make you feel ,SCARED,30MonoWAV/30MonoS4.wav,1,1,3,12,,,,,1,6,22,11,0,1,1,11,,,,,,,,,1,1.116856150001695,,,014,001,2019_May_09_1306,MusicAffectPsychophysiology2019,3.0.5,60.229866684544305,
To what extent did the music make you feel ,GUILTY,30MonoWAV/30MonoS4.wav,1,1,3,12,,,,,1,6,22,11,0,2,2,5,,,,,,,,,2,2.285455393997836,,,014,001,2019_May_09_1306,MusicAffectPsychophysiology2019,3.0.5,60.229866684544305,
To what extent did the music make you feel ,ALERT,30MonoWAV/30MonoS4.wav,1,1,3,12,,,,,1,6,22,11,0,3,3,8,,,,,,,,,1,5.050907773998915,,,014,001,2019_May_09_1306,MusicAffectPsychophysiology2019,3.0.5,60.229866684544305,
To what extent did the music make you feel ,SAD,30MonoWAV/30MonoS4.wav,1,1,3,12,,,,,1,6,22,11,0,4,4,0,,,,,,,,,3,1.9517309739967459,,,014,001,2019_May_09_1306,MusicAffectPsychophysiology2019,3.0.5,60.229866684544305,
To what extent did the music make you feel ,ACTIVE,30MonoWAV/30MonoS4.wav,1,1,3,12,,,,,1,6,22,11,0,5,5,9,,,,,,,,,1,0.9689256550009304,,,014,001,2019_May_09_1306,MusicAffectPsychophysiology2019,3.0.5,60.229866684544305,
To what extent did the music make you feel ,EXCITED,30MonoWAV/30MonoS4.wav,1,1,3,12,,,,,1,6,22,11,0,6,6,7,,,,,,,,,1,0.8690492089990585,,,014,001,2019_May_09_1306,MusicAffectPsychophysiology2019,3.0.5,60.229866684544305,
To what extent did the music make you feel ,ASHAMED,30MonoWAV/30MonoS4.wav,1,1,3,12,,,,,1,6,22,11,0,7,7,4,,,,,,,,,1,2.518210681999335,,,014,001,2019_May_09_1306,MusicAffectPsychophysiology2019,3.0.5,60.229866684544305,
To what extent did the music make you feel ,ANGRY,30MonoWAV/30MonoS4.wav,1,1,3,12,,,,,1,6,22,11,0,8,8,2,,,,,,,,,1,2.9347796860020026,,,014,001,2019_May_09_1306,MusicAffectPsychophysiology2019,3.0.5,60.229866684544305,
To what extent did the music make you feel ,HAPPY,30MonoWAV/30MonoS4.wav,1,1,3,12,,,,,1,6,22,11,0,9,9,6,,,,,,,,,1,1.2180060040009266,,,014,001,2019_May_09_1306,MusicAffectPsychophysiology2019,3.0.5,60.229866684544305,
To what extent did the music make you feel ,FRUSTRATED,30MonoWAV/30MonoS4.wav,1,1,3,12,,,,,1,6,22,11,0,10,10,3,,,,,,,,,2,1.3166136820000247,,,014,001,2019_May_09_1306,MusicAffectPsychophysiology2019,3.0.5,60.229866684544305,
To what extent did the music make you feel ,TENDER,30MonoWAV/30MonoS4.wav,1,1,3,12,,,,,1,6,22,11,0,11,11,10,,,,,,,,,4,1.9522551949994522,,,014,001,2019_May_09_1306,MusicAffectPsychophysiology2019,3.0.5,60.229866684544305,
,,30MonoWAV/30MonoS4.wav,1,1,3,12,,,,,1,6,22,11,,,,,,,,,,,,,,,,,014,001,2019_May_09_1306,MusicAffectPsychophysiology2019,3.0.5,60.229866684544305,
To what extent did the music make you feel ,SAD,30MonoWAV/30MonoT4.wav,2,1,4,16,,,,,1,7,23,15,0,0,0,0,,,3,2.190885485000763,3,7.062490603999322,4,1.268347499997617,2,2.4180434519985283,,,014,001,2019_May_09_1306,MusicAffectPsychophysiology2019,3.0.5,60.229866684544305,
To what extent did the music make you feel ,HAPPY,30MonoWAV/30MonoT4.wav,2,1,4,16,,,,,1,7,23,15,0,1,1,6,,,,,,,,,4,2.0688277410008595,,,014,001,2019_May_09_1306,MusicAffectPsychophysiology2019,3.0.5,60.229866684544305,
To what extent did the music make you feel ,GUILTY,30MonoWAV/30MonoT4.wav,2,1,4,16,,,,,1,7,23,15,0,2,2,5,,,,,,,,,1,1.2020145460010099,,,014,001,2019_May_09_1306,MusicAffectPsychophysiology2019,3.0.5,60.229866684544305,
To what extent did the music make you feel ,FRUSTRATED,30MonoWAV/30MonoT4.wav,2,1,4,16,,,,,1,7,23,15,0,3,3,3,,,,,,,,,1,1.335146026001894,,,014,001,2019_May_09_1306,MusicAffectPsychophysiology2019,3.0.5,60.229866684544305,
To what extent did the music make you feel ,ANGRY,30MonoWAV/30MonoT4.wav,2,1,4,16,,,,,1,7,23,15,0,4,4,2,,,,,,,,,1,1.1186527120007668,,,014,001,2019_May_09_1306,MusicAffectPsychophysiology2019,3.0.5,60.229866684544305,
To what extent did the music make you feel ,ASHAMED,30MonoWAV/30MonoT4.wav,2,1,4,16,,,,,1,7,23,15,0,5,5,4,,,,,,,,,1,0.8687803559987515,,,014,001,2019_May_09_1306,MusicAffectPsychophysiology2019,3.0.5,60.229866684544305,
To what extent did the music make you feel ,ALERT,30MonoWAV/30MonoT4.wav,2,1,4,16,,,,,1,7,23,15,0,6,6,8,,,,,,,,,3,5.251204627002153,,,014,001,2019_May_09_1306,MusicAffectPsychophysiology2019,3.0.5,60.229866684544305,
To what extent did the music make you feel ,ANXIOUS ,30MonoWAV/30MonoT4.wav,2,1,4,16,,,,,1,7,23,15,0,7,7,1,,,,,,,,,2,1.6190185289997316,,,014,001,2019_May_09_1306,MusicAffectPsychophysiology2019,3.0.5,60.229866684544305,
To what extent did the music make you feel ,EXCITED,30MonoWAV/30MonoT4.wav,2,1,4,16,,,,,1,7,23,15,0,8,8,7,,,,,,,,,1,1.7022519749989442,,,014,001,2019_May_09_1306,MusicAffectPsychophysiology2019,3.0.5,60.229866684544305,
To what extent did the music make you feel ,ACTIVE,30MonoWAV/30MonoT4.wav,2,1,4,16,,,,,1,7,23,15,0,9,9,9,,,,,,,,,1,1.234889628001838,,,014,001,2019_May_09_1306,MusicAffectPsychophysiology2019,3.0.5,60.229866684544305,
To what extent did the music make you feel ,SCARED,30MonoWAV/30MonoT4.wav,2,1,4,16,,,,,1,7,23,15,0,10,10,11,,,,,,,,,1,1.0857613289990695,,,014,001,2019_May_09_1306,MusicAffectPsychophysiology2019,3.0.5,60.229866684544305,
To what extent did the music make you feel ,TENDER,30MonoWAV/30MonoT4.wav,2,1,4,16,,,,,1,7,23,15,0,11,11,10,,,,,,,,,2,1.2009288310000557,,,014,001,2019_May_09_1306,MusicAffectPsychophysiology2019,3.0.5,60.229866684544305,
,,30MonoWAV/30MonoT4.wav,2,1,4,16,,,,,1,7,23,15,,,,,,,,,,,,,,,,,014,001,2019_May_09_1306,MusicAffectPsychophysiology2019,3.0.5,60.229866684544305,
To what extent did the music make you feel ,GUILTY,30MonoWAV/30MonoF4.wav,1,2,2,4,,,,,1,8,24,3,0,0,0,5,,,4,3.0690574439977354,2,1.5520148719988356,1,2.1017911230010213,1,2.084935233997385,,,014,001,2019_May_09_1306,MusicAffectPsychophysiology2019,3.0.5,60.229866684544305,
To what extent did the music make you feel ,ASHAMED,30MonoWAV/30MonoF4.wav,1,2,2,4,,,,,1,8,24,3,0,1,1,4,,,,,,,,,1,0.8010793610010296,,,014,001,2019_May_09_1306,MusicAffectPsychophysiology2019,3.0.5,60.229866684544305,
To what extent did the music make you feel ,ACTIVE,30MonoWAV/30MonoF4.wav,1,2,2,4,,,,,1,8,24,3,0,2,2,9,,,,,,,,,4,1.3686789460007276,,,014,001,2019_May_09_1306,MusicAffectPsychophysiology2019,3.0.5,60.229866684544305,
To what extent did the music make you feel ,SAD,30MonoWAV/30MonoF4.wav,1,2,2,4,,,,,1,8,24,3,0,3,3,0,,,,,,,,,1,1.2684308850002708,,,014,001,2019_May_09_1306,MusicAffectPsychophysiology2019,3.0.5,60.229866684544305,
To what extent did the music make you feel ,ANXIOUS ,30MonoWAV/30MonoF4.wav,1,2,2,4,,,,,1,8,24,3,0,4,4,1,,,,,,,,,5,1.1507162009984313,,,014,001,2019_May_09_1306,MusicAffectPsychophysiology2019,3.0.5,60.229866684544305,
To what extent did the music make you feel ,HAPPY,30MonoWAV/30MonoF4.wav,1,2,2,4,,,,,1,8,24,3,0,5,5,6,,,,,,,,,1,1.4019443210017926,,,014,001,2019_May_09_1306,MusicAffectPsychophysiology2019,3.0.5,60.229866684544305,
To what extent did the music make you feel ,EXCITED,30MonoWAV/30MonoF4.wav,1,2,2,4,,,,,1,8,24,3,0,6,6,7,,,,,,,,,1,1.2010065609974845,,,014,001,2019_May_09_1306,MusicAffectPsychophysiology2019,3.0.5,60.229866684544305,
To what extent did the music make you feel ,ANGRY,30MonoWAV/30MonoF4.wav,1,2,2,4,,,,,1,8,24,3,0,7,7,2,,,,,,,,,1,1.0688184079990606,,,014,001,2019_May_09_1306,MusicAffectPsychophysiology2019,3.0.5,60.229866684544305,
To what extent did the music make you feel ,ALERT,30MonoWAV/30MonoF4.wav,1,2,2,4,,,,,1,8,24,3,0,8,8,8,,,,,,,,,5,1.2354539110019687,,,014,001,2019_May_09_1306,MusicAffectPsychophysiology2019,3.0.5,60.229866684544305,
To what extent did the music make you feel ,TENDER,30MonoWAV/30MonoF4.wav,1,2,2,4,,,,,1,8,24,3,0,9,9,10,,,,,,,,,1,1.2187678209993464,,,014,001,2019_May_09_1306,MusicAffectPsychophysiology2019,3.0.5,60.229866684544305,
To what extent did the music make you feel ,FRUSTRATED,30MonoWAV/30MonoF4.wav,1,2,2,4,,,,,1,8,24,3,0,10,10,3,,,,,,,,,3,2.274608278999949,,,014,001,2019_May_09_1306,MusicAffectPsychophysiology2019,3.0.5,60.229866684544305,
To what extent did the music make you feel ,SCARED,30MonoWAV/30MonoF4.wav,1,2,2,4,,,,,1,8,24,3,0,11,11,11,,,,,,,,,4,1.3350071349996142,,,014,001,2019_May_09_1306,MusicAffectPsychophysiology2019,3.0.5,60.229866684544305,
,,30MonoWAV/30MonoF4.wav,1,2,2,4,,,,,1,8,24,3,,,,,,,,,,,,,,,,,014,001,2019_May_09_1306,MusicAffectPsychophysiology2019,3.0.5,60.229866684544305,
To what extent did the music make you feel ,EXCITED,30MonoWAV/30MonoF3.wav,1,2,2,3,,,,,1,9,25,2,0,0,0,7,,,3,3.2659217350010294,1,2.2851629739998316,2,1.5185096790009993,1,1.985740635998809,,,014,001,2019_May_09_1306,MusicAffectPsychophysiology2019,3.0.5,60.229866684544305,
To what extent did the music make you feel ,GUILTY,30MonoWAV/30MonoF3.wav,1,2,2,3,,,,,1,9,25,2,0,1,1,5,,,,,,,,,1,0.9684304940019501,,,014,001,2019_May_09_1306,MusicAffectPsychophysiology2019,3.0.5,60.229866684544305,
To what extent did the music make you feel ,ANGRY,30MonoWAV/30MonoF3.wav,1,2,2,3,,,,,1,9,25,2,0,2,2,2,,,,,,,,,1,1.2172454450010264,,,014,001,2019_May_09_1306,MusicAffectPsychophysiology2019,3.0.5,60.229866684544305,
To what extent did the music make you feel ,SCARED,30MonoWAV/30MonoF3.wav,1,2,2,3,,,,,1,9,25,2,0,3,3,11,,,,,,,,,3,1.6854339579986117,,,014,001,2019_May_09_1306,MusicAffectPsychophysiology2019,3.0.5,60.229866684544305,
To what extent did the music make you feel ,TENDER,30MonoWAV/30MonoF3.wav,1,2,2,3,,,,,1,9,25,2,0,4,4,10,,,,,,,,,1,1.1183392370003276,,,014,001,2019_May_09_1306,MusicAffectPsychophysiology2019,3.0.5,60.229866684544305,
To what extent did the music make you feel ,ACTIVE,30MonoWAV/30MonoF3.wav,1,2,2,3,,,,,1,9,25,2,0,5,5,9,,,,,,,,,3,3.2674517019986524,,,014,001,2019_May_09_1306,MusicAffectPsychophysiology2019,3.0.5,60.229866684544305,
To what extent did the music make you feel ,FRUSTRATED,30MonoWAV/30MonoF3.wav,1,2,2,3,,,,,1,9,25,2,0,6,6,3,,,,,,,,,1,1.3683503210013441,,,014,001,2019_May_09_1306,MusicAffectPsychophysiology2019,3.0.5,60.229866684544305,
To what extent did the music make you feel ,HAPPY,30MonoWAV/30MonoF3.wav,1,2,2,3,,,,,1,9,25,2,0,7,7,6,,,,,,,,,1,1.251984361999348,,,014,001,2019_May_09_1306,MusicAffectPsychophysiology2019,3.0.5,60.229866684544305,
To what extent did the music make you feel ,ALERT,30MonoWAV/30MonoF3.wav,1,2,2,3,,,,,1,9,25,2,0,8,8,8,,,,,,,,,4,1.451793831998657,,,014,001,2019_May_09_1306,MusicAffectPsychophysiology2019,3.0.5,60.229866684544305,
To what extent did the music make you feel ,SAD,30MonoWAV/30MonoF3.wav,1,2,2,3,,,,,1,9,25,2,0,9,9,0,,,,,,,,,1,1.4023443010009942,,,014,001,2019_May_09_1306,MusicAffectPsychophysiology2019,3.0.5,60.229866684544305,
To what extent did the music make you feel ,ASHAMED,30MonoWAV/30MonoF3.wav,1,2,2,3,,,,,1,9,25,2,0,10,10,4,,,,,,,,,1,1.3006102290019044,,,014,001,2019_May_09_1306,MusicAffectPsychophysiology2019,3.0.5,60.229866684544305,
To what extent did the music make you feel ,ANXIOUS ,30MonoWAV/30MonoF3.wav,1,2,2,3,,,,,1,9,25,2,0,11,11,1,,,,,,,,,4,1.252271771998494,,,014,001,2019_May_09_1306,MusicAffectPsychophysiology2019,3.0.5,60.229866684544305,
,,30MonoWAV/30MonoF3.wav,1,2,2,3,,,,,1,9,25,2,,,,,,,,,,,,,,,,,014,001,2019_May_09_1306,MusicAffectPsychophysiology2019,3.0.5,60.229866684544305,
To what extent did the music make you feel ,ACTIVE,30MonoWAV/30MonoS3.wav,1,1,3,11,,,,,1,10,26,10,0,0,0,9,,,2,10.44993154900294,1,1.1006304980001005,1,1.4187290370027767,2,4.10136247599803,,,014,001,2019_May_09_1306,MusicAffectPsychophysiology2019,3.0.5,60.229866684544305,
To what extent did the music make you feel ,SCARED,30MonoWAV/30MonoS3.wav,1,1,3,11,,,,,1,10,26,10,0,1,1,11,,,,,,,,,2,1.373719296996569,,,014,001,2019_May_09_1306,MusicAffectPsychophysiology2019,3.0.5,60.229866684544305,
To what extent did the music make you feel ,FRUSTRATED,30MonoWAV/30MonoS3.wav,1,1,3,11,,,,,1,10,26,10,0,2,2,3,,,,,,,,,1,1.3030989520011644,,,014,001,2019_May_09_1306,MusicAffectPsychophysiology2019,3.0.5,60.229866684544305,
To what extent did the music make you feel ,HAPPY,30MonoWAV/30MonoS3.wav,1,1,3,11,,,,,1,10,26,10,0,3,3,6,,,,,,,,,1,3.6383830510021653,,,014,001,2019_May_09_1306,MusicAffectPsychophysiology2019,3.0.5,60.229866684544305,
To what extent did the music make you feel ,ASHAMED,30MonoWAV/30MonoS3.wav,1,1,3,11,,,,,1,10,26,10,0,4,4,4,,,,,,,,,1,0.8694216430012602,,,014,001,2019_May_09_1306,MusicAffectPsychophysiology2019,3.0.5,60.229866684544305,
To what extent did the music make you feel ,TENDER,30MonoWAV/30MonoS3.wav,1,1,3,11,,,,,1,10,26,10,0,5,5,10,,,,,,,,,3,1.6894067080029345,,,014,001,2019_May_09_1306,MusicAffectPsychophysiology2019,3.0.5,60.229866684544305,
To what extent did the music make you feel ,SAD,30MonoWAV/30MonoS3.wav,1,1,3,11,,,,,1,10,26,10,0,6,6,0,,,,,,,,,4,1.1670239369996125,,,014,001,2019_May_09_1306,MusicAffectPsychophysiology2019,3.0.5,60.229866684544305,
To what extent did the music make you feel ,ANGRY,30MonoWAV/30MonoS3.wav,1,1,3,11,,,,,1,10,26,10,0,7,7,2,,,,,,,,,1,1.3524425569994492,,,014,001,2019_May_09_1306,MusicAffectPsychophysiology2019,3.0.5,60.229866684544305,
To what extent did the music make you feel ,GUILTY,30MonoWAV/30MonoS3.wav,1,1,3,11,,,,,1,10,26,10,0,8,8,5,,,,,,,,,1,1.2513811640019412,,,014,001,2019_May_09_1306,MusicAffectPsychophysiology2019,3.0.5,60.229866684544305,
To what extent did the music make you feel ,ALERT,30MonoWAV/30MonoS3.wav,1,1,3,11,,,,,1,10,26,10,0,9,9,8,,,,,,,,,3,1.7007137069995224,,,014,001,2019_May_09_1306,MusicAffectPsychophysiology2019,3.0.5,60.229866684544305,
To what extent did the music make you feel ,ANXIOUS ,30MonoWAV/30MonoS3.wav,1,1,3,11,,,,,1,10,26,10,0,10,10,1,,,,,,,,,3,1.351706309000292,,,014,001,2019_May_09_1306,MusicAffectPsychophysiology2019,3.0.5,60.229866684544305,
To what extent did the music make you feel ,EXCITED,30MonoWAV/30MonoS3.wav,1,1,3,11,,,,,1,10,26,10,0,11,11,7,,,,,,,,,1,1.6019282519991975,,,014,001,2019_May_09_1306,MusicAffectPsychophysiology2019,3.0.5,60.229866684544305,
,,30MonoWAV/30MonoS3.wav,1,1,3,11,,,,,1,10,26,10,,,,,,,,,,,,,,,,,014,001,2019_May_09_1306,MusicAffectPsychophysiology2019,3.0.5,60.229866684544305,
To what extent did the music make you feel ,HAPPY,30MonoWAV/30MonoT2.wav,2,1,4,14,,,,,1,11,27,13,0,0,0,6,,,3,3.6023890530013887,3,3.1514075320010306,2,2.801577879999968,3,2.684905701000389,,,014,001,2019_May_09_1306,MusicAffectPsychophysiology2019,3.0.5,60.229866684544305,
To what extent did the music make you feel ,ANXIOUS ,30MonoWAV/30MonoT2.wav,2,1,4,14,,,,,1,11,27,13,0,1,1,1,,,,,,,,,2,1.651737583000795,,,014,001,2019_May_09_1306,MusicAffectPsychophysiology2019,3.0.5,60.229866684544305,
To what extent did the music make you feel ,ANGRY,30MonoWAV/30MonoT2.wav,2,1,4,14,,,,,1,11,27,13,0,2,2,2,,,,,,,,,1,0.9173810280008183,,,014,001,2019_May_09_1306,MusicAffectPsychophysiology2019,3.0.5,60.229866684544305,
To what extent did the music make you feel ,TENDER,30MonoWAV/30MonoT2.wav,2,1,4,14,,,,,1,11,27,13,0,3,3,10,,,,,,,,,4,1.9669302530019195,,,014,001,2019_May_09_1306,MusicAffectPsychophysiology2019,3.0.5,60.229866684544305,
To what extent did the music make you feel ,SCARED,30MonoWAV/30MonoT2.wav,2,1,4,14,,,,,1,11,27,13,0,4,4,11,,,,,,,,,1,2.002122148998751,,,014,001,2019_May_09_1306,MusicAffectPsychophysiology2019,3.0.5,60.229866684544305,
To what extent did the music make you feel ,EXCITED,30MonoWAV/30MonoT2.wav,2,1,4,14,,,,,1,11,27,13,0,5,5,7,,,,,,,,,1,1.3515472510007385,,,014,001,2019_May_09_1306,MusicAffectPsychophysiology2019,3.0.5,60.229866684544305,
To what extent did the music make you feel ,ALERT,30MonoWAV/30MonoT2.wav,2,1,4,14,,,,,1,11,27,13,0,6,6,8,,,,,,,,,2,1.9681916189983895,,,014,001,2019_May_09_1306,MusicAffectPsychophysiology2019,3.0.5,60.229866684544305,
To what extent did the music make you feel ,SAD,30MonoWAV/30MonoT2.wav,2,1,4,14,,,,,1,11,27,13,0,7,7,0,,,,,,,,,1,3.251664276001975,,,014,001,2019_May_09_1306,MusicAffectPsychophysiology2019,3.0.5,60.229866684544305,
To what extent did the music make you feel ,ASHAMED,30MonoWAV/30MonoT2.wav,2,1,4,14,,,,,1,11,27,13,0,8,8,4,,,,,,,,,1,1.2516021039991756,,,014,001,2019_May_09_1306,MusicAffectPsychophysiology2019,3.0.5,60.229866684544305,
To what extent did the music make you feel ,ACTIVE,30MonoWAV/30MonoT2.wav,2,1,4,14,,,,,1,11,27,13,0,9,9,9,,,,,,,,,1,1.034859327999584,,,014,001,2019_May_09_1306,MusicAffectPsychophysiology2019,3.0.5,60.229866684544305,
To what extent did the music make you feel ,GUILTY,30MonoWAV/30MonoT2.wav,2,1,4,14,,,,,1,11,27,13,0,10,10,5,,,,,,,,,1,0.6517710719999741,,,014,001,2019_May_09_1306,MusicAffectPsychophysiology2019,3.0.5,60.229866684544305,
To what extent did the music make you feel ,FRUSTRATED,30MonoWAV/30MonoT2.wav,2,1,4,14,,,,,1,11,27,13,0,11,11,3,,,,,,,,,1,0.85199466999984,,,014,001,2019_May_09_1306,MusicAffectPsychophysiology2019,3.0.5,60.229866684544305,
,,30MonoWAV/30MonoT2.wav,2,1,4,14,,,,,1,11,27,13,,,,,,,,,,,,,,,,,014,001,2019_May_09_1306,MusicAffectPsychophysiology2019,3.0.5,60.229866684544305,
To what extent did the music make you feel ,ALERT,30MonoWAV/30MonoH4.wav,2,2,1,8,,,,,1,12,28,7,0,0,0,8,,,5,2.9550500540026405,5,1.4704912430024706,5,1.1195046630018624,4,1.9590222759979952,,,014,001,2019_May_09_1306,MusicAffectPsychophysiology2019,3.0.5,60.229866684544305,
To what extent did the music make you feel ,FRUSTRATED,30MonoWAV/30MonoH4.wav,2,2,1,8,,,,,1,12,28,7,0,1,1,3,,,,,,,,,1,1.251179589999083,,,014,001,2019_May_09_1306,MusicAffectPsychophysiology2019,3.0.5,60.229866684544305,
To what extent did the music make you feel ,SCARED,30MonoWAV/30MonoH4.wav,2,2,1,8,,,,,1,12,28,7,0,2,2,11,,,,,,,,,1,1.1176017359975958,,,014,001,2019_May_09_1306,MusicAffectPsychophysiology2019,3.0.5,60.229866684544305,
To what extent did the music make you feel ,ANGRY,30MonoWAV/30MonoH4.wav,2,2,1,8,,,,,1,12,28,7,0,3,3,2,,,,,,,,,1,0.7365194149970193,,,014,001,2019_May_09_1306,MusicAffectPsychophysiology2019,3.0.5,60.229866684544305,
To what extent did the music make you feel ,EXCITED,30MonoWAV/30MonoH4.wav,2,2,1,8,,,,,1,12,28,7,0,4,4,7,,,,,,,,,5,1.6194032710009196,,,014,001,2019_May_09_1306,MusicAffectPsychophysiology2019,3.0.5,60.229866684544305,
To what extent did the music make you feel ,ACTIVE,30MonoWAV/30MonoH4.wav,2,2,1,8,,,,,1,12,28,7,0,5,5,9,,,,,,,,,4,1.0848054369998863,,,014,001,2019_May_09_1306,MusicAffectPsychophysiology2019,3.0.5,60.229866684544305,
To what extent did the music make you feel ,ANXIOUS ,30MonoWAV/30MonoH4.wav,2,2,1,8,,,,,1,12,28,7,0,6,6,1,,,,,,,,,1,1.0852194700019027,,,014,001,2019_May_09_1306,MusicAffectPsychophysiology2019,3.0.5,60.229866684544305,
To what extent did the music make you feel ,GUILTY,30MonoWAV/30MonoH4.wav,2,2,1,8,,,,,1,12,28,7,0,7,7,5,,,,,,,,,1,1.0514318870009447,,,014,001,2019_May_09_1306,MusicAffectPsychophysiology2019,3.0.5,60.229866684544305,
To what extent did the music make you feel ,SAD,30MonoWAV/30MonoH4.wav,2,2,1,8,,,,,1,12,28,7,0,8,8,0,,,,,,,,,1,0.967839823999384,,,014,001,2019_May_09_1306,MusicAffectPsychophysiology2019,3.0.5,60.229866684544305,
To what extent did the music make you feel ,HAPPY,30MonoWAV/30MonoH4.wav,2,2,1,8,,,,,1,12,28,7,0,9,9,6,,,,,,,,,5,1.4692543309975008,,,014,001,2019_May_09_1306,MusicAffectPsychophysiology2019,3.0.5,60.229866684544305,
To what extent did the music make you feel ,TENDER,30MonoWAV/30MonoH4.wav,2,2,1,8,,,,,1,12,28,7,0,10,10,10,,,,,,,,,3,1.7835761470014404,,,014,001,2019_May_09_1306,MusicAffectPsychophysiology2019,3.0.5,60.229866684544305,
To what extent did the music make you feel ,ASHAMED,30MonoWAV/30MonoH4.wav,2,2,1,8,,,,,1,12,28,7,0,11,11,4,,,,,,,,,1,1.0020269840024412,,,014,001,2019_May_09_1306,MusicAffectPsychophysiology2019,3.0.5,60.229866684544305,
,,30MonoWAV/30MonoH4.wav,2,2,1,8,,,,,1,12,28,7,,,,,,,,,,,,,,,,,014,001,2019_May_09_1306,MusicAffectPsychophysiology2019,3.0.5,60.229866684544305,
To what extent did the music make you feel ,ACTIVE,30MonoWAV/30MonoS2.wav,1,1,3,10,,,,,1,13,29,9,0,0,0,9,,,1,2.889645056999143,1,1.303729266001028,2,1.4700608409984852,1,3.989910691001569,,,014,001,2019_May_09_1306,MusicAffectPsychophysiology2019,3.0.5,60.229866684544305,
To what extent did the music make you feel ,ANGRY,30MonoWAV/30MonoS2.wav,1,1,3,10,,,,,1,13,29,9,0,1,1,2,,,,,,,,,1,1.106943319999118,,,014,001,2019_May_09_1306,MusicAffectPsychophysiology2019,3.0.5,60.229866684544305,
To what extent did the music make you feel ,ALERT,30MonoWAV/30MonoS2.wav,1,1,3,10,,,,,1,13,29,9,0,2,2,8,,,,,,,,,3,1.5510767669984489,,,014,001,2019_May_09_1306,MusicAffectPsychophysiology2019,3.0.5,60.229866684544305,
To what extent did the music make you feel ,TENDER,30MonoWAV/30MonoS2.wav,1,1,3,10,,,,,1,13,29,9,0,3,3,10,,,,,,,,,5,2.1014071999998123,,,014,001,2019_May_09_1306,MusicAffectPsychophysiology2019,3.0.5,60.229866684544305,
To what extent did the music make you feel ,ANXIOUS ,30MonoWAV/30MonoS2.wav,1,1,3,10,,,,,1,13,29,9,0,4,4,1,,,,,,,,,2,3.48398543499934,,,014,001,2019_May_09_1306,MusicAffectPsychophysiology2019,3.0.5,60.229866684544305,
To what extent did the music make you feel ,EXCITED,30MonoWAV/30MonoS2.wav,1,1,3,10,,,,,1,13,29,9,0,5,5,7,,,,,,,,,1,0.9521110229979968,,,014,001,2019_May_09_1306,MusicAffectPsychophysiology2019,3.0.5,60.229866684544305,
To what extent did the music make you feel ,ASHAMED,30MonoWAV/30MonoS2.wav,1,1,3,10,,,,,1,13,29,9,0,6,6,4,,,,,,,,,2,1.4185308909982268,,,014,001,2019_May_09_1306,MusicAffectPsychophysiology2019,3.0.5,60.229866684544305,
To what extent did the music make you feel ,SAD,30MonoWAV/30MonoS2.wav,1,1,3,10,,,,,1,13,29,9,0,7,7,0,,,,,,,,,5,2.1513892600014515,,,014,001,2019_May_09_1306,MusicAffectPsychophysiology2019,3.0.5,60.229866684544305,
To what extent did the music make you feel ,FRUSTRATED,30MonoWAV/30MonoS2.wav,1,1,3,10,,,,,1,13,29,9,0,8,8,3,,,,,,,,,1,1.4517016839999997,,,014,001,2019_May_09_1306,MusicAffectPsychophysiology2019,3.0.5,60.229866684544305,
To what extent did the music make you feel ,SCARED,30MonoWAV/30MonoS2.wav,1,1,3,10,,,,,1,13,29,9,0,9,9,11,,,,,,,,,1,2.2686654579993046,,,014,001,2019_May_09_1306,MusicAffectPsychophysiology2019,3.0.5,60.229866684544305,
To what extent did the music make you feel ,GUILTY,30MonoWAV/30MonoS2.wav,1,1,3,10,,,,,1,13,29,9,0,10,10,5,,,,,,,,,2,6.724640554999496,,,014,001,2019_May_09_1306,MusicAffectPsychophysiology2019,3.0.5,60.229866684544305,
To what extent did the music make you feel ,HAPPY,30MonoWAV/30MonoS2.wav,1,1,3,10,,,,,1,13,29,9,0,11,11,6,,,,,,,,,1,1.2370633079990512,,,014,001,2019_May_09_1306,MusicAffectPsychophysiology2019,3.0.5,60.229866684544305,
,,30MonoWAV/30MonoS2.wav,1,1,3,10,,,,,1,13,29,9,,,,,,,,,,,,,,,,,014,001,2019_May_09_1306,MusicAffectPsychophysiology2019,3.0.5,60.229866684544305,
To what extent did the music make you feel ,ASHAMED,30MonoWAV/30MonoS1.wav,1,1,3,9,,,,,1,14,30,8,0,0,0,4,,,1,3.118410920997121,2,1.821241440000449,5,1.9871893250019639,1,1.6369704400021874,,,014,001,2019_May_09_1306,MusicAffectPsychophysiology2019,3.0.5,60.229866684544305,
To what extent did the music make you feel ,SCARED,30MonoWAV/30MonoS1.wav,1,1,3,9,,,,,1,14,30,8,0,1,1,11,,,,,,,,,1,1.9702293999980611,,,014,001,2019_May_09_1306,MusicAffectPsychophysiology2019,3.0.5,60.229866684544305,
To what extent did the music make you feel ,FRUSTRATED,30MonoWAV/30MonoS1.wav,1,1,3,9,,,,,1,14,30,8,0,2,2,3,,,,,,,,,2,2.308917908001604,,,014,001,2019_May_09_1306,MusicAffectPsychophysiology2019,3.0.5,60.229866684544305,
To what extent did the music make you feel ,SAD,30MonoWAV/30MonoS1.wav,1,1,3,9,,,,,1,14,30,8,0,3,3,0,,,,,,,,,4,1.5354372129986587,,,014,001,2019_May_09_1306,MusicAffectPsychophysiology2019,3.0.5,60.229866684544305,
To what extent did the music make you feel ,ANXIOUS ,30MonoWAV/30MonoS1.wav,1,1,3,9,,,,,1,14,30,8,0,4,4,1,,,,,,,,,1,1.4689638169984391,,,014,001,2019_May_09_1306,MusicAffectPsychophysiology2019,3.0.5,60.229866684544305,
To what extent did the music make you feel ,HAPPY,30MonoWAV/30MonoS1.wav,1,1,3,9,,,,,1,14,30,8,0,5,5,6,,,,,,,,,1,0.8864221039984841,,,014,001,2019_May_09_1306,MusicAffectPsychophysiology2019,3.0.5,60.229866684544305,
To what extent did the music make you feel ,TENDER,30MonoWAV/30MonoS1.wav,1,1,3,9,,,,,1,14,30,8,0,6,6,10,,,,,,,,,5,1.4859481700004835,,,014,001,2019_May_09_1306,MusicAffectPsychophysiology2019,3.0.5,60.229866684544305,
To what extent did the music make you feel ,EXCITED,30MonoWAV/30MonoS1.wav,1,1,3,9,,,,,1,14,30,8,0,7,7,7,,,,,,,,,1,1.168666932000633,,,014,001,2019_May_09_1306,MusicAffectPsychophysiology2019,3.0.5,60.229866684544305,
To what extent did the music make you feel ,GUILTY,30MonoWAV/30MonoS1.wav,1,1,3,9,,,,,1,14,30,8,0,8,8,5,,,,,,,,,2,1.3684790410006826,,,014,001,2019_May_09_1306,MusicAffectPsychophysiology2019,3.0.5,60.229866684544305,
To what extent did the music make you feel ,ACTIVE,30MonoWAV/30MonoS1.wav,1,1,3,9,,,,,1,14,30,8,0,9,9,9,,,,,,,,,1,1.5031675339996582,,,014,001,2019_May_09_1306,MusicAffectPsychophysiology2019,3.0.5,60.229866684544305,
To what extent did the music make you feel ,ANGRY,30MonoWAV/30MonoS1.wav,1,1,3,9,,,,,1,14,30,8,0,10,10,2,,,,,,,,,1,0.9664545699997689,,,014,001,2019_May_09_1306,MusicAffectPsychophysiology2019,3.0.5,60.229866684544305,
To what extent did the music make you feel ,ALERT,30MonoWAV/30MonoS1.wav,1,1,3,9,,,,,1,14,30,8,0,11,11,8,,,,,,,,,3,1.7029206990009698,,,014,001,2019_May_09_1306,MusicAffectPsychophysiology2019,3.0.5,60.229866684544305,
,,30MonoWAV/30MonoS1.wav,1,1,3,9,,,,,1,14,30,8,,,,,,,,,,,,,,,,,014,001,2019_May_09_1306,MusicAffectPsychophysiology2019,3.0.5,60.229866684544305,
To what extent did the music make you feel ,HAPPY,30MonoWAV/30MonoH3.wav,2,2,1,7,,,,,1,15,31,6,0,0,0,6,,,4,2.0369095940004627,5,2.53510570599974,5,0.984136914001283,5,1.0691187509983138,,,014,001,2019_May_09_1306,MusicAffectPsychophysiology2019,3.0.5,60.229866684544305,
To what extent did the music make you feel ,GUILTY,30MonoWAV/30MonoH3.wav,2,2,1,7,,,,,1,15,31,6,0,1,1,5,,,,,,,,,1,1.0190858519999892,,,014,001,2019_May_09_1306,MusicAffectPsychophysiology2019,3.0.5,60.229866684544305,
To what extent did the music make you feel ,ALERT,30MonoWAV/30MonoH3.wav,2,2,1,7,,,,,1,15,31,6,0,2,2,8,,,,,,,,,4,1.934483093999006,,,014,001,2019_May_09_1306,MusicAffectPsychophysiology2019,3.0.5,60.229866684544305,
To what extent did the music make you feel ,EXCITED,30MonoWAV/30MonoH3.wav,2,2,1,7,,,,,1,15,31,6,0,3,3,7,,,,,,,,,5,2.185673032003251,,,014,001,2019_May_09_1306,MusicAffectPsychophysiology2019,3.0.5,60.229866684544305,
To what extent did the music make you feel ,SAD,30MonoWAV/30MonoH3.wav,2,2,1,7,,,,,1,15,31,6,0,4,4,0,,,,,,,,,1,1.466795659998752,,,014,001,2019_May_09_1306,MusicAffectPsychophysiology2019,3.0.5,60.229866684544305,
To what extent did the music make you feel ,TENDER,30MonoWAV/30MonoH3.wav,2,2,1,7,,,,,1,15,31,6,0,5,5,10,,,,,,,,,3,1.3689186259980488,,,014,001,2019_May_09_1306,MusicAffectPsychophysiology2019,3.0.5,60.229866684544305,
To what extent did the music make you feel ,ACTIVE,30MonoWAV/30MonoH3.wav,2,2,1,7,,,,,1,15,31,6,0,6,6,9,,,,,,,,,4,1.3852015459997347,,,014,001,2019_May_09_1306,MusicAffectPsychophysiology2019,3.0.5,60.229866684544305,
To what extent did the music make you feel ,FRUSTRATED,30MonoWAV/30MonoH3.wav,2,2,1,7,,,,,1,15,31,6,0,7,7,3,,,,,,,,,1,1.1690623389986285,,,014,001,2019_May_09_1306,MusicAffectPsychophysiology2019,3.0.5,60.229866684544305,
To what extent did the music make you feel ,SCARED,30MonoWAV/30MonoH3.wav,2,2,1,7,,,,,1,15,31,6,0,8,8,11,,,,,,,,,1,1.167734227998153,,,014,001,2019_May_09_1306,MusicAffectPsychophysiology2019,3.0.5,60.229866684544305,
To what extent did the music make you feel ,ANXIOUS ,30MonoWAV/30MonoH3.wav,2,2,1,7,,,,,1,15,31,6,0,9,9,1,,,,,,,,,1,0.9688177409989294,,,014,001,2019_May_09_1306,MusicAffectPsychophysiology2019,3.0.5,60.229866684544305,
To what extent did the music make you feel ,ASHAMED,30MonoWAV/30MonoH3.wav,2,2,1,7,,,,,1,15,31,6,0,10,10,4,,,,,,,,,1,0.7676766629992926,,,014,001,2019_May_09_1306,MusicAffectPsychophysiology2019,3.0.5,60.229866684544305,
To what extent did the music make you feel ,ANGRY,30MonoWAV/30MonoH3.wav,2,2,1,7,,,,,1,15,31,6,0,11,11,2,,,,,,,,,1,0.8351364480004122,,,014,001,2019_May_09_1306,MusicAffectPsychophysiology2019,3.0.5,60.229866684544305,
,,30MonoWAV/30MonoH3.wav,2,2,1,7,,,,,1,15,31,6,,,,,,,,,,,,,,,,,014,001,2019_May_09_1306,MusicAffectPsychophysiology2019,3.0.5,60.229866684544305,
,,,,,,,,,,,,,,,,,,,,,,,,,,,,,space,3.565470183999423,014,001,2019_May_09_1306,MusicAffectPsychophysiology2019,3.0.5,60.229866684544305,
