Instruction,Word,song,valence,arousal,affectcat,songmark,pracwords.thisRepN,pracwords.thisTrialN,pracwords.thisN,pracwords.thisIndex,songtrials.thisRepN,songtrials.thisTrialN,songtrials.thisN,songtrials.thisIndex,words.thisRepN,words.thisTrialN,words.thisN,words.thisIndex,begin.keys,begin.rt,arousalkey.keys,arousalkey.rt,valencekey.keys,valencekey.rt,likekey.keys,likekey.rt,WordResponse.keys,WordResponse.rt,participant,session,date,expName,psychopyVersion,frameRate,
,,,,,,,,,,,,,,,,,,,k,12.370060445999115,,,,,,,,,015,001,2019_May_09_1414,MusicAffectPsychophysiology2019,3.0.5,60.081712931211385,
,,,,,,,,,,,,,,,,,,,,,3,5.7186796339992725,,,,,,,015,001,2019_May_09_1414,MusicAffectPsychophysiology2019,3.0.5,60.081712931211385,
,,,,,,,,,,,,,,,,,,,,,,,4,4.985442697998224,,,,,015,001,2019_May_09_1414,MusicAffectPsychophysiology2019,3.0.5,60.081712931211385,
,,,,,,,,,,,,,,,,,,,,,,,,,3,2.7507462020003004,,,015,001,2019_May_09_1414,MusicAffectPsychophysiology2019,3.0.5,60.081712931211385,
To what extent did the music make you feel ,ANGRY,,,,,,0,0,0,2,,,,,,,,,,,,,,,,,1,3.6864775750000263,015,001,2019_May_09_1414,MusicAffectPsychophysiology2019,3.0.5,60.081712931211385,
To what extent did the music make you feel ,ACTIVE,,,,,,0,1,1,9,,,,,,,,,,,,,,,,,2,2.4346614130008675,015,001,2019_May_09_1414,MusicAffectPsychophysiology2019,3.0.5,60.081712931211385,
To what extent did the music make you feel ,ALERT,,,,,,0,2,2,8,,,,,,,,,,,,,,,,,2,2.884682616000646,015,001,2019_May_09_1414,MusicAffectPsychophysiology2019,3.0.5,60.081712931211385,
To what extent did the music make you feel ,ASHAMED,,,,,,0,3,3,4,,,,,,,,,,,,,,,,,1,1.866553258998465,015,001,2019_May_09_1414,MusicAffectPsychophysiology2019,3.0.5,60.081712931211385,
To what extent did the music make you feel ,GUILTY,,,,,,0,4,4,5,,,,,,,,,,,,,,,,,1,1.0016963160014711,015,001,2019_May_09_1414,MusicAffectPsychophysiology2019,3.0.5,60.081712931211385,
To what extent did the music make you feel ,SAD,,,,,,0,5,5,0,,,,,,,,,,,,,,,,,1,1.6659755179971398,015,001,2019_May_09_1414,MusicAffectPsychophysiology2019,3.0.5,60.081712931211385,
To what extent did the music make you feel ,HAPPY,,,,,,0,6,6,6,,,,,,,,,,,,,,,,,3,2.435165667997353,015,001,2019_May_09_1414,MusicAffectPsychophysiology2019,3.0.5,60.081712931211385,
To what extent did the music make you feel ,EXCITED,,,,,,0,7,7,7,,,,,,,,,,,,,,,,,3,2.500934646999667,015,001,2019_May_09_1414,MusicAffectPsychophysiology2019,3.0.5,60.081712931211385,
To what extent did the music make you feel ,SCARED,,,,,,0,8,8,11,,,,,,,,,,,,,,,,,1,1.6848448769997049,015,001,2019_May_09_1414,MusicAffectPsychophysiology2019,3.0.5,60.081712931211385,
To what extent did the music make you feel ,ANXIOUS ,,,,,,0,9,9,1,,,,,,,,,,,,,,,,,1,4.4845248669989815,015,001,2019_May_09_1414,MusicAffectPsychophysiology2019,3.0.5,60.081712931211385,
To what extent did the music make you feel ,TENDER,,,,,,0,10,10,10,,,,,,,,,,,,,,,,,2,2.4854346299980534,015,001,2019_May_09_1414,MusicAffectPsychophysiology2019,3.0.5,60.081712931211385,
To what extent did the music make you feel ,FRUSTRATED,,,,,,0,11,11,3,,,,,,,,,,,,,,,,,1,0.8514262759999838,015,001,2019_May_09_1414,MusicAffectPsychophysiology2019,3.0.5,60.081712931211385,
To what extent did the music make you feel ,ALERT,30MonoWAV/30MonoS4.wav,1,1,3,12,,,,,0,0,0,11,0,0,0,8,,,1,6.2595707190012035,1,5.302399037998839,2,3.6008911590033676,1,2.0678428200008057,015,001,2019_May_09_1414,MusicAffectPsychophysiology2019,3.0.5,60.081712931211385,
To what extent did the music make you feel ,TENDER,30MonoWAV/30MonoS4.wav,1,1,3,12,,,,,0,0,0,11,0,1,1,10,,,,,,,,,3,2.7174684849996993,015,001,2019_May_09_1414,MusicAffectPsychophysiology2019,3.0.5,60.081712931211385,
To what extent did the music make you feel ,ACTIVE,30MonoWAV/30MonoS4.wav,1,1,3,12,,,,,0,0,0,11,0,2,2,9,,,,,,,,,1,1.402110832001199,015,001,2019_May_09_1414,MusicAffectPsychophysiology2019,3.0.5,60.081712931211385,
To what extent did the music make you feel ,GUILTY,30MonoWAV/30MonoS4.wav,1,1,3,12,,,,,0,0,0,11,0,3,3,5,,,,,,,,,1,1.2685803630010923,015,001,2019_May_09_1414,MusicAffectPsychophysiology2019,3.0.5,60.081712931211385,
To what extent did the music make you feel ,EXCITED,30MonoWAV/30MonoS4.wav,1,1,3,12,,,,,0,0,0,11,0,4,4,7,,,,,,,,,1,1.9524595209986728,015,001,2019_May_09_1414,MusicAffectPsychophysiology2019,3.0.5,60.081712931211385,
To what extent did the music make you feel ,SAD,30MonoWAV/30MonoS4.wav,1,1,3,12,,,,,0,0,0,11,0,5,5,0,,,,,,,,,4,2.3516482140003063,015,001,2019_May_09_1414,MusicAffectPsychophysiology2019,3.0.5,60.081712931211385,
To what extent did the music make you feel ,SCARED,30MonoWAV/30MonoS4.wav,1,1,3,12,,,,,0,0,0,11,0,6,6,11,,,,,,,,,2,2.40152998999838,015,001,2019_May_09_1414,MusicAffectPsychophysiology2019,3.0.5,60.081712931211385,
To what extent did the music make you feel ,ANXIOUS ,30MonoWAV/30MonoS4.wav,1,1,3,12,,,,,0,0,0,11,0,7,7,1,,,,,,,,,1,1.7681876579990785,015,001,2019_May_09_1414,MusicAffectPsychophysiology2019,3.0.5,60.081712931211385,
To what extent did the music make you feel ,FRUSTRATED,30MonoWAV/30MonoS4.wav,1,1,3,12,,,,,0,0,0,11,0,8,8,3,,,,,,,,,1,0.8845979170000646,015,001,2019_May_09_1414,MusicAffectPsychophysiology2019,3.0.5,60.081712931211385,
To what extent did the music make you feel ,ANGRY,30MonoWAV/30MonoS4.wav,1,1,3,12,,,,,0,0,0,11,0,9,9,2,,,,,,,,,1,0.9017382620004355,015,001,2019_May_09_1414,MusicAffectPsychophysiology2019,3.0.5,60.081712931211385,
To what extent did the music make you feel ,HAPPY,30MonoWAV/30MonoS4.wav,1,1,3,12,,,,,0,0,0,11,0,10,10,6,,,,,,,,,1,2.351359747997776,015,001,2019_May_09_1414,MusicAffectPsychophysiology2019,3.0.5,60.081712931211385,
To what extent did the music make you feel ,ASHAMED,30MonoWAV/30MonoS4.wav,1,1,3,12,,,,,0,0,0,11,0,11,11,4,,,,,,,,,1,0.7684861880006792,015,001,2019_May_09_1414,MusicAffectPsychophysiology2019,3.0.5,60.081712931211385,
,,30MonoWAV/30MonoS4.wav,1,1,3,12,,,,,0,0,0,11,,,,,,,,,,,,,,,015,001,2019_May_09_1414,MusicAffectPsychophysiology2019,3.0.5,60.081712931211385,
To what extent did the music make you feel ,FRUSTRATED,30MonoWAV/30MonoT4.wav,2,1,4,16,,,,,0,1,1,15,0,0,0,3,,,2,3.601597966000554,3,2.934056516001874,3,2.087210645000596,1,1.4334444449996226,015,001,2019_May_09_1414,MusicAffectPsychophysiology2019,3.0.5,60.081712931211385,
To what extent did the music make you feel ,TENDER,30MonoWAV/30MonoT4.wav,2,1,4,16,,,,,0,1,1,15,0,1,1,10,,,,,,,,,2,2.1020268249994842,015,001,2019_May_09_1414,MusicAffectPsychophysiology2019,3.0.5,60.081712931211385,
To what extent did the music make you feel ,ALERT,30MonoWAV/30MonoT4.wav,2,1,4,16,,,,,0,1,1,15,0,2,2,8,,,,,,,,,1,1.552604157001042,015,001,2019_May_09_1414,MusicAffectPsychophysiology2019,3.0.5,60.081712931211385,
To what extent did the music make you feel ,ANXIOUS ,30MonoWAV/30MonoT4.wav,2,1,4,16,,,,,0,1,1,15,0,3,3,1,,,,,,,,,1,1.034275856000022,015,001,2019_May_09_1414,MusicAffectPsychophysiology2019,3.0.5,60.081712931211385,
To what extent did the music make you feel ,ACTIVE,30MonoWAV/30MonoT4.wav,2,1,4,16,,,,,0,1,1,15,0,4,4,9,,,,,,,,,1,1.1352443020005012,015,001,2019_May_09_1414,MusicAffectPsychophysiology2019,3.0.5,60.081712931211385,
To what extent did the music make you feel ,ANGRY,30MonoWAV/30MonoT4.wav,2,1,4,16,,,,,0,1,1,15,0,5,5,2,,,,,,,,,1,0.7198640179994982,015,001,2019_May_09_1414,MusicAffectPsychophysiology2019,3.0.5,60.081712931211385,
To what extent did the music make you feel ,SCARED,30MonoWAV/30MonoT4.wav,2,1,4,16,,,,,0,1,1,15,0,6,6,11,,,,,,,,,1,1.068472027000098,015,001,2019_May_09_1414,MusicAffectPsychophysiology2019,3.0.5,60.081712931211385,
To what extent did the music make you feel ,ASHAMED,30MonoWAV/30MonoT4.wav,2,1,4,16,,,,,0,1,1,15,0,7,7,4,,,,,,,,,1,0.56845634000274,015,001,2019_May_09_1414,MusicAffectPsychophysiology2019,3.0.5,60.081712931211385,
To what extent did the music make you feel ,HAPPY,30MonoWAV/30MonoT4.wav,2,1,4,16,,,,,0,1,1,15,0,8,8,6,,,,,,,,,3,1.9671780390017375,015,001,2019_May_09_1414,MusicAffectPsychophysiology2019,3.0.5,60.081712931211385,
To what extent did the music make you feel ,GUILTY,30MonoWAV/30MonoT4.wav,2,1,4,16,,,,,0,1,1,15,0,9,9,5,,,,,,,,,1,1.0197765999982948,015,001,2019_May_09_1414,MusicAffectPsychophysiology2019,3.0.5,60.081712931211385,
To what extent did the music make you feel ,SAD,30MonoWAV/30MonoT4.wav,2,1,4,16,,,,,0,1,1,15,0,10,10,0,,,,,,,,,1,3.684432690999529,015,001,2019_May_09_1414,MusicAffectPsychophysiology2019,3.0.5,60.081712931211385,
To what extent did the music make you feel ,EXCITED,30MonoWAV/30MonoT4.wav,2,1,4,16,,,,,0,1,1,15,0,11,11,7,,,,,,,,,2,1.6687698300011107,015,001,2019_May_09_1414,MusicAffectPsychophysiology2019,3.0.5,60.081712931211385,
,,30MonoWAV/30MonoT4.wav,2,1,4,16,,,,,0,1,1,15,,,,,,,,,,,,,,,015,001,2019_May_09_1414,MusicAffectPsychophysiology2019,3.0.5,60.081712931211385,
To what extent did the music make you feel ,ALERT,30MonoWAV/30MonoF1.wav,1,2,2,1,,,,,0,2,2,0,0,0,0,8,,,2,4.106200666999939,1,2.1521177729991905,1,2.401261187998898,4,4.7178958609983965,015,001,2019_May_09_1414,MusicAffectPsychophysiology2019,3.0.5,60.081712931211385,
To what extent did the music make you feel ,ANGRY,30MonoWAV/30MonoF1.wav,1,2,2,1,,,,,0,2,2,0,0,1,1,2,,,,,,,,,2,1.8509502229971986,015,001,2019_May_09_1414,MusicAffectPsychophysiology2019,3.0.5,60.081712931211385,
To what extent did the music make you feel ,EXCITED,30MonoWAV/30MonoF1.wav,1,2,2,1,,,,,0,2,2,0,0,2,2,7,,,,,,,,,1,1.4026515639998252,015,001,2019_May_09_1414,MusicAffectPsychophysiology2019,3.0.5,60.081712931211385,
To what extent did the music make you feel ,ANXIOUS ,30MonoWAV/30MonoF1.wav,1,2,2,1,,,,,0,2,2,0,0,3,3,1,,,,,,,,,4,2.5342597880007816,015,001,2019_May_09_1414,MusicAffectPsychophysiology2019,3.0.5,60.081712931211385,
To what extent did the music make you feel ,ACTIVE,30MonoWAV/30MonoF1.wav,1,2,2,1,,,,,0,2,2,0,0,4,4,9,,,,,,,,,1,2.1516365700008464,015,001,2019_May_09_1414,MusicAffectPsychophysiology2019,3.0.5,60.081712931211385,
To what extent did the music make you feel ,HAPPY,30MonoWAV/30MonoF1.wav,1,2,2,1,,,,,0,2,2,0,0,5,5,6,,,,,,,,,1,1.4187648739971337,015,001,2019_May_09_1414,MusicAffectPsychophysiology2019,3.0.5,60.081712931211385,
To what extent did the music make you feel ,GUILTY,30MonoWAV/30MonoF1.wav,1,2,2,1,,,,,0,2,2,0,0,6,6,5,,,,,,,,,2,1.601614088001952,015,001,2019_May_09_1414,MusicAffectPsychophysiology2019,3.0.5,60.081712931211385,
To what extent did the music make you feel ,SCARED,30MonoWAV/30MonoF1.wav,1,2,2,1,,,,,0,2,2,0,0,7,7,11,,,,,,,,,4,3.3349132900002587,015,001,2019_May_09_1414,MusicAffectPsychophysiology2019,3.0.5,60.081712931211385,
To what extent did the music make you feel ,SAD,30MonoWAV/30MonoF1.wav,1,2,2,1,,,,,0,2,2,0,0,8,8,0,,,,,,,,,1,1.7355471869996109,015,001,2019_May_09_1414,MusicAffectPsychophysiology2019,3.0.5,60.081712931211385,
To what extent did the music make you feel ,TENDER,30MonoWAV/30MonoF1.wav,1,2,2,1,,,,,0,2,2,0,0,9,9,10,,,,,,,,,1,0.9671802850025415,015,001,2019_May_09_1414,MusicAffectPsychophysiology2019,3.0.5,60.081712931211385,
To what extent did the music make you feel ,ASHAMED,30MonoWAV/30MonoF1.wav,1,2,2,1,,,,,0,2,2,0,0,10,10,4,,,,,,,,,1,1.5363814500014996,015,001,2019_May_09_1414,MusicAffectPsychophysiology2019,3.0.5,60.081712931211385,
To what extent did the music make you feel ,FRUSTRATED,30MonoWAV/30MonoF1.wav,1,2,2,1,,,,,0,2,2,0,0,11,11,3,,,,,,,,,1,1.7349544199969387,015,001,2019_May_09_1414,MusicAffectPsychophysiology2019,3.0.5,60.081712931211385,
,,30MonoWAV/30MonoF1.wav,1,2,2,1,,,,,0,2,2,0,,,,,,,,,,,,,,,015,001,2019_May_09_1414,MusicAffectPsychophysiology2019,3.0.5,60.081712931211385,
To what extent did the music make you feel ,ACTIVE,30MonoWAV/30MonoS3.wav,1,1,3,11,,,,,0,3,3,10,0,0,0,9,,,1,6.958075694001309,1,3.2562411860017164,2,1.7381218260015885,1,1.3709613130013167,015,001,2019_May_09_1414,MusicAffectPsychophysiology2019,3.0.5,60.081712931211385,
To what extent did the music make you feel ,ANGRY,30MonoWAV/30MonoS3.wav,1,1,3,11,,,,,0,3,3,10,0,1,1,2,,,,,,,,,1,1.5214029319977271,015,001,2019_May_09_1414,MusicAffectPsychophysiology2019,3.0.5,60.081712931211385,
To what extent did the music make you feel ,EXCITED,30MonoWAV/30MonoS3.wav,1,1,3,11,,,,,0,3,3,10,0,2,2,7,,,,,,,,,1,0.9862752820008609,015,001,2019_May_09_1414,MusicAffectPsychophysiology2019,3.0.5,60.081712931211385,
To what extent did the music make you feel ,HAPPY,30MonoWAV/30MonoS3.wav,1,1,3,11,,,,,0,3,3,10,0,3,3,6,,,,,,,,,1,1.6036669659988547,015,001,2019_May_09_1414,MusicAffectPsychophysiology2019,3.0.5,60.081712931211385,
To what extent did the music make you feel ,ALERT,30MonoWAV/30MonoS3.wav,1,1,3,11,,,,,0,3,3,10,0,4,4,8,,,,,,,,,1,1.0723837049990834,015,001,2019_May_09_1414,MusicAffectPsychophysiology2019,3.0.5,60.081712931211385,
To what extent did the music make you feel ,SCARED,30MonoWAV/30MonoS3.wav,1,1,3,11,,,,,0,3,3,10,0,5,5,11,,,,,,,,,2,3.685180592001416,015,001,2019_May_09_1414,MusicAffectPsychophysiology2019,3.0.5,60.081712931211385,
To what extent did the music make you feel ,FRUSTRATED,30MonoWAV/30MonoS3.wav,1,1,3,11,,,,,0,3,3,10,0,6,6,3,,,,,,,,,1,0.7861684050003532,015,001,2019_May_09_1414,MusicAffectPsychophysiology2019,3.0.5,60.081712931211385,
To what extent did the music make you feel ,SAD,30MonoWAV/30MonoS3.wav,1,1,3,11,,,,,0,3,3,10,0,7,7,0,,,,,,,,,4,3.834879718000593,015,001,2019_May_09_1414,MusicAffectPsychophysiology2019,3.0.5,60.081712931211385,
To what extent did the music make you feel ,ANXIOUS ,30MonoWAV/30MonoS3.wav,1,1,3,11,,,,,0,3,3,10,0,8,8,1,,,,,,,,,1,2.6181239720026497,015,001,2019_May_09_1414,MusicAffectPsychophysiology2019,3.0.5,60.081712931211385,
To what extent did the music make you feel ,GUILTY,30MonoWAV/30MonoS3.wav,1,1,3,11,,,,,0,3,3,10,0,9,9,5,,,,,,,,,2,1.6687869319976016,015,001,2019_May_09_1414,MusicAffectPsychophysiology2019,3.0.5,60.081712931211385,
To what extent did the music make you feel ,TENDER,30MonoWAV/30MonoS3.wav,1,1,3,11,,,,,0,3,3,10,0,10,10,10,,,,,,,,,4,2.218357305999234,015,001,2019_May_09_1414,MusicAffectPsychophysiology2019,3.0.5,60.081712931211385,
To what extent did the music make you feel ,ASHAMED,30MonoWAV/30MonoS3.wav,1,1,3,11,,,,,0,3,3,10,0,11,11,4,,,,,,,,,1,2.0686132900009397,015,001,2019_May_09_1414,MusicAffectPsychophysiology2019,3.0.5,60.081712931211385,
,,30MonoWAV/30MonoS3.wav,1,1,3,11,,,,,0,3,3,10,,,,,,,,,,,,,,,015,001,2019_May_09_1414,MusicAffectPsychophysiology2019,3.0.5,60.081712931211385,
To what extent did the music make you feel ,HAPPY,30MonoWAV/30MonoH2.wav,2,2,1,6,,,,,0,4,4,5,0,0,0,6,,,4,8.86684212199907,3,2.634498563998932,2,1.6182580290005717,2,1.5841019319996121,015,001,2019_May_09_1414,MusicAffectPsychophysiology2019,3.0.5,60.081712931211385,
To what extent did the music make you feel ,ACTIVE,30MonoWAV/30MonoH2.wav,2,2,1,6,,,,,0,4,4,5,0,1,1,9,,,,,,,,,3,1.867802049000602,015,001,2019_May_09_1414,MusicAffectPsychophysiology2019,3.0.5,60.081712931211385,
To what extent did the music make you feel ,ASHAMED,30MonoWAV/30MonoH2.wav,2,2,1,6,,,,,0,4,4,5,0,2,2,4,,,,,,,,,1,1.3686755979979353,015,001,2019_May_09_1414,MusicAffectPsychophysiology2019,3.0.5,60.081712931211385,
To what extent did the music make you feel ,TENDER,30MonoWAV/30MonoH2.wav,2,2,1,6,,,,,0,4,4,5,0,3,3,10,,,,,,,,,1,1.201462254000944,015,001,2019_May_09_1414,MusicAffectPsychophysiology2019,3.0.5,60.081712931211385,
To what extent did the music make you feel ,SCARED,30MonoWAV/30MonoH2.wav,2,2,1,6,,,,,0,4,4,5,0,4,4,11,,,,,,,,,1,1.017817111001932,015,001,2019_May_09_1414,MusicAffectPsychophysiology2019,3.0.5,60.081712931211385,
To what extent did the music make you feel ,ANGRY,30MonoWAV/30MonoH2.wav,2,2,1,6,,,,,0,4,4,5,0,5,5,2,,,,,,,,,1,0.63577389999773,015,001,2019_May_09_1414,MusicAffectPsychophysiology2019,3.0.5,60.081712931211385,
To what extent did the music make you feel ,GUILTY,30MonoWAV/30MonoH2.wav,2,2,1,6,,,,,0,4,4,5,0,6,6,5,,,,,,,,,1,1.2518906759978563,015,001,2019_May_09_1414,MusicAffectPsychophysiology2019,3.0.5,60.081712931211385,
To what extent did the music make you feel ,ALERT,30MonoWAV/30MonoH2.wav,2,2,1,6,,,,,0,4,4,5,0,7,7,8,,,,,,,,,2,1.435274567000306,015,001,2019_May_09_1414,MusicAffectPsychophysiology2019,3.0.5,60.081712931211385,
To what extent did the music make you feel ,ANXIOUS ,30MonoWAV/30MonoH2.wav,2,2,1,6,,,,,0,4,4,5,0,8,8,1,,,,,,,,,1,2.850788502000796,015,001,2019_May_09_1414,MusicAffectPsychophysiology2019,3.0.5,60.081712931211385,
To what extent did the music make you feel ,EXCITED,30MonoWAV/30MonoH2.wav,2,2,1,6,,,,,0,4,4,5,0,9,9,7,,,,,,,,,2,1.2338752360010403,015,001,2019_May_09_1414,MusicAffectPsychophysiology2019,3.0.5,60.081712931211385,
To what extent did the music make you feel ,FRUSTRATED,30MonoWAV/30MonoH2.wav,2,2,1,6,,,,,0,4,4,5,0,10,10,3,,,,,,,,,1,1.0853196589996514,015,001,2019_May_09_1414,MusicAffectPsychophysiology2019,3.0.5,60.081712931211385,
To what extent did the music make you feel ,SAD,30MonoWAV/30MonoH2.wav,2,2,1,6,,,,,0,4,4,5,0,11,11,0,,,,,,,,,1,1.2848360530006175,015,001,2019_May_09_1414,MusicAffectPsychophysiology2019,3.0.5,60.081712931211385,
,,30MonoWAV/30MonoH2.wav,2,2,1,6,,,,,0,4,4,5,,,,,,,,,,,,,,,015,001,2019_May_09_1414,MusicAffectPsychophysiology2019,3.0.5,60.081712931211385,
To what extent did the music make you feel ,ALERT,30MonoWAV/30MonoH4.wav,2,2,1,8,,,,,0,5,5,7,0,0,0,8,,,4,4.785144703000697,3,1.8411985769998864,3,3.672898502998578,2,2.65843937200043,015,001,2019_May_09_1414,MusicAffectPsychophysiology2019,3.0.5,60.081712931211385,
To what extent did the music make you feel ,SCARED,30MonoWAV/30MonoH4.wav,2,2,1,8,,,,,0,5,5,7,0,1,1,11,,,,,,,,,1,0.9679879479990632,015,001,2019_May_09_1414,MusicAffectPsychophysiology2019,3.0.5,60.081712931211385,
To what extent did the music make you feel ,EXCITED,30MonoWAV/30MonoH4.wav,2,2,1,8,,,,,0,5,5,7,0,2,2,7,,,,,,,,,3,2.035032097999647,015,001,2019_May_09_1414,MusicAffectPsychophysiology2019,3.0.5,60.081712931211385,
To what extent did the music make you feel ,GUILTY,30MonoWAV/30MonoH4.wav,2,2,1,8,,,,,0,5,5,7,0,3,3,5,,,,,,,,,1,1.051544197001931,015,001,2019_May_09_1414,MusicAffectPsychophysiology2019,3.0.5,60.081712931211385,
To what extent did the music make you feel ,ANXIOUS ,30MonoWAV/30MonoH4.wav,2,2,1,8,,,,,0,5,5,7,0,4,4,1,,,,,,,,,1,0.6522416549996706,015,001,2019_May_09_1414,MusicAffectPsychophysiology2019,3.0.5,60.081712931211385,
To what extent did the music make you feel ,ACTIVE,30MonoWAV/30MonoH4.wav,2,2,1,8,,,,,0,5,5,7,0,5,5,9,,,,,,,,,4,2.6005991680031,015,001,2019_May_09_1414,MusicAffectPsychophysiology2019,3.0.5,60.081712931211385,
To what extent did the music make you feel ,ANGRY,30MonoWAV/30MonoH4.wav,2,2,1,8,,,,,0,5,5,7,0,6,6,2,,,,,,,,,1,3.685852664999402,015,001,2019_May_09_1414,MusicAffectPsychophysiology2019,3.0.5,60.081712931211385,
To what extent did the music make you feel ,ASHAMED,30MonoWAV/30MonoH4.wav,2,2,1,8,,,,,0,5,5,7,0,7,7,4,,,,,,,,,1,0.6017284339977778,015,001,2019_May_09_1414,MusicAffectPsychophysiology2019,3.0.5,60.081712931211385,
To what extent did the music make you feel ,SAD,30MonoWAV/30MonoH4.wav,2,2,1,8,,,,,0,5,5,7,0,8,8,0,,,,,,,,,1,0.784220543999254,015,001,2019_May_09_1414,MusicAffectPsychophysiology2019,3.0.5,60.081712931211385,
To what extent did the music make you feel ,HAPPY,30MonoWAV/30MonoH4.wav,2,2,1,8,,,,,0,5,5,7,0,9,9,6,,,,,,,,,4,2.3689120060007554,015,001,2019_May_09_1414,MusicAffectPsychophysiology2019,3.0.5,60.081712931211385,
To what extent did the music make you feel ,TENDER,30MonoWAV/30MonoH4.wav,2,2,1,8,,,,,0,5,5,7,0,10,10,10,,,,,,,,,1,1.0671553080028389,015,001,2019_May_09_1414,MusicAffectPsychophysiology2019,3.0.5,60.081712931211385,
To what extent did the music make you feel ,FRUSTRATED,30MonoWAV/30MonoH4.wav,2,2,1,8,,,,,0,5,5,7,0,11,11,3,,,,,,,,,1,2.218392743001459,015,001,2019_May_09_1414,MusicAffectPsychophysiology2019,3.0.5,60.081712931211385,
,,30MonoWAV/30MonoH4.wav,2,2,1,8,,,,,0,5,5,7,,,,,,,,,,,,,,,015,001,2019_May_09_1414,MusicAffectPsychophysiology2019,3.0.5,60.081712931211385,
To what extent did the music make you feel ,GUILTY,30MonoWAV/30MonoF3.wav,1,2,2,3,,,,,0,6,6,2,0,0,0,5,,,3,4.550880964998214,2,5.984859243002575,1,3.6175061690009898,2,1.4026636369999324,015,001,2019_May_09_1414,MusicAffectPsychophysiology2019,3.0.5,60.081712931211385,
To what extent did the music make you feel ,TENDER,30MonoWAV/30MonoF3.wav,1,2,2,3,,,,,0,6,6,2,0,1,1,10,,,,,,,,,1,0.8015413670000271,015,001,2019_May_09_1414,MusicAffectPsychophysiology2019,3.0.5,60.081712931211385,
To what extent did the music make you feel ,ASHAMED,30MonoWAV/30MonoF3.wav,1,2,2,3,,,,,0,6,6,2,0,2,2,4,,,,,,,,,2,0.9693645820007077,015,001,2019_May_09_1414,MusicAffectPsychophysiology2019,3.0.5,60.081712931211385,
To what extent did the music make you feel ,ALERT,30MonoWAV/30MonoF3.wav,1,2,2,3,,,,,0,6,6,2,0,3,3,8,,,,,,,,,2,1.3016614529988146,015,001,2019_May_09_1414,MusicAffectPsychophysiology2019,3.0.5,60.081712931211385,
To what extent did the music make you feel ,ANXIOUS ,30MonoWAV/30MonoF3.wav,1,2,2,3,,,,,0,6,6,2,0,4,4,1,,,,,,,,,2,1.0350875410003937,015,001,2019_May_09_1414,MusicAffectPsychophysiology2019,3.0.5,60.081712931211385,
To what extent did the music make you feel ,EXCITED,30MonoWAV/30MonoF3.wav,1,2,2,3,,,,,0,6,6,2,0,5,5,7,,,,,,,,,1,1.150156063002214,015,001,2019_May_09_1414,MusicAffectPsychophysiology2019,3.0.5,60.081712931211385,
To what extent did the music make you feel ,ACTIVE,30MonoWAV/30MonoF3.wav,1,2,2,3,,,,,0,6,6,2,0,6,6,9,,,,,,,,,1,2.4522523719970195,015,001,2019_May_09_1414,MusicAffectPsychophysiology2019,3.0.5,60.081712931211385,
To what extent did the music make you feel ,ANGRY,30MonoWAV/30MonoF3.wav,1,2,2,3,,,,,0,6,6,2,0,7,7,2,,,,,,,,,1,1.1020676679981989,015,001,2019_May_09_1414,MusicAffectPsychophysiology2019,3.0.5,60.081712931211385,
To what extent did the music make you feel ,FRUSTRATED,30MonoWAV/30MonoF3.wav,1,2,2,3,,,,,0,6,6,2,0,8,8,3,,,,,,,,,1,3.102428954000061,015,001,2019_May_09_1414,MusicAffectPsychophysiology2019,3.0.5,60.081712931211385,
To what extent did the music make you feel ,SCARED,30MonoWAV/30MonoF3.wav,1,2,2,3,,,,,0,6,6,2,0,9,9,11,,,,,,,,,2,1.3348179299973708,015,001,2019_May_09_1414,MusicAffectPsychophysiology2019,3.0.5,60.081712931211385,
To what extent did the music make you feel ,SAD,30MonoWAV/30MonoF3.wav,1,2,2,3,,,,,0,6,6,2,0,10,10,0,,,,,,,,,1,1.0846996619984566,015,001,2019_May_09_1414,MusicAffectPsychophysiology2019,3.0.5,60.081712931211385,
To what extent did the music make you feel ,HAPPY,30MonoWAV/30MonoF3.wav,1,2,2,3,,,,,0,6,6,2,0,11,11,6,,,,,,,,,1,0.6338962780027941,015,001,2019_May_09_1414,MusicAffectPsychophysiology2019,3.0.5,60.081712931211385,
,,30MonoWAV/30MonoF3.wav,1,2,2,3,,,,,0,6,6,2,,,,,,,,,,,,,,,015,001,2019_May_09_1414,MusicAffectPsychophysiology2019,3.0.5,60.081712931211385,
To what extent did the music make you feel ,ALERT,30MonoWAV/30MonoH1.wav,2,2,1,5,,,,,0,7,7,4,0,0,0,8,,,2,5.201505419001478,2,1.5684945630018774,2,1.3181017650022113,2,2.3664611269996385,015,001,2019_May_09_1414,MusicAffectPsychophysiology2019,3.0.5,60.081712931211385,
To what extent did the music make you feel ,ANGRY,30MonoWAV/30MonoH1.wav,2,2,1,5,,,,,0,7,7,4,0,1,1,2,,,,,,,,,1,0.8194338449975476,015,001,2019_May_09_1414,MusicAffectPsychophysiology2019,3.0.5,60.081712931211385,
To what extent did the music make you feel ,GUILTY,30MonoWAV/30MonoH1.wav,2,2,1,5,,,,,0,7,7,4,0,2,2,5,,,,,,,,,1,0.9688237590016797,015,001,2019_May_09_1414,MusicAffectPsychophysiology2019,3.0.5,60.081712931211385,
To what extent did the music make you feel ,EXCITED,30MonoWAV/30MonoH1.wav,2,2,1,5,,,,,0,7,7,4,0,3,3,7,,,,,,,,,3,2.3352561940009764,015,001,2019_May_09_1414,MusicAffectPsychophysiology2019,3.0.5,60.081712931211385,
To what extent did the music make you feel ,ACTIVE,30MonoWAV/30MonoH1.wav,2,2,1,5,,,,,0,7,7,4,0,4,4,9,,,,,,,,,1,0.8682850750010402,015,001,2019_May_09_1414,MusicAffectPsychophysiology2019,3.0.5,60.081712931211385,
To what extent did the music make you feel ,HAPPY,30MonoWAV/30MonoH1.wav,2,2,1,5,,,,,0,7,7,4,0,5,5,6,,,,,,,,,3,2.2845668030022352,015,001,2019_May_09_1414,MusicAffectPsychophysiology2019,3.0.5,60.081712931211385,
To what extent did the music make you feel ,ANXIOUS ,30MonoWAV/30MonoH1.wav,2,2,1,5,,,,,0,7,7,4,0,6,6,1,,,,,,,,,1,1.2692451940019964,015,001,2019_May_09_1414,MusicAffectPsychophysiology2019,3.0.5,60.081712931211385,
To what extent did the music make you feel ,FRUSTRATED,30MonoWAV/30MonoH1.wav,2,2,1,5,,,,,0,7,7,4,0,7,7,3,,,,,,,,,1,0.9347496790069272,015,001,2019_May_09_1414,MusicAffectPsychophysiology2019,3.0.5,60.081712931211385,
To what extent did the music make you feel ,TENDER,30MonoWAV/30MonoH1.wav,2,2,1,5,,,,,0,7,7,4,0,8,8,10,,,,,,,,,1,0.7688177529998939,015,001,2019_May_09_1414,MusicAffectPsychophysiology2019,3.0.5,60.081712931211385,
To what extent did the music make you feel ,SCARED,30MonoWAV/30MonoH1.wav,2,2,1,5,,,,,0,7,7,4,0,9,9,11,,,,,,,,,1,0.902172406000318,015,001,2019_May_09_1414,MusicAffectPsychophysiology2019,3.0.5,60.081712931211385,
To what extent did the music make you feel ,ASHAMED,30MonoWAV/30MonoH1.wav,2,2,1,5,,,,,0,7,7,4,0,10,10,4,,,,,,,,,1,0.7355243259953568,015,001,2019_May_09_1414,MusicAffectPsychophysiology2019,3.0.5,60.081712931211385,
To what extent did the music make you feel ,SAD,30MonoWAV/30MonoH1.wav,2,2,1,5,,,,,0,7,7,4,0,11,11,0,,,,,,,,,1,0.7679658380002365,015,001,2019_May_09_1414,MusicAffectPsychophysiology2019,3.0.5,60.081712931211385,
,,30MonoWAV/30MonoH1.wav,2,2,1,5,,,,,0,7,7,4,,,,,,,,,,,,,,,015,001,2019_May_09_1414,MusicAffectPsychophysiology2019,3.0.5,60.081712931211385,
To what extent did the music make you feel ,FRUSTRATED,30MonoWAV/30MonoT2.wav,2,1,4,14,,,,,0,8,8,13,0,0,0,3,,,2,5.275140539997665,2,1.5868624739960069,2,1.286928893001459,1,1.2515731410021544,015,001,2019_May_09_1414,MusicAffectPsychophysiology2019,3.0.5,60.081712931211385,
To what extent did the music make you feel ,GUILTY,30MonoWAV/30MonoT2.wav,2,1,4,14,,,,,0,8,8,13,0,1,1,5,,,,,,,,,1,0.9356534990001819,015,001,2019_May_09_1414,MusicAffectPsychophysiology2019,3.0.5,60.081712931211385,
To what extent did the music make you feel ,TENDER,30MonoWAV/30MonoT2.wav,2,1,4,14,,,,,0,8,8,13,0,2,2,10,,,,,,,,,4,7.139429884999117,015,001,2019_May_09_1414,MusicAffectPsychophysiology2019,3.0.5,60.081712931211385,
To what extent did the music make you feel ,ASHAMED,30MonoWAV/30MonoT2.wav,2,1,4,14,,,,,0,8,8,13,0,3,3,4,,,,,,,,,1,1.1524112129991408,015,001,2019_May_09_1414,MusicAffectPsychophysiology2019,3.0.5,60.081712931211385,
To what extent did the music make you feel ,ANGRY,30MonoWAV/30MonoT2.wav,2,1,4,14,,,,,0,8,8,13,0,4,4,2,,,,,,,,,1,0.6365603820013348,015,001,2019_May_09_1414,MusicAffectPsychophysiology2019,3.0.5,60.081712931211385,
To what extent did the music make you feel ,EXCITED,30MonoWAV/30MonoT2.wav,2,1,4,14,,,,,0,8,8,13,0,5,5,7,,,,,,,,,1,0.9683806370012462,015,001,2019_May_09_1414,MusicAffectPsychophysiology2019,3.0.5,60.081712931211385,
To what extent did the music make you feel ,ACTIVE,30MonoWAV/30MonoT2.wav,2,1,4,14,,,,,0,8,8,13,0,6,6,9,,,,,,,,,1,0.6530037839984288,015,001,2019_May_09_1414,MusicAffectPsychophysiology2019,3.0.5,60.081712931211385,
To what extent did the music make you feel ,SAD,30MonoWAV/30MonoT2.wav,2,1,4,14,,,,,0,8,8,13,0,7,7,0,,,,,,,,,3,2.2203167400002712,015,001,2019_May_09_1414,MusicAffectPsychophysiology2019,3.0.5,60.081712931211385,
To what extent did the music make you feel ,SCARED,30MonoWAV/30MonoT2.wav,2,1,4,14,,,,,0,8,8,13,0,8,8,11,,,,,,,,,1,1.4240412950020982,015,001,2019_May_09_1414,MusicAffectPsychophysiology2019,3.0.5,60.081712931211385,
To what extent did the music make you feel ,ANXIOUS ,30MonoWAV/30MonoT2.wav,2,1,4,14,,,,,0,8,8,13,0,9,9,1,,,,,,,,,1,0.6495566640005563,015,001,2019_May_09_1414,MusicAffectPsychophysiology2019,3.0.5,60.081712931211385,
To what extent did the music make you feel ,ALERT,30MonoWAV/30MonoT2.wav,2,1,4,14,,,,,0,8,8,13,0,10,10,8,,,,,,,,,1,0.93449043900182,015,001,2019_May_09_1414,MusicAffectPsychophysiology2019,3.0.5,60.081712931211385,
To what extent did the music make you feel ,HAPPY,30MonoWAV/30MonoT2.wav,2,1,4,14,,,,,0,8,8,13,0,11,11,6,,,,,,,,,1,1.5853083910042187,015,001,2019_May_09_1414,MusicAffectPsychophysiology2019,3.0.5,60.081712931211385,
,,30MonoWAV/30MonoT2.wav,2,1,4,14,,,,,0,8,8,13,,,,,,,,,,,,,,,015,001,2019_May_09_1414,MusicAffectPsychophysiology2019,3.0.5,60.081712931211385,
To what extent did the music make you feel ,EXCITED,30MonoWAV/30MonoF4.wav,1,2,2,4,,,,,0,9,9,3,0,0,0,7,,,3,4.2239453149959445,1,1.437332838002476,1,1.0056974519975483,2,2.053814560000319,015,001,2019_May_09_1414,MusicAffectPsychophysiology2019,3.0.5,60.081712931211385,
To what extent did the music make you feel ,ACTIVE,30MonoWAV/30MonoF4.wav,1,2,2,4,,,,,0,9,9,3,0,1,1,9,,,,,,,,,1,2.119930756998656,015,001,2019_May_09_1414,MusicAffectPsychophysiology2019,3.0.5,60.081712931211385,
To what extent did the music make you feel ,SAD,30MonoWAV/30MonoF4.wav,1,2,2,4,,,,,0,9,9,3,0,2,2,0,,,,,,,,,1,1.1350832780008204,015,001,2019_May_09_1414,MusicAffectPsychophysiology2019,3.0.5,60.081712931211385,
To what extent did the music make you feel ,ASHAMED,30MonoWAV/30MonoF4.wav,1,2,2,4,,,,,0,9,9,3,0,3,3,4,,,,,,,,,2,2.136542255000677,015,001,2019_May_09_1414,MusicAffectPsychophysiology2019,3.0.5,60.081712931211385,
To what extent did the music make you feel ,ANGRY,30MonoWAV/30MonoF4.wav,1,2,2,4,,,,,0,9,9,3,0,4,4,2,,,,,,,,,3,1.902202681005292,015,001,2019_May_09_1414,MusicAffectPsychophysiology2019,3.0.5,60.081712931211385,
To what extent did the music make you feel ,ANXIOUS ,30MonoWAV/30MonoF4.wav,1,2,2,4,,,,,0,9,9,3,0,5,5,1,,,,,,,,,4,2.9844620730000315,015,001,2019_May_09_1414,MusicAffectPsychophysiology2019,3.0.5,60.081712931211385,
To what extent did the music make you feel ,HAPPY,30MonoWAV/30MonoF4.wav,1,2,2,4,,,,,0,9,9,3,0,6,6,6,,,,,,,,,1,1.184757561000879,015,001,2019_May_09_1414,MusicAffectPsychophysiology2019,3.0.5,60.081712931211385,
To what extent did the music make you feel ,FRUSTRATED,30MonoWAV/30MonoF4.wav,1,2,2,4,,,,,0,9,9,3,0,7,7,3,,,,,,,,,1,1.0354343369981507,015,001,2019_May_09_1414,MusicAffectPsychophysiology2019,3.0.5,60.081712931211385,
To what extent did the music make you feel ,ALERT,30MonoWAV/30MonoF4.wav,1,2,2,4,,,,,0,9,9,3,0,8,8,8,,,,,,,,,3,1.751761637002346,015,001,2019_May_09_1414,MusicAffectPsychophysiology2019,3.0.5,60.081712931211385,
To what extent did the music make you feel ,TENDER,30MonoWAV/30MonoF4.wav,1,2,2,4,,,,,0,9,9,3,0,9,9,10,,,,,,,,,1,1.1021499790003872,015,001,2019_May_09_1414,MusicAffectPsychophysiology2019,3.0.5,60.081712931211385,
To what extent did the music make you feel ,GUILTY,30MonoWAV/30MonoF4.wav,1,2,2,4,,,,,0,9,9,3,0,10,10,5,,,,,,,,,2,1.303047883004183,015,001,2019_May_09_1414,MusicAffectPsychophysiology2019,3.0.5,60.081712931211385,
To what extent did the music make you feel ,SCARED,30MonoWAV/30MonoF4.wav,1,2,2,4,,,,,0,9,9,3,0,11,11,11,,,,,,,,,4,2.268777322002279,015,001,2019_May_09_1414,MusicAffectPsychophysiology2019,3.0.5,60.081712931211385,
,,30MonoWAV/30MonoF4.wav,1,2,2,4,,,,,0,9,9,3,,,,,,,,,,,,,,,015,001,2019_May_09_1414,MusicAffectPsychophysiology2019,3.0.5,60.081712931211385,
To what extent did the music make you feel ,SCARED,30MonoWAV/30MonoS1.wav,1,1,3,9,,,,,0,10,10,8,0,0,0,11,,,1,3.3689072350025526,1,1.4158712620046572,2,1.4359959339999477,2,1.733063822000986,015,001,2019_May_09_1414,MusicAffectPsychophysiology2019,3.0.5,60.081712931211385,
To what extent did the music make you feel ,ACTIVE,30MonoWAV/30MonoS1.wav,1,1,3,9,,,,,0,10,10,8,0,1,1,9,,,,,,,,,1,0.7186106739973184,015,001,2019_May_09_1414,MusicAffectPsychophysiology2019,3.0.5,60.081712931211385,
To what extent did the music make you feel ,TENDER,30MonoWAV/30MonoS1.wav,1,1,3,9,,,,,0,10,10,8,0,2,2,10,,,,,,,,,4,4.718317837003269,015,001,2019_May_09_1414,MusicAffectPsychophysiology2019,3.0.5,60.081712931211385,
To what extent did the music make you feel ,ALERT,30MonoWAV/30MonoS1.wav,1,1,3,9,,,,,0,10,10,8,0,3,3,8,,,,,,,,,1,1.0851515709946398,015,001,2019_May_09_1414,MusicAffectPsychophysiology2019,3.0.5,60.081712931211385,
To what extent did the music make you feel ,GUILTY,30MonoWAV/30MonoS1.wav,1,1,3,9,,,,,0,10,10,8,0,4,4,5,,,,,,,,,2,1.0336258710012771,015,001,2019_May_09_1414,MusicAffectPsychophysiology2019,3.0.5,60.081712931211385,
To what extent did the music make you feel ,ANXIOUS ,30MonoWAV/30MonoS1.wav,1,1,3,9,,,,,0,10,10,8,0,5,5,1,,,,,,,,,1,1.184616440004902,015,001,2019_May_09_1414,MusicAffectPsychophysiology2019,3.0.5,60.081712931211385,
To what extent did the music make you feel ,HAPPY,30MonoWAV/30MonoS1.wav,1,1,3,9,,,,,0,10,10,8,0,6,6,6,,,,,,,,,1,0.8681605930032674,015,001,2019_May_09_1414,MusicAffectPsychophysiology2019,3.0.5,60.081712931211385,
To what extent did the music make you feel ,SAD,30MonoWAV/30MonoS1.wav,1,1,3,9,,,,,0,10,10,8,0,7,7,0,,,,,,,,,3,1.9675854249944678,015,001,2019_May_09_1414,MusicAffectPsychophysiology2019,3.0.5,60.081712931211385,
To what extent did the music make you feel ,EXCITED,30MonoWAV/30MonoS1.wav,1,1,3,9,,,,,0,10,10,8,0,8,8,7,,,,,,,,,1,1.0850065599952359,015,001,2019_May_09_1414,MusicAffectPsychophysiology2019,3.0.5,60.081712931211385,
To what extent did the music make you feel ,ASHAMED,30MonoWAV/30MonoS1.wav,1,1,3,9,,,,,0,10,10,8,0,9,9,4,,,,,,,,,2,1.9509841710023466,015,001,2019_May_09_1414,MusicAffectPsychophysiology2019,3.0.5,60.081712931211385,
To what extent did the music make you feel ,FRUSTRATED,30MonoWAV/30MonoS1.wav,1,1,3,9,,,,,0,10,10,8,0,10,10,3,,,,,,,,,1,0.7686003409980913,015,001,2019_May_09_1414,MusicAffectPsychophysiology2019,3.0.5,60.081712931211385,
To what extent did the music make you feel ,ANGRY,30MonoWAV/30MonoS1.wav,1,1,3,9,,,,,0,10,10,8,0,11,11,2,,,,,,,,,1,1.0012405160014168,015,001,2019_May_09_1414,MusicAffectPsychophysiology2019,3.0.5,60.081712931211385,
,,30MonoWAV/30MonoS1.wav,1,1,3,9,,,,,0,10,10,8,,,,,,,,,,,,,,,015,001,2019_May_09_1414,MusicAffectPsychophysiology2019,3.0.5,60.081712931211385,
To what extent did the music make you feel ,ACTIVE,30MonoWAV/30MonoF2.wav,1,2,2,2,,,,,0,11,11,1,0,0,0,9,,,2,3.217783241001598,1,1.3836657510037185,1,1.385659414998372,1,1.8549383179997676,015,001,2019_May_09_1414,MusicAffectPsychophysiology2019,3.0.5,60.081712931211385,
To what extent did the music make you feel ,ALERT,30MonoWAV/30MonoF2.wav,1,2,2,2,,,,,0,11,11,1,0,1,1,8,,,,,,,,,3,1.3864898180036107,015,001,2019_May_09_1414,MusicAffectPsychophysiology2019,3.0.5,60.081712931211385,
To what extent did the music make you feel ,ANXIOUS ,30MonoWAV/30MonoF2.wav,1,2,2,2,,,,,0,11,11,1,0,2,2,1,,,,,,,,,4,1.6205147780055995,015,001,2019_May_09_1414,MusicAffectPsychophysiology2019,3.0.5,60.081712931211385,
To what extent did the music make you feel ,FRUSTRATED,30MonoWAV/30MonoF2.wav,1,2,2,2,,,,,0,11,11,1,0,3,3,3,,,,,,,,,1,1.7540276130021084,015,001,2019_May_09_1414,MusicAffectPsychophysiology2019,3.0.5,60.081712931211385,
To what extent did the music make you feel ,EXCITED,30MonoWAV/30MonoF2.wav,1,2,2,2,,,,,0,11,11,1,0,4,4,7,,,,,,,,,1,2.1246137199996156,015,001,2019_May_09_1414,MusicAffectPsychophysiology2019,3.0.5,60.081712931211385,
To what extent did the music make you feel ,GUILTY,30MonoWAV/30MonoF2.wav,1,2,2,2,,,,,0,11,11,1,0,5,5,5,,,,,,,,,1,0.8852690619969508,015,001,2019_May_09_1414,MusicAffectPsychophysiology2019,3.0.5,60.081712931211385,
To what extent did the music make you feel ,ASHAMED,30MonoWAV/30MonoF2.wav,1,2,2,2,,,,,0,11,11,1,0,6,6,4,,,,,,,,,1,0.8995776989977458,015,001,2019_May_09_1414,MusicAffectPsychophysiology2019,3.0.5,60.081712931211385,
To what extent did the music make you feel ,HAPPY,30MonoWAV/30MonoF2.wav,1,2,2,2,,,,,0,11,11,1,0,7,7,6,,,,,,,,,1,0.68580433200259,015,001,2019_May_09_1414,MusicAffectPsychophysiology2019,3.0.5,60.081712931211385,
To what extent did the music make you feel ,SAD,30MonoWAV/30MonoF2.wav,1,2,2,2,,,,,0,11,11,1,0,8,8,0,,,,,,,,,1,0.868573692998325,015,001,2019_May_09_1414,MusicAffectPsychophysiology2019,3.0.5,60.081712931211385,
To what extent did the music make you feel ,ANGRY,30MonoWAV/30MonoF2.wav,1,2,2,2,,,,,0,11,11,1,0,9,9,2,,,,,,,,,2,1.4848721749949618,015,001,2019_May_09_1414,MusicAffectPsychophysiology2019,3.0.5,60.081712931211385,
To what extent did the music make you feel ,TENDER,30MonoWAV/30MonoF2.wav,1,2,2,2,,,,,0,11,11,1,0,10,10,10,,,,,,,,,1,0.7690514659989276,015,001,2019_May_09_1414,MusicAffectPsychophysiology2019,3.0.5,60.081712931211385,
To what extent did the music make you feel ,SCARED,30MonoWAV/30MonoF2.wav,1,2,2,2,,,,,0,11,11,1,0,11,11,11,,,,,,,,,4,2.13536206799472,015,001,2019_May_09_1414,MusicAffectPsychophysiology2019,3.0.5,60.081712931211385,
,,30MonoWAV/30MonoF2.wav,1,2,2,2,,,,,0,11,11,1,,,,,,,,,,,,,,,015,001,2019_May_09_1414,MusicAffectPsychophysiology2019,3.0.5,60.081712931211385,
To what extent did the music make you feel ,SCARED,30MonoWAV/30MonoT1.wav,2,1,4,13,,,,,0,12,12,12,0,0,0,11,,,1,3.8662935139946057,1,1.2521032330041635,2,1.2350036849966273,1,2.0009978230009438,015,001,2019_May_09_1414,MusicAffectPsychophysiology2019,3.0.5,60.081712931211385,
To what extent did the music make you feel ,ASHAMED,30MonoWAV/30MonoT1.wav,2,1,4,13,,,,,0,12,12,12,0,1,1,4,,,,,,,,,1,0.6856336609998834,015,001,2019_May_09_1414,MusicAffectPsychophysiology2019,3.0.5,60.081712931211385,
To what extent did the music make you feel ,HAPPY,30MonoWAV/30MonoT1.wav,2,1,4,13,,,,,0,12,12,12,0,2,2,6,,,,,,,,,1,0.9491712109957007,015,001,2019_May_09_1414,MusicAffectPsychophysiology2019,3.0.5,60.081712931211385,
To what extent did the music make you feel ,TENDER,30MonoWAV/30MonoT1.wav,2,1,4,13,,,,,0,12,12,12,0,3,3,10,,,,,,,,,4,2.018733078999503,015,001,2019_May_09_1414,MusicAffectPsychophysiology2019,3.0.5,60.081712931211385,
To what extent did the music make you feel ,SAD,30MonoWAV/30MonoT1.wav,2,1,4,13,,,,,0,12,12,12,0,4,4,0,,,,,,,,,3,1.8676454320011544,015,001,2019_May_09_1414,MusicAffectPsychophysiology2019,3.0.5,60.081712931211385,
To what extent did the music make you feel ,ACTIVE,30MonoWAV/30MonoT1.wav,2,1,4,13,,,,,0,12,12,12,0,5,5,9,,,,,,,,,1,0.8837641200007056,015,001,2019_May_09_1414,MusicAffectPsychophysiology2019,3.0.5,60.081712931211385,
To what extent did the music make you feel ,FRUSTRATED,30MonoWAV/30MonoT1.wav,2,1,4,13,,,,,0,12,12,12,0,6,6,3,,,,,,,,,1,0.8687890669971239,015,001,2019_May_09_1414,MusicAffectPsychophysiology2019,3.0.5,60.081712931211385,
To what extent did the music make you feel ,ANGRY,30MonoWAV/30MonoT1.wav,2,1,4,13,,,,,0,12,12,12,0,7,7,2,,,,,,,,,1,1.3161968929998693,015,001,2019_May_09_1414,MusicAffectPsychophysiology2019,3.0.5,60.081712931211385,
To what extent did the music make you feel ,ANXIOUS ,30MonoWAV/30MonoT1.wav,2,1,4,13,,,,,0,12,12,12,0,8,8,1,,,,,,,,,1,0.7860142860008636,015,001,2019_May_09_1414,MusicAffectPsychophysiology2019,3.0.5,60.081712931211385,
To what extent did the music make you feel ,EXCITED,30MonoWAV/30MonoT1.wav,2,1,4,13,,,,,0,12,12,12,0,9,9,7,,,,,,,,,1,0.7500800050038379,015,001,2019_May_09_1414,MusicAffectPsychophysiology2019,3.0.5,60.081712931211385,
To what extent did the music make you feel ,ALERT,30MonoWAV/30MonoT1.wav,2,1,4,13,,,,,0,12,12,12,0,10,10,8,,,,,,,,,1,3.5352319400044507,015,001,2019_May_09_1414,MusicAffectPsychophysiology2019,3.0.5,60.081712931211385,
To what extent did the music make you feel ,GUILTY,30MonoWAV/30MonoT1.wav,2,1,4,13,,,,,0,12,12,12,0,11,11,5,,,,,,,,,2,1.9349708770023426,015,001,2019_May_09_1414,MusicAffectPsychophysiology2019,3.0.5,60.081712931211385,
,,30MonoWAV/30MonoT1.wav,2,1,4,13,,,,,0,12,12,12,,,,,,,,,,,,,,,015,001,2019_May_09_1414,MusicAffectPsychophysiology2019,3.0.5,60.081712931211385,
To what extent did the music make you feel ,ACTIVE,30MonoWAV/30MonoT3.wav,2,1,4,15,,,,,0,13,13,14,0,0,0,9,,,2,3.001086740005121,3,3.4353470639980515,3,1.5180761139999959,1,2.034712695996859,015,001,2019_May_09_1414,MusicAffectPsychophysiology2019,3.0.5,60.081712931211385,
To what extent did the music make you feel ,SCARED,30MonoWAV/30MonoT3.wav,2,1,4,15,,,,,0,13,13,14,0,1,1,11,,,,,,,,,1,0.7524469870040775,015,001,2019_May_09_1414,MusicAffectPsychophysiology2019,3.0.5,60.081712931211385,
To what extent did the music make you feel ,FRUSTRATED,30MonoWAV/30MonoT3.wav,2,1,4,15,,,,,0,13,13,14,0,2,2,3,,,,,,,,,1,0.769344940999872,015,001,2019_May_09_1414,MusicAffectPsychophysiology2019,3.0.5,60.081712931211385,
To what extent did the music make you feel ,ANXIOUS ,30MonoWAV/30MonoT3.wav,2,1,4,15,,,,,0,13,13,14,0,3,3,1,,,,,,,,,1,0.7847390960014309,015,001,2019_May_09_1414,MusicAffectPsychophysiology2019,3.0.5,60.081712931211385,
To what extent did the music make you feel ,ALERT,30MonoWAV/30MonoT3.wav,2,1,4,15,,,,,0,13,13,14,0,4,4,8,,,,,,,,,1,1.4017175049957586,015,001,2019_May_09_1414,MusicAffectPsychophysiology2019,3.0.5,60.081712931211385,
To what extent did the music make you feel ,TENDER,30MonoWAV/30MonoT3.wav,2,1,4,15,,,,,0,13,13,14,0,5,5,10,,,,,,,,,4,3.632423191003909,015,001,2019_May_09_1414,MusicAffectPsychophysiology2019,3.0.5,60.081712931211385,
To what extent did the music make you feel ,ASHAMED,30MonoWAV/30MonoT3.wav,2,1,4,15,,,,,0,13,13,14,0,6,6,4,,,,,,,,,1,1.3849338469954091,015,001,2019_May_09_1414,MusicAffectPsychophysiology2019,3.0.5,60.081712931211385,
To what extent did the music make you feel ,SAD,30MonoWAV/30MonoT3.wav,2,1,4,15,,,,,0,13,13,14,0,7,7,0,,,,,,,,,2,3.002007464005146,015,001,2019_May_09_1414,MusicAffectPsychophysiology2019,3.0.5,60.081712931211385,
To what extent did the music make you feel ,EXCITED,30MonoWAV/30MonoT3.wav,2,1,4,15,,,,,0,13,13,14,0,8,8,7,,,,,,,,,1,3.1353817229974084,015,001,2019_May_09_1414,MusicAffectPsychophysiology2019,3.0.5,60.081712931211385,
To what extent did the music make you feel ,ANGRY,30MonoWAV/30MonoT3.wav,2,1,4,15,,,,,0,13,13,14,0,9,9,2,,,,,,,,,1,1.1176217760003055,015,001,2019_May_09_1414,MusicAffectPsychophysiology2019,3.0.5,60.081712931211385,
To what extent did the music make you feel ,HAPPY,30MonoWAV/30MonoT3.wav,2,1,4,15,,,,,0,13,13,14,0,10,10,6,,,,,,,,,2,1.1524697540007764,015,001,2019_May_09_1414,MusicAffectPsychophysiology2019,3.0.5,60.081712931211385,
To what extent did the music make you feel ,GUILTY,30MonoWAV/30MonoT3.wav,2,1,4,15,,,,,0,13,13,14,0,11,11,5,,,,,,,,,1,0.8514698569997563,015,001,2019_May_09_1414,MusicAffectPsychophysiology2019,3.0.5,60.081712931211385,
,,30MonoWAV/30MonoT3.wav,2,1,4,15,,,,,0,13,13,14,,,,,,,,,,,,,,,015,001,2019_May_09_1414,MusicAffectPsychophysiology2019,3.0.5,60.081712931211385,
To what extent did the music make you feel ,ANXIOUS ,30MonoWAV/30MonoS2.wav,1,1,3,10,,,,,0,14,14,9,0,0,0,1,,,1,4.951456727998448,1,3.2344952050043503,2,1.1682509260062943,1,0.9850918490046752,015,001,2019_May_09_1414,MusicAffectPsychophysiology2019,3.0.5,60.081712931211385,
To what extent did the music make you feel ,GUILTY,30MonoWAV/30MonoS2.wav,1,1,3,10,,,,,0,14,14,9,0,1,1,5,,,,,,,,,1,1.200726184004452,015,001,2019_May_09_1414,MusicAffectPsychophysiology2019,3.0.5,60.081712931211385,
To what extent did the music make you feel ,ALERT,30MonoWAV/30MonoS2.wav,1,1,3,10,,,,,0,14,14,9,0,2,2,8,,,,,,,,,1,0.6512249679944944,015,001,2019_May_09_1414,MusicAffectPsychophysiology2019,3.0.5,60.081712931211385,
To what extent did the music make you feel ,ANGRY,30MonoWAV/30MonoS2.wav,1,1,3,10,,,,,0,14,14,9,0,3,3,2,,,,,,,,,1,0.6692440500046359,015,001,2019_May_09_1414,MusicAffectPsychophysiology2019,3.0.5,60.081712931211385,
To what extent did the music make you feel ,ASHAMED,30MonoWAV/30MonoS2.wav,1,1,3,10,,,,,0,14,14,9,0,4,4,4,,,,,,,,,1,1.2189958520029904,015,001,2019_May_09_1414,MusicAffectPsychophysiology2019,3.0.5,60.081712931211385,
To what extent did the music make you feel ,ACTIVE,30MonoWAV/30MonoS2.wav,1,1,3,10,,,,,0,14,14,9,0,5,5,9,,,,,,,,,1,0.7350517089944333,015,001,2019_May_09_1414,MusicAffectPsychophysiology2019,3.0.5,60.081712931211385,
To what extent did the music make you feel ,SAD,30MonoWAV/30MonoS2.wav,1,1,3,10,,,,,0,14,14,9,0,6,6,0,,,,,,,,,3,2.2838474079981097,015,001,2019_May_09_1414,MusicAffectPsychophysiology2019,3.0.5,60.081712931211385,
To what extent did the music make you feel ,TENDER,30MonoWAV/30MonoS2.wav,1,1,3,10,,,,,0,14,14,9,0,7,7,10,,,,,,,,,3,2.2030082990022493,015,001,2019_May_09_1414,MusicAffectPsychophysiology2019,3.0.5,60.081712931211385,
To what extent did the music make you feel ,SCARED,30MonoWAV/30MonoS2.wav,1,1,3,10,,,,,0,14,14,9,0,8,8,11,,,,,,,,,2,1.2186439639990567,015,001,2019_May_09_1414,MusicAffectPsychophysiology2019,3.0.5,60.081712931211385,
To what extent did the music make you feel ,EXCITED,30MonoWAV/30MonoS2.wav,1,1,3,10,,,,,0,14,14,9,0,9,9,7,,,,,,,,,1,2.4020633050022298,015,001,2019_May_09_1414,MusicAffectPsychophysiology2019,3.0.5,60.081712931211385,
To what extent did the music make you feel ,FRUSTRATED,30MonoWAV/30MonoS2.wav,1,1,3,10,,,,,0,14,14,9,0,10,10,3,,,,,,,,,1,1.9666176770042512,015,001,2019_May_09_1414,MusicAffectPsychophysiology2019,3.0.5,60.081712931211385,
To what extent did the music make you feel ,HAPPY,30MonoWAV/30MonoS2.wav,1,1,3,10,,,,,0,14,14,9,0,11,11,6,,,,,,,,,1,1.0861661390008521,015,001,2019_May_09_1414,MusicAffectPsychophysiology2019,3.0.5,60.081712931211385,
,,30MonoWAV/30MonoS2.wav,1,1,3,10,,,,,0,14,14,9,,,,,,,,,,,,,,,015,001,2019_May_09_1414,MusicAffectPsychophysiology2019,3.0.5,60.081712931211385,
To what extent did the music make you feel ,FRUSTRATED,30MonoWAV/30MonoH3.wav,2,2,1,7,,,,,0,15,15,6,0,0,0,3,,,4,3.8185629500003415,3,1.7183523920029984,2,1.7673986180016072,1,1.6682045759953326,015,001,2019_May_09_1414,MusicAffectPsychophysiology2019,3.0.5,60.081712931211385,
To what extent did the music make you feel ,SAD,30MonoWAV/30MonoH3.wav,2,2,1,7,,,,,0,15,15,6,0,1,1,0,,,,,,,,,1,0.751559461998113,015,001,2019_May_09_1414,MusicAffectPsychophysiology2019,3.0.5,60.081712931211385,
To what extent did the music make you feel ,GUILTY,30MonoWAV/30MonoH3.wav,2,2,1,7,,,,,0,15,15,6,0,2,2,5,,,,,,,,,1,1.1339483740011929,015,001,2019_May_09_1414,MusicAffectPsychophysiology2019,3.0.5,60.081712931211385,
To what extent did the music make you feel ,HAPPY,30MonoWAV/30MonoH3.wav,2,2,1,7,,,,,0,15,15,6,0,3,3,6,,,,,,,,,3,1.889229205000447,015,001,2019_May_09_1414,MusicAffectPsychophysiology2019,3.0.5,60.081712931211385,
To what extent did the music make you feel ,ALERT,30MonoWAV/30MonoH3.wav,2,2,1,7,,,,,0,15,15,6,0,4,4,8,,,,,,,,,2,1.0699657419972937,015,001,2019_May_09_1414,MusicAffectPsychophysiology2019,3.0.5,60.081712931211385,
To what extent did the music make you feel ,EXCITED,30MonoWAV/30MonoH3.wav,2,2,1,7,,,,,0,15,15,6,0,5,5,7,,,,,,,,,3,1.101150394002616,015,001,2019_May_09_1414,MusicAffectPsychophysiology2019,3.0.5,60.081712931211385,
To what extent did the music make you feel ,ANGRY,30MonoWAV/30MonoH3.wav,2,2,1,7,,,,,0,15,15,6,0,6,6,2,,,,,,,,,1,1.0695999629970174,015,001,2019_May_09_1414,MusicAffectPsychophysiology2019,3.0.5,60.081712931211385,
To what extent did the music make you feel ,ANXIOUS ,30MonoWAV/30MonoH3.wav,2,2,1,7,,,,,0,15,15,6,0,7,7,1,,,,,,,,,1,0.7702129200042691,015,001,2019_May_09_1414,MusicAffectPsychophysiology2019,3.0.5,60.081712931211385,
To what extent did the music make you feel ,ASHAMED,30MonoWAV/30MonoH3.wav,2,2,1,7,,,,,0,15,15,6,0,8,8,4,,,,,,,,,1,0.7023565109993797,015,001,2019_May_09_1414,MusicAffectPsychophysiology2019,3.0.5,60.081712931211385,
To what extent did the music make you feel ,TENDER,30MonoWAV/30MonoH3.wav,2,2,1,7,,,,,0,15,15,6,0,9,9,10,,,,,,,,,1,1.3365728830031003,015,001,2019_May_09_1414,MusicAffectPsychophysiology2019,3.0.5,60.081712931211385,
To what extent did the music make you feel ,SCARED,30MonoWAV/30MonoH3.wav,2,2,1,7,,,,,0,15,15,6,0,10,10,11,,,,,,,,,1,0.7028541889958433,015,001,2019_May_09_1414,MusicAffectPsychophysiology2019,3.0.5,60.081712931211385,
To what extent did the music make you feel ,ACTIVE,30MonoWAV/30MonoH3.wav,2,2,1,7,,,,,0,15,15,6,0,11,11,9,,,,,,,,,3,1.1727053330032504,015,001,2019_May_09_1414,MusicAffectPsychophysiology2019,3.0.5,60.081712931211385,
,,30MonoWAV/30MonoH3.wav,2,2,1,7,,,,,0,15,15,6,,,,,,,,,,,,,,,015,001,2019_May_09_1414,MusicAffectPsychophysiology2019,3.0.5,60.081712931211385,
To what extent did the music make you feel ,FRUSTRATED,30MonoWAV/30MonoF4.wav,1,2,2,4,,,,,1,0,16,3,0,0,0,3,,,2,3.491100233004545,1,1.0198020319949137,1,1.003020207004738,2,3.9188128900059382,015,001,2019_May_09_1414,MusicAffectPsychophysiology2019,3.0.5,60.081712931211385,
To what extent did the music make you feel ,EXCITED,30MonoWAV/30MonoF4.wav,1,2,2,4,,,,,1,0,16,3,0,1,1,7,,,,,,,,,1,1.1848819799997727,015,001,2019_May_09_1414,MusicAffectPsychophysiology2019,3.0.5,60.081712931211385,
To what extent did the music make you feel ,ACTIVE,30MonoWAV/30MonoF4.wav,1,2,2,4,,,,,1,0,16,3,0,2,2,9,,,,,,,,,1,3.28465827099717,015,001,2019_May_09_1414,MusicAffectPsychophysiology2019,3.0.5,60.081712931211385,
To what extent did the music make you feel ,TENDER,30MonoWAV/30MonoF4.wav,1,2,2,4,,,,,1,0,16,3,0,3,3,10,,,,,,,,,1,0.6688068000003113,015,001,2019_May_09_1414,MusicAffectPsychophysiology2019,3.0.5,60.081712931211385,
To what extent did the music make you feel ,ALERT,30MonoWAV/30MonoF4.wav,1,2,2,4,,,,,1,0,16,3,0,4,4,8,,,,,,,,,3,2.173942747002002,015,001,2019_May_09_1414,MusicAffectPsychophysiology2019,3.0.5,60.081712931211385,
To what extent did the music make you feel ,SCARED,30MonoWAV/30MonoF4.wav,1,2,2,4,,,,,1,0,16,3,0,5,5,11,,,,,,,,,4,2.871905183994386,015,001,2019_May_09_1414,MusicAffectPsychophysiology2019,3.0.5,60.081712931211385,
To what extent did the music make you feel ,ANGRY,30MonoWAV/30MonoF4.wav,1,2,2,4,,,,,1,0,16,3,0,6,6,2,,,,,,,,,1,1.27002075999917,015,001,2019_May_09_1414,MusicAffectPsychophysiology2019,3.0.5,60.081712931211385,
To what extent did the music make you feel ,ASHAMED,30MonoWAV/30MonoF4.wav,1,2,2,4,,,,,1,0,16,3,0,7,7,4,,,,,,,,,1,1.0195739409973612,015,001,2019_May_09_1414,MusicAffectPsychophysiology2019,3.0.5,60.081712931211385,
To what extent did the music make you feel ,SAD,30MonoWAV/30MonoF4.wav,1,2,2,4,,,,,1,0,16,3,0,8,8,0,,,,,,,,,1,1.8724562790011987,015,001,2019_May_09_1414,MusicAffectPsychophysiology2019,3.0.5,60.081712931211385,
To what extent did the music make you feel ,GUILTY,30MonoWAV/30MonoF4.wav,1,2,2,4,,,,,1,0,16,3,0,9,9,5,,,,,,,,,1,0.6987218669964932,015,001,2019_May_09_1414,MusicAffectPsychophysiology2019,3.0.5,60.081712931211385,
To what extent did the music make you feel ,HAPPY,30MonoWAV/30MonoF4.wav,1,2,2,4,,,,,1,0,16,3,0,10,10,6,,,,,,,,,1,1.0526024790015072,015,001,2019_May_09_1414,MusicAffectPsychophysiology2019,3.0.5,60.081712931211385,
To what extent did the music make you feel ,ANXIOUS ,30MonoWAV/30MonoF4.wav,1,2,2,4,,,,,1,0,16,3,0,11,11,1,,,,,,,,,4,1.1186113479998312,015,001,2019_May_09_1414,MusicAffectPsychophysiology2019,3.0.5,60.081712931211385,
,,30MonoWAV/30MonoF4.wav,1,2,2,4,,,,,1,0,16,3,,,,,,,,,,,,,,,015,001,2019_May_09_1414,MusicAffectPsychophysiology2019,3.0.5,60.081712931211385,
To what extent did the music make you feel ,ALERT,30MonoWAV/30MonoT3.wav,2,1,4,15,,,,,1,1,17,14,0,0,0,8,,,1,3.7230067909986246,2,3.889400490996195,2,1.702620272000786,1,1.9508053780009504,015,001,2019_May_09_1414,MusicAffectPsychophysiology2019,3.0.5,60.081712931211385,
To what extent did the music make you feel ,GUILTY,30MonoWAV/30MonoT3.wav,2,1,4,15,,,,,1,1,17,14,0,1,1,5,,,,,,,,,1,0.5839998119990923,015,001,2019_May_09_1414,MusicAffectPsychophysiology2019,3.0.5,60.081712931211385,
To what extent did the music make you feel ,SCARED,30MonoWAV/30MonoT3.wav,2,1,4,15,,,,,1,1,17,14,0,2,2,11,,,,,,,,,1,0.6514219140008208,015,001,2019_May_09_1414,MusicAffectPsychophysiology2019,3.0.5,60.081712931211385,
To what extent did the music make you feel ,EXCITED,30MonoWAV/30MonoT3.wav,2,1,4,15,,,,,1,1,17,14,0,3,3,7,,,,,,,,,1,2.001824969993322,015,001,2019_May_09_1414,MusicAffectPsychophysiology2019,3.0.5,60.081712931211385,
To what extent did the music make you feel ,ACTIVE,30MonoWAV/30MonoT3.wav,2,1,4,15,,,,,1,1,17,14,0,4,4,9,,,,,,,,,1,0.6847523440010264,015,001,2019_May_09_1414,MusicAffectPsychophysiology2019,3.0.5,60.081712931211385,
To what extent did the music make you feel ,ASHAMED,30MonoWAV/30MonoT3.wav,2,1,4,15,,,,,1,1,17,14,0,5,5,4,,,,,,,,,1,1.3658559639952728,015,001,2019_May_09_1414,MusicAffectPsychophysiology2019,3.0.5,60.081712931211385,
To what extent did the music make you feel ,TENDER,30MonoWAV/30MonoT3.wav,2,1,4,15,,,,,1,1,17,14,0,6,6,10,,,,,,,,,3,1.58494698600407,015,001,2019_May_09_1414,MusicAffectPsychophysiology2019,3.0.5,60.081712931211385,
To what extent did the music make you feel ,ANGRY,30MonoWAV/30MonoT3.wav,2,1,4,15,,,,,1,1,17,14,0,7,7,2,,,,,,,,,1,0.6685587189931539,015,001,2019_May_09_1414,MusicAffectPsychophysiology2019,3.0.5,60.081712931211385,
To what extent did the music make you feel ,FRUSTRATED,30MonoWAV/30MonoT3.wav,2,1,4,15,,,,,1,1,17,14,0,8,8,3,,,,,,,,,1,1.9024010909997742,015,001,2019_May_09_1414,MusicAffectPsychophysiology2019,3.0.5,60.081712931211385,
To what extent did the music make you feel ,HAPPY,30MonoWAV/30MonoT3.wav,2,1,4,15,,,,,1,1,17,14,0,9,9,6,,,,,,,,,1,1.049420576004195,015,001,2019_May_09_1414,MusicAffectPsychophysiology2019,3.0.5,60.081712931211385,
To what extent did the music make you feel ,ANXIOUS ,30MonoWAV/30MonoT3.wav,2,1,4,15,,,,,1,1,17,14,0,10,10,1,,,,,,,,,1,0.9684288239950547,015,001,2019_May_09_1414,MusicAffectPsychophysiology2019,3.0.5,60.081712931211385,
To what extent did the music make you feel ,SAD,30MonoWAV/30MonoT3.wav,2,1,4,15,,,,,1,1,17,14,0,11,11,0,,,,,,,,,2,1.085981724994781,015,001,2019_May_09_1414,MusicAffectPsychophysiology2019,3.0.5,60.081712931211385,
,,30MonoWAV/30MonoT3.wav,2,1,4,15,,,,,1,1,17,14,,,,,,,,,,,,,,,015,001,2019_May_09_1414,MusicAffectPsychophysiology2019,3.0.5,60.081712931211385,
To what extent did the music make you feel ,ANXIOUS ,30MonoWAV/30MonoH3.wav,2,2,1,7,,,,,1,2,18,6,0,0,0,1,,,4,3.1719165360045736,4,2.2574305620000814,3,1.5023549739998998,1,1.5674457230052212,015,001,2019_May_09_1414,MusicAffectPsychophysiology2019,3.0.5,60.081712931211385,
To what extent did the music make you feel ,TENDER,30MonoWAV/30MonoH3.wav,2,2,1,7,,,,,1,2,18,6,0,1,1,10,,,,,,,,,1,1.2843606780006667,015,001,2019_May_09_1414,MusicAffectPsychophysiology2019,3.0.5,60.081712931211385,
To what extent did the music make you feel ,ALERT,30MonoWAV/30MonoH3.wav,2,2,1,7,,,,,1,2,18,6,0,2,2,8,,,,,,,,,2,1.434491097999853,015,001,2019_May_09_1414,MusicAffectPsychophysiology2019,3.0.5,60.081712931211385,
To what extent did the music make you feel ,ASHAMED,30MonoWAV/30MonoH3.wav,2,2,1,7,,,,,1,2,18,6,0,3,3,4,,,,,,,,,1,0.8017670839981292,015,001,2019_May_09_1414,MusicAffectPsychophysiology2019,3.0.5,60.081712931211385,
To what extent did the music make you feel ,HAPPY,30MonoWAV/30MonoH3.wav,2,2,1,7,,,,,1,2,18,6,0,4,4,6,,,,,,,,,3,2.299097652998171,015,001,2019_May_09_1414,MusicAffectPsychophysiology2019,3.0.5,60.081712931211385,
To what extent did the music make you feel ,SAD,30MonoWAV/30MonoH3.wav,2,2,1,7,,,,,1,2,18,6,0,5,5,0,,,,,,,,,1,1.3347754679998616,015,001,2019_May_09_1414,MusicAffectPsychophysiology2019,3.0.5,60.081712931211385,
To what extent did the music make you feel ,GUILTY,30MonoWAV/30MonoH3.wav,2,2,1,7,,,,,1,2,18,6,0,6,6,5,,,,,,,,,1,0.6519285820031655,015,001,2019_May_09_1414,MusicAffectPsychophysiology2019,3.0.5,60.081712931211385,
To what extent did the music make you feel ,FRUSTRATED,30MonoWAV/30MonoH3.wav,2,2,1,7,,,,,1,2,18,6,0,7,7,3,,,,,,,,,1,0.6857103540023672,015,001,2019_May_09_1414,MusicAffectPsychophysiology2019,3.0.5,60.081712931211385,
To what extent did the music make you feel ,ANGRY,30MonoWAV/30MonoH3.wav,2,2,1,7,,,,,1,2,18,6,0,8,8,2,,,,,,,,,1,0.6515330439942773,015,001,2019_May_09_1414,MusicAffectPsychophysiology2019,3.0.5,60.081712931211385,
To what extent did the music make you feel ,EXCITED,30MonoWAV/30MonoH3.wav,2,2,1,7,,,,,1,2,18,6,0,9,9,7,,,,,,,,,4,1.5693955149981775,015,001,2019_May_09_1414,MusicAffectPsychophysiology2019,3.0.5,60.081712931211385,
To what extent did the music make you feel ,ACTIVE,30MonoWAV/30MonoH3.wav,2,2,1,7,,,,,1,2,18,6,0,10,10,9,,,,,,,,,3,1.5843989060012973,015,001,2019_May_09_1414,MusicAffectPsychophysiology2019,3.0.5,60.081712931211385,
To what extent did the music make you feel ,SCARED,30MonoWAV/30MonoH3.wav,2,2,1,7,,,,,1,2,18,6,0,11,11,11,,,,,,,,,1,1.385585694006295,015,001,2019_May_09_1414,MusicAffectPsychophysiology2019,3.0.5,60.081712931211385,
,,30MonoWAV/30MonoH3.wav,2,2,1,7,,,,,1,2,18,6,,,,,,,,,,,,,,,015,001,2019_May_09_1414,MusicAffectPsychophysiology2019,3.0.5,60.081712931211385,
To what extent did the music make you feel ,GUILTY,30MonoWAV/30MonoH1.wav,2,2,1,5,,,,,1,3,19,4,0,0,0,5,,,3,2.8342122929971083,2,2.218369842004904,2,2.0176875129982363,1,1.2673071149984025,015,001,2019_May_09_1414,MusicAffectPsychophysiology2019,3.0.5,60.081712931211385,
To what extent did the music make you feel ,ACTIVE,30MonoWAV/30MonoH1.wav,2,2,1,5,,,,,1,3,19,4,0,1,1,9,,,,,,,,,2,1.1343771579995519,015,001,2019_May_09_1414,MusicAffectPsychophysiology2019,3.0.5,60.081712931211385,
To what extent did the music make you feel ,TENDER,30MonoWAV/30MonoH1.wav,2,2,1,5,,,,,1,3,19,4,0,2,2,10,,,,,,,,,1,0.6854765850002877,015,001,2019_May_09_1414,MusicAffectPsychophysiology2019,3.0.5,60.081712931211385,
To what extent did the music make you feel ,HAPPY,30MonoWAV/30MonoH1.wav,2,2,1,5,,,,,1,3,19,4,0,3,3,6,,,,,,,,,2,1.0339967859981698,015,001,2019_May_09_1414,MusicAffectPsychophysiology2019,3.0.5,60.081712931211385,
To what extent did the music make you feel ,ASHAMED,30MonoWAV/30MonoH1.wav,2,2,1,5,,,,,1,3,19,4,0,4,4,4,,,,,,,,,1,1.1849286869983189,015,001,2019_May_09_1414,MusicAffectPsychophysiology2019,3.0.5,60.081712931211385,
To what extent did the music make you feel ,ANXIOUS ,30MonoWAV/30MonoH1.wav,2,2,1,5,,,,,1,3,19,4,0,5,5,1,,,,,,,,,2,1.0845508689963026,015,001,2019_May_09_1414,MusicAffectPsychophysiology2019,3.0.5,60.081712931211385,
To what extent did the music make you feel ,SCARED,30MonoWAV/30MonoH1.wav,2,2,1,5,,,,,1,3,19,4,0,6,6,11,,,,,,,,,1,1.8851622200018028,015,001,2019_May_09_1414,MusicAffectPsychophysiology2019,3.0.5,60.081712931211385,
To what extent did the music make you feel ,SAD,30MonoWAV/30MonoH1.wav,2,2,1,5,,,,,1,3,19,4,0,7,7,0,,,,,,,,,1,0.6503428850046475,015,001,2019_May_09_1414,MusicAffectPsychophysiology2019,3.0.5,60.081712931211385,
To what extent did the music make you feel ,FRUSTRATED,30MonoWAV/30MonoH1.wav,2,2,1,5,,,,,1,3,19,4,0,8,8,3,,,,,,,,,1,0.9183061009971425,015,001,2019_May_09_1414,MusicAffectPsychophysiology2019,3.0.5,60.081712931211385,
To what extent did the music make you feel ,EXCITED,30MonoWAV/30MonoH1.wav,2,2,1,5,,,,,1,3,19,4,0,9,9,7,,,,,,,,,2,0.918113378000271,015,001,2019_May_09_1414,MusicAffectPsychophysiology2019,3.0.5,60.081712931211385,
To what extent did the music make you feel ,ANGRY,30MonoWAV/30MonoH1.wav,2,2,1,5,,,,,1,3,19,4,0,10,10,2,,,,,,,,,1,1.4349885980045656,015,001,2019_May_09_1414,MusicAffectPsychophysiology2019,3.0.5,60.081712931211385,
To what extent did the music make you feel ,ALERT,30MonoWAV/30MonoH1.wav,2,2,1,5,,,,,1,3,19,4,0,11,11,8,,,,,,,,,2,1.6016519459953997,015,001,2019_May_09_1414,MusicAffectPsychophysiology2019,3.0.5,60.081712931211385,
,,30MonoWAV/30MonoH1.wav,2,2,1,5,,,,,1,3,19,4,,,,,,,,,,,,,,,015,001,2019_May_09_1414,MusicAffectPsychophysiology2019,3.0.5,60.081712931211385,
To what extent did the music make you feel ,ANXIOUS ,30MonoWAV/30MonoF1.wav,1,2,2,1,,,,,1,4,20,0,0,0,0,1,,,2,3.3220235370026785,1,1.3534979519972694,1,1.4537653049992514,4,2.6415186649974203,015,001,2019_May_09_1414,MusicAffectPsychophysiology2019,3.0.5,60.081712931211385,
To what extent did the music make you feel ,EXCITED,30MonoWAV/30MonoF1.wav,1,2,2,1,,,,,1,4,20,0,0,1,1,7,,,,,,,,,1,2.3664239019999513,015,001,2019_May_09_1414,MusicAffectPsychophysiology2019,3.0.5,60.081712931211385,
To what extent did the music make you feel ,SAD,30MonoWAV/30MonoF1.wav,1,2,2,1,,,,,1,4,20,0,0,2,2,0,,,,,,,,,1,0.9850766689996817,015,001,2019_May_09_1414,MusicAffectPsychophysiology2019,3.0.5,60.081712931211385,
To what extent did the music make you feel ,ACTIVE,30MonoWAV/30MonoF1.wav,1,2,2,1,,,,,1,4,20,0,0,3,3,9,,,,,,,,,2,0.9682107879998512,015,001,2019_May_09_1414,MusicAffectPsychophysiology2019,3.0.5,60.081712931211385,
To what extent did the music make you feel ,ALERT,30MonoWAV/30MonoF1.wav,1,2,2,1,,,,,1,4,20,0,0,4,4,8,,,,,,,,,3,1.118261210998753,015,001,2019_May_09_1414,MusicAffectPsychophysiology2019,3.0.5,60.081712931211385,
To what extent did the music make you feel ,ANGRY,30MonoWAV/30MonoF1.wav,1,2,2,1,,,,,1,4,20,0,0,5,5,2,,,,,,,,,1,1.1351839679991826,015,001,2019_May_09_1414,MusicAffectPsychophysiology2019,3.0.5,60.081712931211385,
To what extent did the music make you feel ,ASHAMED,30MonoWAV/30MonoF1.wav,1,2,2,1,,,,,1,4,20,0,0,6,6,4,,,,,,,,,1,1.3180759160022717,015,001,2019_May_09_1414,MusicAffectPsychophysiology2019,3.0.5,60.081712931211385,
To what extent did the music make you feel ,TENDER,30MonoWAV/30MonoF1.wav,1,2,2,1,,,,,1,4,20,0,0,7,7,10,,,,,,,,,1,1.3693605820008088,015,001,2019_May_09_1414,MusicAffectPsychophysiology2019,3.0.5,60.081712931211385,
To what extent did the music make you feel ,GUILTY,30MonoWAV/30MonoF1.wav,1,2,2,1,,,,,1,4,20,0,0,8,8,5,,,,,,,,,1,1.385237976006465,015,001,2019_May_09_1414,MusicAffectPsychophysiology2019,3.0.5,60.081712931211385,
To what extent did the music make you feel ,HAPPY,30MonoWAV/30MonoF1.wav,1,2,2,1,,,,,1,4,20,0,0,9,9,6,,,,,,,,,1,0.7007281969999894,015,001,2019_May_09_1414,MusicAffectPsychophysiology2019,3.0.5,60.081712931211385,
To what extent did the music make you feel ,FRUSTRATED,30MonoWAV/30MonoF1.wav,1,2,2,1,,,,,1,4,20,0,0,10,10,3,,,,,,,,,1,0.9033089469958213,015,001,2019_May_09_1414,MusicAffectPsychophysiology2019,3.0.5,60.081712931211385,
To what extent did the music make you feel ,SCARED,30MonoWAV/30MonoF1.wav,1,2,2,1,,,,,1,4,20,0,0,11,11,11,,,,,,,,,3,3.5845925460016588,015,001,2019_May_09_1414,MusicAffectPsychophysiology2019,3.0.5,60.081712931211385,
,,30MonoWAV/30MonoF1.wav,1,2,2,1,,,,,1,4,20,0,,,,,,,,,,,,,,,015,001,2019_May_09_1414,MusicAffectPsychophysiology2019,3.0.5,60.081712931211385,
To what extent did the music make you feel ,ASHAMED,30MonoWAV/30MonoT2.wav,2,1,4,14,,,,,1,5,21,13,0,0,0,4,,,2,6.562338447001821,2,1.2178731140011223,2,1.035126651993778,1,1.1847202450007899,015,001,2019_May_09_1414,MusicAffectPsychophysiology2019,3.0.5,60.081712931211385,
To what extent did the music make you feel ,ANXIOUS ,30MonoWAV/30MonoT2.wav,2,1,4,14,,,,,1,5,21,13,0,1,1,1,,,,,,,,,1,0.8191095470028813,015,001,2019_May_09_1414,MusicAffectPsychophysiology2019,3.0.5,60.081712931211385,
To what extent did the music make you feel ,FRUSTRATED,30MonoWAV/30MonoT2.wav,2,1,4,14,,,,,1,5,21,13,0,2,2,3,,,,,,,,,1,0.8339609250033391,015,001,2019_May_09_1414,MusicAffectPsychophysiology2019,3.0.5,60.081712931211385,
To what extent did the music make you feel ,SAD,30MonoWAV/30MonoT2.wav,2,1,4,14,,,,,1,5,21,13,0,3,3,0,,,,,,,,,2,3.1233937929937383,015,001,2019_May_09_1414,MusicAffectPsychophysiology2019,3.0.5,60.081712931211385,
To what extent did the music make you feel ,EXCITED,30MonoWAV/30MonoT2.wav,2,1,4,14,,,,,1,5,21,13,0,4,4,7,,,,,,,,,1,0.7357578139999532,015,001,2019_May_09_1414,MusicAffectPsychophysiology2019,3.0.5,60.081712931211385,
To what extent did the music make you feel ,ANGRY,30MonoWAV/30MonoT2.wav,2,1,4,14,,,,,1,5,21,13,0,5,5,2,,,,,,,,,1,0.6694526110004517,015,001,2019_May_09_1414,MusicAffectPsychophysiology2019,3.0.5,60.081712931211385,
To what extent did the music make you feel ,ACTIVE,30MonoWAV/30MonoT2.wav,2,1,4,14,,,,,1,5,21,13,0,6,6,9,,,,,,,,,1,0.8188806219986873,015,001,2019_May_09_1414,MusicAffectPsychophysiology2019,3.0.5,60.081712931211385,
To what extent did the music make you feel ,SCARED,30MonoWAV/30MonoT2.wav,2,1,4,14,,,,,1,5,21,13,0,7,7,11,,,,,,,,,1,2.1873091339948587,015,001,2019_May_09_1414,MusicAffectPsychophysiology2019,3.0.5,60.081712931211385,
To what extent did the music make you feel ,TENDER,30MonoWAV/30MonoT2.wav,2,1,4,14,,,,,1,5,21,13,0,8,8,10,,,,,,,,,3,2.555865856993478,015,001,2019_May_09_1414,MusicAffectPsychophysiology2019,3.0.5,60.081712931211385,
To what extent did the music make you feel ,ALERT,30MonoWAV/30MonoT2.wav,2,1,4,14,,,,,1,5,21,13,0,9,9,8,,,,,,,,,1,1.0663686740008416,015,001,2019_May_09_1414,MusicAffectPsychophysiology2019,3.0.5,60.081712931211385,
To what extent did the music make you feel ,GUILTY,30MonoWAV/30MonoT2.wav,2,1,4,14,,,,,1,5,21,13,0,10,10,5,,,,,,,,,1,0.70204145200114,015,001,2019_May_09_1414,MusicAffectPsychophysiology2019,3.0.5,60.081712931211385,
To what extent did the music make you feel ,HAPPY,30MonoWAV/30MonoT2.wav,2,1,4,14,,,,,1,5,21,13,0,11,11,6,,,,,,,,,2,1.2181153330020607,015,001,2019_May_09_1414,MusicAffectPsychophysiology2019,3.0.5,60.081712931211385,
,,30MonoWAV/30MonoT2.wav,2,1,4,14,,,,,1,5,21,13,,,,,,,,,,,,,,,015,001,2019_May_09_1414,MusicAffectPsychophysiology2019,3.0.5,60.081712931211385,
To what extent did the music make you feel ,GUILTY,30MonoWAV/30MonoS3.wav,1,1,3,11,,,,,1,6,22,10,0,0,0,5,,,1,3.455211355998472,1,2.657571526004176,1,1.1008116039956803,1,5.5695127500002855,015,001,2019_May_09_1414,MusicAffectPsychophysiology2019,3.0.5,60.081712931211385,
To what extent did the music make you feel ,EXCITED,30MonoWAV/30MonoS3.wav,1,1,3,11,,,,,1,6,22,10,0,1,1,7,,,,,,,,,1,0.9520279889984522,015,001,2019_May_09_1414,MusicAffectPsychophysiology2019,3.0.5,60.081712931211385,
To what extent did the music make you feel ,TENDER,30MonoWAV/30MonoS3.wav,1,1,3,11,,,,,1,6,22,10,0,2,2,10,,,,,,,,,4,3.5847664789980627,015,001,2019_May_09_1414,MusicAffectPsychophysiology2019,3.0.5,60.081712931211385,
To what extent did the music make you feel ,SAD,30MonoWAV/30MonoS3.wav,1,1,3,11,,,,,1,6,22,10,0,3,3,0,,,,,,,,,3,1.7328492559972801,015,001,2019_May_09_1414,MusicAffectPsychophysiology2019,3.0.5,60.081712931211385,
To what extent did the music make you feel ,ALERT,30MonoWAV/30MonoS3.wav,1,1,3,11,,,,,1,6,22,10,0,4,4,8,,,,,,,,,1,0.8345315760016092,015,001,2019_May_09_1414,MusicAffectPsychophysiology2019,3.0.5,60.081712931211385,
To what extent did the music make you feel ,FRUSTRATED,30MonoWAV/30MonoS3.wav,1,1,3,11,,,,,1,6,22,10,0,5,5,3,,,,,,,,,1,1.2176080659992294,015,001,2019_May_09_1414,MusicAffectPsychophysiology2019,3.0.5,60.081712931211385,
To what extent did the music make you feel ,ASHAMED,30MonoWAV/30MonoS3.wav,1,1,3,11,,,,,1,6,22,10,0,6,6,4,,,,,,,,,1,2.0695897379991948,015,001,2019_May_09_1414,MusicAffectPsychophysiology2019,3.0.5,60.081712931211385,
To what extent did the music make you feel ,HAPPY,30MonoWAV/30MonoS3.wav,1,1,3,11,,,,,1,6,22,10,0,7,7,6,,,,,,,,,1,1.7521664340019925,015,001,2019_May_09_1414,MusicAffectPsychophysiology2019,3.0.5,60.081712931211385,
To what extent did the music make you feel ,ANXIOUS ,30MonoWAV/30MonoS3.wav,1,1,3,11,,,,,1,6,22,10,0,8,8,1,,,,,,,,,1,1.0672845090011833,015,001,2019_May_09_1414,MusicAffectPsychophysiology2019,3.0.5,60.081712931211385,
To what extent did the music make you feel ,SCARED,30MonoWAV/30MonoS3.wav,1,1,3,11,,,,,1,6,22,10,0,9,9,11,,,,,,,,,2,1.3182454639973002,015,001,2019_May_09_1414,MusicAffectPsychophysiology2019,3.0.5,60.081712931211385,
To what extent did the music make you feel ,ANGRY,30MonoWAV/30MonoS3.wav,1,1,3,11,,,,,1,6,22,10,0,10,10,2,,,,,,,,,1,0.8187729790006415,015,001,2019_May_09_1414,MusicAffectPsychophysiology2019,3.0.5,60.081712931211385,
To what extent did the music make you feel ,ACTIVE,30MonoWAV/30MonoS3.wav,1,1,3,11,,,,,1,6,22,10,0,11,11,9,,,,,,,,,1,0.6846716140062199,015,001,2019_May_09_1414,MusicAffectPsychophysiology2019,3.0.5,60.081712931211385,
,,30MonoWAV/30MonoS3.wav,1,1,3,11,,,,,1,6,22,10,,,,,,,,,,,,,,,015,001,2019_May_09_1414,MusicAffectPsychophysiology2019,3.0.5,60.081712931211385,
To what extent did the music make you feel ,EXCITED,30MonoWAV/30MonoF3.wav,1,2,2,3,,,,,1,7,23,2,0,0,0,7,,,3,2.718407972002751,2,2.0014712939955643,2,3.0018415189988445,3,1.801941760997579,015,001,2019_May_09_1414,MusicAffectPsychophysiology2019,3.0.5,60.081712931211385,
To what extent did the music make you feel ,ANGRY,30MonoWAV/30MonoF3.wav,1,2,2,3,,,,,1,7,23,2,0,1,1,2,,,,,,,,,1,1.2355650270037586,015,001,2019_May_09_1414,MusicAffectPsychophysiology2019,3.0.5,60.081712931211385,
To what extent did the music make you feel ,SCARED,30MonoWAV/30MonoF3.wav,1,2,2,3,,,,,1,7,23,2,0,2,2,11,,,,,,,,,1,2.56792276899796,015,001,2019_May_09_1414,MusicAffectPsychophysiology2019,3.0.5,60.081712931211385,
To what extent did the music make you feel ,HAPPY,30MonoWAV/30MonoF3.wav,1,2,2,3,,,,,1,7,23,2,0,3,3,6,,,,,,,,,1,5.15214563900372,015,001,2019_May_09_1414,MusicAffectPsychophysiology2019,3.0.5,60.081712931211385,
To what extent did the music make you feel ,FRUSTRATED,30MonoWAV/30MonoF3.wav,1,2,2,3,,,,,1,7,23,2,0,4,4,3,,,,,,,,,2,3.251321055999142,015,001,2019_May_09_1414,MusicAffectPsychophysiology2019,3.0.5,60.081712931211385,
To what extent did the music make you feel ,ASHAMED,30MonoWAV/30MonoF3.wav,1,2,2,3,,,,,1,7,23,2,0,5,5,4,,,,,,,,,1,1.1680624790024012,015,001,2019_May_09_1414,MusicAffectPsychophysiology2019,3.0.5,60.081712931211385,
To what extent did the music make you feel ,ALERT,30MonoWAV/30MonoF3.wav,1,2,2,3,,,,,1,7,23,2,0,6,6,8,,,,,,,,,2,0.9356990820015199,015,001,2019_May_09_1414,MusicAffectPsychophysiology2019,3.0.5,60.081712931211385,
To what extent did the music make you feel ,TENDER,30MonoWAV/30MonoF3.wav,1,2,2,3,,,,,1,7,23,2,0,7,7,10,,,,,,,,,1,0.9518154269972001,015,001,2019_May_09_1414,MusicAffectPsychophysiology2019,3.0.5,60.081712931211385,
To what extent did the music make you feel ,SAD,30MonoWAV/30MonoF3.wav,1,2,2,3,,,,,1,7,23,2,0,8,8,0,,,,,,,,,1,1.1520728609975777,015,001,2019_May_09_1414,MusicAffectPsychophysiology2019,3.0.5,60.081712931211385,
To what extent did the music make you feel ,ACTIVE,30MonoWAV/30MonoF3.wav,1,2,2,3,,,,,1,7,23,2,0,9,9,9,,,,,,,,,3,3.4683352170031867,015,001,2019_May_09_1414,MusicAffectPsychophysiology2019,3.0.5,60.081712931211385,
To what extent did the music make you feel ,GUILTY,30MonoWAV/30MonoF3.wav,1,2,2,3,,,,,1,7,23,2,0,10,10,5,,,,,,,,,2,1.619046473999333,015,001,2019_May_09_1414,MusicAffectPsychophysiology2019,3.0.5,60.081712931211385,
To what extent did the music make you feel ,ANXIOUS ,30MonoWAV/30MonoF3.wav,1,2,2,3,,,,,1,7,23,2,0,11,11,1,,,,,,,,,2,1.667858991997491,015,001,2019_May_09_1414,MusicAffectPsychophysiology2019,3.0.5,60.081712931211385,
,,30MonoWAV/30MonoF3.wav,1,2,2,3,,,,,1,7,23,2,,,,,,,,,,,,,,,015,001,2019_May_09_1414,MusicAffectPsychophysiology2019,3.0.5,60.081712931211385,
To what extent did the music make you feel ,GUILTY,30MonoWAV/30MonoH2.wav,2,2,1,6,,,,,1,8,24,5,0,0,0,5,,,3,4.368184219005343,3,2.6353567199985264,2,1.234482364001451,1,1.6160714419966098,015,001,2019_May_09_1414,MusicAffectPsychophysiology2019,3.0.5,60.081712931211385,
To what extent did the music make you feel ,EXCITED,30MonoWAV/30MonoH2.wav,2,2,1,6,,,,,1,8,24,5,0,1,1,7,,,,,,,,,2,1.23419252900203,015,001,2019_May_09_1414,MusicAffectPsychophysiology2019,3.0.5,60.081712931211385,
To what extent did the music make you feel ,ANXIOUS ,30MonoWAV/30MonoH2.wav,2,2,1,6,,,,,1,8,24,5,0,2,2,1,,,,,,,,,1,0.8853722200001357,015,001,2019_May_09_1414,MusicAffectPsychophysiology2019,3.0.5,60.081712931211385,
To what extent did the music make you feel ,ASHAMED,30MonoWAV/30MonoH2.wav,2,2,1,6,,,,,1,8,24,5,0,3,3,4,,,,,,,,,1,0.8507323279991397,015,001,2019_May_09_1414,MusicAffectPsychophysiology2019,3.0.5,60.081712931211385,
To what extent did the music make you feel ,TENDER,30MonoWAV/30MonoH2.wav,2,2,1,6,,,,,1,8,24,5,0,4,4,10,,,,,,,,,1,0.8340638919980847,015,001,2019_May_09_1414,MusicAffectPsychophysiology2019,3.0.5,60.081712931211385,
To what extent did the music make you feel ,ACTIVE,30MonoWAV/30MonoH2.wav,2,2,1,6,,,,,1,8,24,5,0,5,5,9,,,,,,,,,3,1.118485081999097,015,001,2019_May_09_1414,MusicAffectPsychophysiology2019,3.0.5,60.081712931211385,
To what extent did the music make you feel ,HAPPY,30MonoWAV/30MonoH2.wav,2,2,1,6,,,,,1,8,24,5,0,6,6,6,,,,,,,,,2,1.8850097419999656,015,001,2019_May_09_1414,MusicAffectPsychophysiology2019,3.0.5,60.081712931211385,
To what extent did the music make you feel ,ALERT,30MonoWAV/30MonoH2.wav,2,2,1,6,,,,,1,8,24,5,0,7,7,8,,,,,,,,,2,4.916361308998603,015,001,2019_May_09_1414,MusicAffectPsychophysiology2019,3.0.5,60.081712931211385,
To what extent did the music make you feel ,SAD,30MonoWAV/30MonoH2.wav,2,2,1,6,,,,,1,8,24,5,0,8,8,0,,,,,,,,,1,0.719358996997471,015,001,2019_May_09_1414,MusicAffectPsychophysiology2019,3.0.5,60.081712931211385,
To what extent did the music make you feel ,SCARED,30MonoWAV/30MonoH2.wav,2,2,1,6,,,,,1,8,24,5,0,9,9,11,,,,,,,,,1,0.6854400989977876,015,001,2019_May_09_1414,MusicAffectPsychophysiology2019,3.0.5,60.081712931211385,
To what extent did the music make you feel ,ANGRY,30MonoWAV/30MonoH2.wav,2,2,1,6,,,,,1,8,24,5,0,10,10,2,,,,,,,,,1,1.1495709009977872,015,001,2019_May_09_1414,MusicAffectPsychophysiology2019,3.0.5,60.081712931211385,
To what extent did the music make you feel ,FRUSTRATED,30MonoWAV/30MonoH2.wav,2,2,1,6,,,,,1,8,24,5,0,11,11,3,,,,,,,,,1,0.8188518250026391,015,001,2019_May_09_1414,MusicAffectPsychophysiology2019,3.0.5,60.081712931211385,
,,30MonoWAV/30MonoH2.wav,2,2,1,6,,,,,1,8,24,5,,,,,,,,,,,,,,,015,001,2019_May_09_1414,MusicAffectPsychophysiology2019,3.0.5,60.081712931211385,
To what extent did the music make you feel ,SCARED,30MonoWAV/30MonoF2.wav,1,2,2,2,,,,,1,9,25,1,0,0,0,11,,,2,3.091516178996244,1,1.0347960649960442,1,0.9688816350026173,4,2.568519696003932,015,001,2019_May_09_1414,MusicAffectPsychophysiology2019,3.0.5,60.081712931211385,
To what extent did the music make you feel ,SAD,30MonoWAV/30MonoF2.wav,1,2,2,2,,,,,1,9,25,1,0,1,1,0,,,,,,,,,1,1.2674554660043214,015,001,2019_May_09_1414,MusicAffectPsychophysiology2019,3.0.5,60.081712931211385,
To what extent did the music make you feel ,ANXIOUS ,30MonoWAV/30MonoF2.wav,1,2,2,2,,,,,1,9,25,1,0,2,2,1,,,,,,,,,4,1.266641415997583,015,001,2019_May_09_1414,MusicAffectPsychophysiology2019,3.0.5,60.081712931211385,
To what extent did the music make you feel ,FRUSTRATED,30MonoWAV/30MonoF2.wav,1,2,2,2,,,,,1,9,25,1,0,3,3,3,,,,,,,,,1,3.8347693610048736,015,001,2019_May_09_1414,MusicAffectPsychophysiology2019,3.0.5,60.081712931211385,
To what extent did the music make you feel ,ALERT,30MonoWAV/30MonoF2.wav,1,2,2,2,,,,,1,9,25,1,0,4,4,8,,,,,,,,,3,1.7670905769991805,015,001,2019_May_09_1414,MusicAffectPsychophysiology2019,3.0.5,60.081712931211385,
To what extent did the music make you feel ,ANGRY,30MonoWAV/30MonoF2.wav,1,2,2,2,,,,,1,9,25,1,0,5,5,2,,,,,,,,,1,1.1507387710007606,015,001,2019_May_09_1414,MusicAffectPsychophysiology2019,3.0.5,60.081712931211385,
To what extent did the music make you feel ,EXCITED,30MonoWAV/30MonoF2.wav,1,2,2,2,,,,,1,9,25,1,0,6,6,7,,,,,,,,,1,0.6849415779943229,015,001,2019_May_09_1414,MusicAffectPsychophysiology2019,3.0.5,60.081712931211385,
To what extent did the music make you feel ,HAPPY,30MonoWAV/30MonoF2.wav,1,2,2,2,,,,,1,9,25,1,0,7,7,6,,,,,,,,,1,0.8021102219936438,015,001,2019_May_09_1414,MusicAffectPsychophysiology2019,3.0.5,60.081712931211385,
To what extent did the music make you feel ,ACTIVE,30MonoWAV/30MonoF2.wav,1,2,2,2,,,,,1,9,25,1,0,8,8,9,,,,,,,,,2,2.533141333995445,015,001,2019_May_09_1414,MusicAffectPsychophysiology2019,3.0.5,60.081712931211385,
To what extent did the music make you feel ,TENDER,30MonoWAV/30MonoF2.wav,1,2,2,2,,,,,1,9,25,1,0,9,9,10,,,,,,,,,1,0.6356221579990233,015,001,2019_May_09_1414,MusicAffectPsychophysiology2019,3.0.5,60.081712931211385,
To what extent did the music make you feel ,GUILTY,30MonoWAV/30MonoF2.wav,1,2,2,2,,,,,1,9,25,1,0,10,10,5,,,,,,,,,2,1.0691801189968828,015,001,2019_May_09_1414,MusicAffectPsychophysiology2019,3.0.5,60.081712931211385,
To what extent did the music make you feel ,ASHAMED,30MonoWAV/30MonoF2.wav,1,2,2,2,,,,,1,9,25,1,0,11,11,4,,,,,,,,,2,1.501821285004553,015,001,2019_May_09_1414,MusicAffectPsychophysiology2019,3.0.5,60.081712931211385,
,,30MonoWAV/30MonoF2.wav,1,2,2,2,,,,,1,9,25,1,,,,,,,,,,,,,,,015,001,2019_May_09_1414,MusicAffectPsychophysiology2019,3.0.5,60.081712931211385,
To what extent did the music make you feel ,EXCITED,30MonoWAV/30MonoT4.wav,2,1,4,16,,,,,1,10,26,15,0,0,0,7,,,2,1.7566749999969034,2,1.3172891060021357,2,1.0522647839970887,1,1.2180084040010115,015,001,2019_May_09_1414,MusicAffectPsychophysiology2019,3.0.5,60.081712931211385,
To what extent did the music make you feel ,ACTIVE,30MonoWAV/30MonoT4.wav,2,1,4,16,,,,,1,10,26,15,0,1,1,9,,,,,,,,,2,0.8690071109958808,015,001,2019_May_09_1414,MusicAffectPsychophysiology2019,3.0.5,60.081712931211385,
To what extent did the music make you feel ,HAPPY,30MonoWAV/30MonoT4.wav,2,1,4,16,,,,,1,10,26,15,0,2,2,6,,,,,,,,,2,1.1174391610038583,015,001,2019_May_09_1414,MusicAffectPsychophysiology2019,3.0.5,60.081712931211385,
To what extent did the music make you feel ,SCARED,30MonoWAV/30MonoT4.wav,2,1,4,16,,,,,1,10,26,15,0,3,3,11,,,,,,,,,1,0.8686826339981053,015,001,2019_May_09_1414,MusicAffectPsychophysiology2019,3.0.5,60.081712931211385,
To what extent did the music make you feel ,TENDER,30MonoWAV/30MonoT4.wav,2,1,4,16,,,,,1,10,26,15,0,4,4,10,,,,,,,,,3,1.284006166002655,015,001,2019_May_09_1414,MusicAffectPsychophysiology2019,3.0.5,60.081712931211385,
To what extent did the music make you feel ,ASHAMED,30MonoWAV/30MonoT4.wav,2,1,4,16,,,,,1,10,26,15,0,5,5,4,,,,,,,,,1,1.0178471989929676,015,001,2019_May_09_1414,MusicAffectPsychophysiology2019,3.0.5,60.081712931211385,
To what extent did the music make you feel ,ANGRY,30MonoWAV/30MonoT4.wav,2,1,4,16,,,,,1,10,26,15,0,6,6,2,,,,,,,,,1,2.1691396909955074,015,001,2019_May_09_1414,MusicAffectPsychophysiology2019,3.0.5,60.081712931211385,
To what extent did the music make you feel ,ANXIOUS ,30MonoWAV/30MonoT4.wav,2,1,4,16,,,,,1,10,26,15,0,7,7,1,,,,,,,,,1,0.7518541820027167,015,001,2019_May_09_1414,MusicAffectPsychophysiology2019,3.0.5,60.081712931211385,
To what extent did the music make you feel ,SAD,30MonoWAV/30MonoT4.wav,2,1,4,16,,,,,1,10,26,15,0,8,8,0,,,,,,,,,2,1.2664650470032939,015,001,2019_May_09_1414,MusicAffectPsychophysiology2019,3.0.5,60.081712931211385,
To what extent did the music make you feel ,GUILTY,30MonoWAV/30MonoT4.wav,2,1,4,16,,,,,1,10,26,15,0,9,9,5,,,,,,,,,1,0.7184266350013786,015,001,2019_May_09_1414,MusicAffectPsychophysiology2019,3.0.5,60.081712931211385,
To what extent did the music make you feel ,ALERT,30MonoWAV/30MonoT4.wav,2,1,4,16,,,,,1,10,26,15,0,10,10,8,,,,,,,,,1,0.6845194790003006,015,001,2019_May_09_1414,MusicAffectPsychophysiology2019,3.0.5,60.081712931211385,
To what extent did the music make you feel ,FRUSTRATED,30MonoWAV/30MonoT4.wav,2,1,4,16,,,,,1,10,26,15,0,11,11,3,,,,,,,,,1,0.7012866129953181,015,001,2019_May_09_1414,MusicAffectPsychophysiology2019,3.0.5,60.081712931211385,
,,30MonoWAV/30MonoT4.wav,2,1,4,16,,,,,1,10,26,15,,,,,,,,,,,,,,,015,001,2019_May_09_1414,MusicAffectPsychophysiology2019,3.0.5,60.081712931211385,
To what extent did the music make you feel ,HAPPY,30MonoWAV/30MonoS2.wav,1,1,3,10,,,,,1,11,27,9,0,0,0,6,,,1,2.871482599002775,1,1.5868250550047378,1,0.8865043689947925,1,1.6745858089998364,015,001,2019_May_09_1414,MusicAffectPsychophysiology2019,3.0.5,60.081712931211385,
To what extent did the music make you feel ,ANXIOUS ,30MonoWAV/30MonoS2.wav,1,1,3,10,,,,,1,11,27,9,0,1,1,1,,,,,,,,,1,1.0847824269949342,015,001,2019_May_09_1414,MusicAffectPsychophysiology2019,3.0.5,60.081712931211385,
To what extent did the music make you feel ,ALERT,30MonoWAV/30MonoS2.wav,1,1,3,10,,,,,1,11,27,9,0,2,2,8,,,,,,,,,1,0.6665601019994938,015,001,2019_May_09_1414,MusicAffectPsychophysiology2019,3.0.5,60.081712931211385,
To what extent did the music make you feel ,TENDER,30MonoWAV/30MonoS2.wav,1,1,3,10,,,,,1,11,27,9,0,3,3,10,,,,,,,,,3,2.5343909750008606,015,001,2019_May_09_1414,MusicAffectPsychophysiology2019,3.0.5,60.081712931211385,
To what extent did the music make you feel ,EXCITED,30MonoWAV/30MonoS2.wav,1,1,3,10,,,,,1,11,27,9,0,4,4,7,,,,,,,,,1,1.0514540340009262,015,001,2019_May_09_1414,MusicAffectPsychophysiology2019,3.0.5,60.081712931211385,
To what extent did the music make you feel ,SCARED,30MonoWAV/30MonoS2.wav,1,1,3,10,,,,,1,11,27,9,0,5,5,11,,,,,,,,,1,2.2018752150033833,015,001,2019_May_09_1414,MusicAffectPsychophysiology2019,3.0.5,60.081712931211385,
To what extent did the music make you feel ,GUILTY,30MonoWAV/30MonoS2.wav,1,1,3,10,,,,,1,11,27,9,0,6,6,5,,,,,,,,,2,3.2178667369953473,015,001,2019_May_09_1414,MusicAffectPsychophysiology2019,3.0.5,60.081712931211385,
To what extent did the music make you feel ,SAD,30MonoWAV/30MonoS2.wav,1,1,3,10,,,,,1,11,27,9,0,7,7,0,,,,,,,,,4,1.802190808004525,015,001,2019_May_09_1414,MusicAffectPsychophysiology2019,3.0.5,60.081712931211385,
To what extent did the music make you feel ,FRUSTRATED,30MonoWAV/30MonoS2.wav,1,1,3,10,,,,,1,11,27,9,0,8,8,3,,,,,,,,,1,1.1851947199975257,015,001,2019_May_09_1414,MusicAffectPsychophysiology2019,3.0.5,60.081712931211385,
To what extent did the music make you feel ,ASHAMED,30MonoWAV/30MonoS2.wav,1,1,3,10,,,,,1,11,27,9,0,9,9,4,,,,,,,,,2,2.9686550839978736,015,001,2019_May_09_1414,MusicAffectPsychophysiology2019,3.0.5,60.081712931211385,
To what extent did the music make you feel ,ANGRY,30MonoWAV/30MonoS2.wav,1,1,3,10,,,,,1,11,27,9,0,10,10,2,,,,,,,,,1,0.8353095700003905,015,001,2019_May_09_1414,MusicAffectPsychophysiology2019,3.0.5,60.081712931211385,
To what extent did the music make you feel ,ACTIVE,30MonoWAV/30MonoS2.wav,1,1,3,10,,,,,1,11,27,9,0,11,11,9,,,,,,,,,1,0.7513331949958229,015,001,2019_May_09_1414,MusicAffectPsychophysiology2019,3.0.5,60.081712931211385,
,,30MonoWAV/30MonoS2.wav,1,1,3,10,,,,,1,11,27,9,,,,,,,,,,,,,,,015,001,2019_May_09_1414,MusicAffectPsychophysiology2019,3.0.5,60.081712931211385,
To what extent did the music make you feel ,GUILTY,30MonoWAV/30MonoT1.wav,2,1,4,13,,,,,1,12,28,12,0,0,0,5,,,1,2.452415697996912,2,2.3692725180007983,2,1.1020263180034817,1,1.2998629799985792,015,001,2019_May_09_1414,MusicAffectPsychophysiology2019,3.0.5,60.081712931211385,
To what extent did the music make you feel ,ACTIVE,30MonoWAV/30MonoT1.wav,2,1,4,13,,,,,1,12,28,12,0,1,1,9,,,,,,,,,1,0.7023218940012157,015,001,2019_May_09_1414,MusicAffectPsychophysiology2019,3.0.5,60.081712931211385,
To what extent did the music make you feel ,ASHAMED,30MonoWAV/30MonoT1.wav,2,1,4,13,,,,,1,12,28,12,0,2,2,4,,,,,,,,,1,0.8862278919987148,015,001,2019_May_09_1414,MusicAffectPsychophysiology2019,3.0.5,60.081712931211385,
To what extent did the music make you feel ,ALERT,30MonoWAV/30MonoT1.wav,2,1,4,13,,,,,1,12,28,12,0,3,3,8,,,,,,,,,1,0.7174832590026199,015,001,2019_May_09_1414,MusicAffectPsychophysiology2019,3.0.5,60.081712931211385,
To what extent did the music make you feel ,TENDER,30MonoWAV/30MonoT1.wav,2,1,4,13,,,,,1,12,28,12,0,4,4,10,,,,,,,,,4,1.3519652350005344,015,001,2019_May_09_1414,MusicAffectPsychophysiology2019,3.0.5,60.081712931211385,
To what extent did the music make you feel ,SAD,30MonoWAV/30MonoT1.wav,2,1,4,13,,,,,1,12,28,12,0,5,5,0,,,,,,,,,3,2.501961529000255,015,001,2019_May_09_1414,MusicAffectPsychophysiology2019,3.0.5,60.081712931211385,
To what extent did the music make you feel ,SCARED,30MonoWAV/30MonoT1.wav,2,1,4,13,,,,,1,12,28,12,0,6,6,11,,,,,,,,,1,1.584878680005204,015,001,2019_May_09_1414,MusicAffectPsychophysiology2019,3.0.5,60.081712931211385,
To what extent did the music make you feel ,ANGRY,30MonoWAV/30MonoT1.wav,2,1,4,13,,,,,1,12,28,12,0,7,7,2,,,,,,,,,1,0.7350851570008672,015,001,2019_May_09_1414,MusicAffectPsychophysiology2019,3.0.5,60.081712931211385,
To what extent did the music make you feel ,FRUSTRATED,30MonoWAV/30MonoT1.wav,2,1,4,13,,,,,1,12,28,12,0,8,8,3,,,,,,,,,1,0.8513901680053095,015,001,2019_May_09_1414,MusicAffectPsychophysiology2019,3.0.5,60.081712931211385,
To what extent did the music make you feel ,ANXIOUS ,30MonoWAV/30MonoT1.wav,2,1,4,13,,,,,1,12,28,12,0,9,9,1,,,,,,,,,1,0.718173184999614,015,001,2019_May_09_1414,MusicAffectPsychophysiology2019,3.0.5,60.081712931211385,
To what extent did the music make you feel ,HAPPY,30MonoWAV/30MonoT1.wav,2,1,4,13,,,,,1,12,28,12,0,10,10,6,,,,,,,,,1,1.7181510029986384,015,001,2019_May_09_1414,MusicAffectPsychophysiology2019,3.0.5,60.081712931211385,
To what extent did the music make you feel ,EXCITED,30MonoWAV/30MonoT1.wav,2,1,4,13,,,,,1,12,28,12,0,11,11,7,,,,,,,,,1,0.7526233269963996,015,001,2019_May_09_1414,MusicAffectPsychophysiology2019,3.0.5,60.081712931211385,
,,30MonoWAV/30MonoT1.wav,2,1,4,13,,,,,1,12,28,12,,,,,,,,,,,,,,,015,001,2019_May_09_1414,MusicAffectPsychophysiology2019,3.0.5,60.081712931211385,
To what extent did the music make you feel ,ACTIVE,30MonoWAV/30MonoS4.wav,1,1,3,12,,,,,1,13,29,11,0,0,0,9,,,1,2.00216615699901,1,1.5177207349988748,2,1.2855426430032821,1,0.9015491749960347,015,001,2019_May_09_1414,MusicAffectPsychophysiology2019,3.0.5,60.081712931211385,
To what extent did the music make you feel ,TENDER,30MonoWAV/30MonoS4.wav,1,1,3,12,,,,,1,13,29,11,0,1,1,10,,,,,,,,,4,1.6177321809955174,015,001,2019_May_09_1414,MusicAffectPsychophysiology2019,3.0.5,60.081712931211385,
To what extent did the music make you feel ,ANXIOUS ,30MonoWAV/30MonoS4.wav,1,1,3,12,,,,,1,13,29,11,0,2,2,1,,,,,,,,,1,1.0338805840001442,015,001,2019_May_09_1414,MusicAffectPsychophysiology2019,3.0.5,60.081712931211385,
To what extent did the music make you feel ,HAPPY,30MonoWAV/30MonoS4.wav,1,1,3,12,,,,,1,13,29,11,0,3,3,6,,,,,,,,,1,0.8193059920013184,015,001,2019_May_09_1414,MusicAffectPsychophysiology2019,3.0.5,60.081712931211385,
To what extent did the music make you feel ,SCARED,30MonoWAV/30MonoS4.wav,1,1,3,12,,,,,1,13,29,11,0,4,4,11,,,,,,,,,2,1.7509148819954135,015,001,2019_May_09_1414,MusicAffectPsychophysiology2019,3.0.5,60.081712931211385,
To what extent did the music make you feel ,SAD,30MonoWAV/30MonoS4.wav,1,1,3,12,,,,,1,13,29,11,0,5,5,0,,,,,,,,,5,2.534791553996911,015,001,2019_May_09_1414,MusicAffectPsychophysiology2019,3.0.5,60.081712931211385,
To what extent did the music make you feel ,EXCITED,30MonoWAV/30MonoS4.wav,1,1,3,12,,,,,1,13,29,11,0,6,6,7,,,,,,,,,1,1.1836237519964925,015,001,2019_May_09_1414,MusicAffectPsychophysiology2019,3.0.5,60.081712931211385,
To what extent did the music make you feel ,ANGRY,30MonoWAV/30MonoS4.wav,1,1,3,12,,,,,1,13,29,11,0,7,7,2,,,,,,,,,1,1.1022557729957043,015,001,2019_May_09_1414,MusicAffectPsychophysiology2019,3.0.5,60.081712931211385,
To what extent did the music make you feel ,ALERT,30MonoWAV/30MonoS4.wav,1,1,3,12,,,,,1,13,29,11,0,8,8,8,,,,,,,,,1,2.43489905000024,015,001,2019_May_09_1414,MusicAffectPsychophysiology2019,3.0.5,60.081712931211385,
To what extent did the music make you feel ,FRUSTRATED,30MonoWAV/30MonoS4.wav,1,1,3,12,,,,,1,13,29,11,0,9,9,3,,,,,,,,,1,0.8507627569997567,015,001,2019_May_09_1414,MusicAffectPsychophysiology2019,3.0.5,60.081712931211385,
To what extent did the music make you feel ,ASHAMED,30MonoWAV/30MonoS4.wav,1,1,3,12,,,,,1,13,29,11,0,10,10,4,,,,,,,,,1,1.1679200290018343,015,001,2019_May_09_1414,MusicAffectPsychophysiology2019,3.0.5,60.081712931211385,
To what extent did the music make you feel ,GUILTY,30MonoWAV/30MonoS4.wav,1,1,3,12,,,,,1,13,29,11,0,11,11,5,,,,,,,,,1,0.6678669089960749,015,001,2019_May_09_1414,MusicAffectPsychophysiology2019,3.0.5,60.081712931211385,
,,30MonoWAV/30MonoS4.wav,1,1,3,12,,,,,1,13,29,11,,,,,,,,,,,,,,,015,001,2019_May_09_1414,MusicAffectPsychophysiology2019,3.0.5,60.081712931211385,
To what extent did the music make you feel ,ACTIVE,30MonoWAV/30MonoH4.wav,2,2,1,8,,,,,1,14,30,7,0,0,0,9,,,3,2.7347633779936587,3,2.3245610329977353,2,1.3205534720036667,3,1.8877445610050927,015,001,2019_May_09_1414,MusicAffectPsychophysiology2019,3.0.5,60.081712931211385,
To what extent did the music make you feel ,HAPPY,30MonoWAV/30MonoH4.wav,2,2,1,8,,,,,1,14,30,7,0,1,1,6,,,,,,,,,3,1.087094041002274,015,001,2019_May_09_1414,MusicAffectPsychophysiology2019,3.0.5,60.081712931211385,
To what extent did the music make you feel ,SAD,30MonoWAV/30MonoH4.wav,2,2,1,8,,,,,1,14,30,7,0,2,2,0,,,,,,,,,1,1.4736270620051073,015,001,2019_May_09_1414,MusicAffectPsychophysiology2019,3.0.5,60.081712931211385,
To what extent did the music make you feel ,ANGRY,30MonoWAV/30MonoH4.wav,2,2,1,8,,,,,1,14,30,7,0,3,3,2,,,,,,,,,1,0.9161197840003297,015,001,2019_May_09_1414,MusicAffectPsychophysiology2019,3.0.5,60.081712931211385,
To what extent did the music make you feel ,TENDER,30MonoWAV/30MonoH4.wav,2,2,1,8,,,,,1,14,30,7,0,4,4,10,,,,,,,,,1,0.8186189789994387,015,001,2019_May_09_1414,MusicAffectPsychophysiology2019,3.0.5,60.081712931211385,
To what extent did the music make you feel ,ALERT,30MonoWAV/30MonoH4.wav,2,2,1,8,,,,,1,14,30,7,0,5,5,8,,,,,,,,,1,1.1033379030050128,015,001,2019_May_09_1414,MusicAffectPsychophysiology2019,3.0.5,60.081712931211385,
To what extent did the music make you feel ,EXCITED,30MonoWAV/30MonoH4.wav,2,2,1,8,,,,,1,14,30,7,0,6,6,7,,,,,,,,,3,1.5683325529971626,015,001,2019_May_09_1414,MusicAffectPsychophysiology2019,3.0.5,60.081712931211385,
To what extent did the music make you feel ,ASHAMED,30MonoWAV/30MonoH4.wav,2,2,1,8,,,,,1,14,30,7,0,7,7,4,,,,,,,,,1,0.736107359000016,015,001,2019_May_09_1414,MusicAffectPsychophysiology2019,3.0.5,60.081712931211385,
To what extent did the music make you feel ,FRUSTRATED,30MonoWAV/30MonoH4.wav,2,2,1,8,,,,,1,14,30,7,0,8,8,3,,,,,,,,,1,0.5682940990009229,015,001,2019_May_09_1414,MusicAffectPsychophysiology2019,3.0.5,60.081712931211385,
To what extent did the music make you feel ,GUILTY,30MonoWAV/30MonoH4.wav,2,2,1,8,,,,,1,14,30,7,0,9,9,5,,,,,,,,,1,0.6013050740002654,015,001,2019_May_09_1414,MusicAffectPsychophysiology2019,3.0.5,60.081712931211385,
To what extent did the music make you feel ,ANXIOUS ,30MonoWAV/30MonoH4.wav,2,2,1,8,,,,,1,14,30,7,0,10,10,1,,,,,,,,,1,0.7848561150021851,015,001,2019_May_09_1414,MusicAffectPsychophysiology2019,3.0.5,60.081712931211385,
To what extent did the music make you feel ,SCARED,30MonoWAV/30MonoH4.wav,2,2,1,8,,,,,1,14,30,7,0,11,11,11,,,,,,,,,1,1.0184368120026193,015,001,2019_May_09_1414,MusicAffectPsychophysiology2019,3.0.5,60.081712931211385,
,,30MonoWAV/30MonoH4.wav,2,2,1,8,,,,,1,14,30,7,,,,,,,,,,,,,,,015,001,2019_May_09_1414,MusicAffectPsychophysiology2019,3.0.5,60.081712931211385,
To what extent did the music make you feel ,ACTIVE,30MonoWAV/30MonoS1.wav,1,1,3,9,,,,,1,15,31,8,0,0,0,9,,,1,1.9734254659997532,1,1.415953959003673,2,0.9679093800004921,1,0.9522442939996836,015,001,2019_May_09_1414,MusicAffectPsychophysiology2019,3.0.5,60.081712931211385,
To what extent did the music make you feel ,SCARED,30MonoWAV/30MonoS1.wav,1,1,3,9,,,,,1,15,31,8,0,1,1,11,,,,,,,,,2,1.6353387380004278,015,001,2019_May_09_1414,MusicAffectPsychophysiology2019,3.0.5,60.081712931211385,
To what extent did the music make you feel ,SAD,30MonoWAV/30MonoS1.wav,1,1,3,9,,,,,1,15,31,8,0,2,2,0,,,,,,,,,4,2.818095219001407,015,001,2019_May_09_1414,MusicAffectPsychophysiology2019,3.0.5,60.081712931211385,
To what extent did the music make you feel ,EXCITED,30MonoWAV/30MonoS1.wav,1,1,3,9,,,,,1,15,31,8,0,3,3,7,,,,,,,,,1,2.734625381002843,015,001,2019_May_09_1414,MusicAffectPsychophysiology2019,3.0.5,60.081712931211385,
To what extent did the music make you feel ,ASHAMED,30MonoWAV/30MonoS1.wav,1,1,3,9,,,,,1,15,31,8,0,4,4,4,,,,,,,,,2,1.118500695003604,015,001,2019_May_09_1414,MusicAffectPsychophysiology2019,3.0.5,60.081712931211385,
To what extent did the music make you feel ,HAPPY,30MonoWAV/30MonoS1.wav,1,1,3,9,,,,,1,15,31,8,0,5,5,6,,,,,,,,,1,0.8520481849991484,015,001,2019_May_09_1414,MusicAffectPsychophysiology2019,3.0.5,60.081712931211385,
To what extent did the music make you feel ,GUILTY,30MonoWAV/30MonoS1.wav,1,1,3,9,,,,,1,15,31,8,0,6,6,5,,,,,,,,,2,0.6354349169996567,015,001,2019_May_09_1414,MusicAffectPsychophysiology2019,3.0.5,60.081712931211385,
To what extent did the music make you feel ,ALERT,30MonoWAV/30MonoS1.wav,1,1,3,9,,,,,1,15,31,8,0,7,7,8,,,,,,,,,1,0.6190334120037733,015,001,2019_May_09_1414,MusicAffectPsychophysiology2019,3.0.5,60.081712931211385,
To what extent did the music make you feel ,ANXIOUS ,30MonoWAV/30MonoS1.wav,1,1,3,9,,,,,1,15,31,8,0,8,8,1,,,,,,,,,1,1.2518233790033264,015,001,2019_May_09_1414,MusicAffectPsychophysiology2019,3.0.5,60.081712931211385,
To what extent did the music make you feel ,TENDER,30MonoWAV/30MonoS1.wav,1,1,3,9,,,,,1,15,31,8,0,9,9,10,,,,,,,,,3,2.152681368002959,015,001,2019_May_09_1414,MusicAffectPsychophysiology2019,3.0.5,60.081712931211385,
To what extent did the music make you feel ,FRUSTRATED,30MonoWAV/30MonoS1.wav,1,1,3,9,,,,,1,15,31,8,0,10,10,3,,,,,,,,,1,0.9851414860022487,015,001,2019_May_09_1414,MusicAffectPsychophysiology2019,3.0.5,60.081712931211385,
To what extent did the music make you feel ,ANGRY,30MonoWAV/30MonoS1.wav,1,1,3,9,,,,,1,15,31,8,0,11,11,2,,,,,,,,,1,0.9030137400040985,015,001,2019_May_09_1414,MusicAffectPsychophysiology2019,3.0.5,60.081712931211385,
,,30MonoWAV/30MonoS1.wav,1,1,3,9,,,,,1,15,31,8,,,,,,,,,,,,,,,015,001,2019_May_09_1414,MusicAffectPsychophysiology2019,3.0.5,60.081712931211385,
