Instruction,Word,song,valence,arousal,affectcat,songmark,pracwords.thisRepN,pracwords.thisTrialN,pracwords.thisN,pracwords.thisIndex,songtrials.thisRepN,songtrials.thisTrialN,songtrials.thisN,songtrials.thisIndex,words.thisRepN,words.thisTrialN,words.thisN,words.thisIndex,begin.keys,begin.rt,arousalkey.keys,arousalkey.rt,valencekey.keys,valencekey.rt,likekey.keys,likekey.rt,WordResponse.keys,WordResponse.rt,participant,session,date,expName,psychopyVersion,frameRate,
,,,,,,,,,,,,,,,,,,,return,31.163014575002308,,,,,,,,,016,001,2019_May_09_1515,MusicAffectPsychophysiology2019,3.0.5,59.90066708314032,
,,,,,,,,,,,,,,,,,,,,,4,4.419377712001733,,,,,,,016,001,2019_May_09_1515,MusicAffectPsychophysiology2019,3.0.5,59.90066708314032,
,,,,,,,,,,,,,,,,,,,,,,,3,4.500587342001381,,,,,016,001,2019_May_09_1515,MusicAffectPsychophysiology2019,3.0.5,59.90066708314032,
,,,,,,,,,,,,,,,,,,,,,,,,,3,2.5512270550025278,,,016,001,2019_May_09_1515,MusicAffectPsychophysiology2019,3.0.5,59.90066708314032,
To what extent did the music make you feel ,SCARED,,,,,,0,0,0,11,,,,,,,,,,,,,,,,,1,3.0234887080005137,016,001,2019_May_09_1515,MusicAffectPsychophysiology2019,3.0.5,59.90066708314032,
To what extent did the music make you feel ,ANGRY,,,,,,0,1,1,2,,,,,,,,,,,,,,,,,1,1.4510965569934342,016,001,2019_May_09_1515,MusicAffectPsychophysiology2019,3.0.5,59.90066708314032,
To what extent did the music make you feel ,ANXIOUS ,,,,,,0,2,2,1,,,,,,,,,,,,,,,,,1,0.9865455330000259,016,001,2019_May_09_1515,MusicAffectPsychophysiology2019,3.0.5,59.90066708314032,
To what extent did the music make you feel ,ASHAMED,,,,,,0,3,3,4,,,,,,,,,,,,,,,,,1,0.8685596380018978,016,001,2019_May_09_1515,MusicAffectPsychophysiology2019,3.0.5,59.90066708314032,
To what extent did the music make you feel ,EXCITED,,,,,,0,4,4,7,,,,,,,,,,,,,,,,,3,4.118155078002019,016,001,2019_May_09_1515,MusicAffectPsychophysiology2019,3.0.5,59.90066708314032,
To what extent did the music make you feel ,TENDER,,,,,,0,5,5,10,,,,,,,,,,,,,,,,,3,4.569175101998553,016,001,2019_May_09_1515,MusicAffectPsychophysiology2019,3.0.5,59.90066708314032,
To what extent did the music make you feel ,ACTIVE,,,,,,0,6,6,9,,,,,,,,,,,,,,,,,4,2.349073451005097,016,001,2019_May_09_1515,MusicAffectPsychophysiology2019,3.0.5,59.90066708314032,
To what extent did the music make you feel ,HAPPY,,,,,,0,7,7,6,,,,,,,,,,,,,,,,,4,1.2677809660017374,016,001,2019_May_09_1515,MusicAffectPsychophysiology2019,3.0.5,59.90066708314032,
To what extent did the music make you feel ,GUILTY,,,,,,0,8,8,5,,,,,,,,,,,,,,,,,1,1.4354920840050909,016,001,2019_May_09_1515,MusicAffectPsychophysiology2019,3.0.5,59.90066708314032,
To what extent did the music make you feel ,FRUSTRATED,,,,,,0,9,9,3,,,,,,,,,,,,,,,,,1,1.3515210689947708,016,001,2019_May_09_1515,MusicAffectPsychophysiology2019,3.0.5,59.90066708314032,
To what extent did the music make you feel ,SAD,,,,,,0,10,10,0,,,,,,,,,,,,,,,,,1,0.6684137190022739,016,001,2019_May_09_1515,MusicAffectPsychophysiology2019,3.0.5,59.90066708314032,
To what extent did the music make you feel ,ALERT,,,,,,0,11,11,8,,,,,,,,,,,,,,,,,2,3.0090060160000576,016,001,2019_May_09_1515,MusicAffectPsychophysiology2019,3.0.5,59.90066708314032,
To what extent did the music make you feel ,FRUSTRATED,30MonoWAV/30MonoF3.wav,1,2,2,3,,,,,0,0,0,2,0,0,0,3,,,3,5.2515361350015155,1,3.7343646570006968,1,2.334927459996834,2,2.452312621004239,016,001,2019_May_09_1515,MusicAffectPsychophysiology2019,3.0.5,59.90066708314032,
To what extent did the music make you feel ,ACTIVE,30MonoWAV/30MonoF3.wav,1,2,2,3,,,,,0,0,0,2,0,1,1,9,,,,,,,,,3,1.8852808980009286,016,001,2019_May_09_1515,MusicAffectPsychophysiology2019,3.0.5,59.90066708314032,
To what extent did the music make you feel ,SCARED,30MonoWAV/30MonoF3.wav,1,2,2,3,,,,,0,0,0,2,0,2,2,11,,,,,,,,,4,3.4019582270047977,016,001,2019_May_09_1515,MusicAffectPsychophysiology2019,3.0.5,59.90066708314032,
To what extent did the music make you feel ,ANXIOUS ,30MonoWAV/30MonoF3.wav,1,2,2,3,,,,,0,0,0,2,0,3,3,1,,,,,,,,,5,2.101650791002612,016,001,2019_May_09_1515,MusicAffectPsychophysiology2019,3.0.5,59.90066708314032,
To what extent did the music make you feel ,SAD,30MonoWAV/30MonoF3.wav,1,2,2,3,,,,,0,0,0,2,0,4,4,0,,,,,,,,,2,3.052425105997827,016,001,2019_May_09_1515,MusicAffectPsychophysiology2019,3.0.5,59.90066708314032,
To what extent did the music make you feel ,TENDER,30MonoWAV/30MonoF3.wav,1,2,2,3,,,,,0,0,0,2,0,5,5,10,,,,,,,,,2,3.885233540997433,016,001,2019_May_09_1515,MusicAffectPsychophysiology2019,3.0.5,59.90066708314032,
To what extent did the music make you feel ,GUILTY,30MonoWAV/30MonoF3.wav,1,2,2,3,,,,,0,0,0,2,0,6,6,5,,,,,,,,,2,3.6182109090004815,016,001,2019_May_09_1515,MusicAffectPsychophysiology2019,3.0.5,59.90066708314032,
To what extent did the music make you feel ,ALERT,30MonoWAV/30MonoF3.wav,1,2,2,3,,,,,0,0,0,2,0,7,7,8,,,,,,,,,4,2.6017280380037846,016,001,2019_May_09_1515,MusicAffectPsychophysiology2019,3.0.5,59.90066708314032,
To what extent did the music make you feel ,HAPPY,30MonoWAV/30MonoF3.wav,1,2,2,3,,,,,0,0,0,2,0,8,8,6,,,,,,,,,1,1.6183686739968834,016,001,2019_May_09_1515,MusicAffectPsychophysiology2019,3.0.5,59.90066708314032,
To what extent did the music make you feel ,EXCITED,30MonoWAV/30MonoF3.wav,1,2,2,3,,,,,0,0,0,2,0,9,9,7,,,,,,,,,1,0.9356172699990566,016,001,2019_May_09_1515,MusicAffectPsychophysiology2019,3.0.5,59.90066708314032,
To what extent did the music make you feel ,ANGRY,30MonoWAV/30MonoF3.wav,1,2,2,3,,,,,0,0,0,2,0,10,10,2,,,,,,,,,1,2.2678364509993116,016,001,2019_May_09_1515,MusicAffectPsychophysiology2019,3.0.5,59.90066708314032,
To what extent did the music make you feel ,ASHAMED,30MonoWAV/30MonoF3.wav,1,2,2,3,,,,,0,0,0,2,0,11,11,4,,,,,,,,,2,3.2194759999983944,016,001,2019_May_09_1515,MusicAffectPsychophysiology2019,3.0.5,59.90066708314032,
,,30MonoWAV/30MonoF3.wav,1,2,2,3,,,,,0,0,0,2,,,,,,,,,,,,,,,016,001,2019_May_09_1515,MusicAffectPsychophysiology2019,3.0.5,59.90066708314032,
To what extent did the music make you feel ,ASHAMED,30MonoWAV/30MonoH2.wav,2,2,1,6,,,,,0,1,1,5,0,0,0,4,,,5,2.884162948001176,4,4.451575970000704,4,3.3178314580000006,1,1.5848637929957476,016,001,2019_May_09_1515,MusicAffectPsychophysiology2019,3.0.5,59.90066708314032,
To what extent did the music make you feel ,ANXIOUS ,30MonoWAV/30MonoH2.wav,2,2,1,6,,,,,0,1,1,5,0,1,1,1,,,,,,,,,1,1.3019398169999477,016,001,2019_May_09_1515,MusicAffectPsychophysiology2019,3.0.5,59.90066708314032,
To what extent did the music make you feel ,TENDER,30MonoWAV/30MonoH2.wav,2,2,1,6,,,,,0,1,1,5,0,2,2,10,,,,,,,,,1,1.3996505429968238,016,001,2019_May_09_1515,MusicAffectPsychophysiology2019,3.0.5,59.90066708314032,
To what extent did the music make you feel ,ALERT,30MonoWAV/30MonoH2.wav,2,2,1,6,,,,,0,1,1,5,0,3,3,8,,,,,,,,,2,2.1016330209968146,016,001,2019_May_09_1515,MusicAffectPsychophysiology2019,3.0.5,59.90066708314032,
To what extent did the music make you feel ,HAPPY,30MonoWAV/30MonoH2.wav,2,2,1,6,,,,,0,1,1,5,0,4,4,6,,,,,,,,,3,2.3989594309969107,016,001,2019_May_09_1515,MusicAffectPsychophysiology2019,3.0.5,59.90066708314032,
To what extent did the music make you feel ,GUILTY,30MonoWAV/30MonoH2.wav,2,2,1,6,,,,,0,1,1,5,0,5,5,5,,,,,,,,,1,1.7856662990016048,016,001,2019_May_09_1515,MusicAffectPsychophysiology2019,3.0.5,59.90066708314032,
To what extent did the music make you feel ,SCARED,30MonoWAV/30MonoH2.wav,2,2,1,6,,,,,0,1,1,5,0,6,6,11,,,,,,,,,1,1.018248673004564,016,001,2019_May_09_1515,MusicAffectPsychophysiology2019,3.0.5,59.90066708314032,
To what extent did the music make you feel ,EXCITED,30MonoWAV/30MonoH2.wav,2,2,1,6,,,,,0,1,1,5,0,7,7,7,,,,,,,,,5,3.450225414999295,016,001,2019_May_09_1515,MusicAffectPsychophysiology2019,3.0.5,59.90066708314032,
To what extent did the music make you feel ,SAD,30MonoWAV/30MonoH2.wav,2,2,1,6,,,,,0,1,1,5,0,8,8,0,,,,,,,,,1,1.8847436139985803,016,001,2019_May_09_1515,MusicAffectPsychophysiology2019,3.0.5,59.90066708314032,
To what extent did the music make you feel ,ACTIVE,30MonoWAV/30MonoH2.wav,2,2,1,6,,,,,0,1,1,5,0,9,9,9,,,,,,,,,5,1.618005896001705,016,001,2019_May_09_1515,MusicAffectPsychophysiology2019,3.0.5,59.90066708314032,
To what extent did the music make you feel ,FRUSTRATED,30MonoWAV/30MonoH2.wav,2,2,1,6,,,,,0,1,1,5,0,10,10,3,,,,,,,,,1,2.717737008999393,016,001,2019_May_09_1515,MusicAffectPsychophysiology2019,3.0.5,59.90066708314032,
To what extent did the music make you feel ,ANGRY,30MonoWAV/30MonoH2.wav,2,2,1,6,,,,,0,1,1,5,0,11,11,2,,,,,,,,,1,0.6510347930015996,016,001,2019_May_09_1515,MusicAffectPsychophysiology2019,3.0.5,59.90066708314032,
,,30MonoWAV/30MonoH2.wav,2,2,1,6,,,,,0,1,1,5,,,,,,,,,,,,,,,016,001,2019_May_09_1515,MusicAffectPsychophysiology2019,3.0.5,59.90066708314032,
To what extent did the music make you feel ,ACTIVE,30MonoWAV/30MonoH4.wav,2,2,1,8,,,,,0,2,2,7,0,0,0,9,,,5,2.3680408820000594,5,1.3350238069979241,5,1.3837254740064964,5,1.1849515209978563,016,001,2019_May_09_1515,MusicAffectPsychophysiology2019,3.0.5,59.90066708314032,
To what extent did the music make you feel ,TENDER,30MonoWAV/30MonoH4.wav,2,2,1,8,,,,,0,2,2,7,0,1,1,10,,,,,,,,,1,1.7012757400007104,016,001,2019_May_09_1515,MusicAffectPsychophysiology2019,3.0.5,59.90066708314032,
To what extent did the music make you feel ,ALERT,30MonoWAV/30MonoH4.wav,2,2,1,8,,,,,0,2,2,7,0,2,2,8,,,,,,,,,3,2.350363997000386,016,001,2019_May_09_1515,MusicAffectPsychophysiology2019,3.0.5,59.90066708314032,
To what extent did the music make you feel ,ASHAMED,30MonoWAV/30MonoH4.wav,2,2,1,8,,,,,0,2,2,7,0,3,3,4,,,,,,,,,1,0.9865092120016925,016,001,2019_May_09_1515,MusicAffectPsychophysiology2019,3.0.5,59.90066708314032,
To what extent did the music make you feel ,SCARED,30MonoWAV/30MonoH4.wav,2,2,1,8,,,,,0,2,2,7,0,4,4,11,,,,,,,,,1,1.418983791001665,016,001,2019_May_09_1515,MusicAffectPsychophysiology2019,3.0.5,59.90066708314032,
To what extent did the music make you feel ,FRUSTRATED,30MonoWAV/30MonoH4.wav,2,2,1,8,,,,,0,2,2,7,0,5,5,3,,,,,,,,,1,0.7348530660019605,016,001,2019_May_09_1515,MusicAffectPsychophysiology2019,3.0.5,59.90066708314032,
To what extent did the music make you feel ,ANXIOUS ,30MonoWAV/30MonoH4.wav,2,2,1,8,,,,,0,2,2,7,0,6,6,1,,,,,,,,,1,0.8177898659996572,016,001,2019_May_09_1515,MusicAffectPsychophysiology2019,3.0.5,59.90066708314032,
To what extent did the music make you feel ,ANGRY,30MonoWAV/30MonoH4.wav,2,2,1,8,,,,,0,2,2,7,0,7,7,2,,,,,,,,,1,0.6853779279990704,016,001,2019_May_09_1515,MusicAffectPsychophysiology2019,3.0.5,59.90066708314032,
To what extent did the music make you feel ,SAD,30MonoWAV/30MonoH4.wav,2,2,1,8,,,,,0,2,2,7,0,8,8,0,,,,,,,,,1,0.6520488359965384,016,001,2019_May_09_1515,MusicAffectPsychophysiology2019,3.0.5,59.90066708314032,
To what extent did the music make you feel ,GUILTY,30MonoWAV/30MonoH4.wav,2,2,1,8,,,,,0,2,2,7,0,9,9,5,,,,,,,,,1,0.5845502540032612,016,001,2019_May_09_1515,MusicAffectPsychophysiology2019,3.0.5,59.90066708314032,
To what extent did the music make you feel ,EXCITED,30MonoWAV/30MonoH4.wav,2,2,1,8,,,,,0,2,2,7,0,10,10,7,,,,,,,,,5,2.1025010949961143,016,001,2019_May_09_1515,MusicAffectPsychophysiology2019,3.0.5,59.90066708314032,
To what extent did the music make you feel ,HAPPY,30MonoWAV/30MonoH4.wav,2,2,1,8,,,,,0,2,2,7,0,11,11,6,,,,,,,,,5,0.6520825160041568,016,001,2019_May_09_1515,MusicAffectPsychophysiology2019,3.0.5,59.90066708314032,
,,30MonoWAV/30MonoH4.wav,2,2,1,8,,,,,0,2,2,7,,,,,,,,,,,,,,,016,001,2019_May_09_1515,MusicAffectPsychophysiology2019,3.0.5,59.90066708314032,
To what extent did the music make you feel ,HAPPY,30MonoWAV/30MonoT4.wav,2,1,4,16,,,,,0,3,3,15,0,0,0,6,,,3,6.773176130001957,4,3.656197174001136,3,2.6247609310012194,3,3.816398378003214,016,001,2019_May_09_1515,MusicAffectPsychophysiology2019,3.0.5,59.90066708314032,
To what extent did the music make you feel ,TENDER,30MonoWAV/30MonoT4.wav,2,1,4,16,,,,,0,3,3,15,0,1,1,10,,,,,,,,,4,1.7512975979989278,016,001,2019_May_09_1515,MusicAffectPsychophysiology2019,3.0.5,59.90066708314032,
To what extent did the music make you feel ,ALERT,30MonoWAV/30MonoT4.wav,2,1,4,16,,,,,0,3,3,15,0,2,2,8,,,,,,,,,1,1.9513374629968894,016,001,2019_May_09_1515,MusicAffectPsychophysiology2019,3.0.5,59.90066708314032,
To what extent did the music make you feel ,FRUSTRATED,30MonoWAV/30MonoT4.wav,2,1,4,16,,,,,0,3,3,15,0,3,3,3,,,,,,,,,1,0.517189120000694,016,001,2019_May_09_1515,MusicAffectPsychophysiology2019,3.0.5,59.90066708314032,
To what extent did the music make you feel ,ACTIVE,30MonoWAV/30MonoT4.wav,2,1,4,16,,,,,0,3,3,15,0,4,4,9,,,,,,,,,1,1.6351664399990113,016,001,2019_May_09_1515,MusicAffectPsychophysiology2019,3.0.5,59.90066708314032,
To what extent did the music make you feel ,SAD,30MonoWAV/30MonoT4.wav,2,1,4,16,,,,,0,3,3,15,0,5,5,0,,,,,,,,,1,0.5680293920013355,016,001,2019_May_09_1515,MusicAffectPsychophysiology2019,3.0.5,59.90066708314032,
To what extent did the music make you feel ,SCARED,30MonoWAV/30MonoT4.wav,2,1,4,16,,,,,0,3,3,15,0,6,6,11,,,,,,,,,1,1.2843264490002184,016,001,2019_May_09_1515,MusicAffectPsychophysiology2019,3.0.5,59.90066708314032,
To what extent did the music make you feel ,ANGRY,30MonoWAV/30MonoT4.wav,2,1,4,16,,,,,0,3,3,15,0,7,7,2,,,,,,,,,1,0.5359037890011678,016,001,2019_May_09_1515,MusicAffectPsychophysiology2019,3.0.5,59.90066708314032,
To what extent did the music make you feel ,ASHAMED,30MonoWAV/30MonoT4.wav,2,1,4,16,,,,,0,3,3,15,0,8,8,4,,,,,,,,,1,0.568175541004166,016,001,2019_May_09_1515,MusicAffectPsychophysiology2019,3.0.5,59.90066708314032,
To what extent did the music make you feel ,EXCITED,30MonoWAV/30MonoT4.wav,2,1,4,16,,,,,0,3,3,15,0,9,9,7,,,,,,,,,1,1.4864796809997642,016,001,2019_May_09_1515,MusicAffectPsychophysiology2019,3.0.5,59.90066708314032,
To what extent did the music make you feel ,GUILTY,30MonoWAV/30MonoT4.wav,2,1,4,16,,,,,0,3,3,15,0,10,10,5,,,,,,,,,1,0.6488509949995205,016,001,2019_May_09_1515,MusicAffectPsychophysiology2019,3.0.5,59.90066708314032,
To what extent did the music make you feel ,ANXIOUS ,30MonoWAV/30MonoT4.wav,2,1,4,16,,,,,0,3,3,15,0,11,11,1,,,,,,,,,1,2.184910765994573,016,001,2019_May_09_1515,MusicAffectPsychophysiology2019,3.0.5,59.90066708314032,
,,30MonoWAV/30MonoT4.wav,2,1,4,16,,,,,0,3,3,15,,,,,,,,,,,,,,,016,001,2019_May_09_1515,MusicAffectPsychophysiology2019,3.0.5,59.90066708314032,
To what extent did the music make you feel ,TENDER,30MonoWAV/30MonoS3.wav,1,1,3,11,,,,,0,4,4,10,0,0,0,10,,,2,4.618120747996727,1,3.598288891997072,1,4.423691061005229,3,2.6045361810029135,016,001,2019_May_09_1515,MusicAffectPsychophysiology2019,3.0.5,59.90066708314032,
To what extent did the music make you feel ,SCARED,30MonoWAV/30MonoS3.wav,1,1,3,11,,,,,0,4,4,10,0,1,1,11,,,,,,,,,3,1.6369444019946968,016,001,2019_May_09_1515,MusicAffectPsychophysiology2019,3.0.5,59.90066708314032,
To what extent did the music make you feel ,FRUSTRATED,30MonoWAV/30MonoS3.wav,1,1,3,11,,,,,0,4,4,10,0,2,2,3,,,,,,,,,1,1.5208947799983434,016,001,2019_May_09_1515,MusicAffectPsychophysiology2019,3.0.5,59.90066708314032,
To what extent did the music make you feel ,SAD,30MonoWAV/30MonoS3.wav,1,1,3,11,,,,,0,4,4,10,0,3,3,0,,,,,,,,,5,1.954747233998205,016,001,2019_May_09_1515,MusicAffectPsychophysiology2019,3.0.5,59.90066708314032,
To what extent did the music make you feel ,ACTIVE,30MonoWAV/30MonoS3.wav,1,1,3,11,,,,,0,4,4,10,0,4,4,9,,,,,,,,,1,1.8020438690000447,016,001,2019_May_09_1515,MusicAffectPsychophysiology2019,3.0.5,59.90066708314032,
To what extent did the music make you feel ,GUILTY,30MonoWAV/30MonoS3.wav,1,1,3,11,,,,,0,4,4,10,0,5,5,5,,,,,,,,,4,2.0518776460012305,016,001,2019_May_09_1515,MusicAffectPsychophysiology2019,3.0.5,59.90066708314032,
To what extent did the music make you feel ,ANXIOUS ,30MonoWAV/30MonoS3.wav,1,1,3,11,,,,,0,4,4,10,0,6,6,1,,,,,,,,,3,1.9165212660009274,016,001,2019_May_09_1515,MusicAffectPsychophysiology2019,3.0.5,59.90066708314032,
To what extent did the music make you feel ,ALERT,30MonoWAV/30MonoS3.wav,1,1,3,11,,,,,0,4,4,10,0,7,7,8,,,,,,,,,1,2.884288553999795,016,001,2019_May_09_1515,MusicAffectPsychophysiology2019,3.0.5,59.90066708314032,
To what extent did the music make you feel ,HAPPY,30MonoWAV/30MonoS3.wav,1,1,3,11,,,,,0,4,4,10,0,8,8,6,,,,,,,,,1,0.8677329159982037,016,001,2019_May_09_1515,MusicAffectPsychophysiology2019,3.0.5,59.90066708314032,
To what extent did the music make you feel ,ASHAMED,30MonoWAV/30MonoS3.wav,1,1,3,11,,,,,0,4,4,10,0,9,9,4,,,,,,,,,4,3.7678799990026164,016,001,2019_May_09_1515,MusicAffectPsychophysiology2019,3.0.5,59.90066708314032,
To what extent did the music make you feel ,ANGRY,30MonoWAV/30MonoS3.wav,1,1,3,11,,,,,0,4,4,10,0,10,10,2,,,,,,,,,1,1.0852550030031125,016,001,2019_May_09_1515,MusicAffectPsychophysiology2019,3.0.5,59.90066708314032,
To what extent did the music make you feel ,EXCITED,30MonoWAV/30MonoS3.wav,1,1,3,11,,,,,0,4,4,10,0,11,11,7,,,,,,,,,1,1.5329155010040267,016,001,2019_May_09_1515,MusicAffectPsychophysiology2019,3.0.5,59.90066708314032,
,,30MonoWAV/30MonoS3.wav,1,1,3,11,,,,,0,4,4,10,,,,,,,,,,,,,,,016,001,2019_May_09_1515,MusicAffectPsychophysiology2019,3.0.5,59.90066708314032,
To what extent did the music make you feel ,TENDER,30MonoWAV/30MonoH1.wav,2,2,1,5,,,,,0,5,5,4,0,0,0,10,,,3,3.2725569149988587,3,1.754005930000858,4,2.2070243600028334,1,1.7183310369946412,016,001,2019_May_09_1515,MusicAffectPsychophysiology2019,3.0.5,59.90066708314032,
To what extent did the music make you feel ,HAPPY,30MonoWAV/30MonoH1.wav,2,2,1,5,,,,,0,5,5,4,0,1,1,6,,,,,,,,,3,2.0347677410027245,016,001,2019_May_09_1515,MusicAffectPsychophysiology2019,3.0.5,59.90066708314032,
To what extent did the music make you feel ,FRUSTRATED,30MonoWAV/30MonoH1.wav,2,2,1,5,,,,,0,5,5,4,0,2,2,3,,,,,,,,,1,1.339788925004541,016,001,2019_May_09_1515,MusicAffectPsychophysiology2019,3.0.5,59.90066708314032,
To what extent did the music make you feel ,SAD,30MonoWAV/30MonoH1.wav,2,2,1,5,,,,,0,5,5,4,0,3,3,0,,,,,,,,,1,0.5355561369942734,016,001,2019_May_09_1515,MusicAffectPsychophysiology2019,3.0.5,59.90066708314032,
To what extent did the music make you feel ,ALERT,30MonoWAV/30MonoH1.wav,2,2,1,5,,,,,0,5,5,4,0,4,4,8,,,,,,,,,4,4.673922126996331,016,001,2019_May_09_1515,MusicAffectPsychophysiology2019,3.0.5,59.90066708314032,
To what extent did the music make you feel ,ANXIOUS ,30MonoWAV/30MonoH1.wav,2,2,1,5,,,,,0,5,5,4,0,5,5,1,,,,,,,,,4,0.6681955750027555,016,001,2019_May_09_1515,MusicAffectPsychophysiology2019,3.0.5,59.90066708314032,
To what extent did the music make you feel ,SCARED,30MonoWAV/30MonoH1.wav,2,2,1,5,,,,,0,5,5,4,0,6,6,11,,,,,,,,,1,2.221987167999032,016,001,2019_May_09_1515,MusicAffectPsychophysiology2019,3.0.5,59.90066708314032,
To what extent did the music make you feel ,GUILTY,30MonoWAV/30MonoH1.wav,2,2,1,5,,,,,0,5,5,4,0,7,7,5,,,,,,,,,1,1.9831008469991502,016,001,2019_May_09_1515,MusicAffectPsychophysiology2019,3.0.5,59.90066708314032,
To what extent did the music make you feel ,ACTIVE,30MonoWAV/30MonoH1.wav,2,2,1,5,,,,,0,5,5,4,0,8,8,9,,,,,,,,,3,2.951881410997885,016,001,2019_May_09_1515,MusicAffectPsychophysiology2019,3.0.5,59.90066708314032,
To what extent did the music make you feel ,EXCITED,30MonoWAV/30MonoH1.wav,2,2,1,5,,,,,0,5,5,4,0,9,9,7,,,,,,,,,3,1.3516552840010263,016,001,2019_May_09_1515,MusicAffectPsychophysiology2019,3.0.5,59.90066708314032,
To what extent did the music make you feel ,ASHAMED,30MonoWAV/30MonoH1.wav,2,2,1,5,,,,,0,5,5,4,0,10,10,4,,,,,,,,,1,1.1346299110009568,016,001,2019_May_09_1515,MusicAffectPsychophysiology2019,3.0.5,59.90066708314032,
To what extent did the music make you feel ,ANGRY,30MonoWAV/30MonoH1.wav,2,2,1,5,,,,,0,5,5,4,0,11,11,2,,,,,,,,,1,2.0177396269937162,016,001,2019_May_09_1515,MusicAffectPsychophysiology2019,3.0.5,59.90066708314032,
,,30MonoWAV/30MonoH1.wav,2,2,1,5,,,,,0,5,5,4,,,,,,,,,,,,,,,016,001,2019_May_09_1515,MusicAffectPsychophysiology2019,3.0.5,59.90066708314032,
To what extent did the music make you feel ,ALERT,30MonoWAV/30MonoS4.wav,1,1,3,12,,,,,0,6,6,11,0,0,0,8,,,1,3.53577188700001,1,0.9513394000023254,3,3.501573356996232,1,1.5839684739985387,016,001,2019_May_09_1515,MusicAffectPsychophysiology2019,3.0.5,59.90066708314032,
To what extent did the music make you feel ,EXCITED,30MonoWAV/30MonoS4.wav,1,1,3,12,,,,,0,6,6,11,0,1,1,7,,,,,,,,,1,0.7348516380006913,016,001,2019_May_09_1515,MusicAffectPsychophysiology2019,3.0.5,59.90066708314032,
To what extent did the music make you feel ,ACTIVE,30MonoWAV/30MonoS4.wav,1,1,3,12,,,,,0,6,6,11,0,2,2,9,,,,,,,,,1,0.9513422419986455,016,001,2019_May_09_1515,MusicAffectPsychophysiology2019,3.0.5,59.90066708314032,
To what extent did the music make you feel ,TENDER,30MonoWAV/30MonoS4.wav,1,1,3,12,,,,,0,6,6,11,0,3,3,10,,,,,,,,,4,2.151983169998857,016,001,2019_May_09_1515,MusicAffectPsychophysiology2019,3.0.5,59.90066708314032,
To what extent did the music make you feel ,HAPPY,30MonoWAV/30MonoS4.wav,1,1,3,12,,,,,0,6,6,11,0,4,4,6,,,,,,,,,1,1.1844856419993448,016,001,2019_May_09_1515,MusicAffectPsychophysiology2019,3.0.5,59.90066708314032,
To what extent did the music make you feel ,ASHAMED,30MonoWAV/30MonoS4.wav,1,1,3,12,,,,,0,6,6,11,0,5,5,4,,,,,,,,,1,3.785617920002551,016,001,2019_May_09_1515,MusicAffectPsychophysiology2019,3.0.5,59.90066708314032,
To what extent did the music make you feel ,GUILTY,30MonoWAV/30MonoS4.wav,1,1,3,12,,,,,0,6,6,11,0,6,6,5,,,,,,,,,1,0.9845824459989672,016,001,2019_May_09_1515,MusicAffectPsychophysiology2019,3.0.5,59.90066708314032,
To what extent did the music make you feel ,FRUSTRATED,30MonoWAV/30MonoS4.wav,1,1,3,12,,,,,0,6,6,11,0,7,7,3,,,,,,,,,1,0.7020740200023283,016,001,2019_May_09_1515,MusicAffectPsychophysiology2019,3.0.5,59.90066708314032,
To what extent did the music make you feel ,ANXIOUS ,30MonoWAV/30MonoS4.wav,1,1,3,12,,,,,0,6,6,11,0,8,8,1,,,,,,,,,1,1.2682124319981085,016,001,2019_May_09_1515,MusicAffectPsychophysiology2019,3.0.5,59.90066708314032,
To what extent did the music make you feel ,SAD,30MonoWAV/30MonoS4.wav,1,1,3,12,,,,,0,6,6,11,0,9,9,0,,,,,,,,,5,1.717300554002577,016,001,2019_May_09_1515,MusicAffectPsychophysiology2019,3.0.5,59.90066708314032,
To what extent did the music make you feel ,SCARED,30MonoWAV/30MonoS4.wav,1,1,3,12,,,,,0,6,6,11,0,10,10,11,,,,,,,,,1,2.068188894998457,016,001,2019_May_09_1515,MusicAffectPsychophysiology2019,3.0.5,59.90066708314032,
To what extent did the music make you feel ,ANGRY,30MonoWAV/30MonoS4.wav,1,1,3,12,,,,,0,6,6,11,0,11,11,2,,,,,,,,,1,0.7515192509963526,016,001,2019_May_09_1515,MusicAffectPsychophysiology2019,3.0.5,59.90066708314032,
,,30MonoWAV/30MonoS4.wav,1,1,3,12,,,,,0,6,6,11,,,,,,,,,,,,,,,016,001,2019_May_09_1515,MusicAffectPsychophysiology2019,3.0.5,59.90066708314032,
To what extent did the music make you feel ,TENDER,30MonoWAV/30MonoF4.wav,1,2,2,4,,,,,0,7,7,3,0,0,0,10,,,4,3.789731106000545,2,1.9713726599948131,1,2.5539867709958344,1,1.6533620769987465,016,001,2019_May_09_1515,MusicAffectPsychophysiology2019,3.0.5,59.90066708314032,
To what extent did the music make you feel ,SAD,30MonoWAV/30MonoF4.wav,1,2,2,4,,,,,0,7,7,3,0,1,1,0,,,,,,,,,1,0.872110297998006,016,001,2019_May_09_1515,MusicAffectPsychophysiology2019,3.0.5,59.90066708314032,
To what extent did the music make you feel ,GUILTY,30MonoWAV/30MonoF4.wav,1,2,2,4,,,,,0,7,7,3,0,2,2,5,,,,,,,,,1,1.1518186530011008,016,001,2019_May_09_1515,MusicAffectPsychophysiology2019,3.0.5,59.90066708314032,
To what extent did the music make you feel ,HAPPY,30MonoWAV/30MonoF4.wav,1,2,2,4,,,,,0,7,7,3,0,3,3,6,,,,,,,,,1,2.234231226000702,016,001,2019_May_09_1515,MusicAffectPsychophysiology2019,3.0.5,59.90066708314032,
To what extent did the music make you feel ,ACTIVE,30MonoWAV/30MonoF4.wav,1,2,2,4,,,,,0,7,7,3,0,4,4,9,,,,,,,,,4,2.2887205430015456,016,001,2019_May_09_1515,MusicAffectPsychophysiology2019,3.0.5,59.90066708314032,
To what extent did the music make you feel ,FRUSTRATED,30MonoWAV/30MonoF4.wav,1,2,2,4,,,,,0,7,7,3,0,5,5,3,,,,,,,,,1,1.2536690340057248,016,001,2019_May_09_1515,MusicAffectPsychophysiology2019,3.0.5,59.90066708314032,
To what extent did the music make you feel ,EXCITED,30MonoWAV/30MonoF4.wav,1,2,2,4,,,,,0,7,7,3,0,6,6,7,,,,,,,,,2,3.1701032419950934,016,001,2019_May_09_1515,MusicAffectPsychophysiology2019,3.0.5,59.90066708314032,
To what extent did the music make you feel ,ANXIOUS ,30MonoWAV/30MonoF4.wav,1,2,2,4,,,,,0,7,7,3,0,7,7,1,,,,,,,,,4,2.7084167460052413,016,001,2019_May_09_1515,MusicAffectPsychophysiology2019,3.0.5,59.90066708314032,
To what extent did the music make you feel ,SCARED,30MonoWAV/30MonoF4.wav,1,2,2,4,,,,,0,7,7,3,0,8,8,11,,,,,,,,,4,1.6021308199997293,016,001,2019_May_09_1515,MusicAffectPsychophysiology2019,3.0.5,59.90066708314032,
To what extent did the music make you feel ,ALERT,30MonoWAV/30MonoF4.wav,1,2,2,4,,,,,0,7,7,3,0,9,9,8,,,,,,,,,5,1.4182999659969937,016,001,2019_May_09_1515,MusicAffectPsychophysiology2019,3.0.5,59.90066708314032,
To what extent did the music make you feel ,ANGRY,30MonoWAV/30MonoF4.wav,1,2,2,4,,,,,0,7,7,3,0,10,10,2,,,,,,,,,1,1.385652550998202,016,001,2019_May_09_1515,MusicAffectPsychophysiology2019,3.0.5,59.90066708314032,
To what extent did the music make you feel ,ASHAMED,30MonoWAV/30MonoF4.wav,1,2,2,4,,,,,0,7,7,3,0,11,11,4,,,,,,,,,1,1.2683619490053388,016,001,2019_May_09_1515,MusicAffectPsychophysiology2019,3.0.5,59.90066708314032,
,,30MonoWAV/30MonoF4.wav,1,2,2,4,,,,,0,7,7,3,,,,,,,,,,,,,,,016,001,2019_May_09_1515,MusicAffectPsychophysiology2019,3.0.5,59.90066708314032,
To what extent did the music make you feel ,HAPPY,30MonoWAV/30MonoS2.wav,1,1,3,10,,,,,0,8,8,9,0,0,0,6,,,1,3.836112951998075,1,2.0672981520037865,3,2.8014133899996523,1,3.333191789999546,016,001,2019_May_09_1515,MusicAffectPsychophysiology2019,3.0.5,59.90066708314032,
To what extent did the music make you feel ,SCARED,30MonoWAV/30MonoS2.wav,1,1,3,10,,,,,0,8,8,9,0,1,1,11,,,,,,,,,1,1.3181949759964482,016,001,2019_May_09_1515,MusicAffectPsychophysiology2019,3.0.5,59.90066708314032,
To what extent did the music make you feel ,ASHAMED,30MonoWAV/30MonoS2.wav,1,1,3,10,,,,,0,8,8,9,0,2,2,4,,,,,,,,,2,2.3676640859994222,016,001,2019_May_09_1515,MusicAffectPsychophysiology2019,3.0.5,59.90066708314032,
To what extent did the music make you feel ,SAD,30MonoWAV/30MonoS2.wav,1,1,3,10,,,,,0,8,8,9,0,3,3,0,,,,,,,,,5,2.584622718997707,016,001,2019_May_09_1515,MusicAffectPsychophysiology2019,3.0.5,59.90066708314032,
To what extent did the music make you feel ,ANXIOUS ,30MonoWAV/30MonoS2.wav,1,1,3,10,,,,,0,8,8,9,0,4,4,1,,,,,,,,,1,2.951683243998559,016,001,2019_May_09_1515,MusicAffectPsychophysiology2019,3.0.5,59.90066708314032,
To what extent did the music make you feel ,GUILTY,30MonoWAV/30MonoS2.wav,1,1,3,10,,,,,0,8,8,9,0,5,5,5,,,,,,,,,2,1.9524809700014885,016,001,2019_May_09_1515,MusicAffectPsychophysiology2019,3.0.5,59.90066708314032,
To what extent did the music make you feel ,EXCITED,30MonoWAV/30MonoS2.wav,1,1,3,10,,,,,0,8,8,9,0,6,6,7,,,,,,,,,1,0.87094616000104,016,001,2019_May_09_1515,MusicAffectPsychophysiology2019,3.0.5,59.90066708314032,
To what extent did the music make you feel ,ANGRY,30MonoWAV/30MonoS2.wav,1,1,3,10,,,,,0,8,8,9,0,7,7,2,,,,,,,,,1,1.3203658100028406,016,001,2019_May_09_1515,MusicAffectPsychophysiology2019,3.0.5,59.90066708314032,
To what extent did the music make you feel ,FRUSTRATED,30MonoWAV/30MonoS2.wav,1,1,3,10,,,,,0,8,8,9,0,8,8,3,,,,,,,,,1,0.819194971001707,016,001,2019_May_09_1515,MusicAffectPsychophysiology2019,3.0.5,59.90066708314032,
To what extent did the music make you feel ,ALERT,30MonoWAV/30MonoS2.wav,1,1,3,10,,,,,0,8,8,9,0,9,9,8,,,,,,,,,1,1.168496086000232,016,001,2019_May_09_1515,MusicAffectPsychophysiology2019,3.0.5,59.90066708314032,
To what extent did the music make you feel ,TENDER,30MonoWAV/30MonoS2.wav,1,1,3,10,,,,,0,8,8,9,0,10,10,10,,,,,,,,,3,1.920069740001054,016,001,2019_May_09_1515,MusicAffectPsychophysiology2019,3.0.5,59.90066708314032,
To what extent did the music make you feel ,ACTIVE,30MonoWAV/30MonoS2.wav,1,1,3,10,,,,,0,8,8,9,0,11,11,9,,,,,,,,,1,1.1022892090040841,016,001,2019_May_09_1515,MusicAffectPsychophysiology2019,3.0.5,59.90066708314032,
,,30MonoWAV/30MonoS2.wav,1,1,3,10,,,,,0,8,8,9,,,,,,,,,,,,,,,016,001,2019_May_09_1515,MusicAffectPsychophysiology2019,3.0.5,59.90066708314032,
To what extent did the music make you feel ,ASHAMED,30MonoWAV/30MonoS1.wav,1,1,3,9,,,,,0,9,9,8,0,0,0,4,,,2,4.735359735997918,1,1.6514114430028712,4,1.9018246490013553,3,2.5514214919967344,016,001,2019_May_09_1515,MusicAffectPsychophysiology2019,3.0.5,59.90066708314032,
To what extent did the music make you feel ,HAPPY,30MonoWAV/30MonoS1.wav,1,1,3,9,,,,,0,9,9,8,0,1,1,6,,,,,,,,,1,1.1180504689982627,016,001,2019_May_09_1515,MusicAffectPsychophysiology2019,3.0.5,59.90066708314032,
To what extent did the music make you feel ,FRUSTRATED,30MonoWAV/30MonoS1.wav,1,1,3,9,,,,,0,9,9,8,0,2,2,3,,,,,,,,,1,1.1662452500022482,016,001,2019_May_09_1515,MusicAffectPsychophysiology2019,3.0.5,59.90066708314032,
To what extent did the music make you feel ,ANGRY,30MonoWAV/30MonoS1.wav,1,1,3,9,,,,,0,9,9,8,0,3,3,2,,,,,,,,,1,1.068976984002802,016,001,2019_May_09_1515,MusicAffectPsychophysiology2019,3.0.5,59.90066708314032,
To what extent did the music make you feel ,SCARED,30MonoWAV/30MonoS1.wav,1,1,3,9,,,,,0,9,9,8,0,4,4,11,,,,,,,,,1,1.5524777359969448,016,001,2019_May_09_1515,MusicAffectPsychophysiology2019,3.0.5,59.90066708314032,
To what extent did the music make you feel ,GUILTY,30MonoWAV/30MonoS1.wav,1,1,3,9,,,,,0,9,9,8,0,5,5,5,,,,,,,,,2,2.2688862009963486,016,001,2019_May_09_1515,MusicAffectPsychophysiology2019,3.0.5,59.90066708314032,
To what extent did the music make you feel ,SAD,30MonoWAV/30MonoS1.wav,1,1,3,9,,,,,0,9,9,8,0,6,6,0,,,,,,,,,5,2.002440591000777,016,001,2019_May_09_1515,MusicAffectPsychophysiology2019,3.0.5,59.90066708314032,
To what extent did the music make you feel ,ALERT,30MonoWAV/30MonoS1.wav,1,1,3,9,,,,,0,9,9,8,0,7,7,8,,,,,,,,,1,2.1517118310002843,016,001,2019_May_09_1515,MusicAffectPsychophysiology2019,3.0.5,59.90066708314032,
To what extent did the music make you feel ,ANXIOUS ,30MonoWAV/30MonoS1.wav,1,1,3,9,,,,,0,9,9,8,0,8,8,1,,,,,,,,,2,5.084429328999249,016,001,2019_May_09_1515,MusicAffectPsychophysiology2019,3.0.5,59.90066708314032,
To what extent did the music make you feel ,EXCITED,30MonoWAV/30MonoS1.wav,1,1,3,9,,,,,0,9,9,8,0,9,9,7,,,,,,,,,1,0.8331115930050146,016,001,2019_May_09_1515,MusicAffectPsychophysiology2019,3.0.5,59.90066708314032,
To what extent did the music make you feel ,TENDER,30MonoWAV/30MonoS1.wav,1,1,3,9,,,,,0,9,9,8,0,10,10,10,,,,,,,,,3,2.0342012230030377,016,001,2019_May_09_1515,MusicAffectPsychophysiology2019,3.0.5,59.90066708314032,
To what extent did the music make you feel ,ACTIVE,30MonoWAV/30MonoS1.wav,1,1,3,9,,,,,0,9,9,8,0,11,11,9,,,,,,,,,1,0.9355333049970795,016,001,2019_May_09_1515,MusicAffectPsychophysiology2019,3.0.5,59.90066708314032,
,,30MonoWAV/30MonoS1.wav,1,1,3,9,,,,,0,9,9,8,,,,,,,,,,,,,,,016,001,2019_May_09_1515,MusicAffectPsychophysiology2019,3.0.5,59.90066708314032,
To what extent did the music make you feel ,SCARED,30MonoWAV/30MonoT2.wav,2,1,4,14,,,,,0,10,10,13,0,0,0,11,,,3,3.1417125049993047,2,1.6846116410015384,3,3.152103000000352,1,2.339342936000321,016,001,2019_May_09_1515,MusicAffectPsychophysiology2019,3.0.5,59.90066708314032,
To what extent did the music make you feel ,TENDER,30MonoWAV/30MonoT2.wav,2,1,4,14,,,,,0,10,10,13,0,1,1,10,,,,,,,,,5,1.6202427969983546,016,001,2019_May_09_1515,MusicAffectPsychophysiology2019,3.0.5,59.90066708314032,
To what extent did the music make you feel ,ALERT,30MonoWAV/30MonoT2.wav,2,1,4,14,,,,,0,10,10,13,0,2,2,8,,,,,,,,,1,1.5533352839993313,016,001,2019_May_09_1515,MusicAffectPsychophysiology2019,3.0.5,59.90066708314032,
To what extent did the music make you feel ,GUILTY,30MonoWAV/30MonoT2.wav,2,1,4,14,,,,,0,10,10,13,0,3,3,5,,,,,,,,,1,1.4674760699999752,016,001,2019_May_09_1515,MusicAffectPsychophysiology2019,3.0.5,59.90066708314032,
To what extent did the music make you feel ,HAPPY,30MonoWAV/30MonoT2.wav,2,1,4,14,,,,,0,10,10,13,0,4,4,6,,,,,,,,,2,2.5234934210020583,016,001,2019_May_09_1515,MusicAffectPsychophysiology2019,3.0.5,59.90066708314032,
To what extent did the music make you feel ,ANGRY,30MonoWAV/30MonoT2.wav,2,1,4,14,,,,,0,10,10,13,0,5,5,2,,,,,,,,,1,1.164652573002968,016,001,2019_May_09_1515,MusicAffectPsychophysiology2019,3.0.5,59.90066708314032,
To what extent did the music make you feel ,FRUSTRATED,30MonoWAV/30MonoT2.wav,2,1,4,14,,,,,0,10,10,13,0,6,6,3,,,,,,,,,1,1.135729175999586,016,001,2019_May_09_1515,MusicAffectPsychophysiology2019,3.0.5,59.90066708314032,
To what extent did the music make you feel ,ACTIVE,30MonoWAV/30MonoT2.wav,2,1,4,14,,,,,0,10,10,13,0,7,7,9,,,,,,,,,2,2.135146552005608,016,001,2019_May_09_1515,MusicAffectPsychophysiology2019,3.0.5,59.90066708314032,
To what extent did the music make you feel ,ASHAMED,30MonoWAV/30MonoT2.wav,2,1,4,14,,,,,0,10,10,13,0,8,8,4,,,,,,,,,1,0.6185764839974581,016,001,2019_May_09_1515,MusicAffectPsychophysiology2019,3.0.5,59.90066708314032,
To what extent did the music make you feel ,SAD,30MonoWAV/30MonoT2.wav,2,1,4,14,,,,,0,10,10,13,0,9,9,0,,,,,,,,,3,2.5850705150005524,016,001,2019_May_09_1515,MusicAffectPsychophysiology2019,3.0.5,59.90066708314032,
To what extent did the music make you feel ,EXCITED,30MonoWAV/30MonoT2.wav,2,1,4,14,,,,,0,10,10,13,0,10,10,7,,,,,,,,,1,2.4354333769952063,016,001,2019_May_09_1515,MusicAffectPsychophysiology2019,3.0.5,59.90066708314032,
To what extent did the music make you feel ,ANXIOUS ,30MonoWAV/30MonoT2.wav,2,1,4,14,,,,,0,10,10,13,0,11,11,1,,,,,,,,,1,2.001979113003472,016,001,2019_May_09_1515,MusicAffectPsychophysiology2019,3.0.5,59.90066708314032,
,,30MonoWAV/30MonoT2.wav,2,1,4,14,,,,,0,10,10,13,,,,,,,,,,,,,,,016,001,2019_May_09_1515,MusicAffectPsychophysiology2019,3.0.5,59.90066708314032,
To what extent did the music make you feel ,SAD,30MonoWAV/30MonoT1.wav,2,1,4,13,,,,,0,11,11,12,0,0,0,0,,,2,6.101178498000081,2,2.767183366995596,2,6.067788975997246,2,2.534456130997569,016,001,2019_May_09_1515,MusicAffectPsychophysiology2019,3.0.5,59.90066708314032,
To what extent did the music make you feel ,GUILTY,30MonoWAV/30MonoT1.wav,2,1,4,13,,,,,0,11,11,12,0,1,1,5,,,,,,,,,1,2.034255245998793,016,001,2019_May_09_1515,MusicAffectPsychophysiology2019,3.0.5,59.90066708314032,
To what extent did the music make you feel ,TENDER,30MonoWAV/30MonoT1.wav,2,1,4,13,,,,,0,11,11,12,0,2,2,10,,,,,,,,,5,2.5521225100019365,016,001,2019_May_09_1515,MusicAffectPsychophysiology2019,3.0.5,59.90066708314032,
To what extent did the music make you feel ,EXCITED,30MonoWAV/30MonoT1.wav,2,1,4,13,,,,,0,11,11,12,0,3,3,7,,,,,,,,,1,1.9844289089960512,016,001,2019_May_09_1515,MusicAffectPsychophysiology2019,3.0.5,59.90066708314032,
To what extent did the music make you feel ,ASHAMED,30MonoWAV/30MonoT1.wav,2,1,4,13,,,,,0,11,11,12,0,4,4,4,,,,,,,,,2,2.317457937002473,016,001,2019_May_09_1515,MusicAffectPsychophysiology2019,3.0.5,59.90066708314032,
To what extent did the music make you feel ,ACTIVE,30MonoWAV/30MonoT1.wav,2,1,4,13,,,,,0,11,11,12,0,5,5,9,,,,,,,,,1,1.2685887039988302,016,001,2019_May_09_1515,MusicAffectPsychophysiology2019,3.0.5,59.90066708314032,
To what extent did the music make you feel ,ANXIOUS ,30MonoWAV/30MonoT1.wav,2,1,4,13,,,,,0,11,11,12,0,6,6,1,,,,,,,,,1,1.3188911750039551,016,001,2019_May_09_1515,MusicAffectPsychophysiology2019,3.0.5,59.90066708314032,
To what extent did the music make you feel ,ANGRY,30MonoWAV/30MonoT1.wav,2,1,4,13,,,,,0,11,11,12,0,7,7,2,,,,,,,,,1,0.9189432620041771,016,001,2019_May_09_1515,MusicAffectPsychophysiology2019,3.0.5,59.90066708314032,
To what extent did the music make you feel ,HAPPY,30MonoWAV/30MonoT1.wav,2,1,4,13,,,,,0,11,11,12,0,8,8,6,,,,,,,,,2,2.801363421000133,016,001,2019_May_09_1515,MusicAffectPsychophysiology2019,3.0.5,59.90066708314032,
To what extent did the music make you feel ,FRUSTRATED,30MonoWAV/30MonoT1.wav,2,1,4,13,,,,,0,11,11,12,0,9,9,3,,,,,,,,,1,1.151144199000555,016,001,2019_May_09_1515,MusicAffectPsychophysiology2019,3.0.5,59.90066708314032,
To what extent did the music make you feel ,ALERT,30MonoWAV/30MonoT1.wav,2,1,4,13,,,,,0,11,11,12,0,10,10,8,,,,,,,,,1,8.0189248759998,016,001,2019_May_09_1515,MusicAffectPsychophysiology2019,3.0.5,59.90066708314032,
To what extent did the music make you feel ,SCARED,30MonoWAV/30MonoT1.wav,2,1,4,13,,,,,0,11,11,12,0,11,11,11,,,,,,,,,1,0.9520134889971814,016,001,2019_May_09_1515,MusicAffectPsychophysiology2019,3.0.5,59.90066708314032,
,,30MonoWAV/30MonoT1.wav,2,1,4,13,,,,,0,11,11,12,,,,,,,,,,,,,,,016,001,2019_May_09_1515,MusicAffectPsychophysiology2019,3.0.5,59.90066708314032,
To what extent did the music make you feel ,TENDER,30MonoWAV/30MonoF2.wav,1,2,2,2,,,,,0,12,12,1,0,0,0,10,,,3,5.625380605000828,1,1.036241522997443,1,1.0348522030035383,1,2.1687739829940256,016,001,2019_May_09_1515,MusicAffectPsychophysiology2019,3.0.5,59.90066708314032,
To what extent did the music make you feel ,ALERT,30MonoWAV/30MonoF2.wav,1,2,2,2,,,,,0,12,12,1,0,1,1,8,,,,,,,,,5,1.7513708640035475,016,001,2019_May_09_1515,MusicAffectPsychophysiology2019,3.0.5,59.90066708314032,
To what extent did the music make you feel ,ASHAMED,30MonoWAV/30MonoF2.wav,1,2,2,2,,,,,0,12,12,1,0,2,2,4,,,,,,,,,1,1.1520361000002595,016,001,2019_May_09_1515,MusicAffectPsychophysiology2019,3.0.5,59.90066708314032,
To what extent did the music make you feel ,SCARED,30MonoWAV/30MonoF2.wav,1,2,2,2,,,,,0,12,12,1,0,3,3,11,,,,,,,,,5,1.5189771110017318,016,001,2019_May_09_1515,MusicAffectPsychophysiology2019,3.0.5,59.90066708314032,
To what extent did the music make you feel ,ACTIVE,30MonoWAV/30MonoF2.wav,1,2,2,2,,,,,0,12,12,1,0,4,4,9,,,,,,,,,3,2.601488820000668,016,001,2019_May_09_1515,MusicAffectPsychophysiology2019,3.0.5,59.90066708314032,
To what extent did the music make you feel ,EXCITED,30MonoWAV/30MonoF2.wav,1,2,2,2,,,,,0,12,12,1,0,5,5,7,,,,,,,,,1,1.0853845790043124,016,001,2019_May_09_1515,MusicAffectPsychophysiology2019,3.0.5,59.90066708314032,
To what extent did the music make you feel ,GUILTY,30MonoWAV/30MonoF2.wav,1,2,2,2,,,,,0,12,12,1,0,6,6,5,,,,,,,,,1,1.151397397996334,016,001,2019_May_09_1515,MusicAffectPsychophysiology2019,3.0.5,59.90066708314032,
To what extent did the music make you feel ,ANGRY,30MonoWAV/30MonoF2.wav,1,2,2,2,,,,,0,12,12,1,0,7,7,2,,,,,,,,,1,0.9515812350000488,016,001,2019_May_09_1515,MusicAffectPsychophysiology2019,3.0.5,59.90066708314032,
To what extent did the music make you feel ,FRUSTRATED,30MonoWAV/30MonoF2.wav,1,2,2,2,,,,,0,12,12,1,0,8,8,3,,,,,,,,,1,0.6023074469994754,016,001,2019_May_09_1515,MusicAffectPsychophysiology2019,3.0.5,59.90066708314032,
To what extent did the music make you feel ,HAPPY,30MonoWAV/30MonoF2.wav,1,2,2,2,,,,,0,12,12,1,0,9,9,6,,,,,,,,,1,0.9533020939998096,016,001,2019_May_09_1515,MusicAffectPsychophysiology2019,3.0.5,59.90066708314032,
To what extent did the music make you feel ,SAD,30MonoWAV/30MonoF2.wav,1,2,2,2,,,,,0,12,12,1,0,10,10,0,,,,,,,,,1,1.017185769000207,016,001,2019_May_09_1515,MusicAffectPsychophysiology2019,3.0.5,59.90066708314032,
To what extent did the music make you feel ,ANXIOUS ,30MonoWAV/30MonoF2.wav,1,2,2,2,,,,,0,12,12,1,0,11,11,1,,,,,,,,,5,5.841269568001735,016,001,2019_May_09_1515,MusicAffectPsychophysiology2019,3.0.5,59.90066708314032,
,,30MonoWAV/30MonoF2.wav,1,2,2,2,,,,,0,12,12,1,,,,,,,,,,,,,,,016,001,2019_May_09_1515,MusicAffectPsychophysiology2019,3.0.5,59.90066708314032,
To what extent did the music make you feel ,TENDER,30MonoWAV/30MonoT3.wav,2,1,4,15,,,,,0,13,13,14,0,0,0,10,,,2,3.4674742220013286,4,1.6513619860052131,4,2.3515128569997614,4,3.5689232400036417,016,001,2019_May_09_1515,MusicAffectPsychophysiology2019,3.0.5,59.90066708314032,
To what extent did the music make you feel ,HAPPY,30MonoWAV/30MonoT3.wav,2,1,4,15,,,,,0,13,13,14,0,1,1,6,,,,,,,,,4,2.200134386999707,016,001,2019_May_09_1515,MusicAffectPsychophysiology2019,3.0.5,59.90066708314032,
To what extent did the music make you feel ,ANGRY,30MonoWAV/30MonoT3.wav,2,1,4,15,,,,,0,13,13,14,0,2,2,2,,,,,,,,,1,1.4839723729965044,016,001,2019_May_09_1515,MusicAffectPsychophysiology2019,3.0.5,59.90066708314032,
To what extent did the music make you feel ,ALERT,30MonoWAV/30MonoT3.wav,2,1,4,15,,,,,0,13,13,14,0,3,3,8,,,,,,,,,1,1.1191482810027082,016,001,2019_May_09_1515,MusicAffectPsychophysiology2019,3.0.5,59.90066708314032,
To what extent did the music make you feel ,SAD,30MonoWAV/30MonoT3.wav,2,1,4,15,,,,,0,13,13,14,0,4,4,0,,,,,,,,,1,1.218359018996125,016,001,2019_May_09_1515,MusicAffectPsychophysiology2019,3.0.5,59.90066708314032,
To what extent did the music make you feel ,ANXIOUS ,30MonoWAV/30MonoT3.wav,2,1,4,15,,,,,0,13,13,14,0,5,5,1,,,,,,,,,1,1.5681393380000372,016,001,2019_May_09_1515,MusicAffectPsychophysiology2019,3.0.5,59.90066708314032,
To what extent did the music make you feel ,EXCITED,30MonoWAV/30MonoT3.wav,2,1,4,15,,,,,0,13,13,14,0,6,6,7,,,,,,,,,2,1.751962475005712,016,001,2019_May_09_1515,MusicAffectPsychophysiology2019,3.0.5,59.90066708314032,
To what extent did the music make you feel ,ACTIVE,30MonoWAV/30MonoT3.wav,2,1,4,15,,,,,0,13,13,14,0,7,7,9,,,,,,,,,1,1.7672054569993634,016,001,2019_May_09_1515,MusicAffectPsychophysiology2019,3.0.5,59.90066708314032,
To what extent did the music make you feel ,GUILTY,30MonoWAV/30MonoT3.wav,2,1,4,15,,,,,0,13,13,14,0,8,8,5,,,,,,,,,1,1.435026901999663,016,001,2019_May_09_1515,MusicAffectPsychophysiology2019,3.0.5,59.90066708314032,
To what extent did the music make you feel ,ASHAMED,30MonoWAV/30MonoT3.wav,2,1,4,15,,,,,0,13,13,14,0,9,9,4,,,,,,,,,1,1.4344889679996413,016,001,2019_May_09_1515,MusicAffectPsychophysiology2019,3.0.5,59.90066708314032,
To what extent did the music make you feel ,FRUSTRATED,30MonoWAV/30MonoT3.wav,2,1,4,15,,,,,0,13,13,14,0,10,10,3,,,,,,,,,1,0.9853755340009229,016,001,2019_May_09_1515,MusicAffectPsychophysiology2019,3.0.5,59.90066708314032,
To what extent did the music make you feel ,SCARED,30MonoWAV/30MonoT3.wav,2,1,4,15,,,,,0,13,13,14,0,11,11,11,,,,,,,,,1,0.7992111509956885,016,001,2019_May_09_1515,MusicAffectPsychophysiology2019,3.0.5,59.90066708314032,
,,30MonoWAV/30MonoT3.wav,2,1,4,15,,,,,0,13,13,14,,,,,,,,,,,,,,,016,001,2019_May_09_1515,MusicAffectPsychophysiology2019,3.0.5,59.90066708314032,
To what extent did the music make you feel ,SCARED,30MonoWAV/30MonoF1.wav,1,2,2,1,,,,,0,14,14,0,0,0,0,11,,,4,3.6178197860062937,1,0.8849969010043424,1,0.9354986479957006,5,1.9514568779995898,016,001,2019_May_09_1515,MusicAffectPsychophysiology2019,3.0.5,59.90066708314032,
To what extent did the music make you feel ,HAPPY,30MonoWAV/30MonoF1.wav,1,2,2,1,,,,,0,14,14,0,0,1,1,6,,,,,,,,,1,1.0516990719988826,016,001,2019_May_09_1515,MusicAffectPsychophysiology2019,3.0.5,59.90066708314032,
To what extent did the music make you feel ,ANXIOUS ,30MonoWAV/30MonoF1.wav,1,2,2,1,,,,,0,14,14,0,0,2,2,1,,,,,,,,,5,1.2354423069991753,016,001,2019_May_09_1515,MusicAffectPsychophysiology2019,3.0.5,59.90066708314032,
To what extent did the music make you feel ,EXCITED,30MonoWAV/30MonoF1.wav,1,2,2,1,,,,,0,14,14,0,0,3,3,7,,,,,,,,,1,1.1165940659993794,016,001,2019_May_09_1515,MusicAffectPsychophysiology2019,3.0.5,59.90066708314032,
To what extent did the music make you feel ,TENDER,30MonoWAV/30MonoF1.wav,1,2,2,1,,,,,0,14,14,0,0,4,4,10,,,,,,,,,1,1.4526701110007707,016,001,2019_May_09_1515,MusicAffectPsychophysiology2019,3.0.5,59.90066708314032,
To what extent did the music make you feel ,GUILTY,30MonoWAV/30MonoF1.wav,1,2,2,1,,,,,0,14,14,0,0,5,5,5,,,,,,,,,1,1.0023633949967916,016,001,2019_May_09_1515,MusicAffectPsychophysiology2019,3.0.5,59.90066708314032,
To what extent did the music make you feel ,ASHAMED,30MonoWAV/30MonoF1.wav,1,2,2,1,,,,,0,14,14,0,0,6,6,4,,,,,,,,,1,0.9851183060018229,016,001,2019_May_09_1515,MusicAffectPsychophysiology2019,3.0.5,59.90066708314032,
To what extent did the music make you feel ,ALERT,30MonoWAV/30MonoF1.wav,1,2,2,1,,,,,0,14,14,0,0,7,7,8,,,,,,,,,5,1.3179619120055577,016,001,2019_May_09_1515,MusicAffectPsychophysiology2019,3.0.5,59.90066708314032,
To what extent did the music make you feel ,ACTIVE,30MonoWAV/30MonoF1.wav,1,2,2,1,,,,,0,14,14,0,0,8,8,9,,,,,,,,,5,1.6680399639953976,016,001,2019_May_09_1515,MusicAffectPsychophysiology2019,3.0.5,59.90066708314032,
To what extent did the music make you feel ,ANGRY,30MonoWAV/30MonoF1.wav,1,2,2,1,,,,,0,14,14,0,0,9,9,2,,,,,,,,,1,1.8347183970035985,016,001,2019_May_09_1515,MusicAffectPsychophysiology2019,3.0.5,59.90066708314032,
To what extent did the music make you feel ,SAD,30MonoWAV/30MonoF1.wav,1,2,2,1,,,,,0,14,14,0,0,10,10,0,,,,,,,,,1,2.8516142520020367,016,001,2019_May_09_1515,MusicAffectPsychophysiology2019,3.0.5,59.90066708314032,
To what extent did the music make you feel ,FRUSTRATED,30MonoWAV/30MonoF1.wav,1,2,2,1,,,,,0,14,14,0,0,11,11,3,,,,,,,,,1,1.3690932440003962,016,001,2019_May_09_1515,MusicAffectPsychophysiology2019,3.0.5,59.90066708314032,
,,30MonoWAV/30MonoF1.wav,1,2,2,1,,,,,0,14,14,0,,,,,,,,,,,,,,,016,001,2019_May_09_1515,MusicAffectPsychophysiology2019,3.0.5,59.90066708314032,
To what extent did the music make you feel ,ACTIVE,30MonoWAV/30MonoH3.wav,2,2,1,7,,,,,0,15,15,6,0,0,0,9,,,4,3.00729170699924,4,2.605109561001882,3,2.0544676249992335,4,2.4058482719992753,016,001,2019_May_09_1515,MusicAffectPsychophysiology2019,3.0.5,59.90066708314032,
To what extent did the music make you feel ,HAPPY,30MonoWAV/30MonoH3.wav,2,2,1,7,,,,,0,15,15,6,0,1,1,6,,,,,,,,,3,2.8001413870006218,016,001,2019_May_09_1515,MusicAffectPsychophysiology2019,3.0.5,59.90066708314032,
To what extent did the music make you feel ,ANGRY,30MonoWAV/30MonoH3.wav,2,2,1,7,,,,,0,15,15,6,0,2,2,2,,,,,,,,,1,1.1513250460047857,016,001,2019_May_09_1515,MusicAffectPsychophysiology2019,3.0.5,59.90066708314032,
To what extent did the music make you feel ,SCARED,30MonoWAV/30MonoH3.wav,2,2,1,7,,,,,0,15,15,6,0,3,3,11,,,,,,,,,1,1.0219590220003738,016,001,2019_May_09_1515,MusicAffectPsychophysiology2019,3.0.5,59.90066708314032,
To what extent did the music make you feel ,TENDER,30MonoWAV/30MonoH3.wav,2,2,1,7,,,,,0,15,15,6,0,4,4,10,,,,,,,,,1,0.9694075859952136,016,001,2019_May_09_1515,MusicAffectPsychophysiology2019,3.0.5,59.90066708314032,
To what extent did the music make you feel ,SAD,30MonoWAV/30MonoH3.wav,2,2,1,7,,,,,0,15,15,6,0,5,5,0,,,,,,,,,1,1.169768256993848,016,001,2019_May_09_1515,MusicAffectPsychophysiology2019,3.0.5,59.90066708314032,
To what extent did the music make you feel ,GUILTY,30MonoWAV/30MonoH3.wav,2,2,1,7,,,,,0,15,15,6,0,6,6,5,,,,,,,,,1,0.8862742310011527,016,001,2019_May_09_1515,MusicAffectPsychophysiology2019,3.0.5,59.90066708314032,
To what extent did the music make you feel ,ASHAMED,30MonoWAV/30MonoH3.wav,2,2,1,7,,,,,0,15,15,6,0,7,7,4,,,,,,,,,1,0.8527773960013292,016,001,2019_May_09_1515,MusicAffectPsychophysiology2019,3.0.5,59.90066708314032,
To what extent did the music make you feel ,FRUSTRATED,30MonoWAV/30MonoH3.wav,2,2,1,7,,,,,0,15,15,6,0,8,8,3,,,,,,,,,1,0.6527223869998124,016,001,2019_May_09_1515,MusicAffectPsychophysiology2019,3.0.5,59.90066708314032,
To what extent did the music make you feel ,ALERT,30MonoWAV/30MonoH3.wav,2,2,1,7,,,,,0,15,15,6,0,9,9,8,,,,,,,,,2,1.7532867180052563,016,001,2019_May_09_1515,MusicAffectPsychophysiology2019,3.0.5,59.90066708314032,
To what extent did the music make you feel ,EXCITED,30MonoWAV/30MonoH3.wav,2,2,1,7,,,,,0,15,15,6,0,10,10,7,,,,,,,,,5,1.673071445999085,016,001,2019_May_09_1515,MusicAffectPsychophysiology2019,3.0.5,59.90066708314032,
To what extent did the music make you feel ,ANXIOUS ,30MonoWAV/30MonoH3.wav,2,2,1,7,,,,,0,15,15,6,0,11,11,1,,,,,,,,,1,0.9996289449991309,016,001,2019_May_09_1515,MusicAffectPsychophysiology2019,3.0.5,59.90066708314032,
,,30MonoWAV/30MonoH3.wav,2,2,1,7,,,,,0,15,15,6,,,,,,,,,,,,,,,016,001,2019_May_09_1515,MusicAffectPsychophysiology2019,3.0.5,59.90066708314032,
To what extent did the music make you feel ,SAD,30MonoWAV/30MonoT1.wav,2,1,4,13,,,,,1,0,16,12,0,0,0,0,,,2,3.756273343999055,5,1.503531907001161,5,2.0704704859963385,1,1.2055492860017694,016,001,2019_May_09_1515,MusicAffectPsychophysiology2019,3.0.5,59.90066708314032,
To what extent did the music make you feel ,TENDER,30MonoWAV/30MonoT1.wav,2,1,4,13,,,,,1,0,16,12,0,1,1,10,,,,,,,,,4,3.4008992750023026,016,001,2019_May_09_1515,MusicAffectPsychophysiology2019,3.0.5,59.90066708314032,
To what extent did the music make you feel ,SCARED,30MonoWAV/30MonoT1.wav,2,1,4,13,,,,,1,0,16,12,0,2,2,11,,,,,,,,,1,1.3348570820016903,016,001,2019_May_09_1515,MusicAffectPsychophysiology2019,3.0.5,59.90066708314032,
To what extent did the music make you feel ,ANGRY,30MonoWAV/30MonoT1.wav,2,1,4,13,,,,,1,0,16,12,0,3,3,2,,,,,,,,,1,0.9177035379980225,016,001,2019_May_09_1515,MusicAffectPsychophysiology2019,3.0.5,59.90066708314032,
To what extent did the music make you feel ,EXCITED,30MonoWAV/30MonoT1.wav,2,1,4,13,,,,,1,0,16,12,0,4,4,7,,,,,,,,,1,0.9515302639993024,016,001,2019_May_09_1515,MusicAffectPsychophysiology2019,3.0.5,59.90066708314032,
To what extent did the music make you feel ,FRUSTRATED,30MonoWAV/30MonoT1.wav,2,1,4,13,,,,,1,0,16,12,0,5,5,3,,,,,,,,,1,0.6013129540006048,016,001,2019_May_09_1515,MusicAffectPsychophysiology2019,3.0.5,59.90066708314032,
To what extent did the music make you feel ,ANXIOUS ,30MonoWAV/30MonoT1.wav,2,1,4,13,,,,,1,0,16,12,0,6,6,1,,,,,,,,,1,0.6854279179970035,016,001,2019_May_09_1515,MusicAffectPsychophysiology2019,3.0.5,59.90066708314032,
To what extent did the music make you feel ,GUILTY,30MonoWAV/30MonoT1.wav,2,1,4,13,,,,,1,0,16,12,0,7,7,5,,,,,,,,,1,0.5852590900030918,016,001,2019_May_09_1515,MusicAffectPsychophysiology2019,3.0.5,59.90066708314032,
To what extent did the music make you feel ,ALERT,30MonoWAV/30MonoT1.wav,2,1,4,13,,,,,1,0,16,12,0,8,8,8,,,,,,,,,2,1.6347471379995113,016,001,2019_May_09_1515,MusicAffectPsychophysiology2019,3.0.5,59.90066708314032,
To what extent did the music make you feel ,ACTIVE,30MonoWAV/30MonoT1.wav,2,1,4,13,,,,,1,0,16,12,0,9,9,9,,,,,,,,,2,2.9192242450008052,016,001,2019_May_09_1515,MusicAffectPsychophysiology2019,3.0.5,59.90066708314032,
To what extent did the music make you feel ,ASHAMED,30MonoWAV/30MonoT1.wav,2,1,4,13,,,,,1,0,16,12,0,10,10,4,,,,,,,,,1,0.8360165080011939,016,001,2019_May_09_1515,MusicAffectPsychophysiology2019,3.0.5,59.90066708314032,
To what extent did the music make you feel ,HAPPY,30MonoWAV/30MonoT1.wav,2,1,4,13,,,,,1,0,16,12,0,11,11,6,,,,,,,,,5,1.3674231920012971,016,001,2019_May_09_1515,MusicAffectPsychophysiology2019,3.0.5,59.90066708314032,
,,30MonoWAV/30MonoT1.wav,2,1,4,13,,,,,1,0,16,12,,,,,,,,,,,,,,,016,001,2019_May_09_1515,MusicAffectPsychophysiology2019,3.0.5,59.90066708314032,
To what extent did the music make you feel ,SAD,30MonoWAV/30MonoS3.wav,1,1,3,11,,,,,1,1,17,10,0,0,0,0,,,2,4.9239827019991935,1,1.4034746179968351,2,3.489283668997814,4,2.435632483000518,016,001,2019_May_09_1515,MusicAffectPsychophysiology2019,3.0.5,59.90066708314032,
To what extent did the music make you feel ,EXCITED,30MonoWAV/30MonoS3.wav,1,1,3,11,,,,,1,1,17,10,0,1,1,7,,,,,,,,,1,1.1519760580049478,016,001,2019_May_09_1515,MusicAffectPsychophysiology2019,3.0.5,59.90066708314032,
To what extent did the music make you feel ,ALERT,30MonoWAV/30MonoS3.wav,1,1,3,11,,,,,1,1,17,10,0,2,2,8,,,,,,,,,1,1.1349441719939932,016,001,2019_May_09_1515,MusicAffectPsychophysiology2019,3.0.5,59.90066708314032,
To what extent did the music make you feel ,ANXIOUS ,30MonoWAV/30MonoS3.wav,1,1,3,11,,,,,1,1,17,10,0,3,3,1,,,,,,,,,3,3.7357345880009234,016,001,2019_May_09_1515,MusicAffectPsychophysiology2019,3.0.5,59.90066708314032,
To what extent did the music make you feel ,GUILTY,30MonoWAV/30MonoS3.wav,1,1,3,11,,,,,1,1,17,10,0,4,4,5,,,,,,,,,5,1.4012918519947561,016,001,2019_May_09_1515,MusicAffectPsychophysiology2019,3.0.5,59.90066708314032,
To what extent did the music make you feel ,HAPPY,30MonoWAV/30MonoS3.wav,1,1,3,11,,,,,1,1,17,10,0,5,5,6,,,,,,,,,1,1.0333513869991293,016,001,2019_May_09_1515,MusicAffectPsychophysiology2019,3.0.5,59.90066708314032,
To what extent did the music make you feel ,ASHAMED,30MonoWAV/30MonoS3.wav,1,1,3,11,,,,,1,1,17,10,0,6,6,4,,,,,,,,,5,2.7171899259992642,016,001,2019_May_09_1515,MusicAffectPsychophysiology2019,3.0.5,59.90066708314032,
To what extent did the music make you feel ,ANGRY,30MonoWAV/30MonoS3.wav,1,1,3,11,,,,,1,1,17,10,0,7,7,2,,,,,,,,,1,0.9010715350013925,016,001,2019_May_09_1515,MusicAffectPsychophysiology2019,3.0.5,59.90066708314032,
To what extent did the music make you feel ,SCARED,30MonoWAV/30MonoS3.wav,1,1,3,11,,,,,1,1,17,10,0,8,8,11,,,,,,,,,1,1.8854785049989005,016,001,2019_May_09_1515,MusicAffectPsychophysiology2019,3.0.5,59.90066708314032,
To what extent did the music make you feel ,TENDER,30MonoWAV/30MonoS3.wav,1,1,3,11,,,,,1,1,17,10,0,9,9,10,,,,,,,,,2,2.0018400970002403,016,001,2019_May_09_1515,MusicAffectPsychophysiology2019,3.0.5,59.90066708314032,
To what extent did the music make you feel ,FRUSTRATED,30MonoWAV/30MonoS3.wav,1,1,3,11,,,,,1,1,17,10,0,10,10,3,,,,,,,,,1,0.7522264670042205,016,001,2019_May_09_1515,MusicAffectPsychophysiology2019,3.0.5,59.90066708314032,
To what extent did the music make you feel ,ACTIVE,30MonoWAV/30MonoS3.wav,1,1,3,11,,,,,1,1,17,10,0,11,11,9,,,,,,,,,1,1.2678625730040949,016,001,2019_May_09_1515,MusicAffectPsychophysiology2019,3.0.5,59.90066708314032,
,,30MonoWAV/30MonoS3.wav,1,1,3,11,,,,,1,1,17,10,,,,,,,,,,,,,,,016,001,2019_May_09_1515,MusicAffectPsychophysiology2019,3.0.5,59.90066708314032,
To what extent did the music make you feel ,ANXIOUS ,30MonoWAV/30MonoF3.wav,1,2,2,3,,,,,1,2,18,2,0,0,0,1,,,3,3.9017826639974373,1,0.9181713409998338,1,1.0671285720018204,5,1.3191738539971993,016,001,2019_May_09_1515,MusicAffectPsychophysiology2019,3.0.5,59.90066708314032,
To what extent did the music make you feel ,TENDER,30MonoWAV/30MonoF3.wav,1,2,2,3,,,,,1,2,18,2,0,1,1,10,,,,,,,,,2,1.8350376130038057,016,001,2019_May_09_1515,MusicAffectPsychophysiology2019,3.0.5,59.90066708314032,
To what extent did the music make you feel ,ACTIVE,30MonoWAV/30MonoF3.wav,1,2,2,3,,,,,1,2,18,2,0,2,2,9,,,,,,,,,1,3.3849205570004415,016,001,2019_May_09_1515,MusicAffectPsychophysiology2019,3.0.5,59.90066708314032,
To what extent did the music make you feel ,FRUSTRATED,30MonoWAV/30MonoF3.wav,1,2,2,3,,,,,1,2,18,2,0,3,3,3,,,,,,,,,1,1.3847849070007214,016,001,2019_May_09_1515,MusicAffectPsychophysiology2019,3.0.5,59.90066708314032,
To what extent did the music make you feel ,GUILTY,30MonoWAV/30MonoF3.wav,1,2,2,3,,,,,1,2,18,2,0,4,4,5,,,,,,,,,1,1.6652579289948335,016,001,2019_May_09_1515,MusicAffectPsychophysiology2019,3.0.5,59.90066708314032,
To what extent did the music make you feel ,SAD,30MonoWAV/30MonoF3.wav,1,2,2,3,,,,,1,2,18,2,0,5,5,0,,,,,,,,,1,0.7863361159979831,016,001,2019_May_09_1515,MusicAffectPsychophysiology2019,3.0.5,59.90066708314032,
To what extent did the music make you feel ,ASHAMED,30MonoWAV/30MonoF3.wav,1,2,2,3,,,,,1,2,18,2,0,6,6,4,,,,,,,,,1,1.4015812779980479,016,001,2019_May_09_1515,MusicAffectPsychophysiology2019,3.0.5,59.90066708314032,
To what extent did the music make you feel ,HAPPY,30MonoWAV/30MonoF3.wav,1,2,2,3,,,,,1,2,18,2,0,7,7,6,,,,,,,,,1,1.6018497009936254,016,001,2019_May_09_1515,MusicAffectPsychophysiology2019,3.0.5,59.90066708314032,
To what extent did the music make you feel ,SCARED,30MonoWAV/30MonoF3.wav,1,2,2,3,,,,,1,2,18,2,0,8,8,11,,,,,,,,,5,1.767788275006751,016,001,2019_May_09_1515,MusicAffectPsychophysiology2019,3.0.5,59.90066708314032,
To what extent did the music make you feel ,EXCITED,30MonoWAV/30MonoF3.wav,1,2,2,3,,,,,1,2,18,2,0,9,9,7,,,,,,,,,1,1.0351077020022785,016,001,2019_May_09_1515,MusicAffectPsychophysiology2019,3.0.5,59.90066708314032,
To what extent did the music make you feel ,ALERT,30MonoWAV/30MonoF3.wav,1,2,2,3,,,,,1,2,18,2,0,10,10,8,,,,,,,,,5,1.1002888130024076,016,001,2019_May_09_1515,MusicAffectPsychophysiology2019,3.0.5,59.90066708314032,
To what extent did the music make you feel ,ANGRY,30MonoWAV/30MonoF3.wav,1,2,2,3,,,,,1,2,18,2,0,11,11,2,,,,,,,,,1,1.0177821489996859,016,001,2019_May_09_1515,MusicAffectPsychophysiology2019,3.0.5,59.90066708314032,
,,30MonoWAV/30MonoF3.wav,1,2,2,3,,,,,1,2,18,2,,,,,,,,,,,,,,,016,001,2019_May_09_1515,MusicAffectPsychophysiology2019,3.0.5,59.90066708314032,
To what extent did the music make you feel ,SCARED,30MonoWAV/30MonoF2.wav,1,2,2,2,,,,,1,3,19,1,0,0,0,11,,,1,4.518599303002702,1,1.0181617310008733,1,0.31808758999977726,5,1.6357240490033291,016,001,2019_May_09_1515,MusicAffectPsychophysiology2019,3.0.5,59.90066708314032,
To what extent did the music make you feel ,ANXIOUS ,30MonoWAV/30MonoF2.wav,1,2,2,2,,,,,1,3,19,1,0,1,1,1,,,,,,,,,5,0.6350611020025099,016,001,2019_May_09_1515,MusicAffectPsychophysiology2019,3.0.5,59.90066708314032,
To what extent did the music make you feel ,SAD,30MonoWAV/30MonoF2.wav,1,2,2,2,,,,,1,3,19,1,0,2,2,0,,,,,,,,,1,2.4682607970025856,016,001,2019_May_09_1515,MusicAffectPsychophysiology2019,3.0.5,59.90066708314032,
To what extent did the music make you feel ,TENDER,30MonoWAV/30MonoF2.wav,1,2,2,2,,,,,1,3,19,1,0,3,3,10,,,,,,,,,1,1.2512772900008713,016,001,2019_May_09_1515,MusicAffectPsychophysiology2019,3.0.5,59.90066708314032,
To what extent did the music make you feel ,HAPPY,30MonoWAV/30MonoF2.wav,1,2,2,2,,,,,1,3,19,1,0,4,4,6,,,,,,,,,1,0.8189097939975909,016,001,2019_May_09_1515,MusicAffectPsychophysiology2019,3.0.5,59.90066708314032,
To what extent did the music make you feel ,ALERT,30MonoWAV/30MonoF2.wav,1,2,2,2,,,,,1,3,19,1,0,5,5,8,,,,,,,,,5,1.4020439449959667,016,001,2019_May_09_1515,MusicAffectPsychophysiology2019,3.0.5,59.90066708314032,
To what extent did the music make you feel ,EXCITED,30MonoWAV/30MonoF2.wav,1,2,2,2,,,,,1,3,19,1,0,6,6,7,,,,,,,,,1,1.102000148006482,016,001,2019_May_09_1515,MusicAffectPsychophysiology2019,3.0.5,59.90066708314032,
To what extent did the music make you feel ,FRUSTRATED,30MonoWAV/30MonoF2.wav,1,2,2,2,,,,,1,3,19,1,0,7,7,3,,,,,,,,,1,1.1677771030008444,016,001,2019_May_09_1515,MusicAffectPsychophysiology2019,3.0.5,59.90066708314032,
To what extent did the music make you feel ,ACTIVE,30MonoWAV/30MonoF2.wav,1,2,2,2,,,,,1,3,19,1,0,8,8,9,,,,,,,,,1,1.2856154199980665,016,001,2019_May_09_1515,MusicAffectPsychophysiology2019,3.0.5,59.90066708314032,
To what extent did the music make you feel ,GUILTY,30MonoWAV/30MonoF2.wav,1,2,2,2,,,,,1,3,19,1,0,9,9,5,,,,,,,,,1,0.8350982060001115,016,001,2019_May_09_1515,MusicAffectPsychophysiology2019,3.0.5,59.90066708314032,
To what extent did the music make you feel ,ANGRY,30MonoWAV/30MonoF2.wav,1,2,2,2,,,,,1,3,19,1,0,10,10,2,,,,,,,,,1,0.6027670379990013,016,001,2019_May_09_1515,MusicAffectPsychophysiology2019,3.0.5,59.90066708314032,
To what extent did the music make you feel ,ASHAMED,30MonoWAV/30MonoF2.wav,1,2,2,2,,,,,1,3,19,1,0,11,11,4,,,,,,,,,1,0.7182483310025418,016,001,2019_May_09_1515,MusicAffectPsychophysiology2019,3.0.5,59.90066708314032,
,,30MonoWAV/30MonoF2.wav,1,2,2,2,,,,,1,3,19,1,,,,,,,,,,,,,,,016,001,2019_May_09_1515,MusicAffectPsychophysiology2019,3.0.5,59.90066708314032,
To what extent did the music make you feel ,ASHAMED,30MonoWAV/30MonoH3.wav,2,2,1,7,,,,,1,4,20,6,0,0,0,4,,,4,4.335404751996975,3,1.682496216002619,3,1.2018159779981943,1,1.4016043329975219,016,001,2019_May_09_1515,MusicAffectPsychophysiology2019,3.0.5,59.90066708314032,
To what extent did the music make you feel ,ANXIOUS ,30MonoWAV/30MonoH3.wav,2,2,1,7,,,,,1,4,20,6,0,1,1,1,,,,,,,,,1,0.6567890200021793,016,001,2019_May_09_1515,MusicAffectPsychophysiology2019,3.0.5,59.90066708314032,
To what extent did the music make you feel ,FRUSTRATED,30MonoWAV/30MonoH3.wav,2,2,1,7,,,,,1,4,20,6,0,2,2,3,,,,,,,,,1,1.1355607759978739,016,001,2019_May_09_1515,MusicAffectPsychophysiology2019,3.0.5,59.90066708314032,
To what extent did the music make you feel ,SAD,30MonoWAV/30MonoH3.wav,2,2,1,7,,,,,1,4,20,6,0,3,3,0,,,,,,,,,1,0.7023435539958882,016,001,2019_May_09_1515,MusicAffectPsychophysiology2019,3.0.5,59.90066708314032,
To what extent did the music make you feel ,ANGRY,30MonoWAV/30MonoH3.wav,2,2,1,7,,,,,1,4,20,6,0,4,4,2,,,,,,,,,1,0.5855210349982372,016,001,2019_May_09_1515,MusicAffectPsychophysiology2019,3.0.5,59.90066708314032,
To what extent did the music make you feel ,HAPPY,30MonoWAV/30MonoH3.wav,2,2,1,7,,,,,1,4,20,6,0,5,5,6,,,,,,,,,3,1.9872710470008315,016,001,2019_May_09_1515,MusicAffectPsychophysiology2019,3.0.5,59.90066708314032,
To what extent did the music make you feel ,TENDER,30MonoWAV/30MonoH3.wav,2,2,1,7,,,,,1,4,20,6,0,6,6,10,,,,,,,,,2,2.605732755997451,016,001,2019_May_09_1515,MusicAffectPsychophysiology2019,3.0.5,59.90066708314032,
To what extent did the music make you feel ,SCARED,30MonoWAV/30MonoH3.wav,2,2,1,7,,,,,1,4,20,6,0,7,7,11,,,,,,,,,1,0.584747183995205,016,001,2019_May_09_1515,MusicAffectPsychophysiology2019,3.0.5,59.90066708314032,
To what extent did the music make you feel ,EXCITED,30MonoWAV/30MonoH3.wav,2,2,1,7,,,,,1,4,20,6,0,8,8,7,,,,,,,,,3,1.7848305189982057,016,001,2019_May_09_1515,MusicAffectPsychophysiology2019,3.0.5,59.90066708314032,
To what extent did the music make you feel ,ALERT,30MonoWAV/30MonoH3.wav,2,2,1,7,,,,,1,4,20,6,0,9,9,8,,,,,,,,,1,1.051988038001582,016,001,2019_May_09_1515,MusicAffectPsychophysiology2019,3.0.5,59.90066708314032,
To what extent did the music make you feel ,GUILTY,30MonoWAV/30MonoH3.wav,2,2,1,7,,,,,1,4,20,6,0,10,10,5,,,,,,,,,1,1.0695855119993212,016,001,2019_May_09_1515,MusicAffectPsychophysiology2019,3.0.5,59.90066708314032,
To what extent did the music make you feel ,ACTIVE,30MonoWAV/30MonoH3.wav,2,2,1,7,,,,,1,4,20,6,0,11,11,9,,,,,,,,,4,1.6402618560023257,016,001,2019_May_09_1515,MusicAffectPsychophysiology2019,3.0.5,59.90066708314032,
,,30MonoWAV/30MonoH3.wav,2,2,1,7,,,,,1,4,20,6,,,,,,,,,,,,,,,016,001,2019_May_09_1515,MusicAffectPsychophysiology2019,3.0.5,59.90066708314032,
To what extent did the music make you feel ,ALERT,30MonoWAV/30MonoF1.wav,1,2,2,1,,,,,1,5,21,0,0,0,0,8,,,3,3.7241002669979935,1,1.1332222229975741,1,1.2683546260013827,5,1.3515237199972034,016,001,2019_May_09_1515,MusicAffectPsychophysiology2019,3.0.5,59.90066708314032,
To what extent did the music make you feel ,ASHAMED,30MonoWAV/30MonoF1.wav,1,2,2,1,,,,,1,5,21,0,0,1,1,4,,,,,,,,,1,1.60027289899881,016,001,2019_May_09_1515,MusicAffectPsychophysiology2019,3.0.5,59.90066708314032,
To what extent did the music make you feel ,ACTIVE,30MonoWAV/30MonoF1.wav,1,2,2,1,,,,,1,5,21,0,0,2,2,9,,,,,,,,,4,1.8020927520046826,016,001,2019_May_09_1515,MusicAffectPsychophysiology2019,3.0.5,59.90066708314032,
To what extent did the music make you feel ,HAPPY,30MonoWAV/30MonoF1.wav,1,2,2,1,,,,,1,5,21,0,0,3,3,6,,,,,,,,,1,0.9853199450008105,016,001,2019_May_09_1515,MusicAffectPsychophysiology2019,3.0.5,59.90066708314032,
To what extent did the music make you feel ,ANXIOUS ,30MonoWAV/30MonoF1.wav,1,2,2,1,,,,,1,5,21,0,0,4,4,1,,,,,,,,,4,2.018031677995168,016,001,2019_May_09_1515,MusicAffectPsychophysiology2019,3.0.5,59.90066708314032,
To what extent did the music make you feel ,FRUSTRATED,30MonoWAV/30MonoF1.wav,1,2,2,1,,,,,1,5,21,0,0,5,5,3,,,,,,,,,2,2.734776115998102,016,001,2019_May_09_1515,MusicAffectPsychophysiology2019,3.0.5,59.90066708314032,
To what extent did the music make you feel ,ANGRY,30MonoWAV/30MonoF1.wav,1,2,2,1,,,,,1,5,21,0,0,6,6,2,,,,,,,,,2,2.2183438089996343,016,001,2019_May_09_1515,MusicAffectPsychophysiology2019,3.0.5,59.90066708314032,
To what extent did the music make you feel ,GUILTY,30MonoWAV/30MonoF1.wav,1,2,2,1,,,,,1,5,21,0,0,7,7,5,,,,,,,,,1,1.2029970470030094,016,001,2019_May_09_1515,MusicAffectPsychophysiology2019,3.0.5,59.90066708314032,
To what extent did the music make you feel ,SAD,30MonoWAV/30MonoF1.wav,1,2,2,1,,,,,1,5,21,0,0,8,8,0,,,,,,,,,1,0.6347712729984778,016,001,2019_May_09_1515,MusicAffectPsychophysiology2019,3.0.5,59.90066708314032,
To what extent did the music make you feel ,EXCITED,30MonoWAV/30MonoF1.wav,1,2,2,1,,,,,1,5,21,0,0,9,9,7,,,,,,,,,1,1.0186847329969169,016,001,2019_May_09_1515,MusicAffectPsychophysiology2019,3.0.5,59.90066708314032,
To what extent did the music make you feel ,SCARED,30MonoWAV/30MonoF1.wav,1,2,2,1,,,,,1,5,21,0,0,10,10,11,,,,,,,,,5,1.6995829820007202,016,001,2019_May_09_1515,MusicAffectPsychophysiology2019,3.0.5,59.90066708314032,
To what extent did the music make you feel ,TENDER,30MonoWAV/30MonoF1.wav,1,2,2,1,,,,,1,5,21,0,0,11,11,10,,,,,,,,,1,1.7844019479962299,016,001,2019_May_09_1515,MusicAffectPsychophysiology2019,3.0.5,59.90066708314032,
,,30MonoWAV/30MonoF1.wav,1,2,2,1,,,,,1,5,21,0,,,,,,,,,,,,,,,016,001,2019_May_09_1515,MusicAffectPsychophysiology2019,3.0.5,59.90066708314032,
To what extent did the music make you feel ,ACTIVE,30MonoWAV/30MonoH4.wav,2,2,1,8,,,,,1,6,22,7,0,0,0,9,,,5,2.3522558149998076,5,1.4682304309972096,5,1.7348696080007358,5,2.1562952410022262,016,001,2019_May_09_1515,MusicAffectPsychophysiology2019,3.0.5,59.90066708314032,
To what extent did the music make you feel ,SAD,30MonoWAV/30MonoH4.wav,2,2,1,8,,,,,1,6,22,7,0,1,1,0,,,,,,,,,1,0.9699991489978856,016,001,2019_May_09_1515,MusicAffectPsychophysiology2019,3.0.5,59.90066708314032,
To what extent did the music make you feel ,ASHAMED,30MonoWAV/30MonoH4.wav,2,2,1,8,,,,,1,6,22,7,0,2,2,4,,,,,,,,,1,0.9865023879974615,016,001,2019_May_09_1515,MusicAffectPsychophysiology2019,3.0.5,59.90066708314032,
To what extent did the music make you feel ,ALERT,30MonoWAV/30MonoH4.wav,2,2,1,8,,,,,1,6,22,7,0,3,3,8,,,,,,,,,2,1.37069617400266,016,001,2019_May_09_1515,MusicAffectPsychophysiology2019,3.0.5,59.90066708314032,
To what extent did the music make you feel ,HAPPY,30MonoWAV/30MonoH4.wav,2,2,1,8,,,,,1,6,22,7,0,4,4,6,,,,,,,,,5,1.4547216480059433,016,001,2019_May_09_1515,MusicAffectPsychophysiology2019,3.0.5,59.90066708314032,
To what extent did the music make you feel ,FRUSTRATED,30MonoWAV/30MonoH4.wav,2,2,1,8,,,,,1,6,22,7,0,5,5,3,,,,,,,,,1,1.2193267900001956,016,001,2019_May_09_1515,MusicAffectPsychophysiology2019,3.0.5,59.90066708314032,
To what extent did the music make you feel ,SCARED,30MonoWAV/30MonoH4.wav,2,2,1,8,,,,,1,6,22,7,0,6,6,11,,,,,,,,,1,1.2904637699975865,016,001,2019_May_09_1515,MusicAffectPsychophysiology2019,3.0.5,59.90066708314032,
To what extent did the music make you feel ,ANXIOUS ,30MonoWAV/30MonoH4.wav,2,2,1,8,,,,,1,6,22,7,0,7,7,1,,,,,,,,,1,1.0018813950009644,016,001,2019_May_09_1515,MusicAffectPsychophysiology2019,3.0.5,59.90066708314032,
To what extent did the music make you feel ,TENDER,30MonoWAV/30MonoH4.wav,2,2,1,8,,,,,1,6,22,7,0,8,8,10,,,,,,,,,1,1.0507599330012454,016,001,2019_May_09_1515,MusicAffectPsychophysiology2019,3.0.5,59.90066708314032,
To what extent did the music make you feel ,EXCITED,30MonoWAV/30MonoH4.wav,2,2,1,8,,,,,1,6,22,7,0,9,9,7,,,,,,,,,5,1.2521630100018228,016,001,2019_May_09_1515,MusicAffectPsychophysiology2019,3.0.5,59.90066708314032,
To what extent did the music make you feel ,GUILTY,30MonoWAV/30MonoH4.wav,2,2,1,8,,,,,1,6,22,7,0,10,10,5,,,,,,,,,1,1.0163402519974625,016,001,2019_May_09_1515,MusicAffectPsychophysiology2019,3.0.5,59.90066708314032,
To what extent did the music make you feel ,ANGRY,30MonoWAV/30MonoH4.wav,2,2,1,8,,,,,1,6,22,7,0,11,11,2,,,,,,,,,1,0.5681232850038214,016,001,2019_May_09_1515,MusicAffectPsychophysiology2019,3.0.5,59.90066708314032,
,,30MonoWAV/30MonoH4.wav,2,2,1,8,,,,,1,6,22,7,,,,,,,,,,,,,,,016,001,2019_May_09_1515,MusicAffectPsychophysiology2019,3.0.5,59.90066708314032,
To what extent did the music make you feel ,FRUSTRATED,30MonoWAV/30MonoT2.wav,2,1,4,14,,,,,1,7,23,13,0,0,0,3,,,1,2.5357308719976572,5,1.034556139005872,5,1.4511347160005243,1,1.085810582000704,016,001,2019_May_09_1515,MusicAffectPsychophysiology2019,3.0.5,59.90066708314032,
To what extent did the music make you feel ,ANGRY,30MonoWAV/30MonoT2.wav,2,1,4,14,,,,,1,7,23,13,0,1,1,2,,,,,,,,,1,0.5843202749965712,016,001,2019_May_09_1515,MusicAffectPsychophysiology2019,3.0.5,59.90066708314032,
To what extent did the music make you feel ,SAD,30MonoWAV/30MonoT2.wav,2,1,4,14,,,,,1,7,23,13,0,2,2,0,,,,,,,,,1,1.0854217759988387,016,001,2019_May_09_1515,MusicAffectPsychophysiology2019,3.0.5,59.90066708314032,
To what extent did the music make you feel ,SCARED,30MonoWAV/30MonoT2.wav,2,1,4,14,,,,,1,7,23,13,0,3,3,11,,,,,,,,,1,0.8517902110033901,016,001,2019_May_09_1515,MusicAffectPsychophysiology2019,3.0.5,59.90066708314032,
To what extent did the music make you feel ,GUILTY,30MonoWAV/30MonoT2.wav,2,1,4,14,,,,,1,7,23,13,0,4,4,5,,,,,,,,,1,1.1190643049994833,016,001,2019_May_09_1515,MusicAffectPsychophysiology2019,3.0.5,59.90066708314032,
To what extent did the music make you feel ,HAPPY,30MonoWAV/30MonoT2.wav,2,1,4,14,,,,,1,7,23,13,0,5,5,6,,,,,,,,,4,2.0680745280042174,016,001,2019_May_09_1515,MusicAffectPsychophysiology2019,3.0.5,59.90066708314032,
To what extent did the music make you feel ,ANXIOUS ,30MonoWAV/30MonoT2.wav,2,1,4,14,,,,,1,7,23,13,0,6,6,1,,,,,,,,,1,0.9854700950018014,016,001,2019_May_09_1515,MusicAffectPsychophysiology2019,3.0.5,59.90066708314032,
To what extent did the music make you feel ,ALERT,30MonoWAV/30MonoT2.wav,2,1,4,14,,,,,1,7,23,13,0,7,7,8,,,,,,,,,1,0.7015838039951632,016,001,2019_May_09_1515,MusicAffectPsychophysiology2019,3.0.5,59.90066708314032,
To what extent did the music make you feel ,TENDER,30MonoWAV/30MonoT2.wav,2,1,4,14,,,,,1,7,23,13,0,8,8,10,,,,,,,,,5,1.035536930001399,016,001,2019_May_09_1515,MusicAffectPsychophysiology2019,3.0.5,59.90066708314032,
To what extent did the music make you feel ,ASHAMED,30MonoWAV/30MonoT2.wav,2,1,4,14,,,,,1,7,23,13,0,9,9,4,,,,,,,,,1,0.901619848998962,016,001,2019_May_09_1515,MusicAffectPsychophysiology2019,3.0.5,59.90066708314032,
To what extent did the music make you feel ,EXCITED,30MonoWAV/30MonoT2.wav,2,1,4,14,,,,,1,7,23,13,0,10,10,7,,,,,,,,,3,2.4344937600035337,016,001,2019_May_09_1515,MusicAffectPsychophysiology2019,3.0.5,59.90066708314032,
To what extent did the music make you feel ,ACTIVE,30MonoWAV/30MonoT2.wav,2,1,4,14,,,,,1,7,23,13,0,11,11,9,,,,,,,,,1,1.3344615660025738,016,001,2019_May_09_1515,MusicAffectPsychophysiology2019,3.0.5,59.90066708314032,
,,30MonoWAV/30MonoT2.wav,2,1,4,14,,,,,1,7,23,13,,,,,,,,,,,,,,,016,001,2019_May_09_1515,MusicAffectPsychophysiology2019,3.0.5,59.90066708314032,
To what extent did the music make you feel ,ACTIVE,30MonoWAV/30MonoS1.wav,1,1,3,9,,,,,1,8,24,8,0,0,0,9,,,2,2.569835772999795,1,0.7014376789957169,3,1.75117718999536,1,1.4018564700018032,016,001,2019_May_09_1515,MusicAffectPsychophysiology2019,3.0.5,59.90066708314032,
To what extent did the music make you feel ,GUILTY,30MonoWAV/30MonoS1.wav,1,1,3,9,,,,,1,8,24,8,0,1,1,5,,,,,,,,,4,1.9519031980016734,016,001,2019_May_09_1515,MusicAffectPsychophysiology2019,3.0.5,59.90066708314032,
To what extent did the music make you feel ,SCARED,30MonoWAV/30MonoS1.wav,1,1,3,9,,,,,1,8,24,8,0,2,2,11,,,,,,,,,1,1.6167533810003079,016,001,2019_May_09_1515,MusicAffectPsychophysiology2019,3.0.5,59.90066708314032,
To what extent did the music make you feel ,ASHAMED,30MonoWAV/30MonoS1.wav,1,1,3,9,,,,,1,8,24,8,0,3,3,4,,,,,,,,,2,2.703729900000326,016,001,2019_May_09_1515,MusicAffectPsychophysiology2019,3.0.5,59.90066708314032,
To what extent did the music make you feel ,EXCITED,30MonoWAV/30MonoS1.wav,1,1,3,9,,,,,1,8,24,8,0,4,4,7,,,,,,,,,1,1.2021856780047528,016,001,2019_May_09_1515,MusicAffectPsychophysiology2019,3.0.5,59.90066708314032,
To what extent did the music make you feel ,SAD,30MonoWAV/30MonoS1.wav,1,1,3,9,,,,,1,8,24,8,0,5,5,0,,,,,,,,,5,1.635929901000054,016,001,2019_May_09_1515,MusicAffectPsychophysiology2019,3.0.5,59.90066708314032,
To what extent did the music make you feel ,FRUSTRATED,30MonoWAV/30MonoS1.wav,1,1,3,9,,,,,1,8,24,8,0,6,6,3,,,,,,,,,1,1.284742540003208,016,001,2019_May_09_1515,MusicAffectPsychophysiology2019,3.0.5,59.90066708314032,
To what extent did the music make you feel ,ANXIOUS ,30MonoWAV/30MonoS1.wav,1,1,3,9,,,,,1,8,24,8,0,7,7,1,,,,,,,,,1,1.066089463995013,016,001,2019_May_09_1515,MusicAffectPsychophysiology2019,3.0.5,59.90066708314032,
To what extent did the music make you feel ,HAPPY,30MonoWAV/30MonoS1.wav,1,1,3,9,,,,,1,8,24,8,0,8,8,6,,,,,,,,,1,1.251708759002213,016,001,2019_May_09_1515,MusicAffectPsychophysiology2019,3.0.5,59.90066708314032,
To what extent did the music make you feel ,TENDER,30MonoWAV/30MonoS1.wav,1,1,3,9,,,,,1,8,24,8,0,9,9,10,,,,,,,,,4,1.5849226210048073,016,001,2019_May_09_1515,MusicAffectPsychophysiology2019,3.0.5,59.90066708314032,
To what extent did the music make you feel ,ANGRY,30MonoWAV/30MonoS1.wav,1,1,3,9,,,,,1,8,24,8,0,10,10,2,,,,,,,,,1,0.9678375680014142,016,001,2019_May_09_1515,MusicAffectPsychophysiology2019,3.0.5,59.90066708314032,
To what extent did the music make you feel ,ALERT,30MonoWAV/30MonoS1.wav,1,1,3,9,,,,,1,8,24,8,0,11,11,8,,,,,,,,,1,1.167641744003049,016,001,2019_May_09_1515,MusicAffectPsychophysiology2019,3.0.5,59.90066708314032,
,,30MonoWAV/30MonoS1.wav,1,1,3,9,,,,,1,8,24,8,,,,,,,,,,,,,,,016,001,2019_May_09_1515,MusicAffectPsychophysiology2019,3.0.5,59.90066708314032,
To what extent did the music make you feel ,FRUSTRATED,30MonoWAV/30MonoS2.wav,1,1,3,10,,,,,1,9,25,9,0,0,0,3,,,1,2.9688421819955693,1,0.5516127129958477,3,1.5676554780002334,1,1.175697261998721,016,001,2019_May_09_1515,MusicAffectPsychophysiology2019,3.0.5,59.90066708314032,
To what extent did the music make you feel ,TENDER,30MonoWAV/30MonoS2.wav,1,1,3,10,,,,,1,9,25,9,0,1,1,10,,,,,,,,,3,2.002463411001372,016,001,2019_May_09_1515,MusicAffectPsychophysiology2019,3.0.5,59.90066708314032,
To what extent did the music make you feel ,EXCITED,30MonoWAV/30MonoS2.wav,1,1,3,10,,,,,1,9,25,9,0,2,2,7,,,,,,,,,1,1.3196219080055016,016,001,2019_May_09_1515,MusicAffectPsychophysiology2019,3.0.5,59.90066708314032,
To what extent did the music make you feel ,ALERT,30MonoWAV/30MonoS2.wav,1,1,3,10,,,,,1,9,25,9,0,3,3,8,,,,,,,,,1,0.632903551995696,016,001,2019_May_09_1515,MusicAffectPsychophysiology2019,3.0.5,59.90066708314032,
To what extent did the music make you feel ,ANXIOUS ,30MonoWAV/30MonoS2.wav,1,1,3,10,,,,,1,9,25,9,0,4,4,1,,,,,,,,,1,1.66979364999861,016,001,2019_May_09_1515,MusicAffectPsychophysiology2019,3.0.5,59.90066708314032,
To what extent did the music make you feel ,GUILTY,30MonoWAV/30MonoS2.wav,1,1,3,10,,,,,1,9,25,9,0,5,5,5,,,,,,,,,1,0.6833750200021314,016,001,2019_May_09_1515,MusicAffectPsychophysiology2019,3.0.5,59.90066708314032,
To what extent did the music make you feel ,ACTIVE,30MonoWAV/30MonoS2.wav,1,1,3,10,,,,,1,9,25,9,0,6,6,9,,,,,,,,,1,1.936381077997794,016,001,2019_May_09_1515,MusicAffectPsychophysiology2019,3.0.5,59.90066708314032,
To what extent did the music make you feel ,SCARED,30MonoWAV/30MonoS2.wav,1,1,3,10,,,,,1,9,25,9,0,7,7,11,,,,,,,,,1,1.1846076299989363,016,001,2019_May_09_1515,MusicAffectPsychophysiology2019,3.0.5,59.90066708314032,
To what extent did the music make you feel ,HAPPY,30MonoWAV/30MonoS2.wav,1,1,3,10,,,,,1,9,25,9,0,8,8,6,,,,,,,,,1,1.4517859580009826,016,001,2019_May_09_1515,MusicAffectPsychophysiology2019,3.0.5,59.90066708314032,
To what extent did the music make you feel ,SAD,30MonoWAV/30MonoS2.wav,1,1,3,10,,,,,1,9,25,9,0,9,9,0,,,,,,,,,4,1.4852028599998448,016,001,2019_May_09_1515,MusicAffectPsychophysiology2019,3.0.5,59.90066708314032,
To what extent did the music make you feel ,ANGRY,30MonoWAV/30MonoS2.wav,1,1,3,10,,,,,1,9,25,9,0,10,10,2,,,,,,,,,1,0.9518472060008207,016,001,2019_May_09_1515,MusicAffectPsychophysiology2019,3.0.5,59.90066708314032,
To what extent did the music make you feel ,ASHAMED,30MonoWAV/30MonoS2.wav,1,1,3,10,,,,,1,9,25,9,0,11,11,4,,,,,,,,,2,5.650538759000483,016,001,2019_May_09_1515,MusicAffectPsychophysiology2019,3.0.5,59.90066708314032,
,,30MonoWAV/30MonoS2.wav,1,1,3,10,,,,,1,9,25,9,,,,,,,,,,,,,,,016,001,2019_May_09_1515,MusicAffectPsychophysiology2019,3.0.5,59.90066708314032,
To what extent did the music make you feel ,GUILTY,30MonoWAV/30MonoT4.wav,2,1,4,16,,,,,1,10,26,15,0,0,0,5,,,3,2.5684413780036266,4,1.0521089269968797,3,1.5348503090062877,1,1.734060506001697,016,001,2019_May_09_1515,MusicAffectPsychophysiology2019,3.0.5,59.90066708314032,
To what extent did the music make you feel ,TENDER,30MonoWAV/30MonoT4.wav,2,1,4,16,,,,,1,10,26,15,0,1,1,10,,,,,,,,,2,2.368464915001823,016,001,2019_May_09_1515,MusicAffectPsychophysiology2019,3.0.5,59.90066708314032,
To what extent did the music make you feel ,ANXIOUS ,30MonoWAV/30MonoT4.wav,2,1,4,16,,,,,1,10,26,15,0,2,2,1,,,,,,,,,1,0.8855518580021453,016,001,2019_May_09_1515,MusicAffectPsychophysiology2019,3.0.5,59.90066708314032,
To what extent did the music make you feel ,ASHAMED,30MonoWAV/30MonoT4.wav,2,1,4,16,,,,,1,10,26,15,0,3,3,4,,,,,,,,,1,0.5516650159988785,016,001,2019_May_09_1515,MusicAffectPsychophysiology2019,3.0.5,59.90066708314032,
To what extent did the music make you feel ,FRUSTRATED,30MonoWAV/30MonoT4.wav,2,1,4,16,,,,,1,10,26,15,0,4,4,3,,,,,,,,,1,0.46804434100340586,016,001,2019_May_09_1515,MusicAffectPsychophysiology2019,3.0.5,59.90066708314032,
To what extent did the music make you feel ,HAPPY,30MonoWAV/30MonoT4.wav,2,1,4,16,,,,,1,10,26,15,0,5,5,6,,,,,,,,,3,1.484364589996403,016,001,2019_May_09_1515,MusicAffectPsychophysiology2019,3.0.5,59.90066708314032,
To what extent did the music make you feel ,EXCITED,30MonoWAV/30MonoT4.wav,2,1,4,16,,,,,1,10,26,15,0,6,6,7,,,,,,,,,2,1.9683843050006544,016,001,2019_May_09_1515,MusicAffectPsychophysiology2019,3.0.5,59.90066708314032,
To what extent did the music make you feel ,ALERT,30MonoWAV/30MonoT4.wav,2,1,4,16,,,,,1,10,26,15,0,7,7,8,,,,,,,,,1,0.8167005430004792,016,001,2019_May_09_1515,MusicAffectPsychophysiology2019,3.0.5,59.90066708314032,
To what extent did the music make you feel ,SCARED,30MonoWAV/30MonoT4.wav,2,1,4,16,,,,,1,10,26,15,0,8,8,11,,,,,,,,,1,0.7013324409999768,016,001,2019_May_09_1515,MusicAffectPsychophysiology2019,3.0.5,59.90066708314032,
To what extent did the music make you feel ,SAD,30MonoWAV/30MonoT4.wav,2,1,4,16,,,,,1,10,26,15,0,9,9,0,,,,,,,,,1,0.8680297270038864,016,001,2019_May_09_1515,MusicAffectPsychophysiology2019,3.0.5,59.90066708314032,
To what extent did the music make you feel ,ACTIVE,30MonoWAV/30MonoT4.wav,2,1,4,16,,,,,1,10,26,15,0,10,10,9,,,,,,,,,1,1.8019705769984284,016,001,2019_May_09_1515,MusicAffectPsychophysiology2019,3.0.5,59.90066708314032,
To what extent did the music make you feel ,ANGRY,30MonoWAV/30MonoT4.wav,2,1,4,16,,,,,1,10,26,15,0,11,11,2,,,,,,,,,1,0.7854643620012212,016,001,2019_May_09_1515,MusicAffectPsychophysiology2019,3.0.5,59.90066708314032,
,,30MonoWAV/30MonoT4.wav,2,1,4,16,,,,,1,10,26,15,,,,,,,,,,,,,,,016,001,2019_May_09_1515,MusicAffectPsychophysiology2019,3.0.5,59.90066708314032,
To what extent did the music make you feel ,SCARED,30MonoWAV/30MonoH2.wav,2,2,1,6,,,,,1,11,27,5,0,0,0,11,,,3,3.4524242140032584,3,1.168264526000712,3,1.6514004370037583,1,1.0851610079989769,016,001,2019_May_09_1515,MusicAffectPsychophysiology2019,3.0.5,59.90066708314032,
To what extent did the music make you feel ,EXCITED,30MonoWAV/30MonoH2.wav,2,2,1,6,,,,,1,11,27,5,0,1,1,7,,,,,,,,,3,1.351536064001266,016,001,2019_May_09_1515,MusicAffectPsychophysiology2019,3.0.5,59.90066708314032,
To what extent did the music make you feel ,ACTIVE,30MonoWAV/30MonoH2.wav,2,2,1,6,,,,,1,11,27,5,0,2,2,9,,,,,,,,,3,1.5844897470014985,016,001,2019_May_09_1515,MusicAffectPsychophysiology2019,3.0.5,59.90066708314032,
To what extent did the music make you feel ,SAD,30MonoWAV/30MonoH2.wav,2,2,1,6,,,,,1,11,27,5,0,3,3,0,,,,,,,,,1,0.9519120140030282,016,001,2019_May_09_1515,MusicAffectPsychophysiology2019,3.0.5,59.90066708314032,
To what extent did the music make you feel ,HAPPY,30MonoWAV/30MonoH2.wav,2,2,1,6,,,,,1,11,27,5,0,4,4,6,,,,,,,,,2,1.4186387349982397,016,001,2019_May_09_1515,MusicAffectPsychophysiology2019,3.0.5,59.90066708314032,
To what extent did the music make you feel ,FRUSTRATED,30MonoWAV/30MonoH2.wav,2,2,1,6,,,,,1,11,27,5,0,5,5,3,,,,,,,,,1,0.9196246770006837,016,001,2019_May_09_1515,MusicAffectPsychophysiology2019,3.0.5,59.90066708314032,
To what extent did the music make you feel ,ALERT,30MonoWAV/30MonoH2.wav,2,2,1,6,,,,,1,11,27,5,0,6,6,8,,,,,,,,,3,3.6351455339972745,016,001,2019_May_09_1515,MusicAffectPsychophysiology2019,3.0.5,59.90066708314032,
To what extent did the music make you feel ,ANGRY,30MonoWAV/30MonoH2.wav,2,2,1,6,,,,,1,11,27,5,0,7,7,2,,,,,,,,,1,0.7859019559982698,016,001,2019_May_09_1515,MusicAffectPsychophysiology2019,3.0.5,59.90066708314032,
To what extent did the music make you feel ,ANXIOUS ,30MonoWAV/30MonoH2.wav,2,2,1,6,,,,,1,11,27,5,0,8,8,1,,,,,,,,,1,1.0692639059998328,016,001,2019_May_09_1515,MusicAffectPsychophysiology2019,3.0.5,59.90066708314032,
To what extent did the music make you feel ,TENDER,30MonoWAV/30MonoH2.wav,2,2,1,6,,,,,1,11,27,5,0,9,9,10,,,,,,,,,1,1.201727692001441,016,001,2019_May_09_1515,MusicAffectPsychophysiology2019,3.0.5,59.90066708314032,
To what extent did the music make you feel ,GUILTY,30MonoWAV/30MonoH2.wav,2,2,1,6,,,,,1,11,27,5,0,10,10,5,,,,,,,,,1,0.9178875150028034,016,001,2019_May_09_1515,MusicAffectPsychophysiology2019,3.0.5,59.90066708314032,
To what extent did the music make you feel ,ASHAMED,30MonoWAV/30MonoH2.wav,2,2,1,6,,,,,1,11,27,5,0,11,11,4,,,,,,,,,1,0.7020591990003595,016,001,2019_May_09_1515,MusicAffectPsychophysiology2019,3.0.5,59.90066708314032,
,,30MonoWAV/30MonoH2.wav,2,2,1,6,,,,,1,11,27,5,,,,,,,,,,,,,,,016,001,2019_May_09_1515,MusicAffectPsychophysiology2019,3.0.5,59.90066708314032,
To what extent did the music make you feel ,ASHAMED,30MonoWAV/30MonoF4.wav,1,2,2,4,,,,,1,12,28,3,0,0,0,4,,,3,2.835977315000491,2,1.2015487890021177,2,1.7516647820011713,1,1.1350888649976696,016,001,2019_May_09_1515,MusicAffectPsychophysiology2019,3.0.5,59.90066708314032,
To what extent did the music make you feel ,ANGRY,30MonoWAV/30MonoF4.wav,1,2,2,4,,,,,1,12,28,3,0,1,1,2,,,,,,,,,1,0.4850961149932118,016,001,2019_May_09_1515,MusicAffectPsychophysiology2019,3.0.5,59.90066708314032,
To what extent did the music make you feel ,EXCITED,30MonoWAV/30MonoF4.wav,1,2,2,4,,,,,1,12,28,3,0,2,2,7,,,,,,,,,2,2.4360963739964063,016,001,2019_May_09_1515,MusicAffectPsychophysiology2019,3.0.5,59.90066708314032,
To what extent did the music make you feel ,GUILTY,30MonoWAV/30MonoF4.wav,1,2,2,4,,,,,1,12,28,3,0,3,3,5,,,,,,,,,1,0.7680677400057903,016,001,2019_May_09_1515,MusicAffectPsychophysiology2019,3.0.5,59.90066708314032,
To what extent did the music make you feel ,TENDER,30MonoWAV/30MonoF4.wav,1,2,2,4,,,,,1,12,28,3,0,4,4,10,,,,,,,,,1,0.7188449410023168,016,001,2019_May_09_1515,MusicAffectPsychophysiology2019,3.0.5,59.90066708314032,
To what extent did the music make you feel ,ALERT,30MonoWAV/30MonoF4.wav,1,2,2,4,,,,,1,12,28,3,0,5,5,8,,,,,,,,,4,2.217197092002607,016,001,2019_May_09_1515,MusicAffectPsychophysiology2019,3.0.5,59.90066708314032,
To what extent did the music make you feel ,SCARED,30MonoWAV/30MonoF4.wav,1,2,2,4,,,,,1,12,28,3,0,6,6,11,,,,,,,,,1,1.0674721210016287,016,001,2019_May_09_1515,MusicAffectPsychophysiology2019,3.0.5,59.90066708314032,
To what extent did the music make you feel ,ACTIVE,30MonoWAV/30MonoF4.wav,1,2,2,4,,,,,1,12,28,3,0,7,7,9,,,,,,,,,3,2.8687809180046315,016,001,2019_May_09_1515,MusicAffectPsychophysiology2019,3.0.5,59.90066708314032,
To what extent did the music make you feel ,HAPPY,30MonoWAV/30MonoF4.wav,1,2,2,4,,,,,1,12,28,3,0,8,8,6,,,,,,,,,1,0.984678344000713,016,001,2019_May_09_1515,MusicAffectPsychophysiology2019,3.0.5,59.90066708314032,
To what extent did the music make you feel ,FRUSTRATED,30MonoWAV/30MonoF4.wav,1,2,2,4,,,,,1,12,28,3,0,9,9,3,,,,,,,,,1,1.0350408930025878,016,001,2019_May_09_1515,MusicAffectPsychophysiology2019,3.0.5,59.90066708314032,
To what extent did the music make you feel ,ANXIOUS ,30MonoWAV/30MonoF4.wav,1,2,2,4,,,,,1,12,28,3,0,10,10,1,,,,,,,,,5,1.6850432900027954,016,001,2019_May_09_1515,MusicAffectPsychophysiology2019,3.0.5,59.90066708314032,
To what extent did the music make you feel ,SAD,30MonoWAV/30MonoF4.wav,1,2,2,4,,,,,1,12,28,3,0,11,11,0,,,,,,,,,1,0.9012874850013759,016,001,2019_May_09_1515,MusicAffectPsychophysiology2019,3.0.5,59.90066708314032,
,,30MonoWAV/30MonoF4.wav,1,2,2,4,,,,,1,12,28,3,,,,,,,,,,,,,,,016,001,2019_May_09_1515,MusicAffectPsychophysiology2019,3.0.5,59.90066708314032,
To what extent did the music make you feel ,FRUSTRATED,30MonoWAV/30MonoS4.wav,1,1,3,12,,,,,1,13,29,11,0,0,0,3,,,1,3.1685245579938055,1,1.7517134570007329,2,1.668759233005403,1,1.328387207002379,016,001,2019_May_09_1515,MusicAffectPsychophysiology2019,3.0.5,59.90066708314032,
To what extent did the music make you feel ,TENDER,30MonoWAV/30MonoS4.wav,1,1,3,12,,,,,1,13,29,11,0,1,1,10,,,,,,,,,4,1.6186908620002214,016,001,2019_May_09_1515,MusicAffectPsychophysiology2019,3.0.5,59.90066708314032,
To what extent did the music make you feel ,SCARED,30MonoWAV/30MonoS4.wav,1,1,3,12,,,,,1,13,29,11,0,2,2,11,,,,,,,,,1,1.1348001990045304,016,001,2019_May_09_1515,MusicAffectPsychophysiology2019,3.0.5,59.90066708314032,
To what extent did the music make you feel ,ANGRY,30MonoWAV/30MonoS4.wav,1,1,3,12,,,,,1,13,29,11,0,3,3,2,,,,,,,,,1,0.8511531870026374,016,001,2019_May_09_1515,MusicAffectPsychophysiology2019,3.0.5,59.90066708314032,
To what extent did the music make you feel ,SAD,30MonoWAV/30MonoS4.wav,1,1,3,12,,,,,1,13,29,11,0,4,4,0,,,,,,,,,4,1.5355937159984023,016,001,2019_May_09_1515,MusicAffectPsychophysiology2019,3.0.5,59.90066708314032,
To what extent did the music make you feel ,ASHAMED,30MonoWAV/30MonoS4.wav,1,1,3,12,,,,,1,13,29,11,0,5,5,4,,,,,,,,,2,1.6163266340008704,016,001,2019_May_09_1515,MusicAffectPsychophysiology2019,3.0.5,59.90066708314032,
To what extent did the music make you feel ,HAPPY,30MonoWAV/30MonoS4.wav,1,1,3,12,,,,,1,13,29,11,0,6,6,6,,,,,,,,,1,1.102516380000452,016,001,2019_May_09_1515,MusicAffectPsychophysiology2019,3.0.5,59.90066708314032,
To what extent did the music make you feel ,ANXIOUS ,30MonoWAV/30MonoS4.wav,1,1,3,12,,,,,1,13,29,11,0,7,7,1,,,,,,,,,1,0.8685917499969946,016,001,2019_May_09_1515,MusicAffectPsychophysiology2019,3.0.5,59.90066708314032,
To what extent did the music make you feel ,ALERT,30MonoWAV/30MonoS4.wav,1,1,3,12,,,,,1,13,29,11,0,8,8,8,,,,,,,,,1,0.9021453899986227,016,001,2019_May_09_1515,MusicAffectPsychophysiology2019,3.0.5,59.90066708314032,
To what extent did the music make you feel ,EXCITED,30MonoWAV/30MonoS4.wav,1,1,3,12,,,,,1,13,29,11,0,9,9,7,,,,,,,,,1,0.7689514869998675,016,001,2019_May_09_1515,MusicAffectPsychophysiology2019,3.0.5,59.90066708314032,
To what extent did the music make you feel ,GUILTY,30MonoWAV/30MonoS4.wav,1,1,3,12,,,,,1,13,29,11,0,10,10,5,,,,,,,,,2,2.1515734209970105,016,001,2019_May_09_1515,MusicAffectPsychophysiology2019,3.0.5,59.90066708314032,
To what extent did the music make you feel ,ACTIVE,30MonoWAV/30MonoS4.wav,1,1,3,12,,,,,1,13,29,11,0,11,11,9,,,,,,,,,1,0.7158714510005666,016,001,2019_May_09_1515,MusicAffectPsychophysiology2019,3.0.5,59.90066708314032,
,,30MonoWAV/30MonoS4.wav,1,1,3,12,,,,,1,13,29,11,,,,,,,,,,,,,,,016,001,2019_May_09_1515,MusicAffectPsychophysiology2019,3.0.5,59.90066708314032,
To what extent did the music make you feel ,SAD,30MonoWAV/30MonoH1.wav,2,2,1,5,,,,,1,14,30,4,0,0,0,0,,,4,2.735046877998684,4,2.23587322000094,4,1.401659668998036,1,1.0513035660042078,016,001,2019_May_09_1515,MusicAffectPsychophysiology2019,3.0.5,59.90066708314032,
To what extent did the music make you feel ,TENDER,30MonoWAV/30MonoH1.wav,2,2,1,5,,,,,1,14,30,4,0,1,1,10,,,,,,,,,1,0.8168206520058447,016,001,2019_May_09_1515,MusicAffectPsychophysiology2019,3.0.5,59.90066708314032,
To what extent did the music make you feel ,ASHAMED,30MonoWAV/30MonoH1.wav,2,2,1,5,,,,,1,14,30,4,0,2,2,4,,,,,,,,,1,1.0854468969992013,016,001,2019_May_09_1515,MusicAffectPsychophysiology2019,3.0.5,59.90066708314032,
To what extent did the music make you feel ,EXCITED,30MonoWAV/30MonoH1.wav,2,2,1,5,,,,,1,14,30,4,0,3,3,7,,,,,,,,,5,1.3513944520018413,016,001,2019_May_09_1515,MusicAffectPsychophysiology2019,3.0.5,59.90066708314032,
To what extent did the music make you feel ,ANGRY,30MonoWAV/30MonoH1.wav,2,2,1,5,,,,,1,14,30,4,0,4,4,2,,,,,,,,,1,0.8182585980030126,016,001,2019_May_09_1515,MusicAffectPsychophysiology2019,3.0.5,59.90066708314032,
To what extent did the music make you feel ,SCARED,30MonoWAV/30MonoH1.wav,2,2,1,5,,,,,1,14,30,4,0,5,5,11,,,,,,,,,1,0.9190452390030259,016,001,2019_May_09_1515,MusicAffectPsychophysiology2019,3.0.5,59.90066708314032,
To what extent did the music make you feel ,GUILTY,30MonoWAV/30MonoH1.wav,2,2,1,5,,,,,1,14,30,4,0,6,6,5,,,,,,,,,1,1.2523007550043985,016,001,2019_May_09_1515,MusicAffectPsychophysiology2019,3.0.5,59.90066708314032,
To what extent did the music make you feel ,ACTIVE,30MonoWAV/30MonoH1.wav,2,2,1,5,,,,,1,14,30,4,0,7,7,9,,,,,,,,,4,1.168126142998517,016,001,2019_May_09_1515,MusicAffectPsychophysiology2019,3.0.5,59.90066708314032,
To what extent did the music make you feel ,ALERT,30MonoWAV/30MonoH1.wav,2,2,1,5,,,,,1,14,30,4,0,8,8,8,,,,,,,,,1,0.9837501790025271,016,001,2019_May_09_1515,MusicAffectPsychophysiology2019,3.0.5,59.90066708314032,
To what extent did the music make you feel ,ANXIOUS ,30MonoWAV/30MonoH1.wav,2,2,1,5,,,,,1,14,30,4,0,9,9,1,,,,,,,,,1,1.0023318220046349,016,001,2019_May_09_1515,MusicAffectPsychophysiology2019,3.0.5,59.90066708314032,
To what extent did the music make you feel ,HAPPY,30MonoWAV/30MonoH1.wav,2,2,1,5,,,,,1,14,30,4,0,10,10,6,,,,,,,,,4,1.0853171150010894,016,001,2019_May_09_1515,MusicAffectPsychophysiology2019,3.0.5,59.90066708314032,
To what extent did the music make you feel ,FRUSTRATED,30MonoWAV/30MonoH1.wav,2,2,1,5,,,,,1,14,30,4,0,11,11,3,,,,,,,,,1,0.8345382110055652,016,001,2019_May_09_1515,MusicAffectPsychophysiology2019,3.0.5,59.90066708314032,
,,30MonoWAV/30MonoH1.wav,2,2,1,5,,,,,1,14,30,4,,,,,,,,,,,,,,,016,001,2019_May_09_1515,MusicAffectPsychophysiology2019,3.0.5,59.90066708314032,
To what extent did the music make you feel ,SCARED,30MonoWAV/30MonoT3.wav,2,1,4,15,,,,,1,15,31,14,0,0,0,11,,,1,2.42123376300151,3,1.5206804600020405,3,1.8561749539949233,1,1.1006451560024288,016,001,2019_May_09_1515,MusicAffectPsychophysiology2019,3.0.5,59.90066708314032,
To what extent did the music make you feel ,GUILTY,30MonoWAV/30MonoT3.wav,2,1,4,15,,,,,1,15,31,14,0,1,1,5,,,,,,,,,1,0.6357860790012637,016,001,2019_May_09_1515,MusicAffectPsychophysiology2019,3.0.5,59.90066708314032,
To what extent did the music make you feel ,SAD,30MonoWAV/30MonoT3.wav,2,1,4,15,,,,,1,15,31,14,0,2,2,0,,,,,,,,,1,0.5526461320041562,016,001,2019_May_09_1515,MusicAffectPsychophysiology2019,3.0.5,59.90066708314032,
To what extent did the music make you feel ,ANXIOUS ,30MonoWAV/30MonoT3.wav,2,1,4,15,,,,,1,15,31,14,0,3,3,1,,,,,,,,,1,3.1330529139959253,016,001,2019_May_09_1515,MusicAffectPsychophysiology2019,3.0.5,59.90066708314032,
To what extent did the music make you feel ,HAPPY,30MonoWAV/30MonoT3.wav,2,1,4,15,,,,,1,15,31,14,0,4,4,6,,,,,,,,,3,1.452133215003414,016,001,2019_May_09_1515,MusicAffectPsychophysiology2019,3.0.5,59.90066708314032,
To what extent did the music make you feel ,ACTIVE,30MonoWAV/30MonoT3.wav,2,1,4,15,,,,,1,15,31,14,0,5,5,9,,,,,,,,,1,1.2019694480040926,016,001,2019_May_09_1515,MusicAffectPsychophysiology2019,3.0.5,59.90066708314032,
To what extent did the music make you feel ,EXCITED,30MonoWAV/30MonoT3.wav,2,1,4,15,,,,,1,15,31,14,0,6,6,7,,,,,,,,,1,1.3014105359980022,016,001,2019_May_09_1515,MusicAffectPsychophysiology2019,3.0.5,59.90066708314032,
To what extent did the music make you feel ,ANGRY,30MonoWAV/30MonoT3.wav,2,1,4,15,,,,,1,15,31,14,0,7,7,2,,,,,,,,,1,0.88497417599865,016,001,2019_May_09_1515,MusicAffectPsychophysiology2019,3.0.5,59.90066708314032,
To what extent did the music make you feel ,ASHAMED,30MonoWAV/30MonoT3.wav,2,1,4,15,,,,,1,15,31,14,0,8,8,4,,,,,,,,,1,0.6688121449988103,016,001,2019_May_09_1515,MusicAffectPsychophysiology2019,3.0.5,59.90066708314032,
To what extent did the music make you feel ,TENDER,30MonoWAV/30MonoT3.wav,2,1,4,15,,,,,1,15,31,14,0,9,9,10,,,,,,,,,5,1.5020672440005,016,001,2019_May_09_1515,MusicAffectPsychophysiology2019,3.0.5,59.90066708314032,
To what extent did the music make you feel ,ALERT,30MonoWAV/30MonoT3.wav,2,1,4,15,,,,,1,15,31,14,0,10,10,8,,,,,,,,,1,1.351347016003274,016,001,2019_May_09_1515,MusicAffectPsychophysiology2019,3.0.5,59.90066708314032,
To what extent did the music make you feel ,FRUSTRATED,30MonoWAV/30MonoT3.wav,2,1,4,15,,,,,1,15,31,14,0,11,11,3,,,,,,,,,1,0.43586015699838754,016,001,2019_May_09_1515,MusicAffectPsychophysiology2019,3.0.5,59.90066708314032,
,,30MonoWAV/30MonoT3.wav,2,1,4,15,,,,,1,15,31,14,,,,,,,,,,,,,,,016,001,2019_May_09_1515,MusicAffectPsychophysiology2019,3.0.5,59.90066708314032,
