Instruction,Word,song,valence,arousal,affectcat,songmark,pracwords.thisRepN,pracwords.thisTrialN,pracwords.thisN,pracwords.thisIndex,songtrials.thisRepN,songtrials.thisTrialN,songtrials.thisN,songtrials.thisIndex,words.thisRepN,words.thisTrialN,words.thisN,words.thisIndex,begin.keys,begin.rt,arousalkey.keys,arousalkey.rt,valencekey.keys,valencekey.rt,likekey.keys,likekey.rt,WordResponse.keys,WordResponse.rt,key_resp_2.keys,key_resp_2.rt,participant,session,date,expName,psychopyVersion,frameRate,
,,,,,,,,,,,,,,,,,,,space,16.305260244000237,,,,,,,,,,,017,001,2019_May_09_1618,MusicAffectPsychophysiology2019,3.0.5,59.69909031747748,
,,,,,,,,,,,,,,,,,,,,,2,13.126339397000265,,,,,,,,,017,001,2019_May_09_1618,MusicAffectPsychophysiology2019,3.0.5,59.69909031747748,
,,,,,,,,,,,,,,,,,,,,,,,3,6.4168427670010715,,,,,,,017,001,2019_May_09_1618,MusicAffectPsychophysiology2019,3.0.5,59.69909031747748,
,,,,,,,,,,,,,,,,,,,,,,,,,3,4.955972711999493,,,,,017,001,2019_May_09_1618,MusicAffectPsychophysiology2019,3.0.5,59.69909031747748,
To what extent did the music make you feel ,SCARED,,,,,,0,0,0,11,,,,,,,,,,,,,,,,,1,4.947755909000989,,,017,001,2019_May_09_1618,MusicAffectPsychophysiology2019,3.0.5,59.69909031747748,
To what extent did the music make you feel ,ANGRY,,,,,,0,1,1,2,,,,,,,,,,,,,,,,,1,1.6679706550057745,,,017,001,2019_May_09_1618,MusicAffectPsychophysiology2019,3.0.5,59.69909031747748,
To what extent did the music make you feel ,SAD,,,,,,0,2,2,0,,,,,,,,,,,,,,,,,1,0.8510714619987994,,,017,001,2019_May_09_1618,MusicAffectPsychophysiology2019,3.0.5,59.69909031747748,
To what extent did the music make you feel ,HAPPY,,,,,,0,3,3,6,,,,,,,,,,,,,,,,,3,3.484995697006525,,,017,001,2019_May_09_1618,MusicAffectPsychophysiology2019,3.0.5,59.69909031747748,
To what extent did the music make you feel ,GUILTY,,,,,,0,4,4,5,,,,,,,,,,,,,,,,,1,2.7011039390054066,,,017,001,2019_May_09_1618,MusicAffectPsychophysiology2019,3.0.5,59.69909031747748,
To what extent did the music make you feel ,ACTIVE,,,,,,0,5,5,9,,,,,,,,,,,,,,,,,2,5.018601137002406,,,017,001,2019_May_09_1618,MusicAffectPsychophysiology2019,3.0.5,59.69909031747748,
To what extent did the music make you feel ,FRUSTRATED,,,,,,0,6,6,3,,,,,,,,,,,,,,,,,1,1.135359067004174,,,017,001,2019_May_09_1618,MusicAffectPsychophysiology2019,3.0.5,59.69909031747748,
To what extent did the music make you feel ,EXCITED,,,,,,0,7,7,7,,,,,,,,,,,,,,,,,3,2.151664447999792,,,017,001,2019_May_09_1618,MusicAffectPsychophysiology2019,3.0.5,59.69909031747748,
To what extent did the music make you feel ,TENDER,,,,,,0,8,8,10,,,,,,,,,,,,,,,,,4,1.4516892780011403,,,017,001,2019_May_09_1618,MusicAffectPsychophysiology2019,3.0.5,59.69909031747748,
To what extent did the music make you feel ,ANXIOUS ,,,,,,0,9,9,1,,,,,,,,,,,,,,,,,2,1.7523228599966387,,,017,001,2019_May_09_1618,MusicAffectPsychophysiology2019,3.0.5,59.69909031747748,
To what extent did the music make you feel ,ASHAMED,,,,,,0,10,10,4,,,,,,,,,,,,,,,,,1,1.1021101110018208,,,017,001,2019_May_09_1618,MusicAffectPsychophysiology2019,3.0.5,59.69909031747748,
To what extent did the music make you feel ,ALERT,,,,,,0,11,11,8,,,,,,,,,,,,,,,,,2,2.623924621999322,,,017,001,2019_May_09_1618,MusicAffectPsychophysiology2019,3.0.5,59.69909031747748,
To what extent did the music make you feel ,ACTIVE,30MonoWAV/30MonoT3.wav,2,1,4,15,,,,,0,0,0,14,0,0,0,9,,,1,7.766106379000121,2,3.2845860559973517,2,4.100358165997022,1,3.5357829700005823,,,017,001,2019_May_09_1618,MusicAffectPsychophysiology2019,3.0.5,59.69909031747748,
To what extent did the music make you feel ,TENDER,30MonoWAV/30MonoT3.wav,2,1,4,15,,,,,0,0,0,14,0,1,1,10,,,,,,,,,2,1.9341141209952184,,,017,001,2019_May_09_1618,MusicAffectPsychophysiology2019,3.0.5,59.69909031747748,
To what extent did the music make you feel ,ANXIOUS ,30MonoWAV/30MonoT3.wav,2,1,4,15,,,,,0,0,0,14,0,2,2,1,,,,,,,,,2,1.2671169250024832,,,017,001,2019_May_09_1618,MusicAffectPsychophysiology2019,3.0.5,59.69909031747748,
To what extent did the music make you feel ,SCARED,30MonoWAV/30MonoT3.wav,2,1,4,15,,,,,0,0,0,14,0,3,3,11,,,,,,,,,2,3.0030328770008055,,,017,001,2019_May_09_1618,MusicAffectPsychophysiology2019,3.0.5,59.69909031747748,
To what extent did the music make you feel ,EXCITED,30MonoWAV/30MonoT3.wav,2,1,4,15,,,,,0,0,0,14,0,4,4,7,,,,,,,,,1,1.3007584110018797,,,017,001,2019_May_09_1618,MusicAffectPsychophysiology2019,3.0.5,59.69909031747748,
To what extent did the music make you feel ,ANGRY,30MonoWAV/30MonoT3.wav,2,1,4,15,,,,,0,0,0,14,0,5,5,2,,,,,,,,,1,0.9682406440042541,,,017,001,2019_May_09_1618,MusicAffectPsychophysiology2019,3.0.5,59.69909031747748,
To what extent did the music make you feel ,ASHAMED,30MonoWAV/30MonoT3.wav,2,1,4,15,,,,,0,0,0,14,0,6,6,4,,,,,,,,,1,0.6677915980035323,,,017,001,2019_May_09_1618,MusicAffectPsychophysiology2019,3.0.5,59.69909031747748,
To what extent did the music make you feel ,HAPPY,30MonoWAV/30MonoT3.wav,2,1,4,15,,,,,0,0,0,14,0,7,7,6,,,,,,,,,1,1.3849627220042748,,,017,001,2019_May_09_1618,MusicAffectPsychophysiology2019,3.0.5,59.69909031747748,
To what extent did the music make you feel ,GUILTY,30MonoWAV/30MonoT3.wav,2,1,4,15,,,,,0,0,0,14,0,8,8,5,,,,,,,,,1,1.2509761319961399,,,017,001,2019_May_09_1618,MusicAffectPsychophysiology2019,3.0.5,59.69909031747748,
To what extent did the music make you feel ,ALERT,30MonoWAV/30MonoT3.wav,2,1,4,15,,,,,0,0,0,14,0,9,9,8,,,,,,,,,2,1.3518301410003914,,,017,001,2019_May_09_1618,MusicAffectPsychophysiology2019,3.0.5,59.69909031747748,
To what extent did the music make you feel ,SAD,30MonoWAV/30MonoT3.wav,2,1,4,15,,,,,0,0,0,14,0,10,10,0,,,,,,,,,2,3.117780746004428,,,017,001,2019_May_09_1618,MusicAffectPsychophysiology2019,3.0.5,59.69909031747748,
To what extent did the music make you feel ,FRUSTRATED,30MonoWAV/30MonoT3.wav,2,1,4,15,,,,,0,0,0,14,0,11,11,3,,,,,,,,,1,1.219756006001262,,,017,001,2019_May_09_1618,MusicAffectPsychophysiology2019,3.0.5,59.69909031747748,
,,30MonoWAV/30MonoT3.wav,2,1,4,15,,,,,0,0,0,14,,,,,,,,,,,,,,,,,017,001,2019_May_09_1618,MusicAffectPsychophysiology2019,3.0.5,59.69909031747748,
To what extent did the music make you feel ,ALERT,30MonoWAV/30MonoF1.wav,1,2,2,1,,,,,0,1,1,0,0,0,0,8,,,3,6.084629597004096,2,6.817722894003964,3,2.0677800699995714,5,5.801030429000093,,,017,001,2019_May_09_1618,MusicAffectPsychophysiology2019,3.0.5,59.69909031747748,
To what extent did the music make you feel ,FRUSTRATED,30MonoWAV/30MonoF1.wav,1,2,2,1,,,,,0,1,1,0,0,1,1,3,,,,,,,,,1,2.0843389330038917,,,017,001,2019_May_09_1618,MusicAffectPsychophysiology2019,3.0.5,59.69909031747748,
To what extent did the music make you feel ,GUILTY,30MonoWAV/30MonoF1.wav,1,2,2,1,,,,,0,1,1,0,0,2,2,5,,,,,,,,,2,3.102202354995825,,,017,001,2019_May_09_1618,MusicAffectPsychophysiology2019,3.0.5,59.69909031747748,
To what extent did the music make you feel ,EXCITED,30MonoWAV/30MonoF1.wav,1,2,2,1,,,,,0,1,1,0,0,3,3,7,,,,,,,,,4,2.3339561160028097,,,017,001,2019_May_09_1618,MusicAffectPsychophysiology2019,3.0.5,59.69909031747748,
To what extent did the music make you feel ,ASHAMED,30MonoWAV/30MonoF1.wav,1,2,2,1,,,,,0,1,1,0,0,4,4,4,,,,,,,,,1,1.4344129609962692,,,017,001,2019_May_09_1618,MusicAffectPsychophysiology2019,3.0.5,59.69909031747748,
To what extent did the music make you feel ,ACTIVE,30MonoWAV/30MonoF1.wav,1,2,2,1,,,,,0,1,1,0,0,5,5,9,,,,,,,,,4,1.7341514299987466,,,017,001,2019_May_09_1618,MusicAffectPsychophysiology2019,3.0.5,59.69909031747748,
To what extent did the music make you feel ,ANGRY,30MonoWAV/30MonoF1.wav,1,2,2,1,,,,,0,1,1,0,0,6,6,2,,,,,,,,,1,1.3682020449996344,,,017,001,2019_May_09_1618,MusicAffectPsychophysiology2019,3.0.5,59.69909031747748,
To what extent did the music make you feel ,TENDER,30MonoWAV/30MonoF1.wav,1,2,2,1,,,,,0,1,1,0,0,7,7,10,,,,,,,,,1,3.0004680290003307,,,017,001,2019_May_09_1618,MusicAffectPsychophysiology2019,3.0.5,59.69909031747748,
To what extent did the music make you feel ,SCARED,30MonoWAV/30MonoF1.wav,1,2,2,1,,,,,0,1,1,0,0,8,8,11,,,,,,,,,3,1.836322470997402,,,017,001,2019_May_09_1618,MusicAffectPsychophysiology2019,3.0.5,59.69909031747748,
To what extent did the music make you feel ,SAD,30MonoWAV/30MonoF1.wav,1,2,2,1,,,,,0,1,1,0,0,9,9,0,,,,,,,,,1,1.3856260970060248,,,017,001,2019_May_09_1618,MusicAffectPsychophysiology2019,3.0.5,59.69909031747748,
To what extent did the music make you feel ,ANXIOUS ,30MonoWAV/30MonoF1.wav,1,2,2,1,,,,,0,1,1,0,0,10,10,1,,,,,,,,,4,1.4191938920048415,,,017,001,2019_May_09_1618,MusicAffectPsychophysiology2019,3.0.5,59.69909031747748,
To what extent did the music make you feel ,HAPPY,30MonoWAV/30MonoF1.wav,1,2,2,1,,,,,0,1,1,0,0,11,11,6,,,,,,,,,1,1.1684648820009897,,,017,001,2019_May_09_1618,MusicAffectPsychophysiology2019,3.0.5,59.69909031747748,
,,30MonoWAV/30MonoF1.wav,1,2,2,1,,,,,0,1,1,0,,,,,,,,,,,,,,,,,017,001,2019_May_09_1618,MusicAffectPsychophysiology2019,3.0.5,59.69909031747748,
To what extent did the music make you feel ,GUILTY,30MonoWAV/30MonoH4.wav,2,2,1,8,,,,,0,2,2,7,0,0,0,5,,,4,3.718054345001292,4,2.2017837449966464,3,3.1393999939973583,1,1.0703100280006765,,,017,001,2019_May_09_1618,MusicAffectPsychophysiology2019,3.0.5,59.69909031747748,
To what extent did the music make you feel ,ALERT,30MonoWAV/30MonoH4.wav,2,2,1,8,,,,,0,2,2,7,0,1,1,8,,,,,,,,,2,1.7705377439997392,,,017,001,2019_May_09_1618,MusicAffectPsychophysiology2019,3.0.5,59.69909031747748,
To what extent did the music make you feel ,ANGRY,30MonoWAV/30MonoH4.wav,2,2,1,8,,,,,0,2,2,7,0,2,2,2,,,,,,,,,1,0.5690891949998331,,,017,001,2019_May_09_1618,MusicAffectPsychophysiology2019,3.0.5,59.69909031747748,
To what extent did the music make you feel ,ACTIVE,30MonoWAV/30MonoH4.wav,2,2,1,8,,,,,0,2,2,7,0,3,3,9,,,,,,,,,4,2.2701178349961992,,,017,001,2019_May_09_1618,MusicAffectPsychophysiology2019,3.0.5,59.69909031747748,
To what extent did the music make you feel ,ASHAMED,30MonoWAV/30MonoH4.wav,2,2,1,8,,,,,0,2,2,7,0,4,4,4,,,,,,,,,1,0.9056696639963775,,,017,001,2019_May_09_1618,MusicAffectPsychophysiology2019,3.0.5,59.69909031747748,
To what extent did the music make you feel ,TENDER,30MonoWAV/30MonoH4.wav,2,2,1,8,,,,,0,2,2,7,0,5,5,10,,,,,,,,,2,0.7511343029982527,,,017,001,2019_May_09_1618,MusicAffectPsychophysiology2019,3.0.5,59.69909031747748,
To what extent did the music make you feel ,HAPPY,30MonoWAV/30MonoH4.wav,2,2,1,8,,,,,0,2,2,7,0,6,6,6,,,,,,,,,3,1.6344341239964706,,,017,001,2019_May_09_1618,MusicAffectPsychophysiology2019,3.0.5,59.69909031747748,
To what extent did the music make you feel ,SAD,30MonoWAV/30MonoH4.wav,2,2,1,8,,,,,0,2,2,7,0,7,7,0,,,,,,,,,1,1.0367165290008415,,,017,001,2019_May_09_1618,MusicAffectPsychophysiology2019,3.0.5,59.69909031747748,
To what extent did the music make you feel ,ANXIOUS ,30MonoWAV/30MonoH4.wav,2,2,1,8,,,,,0,2,2,7,0,8,8,1,,,,,,,,,2,1.0856887190020643,,,017,001,2019_May_09_1618,MusicAffectPsychophysiology2019,3.0.5,59.69909031747748,
To what extent did the music make you feel ,EXCITED,30MonoWAV/30MonoH4.wav,2,2,1,8,,,,,0,2,2,7,0,9,9,7,,,,,,,,,4,1.2018044970027404,,,017,001,2019_May_09_1618,MusicAffectPsychophysiology2019,3.0.5,59.69909031747748,
To what extent did the music make you feel ,SCARED,30MonoWAV/30MonoH4.wav,2,2,1,8,,,,,0,2,2,7,0,10,10,11,,,,,,,,,1,1.2348923479949008,,,017,001,2019_May_09_1618,MusicAffectPsychophysiology2019,3.0.5,59.69909031747748,
To what extent did the music make you feel ,FRUSTRATED,30MonoWAV/30MonoH4.wav,2,2,1,8,,,,,0,2,2,7,0,11,11,3,,,,,,,,,1,0.7511574749951251,,,017,001,2019_May_09_1618,MusicAffectPsychophysiology2019,3.0.5,59.69909031747748,
,,30MonoWAV/30MonoH4.wav,2,2,1,8,,,,,0,2,2,7,,,,,,,,,,,,,,,,,017,001,2019_May_09_1618,MusicAffectPsychophysiology2019,3.0.5,59.69909031747748,
To what extent did the music make you feel ,ALERT,30MonoWAV/30MonoH3.wav,2,2,1,7,,,,,0,3,3,6,0,0,0,8,,,3,4.340714293000929,3,2.7525568319979357,2,1.8515872780044447,4,5.350918096999521,,,017,001,2019_May_09_1618,MusicAffectPsychophysiology2019,3.0.5,59.69909031747748,
To what extent did the music make you feel ,FRUSTRATED,30MonoWAV/30MonoH3.wav,2,2,1,7,,,,,0,3,3,6,0,1,1,3,,,,,,,,,1,0.7345858289991156,,,017,001,2019_May_09_1618,MusicAffectPsychophysiology2019,3.0.5,59.69909031747748,
To what extent did the music make you feel ,TENDER,30MonoWAV/30MonoH3.wav,2,2,1,7,,,,,0,3,3,6,0,2,2,10,,,,,,,,,4,1.1348121580012958,,,017,001,2019_May_09_1618,MusicAffectPsychophysiology2019,3.0.5,59.69909031747748,
To what extent did the music make you feel ,EXCITED,30MonoWAV/30MonoH3.wav,2,2,1,7,,,,,0,3,3,6,0,3,3,7,,,,,,,,,4,1.1186221370007843,,,017,001,2019_May_09_1618,MusicAffectPsychophysiology2019,3.0.5,59.69909031747748,
To what extent did the music make you feel ,HAPPY,30MonoWAV/30MonoH3.wav,2,2,1,7,,,,,0,3,3,6,0,4,4,6,,,,,,,,,4,0.7691780850000214,,,017,001,2019_May_09_1618,MusicAffectPsychophysiology2019,3.0.5,59.69909031747748,
To what extent did the music make you feel ,ACTIVE,30MonoWAV/30MonoH3.wav,2,2,1,7,,,,,0,3,3,6,0,5,5,9,,,,,,,,,4,0.7855475049946108,,,017,001,2019_May_09_1618,MusicAffectPsychophysiology2019,3.0.5,59.69909031747748,
To what extent did the music make you feel ,ANXIOUS ,30MonoWAV/30MonoH3.wav,2,2,1,7,,,,,0,3,3,6,0,6,6,1,,,,,,,,,1,0.8516529000044102,,,017,001,2019_May_09_1618,MusicAffectPsychophysiology2019,3.0.5,59.69909031747748,
To what extent did the music make you feel ,GUILTY,30MonoWAV/30MonoH3.wav,2,2,1,7,,,,,0,3,3,6,0,7,7,5,,,,,,,,,1,0.8352477480002563,,,017,001,2019_May_09_1618,MusicAffectPsychophysiology2019,3.0.5,59.69909031747748,
To what extent did the music make you feel ,ASHAMED,30MonoWAV/30MonoH3.wav,2,2,1,7,,,,,0,3,3,6,0,8,8,4,,,,,,,,,1,0.8352756110034534,,,017,001,2019_May_09_1618,MusicAffectPsychophysiology2019,3.0.5,59.69909031747748,
To what extent did the music make you feel ,ANGRY,30MonoWAV/30MonoH3.wav,2,2,1,7,,,,,0,3,3,6,0,9,9,2,,,,,,,,,1,0.9521635409982991,,,017,001,2019_May_09_1618,MusicAffectPsychophysiology2019,3.0.5,59.69909031747748,
To what extent did the music make you feel ,SAD,30MonoWAV/30MonoH3.wav,2,2,1,7,,,,,0,3,3,6,0,10,10,0,,,,,,,,,1,0.6013910779947764,,,017,001,2019_May_09_1618,MusicAffectPsychophysiology2019,3.0.5,59.69909031747748,
To what extent did the music make you feel ,SCARED,30MonoWAV/30MonoH3.wav,2,2,1,7,,,,,0,3,3,6,0,11,11,11,,,,,,,,,1,0.5678099989963812,,,017,001,2019_May_09_1618,MusicAffectPsychophysiology2019,3.0.5,59.69909031747748,
,,30MonoWAV/30MonoH3.wav,2,2,1,7,,,,,0,3,3,6,,,,,,,,,,,,,,,,,017,001,2019_May_09_1618,MusicAffectPsychophysiology2019,3.0.5,59.69909031747748,
To what extent did the music make you feel ,SAD,30MonoWAV/30MonoS4.wav,1,1,3,12,,,,,0,4,4,11,0,0,0,0,,,1,5.2897933019994525,1,2.817777201998979,2,2.068437529997027,4,3.516492456998094,,,017,001,2019_May_09_1618,MusicAffectPsychophysiology2019,3.0.5,59.69909031747748,
To what extent did the music make you feel ,SCARED,30MonoWAV/30MonoS4.wav,1,1,3,12,,,,,0,4,4,11,0,1,1,11,,,,,,,,,2,1.9007090560044162,,,017,001,2019_May_09_1618,MusicAffectPsychophysiology2019,3.0.5,59.69909031747748,
To what extent did the music make you feel ,GUILTY,30MonoWAV/30MonoS4.wav,1,1,3,12,,,,,0,4,4,11,0,2,2,5,,,,,,,,,1,0.8516254450005363,,,017,001,2019_May_09_1618,MusicAffectPsychophysiology2019,3.0.5,59.69909031747748,
To what extent did the music make you feel ,EXCITED,30MonoWAV/30MonoS4.wav,1,1,3,12,,,,,0,4,4,11,0,3,3,7,,,,,,,,,1,0.9512064760056091,,,017,001,2019_May_09_1618,MusicAffectPsychophysiology2019,3.0.5,59.69909031747748,
To what extent did the music make you feel ,ANGRY,30MonoWAV/30MonoS4.wav,1,1,3,12,,,,,0,4,4,11,0,4,4,2,,,,,,,,,1,1.5028290580012253,,,017,001,2019_May_09_1618,MusicAffectPsychophysiology2019,3.0.5,59.69909031747748,
To what extent did the music make you feel ,HAPPY,30MonoWAV/30MonoS4.wav,1,1,3,12,,,,,0,4,4,11,0,5,5,6,,,,,,,,,1,1.0011554020020412,,,017,001,2019_May_09_1618,MusicAffectPsychophysiology2019,3.0.5,59.69909031747748,
To what extent did the music make you feel ,TENDER,30MonoWAV/30MonoS4.wav,1,1,3,12,,,,,0,4,4,11,0,6,6,10,,,,,,,,,2,1.9176205529947765,,,017,001,2019_May_09_1618,MusicAffectPsychophysiology2019,3.0.5,59.69909031747748,
To what extent did the music make you feel ,ACTIVE,30MonoWAV/30MonoS4.wav,1,1,3,12,,,,,0,4,4,11,0,7,7,9,,,,,,,,,1,1.41810298999917,,,017,001,2019_May_09_1618,MusicAffectPsychophysiology2019,3.0.5,59.69909031747748,
To what extent did the music make you feel ,ASHAMED,30MonoWAV/30MonoS4.wav,1,1,3,12,,,,,0,4,4,11,0,8,8,4,,,,,,,,,1,1.234573387002456,,,017,001,2019_May_09_1618,MusicAffectPsychophysiology2019,3.0.5,59.69909031747748,
To what extent did the music make you feel ,ANXIOUS ,30MonoWAV/30MonoS4.wav,1,1,3,12,,,,,0,4,4,11,0,9,9,1,,,,,,,,,2,1.7503395749954507,,,017,001,2019_May_09_1618,MusicAffectPsychophysiology2019,3.0.5,59.69909031747748,
To what extent did the music make you feel ,ALERT,30MonoWAV/30MonoS4.wav,1,1,3,12,,,,,0,4,4,11,0,10,10,8,,,,,,,,,2,2.1185508630005643,,,017,001,2019_May_09_1618,MusicAffectPsychophysiology2019,3.0.5,59.69909031747748,
To what extent did the music make you feel ,FRUSTRATED,30MonoWAV/30MonoS4.wav,1,1,3,12,,,,,0,4,4,11,0,11,11,3,,,,,,,,,1,1.0524928800005,,,017,001,2019_May_09_1618,MusicAffectPsychophysiology2019,3.0.5,59.69909031747748,
,,30MonoWAV/30MonoS4.wav,1,1,3,12,,,,,0,4,4,11,,,,,,,,,,,,,,,,,017,001,2019_May_09_1618,MusicAffectPsychophysiology2019,3.0.5,59.69909031747748,
To what extent did the music make you feel ,TENDER,30MonoWAV/30MonoF4.wav,1,2,2,4,,,,,0,5,5,3,0,0,0,10,,,3,5.485120445002394,2,2.4682585109985666,2,1.7012869399986812,1,2.751634541004023,,,017,001,2019_May_09_1618,MusicAffectPsychophysiology2019,3.0.5,59.69909031747748,
To what extent did the music make you feel ,ANGRY,30MonoWAV/30MonoF4.wav,1,2,2,4,,,,,0,5,5,3,0,1,1,2,,,,,,,,,1,0.968823497001722,,,017,001,2019_May_09_1618,MusicAffectPsychophysiology2019,3.0.5,59.69909031747748,
To what extent did the music make you feel ,ASHAMED,30MonoWAV/30MonoF4.wav,1,2,2,4,,,,,0,5,5,3,0,2,2,4,,,,,,,,,1,0.685106529002951,,,017,001,2019_May_09_1618,MusicAffectPsychophysiology2019,3.0.5,59.69909031747748,
To what extent did the music make you feel ,SAD,30MonoWAV/30MonoF4.wav,1,2,2,4,,,,,0,5,5,3,0,3,3,0,,,,,,,,,1,0.8516633809995255,,,017,001,2019_May_09_1618,MusicAffectPsychophysiology2019,3.0.5,59.69909031747748,
To what extent did the music make you feel ,GUILTY,30MonoWAV/30MonoF4.wav,1,2,2,4,,,,,0,5,5,3,0,4,4,5,,,,,,,,,2,1.2514473500050372,,,017,001,2019_May_09_1618,MusicAffectPsychophysiology2019,3.0.5,59.69909031747748,
To what extent did the music make you feel ,EXCITED,30MonoWAV/30MonoF4.wav,1,2,2,4,,,,,0,5,5,3,0,5,5,7,,,,,,,,,3,2.2188875879946863,,,017,001,2019_May_09_1618,MusicAffectPsychophysiology2019,3.0.5,59.69909031747748,
To what extent did the music make you feel ,SCARED,30MonoWAV/30MonoF4.wav,1,2,2,4,,,,,0,5,5,3,0,6,6,11,,,,,,,,,2,1.9504621359956218,,,017,001,2019_May_09_1618,MusicAffectPsychophysiology2019,3.0.5,59.69909031747748,
To what extent did the music make you feel ,ALERT,30MonoWAV/30MonoF4.wav,1,2,2,4,,,,,0,5,5,3,0,7,7,8,,,,,,,,,4,1.599482908997743,,,017,001,2019_May_09_1618,MusicAffectPsychophysiology2019,3.0.5,59.69909031747748,
To what extent did the music make you feel ,ANXIOUS ,30MonoWAV/30MonoF4.wav,1,2,2,4,,,,,0,5,5,3,0,8,8,1,,,,,,,,,5,1.5691308899986325,,,017,001,2019_May_09_1618,MusicAffectPsychophysiology2019,3.0.5,59.69909031747748,
To what extent did the music make you feel ,FRUSTRATED,30MonoWAV/30MonoF4.wav,1,2,2,4,,,,,0,5,5,3,0,9,9,3,,,,,,,,,2,1.5016623639967293,,,017,001,2019_May_09_1618,MusicAffectPsychophysiology2019,3.0.5,59.69909031747748,
To what extent did the music make you feel ,HAPPY,30MonoWAV/30MonoF4.wav,1,2,2,4,,,,,0,5,5,3,0,10,10,6,,,,,,,,,1,1.1349146659995313,,,017,001,2019_May_09_1618,MusicAffectPsychophysiology2019,3.0.5,59.69909031747748,
To what extent did the music make you feel ,ACTIVE,30MonoWAV/30MonoF4.wav,1,2,2,4,,,,,0,5,5,3,0,11,11,9,,,,,,,,,3,1.5026545229993644,,,017,001,2019_May_09_1618,MusicAffectPsychophysiology2019,3.0.5,59.69909031747748,
,,30MonoWAV/30MonoF4.wav,1,2,2,4,,,,,0,5,5,3,,,,,,,,,,,,,,,,,017,001,2019_May_09_1618,MusicAffectPsychophysiology2019,3.0.5,59.69909031747748,
To what extent did the music make you feel ,SAD,30MonoWAV/30MonoT1.wav,2,1,4,13,,,,,0,6,6,12,0,0,0,0,,,1,2.735503684001742,2,3.2347123810031917,2,1.7524450850032736,4,2.8347539870010223,,,017,001,2019_May_09_1618,MusicAffectPsychophysiology2019,3.0.5,59.69909031747748,
To what extent did the music make you feel ,TENDER,30MonoWAV/30MonoT1.wav,2,1,4,13,,,,,0,6,6,12,0,1,1,10,,,,,,,,,2,1.0186515250024968,,,017,001,2019_May_09_1618,MusicAffectPsychophysiology2019,3.0.5,59.69909031747748,
To what extent did the music make you feel ,EXCITED,30MonoWAV/30MonoT1.wav,2,1,4,13,,,,,0,6,6,12,0,2,2,7,,,,,,,,,1,0.9000077289965702,,,017,001,2019_May_09_1618,MusicAffectPsychophysiology2019,3.0.5,59.69909031747748,
To what extent did the music make you feel ,ACTIVE,30MonoWAV/30MonoT1.wav,2,1,4,13,,,,,0,6,6,12,0,3,3,9,,,,,,,,,1,1.0514561100062565,,,017,001,2019_May_09_1618,MusicAffectPsychophysiology2019,3.0.5,59.69909031747748,
To what extent did the music make you feel ,HAPPY,30MonoWAV/30MonoT1.wav,2,1,4,13,,,,,0,6,6,12,0,4,4,6,,,,,,,,,1,1.1518609799968544,,,017,001,2019_May_09_1618,MusicAffectPsychophysiology2019,3.0.5,59.69909031747748,
To what extent did the music make you feel ,ALERT,30MonoWAV/30MonoT1.wav,2,1,4,13,,,,,0,6,6,12,0,5,5,8,,,,,,,,,2,0.9183745140035171,,,017,001,2019_May_09_1618,MusicAffectPsychophysiology2019,3.0.5,59.69909031747748,
To what extent did the music make you feel ,SCARED,30MonoWAV/30MonoT1.wav,2,1,4,13,,,,,0,6,6,12,0,6,6,11,,,,,,,,,1,0.918829869995534,,,017,001,2019_May_09_1618,MusicAffectPsychophysiology2019,3.0.5,59.69909031747748,
To what extent did the music make you feel ,ANGRY,30MonoWAV/30MonoT1.wav,2,1,4,13,,,,,0,6,6,12,0,7,7,2,,,,,,,,,1,0.9511165830044774,,,017,001,2019_May_09_1618,MusicAffectPsychophysiology2019,3.0.5,59.69909031747748,
To what extent did the music make you feel ,FRUSTRATED,30MonoWAV/30MonoT1.wav,2,1,4,13,,,,,0,6,6,12,0,8,8,3,,,,,,,,,1,1.0843590419972315,,,017,001,2019_May_09_1618,MusicAffectPsychophysiology2019,3.0.5,59.69909031747748,
To what extent did the music make you feel ,GUILTY,30MonoWAV/30MonoT1.wav,2,1,4,13,,,,,0,6,6,12,0,9,9,5,,,,,,,,,1,0.5844901300006313,,,017,001,2019_May_09_1618,MusicAffectPsychophysiology2019,3.0.5,59.69909031747748,
To what extent did the music make you feel ,ASHAMED,30MonoWAV/30MonoT1.wav,2,1,4,13,,,,,0,6,6,12,0,10,10,4,,,,,,,,,1,0.5002967569962493,,,017,001,2019_May_09_1618,MusicAffectPsychophysiology2019,3.0.5,59.69909031747748,
To what extent did the music make you feel ,ANXIOUS ,30MonoWAV/30MonoT1.wav,2,1,4,13,,,,,0,6,6,12,0,11,11,1,,,,,,,,,1,0.6866217130009318,,,017,001,2019_May_09_1618,MusicAffectPsychophysiology2019,3.0.5,59.69909031747748,
,,30MonoWAV/30MonoT1.wav,2,1,4,13,,,,,0,6,6,12,,,,,,,,,,,,,,,,,017,001,2019_May_09_1618,MusicAffectPsychophysiology2019,3.0.5,59.69909031747748,
To what extent did the music make you feel ,EXCITED,30MonoWAV/30MonoT4.wav,2,1,4,16,,,,,0,7,7,15,0,0,0,7,,,2,11.950494370001252,2,1.1351635259998147,1,2.718546074000187,1,12.767427865997888,,,017,001,2019_May_09_1618,MusicAffectPsychophysiology2019,3.0.5,59.69909031747748,
To what extent did the music make you feel ,TENDER,30MonoWAV/30MonoT4.wav,2,1,4,16,,,,,0,7,7,15,0,1,1,10,,,,,,,,,1,0.9026739230030216,,,017,001,2019_May_09_1618,MusicAffectPsychophysiology2019,3.0.5,59.69909031747748,
To what extent did the music make you feel ,ANXIOUS ,30MonoWAV/30MonoT4.wav,2,1,4,16,,,,,0,7,7,15,0,2,2,1,,,,,,,,,3,1.768209971000033,,,017,001,2019_May_09_1618,MusicAffectPsychophysiology2019,3.0.5,59.69909031747748,
To what extent did the music make you feel ,GUILTY,30MonoWAV/30MonoT4.wav,2,1,4,16,,,,,0,7,7,15,0,3,3,5,,,,,,,,,1,1.5180766180055798,,,017,001,2019_May_09_1618,MusicAffectPsychophysiology2019,3.0.5,59.69909031747748,
To what extent did the music make you feel ,FRUSTRATED,30MonoWAV/30MonoT4.wav,2,1,4,16,,,,,0,7,7,15,0,4,4,3,,,,,,,,,2,1.36696366299293,,,017,001,2019_May_09_1618,MusicAffectPsychophysiology2019,3.0.5,59.69909031747748,
To what extent did the music make you feel ,ASHAMED,30MonoWAV/30MonoT4.wav,2,1,4,16,,,,,0,7,7,15,0,5,5,4,,,,,,,,,3,1.619305483000062,,,017,001,2019_May_09_1618,MusicAffectPsychophysiology2019,3.0.5,59.69909031747748,
To what extent did the music make you feel ,ALERT,30MonoWAV/30MonoT4.wav,2,1,4,16,,,,,0,7,7,15,0,6,6,8,,,,,,,,,1,1.001603922995855,,,017,001,2019_May_09_1618,MusicAffectPsychophysiology2019,3.0.5,59.69909031747748,
To what extent did the music make you feel ,SAD,30MonoWAV/30MonoT4.wav,2,1,4,16,,,,,0,7,7,15,0,7,7,0,,,,,,,,,2,0.8362459010022576,,,017,001,2019_May_09_1618,MusicAffectPsychophysiology2019,3.0.5,59.69909031747748,
To what extent did the music make you feel ,HAPPY,30MonoWAV/30MonoT4.wav,2,1,4,16,,,,,0,7,7,15,0,8,8,6,,,,,,,,,1,1.069016584995552,,,017,001,2019_May_09_1618,MusicAffectPsychophysiology2019,3.0.5,59.69909031747748,
To what extent did the music make you feel ,ACTIVE,30MonoWAV/30MonoT4.wav,2,1,4,16,,,,,0,7,7,15,0,9,9,9,,,,,,,,,3,0.8350782499983325,,,017,001,2019_May_09_1618,MusicAffectPsychophysiology2019,3.0.5,59.69909031747748,
To what extent did the music make you feel ,ANGRY,30MonoWAV/30MonoT4.wav,2,1,4,16,,,,,0,7,7,15,0,10,10,2,,,,,,,,,1,1.8906652880032198,,,017,001,2019_May_09_1618,MusicAffectPsychophysiology2019,3.0.5,59.69909031747748,
To what extent did the music make you feel ,SCARED,30MonoWAV/30MonoT4.wav,2,1,4,16,,,,,0,7,7,15,0,11,11,11,,,,,,,,,1,0.8863476709957467,,,017,001,2019_May_09_1618,MusicAffectPsychophysiology2019,3.0.5,59.69909031747748,
,,30MonoWAV/30MonoT4.wav,2,1,4,16,,,,,0,7,7,15,,,,,,,,,,,,,,,,,017,001,2019_May_09_1618,MusicAffectPsychophysiology2019,3.0.5,59.69909031747748,
To what extent did the music make you feel ,FRUSTRATED,30MonoWAV/30MonoS2.wav,1,1,3,10,,,,,0,8,8,9,0,0,0,3,,,1,3.9841540640045423,2,2.502410991997749,2,2.568349785004102,1,1.1618895870051347,,,017,001,2019_May_09_1618,MusicAffectPsychophysiology2019,3.0.5,59.69909031747748,
To what extent did the music make you feel ,EXCITED,30MonoWAV/30MonoS2.wav,1,1,3,10,,,,,0,8,8,9,0,1,1,7,,,,,,,,,1,0.6017841119974037,,,017,001,2019_May_09_1618,MusicAffectPsychophysiology2019,3.0.5,59.69909031747748,
To what extent did the music make you feel ,ANGRY,30MonoWAV/30MonoS2.wav,1,1,3,10,,,,,0,8,8,9,0,2,2,2,,,,,,,,,1,0.5844201599975349,,,017,001,2019_May_09_1618,MusicAffectPsychophysiology2019,3.0.5,59.69909031747748,
To what extent did the music make you feel ,TENDER,30MonoWAV/30MonoS2.wav,1,1,3,10,,,,,0,8,8,9,0,3,3,10,,,,,,,,,2,0.7352834659977816,,,017,001,2019_May_09_1618,MusicAffectPsychophysiology2019,3.0.5,59.69909031747748,
To what extent did the music make you feel ,ACTIVE,30MonoWAV/30MonoS2.wav,1,1,3,10,,,,,0,8,8,9,0,4,4,9,,,,,,,,,1,0.7519221079928684,,,017,001,2019_May_09_1618,MusicAffectPsychophysiology2019,3.0.5,59.69909031747748,
To what extent did the music make you feel ,SAD,30MonoWAV/30MonoS2.wav,1,1,3,10,,,,,0,8,8,9,0,5,5,0,,,,,,,,,2,0.7355482269995264,,,017,001,2019_May_09_1618,MusicAffectPsychophysiology2019,3.0.5,59.69909031747748,
To what extent did the music make you feel ,SCARED,30MonoWAV/30MonoS2.wav,1,1,3,10,,,,,0,8,8,9,0,6,6,11,,,,,,,,,3,1.2355998620041646,,,017,001,2019_May_09_1618,MusicAffectPsychophysiology2019,3.0.5,59.69909031747748,
To what extent did the music make you feel ,HAPPY,30MonoWAV/30MonoS2.wav,1,1,3,10,,,,,0,8,8,9,0,7,7,6,,,,,,,,,1,0.8342814670031657,,,017,001,2019_May_09_1618,MusicAffectPsychophysiology2019,3.0.5,59.69909031747748,
To what extent did the music make you feel ,ASHAMED,30MonoWAV/30MonoS2.wav,1,1,3,10,,,,,0,8,8,9,0,8,8,4,,,,,,,,,2,0.8009940479969373,,,017,001,2019_May_09_1618,MusicAffectPsychophysiology2019,3.0.5,59.69909031747748,
To what extent did the music make you feel ,ANXIOUS ,30MonoWAV/30MonoS2.wav,1,1,3,10,,,,,0,8,8,9,0,9,9,1,,,,,,,,,4,1.3174175820022356,,,017,001,2019_May_09_1618,MusicAffectPsychophysiology2019,3.0.5,59.69909031747748,
To what extent did the music make you feel ,ALERT,30MonoWAV/30MonoS2.wav,1,1,3,10,,,,,0,8,8,9,0,10,10,8,,,,,,,,,2,1.13496747300087,,,017,001,2019_May_09_1618,MusicAffectPsychophysiology2019,3.0.5,59.69909031747748,
To what extent did the music make you feel ,GUILTY,30MonoWAV/30MonoS2.wav,1,1,3,10,,,,,0,8,8,9,0,11,11,5,,,,,,,,,1,1.0358663469960447,,,017,001,2019_May_09_1618,MusicAffectPsychophysiology2019,3.0.5,59.69909031747748,
,,30MonoWAV/30MonoS2.wav,1,1,3,10,,,,,0,8,8,9,,,,,,,,,,,,,,,,,017,001,2019_May_09_1618,MusicAffectPsychophysiology2019,3.0.5,59.69909031747748,
To what extent did the music make you feel ,GUILTY,30MonoWAV/30MonoT2.wav,2,1,4,14,,,,,0,9,9,13,0,0,0,5,,,2,4.885326496994821,3,1.7026107429992408,3,1.2699447670020163,1,1.6355765120024444,,,017,001,2019_May_09_1618,MusicAffectPsychophysiology2019,3.0.5,59.69909031747748,
To what extent did the music make you feel ,FRUSTRATED,30MonoWAV/30MonoT2.wav,2,1,4,14,,,,,0,9,9,13,0,1,1,3,,,,,,,,,1,0.7520531449990813,,,017,001,2019_May_09_1618,MusicAffectPsychophysiology2019,3.0.5,59.69909031747748,
To what extent did the music make you feel ,SAD,30MonoWAV/30MonoT2.wav,2,1,4,14,,,,,0,9,9,13,0,2,2,0,,,,,,,,,2,1.0886473680002382,,,017,001,2019_May_09_1618,MusicAffectPsychophysiology2019,3.0.5,59.69909031747748,
To what extent did the music make you feel ,ANXIOUS ,30MonoWAV/30MonoT2.wav,2,1,4,14,,,,,0,9,9,13,0,3,3,1,,,,,,,,,3,1.0015997949958546,,,017,001,2019_May_09_1618,MusicAffectPsychophysiology2019,3.0.5,59.69909031747748,
To what extent did the music make you feel ,SCARED,30MonoWAV/30MonoT2.wav,2,1,4,14,,,,,0,9,9,13,0,4,4,11,,,,,,,,,1,0.7017969399967114,,,017,001,2019_May_09_1618,MusicAffectPsychophysiology2019,3.0.5,59.69909031747748,
To what extent did the music make you feel ,TENDER,30MonoWAV/30MonoT2.wav,2,1,4,14,,,,,0,9,9,13,0,5,5,10,,,,,,,,,2,0.6175138940016041,,,017,001,2019_May_09_1618,MusicAffectPsychophysiology2019,3.0.5,59.69909031747748,
To what extent did the music make you feel ,ALERT,30MonoWAV/30MonoT2.wav,2,1,4,14,,,,,0,9,9,13,0,6,6,8,,,,,,,,,1,1.4534858020051615,,,017,001,2019_May_09_1618,MusicAffectPsychophysiology2019,3.0.5,59.69909031747748,
To what extent did the music make you feel ,HAPPY,30MonoWAV/30MonoT2.wav,2,1,4,14,,,,,0,9,9,13,0,7,7,6,,,,,,,,,2,1.1030307850014651,,,017,001,2019_May_09_1618,MusicAffectPsychophysiology2019,3.0.5,59.69909031747748,
To what extent did the music make you feel ,ANGRY,30MonoWAV/30MonoT2.wav,2,1,4,14,,,,,0,9,9,13,0,8,8,2,,,,,,,,,1,0.8689455089988769,,,017,001,2019_May_09_1618,MusicAffectPsychophysiology2019,3.0.5,59.69909031747748,
To what extent did the music make you feel ,ASHAMED,30MonoWAV/30MonoT2.wav,2,1,4,14,,,,,0,9,9,13,0,9,9,4,,,,,,,,,2,1.4406283239950426,,,017,001,2019_May_09_1618,MusicAffectPsychophysiology2019,3.0.5,59.69909031747748,
To what extent did the music make you feel ,EXCITED,30MonoWAV/30MonoT2.wav,2,1,4,14,,,,,0,9,9,13,0,10,10,7,,,,,,,,,3,1.2694606790028047,,,017,001,2019_May_09_1618,MusicAffectPsychophysiology2019,3.0.5,59.69909031747748,
To what extent did the music make you feel ,ACTIVE,30MonoWAV/30MonoT2.wav,2,1,4,14,,,,,0,9,9,13,0,11,11,9,,,,,,,,,2,2.1848464120048448,,,017,001,2019_May_09_1618,MusicAffectPsychophysiology2019,3.0.5,59.69909031747748,
,,30MonoWAV/30MonoT2.wav,2,1,4,14,,,,,0,9,9,13,,,,,,,,,,,,,,,,,017,001,2019_May_09_1618,MusicAffectPsychophysiology2019,3.0.5,59.69909031747748,
To what extent did the music make you feel ,ACTIVE,30MonoWAV/30MonoF3.wav,1,2,2,3,,,,,0,10,10,2,0,0,0,9,,,2,4.101014624997333,2,1.1344878760064603,2,1.7850821930042002,3,2.0165382949999184,,,017,001,2019_May_09_1618,MusicAffectPsychophysiology2019,3.0.5,59.69909031747748,
To what extent did the music make you feel ,FRUSTRATED,30MonoWAV/30MonoF3.wav,1,2,2,3,,,,,0,10,10,2,0,1,1,3,,,,,,,,,2,1.1016192940005567,,,017,001,2019_May_09_1618,MusicAffectPsychophysiology2019,3.0.5,59.69909031747748,
To what extent did the music make you feel ,ALERT,30MonoWAV/30MonoF3.wav,1,2,2,3,,,,,0,10,10,2,0,2,2,8,,,,,,,,,4,1.1517470290054916,,,017,001,2019_May_09_1618,MusicAffectPsychophysiology2019,3.0.5,59.69909031747748,
To what extent did the music make you feel ,ANGRY,30MonoWAV/30MonoF3.wav,1,2,2,3,,,,,0,10,10,2,0,3,3,2,,,,,,,,,2,1.2184422029968118,,,017,001,2019_May_09_1618,MusicAffectPsychophysiology2019,3.0.5,59.69909031747748,
To what extent did the music make you feel ,SCARED,30MonoWAV/30MonoF3.wav,1,2,2,3,,,,,0,10,10,2,0,4,4,11,,,,,,,,,3,1.2339527950025513,,,017,001,2019_May_09_1618,MusicAffectPsychophysiology2019,3.0.5,59.69909031747748,
To what extent did the music make you feel ,ANXIOUS ,30MonoWAV/30MonoF3.wav,1,2,2,3,,,,,0,10,10,2,0,5,5,1,,,,,,,,,3,0.7182641860053991,,,017,001,2019_May_09_1618,MusicAffectPsychophysiology2019,3.0.5,59.69909031747748,
To what extent did the music make you feel ,HAPPY,30MonoWAV/30MonoF3.wav,1,2,2,3,,,,,0,10,10,2,0,6,6,6,,,,,,,,,1,0.7345899779975298,,,017,001,2019_May_09_1618,MusicAffectPsychophysiology2019,3.0.5,59.69909031747748,
To what extent did the music make you feel ,TENDER,30MonoWAV/30MonoF3.wav,1,2,2,3,,,,,0,10,10,2,0,7,7,10,,,,,,,,,1,1.3848557919991435,,,017,001,2019_May_09_1618,MusicAffectPsychophysiology2019,3.0.5,59.69909031747748,
To what extent did the music make you feel ,SAD,30MonoWAV/30MonoF3.wav,1,2,2,3,,,,,0,10,10,2,0,8,8,0,,,,,,,,,1,1.6347115000025951,,,017,001,2019_May_09_1618,MusicAffectPsychophysiology2019,3.0.5,59.69909031747748,
To what extent did the music make you feel ,EXCITED,30MonoWAV/30MonoF3.wav,1,2,2,3,,,,,0,10,10,2,0,9,9,7,,,,,,,,,2,1.0517245000010007,,,017,001,2019_May_09_1618,MusicAffectPsychophysiology2019,3.0.5,59.69909031747748,
To what extent did the music make you feel ,ASHAMED,30MonoWAV/30MonoF3.wav,1,2,2,3,,,,,0,10,10,2,0,10,10,4,,,,,,,,,1,1.0687171359968488,,,017,001,2019_May_09_1618,MusicAffectPsychophysiology2019,3.0.5,59.69909031747748,
To what extent did the music make you feel ,GUILTY,30MonoWAV/30MonoF3.wav,1,2,2,3,,,,,0,10,10,2,0,11,11,5,,,,,,,,,2,1.083675638998102,,,017,001,2019_May_09_1618,MusicAffectPsychophysiology2019,3.0.5,59.69909031747748,
,,30MonoWAV/30MonoF3.wav,1,2,2,3,,,,,0,10,10,2,,,,,,,,,,,,,,,,,017,001,2019_May_09_1618,MusicAffectPsychophysiology2019,3.0.5,59.69909031747748,
To what extent did the music make you feel ,HAPPY,30MonoWAV/30MonoH2.wav,2,2,1,6,,,,,0,11,11,5,0,0,0,6,,,3,3.4683601619981346,2,1.5850052699970547,2,1.1174336080002831,2,1.565682407002896,,,017,001,2019_May_09_1618,MusicAffectPsychophysiology2019,3.0.5,59.69909031747748,
To what extent did the music make you feel ,TENDER,30MonoWAV/30MonoH2.wav,2,2,1,6,,,,,0,11,11,5,0,1,1,10,,,,,,,,,1,0.9851918310014298,,,017,001,2019_May_09_1618,MusicAffectPsychophysiology2019,3.0.5,59.69909031747748,
To what extent did the music make you feel ,ANXIOUS ,30MonoWAV/30MonoH2.wav,2,2,1,6,,,,,0,11,11,5,0,2,2,1,,,,,,,,,2,0.8661703109974042,,,017,001,2019_May_09_1618,MusicAffectPsychophysiology2019,3.0.5,59.69909031747748,
To what extent did the music make you feel ,FRUSTRATED,30MonoWAV/30MonoH2.wav,2,2,1,6,,,,,0,11,11,5,0,3,3,3,,,,,,,,,1,0.9519044310000027,,,017,001,2019_May_09_1618,MusicAffectPsychophysiology2019,3.0.5,59.69909031747748,
To what extent did the music make you feel ,GUILTY,30MonoWAV/30MonoH2.wav,2,2,1,6,,,,,0,11,11,5,0,4,4,5,,,,,,,,,1,0.9181642130060936,,,017,001,2019_May_09_1618,MusicAffectPsychophysiology2019,3.0.5,59.69909031747748,
To what extent did the music make you feel ,EXCITED,30MonoWAV/30MonoH2.wav,2,2,1,6,,,,,0,11,11,5,0,5,5,7,,,,,,,,,3,0.6678177549983957,,,017,001,2019_May_09_1618,MusicAffectPsychophysiology2019,3.0.5,59.69909031747748,
To what extent did the music make you feel ,ANGRY,30MonoWAV/30MonoH2.wav,2,2,1,6,,,,,0,11,11,5,0,6,6,2,,,,,,,,,1,0.785242133999418,,,017,001,2019_May_09_1618,MusicAffectPsychophysiology2019,3.0.5,59.69909031747748,
To what extent did the music make you feel ,ACTIVE,30MonoWAV/30MonoH2.wav,2,2,1,6,,,,,0,11,11,5,0,7,7,9,,,,,,,,,4,0.7351144589993055,,,017,001,2019_May_09_1618,MusicAffectPsychophysiology2019,3.0.5,59.69909031747748,
To what extent did the music make you feel ,SCARED,30MonoWAV/30MonoH2.wav,2,2,1,6,,,,,0,11,11,5,0,8,8,11,,,,,,,,,2,2.634342129000288,,,017,001,2019_May_09_1618,MusicAffectPsychophysiology2019,3.0.5,59.69909031747748,
To what extent did the music make you feel ,SAD,30MonoWAV/30MonoH2.wav,2,2,1,6,,,,,0,11,11,5,0,9,9,0,,,,,,,,,1,0.8506783870034269,,,017,001,2019_May_09_1618,MusicAffectPsychophysiology2019,3.0.5,59.69909031747748,
To what extent did the music make you feel ,ASHAMED,30MonoWAV/30MonoH2.wav,2,2,1,6,,,,,0,11,11,5,0,10,10,4,,,,,,,,,2,0.7022382909999578,,,017,001,2019_May_09_1618,MusicAffectPsychophysiology2019,3.0.5,59.69909031747748,
To what extent did the music make you feel ,ALERT,30MonoWAV/30MonoH2.wav,2,2,1,6,,,,,0,11,11,5,0,11,11,8,,,,,,,,,3,1.1944382739966386,,,017,001,2019_May_09_1618,MusicAffectPsychophysiology2019,3.0.5,59.69909031747748,
,,30MonoWAV/30MonoH2.wav,2,2,1,6,,,,,0,11,11,5,,,,,,,,,,,,,,,,,017,001,2019_May_09_1618,MusicAffectPsychophysiology2019,3.0.5,59.69909031747748,
To what extent did the music make you feel ,TENDER,30MonoWAV/30MonoS3.wav,1,1,3,11,,,,,0,12,12,10,0,0,0,10,,,1,9.884806797002966,1,1.3350458159984555,2,2.2505577750052908,1,1.419044321999536,,,017,001,2019_May_09_1618,MusicAffectPsychophysiology2019,3.0.5,59.69909031747748,
To what extent did the music make you feel ,HAPPY,30MonoWAV/30MonoS3.wav,1,1,3,11,,,,,0,12,12,10,0,1,1,6,,,,,,,,,1,0.7506976810036576,,,017,001,2019_May_09_1618,MusicAffectPsychophysiology2019,3.0.5,59.69909031747748,
To what extent did the music make you feel ,ASHAMED,30MonoWAV/30MonoS3.wav,1,1,3,11,,,,,0,12,12,10,0,2,2,4,,,,,,,,,2,0.75220565500058,,,017,001,2019_May_09_1618,MusicAffectPsychophysiology2019,3.0.5,59.69909031747748,
To what extent did the music make you feel ,EXCITED,30MonoWAV/30MonoS3.wav,1,1,3,11,,,,,0,12,12,10,0,3,3,7,,,,,,,,,1,1.0350830059978762,,,017,001,2019_May_09_1618,MusicAffectPsychophysiology2019,3.0.5,59.69909031747748,
To what extent did the music make you feel ,ANGRY,30MonoWAV/30MonoS3.wav,1,1,3,11,,,,,0,12,12,10,0,4,4,2,,,,,,,,,2,1.4570119550044183,,,017,001,2019_May_09_1618,MusicAffectPsychophysiology2019,3.0.5,59.69909031747748,
To what extent did the music make you feel ,SCARED,30MonoWAV/30MonoS3.wav,1,1,3,11,,,,,0,12,12,10,0,5,5,11,,,,,,,,,3,0.7509536869984004,,,017,001,2019_May_09_1618,MusicAffectPsychophysiology2019,3.0.5,59.69909031747748,
To what extent did the music make you feel ,GUILTY,30MonoWAV/30MonoS3.wav,1,1,3,11,,,,,0,12,12,10,0,6,6,5,,,,,,,,,3,0.719037611001113,,,017,001,2019_May_09_1618,MusicAffectPsychophysiology2019,3.0.5,59.69909031747748,
To what extent did the music make you feel ,ACTIVE,30MonoWAV/30MonoS3.wav,1,1,3,11,,,,,0,12,12,10,0,7,7,9,,,,,,,,,1,1.1031045650015585,,,017,001,2019_May_09_1618,MusicAffectPsychophysiology2019,3.0.5,59.69909031747748,
To what extent did the music make you feel ,ALERT,30MonoWAV/30MonoS3.wav,1,1,3,11,,,,,0,12,12,10,0,8,8,8,,,,,,,,,2,0.48586056800559163,,,017,001,2019_May_09_1618,MusicAffectPsychophysiology2019,3.0.5,59.69909031747748,
To what extent did the music make you feel ,SAD,30MonoWAV/30MonoS3.wav,1,1,3,11,,,,,0,12,12,10,0,9,9,0,,,,,,,,,2,0.6522403490016586,,,017,001,2019_May_09_1618,MusicAffectPsychophysiology2019,3.0.5,59.69909031747748,
To what extent did the music make you feel ,ANXIOUS ,30MonoWAV/30MonoS3.wav,1,1,3,11,,,,,0,12,12,10,0,10,10,1,,,,,,,,,3,0.7867391760009923,,,017,001,2019_May_09_1618,MusicAffectPsychophysiology2019,3.0.5,59.69909031747748,
To what extent did the music make you feel ,FRUSTRATED,30MonoWAV/30MonoS3.wav,1,1,3,11,,,,,0,12,12,10,0,11,11,3,,,,,,,,,4,0.7523666139968554,,,017,001,2019_May_09_1618,MusicAffectPsychophysiology2019,3.0.5,59.69909031747748,
,,30MonoWAV/30MonoS3.wav,1,1,3,11,,,,,0,12,12,10,,,,,,,,,,,,,,,,,017,001,2019_May_09_1618,MusicAffectPsychophysiology2019,3.0.5,59.69909031747748,
To what extent did the music make you feel ,ALERT,30MonoWAV/30MonoF2.wav,1,2,2,2,,,,,0,13,13,1,0,0,0,8,,,3,3.7182128109998303,1,2.651112164996448,2,1.9023487910017138,5,2.7333291890026885,,,017,001,2019_May_09_1618,MusicAffectPsychophysiology2019,3.0.5,59.69909031747748,
To what extent did the music make you feel ,SAD,30MonoWAV/30MonoF2.wav,1,2,2,2,,,,,0,13,13,1,0,1,1,0,,,,,,,,,3,2.101801691998844,,,017,001,2019_May_09_1618,MusicAffectPsychophysiology2019,3.0.5,59.69909031747748,
To what extent did the music make you feel ,SCARED,30MonoWAV/30MonoF2.wav,1,2,2,2,,,,,0,13,13,1,0,2,2,11,,,,,,,,,4,0.8018265320060891,,,017,001,2019_May_09_1618,MusicAffectPsychophysiology2019,3.0.5,59.69909031747748,
To what extent did the music make you feel ,ACTIVE,30MonoWAV/30MonoF2.wav,1,2,2,2,,,,,0,13,13,1,0,3,3,9,,,,,,,,,3,1.918174189995625,,,017,001,2019_May_09_1618,MusicAffectPsychophysiology2019,3.0.5,59.69909031747748,
To what extent did the music make you feel ,ASHAMED,30MonoWAV/30MonoF2.wav,1,2,2,2,,,,,0,13,13,1,0,4,4,4,,,,,,,,,1,1.1517622469982598,,,017,001,2019_May_09_1618,MusicAffectPsychophysiology2019,3.0.5,59.69909031747748,
To what extent did the music make you feel ,EXCITED,30MonoWAV/30MonoF2.wav,1,2,2,2,,,,,0,13,13,1,0,5,5,7,,,,,,,,,2,1.335470282996539,,,017,001,2019_May_09_1618,MusicAffectPsychophysiology2019,3.0.5,59.69909031747748,
To what extent did the music make you feel ,ANGRY,30MonoWAV/30MonoF2.wav,1,2,2,2,,,,,0,13,13,1,0,6,6,2,,,,,,,,,1,1.4352291629984393,,,017,001,2019_May_09_1618,MusicAffectPsychophysiology2019,3.0.5,59.69909031747748,
To what extent did the music make you feel ,ANXIOUS ,30MonoWAV/30MonoF2.wav,1,2,2,2,,,,,0,13,13,1,0,7,7,1,,,,,,,,,4,0.9512685340014286,,,017,001,2019_May_09_1618,MusicAffectPsychophysiology2019,3.0.5,59.69909031747748,
To what extent did the music make you feel ,FRUSTRATED,30MonoWAV/30MonoF2.wav,1,2,2,2,,,,,0,13,13,1,0,8,8,3,,,,,,,,,2,1.2169750389948604,,,017,001,2019_May_09_1618,MusicAffectPsychophysiology2019,3.0.5,59.69909031747748,
To what extent did the music make you feel ,HAPPY,30MonoWAV/30MonoF2.wav,1,2,2,2,,,,,0,13,13,1,0,9,9,6,,,,,,,,,1,1.0190882070019143,,,017,001,2019_May_09_1618,MusicAffectPsychophysiology2019,3.0.5,59.69909031747748,
To what extent did the music make you feel ,GUILTY,30MonoWAV/30MonoF2.wav,1,2,2,2,,,,,0,13,13,1,0,10,10,5,,,,,,,,,4,1.9851210769993486,,,017,001,2019_May_09_1618,MusicAffectPsychophysiology2019,3.0.5,59.69909031747748,
To what extent did the music make you feel ,TENDER,30MonoWAV/30MonoF2.wav,1,2,2,2,,,,,0,13,13,1,0,11,11,10,,,,,,,,,1,0.8024859329962055,,,017,001,2019_May_09_1618,MusicAffectPsychophysiology2019,3.0.5,59.69909031747748,
,,30MonoWAV/30MonoF2.wav,1,2,2,2,,,,,0,13,13,1,,,,,,,,,,,,,,,,,017,001,2019_May_09_1618,MusicAffectPsychophysiology2019,3.0.5,59.69909031747748,
To what extent did the music make you feel ,TENDER,30MonoWAV/30MonoS1.wav,1,1,3,9,,,,,0,14,14,8,0,0,0,10,,,2,10.017583855005796,1,0.8008117660065182,2,3.6518224329993245,1,1.2187487639967003,,,017,001,2019_May_09_1618,MusicAffectPsychophysiology2019,3.0.5,59.69909031747748,
To what extent did the music make you feel ,FRUSTRATED,30MonoWAV/30MonoS1.wav,1,1,3,9,,,,,0,14,14,8,0,1,1,3,,,,,,,,,1,1.2844874989968957,,,017,001,2019_May_09_1618,MusicAffectPsychophysiology2019,3.0.5,59.69909031747748,
To what extent did the music make you feel ,EXCITED,30MonoWAV/30MonoS1.wav,1,1,3,9,,,,,0,14,14,8,0,2,2,7,,,,,,,,,1,0.801940770004876,,,017,001,2019_May_09_1618,MusicAffectPsychophysiology2019,3.0.5,59.69909031747748,
To what extent did the music make you feel ,HAPPY,30MonoWAV/30MonoS1.wav,1,1,3,9,,,,,0,14,14,8,0,3,3,6,,,,,,,,,1,0.6514552040025592,,,017,001,2019_May_09_1618,MusicAffectPsychophysiology2019,3.0.5,59.69909031747748,
To what extent did the music make you feel ,ACTIVE,30MonoWAV/30MonoS1.wav,1,1,3,9,,,,,0,14,14,8,0,4,4,9,,,,,,,,,2,0.9510777030009194,,,017,001,2019_May_09_1618,MusicAffectPsychophysiology2019,3.0.5,59.69909031747748,
To what extent did the music make you feel ,SAD,30MonoWAV/30MonoS1.wav,1,1,3,9,,,,,0,14,14,8,0,5,5,0,,,,,,,,,3,0.8512208339961944,,,017,001,2019_May_09_1618,MusicAffectPsychophysiology2019,3.0.5,59.69909031747748,
To what extent did the music make you feel ,ASHAMED,30MonoWAV/30MonoS1.wav,1,1,3,9,,,,,0,14,14,8,0,6,6,4,,,,,,,,,2,1.3172508259958704,,,017,001,2019_May_09_1618,MusicAffectPsychophysiology2019,3.0.5,59.69909031747748,
To what extent did the music make you feel ,ALERT,30MonoWAV/30MonoS1.wav,1,1,3,9,,,,,0,14,14,8,0,7,7,8,,,,,,,,,3,1.1189228590010316,,,017,001,2019_May_09_1618,MusicAffectPsychophysiology2019,3.0.5,59.69909031747748,
To what extent did the music make you feel ,SCARED,30MonoWAV/30MonoS1.wav,1,1,3,9,,,,,0,14,14,8,0,8,8,11,,,,,,,,,4,0.5687020539990044,,,017,001,2019_May_09_1618,MusicAffectPsychophysiology2019,3.0.5,59.69909031747748,
To what extent did the music make you feel ,ANGRY,30MonoWAV/30MonoS1.wav,1,1,3,9,,,,,0,14,14,8,0,9,9,2,,,,,,,,,1,1.0992806299982476,,,017,001,2019_May_09_1618,MusicAffectPsychophysiology2019,3.0.5,59.69909031747748,
To what extent did the music make you feel ,GUILTY,30MonoWAV/30MonoS1.wav,1,1,3,9,,,,,0,14,14,8,0,10,10,5,,,,,,,,,2,0.6853890960046556,,,017,001,2019_May_09_1618,MusicAffectPsychophysiology2019,3.0.5,59.69909031747748,
To what extent did the music make you feel ,ANXIOUS ,30MonoWAV/30MonoS1.wav,1,1,3,9,,,,,0,14,14,8,0,11,11,1,,,,,,,,,3,0.6357812669957639,,,017,001,2019_May_09_1618,MusicAffectPsychophysiology2019,3.0.5,59.69909031747748,
,,30MonoWAV/30MonoS1.wav,1,1,3,9,,,,,0,14,14,8,,,,,,,,,,,,,,,,,017,001,2019_May_09_1618,MusicAffectPsychophysiology2019,3.0.5,59.69909031747748,
To what extent did the music make you feel ,EXCITED,30MonoWAV/30MonoH1.wav,2,2,1,5,,,,,0,15,15,4,0,0,0,7,,,4,2.4849884469949757,5,1.6514523639998515,4,1.5514674320002086,4,1.9175670799959335,,,017,001,2019_May_09_1618,MusicAffectPsychophysiology2019,3.0.5,59.69909031747748,
To what extent did the music make you feel ,SAD,30MonoWAV/30MonoH1.wav,2,2,1,5,,,,,0,15,15,4,0,1,1,0,,,,,,,,,2,1.1024019239994232,,,017,001,2019_May_09_1618,MusicAffectPsychophysiology2019,3.0.5,59.69909031747748,
To what extent did the music make you feel ,SCARED,30MonoWAV/30MonoH1.wav,2,2,1,5,,,,,0,15,15,4,0,2,2,11,,,,,,,,,1,1.6023891840013675,,,017,001,2019_May_09_1618,MusicAffectPsychophysiology2019,3.0.5,59.69909031747748,
To what extent did the music make you feel ,ACTIVE,30MonoWAV/30MonoH1.wav,2,2,1,5,,,,,0,15,15,4,0,3,3,9,,,,,,,,,5,1.9503159890009556,,,017,001,2019_May_09_1618,MusicAffectPsychophysiology2019,3.0.5,59.69909031747748,
To what extent did the music make you feel ,ALERT,30MonoWAV/30MonoH1.wav,2,2,1,5,,,,,0,15,15,4,0,4,4,8,,,,,,,,,3,1.3843354060009005,,,017,001,2019_May_09_1618,MusicAffectPsychophysiology2019,3.0.5,59.69909031747748,
To what extent did the music make you feel ,ANXIOUS ,30MonoWAV/30MonoH1.wav,2,2,1,5,,,,,0,15,15,4,0,5,5,1,,,,,,,,,1,0.9347240980059723,,,017,001,2019_May_09_1618,MusicAffectPsychophysiology2019,3.0.5,59.69909031747748,
To what extent did the music make you feel ,ASHAMED,30MonoWAV/30MonoH1.wav,2,2,1,5,,,,,0,15,15,4,0,6,6,4,,,,,,,,,1,0.5185798120000982,,,017,001,2019_May_09_1618,MusicAffectPsychophysiology2019,3.0.5,59.69909031747748,
To what extent did the music make you feel ,ANGRY,30MonoWAV/30MonoH1.wav,2,2,1,5,,,,,0,15,15,4,0,7,7,2,,,,,,,,,1,0.5185221500069019,,,017,001,2019_May_09_1618,MusicAffectPsychophysiology2019,3.0.5,59.69909031747748,
To what extent did the music make you feel ,FRUSTRATED,30MonoWAV/30MonoH1.wav,2,2,1,5,,,,,0,15,15,4,0,8,8,3,,,,,,,,,1,0.5176545419963077,,,017,001,2019_May_09_1618,MusicAffectPsychophysiology2019,3.0.5,59.69909031747748,
To what extent did the music make you feel ,GUILTY,30MonoWAV/30MonoH1.wav,2,2,1,5,,,,,0,15,15,4,0,9,9,5,,,,,,,,,1,0.5187541420018533,,,017,001,2019_May_09_1618,MusicAffectPsychophysiology2019,3.0.5,59.69909031747748,
To what extent did the music make you feel ,TENDER,30MonoWAV/30MonoH1.wav,2,2,1,5,,,,,0,15,15,4,0,10,10,10,,,,,,,,,4,1.6513342509933864,,,017,001,2019_May_09_1618,MusicAffectPsychophysiology2019,3.0.5,59.69909031747748,
To what extent did the music make you feel ,HAPPY,30MonoWAV/30MonoH1.wav,2,2,1,5,,,,,0,15,15,4,0,11,11,6,,,,,,,,,5,1.002465960002155,,,017,001,2019_May_09_1618,MusicAffectPsychophysiology2019,3.0.5,59.69909031747748,
,,30MonoWAV/30MonoH1.wav,2,2,1,5,,,,,0,15,15,4,,,,,,,,,,,,,,,,,017,001,2019_May_09_1618,MusicAffectPsychophysiology2019,3.0.5,59.69909031747748,
To what extent did the music make you feel ,ANGRY,30MonoWAV/30MonoS2.wav,1,1,3,10,,,,,1,0,16,9,0,0,0,2,,,1,3.3012013180050417,1,1.4682724660015083,2,1.7512758129960275,1,1.2017057900011423,,,017,001,2019_May_09_1618,MusicAffectPsychophysiology2019,3.0.5,59.69909031747748,
To what extent did the music make you feel ,HAPPY,30MonoWAV/30MonoS2.wav,1,1,3,10,,,,,1,0,16,9,0,1,1,6,,,,,,,,,1,0.7011399330003769,,,017,001,2019_May_09_1618,MusicAffectPsychophysiology2019,3.0.5,59.69909031747748,
To what extent did the music make you feel ,TENDER,30MonoWAV/30MonoS2.wav,1,1,3,10,,,,,1,0,16,9,0,2,2,10,,,,,,,,,1,0.7357208100002026,,,017,001,2019_May_09_1618,MusicAffectPsychophysiology2019,3.0.5,59.69909031747748,
To what extent did the music make you feel ,GUILTY,30MonoWAV/30MonoS2.wav,1,1,3,10,,,,,1,0,16,9,0,3,3,5,,,,,,,,,2,1.1349212030036142,,,017,001,2019_May_09_1618,MusicAffectPsychophysiology2019,3.0.5,59.69909031747748,
To what extent did the music make you feel ,ACTIVE,30MonoWAV/30MonoS2.wav,1,1,3,10,,,,,1,0,16,9,0,4,4,9,,,,,,,,,1,0.6999274660047377,,,017,001,2019_May_09_1618,MusicAffectPsychophysiology2019,3.0.5,59.69909031747748,
To what extent did the music make you feel ,FRUSTRATED,30MonoWAV/30MonoS2.wav,1,1,3,10,,,,,1,0,16,9,0,5,5,3,,,,,,,,,3,0.7509760159955476,,,017,001,2019_May_09_1618,MusicAffectPsychophysiology2019,3.0.5,59.69909031747748,
To what extent did the music make you feel ,ALERT,30MonoWAV/30MonoS2.wav,1,1,3,10,,,,,1,0,16,9,0,6,6,8,,,,,,,,,2,0.9860172600019723,,,017,001,2019_May_09_1618,MusicAffectPsychophysiology2019,3.0.5,59.69909031747748,
To what extent did the music make you feel ,SAD,30MonoWAV/30MonoS2.wav,1,1,3,10,,,,,1,0,16,9,0,7,7,0,,,,,,,,,4,1.6833285669999896,,,017,001,2019_May_09_1618,MusicAffectPsychophysiology2019,3.0.5,59.69909031747748,
To what extent did the music make you feel ,ANXIOUS ,30MonoWAV/30MonoS2.wav,1,1,3,10,,,,,1,0,16,9,0,8,8,1,,,,,,,,,3,2.8349576789987623,,,017,001,2019_May_09_1618,MusicAffectPsychophysiology2019,3.0.5,59.69909031747748,
To what extent did the music make you feel ,SCARED,30MonoWAV/30MonoS2.wav,1,1,3,10,,,,,1,0,16,9,0,9,9,11,,,,,,,,,2,1.3000740799980122,,,017,001,2019_May_09_1618,MusicAffectPsychophysiology2019,3.0.5,59.69909031747748,
To what extent did the music make you feel ,ASHAMED,30MonoWAV/30MonoS2.wav,1,1,3,10,,,,,1,0,16,9,0,10,10,4,,,,,,,,,1,0.7516200559985009,,,017,001,2019_May_09_1618,MusicAffectPsychophysiology2019,3.0.5,59.69909031747748,
To what extent did the music make you feel ,EXCITED,30MonoWAV/30MonoS2.wav,1,1,3,10,,,,,1,0,16,9,0,11,11,7,,,,,,,,,1,0.9693334419935127,,,017,001,2019_May_09_1618,MusicAffectPsychophysiology2019,3.0.5,59.69909031747748,
,,30MonoWAV/30MonoS2.wav,1,1,3,10,,,,,1,0,16,9,,,,,,,,,,,,,,,,,017,001,2019_May_09_1618,MusicAffectPsychophysiology2019,3.0.5,59.69909031747748,
To what extent did the music make you feel ,ALERT,30MonoWAV/30MonoF3.wav,1,2,2,3,,,,,1,1,17,2,0,0,0,8,,,5,2.8013114940040396,4,1.6020062850002432,4,1.73314002299594,3,2.018794636001985,,,017,001,2019_May_09_1618,MusicAffectPsychophysiology2019,3.0.5,59.69909031747748,
To what extent did the music make you feel ,ANGRY,30MonoWAV/30MonoF3.wav,1,2,2,3,,,,,1,1,17,2,0,1,1,2,,,,,,,,,2,0.7015766280019307,,,017,001,2019_May_09_1618,MusicAffectPsychophysiology2019,3.0.5,59.69909031747748,
To what extent did the music make you feel ,TENDER,30MonoWAV/30MonoF3.wav,1,2,2,3,,,,,1,1,17,2,0,2,2,10,,,,,,,,,2,3.2498652290014434,,,017,001,2019_May_09_1618,MusicAffectPsychophysiology2019,3.0.5,59.69909031747748,
To what extent did the music make you feel ,SAD,30MonoWAV/30MonoF3.wav,1,2,2,3,,,,,1,1,17,2,0,3,3,0,,,,,,,,,1,0.4518339139976888,,,017,001,2019_May_09_1618,MusicAffectPsychophysiology2019,3.0.5,59.69909031747748,
To what extent did the music make you feel ,FRUSTRATED,30MonoWAV/30MonoF3.wav,1,2,2,3,,,,,1,1,17,2,0,4,4,3,,,,,,,,,1,0.6348317609954393,,,017,001,2019_May_09_1618,MusicAffectPsychophysiology2019,3.0.5,59.69909031747748,
To what extent did the music make you feel ,EXCITED,30MonoWAV/30MonoF3.wav,1,2,2,3,,,,,1,1,17,2,0,5,5,7,,,,,,,,,4,1.1358228649987723,,,017,001,2019_May_09_1618,MusicAffectPsychophysiology2019,3.0.5,59.69909031747748,
To what extent did the music make you feel ,ASHAMED,30MonoWAV/30MonoF3.wav,1,2,2,3,,,,,1,1,17,2,0,6,6,4,,,,,,,,,1,0.7361631170060718,,,017,001,2019_May_09_1618,MusicAffectPsychophysiology2019,3.0.5,59.69909031747748,
To what extent did the music make you feel ,ANXIOUS ,30MonoWAV/30MonoF3.wav,1,2,2,3,,,,,1,1,17,2,0,7,7,1,,,,,,,,,1,0.8852124179975362,,,017,001,2019_May_09_1618,MusicAffectPsychophysiology2019,3.0.5,59.69909031747748,
To what extent did the music make you feel ,GUILTY,30MonoWAV/30MonoF3.wav,1,2,2,3,,,,,1,1,17,2,0,8,8,5,,,,,,,,,1,0.7009903599973768,,,017,001,2019_May_09_1618,MusicAffectPsychophysiology2019,3.0.5,59.69909031747748,
To what extent did the music make you feel ,SCARED,30MonoWAV/30MonoF3.wav,1,2,2,3,,,,,1,1,17,2,0,9,9,11,,,,,,,,,1,0.48514391599746887,,,017,001,2019_May_09_1618,MusicAffectPsychophysiology2019,3.0.5,59.69909031747748,
To what extent did the music make you feel ,HAPPY,30MonoWAV/30MonoF3.wav,1,2,2,3,,,,,1,1,17,2,0,10,10,6,,,,,,,,,3,1.050342845999694,,,017,001,2019_May_09_1618,MusicAffectPsychophysiology2019,3.0.5,59.69909031747748,
To what extent did the music make you feel ,ACTIVE,30MonoWAV/30MonoF3.wav,1,2,2,3,,,,,1,1,17,2,0,11,11,9,,,,,,,,,4,1.0733482569994521,,,017,001,2019_May_09_1618,MusicAffectPsychophysiology2019,3.0.5,59.69909031747748,
,,30MonoWAV/30MonoF3.wav,1,2,2,3,,,,,1,1,17,2,,,,,,,,,,,,,,,,,017,001,2019_May_09_1618,MusicAffectPsychophysiology2019,3.0.5,59.69909031747748,
To what extent did the music make you feel ,EXCITED,30MonoWAV/30MonoT3.wav,2,1,4,15,,,,,1,2,18,14,0,0,0,7,,,2,2.5420806370020728,3,2.265746917000797,2,1.1865251290000742,1,1.1499362729955465,,,017,001,2019_May_09_1618,MusicAffectPsychophysiology2019,3.0.5,59.69909031747748,
To what extent did the music make you feel ,ANGRY,30MonoWAV/30MonoT3.wav,2,1,4,15,,,,,1,2,18,14,0,1,1,2,,,,,,,,,1,0.6860907969967229,,,017,001,2019_May_09_1618,MusicAffectPsychophysiology2019,3.0.5,59.69909031747748,
To what extent did the music make you feel ,SCARED,30MonoWAV/30MonoT3.wav,2,1,4,15,,,,,1,2,18,14,0,2,2,11,,,,,,,,,1,0.5345620400039479,,,017,001,2019_May_09_1618,MusicAffectPsychophysiology2019,3.0.5,59.69909031747748,
To what extent did the music make you feel ,ASHAMED,30MonoWAV/30MonoT3.wav,2,1,4,15,,,,,1,2,18,14,0,3,3,4,,,,,,,,,1,0.8017769860016415,,,017,001,2019_May_09_1618,MusicAffectPsychophysiology2019,3.0.5,59.69909031747748,
To what extent did the music make you feel ,ACTIVE,30MonoWAV/30MonoT3.wav,2,1,4,15,,,,,1,2,18,14,0,4,4,9,,,,,,,,,2,0.9686090859977412,,,017,001,2019_May_09_1618,MusicAffectPsychophysiology2019,3.0.5,59.69909031747748,
To what extent did the music make you feel ,GUILTY,30MonoWAV/30MonoT3.wav,2,1,4,15,,,,,1,2,18,14,0,5,5,5,,,,,,,,,1,0.7015235860017128,,,017,001,2019_May_09_1618,MusicAffectPsychophysiology2019,3.0.5,59.69909031747748,
To what extent did the music make you feel ,HAPPY,30MonoWAV/30MonoT3.wav,2,1,4,15,,,,,1,2,18,14,0,6,6,6,,,,,,,,,2,0.868852739004069,,,017,001,2019_May_09_1618,MusicAffectPsychophysiology2019,3.0.5,59.69909031747748,
To what extent did the music make you feel ,SAD,30MonoWAV/30MonoT3.wav,2,1,4,15,,,,,1,2,18,14,0,7,7,0,,,,,,,,,1,0.6683566569990944,,,017,001,2019_May_09_1618,MusicAffectPsychophysiology2019,3.0.5,59.69909031747748,
To what extent did the music make you feel ,ALERT,30MonoWAV/30MonoT3.wav,2,1,4,15,,,,,1,2,18,14,0,8,8,8,,,,,,,,,1,3.1166378729976714,,,017,001,2019_May_09_1618,MusicAffectPsychophysiology2019,3.0.5,59.69909031747748,
To what extent did the music make you feel ,FRUSTRATED,30MonoWAV/30MonoT3.wav,2,1,4,15,,,,,1,2,18,14,0,9,9,3,,,,,,,,,2,1.7521535389969358,,,017,001,2019_May_09_1618,MusicAffectPsychophysiology2019,3.0.5,59.69909031747748,
To what extent did the music make you feel ,TENDER,30MonoWAV/30MonoT3.wav,2,1,4,15,,,,,1,2,18,14,0,10,10,10,,,,,,,,,3,2.168324753001798,,,017,001,2019_May_09_1618,MusicAffectPsychophysiology2019,3.0.5,59.69909031747748,
To what extent did the music make you feel ,ANXIOUS ,30MonoWAV/30MonoT3.wav,2,1,4,15,,,,,1,2,18,14,0,11,11,1,,,,,,,,,1,0.8514663050009403,,,017,001,2019_May_09_1618,MusicAffectPsychophysiology2019,3.0.5,59.69909031747748,
,,30MonoWAV/30MonoT3.wav,2,1,4,15,,,,,1,2,18,14,,,,,,,,,,,,,,,,,017,001,2019_May_09_1618,MusicAffectPsychophysiology2019,3.0.5,59.69909031747748,
To what extent did the music make you feel ,ALERT,30MonoWAV/30MonoH1.wav,2,2,1,5,,,,,1,3,19,4,0,0,0,8,,,4,3.56747135000478,5,1.568260186999396,4,1.5190198170021176,2,2.800947213996551,,,017,001,2019_May_09_1618,MusicAffectPsychophysiology2019,3.0.5,59.69909031747748,
To what extent did the music make you feel ,ANXIOUS ,30MonoWAV/30MonoH1.wav,2,2,1,5,,,,,1,3,19,4,0,1,1,1,,,,,,,,,1,1.5191280349972658,,,017,001,2019_May_09_1618,MusicAffectPsychophysiology2019,3.0.5,59.69909031747748,
To what extent did the music make you feel ,SCARED,30MonoWAV/30MonoH1.wav,2,2,1,5,,,,,1,3,19,4,0,2,2,11,,,,,,,,,1,0.7531913359998725,,,017,001,2019_May_09_1618,MusicAffectPsychophysiology2019,3.0.5,59.69909031747748,
To what extent did the music make you feel ,HAPPY,30MonoWAV/30MonoH1.wav,2,2,1,5,,,,,1,3,19,4,0,3,3,6,,,,,,,,,3,0.7524197300008382,,,017,001,2019_May_09_1618,MusicAffectPsychophysiology2019,3.0.5,59.69909031747748,
To what extent did the music make you feel ,EXCITED,30MonoWAV/30MonoH1.wav,2,2,1,5,,,,,1,3,19,4,0,4,4,7,,,,,,,,,4,1.035471825998684,,,017,001,2019_May_09_1618,MusicAffectPsychophysiology2019,3.0.5,59.69909031747748,
To what extent did the music make you feel ,ASHAMED,30MonoWAV/30MonoH1.wav,2,2,1,5,,,,,1,3,19,4,0,5,5,4,,,,,,,,,1,1.5359307559992885,,,017,001,2019_May_09_1618,MusicAffectPsychophysiology2019,3.0.5,59.69909031747748,
To what extent did the music make you feel ,ANGRY,30MonoWAV/30MonoH1.wav,2,2,1,5,,,,,1,3,19,4,0,6,6,2,,,,,,,,,1,0.8013082809993648,,,017,001,2019_May_09_1618,MusicAffectPsychophysiology2019,3.0.5,59.69909031747748,
To what extent did the music make you feel ,FRUSTRATED,30MonoWAV/30MonoH1.wav,2,2,1,5,,,,,1,3,19,4,0,7,7,3,,,,,,,,,1,0.5514950219949242,,,017,001,2019_May_09_1618,MusicAffectPsychophysiology2019,3.0.5,59.69909031747748,
To what extent did the music make you feel ,SAD,30MonoWAV/30MonoH1.wav,2,2,1,5,,,,,1,3,19,4,0,8,8,0,,,,,,,,,1,2.318013380005141,,,017,001,2019_May_09_1618,MusicAffectPsychophysiology2019,3.0.5,59.69909031747748,
To what extent did the music make you feel ,GUILTY,30MonoWAV/30MonoH1.wav,2,2,1,5,,,,,1,3,19,4,0,9,9,5,,,,,,,,,1,0.5847950839961413,,,017,001,2019_May_09_1618,MusicAffectPsychophysiology2019,3.0.5,59.69909031747748,
To what extent did the music make you feel ,TENDER,30MonoWAV/30MonoH1.wav,2,2,1,5,,,,,1,3,19,4,0,10,10,10,,,,,,,,,2,0.6345433159949607,,,017,001,2019_May_09_1618,MusicAffectPsychophysiology2019,3.0.5,59.69909031747748,
To what extent did the music make you feel ,ACTIVE,30MonoWAV/30MonoH1.wav,2,2,1,5,,,,,1,3,19,4,0,11,11,9,,,,,,,,,4,0.8673055729959742,,,017,001,2019_May_09_1618,MusicAffectPsychophysiology2019,3.0.5,59.69909031747748,
,,30MonoWAV/30MonoH1.wav,2,2,1,5,,,,,1,3,19,4,,,,,,,,,,,,,,,,,017,001,2019_May_09_1618,MusicAffectPsychophysiology2019,3.0.5,59.69909031747748,
To what extent did the music make you feel ,SAD,30MonoWAV/30MonoS3.wav,1,1,3,11,,,,,1,4,20,10,0,0,0,0,,,2,3.684359653998399,1,0.8349199289950775,2,1.7506395660020644,3,2.118520081996394,,,017,001,2019_May_09_1618,MusicAffectPsychophysiology2019,3.0.5,59.69909031747748,
To what extent did the music make you feel ,ASHAMED,30MonoWAV/30MonoS3.wav,1,1,3,11,,,,,1,4,20,10,0,1,1,4,,,,,,,,,2,1.0685075709989178,,,017,001,2019_May_09_1618,MusicAffectPsychophysiology2019,3.0.5,59.69909031747748,
To what extent did the music make you feel ,ANGRY,30MonoWAV/30MonoS3.wav,1,1,3,11,,,,,1,4,20,10,0,2,2,2,,,,,,,,,1,0.852119583003514,,,017,001,2019_May_09_1618,MusicAffectPsychophysiology2019,3.0.5,59.69909031747748,
To what extent did the music make you feel ,ALERT,30MonoWAV/30MonoS3.wav,1,1,3,11,,,,,1,4,20,10,0,3,3,8,,,,,,,,,3,1.036239665998437,,,017,001,2019_May_09_1618,MusicAffectPsychophysiology2019,3.0.5,59.69909031747748,
To what extent did the music make you feel ,HAPPY,30MonoWAV/30MonoS3.wav,1,1,3,11,,,,,1,4,20,10,0,4,4,6,,,,,,,,,1,0.7346057859977009,,,017,001,2019_May_09_1618,MusicAffectPsychophysiology2019,3.0.5,59.69909031747748,
To what extent did the music make you feel ,GUILTY,30MonoWAV/30MonoS3.wav,1,1,3,11,,,,,1,4,20,10,0,5,5,5,,,,,,,,,2,0.8518447960013873,,,017,001,2019_May_09_1618,MusicAffectPsychophysiology2019,3.0.5,59.69909031747748,
To what extent did the music make you feel ,SCARED,30MonoWAV/30MonoS3.wav,1,1,3,11,,,,,1,4,20,10,0,6,6,11,,,,,,,,,3,0.9890242360052071,,,017,001,2019_May_09_1618,MusicAffectPsychophysiology2019,3.0.5,59.69909031747748,
To what extent did the music make you feel ,TENDER,30MonoWAV/30MonoS3.wav,1,1,3,11,,,,,1,4,20,10,0,7,7,10,,,,,,,,,1,1.0018559330055723,,,017,001,2019_May_09_1618,MusicAffectPsychophysiology2019,3.0.5,59.69909031747748,
To what extent did the music make you feel ,ACTIVE,30MonoWAV/30MonoS3.wav,1,1,3,11,,,,,1,4,20,10,0,8,8,9,,,,,,,,,1,1.0020925549979438,,,017,001,2019_May_09_1618,MusicAffectPsychophysiology2019,3.0.5,59.69909031747748,
To what extent did the music make you feel ,EXCITED,30MonoWAV/30MonoS3.wav,1,1,3,11,,,,,1,4,20,10,0,9,9,7,,,,,,,,,1,1.0364230720006162,,,017,001,2019_May_09_1618,MusicAffectPsychophysiology2019,3.0.5,59.69909031747748,
To what extent did the music make you feel ,ANXIOUS ,30MonoWAV/30MonoS3.wav,1,1,3,11,,,,,1,4,20,10,0,10,10,1,,,,,,,,,2,0.8350515350030037,,,017,001,2019_May_09_1618,MusicAffectPsychophysiology2019,3.0.5,59.69909031747748,
To what extent did the music make you feel ,FRUSTRATED,30MonoWAV/30MonoS3.wav,1,1,3,11,,,,,1,4,20,10,0,11,11,3,,,,,,,,,1,1.4034536920007668,,,017,001,2019_May_09_1618,MusicAffectPsychophysiology2019,3.0.5,59.69909031747748,
,,30MonoWAV/30MonoS3.wav,1,1,3,11,,,,,1,4,20,10,,,,,,,,,,,,,,,,,017,001,2019_May_09_1618,MusicAffectPsychophysiology2019,3.0.5,59.69909031747748,
To what extent did the music make you feel ,ANXIOUS ,30MonoWAV/30MonoS4.wav,1,1,3,12,,,,,1,5,21,11,0,0,0,1,,,1,13.651736592000816,1,0.8029598380016978,2,1.8854204380040755,2,2.4178748990016175,,,017,001,2019_May_09_1618,MusicAffectPsychophysiology2019,3.0.5,59.69909031747748,
To what extent did the music make you feel ,FRUSTRATED,30MonoWAV/30MonoS4.wav,1,1,3,12,,,,,1,5,21,11,0,1,1,3,,,,,,,,,1,1.0521496430010302,,,017,001,2019_May_09_1618,MusicAffectPsychophysiology2019,3.0.5,59.69909031747748,
To what extent did the music make you feel ,HAPPY,30MonoWAV/30MonoS4.wav,1,1,3,12,,,,,1,5,21,11,0,2,2,6,,,,,,,,,1,0.6690456770011224,,,017,001,2019_May_09_1618,MusicAffectPsychophysiology2019,3.0.5,59.69909031747748,
To what extent did the music make you feel ,ANGRY,30MonoWAV/30MonoS4.wav,1,1,3,12,,,,,1,5,21,11,0,3,3,2,,,,,,,,,1,0.8516359440036467,,,017,001,2019_May_09_1618,MusicAffectPsychophysiology2019,3.0.5,59.69909031747748,
To what extent did the music make you feel ,EXCITED,30MonoWAV/30MonoS4.wav,1,1,3,12,,,,,1,5,21,11,0,4,4,7,,,,,,,,,1,0.8687541569961468,,,017,001,2019_May_09_1618,MusicAffectPsychophysiology2019,3.0.5,59.69909031747748,
To what extent did the music make you feel ,SCARED,30MonoWAV/30MonoS4.wav,1,1,3,12,,,,,1,5,21,11,0,5,5,11,,,,,,,,,2,1.1849641950029763,,,017,001,2019_May_09_1618,MusicAffectPsychophysiology2019,3.0.5,59.69909031747748,
To what extent did the music make you feel ,ALERT,30MonoWAV/30MonoS4.wav,1,1,3,12,,,,,1,5,21,11,0,6,6,8,,,,,,,,,2,0.8018812840018654,,,017,001,2019_May_09_1618,MusicAffectPsychophysiology2019,3.0.5,59.69909031747748,
To what extent did the music make you feel ,SAD,30MonoWAV/30MonoS4.wav,1,1,3,12,,,,,1,5,21,11,0,7,7,0,,,,,,,,,2,0.6022007090068655,,,017,001,2019_May_09_1618,MusicAffectPsychophysiology2019,3.0.5,59.69909031747748,
To what extent did the music make you feel ,ACTIVE,30MonoWAV/30MonoS4.wav,1,1,3,12,,,,,1,5,21,11,0,8,8,9,,,,,,,,,1,1.901739818000351,,,017,001,2019_May_09_1618,MusicAffectPsychophysiology2019,3.0.5,59.69909031747748,
To what extent did the music make you feel ,GUILTY,30MonoWAV/30MonoS4.wav,1,1,3,12,,,,,1,5,21,11,0,9,9,5,,,,,,,,,3,0.9184792890009703,,,017,001,2019_May_09_1618,MusicAffectPsychophysiology2019,3.0.5,59.69909031747748,
To what extent did the music make you feel ,ASHAMED,30MonoWAV/30MonoS4.wav,1,1,3,12,,,,,1,5,21,11,0,10,10,4,,,,,,,,,3,1.002739006995398,,,017,001,2019_May_09_1618,MusicAffectPsychophysiology2019,3.0.5,59.69909031747748,
To what extent did the music make you feel ,TENDER,30MonoWAV/30MonoS4.wav,1,1,3,12,,,,,1,5,21,11,0,11,11,10,,,,,,,,,1,0.8692208499996923,,,017,001,2019_May_09_1618,MusicAffectPsychophysiology2019,3.0.5,59.69909031747748,
,,30MonoWAV/30MonoS4.wav,1,1,3,12,,,,,1,5,21,11,,,,,,,,,,,,,,,,,017,001,2019_May_09_1618,MusicAffectPsychophysiology2019,3.0.5,59.69909031747748,
To what extent did the music make you feel ,ANGRY,30MonoWAV/30MonoT1.wav,2,1,4,13,,,,,1,6,22,12,0,0,0,2,,,1,2.1687089030019706,1,1.533403534005629,1,1.618406818000949,1,1.76920635800343,,,017,001,2019_May_09_1618,MusicAffectPsychophysiology2019,3.0.5,59.69909031747748,
To what extent did the music make you feel ,SCARED,30MonoWAV/30MonoT1.wav,2,1,4,13,,,,,1,6,22,12,0,1,1,11,,,,,,,,,2,1.035691659002623,,,017,001,2019_May_09_1618,MusicAffectPsychophysiology2019,3.0.5,59.69909031747748,
To what extent did the music make you feel ,ACTIVE,30MonoWAV/30MonoT1.wav,2,1,4,13,,,,,1,6,22,12,0,2,2,9,,,,,,,,,1,1.3185263920022408,,,017,001,2019_May_09_1618,MusicAffectPsychophysiology2019,3.0.5,59.69909031747748,
To what extent did the music make you feel ,GUILTY,30MonoWAV/30MonoT1.wav,2,1,4,13,,,,,1,6,22,12,0,3,3,5,,,,,,,,,2,1.2023567180003738,,,017,001,2019_May_09_1618,MusicAffectPsychophysiology2019,3.0.5,59.69909031747748,
To what extent did the music make you feel ,SAD,30MonoWAV/30MonoT1.wav,2,1,4,13,,,,,1,6,22,12,0,4,4,0,,,,,,,,,3,1.601912698999513,,,017,001,2019_May_09_1618,MusicAffectPsychophysiology2019,3.0.5,59.69909031747748,
To what extent did the music make you feel ,TENDER,30MonoWAV/30MonoT1.wav,2,1,4,13,,,,,1,6,22,12,0,5,5,10,,,,,,,,,1,0.7018804979961715,,,017,001,2019_May_09_1618,MusicAffectPsychophysiology2019,3.0.5,59.69909031747748,
To what extent did the music make you feel ,HAPPY,30MonoWAV/30MonoT1.wav,2,1,4,13,,,,,1,6,22,12,0,6,6,6,,,,,,,,,1,0.8521602800028631,,,017,001,2019_May_09_1618,MusicAffectPsychophysiology2019,3.0.5,59.69909031747748,
To what extent did the music make you feel ,EXCITED,30MonoWAV/30MonoT1.wav,2,1,4,13,,,,,1,6,22,12,0,7,7,7,,,,,,,,,2,0.8685257280012593,,,017,001,2019_May_09_1618,MusicAffectPsychophysiology2019,3.0.5,59.69909031747748,
To what extent did the music make you feel ,ALERT,30MonoWAV/30MonoT1.wav,2,1,4,13,,,,,1,6,22,12,0,8,8,8,,,,,,,,,3,1.0514980109946919,,,017,001,2019_May_09_1618,MusicAffectPsychophysiology2019,3.0.5,59.69909031747748,
To what extent did the music make you feel ,ASHAMED,30MonoWAV/30MonoT1.wav,2,1,4,13,,,,,1,6,22,12,0,9,9,4,,,,,,,,,1,2.2179862470002263,,,017,001,2019_May_09_1618,MusicAffectPsychophysiology2019,3.0.5,59.69909031747748,
To what extent did the music make you feel ,FRUSTRATED,30MonoWAV/30MonoT1.wav,2,1,4,13,,,,,1,6,22,12,0,10,10,3,,,,,,,,,1,0.9507752739955322,,,017,001,2019_May_09_1618,MusicAffectPsychophysiology2019,3.0.5,59.69909031747748,
To what extent did the music make you feel ,ANXIOUS ,30MonoWAV/30MonoT1.wav,2,1,4,13,,,,,1,6,22,12,0,11,11,1,,,,,,,,,3,1.3352336620009737,,,017,001,2019_May_09_1618,MusicAffectPsychophysiology2019,3.0.5,59.69909031747748,
,,30MonoWAV/30MonoT1.wav,2,1,4,13,,,,,1,6,22,12,,,,,,,,,,,,,,,,,017,001,2019_May_09_1618,MusicAffectPsychophysiology2019,3.0.5,59.69909031747748,
To what extent did the music make you feel ,ANXIOUS ,30MonoWAV/30MonoH4.wav,2,2,1,8,,,,,1,7,23,7,0,0,0,1,,,4,2.918446658004541,4,1.4019837579980958,3,1.4840362059985637,2,1.5180569290023413,,,017,001,2019_May_09_1618,MusicAffectPsychophysiology2019,3.0.5,59.69909031747748,
To what extent did the music make you feel ,SCARED,30MonoWAV/30MonoH4.wav,2,2,1,8,,,,,1,7,23,7,0,1,1,11,,,,,,,,,1,1.434401001999504,,,017,001,2019_May_09_1618,MusicAffectPsychophysiology2019,3.0.5,59.69909031747748,
To what extent did the music make you feel ,TENDER,30MonoWAV/30MonoH4.wav,2,2,1,8,,,,,1,7,23,7,0,2,2,10,,,,,,,,,2,0.9681547870059148,,,017,001,2019_May_09_1618,MusicAffectPsychophysiology2019,3.0.5,59.69909031747748,
To what extent did the music make you feel ,FRUSTRATED,30MonoWAV/30MonoH4.wav,2,2,1,8,,,,,1,7,23,7,0,3,3,3,,,,,,,,,1,1.0504785059965798,,,017,001,2019_May_09_1618,MusicAffectPsychophysiology2019,3.0.5,59.69909031747748,
To what extent did the music make you feel ,ACTIVE,30MonoWAV/30MonoH4.wav,2,2,1,8,,,,,1,7,23,7,0,4,4,9,,,,,,,,,3,1.2368283230025554,,,017,001,2019_May_09_1618,MusicAffectPsychophysiology2019,3.0.5,59.69909031747748,
To what extent did the music make you feel ,SAD,30MonoWAV/30MonoH4.wav,2,2,1,8,,,,,1,7,23,7,0,5,5,0,,,,,,,,,2,1.5169499129988253,,,017,001,2019_May_09_1618,MusicAffectPsychophysiology2019,3.0.5,59.69909031747748,
To what extent did the music make you feel ,HAPPY,30MonoWAV/30MonoH4.wav,2,2,1,8,,,,,1,7,23,7,0,6,6,6,,,,,,,,,4,1.152119403006509,,,017,001,2019_May_09_1618,MusicAffectPsychophysiology2019,3.0.5,59.69909031747748,
To what extent did the music make you feel ,ALERT,30MonoWAV/30MonoH4.wav,2,2,1,8,,,,,1,7,23,7,0,7,7,8,,,,,,,,,3,0.9679770079965238,,,017,001,2019_May_09_1618,MusicAffectPsychophysiology2019,3.0.5,59.69909031747748,
To what extent did the music make you feel ,EXCITED,30MonoWAV/30MonoH4.wav,2,2,1,8,,,,,1,7,23,7,0,8,8,7,,,,,,,,,4,0.8682314279940329,,,017,001,2019_May_09_1618,MusicAffectPsychophysiology2019,3.0.5,59.69909031747748,
To what extent did the music make you feel ,ANGRY,30MonoWAV/30MonoH4.wav,2,2,1,8,,,,,1,7,23,7,0,9,9,2,,,,,,,,,1,0.8861804979969747,,,017,001,2019_May_09_1618,MusicAffectPsychophysiology2019,3.0.5,59.69909031747748,
To what extent did the music make you feel ,GUILTY,30MonoWAV/30MonoH4.wav,2,2,1,8,,,,,1,7,23,7,0,10,10,5,,,,,,,,,1,0.8846794950004551,,,017,001,2019_May_09_1618,MusicAffectPsychophysiology2019,3.0.5,59.69909031747748,
To what extent did the music make you feel ,ASHAMED,30MonoWAV/30MonoH4.wav,2,2,1,8,,,,,1,7,23,7,0,11,11,4,,,,,,,,,1,0.961491982001462,,,017,001,2019_May_09_1618,MusicAffectPsychophysiology2019,3.0.5,59.69909031747748,
,,30MonoWAV/30MonoH4.wav,2,2,1,8,,,,,1,7,23,7,,,,,,,,,,,,,,,,,017,001,2019_May_09_1618,MusicAffectPsychophysiology2019,3.0.5,59.69909031747748,
To what extent did the music make you feel ,SAD,30MonoWAV/30MonoT2.wav,2,1,4,14,,,,,1,8,24,13,0,0,0,0,,,3,2.484288423001999,2,1.301541206004913,2,1.47303725600068,2,1.6203247230005218,,,017,001,2019_May_09_1618,MusicAffectPsychophysiology2019,3.0.5,59.69909031747748,
To what extent did the music make you feel ,ACTIVE,30MonoWAV/30MonoT2.wav,2,1,4,14,,,,,1,8,24,13,0,1,1,9,,,,,,,,,1,0.986020541000471,,,017,001,2019_May_09_1618,MusicAffectPsychophysiology2019,3.0.5,59.69909031747748,
To what extent did the music make you feel ,FRUSTRATED,30MonoWAV/30MonoT2.wav,2,1,4,14,,,,,1,8,24,13,0,2,2,3,,,,,,,,,1,0.9696062650036765,,,017,001,2019_May_09_1618,MusicAffectPsychophysiology2019,3.0.5,59.69909031747748,
To what extent did the music make you feel ,SCARED,30MonoWAV/30MonoT2.wav,2,1,4,14,,,,,1,8,24,13,0,3,3,11,,,,,,,,,2,1.2372581290037488,,,017,001,2019_May_09_1618,MusicAffectPsychophysiology2019,3.0.5,59.69909031747748,
To what extent did the music make you feel ,ASHAMED,30MonoWAV/30MonoT2.wav,2,1,4,14,,,,,1,8,24,13,0,4,4,4,,,,,,,,,3,0.9361417269974481,,,017,001,2019_May_09_1618,MusicAffectPsychophysiology2019,3.0.5,59.69909031747748,
To what extent did the music make you feel ,TENDER,30MonoWAV/30MonoT2.wav,2,1,4,14,,,,,1,8,24,13,0,5,5,10,,,,,,,,,3,0.9065155350035639,,,017,001,2019_May_09_1618,MusicAffectPsychophysiology2019,3.0.5,59.69909031747748,
To what extent did the music make you feel ,EXCITED,30MonoWAV/30MonoT2.wav,2,1,4,14,,,,,1,8,24,13,0,6,6,7,,,,,,,,,3,1.4355451239971444,,,017,001,2019_May_09_1618,MusicAffectPsychophysiology2019,3.0.5,59.69909031747748,
To what extent did the music make you feel ,ANXIOUS ,30MonoWAV/30MonoT2.wav,2,1,4,14,,,,,1,8,24,13,0,7,7,1,,,,,,,,,1,0.8162506910011871,,,017,001,2019_May_09_1618,MusicAffectPsychophysiology2019,3.0.5,59.69909031747748,
To what extent did the music make you feel ,ANGRY,30MonoWAV/30MonoT2.wav,2,1,4,14,,,,,1,8,24,13,0,8,8,2,,,,,,,,,2,1.2183825419997447,,,017,001,2019_May_09_1618,MusicAffectPsychophysiology2019,3.0.5,59.69909031747748,
To what extent did the music make you feel ,HAPPY,30MonoWAV/30MonoT2.wav,2,1,4,14,,,,,1,8,24,13,0,9,9,6,,,,,,,,,3,1.150983505001932,,,017,001,2019_May_09_1618,MusicAffectPsychophysiology2019,3.0.5,59.69909031747748,
To what extent did the music make you feel ,ALERT,30MonoWAV/30MonoT2.wav,2,1,4,14,,,,,1,8,24,13,0,10,10,8,,,,,,,,,4,1.0002668460001587,,,017,001,2019_May_09_1618,MusicAffectPsychophysiology2019,3.0.5,59.69909031747748,
To what extent did the music make you feel ,GUILTY,30MonoWAV/30MonoT2.wav,2,1,4,14,,,,,1,8,24,13,0,11,11,5,,,,,,,,,1,2.08378598800482,,,017,001,2019_May_09_1618,MusicAffectPsychophysiology2019,3.0.5,59.69909031747748,
,,30MonoWAV/30MonoT2.wav,2,1,4,14,,,,,1,8,24,13,,,,,,,,,,,,,,,,,017,001,2019_May_09_1618,MusicAffectPsychophysiology2019,3.0.5,59.69909031747748,
To what extent did the music make you feel ,SAD,30MonoWAV/30MonoF2.wav,1,2,2,2,,,,,1,9,25,1,0,0,0,0,,,2,5.140342306003731,1,0.06877338699996471,1,1.6846269169982406,2,1.984742071996152,,,017,001,2019_May_09_1618,MusicAffectPsychophysiology2019,3.0.5,59.69909031747748,
To what extent did the music make you feel ,TENDER,30MonoWAV/30MonoF2.wav,1,2,2,2,,,,,1,9,25,1,0,1,1,10,,,,,,,,,1,0.7842692519989214,,,017,001,2019_May_09_1618,MusicAffectPsychophysiology2019,3.0.5,59.69909031747748,
To what extent did the music make you feel ,ANXIOUS ,30MonoWAV/30MonoF2.wav,1,2,2,2,,,,,1,9,25,1,0,2,2,1,,,,,,,,,3,0.884651809996285,,,017,001,2019_May_09_1618,MusicAffectPsychophysiology2019,3.0.5,59.69909031747748,
To what extent did the music make you feel ,EXCITED,30MonoWAV/30MonoF2.wav,1,2,2,2,,,,,1,9,25,1,0,3,3,7,,,,,,,,,1,1.3664953219995368,,,017,001,2019_May_09_1618,MusicAffectPsychophysiology2019,3.0.5,59.69909031747748,
To what extent did the music make you feel ,ALERT,30MonoWAV/30MonoF2.wav,1,2,2,2,,,,,1,9,25,1,0,4,4,8,,,,,,,,,3,1.3519770970015088,,,017,001,2019_May_09_1618,MusicAffectPsychophysiology2019,3.0.5,59.69909031747748,
To what extent did the music make you feel ,ASHAMED,30MonoWAV/30MonoF2.wav,1,2,2,2,,,,,1,9,25,1,0,5,5,4,,,,,,,,,1,0.984287024999503,,,017,001,2019_May_09_1618,MusicAffectPsychophysiology2019,3.0.5,59.69909031747748,
To what extent did the music make you feel ,FRUSTRATED,30MonoWAV/30MonoF2.wav,1,2,2,2,,,,,1,9,25,1,0,6,6,3,,,,,,,,,3,1.0850348219973966,,,017,001,2019_May_09_1618,MusicAffectPsychophysiology2019,3.0.5,59.69909031747748,
To what extent did the music make you feel ,SCARED,30MonoWAV/30MonoF2.wav,1,2,2,2,,,,,1,9,25,1,0,7,7,11,,,,,,,,,4,0.9512799250005628,,,017,001,2019_May_09_1618,MusicAffectPsychophysiology2019,3.0.5,59.69909031747748,
To what extent did the music make you feel ,ANGRY,30MonoWAV/30MonoF2.wav,1,2,2,2,,,,,1,9,25,1,0,8,8,2,,,,,,,,,1,0.9184322349974536,,,017,001,2019_May_09_1618,MusicAffectPsychophysiology2019,3.0.5,59.69909031747748,
To what extent did the music make you feel ,GUILTY,30MonoWAV/30MonoF2.wav,1,2,2,2,,,,,1,9,25,1,0,9,9,5,,,,,,,,,1,1.718257505002839,,,017,001,2019_May_09_1618,MusicAffectPsychophysiology2019,3.0.5,59.69909031747748,
To what extent did the music make you feel ,HAPPY,30MonoWAV/30MonoF2.wav,1,2,2,2,,,,,1,9,25,1,0,10,10,6,,,,,,,,,1,0.7676889659996959,,,017,001,2019_May_09_1618,MusicAffectPsychophysiology2019,3.0.5,59.69909031747748,
To what extent did the music make you feel ,ACTIVE,30MonoWAV/30MonoF2.wav,1,2,2,2,,,,,1,9,25,1,0,11,11,9,,,,,,,,,1,0.901819497004908,,,017,001,2019_May_09_1618,MusicAffectPsychophysiology2019,3.0.5,59.69909031747748,
,,30MonoWAV/30MonoF2.wav,1,2,2,2,,,,,1,9,25,1,,,,,,,,,,,,,,,,,017,001,2019_May_09_1618,MusicAffectPsychophysiology2019,3.0.5,59.69909031747748,
To what extent did the music make you feel ,ASHAMED,30MonoWAV/30MonoH2.wav,2,2,1,6,,,,,1,10,26,5,0,0,0,4,,,3,7.944132172997342,3,0.2172625900057028,2,2.6046535549976397,1,1.5370482779981103,,,017,001,2019_May_09_1618,MusicAffectPsychophysiology2019,3.0.5,59.69909031747748,
To what extent did the music make you feel ,GUILTY,30MonoWAV/30MonoH2.wav,2,2,1,6,,,,,1,10,26,5,0,1,1,5,,,,,,,,,1,0.7193517030027579,,,017,001,2019_May_09_1618,MusicAffectPsychophysiology2019,3.0.5,59.69909031747748,
To what extent did the music make you feel ,ALERT,30MonoWAV/30MonoH2.wav,2,2,1,6,,,,,1,10,26,5,0,2,2,8,,,,,,,,,2,0.7689508590046898,,,017,001,2019_May_09_1618,MusicAffectPsychophysiology2019,3.0.5,59.69909031747748,
To what extent did the music make you feel ,FRUSTRATED,30MonoWAV/30MonoH2.wav,2,2,1,6,,,,,1,10,26,5,0,3,3,3,,,,,,,,,1,1.8536242109985324,,,017,001,2019_May_09_1618,MusicAffectPsychophysiology2019,3.0.5,59.69909031747748,
To what extent did the music make you feel ,HAPPY,30MonoWAV/30MonoH2.wav,2,2,1,6,,,,,1,10,26,5,0,4,4,6,,,,,,,,,1,1.203140264005924,,,017,001,2019_May_09_1618,MusicAffectPsychophysiology2019,3.0.5,59.69909031747748,
To what extent did the music make you feel ,TENDER,30MonoWAV/30MonoH2.wav,2,2,1,6,,,,,1,10,26,5,0,5,5,10,,,,,,,,,2,0.9700191089941654,,,017,001,2019_May_09_1618,MusicAffectPsychophysiology2019,3.0.5,59.69909031747748,
To what extent did the music make you feel ,ANGRY,30MonoWAV/30MonoH2.wav,2,2,1,6,,,,,1,10,26,5,0,6,6,2,,,,,,,,,1,1.2065335770021193,,,017,001,2019_May_09_1618,MusicAffectPsychophysiology2019,3.0.5,59.69909031747748,
To what extent did the music make you feel ,SAD,30MonoWAV/30MonoH2.wav,2,2,1,6,,,,,1,10,26,5,0,7,7,0,,,,,,,,,2,1.8187931830034358,,,017,001,2019_May_09_1618,MusicAffectPsychophysiology2019,3.0.5,59.69909031747748,
To what extent did the music make you feel ,SCARED,30MonoWAV/30MonoH2.wav,2,2,1,6,,,,,1,10,26,5,0,8,8,11,,,,,,,,,3,0.9029300850015716,,,017,001,2019_May_09_1618,MusicAffectPsychophysiology2019,3.0.5,59.69909031747748,
To what extent did the music make you feel ,ACTIVE,30MonoWAV/30MonoH2.wav,2,2,1,6,,,,,1,10,26,5,0,9,9,9,,,,,,,,,4,1.2854786479947506,,,017,001,2019_May_09_1618,MusicAffectPsychophysiology2019,3.0.5,59.69909031747748,
To what extent did the music make you feel ,EXCITED,30MonoWAV/30MonoH2.wav,2,2,1,6,,,,,1,10,26,5,0,10,10,7,,,,,,,,,4,1.4176804979942972,,,017,001,2019_May_09_1618,MusicAffectPsychophysiology2019,3.0.5,59.69909031747748,
To what extent did the music make you feel ,ANXIOUS ,30MonoWAV/30MonoH2.wav,2,2,1,6,,,,,1,10,26,5,0,11,11,1,,,,,,,,,4,0.7687657630012836,,,017,001,2019_May_09_1618,MusicAffectPsychophysiology2019,3.0.5,59.69909031747748,
,,30MonoWAV/30MonoH2.wav,2,2,1,6,,,,,1,10,26,5,,,,,,,,,,,,,,,,,017,001,2019_May_09_1618,MusicAffectPsychophysiology2019,3.0.5,59.69909031747748,
To what extent did the music make you feel ,FRUSTRATED,30MonoWAV/30MonoH3.wav,2,2,1,7,,,,,1,11,27,6,0,0,0,3,,,4,3.4085311489980086,5,0.7512976689977222,5,1.0015375199945993,1,2.1018258609983604,,,017,001,2019_May_09_1618,MusicAffectPsychophysiology2019,3.0.5,59.69909031747748,
To what extent did the music make you feel ,ANXIOUS ,30MonoWAV/30MonoH3.wav,2,2,1,7,,,,,1,11,27,6,0,1,1,1,,,,,,,,,2,1.1516281899966998,,,017,001,2019_May_09_1618,MusicAffectPsychophysiology2019,3.0.5,59.69909031747748,
To what extent did the music make you feel ,ASHAMED,30MonoWAV/30MonoH3.wav,2,2,1,7,,,,,1,11,27,6,0,2,2,4,,,,,,,,,1,0.7855815779985278,,,017,001,2019_May_09_1618,MusicAffectPsychophysiology2019,3.0.5,59.69909031747748,
To what extent did the music make you feel ,ALERT,30MonoWAV/30MonoH3.wav,2,2,1,7,,,,,1,11,27,6,0,3,3,8,,,,,,,,,3,0.8347229819992208,,,017,001,2019_May_09_1618,MusicAffectPsychophysiology2019,3.0.5,59.69909031747748,
To what extent did the music make you feel ,GUILTY,30MonoWAV/30MonoH3.wav,2,2,1,7,,,,,1,11,27,6,0,4,4,5,,,,,,,,,1,0.8177732350013684,,,017,001,2019_May_09_1618,MusicAffectPsychophysiology2019,3.0.5,59.69909031747748,
To what extent did the music make you feel ,SCARED,30MonoWAV/30MonoH3.wav,2,2,1,7,,,,,1,11,27,6,0,5,5,11,,,,,,,,,2,1.1018858209936297,,,017,001,2019_May_09_1618,MusicAffectPsychophysiology2019,3.0.5,59.69909031747748,
To what extent did the music make you feel ,EXCITED,30MonoWAV/30MonoH3.wav,2,2,1,7,,,,,1,11,27,6,0,6,6,7,,,,,,,,,4,1.0684852279955521,,,017,001,2019_May_09_1618,MusicAffectPsychophysiology2019,3.0.5,59.69909031747748,
To what extent did the music make you feel ,ACTIVE,30MonoWAV/30MonoH3.wav,2,2,1,7,,,,,1,11,27,6,0,7,7,9,,,,,,,,,4,1.6355077059997711,,,017,001,2019_May_09_1618,MusicAffectPsychophysiology2019,3.0.5,59.69909031747748,
To what extent did the music make you feel ,HAPPY,30MonoWAV/30MonoH3.wav,2,2,1,7,,,,,1,11,27,6,0,8,8,6,,,,,,,,,3,0.8849798929950339,,,017,001,2019_May_09_1618,MusicAffectPsychophysiology2019,3.0.5,59.69909031747748,
To what extent did the music make you feel ,SAD,30MonoWAV/30MonoH3.wav,2,2,1,7,,,,,1,11,27,6,0,9,9,0,,,,,,,,,1,0.7192840460047591,,,017,001,2019_May_09_1618,MusicAffectPsychophysiology2019,3.0.5,59.69909031747748,
To what extent did the music make you feel ,ANGRY,30MonoWAV/30MonoH3.wav,2,2,1,7,,,,,1,11,27,6,0,10,10,2,,,,,,,,,1,0.816557060003106,,,017,001,2019_May_09_1618,MusicAffectPsychophysiology2019,3.0.5,59.69909031747748,
To what extent did the music make you feel ,TENDER,30MonoWAV/30MonoH3.wav,2,2,1,7,,,,,1,11,27,6,0,11,11,10,,,,,,,,,2,0.751575595997565,,,017,001,2019_May_09_1618,MusicAffectPsychophysiology2019,3.0.5,59.69909031747748,
,,30MonoWAV/30MonoH3.wav,2,2,1,7,,,,,1,11,27,6,,,,,,,,,,,,,,,,,017,001,2019_May_09_1618,MusicAffectPsychophysiology2019,3.0.5,59.69909031747748,
To what extent did the music make you feel ,FRUSTRATED,30MonoWAV/30MonoF4.wav,1,2,2,4,,,,,1,12,28,3,0,0,0,3,,,4,2.6519074129973887,3,2.1024753259989666,4,1.1678626169959898,1,1.5755010020002373,,,017,001,2019_May_09_1618,MusicAffectPsychophysiology2019,3.0.5,59.69909031747748,
To what extent did the music make you feel ,ACTIVE,30MonoWAV/30MonoF4.wav,1,2,2,4,,,,,1,12,28,3,0,1,1,9,,,,,,,,,4,1.1848759560016333,,,017,001,2019_May_09_1618,MusicAffectPsychophysiology2019,3.0.5,59.69909031747748,
To what extent did the music make you feel ,ANXIOUS ,30MonoWAV/30MonoF4.wav,1,2,2,4,,,,,1,12,28,3,0,2,2,1,,,,,,,,,5,0.7503357880050316,,,017,001,2019_May_09_1618,MusicAffectPsychophysiology2019,3.0.5,59.69909031747748,
To what extent did the music make you feel ,ALERT,30MonoWAV/30MonoF4.wav,1,2,2,4,,,,,1,12,28,3,0,3,3,8,,,,,,,,,5,0.7999456850011484,,,017,001,2019_May_09_1618,MusicAffectPsychophysiology2019,3.0.5,59.69909031747748,
To what extent did the music make you feel ,SCARED,30MonoWAV/30MonoF4.wav,1,2,2,4,,,,,1,12,28,3,0,4,4,11,,,,,,,,,1,0.7518318029979127,,,017,001,2019_May_09_1618,MusicAffectPsychophysiology2019,3.0.5,59.69909031747748,
To what extent did the music make you feel ,ANGRY,30MonoWAV/30MonoF4.wav,1,2,2,4,,,,,1,12,28,3,0,5,5,2,,,,,,,,,2,0.7011942870012717,,,017,001,2019_May_09_1618,MusicAffectPsychophysiology2019,3.0.5,59.69909031747748,
To what extent did the music make you feel ,EXCITED,30MonoWAV/30MonoF4.wav,1,2,2,4,,,,,1,12,28,3,0,6,6,7,,,,,,,,,4,0.8354539229985676,,,017,001,2019_May_09_1618,MusicAffectPsychophysiology2019,3.0.5,59.69909031747748,
To what extent did the music make you feel ,TENDER,30MonoWAV/30MonoF4.wav,1,2,2,4,,,,,1,12,28,3,0,7,7,10,,,,,,,,,1,1.7375881879997905,,,017,001,2019_May_09_1618,MusicAffectPsychophysiology2019,3.0.5,59.69909031747748,
To what extent did the music make you feel ,GUILTY,30MonoWAV/30MonoF4.wav,1,2,2,4,,,,,1,12,28,3,0,8,8,5,,,,,,,,,1,1.5862180859985529,,,017,001,2019_May_09_1618,MusicAffectPsychophysiology2019,3.0.5,59.69909031747748,
To what extent did the music make you feel ,SAD,30MonoWAV/30MonoF4.wav,1,2,2,4,,,,,1,12,28,3,0,9,9,0,,,,,,,,,1,1.0029628539996338,,,017,001,2019_May_09_1618,MusicAffectPsychophysiology2019,3.0.5,59.69909031747748,
To what extent did the music make you feel ,ASHAMED,30MonoWAV/30MonoF4.wav,1,2,2,4,,,,,1,12,28,3,0,10,10,4,,,,,,,,,1,0.7703201979966252,,,017,001,2019_May_09_1618,MusicAffectPsychophysiology2019,3.0.5,59.69909031747748,
To what extent did the music make you feel ,HAPPY,30MonoWAV/30MonoF4.wav,1,2,2,4,,,,,1,12,28,3,0,11,11,6,,,,,,,,,3,0.9853305849974276,,,017,001,2019_May_09_1618,MusicAffectPsychophysiology2019,3.0.5,59.69909031747748,
,,30MonoWAV/30MonoF4.wav,1,2,2,4,,,,,1,12,28,3,,,,,,,,,,,,,,,,,017,001,2019_May_09_1618,MusicAffectPsychophysiology2019,3.0.5,59.69909031747748,
To what extent did the music make you feel ,SAD,30MonoWAV/30MonoT4.wav,2,1,4,16,,,,,1,13,29,15,0,0,0,0,,,2,4.900581526002497,2,0.9681690969955525,1,1.8182987440013676,3,2.301102101999277,,,017,001,2019_May_09_1618,MusicAffectPsychophysiology2019,3.0.5,59.69909031747748,
To what extent did the music make you feel ,EXCITED,30MonoWAV/30MonoT4.wav,2,1,4,16,,,,,1,13,29,15,0,1,1,7,,,,,,,,,2,1.0347536359986407,,,017,001,2019_May_09_1618,MusicAffectPsychophysiology2019,3.0.5,59.69909031747748,
To what extent did the music make you feel ,ANXIOUS ,30MonoWAV/30MonoT4.wav,2,1,4,16,,,,,1,13,29,15,0,2,2,1,,,,,,,,,4,1.1346136020001722,,,017,001,2019_May_09_1618,MusicAffectPsychophysiology2019,3.0.5,59.69909031747748,
To what extent did the music make you feel ,ASHAMED,30MonoWAV/30MonoT4.wav,2,1,4,16,,,,,1,13,29,15,0,3,3,4,,,,,,,,,2,0.9021856849940377,,,017,001,2019_May_09_1618,MusicAffectPsychophysiology2019,3.0.5,59.69909031747748,
To what extent did the music make you feel ,SCARED,30MonoWAV/30MonoT4.wav,2,1,4,16,,,,,1,13,29,15,0,4,4,11,,,,,,,,,3,0.9016281779986457,,,017,001,2019_May_09_1618,MusicAffectPsychophysiology2019,3.0.5,59.69909031747748,
To what extent did the music make you feel ,FRUSTRATED,30MonoWAV/30MonoT4.wav,2,1,4,16,,,,,1,13,29,15,0,5,5,3,,,,,,,,,4,0.819649181998102,,,017,001,2019_May_09_1618,MusicAffectPsychophysiology2019,3.0.5,59.69909031747748,
To what extent did the music make you feel ,HAPPY,30MonoWAV/30MonoT4.wav,2,1,4,16,,,,,1,13,29,15,0,6,6,6,,,,,,,,,1,1.0026480480009923,,,017,001,2019_May_09_1618,MusicAffectPsychophysiology2019,3.0.5,59.69909031747748,
To what extent did the music make you feel ,ALERT,30MonoWAV/30MonoT4.wav,2,1,4,16,,,,,1,13,29,15,0,7,7,8,,,,,,,,,4,1.6345173250010703,,,017,001,2019_May_09_1618,MusicAffectPsychophysiology2019,3.0.5,59.69909031747748,
To what extent did the music make you feel ,GUILTY,30MonoWAV/30MonoT4.wav,2,1,4,16,,,,,1,13,29,15,0,8,8,5,,,,,,,,,2,1.0029027209966443,,,017,001,2019_May_09_1618,MusicAffectPsychophysiology2019,3.0.5,59.69909031747748,
To what extent did the music make you feel ,ACTIVE,30MonoWAV/30MonoT4.wav,2,1,4,16,,,,,1,13,29,15,0,9,9,9,,,,,,,,,1,1.1008056239952566,,,017,001,2019_May_09_1618,MusicAffectPsychophysiology2019,3.0.5,59.69909031747748,
To what extent did the music make you feel ,ANGRY,30MonoWAV/30MonoT4.wav,2,1,4,16,,,,,1,13,29,15,0,10,10,2,,,,,,,,,3,1.5347527139965678,,,017,001,2019_May_09_1618,MusicAffectPsychophysiology2019,3.0.5,59.69909031747748,
To what extent did the music make you feel ,TENDER,30MonoWAV/30MonoT4.wav,2,1,4,16,,,,,1,13,29,15,0,11,11,10,,,,,,,,,1,0.9012097070008167,,,017,001,2019_May_09_1618,MusicAffectPsychophysiology2019,3.0.5,59.69909031747748,
,,30MonoWAV/30MonoT4.wav,2,1,4,16,,,,,1,13,29,15,,,,,,,,,,,,,,,,,017,001,2019_May_09_1618,MusicAffectPsychophysiology2019,3.0.5,59.69909031747748,
To what extent did the music make you feel ,SCARED,30MonoWAV/30MonoF1.wav,1,2,2,1,,,,,1,14,30,0,0,0,0,11,,,4,2.5515336809985456,3,1.2692604340045364,3,1.2687621720033349,2,1.6514146010013064,,,017,001,2019_May_09_1618,MusicAffectPsychophysiology2019,3.0.5,59.69909031747748,
To what extent did the music make you feel ,ANGRY,30MonoWAV/30MonoF1.wav,1,2,2,1,,,,,1,14,30,0,0,1,1,2,,,,,,,,,1,0.8184122039965587,,,017,001,2019_May_09_1618,MusicAffectPsychophysiology2019,3.0.5,59.69909031747748,
To what extent did the music make you feel ,ALERT,30MonoWAV/30MonoF1.wav,1,2,2,1,,,,,1,14,30,0,0,2,2,8,,,,,,,,,3,0.8355388139971183,,,017,001,2019_May_09_1618,MusicAffectPsychophysiology2019,3.0.5,59.69909031747748,
To what extent did the music make you feel ,GUILTY,30MonoWAV/30MonoF1.wav,1,2,2,1,,,,,1,14,30,0,0,3,3,5,,,,,,,,,1,0.9011830800009193,,,017,001,2019_May_09_1618,MusicAffectPsychophysiology2019,3.0.5,59.69909031747748,
To what extent did the music make you feel ,HAPPY,30MonoWAV/30MonoF1.wav,1,2,2,1,,,,,1,14,30,0,0,4,4,6,,,,,,,,,2,0.9018591599960928,,,017,001,2019_May_09_1618,MusicAffectPsychophysiology2019,3.0.5,59.69909031747748,
To what extent did the music make you feel ,TENDER,30MonoWAV/30MonoF1.wav,1,2,2,1,,,,,1,14,30,0,0,5,5,10,,,,,,,,,1,0.7173644340000465,,,017,001,2019_May_09_1618,MusicAffectPsychophysiology2019,3.0.5,59.69909031747748,
To what extent did the music make you feel ,ASHAMED,30MonoWAV/30MonoF1.wav,1,2,2,1,,,,,1,14,30,0,0,6,6,4,,,,,,,,,1,0.8511684530021739,,,017,001,2019_May_09_1618,MusicAffectPsychophysiology2019,3.0.5,59.69909031747748,
To what extent did the music make you feel ,ACTIVE,30MonoWAV/30MonoF1.wav,1,2,2,1,,,,,1,14,30,0,0,7,7,9,,,,,,,,,4,0.7846715999985463,,,017,001,2019_May_09_1618,MusicAffectPsychophysiology2019,3.0.5,59.69909031747748,
To what extent did the music make you feel ,ANXIOUS ,30MonoWAV/30MonoF1.wav,1,2,2,1,,,,,1,14,30,0,0,8,8,1,,,,,,,,,5,0.5513858109989087,,,017,001,2019_May_09_1618,MusicAffectPsychophysiology2019,3.0.5,59.69909031747748,
To what extent did the music make you feel ,FRUSTRATED,30MonoWAV/30MonoF1.wav,1,2,2,1,,,,,1,14,30,0,0,9,9,3,,,,,,,,,2,1.6014290110033471,,,017,001,2019_May_09_1618,MusicAffectPsychophysiology2019,3.0.5,59.69909031747748,
To what extent did the music make you feel ,EXCITED,30MonoWAV/30MonoF1.wav,1,2,2,1,,,,,1,14,30,0,0,10,10,7,,,,,,,,,3,0.7512640170025406,,,017,001,2019_May_09_1618,MusicAffectPsychophysiology2019,3.0.5,59.69909031747748,
To what extent did the music make you feel ,SAD,30MonoWAV/30MonoF1.wav,1,2,2,1,,,,,1,14,30,0,0,11,11,0,,,,,,,,,4,1.05239404799795,,,017,001,2019_May_09_1618,MusicAffectPsychophysiology2019,3.0.5,59.69909031747748,
,,30MonoWAV/30MonoF1.wav,1,2,2,1,,,,,1,14,30,0,,,,,,,,,,,,,,,,,017,001,2019_May_09_1618,MusicAffectPsychophysiology2019,3.0.5,59.69909031747748,
To what extent did the music make you feel ,ACTIVE,30MonoWAV/30MonoS1.wav,1,1,3,9,,,,,1,15,31,8,0,0,0,9,,,2,5.03559092800424,1,1.0685505010042107,1,1.1018525269973907,2,2.6683752899989486,,,017,001,2019_May_09_1618,MusicAffectPsychophysiology2019,3.0.5,59.69909031747748,
To what extent did the music make you feel ,ALERT,30MonoWAV/30MonoS1.wav,1,1,3,9,,,,,1,15,31,8,0,1,1,8,,,,,,,,,3,0.8850832540047122,,,017,001,2019_May_09_1618,MusicAffectPsychophysiology2019,3.0.5,59.69909031747748,
To what extent did the music make you feel ,SCARED,30MonoWAV/30MonoS1.wav,1,1,3,9,,,,,1,15,31,8,0,2,2,11,,,,,,,,,4,0.6850346909996006,,,017,001,2019_May_09_1618,MusicAffectPsychophysiology2019,3.0.5,59.69909031747748,
To what extent did the music make you feel ,EXCITED,30MonoWAV/30MonoS1.wav,1,1,3,9,,,,,1,15,31,8,0,3,3,7,,,,,,,,,2,0.9189684450029745,,,017,001,2019_May_09_1618,MusicAffectPsychophysiology2019,3.0.5,59.69909031747748,
To what extent did the music make you feel ,HAPPY,30MonoWAV/30MonoS1.wav,1,1,3,9,,,,,1,15,31,8,0,4,4,6,,,,,,,,,3,1.7346315370014054,,,017,001,2019_May_09_1618,MusicAffectPsychophysiology2019,3.0.5,59.69909031747748,
To what extent did the music make you feel ,GUILTY,30MonoWAV/30MonoS1.wav,1,1,3,9,,,,,1,15,31,8,0,5,5,5,,,,,,,,,1,1.4852403450058773,,,017,001,2019_May_09_1618,MusicAffectPsychophysiology2019,3.0.5,59.69909031747748,
To what extent did the music make you feel ,ASHAMED,30MonoWAV/30MonoS1.wav,1,1,3,9,,,,,1,15,31,8,0,6,6,4,,,,,,,,,2,1.0851333199971123,,,017,001,2019_May_09_1618,MusicAffectPsychophysiology2019,3.0.5,59.69909031747748,
To what extent did the music make you feel ,TENDER,30MonoWAV/30MonoS1.wav,1,1,3,9,,,,,1,15,31,8,0,7,7,10,,,,,,,,,3,1.1522314230023767,,,017,001,2019_May_09_1618,MusicAffectPsychophysiology2019,3.0.5,59.69909031747748,
To what extent did the music make you feel ,SAD,30MonoWAV/30MonoS1.wav,1,1,3,9,,,,,1,15,31,8,0,8,8,0,,,,,,,,,5,2.501563473000715,,,017,001,2019_May_09_1618,MusicAffectPsychophysiology2019,3.0.5,59.69909031747748,
To what extent did the music make you feel ,FRUSTRATED,30MonoWAV/30MonoS1.wav,1,1,3,9,,,,,1,15,31,8,0,9,9,3,,,,,,,,,4,1.2018479499965906,,,017,001,2019_May_09_1618,MusicAffectPsychophysiology2019,3.0.5,59.69909031747748,
To what extent did the music make you feel ,ANGRY,30MonoWAV/30MonoS1.wav,1,1,3,9,,,,,1,15,31,8,0,10,10,2,,,,,,,,,2,1.4516663839967805,,,017,001,2019_May_09_1618,MusicAffectPsychophysiology2019,3.0.5,59.69909031747748,
To what extent did the music make you feel ,ANXIOUS ,30MonoWAV/30MonoS1.wav,1,1,3,9,,,,,1,15,31,8,0,11,11,1,,,,,,,,,4,1.0843713099966408,,,017,001,2019_May_09_1618,MusicAffectPsychophysiology2019,3.0.5,59.69909031747748,
,,30MonoWAV/30MonoS1.wav,1,1,3,9,,,,,1,15,31,8,,,,,,,,,,,,,,,,,017,001,2019_May_09_1618,MusicAffectPsychophysiology2019,3.0.5,59.69909031747748,
,,,,,,,,,,,,,,,,,,,,,,,,,,,,,space,7.468636500001594,017,001,2019_May_09_1618,MusicAffectPsychophysiology2019,3.0.5,59.69909031747748,
