Instruction,Word,song,valence,arousal,affectcat,songmark,pracwords.thisRepN,pracwords.thisTrialN,pracwords.thisN,pracwords.thisIndex,songtrials.thisRepN,songtrials.thisTrialN,songtrials.thisN,songtrials.thisIndex,words.thisRepN,words.thisTrialN,words.thisN,words.thisIndex,begin.keys,begin.rt,arousalkey.keys,arousalkey.rt,valencekey.keys,valencekey.rt,likekey.keys,likekey.rt,WordResponse.keys,WordResponse.rt,participant,session,date,expName,psychopyVersion,frameRate,
,,,,,,,,,,,,,,,,,,,r,17.006362887994328,,,,,,,,,018,001,2019_May_10_1114,MusicAffectPsychophysiology2019,3.0.5,59.79299616823929,
,,,,,,,,,,,,,,,,,,,,,3,7.732827269996051,,,,,,,018,001,2019_May_10_1114,MusicAffectPsychophysiology2019,3.0.5,59.79299616823929,
,,,,,,,,,,,,,,,,,,,,,,,4,5.335014828000567,,,,,018,001,2019_May_10_1114,MusicAffectPsychophysiology2019,3.0.5,59.79299616823929,
,,,,,,,,,,,,,,,,,,,,,,,,,4,3.2231447259982815,,,018,001,2019_May_10_1114,MusicAffectPsychophysiology2019,3.0.5,59.79299616823929,
To what extent did the music make you feel ,ACTIVE,,,,,,0,0,0,9,,,,,,,,,,,,,,,,,1,5.798612382001011,018,001,2019_May_10_1114,MusicAffectPsychophysiology2019,3.0.5,59.79299616823929,
To what extent did the music make you feel ,HAPPY,,,,,,0,1,1,6,,,,,,,,,,,,,,,,,2,1.900628274997871,018,001,2019_May_10_1114,MusicAffectPsychophysiology2019,3.0.5,59.79299616823929,
To what extent did the music make you feel ,TENDER,,,,,,0,2,2,10,,,,,,,,,,,,,,,,,2,3.052714601995831,018,001,2019_May_10_1114,MusicAffectPsychophysiology2019,3.0.5,59.79299616823929,
To what extent did the music make you feel ,SCARED,,,,,,0,3,3,11,,,,,,,,,,,,,,,,,1,1.4683414730025106,018,001,2019_May_10_1114,MusicAffectPsychophysiology2019,3.0.5,59.79299616823929,
To what extent did the music make you feel ,ANGRY,,,,,,0,4,4,2,,,,,,,,,,,,,,,,,1,1.1849056140054017,018,001,2019_May_10_1114,MusicAffectPsychophysiology2019,3.0.5,59.79299616823929,
To what extent did the music make you feel ,SAD,,,,,,0,5,5,0,,,,,,,,,,,,,,,,,1,1.0513054940020083,018,001,2019_May_10_1114,MusicAffectPsychophysiology2019,3.0.5,59.79299616823929,
To what extent did the music make you feel ,GUILTY,,,,,,0,6,6,5,,,,,,,,,,,,,,,,,1,0.9190818809947814,018,001,2019_May_10_1114,MusicAffectPsychophysiology2019,3.0.5,59.79299616823929,
To what extent did the music make you feel ,FRUSTRATED,,,,,,0,7,7,3,,,,,,,,,,,,,,,,,1,1.067132751995814,018,001,2019_May_10_1114,MusicAffectPsychophysiology2019,3.0.5,59.79299616823929,
To what extent did the music make you feel ,ANXIOUS ,,,,,,0,8,8,1,,,,,,,,,,,,,,,,,1,0.6339781860006042,018,001,2019_May_10_1114,MusicAffectPsychophysiology2019,3.0.5,59.79299616823929,
To what extent did the music make you feel ,EXCITED,,,,,,0,9,9,7,,,,,,,,,,,,,,,,,2,3.8510202519973973,018,001,2019_May_10_1114,MusicAffectPsychophysiology2019,3.0.5,59.79299616823929,
To what extent did the music make you feel ,ALERT,,,,,,0,10,10,8,,,,,,,,,,,,,,,,,1,1.9678840400010813,018,001,2019_May_10_1114,MusicAffectPsychophysiology2019,3.0.5,59.79299616823929,
To what extent did the music make you feel ,ASHAMED,,,,,,0,11,11,4,,,,,,,,,,,,,,,,,1,1.0526355609981692,018,001,2019_May_10_1114,MusicAffectPsychophysiology2019,3.0.5,59.79299616823929,
To what extent did the music make you feel ,SCARED,30MonoWAV/30MonoH2.wav,2,2,1,6,,,,,0,0,0,5,0,0,0,11,,,3,4.584308453995618,2,4.852113839006051,2,1.9008756759940297,1,2.318086712999502,018,001,2019_May_10_1114,MusicAffectPsychophysiology2019,3.0.5,59.79299616823929,
To what extent did the music make you feel ,ALERT,30MonoWAV/30MonoH2.wav,2,2,1,6,,,,,0,0,0,5,0,1,1,8,,,,,,,,,2,1.4895820759993512,018,001,2019_May_10_1114,MusicAffectPsychophysiology2019,3.0.5,59.79299616823929,
To what extent did the music make you feel ,TENDER,30MonoWAV/30MonoH2.wav,2,2,1,6,,,,,0,0,0,5,0,2,2,10,,,,,,,,,2,2.204368311999133,018,001,2019_May_10_1114,MusicAffectPsychophysiology2019,3.0.5,59.79299616823929,
To what extent did the music make you feel ,HAPPY,30MonoWAV/30MonoH2.wav,2,2,1,6,,,,,0,0,0,5,0,3,3,6,,,,,,,,,1,1.4039404199938872,018,001,2019_May_10_1114,MusicAffectPsychophysiology2019,3.0.5,59.79299616823929,
To what extent did the music make you feel ,EXCITED,30MonoWAV/30MonoH2.wav,2,2,1,6,,,,,0,0,0,5,0,4,4,7,,,,,,,,,1,1.785681219000253,018,001,2019_May_10_1114,MusicAffectPsychophysiology2019,3.0.5,59.79299616823929,
To what extent did the music make you feel ,ANXIOUS ,30MonoWAV/30MonoH2.wav,2,2,1,6,,,,,0,0,0,5,0,5,5,1,,,,,,,,,1,2.2409044740052195,018,001,2019_May_10_1114,MusicAffectPsychophysiology2019,3.0.5,59.79299616823929,
To what extent did the music make you feel ,ASHAMED,30MonoWAV/30MonoH2.wav,2,2,1,6,,,,,0,0,0,5,0,6,6,4,,,,,,,,,1,0.6677789500026847,018,001,2019_May_10_1114,MusicAffectPsychophysiology2019,3.0.5,59.79299616823929,
To what extent did the music make you feel ,GUILTY,30MonoWAV/30MonoH2.wav,2,2,1,6,,,,,0,0,0,5,0,7,7,5,,,,,,,,,1,0.6180503880023025,018,001,2019_May_10_1114,MusicAffectPsychophysiology2019,3.0.5,59.79299616823929,
To what extent did the music make you feel ,FRUSTRATED,30MonoWAV/30MonoH2.wav,2,2,1,6,,,,,0,0,0,5,0,8,8,3,,,,,,,,,1,3.1018779179939884,018,001,2019_May_10_1114,MusicAffectPsychophysiology2019,3.0.5,59.79299616823929,
To what extent did the music make you feel ,ANGRY,30MonoWAV/30MonoH2.wav,2,2,1,6,,,,,0,0,0,5,0,9,9,2,,,,,,,,,1,0.8519594870012952,018,001,2019_May_10_1114,MusicAffectPsychophysiology2019,3.0.5,59.79299616823929,
To what extent did the music make you feel ,ACTIVE,30MonoWAV/30MonoH2.wav,2,2,1,6,,,,,0,0,0,5,0,10,10,9,,,,,,,,,2,1.2193782839967753,018,001,2019_May_10_1114,MusicAffectPsychophysiology2019,3.0.5,59.79299616823929,
To what extent did the music make you feel ,SAD,30MonoWAV/30MonoH2.wav,2,2,1,6,,,,,0,0,0,5,0,11,11,0,,,,,,,,,1,2.201542242997675,018,001,2019_May_10_1114,MusicAffectPsychophysiology2019,3.0.5,59.79299616823929,
,,30MonoWAV/30MonoH2.wav,2,2,1,6,,,,,0,0,0,5,,,,,,,,,,,,,,,018,001,2019_May_10_1114,MusicAffectPsychophysiology2019,3.0.5,59.79299616823929,
To what extent did the music make you feel ,ANGRY,30MonoWAV/30MonoF2.wav,1,2,2,2,,,,,0,1,1,1,0,0,0,2,,,3,9.422061489000043,1,1.8517209429992363,1,1.4678847390023293,2,2.485515733998909,018,001,2019_May_10_1114,MusicAffectPsychophysiology2019,3.0.5,59.79299616823929,
To what extent did the music make you feel ,ANXIOUS ,30MonoWAV/30MonoF2.wav,1,2,2,2,,,,,0,1,1,1,0,1,1,1,,,,,,,,,4,6.716145956997934,018,001,2019_May_10_1114,MusicAffectPsychophysiology2019,3.0.5,59.79299616823929,
To what extent did the music make you feel ,ASHAMED,30MonoWAV/30MonoF2.wav,1,2,2,2,,,,,0,1,1,1,0,2,2,4,,,,,,,,,1,1.7682716990020708,018,001,2019_May_10_1114,MusicAffectPsychophysiology2019,3.0.5,59.79299616823929,
To what extent did the music make you feel ,SAD,30MonoWAV/30MonoF2.wav,1,2,2,2,,,,,0,1,1,1,0,3,3,0,,,,,,,,,1,4.651150917998166,018,001,2019_May_10_1114,MusicAffectPsychophysiology2019,3.0.5,59.79299616823929,
To what extent did the music make you feel ,TENDER,30MonoWAV/30MonoF2.wav,1,2,2,2,,,,,0,1,1,1,0,4,4,10,,,,,,,,,3,1.8166916219997802,018,001,2019_May_10_1114,MusicAffectPsychophysiology2019,3.0.5,59.79299616823929,
To what extent did the music make you feel ,ALERT,30MonoWAV/30MonoF2.wav,1,2,2,2,,,,,0,1,1,1,0,5,5,8,,,,,,,,,3,1.934589208001853,018,001,2019_May_10_1114,MusicAffectPsychophysiology2019,3.0.5,59.79299616823929,
To what extent did the music make you feel ,GUILTY,30MonoWAV/30MonoF2.wav,1,2,2,2,,,,,0,1,1,1,0,6,6,5,,,,,,,,,1,1.5664108209966798,018,001,2019_May_10_1114,MusicAffectPsychophysiology2019,3.0.5,59.79299616823929,
To what extent did the music make you feel ,SCARED,30MonoWAV/30MonoF2.wav,1,2,2,2,,,,,0,1,1,1,0,7,7,11,,,,,,,,,4,3.5344095330001437,018,001,2019_May_10_1114,MusicAffectPsychophysiology2019,3.0.5,59.79299616823929,
To what extent did the music make you feel ,FRUSTRATED,30MonoWAV/30MonoF2.wav,1,2,2,2,,,,,0,1,1,1,0,8,8,3,,,,,,,,,4,1.8857870759966318,018,001,2019_May_10_1114,MusicAffectPsychophysiology2019,3.0.5,59.79299616823929,
To what extent did the music make you feel ,HAPPY,30MonoWAV/30MonoF2.wav,1,2,2,2,,,,,0,1,1,1,0,9,9,6,,,,,,,,,1,1.1833476989995688,018,001,2019_May_10_1114,MusicAffectPsychophysiology2019,3.0.5,59.79299616823929,
To what extent did the music make you feel ,ACTIVE,30MonoWAV/30MonoF2.wav,1,2,2,2,,,,,0,1,1,1,0,10,10,9,,,,,,,,,1,2.06826817500405,018,001,2019_May_10_1114,MusicAffectPsychophysiology2019,3.0.5,59.79299616823929,
To what extent did the music make you feel ,EXCITED,30MonoWAV/30MonoF2.wav,1,2,2,2,,,,,0,1,1,1,0,11,11,7,,,,,,,,,1,0.8019832930003759,018,001,2019_May_10_1114,MusicAffectPsychophysiology2019,3.0.5,59.79299616823929,
,,30MonoWAV/30MonoF2.wav,1,2,2,2,,,,,0,1,1,1,,,,,,,,,,,,,,,018,001,2019_May_10_1114,MusicAffectPsychophysiology2019,3.0.5,59.79299616823929,
To what extent did the music make you feel ,SCARED,30MonoWAV/30MonoS1.wav,1,1,3,9,,,,,0,2,2,8,0,0,0,11,,,1,3.484444961002737,1,5.533853303000797,2,3.932122090998746,1,2.3017218120003236,018,001,2019_May_10_1114,MusicAffectPsychophysiology2019,3.0.5,59.79299616823929,
To what extent did the music make you feel ,ACTIVE,30MonoWAV/30MonoS1.wav,1,1,3,9,,,,,0,2,2,8,0,1,1,9,,,,,,,,,1,1.167524159005552,018,001,2019_May_10_1114,MusicAffectPsychophysiology2019,3.0.5,59.79299616823929,
To what extent did the music make you feel ,HAPPY,30MonoWAV/30MonoS1.wav,1,1,3,9,,,,,0,2,2,8,0,2,2,6,,,,,,,,,1,0.5852329690023907,018,001,2019_May_10_1114,MusicAffectPsychophysiology2019,3.0.5,59.79299616823929,
To what extent did the music make you feel ,ASHAMED,30MonoWAV/30MonoS1.wav,1,1,3,9,,,,,0,2,2,8,0,3,3,4,,,,,,,,,1,3.3179137219995027,018,001,2019_May_10_1114,MusicAffectPsychophysiology2019,3.0.5,59.79299616823929,
To what extent did the music make you feel ,ANGRY,30MonoWAV/30MonoS1.wav,1,1,3,9,,,,,0,2,2,8,0,4,4,2,,,,,,,,,1,1.2000680720011587,018,001,2019_May_10_1114,MusicAffectPsychophysiology2019,3.0.5,59.79299616823929,
To what extent did the music make you feel ,EXCITED,30MonoWAV/30MonoS1.wav,1,1,3,9,,,,,0,2,2,8,0,5,5,7,,,,,,,,,1,1.1509851879964117,018,001,2019_May_10_1114,MusicAffectPsychophysiology2019,3.0.5,59.79299616823929,
To what extent did the music make you feel ,ANXIOUS ,30MonoWAV/30MonoS1.wav,1,1,3,9,,,,,0,2,2,8,0,6,6,1,,,,,,,,,2,2.7512325089992373,018,001,2019_May_10_1114,MusicAffectPsychophysiology2019,3.0.5,59.79299616823929,
To what extent did the music make you feel ,FRUSTRATED,30MonoWAV/30MonoS1.wav,1,1,3,9,,,,,0,2,2,8,0,7,7,3,,,,,,,,,2,1.4854331809983705,018,001,2019_May_10_1114,MusicAffectPsychophysiology2019,3.0.5,59.79299616823929,
To what extent did the music make you feel ,SAD,30MonoWAV/30MonoS1.wav,1,1,3,9,,,,,0,2,2,8,0,8,8,0,,,,,,,,,4,5.00141650599835,018,001,2019_May_10_1114,MusicAffectPsychophysiology2019,3.0.5,59.79299616823929,
To what extent did the music make you feel ,GUILTY,30MonoWAV/30MonoS1.wav,1,1,3,9,,,,,0,2,2,8,0,9,9,5,,,,,,,,,1,2.452266303000215,018,001,2019_May_10_1114,MusicAffectPsychophysiology2019,3.0.5,59.79299616823929,
To what extent did the music make you feel ,ALERT,30MonoWAV/30MonoS1.wav,1,1,3,9,,,,,0,2,2,8,0,10,10,8,,,,,,,,,1,2.9498886209985358,018,001,2019_May_10_1114,MusicAffectPsychophysiology2019,3.0.5,59.79299616823929,
To what extent did the music make you feel ,TENDER,30MonoWAV/30MonoS1.wav,1,1,3,9,,,,,0,2,2,8,0,11,11,10,,,,,,,,,3,1.8361281360048451,018,001,2019_May_10_1114,MusicAffectPsychophysiology2019,3.0.5,59.79299616823929,
,,30MonoWAV/30MonoS1.wav,1,1,3,9,,,,,0,2,2,8,,,,,,,,,,,,,,,018,001,2019_May_10_1114,MusicAffectPsychophysiology2019,3.0.5,59.79299616823929,
To what extent did the music make you feel ,ACTIVE,30MonoWAV/30MonoS4.wav,1,1,3,12,,,,,0,3,3,11,0,0,0,9,,,1,9.617943516001105,1,1.3354940560020623,2,2.718535445004818,1,1.3173308629993699,018,001,2019_May_10_1114,MusicAffectPsychophysiology2019,3.0.5,59.79299616823929,
To what extent did the music make you feel ,FRUSTRATED,30MonoWAV/30MonoS4.wav,1,1,3,12,,,,,0,3,3,11,0,1,1,3,,,,,,,,,2,1.201109127003292,018,001,2019_May_10_1114,MusicAffectPsychophysiology2019,3.0.5,59.79299616823929,
To what extent did the music make you feel ,SAD,30MonoWAV/30MonoS4.wav,1,1,3,12,,,,,0,3,3,11,0,2,2,0,,,,,,,,,4,1.8510881109978072,018,001,2019_May_10_1114,MusicAffectPsychophysiology2019,3.0.5,59.79299616823929,
To what extent did the music make you feel ,ALERT,30MonoWAV/30MonoS4.wav,1,1,3,12,,,,,0,3,3,11,0,3,3,8,,,,,,,,,1,1.4194618440014892,018,001,2019_May_10_1114,MusicAffectPsychophysiology2019,3.0.5,59.79299616823929,
To what extent did the music make you feel ,ANGRY,30MonoWAV/30MonoS4.wav,1,1,3,12,,,,,0,3,3,11,0,4,4,2,,,,,,,,,1,1.3346199020015774,018,001,2019_May_10_1114,MusicAffectPsychophysiology2019,3.0.5,59.79299616823929,
To what extent did the music make you feel ,ASHAMED,30MonoWAV/30MonoS4.wav,1,1,3,12,,,,,0,3,3,11,0,5,5,4,,,,,,,,,1,0.8517971339970245,018,001,2019_May_10_1114,MusicAffectPsychophysiology2019,3.0.5,59.79299616823929,
To what extent did the music make you feel ,HAPPY,30MonoWAV/30MonoS4.wav,1,1,3,12,,,,,0,3,3,11,0,6,6,6,,,,,,,,,1,0.9684748540021246,018,001,2019_May_10_1114,MusicAffectPsychophysiology2019,3.0.5,59.79299616823929,
To what extent did the music make you feel ,TENDER,30MonoWAV/30MonoS4.wav,1,1,3,12,,,,,0,3,3,11,0,7,7,10,,,,,,,,,1,1.5680868600029498,018,001,2019_May_10_1114,MusicAffectPsychophysiology2019,3.0.5,59.79299616823929,
To what extent did the music make you feel ,SCARED,30MonoWAV/30MonoS4.wav,1,1,3,12,,,,,0,3,3,11,0,8,8,11,,,,,,,,,1,1.0025800660005189,018,001,2019_May_10_1114,MusicAffectPsychophysiology2019,3.0.5,59.79299616823929,
To what extent did the music make you feel ,ANXIOUS ,30MonoWAV/30MonoS4.wav,1,1,3,12,,,,,0,3,3,11,0,9,9,1,,,,,,,,,1,2.4518540470016887,018,001,2019_May_10_1114,MusicAffectPsychophysiology2019,3.0.5,59.79299616823929,
To what extent did the music make you feel ,GUILTY,30MonoWAV/30MonoS4.wav,1,1,3,12,,,,,0,3,3,11,0,10,10,5,,,,,,,,,1,3.2677921319991583,018,001,2019_May_10_1114,MusicAffectPsychophysiology2019,3.0.5,59.79299616823929,
To what extent did the music make you feel ,EXCITED,30MonoWAV/30MonoS4.wav,1,1,3,12,,,,,0,3,3,11,0,11,11,7,,,,,,,,,1,4.867546097004379,018,001,2019_May_10_1114,MusicAffectPsychophysiology2019,3.0.5,59.79299616823929,
,,30MonoWAV/30MonoS4.wav,1,1,3,12,,,,,0,3,3,11,,,,,,,,,,,,,,,018,001,2019_May_10_1114,MusicAffectPsychophysiology2019,3.0.5,59.79299616823929,
To what extent did the music make you feel ,ANGRY,30MonoWAV/30MonoF3.wav,1,2,2,3,,,,,0,4,4,2,0,0,0,2,,,4,6.679631265003991,1,1.9833574540025438,1,2.334954613004811,3,3.2182396659991355,018,001,2019_May_10_1114,MusicAffectPsychophysiology2019,3.0.5,59.79299616823929,
To what extent did the music make you feel ,FRUSTRATED,30MonoWAV/30MonoF3.wav,1,2,2,3,,,,,0,4,4,2,0,1,1,3,,,,,,,,,2,1.3334740630016313,018,001,2019_May_10_1114,MusicAffectPsychophysiology2019,3.0.5,59.79299616823929,
To what extent did the music make you feel ,SCARED,30MonoWAV/30MonoF3.wav,1,2,2,3,,,,,0,4,4,2,0,2,2,11,,,,,,,,,2,2.7016702520049876,018,001,2019_May_10_1114,MusicAffectPsychophysiology2019,3.0.5,59.79299616823929,
To what extent did the music make you feel ,ALERT,30MonoWAV/30MonoF3.wav,1,2,2,3,,,,,0,4,4,2,0,3,3,8,,,,,,,,,4,1.9347590139950626,018,001,2019_May_10_1114,MusicAffectPsychophysiology2019,3.0.5,59.79299616823929,
To what extent did the music make you feel ,EXCITED,30MonoWAV/30MonoF3.wav,1,2,2,3,,,,,0,4,4,2,0,4,4,7,,,,,,,,,1,1.4676515570026822,018,001,2019_May_10_1114,MusicAffectPsychophysiology2019,3.0.5,59.79299616823929,
To what extent did the music make you feel ,TENDER,30MonoWAV/30MonoF3.wav,1,2,2,3,,,,,0,4,4,2,0,5,5,10,,,,,,,,,5,1.4499925259951851,018,001,2019_May_10_1114,MusicAffectPsychophysiology2019,3.0.5,59.79299616823929,
To what extent did the music make you feel ,ASHAMED,30MonoWAV/30MonoF3.wav,1,2,2,3,,,,,0,4,4,2,0,6,6,4,,,,,,,,,1,1.5189081790013006,018,001,2019_May_10_1114,MusicAffectPsychophysiology2019,3.0.5,59.79299616823929,
To what extent did the music make you feel ,ANXIOUS ,30MonoWAV/30MonoF3.wav,1,2,2,3,,,,,0,4,4,2,0,7,7,1,,,,,,,,,4,1.6349687629990513,018,001,2019_May_10_1114,MusicAffectPsychophysiology2019,3.0.5,59.79299616823929,
To what extent did the music make you feel ,ACTIVE,30MonoWAV/30MonoF3.wav,1,2,2,3,,,,,0,4,4,2,0,8,8,9,,,,,,,,,2,3.0526105079989065,018,001,2019_May_10_1114,MusicAffectPsychophysiology2019,3.0.5,59.79299616823929,
To what extent did the music make you feel ,HAPPY,30MonoWAV/30MonoF3.wav,1,2,2,3,,,,,0,4,4,2,0,9,9,6,,,,,,,,,1,3.6014722129984875,018,001,2019_May_10_1114,MusicAffectPsychophysiology2019,3.0.5,59.79299616823929,
To what extent did the music make you feel ,GUILTY,30MonoWAV/30MonoF3.wav,1,2,2,3,,,,,0,4,4,2,0,10,10,5,,,,,,,,,1,1.0850916779963882,018,001,2019_May_10_1114,MusicAffectPsychophysiology2019,3.0.5,59.79299616823929,
To what extent did the music make you feel ,SAD,30MonoWAV/30MonoF3.wav,1,2,2,3,,,,,0,4,4,2,0,11,11,0,,,,,,,,,1,1.0515999479976017,018,001,2019_May_10_1114,MusicAffectPsychophysiology2019,3.0.5,59.79299616823929,
,,30MonoWAV/30MonoF3.wav,1,2,2,3,,,,,0,4,4,2,,,,,,,,,,,,,,,018,001,2019_May_10_1114,MusicAffectPsychophysiology2019,3.0.5,59.79299616823929,
To what extent did the music make you feel ,ALERT,30MonoWAV/30MonoH1.wav,2,2,1,5,,,,,0,5,5,4,0,0,0,8,,,2,5.934785425000882,2,5.633771306005656,3,1.2021857220024685,2,2.6678693599969847,018,001,2019_May_10_1114,MusicAffectPsychophysiology2019,3.0.5,59.79299616823929,
To what extent did the music make you feel ,SAD,30MonoWAV/30MonoH1.wav,2,2,1,5,,,,,0,5,5,4,0,1,1,0,,,,,,,,,1,1.2354011350034853,018,001,2019_May_10_1114,MusicAffectPsychophysiology2019,3.0.5,59.79299616823929,
To what extent did the music make you feel ,FRUSTRATED,30MonoWAV/30MonoH1.wav,2,2,1,5,,,,,0,5,5,4,0,2,2,3,,,,,,,,,1,1.1177284130026237,018,001,2019_May_10_1114,MusicAffectPsychophysiology2019,3.0.5,59.79299616823929,
To what extent did the music make you feel ,HAPPY,30MonoWAV/30MonoH1.wav,2,2,1,5,,,,,0,5,5,4,0,3,3,6,,,,,,,,,2,1.6677099340013228,018,001,2019_May_10_1114,MusicAffectPsychophysiology2019,3.0.5,59.79299616823929,
To what extent did the music make you feel ,ANGRY,30MonoWAV/30MonoH1.wav,2,2,1,5,,,,,0,5,5,4,0,4,4,2,,,,,,,,,1,3.7850781029992504,018,001,2019_May_10_1114,MusicAffectPsychophysiology2019,3.0.5,59.79299616823929,
To what extent did the music make you feel ,ASHAMED,30MonoWAV/30MonoH1.wav,2,2,1,5,,,,,0,5,5,4,0,5,5,4,,,,,,,,,1,1.6686800050010788,018,001,2019_May_10_1114,MusicAffectPsychophysiology2019,3.0.5,59.79299616823929,
To what extent did the music make you feel ,EXCITED,30MonoWAV/30MonoH1.wav,2,2,1,5,,,,,0,5,5,4,0,6,6,7,,,,,,,,,2,3.3019336860015756,018,001,2019_May_10_1114,MusicAffectPsychophysiology2019,3.0.5,59.79299616823929,
To what extent did the music make you feel ,TENDER,30MonoWAV/30MonoH1.wav,2,2,1,5,,,,,0,5,5,4,0,7,7,10,,,,,,,,,2,3.3687932710017776,018,001,2019_May_10_1114,MusicAffectPsychophysiology2019,3.0.5,59.79299616823929,
To what extent did the music make you feel ,ACTIVE,30MonoWAV/30MonoH1.wav,2,2,1,5,,,,,0,5,5,4,0,8,8,9,,,,,,,,,2,1.649963761003164,018,001,2019_May_10_1114,MusicAffectPsychophysiology2019,3.0.5,59.79299616823929,
To what extent did the music make you feel ,ANXIOUS ,30MonoWAV/30MonoH1.wav,2,2,1,5,,,,,0,5,5,4,0,9,9,1,,,,,,,,,1,1.5014332680002553,018,001,2019_May_10_1114,MusicAffectPsychophysiology2019,3.0.5,59.79299616823929,
To what extent did the music make you feel ,GUILTY,30MonoWAV/30MonoH1.wav,2,2,1,5,,,,,0,5,5,4,0,10,10,5,,,,,,,,,1,1.0520126129995333,018,001,2019_May_10_1114,MusicAffectPsychophysiology2019,3.0.5,59.79299616823929,
To what extent did the music make you feel ,SCARED,30MonoWAV/30MonoH1.wav,2,2,1,5,,,,,0,5,5,4,0,11,11,11,,,,,,,,,1,0.8684140040058992,018,001,2019_May_10_1114,MusicAffectPsychophysiology2019,3.0.5,59.79299616823929,
,,30MonoWAV/30MonoH1.wav,2,2,1,5,,,,,0,5,5,4,,,,,,,,,,,,,,,018,001,2019_May_10_1114,MusicAffectPsychophysiology2019,3.0.5,59.79299616823929,
To what extent did the music make you feel ,ANGRY,30MonoWAV/30MonoT3.wav,2,1,4,15,,,,,0,6,6,14,0,0,0,2,,,1,2.4715126029987005,2,2.120872181993036,2,1.2533605889984756,1,2.7041434140046476,018,001,2019_May_10_1114,MusicAffectPsychophysiology2019,3.0.5,59.79299616823929,
To what extent did the music make you feel ,SAD,30MonoWAV/30MonoT3.wav,2,1,4,15,,,,,0,6,6,14,0,1,1,0,,,,,,,,,1,2.0359768209964386,018,001,2019_May_10_1114,MusicAffectPsychophysiology2019,3.0.5,59.79299616823929,
To what extent did the music make you feel ,ACTIVE,30MonoWAV/30MonoT3.wav,2,1,4,15,,,,,0,6,6,14,0,2,2,9,,,,,,,,,1,1.3698078530069324,018,001,2019_May_10_1114,MusicAffectPsychophysiology2019,3.0.5,59.79299616823929,
To what extent did the music make you feel ,FRUSTRATED,30MonoWAV/30MonoT3.wav,2,1,4,15,,,,,0,6,6,14,0,3,3,3,,,,,,,,,1,0.801701200005482,018,001,2019_May_10_1114,MusicAffectPsychophysiology2019,3.0.5,59.79299616823929,
To what extent did the music make you feel ,ANXIOUS ,30MonoWAV/30MonoT3.wav,2,1,4,15,,,,,0,6,6,14,0,4,4,1,,,,,,,,,1,5.309636855999997,018,001,2019_May_10_1114,MusicAffectPsychophysiology2019,3.0.5,59.79299616823929,
To what extent did the music make you feel ,ALERT,30MonoWAV/30MonoT3.wav,2,1,4,15,,,,,0,6,6,14,0,5,5,8,,,,,,,,,1,0.7692386569979135,018,001,2019_May_10_1114,MusicAffectPsychophysiology2019,3.0.5,59.79299616823929,
To what extent did the music make you feel ,SCARED,30MonoWAV/30MonoT3.wav,2,1,4,15,,,,,0,6,6,14,0,6,6,11,,,,,,,,,1,0.6360848529948271,018,001,2019_May_10_1114,MusicAffectPsychophysiology2019,3.0.5,59.79299616823929,
To what extent did the music make you feel ,HAPPY,30MonoWAV/30MonoT3.wav,2,1,4,15,,,,,0,6,6,14,0,7,7,6,,,,,,,,,2,1.987224377997336,018,001,2019_May_10_1114,MusicAffectPsychophysiology2019,3.0.5,59.79299616823929,
To what extent did the music make you feel ,ASHAMED,30MonoWAV/30MonoT3.wav,2,1,4,15,,,,,0,6,6,14,0,8,8,4,,,,,,,,,1,0.939148641002248,018,001,2019_May_10_1114,MusicAffectPsychophysiology2019,3.0.5,59.79299616823929,
To what extent did the music make you feel ,GUILTY,30MonoWAV/30MonoT3.wav,2,1,4,15,,,,,0,6,6,14,0,9,9,5,,,,,,,,,1,1.4016026930039516,018,001,2019_May_10_1114,MusicAffectPsychophysiology2019,3.0.5,59.79299616823929,
To what extent did the music make you feel ,EXCITED,30MonoWAV/30MonoT3.wav,2,1,4,15,,,,,0,6,6,14,0,10,10,7,,,,,,,,,2,2.5343988469976466,018,001,2019_May_10_1114,MusicAffectPsychophysiology2019,3.0.5,59.79299616823929,
To what extent did the music make you feel ,TENDER,30MonoWAV/30MonoT3.wav,2,1,4,15,,,,,0,6,6,14,0,11,11,10,,,,,,,,,1,1.0179925769989495,018,001,2019_May_10_1114,MusicAffectPsychophysiology2019,3.0.5,59.79299616823929,
,,30MonoWAV/30MonoT3.wav,2,1,4,15,,,,,0,6,6,14,,,,,,,,,,,,,,,018,001,2019_May_10_1114,MusicAffectPsychophysiology2019,3.0.5,59.79299616823929,
To what extent did the music make you feel ,GUILTY,30MonoWAV/30MonoT1.wav,2,1,4,13,,,,,0,7,7,12,0,0,0,5,,,1,4.411217941997165,2,1.7672332360016298,1,2.818540241998562,1,1.9020325899982709,018,001,2019_May_10_1114,MusicAffectPsychophysiology2019,3.0.5,59.79299616823929,
To what extent did the music make you feel ,EXCITED,30MonoWAV/30MonoT1.wav,2,1,4,13,,,,,0,7,7,12,0,1,1,7,,,,,,,,,1,1.5187515239958884,018,001,2019_May_10_1114,MusicAffectPsychophysiology2019,3.0.5,59.79299616823929,
To what extent did the music make you feel ,FRUSTRATED,30MonoWAV/30MonoT1.wav,2,1,4,13,,,,,0,7,7,12,0,2,2,3,,,,,,,,,1,3.718231905004359,018,001,2019_May_10_1114,MusicAffectPsychophysiology2019,3.0.5,59.79299616823929,
To what extent did the music make you feel ,ACTIVE,30MonoWAV/30MonoT1.wav,2,1,4,13,,,,,0,7,7,12,0,3,3,9,,,,,,,,,1,1.418038012998295,018,001,2019_May_10_1114,MusicAffectPsychophysiology2019,3.0.5,59.79299616823929,
To what extent did the music make you feel ,ASHAMED,30MonoWAV/30MonoT1.wav,2,1,4,13,,,,,0,7,7,12,0,4,4,4,,,,,,,,,1,0.6017998199968133,018,001,2019_May_10_1114,MusicAffectPsychophysiology2019,3.0.5,59.79299616823929,
To what extent did the music make you feel ,SCARED,30MonoWAV/30MonoT1.wav,2,1,4,13,,,,,0,7,7,12,0,5,5,11,,,,,,,,,1,0.7185384799959138,018,001,2019_May_10_1114,MusicAffectPsychophysiology2019,3.0.5,59.79299616823929,
To what extent did the music make you feel ,ANXIOUS ,30MonoWAV/30MonoT1.wav,2,1,4,13,,,,,0,7,7,12,0,6,6,1,,,,,,,,,1,0.8023848890006775,018,001,2019_May_10_1114,MusicAffectPsychophysiology2019,3.0.5,59.79299616823929,
To what extent did the music make you feel ,HAPPY,30MonoWAV/30MonoT1.wav,2,1,4,13,,,,,0,7,7,12,0,7,7,6,,,,,,,,,1,1.0014705339999637,018,001,2019_May_10_1114,MusicAffectPsychophysiology2019,3.0.5,59.79299616823929,
To what extent did the music make you feel ,ANGRY,30MonoWAV/30MonoT1.wav,2,1,4,13,,,,,0,7,7,12,0,8,8,2,,,,,,,,,1,1.3350166489981348,018,001,2019_May_10_1114,MusicAffectPsychophysiology2019,3.0.5,59.79299616823929,
To what extent did the music make you feel ,TENDER,30MonoWAV/30MonoT1.wav,2,1,4,13,,,,,0,7,7,12,0,9,9,10,,,,,,,,,1,1.1847310200028005,018,001,2019_May_10_1114,MusicAffectPsychophysiology2019,3.0.5,59.79299616823929,
To what extent did the music make you feel ,ALERT,30MonoWAV/30MonoT1.wav,2,1,4,13,,,,,0,7,7,12,0,10,10,8,,,,,,,,,1,0.7015780149959028,018,001,2019_May_10_1114,MusicAffectPsychophysiology2019,3.0.5,59.79299616823929,
To what extent did the music make you feel ,SAD,30MonoWAV/30MonoT1.wav,2,1,4,13,,,,,0,7,7,12,0,11,11,0,,,,,,,,,2,1.3350452719969326,018,001,2019_May_10_1114,MusicAffectPsychophysiology2019,3.0.5,59.79299616823929,
,,30MonoWAV/30MonoT1.wav,2,1,4,13,,,,,0,7,7,12,,,,,,,,,,,,,,,018,001,2019_May_10_1114,MusicAffectPsychophysiology2019,3.0.5,59.79299616823929,
To what extent did the music make you feel ,ASHAMED,30MonoWAV/30MonoT4.wav,2,1,4,16,,,,,0,8,8,15,0,0,0,4,,,1,5.25179570200271,2,5.174121342002763,1,1.8359201940038474,1,2.5883193720001145,018,001,2019_May_10_1114,MusicAffectPsychophysiology2019,3.0.5,59.79299616823929,
To what extent did the music make you feel ,HAPPY,30MonoWAV/30MonoT4.wav,2,1,4,16,,,,,0,8,8,15,0,1,1,6,,,,,,,,,1,1.9569558719958877,018,001,2019_May_10_1114,MusicAffectPsychophysiology2019,3.0.5,59.79299616823929,
To what extent did the music make you feel ,ANGRY,30MonoWAV/30MonoT4.wav,2,1,4,16,,,,,0,8,8,15,0,2,2,2,,,,,,,,,1,1.1172222509994754,018,001,2019_May_10_1114,MusicAffectPsychophysiology2019,3.0.5,59.79299616823929,
To what extent did the music make you feel ,SAD,30MonoWAV/30MonoT4.wav,2,1,4,16,,,,,0,8,8,15,0,3,3,0,,,,,,,,,3,1.9032777039974462,018,001,2019_May_10_1114,MusicAffectPsychophysiology2019,3.0.5,59.79299616823929,
To what extent did the music make you feel ,ANXIOUS ,30MonoWAV/30MonoT4.wav,2,1,4,16,,,,,0,8,8,15,0,4,4,1,,,,,,,,,2,3.984733192999556,018,001,2019_May_10_1114,MusicAffectPsychophysiology2019,3.0.5,59.79299616823929,
To what extent did the music make you feel ,TENDER,30MonoWAV/30MonoT4.wav,2,1,4,16,,,,,0,8,8,15,0,5,5,10,,,,,,,,,2,1.6517766140023014,018,001,2019_May_10_1114,MusicAffectPsychophysiology2019,3.0.5,59.79299616823929,
To what extent did the music make you feel ,ALERT,30MonoWAV/30MonoT4.wav,2,1,4,16,,,,,0,8,8,15,0,6,6,8,,,,,,,,,1,1.185521074999997,018,001,2019_May_10_1114,MusicAffectPsychophysiology2019,3.0.5,59.79299616823929,
To what extent did the music make you feel ,SCARED,30MonoWAV/30MonoT4.wav,2,1,4,16,,,,,0,8,8,15,0,7,7,11,,,,,,,,,1,0.9346986730015487,018,001,2019_May_10_1114,MusicAffectPsychophysiology2019,3.0.5,59.79299616823929,
To what extent did the music make you feel ,FRUSTRATED,30MonoWAV/30MonoT4.wav,2,1,4,16,,,,,0,8,8,15,0,8,8,3,,,,,,,,,2,2.419163112004753,018,001,2019_May_10_1114,MusicAffectPsychophysiology2019,3.0.5,59.79299616823929,
To what extent did the music make you feel ,GUILTY,30MonoWAV/30MonoT4.wav,2,1,4,16,,,,,0,8,8,15,0,9,9,5,,,,,,,,,1,0.8359710259974236,018,001,2019_May_10_1114,MusicAffectPsychophysiology2019,3.0.5,59.79299616823929,
To what extent did the music make you feel ,ACTIVE,30MonoWAV/30MonoT4.wav,2,1,4,16,,,,,0,8,8,15,0,10,10,9,,,,,,,,,1,7.817439213002217,018,001,2019_May_10_1114,MusicAffectPsychophysiology2019,3.0.5,59.79299616823929,
To what extent did the music make you feel ,EXCITED,30MonoWAV/30MonoT4.wav,2,1,4,16,,,,,0,8,8,15,0,11,11,7,,,,,,,,,1,0.9342184720007936,018,001,2019_May_10_1114,MusicAffectPsychophysiology2019,3.0.5,59.79299616823929,
,,30MonoWAV/30MonoT4.wav,2,1,4,16,,,,,0,8,8,15,,,,,,,,,,,,,,,018,001,2019_May_10_1114,MusicAffectPsychophysiology2019,3.0.5,59.79299616823929,
To what extent did the music make you feel ,GUILTY,30MonoWAV/30MonoS2.wav,1,1,3,10,,,,,0,9,9,9,0,0,0,5,,,1,2.2013832939992426,1,0.5533445949986344,1,0.8347565590011072,2,1.7517287969967583,018,001,2019_May_10_1114,MusicAffectPsychophysiology2019,3.0.5,59.79299616823929,
To what extent did the music make you feel ,SAD,30MonoWAV/30MonoS2.wav,1,1,3,10,,,,,0,9,9,9,0,1,1,0,,,,,,,,,3,3.785143323999364,018,001,2019_May_10_1114,MusicAffectPsychophysiology2019,3.0.5,59.79299616823929,
To what extent did the music make you feel ,ACTIVE,30MonoWAV/30MonoS2.wav,1,1,3,10,,,,,0,9,9,9,0,2,2,9,,,,,,,,,1,3.4338927709977725,018,001,2019_May_10_1114,MusicAffectPsychophysiology2019,3.0.5,59.79299616823929,
To what extent did the music make you feel ,ALERT,30MonoWAV/30MonoS2.wav,1,1,3,10,,,,,0,9,9,9,0,3,3,8,,,,,,,,,1,1.3683566999970935,018,001,2019_May_10_1114,MusicAffectPsychophysiology2019,3.0.5,59.79299616823929,
To what extent did the music make you feel ,ANXIOUS ,30MonoWAV/30MonoS2.wav,1,1,3,10,,,,,0,9,9,9,0,4,4,1,,,,,,,,,1,1.3027407050030888,018,001,2019_May_10_1114,MusicAffectPsychophysiology2019,3.0.5,59.79299616823929,
To what extent did the music make you feel ,EXCITED,30MonoWAV/30MonoS2.wav,1,1,3,10,,,,,0,9,9,9,0,5,5,7,,,,,,,,,1,1.0193565519948606,018,001,2019_May_10_1114,MusicAffectPsychophysiology2019,3.0.5,59.79299616823929,
To what extent did the music make you feel ,ANGRY,30MonoWAV/30MonoS2.wav,1,1,3,10,,,,,0,9,9,9,0,6,6,2,,,,,,,,,1,0.5854628700035391,018,001,2019_May_10_1114,MusicAffectPsychophysiology2019,3.0.5,59.79299616823929,
To what extent did the music make you feel ,FRUSTRATED,30MonoWAV/30MonoS2.wav,1,1,3,10,,,,,0,9,9,9,0,7,7,3,,,,,,,,,1,1.6509641359953093,018,001,2019_May_10_1114,MusicAffectPsychophysiology2019,3.0.5,59.79299616823929,
To what extent did the music make you feel ,TENDER,30MonoWAV/30MonoS2.wav,1,1,3,10,,,,,0,9,9,9,0,8,8,10,,,,,,,,,2,1.6849983200008865,018,001,2019_May_10_1114,MusicAffectPsychophysiology2019,3.0.5,59.79299616823929,
To what extent did the music make you feel ,HAPPY,30MonoWAV/30MonoS2.wav,1,1,3,10,,,,,0,9,9,9,0,9,9,6,,,,,,,,,1,1.3666321850032546,018,001,2019_May_10_1114,MusicAffectPsychophysiology2019,3.0.5,59.79299616823929,
To what extent did the music make you feel ,ASHAMED,30MonoWAV/30MonoS2.wav,1,1,3,10,,,,,0,9,9,9,0,10,10,4,,,,,,,,,1,1.600381959004153,018,001,2019_May_10_1114,MusicAffectPsychophysiology2019,3.0.5,59.79299616823929,
To what extent did the music make you feel ,SCARED,30MonoWAV/30MonoS2.wav,1,1,3,10,,,,,0,9,9,9,0,11,11,11,,,,,,,,,1,5.733648062996508,018,001,2019_May_10_1114,MusicAffectPsychophysiology2019,3.0.5,59.79299616823929,
,,30MonoWAV/30MonoS2.wav,1,1,3,10,,,,,0,9,9,9,,,,,,,,,,,,,,,018,001,2019_May_10_1114,MusicAffectPsychophysiology2019,3.0.5,59.79299616823929,
To what extent did the music make you feel ,SCARED,30MonoWAV/30MonoS3.wav,1,1,3,11,,,,,0,10,10,10,0,0,0,11,,,1,3.171060471999226,1,1.0359787089983001,1,1.5697157449976658,2,2.690780446995632,018,001,2019_May_10_1114,MusicAffectPsychophysiology2019,3.0.5,59.79299616823929,
To what extent did the music make you feel ,ACTIVE,30MonoWAV/30MonoS3.wav,1,1,3,11,,,,,0,10,10,10,0,1,1,9,,,,,,,,,1,1.5332388619935955,018,001,2019_May_10_1114,MusicAffectPsychophysiology2019,3.0.5,59.79299616823929,
To what extent did the music make you feel ,SAD,30MonoWAV/30MonoS3.wav,1,1,3,11,,,,,0,10,10,10,0,2,2,0,,,,,,,,,2,1.6692734560056124,018,001,2019_May_10_1114,MusicAffectPsychophysiology2019,3.0.5,59.79299616823929,
To what extent did the music make you feel ,HAPPY,30MonoWAV/30MonoS3.wav,1,1,3,11,,,,,0,10,10,10,0,3,3,6,,,,,,,,,1,0.7014699790015584,018,001,2019_May_10_1114,MusicAffectPsychophysiology2019,3.0.5,59.79299616823929,
To what extent did the music make you feel ,GUILTY,30MonoWAV/30MonoS3.wav,1,1,3,11,,,,,0,10,10,10,0,4,4,5,,,,,,,,,2,1.0515642339960323,018,001,2019_May_10_1114,MusicAffectPsychophysiology2019,3.0.5,59.79299616823929,
To what extent did the music make you feel ,TENDER,30MonoWAV/30MonoS3.wav,1,1,3,11,,,,,0,10,10,10,0,5,5,10,,,,,,,,,3,1.5024938339993241,018,001,2019_May_10_1114,MusicAffectPsychophysiology2019,3.0.5,59.79299616823929,
To what extent did the music make you feel ,ASHAMED,30MonoWAV/30MonoS3.wav,1,1,3,11,,,,,0,10,10,10,0,6,6,4,,,,,,,,,1,1.4850395339963143,018,001,2019_May_10_1114,MusicAffectPsychophysiology2019,3.0.5,59.79299616823929,
To what extent did the music make you feel ,FRUSTRATED,30MonoWAV/30MonoS3.wav,1,1,3,11,,,,,0,10,10,10,0,7,7,3,,,,,,,,,2,1.3352432329993462,018,001,2019_May_10_1114,MusicAffectPsychophysiology2019,3.0.5,59.79299616823929,
To what extent did the music make you feel ,ANGRY,30MonoWAV/30MonoS3.wav,1,1,3,11,,,,,0,10,10,10,0,8,8,2,,,,,,,,,2,1.9847145149979042,018,001,2019_May_10_1114,MusicAffectPsychophysiology2019,3.0.5,59.79299616823929,
To what extent did the music make you feel ,ALERT,30MonoWAV/30MonoS3.wav,1,1,3,11,,,,,0,10,10,10,0,9,9,8,,,,,,,,,1,1.8685697149994667,018,001,2019_May_10_1114,MusicAffectPsychophysiology2019,3.0.5,59.79299616823929,
To what extent did the music make you feel ,EXCITED,30MonoWAV/30MonoS3.wav,1,1,3,11,,,,,0,10,10,10,0,10,10,7,,,,,,,,,1,3.167952237999998,018,001,2019_May_10_1114,MusicAffectPsychophysiology2019,3.0.5,59.79299616823929,
To what extent did the music make you feel ,ANXIOUS ,30MonoWAV/30MonoS3.wav,1,1,3,11,,,,,0,10,10,10,0,11,11,1,,,,,,,,,3,1.5193213399979868,018,001,2019_May_10_1114,MusicAffectPsychophysiology2019,3.0.5,59.79299616823929,
,,30MonoWAV/30MonoS3.wav,1,1,3,11,,,,,0,10,10,10,,,,,,,,,,,,,,,018,001,2019_May_10_1114,MusicAffectPsychophysiology2019,3.0.5,59.79299616823929,
To what extent did the music make you feel ,ANXIOUS ,30MonoWAV/30MonoF4.wav,1,2,2,4,,,,,0,11,11,3,0,0,0,1,,,4,2.9056214160009404,1,4.7902415369972005,3,1.5522490099974675,3,7.635376588994404,018,001,2019_May_10_1114,MusicAffectPsychophysiology2019,3.0.5,59.79299616823929,
To what extent did the music make you feel ,FRUSTRATED,30MonoWAV/30MonoF4.wav,1,2,2,4,,,,,0,11,11,3,0,1,1,3,,,,,,,,,2,1.4183506879999186,018,001,2019_May_10_1114,MusicAffectPsychophysiology2019,3.0.5,59.79299616823929,
To what extent did the music make you feel ,HAPPY,30MonoWAV/30MonoF4.wav,1,2,2,4,,,,,0,11,11,3,0,2,2,6,,,,,,,,,1,1.6337482070011902,018,001,2019_May_10_1114,MusicAffectPsychophysiology2019,3.0.5,59.79299616823929,
To what extent did the music make you feel ,ACTIVE,30MonoWAV/30MonoF4.wav,1,2,2,4,,,,,0,11,11,3,0,3,3,9,,,,,,,,,2,2.2678470910032047,018,001,2019_May_10_1114,MusicAffectPsychophysiology2019,3.0.5,59.79299616823929,
To what extent did the music make you feel ,SCARED,30MonoWAV/30MonoF4.wav,1,2,2,4,,,,,0,11,11,3,0,4,4,11,,,,,,,,,2,2.4684086800043588,018,001,2019_May_10_1114,MusicAffectPsychophysiology2019,3.0.5,59.79299616823929,
To what extent did the music make you feel ,TENDER,30MonoWAV/30MonoF4.wav,1,2,2,4,,,,,0,11,11,3,0,5,5,10,,,,,,,,,4,3.2351800390024437,018,001,2019_May_10_1114,MusicAffectPsychophysiology2019,3.0.5,59.79299616823929,
To what extent did the music make you feel ,ASHAMED,30MonoWAV/30MonoF4.wav,1,2,2,4,,,,,0,11,11,3,0,6,6,4,,,,,,,,,1,1.5014443219988607,018,001,2019_May_10_1114,MusicAffectPsychophysiology2019,3.0.5,59.79299616823929,
To what extent did the music make you feel ,SAD,30MonoWAV/30MonoF4.wav,1,2,2,4,,,,,0,11,11,3,0,7,7,0,,,,,,,,,1,1.619291600996803,018,001,2019_May_10_1114,MusicAffectPsychophysiology2019,3.0.5,59.79299616823929,
To what extent did the music make you feel ,ALERT,30MonoWAV/30MonoF4.wav,1,2,2,4,,,,,0,11,11,3,0,8,8,8,,,,,,,,,4,1.4352268540023942,018,001,2019_May_10_1114,MusicAffectPsychophysiology2019,3.0.5,59.79299616823929,
To what extent did the music make you feel ,ANGRY,30MonoWAV/30MonoF4.wav,1,2,2,4,,,,,0,11,11,3,0,9,9,2,,,,,,,,,2,1.5338064259995008,018,001,2019_May_10_1114,MusicAffectPsychophysiology2019,3.0.5,59.79299616823929,
To what extent did the music make you feel ,GUILTY,30MonoWAV/30MonoF4.wav,1,2,2,4,,,,,0,11,11,3,0,10,10,5,,,,,,,,,1,1.3352530840056716,018,001,2019_May_10_1114,MusicAffectPsychophysiology2019,3.0.5,59.79299616823929,
To what extent did the music make you feel ,EXCITED,30MonoWAV/30MonoF4.wav,1,2,2,4,,,,,0,11,11,3,0,11,11,7,,,,,,,,,1,1.5160194490017602,018,001,2019_May_10_1114,MusicAffectPsychophysiology2019,3.0.5,59.79299616823929,
,,30MonoWAV/30MonoF4.wav,1,2,2,4,,,,,0,11,11,3,,,,,,,,,,,,,,,018,001,2019_May_10_1114,MusicAffectPsychophysiology2019,3.0.5,59.79299616823929,
To what extent did the music make you feel ,SAD,30MonoWAV/30MonoT2.wav,2,1,4,14,,,,,0,12,12,13,0,0,0,0,,,1,4.0827065339981345,3,1.8172892649963615,1,1.5523513779990026,1,2.584543411001505,018,001,2019_May_10_1114,MusicAffectPsychophysiology2019,3.0.5,59.79299616823929,
To what extent did the music make you feel ,ACTIVE,30MonoWAV/30MonoT2.wav,2,1,4,14,,,,,0,12,12,13,0,1,1,9,,,,,,,,,1,1.783094364000135,018,001,2019_May_10_1114,MusicAffectPsychophysiology2019,3.0.5,59.79299616823929,
To what extent did the music make you feel ,ASHAMED,30MonoWAV/30MonoT2.wav,2,1,4,14,,,,,0,12,12,13,0,2,2,4,,,,,,,,,1,0.8003444540008786,018,001,2019_May_10_1114,MusicAffectPsychophysiology2019,3.0.5,59.79299616823929,
To what extent did the music make you feel ,ANXIOUS ,30MonoWAV/30MonoT2.wav,2,1,4,14,,,,,0,12,12,13,0,3,3,1,,,,,,,,,1,0.9023774689994752,018,001,2019_May_10_1114,MusicAffectPsychophysiology2019,3.0.5,59.79299616823929,
To what extent did the music make you feel ,HAPPY,30MonoWAV/30MonoT2.wav,2,1,4,14,,,,,0,12,12,13,0,4,4,6,,,,,,,,,2,1.7683353090033052,018,001,2019_May_10_1114,MusicAffectPsychophysiology2019,3.0.5,59.79299616823929,
To what extent did the music make you feel ,ALERT,30MonoWAV/30MonoT2.wav,2,1,4,14,,,,,0,12,12,13,0,5,5,8,,,,,,,,,1,0.784877663005318,018,001,2019_May_10_1114,MusicAffectPsychophysiology2019,3.0.5,59.79299616823929,
To what extent did the music make you feel ,FRUSTRATED,30MonoWAV/30MonoT2.wav,2,1,4,14,,,,,0,12,12,13,0,6,6,3,,,,,,,,,1,1.2517536870000185,018,001,2019_May_10_1114,MusicAffectPsychophysiology2019,3.0.5,59.79299616823929,
To what extent did the music make you feel ,SCARED,30MonoWAV/30MonoT2.wav,2,1,4,14,,,,,0,12,12,13,0,7,7,11,,,,,,,,,1,0.6512837510017562,018,001,2019_May_10_1114,MusicAffectPsychophysiology2019,3.0.5,59.79299616823929,
To what extent did the music make you feel ,GUILTY,30MonoWAV/30MonoT2.wav,2,1,4,14,,,,,0,12,12,13,0,8,8,5,,,,,,,,,1,0.8183421540015843,018,001,2019_May_10_1114,MusicAffectPsychophysiology2019,3.0.5,59.79299616823929,
To what extent did the music make you feel ,ANGRY,30MonoWAV/30MonoT2.wav,2,1,4,14,,,,,0,12,12,13,0,9,9,2,,,,,,,,,1,0.5360639089994947,018,001,2019_May_10_1114,MusicAffectPsychophysiology2019,3.0.5,59.79299616823929,
To what extent did the music make you feel ,EXCITED,30MonoWAV/30MonoT2.wav,2,1,4,14,,,,,0,12,12,13,0,10,10,7,,,,,,,,,1,0.8832604899944272,018,001,2019_May_10_1114,MusicAffectPsychophysiology2019,3.0.5,59.79299616823929,
To what extent did the music make you feel ,TENDER,30MonoWAV/30MonoT2.wav,2,1,4,14,,,,,0,12,12,13,0,11,11,10,,,,,,,,,1,1.76868044299772,018,001,2019_May_10_1114,MusicAffectPsychophysiology2019,3.0.5,59.79299616823929,
,,30MonoWAV/30MonoT2.wav,2,1,4,14,,,,,0,12,12,13,,,,,,,,,,,,,,,018,001,2019_May_10_1114,MusicAffectPsychophysiology2019,3.0.5,59.79299616823929,
To what extent did the music make you feel ,ASHAMED,30MonoWAV/30MonoF1.wav,1,2,2,1,,,,,0,13,13,0,0,0,0,4,,,5,6.084636973995657,1,2.000330445000145,2,2.4856066460051807,1,3.1665730500026257,018,001,2019_May_10_1114,MusicAffectPsychophysiology2019,3.0.5,59.79299616823929,
To what extent did the music make you feel ,GUILTY,30MonoWAV/30MonoF1.wav,1,2,2,1,,,,,0,13,13,0,0,1,1,5,,,,,,,,,1,1.0691743360002874,018,001,2019_May_10_1114,MusicAffectPsychophysiology2019,3.0.5,59.79299616823929,
To what extent did the music make you feel ,ACTIVE,30MonoWAV/30MonoF1.wav,1,2,2,1,,,,,0,13,13,0,0,2,2,9,,,,,,,,,2,3.5679177130004973,018,001,2019_May_10_1114,MusicAffectPsychophysiology2019,3.0.5,59.79299616823929,
To what extent did the music make you feel ,FRUSTRATED,30MonoWAV/30MonoF1.wav,1,2,2,1,,,,,0,13,13,0,0,3,3,3,,,,,,,,,2,1.6850197930034483,018,001,2019_May_10_1114,MusicAffectPsychophysiology2019,3.0.5,59.79299616823929,
To what extent did the music make you feel ,SCARED,30MonoWAV/30MonoF1.wav,1,2,2,1,,,,,0,13,13,0,0,4,4,11,,,,,,,,,1,1.584225027996581,018,001,2019_May_10_1114,MusicAffectPsychophysiology2019,3.0.5,59.79299616823929,
To what extent did the music make you feel ,ALERT,30MonoWAV/30MonoF1.wav,1,2,2,1,,,,,0,13,13,0,0,5,5,8,,,,,,,,,3,3.034350311005255,018,001,2019_May_10_1114,MusicAffectPsychophysiology2019,3.0.5,59.79299616823929,
To what extent did the music make you feel ,HAPPY,30MonoWAV/30MonoF1.wav,1,2,2,1,,,,,0,13,13,0,0,6,6,6,,,,,,,,,1,2.235770115003106,018,001,2019_May_10_1114,MusicAffectPsychophysiology2019,3.0.5,59.79299616823929,
To what extent did the music make you feel ,EXCITED,30MonoWAV/30MonoF1.wav,1,2,2,1,,,,,0,13,13,0,0,7,7,7,,,,,,,,,2,1.7847407840017695,018,001,2019_May_10_1114,MusicAffectPsychophysiology2019,3.0.5,59.79299616823929,
To what extent did the music make you feel ,ANGRY,30MonoWAV/30MonoF1.wav,1,2,2,1,,,,,0,13,13,0,0,8,8,2,,,,,,,,,2,1.2357706429975224,018,001,2019_May_10_1114,MusicAffectPsychophysiology2019,3.0.5,59.79299616823929,
To what extent did the music make you feel ,TENDER,30MonoWAV/30MonoF1.wav,1,2,2,1,,,,,0,13,13,0,0,9,9,10,,,,,,,,,3,1.3187881060002837,018,001,2019_May_10_1114,MusicAffectPsychophysiology2019,3.0.5,59.79299616823929,
To what extent did the music make you feel ,SAD,30MonoWAV/30MonoF1.wav,1,2,2,1,,,,,0,13,13,0,0,10,10,0,,,,,,,,,1,1.7863275520066964,018,001,2019_May_10_1114,MusicAffectPsychophysiology2019,3.0.5,59.79299616823929,
To what extent did the music make you feel ,ANXIOUS ,30MonoWAV/30MonoF1.wav,1,2,2,1,,,,,0,13,13,0,0,11,11,1,,,,,,,,,3,1.301947669002402,018,001,2019_May_10_1114,MusicAffectPsychophysiology2019,3.0.5,59.79299616823929,
,,30MonoWAV/30MonoF1.wav,1,2,2,1,,,,,0,13,13,0,,,,,,,,,,,,,,,018,001,2019_May_10_1114,MusicAffectPsychophysiology2019,3.0.5,59.79299616823929,
To what extent did the music make you feel ,SAD,30MonoWAV/30MonoH4.wav,2,2,1,8,,,,,0,14,14,7,0,0,0,0,,,3,8.017633864001255,3,3.7349862760020187,2,2.551962822006317,1,1.5023567840034957,018,001,2019_May_10_1114,MusicAffectPsychophysiology2019,3.0.5,59.79299616823929,
To what extent did the music make you feel ,HAPPY,30MonoWAV/30MonoH4.wav,2,2,1,8,,,,,0,14,14,7,0,1,1,6,,,,,,,,,3,1.6687199379957747,018,001,2019_May_10_1114,MusicAffectPsychophysiology2019,3.0.5,59.79299616823929,
To what extent did the music make you feel ,TENDER,30MonoWAV/30MonoH4.wav,2,2,1,8,,,,,0,14,14,7,0,2,2,10,,,,,,,,,1,1.4515231420009513,018,001,2019_May_10_1114,MusicAffectPsychophysiology2019,3.0.5,59.79299616823929,
To what extent did the music make you feel ,SCARED,30MonoWAV/30MonoH4.wav,2,2,1,8,,,,,0,14,14,7,0,3,3,11,,,,,,,,,1,0.9188630729986471,018,001,2019_May_10_1114,MusicAffectPsychophysiology2019,3.0.5,59.79299616823929,
To what extent did the music make you feel ,ALERT,30MonoWAV/30MonoH4.wav,2,2,1,8,,,,,0,14,14,7,0,4,4,8,,,,,,,,,1,1.5853102280016174,018,001,2019_May_10_1114,MusicAffectPsychophysiology2019,3.0.5,59.79299616823929,
To what extent did the music make you feel ,ANGRY,30MonoWAV/30MonoH4.wav,2,2,1,8,,,,,0,14,14,7,0,5,5,2,,,,,,,,,1,1.1021582710018265,018,001,2019_May_10_1114,MusicAffectPsychophysiology2019,3.0.5,59.79299616823929,
To what extent did the music make you feel ,ASHAMED,30MonoWAV/30MonoH4.wav,2,2,1,8,,,,,0,14,14,7,0,6,6,4,,,,,,,,,1,0.7498074830000405,018,001,2019_May_10_1114,MusicAffectPsychophysiology2019,3.0.5,59.79299616823929,
To what extent did the music make you feel ,EXCITED,30MonoWAV/30MonoH4.wav,2,2,1,8,,,,,0,14,14,7,0,7,7,7,,,,,,,,,2,1.4521498269969015,018,001,2019_May_10_1114,MusicAffectPsychophysiology2019,3.0.5,59.79299616823929,
To what extent did the music make you feel ,GUILTY,30MonoWAV/30MonoH4.wav,2,2,1,8,,,,,0,14,14,7,0,8,8,5,,,,,,,,,1,0.9842535210045753,018,001,2019_May_10_1114,MusicAffectPsychophysiology2019,3.0.5,59.79299616823929,
To what extent did the music make you feel ,ACTIVE,30MonoWAV/30MonoH4.wav,2,2,1,8,,,,,0,14,14,7,0,9,9,9,,,,,,,,,3,1.3674359659999027,018,001,2019_May_10_1114,MusicAffectPsychophysiology2019,3.0.5,59.79299616823929,
To what extent did the music make you feel ,ANXIOUS ,30MonoWAV/30MonoH4.wav,2,2,1,8,,,,,0,14,14,7,0,10,10,1,,,,,,,,,1,2.891233127003943,018,001,2019_May_10_1114,MusicAffectPsychophysiology2019,3.0.5,59.79299616823929,
To what extent did the music make you feel ,FRUSTRATED,30MonoWAV/30MonoH4.wav,2,2,1,8,,,,,0,14,14,7,0,11,11,3,,,,,,,,,1,0.8032869400049094,018,001,2019_May_10_1114,MusicAffectPsychophysiology2019,3.0.5,59.79299616823929,
,,30MonoWAV/30MonoH4.wav,2,2,1,8,,,,,0,14,14,7,,,,,,,,,,,,,,,018,001,2019_May_10_1114,MusicAffectPsychophysiology2019,3.0.5,59.79299616823929,
To what extent did the music make you feel ,FRUSTRATED,30MonoWAV/30MonoH3.wav,2,2,1,7,,,,,0,15,15,6,0,0,0,3,,,3,3.6393057690002024,2,1.534584132998134,1,0.7694917079934385,1,4.459760145000473,018,001,2019_May_10_1114,MusicAffectPsychophysiology2019,3.0.5,59.79299616823929,
To what extent did the music make you feel ,ANXIOUS ,30MonoWAV/30MonoH3.wav,2,2,1,7,,,,,0,15,15,6,0,1,1,1,,,,,,,,,1,1.320382685000368,018,001,2019_May_10_1114,MusicAffectPsychophysiology2019,3.0.5,59.79299616823929,
To what extent did the music make you feel ,ALERT,30MonoWAV/30MonoH3.wav,2,2,1,7,,,,,0,15,15,6,0,2,2,8,,,,,,,,,2,1.3531459980004001,018,001,2019_May_10_1114,MusicAffectPsychophysiology2019,3.0.5,59.79299616823929,
To what extent did the music make you feel ,EXCITED,30MonoWAV/30MonoH3.wav,2,2,1,7,,,,,0,15,15,6,0,3,3,7,,,,,,,,,2,1.4546855439984938,018,001,2019_May_10_1114,MusicAffectPsychophysiology2019,3.0.5,59.79299616823929,
To what extent did the music make you feel ,TENDER,30MonoWAV/30MonoH3.wav,2,2,1,7,,,,,0,15,15,6,0,4,4,10,,,,,,,,,1,2.384932289001881,018,001,2019_May_10_1114,MusicAffectPsychophysiology2019,3.0.5,59.79299616823929,
To what extent did the music make you feel ,ASHAMED,30MonoWAV/30MonoH3.wav,2,2,1,7,,,,,0,15,15,6,0,5,5,4,,,,,,,,,1,0.6348103960044682,018,001,2019_May_10_1114,MusicAffectPsychophysiology2019,3.0.5,59.79299616823929,
To what extent did the music make you feel ,ANGRY,30MonoWAV/30MonoH3.wav,2,2,1,7,,,,,0,15,15,6,0,6,6,2,,,,,,,,,1,0.9513224830006948,018,001,2019_May_10_1114,MusicAffectPsychophysiology2019,3.0.5,59.79299616823929,
To what extent did the music make you feel ,HAPPY,30MonoWAV/30MonoH3.wav,2,2,1,7,,,,,0,15,15,6,0,7,7,6,,,,,,,,,1,1.3022014110028977,018,001,2019_May_10_1114,MusicAffectPsychophysiology2019,3.0.5,59.79299616823929,
To what extent did the music make you feel ,GUILTY,30MonoWAV/30MonoH3.wav,2,2,1,7,,,,,0,15,15,6,0,8,8,5,,,,,,,,,1,1.2018568460043753,018,001,2019_May_10_1114,MusicAffectPsychophysiology2019,3.0.5,59.79299616823929,
To what extent did the music make you feel ,SCARED,30MonoWAV/30MonoH3.wav,2,2,1,7,,,,,0,15,15,6,0,9,9,11,,,,,,,,,1,0.7685349460007274,018,001,2019_May_10_1114,MusicAffectPsychophysiology2019,3.0.5,59.79299616823929,
To what extent did the music make you feel ,ACTIVE,30MonoWAV/30MonoH3.wav,2,2,1,7,,,,,0,15,15,6,0,10,10,9,,,,,,,,,2,1.085050166999281,018,001,2019_May_10_1114,MusicAffectPsychophysiology2019,3.0.5,59.79299616823929,
To what extent did the music make you feel ,SAD,30MonoWAV/30MonoH3.wav,2,2,1,7,,,,,0,15,15,6,0,11,11,0,,,,,,,,,1,0.8685786709975218,018,001,2019_May_10_1114,MusicAffectPsychophysiology2019,3.0.5,59.79299616823929,
,,30MonoWAV/30MonoH3.wav,2,2,1,7,,,,,0,15,15,6,,,,,,,,,,,,,,,018,001,2019_May_10_1114,MusicAffectPsychophysiology2019,3.0.5,59.79299616823929,
To what extent did the music make you feel ,SCARED,30MonoWAV/30MonoH1.wav,2,2,1,5,,,,,1,0,16,4,0,0,0,11,,,2,4.235184352997749,3,1.6855574830042315,2,0.6350341190045583,1,2.7516841949982336,018,001,2019_May_10_1114,MusicAffectPsychophysiology2019,3.0.5,59.79299616823929,
To what extent did the music make you feel ,ANXIOUS ,30MonoWAV/30MonoH1.wav,2,2,1,5,,,,,1,0,16,4,0,1,1,1,,,,,,,,,1,0.8842794459997094,018,001,2019_May_10_1114,MusicAffectPsychophysiology2019,3.0.5,59.79299616823929,
To what extent did the music make you feel ,FRUSTRATED,30MonoWAV/30MonoH1.wav,2,2,1,5,,,,,1,0,16,4,0,2,2,3,,,,,,,,,1,2.4349042959947838,018,001,2019_May_10_1114,MusicAffectPsychophysiology2019,3.0.5,59.79299616823929,
To what extent did the music make you feel ,ALERT,30MonoWAV/30MonoH1.wav,2,2,1,5,,,,,1,0,16,4,0,3,3,8,,,,,,,,,1,0.984908700993401,018,001,2019_May_10_1114,MusicAffectPsychophysiology2019,3.0.5,59.79299616823929,
To what extent did the music make you feel ,ASHAMED,30MonoWAV/30MonoH1.wav,2,2,1,5,,,,,1,0,16,4,0,4,4,4,,,,,,,,,1,1.832521270000143,018,001,2019_May_10_1114,MusicAffectPsychophysiology2019,3.0.5,59.79299616823929,
To what extent did the music make you feel ,ACTIVE,30MonoWAV/30MonoH1.wav,2,2,1,5,,,,,1,0,16,4,0,5,5,9,,,,,,,,,2,1.5355292570020538,018,001,2019_May_10_1114,MusicAffectPsychophysiology2019,3.0.5,59.79299616823929,
To what extent did the music make you feel ,HAPPY,30MonoWAV/30MonoH1.wav,2,2,1,5,,,,,1,0,16,4,0,6,6,6,,,,,,,,,2,0.9690216849994613,018,001,2019_May_10_1114,MusicAffectPsychophysiology2019,3.0.5,59.79299616823929,
To what extent did the music make you feel ,ANGRY,30MonoWAV/30MonoH1.wav,2,2,1,5,,,,,1,0,16,4,0,7,7,2,,,,,,,,,1,0.7347319799955585,018,001,2019_May_10_1114,MusicAffectPsychophysiology2019,3.0.5,59.79299616823929,
To what extent did the music make you feel ,EXCITED,30MonoWAV/30MonoH1.wav,2,2,1,5,,,,,1,0,16,4,0,8,8,7,,,,,,,,,2,1.0677755490032723,018,001,2019_May_10_1114,MusicAffectPsychophysiology2019,3.0.5,59.79299616823929,
To what extent did the music make you feel ,TENDER,30MonoWAV/30MonoH1.wav,2,2,1,5,,,,,1,0,16,4,0,9,9,10,,,,,,,,,1,1.5859540379969985,018,001,2019_May_10_1114,MusicAffectPsychophysiology2019,3.0.5,59.79299616823929,
To what extent did the music make you feel ,GUILTY,30MonoWAV/30MonoH1.wav,2,2,1,5,,,,,1,0,16,4,0,10,10,5,,,,,,,,,1,1.2526112569976249,018,001,2019_May_10_1114,MusicAffectPsychophysiology2019,3.0.5,59.79299616823929,
To what extent did the music make you feel ,SAD,30MonoWAV/30MonoH1.wav,2,2,1,5,,,,,1,0,16,4,0,11,11,0,,,,,,,,,1,0.7854346219974104,018,001,2019_May_10_1114,MusicAffectPsychophysiology2019,3.0.5,59.79299616823929,
,,30MonoWAV/30MonoH1.wav,2,2,1,5,,,,,1,0,16,4,,,,,,,,,,,,,,,018,001,2019_May_10_1114,MusicAffectPsychophysiology2019,3.0.5,59.79299616823929,
To what extent did the music make you feel ,TENDER,30MonoWAV/30MonoT1.wav,2,1,4,13,,,,,1,1,17,12,0,0,0,10,,,1,9.083049862005282,2,2.93485257300199,1,1.0999383369999123,1,1.4021119509998243,018,001,2019_May_10_1114,MusicAffectPsychophysiology2019,3.0.5,59.79299616823929,
To what extent did the music make you feel ,EXCITED,30MonoWAV/30MonoT1.wav,2,1,4,13,,,,,1,1,17,12,0,1,1,7,,,,,,,,,1,1.0020927500008838,018,001,2019_May_10_1114,MusicAffectPsychophysiology2019,3.0.5,59.79299616823929,
To what extent did the music make you feel ,FRUSTRATED,30MonoWAV/30MonoT1.wav,2,1,4,13,,,,,1,1,17,12,0,2,2,3,,,,,,,,,1,3.1191239450054127,018,001,2019_May_10_1114,MusicAffectPsychophysiology2019,3.0.5,59.79299616823929,
To what extent did the music make you feel ,HAPPY,30MonoWAV/30MonoT1.wav,2,1,4,13,,,,,1,1,17,12,0,3,3,6,,,,,,,,,1,4.600985219003633,018,001,2019_May_10_1114,MusicAffectPsychophysiology2019,3.0.5,59.79299616823929,
To what extent did the music make you feel ,SAD,30MonoWAV/30MonoT1.wav,2,1,4,13,,,,,1,1,17,12,0,4,4,0,,,,,,,,,1,2.6013140579962055,018,001,2019_May_10_1114,MusicAffectPsychophysiology2019,3.0.5,59.79299616823929,
To what extent did the music make you feel ,ANXIOUS ,30MonoWAV/30MonoT1.wav,2,1,4,13,,,,,1,1,17,12,0,5,5,1,,,,,,,,,1,1.1016309520055074,018,001,2019_May_10_1114,MusicAffectPsychophysiology2019,3.0.5,59.79299616823929,
To what extent did the music make you feel ,ACTIVE,30MonoWAV/30MonoT1.wav,2,1,4,13,,,,,1,1,17,12,0,6,6,9,,,,,,,,,1,1.6017228130003787,018,001,2019_May_10_1114,MusicAffectPsychophysiology2019,3.0.5,59.79299616823929,
To what extent did the music make you feel ,ASHAMED,30MonoWAV/30MonoT1.wav,2,1,4,13,,,,,1,1,17,12,0,7,7,4,,,,,,,,,1,2.168262920997222,018,001,2019_May_10_1114,MusicAffectPsychophysiology2019,3.0.5,59.79299616823929,
To what extent did the music make you feel ,SCARED,30MonoWAV/30MonoT1.wav,2,1,4,13,,,,,1,1,17,12,0,8,8,11,,,,,,,,,2,9.767266615999688,018,001,2019_May_10_1114,MusicAffectPsychophysiology2019,3.0.5,59.79299616823929,
To what extent did the music make you feel ,ANGRY,30MonoWAV/30MonoT1.wav,2,1,4,13,,,,,1,1,17,12,0,9,9,2,,,,,,,,,1,8.417522134994215,018,001,2019_May_10_1114,MusicAffectPsychophysiology2019,3.0.5,59.79299616823929,
To what extent did the music make you feel ,GUILTY,30MonoWAV/30MonoT1.wav,2,1,4,13,,,,,1,1,17,12,0,10,10,5,,,,,,,,,1,4.034630308000487,018,001,2019_May_10_1114,MusicAffectPsychophysiology2019,3.0.5,59.79299616823929,
To what extent did the music make you feel ,ALERT,30MonoWAV/30MonoT1.wav,2,1,4,13,,,,,1,1,17,12,0,11,11,8,,,,,,,,,1,0.8516030850005336,018,001,2019_May_10_1114,MusicAffectPsychophysiology2019,3.0.5,59.79299616823929,
,,30MonoWAV/30MonoT1.wav,2,1,4,13,,,,,1,1,17,12,,,,,,,,,,,,,,,018,001,2019_May_10_1114,MusicAffectPsychophysiology2019,3.0.5,59.79299616823929,
To what extent did the music make you feel ,ALERT,30MonoWAV/30MonoF3.wav,1,2,2,3,,,,,1,2,18,2,0,0,0,8,,,3,2.501268854000955,1,1.6357110319950152,2,1.0190434710020781,3,2.201791006998974,018,001,2019_May_10_1114,MusicAffectPsychophysiology2019,3.0.5,59.79299616823929,
To what extent did the music make you feel ,ANGRY,30MonoWAV/30MonoF3.wav,1,2,2,3,,,,,1,2,18,2,0,1,1,2,,,,,,,,,2,1.235312939999858,018,001,2019_May_10_1114,MusicAffectPsychophysiology2019,3.0.5,59.79299616823929,
To what extent did the music make you feel ,ASHAMED,30MonoWAV/30MonoF3.wav,1,2,2,3,,,,,1,2,18,2,0,2,2,4,,,,,,,,,1,1.135804116995132,018,001,2019_May_10_1114,MusicAffectPsychophysiology2019,3.0.5,59.79299616823929,
To what extent did the music make you feel ,GUILTY,30MonoWAV/30MonoF3.wav,1,2,2,3,,,,,1,2,18,2,0,3,3,5,,,,,,,,,2,1.569412838005519,018,001,2019_May_10_1114,MusicAffectPsychophysiology2019,3.0.5,59.79299616823929,
To what extent did the music make you feel ,ACTIVE,30MonoWAV/30MonoF3.wav,1,2,2,3,,,,,1,2,18,2,0,4,4,9,,,,,,,,,1,3.451352201998816,018,001,2019_May_10_1114,MusicAffectPsychophysiology2019,3.0.5,59.79299616823929,
To what extent did the music make you feel ,SAD,30MonoWAV/30MonoF3.wav,1,2,2,3,,,,,1,2,18,2,0,5,5,0,,,,,,,,,1,1.555948007000552,018,001,2019_May_10_1114,MusicAffectPsychophysiology2019,3.0.5,59.79299616823929,
To what extent did the music make you feel ,ANXIOUS ,30MonoWAV/30MonoF3.wav,1,2,2,3,,,,,1,2,18,2,0,6,6,1,,,,,,,,,2,1.0866939879997517,018,001,2019_May_10_1114,MusicAffectPsychophysiology2019,3.0.5,59.79299616823929,
To what extent did the music make you feel ,FRUSTRATED,30MonoWAV/30MonoF3.wav,1,2,2,3,,,,,1,2,18,2,0,7,7,3,,,,,,,,,2,1.0531823999990593,018,001,2019_May_10_1114,MusicAffectPsychophysiology2019,3.0.5,59.79299616823929,
To what extent did the music make you feel ,HAPPY,30MonoWAV/30MonoF3.wav,1,2,2,3,,,,,1,2,18,2,0,8,8,6,,,,,,,,,1,1.2868172589951428,018,001,2019_May_10_1114,MusicAffectPsychophysiology2019,3.0.5,59.79299616823929,
To what extent did the music make you feel ,SCARED,30MonoWAV/30MonoF3.wav,1,2,2,3,,,,,1,2,18,2,0,9,9,11,,,,,,,,,1,1.2688216360038496,018,001,2019_May_10_1114,MusicAffectPsychophysiology2019,3.0.5,59.79299616823929,
To what extent did the music make you feel ,EXCITED,30MonoWAV/30MonoF3.wav,1,2,2,3,,,,,1,2,18,2,0,10,10,7,,,,,,,,,1,4.425961488006578,018,001,2019_May_10_1114,MusicAffectPsychophysiology2019,3.0.5,59.79299616823929,
To what extent did the music make you feel ,TENDER,30MonoWAV/30MonoF3.wav,1,2,2,3,,,,,1,2,18,2,0,11,11,10,,,,,,,,,3,1.6682164679950802,018,001,2019_May_10_1114,MusicAffectPsychophysiology2019,3.0.5,59.79299616823929,
,,30MonoWAV/30MonoF3.wav,1,2,2,3,,,,,1,2,18,2,,,,,,,,,,,,,,,018,001,2019_May_10_1114,MusicAffectPsychophysiology2019,3.0.5,59.79299616823929,
To what extent did the music make you feel ,ACTIVE,30MonoWAV/30MonoS4.wav,1,1,3,12,,,,,1,3,19,11,0,0,0,9,,,1,2.2517797109976527,1,0.7001539510019938,1,1.9181728070034296,1,2.5690301840004395,018,001,2019_May_10_1114,MusicAffectPsychophysiology2019,3.0.5,59.79299616823929,
To what extent did the music make you feel ,ANXIOUS ,30MonoWAV/30MonoS4.wav,1,1,3,12,,,,,1,3,19,11,0,1,1,1,,,,,,,,,1,1.0011512569981278,018,001,2019_May_10_1114,MusicAffectPsychophysiology2019,3.0.5,59.79299616823929,
To what extent did the music make you feel ,ASHAMED,30MonoWAV/30MonoS4.wav,1,1,3,12,,,,,1,3,19,11,0,2,2,4,,,,,,,,,1,2.102610439003911,018,001,2019_May_10_1114,MusicAffectPsychophysiology2019,3.0.5,59.79299616823929,
To what extent did the music make you feel ,SCARED,30MonoWAV/30MonoS4.wav,1,1,3,12,,,,,1,3,19,11,0,3,3,11,,,,,,,,,1,1.0174920159988687,018,001,2019_May_10_1114,MusicAffectPsychophysiology2019,3.0.5,59.79299616823929,
To what extent did the music make you feel ,TENDER,30MonoWAV/30MonoS4.wav,1,1,3,12,,,,,1,3,19,11,0,4,4,10,,,,,,,,,1,1.0524493260018062,018,001,2019_May_10_1114,MusicAffectPsychophysiology2019,3.0.5,59.79299616823929,
To what extent did the music make you feel ,EXCITED,30MonoWAV/30MonoS4.wav,1,1,3,12,,,,,1,3,19,11,0,5,5,7,,,,,,,,,1,1.201895821999642,018,001,2019_May_10_1114,MusicAffectPsychophysiology2019,3.0.5,59.79299616823929,
To what extent did the music make you feel ,SAD,30MonoWAV/30MonoS4.wav,1,1,3,12,,,,,1,3,19,11,0,6,6,0,,,,,,,,,3,1.9854553710028995,018,001,2019_May_10_1114,MusicAffectPsychophysiology2019,3.0.5,59.79299616823929,
To what extent did the music make you feel ,GUILTY,30MonoWAV/30MonoS4.wav,1,1,3,12,,,,,1,3,19,11,0,7,7,5,,,,,,,,,3,1.6857601039955625,018,001,2019_May_10_1114,MusicAffectPsychophysiology2019,3.0.5,59.79299616823929,
To what extent did the music make you feel ,ALERT,30MonoWAV/30MonoS4.wav,1,1,3,12,,,,,1,3,19,11,0,8,8,8,,,,,,,,,1,4.05100573800155,018,001,2019_May_10_1114,MusicAffectPsychophysiology2019,3.0.5,59.79299616823929,
To what extent did the music make you feel ,ANGRY,30MonoWAV/30MonoS4.wav,1,1,3,12,,,,,1,3,19,11,0,9,9,2,,,,,,,,,1,1.1199892000004184,018,001,2019_May_10_1114,MusicAffectPsychophysiology2019,3.0.5,59.79299616823929,
To what extent did the music make you feel ,HAPPY,30MonoWAV/30MonoS4.wav,1,1,3,12,,,,,1,3,19,11,0,10,10,6,,,,,,,,,1,0.536036746998434,018,001,2019_May_10_1114,MusicAffectPsychophysiology2019,3.0.5,59.79299616823929,
To what extent did the music make you feel ,FRUSTRATED,30MonoWAV/30MonoS4.wav,1,1,3,12,,,,,1,3,19,11,0,11,11,3,,,,,,,,,2,1.668512099997315,018,001,2019_May_10_1114,MusicAffectPsychophysiology2019,3.0.5,59.79299616823929,
,,30MonoWAV/30MonoS4.wav,1,1,3,12,,,,,1,3,19,11,,,,,,,,,,,,,,,018,001,2019_May_10_1114,MusicAffectPsychophysiology2019,3.0.5,59.79299616823929,
To what extent did the music make you feel ,TENDER,30MonoWAV/30MonoS1.wav,1,1,3,9,,,,,1,4,20,8,0,0,0,10,,,1,4.2021917089950875,1,1.4661120730015682,1,1.7191953209985513,2,2.201397236996854,018,001,2019_May_10_1114,MusicAffectPsychophysiology2019,3.0.5,59.79299616823929,
To what extent did the music make you feel ,ANXIOUS ,30MonoWAV/30MonoS1.wav,1,1,3,9,,,,,1,4,20,8,0,1,1,1,,,,,,,,,2,1.451433567002823,018,001,2019_May_10_1114,MusicAffectPsychophysiology2019,3.0.5,59.79299616823929,
To what extent did the music make you feel ,ALERT,30MonoWAV/30MonoS1.wav,1,1,3,9,,,,,1,4,20,8,0,2,2,8,,,,,,,,,1,0.9018520999961765,018,001,2019_May_10_1114,MusicAffectPsychophysiology2019,3.0.5,59.79299616823929,
To what extent did the music make you feel ,ACTIVE,30MonoWAV/30MonoS1.wav,1,1,3,9,,,,,1,4,20,8,0,3,3,9,,,,,,,,,1,0.6693108170002233,018,001,2019_May_10_1114,MusicAffectPsychophysiology2019,3.0.5,59.79299616823929,
To what extent did the music make you feel ,HAPPY,30MonoWAV/30MonoS1.wav,1,1,3,9,,,,,1,4,20,8,0,4,4,6,,,,,,,,,1,0.5022733209989383,018,001,2019_May_10_1114,MusicAffectPsychophysiology2019,3.0.5,59.79299616823929,
To what extent did the music make you feel ,ANGRY,30MonoWAV/30MonoS1.wav,1,1,3,9,,,,,1,4,20,8,0,5,5,2,,,,,,,,,1,0.9520923279997078,018,001,2019_May_10_1114,MusicAffectPsychophysiology2019,3.0.5,59.79299616823929,
To what extent did the music make you feel ,SAD,30MonoWAV/30MonoS1.wav,1,1,3,9,,,,,1,4,20,8,0,6,6,0,,,,,,,,,4,1.7684618289931677,018,001,2019_May_10_1114,MusicAffectPsychophysiology2019,3.0.5,59.79299616823929,
To what extent did the music make you feel ,SCARED,30MonoWAV/30MonoS1.wav,1,1,3,9,,,,,1,4,20,8,0,7,7,11,,,,,,,,,1,1.5688969559996622,018,001,2019_May_10_1114,MusicAffectPsychophysiology2019,3.0.5,59.79299616823929,
To what extent did the music make you feel ,ASHAMED,30MonoWAV/30MonoS1.wav,1,1,3,9,,,,,1,4,20,8,0,8,8,4,,,,,,,,,2,1.2689267419991666,018,001,2019_May_10_1114,MusicAffectPsychophysiology2019,3.0.5,59.79299616823929,
To what extent did the music make you feel ,FRUSTRATED,30MonoWAV/30MonoS1.wav,1,1,3,9,,,,,1,4,20,8,0,9,9,3,,,,,,,,,2,2.0014054410057724,018,001,2019_May_10_1114,MusicAffectPsychophysiology2019,3.0.5,59.79299616823929,
To what extent did the music make you feel ,EXCITED,30MonoWAV/30MonoS1.wav,1,1,3,9,,,,,1,4,20,8,0,10,10,7,,,,,,,,,1,0.6848798930004705,018,001,2019_May_10_1114,MusicAffectPsychophysiology2019,3.0.5,59.79299616823929,
To what extent did the music make you feel ,GUILTY,30MonoWAV/30MonoS1.wav,1,1,3,9,,,,,1,4,20,8,0,11,11,5,,,,,,,,,2,0.8854637249969528,018,001,2019_May_10_1114,MusicAffectPsychophysiology2019,3.0.5,59.79299616823929,
,,30MonoWAV/30MonoS1.wav,1,1,3,9,,,,,1,4,20,8,,,,,,,,,,,,,,,018,001,2019_May_10_1114,MusicAffectPsychophysiology2019,3.0.5,59.79299616823929,
To what extent did the music make you feel ,GUILTY,30MonoWAV/30MonoH3.wav,2,2,1,7,,,,,1,5,21,6,0,0,0,5,,,4,3.500900099003047,2,4.884604811995814,1,0.8848854579991894,1,1.6674494670005515,018,001,2019_May_10_1114,MusicAffectPsychophysiology2019,3.0.5,59.79299616823929,
To what extent did the music make you feel ,ANGRY,30MonoWAV/30MonoH3.wav,2,2,1,7,,,,,1,5,21,6,0,1,1,2,,,,,,,,,1,1.6180014939964167,018,001,2019_May_10_1114,MusicAffectPsychophysiology2019,3.0.5,59.79299616823929,
To what extent did the music make you feel ,ALERT,30MonoWAV/30MonoH3.wav,2,2,1,7,,,,,1,5,21,6,0,2,2,8,,,,,,,,,3,1.5694735889992444,018,001,2019_May_10_1114,MusicAffectPsychophysiology2019,3.0.5,59.79299616823929,
To what extent did the music make you feel ,HAPPY,30MonoWAV/30MonoH3.wav,2,2,1,7,,,,,1,5,21,6,0,3,3,6,,,,,,,,,1,1.235669641995628,018,001,2019_May_10_1114,MusicAffectPsychophysiology2019,3.0.5,59.79299616823929,
To what extent did the music make you feel ,ASHAMED,30MonoWAV/30MonoH3.wav,2,2,1,7,,,,,1,5,21,6,0,4,4,4,,,,,,,,,1,0.8361305580037879,018,001,2019_May_10_1114,MusicAffectPsychophysiology2019,3.0.5,59.79299616823929,
To what extent did the music make you feel ,EXCITED,30MonoWAV/30MonoH3.wav,2,2,1,7,,,,,1,5,21,6,0,5,5,7,,,,,,,,,1,1.4352780029948917,018,001,2019_May_10_1114,MusicAffectPsychophysiology2019,3.0.5,59.79299616823929,
To what extent did the music make you feel ,SAD,30MonoWAV/30MonoH3.wav,2,2,1,7,,,,,1,5,21,6,0,6,6,0,,,,,,,,,1,3.1341348309942987,018,001,2019_May_10_1114,MusicAffectPsychophysiology2019,3.0.5,59.79299616823929,
To what extent did the music make you feel ,ANXIOUS ,30MonoWAV/30MonoH3.wav,2,2,1,7,,,,,1,5,21,6,0,7,7,1,,,,,,,,,1,1.5517197360022692,018,001,2019_May_10_1114,MusicAffectPsychophysiology2019,3.0.5,59.79299616823929,
To what extent did the music make you feel ,FRUSTRATED,30MonoWAV/30MonoH3.wav,2,2,1,7,,,,,1,5,21,6,0,8,8,3,,,,,,,,,1,4.700039087001642,018,001,2019_May_10_1114,MusicAffectPsychophysiology2019,3.0.5,59.79299616823929,
To what extent did the music make you feel ,SCARED,30MonoWAV/30MonoH3.wav,2,2,1,7,,,,,1,5,21,6,0,9,9,11,,,,,,,,,1,1.301408460996754,018,001,2019_May_10_1114,MusicAffectPsychophysiology2019,3.0.5,59.79299616823929,
To what extent did the music make you feel ,TENDER,30MonoWAV/30MonoH3.wav,2,2,1,7,,,,,1,5,21,6,0,10,10,10,,,,,,,,,1,1.5849407939967932,018,001,2019_May_10_1114,MusicAffectPsychophysiology2019,3.0.5,59.79299616823929,
To what extent did the music make you feel ,ACTIVE,30MonoWAV/30MonoH3.wav,2,2,1,7,,,,,1,5,21,6,0,11,11,9,,,,,,,,,2,1.5015397280003526,018,001,2019_May_10_1114,MusicAffectPsychophysiology2019,3.0.5,59.79299616823929,
,,30MonoWAV/30MonoH3.wav,2,2,1,7,,,,,1,5,21,6,,,,,,,,,,,,,,,018,001,2019_May_10_1114,MusicAffectPsychophysiology2019,3.0.5,59.79299616823929,
To what extent did the music make you feel ,ASHAMED,30MonoWAV/30MonoF2.wav,1,2,2,2,,,,,1,6,22,1,0,0,0,4,,,2,4.817600574999233,1,1.30249327000638,1,0.6678059149999171,1,1.5848691900027916,018,001,2019_May_10_1114,MusicAffectPsychophysiology2019,3.0.5,59.79299616823929,
To what extent did the music make you feel ,EXCITED,30MonoWAV/30MonoF2.wav,1,2,2,2,,,,,1,6,22,1,0,1,1,7,,,,,,,,,1,3.1000870409989147,018,001,2019_May_10_1114,MusicAffectPsychophysiology2019,3.0.5,59.79299616823929,
To what extent did the music make you feel ,SAD,30MonoWAV/30MonoF2.wav,1,2,2,2,,,,,1,6,22,1,0,2,2,0,,,,,,,,,1,1.0508926199981943,018,001,2019_May_10_1114,MusicAffectPsychophysiology2019,3.0.5,59.79299616823929,
To what extent did the music make you feel ,ALERT,30MonoWAV/30MonoF2.wav,1,2,2,2,,,,,1,6,22,1,0,3,3,8,,,,,,,,,3,2.2358553650046815,018,001,2019_May_10_1114,MusicAffectPsychophysiology2019,3.0.5,59.79299616823929,
To what extent did the music make you feel ,SCARED,30MonoWAV/30MonoF2.wav,1,2,2,2,,,,,1,6,22,1,0,4,4,11,,,,,,,,,5,1.7354360749959596,018,001,2019_May_10_1114,MusicAffectPsychophysiology2019,3.0.5,59.79299616823929,
To what extent did the music make you feel ,GUILTY,30MonoWAV/30MonoF2.wav,1,2,2,2,,,,,1,6,22,1,0,5,5,5,,,,,,,,,2,2.3346972829967854,018,001,2019_May_10_1114,MusicAffectPsychophysiology2019,3.0.5,59.79299616823929,
To what extent did the music make you feel ,ACTIVE,30MonoWAV/30MonoF2.wav,1,2,2,2,,,,,1,6,22,1,0,6,6,9,,,,,,,,,1,3.1340494800024317,018,001,2019_May_10_1114,MusicAffectPsychophysiology2019,3.0.5,59.79299616823929,
To what extent did the music make you feel ,HAPPY,30MonoWAV/30MonoF2.wav,1,2,2,2,,,,,1,6,22,1,0,7,7,6,,,,,,,,,1,0.6189278099991498,018,001,2019_May_10_1114,MusicAffectPsychophysiology2019,3.0.5,59.79299616823929,
To what extent did the music make you feel ,TENDER,30MonoWAV/30MonoF2.wav,1,2,2,2,,,,,1,6,22,1,0,8,8,10,,,,,,,,,2,2.352286291003111,018,001,2019_May_10_1114,MusicAffectPsychophysiology2019,3.0.5,59.79299616823929,
To what extent did the music make you feel ,ANXIOUS ,30MonoWAV/30MonoF2.wav,1,2,2,2,,,,,1,6,22,1,0,9,9,1,,,,,,,,,4,4.035147656002664,018,001,2019_May_10_1114,MusicAffectPsychophysiology2019,3.0.5,59.79299616823929,
To what extent did the music make you feel ,FRUSTRATED,30MonoWAV/30MonoF2.wav,1,2,2,2,,,,,1,6,22,1,0,10,10,3,,,,,,,,,3,1.502498973000911,018,001,2019_May_10_1114,MusicAffectPsychophysiology2019,3.0.5,59.79299616823929,
To what extent did the music make you feel ,ANGRY,30MonoWAV/30MonoF2.wav,1,2,2,2,,,,,1,6,22,1,0,11,11,2,,,,,,,,,2,1.5346652969965362,018,001,2019_May_10_1114,MusicAffectPsychophysiology2019,3.0.5,59.79299616823929,
,,30MonoWAV/30MonoF2.wav,1,2,2,2,,,,,1,6,22,1,,,,,,,,,,,,,,,018,001,2019_May_10_1114,MusicAffectPsychophysiology2019,3.0.5,59.79299616823929,
To what extent did the music make you feel ,HAPPY,30MonoWAV/30MonoT2.wav,2,1,4,14,,,,,1,7,23,13,0,0,0,6,,,3,5.024085365999781,3,1.8180955900024856,2,1.485163982004451,3,2.0174401529948227,018,001,2019_May_10_1114,MusicAffectPsychophysiology2019,3.0.5,59.79299616823929,
To what extent did the music make you feel ,GUILTY,30MonoWAV/30MonoT2.wav,2,1,4,14,,,,,1,7,23,13,0,1,1,5,,,,,,,,,1,2.1027574360050494,018,001,2019_May_10_1114,MusicAffectPsychophysiology2019,3.0.5,59.79299616823929,
To what extent did the music make you feel ,TENDER,30MonoWAV/30MonoT2.wav,2,1,4,14,,,,,1,7,23,13,0,2,2,10,,,,,,,,,1,0.9183886140017421,018,001,2019_May_10_1114,MusicAffectPsychophysiology2019,3.0.5,59.79299616823929,
To what extent did the music make you feel ,ALERT,30MonoWAV/30MonoT2.wav,2,1,4,14,,,,,1,7,23,13,0,3,3,8,,,,,,,,,1,0.9513386279941187,018,001,2019_May_10_1114,MusicAffectPsychophysiology2019,3.0.5,59.79299616823929,
To what extent did the music make you feel ,FRUSTRATED,30MonoWAV/30MonoT2.wav,2,1,4,14,,,,,1,7,23,13,0,4,4,3,,,,,,,,,1,0.7683674229992903,018,001,2019_May_10_1114,MusicAffectPsychophysiology2019,3.0.5,59.79299616823929,
To what extent did the music make you feel ,SAD,30MonoWAV/30MonoT2.wav,2,1,4,14,,,,,1,7,23,13,0,5,5,0,,,,,,,,,1,0.9509643479977967,018,001,2019_May_10_1114,MusicAffectPsychophysiology2019,3.0.5,59.79299616823929,
To what extent did the music make you feel ,ANXIOUS ,30MonoWAV/30MonoT2.wav,2,1,4,14,,,,,1,7,23,13,0,6,6,1,,,,,,,,,1,0.6520646419958211,018,001,2019_May_10_1114,MusicAffectPsychophysiology2019,3.0.5,59.79299616823929,
To what extent did the music make you feel ,ASHAMED,30MonoWAV/30MonoT2.wav,2,1,4,14,,,,,1,7,23,13,0,7,7,4,,,,,,,,,1,0.7341357799959951,018,001,2019_May_10_1114,MusicAffectPsychophysiology2019,3.0.5,59.79299616823929,
To what extent did the music make you feel ,EXCITED,30MonoWAV/30MonoT2.wav,2,1,4,14,,,,,1,7,23,13,0,8,8,7,,,,,,,,,2,1.0361393179991865,018,001,2019_May_10_1114,MusicAffectPsychophysiology2019,3.0.5,59.79299616823929,
To what extent did the music make you feel ,ANGRY,30MonoWAV/30MonoT2.wav,2,1,4,14,,,,,1,7,23,13,0,9,9,2,,,,,,,,,1,1.0018828009997378,018,001,2019_May_10_1114,MusicAffectPsychophysiology2019,3.0.5,59.79299616823929,
To what extent did the music make you feel ,ACTIVE,30MonoWAV/30MonoT2.wav,2,1,4,14,,,,,1,7,23,13,0,10,10,9,,,,,,,,,2,1.185119071000372,018,001,2019_May_10_1114,MusicAffectPsychophysiology2019,3.0.5,59.79299616823929,
To what extent did the music make you feel ,SCARED,30MonoWAV/30MonoT2.wav,2,1,4,14,,,,,1,7,23,13,0,11,11,11,,,,,,,,,1,2.9025491400025203,018,001,2019_May_10_1114,MusicAffectPsychophysiology2019,3.0.5,59.79299616823929,
,,30MonoWAV/30MonoT2.wav,2,1,4,14,,,,,1,7,23,13,,,,,,,,,,,,,,,018,001,2019_May_10_1114,MusicAffectPsychophysiology2019,3.0.5,59.79299616823929,
To what extent did the music make you feel ,FRUSTRATED,30MonoWAV/30MonoF4.wav,1,2,2,4,,,,,1,8,24,3,0,0,0,3,,,5,3.1999095669962117,2,1.4857140129970503,1,1.467524466002942,4,1.8977999540002202,018,001,2019_May_10_1114,MusicAffectPsychophysiology2019,3.0.5,59.79299616823929,
To what extent did the music make you feel ,HAPPY,30MonoWAV/30MonoF4.wav,1,2,2,4,,,,,1,8,24,3,0,1,1,6,,,,,,,,,1,1.2847209649989964,018,001,2019_May_10_1114,MusicAffectPsychophysiology2019,3.0.5,59.79299616823929,
To what extent did the music make you feel ,GUILTY,30MonoWAV/30MonoF4.wav,1,2,2,4,,,,,1,8,24,3,0,2,2,5,,,,,,,,,1,0.9512267679965589,018,001,2019_May_10_1114,MusicAffectPsychophysiology2019,3.0.5,59.79299616823929,
To what extent did the music make you feel ,SCARED,30MonoWAV/30MonoF4.wav,1,2,2,4,,,,,1,8,24,3,0,3,3,11,,,,,,,,,2,0.9851123260013992,018,001,2019_May_10_1114,MusicAffectPsychophysiology2019,3.0.5,59.79299616823929,
To what extent did the music make you feel ,ALERT,30MonoWAV/30MonoF4.wav,1,2,2,4,,,,,1,8,24,3,0,4,4,8,,,,,,,,,4,1.4511492600067868,018,001,2019_May_10_1114,MusicAffectPsychophysiology2019,3.0.5,59.79299616823929,
To what extent did the music make you feel ,ACTIVE,30MonoWAV/30MonoF4.wav,1,2,2,4,,,,,1,8,24,3,0,5,5,9,,,,,,,,,1,1.6183757339967997,018,001,2019_May_10_1114,MusicAffectPsychophysiology2019,3.0.5,59.79299616823929,
To what extent did the music make you feel ,ANXIOUS ,30MonoWAV/30MonoF4.wav,1,2,2,4,,,,,1,8,24,3,0,6,6,1,,,,,,,,,4,1.5515823569949134,018,001,2019_May_10_1114,MusicAffectPsychophysiology2019,3.0.5,59.79299616823929,
To what extent did the music make you feel ,TENDER,30MonoWAV/30MonoF4.wav,1,2,2,4,,,,,1,8,24,3,0,7,7,10,,,,,,,,,2,3.4698225789979915,018,001,2019_May_10_1114,MusicAffectPsychophysiology2019,3.0.5,59.79299616823929,
To what extent did the music make you feel ,SAD,30MonoWAV/30MonoF4.wav,1,2,2,4,,,,,1,8,24,3,0,8,8,0,,,,,,,,,1,1.5513204870003392,018,001,2019_May_10_1114,MusicAffectPsychophysiology2019,3.0.5,59.79299616823929,
To what extent did the music make you feel ,ASHAMED,30MonoWAV/30MonoF4.wav,1,2,2,4,,,,,1,8,24,3,0,9,9,4,,,,,,,,,1,1.1352729549980722,018,001,2019_May_10_1114,MusicAffectPsychophysiology2019,3.0.5,59.79299616823929,
To what extent did the music make you feel ,EXCITED,30MonoWAV/30MonoF4.wav,1,2,2,4,,,,,1,8,24,3,0,10,10,7,,,,,,,,,1,0.9187827450004988,018,001,2019_May_10_1114,MusicAffectPsychophysiology2019,3.0.5,59.79299616823929,
To what extent did the music make you feel ,ANGRY,30MonoWAV/30MonoF4.wav,1,2,2,4,,,,,1,8,24,3,0,11,11,2,,,,,,,,,1,1.5850704650001717,018,001,2019_May_10_1114,MusicAffectPsychophysiology2019,3.0.5,59.79299616823929,
,,30MonoWAV/30MonoF4.wav,1,2,2,4,,,,,1,8,24,3,,,,,,,,,,,,,,,018,001,2019_May_10_1114,MusicAffectPsychophysiology2019,3.0.5,59.79299616823929,
To what extent did the music make you feel ,HAPPY,30MonoWAV/30MonoS2.wav,1,1,3,10,,,,,1,9,25,9,0,0,0,6,,,1,8.833532010001363,1,1.2019714140042197,1,1.0015351220063167,1,1.017695492002531,018,001,2019_May_10_1114,MusicAffectPsychophysiology2019,3.0.5,59.79299616823929,
To what extent did the music make you feel ,ACTIVE,30MonoWAV/30MonoS2.wav,1,1,3,10,,,,,1,9,25,9,0,1,1,9,,,,,,,,,1,1.2356484740012093,018,001,2019_May_10_1114,MusicAffectPsychophysiology2019,3.0.5,59.79299616823929,
To what extent did the music make you feel ,ASHAMED,30MonoWAV/30MonoS2.wav,1,1,3,10,,,,,1,9,25,9,0,2,2,4,,,,,,,,,1,1.1523638740036404,018,001,2019_May_10_1114,MusicAffectPsychophysiology2019,3.0.5,59.79299616823929,
To what extent did the music make you feel ,ANGRY,30MonoWAV/30MonoS2.wav,1,1,3,10,,,,,1,9,25,9,0,3,3,2,,,,,,,,,1,0.8185671030005324,018,001,2019_May_10_1114,MusicAffectPsychophysiology2019,3.0.5,59.79299616823929,
To what extent did the music make you feel ,SCARED,30MonoWAV/30MonoS2.wav,1,1,3,10,,,,,1,9,25,9,0,4,4,11,,,,,,,,,1,0.7673631439974997,018,001,2019_May_10_1114,MusicAffectPsychophysiology2019,3.0.5,59.79299616823929,
To what extent did the music make you feel ,EXCITED,30MonoWAV/30MonoS2.wav,1,1,3,10,,,,,1,9,25,9,0,5,5,7,,,,,,,,,1,1.0181875509952079,018,001,2019_May_10_1114,MusicAffectPsychophysiology2019,3.0.5,59.79299616823929,
To what extent did the music make you feel ,SAD,30MonoWAV/30MonoS2.wav,1,1,3,10,,,,,1,9,25,9,0,6,6,0,,,,,,,,,3,1.6857783740051673,018,001,2019_May_10_1114,MusicAffectPsychophysiology2019,3.0.5,59.79299616823929,
To what extent did the music make you feel ,TENDER,30MonoWAV/30MonoS2.wav,1,1,3,10,,,,,1,9,25,9,0,7,7,10,,,,,,,,,1,1.4191619830016862,018,001,2019_May_10_1114,MusicAffectPsychophysiology2019,3.0.5,59.79299616823929,
To what extent did the music make you feel ,ALERT,30MonoWAV/30MonoS2.wav,1,1,3,10,,,,,1,9,25,9,0,8,8,8,,,,,,,,,1,0.8684276240019244,018,001,2019_May_10_1114,MusicAffectPsychophysiology2019,3.0.5,59.79299616823929,
To what extent did the music make you feel ,GUILTY,30MonoWAV/30MonoS2.wav,1,1,3,10,,,,,1,9,25,9,0,9,9,5,,,,,,,,,2,1.1185512070005643,018,001,2019_May_10_1114,MusicAffectPsychophysiology2019,3.0.5,59.79299616823929,
To what extent did the music make you feel ,FRUSTRATED,30MonoWAV/30MonoS2.wav,1,1,3,10,,,,,1,9,25,9,0,10,10,3,,,,,,,,,1,1.1670844390027924,018,001,2019_May_10_1114,MusicAffectPsychophysiology2019,3.0.5,59.79299616823929,
To what extent did the music make you feel ,ANXIOUS ,30MonoWAV/30MonoS2.wav,1,1,3,10,,,,,1,9,25,9,0,11,11,1,,,,,,,,,1,1.1186768539992045,018,001,2019_May_10_1114,MusicAffectPsychophysiology2019,3.0.5,59.79299616823929,
,,30MonoWAV/30MonoS2.wav,1,1,3,10,,,,,1,9,25,9,,,,,,,,,,,,,,,018,001,2019_May_10_1114,MusicAffectPsychophysiology2019,3.0.5,59.79299616823929,
To what extent did the music make you feel ,HAPPY,30MonoWAV/30MonoS3.wav,1,1,3,11,,,,,1,10,26,10,0,0,0,6,,,1,8.834649437994813,1,0.7686186189966975,1,0.3020688619944849,1,1.0170193500016467,018,001,2019_May_10_1114,MusicAffectPsychophysiology2019,3.0.5,59.79299616823929,
To what extent did the music make you feel ,ANGRY,30MonoWAV/30MonoS3.wav,1,1,3,11,,,,,1,10,26,10,0,1,1,2,,,,,,,,,1,0.7517404570025974,018,001,2019_May_10_1114,MusicAffectPsychophysiology2019,3.0.5,59.79299616823929,
To what extent did the music make you feel ,ANXIOUS ,30MonoWAV/30MonoS3.wav,1,1,3,11,,,,,1,10,26,10,0,2,2,1,,,,,,,,,2,1.1016741179992096,018,001,2019_May_10_1114,MusicAffectPsychophysiology2019,3.0.5,59.79299616823929,
To what extent did the music make you feel ,ACTIVE,30MonoWAV/30MonoS3.wav,1,1,3,11,,,,,1,10,26,10,0,3,3,9,,,,,,,,,1,0.7164773129989044,018,001,2019_May_10_1114,MusicAffectPsychophysiology2019,3.0.5,59.79299616823929,
To what extent did the music make you feel ,EXCITED,30MonoWAV/30MonoS3.wav,1,1,3,11,,,,,1,10,26,10,0,4,4,7,,,,,,,,,1,0.752363700994465,018,001,2019_May_10_1114,MusicAffectPsychophysiology2019,3.0.5,59.79299616823929,
To what extent did the music make you feel ,SAD,30MonoWAV/30MonoS3.wav,1,1,3,11,,,,,1,10,26,10,0,5,5,0,,,,,,,,,3,1.6533871700012241,018,001,2019_May_10_1114,MusicAffectPsychophysiology2019,3.0.5,59.79299616823929,
To what extent did the music make you feel ,ASHAMED,30MonoWAV/30MonoS3.wav,1,1,3,11,,,,,1,10,26,10,0,6,6,4,,,,,,,,,1,1.9676768319986877,018,001,2019_May_10_1114,MusicAffectPsychophysiology2019,3.0.5,59.79299616823929,
To what extent did the music make you feel ,TENDER,30MonoWAV/30MonoS3.wav,1,1,3,11,,,,,1,10,26,10,0,7,7,10,,,,,,,,,1,0.9184840130037628,018,001,2019_May_10_1114,MusicAffectPsychophysiology2019,3.0.5,59.79299616823929,
To what extent did the music make you feel ,ALERT,30MonoWAV/30MonoS3.wav,1,1,3,11,,,,,1,10,26,10,0,8,8,8,,,,,,,,,1,1.0849111979987356,018,001,2019_May_10_1114,MusicAffectPsychophysiology2019,3.0.5,59.79299616823929,
To what extent did the music make you feel ,SCARED,30MonoWAV/30MonoS3.wav,1,1,3,11,,,,,1,10,26,10,0,9,9,11,,,,,,,,,1,1.135411925999506,018,001,2019_May_10_1114,MusicAffectPsychophysiology2019,3.0.5,59.79299616823929,
To what extent did the music make you feel ,FRUSTRATED,30MonoWAV/30MonoS3.wav,1,1,3,11,,,,,1,10,26,10,0,10,10,3,,,,,,,,,2,2.851350621000165,018,001,2019_May_10_1114,MusicAffectPsychophysiology2019,3.0.5,59.79299616823929,
To what extent did the music make you feel ,GUILTY,30MonoWAV/30MonoS3.wav,1,1,3,11,,,,,1,10,26,10,0,11,11,5,,,,,,,,,2,1.085100821001106,018,001,2019_May_10_1114,MusicAffectPsychophysiology2019,3.0.5,59.79299616823929,
,,30MonoWAV/30MonoS3.wav,1,1,3,11,,,,,1,10,26,10,,,,,,,,,,,,,,,018,001,2019_May_10_1114,MusicAffectPsychophysiology2019,3.0.5,59.79299616823929,
To what extent did the music make you feel ,ACTIVE,30MonoWAV/30MonoH4.wav,2,2,1,8,,,,,1,11,27,7,0,0,0,9,,,2,3.1894058589969063,1,1.0520358110006782,1,1.1351336210063891,2,2.3050364599985187,018,001,2019_May_10_1114,MusicAffectPsychophysiology2019,3.0.5,59.79299616823929,
To what extent did the music make you feel ,ANXIOUS ,30MonoWAV/30MonoH4.wav,2,2,1,8,,,,,1,11,27,7,0,1,1,1,,,,,,,,,1,1.73581654499867,018,001,2019_May_10_1114,MusicAffectPsychophysiology2019,3.0.5,59.79299616823929,
To what extent did the music make you feel ,ANGRY,30MonoWAV/30MonoH4.wav,2,2,1,8,,,,,1,11,27,7,0,2,2,2,,,,,,,,,1,1.6394937250006478,018,001,2019_May_10_1114,MusicAffectPsychophysiology2019,3.0.5,59.79299616823929,
To what extent did the music make you feel ,TENDER,30MonoWAV/30MonoH4.wav,2,2,1,8,,,,,1,11,27,7,0,3,3,10,,,,,,,,,1,1.0003512089970172,018,001,2019_May_10_1114,MusicAffectPsychophysiology2019,3.0.5,59.79299616823929,
To what extent did the music make you feel ,ASHAMED,30MonoWAV/30MonoH4.wav,2,2,1,8,,,,,1,11,27,7,0,4,4,4,,,,,,,,,1,1.033613694999076,018,001,2019_May_10_1114,MusicAffectPsychophysiology2019,3.0.5,59.79299616823929,
To what extent did the music make you feel ,ALERT,30MonoWAV/30MonoH4.wav,2,2,1,8,,,,,1,11,27,7,0,5,5,8,,,,,,,,,1,1.302048528996238,018,001,2019_May_10_1114,MusicAffectPsychophysiology2019,3.0.5,59.79299616823929,
To what extent did the music make you feel ,SCARED,30MonoWAV/30MonoH4.wav,2,2,1,8,,,,,1,11,27,7,0,6,6,11,,,,,,,,,1,0.634066394995898,018,001,2019_May_10_1114,MusicAffectPsychophysiology2019,3.0.5,59.79299616823929,
To what extent did the music make you feel ,GUILTY,30MonoWAV/30MonoH4.wav,2,2,1,8,,,,,1,11,27,7,0,7,7,5,,,,,,,,,1,1.135597738000797,018,001,2019_May_10_1114,MusicAffectPsychophysiology2019,3.0.5,59.79299616823929,
To what extent did the music make you feel ,EXCITED,30MonoWAV/30MonoH4.wav,2,2,1,8,,,,,1,11,27,7,0,8,8,7,,,,,,,,,2,1.801340080004593,018,001,2019_May_10_1114,MusicAffectPsychophysiology2019,3.0.5,59.79299616823929,
To what extent did the music make you feel ,SAD,30MonoWAV/30MonoH4.wav,2,2,1,8,,,,,1,11,27,7,0,9,9,0,,,,,,,,,1,2.5850227720002295,018,001,2019_May_10_1114,MusicAffectPsychophysiology2019,3.0.5,59.79299616823929,
To what extent did the music make you feel ,HAPPY,30MonoWAV/30MonoH4.wav,2,2,1,8,,,,,1,11,27,7,0,10,10,6,,,,,,,,,1,1.8491533139967942,018,001,2019_May_10_1114,MusicAffectPsychophysiology2019,3.0.5,59.79299616823929,
To what extent did the music make you feel ,FRUSTRATED,30MonoWAV/30MonoH4.wav,2,2,1,8,,,,,1,11,27,7,0,11,11,3,,,,,,,,,1,3.218307436000032,018,001,2019_May_10_1114,MusicAffectPsychophysiology2019,3.0.5,59.79299616823929,
,,30MonoWAV/30MonoH4.wav,2,2,1,8,,,,,1,11,27,7,,,,,,,,,,,,,,,018,001,2019_May_10_1114,MusicAffectPsychophysiology2019,3.0.5,59.79299616823929,
To what extent did the music make you feel ,ANXIOUS ,30MonoWAV/30MonoT4.wav,2,1,4,16,,,,,1,12,28,15,0,0,0,1,,,1,3.519024488996365,1,0.9022057880065404,1,0.9855504059960367,2,1.651206980997813,018,001,2019_May_10_1114,MusicAffectPsychophysiology2019,3.0.5,59.79299616823929,
To what extent did the music make you feel ,ACTIVE,30MonoWAV/30MonoT4.wav,2,1,4,16,,,,,1,12,28,15,0,1,1,9,,,,,,,,,1,1.3517294369958108,018,001,2019_May_10_1114,MusicAffectPsychophysiology2019,3.0.5,59.79299616823929,
To what extent did the music make you feel ,ALERT,30MonoWAV/30MonoT4.wav,2,1,4,16,,,,,1,12,28,15,0,2,2,8,,,,,,,,,1,2.58324151999841,018,001,2019_May_10_1114,MusicAffectPsychophysiology2019,3.0.5,59.79299616823929,
To what extent did the music make you feel ,SCARED,30MonoWAV/30MonoT4.wav,2,1,4,16,,,,,1,12,28,15,0,3,3,11,,,,,,,,,1,1.1510995619973983,018,001,2019_May_10_1114,MusicAffectPsychophysiology2019,3.0.5,59.79299616823929,
To what extent did the music make you feel ,TENDER,30MonoWAV/30MonoT4.wav,2,1,4,16,,,,,1,12,28,15,0,4,4,10,,,,,,,,,1,1.485878439998487,018,001,2019_May_10_1114,MusicAffectPsychophysiology2019,3.0.5,59.79299616823929,
To what extent did the music make you feel ,GUILTY,30MonoWAV/30MonoT4.wav,2,1,4,16,,,,,1,12,28,15,0,5,5,5,,,,,,,,,1,1.7355943829970784,018,001,2019_May_10_1114,MusicAffectPsychophysiology2019,3.0.5,59.79299616823929,
To what extent did the music make you feel ,ANGRY,30MonoWAV/30MonoT4.wav,2,1,4,16,,,,,1,12,28,15,0,6,6,2,,,,,,,,,1,2.6003487310008495,018,001,2019_May_10_1114,MusicAffectPsychophysiology2019,3.0.5,59.79299616823929,
To what extent did the music make you feel ,FRUSTRATED,30MonoWAV/30MonoT4.wav,2,1,4,16,,,,,1,12,28,15,0,7,7,3,,,,,,,,,2,1.301835423000739,018,001,2019_May_10_1114,MusicAffectPsychophysiology2019,3.0.5,59.79299616823929,
To what extent did the music make you feel ,HAPPY,30MonoWAV/30MonoT4.wav,2,1,4,16,,,,,1,12,28,15,0,8,8,6,,,,,,,,,1,1.0349846739991335,018,001,2019_May_10_1114,MusicAffectPsychophysiology2019,3.0.5,59.79299616823929,
To what extent did the music make you feel ,SAD,30MonoWAV/30MonoT4.wav,2,1,4,16,,,,,1,12,28,15,0,9,9,0,,,,,,,,,3,1.7511891850008396,018,001,2019_May_10_1114,MusicAffectPsychophysiology2019,3.0.5,59.79299616823929,
To what extent did the music make you feel ,ASHAMED,30MonoWAV/30MonoT4.wav,2,1,4,16,,,,,1,12,28,15,0,10,10,4,,,,,,,,,1,1.2850798099971144,018,001,2019_May_10_1114,MusicAffectPsychophysiology2019,3.0.5,59.79299616823929,
To what extent did the music make you feel ,EXCITED,30MonoWAV/30MonoT4.wav,2,1,4,16,,,,,1,12,28,15,0,11,11,7,,,,,,,,,1,1.55169480600307,018,001,2019_May_10_1114,MusicAffectPsychophysiology2019,3.0.5,59.79299616823929,
,,30MonoWAV/30MonoT4.wav,2,1,4,16,,,,,1,12,28,15,,,,,,,,,,,,,,,018,001,2019_May_10_1114,MusicAffectPsychophysiology2019,3.0.5,59.79299616823929,
To what extent did the music make you feel ,ALERT,30MonoWAV/30MonoT3.wav,2,1,4,15,,,,,1,13,29,14,0,0,0,8,,,1,4.218665161002718,1,1.7845255229985924,1,2.6344430450044456,1,1.1357475019976846,018,001,2019_May_10_1114,MusicAffectPsychophysiology2019,3.0.5,59.79299616823929,
To what extent did the music make you feel ,ACTIVE,30MonoWAV/30MonoT3.wav,2,1,4,15,,,,,1,13,29,14,0,1,1,9,,,,,,,,,1,1.0023654110045754,018,001,2019_May_10_1114,MusicAffectPsychophysiology2019,3.0.5,59.79299616823929,
To what extent did the music make you feel ,ANGRY,30MonoWAV/30MonoT3.wav,2,1,4,15,,,,,1,13,29,14,0,2,2,2,,,,,,,,,1,0.634986374003347,018,001,2019_May_10_1114,MusicAffectPsychophysiology2019,3.0.5,59.79299616823929,
To what extent did the music make you feel ,HAPPY,30MonoWAV/30MonoT3.wav,2,1,4,15,,,,,1,13,29,14,0,3,3,6,,,,,,,,,1,3.4845401939965086,018,001,2019_May_10_1114,MusicAffectPsychophysiology2019,3.0.5,59.79299616823929,
To what extent did the music make you feel ,FRUSTRATED,30MonoWAV/30MonoT3.wav,2,1,4,15,,,,,1,13,29,14,0,4,4,3,,,,,,,,,1,1.0844627260012203,018,001,2019_May_10_1114,MusicAffectPsychophysiology2019,3.0.5,59.79299616823929,
To what extent did the music make you feel ,TENDER,30MonoWAV/30MonoT3.wav,2,1,4,15,,,,,1,13,29,14,0,5,5,10,,,,,,,,,1,1.318251152006269,018,001,2019_May_10_1114,MusicAffectPsychophysiology2019,3.0.5,59.79299616823929,
To what extent did the music make you feel ,ASHAMED,30MonoWAV/30MonoT3.wav,2,1,4,15,,,,,1,13,29,14,0,6,6,4,,,,,,,,,1,1.8184861589979846,018,001,2019_May_10_1114,MusicAffectPsychophysiology2019,3.0.5,59.79299616823929,
To what extent did the music make you feel ,EXCITED,30MonoWAV/30MonoT3.wav,2,1,4,15,,,,,1,13,29,14,0,7,7,7,,,,,,,,,1,1.185787934999098,018,001,2019_May_10_1114,MusicAffectPsychophysiology2019,3.0.5,59.79299616823929,
To what extent did the music make you feel ,ANXIOUS ,30MonoWAV/30MonoT3.wav,2,1,4,15,,,,,1,13,29,14,0,8,8,1,,,,,,,,,1,1.08281692500168,018,001,2019_May_10_1114,MusicAffectPsychophysiology2019,3.0.5,59.79299616823929,
To what extent did the music make you feel ,SCARED,30MonoWAV/30MonoT3.wav,2,1,4,15,,,,,1,13,29,14,0,9,9,11,,,,,,,,,1,0.73525109700131,018,001,2019_May_10_1114,MusicAffectPsychophysiology2019,3.0.5,59.79299616823929,
To what extent did the music make you feel ,SAD,30MonoWAV/30MonoT3.wav,2,1,4,15,,,,,1,13,29,14,0,10,10,0,,,,,,,,,2,0.5026989910038537,018,001,2019_May_10_1114,MusicAffectPsychophysiology2019,3.0.5,59.79299616823929,
To what extent did the music make you feel ,GUILTY,30MonoWAV/30MonoT3.wav,2,1,4,15,,,,,1,13,29,14,0,11,11,5,,,,,,,,,1,2.1171524429955753,018,001,2019_May_10_1114,MusicAffectPsychophysiology2019,3.0.5,59.79299616823929,
,,30MonoWAV/30MonoT3.wav,2,1,4,15,,,,,1,13,29,14,,,,,,,,,,,,,,,018,001,2019_May_10_1114,MusicAffectPsychophysiology2019,3.0.5,59.79299616823929,
To what extent did the music make you feel ,ALERT,30MonoWAV/30MonoF1.wav,1,2,2,1,,,,,1,14,30,0,0,0,0,8,,,5,2.569431892996363,1,2.119069414999103,1,1.385265534001519,5,1.9839782679991913,018,001,2019_May_10_1114,MusicAffectPsychophysiology2019,3.0.5,59.79299616823929,
To what extent did the music make you feel ,ANGRY,30MonoWAV/30MonoF1.wav,1,2,2,1,,,,,1,14,30,0,0,1,1,2,,,,,,,,,2,1.3013980190007715,018,001,2019_May_10_1114,MusicAffectPsychophysiology2019,3.0.5,59.79299616823929,
To what extent did the music make you feel ,ACTIVE,30MonoWAV/30MonoF1.wav,1,2,2,1,,,,,1,14,30,0,0,2,2,9,,,,,,,,,2,1.5516563400015002,018,001,2019_May_10_1114,MusicAffectPsychophysiology2019,3.0.5,59.79299616823929,
To what extent did the music make you feel ,ANXIOUS ,30MonoWAV/30MonoF1.wav,1,2,2,1,,,,,1,14,30,0,0,3,3,1,,,,,,,,,3,1.351240467003663,018,001,2019_May_10_1114,MusicAffectPsychophysiology2019,3.0.5,59.79299616823929,
To what extent did the music make you feel ,FRUSTRATED,30MonoWAV/30MonoF1.wav,1,2,2,1,,,,,1,14,30,0,0,4,4,3,,,,,,,,,2,1.018736286998319,018,001,2019_May_10_1114,MusicAffectPsychophysiology2019,3.0.5,59.79299616823929,
To what extent did the music make you feel ,SCARED,30MonoWAV/30MonoF1.wav,1,2,2,1,,,,,1,14,30,0,0,5,5,11,,,,,,,,,2,1.5674266400019405,018,001,2019_May_10_1114,MusicAffectPsychophysiology2019,3.0.5,59.79299616823929,
To what extent did the music make you feel ,GUILTY,30MonoWAV/30MonoF1.wav,1,2,2,1,,,,,1,14,30,0,0,6,6,5,,,,,,,,,1,2.167750751003041,018,001,2019_May_10_1114,MusicAffectPsychophysiology2019,3.0.5,59.79299616823929,
To what extent did the music make you feel ,TENDER,30MonoWAV/30MonoF1.wav,1,2,2,1,,,,,1,14,30,0,0,7,7,10,,,,,,,,,3,1.5855890300008468,018,001,2019_May_10_1114,MusicAffectPsychophysiology2019,3.0.5,59.79299616823929,
To what extent did the music make you feel ,EXCITED,30MonoWAV/30MonoF1.wav,1,2,2,1,,,,,1,14,30,0,0,8,8,7,,,,,,,,,1,1.3358759099937743,018,001,2019_May_10_1114,MusicAffectPsychophysiology2019,3.0.5,59.79299616823929,
To what extent did the music make you feel ,SAD,30MonoWAV/30MonoF1.wav,1,2,2,1,,,,,1,14,30,0,0,9,9,0,,,,,,,,,1,1.3845257700013462,018,001,2019_May_10_1114,MusicAffectPsychophysiology2019,3.0.5,59.79299616823929,
To what extent did the music make you feel ,HAPPY,30MonoWAV/30MonoF1.wav,1,2,2,1,,,,,1,14,30,0,0,10,10,6,,,,,,,,,1,0.7015819199950784,018,001,2019_May_10_1114,MusicAffectPsychophysiology2019,3.0.5,59.79299616823929,
To what extent did the music make you feel ,ASHAMED,30MonoWAV/30MonoF1.wav,1,2,2,1,,,,,1,14,30,0,0,11,11,4,,,,,,,,,1,1.0860278570035007,018,001,2019_May_10_1114,MusicAffectPsychophysiology2019,3.0.5,59.79299616823929,
,,30MonoWAV/30MonoF1.wav,1,2,2,1,,,,,1,14,30,0,,,,,,,,,,,,,,,018,001,2019_May_10_1114,MusicAffectPsychophysiology2019,3.0.5,59.79299616823929,
To what extent did the music make you feel ,ANGRY,30MonoWAV/30MonoH2.wav,2,2,1,6,,,,,1,15,31,5,0,0,0,2,,,3,3.5555652909970377,1,1.423887723001826,1,1.0012809289983124,1,2.201591229000769,018,001,2019_May_10_1114,MusicAffectPsychophysiology2019,3.0.5,59.79299616823929,
To what extent did the music make you feel ,GUILTY,30MonoWAV/30MonoH2.wav,2,2,1,6,,,,,1,15,31,5,0,1,1,5,,,,,,,,,1,1.5849379239953123,018,001,2019_May_10_1114,MusicAffectPsychophysiology2019,3.0.5,59.79299616823929,
To what extent did the music make you feel ,EXCITED,30MonoWAV/30MonoH2.wav,2,2,1,6,,,,,1,15,31,5,0,2,2,7,,,,,,,,,1,0.9508263539973996,018,001,2019_May_10_1114,MusicAffectPsychophysiology2019,3.0.5,59.79299616823929,
To what extent did the music make you feel ,ALERT,30MonoWAV/30MonoH2.wav,2,2,1,6,,,,,1,15,31,5,0,3,3,8,,,,,,,,,3,1.6680959079967579,018,001,2019_May_10_1114,MusicAffectPsychophysiology2019,3.0.5,59.79299616823929,
To what extent did the music make you feel ,FRUSTRATED,30MonoWAV/30MonoH2.wav,2,2,1,6,,,,,1,15,31,5,0,4,4,3,,,,,,,,,1,1.435720603003574,018,001,2019_May_10_1114,MusicAffectPsychophysiology2019,3.0.5,59.79299616823929,
To what extent did the music make you feel ,ACTIVE,30MonoWAV/30MonoH2.wav,2,2,1,6,,,,,1,15,31,5,0,5,5,9,,,,,,,,,2,1.2019153840010404,018,001,2019_May_10_1114,MusicAffectPsychophysiology2019,3.0.5,59.79299616823929,
To what extent did the music make you feel ,ASHAMED,30MonoWAV/30MonoH2.wav,2,2,1,6,,,,,1,15,31,5,0,6,6,4,,,,,,,,,1,1.0173557059970335,018,001,2019_May_10_1114,MusicAffectPsychophysiology2019,3.0.5,59.79299616823929,
To what extent did the music make you feel ,ANXIOUS ,30MonoWAV/30MonoH2.wav,2,2,1,6,,,,,1,15,31,5,0,7,7,1,,,,,,,,,1,0.7839798079949105,018,001,2019_May_10_1114,MusicAffectPsychophysiology2019,3.0.5,59.79299616823929,
To what extent did the music make you feel ,SAD,30MonoWAV/30MonoH2.wav,2,2,1,6,,,,,1,15,31,5,0,8,8,0,,,,,,,,,1,0.7519372499955352,018,001,2019_May_10_1114,MusicAffectPsychophysiology2019,3.0.5,59.79299616823929,
To what extent did the music make you feel ,TENDER,30MonoWAV/30MonoH2.wav,2,2,1,6,,,,,1,15,31,5,0,9,9,10,,,,,,,,,1,0.8846567119981046,018,001,2019_May_10_1114,MusicAffectPsychophysiology2019,3.0.5,59.79299616823929,
To what extent did the music make you feel ,HAPPY,30MonoWAV/30MonoH2.wav,2,2,1,6,,,,,1,15,31,5,0,10,10,6,,,,,,,,,1,0.6350680109972018,018,001,2019_May_10_1114,MusicAffectPsychophysiology2019,3.0.5,59.79299616823929,
To what extent did the music make you feel ,SCARED,30MonoWAV/30MonoH2.wav,2,2,1,6,,,,,1,15,31,5,0,11,11,11,,,,,,,,,1,0.7166911640015314,018,001,2019_May_10_1114,MusicAffectPsychophysiology2019,3.0.5,59.79299616823929,
,,30MonoWAV/30MonoH2.wav,2,2,1,6,,,,,1,15,31,5,,,,,,,,,,,,,,,018,001,2019_May_10_1114,MusicAffectPsychophysiology2019,3.0.5,59.79299616823929,
