Instruction,Word,song,valence,arousal,affectcat,songmark,pracwords.thisRepN,pracwords.thisTrialN,pracwords.thisN,pracwords.thisIndex,songtrials.thisRepN,songtrials.thisTrialN,songtrials.thisN,songtrials.thisIndex,words.thisRepN,words.thisTrialN,words.thisN,words.thisIndex,begin.keys,begin.rt,arousalkey.keys,arousalkey.rt,valencekey.keys,valencekey.rt,likekey.keys,likekey.rt,WordResponse.keys,WordResponse.rt,key_resp_2.keys,key_resp_2.rt,participant,session,date,expName,psychopyVersion,frameRate,
,,,,,,,,,,,,,,,,,,,space,14.77885637000145,,,,,,,,,,,019,001,2019_May_10_1520,MusicAffectPsychophysiology2019,3.0.5,60.04557699596736,
,,,,,,,,,,,,,,,,,,,,,2,11.16438380699401,,,,,,,,,019,001,2019_May_10_1520,MusicAffectPsychophysiology2019,3.0.5,60.04557699596736,
,,,,,,,,,,,,,,,,,,,,,,,5,6.090170497001964,,,,,,,019,001,2019_May_10_1520,MusicAffectPsychophysiology2019,3.0.5,60.04557699596736,
,,,,,,,,,,,,,,,,,,,,,,,,,4,2.485954247000336,,,,,019,001,2019_May_10_1520,MusicAffectPsychophysiology2019,3.0.5,60.04557699596736,
To what extent did the music make you feel ,ALERT,,,,,,0,0,0,8,,,,,,,,,,,,,,,,,3,5.468707346000883,,,019,001,2019_May_10_1520,MusicAffectPsychophysiology2019,3.0.5,60.04557699596736,
To what extent did the music make you feel ,FRUSTRATED,,,,,,0,1,1,3,,,,,,,,,,,,,,,,,1,2.8345117549979477,,,019,001,2019_May_10_1520,MusicAffectPsychophysiology2019,3.0.5,60.04557699596736,
To what extent did the music make you feel ,ANGRY,,,,,,0,2,2,2,,,,,,,,,,,,,,,,,1,1.0517764369942597,,,019,001,2019_May_10_1520,MusicAffectPsychophysiology2019,3.0.5,60.04557699596736,
To what extent did the music make you feel ,TENDER,,,,,,0,3,3,10,,,,,,,,,,,,,,,,,4,2.0349648039991735,,,019,001,2019_May_10_1520,MusicAffectPsychophysiology2019,3.0.5,60.04557699596736,
To what extent did the music make you feel ,ANXIOUS ,,,,,,0,4,4,1,,,,,,,,,,,,,,,,,1,1.5684438329990371,,,019,001,2019_May_10_1520,MusicAffectPsychophysiology2019,3.0.5,60.04557699596736,
To what extent did the music make you feel ,ACTIVE,,,,,,0,5,5,9,,,,,,,,,,,,,,,,,2,1.5354748440004187,,,019,001,2019_May_10_1520,MusicAffectPsychophysiology2019,3.0.5,60.04557699596736,
To what extent did the music make you feel ,EXCITED,,,,,,0,6,6,7,,,,,,,,,,,,,,,,,3,1.701568413998757,,,019,001,2019_May_10_1520,MusicAffectPsychophysiology2019,3.0.5,60.04557699596736,
To what extent did the music make you feel ,SCARED,,,,,,0,7,7,11,,,,,,,,,,,,,,,,,1,1.451647079004033,,,019,001,2019_May_10_1520,MusicAffectPsychophysiology2019,3.0.5,60.04557699596736,
To what extent did the music make you feel ,ASHAMED,,,,,,0,8,8,4,,,,,,,,,,,,,,,,,1,2.28496032700059,,,019,001,2019_May_10_1520,MusicAffectPsychophysiology2019,3.0.5,60.04557699596736,
To what extent did the music make you feel ,HAPPY,,,,,,0,9,9,6,,,,,,,,,,,,,,,,,4,1.6520335969980806,,,019,001,2019_May_10_1520,MusicAffectPsychophysiology2019,3.0.5,60.04557699596736,
To what extent did the music make you feel ,SAD,,,,,,0,10,10,0,,,,,,,,,,,,,,,,,3,2.3829334920010297,,,019,001,2019_May_10_1520,MusicAffectPsychophysiology2019,3.0.5,60.04557699596736,
To what extent did the music make you feel ,GUILTY,,,,,,0,11,11,5,,,,,,,,,,,,,,,,,1,1.468116028001532,,,019,001,2019_May_10_1520,MusicAffectPsychophysiology2019,3.0.5,60.04557699596736,
To what extent did the music make you feel ,ASHAMED,30MonoWAV/30MonoT2.wav,2,1,4,14,,,,,0,0,0,13,0,0,0,4,,,3,11.193906391999917,5,1.9387833720029448,4,1.4853616070031421,1,2.768201737002528,,,019,001,2019_May_10_1520,MusicAffectPsychophysiology2019,3.0.5,60.04557699596736,
To what extent did the music make you feel ,GUILTY,30MonoWAV/30MonoT2.wav,2,1,4,14,,,,,0,0,0,13,0,1,1,5,,,,,,,,,1,0.750788986995758,,,019,001,2019_May_10_1520,MusicAffectPsychophysiology2019,3.0.5,60.04557699596736,
To what extent did the music make you feel ,FRUSTRATED,30MonoWAV/30MonoT2.wav,2,1,4,14,,,,,0,0,0,13,0,2,2,3,,,,,,,,,1,0.8178954780014465,,,019,001,2019_May_10_1520,MusicAffectPsychophysiology2019,3.0.5,60.04557699596736,
To what extent did the music make you feel ,HAPPY,30MonoWAV/30MonoT2.wav,2,1,4,14,,,,,0,0,0,13,0,3,3,6,,,,,,,,,5,1.4016219879995333,,,019,001,2019_May_10_1520,MusicAffectPsychophysiology2019,3.0.5,60.04557699596736,
To what extent did the music make you feel ,ANXIOUS ,30MonoWAV/30MonoT2.wav,2,1,4,14,,,,,0,0,0,13,0,4,4,1,,,,,,,,,2,1.2520476080026128,,,019,001,2019_May_10_1520,MusicAffectPsychophysiology2019,3.0.5,60.04557699596736,
To what extent did the music make you feel ,ALERT,30MonoWAV/30MonoT2.wav,2,1,4,14,,,,,0,0,0,13,0,5,5,8,,,,,,,,,3,1.7839747370016994,,,019,001,2019_May_10_1520,MusicAffectPsychophysiology2019,3.0.5,60.04557699596736,
To what extent did the music make you feel ,TENDER,30MonoWAV/30MonoT2.wav,2,1,4,14,,,,,0,0,0,13,0,6,6,10,,,,,,,,,5,1.7186332020064583,,,019,001,2019_May_10_1520,MusicAffectPsychophysiology2019,3.0.5,60.04557699596736,
To what extent did the music make you feel ,SAD,30MonoWAV/30MonoT2.wav,2,1,4,14,,,,,0,0,0,13,0,7,7,0,,,,,,,,,1,1.46843816999899,,,019,001,2019_May_10_1520,MusicAffectPsychophysiology2019,3.0.5,60.04557699596736,
To what extent did the music make you feel ,EXCITED,30MonoWAV/30MonoT2.wav,2,1,4,14,,,,,0,0,0,13,0,8,8,7,,,,,,,,,3,1.4841270629985956,,,019,001,2019_May_10_1520,MusicAffectPsychophysiology2019,3.0.5,60.04557699596736,
To what extent did the music make you feel ,ACTIVE,30MonoWAV/30MonoT2.wav,2,1,4,14,,,,,0,0,0,13,0,9,9,9,,,,,,,,,3,1.2846644840028603,,,019,001,2019_May_10_1520,MusicAffectPsychophysiology2019,3.0.5,60.04557699596736,
To what extent did the music make you feel ,SCARED,30MonoWAV/30MonoT2.wav,2,1,4,14,,,,,0,0,0,13,0,10,10,11,,,,,,,,,1,2.152961691004748,,,019,001,2019_May_10_1520,MusicAffectPsychophysiology2019,3.0.5,60.04557699596736,
To what extent did the music make you feel ,ANGRY,30MonoWAV/30MonoT2.wav,2,1,4,14,,,,,0,0,0,13,0,11,11,2,,,,,,,,,1,0.951921100000618,,,019,001,2019_May_10_1520,MusicAffectPsychophysiology2019,3.0.5,60.04557699596736,
,,30MonoWAV/30MonoT2.wav,2,1,4,14,,,,,0,0,0,13,,,,,,,,,,,,,,,,,019,001,2019_May_10_1520,MusicAffectPsychophysiology2019,3.0.5,60.04557699596736,
To what extent did the music make you feel ,ACTIVE,30MonoWAV/30MonoS2.wav,1,1,3,10,,,,,0,1,1,9,0,0,0,9,,,1,4.076803632000519,2,2.9347137009972357,3,1.502389167995716,1,1.4855544210004155,,,019,001,2019_May_10_1520,MusicAffectPsychophysiology2019,3.0.5,60.04557699596736,
To what extent did the music make you feel ,ANGRY,30MonoWAV/30MonoS2.wav,1,1,3,10,,,,,0,1,1,9,0,1,1,2,,,,,,,,,1,1.1688879659996019,,,019,001,2019_May_10_1520,MusicAffectPsychophysiology2019,3.0.5,60.04557699596736,
To what extent did the music make you feel ,ANXIOUS ,30MonoWAV/30MonoS2.wav,1,1,3,10,,,,,0,1,1,9,0,2,2,1,,,,,,,,,2,1.18508200100041,,,019,001,2019_May_10_1520,MusicAffectPsychophysiology2019,3.0.5,60.04557699596736,
To what extent did the music make you feel ,FRUSTRATED,30MonoWAV/30MonoS2.wav,1,1,3,10,,,,,0,1,1,9,0,3,3,3,,,,,,,,,1,0.9849501990029239,,,019,001,2019_May_10_1520,MusicAffectPsychophysiology2019,3.0.5,60.04557699596736,
To what extent did the music make you feel ,SCARED,30MonoWAV/30MonoS2.wav,1,1,3,10,,,,,0,1,1,9,0,4,4,11,,,,,,,,,1,2.1017216559994267,,,019,001,2019_May_10_1520,MusicAffectPsychophysiology2019,3.0.5,60.04557699596736,
To what extent did the music make you feel ,SAD,30MonoWAV/30MonoS2.wav,1,1,3,10,,,,,0,1,1,9,0,5,5,0,,,,,,,,,5,1.4177209620029316,,,019,001,2019_May_10_1520,MusicAffectPsychophysiology2019,3.0.5,60.04557699596736,
To what extent did the music make you feel ,GUILTY,30MonoWAV/30MonoS2.wav,1,1,3,10,,,,,0,1,1,9,0,6,6,5,,,,,,,,,4,1.7689536510006292,,,019,001,2019_May_10_1520,MusicAffectPsychophysiology2019,3.0.5,60.04557699596736,
To what extent did the music make you feel ,ALERT,30MonoWAV/30MonoS2.wav,1,1,3,10,,,,,0,1,1,9,0,7,7,8,,,,,,,,,1,2.4015830130010727,,,019,001,2019_May_10_1520,MusicAffectPsychophysiology2019,3.0.5,60.04557699596736,
To what extent did the music make you feel ,TENDER,30MonoWAV/30MonoS2.wav,1,1,3,10,,,,,0,1,1,9,0,8,8,10,,,,,,,,,4,2.167983045001165,,,019,001,2019_May_10_1520,MusicAffectPsychophysiology2019,3.0.5,60.04557699596736,
To what extent did the music make you feel ,EXCITED,30MonoWAV/30MonoS2.wav,1,1,3,10,,,,,0,1,1,9,0,9,9,7,,,,,,,,,1,1.5185455960017862,,,019,001,2019_May_10_1520,MusicAffectPsychophysiology2019,3.0.5,60.04557699596736,
To what extent did the music make you feel ,HAPPY,30MonoWAV/30MonoS2.wav,1,1,3,10,,,,,0,1,1,9,0,10,10,6,,,,,,,,,1,1.1516603240015684,,,019,001,2019_May_10_1520,MusicAffectPsychophysiology2019,3.0.5,60.04557699596736,
To what extent did the music make you feel ,ASHAMED,30MonoWAV/30MonoS2.wav,1,1,3,10,,,,,0,1,1,9,0,11,11,4,,,,,,,,,4,2.0685326739985612,,,019,001,2019_May_10_1520,MusicAffectPsychophysiology2019,3.0.5,60.04557699596736,
,,30MonoWAV/30MonoS2.wav,1,1,3,10,,,,,0,1,1,9,,,,,,,,,,,,,,,,,019,001,2019_May_10_1520,MusicAffectPsychophysiology2019,3.0.5,60.04557699596736,
To what extent did the music make you feel ,EXCITED,30MonoWAV/30MonoS1.wav,1,1,3,9,,,,,0,2,2,8,0,0,0,7,,,2,5.401170586999797,4,3.150953030999517,4,2.2348797869999544,2,1.9843621309992159,,,019,001,2019_May_10_1520,MusicAffectPsychophysiology2019,3.0.5,60.04557699596736,
To what extent did the music make you feel ,TENDER,30MonoWAV/30MonoS1.wav,1,1,3,9,,,,,0,2,2,8,0,1,1,10,,,,,,,,,5,1.8852033570001367,,,019,001,2019_May_10_1520,MusicAffectPsychophysiology2019,3.0.5,60.04557699596736,
To what extent did the music make you feel ,ANGRY,30MonoWAV/30MonoS1.wav,1,1,3,9,,,,,0,2,2,8,0,2,2,2,,,,,,,,,1,1.3531361050045234,,,019,001,2019_May_10_1520,MusicAffectPsychophysiology2019,3.0.5,60.04557699596736,
To what extent did the music make you feel ,SCARED,30MonoWAV/30MonoS1.wav,1,1,3,9,,,,,0,2,2,8,0,3,3,11,,,,,,,,,1,1.1021659479956725,,,019,001,2019_May_10_1520,MusicAffectPsychophysiology2019,3.0.5,60.04557699596736,
To what extent did the music make you feel ,ALERT,30MonoWAV/30MonoS1.wav,1,1,3,9,,,,,0,2,2,8,0,4,4,8,,,,,,,,,2,1.034787750999385,,,019,001,2019_May_10_1520,MusicAffectPsychophysiology2019,3.0.5,60.04557699596736,
To what extent did the music make you feel ,ANXIOUS ,30MonoWAV/30MonoS1.wav,1,1,3,9,,,,,0,2,2,8,0,5,5,1,,,,,,,,,1,1.1015722879965324,,,019,001,2019_May_10_1520,MusicAffectPsychophysiology2019,3.0.5,60.04557699596736,
To what extent did the music make you feel ,SAD,30MonoWAV/30MonoS1.wav,1,1,3,9,,,,,0,2,2,8,0,6,6,0,,,,,,,,,4,2.2840819810007815,,,019,001,2019_May_10_1520,MusicAffectPsychophysiology2019,3.0.5,60.04557699596736,
To what extent did the music make you feel ,HAPPY,30MonoWAV/30MonoS1.wav,1,1,3,9,,,,,0,2,2,8,0,7,7,6,,,,,,,,,4,0.9356077809934504,,,019,001,2019_May_10_1520,MusicAffectPsychophysiology2019,3.0.5,60.04557699596736,
To what extent did the music make you feel ,FRUSTRATED,30MonoWAV/30MonoS1.wav,1,1,3,9,,,,,0,2,2,8,0,8,8,3,,,,,,,,,1,1.71873745299672,,,019,001,2019_May_10_1520,MusicAffectPsychophysiology2019,3.0.5,60.04557699596736,
To what extent did the music make you feel ,GUILTY,30MonoWAV/30MonoS1.wav,1,1,3,9,,,,,0,2,2,8,0,9,9,5,,,,,,,,,3,1.9182723019985133,,,019,001,2019_May_10_1520,MusicAffectPsychophysiology2019,3.0.5,60.04557699596736,
To what extent did the music make you feel ,ACTIVE,30MonoWAV/30MonoS1.wav,1,1,3,9,,,,,0,2,2,8,0,10,10,9,,,,,,,,,1,1.501428345000022,,,019,001,2019_May_10_1520,MusicAffectPsychophysiology2019,3.0.5,60.04557699596736,
To what extent did the music make you feel ,ASHAMED,30MonoWAV/30MonoS1.wav,1,1,3,9,,,,,0,2,2,8,0,11,11,4,,,,,,,,,2,1.4352324449937441,,,019,001,2019_May_10_1520,MusicAffectPsychophysiology2019,3.0.5,60.04557699596736,
,,30MonoWAV/30MonoS1.wav,1,1,3,9,,,,,0,2,2,8,,,,,,,,,,,,,,,,,019,001,2019_May_10_1520,MusicAffectPsychophysiology2019,3.0.5,60.04557699596736,
To what extent did the music make you feel ,ANGRY,30MonoWAV/30MonoH1.wav,2,2,1,5,,,,,0,3,3,4,0,0,0,2,,,5,4.451781668001786,5,1.6670928180028568,5,0.8013146579978638,1,1.5521661300008418,,,019,001,2019_May_10_1520,MusicAffectPsychophysiology2019,3.0.5,60.04557699596736,
To what extent did the music make you feel ,ACTIVE,30MonoWAV/30MonoH1.wav,2,2,1,5,,,,,0,3,3,4,0,1,1,9,,,,,,,,,4,1.4687658809998538,,,019,001,2019_May_10_1520,MusicAffectPsychophysiology2019,3.0.5,60.04557699596736,
To what extent did the music make you feel ,GUILTY,30MonoWAV/30MonoH1.wav,2,2,1,5,,,,,0,3,3,4,0,2,2,5,,,,,,,,,1,1.7521529130026465,,,019,001,2019_May_10_1520,MusicAffectPsychophysiology2019,3.0.5,60.04557699596736,
To what extent did the music make you feel ,SAD,30MonoWAV/30MonoH1.wav,2,2,1,5,,,,,0,3,3,4,0,3,3,0,,,,,,,,,1,0.6519392059999518,,,019,001,2019_May_10_1520,MusicAffectPsychophysiology2019,3.0.5,60.04557699596736,
To what extent did the music make you feel ,ALERT,30MonoWAV/30MonoH1.wav,2,2,1,5,,,,,0,3,3,4,0,4,4,8,,,,,,,,,4,1.4347592839985737,,,019,001,2019_May_10_1520,MusicAffectPsychophysiology2019,3.0.5,60.04557699596736,
To what extent did the music make you feel ,TENDER,30MonoWAV/30MonoH1.wav,2,2,1,5,,,,,0,3,3,4,0,5,5,10,,,,,,,,,2,1.3684393250005087,,,019,001,2019_May_10_1520,MusicAffectPsychophysiology2019,3.0.5,60.04557699596736,
To what extent did the music make you feel ,FRUSTRATED,30MonoWAV/30MonoH1.wav,2,2,1,5,,,,,0,3,3,4,0,6,6,3,,,,,,,,,1,0.8175540059964987,,,019,001,2019_May_10_1520,MusicAffectPsychophysiology2019,3.0.5,60.04557699596736,
To what extent did the music make you feel ,ASHAMED,30MonoWAV/30MonoH1.wav,2,2,1,5,,,,,0,3,3,4,0,7,7,4,,,,,,,,,1,0.8682082640007138,,,019,001,2019_May_10_1520,MusicAffectPsychophysiology2019,3.0.5,60.04557699596736,
To what extent did the music make you feel ,ANXIOUS ,30MonoWAV/30MonoH1.wav,2,2,1,5,,,,,0,3,3,4,0,8,8,1,,,,,,,,,1,2.8011435310036177,,,019,001,2019_May_10_1520,MusicAffectPsychophysiology2019,3.0.5,60.04557699596736,
To what extent did the music make you feel ,SCARED,30MonoWAV/30MonoH1.wav,2,2,1,5,,,,,0,3,3,4,0,9,9,11,,,,,,,,,1,1.4186450289998902,,,019,001,2019_May_10_1520,MusicAffectPsychophysiology2019,3.0.5,60.04557699596736,
To what extent did the music make you feel ,EXCITED,30MonoWAV/30MonoH1.wav,2,2,1,5,,,,,0,3,3,4,0,10,10,7,,,,,,,,,5,2.1348627409970504,,,019,001,2019_May_10_1520,MusicAffectPsychophysiology2019,3.0.5,60.04557699596736,
To what extent did the music make you feel ,HAPPY,30MonoWAV/30MonoH1.wav,2,2,1,5,,,,,0,3,3,4,0,11,11,6,,,,,,,,,5,0.7186476999995648,,,019,001,2019_May_10_1520,MusicAffectPsychophysiology2019,3.0.5,60.04557699596736,
,,30MonoWAV/30MonoH1.wav,2,2,1,5,,,,,0,3,3,4,,,,,,,,,,,,,,,,,019,001,2019_May_10_1520,MusicAffectPsychophysiology2019,3.0.5,60.04557699596736,
To what extent did the music make you feel ,ANGRY,30MonoWAV/30MonoF3.wav,1,2,2,3,,,,,0,4,4,2,0,0,0,2,,,4,3.517573688994162,2,2.4015346610030974,4,1.2680501209979411,3,1.9022811639952124,,,019,001,2019_May_10_1520,MusicAffectPsychophysiology2019,3.0.5,60.04557699596736,
To what extent did the music make you feel ,ASHAMED,30MonoWAV/30MonoF3.wav,1,2,2,3,,,,,0,4,4,2,0,1,1,4,,,,,,,,,2,1.818190952995792,,,019,001,2019_May_10_1520,MusicAffectPsychophysiology2019,3.0.5,60.04557699596736,
To what extent did the music make you feel ,ALERT,30MonoWAV/30MonoF3.wav,1,2,2,3,,,,,0,4,4,2,0,2,2,8,,,,,,,,,5,1.5188178719981806,,,019,001,2019_May_10_1520,MusicAffectPsychophysiology2019,3.0.5,60.04557699596736,
To what extent did the music make you feel ,ANXIOUS ,30MonoWAV/30MonoF3.wav,1,2,2,3,,,,,0,4,4,2,0,3,3,1,,,,,,,,,3,1.617002336999576,,,019,001,2019_May_10_1520,MusicAffectPsychophysiology2019,3.0.5,60.04557699596736,
To what extent did the music make you feel ,HAPPY,30MonoWAV/30MonoF3.wav,1,2,2,3,,,,,0,4,4,2,0,4,4,6,,,,,,,,,1,1.5514151840034174,,,019,001,2019_May_10_1520,MusicAffectPsychophysiology2019,3.0.5,60.04557699596736,
To what extent did the music make you feel ,TENDER,30MonoWAV/30MonoF3.wav,1,2,2,3,,,,,0,4,4,2,0,5,5,10,,,,,,,,,1,1.0179630480051856,,,019,001,2019_May_10_1520,MusicAffectPsychophysiology2019,3.0.5,60.04557699596736,
To what extent did the music make you feel ,ACTIVE,30MonoWAV/30MonoF3.wav,1,2,2,3,,,,,0,4,4,2,0,6,6,9,,,,,,,,,4,1.619247810995148,,,019,001,2019_May_10_1520,MusicAffectPsychophysiology2019,3.0.5,60.04557699596736,
To what extent did the music make you feel ,GUILTY,30MonoWAV/30MonoF3.wav,1,2,2,3,,,,,0,4,4,2,0,7,7,5,,,,,,,,,2,2.2006657650053967,,,019,001,2019_May_10_1520,MusicAffectPsychophysiology2019,3.0.5,60.04557699596736,
To what extent did the music make you feel ,SAD,30MonoWAV/30MonoF3.wav,1,2,2,3,,,,,0,4,4,2,0,8,8,0,,,,,,,,,2,1.2165016740036663,,,019,001,2019_May_10_1520,MusicAffectPsychophysiology2019,3.0.5,60.04557699596736,
To what extent did the music make you feel ,EXCITED,30MonoWAV/30MonoF3.wav,1,2,2,3,,,,,0,4,4,2,0,9,9,7,,,,,,,,,3,1.352574677002849,,,019,001,2019_May_10_1520,MusicAffectPsychophysiology2019,3.0.5,60.04557699596736,
To what extent did the music make you feel ,FRUSTRATED,30MonoWAV/30MonoF3.wav,1,2,2,3,,,,,0,4,4,2,0,10,10,3,,,,,,,,,3,1.1020115510036703,,,019,001,2019_May_10_1520,MusicAffectPsychophysiology2019,3.0.5,60.04557699596736,
To what extent did the music make you feel ,SCARED,30MonoWAV/30MonoF3.wav,1,2,2,3,,,,,0,4,4,2,0,11,11,11,,,,,,,,,2,2.602080165001098,,,019,001,2019_May_10_1520,MusicAffectPsychophysiology2019,3.0.5,60.04557699596736,
,,30MonoWAV/30MonoF3.wav,1,2,2,3,,,,,0,4,4,2,,,,,,,,,,,,,,,,,019,001,2019_May_10_1520,MusicAffectPsychophysiology2019,3.0.5,60.04557699596736,
To what extent did the music make you feel ,SAD,30MonoWAV/30MonoS3.wav,1,1,3,11,,,,,0,5,5,10,0,0,0,0,,,2,4.101375138001458,3,1.7200380490030511,3,1.0842754080003942,5,5.6596854610033915,,,019,001,2019_May_10_1520,MusicAffectPsychophysiology2019,3.0.5,60.04557699596736,
To what extent did the music make you feel ,ALERT,30MonoWAV/30MonoS3.wav,1,1,3,11,,,,,0,5,5,10,0,1,1,8,,,,,,,,,2,1.520023378994665,,,019,001,2019_May_10_1520,MusicAffectPsychophysiology2019,3.0.5,60.04557699596736,
To what extent did the music make you feel ,TENDER,30MonoWAV/30MonoS3.wav,1,1,3,11,,,,,0,5,5,10,0,2,2,10,,,,,,,,,4,2.124984100999427,,,019,001,2019_May_10_1520,MusicAffectPsychophysiology2019,3.0.5,60.04557699596736,
To what extent did the music make you feel ,ACTIVE,30MonoWAV/30MonoS3.wav,1,1,3,11,,,,,0,5,5,10,0,3,3,9,,,,,,,,,1,2.284094277994882,,,019,001,2019_May_10_1520,MusicAffectPsychophysiology2019,3.0.5,60.04557699596736,
To what extent did the music make you feel ,HAPPY,30MonoWAV/30MonoS3.wav,1,1,3,11,,,,,0,5,5,10,0,4,4,6,,,,,,,,,1,1.2367745800002012,,,019,001,2019_May_10_1520,MusicAffectPsychophysiology2019,3.0.5,60.04557699596736,
To what extent did the music make you feel ,ANGRY,30MonoWAV/30MonoS3.wav,1,1,3,11,,,,,0,5,5,10,0,5,5,2,,,,,,,,,1,2.386246335998294,,,019,001,2019_May_10_1520,MusicAffectPsychophysiology2019,3.0.5,60.04557699596736,
To what extent did the music make you feel ,SCARED,30MonoWAV/30MonoS3.wav,1,1,3,11,,,,,0,5,5,10,0,6,6,11,,,,,,,,,1,5.234627648002061,,,019,001,2019_May_10_1520,MusicAffectPsychophysiology2019,3.0.5,60.04557699596736,
To what extent did the music make you feel ,ASHAMED,30MonoWAV/30MonoS3.wav,1,1,3,11,,,,,0,5,5,10,0,7,7,4,,,,,,,,,3,8.315690786999767,,,019,001,2019_May_10_1520,MusicAffectPsychophysiology2019,3.0.5,60.04557699596736,
To what extent did the music make you feel ,ANXIOUS ,30MonoWAV/30MonoS3.wav,1,1,3,11,,,,,0,5,5,10,0,8,8,1,,,,,,,,,1,2.8179058759997133,,,019,001,2019_May_10_1520,MusicAffectPsychophysiology2019,3.0.5,60.04557699596736,
To what extent did the music make you feel ,FRUSTRATED,30MonoWAV/30MonoS3.wav,1,1,3,11,,,,,0,5,5,10,0,9,9,3,,,,,,,,,1,1.0348376570036635,,,019,001,2019_May_10_1520,MusicAffectPsychophysiology2019,3.0.5,60.04557699596736,
To what extent did the music make you feel ,GUILTY,30MonoWAV/30MonoS3.wav,1,1,3,11,,,,,0,5,5,10,0,10,10,5,,,,,,,,,3,1.6351333150014398,,,019,001,2019_May_10_1520,MusicAffectPsychophysiology2019,3.0.5,60.04557699596736,
To what extent did the music make you feel ,EXCITED,30MonoWAV/30MonoS3.wav,1,1,3,11,,,,,0,5,5,10,0,11,11,7,,,,,,,,,2,1.0025413279945496,,,019,001,2019_May_10_1520,MusicAffectPsychophysiology2019,3.0.5,60.04557699596736,
,,30MonoWAV/30MonoS3.wav,1,1,3,11,,,,,0,5,5,10,,,,,,,,,,,,,,,,,019,001,2019_May_10_1520,MusicAffectPsychophysiology2019,3.0.5,60.04557699596736,
To what extent did the music make you feel ,ACTIVE,30MonoWAV/30MonoF2.wav,1,2,2,2,,,,,0,6,6,1,0,0,0,9,,,4,6.918500223997398,2,5.652533953994862,2,1.5853039720022934,2,2.7357250850036507,,,019,001,2019_May_10_1520,MusicAffectPsychophysiology2019,3.0.5,60.04557699596736,
To what extent did the music make you feel ,GUILTY,30MonoWAV/30MonoF2.wav,1,2,2,2,,,,,0,6,6,1,0,1,1,5,,,,,,,,,1,1.735625250999874,,,019,001,2019_May_10_1520,MusicAffectPsychophysiology2019,3.0.5,60.04557699596736,
To what extent did the music make you feel ,SAD,30MonoWAV/30MonoF2.wav,1,2,2,2,,,,,0,6,6,1,0,2,2,0,,,,,,,,,1,1.3185066819933127,,,019,001,2019_May_10_1520,MusicAffectPsychophysiology2019,3.0.5,60.04557699596736,
To what extent did the music make you feel ,EXCITED,30MonoWAV/30MonoF2.wav,1,2,2,2,,,,,0,6,6,1,0,3,3,7,,,,,,,,,3,1.7516152139942278,,,019,001,2019_May_10_1520,MusicAffectPsychophysiology2019,3.0.5,60.04557699596736,
To what extent did the music make you feel ,FRUSTRATED,30MonoWAV/30MonoF2.wav,1,2,2,2,,,,,0,6,6,1,0,4,4,3,,,,,,,,,1,1.3522691129983286,,,019,001,2019_May_10_1520,MusicAffectPsychophysiology2019,3.0.5,60.04557699596736,
To what extent did the music make you feel ,ALERT,30MonoWAV/30MonoF2.wav,1,2,2,2,,,,,0,6,6,1,0,5,5,8,,,,,,,,,5,1.8186882800000603,,,019,001,2019_May_10_1520,MusicAffectPsychophysiology2019,3.0.5,60.04557699596736,
To what extent did the music make you feel ,SCARED,30MonoWAV/30MonoF2.wav,1,2,2,2,,,,,0,6,6,1,0,6,6,11,,,,,,,,,4,1.6670541769999545,,,019,001,2019_May_10_1520,MusicAffectPsychophysiology2019,3.0.5,60.04557699596736,
To what extent did the music make you feel ,ANXIOUS ,30MonoWAV/30MonoF2.wav,1,2,2,2,,,,,0,6,6,1,0,7,7,1,,,,,,,,,4,1.1030158220019075,,,019,001,2019_May_10_1520,MusicAffectPsychophysiology2019,3.0.5,60.04557699596736,
To what extent did the music make you feel ,ANGRY,30MonoWAV/30MonoF2.wav,1,2,2,2,,,,,0,6,6,1,0,8,8,2,,,,,,,,,1,1.4181001280012424,,,019,001,2019_May_10_1520,MusicAffectPsychophysiology2019,3.0.5,60.04557699596736,
To what extent did the music make you feel ,TENDER,30MonoWAV/30MonoF2.wav,1,2,2,2,,,,,0,6,6,1,0,9,9,10,,,,,,,,,1,1.5014459960002569,,,019,001,2019_May_10_1520,MusicAffectPsychophysiology2019,3.0.5,60.04557699596736,
To what extent did the music make you feel ,ASHAMED,30MonoWAV/30MonoF2.wav,1,2,2,2,,,,,0,6,6,1,0,10,10,4,,,,,,,,,1,1.1188668809991213,,,019,001,2019_May_10_1520,MusicAffectPsychophysiology2019,3.0.5,60.04557699596736,
To what extent did the music make you feel ,HAPPY,30MonoWAV/30MonoF2.wav,1,2,2,2,,,,,0,6,6,1,0,11,11,6,,,,,,,,,1,1.0347532610030612,,,019,001,2019_May_10_1520,MusicAffectPsychophysiology2019,3.0.5,60.04557699596736,
,,30MonoWAV/30MonoF2.wav,1,2,2,2,,,,,0,6,6,1,,,,,,,,,,,,,,,,,019,001,2019_May_10_1520,MusicAffectPsychophysiology2019,3.0.5,60.04557699596736,
To what extent did the music make you feel ,ASHAMED,30MonoWAV/30MonoT4.wav,2,1,4,16,,,,,0,7,7,15,0,0,0,4,,,4,6.440576725995925,5,1.8179774849995738,4,1.7527065879985457,1,1.6021736080001574,,,019,001,2019_May_10_1520,MusicAffectPsychophysiology2019,3.0.5,60.04557699596736,
To what extent did the music make you feel ,ANGRY,30MonoWAV/30MonoT4.wav,2,1,4,16,,,,,0,7,7,15,0,1,1,2,,,,,,,,,1,0.7171721829945454,,,019,001,2019_May_10_1520,MusicAffectPsychophysiology2019,3.0.5,60.04557699596736,
To what extent did the music make you feel ,SCARED,30MonoWAV/30MonoT4.wav,2,1,4,16,,,,,0,7,7,15,0,2,2,11,,,,,,,,,1,0.818101636999927,,,019,001,2019_May_10_1520,MusicAffectPsychophysiology2019,3.0.5,60.04557699596736,
To what extent did the music make you feel ,GUILTY,30MonoWAV/30MonoT4.wav,2,1,4,16,,,,,0,7,7,15,0,3,3,5,,,,,,,,,2,1.234328546001052,,,019,001,2019_May_10_1520,MusicAffectPsychophysiology2019,3.0.5,60.04557699596736,
To what extent did the music make you feel ,TENDER,30MonoWAV/30MonoT4.wav,2,1,4,16,,,,,0,7,7,15,0,4,4,10,,,,,,,,,4,1.3685600190001423,,,019,001,2019_May_10_1520,MusicAffectPsychophysiology2019,3.0.5,60.04557699596736,
To what extent did the music make you feel ,FRUSTRATED,30MonoWAV/30MonoT4.wav,2,1,4,16,,,,,0,7,7,15,0,5,5,3,,,,,,,,,1,1.5188041189976502,,,019,001,2019_May_10_1520,MusicAffectPsychophysiology2019,3.0.5,60.04557699596736,
To what extent did the music make you feel ,EXCITED,30MonoWAV/30MonoT4.wav,2,1,4,16,,,,,0,7,7,15,0,6,6,7,,,,,,,,,3,1.5017108879983425,,,019,001,2019_May_10_1520,MusicAffectPsychophysiology2019,3.0.5,60.04557699596736,
To what extent did the music make you feel ,ANXIOUS ,30MonoWAV/30MonoT4.wav,2,1,4,16,,,,,0,7,7,15,0,7,7,1,,,,,,,,,1,2.9518023940036073,,,019,001,2019_May_10_1520,MusicAffectPsychophysiology2019,3.0.5,60.04557699596736,
To what extent did the music make you feel ,ALERT,30MonoWAV/30MonoT4.wav,2,1,4,16,,,,,0,7,7,15,0,8,8,8,,,,,,,,,2,2.1847800510004163,,,019,001,2019_May_10_1520,MusicAffectPsychophysiology2019,3.0.5,60.04557699596736,
To what extent did the music make you feel ,SAD,30MonoWAV/30MonoT4.wav,2,1,4,16,,,,,0,7,7,15,0,9,9,0,,,,,,,,,4,1.8179049730024417,,,019,001,2019_May_10_1520,MusicAffectPsychophysiology2019,3.0.5,60.04557699596736,
To what extent did the music make you feel ,ACTIVE,30MonoWAV/30MonoT4.wav,2,1,4,16,,,,,0,7,7,15,0,10,10,9,,,,,,,,,2,1.3524639000024763,,,019,001,2019_May_10_1520,MusicAffectPsychophysiology2019,3.0.5,60.04557699596736,
To what extent did the music make you feel ,HAPPY,30MonoWAV/30MonoT4.wav,2,1,4,16,,,,,0,7,7,15,0,11,11,6,,,,,,,,,4,1.2348839460028103,,,019,001,2019_May_10_1520,MusicAffectPsychophysiology2019,3.0.5,60.04557699596736,
,,30MonoWAV/30MonoT4.wav,2,1,4,16,,,,,0,7,7,15,,,,,,,,,,,,,,,,,019,001,2019_May_10_1520,MusicAffectPsychophysiology2019,3.0.5,60.04557699596736,
To what extent did the music make you feel ,TENDER,30MonoWAV/30MonoS4.wav,1,1,3,12,,,,,0,8,8,11,0,0,0,10,,,2,5.18516762299987,1,2.501285194004595,3,1.7523299099993892,3,2.166488795002806,,,019,001,2019_May_10_1520,MusicAffectPsychophysiology2019,3.0.5,60.04557699596736,
To what extent did the music make you feel ,ALERT,30MonoWAV/30MonoS4.wav,1,1,3,12,,,,,0,8,8,11,0,1,1,8,,,,,,,,,1,1.2687782479988527,,,019,001,2019_May_10_1520,MusicAffectPsychophysiology2019,3.0.5,60.04557699596736,
To what extent did the music make you feel ,FRUSTRATED,30MonoWAV/30MonoS4.wav,1,1,3,12,,,,,0,8,8,11,0,2,2,3,,,,,,,,,1,1.0186541180009954,,,019,001,2019_May_10_1520,MusicAffectPsychophysiology2019,3.0.5,60.04557699596736,
To what extent did the music make you feel ,SCARED,30MonoWAV/30MonoS4.wav,1,1,3,12,,,,,0,8,8,11,0,3,3,11,,,,,,,,,1,1.8517909690053784,,,019,001,2019_May_10_1520,MusicAffectPsychophysiology2019,3.0.5,60.04557699596736,
To what extent did the music make you feel ,ACTIVE,30MonoWAV/30MonoS4.wav,1,1,3,12,,,,,0,8,8,11,0,4,4,9,,,,,,,,,2,1.3571067039956688,,,019,001,2019_May_10_1520,MusicAffectPsychophysiology2019,3.0.5,60.04557699596736,
To what extent did the music make you feel ,EXCITED,30MonoWAV/30MonoS4.wav,1,1,3,12,,,,,0,8,8,11,0,5,5,7,,,,,,,,,1,1.1367339509961312,,,019,001,2019_May_10_1520,MusicAffectPsychophysiology2019,3.0.5,60.04557699596736,
To what extent did the music make you feel ,ANXIOUS ,30MonoWAV/30MonoS4.wav,1,1,3,12,,,,,0,8,8,11,0,6,6,1,,,,,,,,,2,1.586313642001187,,,019,001,2019_May_10_1520,MusicAffectPsychophysiology2019,3.0.5,60.04557699596736,
To what extent did the music make you feel ,SAD,30MonoWAV/30MonoS4.wav,1,1,3,12,,,,,0,8,8,11,0,7,7,0,,,,,,,,,5,1.3863314150003134,,,019,001,2019_May_10_1520,MusicAffectPsychophysiology2019,3.0.5,60.04557699596736,
To what extent did the music make you feel ,ASHAMED,30MonoWAV/30MonoS4.wav,1,1,3,12,,,,,0,8,8,11,0,8,8,4,,,,,,,,,4,1.6210680380027043,,,019,001,2019_May_10_1520,MusicAffectPsychophysiology2019,3.0.5,60.04557699596736,
To what extent did the music make you feel ,ANGRY,30MonoWAV/30MonoS4.wav,1,1,3,12,,,,,0,8,8,11,0,9,9,2,,,,,,,,,1,1.5554926640033955,,,019,001,2019_May_10_1520,MusicAffectPsychophysiology2019,3.0.5,60.04557699596736,
To what extent did the music make you feel ,GUILTY,30MonoWAV/30MonoS4.wav,1,1,3,12,,,,,0,8,8,11,0,10,10,5,,,,,,,,,3,1.40126675600186,,,019,001,2019_May_10_1520,MusicAffectPsychophysiology2019,3.0.5,60.04557699596736,
To what extent did the music make you feel ,HAPPY,30MonoWAV/30MonoS4.wav,1,1,3,12,,,,,0,8,8,11,0,11,11,6,,,,,,,,,1,1.1524665350007126,,,019,001,2019_May_10_1520,MusicAffectPsychophysiology2019,3.0.5,60.04557699596736,
,,30MonoWAV/30MonoS4.wav,1,1,3,12,,,,,0,8,8,11,,,,,,,,,,,,,,,,,019,001,2019_May_10_1520,MusicAffectPsychophysiology2019,3.0.5,60.04557699596736,
To what extent did the music make you feel ,ASHAMED,30MonoWAV/30MonoF1.wav,1,2,2,1,,,,,0,9,9,0,0,0,0,4,,,5,2.8496993869994185,4,2.434459820004122,5,1.2177204070030712,1,2.500339163998433,,,019,001,2019_May_10_1520,MusicAffectPsychophysiology2019,3.0.5,60.04557699596736,
To what extent did the music make you feel ,ALERT,30MonoWAV/30MonoF1.wav,1,2,2,1,,,,,0,9,9,0,0,1,1,8,,,,,,,,,5,1.5833644949962036,,,019,001,2019_May_10_1520,MusicAffectPsychophysiology2019,3.0.5,60.04557699596736,
To what extent did the music make you feel ,HAPPY,30MonoWAV/30MonoF1.wav,1,2,2,1,,,,,0,9,9,0,0,2,2,6,,,,,,,,,4,1.9670166399955633,,,019,001,2019_May_10_1520,MusicAffectPsychophysiology2019,3.0.5,60.04557699596736,
To what extent did the music make you feel ,ANXIOUS ,30MonoWAV/30MonoF1.wav,1,2,2,1,,,,,0,9,9,0,0,3,3,1,,,,,,,,,2,2.3012990249990253,,,019,001,2019_May_10_1520,MusicAffectPsychophysiology2019,3.0.5,60.04557699596736,
To what extent did the music make you feel ,GUILTY,30MonoWAV/30MonoF1.wav,1,2,2,1,,,,,0,9,9,0,0,4,4,5,,,,,,,,,1,1.6177875470020808,,,019,001,2019_May_10_1520,MusicAffectPsychophysiology2019,3.0.5,60.04557699596736,
To what extent did the music make you feel ,SAD,30MonoWAV/30MonoF1.wav,1,2,2,1,,,,,0,9,9,0,0,5,5,0,,,,,,,,,1,1.1512959910032805,,,019,001,2019_May_10_1520,MusicAffectPsychophysiology2019,3.0.5,60.04557699596736,
To what extent did the music make you feel ,ACTIVE,30MonoWAV/30MonoF1.wav,1,2,2,1,,,,,0,9,9,0,0,6,6,9,,,,,,,,,5,1.4184952919968055,,,019,001,2019_May_10_1520,MusicAffectPsychophysiology2019,3.0.5,60.04557699596736,
To what extent did the music make you feel ,TENDER,30MonoWAV/30MonoF1.wav,1,2,2,1,,,,,0,9,9,0,0,7,7,10,,,,,,,,,1,1.619015855001635,,,019,001,2019_May_10_1520,MusicAffectPsychophysiology2019,3.0.5,60.04557699596736,
To what extent did the music make you feel ,EXCITED,30MonoWAV/30MonoF1.wav,1,2,2,1,,,,,0,9,9,0,0,8,8,7,,,,,,,,,5,1.4007436960018822,,,019,001,2019_May_10_1520,MusicAffectPsychophysiology2019,3.0.5,60.04557699596736,
To what extent did the music make you feel ,ANGRY,30MonoWAV/30MonoF1.wav,1,2,2,1,,,,,0,9,9,0,0,9,9,2,,,,,,,,,3,1.4684728520005592,,,019,001,2019_May_10_1520,MusicAffectPsychophysiology2019,3.0.5,60.04557699596736,
To what extent did the music make you feel ,FRUSTRATED,30MonoWAV/30MonoF1.wav,1,2,2,1,,,,,0,9,9,0,0,10,10,3,,,,,,,,,2,1.9504810250000446,,,019,001,2019_May_10_1520,MusicAffectPsychophysiology2019,3.0.5,60.04557699596736,
To what extent did the music make you feel ,SCARED,30MonoWAV/30MonoF1.wav,1,2,2,1,,,,,0,9,9,0,0,11,11,11,,,,,,,,,1,1.7855763580009807,,,019,001,2019_May_10_1520,MusicAffectPsychophysiology2019,3.0.5,60.04557699596736,
,,30MonoWAV/30MonoF1.wav,1,2,2,1,,,,,0,9,9,0,,,,,,,,,,,,,,,,,019,001,2019_May_10_1520,MusicAffectPsychophysiology2019,3.0.5,60.04557699596736,
To what extent did the music make you feel ,SAD,30MonoWAV/30MonoH4.wav,2,2,1,8,,,,,0,10,10,7,0,0,0,0,,,5,5.48459750800248,5,1.3347295999992639,4,1.3359010400017723,1,1.6824225099990144,,,019,001,2019_May_10_1520,MusicAffectPsychophysiology2019,3.0.5,60.04557699596736,
To what extent did the music make you feel ,SCARED,30MonoWAV/30MonoH4.wav,2,2,1,8,,,,,0,10,10,7,0,1,1,11,,,,,,,,,1,0.9847885249982937,,,019,001,2019_May_10_1520,MusicAffectPsychophysiology2019,3.0.5,60.04557699596736,
To what extent did the music make you feel ,EXCITED,30MonoWAV/30MonoH4.wav,2,2,1,8,,,,,0,10,10,7,0,2,2,7,,,,,,,,,5,1.6513641579949763,,,019,001,2019_May_10_1520,MusicAffectPsychophysiology2019,3.0.5,60.04557699596736,
To what extent did the music make you feel ,ANGRY,30MonoWAV/30MonoH4.wav,2,2,1,8,,,,,0,10,10,7,0,3,3,2,,,,,,,,,1,1.685031875000277,,,019,001,2019_May_10_1520,MusicAffectPsychophysiology2019,3.0.5,60.04557699596736,
To what extent did the music make you feel ,HAPPY,30MonoWAV/30MonoH4.wav,2,2,1,8,,,,,0,10,10,7,0,4,4,6,,,,,,,,,5,1.1174934750015382,,,019,001,2019_May_10_1520,MusicAffectPsychophysiology2019,3.0.5,60.04557699596736,
To what extent did the music make you feel ,ACTIVE,30MonoWAV/30MonoH4.wav,2,2,1,8,,,,,0,10,10,7,0,5,5,9,,,,,,,,,5,1.2346166280040052,,,019,001,2019_May_10_1520,MusicAffectPsychophysiology2019,3.0.5,60.04557699596736,
To what extent did the music make you feel ,ASHAMED,30MonoWAV/30MonoH4.wav,2,2,1,8,,,,,0,10,10,7,0,6,6,4,,,,,,,,,1,2.2194278099996154,,,019,001,2019_May_10_1520,MusicAffectPsychophysiology2019,3.0.5,60.04557699596736,
To what extent did the music make you feel ,ALERT,30MonoWAV/30MonoH4.wav,2,2,1,8,,,,,0,10,10,7,0,7,7,8,,,,,,,,,4,1.4670047620020341,,,019,001,2019_May_10_1520,MusicAffectPsychophysiology2019,3.0.5,60.04557699596736,
To what extent did the music make you feel ,FRUSTRATED,30MonoWAV/30MonoH4.wav,2,2,1,8,,,,,0,10,10,7,0,8,8,3,,,,,,,,,1,1.3661137539966148,,,019,001,2019_May_10_1520,MusicAffectPsychophysiology2019,3.0.5,60.04557699596736,
To what extent did the music make you feel ,ANXIOUS ,30MonoWAV/30MonoH4.wav,2,2,1,8,,,,,0,10,10,7,0,9,9,1,,,,,,,,,2,1.2186612329969648,,,019,001,2019_May_10_1520,MusicAffectPsychophysiology2019,3.0.5,60.04557699596736,
To what extent did the music make you feel ,GUILTY,30MonoWAV/30MonoH4.wav,2,2,1,8,,,,,0,10,10,7,0,10,10,5,,,,,,,,,1,2.218170020998514,,,019,001,2019_May_10_1520,MusicAffectPsychophysiology2019,3.0.5,60.04557699596736,
To what extent did the music make you feel ,TENDER,30MonoWAV/30MonoH4.wav,2,2,1,8,,,,,0,10,10,7,0,11,11,10,,,,,,,,,2,1.868193745998724,,,019,001,2019_May_10_1520,MusicAffectPsychophysiology2019,3.0.5,60.04557699596736,
,,30MonoWAV/30MonoH4.wav,2,2,1,8,,,,,0,10,10,7,,,,,,,,,,,,,,,,,019,001,2019_May_10_1520,MusicAffectPsychophysiology2019,3.0.5,60.04557699596736,
To what extent did the music make you feel ,FRUSTRATED,30MonoWAV/30MonoF4.wav,1,2,2,4,,,,,0,11,11,3,0,0,0,3,,,5,3.9015696570058935,4,2.9510852429957595,4,0.9187591399968369,2,2.793440709996503,,,019,001,2019_May_10_1520,MusicAffectPsychophysiology2019,3.0.5,60.04557699596736,
To what extent did the music make you feel ,SCARED,30MonoWAV/30MonoF4.wav,1,2,2,4,,,,,0,11,11,3,0,1,1,11,,,,,,,,,3,2.7682056080011535,,,019,001,2019_May_10_1520,MusicAffectPsychophysiology2019,3.0.5,60.04557699596736,
To what extent did the music make you feel ,ASHAMED,30MonoWAV/30MonoF4.wav,1,2,2,4,,,,,0,11,11,3,0,2,2,4,,,,,,,,,1,1.5845423729988397,,,019,001,2019_May_10_1520,MusicAffectPsychophysiology2019,3.0.5,60.04557699596736,
To what extent did the music make you feel ,GUILTY,30MonoWAV/30MonoF4.wav,1,2,2,4,,,,,0,11,11,3,0,3,3,5,,,,,,,,,1,1.7686978459969396,,,019,001,2019_May_10_1520,MusicAffectPsychophysiology2019,3.0.5,60.04557699596736,
To what extent did the music make you feel ,HAPPY,30MonoWAV/30MonoF4.wav,1,2,2,4,,,,,0,11,11,3,0,4,4,6,,,,,,,,,3,2.2028154950021417,,,019,001,2019_May_10_1520,MusicAffectPsychophysiology2019,3.0.5,60.04557699596736,
To what extent did the music make you feel ,EXCITED,30MonoWAV/30MonoF4.wav,1,2,2,4,,,,,0,11,11,3,0,5,5,7,,,,,,,,,5,1.7017261299988604,,,019,001,2019_May_10_1520,MusicAffectPsychophysiology2019,3.0.5,60.04557699596736,
To what extent did the music make you feel ,SAD,30MonoWAV/30MonoF4.wav,1,2,2,4,,,,,0,11,11,3,0,6,6,0,,,,,,,,,1,3.9006645520057646,,,019,001,2019_May_10_1520,MusicAffectPsychophysiology2019,3.0.5,60.04557699596736,
To what extent did the music make you feel ,ALERT,30MonoWAV/30MonoF4.wav,1,2,2,4,,,,,0,11,11,3,0,7,7,8,,,,,,,,,5,2.41874764199747,,,019,001,2019_May_10_1520,MusicAffectPsychophysiology2019,3.0.5,60.04557699596736,
To what extent did the music make you feel ,ANGRY,30MonoWAV/30MonoF4.wav,1,2,2,4,,,,,0,11,11,3,0,8,8,2,,,,,,,,,2,1.9172090959982597,,,019,001,2019_May_10_1520,MusicAffectPsychophysiology2019,3.0.5,60.04557699596736,
To what extent did the music make you feel ,ACTIVE,30MonoWAV/30MonoF4.wav,1,2,2,4,,,,,0,11,11,3,0,9,9,9,,,,,,,,,5,1.6011165189993335,,,019,001,2019_May_10_1520,MusicAffectPsychophysiology2019,3.0.5,60.04557699596736,
To what extent did the music make you feel ,TENDER,30MonoWAV/30MonoF4.wav,1,2,2,4,,,,,0,11,11,3,0,10,10,10,,,,,,,,,1,1.5361750169977313,,,019,001,2019_May_10_1520,MusicAffectPsychophysiology2019,3.0.5,60.04557699596736,
To what extent did the music make you feel ,ANXIOUS ,30MonoWAV/30MonoF4.wav,1,2,2,4,,,,,0,11,11,3,0,11,11,1,,,,,,,,,3,3.001631223000004,,,019,001,2019_May_10_1520,MusicAffectPsychophysiology2019,3.0.5,60.04557699596736,
,,30MonoWAV/30MonoF4.wav,1,2,2,4,,,,,0,11,11,3,,,,,,,,,,,,,,,,,019,001,2019_May_10_1520,MusicAffectPsychophysiology2019,3.0.5,60.04557699596736,
To what extent did the music make you feel ,TENDER,30MonoWAV/30MonoH2.wav,2,2,1,6,,,,,0,12,12,5,0,0,0,10,,,5,6.718939907004824,4,4.851098559003731,5,1.1349850970000261,1,1.9667489069979638,,,019,001,2019_May_10_1520,MusicAffectPsychophysiology2019,3.0.5,60.04557699596736,
To what extent did the music make you feel ,ACTIVE,30MonoWAV/30MonoH2.wav,2,2,1,6,,,,,0,12,12,5,0,1,1,9,,,,,,,,,5,1.2846227049958543,,,019,001,2019_May_10_1520,MusicAffectPsychophysiology2019,3.0.5,60.04557699596736,
To what extent did the music make you feel ,SAD,30MonoWAV/30MonoH2.wav,2,2,1,6,,,,,0,12,12,5,0,2,2,0,,,,,,,,,2,2.2185057750029955,,,019,001,2019_May_10_1520,MusicAffectPsychophysiology2019,3.0.5,60.04557699596736,
To what extent did the music make you feel ,GUILTY,30MonoWAV/30MonoH2.wav,2,2,1,6,,,,,0,12,12,5,0,3,3,5,,,,,,,,,1,1.4179844170066644,,,019,001,2019_May_10_1520,MusicAffectPsychophysiology2019,3.0.5,60.04557699596736,
To what extent did the music make you feel ,ASHAMED,30MonoWAV/30MonoH2.wav,2,2,1,6,,,,,0,12,12,5,0,4,4,4,,,,,,,,,1,1.0017948290042114,,,019,001,2019_May_10_1520,MusicAffectPsychophysiology2019,3.0.5,60.04557699596736,
To what extent did the music make you feel ,EXCITED,30MonoWAV/30MonoH2.wav,2,2,1,6,,,,,0,12,12,5,0,5,5,7,,,,,,,,,5,2.3349580580033944,,,019,001,2019_May_10_1520,MusicAffectPsychophysiology2019,3.0.5,60.04557699596736,
To what extent did the music make you feel ,FRUSTRATED,30MonoWAV/30MonoH2.wav,2,2,1,6,,,,,0,12,12,5,0,6,6,3,,,,,,,,,1,2.385157196004002,,,019,001,2019_May_10_1520,MusicAffectPsychophysiology2019,3.0.5,60.04557699596736,
To what extent did the music make you feel ,ANXIOUS ,30MonoWAV/30MonoH2.wav,2,2,1,6,,,,,0,12,12,5,0,7,7,1,,,,,,,,,2,1.7337170140017406,,,019,001,2019_May_10_1520,MusicAffectPsychophysiology2019,3.0.5,60.04557699596736,
To what extent did the music make you feel ,ALERT,30MonoWAV/30MonoH2.wav,2,2,1,6,,,,,0,12,12,5,0,8,8,8,,,,,,,,,4,1.4180529930017656,,,019,001,2019_May_10_1520,MusicAffectPsychophysiology2019,3.0.5,60.04557699596736,
To what extent did the music make you feel ,SCARED,30MonoWAV/30MonoH2.wav,2,2,1,6,,,,,0,12,12,5,0,9,9,11,,,,,,,,,1,1.685114166000858,,,019,001,2019_May_10_1520,MusicAffectPsychophysiology2019,3.0.5,60.04557699596736,
To what extent did the music make you feel ,ANGRY,30MonoWAV/30MonoH2.wav,2,2,1,6,,,,,0,12,12,5,0,10,10,2,,,,,,,,,1,1.135074533005536,,,019,001,2019_May_10_1520,MusicAffectPsychophysiology2019,3.0.5,60.04557699596736,
To what extent did the music make you feel ,HAPPY,30MonoWAV/30MonoH2.wav,2,2,1,6,,,,,0,12,12,5,0,11,11,6,,,,,,,,,5,1.7001304939985857,,,019,001,2019_May_10_1520,MusicAffectPsychophysiology2019,3.0.5,60.04557699596736,
,,30MonoWAV/30MonoH2.wav,2,2,1,6,,,,,0,12,12,5,,,,,,,,,,,,,,,,,019,001,2019_May_10_1520,MusicAffectPsychophysiology2019,3.0.5,60.04557699596736,
To what extent did the music make you feel ,ANXIOUS ,30MonoWAV/30MonoT1.wav,2,1,4,13,,,,,0,13,13,12,0,0,0,1,,,2,4.484783861000324,2,2.5851532759988913,3,2.8855646469964995,1,2.064715725995484,,,019,001,2019_May_10_1520,MusicAffectPsychophysiology2019,3.0.5,60.04557699596736,
To what extent did the music make you feel ,GUILTY,30MonoWAV/30MonoT1.wav,2,1,4,13,,,,,0,13,13,12,0,1,1,5,,,,,,,,,2,1.3194261540047592,,,019,001,2019_May_10_1520,MusicAffectPsychophysiology2019,3.0.5,60.04557699596736,
To what extent did the music make you feel ,SAD,30MonoWAV/30MonoT1.wav,2,1,4,13,,,,,0,13,13,12,0,2,2,0,,,,,,,,,4,1.5353942459987593,,,019,001,2019_May_10_1520,MusicAffectPsychophysiology2019,3.0.5,60.04557699596736,
To what extent did the music make you feel ,ACTIVE,30MonoWAV/30MonoT1.wav,2,1,4,13,,,,,0,13,13,12,0,3,3,9,,,,,,,,,1,2.382416942004056,,,019,001,2019_May_10_1520,MusicAffectPsychophysiology2019,3.0.5,60.04557699596736,
To what extent did the music make you feel ,EXCITED,30MonoWAV/30MonoT1.wav,2,1,4,13,,,,,0,13,13,12,0,4,4,7,,,,,,,,,1,0.9670777119972627,,,019,001,2019_May_10_1520,MusicAffectPsychophysiology2019,3.0.5,60.04557699596736,
To what extent did the music make you feel ,TENDER,30MonoWAV/30MonoT1.wav,2,1,4,13,,,,,0,13,13,12,0,5,5,10,,,,,,,,,5,1.8508438490025583,,,019,001,2019_May_10_1520,MusicAffectPsychophysiology2019,3.0.5,60.04557699596736,
To what extent did the music make you feel ,ANGRY,30MonoWAV/30MonoT1.wav,2,1,4,13,,,,,0,13,13,12,0,6,6,2,,,,,,,,,1,1.484970790996158,,,019,001,2019_May_10_1520,MusicAffectPsychophysiology2019,3.0.5,60.04557699596736,
To what extent did the music make you feel ,ASHAMED,30MonoWAV/30MonoT1.wav,2,1,4,13,,,,,0,13,13,12,0,7,7,4,,,,,,,,,3,1.6512885199990706,,,019,001,2019_May_10_1520,MusicAffectPsychophysiology2019,3.0.5,60.04557699596736,
To what extent did the music make you feel ,ALERT,30MonoWAV/30MonoT1.wav,2,1,4,13,,,,,0,13,13,12,0,8,8,8,,,,,,,,,1,1.868296446999011,,,019,001,2019_May_10_1520,MusicAffectPsychophysiology2019,3.0.5,60.04557699596736,
To what extent did the music make you feel ,HAPPY,30MonoWAV/30MonoT1.wav,2,1,4,13,,,,,0,13,13,12,0,9,9,6,,,,,,,,,1,1.2012613140032045,,,019,001,2019_May_10_1520,MusicAffectPsychophysiology2019,3.0.5,60.04557699596736,
To what extent did the music make you feel ,SCARED,30MonoWAV/30MonoT1.wav,2,1,4,13,,,,,0,13,13,12,0,10,10,11,,,,,,,,,1,1.3177546660008375,,,019,001,2019_May_10_1520,MusicAffectPsychophysiology2019,3.0.5,60.04557699596736,
To what extent did the music make you feel ,FRUSTRATED,30MonoWAV/30MonoT1.wav,2,1,4,13,,,,,0,13,13,12,0,11,11,3,,,,,,,,,1,0.8176683560013771,,,019,001,2019_May_10_1520,MusicAffectPsychophysiology2019,3.0.5,60.04557699596736,
,,30MonoWAV/30MonoT1.wav,2,1,4,13,,,,,0,13,13,12,,,,,,,,,,,,,,,,,019,001,2019_May_10_1520,MusicAffectPsychophysiology2019,3.0.5,60.04557699596736,
To what extent did the music make you feel ,ALERT,30MonoWAV/30MonoT3.wav,2,1,4,15,,,,,0,14,14,14,0,0,0,8,,,1,3.134586391002813,3,6.934726452003815,5,1.8186466780025512,1,1.567620601003,,,019,001,2019_May_10_1520,MusicAffectPsychophysiology2019,3.0.5,60.04557699596736,
To what extent did the music make you feel ,TENDER,30MonoWAV/30MonoT3.wav,2,1,4,15,,,,,0,14,14,14,0,1,1,10,,,,,,,,,5,1.5172045930012246,,,019,001,2019_May_10_1520,MusicAffectPsychophysiology2019,3.0.5,60.04557699596736,
To what extent did the music make you feel ,SCARED,30MonoWAV/30MonoT3.wav,2,1,4,15,,,,,0,14,14,14,0,2,2,11,,,,,,,,,1,1.4527195970003959,,,019,001,2019_May_10_1520,MusicAffectPsychophysiology2019,3.0.5,60.04557699596736,
To what extent did the music make you feel ,GUILTY,30MonoWAV/30MonoT3.wav,2,1,4,15,,,,,0,14,14,14,0,3,3,5,,,,,,,,,2,1.6349340079977992,,,019,001,2019_May_10_1520,MusicAffectPsychophysiology2019,3.0.5,60.04557699596736,
To what extent did the music make you feel ,EXCITED,30MonoWAV/30MonoT3.wav,2,1,4,15,,,,,0,14,14,14,0,4,4,7,,,,,,,,,1,1.4024418409971986,,,019,001,2019_May_10_1520,MusicAffectPsychophysiology2019,3.0.5,60.04557699596736,
To what extent did the music make you feel ,HAPPY,30MonoWAV/30MonoT3.wav,2,1,4,15,,,,,0,14,14,14,0,5,5,6,,,,,,,,,3,1.7183269289962482,,,019,001,2019_May_10_1520,MusicAffectPsychophysiology2019,3.0.5,60.04557699596736,
To what extent did the music make you feel ,SAD,30MonoWAV/30MonoT3.wav,2,1,4,15,,,,,0,14,14,14,0,6,6,0,,,,,,,,,3,0.952183513007185,,,019,001,2019_May_10_1520,MusicAffectPsychophysiology2019,3.0.5,60.04557699596736,
To what extent did the music make you feel ,ANXIOUS ,30MonoWAV/30MonoT3.wav,2,1,4,15,,,,,0,14,14,14,0,7,7,1,,,,,,,,,1,1.5517861710031866,,,019,001,2019_May_10_1520,MusicAffectPsychophysiology2019,3.0.5,60.04557699596736,
To what extent did the music make you feel ,ASHAMED,30MonoWAV/30MonoT3.wav,2,1,4,15,,,,,0,14,14,14,0,8,8,4,,,,,,,,,2,1.2351907310003298,,,019,001,2019_May_10_1520,MusicAffectPsychophysiology2019,3.0.5,60.04557699596736,
To what extent did the music make you feel ,ACTIVE,30MonoWAV/30MonoT3.wav,2,1,4,15,,,,,0,14,14,14,0,9,9,9,,,,,,,,,1,1.3507040570038953,,,019,001,2019_May_10_1520,MusicAffectPsychophysiology2019,3.0.5,60.04557699596736,
To what extent did the music make you feel ,ANGRY,30MonoWAV/30MonoT3.wav,2,1,4,15,,,,,0,14,14,14,0,10,10,2,,,,,,,,,1,0.9519189349957742,,,019,001,2019_May_10_1520,MusicAffectPsychophysiology2019,3.0.5,60.04557699596736,
To what extent did the music make you feel ,FRUSTRATED,30MonoWAV/30MonoT3.wav,2,1,4,15,,,,,0,14,14,14,0,11,11,3,,,,,,,,,1,0.6852428080019308,,,019,001,2019_May_10_1520,MusicAffectPsychophysiology2019,3.0.5,60.04557699596736,
,,30MonoWAV/30MonoT3.wav,2,1,4,15,,,,,0,14,14,14,,,,,,,,,,,,,,,,,019,001,2019_May_10_1520,MusicAffectPsychophysiology2019,3.0.5,60.04557699596736,
To what extent did the music make you feel ,ALERT,30MonoWAV/30MonoH3.wav,2,2,1,7,,,,,0,15,15,6,0,0,0,8,,,5,3.351328961995023,5,1.4342132419988047,4,1.3031645390001358,5,1.4679817109936266,,,019,001,2019_May_10_1520,MusicAffectPsychophysiology2019,3.0.5,60.04557699596736,
To what extent did the music make you feel ,EXCITED,30MonoWAV/30MonoH3.wav,2,2,1,7,,,,,0,15,15,6,0,1,1,7,,,,,,,,,4,1.7495459710044088,,,019,001,2019_May_10_1520,MusicAffectPsychophysiology2019,3.0.5,60.04557699596736,
To what extent did the music make you feel ,GUILTY,30MonoWAV/30MonoH3.wav,2,2,1,7,,,,,0,15,15,6,0,2,2,5,,,,,,,,,1,2.236780182000075,,,019,001,2019_May_10_1520,MusicAffectPsychophysiology2019,3.0.5,60.04557699596736,
To what extent did the music make you feel ,HAPPY,30MonoWAV/30MonoH3.wav,2,2,1,7,,,,,0,15,15,6,0,3,3,6,,,,,,,,,5,1.552135764999548,,,019,001,2019_May_10_1520,MusicAffectPsychophysiology2019,3.0.5,60.04557699596736,
To what extent did the music make you feel ,ACTIVE,30MonoWAV/30MonoH3.wav,2,2,1,7,,,,,0,15,15,6,0,4,4,9,,,,,,,,,4,1.189678536997235,,,019,001,2019_May_10_1520,MusicAffectPsychophysiology2019,3.0.5,60.04557699596736,
To what extent did the music make you feel ,SAD,30MonoWAV/30MonoH3.wav,2,2,1,7,,,,,0,15,15,6,0,5,5,0,,,,,,,,,1,1.1701232000050368,,,019,001,2019_May_10_1520,MusicAffectPsychophysiology2019,3.0.5,60.04557699596736,
To what extent did the music make you feel ,FRUSTRATED,30MonoWAV/30MonoH3.wav,2,2,1,7,,,,,0,15,15,6,0,6,6,3,,,,,,,,,1,1.0531047659969772,,,019,001,2019_May_10_1520,MusicAffectPsychophysiology2019,3.0.5,60.04557699596736,
To what extent did the music make you feel ,ASHAMED,30MonoWAV/30MonoH3.wav,2,2,1,7,,,,,0,15,15,6,0,7,7,4,,,,,,,,,1,0.9772937870002352,,,019,001,2019_May_10_1520,MusicAffectPsychophysiology2019,3.0.5,60.04557699596736,
To what extent did the music make you feel ,ANXIOUS ,30MonoWAV/30MonoH3.wav,2,2,1,7,,,,,0,15,15,6,0,8,8,1,,,,,,,,,1,1.6512543490025564,,,019,001,2019_May_10_1520,MusicAffectPsychophysiology2019,3.0.5,60.04557699596736,
To what extent did the music make you feel ,TENDER,30MonoWAV/30MonoH3.wav,2,2,1,7,,,,,0,15,15,6,0,9,9,10,,,,,,,,,2,1.267977695002628,,,019,001,2019_May_10_1520,MusicAffectPsychophysiology2019,3.0.5,60.04557699596736,
To what extent did the music make you feel ,ANGRY,30MonoWAV/30MonoH3.wav,2,2,1,7,,,,,0,15,15,6,0,10,10,2,,,,,,,,,1,0.7345720730008907,,,019,001,2019_May_10_1520,MusicAffectPsychophysiology2019,3.0.5,60.04557699596736,
To what extent did the music make you feel ,SCARED,30MonoWAV/30MonoH3.wav,2,2,1,7,,,,,0,15,15,6,0,11,11,11,,,,,,,,,1,0.8688898010004777,,,019,001,2019_May_10_1520,MusicAffectPsychophysiology2019,3.0.5,60.04557699596736,
,,30MonoWAV/30MonoH3.wav,2,2,1,7,,,,,0,15,15,6,,,,,,,,,,,,,,,,,019,001,2019_May_10_1520,MusicAffectPsychophysiology2019,3.0.5,60.04557699596736,
To what extent did the music make you feel ,SCARED,30MonoWAV/30MonoF4.wav,1,2,2,4,,,,,1,0,16,3,0,0,0,11,,,5,2.566599869998754,5,1.5514242490025936,5,0.18456579399935436,1,2.2691040630015777,,,019,001,2019_May_10_1520,MusicAffectPsychophysiology2019,3.0.5,60.04557699596736,
To what extent did the music make you feel ,SAD,30MonoWAV/30MonoF4.wav,1,2,2,4,,,,,1,0,16,3,0,1,1,0,,,,,,,,,1,1.2010874769985094,,,019,001,2019_May_10_1520,MusicAffectPsychophysiology2019,3.0.5,60.04557699596736,
To what extent did the music make you feel ,ANXIOUS ,30MonoWAV/30MonoF4.wav,1,2,2,4,,,,,1,0,16,3,0,2,2,1,,,,,,,,,3,1.5336299010014045,,,019,001,2019_May_10_1520,MusicAffectPsychophysiology2019,3.0.5,60.04557699596736,
To what extent did the music make you feel ,TENDER,30MonoWAV/30MonoF4.wav,1,2,2,4,,,,,1,0,16,3,0,3,3,10,,,,,,,,,2,1.2855939399960334,,,019,001,2019_May_10_1520,MusicAffectPsychophysiology2019,3.0.5,60.04557699596736,
To what extent did the music make you feel ,FRUSTRATED,30MonoWAV/30MonoF4.wav,1,2,2,4,,,,,1,0,16,3,0,4,4,3,,,,,,,,,1,1.0016416139987996,,,019,001,2019_May_10_1520,MusicAffectPsychophysiology2019,3.0.5,60.04557699596736,
To what extent did the music make you feel ,EXCITED,30MonoWAV/30MonoF4.wav,1,2,2,4,,,,,1,0,16,3,0,5,5,7,,,,,,,,,5,1.2353790439956356,,,019,001,2019_May_10_1520,MusicAffectPsychophysiology2019,3.0.5,60.04557699596736,
To what extent did the music make you feel ,HAPPY,30MonoWAV/30MonoF4.wav,1,2,2,4,,,,,1,0,16,3,0,6,6,6,,,,,,,,,5,0.7020765870038304,,,019,001,2019_May_10_1520,MusicAffectPsychophysiology2019,3.0.5,60.04557699596736,
To what extent did the music make you feel ,ASHAMED,30MonoWAV/30MonoF4.wav,1,2,2,4,,,,,1,0,16,3,0,7,7,4,,,,,,,,,1,1.0346774289937457,,,019,001,2019_May_10_1520,MusicAffectPsychophysiology2019,3.0.5,60.04557699596736,
To what extent did the music make you feel ,GUILTY,30MonoWAV/30MonoF4.wav,1,2,2,4,,,,,1,0,16,3,0,8,8,5,,,,,,,,,1,1.335167174001981,,,019,001,2019_May_10_1520,MusicAffectPsychophysiology2019,3.0.5,60.04557699596736,
To what extent did the music make you feel ,ANGRY,30MonoWAV/30MonoF4.wav,1,2,2,4,,,,,1,0,16,3,0,9,9,2,,,,,,,,,1,0.8847635950005497,,,019,001,2019_May_10_1520,MusicAffectPsychophysiology2019,3.0.5,60.04557699596736,
To what extent did the music make you feel ,ACTIVE,30MonoWAV/30MonoF4.wav,1,2,2,4,,,,,1,0,16,3,0,10,10,9,,,,,,,,,5,1.4184111569993547,,,019,001,2019_May_10_1520,MusicAffectPsychophysiology2019,3.0.5,60.04557699596736,
To what extent did the music make you feel ,ALERT,30MonoWAV/30MonoF4.wav,1,2,2,4,,,,,1,0,16,3,0,11,11,8,,,,,,,,,5,0.9353181839978788,,,019,001,2019_May_10_1520,MusicAffectPsychophysiology2019,3.0.5,60.04557699596736,
,,30MonoWAV/30MonoF4.wav,1,2,2,4,,,,,1,0,16,3,,,,,,,,,,,,,,,,,019,001,2019_May_10_1520,MusicAffectPsychophysiology2019,3.0.5,60.04557699596736,
To what extent did the music make you feel ,SCARED,30MonoWAV/30MonoF3.wav,1,2,2,3,,,,,1,1,17,2,0,0,0,11,,,3,6.135362009998062,2,1.8161722750010085,2,3.201574676000746,2,3.416704577000928,,,019,001,2019_May_10_1520,MusicAffectPsychophysiology2019,3.0.5,60.04557699596736,
To what extent did the music make you feel ,ALERT,30MonoWAV/30MonoF3.wav,1,2,2,3,,,,,1,1,17,2,0,1,1,8,,,,,,,,,3,1.8695892989999265,,,019,001,2019_May_10_1520,MusicAffectPsychophysiology2019,3.0.5,60.04557699596736,
To what extent did the music make you feel ,HAPPY,30MonoWAV/30MonoF3.wav,1,2,2,3,,,,,1,1,17,2,0,2,2,6,,,,,,,,,1,1.0684288740012562,,,019,001,2019_May_10_1520,MusicAffectPsychophysiology2019,3.0.5,60.04557699596736,
To what extent did the music make you feel ,EXCITED,30MonoWAV/30MonoF3.wav,1,2,2,3,,,,,1,1,17,2,0,3,3,7,,,,,,,,,2,1.5177822379991994,,,019,001,2019_May_10_1520,MusicAffectPsychophysiology2019,3.0.5,60.04557699596736,
To what extent did the music make you feel ,GUILTY,30MonoWAV/30MonoF3.wav,1,2,2,3,,,,,1,1,17,2,0,4,4,5,,,,,,,,,1,1.851679701001558,,,019,001,2019_May_10_1520,MusicAffectPsychophysiology2019,3.0.5,60.04557699596736,
To what extent did the music make you feel ,ACTIVE,30MonoWAV/30MonoF3.wav,1,2,2,3,,,,,1,1,17,2,0,5,5,9,,,,,,,,,2,2.151683279000281,,,019,001,2019_May_10_1520,MusicAffectPsychophysiology2019,3.0.5,60.04557699596736,
To what extent did the music make you feel ,ASHAMED,30MonoWAV/30MonoF3.wav,1,2,2,3,,,,,1,1,17,2,0,6,6,4,,,,,,,,,2,1.3680184010008816,,,019,001,2019_May_10_1520,MusicAffectPsychophysiology2019,3.0.5,60.04557699596736,
To what extent did the music make you feel ,TENDER,30MonoWAV/30MonoF3.wav,1,2,2,3,,,,,1,1,17,2,0,7,7,10,,,,,,,,,1,1.0013945249957033,,,019,001,2019_May_10_1520,MusicAffectPsychophysiology2019,3.0.5,60.04557699596736,
To what extent did the music make you feel ,ANGRY,30MonoWAV/30MonoF3.wav,1,2,2,3,,,,,1,1,17,2,0,8,8,2,,,,,,,,,1,2.95054246300424,,,019,001,2019_May_10_1520,MusicAffectPsychophysiology2019,3.0.5,60.04557699596736,
To what extent did the music make you feel ,SAD,30MonoWAV/30MonoF3.wav,1,2,2,3,,,,,1,1,17,2,0,9,9,0,,,,,,,,,1,1.269712476998393,,,019,001,2019_May_10_1520,MusicAffectPsychophysiology2019,3.0.5,60.04557699596736,
To what extent did the music make you feel ,FRUSTRATED,30MonoWAV/30MonoF3.wav,1,2,2,3,,,,,1,1,17,2,0,10,10,3,,,,,,,,,1,1.3194331119957496,,,019,001,2019_May_10_1520,MusicAffectPsychophysiology2019,3.0.5,60.04557699596736,
To what extent did the music make you feel ,ANXIOUS ,30MonoWAV/30MonoF3.wav,1,2,2,3,,,,,1,1,17,2,0,11,11,1,,,,,,,,,3,1.4189578069999698,,,019,001,2019_May_10_1520,MusicAffectPsychophysiology2019,3.0.5,60.04557699596736,
,,30MonoWAV/30MonoF3.wav,1,2,2,3,,,,,1,1,17,2,,,,,,,,,,,,,,,,,019,001,2019_May_10_1520,MusicAffectPsychophysiology2019,3.0.5,60.04557699596736,
To what extent did the music make you feel ,TENDER,30MonoWAV/30MonoS4.wav,1,1,3,12,,,,,1,2,18,11,0,0,0,10,,,1,4.118191632995149,1,2.201794907996373,3,1.9520274229944334,4,2.351610742000048,,,019,001,2019_May_10_1520,MusicAffectPsychophysiology2019,3.0.5,60.04557699596736,
To what extent did the music make you feel ,ANXIOUS ,30MonoWAV/30MonoS4.wav,1,1,3,12,,,,,1,2,18,11,0,1,1,1,,,,,,,,,1,1.8021713080015616,,,019,001,2019_May_10_1520,MusicAffectPsychophysiology2019,3.0.5,60.04557699596736,
To what extent did the music make you feel ,ASHAMED,30MonoWAV/30MonoS4.wav,1,1,3,12,,,,,1,2,18,11,0,2,2,4,,,,,,,,,3,1.6184063990003779,,,019,001,2019_May_10_1520,MusicAffectPsychophysiology2019,3.0.5,60.04557699596736,
To what extent did the music make you feel ,GUILTY,30MonoWAV/30MonoS4.wav,1,1,3,12,,,,,1,2,18,11,0,3,3,5,,,,,,,,,2,1.2172114139975747,,,019,001,2019_May_10_1520,MusicAffectPsychophysiology2019,3.0.5,60.04557699596736,
To what extent did the music make you feel ,EXCITED,30MonoWAV/30MonoS4.wav,1,1,3,12,,,,,1,2,18,11,0,4,4,7,,,,,,,,,2,0.06858644000021741,,,019,001,2019_May_10_1520,MusicAffectPsychophysiology2019,3.0.5,60.04557699596736,
To what extent did the music make you feel ,SAD,30MonoWAV/30MonoS4.wav,1,1,3,12,,,,,1,2,18,11,0,5,5,0,,,,,,,,,5,5.517355577001581,,,019,001,2019_May_10_1520,MusicAffectPsychophysiology2019,3.0.5,60.04557699596736,
To what extent did the music make you feel ,ACTIVE,30MonoWAV/30MonoS4.wav,1,1,3,12,,,,,1,2,18,11,0,6,6,9,,,,,,,,,1,2.422319200995844,,,019,001,2019_May_10_1520,MusicAffectPsychophysiology2019,3.0.5,60.04557699596736,
To what extent did the music make you feel ,HAPPY,30MonoWAV/30MonoS4.wav,1,1,3,12,,,,,1,2,18,11,0,7,7,6,,,,,,,,,1,1.9704638780021924,,,019,001,2019_May_10_1520,MusicAffectPsychophysiology2019,3.0.5,60.04557699596736,
To what extent did the music make you feel ,FRUSTRATED,30MonoWAV/30MonoS4.wav,1,1,3,12,,,,,1,2,18,11,0,8,8,3,,,,,,,,,1,0.8191804570014938,,,019,001,2019_May_10_1520,MusicAffectPsychophysiology2019,3.0.5,60.04557699596736,
To what extent did the music make you feel ,SCARED,30MonoWAV/30MonoS4.wav,1,1,3,12,,,,,1,2,18,11,0,9,9,11,,,,,,,,,1,1.353421960004198,,,019,001,2019_May_10_1520,MusicAffectPsychophysiology2019,3.0.5,60.04557699596736,
To what extent did the music make you feel ,ALERT,30MonoWAV/30MonoS4.wav,1,1,3,12,,,,,1,2,18,11,0,10,10,8,,,,,,,,,1,2.3364277250002488,,,019,001,2019_May_10_1520,MusicAffectPsychophysiology2019,3.0.5,60.04557699596736,
To what extent did the music make you feel ,ANGRY,30MonoWAV/30MonoS4.wav,1,1,3,12,,,,,1,2,18,11,0,11,11,2,,,,,,,,,1,0.9721187370014377,,,019,001,2019_May_10_1520,MusicAffectPsychophysiology2019,3.0.5,60.04557699596736,
,,30MonoWAV/30MonoS4.wav,1,1,3,12,,,,,1,2,18,11,,,,,,,,,,,,,,,,,019,001,2019_May_10_1520,MusicAffectPsychophysiology2019,3.0.5,60.04557699596736,
To what extent did the music make you feel ,EXCITED,30MonoWAV/30MonoT2.wav,2,1,4,14,,,,,1,3,19,13,0,0,0,7,,,4,2.851651736003987,5,1.518198833000497,4,1.3492807910006377,3,2.351662907996797,,,019,001,2019_May_10_1520,MusicAffectPsychophysiology2019,3.0.5,60.04557699596736,
To what extent did the music make you feel ,TENDER,30MonoWAV/30MonoT2.wav,2,1,4,14,,,,,1,3,19,13,0,1,1,10,,,,,,,,,4,2.3015806269977475,,,019,001,2019_May_10_1520,MusicAffectPsychophysiology2019,3.0.5,60.04557699596736,
To what extent did the music make you feel ,ACTIVE,30MonoWAV/30MonoT2.wav,2,1,4,14,,,,,1,3,19,13,0,2,2,9,,,,,,,,,3,1.4340780220009037,,,019,001,2019_May_10_1520,MusicAffectPsychophysiology2019,3.0.5,60.04557699596736,
To what extent did the music make you feel ,HAPPY,30MonoWAV/30MonoT2.wav,2,1,4,14,,,,,1,3,19,13,0,3,3,6,,,,,,,,,4,1.6528570669979672,,,019,001,2019_May_10_1520,MusicAffectPsychophysiology2019,3.0.5,60.04557699596736,
To what extent did the music make you feel ,ASHAMED,30MonoWAV/30MonoT2.wav,2,1,4,14,,,,,1,3,19,13,0,4,4,4,,,,,,,,,1,1.2848538139951415,,,019,001,2019_May_10_1520,MusicAffectPsychophysiology2019,3.0.5,60.04557699596736,
To what extent did the music make you feel ,ALERT,30MonoWAV/30MonoT2.wav,2,1,4,14,,,,,1,3,19,13,0,5,5,8,,,,,,,,,4,2.234787014000176,,,019,001,2019_May_10_1520,MusicAffectPsychophysiology2019,3.0.5,60.04557699596736,
To what extent did the music make you feel ,FRUSTRATED,30MonoWAV/30MonoT2.wav,2,1,4,14,,,,,1,3,19,13,0,6,6,3,,,,,,,,,1,1.4360101380007109,,,019,001,2019_May_10_1520,MusicAffectPsychophysiology2019,3.0.5,60.04557699596736,
To what extent did the music make you feel ,SAD,30MonoWAV/30MonoT2.wav,2,1,4,14,,,,,1,3,19,13,0,7,7,0,,,,,,,,,2,2.7012901920024888,,,019,001,2019_May_10_1520,MusicAffectPsychophysiology2019,3.0.5,60.04557699596736,
To what extent did the music make you feel ,SCARED,30MonoWAV/30MonoT2.wav,2,1,4,14,,,,,1,3,19,13,0,8,8,11,,,,,,,,,1,1.1182239390036557,,,019,001,2019_May_10_1520,MusicAffectPsychophysiology2019,3.0.5,60.04557699596736,
To what extent did the music make you feel ,ANGRY,30MonoWAV/30MonoT2.wav,2,1,4,14,,,,,1,3,19,13,0,9,9,2,,,,,,,,,1,0.9839615580058307,,,019,001,2019_May_10_1520,MusicAffectPsychophysiology2019,3.0.5,60.04557699596736,
To what extent did the music make you feel ,GUILTY,30MonoWAV/30MonoT2.wav,2,1,4,14,,,,,1,3,19,13,0,10,10,5,,,,,,,,,2,1.1351624380040448,,,019,001,2019_May_10_1520,MusicAffectPsychophysiology2019,3.0.5,60.04557699596736,
To what extent did the music make you feel ,ANXIOUS ,30MonoWAV/30MonoT2.wav,2,1,4,14,,,,,1,3,19,13,0,11,11,1,,,,,,,,,1,1.5345601029985119,,,019,001,2019_May_10_1520,MusicAffectPsychophysiology2019,3.0.5,60.04557699596736,
,,30MonoWAV/30MonoT2.wav,2,1,4,14,,,,,1,3,19,13,,,,,,,,,,,,,,,,,019,001,2019_May_10_1520,MusicAffectPsychophysiology2019,3.0.5,60.04557699596736,
To what extent did the music make you feel ,ALERT,30MonoWAV/30MonoH2.wav,2,2,1,6,,,,,1,4,20,5,0,0,0,8,,,4,12.28363287600223,5,1.3007083409975166,5,1.3019508490033331,4,1.6024612519977381,,,019,001,2019_May_10_1520,MusicAffectPsychophysiology2019,3.0.5,60.04557699596736,
To what extent did the music make you feel ,TENDER,30MonoWAV/30MonoH2.wav,2,2,1,6,,,,,1,4,20,5,0,1,1,10,,,,,,,,,2,3.418572299000516,,,019,001,2019_May_10_1520,MusicAffectPsychophysiology2019,3.0.5,60.04557699596736,
To what extent did the music make you feel ,EXCITED,30MonoWAV/30MonoH2.wav,2,2,1,6,,,,,1,4,20,5,0,2,2,7,,,,,,,,,5,2.3016112919940497,,,019,001,2019_May_10_1520,MusicAffectPsychophysiology2019,3.0.5,60.04557699596736,
To what extent did the music make you feel ,FRUSTRATED,30MonoWAV/30MonoH2.wav,2,2,1,6,,,,,1,4,20,5,0,3,3,3,,,,,,,,,1,1.1341434600035427,,,019,001,2019_May_10_1520,MusicAffectPsychophysiology2019,3.0.5,60.04557699596736,
To what extent did the music make you feel ,SAD,30MonoWAV/30MonoH2.wav,2,2,1,6,,,,,1,4,20,5,0,4,4,0,,,,,,,,,1,0.8320558880004683,,,019,001,2019_May_10_1520,MusicAffectPsychophysiology2019,3.0.5,60.04557699596736,
To what extent did the music make you feel ,ACTIVE,30MonoWAV/30MonoH2.wav,2,2,1,6,,,,,1,4,20,5,0,5,5,9,,,,,,,,,4,1.3516008250007872,,,019,001,2019_May_10_1520,MusicAffectPsychophysiology2019,3.0.5,60.04557699596736,
To what extent did the music make you feel ,HAPPY,30MonoWAV/30MonoH2.wav,2,2,1,6,,,,,1,4,20,5,0,6,6,6,,,,,,,,,5,0.9833162349968916,,,019,001,2019_May_10_1520,MusicAffectPsychophysiology2019,3.0.5,60.04557699596736,
To what extent did the music make you feel ,GUILTY,30MonoWAV/30MonoH2.wav,2,2,1,6,,,,,1,4,20,5,0,7,7,5,,,,,,,,,1,1.051754740998149,,,019,001,2019_May_10_1520,MusicAffectPsychophysiology2019,3.0.5,60.04557699596736,
To what extent did the music make you feel ,ANGRY,30MonoWAV/30MonoH2.wav,2,2,1,6,,,,,1,4,20,5,0,8,8,2,,,,,,,,,1,0.8013567480011261,,,019,001,2019_May_10_1520,MusicAffectPsychophysiology2019,3.0.5,60.04557699596736,
To what extent did the music make you feel ,ASHAMED,30MonoWAV/30MonoH2.wav,2,2,1,6,,,,,1,4,20,5,0,9,9,4,,,,,,,,,1,0.8510141290025786,,,019,001,2019_May_10_1520,MusicAffectPsychophysiology2019,3.0.5,60.04557699596736,
To what extent did the music make you feel ,ANXIOUS ,30MonoWAV/30MonoH2.wav,2,2,1,6,,,,,1,4,20,5,0,10,10,1,,,,,,,,,2,1.3851092449986027,,,019,001,2019_May_10_1520,MusicAffectPsychophysiology2019,3.0.5,60.04557699596736,
To what extent did the music make you feel ,SCARED,30MonoWAV/30MonoH2.wav,2,2,1,6,,,,,1,4,20,5,0,11,11,11,,,,,,,,,2,0.05108175200439291,,,019,001,2019_May_10_1520,MusicAffectPsychophysiology2019,3.0.5,60.04557699596736,
,,30MonoWAV/30MonoH2.wav,2,2,1,6,,,,,1,4,20,5,,,,,,,,,,,,,,,,,019,001,2019_May_10_1520,MusicAffectPsychophysiology2019,3.0.5,60.04557699596736,
To what extent did the music make you feel ,ASHAMED,30MonoWAV/30MonoS1.wav,1,1,3,9,,,,,1,5,21,8,0,0,0,4,,,2,3.585185524003464,3,1.702687691002211,4,1.1830815180001082,2,1.7998323240026366,,,019,001,2019_May_10_1520,MusicAffectPsychophysiology2019,3.0.5,60.04557699596736,
To what extent did the music make you feel ,TENDER,30MonoWAV/30MonoS1.wav,1,1,3,9,,,,,1,5,21,8,0,1,1,10,,,,,,,,,4,1.5023408540000673,,,019,001,2019_May_10_1520,MusicAffectPsychophysiology2019,3.0.5,60.04557699596736,
To what extent did the music make you feel ,ANXIOUS ,30MonoWAV/30MonoS1.wav,1,1,3,9,,,,,1,5,21,8,0,2,2,1,,,,,,,,,2,1.25205643800291,,,019,001,2019_May_10_1520,MusicAffectPsychophysiology2019,3.0.5,60.04557699596736,
To what extent did the music make you feel ,ACTIVE,30MonoWAV/30MonoS1.wav,1,1,3,9,,,,,1,5,21,8,0,3,3,9,,,,,,,,,2,2.883987089000584,,,019,001,2019_May_10_1520,MusicAffectPsychophysiology2019,3.0.5,60.04557699596736,
To what extent did the music make you feel ,EXCITED,30MonoWAV/30MonoS1.wav,1,1,3,9,,,,,1,5,21,8,0,4,4,7,,,,,,,,,1,0.9508319009983097,,,019,001,2019_May_10_1520,MusicAffectPsychophysiology2019,3.0.5,60.04557699596736,
To what extent did the music make you feel ,ALERT,30MonoWAV/30MonoS1.wav,1,1,3,9,,,,,1,5,21,8,0,5,5,8,,,,,,,,,1,1.253420510001888,,,019,001,2019_May_10_1520,MusicAffectPsychophysiology2019,3.0.5,60.04557699596736,
To what extent did the music make you feel ,FRUSTRATED,30MonoWAV/30MonoS1.wav,1,1,3,9,,,,,1,5,21,8,0,6,6,3,,,,,,,,,1,0.9506662299972959,,,019,001,2019_May_10_1520,MusicAffectPsychophysiology2019,3.0.5,60.04557699596736,
To what extent did the music make you feel ,SAD,30MonoWAV/30MonoS1.wav,1,1,3,9,,,,,1,5,21,8,0,7,7,0,,,,,,,,,3,1.268892230000347,,,019,001,2019_May_10_1520,MusicAffectPsychophysiology2019,3.0.5,60.04557699596736,
To what extent did the music make you feel ,ANGRY,30MonoWAV/30MonoS1.wav,1,1,3,9,,,,,1,5,21,8,0,8,8,2,,,,,,,,,1,1.1183628420039895,,,019,001,2019_May_10_1520,MusicAffectPsychophysiology2019,3.0.5,60.04557699596736,
To what extent did the music make you feel ,HAPPY,30MonoWAV/30MonoS1.wav,1,1,3,9,,,,,1,5,21,8,0,9,9,6,,,,,,,,,2,4.568479640998703,,,019,001,2019_May_10_1520,MusicAffectPsychophysiology2019,3.0.5,60.04557699596736,
To what extent did the music make you feel ,GUILTY,30MonoWAV/30MonoS1.wav,1,1,3,9,,,,,1,5,21,8,0,10,10,5,,,,,,,,,2,1.2510531109946896,,,019,001,2019_May_10_1520,MusicAffectPsychophysiology2019,3.0.5,60.04557699596736,
To what extent did the music make you feel ,SCARED,30MonoWAV/30MonoS1.wav,1,1,3,9,,,,,1,5,21,8,0,11,11,11,,,,,,,,,1,0.8188429459987674,,,019,001,2019_May_10_1520,MusicAffectPsychophysiology2019,3.0.5,60.04557699596736,
,,30MonoWAV/30MonoS1.wav,1,1,3,9,,,,,1,5,21,8,,,,,,,,,,,,,,,,,019,001,2019_May_10_1520,MusicAffectPsychophysiology2019,3.0.5,60.04557699596736,
To what extent did the music make you feel ,EXCITED,30MonoWAV/30MonoT3.wav,2,1,4,15,,,,,1,6,22,14,0,0,0,7,,,2,3.452119125999161,3,1.7019546949959476,4,1.3526114499982214,1,3.818602307997935,,,019,001,2019_May_10_1520,MusicAffectPsychophysiology2019,3.0.5,60.04557699596736,
To what extent did the music make you feel ,ACTIVE,30MonoWAV/30MonoT3.wav,2,1,4,15,,,,,1,6,22,14,0,1,1,9,,,,,,,,,1,0.969264289997227,,,019,001,2019_May_10_1520,MusicAffectPsychophysiology2019,3.0.5,60.04557699596736,
To what extent did the music make you feel ,HAPPY,30MonoWAV/30MonoT3.wav,2,1,4,15,,,,,1,6,22,14,0,2,2,6,,,,,,,,,4,1.7021980040008202,,,019,001,2019_May_10_1520,MusicAffectPsychophysiology2019,3.0.5,60.04557699596736,
To what extent did the music make you feel ,GUILTY,30MonoWAV/30MonoT3.wav,2,1,4,15,,,,,1,6,22,14,0,3,3,5,,,,,,,,,2,1.9355508999942685,,,019,001,2019_May_10_1520,MusicAffectPsychophysiology2019,3.0.5,60.04557699596736,
To what extent did the music make you feel ,TENDER,30MonoWAV/30MonoT3.wav,2,1,4,15,,,,,1,6,22,14,0,4,4,10,,,,,,,,,5,1.8021240300004138,,,019,001,2019_May_10_1520,MusicAffectPsychophysiology2019,3.0.5,60.04557699596736,
To what extent did the music make you feel ,FRUSTRATED,30MonoWAV/30MonoT3.wav,2,1,4,15,,,,,1,6,22,14,0,5,5,3,,,,,,,,,1,1.118766006999067,,,019,001,2019_May_10_1520,MusicAffectPsychophysiology2019,3.0.5,60.04557699596736,
To what extent did the music make you feel ,ANXIOUS ,30MonoWAV/30MonoT3.wav,2,1,4,15,,,,,1,6,22,14,0,6,6,1,,,,,,,,,2,1.0678339669975685,,,019,001,2019_May_10_1520,MusicAffectPsychophysiology2019,3.0.5,60.04557699596736,
To what extent did the music make you feel ,ANGRY,30MonoWAV/30MonoT3.wav,2,1,4,15,,,,,1,6,22,14,0,7,7,2,,,,,,,,,1,0.9173884720003116,,,019,001,2019_May_10_1520,MusicAffectPsychophysiology2019,3.0.5,60.04557699596736,
To what extent did the music make you feel ,SAD,30MonoWAV/30MonoT3.wav,2,1,4,15,,,,,1,6,22,14,0,8,8,0,,,,,,,,,4,1.5687924209996709,,,019,001,2019_May_10_1520,MusicAffectPsychophysiology2019,3.0.5,60.04557699596736,
To what extent did the music make you feel ,SCARED,30MonoWAV/30MonoT3.wav,2,1,4,15,,,,,1,6,22,14,0,9,9,11,,,,,,,,,1,1.2185358210044797,,,019,001,2019_May_10_1520,MusicAffectPsychophysiology2019,3.0.5,60.04557699596736,
To what extent did the music make you feel ,ASHAMED,30MonoWAV/30MonoT3.wav,2,1,4,15,,,,,1,6,22,14,0,10,10,4,,,,,,,,,3,1.7328990649984917,,,019,001,2019_May_10_1520,MusicAffectPsychophysiology2019,3.0.5,60.04557699596736,
To what extent did the music make you feel ,ALERT,30MonoWAV/30MonoT3.wav,2,1,4,15,,,,,1,6,22,14,0,11,11,8,,,,,,,,,1,0.9181574030008051,,,019,001,2019_May_10_1520,MusicAffectPsychophysiology2019,3.0.5,60.04557699596736,
,,30MonoWAV/30MonoT3.wav,2,1,4,15,,,,,1,6,22,14,,,,,,,,,,,,,,,,,019,001,2019_May_10_1520,MusicAffectPsychophysiology2019,3.0.5,60.04557699596736,
To what extent did the music make you feel ,ANGRY,30MonoWAV/30MonoF1.wav,1,2,2,1,,,,,1,7,23,0,0,0,0,2,,,5,3.151592108006298,3,2.1997808839951176,4,1.3180062620012905,3,1.4679701709974324,,,019,001,2019_May_10_1520,MusicAffectPsychophysiology2019,3.0.5,60.04557699596736,
To what extent did the music make you feel ,TENDER,30MonoWAV/30MonoF1.wav,1,2,2,1,,,,,1,7,23,0,0,1,1,10,,,,,,,,,1,1.3359624389995588,,,019,001,2019_May_10_1520,MusicAffectPsychophysiology2019,3.0.5,60.04557699596736,
To what extent did the music make you feel ,ALERT,30MonoWAV/30MonoF1.wav,1,2,2,1,,,,,1,7,23,0,0,2,2,8,,,,,,,,,5,1.6519676519965287,,,019,001,2019_May_10_1520,MusicAffectPsychophysiology2019,3.0.5,60.04557699596736,
To what extent did the music make you feel ,EXCITED,30MonoWAV/30MonoF1.wav,1,2,2,1,,,,,1,7,23,0,0,3,3,7,,,,,,,,,4,1.1178979100004653,,,019,001,2019_May_10_1520,MusicAffectPsychophysiology2019,3.0.5,60.04557699596736,
To what extent did the music make you feel ,ASHAMED,30MonoWAV/30MonoF1.wav,1,2,2,1,,,,,1,7,23,0,0,4,4,4,,,,,,,,,1,1.1675742579973303,,,019,001,2019_May_10_1520,MusicAffectPsychophysiology2019,3.0.5,60.04557699596736,
To what extent did the music make you feel ,SCARED,30MonoWAV/30MonoF1.wav,1,2,2,1,,,,,1,7,23,0,0,5,5,11,,,,,,,,,3,1.6683087609999347,,,019,001,2019_May_10_1520,MusicAffectPsychophysiology2019,3.0.5,60.04557699596736,
To what extent did the music make you feel ,GUILTY,30MonoWAV/30MonoF1.wav,1,2,2,1,,,,,1,7,23,0,0,6,6,5,,,,,,,,,1,1.034687537998252,,,019,001,2019_May_10_1520,MusicAffectPsychophysiology2019,3.0.5,60.04557699596736,
To what extent did the music make you feel ,ANXIOUS ,30MonoWAV/30MonoF1.wav,1,2,2,1,,,,,1,7,23,0,0,7,7,1,,,,,,,,,3,1.2508365019966732,,,019,001,2019_May_10_1520,MusicAffectPsychophysiology2019,3.0.5,60.04557699596736,
To what extent did the music make you feel ,HAPPY,30MonoWAV/30MonoF1.wav,1,2,2,1,,,,,1,7,23,0,0,8,8,6,,,,,,,,,1,1.2349819250011933,,,019,001,2019_May_10_1520,MusicAffectPsychophysiology2019,3.0.5,60.04557699596736,
To what extent did the music make you feel ,ACTIVE,30MonoWAV/30MonoF1.wav,1,2,2,1,,,,,1,7,23,0,0,9,9,9,,,,,,,,,4,1.6330002389950096,,,019,001,2019_May_10_1520,MusicAffectPsychophysiology2019,3.0.5,60.04557699596736,
To what extent did the music make you feel ,FRUSTRATED,30MonoWAV/30MonoF1.wav,1,2,2,1,,,,,1,7,23,0,0,10,10,3,,,,,,,,,2,1.2845659640006488,,,019,001,2019_May_10_1520,MusicAffectPsychophysiology2019,3.0.5,60.04557699596736,
To what extent did the music make you feel ,SAD,30MonoWAV/30MonoF1.wav,1,2,2,1,,,,,1,7,23,0,0,11,11,0,,,,,,,,,1,0.967985568997392,,,019,001,2019_May_10_1520,MusicAffectPsychophysiology2019,3.0.5,60.04557699596736,
,,30MonoWAV/30MonoF1.wav,1,2,2,1,,,,,1,7,23,0,,,,,,,,,,,,,,,,,019,001,2019_May_10_1520,MusicAffectPsychophysiology2019,3.0.5,60.04557699596736,
To what extent did the music make you feel ,EXCITED,30MonoWAV/30MonoH1.wav,2,2,1,5,,,,,1,8,24,4,0,0,0,7,,,3,7.851766053994652,4,2.5494142070019734,4,0.4521915379955317,3,2.802602741001465,,,019,001,2019_May_10_1520,MusicAffectPsychophysiology2019,3.0.5,60.04557699596736,
To what extent did the music make you feel ,ALERT,30MonoWAV/30MonoH1.wav,2,2,1,5,,,,,1,8,24,4,0,1,1,8,,,,,,,,,3,1.317062624002574,,,019,001,2019_May_10_1520,MusicAffectPsychophysiology2019,3.0.5,60.04557699596736,
To what extent did the music make you feel ,FRUSTRATED,30MonoWAV/30MonoH1.wav,2,2,1,5,,,,,1,8,24,4,0,2,2,3,,,,,,,,,1,1.0845672430004925,,,019,001,2019_May_10_1520,MusicAffectPsychophysiology2019,3.0.5,60.04557699596736,
To what extent did the music make you feel ,SCARED,30MonoWAV/30MonoH1.wav,2,2,1,5,,,,,1,8,24,4,0,3,3,11,,,,,,,,,1,0.9176744350043009,,,019,001,2019_May_10_1520,MusicAffectPsychophysiology2019,3.0.5,60.04557699596736,
To what extent did the music make you feel ,ACTIVE,30MonoWAV/30MonoH1.wav,2,2,1,5,,,,,1,8,24,4,0,4,4,9,,,,,,,,,4,1.685594028000196,,,019,001,2019_May_10_1520,MusicAffectPsychophysiology2019,3.0.5,60.04557699596736,
To what extent did the music make you feel ,SAD,30MonoWAV/30MonoH1.wav,2,2,1,5,,,,,1,8,24,4,0,5,5,0,,,,,,,,,1,1.0174441069975728,,,019,001,2019_May_10_1520,MusicAffectPsychophysiology2019,3.0.5,60.04557699596736,
To what extent did the music make you feel ,HAPPY,30MonoWAV/30MonoH1.wav,2,2,1,5,,,,,1,8,24,4,0,6,6,6,,,,,,,,,5,1.0025254779975512,,,019,001,2019_May_10_1520,MusicAffectPsychophysiology2019,3.0.5,60.04557699596736,
To what extent did the music make you feel ,ANGRY,30MonoWAV/30MonoH1.wav,2,2,1,5,,,,,1,8,24,4,0,7,7,2,,,,,,,,,1,1.0187101709962008,,,019,001,2019_May_10_1520,MusicAffectPsychophysiology2019,3.0.5,60.04557699596736,
To what extent did the music make you feel ,ANXIOUS ,30MonoWAV/30MonoH1.wav,2,2,1,5,,,,,1,8,24,4,0,8,8,1,,,,,,,,,1,1.2521983129990986,,,019,001,2019_May_10_1520,MusicAffectPsychophysiology2019,3.0.5,60.04557699596736,
To what extent did the music make you feel ,TENDER,30MonoWAV/30MonoH1.wav,2,2,1,5,,,,,1,8,24,4,0,9,9,10,,,,,,,,,3,1.3014762239981792,,,019,001,2019_May_10_1520,MusicAffectPsychophysiology2019,3.0.5,60.04557699596736,
To what extent did the music make you feel ,GUILTY,30MonoWAV/30MonoH1.wav,2,2,1,5,,,,,1,8,24,4,0,10,10,5,,,,,,,,,1,0.9849752910013194,,,019,001,2019_May_10_1520,MusicAffectPsychophysiology2019,3.0.5,60.04557699596736,
To what extent did the music make you feel ,ASHAMED,30MonoWAV/30MonoH1.wav,2,2,1,5,,,,,1,8,24,4,0,11,11,4,,,,,,,,,1,0.7352953390000039,,,019,001,2019_May_10_1520,MusicAffectPsychophysiology2019,3.0.5,60.04557699596736,
,,30MonoWAV/30MonoH1.wav,2,2,1,5,,,,,1,8,24,4,,,,,,,,,,,,,,,,,019,001,2019_May_10_1520,MusicAffectPsychophysiology2019,3.0.5,60.04557699596736,
To what extent did the music make you feel ,SAD,30MonoWAV/30MonoS2.wav,1,1,3,10,,,,,1,9,25,9,0,0,0,0,,,2,3.305616784004087,2,3.8576823499970487,3,1.9013869379996322,4,2.3853115449965117,,,019,001,2019_May_10_1520,MusicAffectPsychophysiology2019,3.0.5,60.04557699596736,
To what extent did the music make you feel ,SCARED,30MonoWAV/30MonoS2.wav,1,1,3,10,,,,,1,9,25,9,0,1,1,11,,,,,,,,,1,1.3182407690037508,,,019,001,2019_May_10_1520,MusicAffectPsychophysiology2019,3.0.5,60.04557699596736,
To what extent did the music make you feel ,FRUSTRATED,30MonoWAV/30MonoS2.wav,1,1,3,10,,,,,1,9,25,9,0,2,2,3,,,,,,,,,1,0.6522158699954161,,,019,001,2019_May_10_1520,MusicAffectPsychophysiology2019,3.0.5,60.04557699596736,
To what extent did the music make you feel ,ACTIVE,30MonoWAV/30MonoS2.wav,1,1,3,10,,,,,1,9,25,9,0,3,3,9,,,,,,,,,1,1.1683903180019115,,,019,001,2019_May_10_1520,MusicAffectPsychophysiology2019,3.0.5,60.04557699596736,
To what extent did the music make you feel ,HAPPY,30MonoWAV/30MonoS2.wav,1,1,3,10,,,,,1,9,25,9,0,4,4,6,,,,,,,,,1,1.0516775119976955,,,019,001,2019_May_10_1520,MusicAffectPsychophysiology2019,3.0.5,60.04557699596736,
To what extent did the music make you feel ,ALERT,30MonoWAV/30MonoS2.wav,1,1,3,10,,,,,1,9,25,9,0,5,5,8,,,,,,,,,1,1.5017675559938652,,,019,001,2019_May_10_1520,MusicAffectPsychophysiology2019,3.0.5,60.04557699596736,
To what extent did the music make you feel ,ANXIOUS ,30MonoWAV/30MonoS2.wav,1,1,3,10,,,,,1,9,25,9,0,6,6,1,,,,,,,,,2,1.2183478989973082,,,019,001,2019_May_10_1520,MusicAffectPsychophysiology2019,3.0.5,60.04557699596736,
To what extent did the music make you feel ,GUILTY,30MonoWAV/30MonoS2.wav,1,1,3,10,,,,,1,9,25,9,0,7,7,5,,,,,,,,,3,1.3019787759985775,,,019,001,2019_May_10_1520,MusicAffectPsychophysiology2019,3.0.5,60.04557699596736,
To what extent did the music make you feel ,EXCITED,30MonoWAV/30MonoS2.wav,1,1,3,10,,,,,1,9,25,9,0,8,8,7,,,,,,,,,1,1.335761176997039,,,019,001,2019_May_10_1520,MusicAffectPsychophysiology2019,3.0.5,60.04557699596736,
To what extent did the music make you feel ,ANGRY,30MonoWAV/30MonoS2.wav,1,1,3,10,,,,,1,9,25,9,0,9,9,2,,,,,,,,,1,1.3371112320019165,,,019,001,2019_May_10_1520,MusicAffectPsychophysiology2019,3.0.5,60.04557699596736,
To what extent did the music make you feel ,TENDER,30MonoWAV/30MonoS2.wav,1,1,3,10,,,,,1,9,25,9,0,10,10,10,,,,,,,,,2,1.3847495500012883,,,019,001,2019_May_10_1520,MusicAffectPsychophysiology2019,3.0.5,60.04557699596736,
To what extent did the music make you feel ,ASHAMED,30MonoWAV/30MonoS2.wav,1,1,3,10,,,,,1,9,25,9,0,11,11,4,,,,,,,,,3,1.0827524209962576,,,019,001,2019_May_10_1520,MusicAffectPsychophysiology2019,3.0.5,60.04557699596736,
,,30MonoWAV/30MonoS2.wav,1,1,3,10,,,,,1,9,25,9,,,,,,,,,,,,,,,,,019,001,2019_May_10_1520,MusicAffectPsychophysiology2019,3.0.5,60.04557699596736,
To what extent did the music make you feel ,HAPPY,30MonoWAV/30MonoT4.wav,2,1,4,16,,,,,1,10,26,15,0,0,0,6,,,2,5.374714459001552,4,1.5187869149958715,4,1.2190286780023598,4,1.369128559003002,,,019,001,2019_May_10_1520,MusicAffectPsychophysiology2019,3.0.5,60.04557699596736,
To what extent did the music make you feel ,FRUSTRATED,30MonoWAV/30MonoT4.wav,2,1,4,16,,,,,1,10,26,15,0,1,1,3,,,,,,,,,1,1.0850779569955193,,,019,001,2019_May_10_1520,MusicAffectPsychophysiology2019,3.0.5,60.04557699596736,
To what extent did the music make you feel ,SAD,30MonoWAV/30MonoT4.wav,2,1,4,16,,,,,1,10,26,15,0,2,2,0,,,,,,,,,2,1.8841291619974072,,,019,001,2019_May_10_1520,MusicAffectPsychophysiology2019,3.0.5,60.04557699596736,
To what extent did the music make you feel ,TENDER,30MonoWAV/30MonoT4.wav,2,1,4,16,,,,,1,10,26,15,0,3,3,10,,,,,,,,,5,1.6503394489991479,,,019,001,2019_May_10_1520,MusicAffectPsychophysiology2019,3.0.5,60.04557699596736,
To what extent did the music make you feel ,GUILTY,30MonoWAV/30MonoT4.wav,2,1,4,16,,,,,1,10,26,15,0,4,4,5,,,,,,,,,1,1.2849653539960855,,,019,001,2019_May_10_1520,MusicAffectPsychophysiology2019,3.0.5,60.04557699596736,
To what extent did the music make you feel ,ALERT,30MonoWAV/30MonoT4.wav,2,1,4,16,,,,,1,10,26,15,0,5,5,8,,,,,,,,,2,1.3858005950023653,,,019,001,2019_May_10_1520,MusicAffectPsychophysiology2019,3.0.5,60.04557699596736,
To what extent did the music make you feel ,ACTIVE,30MonoWAV/30MonoT4.wav,2,1,4,16,,,,,1,10,26,15,0,6,6,9,,,,,,,,,1,1.199549951001245,,,019,001,2019_May_10_1520,MusicAffectPsychophysiology2019,3.0.5,60.04557699596736,
To what extent did the music make you feel ,ANXIOUS ,30MonoWAV/30MonoT4.wav,2,1,4,16,,,,,1,10,26,15,0,7,7,1,,,,,,,,,1,2.0333263229986187,,,019,001,2019_May_10_1520,MusicAffectPsychophysiology2019,3.0.5,60.04557699596736,
To what extent did the music make you feel ,ASHAMED,30MonoWAV/30MonoT4.wav,2,1,4,16,,,,,1,10,26,15,0,8,8,4,,,,,,,,,2,1.935963880001509,,,019,001,2019_May_10_1520,MusicAffectPsychophysiology2019,3.0.5,60.04557699596736,
To what extent did the music make you feel ,EXCITED,30MonoWAV/30MonoT4.wav,2,1,4,16,,,,,1,10,26,15,0,9,9,7,,,,,,,,,1,2.3021184020035435,,,019,001,2019_May_10_1520,MusicAffectPsychophysiology2019,3.0.5,60.04557699596736,
To what extent did the music make you feel ,ANGRY,30MonoWAV/30MonoT4.wav,2,1,4,16,,,,,1,10,26,15,0,10,10,2,,,,,,,,,1,0.7512593990031746,,,019,001,2019_May_10_1520,MusicAffectPsychophysiology2019,3.0.5,60.04557699596736,
To what extent did the music make you feel ,SCARED,30MonoWAV/30MonoT4.wav,2,1,4,16,,,,,1,10,26,15,0,11,11,11,,,,,,,,,1,0.9848225140012801,,,019,001,2019_May_10_1520,MusicAffectPsychophysiology2019,3.0.5,60.04557699596736,
,,30MonoWAV/30MonoT4.wav,2,1,4,16,,,,,1,10,26,15,,,,,,,,,,,,,,,,,019,001,2019_May_10_1520,MusicAffectPsychophysiology2019,3.0.5,60.04557699596736,
To what extent did the music make you feel ,ANGRY,30MonoWAV/30MonoH4.wav,2,2,1,8,,,,,1,11,27,7,0,0,0,2,,,5,3.6572789040001226,5,0.6018577460054075,5,0.46848283400322543,1,1.3516071579942945,,,019,001,2019_May_10_1520,MusicAffectPsychophysiology2019,3.0.5,60.04557699596736,
To what extent did the music make you feel ,SAD,30MonoWAV/30MonoH4.wav,2,2,1,8,,,,,1,11,27,7,0,1,1,0,,,,,,,,,1,0.7175532430046587,,,019,001,2019_May_10_1520,MusicAffectPsychophysiology2019,3.0.5,60.04557699596736,
To what extent did the music make you feel ,FRUSTRATED,30MonoWAV/30MonoH4.wav,2,2,1,8,,,,,1,11,27,7,0,2,2,3,,,,,,,,,1,0.9172106199985137,,,019,001,2019_May_10_1520,MusicAffectPsychophysiology2019,3.0.5,60.04557699596736,
To what extent did the music make you feel ,GUILTY,30MonoWAV/30MonoH4.wav,2,2,1,8,,,,,1,11,27,7,0,3,3,5,,,,,,,,,1,1.7860150720007368,,,019,001,2019_May_10_1520,MusicAffectPsychophysiology2019,3.0.5,60.04557699596736,
To what extent did the music make you feel ,SCARED,30MonoWAV/30MonoH4.wav,2,2,1,8,,,,,1,11,27,7,0,4,4,11,,,,,,,,,1,0.9188333819984109,,,019,001,2019_May_10_1520,MusicAffectPsychophysiology2019,3.0.5,60.04557699596736,
To what extent did the music make you feel ,EXCITED,30MonoWAV/30MonoH4.wav,2,2,1,8,,,,,1,11,27,7,0,5,5,7,,,,,,,,,5,1.3516900210015592,,,019,001,2019_May_10_1520,MusicAffectPsychophysiology2019,3.0.5,60.04557699596736,
To what extent did the music make you feel ,ACTIVE,30MonoWAV/30MonoH4.wav,2,2,1,8,,,,,1,11,27,7,0,6,6,9,,,,,,,,,4,2.234515440002724,,,019,001,2019_May_10_1520,MusicAffectPsychophysiology2019,3.0.5,60.04557699596736,
To what extent did the music make you feel ,HAPPY,30MonoWAV/30MonoH4.wav,2,2,1,8,,,,,1,11,27,7,0,7,7,6,,,,,,,,,4,1.7845922720007366,,,019,001,2019_May_10_1520,MusicAffectPsychophysiology2019,3.0.5,60.04557699596736,
To what extent did the music make you feel ,ANXIOUS ,30MonoWAV/30MonoH4.wav,2,2,1,8,,,,,1,11,27,7,0,8,8,1,,,,,,,,,1,1.2686699600017164,,,019,001,2019_May_10_1520,MusicAffectPsychophysiology2019,3.0.5,60.04557699596736,
To what extent did the music make you feel ,ALERT,30MonoWAV/30MonoH4.wav,2,2,1,8,,,,,1,11,27,7,0,9,9,8,,,,,,,,,4,1.3187709789999644,,,019,001,2019_May_10_1520,MusicAffectPsychophysiology2019,3.0.5,60.04557699596736,
To what extent did the music make you feel ,ASHAMED,30MonoWAV/30MonoH4.wav,2,2,1,8,,,,,1,11,27,7,0,10,10,4,,,,,,,,,1,0.9684507790007046,,,019,001,2019_May_10_1520,MusicAffectPsychophysiology2019,3.0.5,60.04557699596736,
To what extent did the music make you feel ,TENDER,30MonoWAV/30MonoH4.wav,2,2,1,8,,,,,1,11,27,7,0,11,11,10,,,,,,,,,2,1.2517604749955353,,,019,001,2019_May_10_1520,MusicAffectPsychophysiology2019,3.0.5,60.04557699596736,
,,30MonoWAV/30MonoH4.wav,2,2,1,8,,,,,1,11,27,7,,,,,,,,,,,,,,,,,019,001,2019_May_10_1520,MusicAffectPsychophysiology2019,3.0.5,60.04557699596736,
To what extent did the music make you feel ,ANGRY,30MonoWAV/30MonoS3.wav,1,1,3,11,,,,,1,12,28,10,0,0,0,2,,,2,5.418608432999463,2,1.6663928859998123,3,1.735386036001728,1,2.068202308000764,,,019,001,2019_May_10_1520,MusicAffectPsychophysiology2019,3.0.5,60.04557699596736,
To what extent did the music make you feel ,ANXIOUS ,30MonoWAV/30MonoS3.wav,1,1,3,11,,,,,1,12,28,10,0,1,1,1,,,,,,,,,4,1.9186091489973478,,,019,001,2019_May_10_1520,MusicAffectPsychophysiology2019,3.0.5,60.04557699596736,
To what extent did the music make you feel ,HAPPY,30MonoWAV/30MonoS3.wav,1,1,3,11,,,,,1,12,28,10,0,2,2,6,,,,,,,,,1,1.9186465940001654,,,019,001,2019_May_10_1520,MusicAffectPsychophysiology2019,3.0.5,60.04557699596736,
To what extent did the music make you feel ,SCARED,30MonoWAV/30MonoS3.wav,1,1,3,11,,,,,1,12,28,10,0,3,3,11,,,,,,,,,2,1.7363261290010996,,,019,001,2019_May_10_1520,MusicAffectPsychophysiology2019,3.0.5,60.04557699596736,
To what extent did the music make you feel ,SAD,30MonoWAV/30MonoS3.wav,1,1,3,11,,,,,1,12,28,10,0,4,4,0,,,,,,,,,3,1.4350886079992051,,,019,001,2019_May_10_1520,MusicAffectPsychophysiology2019,3.0.5,60.04557699596736,
To what extent did the music make you feel ,FRUSTRATED,30MonoWAV/30MonoS3.wav,1,1,3,11,,,,,1,12,28,10,0,5,5,3,,,,,,,,,1,1.735230042002513,,,019,001,2019_May_10_1520,MusicAffectPsychophysiology2019,3.0.5,60.04557699596736,
To what extent did the music make you feel ,ACTIVE,30MonoWAV/30MonoS3.wav,1,1,3,11,,,,,1,12,28,10,0,6,6,9,,,,,,,,,1,1.2692730679991655,,,019,001,2019_May_10_1520,MusicAffectPsychophysiology2019,3.0.5,60.04557699596736,
To what extent did the music make you feel ,EXCITED,30MonoWAV/30MonoS3.wav,1,1,3,11,,,,,1,12,28,10,0,7,7,7,,,,,,,,,1,0.7189783400026499,,,019,001,2019_May_10_1520,MusicAffectPsychophysiology2019,3.0.5,60.04557699596736,
To what extent did the music make you feel ,GUILTY,30MonoWAV/30MonoS3.wav,1,1,3,11,,,,,1,12,28,10,0,8,8,5,,,,,,,,,3,1.551821656001266,,,019,001,2019_May_10_1520,MusicAffectPsychophysiology2019,3.0.5,60.04557699596736,
To what extent did the music make you feel ,ALERT,30MonoWAV/30MonoS3.wav,1,1,3,11,,,,,1,12,28,10,0,9,9,8,,,,,,,,,1,1.7737302180030383,,,019,001,2019_May_10_1520,MusicAffectPsychophysiology2019,3.0.5,60.04557699596736,
To what extent did the music make you feel ,ASHAMED,30MonoWAV/30MonoS3.wav,1,1,3,11,,,,,1,12,28,10,0,10,10,4,,,,,,,,,4,1.6709158809971996,,,019,001,2019_May_10_1520,MusicAffectPsychophysiology2019,3.0.5,60.04557699596736,
To what extent did the music make you feel ,TENDER,30MonoWAV/30MonoS3.wav,1,1,3,11,,,,,1,12,28,10,0,11,11,10,,,,,,,,,3,1.754634911994799,,,019,001,2019_May_10_1520,MusicAffectPsychophysiology2019,3.0.5,60.04557699596736,
,,30MonoWAV/30MonoS3.wav,1,1,3,11,,,,,1,12,28,10,,,,,,,,,,,,,,,,,019,001,2019_May_10_1520,MusicAffectPsychophysiology2019,3.0.5,60.04557699596736,
To what extent did the music make you feel ,GUILTY,30MonoWAV/30MonoF2.wav,1,2,2,2,,,,,1,13,29,1,0,0,0,5,,,3,11.052203221996024,1,2.0516161429986823,1,1.8509647859973484,1,1.4355275889975019,,,019,001,2019_May_10_1520,MusicAffectPsychophysiology2019,3.0.5,60.04557699596736,
To what extent did the music make you feel ,TENDER,30MonoWAV/30MonoF2.wav,1,2,2,2,,,,,1,13,29,1,0,1,1,10,,,,,,,,,1,1.034365056999377,,,019,001,2019_May_10_1520,MusicAffectPsychophysiology2019,3.0.5,60.04557699596736,
To what extent did the music make you feel ,ACTIVE,30MonoWAV/30MonoF2.wav,1,2,2,2,,,,,1,13,29,1,0,2,2,9,,,,,,,,,2,1.1334286450000945,,,019,001,2019_May_10_1520,MusicAffectPsychophysiology2019,3.0.5,60.04557699596736,
To what extent did the music make you feel ,ANXIOUS ,30MonoWAV/30MonoF2.wav,1,2,2,2,,,,,1,13,29,1,0,3,3,1,,,,,,,,,5,1.6852713030020823,,,019,001,2019_May_10_1520,MusicAffectPsychophysiology2019,3.0.5,60.04557699596736,
To what extent did the music make you feel ,ANGRY,30MonoWAV/30MonoF2.wav,1,2,2,2,,,,,1,13,29,1,0,4,4,2,,,,,,,,,1,1.3353817110037198,,,019,001,2019_May_10_1520,MusicAffectPsychophysiology2019,3.0.5,60.04557699596736,
To what extent did the music make you feel ,ALERT,30MonoWAV/30MonoF2.wav,1,2,2,2,,,,,1,13,29,1,0,5,5,8,,,,,,,,,3,1.3025098489961238,,,019,001,2019_May_10_1520,MusicAffectPsychophysiology2019,3.0.5,60.04557699596736,
To what extent did the music make you feel ,SAD,30MonoWAV/30MonoF2.wav,1,2,2,2,,,,,1,13,29,1,0,6,6,0,,,,,,,,,1,1.384365017998789,,,019,001,2019_May_10_1520,MusicAffectPsychophysiology2019,3.0.5,60.04557699596736,
To what extent did the music make you feel ,ASHAMED,30MonoWAV/30MonoF2.wav,1,2,2,2,,,,,1,13,29,1,0,7,7,4,,,,,,,,,2,0.8843589980024262,,,019,001,2019_May_10_1520,MusicAffectPsychophysiology2019,3.0.5,60.04557699596736,
To what extent did the music make you feel ,EXCITED,30MonoWAV/30MonoF2.wav,1,2,2,2,,,,,1,13,29,1,0,8,8,7,,,,,,,,,2,1.26820980499906,,,019,001,2019_May_10_1520,MusicAffectPsychophysiology2019,3.0.5,60.04557699596736,
To what extent did the music make you feel ,SCARED,30MonoWAV/30MonoF2.wav,1,2,2,2,,,,,1,13,29,1,0,9,9,11,,,,,,,,,3,1.5678270860007615,,,019,001,2019_May_10_1520,MusicAffectPsychophysiology2019,3.0.5,60.04557699596736,
To what extent did the music make you feel ,FRUSTRATED,30MonoWAV/30MonoF2.wav,1,2,2,2,,,,,1,13,29,1,0,10,10,3,,,,,,,,,1,1.018372000005911,,,019,001,2019_May_10_1520,MusicAffectPsychophysiology2019,3.0.5,60.04557699596736,
To what extent did the music make you feel ,HAPPY,30MonoWAV/30MonoF2.wav,1,2,2,2,,,,,1,13,29,1,0,11,11,6,,,,,,,,,1,1.1019533020007657,,,019,001,2019_May_10_1520,MusicAffectPsychophysiology2019,3.0.5,60.04557699596736,
,,30MonoWAV/30MonoF2.wav,1,2,2,2,,,,,1,13,29,1,,,,,,,,,,,,,,,,,019,001,2019_May_10_1520,MusicAffectPsychophysiology2019,3.0.5,60.04557699596736,
To what extent did the music make you feel ,EXCITED,30MonoWAV/30MonoH3.wav,2,2,1,7,,,,,1,14,30,6,0,0,0,7,,,5,5.710941801000445,4,1.252345389999391,4,1.0509190979937557,4,1.2846202720029396,,,019,001,2019_May_10_1520,MusicAffectPsychophysiology2019,3.0.5,60.04557699596736,
To what extent did the music make you feel ,ALERT,30MonoWAV/30MonoH3.wav,2,2,1,7,,,,,1,14,30,6,0,1,1,8,,,,,,,,,4,1.3342036360045313,,,019,001,2019_May_10_1520,MusicAffectPsychophysiology2019,3.0.5,60.04557699596736,
To what extent did the music make you feel ,ANGRY,30MonoWAV/30MonoH3.wav,2,2,1,7,,,,,1,14,30,6,0,2,2,2,,,,,,,,,1,1.1343525889969897,,,019,001,2019_May_10_1520,MusicAffectPsychophysiology2019,3.0.5,60.04557699596736,
To what extent did the music make you feel ,HAPPY,30MonoWAV/30MonoH3.wav,2,2,1,7,,,,,1,14,30,6,0,3,3,6,,,,,,,,,4,1.6522655419976218,,,019,001,2019_May_10_1520,MusicAffectPsychophysiology2019,3.0.5,60.04557699596736,
To what extent did the music make you feel ,GUILTY,30MonoWAV/30MonoH3.wav,2,2,1,7,,,,,1,14,30,6,0,4,4,5,,,,,,,,,1,1.0177213110000594,,,019,001,2019_May_10_1520,MusicAffectPsychophysiology2019,3.0.5,60.04557699596736,
To what extent did the music make you feel ,SAD,30MonoWAV/30MonoH3.wav,2,2,1,7,,,,,1,14,30,6,0,5,5,0,,,,,,,,,1,0.8019201350034564,,,019,001,2019_May_10_1520,MusicAffectPsychophysiology2019,3.0.5,60.04557699596736,
To what extent did the music make you feel ,SCARED,30MonoWAV/30MonoH3.wav,2,2,1,7,,,,,1,14,30,6,0,6,6,11,,,,,,,,,1,0.8015670409949962,,,019,001,2019_May_10_1520,MusicAffectPsychophysiology2019,3.0.5,60.04557699596736,
To what extent did the music make you feel ,ASHAMED,30MonoWAV/30MonoH3.wav,2,2,1,7,,,,,1,14,30,6,0,7,7,4,,,,,,,,,1,0.7681904540004325,,,019,001,2019_May_10_1520,MusicAffectPsychophysiology2019,3.0.5,60.04557699596736,
To what extent did the music make you feel ,TENDER,30MonoWAV/30MonoH3.wav,2,2,1,7,,,,,1,14,30,6,0,8,8,10,,,,,,,,,3,1.5681369980011368,,,019,001,2019_May_10_1520,MusicAffectPsychophysiology2019,3.0.5,60.04557699596736,
To what extent did the music make you feel ,FRUSTRATED,30MonoWAV/30MonoH3.wav,2,2,1,7,,,,,1,14,30,6,0,9,9,3,,,,,,,,,1,0.9682474849978462,,,019,001,2019_May_10_1520,MusicAffectPsychophysiology2019,3.0.5,60.04557699596736,
To what extent did the music make you feel ,ACTIVE,30MonoWAV/30MonoH3.wav,2,2,1,7,,,,,1,14,30,6,0,10,10,9,,,,,,,,,4,1.6509269640009734,,,019,001,2019_May_10_1520,MusicAffectPsychophysiology2019,3.0.5,60.04557699596736,
To what extent did the music make you feel ,ANXIOUS ,30MonoWAV/30MonoH3.wav,2,2,1,7,,,,,1,14,30,6,0,11,11,1,,,,,,,,,1,1.0359403469992685,,,019,001,2019_May_10_1520,MusicAffectPsychophysiology2019,3.0.5,60.04557699596736,
,,30MonoWAV/30MonoH3.wav,2,2,1,7,,,,,1,14,30,6,,,,,,,,,,,,,,,,,019,001,2019_May_10_1520,MusicAffectPsychophysiology2019,3.0.5,60.04557699596736,
To what extent did the music make you feel ,ACTIVE,30MonoWAV/30MonoT1.wav,2,1,4,13,,,,,1,15,31,12,0,0,0,9,,,2,6.893952964004711,3,1.600484916001733,4,1.0363181639986578,2,1.6349738619974232,,,019,001,2019_May_10_1520,MusicAffectPsychophysiology2019,3.0.5,60.04557699596736,
To what extent did the music make you feel ,ALERT,30MonoWAV/30MonoT1.wav,2,1,4,13,,,,,1,15,31,12,0,1,1,8,,,,,,,,,2,1.0355521899982705,,,019,001,2019_May_10_1520,MusicAffectPsychophysiology2019,3.0.5,60.04557699596736,
To what extent did the music make you feel ,TENDER,30MonoWAV/30MonoT1.wav,2,1,4,13,,,,,1,15,31,12,0,2,2,10,,,,,,,,,5,1.4239233490006882,,,019,001,2019_May_10_1520,MusicAffectPsychophysiology2019,3.0.5,60.04557699596736,
To what extent did the music make you feel ,ASHAMED,30MonoWAV/30MonoT1.wav,2,1,4,13,,,,,1,15,31,12,0,3,3,4,,,,,,,,,2,1.7361922730051447,,,019,001,2019_May_10_1520,MusicAffectPsychophysiology2019,3.0.5,60.04557699596736,
To what extent did the music make you feel ,ANGRY,30MonoWAV/30MonoT1.wav,2,1,4,13,,,,,1,15,31,12,0,4,4,2,,,,,,,,,1,0.8028660869968007,,,019,001,2019_May_10_1520,MusicAffectPsychophysiology2019,3.0.5,60.04557699596736,
To what extent did the music make you feel ,SCARED,30MonoWAV/30MonoT1.wav,2,1,4,13,,,,,1,15,31,12,0,5,5,11,,,,,,,,,1,0.8366323019945412,,,019,001,2019_May_10_1520,MusicAffectPsychophysiology2019,3.0.5,60.04557699596736,
To what extent did the music make you feel ,ANXIOUS ,30MonoWAV/30MonoT1.wav,2,1,4,13,,,,,1,15,31,12,0,6,6,1,,,,,,,,,1,1.1014301940012956,,,019,001,2019_May_10_1520,MusicAffectPsychophysiology2019,3.0.5,60.04557699596736,
To what extent did the music make you feel ,FRUSTRATED,30MonoWAV/30MonoT1.wav,2,1,4,13,,,,,1,15,31,12,0,7,7,3,,,,,,,,,1,0.7358738890034147,,,019,001,2019_May_10_1520,MusicAffectPsychophysiology2019,3.0.5,60.04557699596736,
To what extent did the music make you feel ,SAD,30MonoWAV/30MonoT1.wav,2,1,4,13,,,,,1,15,31,12,0,8,8,0,,,,,,,,,3,1.5395786560038687,,,019,001,2019_May_10_1520,MusicAffectPsychophysiology2019,3.0.5,60.04557699596736,
To what extent did the music make you feel ,GUILTY,30MonoWAV/30MonoT1.wav,2,1,4,13,,,,,1,15,31,12,0,9,9,5,,,,,,,,,1,1.6509327650055639,,,019,001,2019_May_10_1520,MusicAffectPsychophysiology2019,3.0.5,60.04557699596736,
To what extent did the music make you feel ,EXCITED,30MonoWAV/30MonoT1.wav,2,1,4,13,,,,,1,15,31,12,0,10,10,7,,,,,,,,,1,1.2023561769965454,,,019,001,2019_May_10_1520,MusicAffectPsychophysiology2019,3.0.5,60.04557699596736,
To what extent did the music make you feel ,HAPPY,30MonoWAV/30MonoT1.wav,2,1,4,13,,,,,1,15,31,12,0,11,11,6,,,,,,,,,3,1.0185484800022095,,,019,001,2019_May_10_1520,MusicAffectPsychophysiology2019,3.0.5,60.04557699596736,
,,30MonoWAV/30MonoT1.wav,2,1,4,13,,,,,1,15,31,12,,,,,,,,,,,,,,,,,019,001,2019_May_10_1520,MusicAffectPsychophysiology2019,3.0.5,60.04557699596736,
,,,,,,,,,,,,,,,,,,,,,,,,,,,,,space,5.73481768000056,019,001,2019_May_10_1520,MusicAffectPsychophysiology2019,3.0.5,60.04557699596736,
