Instruction,Word,song,valence,arousal,affectcat,songmark,pracwords.thisRepN,pracwords.thisTrialN,pracwords.thisN,pracwords.thisIndex,songtrials.thisRepN,songtrials.thisTrialN,songtrials.thisN,songtrials.thisIndex,words.thisRepN,words.thisTrialN,words.thisN,words.thisIndex,begin.keys,begin.rt,arousalkey.keys,arousalkey.rt,valencekey.keys,valencekey.rt,likekey.keys,likekey.rt,WordResponse.keys,WordResponse.rt,key_resp_2.keys,key_resp_2.rt,participant,session,date,expName,psychopyVersion,frameRate,
,,,,,,,,,,,,,,,,,,,space,10.636883361003129,,,,,,,,,,,020,001,2019_May_13_1007,MusicAffectPsychophysiology2019,3.0.5,59.952714811639225,
,,,,,,,,,,,,,,,,,,,,,3,7.234702613000991,,,,,,,,,020,001,2019_May_13_1007,MusicAffectPsychophysiology2019,3.0.5,59.952714811639225,
,,,,,,,,,,,,,,,,,,,,,,,3,3.618682307002018,,,,,,,020,001,2019_May_13_1007,MusicAffectPsychophysiology2019,3.0.5,59.952714811639225,
,,,,,,,,,,,,,,,,,,,,,,,,,3,4.952225761997397,,,,,020,001,2019_May_13_1007,MusicAffectPsychophysiology2019,3.0.5,59.952714811639225,
To what extent did the music make you feel ,GUILTY,,,,,,0,0,0,5,,,,,,,,,,,,,,,,,1,5.117106288002105,,,020,001,2019_May_13_1007,MusicAffectPsychophysiology2019,3.0.5,59.952714811639225,
To what extent did the music make you feel ,ASHAMED,,,,,,0,1,1,4,,,,,,,,,,,,,,,,,1,3.2358222949987976,,,020,001,2019_May_13_1007,MusicAffectPsychophysiology2019,3.0.5,59.952714811639225,
To what extent did the music make you feel ,SAD,,,,,,0,2,2,0,,,,,,,,,,,,,,,,,1,1.1844555489951745,,,020,001,2019_May_13_1007,MusicAffectPsychophysiology2019,3.0.5,59.952714811639225,
To what extent did the music make you feel ,FRUSTRATED,,,,,,0,3,3,3,,,,,,,,,,,,,,,,,1,0.8348461959976703,,,020,001,2019_May_13_1007,MusicAffectPsychophysiology2019,3.0.5,59.952714811639225,
To what extent did the music make you feel ,ACTIVE,,,,,,0,4,4,9,,,,,,,,,,,,,,,,,3,3.5179421359935077,,,020,001,2019_May_13_1007,MusicAffectPsychophysiology2019,3.0.5,59.952714811639225,
To what extent did the music make you feel ,SCARED,,,,,,0,5,5,11,,,,,,,,,,,,,,,,,1,1.2194985359965358,,,020,001,2019_May_13_1007,MusicAffectPsychophysiology2019,3.0.5,59.952714811639225,
To what extent did the music make you feel ,ANGRY,,,,,,0,6,6,2,,,,,,,,,,,,,,,,,1,0.9187349770072615,,,020,001,2019_May_13_1007,MusicAffectPsychophysiology2019,3.0.5,59.952714811639225,
To what extent did the music make you feel ,EXCITED,,,,,,0,7,7,7,,,,,,,,,,,,,,,,,2,3.309057168007712,,,020,001,2019_May_13_1007,MusicAffectPsychophysiology2019,3.0.5,59.952714811639225,
To what extent did the music make you feel ,HAPPY,,,,,,0,8,8,6,,,,,,,,,,,,,,,,,2,2.504528486999334,,,020,001,2019_May_13_1007,MusicAffectPsychophysiology2019,3.0.5,59.952714811639225,
To what extent did the music make you feel ,ALERT,,,,,,0,9,9,8,,,,,,,,,,,,,,,,,1,2.4241840979957487,,,020,001,2019_May_13_1007,MusicAffectPsychophysiology2019,3.0.5,59.952714811639225,
To what extent did the music make you feel ,ANXIOUS ,,,,,,0,10,10,1,,,,,,,,,,,,,,,,,1,1.1189167280099355,,,020,001,2019_May_13_1007,MusicAffectPsychophysiology2019,3.0.5,59.952714811639225,
To what extent did the music make you feel ,TENDER,,,,,,0,11,11,10,,,,,,,,,,,,,,,,,1,1.3356990979955299,,,020,001,2019_May_13_1007,MusicAffectPsychophysiology2019,3.0.5,59.952714811639225,
To what extent did the music make you feel ,GUILTY,30MonoWAV/30MonoF3.wav,1,2,2,3,,,,,0,0,0,2,0,0,0,5,,,3,4.684547860000748,1,2.7519334589887876,1,2.868533289001789,3,4.984762826003134,,,020,001,2019_May_13_1007,MusicAffectPsychophysiology2019,3.0.5,59.952714811639225,
To what extent did the music make you feel ,HAPPY,30MonoWAV/30MonoF3.wav,1,2,2,3,,,,,0,0,0,2,0,1,1,6,,,,,,,,,1,2.118645723996451,,,020,001,2019_May_13_1007,MusicAffectPsychophysiology2019,3.0.5,59.952714811639225,
To what extent did the music make you feel ,EXCITED,30MonoWAV/30MonoF3.wav,1,2,2,3,,,,,0,0,0,2,0,2,2,7,,,,,,,,,1,7.1678704929945525,,,020,001,2019_May_13_1007,MusicAffectPsychophysiology2019,3.0.5,59.952714811639225,
To what extent did the music make you feel ,SAD,30MonoWAV/30MonoF3.wav,1,2,2,3,,,,,0,0,0,2,0,3,3,0,,,,,,,,,2,2.286005797999678,,,020,001,2019_May_13_1007,MusicAffectPsychophysiology2019,3.0.5,59.952714811639225,
To what extent did the music make you feel ,SCARED,30MonoWAV/30MonoF3.wav,1,2,2,3,,,,,0,0,0,2,0,4,4,11,,,,,,,,,3,1.8682974620023742,,,020,001,2019_May_13_1007,MusicAffectPsychophysiology2019,3.0.5,59.952714811639225,
To what extent did the music make you feel ,ANXIOUS ,30MonoWAV/30MonoF3.wav,1,2,2,3,,,,,0,0,0,2,0,5,5,1,,,,,,,,,4,2.418073570006527,,,020,001,2019_May_13_1007,MusicAffectPsychophysiology2019,3.0.5,59.952714811639225,
To what extent did the music make you feel ,ASHAMED,30MonoWAV/30MonoF3.wav,1,2,2,3,,,,,0,0,0,2,0,6,6,4,,,,,,,,,2,3.6012405729998136,,,020,001,2019_May_13_1007,MusicAffectPsychophysiology2019,3.0.5,59.952714811639225,
To what extent did the music make you feel ,ACTIVE,30MonoWAV/30MonoF3.wav,1,2,2,3,,,,,0,0,0,2,0,7,7,9,,,,,,,,,1,1.552556149996235,,,020,001,2019_May_13_1007,MusicAffectPsychophysiology2019,3.0.5,59.952714811639225,
To what extent did the music make you feel ,ALERT,30MonoWAV/30MonoF3.wav,1,2,2,3,,,,,0,0,0,2,0,8,8,8,,,,,,,,,1,0.7359647470002528,,,020,001,2019_May_13_1007,MusicAffectPsychophysiology2019,3.0.5,59.952714811639225,
To what extent did the music make you feel ,TENDER,30MonoWAV/30MonoF3.wav,1,2,2,3,,,,,0,0,0,2,0,9,9,10,,,,,,,,,1,1.5352313780022087,,,020,001,2019_May_13_1007,MusicAffectPsychophysiology2019,3.0.5,59.952714811639225,
To what extent did the music make you feel ,FRUSTRATED,30MonoWAV/30MonoF3.wav,1,2,2,3,,,,,0,0,0,2,0,10,10,3,,,,,,,,,1,0.8353043840033934,,,020,001,2019_May_13_1007,MusicAffectPsychophysiology2019,3.0.5,59.952714811639225,
To what extent did the music make you feel ,ANGRY,30MonoWAV/30MonoF3.wav,1,2,2,3,,,,,0,0,0,2,0,11,11,2,,,,,,,,,2,4.533923868002603,,,020,001,2019_May_13_1007,MusicAffectPsychophysiology2019,3.0.5,59.952714811639225,
,,30MonoWAV/30MonoF3.wav,1,2,2,3,,,,,0,0,0,2,,,,,,,,,,,,,,,,,020,001,2019_May_13_1007,MusicAffectPsychophysiology2019,3.0.5,59.952714811639225,
To what extent did the music make you feel ,EXCITED,30MonoWAV/30MonoT1.wav,2,1,4,13,,,,,0,1,1,12,0,0,0,7,,,1,2.6034868019924033,4,5.38522905499849,3,2.650702024999191,1,3.651843911007745,,,020,001,2019_May_13_1007,MusicAffectPsychophysiology2019,3.0.5,59.952714811639225,
To what extent did the music make you feel ,ANGRY,30MonoWAV/30MonoT1.wav,2,1,4,13,,,,,0,1,1,12,0,1,1,2,,,,,,,,,1,1.08427661001042,,,020,001,2019_May_13_1007,MusicAffectPsychophysiology2019,3.0.5,59.952714811639225,
To what extent did the music make you feel ,GUILTY,30MonoWAV/30MonoT1.wav,2,1,4,13,,,,,0,1,1,12,0,2,2,5,,,,,,,,,1,1.0017527750023874,,,020,001,2019_May_13_1007,MusicAffectPsychophysiology2019,3.0.5,59.952714811639225,
To what extent did the music make you feel ,SCARED,30MonoWAV/30MonoT1.wav,2,1,4,13,,,,,0,1,1,12,0,3,3,11,,,,,,,,,1,0.5854218930035131,,,020,001,2019_May_13_1007,MusicAffectPsychophysiology2019,3.0.5,59.952714811639225,
To what extent did the music make you feel ,ANXIOUS ,30MonoWAV/30MonoT1.wav,2,1,4,13,,,,,0,1,1,12,0,4,4,1,,,,,,,,,1,0.6678369110013591,,,020,001,2019_May_13_1007,MusicAffectPsychophysiology2019,3.0.5,59.952714811639225,
To what extent did the music make you feel ,SAD,30MonoWAV/30MonoT1.wav,2,1,4,13,,,,,0,1,1,12,0,5,5,0,,,,,,,,,1,0.5179729099909309,,,020,001,2019_May_13_1007,MusicAffectPsychophysiology2019,3.0.5,59.952714811639225,
To what extent did the music make you feel ,FRUSTRATED,30MonoWAV/30MonoT1.wav,2,1,4,13,,,,,0,1,1,12,0,6,6,3,,,,,,,,,1,0.6020685069961473,,,020,001,2019_May_13_1007,MusicAffectPsychophysiology2019,3.0.5,59.952714811639225,
To what extent did the music make you feel ,ACTIVE,30MonoWAV/30MonoT1.wav,2,1,4,13,,,,,0,1,1,12,0,7,7,9,,,,,,,,,1,1.6012461719947169,,,020,001,2019_May_13_1007,MusicAffectPsychophysiology2019,3.0.5,59.952714811639225,
To what extent did the music make you feel ,TENDER,30MonoWAV/30MonoT1.wav,2,1,4,13,,,,,0,1,1,12,0,8,8,10,,,,,,,,,3,1.818795732993749,,,020,001,2019_May_13_1007,MusicAffectPsychophysiology2019,3.0.5,59.952714811639225,
To what extent did the music make you feel ,ASHAMED,30MonoWAV/30MonoT1.wav,2,1,4,13,,,,,0,1,1,12,0,9,9,4,,,,,,,,,1,2.085778243999812,,,020,001,2019_May_13_1007,MusicAffectPsychophysiology2019,3.0.5,59.952714811639225,
To what extent did the music make you feel ,HAPPY,30MonoWAV/30MonoT1.wav,2,1,4,13,,,,,0,1,1,12,0,10,10,6,,,,,,,,,3,1.6493174310016911,,,020,001,2019_May_13_1007,MusicAffectPsychophysiology2019,3.0.5,59.952714811639225,
To what extent did the music make you feel ,ALERT,30MonoWAV/30MonoT1.wav,2,1,4,13,,,,,0,1,1,12,0,11,11,8,,,,,,,,,1,1.2670500050007831,,,020,001,2019_May_13_1007,MusicAffectPsychophysiology2019,3.0.5,59.952714811639225,
,,30MonoWAV/30MonoT1.wav,2,1,4,13,,,,,0,1,1,12,,,,,,,,,,,,,,,,,020,001,2019_May_13_1007,MusicAffectPsychophysiology2019,3.0.5,59.952714811639225,
To what extent did the music make you feel ,ANXIOUS ,30MonoWAV/30MonoS4.wav,1,1,3,12,,,,,0,2,2,11,0,0,0,1,,,1,2.5716098909906577,3,1.8371326289925491,3,1.3205460970057175,1,1.741280978996656,,,020,001,2019_May_13_1007,MusicAffectPsychophysiology2019,3.0.5,59.952714811639225,
To what extent did the music make you feel ,HAPPY,30MonoWAV/30MonoS4.wav,1,1,3,12,,,,,0,2,2,11,0,1,1,6,,,,,,,,,2,1.5841040239902213,,,020,001,2019_May_13_1007,MusicAffectPsychophysiology2019,3.0.5,59.952714811639225,
To what extent did the music make you feel ,ACTIVE,30MonoWAV/30MonoS4.wav,1,1,3,12,,,,,0,2,2,11,0,2,2,9,,,,,,,,,1,1.003715999002452,,,020,001,2019_May_13_1007,MusicAffectPsychophysiology2019,3.0.5,59.952714811639225,
To what extent did the music make you feel ,TENDER,30MonoWAV/30MonoS4.wav,1,1,3,12,,,,,0,2,2,11,0,3,3,10,,,,,,,,,4,2.019174891989678,,,020,001,2019_May_13_1007,MusicAffectPsychophysiology2019,3.0.5,59.952714811639225,
To what extent did the music make you feel ,ASHAMED,30MonoWAV/30MonoS4.wav,1,1,3,12,,,,,0,2,2,11,0,4,4,4,,,,,,,,,1,1.1678510479978286,,,020,001,2019_May_13_1007,MusicAffectPsychophysiology2019,3.0.5,59.952714811639225,
To what extent did the music make you feel ,ALERT,30MonoWAV/30MonoS4.wav,1,1,3,12,,,,,0,2,2,11,0,5,5,8,,,,,,,,,1,1.4345040370099014,,,020,001,2019_May_13_1007,MusicAffectPsychophysiology2019,3.0.5,59.952714811639225,
To what extent did the music make you feel ,ANGRY,30MonoWAV/30MonoS4.wav,1,1,3,12,,,,,0,2,2,11,0,6,6,2,,,,,,,,,1,0.8518124440015526,,,020,001,2019_May_13_1007,MusicAffectPsychophysiology2019,3.0.5,59.952714811639225,
To what extent did the music make you feel ,SCARED,30MonoWAV/30MonoS4.wav,1,1,3,12,,,,,0,2,2,11,0,7,7,11,,,,,,,,,1,0.5852960050106049,,,020,001,2019_May_13_1007,MusicAffectPsychophysiology2019,3.0.5,59.952714811639225,
To what extent did the music make you feel ,GUILTY,30MonoWAV/30MonoS4.wav,1,1,3,12,,,,,0,2,2,11,0,8,8,5,,,,,,,,,1,0.7011638989933999,,,020,001,2019_May_13_1007,MusicAffectPsychophysiology2019,3.0.5,59.952714811639225,
To what extent did the music make you feel ,EXCITED,30MonoWAV/30MonoS4.wav,1,1,3,12,,,,,0,2,2,11,0,9,9,7,,,,,,,,,1,1.1012945029942784,,,020,001,2019_May_13_1007,MusicAffectPsychophysiology2019,3.0.5,59.952714811639225,
To what extent did the music make you feel ,SAD,30MonoWAV/30MonoS4.wav,1,1,3,12,,,,,0,2,2,11,0,10,10,0,,,,,,,,,1,0.7345470849977573,,,020,001,2019_May_13_1007,MusicAffectPsychophysiology2019,3.0.5,59.952714811639225,
To what extent did the music make you feel ,FRUSTRATED,30MonoWAV/30MonoS4.wav,1,1,3,12,,,,,0,2,2,11,0,11,11,3,,,,,,,,,1,1.0518253549962537,,,020,001,2019_May_13_1007,MusicAffectPsychophysiology2019,3.0.5,59.952714811639225,
,,30MonoWAV/30MonoS4.wav,1,1,3,12,,,,,0,2,2,11,,,,,,,,,,,,,,,,,020,001,2019_May_13_1007,MusicAffectPsychophysiology2019,3.0.5,59.952714811639225,
To what extent did the music make you feel ,GUILTY,30MonoWAV/30MonoF2.wav,1,2,2,2,,,,,0,3,3,1,0,0,0,5,,,2,3.8392839250009274,1,1.7870649409887847,1,1.1030433349951636,2,3.0204511639894918,,,020,001,2019_May_13_1007,MusicAffectPsychophysiology2019,3.0.5,59.952714811639225,
To what extent did the music make you feel ,SCARED,30MonoWAV/30MonoF2.wav,1,2,2,2,,,,,0,3,3,1,0,1,1,11,,,,,,,,,2,1.2566035430063494,,,020,001,2019_May_13_1007,MusicAffectPsychophysiology2019,3.0.5,59.952714811639225,
To what extent did the music make you feel ,ALERT,30MonoWAV/30MonoF2.wav,1,2,2,2,,,,,0,3,3,1,0,2,2,8,,,,,,,,,3,2.8163228850025916,,,020,001,2019_May_13_1007,MusicAffectPsychophysiology2019,3.0.5,59.952714811639225,
To what extent did the music make you feel ,FRUSTRATED,30MonoWAV/30MonoF2.wav,1,2,2,2,,,,,0,3,3,1,0,3,3,3,,,,,,,,,3,1.5010540220100665,,,020,001,2019_May_13_1007,MusicAffectPsychophysiology2019,3.0.5,59.952714811639225,
To what extent did the music make you feel ,EXCITED,30MonoWAV/30MonoF2.wav,1,2,2,2,,,,,0,3,3,1,0,4,4,7,,,,,,,,,1,1.0517112629895564,,,020,001,2019_May_13_1007,MusicAffectPsychophysiology2019,3.0.5,59.952714811639225,
To what extent did the music make you feel ,ANXIOUS ,30MonoWAV/30MonoF2.wav,1,2,2,2,,,,,0,3,3,1,0,5,5,1,,,,,,,,,4,2.0082324569957564,,,020,001,2019_May_13_1007,MusicAffectPsychophysiology2019,3.0.5,59.952714811639225,
To what extent did the music make you feel ,SAD,30MonoWAV/30MonoF2.wav,1,2,2,2,,,,,0,3,3,1,0,6,6,0,,,,,,,,,1,2.454457760992227,,,020,001,2019_May_13_1007,MusicAffectPsychophysiology2019,3.0.5,59.952714811639225,
To what extent did the music make you feel ,ANGRY,30MonoWAV/30MonoF2.wav,1,2,2,2,,,,,0,3,3,1,0,7,7,2,,,,,,,,,1,1.0361354440101422,,,020,001,2019_May_13_1007,MusicAffectPsychophysiology2019,3.0.5,59.952714811639225,
To what extent did the music make you feel ,ACTIVE,30MonoWAV/30MonoF2.wav,1,2,2,2,,,,,0,3,3,1,0,8,8,9,,,,,,,,,1,1.2525542910007061,,,020,001,2019_May_13_1007,MusicAffectPsychophysiology2019,3.0.5,59.952714811639225,
To what extent did the music make you feel ,HAPPY,30MonoWAV/30MonoF2.wav,1,2,2,2,,,,,0,3,3,1,0,9,9,6,,,,,,,,,1,0.7063027410040377,,,020,001,2019_May_13_1007,MusicAffectPsychophysiology2019,3.0.5,59.952714811639225,
To what extent did the music make you feel ,ASHAMED,30MonoWAV/30MonoF2.wav,1,2,2,2,,,,,0,3,3,1,0,10,10,4,,,,,,,,,2,1.9349232040112838,,,020,001,2019_May_13_1007,MusicAffectPsychophysiology2019,3.0.5,59.952714811639225,
To what extent did the music make you feel ,TENDER,30MonoWAV/30MonoF2.wav,1,2,2,2,,,,,0,3,3,1,0,11,11,10,,,,,,,,,1,2.950241284997901,,,020,001,2019_May_13_1007,MusicAffectPsychophysiology2019,3.0.5,59.952714811639225,
,,30MonoWAV/30MonoF2.wav,1,2,2,2,,,,,0,3,3,1,,,,,,,,,,,,,,,,,020,001,2019_May_13_1007,MusicAffectPsychophysiology2019,3.0.5,59.952714811639225,
To what extent did the music make you feel ,ANGRY,30MonoWAV/30MonoS2.wav,1,1,3,10,,,,,0,4,4,9,0,0,0,2,,,1,3.639084708003793,2,2.107032943997183,3,1.7512596109881997,1,2.485841456989874,,,020,001,2019_May_13_1007,MusicAffectPsychophysiology2019,3.0.5,59.952714811639225,
To what extent did the music make you feel ,ASHAMED,30MonoWAV/30MonoS2.wav,1,1,3,10,,,,,0,4,4,9,0,1,1,4,,,,,,,,,3,2.6350786839902867,,,020,001,2019_May_13_1007,MusicAffectPsychophysiology2019,3.0.5,59.952714811639225,
To what extent did the music make you feel ,TENDER,30MonoWAV/30MonoS2.wav,1,1,3,10,,,,,0,4,4,9,0,2,2,10,,,,,,,,,3,1.1854078519972973,,,020,001,2019_May_13_1007,MusicAffectPsychophysiology2019,3.0.5,59.952714811639225,
To what extent did the music make you feel ,GUILTY,30MonoWAV/30MonoS2.wav,1,1,3,10,,,,,0,4,4,9,0,3,3,5,,,,,,,,,3,1.2513406740035862,,,020,001,2019_May_13_1007,MusicAffectPsychophysiology2019,3.0.5,59.952714811639225,
To what extent did the music make you feel ,EXCITED,30MonoWAV/30MonoS2.wav,1,1,3,10,,,,,0,4,4,9,0,4,4,7,,,,,,,,,1,0.9518234300048789,,,020,001,2019_May_13_1007,MusicAffectPsychophysiology2019,3.0.5,59.952714811639225,
To what extent did the music make you feel ,ACTIVE,30MonoWAV/30MonoS2.wav,1,1,3,10,,,,,0,4,4,9,0,5,5,9,,,,,,,,,1,0.7511250320094405,,,020,001,2019_May_13_1007,MusicAffectPsychophysiology2019,3.0.5,59.952714811639225,
To what extent did the music make you feel ,SAD,30MonoWAV/30MonoS2.wav,1,1,3,10,,,,,0,4,4,9,0,6,6,0,,,,,,,,,3,1.3686649349983782,,,020,001,2019_May_13_1007,MusicAffectPsychophysiology2019,3.0.5,59.952714811639225,
To what extent did the music make you feel ,SCARED,30MonoWAV/30MonoS2.wav,1,1,3,10,,,,,0,4,4,9,0,7,7,11,,,,,,,,,1,0.9845818640023936,,,020,001,2019_May_13_1007,MusicAffectPsychophysiology2019,3.0.5,59.952714811639225,
To what extent did the music make you feel ,FRUSTRATED,30MonoWAV/30MonoS2.wav,1,1,3,10,,,,,0,4,4,9,0,8,8,3,,,,,,,,,1,1.4335001779982122,,,020,001,2019_May_13_1007,MusicAffectPsychophysiology2019,3.0.5,59.952714811639225,
To what extent did the music make you feel ,ANXIOUS ,30MonoWAV/30MonoS2.wav,1,1,3,10,,,,,0,4,4,9,0,9,9,1,,,,,,,,,1,0.9532441570045194,,,020,001,2019_May_13_1007,MusicAffectPsychophysiology2019,3.0.5,59.952714811639225,
To what extent did the music make you feel ,HAPPY,30MonoWAV/30MonoS2.wav,1,1,3,10,,,,,0,4,4,9,0,10,10,6,,,,,,,,,1,0.8512362119945465,,,020,001,2019_May_13_1007,MusicAffectPsychophysiology2019,3.0.5,59.952714811639225,
To what extent did the music make you feel ,ALERT,30MonoWAV/30MonoS2.wav,1,1,3,10,,,,,0,4,4,9,0,11,11,8,,,,,,,,,1,0.8852329159999499,,,020,001,2019_May_13_1007,MusicAffectPsychophysiology2019,3.0.5,59.952714811639225,
,,30MonoWAV/30MonoS2.wav,1,1,3,10,,,,,0,4,4,9,,,,,,,,,,,,,,,,,020,001,2019_May_13_1007,MusicAffectPsychophysiology2019,3.0.5,59.952714811639225,
To what extent did the music make you feel ,ACTIVE,30MonoWAV/30MonoF4.wav,1,2,2,4,,,,,0,5,5,3,0,0,0,9,,,4,4.634196457001963,1,1.9171435690077487,1,1.6341686350060627,3,2.3496814469981473,,,020,001,2019_May_13_1007,MusicAffectPsychophysiology2019,3.0.5,59.952714811639225,
To what extent did the music make you feel ,FRUSTRATED,30MonoWAV/30MonoF4.wav,1,2,2,4,,,,,0,5,5,3,0,1,1,3,,,,,,,,,4,2.7347367580077844,,,020,001,2019_May_13_1007,MusicAffectPsychophysiology2019,3.0.5,59.952714811639225,
To what extent did the music make you feel ,HAPPY,30MonoWAV/30MonoF4.wav,1,2,2,4,,,,,0,5,5,3,0,2,2,6,,,,,,,,,1,1.0525482849916443,,,020,001,2019_May_13_1007,MusicAffectPsychophysiology2019,3.0.5,59.952714811639225,
To what extent did the music make you feel ,SAD,30MonoWAV/30MonoF4.wav,1,2,2,4,,,,,0,5,5,3,0,3,3,0,,,,,,,,,1,2.3344094039930496,,,020,001,2019_May_13_1007,MusicAffectPsychophysiology2019,3.0.5,59.952714811639225,
To what extent did the music make you feel ,GUILTY,30MonoWAV/30MonoF4.wav,1,2,2,4,,,,,0,5,5,3,0,4,4,5,,,,,,,,,2,1.8507937849935843,,,020,001,2019_May_13_1007,MusicAffectPsychophysiology2019,3.0.5,59.952714811639225,
To what extent did the music make you feel ,EXCITED,30MonoWAV/30MonoF4.wav,1,2,2,4,,,,,0,5,5,3,0,5,5,7,,,,,,,,,1,1.218232525003259,,,020,001,2019_May_13_1007,MusicAffectPsychophysiology2019,3.0.5,59.952714811639225,
To what extent did the music make you feel ,TENDER,30MonoWAV/30MonoF4.wav,1,2,2,4,,,,,0,5,5,3,0,6,6,10,,,,,,,,,1,1.0162957230058964,,,020,001,2019_May_13_1007,MusicAffectPsychophysiology2019,3.0.5,59.952714811639225,
To what extent did the music make you feel ,ASHAMED,30MonoWAV/30MonoF4.wav,1,2,2,4,,,,,0,5,5,3,0,7,7,4,,,,,,,,,3,2.219095594002283,,,020,001,2019_May_13_1007,MusicAffectPsychophysiology2019,3.0.5,59.952714811639225,
To what extent did the music make you feel ,ANXIOUS ,30MonoWAV/30MonoF4.wav,1,2,2,4,,,,,0,5,5,3,0,8,8,1,,,,,,,,,4,1.9516712580079911,,,020,001,2019_May_13_1007,MusicAffectPsychophysiology2019,3.0.5,59.952714811639225,
To what extent did the music make you feel ,SCARED,30MonoWAV/30MonoF4.wav,1,2,2,4,,,,,0,5,5,3,0,9,9,11,,,,,,,,,3,2.418611357003101,,,020,001,2019_May_13_1007,MusicAffectPsychophysiology2019,3.0.5,59.952714811639225,
To what extent did the music make you feel ,ALERT,30MonoWAV/30MonoF4.wav,1,2,2,4,,,,,0,5,5,3,0,10,10,8,,,,,,,,,4,3.0195380719960667,,,020,001,2019_May_13_1007,MusicAffectPsychophysiology2019,3.0.5,59.952714811639225,
To what extent did the music make you feel ,ANGRY,30MonoWAV/30MonoF4.wav,1,2,2,4,,,,,0,5,5,3,0,11,11,2,,,,,,,,,3,1.4844874330010498,,,020,001,2019_May_13_1007,MusicAffectPsychophysiology2019,3.0.5,59.952714811639225,
,,30MonoWAV/30MonoF4.wav,1,2,2,4,,,,,0,5,5,3,,,,,,,,,,,,,,,,,020,001,2019_May_13_1007,MusicAffectPsychophysiology2019,3.0.5,59.952714811639225,
To what extent did the music make you feel ,HAPPY,30MonoWAV/30MonoT2.wav,2,1,4,14,,,,,0,6,6,13,0,0,0,6,,,3,3.768191337992903,4,2.268198891004431,3,1.7014353980048327,3,3.9347841190028703,,,020,001,2019_May_13_1007,MusicAffectPsychophysiology2019,3.0.5,59.952714811639225,
To what extent did the music make you feel ,TENDER,30MonoWAV/30MonoT2.wav,2,1,4,14,,,,,0,6,6,13,0,1,1,10,,,,,,,,,4,1.2521487519989023,,,020,001,2019_May_13_1007,MusicAffectPsychophysiology2019,3.0.5,59.952714811639225,
To what extent did the music make you feel ,GUILTY,30MonoWAV/30MonoT2.wav,2,1,4,14,,,,,0,6,6,13,0,2,2,5,,,,,,,,,1,1.717526562002604,,,020,001,2019_May_13_1007,MusicAffectPsychophysiology2019,3.0.5,59.952714811639225,
To what extent did the music make you feel ,EXCITED,30MonoWAV/30MonoT2.wav,2,1,4,14,,,,,0,6,6,13,0,3,3,7,,,,,,,,,2,2.3508137720054947,,,020,001,2019_May_13_1007,MusicAffectPsychophysiology2019,3.0.5,59.952714811639225,
To what extent did the music make you feel ,ALERT,30MonoWAV/30MonoT2.wav,2,1,4,14,,,,,0,6,6,13,0,4,4,8,,,,,,,,,2,1.8852211050107144,,,020,001,2019_May_13_1007,MusicAffectPsychophysiology2019,3.0.5,59.952714811639225,
To what extent did the music make you feel ,FRUSTRATED,30MonoWAV/30MonoT2.wav,2,1,4,14,,,,,0,6,6,13,0,5,5,3,,,,,,,,,1,0.9850119589973474,,,020,001,2019_May_13_1007,MusicAffectPsychophysiology2019,3.0.5,59.952714811639225,
To what extent did the music make you feel ,ACTIVE,30MonoWAV/30MonoT2.wav,2,1,4,14,,,,,0,6,6,13,0,6,6,9,,,,,,,,,1,1.051653268004884,,,020,001,2019_May_13_1007,MusicAffectPsychophysiology2019,3.0.5,59.952714811639225,
To what extent did the music make you feel ,ANGRY,30MonoWAV/30MonoT2.wav,2,1,4,14,,,,,0,6,6,13,0,7,7,2,,,,,,,,,1,1.3850398309878074,,,020,001,2019_May_13_1007,MusicAffectPsychophysiology2019,3.0.5,59.952714811639225,
To what extent did the music make you feel ,SAD,30MonoWAV/30MonoT2.wav,2,1,4,14,,,,,0,6,6,13,0,8,8,0,,,,,,,,,1,1.2690463360049762,,,020,001,2019_May_13_1007,MusicAffectPsychophysiology2019,3.0.5,59.952714811639225,
To what extent did the music make you feel ,ASHAMED,30MonoWAV/30MonoT2.wav,2,1,4,14,,,,,0,6,6,13,0,9,9,4,,,,,,,,,1,0.9519359120022273,,,020,001,2019_May_13_1007,MusicAffectPsychophysiology2019,3.0.5,59.952714811639225,
To what extent did the music make you feel ,ANXIOUS ,30MonoWAV/30MonoT2.wav,2,1,4,14,,,,,0,6,6,13,0,10,10,1,,,,,,,,,1,0.884005921005155,,,020,001,2019_May_13_1007,MusicAffectPsychophysiology2019,3.0.5,59.952714811639225,
To what extent did the music make you feel ,SCARED,30MonoWAV/30MonoT2.wav,2,1,4,14,,,,,0,6,6,13,0,11,11,11,,,,,,,,,1,0.8035641259921249,,,020,001,2019_May_13_1007,MusicAffectPsychophysiology2019,3.0.5,59.952714811639225,
,,30MonoWAV/30MonoT2.wav,2,1,4,14,,,,,0,6,6,13,,,,,,,,,,,,,,,,,020,001,2019_May_13_1007,MusicAffectPsychophysiology2019,3.0.5,59.952714811639225,
To what extent did the music make you feel ,ANXIOUS ,30MonoWAV/30MonoT3.wav,2,1,4,15,,,,,0,7,7,14,0,0,0,1,,,1,2.4685555239993846,4,2.7687548069952754,3,1.9176912959956098,1,1.7675548270053696,,,020,001,2019_May_13_1007,MusicAffectPsychophysiology2019,3.0.5,59.952714811639225,
To what extent did the music make you feel ,ACTIVE,30MonoWAV/30MonoT3.wav,2,1,4,15,,,,,0,7,7,14,0,1,1,9,,,,,,,,,1,1.0514872500061756,,,020,001,2019_May_13_1007,MusicAffectPsychophysiology2019,3.0.5,59.952714811639225,
To what extent did the music make you feel ,GUILTY,30MonoWAV/30MonoT3.wav,2,1,4,15,,,,,0,7,7,14,0,2,2,5,,,,,,,,,2,1.9192180770041887,,,020,001,2019_May_13_1007,MusicAffectPsychophysiology2019,3.0.5,59.952714811639225,
To what extent did the music make you feel ,ASHAMED,30MonoWAV/30MonoT3.wav,2,1,4,15,,,,,0,7,7,14,0,3,3,4,,,,,,,,,2,1.4016902779985685,,,020,001,2019_May_13_1007,MusicAffectPsychophysiology2019,3.0.5,59.952714811639225,
To what extent did the music make you feel ,ANGRY,30MonoWAV/30MonoT3.wav,2,1,4,15,,,,,0,7,7,14,0,4,4,2,,,,,,,,,1,0.9021421299985377,,,020,001,2019_May_13_1007,MusicAffectPsychophysiology2019,3.0.5,59.952714811639225,
To what extent did the music make you feel ,TENDER,30MonoWAV/30MonoT3.wav,2,1,4,15,,,,,0,7,7,14,0,5,5,10,,,,,,,,,4,1.749778746991069,,,020,001,2019_May_13_1007,MusicAffectPsychophysiology2019,3.0.5,59.952714811639225,
To what extent did the music make you feel ,EXCITED,30MonoWAV/30MonoT3.wav,2,1,4,15,,,,,0,7,7,14,0,6,6,7,,,,,,,,,1,1.1019430919986917,,,020,001,2019_May_13_1007,MusicAffectPsychophysiology2019,3.0.5,59.952714811639225,
To what extent did the music make you feel ,SAD,30MonoWAV/30MonoT3.wav,2,1,4,15,,,,,0,7,7,14,0,7,7,0,,,,,,,,,1,1.3020370849990286,,,020,001,2019_May_13_1007,MusicAffectPsychophysiology2019,3.0.5,59.952714811639225,
To what extent did the music make you feel ,ALERT,30MonoWAV/30MonoT3.wav,2,1,4,15,,,,,0,7,7,14,0,8,8,8,,,,,,,,,1,1.1353220860037254,,,020,001,2019_May_13_1007,MusicAffectPsychophysiology2019,3.0.5,59.952714811639225,
To what extent did the music make you feel ,FRUSTRATED,30MonoWAV/30MonoT3.wav,2,1,4,15,,,,,0,7,7,14,0,9,9,3,,,,,,,,,1,0.768905288001406,,,020,001,2019_May_13_1007,MusicAffectPsychophysiology2019,3.0.5,59.952714811639225,
To what extent did the music make you feel ,HAPPY,30MonoWAV/30MonoT3.wav,2,1,4,15,,,,,0,7,7,14,0,10,10,6,,,,,,,,,2,1.486327987004188,,,020,001,2019_May_13_1007,MusicAffectPsychophysiology2019,3.0.5,59.952714811639225,
To what extent did the music make you feel ,SCARED,30MonoWAV/30MonoT3.wav,2,1,4,15,,,,,0,7,7,14,0,11,11,11,,,,,,,,,1,0.6175765259977197,,,020,001,2019_May_13_1007,MusicAffectPsychophysiology2019,3.0.5,59.952714811639225,
,,30MonoWAV/30MonoT3.wav,2,1,4,15,,,,,0,7,7,14,,,,,,,,,,,,,,,,,020,001,2019_May_13_1007,MusicAffectPsychophysiology2019,3.0.5,59.952714811639225,
To what extent did the music make you feel ,SAD,30MonoWAV/30MonoH1.wav,2,2,1,5,,,,,0,8,8,4,0,0,0,0,,,3,4.051366090003285,3,3.6350847330031684,2,2.4689352050045272,1,1.8183352069900138,,,020,001,2019_May_13_1007,MusicAffectPsychophysiology2019,3.0.5,59.952714811639225,
To what extent did the music make you feel ,ANXIOUS ,30MonoWAV/30MonoH1.wav,2,2,1,5,,,,,0,8,8,4,0,1,1,1,,,,,,,,,1,0.9514516640047077,,,020,001,2019_May_13_1007,MusicAffectPsychophysiology2019,3.0.5,59.952714811639225,
To what extent did the music make you feel ,ANGRY,30MonoWAV/30MonoH1.wav,2,2,1,5,,,,,0,8,8,4,0,2,2,2,,,,,,,,,1,0.8179320760100381,,,020,001,2019_May_13_1007,MusicAffectPsychophysiology2019,3.0.5,59.952714811639225,
To what extent did the music make you feel ,FRUSTRATED,30MonoWAV/30MonoH1.wav,2,2,1,5,,,,,0,8,8,4,0,3,3,3,,,,,,,,,1,1.1514687210001284,,,020,001,2019_May_13_1007,MusicAffectPsychophysiology2019,3.0.5,59.952714811639225,
To what extent did the music make you feel ,SCARED,30MonoWAV/30MonoH1.wav,2,2,1,5,,,,,0,8,8,4,0,4,4,11,,,,,,,,,1,0.6518863919918658,,,020,001,2019_May_13_1007,MusicAffectPsychophysiology2019,3.0.5,59.952714811639225,
To what extent did the music make you feel ,EXCITED,30MonoWAV/30MonoH1.wav,2,2,1,5,,,,,0,8,8,4,0,5,5,7,,,,,,,,,3,2.8354651169938734,,,020,001,2019_May_13_1007,MusicAffectPsychophysiology2019,3.0.5,59.952714811639225,
To what extent did the music make you feel ,GUILTY,30MonoWAV/30MonoH1.wav,2,2,1,5,,,,,0,8,8,4,0,6,6,5,,,,,,,,,1,1.5014744520012755,,,020,001,2019_May_13_1007,MusicAffectPsychophysiology2019,3.0.5,59.952714811639225,
To what extent did the music make you feel ,ALERT,30MonoWAV/30MonoH1.wav,2,2,1,5,,,,,0,8,8,4,0,7,7,8,,,,,,,,,3,2.800336508997134,,,020,001,2019_May_13_1007,MusicAffectPsychophysiology2019,3.0.5,59.952714811639225,
To what extent did the music make you feel ,TENDER,30MonoWAV/30MonoH1.wav,2,2,1,5,,,,,0,8,8,4,0,8,8,10,,,,,,,,,2,1.9198378400033107,,,020,001,2019_May_13_1007,MusicAffectPsychophysiology2019,3.0.5,59.952714811639225,
To what extent did the music make you feel ,HAPPY,30MonoWAV/30MonoH1.wav,2,2,1,5,,,,,0,8,8,4,0,9,9,6,,,,,,,,,3,2.0185088159923907,,,020,001,2019_May_13_1007,MusicAffectPsychophysiology2019,3.0.5,59.952714811639225,
To what extent did the music make you feel ,ACTIVE,30MonoWAV/30MonoH1.wav,2,2,1,5,,,,,0,8,8,4,0,10,10,9,,,,,,,,,4,1.7846190840064082,,,020,001,2019_May_13_1007,MusicAffectPsychophysiology2019,3.0.5,59.952714811639225,
To what extent did the music make you feel ,ASHAMED,30MonoWAV/30MonoH1.wav,2,2,1,5,,,,,0,8,8,4,0,11,11,4,,,,,,,,,1,1.152763928999775,,,020,001,2019_May_13_1007,MusicAffectPsychophysiology2019,3.0.5,59.952714811639225,
,,30MonoWAV/30MonoH1.wav,2,2,1,5,,,,,0,8,8,4,,,,,,,,,,,,,,,,,020,001,2019_May_13_1007,MusicAffectPsychophysiology2019,3.0.5,59.952714811639225,
To what extent did the music make you feel ,ALERT,30MonoWAV/30MonoH4.wav,2,2,1,8,,,,,0,9,9,7,0,0,0,8,,,4,3.0218863879999844,4,1.6356449120066827,2,1.8514913079998223,4,3.9842131580080604,,,020,001,2019_May_13_1007,MusicAffectPsychophysiology2019,3.0.5,59.952714811639225,
To what extent did the music make you feel ,SAD,30MonoWAV/30MonoH4.wav,2,2,1,8,,,,,0,9,9,7,0,1,1,0,,,,,,,,,1,1.0849188989959657,,,020,001,2019_May_13_1007,MusicAffectPsychophysiology2019,3.0.5,59.952714811639225,
To what extent did the music make you feel ,TENDER,30MonoWAV/30MonoH4.wav,2,2,1,8,,,,,0,9,9,7,0,2,2,10,,,,,,,,,1,0.8513665380014572,,,020,001,2019_May_13_1007,MusicAffectPsychophysiology2019,3.0.5,59.952714811639225,
To what extent did the music make you feel ,FRUSTRATED,30MonoWAV/30MonoH4.wav,2,2,1,8,,,,,0,9,9,7,0,3,3,3,,,,,,,,,1,0.7019715930073289,,,020,001,2019_May_13_1007,MusicAffectPsychophysiology2019,3.0.5,59.952714811639225,
To what extent did the music make you feel ,ACTIVE,30MonoWAV/30MonoH4.wav,2,2,1,8,,,,,0,9,9,7,0,4,4,9,,,,,,,,,3,1.7859610909945332,,,020,001,2019_May_13_1007,MusicAffectPsychophysiology2019,3.0.5,59.952714811639225,
To what extent did the music make you feel ,GUILTY,30MonoWAV/30MonoH4.wav,2,2,1,8,,,,,0,9,9,7,0,5,5,5,,,,,,,,,1,0.8680127469997387,,,020,001,2019_May_13_1007,MusicAffectPsychophysiology2019,3.0.5,59.952714811639225,
To what extent did the music make you feel ,ANGRY,30MonoWAV/30MonoH4.wav,2,2,1,8,,,,,0,9,9,7,0,6,6,2,,,,,,,,,1,0.6672629109962145,,,020,001,2019_May_13_1007,MusicAffectPsychophysiology2019,3.0.5,59.952714811639225,
To what extent did the music make you feel ,SCARED,30MonoWAV/30MonoH4.wav,2,2,1,8,,,,,0,9,9,7,0,7,7,11,,,,,,,,,1,0.8031826229998842,,,020,001,2019_May_13_1007,MusicAffectPsychophysiology2019,3.0.5,59.952714811639225,
To what extent did the music make you feel ,EXCITED,30MonoWAV/30MonoH4.wav,2,2,1,8,,,,,0,9,9,7,0,8,8,7,,,,,,,,,4,2.3347836089960765,,,020,001,2019_May_13_1007,MusicAffectPsychophysiology2019,3.0.5,59.952714811639225,
To what extent did the music make you feel ,ASHAMED,30MonoWAV/30MonoH4.wav,2,2,1,8,,,,,0,9,9,7,0,9,9,4,,,,,,,,,1,0.835442792988033,,,020,001,2019_May_13_1007,MusicAffectPsychophysiology2019,3.0.5,59.952714811639225,
To what extent did the music make you feel ,HAPPY,30MonoWAV/30MonoH4.wav,2,2,1,8,,,,,0,9,9,7,0,10,10,6,,,,,,,,,3,1.8182230080128647,,,020,001,2019_May_13_1007,MusicAffectPsychophysiology2019,3.0.5,59.952714811639225,
To what extent did the music make you feel ,ANXIOUS ,30MonoWAV/30MonoH4.wav,2,2,1,8,,,,,0,9,9,7,0,11,11,1,,,,,,,,,1,1.3519708679959876,,,020,001,2019_May_13_1007,MusicAffectPsychophysiology2019,3.0.5,59.952714811639225,
,,30MonoWAV/30MonoH4.wav,2,2,1,8,,,,,0,9,9,7,,,,,,,,,,,,,,,,,020,001,2019_May_13_1007,MusicAffectPsychophysiology2019,3.0.5,59.952714811639225,
To what extent did the music make you feel ,TENDER,30MonoWAV/30MonoT4.wav,2,1,4,16,,,,,0,10,10,15,0,0,0,10,,,3,3.3015466409997316,4,2.0524912139953813,2,1.76879984299012,3,2.635815925008501,,,020,001,2019_May_13_1007,MusicAffectPsychophysiology2019,3.0.5,59.952714811639225,
To what extent did the music make you feel ,EXCITED,30MonoWAV/30MonoT4.wav,2,1,4,16,,,,,0,10,10,15,0,1,1,7,,,,,,,,,2,10.848693687003106,,,020,001,2019_May_13_1007,MusicAffectPsychophysiology2019,3.0.5,59.952714811639225,
To what extent did the music make you feel ,ALERT,30MonoWAV/30MonoT4.wav,2,1,4,16,,,,,0,10,10,15,0,2,2,8,,,,,,,,,1,1.2517859109939309,,,020,001,2019_May_13_1007,MusicAffectPsychophysiology2019,3.0.5,59.952714811639225,
To what extent did the music make you feel ,ANXIOUS ,30MonoWAV/30MonoT4.wav,2,1,4,16,,,,,0,10,10,15,0,3,3,1,,,,,,,,,1,1.1353687119990354,,,020,001,2019_May_13_1007,MusicAffectPsychophysiology2019,3.0.5,59.952714811639225,
To what extent did the music make you feel ,ASHAMED,30MonoWAV/30MonoT4.wav,2,1,4,16,,,,,0,10,10,15,0,4,4,4,,,,,,,,,2,1.6185004980070516,,,020,001,2019_May_13_1007,MusicAffectPsychophysiology2019,3.0.5,59.952714811639225,
To what extent did the music make you feel ,ACTIVE,30MonoWAV/30MonoT4.wav,2,1,4,16,,,,,0,10,10,15,0,5,5,9,,,,,,,,,1,1.069083372989553,,,020,001,2019_May_13_1007,MusicAffectPsychophysiology2019,3.0.5,59.952714811639225,
To what extent did the music make you feel ,SCARED,30MonoWAV/30MonoT4.wav,2,1,4,16,,,,,0,10,10,15,0,6,6,11,,,,,,,,,1,1.2343606539943721,,,020,001,2019_May_13_1007,MusicAffectPsychophysiology2019,3.0.5,59.952714811639225,
To what extent did the music make you feel ,HAPPY,30MonoWAV/30MonoT4.wav,2,1,4,16,,,,,0,10,10,15,0,7,7,6,,,,,,,,,2,1.8848253909964114,,,020,001,2019_May_13_1007,MusicAffectPsychophysiology2019,3.0.5,59.952714811639225,
To what extent did the music make you feel ,SAD,30MonoWAV/30MonoT4.wav,2,1,4,16,,,,,0,10,10,15,0,8,8,0,,,,,,,,,1,1.0184080920007546,,,020,001,2019_May_13_1007,MusicAffectPsychophysiology2019,3.0.5,59.952714811639225,
To what extent did the music make you feel ,FRUSTRATED,30MonoWAV/30MonoT4.wav,2,1,4,16,,,,,0,10,10,15,0,9,9,3,,,,,,,,,1,1.1022366430115653,,,020,001,2019_May_13_1007,MusicAffectPsychophysiology2019,3.0.5,59.952714811639225,
To what extent did the music make you feel ,ANGRY,30MonoWAV/30MonoT4.wav,2,1,4,16,,,,,0,10,10,15,0,10,10,2,,,,,,,,,1,0.8186195449961815,,,020,001,2019_May_13_1007,MusicAffectPsychophysiology2019,3.0.5,59.952714811639225,
To what extent did the music make you feel ,GUILTY,30MonoWAV/30MonoT4.wav,2,1,4,16,,,,,0,10,10,15,0,11,11,5,,,,,,,,,2,1.8851570460101357,,,020,001,2019_May_13_1007,MusicAffectPsychophysiology2019,3.0.5,59.952714811639225,
,,30MonoWAV/30MonoT4.wav,2,1,4,16,,,,,0,10,10,15,,,,,,,,,,,,,,,,,020,001,2019_May_13_1007,MusicAffectPsychophysiology2019,3.0.5,59.952714811639225,
To what extent did the music make you feel ,ANXIOUS ,30MonoWAV/30MonoS3.wav,1,1,3,11,,,,,0,11,11,10,0,0,0,1,,,1,2.4186890049895737,1,1.4018961399997352,2,1.8344124750001356,1,2.3185801679937867,,,020,001,2019_May_13_1007,MusicAffectPsychophysiology2019,3.0.5,59.952714811639225,
To what extent did the music make you feel ,SAD,30MonoWAV/30MonoS3.wav,1,1,3,11,,,,,0,11,11,10,0,1,1,0,,,,,,,,,3,2.018538823002018,,,020,001,2019_May_13_1007,MusicAffectPsychophysiology2019,3.0.5,59.952714811639225,
To what extent did the music make you feel ,FRUSTRATED,30MonoWAV/30MonoS3.wav,1,1,3,11,,,,,0,11,11,10,0,2,2,3,,,,,,,,,1,1.618312014004914,,,020,001,2019_May_13_1007,MusicAffectPsychophysiology2019,3.0.5,59.952714811639225,
To what extent did the music make you feel ,EXCITED,30MonoWAV/30MonoS3.wav,1,1,3,11,,,,,0,11,11,10,0,3,3,7,,,,,,,,,1,1.0847861509973882,,,020,001,2019_May_13_1007,MusicAffectPsychophysiology2019,3.0.5,59.952714811639225,
To what extent did the music make you feel ,ASHAMED,30MonoWAV/30MonoS3.wav,1,1,3,11,,,,,0,11,11,10,0,4,4,4,,,,,,,,,3,1.601027619006345,,,020,001,2019_May_13_1007,MusicAffectPsychophysiology2019,3.0.5,59.952714811639225,
To what extent did the music make you feel ,SCARED,30MonoWAV/30MonoS3.wav,1,1,3,11,,,,,0,11,11,10,0,5,5,11,,,,,,,,,1,1.284871223004302,,,020,001,2019_May_13_1007,MusicAffectPsychophysiology2019,3.0.5,59.952714811639225,
To what extent did the music make you feel ,GUILTY,30MonoWAV/30MonoS3.wav,1,1,3,11,,,,,0,11,11,10,0,6,6,5,,,,,,,,,3,1.7357837720046518,,,020,001,2019_May_13_1007,MusicAffectPsychophysiology2019,3.0.5,59.952714811639225,
To what extent did the music make you feel ,ANGRY,30MonoWAV/30MonoS3.wav,1,1,3,11,,,,,0,11,11,10,0,7,7,2,,,,,,,,,1,1.30050205498992,,,020,001,2019_May_13_1007,MusicAffectPsychophysiology2019,3.0.5,59.952714811639225,
To what extent did the music make you feel ,ACTIVE,30MonoWAV/30MonoS3.wav,1,1,3,11,,,,,0,11,11,10,0,8,8,9,,,,,,,,,1,1.102426502009621,,,020,001,2019_May_13_1007,MusicAffectPsychophysiology2019,3.0.5,59.952714811639225,
To what extent did the music make you feel ,TENDER,30MonoWAV/30MonoS3.wav,1,1,3,11,,,,,0,11,11,10,0,9,9,10,,,,,,,,,3,2.1849769779946655,,,020,001,2019_May_13_1007,MusicAffectPsychophysiology2019,3.0.5,59.952714811639225,
To what extent did the music make you feel ,ALERT,30MonoWAV/30MonoS3.wav,1,1,3,11,,,,,0,11,11,10,0,10,10,8,,,,,,,,,1,0.9342748479975853,,,020,001,2019_May_13_1007,MusicAffectPsychophysiology2019,3.0.5,59.952714811639225,
To what extent did the music make you feel ,HAPPY,30MonoWAV/30MonoS3.wav,1,1,3,11,,,,,0,11,11,10,0,11,11,6,,,,,,,,,1,1.1168907940009376,,,020,001,2019_May_13_1007,MusicAffectPsychophysiology2019,3.0.5,59.952714811639225,
,,30MonoWAV/30MonoS3.wav,1,1,3,11,,,,,0,11,11,10,,,,,,,,,,,,,,,,,020,001,2019_May_13_1007,MusicAffectPsychophysiology2019,3.0.5,59.952714811639225,
To what extent did the music make you feel ,HAPPY,30MonoWAV/30MonoH3.wav,2,2,1,7,,,,,0,12,12,6,0,0,0,6,,,3,2.84341274300823,3,2.0349762620026013,2,1.8682025839952985,2,5.943768724013353,,,020,001,2019_May_13_1007,MusicAffectPsychophysiology2019,3.0.5,59.952714811639225,
To what extent did the music make you feel ,ALERT,30MonoWAV/30MonoH3.wav,2,2,1,7,,,,,0,12,12,6,0,1,1,8,,,,,,,,,3,1.7370146680041216,,,020,001,2019_May_13_1007,MusicAffectPsychophysiology2019,3.0.5,59.952714811639225,
To what extent did the music make you feel ,SCARED,30MonoWAV/30MonoH3.wav,2,2,1,7,,,,,0,12,12,6,0,2,2,11,,,,,,,,,1,1.274091714003589,,,020,001,2019_May_13_1007,MusicAffectPsychophysiology2019,3.0.5,59.952714811639225,
To what extent did the music make you feel ,ASHAMED,30MonoWAV/30MonoH3.wav,2,2,1,7,,,,,0,12,12,6,0,3,3,4,,,,,,,,,1,0.919487585008028,,,020,001,2019_May_13_1007,MusicAffectPsychophysiology2019,3.0.5,59.952714811639225,
To what extent did the music make you feel ,GUILTY,30MonoWAV/30MonoH3.wav,2,2,1,7,,,,,0,12,12,6,0,4,4,5,,,,,,,,,1,0.7511277699959464,,,020,001,2019_May_13_1007,MusicAffectPsychophysiology2019,3.0.5,59.952714811639225,
To what extent did the music make you feel ,FRUSTRATED,30MonoWAV/30MonoH3.wav,2,2,1,7,,,,,0,12,12,6,0,5,5,3,,,,,,,,,1,0.9657140330091352,,,020,001,2019_May_13_1007,MusicAffectPsychophysiology2019,3.0.5,59.952714811639225,
To what extent did the music make you feel ,ANXIOUS ,30MonoWAV/30MonoH3.wav,2,2,1,7,,,,,0,12,12,6,0,6,6,1,,,,,,,,,4,3.0692887229961343,,,020,001,2019_May_13_1007,MusicAffectPsychophysiology2019,3.0.5,59.952714811639225,
To what extent did the music make you feel ,SAD,30MonoWAV/30MonoH3.wav,2,2,1,7,,,,,0,12,12,6,0,7,7,0,,,,,,,,,1,1.2523580910055898,,,020,001,2019_May_13_1007,MusicAffectPsychophysiology2019,3.0.5,59.952714811639225,
To what extent did the music make you feel ,ACTIVE,30MonoWAV/30MonoH3.wav,2,2,1,7,,,,,0,12,12,6,0,8,8,9,,,,,,,,,1,1.4023103579966119,,,020,001,2019_May_13_1007,MusicAffectPsychophysiology2019,3.0.5,59.952714811639225,
To what extent did the music make you feel ,TENDER,30MonoWAV/30MonoH3.wav,2,2,1,7,,,,,0,12,12,6,0,9,9,10,,,,,,,,,2,1.9188272790051997,,,020,001,2019_May_13_1007,MusicAffectPsychophysiology2019,3.0.5,59.952714811639225,
To what extent did the music make you feel ,ANGRY,30MonoWAV/30MonoH3.wav,2,2,1,7,,,,,0,12,12,6,0,10,10,2,,,,,,,,,1,1.8361495249992004,,,020,001,2019_May_13_1007,MusicAffectPsychophysiology2019,3.0.5,59.952714811639225,
To what extent did the music make you feel ,EXCITED,30MonoWAV/30MonoH3.wav,2,2,1,7,,,,,0,12,12,6,0,11,11,7,,,,,,,,,3,2.0017238029977307,,,020,001,2019_May_13_1007,MusicAffectPsychophysiology2019,3.0.5,59.952714811639225,
,,30MonoWAV/30MonoH3.wav,2,2,1,7,,,,,0,12,12,6,,,,,,,,,,,,,,,,,020,001,2019_May_13_1007,MusicAffectPsychophysiology2019,3.0.5,59.952714811639225,
To what extent did the music make you feel ,TENDER,30MonoWAV/30MonoH2.wav,2,2,1,6,,,,,0,13,13,5,0,0,0,10,,,2,2.57428712399269,2,1.7373643890023232,1,1.3196696569939377,2,4.109114915991086,,,020,001,2019_May_13_1007,MusicAffectPsychophysiology2019,3.0.5,59.952714811639225,
To what extent did the music make you feel ,ACTIVE,30MonoWAV/30MonoH2.wav,2,2,1,6,,,,,0,13,13,5,0,1,1,9,,,,,,,,,1,0.8517705169942928,,,020,001,2019_May_13_1007,MusicAffectPsychophysiology2019,3.0.5,59.952714811639225,
To what extent did the music make you feel ,GUILTY,30MonoWAV/30MonoH2.wav,2,2,1,6,,,,,0,13,13,5,0,2,2,5,,,,,,,,,2,1.6181479759979993,,,020,001,2019_May_13_1007,MusicAffectPsychophysiology2019,3.0.5,59.952714811639225,
To what extent did the music make you feel ,FRUSTRATED,30MonoWAV/30MonoH2.wav,2,2,1,6,,,,,0,13,13,5,0,3,3,3,,,,,,,,,3,2.1040615050005727,,,020,001,2019_May_13_1007,MusicAffectPsychophysiology2019,3.0.5,59.952714811639225,
To what extent did the music make you feel ,ANXIOUS ,30MonoWAV/30MonoH2.wav,2,2,1,6,,,,,0,13,13,5,0,4,4,1,,,,,,,,,4,1.6034866270056227,,,020,001,2019_May_13_1007,MusicAffectPsychophysiology2019,3.0.5,59.952714811639225,
To what extent did the music make you feel ,SCARED,30MonoWAV/30MonoH2.wav,2,2,1,6,,,,,0,13,13,5,0,5,5,11,,,,,,,,,1,1.253337856993312,,,020,001,2019_May_13_1007,MusicAffectPsychophysiology2019,3.0.5,59.952714811639225,
To what extent did the music make you feel ,HAPPY,30MonoWAV/30MonoH2.wav,2,2,1,6,,,,,0,13,13,5,0,6,6,6,,,,,,,,,1,1.8382521649909904,,,020,001,2019_May_13_1007,MusicAffectPsychophysiology2019,3.0.5,59.952714811639225,
To what extent did the music make you feel ,ASHAMED,30MonoWAV/30MonoH2.wav,2,2,1,6,,,,,0,13,13,5,0,7,7,4,,,,,,,,,2,1.6702870019944385,,,020,001,2019_May_13_1007,MusicAffectPsychophysiology2019,3.0.5,59.952714811639225,
To what extent did the music make you feel ,SAD,30MonoWAV/30MonoH2.wav,2,2,1,6,,,,,0,13,13,5,0,8,8,0,,,,,,,,,1,1.3699420129996724,,,020,001,2019_May_13_1007,MusicAffectPsychophysiology2019,3.0.5,59.952714811639225,
To what extent did the music make you feel ,ALERT,30MonoWAV/30MonoH2.wav,2,2,1,6,,,,,0,13,13,5,0,9,9,8,,,,,,,,,3,1.9710047319967998,,,020,001,2019_May_13_1007,MusicAffectPsychophysiology2019,3.0.5,59.952714811639225,
To what extent did the music make you feel ,EXCITED,30MonoWAV/30MonoH2.wav,2,2,1,6,,,,,0,13,13,5,0,10,10,7,,,,,,,,,1,1.0514651670091553,,,020,001,2019_May_13_1007,MusicAffectPsychophysiology2019,3.0.5,59.952714811639225,
To what extent did the music make you feel ,ANGRY,30MonoWAV/30MonoH2.wav,2,2,1,6,,,,,0,13,13,5,0,11,11,2,,,,,,,,,1,1.269772682004259,,,020,001,2019_May_13_1007,MusicAffectPsychophysiology2019,3.0.5,59.952714811639225,
,,30MonoWAV/30MonoH2.wav,2,2,1,6,,,,,0,13,13,5,,,,,,,,,,,,,,,,,020,001,2019_May_13_1007,MusicAffectPsychophysiology2019,3.0.5,59.952714811639225,
To what extent did the music make you feel ,ANXIOUS ,30MonoWAV/30MonoF1.wav,1,2,2,1,,,,,0,14,14,0,0,0,0,1,,,3,2.721261828992283,1,1.403610948997084,1,1.0699193689943058,4,1.7903103870048653,,,020,001,2019_May_13_1007,MusicAffectPsychophysiology2019,3.0.5,59.952714811639225,
To what extent did the music make you feel ,EXCITED,30MonoWAV/30MonoF1.wav,1,2,2,1,,,,,0,14,14,0,0,1,1,7,,,,,,,,,1,1.1338172160030808,,,020,001,2019_May_13_1007,MusicAffectPsychophysiology2019,3.0.5,59.952714811639225,
To what extent did the music make you feel ,ANGRY,30MonoWAV/30MonoF1.wav,1,2,2,1,,,,,0,14,14,0,0,2,2,2,,,,,,,,,3,1.919049197997083,,,020,001,2019_May_13_1007,MusicAffectPsychophysiology2019,3.0.5,59.952714811639225,
To what extent did the music make you feel ,FRUSTRATED,30MonoWAV/30MonoF1.wav,1,2,2,1,,,,,0,14,14,0,0,3,3,3,,,,,,,,,3,1.2021071749913972,,,020,001,2019_May_13_1007,MusicAffectPsychophysiology2019,3.0.5,59.952714811639225,
To what extent did the music make you feel ,SAD,30MonoWAV/30MonoF1.wav,1,2,2,1,,,,,0,14,14,0,0,4,4,0,,,,,,,,,1,1.4014107399998466,,,020,001,2019_May_13_1007,MusicAffectPsychophysiology2019,3.0.5,59.952714811639225,
To what extent did the music make you feel ,TENDER,30MonoWAV/30MonoF1.wav,1,2,2,1,,,,,0,14,14,0,0,5,5,10,,,,,,,,,1,1.9917075789999217,,,020,001,2019_May_13_1007,MusicAffectPsychophysiology2019,3.0.5,59.952714811639225,
To what extent did the music make you feel ,ALERT,30MonoWAV/30MonoF1.wav,1,2,2,1,,,,,0,14,14,0,0,6,6,8,,,,,,,,,1,1.2693206900003133,,,020,001,2019_May_13_1007,MusicAffectPsychophysiology2019,3.0.5,59.952714811639225,
To what extent did the music make you feel ,ACTIVE,30MonoWAV/30MonoF1.wav,1,2,2,1,,,,,0,14,14,0,0,7,7,9,,,,,,,,,1,2.921638633008115,,,020,001,2019_May_13_1007,MusicAffectPsychophysiology2019,3.0.5,59.952714811639225,
To what extent did the music make you feel ,SCARED,30MonoWAV/30MonoF1.wav,1,2,2,1,,,,,0,14,14,0,0,8,8,11,,,,,,,,,2,1.3399612009961857,,,020,001,2019_May_13_1007,MusicAffectPsychophysiology2019,3.0.5,59.952714811639225,
To what extent did the music make you feel ,ASHAMED,30MonoWAV/30MonoF1.wav,1,2,2,1,,,,,0,14,14,0,0,9,9,4,,,,,,,,,2,1.0687957120098872,,,020,001,2019_May_13_1007,MusicAffectPsychophysiology2019,3.0.5,59.952714811639225,
To what extent did the music make you feel ,HAPPY,30MonoWAV/30MonoF1.wav,1,2,2,1,,,,,0,14,14,0,0,10,10,6,,,,,,,,,1,0.8509214590012562,,,020,001,2019_May_13_1007,MusicAffectPsychophysiology2019,3.0.5,59.952714811639225,
To what extent did the music make you feel ,GUILTY,30MonoWAV/30MonoF1.wav,1,2,2,1,,,,,0,14,14,0,0,11,11,5,,,,,,,,,3,1.4348527020047186,,,020,001,2019_May_13_1007,MusicAffectPsychophysiology2019,3.0.5,59.952714811639225,
,,30MonoWAV/30MonoF1.wav,1,2,2,1,,,,,0,14,14,0,,,,,,,,,,,,,,,,,020,001,2019_May_13_1007,MusicAffectPsychophysiology2019,3.0.5,59.952714811639225,
To what extent did the music make you feel ,ALERT,30MonoWAV/30MonoS1.wav,1,1,3,9,,,,,0,15,15,8,0,0,0,8,,,1,2.171688345988514,1,2.687305742991157,2,1.8733936380012892,1,1.2015812990139239,,,020,001,2019_May_13_1007,MusicAffectPsychophysiology2019,3.0.5,59.952714811639225,
To what extent did the music make you feel ,ANGRY,30MonoWAV/30MonoS1.wav,1,1,3,9,,,,,0,15,15,8,0,1,1,2,,,,,,,,,1,1.2000178349990165,,,020,001,2019_May_13_1007,MusicAffectPsychophysiology2019,3.0.5,59.952714811639225,
To what extent did the music make you feel ,ACTIVE,30MonoWAV/30MonoS1.wav,1,1,3,9,,,,,0,15,15,8,0,2,2,9,,,,,,,,,1,0.7662759439990623,,,020,001,2019_May_13_1007,MusicAffectPsychophysiology2019,3.0.5,59.952714811639225,
To what extent did the music make you feel ,GUILTY,30MonoWAV/30MonoS1.wav,1,1,3,9,,,,,0,15,15,8,0,3,3,5,,,,,,,,,3,1.6687306790117873,,,020,001,2019_May_13_1007,MusicAffectPsychophysiology2019,3.0.5,59.952714811639225,
To what extent did the music make you feel ,FRUSTRATED,30MonoWAV/30MonoS1.wav,1,1,3,9,,,,,0,15,15,8,0,4,4,3,,,,,,,,,1,0.9012782860081643,,,020,001,2019_May_13_1007,MusicAffectPsychophysiology2019,3.0.5,59.952714811639225,
To what extent did the music make you feel ,SCARED,30MonoWAV/30MonoS1.wav,1,1,3,9,,,,,0,15,15,8,0,5,5,11,,,,,,,,,1,1.1998340980062494,,,020,001,2019_May_13_1007,MusicAffectPsychophysiology2019,3.0.5,59.952714811639225,
To what extent did the music make you feel ,SAD,30MonoWAV/30MonoS1.wav,1,1,3,9,,,,,0,15,15,8,0,6,6,0,,,,,,,,,3,1.5515295339864679,,,020,001,2019_May_13_1007,MusicAffectPsychophysiology2019,3.0.5,59.952714811639225,
To what extent did the music make you feel ,EXCITED,30MonoWAV/30MonoS1.wav,1,1,3,9,,,,,0,15,15,8,0,7,7,7,,,,,,,,,1,0.6850482180016115,,,020,001,2019_May_13_1007,MusicAffectPsychophysiology2019,3.0.5,59.952714811639225,
To what extent did the music make you feel ,TENDER,30MonoWAV/30MonoS1.wav,1,1,3,9,,,,,0,15,15,8,0,8,8,10,,,,,,,,,4,1.818289304006612,,,020,001,2019_May_13_1007,MusicAffectPsychophysiology2019,3.0.5,59.952714811639225,
To what extent did the music make you feel ,HAPPY,30MonoWAV/30MonoS1.wav,1,1,3,9,,,,,0,15,15,8,0,9,9,6,,,,,,,,,1,1.134981045004679,,,020,001,2019_May_13_1007,MusicAffectPsychophysiology2019,3.0.5,59.952714811639225,
To what extent did the music make you feel ,ANXIOUS ,30MonoWAV/30MonoS1.wav,1,1,3,9,,,,,0,15,15,8,0,10,10,1,,,,,,,,,1,1.2347168190026423,,,020,001,2019_May_13_1007,MusicAffectPsychophysiology2019,3.0.5,59.952714811639225,
To what extent did the music make you feel ,ASHAMED,30MonoWAV/30MonoS1.wav,1,1,3,9,,,,,0,15,15,8,0,11,11,4,,,,,,,,,2,1.5351552829961292,,,020,001,2019_May_13_1007,MusicAffectPsychophysiology2019,3.0.5,59.952714811639225,
,,30MonoWAV/30MonoS1.wav,1,1,3,9,,,,,0,15,15,8,,,,,,,,,,,,,,,,,020,001,2019_May_13_1007,MusicAffectPsychophysiology2019,3.0.5,59.952714811639225,
To what extent did the music make you feel ,SCARED,30MonoWAV/30MonoF4.wav,1,2,2,4,,,,,1,0,16,3,0,0,0,11,,,3,3.4850215519982157,1,1.9496022579987766,1,1.302489510999294,2,1.335457310997299,,,020,001,2019_May_13_1007,MusicAffectPsychophysiology2019,3.0.5,59.952714811639225,
To what extent did the music make you feel ,ANXIOUS ,30MonoWAV/30MonoF4.wav,1,2,2,4,,,,,1,0,16,3,0,1,1,1,,,,,,,,,4,1.4507487759983633,,,020,001,2019_May_13_1007,MusicAffectPsychophysiology2019,3.0.5,59.952714811639225,
To what extent did the music make you feel ,HAPPY,30MonoWAV/30MonoF4.wav,1,2,2,4,,,,,1,0,16,3,0,2,2,6,,,,,,,,,1,0.9693857319944073,,,020,001,2019_May_13_1007,MusicAffectPsychophysiology2019,3.0.5,59.952714811639225,
To what extent did the music make you feel ,TENDER,30MonoWAV/30MonoF4.wav,1,2,2,4,,,,,1,0,16,3,0,3,3,10,,,,,,,,,1,0.8349919079919346,,,020,001,2019_May_13_1007,MusicAffectPsychophysiology2019,3.0.5,59.952714811639225,
To what extent did the music make you feel ,SAD,30MonoWAV/30MonoF4.wav,1,2,2,4,,,,,1,0,16,3,0,4,4,0,,,,,,,,,1,1.0167294760030927,,,020,001,2019_May_13_1007,MusicAffectPsychophysiology2019,3.0.5,59.952714811639225,
To what extent did the music make you feel ,ANGRY,30MonoWAV/30MonoF4.wav,1,2,2,4,,,,,1,0,16,3,0,5,5,2,,,,,,,,,2,1.3560098760062829,,,020,001,2019_May_13_1007,MusicAffectPsychophysiology2019,3.0.5,59.952714811639225,
To what extent did the music make you feel ,FRUSTRATED,30MonoWAV/30MonoF4.wav,1,2,2,4,,,,,1,0,16,3,0,6,6,3,,,,,,,,,3,1.6699534180079354,,,020,001,2019_May_13_1007,MusicAffectPsychophysiology2019,3.0.5,59.952714811639225,
To what extent did the music make you feel ,ALERT,30MonoWAV/30MonoF4.wav,1,2,2,4,,,,,1,0,16,3,0,7,7,8,,,,,,,,,1,0.8858180829993216,,,020,001,2019_May_13_1007,MusicAffectPsychophysiology2019,3.0.5,59.952714811639225,
To what extent did the music make you feel ,ACTIVE,30MonoWAV/30MonoF4.wav,1,2,2,4,,,,,1,0,16,3,0,8,8,9,,,,,,,,,1,1.1527426300017396,,,020,001,2019_May_13_1007,MusicAffectPsychophysiology2019,3.0.5,59.952714811639225,
To what extent did the music make you feel ,EXCITED,30MonoWAV/30MonoF4.wav,1,2,2,4,,,,,1,0,16,3,0,9,9,7,,,,,,,,,1,1.6862100080033997,,,020,001,2019_May_13_1007,MusicAffectPsychophysiology2019,3.0.5,59.952714811639225,
To what extent did the music make you feel ,ASHAMED,30MonoWAV/30MonoF4.wav,1,2,2,4,,,,,1,0,16,3,0,10,10,4,,,,,,,,,1,0.9357820669974899,,,020,001,2019_May_13_1007,MusicAffectPsychophysiology2019,3.0.5,59.952714811639225,
To what extent did the music make you feel ,GUILTY,30MonoWAV/30MonoF4.wav,1,2,2,4,,,,,1,0,16,3,0,11,11,5,,,,,,,,,1,1.023573287006002,,,020,001,2019_May_13_1007,MusicAffectPsychophysiology2019,3.0.5,59.952714811639225,
,,30MonoWAV/30MonoF4.wav,1,2,2,4,,,,,1,0,16,3,,,,,,,,,,,,,,,,,020,001,2019_May_13_1007,MusicAffectPsychophysiology2019,3.0.5,59.952714811639225,
To what extent did the music make you feel ,SCARED,30MonoWAV/30MonoS1.wav,1,1,3,9,,,,,1,1,17,8,0,0,0,11,,,1,2.1398751030064886,1,3.439272465009708,2,1.5043978899921058,1,1.0707414360076655,,,020,001,2019_May_13_1007,MusicAffectPsychophysiology2019,3.0.5,59.952714811639225,
To what extent did the music make you feel ,EXCITED,30MonoWAV/30MonoS1.wav,1,1,3,9,,,,,1,1,17,8,0,1,1,7,,,,,,,,,1,1.1903574140014825,,,020,001,2019_May_13_1007,MusicAffectPsychophysiology2019,3.0.5,59.952714811639225,
To what extent did the music make you feel ,ACTIVE,30MonoWAV/30MonoS1.wav,1,1,3,9,,,,,1,1,17,8,0,2,2,9,,,,,,,,,1,1.1027724659943487,,,020,001,2019_May_13_1007,MusicAffectPsychophysiology2019,3.0.5,59.952714811639225,
To what extent did the music make you feel ,FRUSTRATED,30MonoWAV/30MonoS1.wav,1,1,3,9,,,,,1,1,17,8,0,3,3,3,,,,,,,,,1,0.8499525219958741,,,020,001,2019_May_13_1007,MusicAffectPsychophysiology2019,3.0.5,59.952714811639225,
To what extent did the music make you feel ,GUILTY,30MonoWAV/30MonoS1.wav,1,1,3,9,,,,,1,1,17,8,0,4,4,5,,,,,,,,,4,1.6022987390024355,,,020,001,2019_May_13_1007,MusicAffectPsychophysiology2019,3.0.5,59.952714811639225,
To what extent did the music make you feel ,ASHAMED,30MonoWAV/30MonoS1.wav,1,1,3,9,,,,,1,1,17,8,0,5,5,4,,,,,,,,,3,1.1861767569935182,,,020,001,2019_May_13_1007,MusicAffectPsychophysiology2019,3.0.5,59.952714811639225,
To what extent did the music make you feel ,ANGRY,30MonoWAV/30MonoS1.wav,1,1,3,9,,,,,1,1,17,8,0,6,6,2,,,,,,,,,1,1.0516206820029765,,,020,001,2019_May_13_1007,MusicAffectPsychophysiology2019,3.0.5,59.952714811639225,
To what extent did the music make you feel ,SAD,30MonoWAV/30MonoS1.wav,1,1,3,9,,,,,1,1,17,8,0,7,7,0,,,,,,,,,3,1.952069446007954,,,020,001,2019_May_13_1007,MusicAffectPsychophysiology2019,3.0.5,59.952714811639225,
To what extent did the music make you feel ,HAPPY,30MonoWAV/30MonoS1.wav,1,1,3,9,,,,,1,1,17,8,0,8,8,6,,,,,,,,,1,0.801607196990517,,,020,001,2019_May_13_1007,MusicAffectPsychophysiology2019,3.0.5,59.952714811639225,
To what extent did the music make you feel ,ANXIOUS ,30MonoWAV/30MonoS1.wav,1,1,3,9,,,,,1,1,17,8,0,9,9,1,,,,,,,,,1,1.9683757239981787,,,020,001,2019_May_13_1007,MusicAffectPsychophysiology2019,3.0.5,59.952714811639225,
To what extent did the music make you feel ,ALERT,30MonoWAV/30MonoS1.wav,1,1,3,9,,,,,1,1,17,8,0,10,10,8,,,,,,,,,1,0.935952214000281,,,020,001,2019_May_13_1007,MusicAffectPsychophysiology2019,3.0.5,59.952714811639225,
To what extent did the music make you feel ,TENDER,30MonoWAV/30MonoS1.wav,1,1,3,9,,,,,1,1,17,8,0,11,11,10,,,,,,,,,4,1.8016121410037158,,,020,001,2019_May_13_1007,MusicAffectPsychophysiology2019,3.0.5,59.952714811639225,
,,30MonoWAV/30MonoS1.wav,1,1,3,9,,,,,1,1,17,8,,,,,,,,,,,,,,,,,020,001,2019_May_13_1007,MusicAffectPsychophysiology2019,3.0.5,59.952714811639225,
To what extent did the music make you feel ,SCARED,30MonoWAV/30MonoH4.wav,2,2,1,8,,,,,1,2,18,7,0,0,0,11,,,4,2.7236835250078,4,2.0698306310077896,2,2.1206717179884436,1,1.8868986169982236,,,020,001,2019_May_13_1007,MusicAffectPsychophysiology2019,3.0.5,59.952714811639225,
To what extent did the music make you feel ,SAD,30MonoWAV/30MonoH4.wav,2,2,1,8,,,,,1,2,18,7,0,1,1,0,,,,,,,,,1,3.4896007659990573,,,020,001,2019_May_13_1007,MusicAffectPsychophysiology2019,3.0.5,59.952714811639225,
To what extent did the music make you feel ,ACTIVE,30MonoWAV/30MonoH4.wav,2,2,1,8,,,,,1,2,18,7,0,2,2,9,,,,,,,,,4,2.002002403998631,,,020,001,2019_May_13_1007,MusicAffectPsychophysiology2019,3.0.5,59.952714811639225,
To what extent did the music make you feel ,EXCITED,30MonoWAV/30MonoH4.wav,2,2,1,8,,,,,1,2,18,7,0,3,3,7,,,,,,,,,4,1.1164508639922133,,,020,001,2019_May_13_1007,MusicAffectPsychophysiology2019,3.0.5,59.952714811639225,
To what extent did the music make you feel ,ANXIOUS ,30MonoWAV/30MonoH4.wav,2,2,1,8,,,,,1,2,18,7,0,4,4,1,,,,,,,,,2,1.8187790329975542,,,020,001,2019_May_13_1007,MusicAffectPsychophysiology2019,3.0.5,59.952714811639225,
To what extent did the music make you feel ,ANGRY,30MonoWAV/30MonoH4.wav,2,2,1,8,,,,,1,2,18,7,0,5,5,2,,,,,,,,,1,0.8843382490013028,,,020,001,2019_May_13_1007,MusicAffectPsychophysiology2019,3.0.5,59.952714811639225,
To what extent did the music make you feel ,HAPPY,30MonoWAV/30MonoH4.wav,2,2,1,8,,,,,1,2,18,7,0,6,6,6,,,,,,,,,3,2.3507208220107714,,,020,001,2019_May_13_1007,MusicAffectPsychophysiology2019,3.0.5,59.952714811639225,
To what extent did the music make you feel ,TENDER,30MonoWAV/30MonoH4.wav,2,2,1,8,,,,,1,2,18,7,0,7,7,10,,,,,,,,,1,1.5009997159941122,,,020,001,2019_May_13_1007,MusicAffectPsychophysiology2019,3.0.5,59.952714811639225,
To what extent did the music make you feel ,FRUSTRATED,30MonoWAV/30MonoH4.wav,2,2,1,8,,,,,1,2,18,7,0,8,8,3,,,,,,,,,1,1.5832078480016207,,,020,001,2019_May_13_1007,MusicAffectPsychophysiology2019,3.0.5,59.952714811639225,
To what extent did the music make you feel ,ASHAMED,30MonoWAV/30MonoH4.wav,2,2,1,8,,,,,1,2,18,7,0,9,9,4,,,,,,,,,1,0.8685189620009623,,,020,001,2019_May_13_1007,MusicAffectPsychophysiology2019,3.0.5,59.952714811639225,
To what extent did the music make you feel ,GUILTY,30MonoWAV/30MonoH4.wav,2,2,1,8,,,,,1,2,18,7,0,10,10,5,,,,,,,,,1,0.651366815000074,,,020,001,2019_May_13_1007,MusicAffectPsychophysiology2019,3.0.5,59.952714811639225,
To what extent did the music make you feel ,ALERT,30MonoWAV/30MonoH4.wav,2,2,1,8,,,,,1,2,18,7,0,11,11,8,,,,,,,,,4,1.620099020001362,,,020,001,2019_May_13_1007,MusicAffectPsychophysiology2019,3.0.5,59.952714811639225,
,,30MonoWAV/30MonoH4.wav,2,2,1,8,,,,,1,2,18,7,,,,,,,,,,,,,,,,,020,001,2019_May_13_1007,MusicAffectPsychophysiology2019,3.0.5,59.952714811639225,
To what extent did the music make you feel ,ANXIOUS ,30MonoWAV/30MonoH3.wav,2,2,1,7,,,,,1,3,19,6,0,0,0,1,,,3,4.368125349996262,1,1.8519129880005494,1,1.2345942659885623,4,1.7185997320048045,,,020,001,2019_May_13_1007,MusicAffectPsychophysiology2019,3.0.5,59.952714811639225,
To what extent did the music make you feel ,ALERT,30MonoWAV/30MonoH3.wav,2,2,1,7,,,,,1,3,19,6,0,1,1,8,,,,,,,,,4,1.3686928160022944,,,020,001,2019_May_13_1007,MusicAffectPsychophysiology2019,3.0.5,59.952714811639225,
To what extent did the music make you feel ,TENDER,30MonoWAV/30MonoH3.wav,2,2,1,7,,,,,1,3,19,6,0,2,2,10,,,,,,,,,1,1.4015010250004707,,,020,001,2019_May_13_1007,MusicAffectPsychophysiology2019,3.0.5,59.952714811639225,
To what extent did the music make you feel ,GUILTY,30MonoWAV/30MonoH3.wav,2,2,1,7,,,,,1,3,19,6,0,3,3,5,,,,,,,,,1,1.0722264390060445,,,020,001,2019_May_13_1007,MusicAffectPsychophysiology2019,3.0.5,59.952714811639225,
To what extent did the music make you feel ,SAD,30MonoWAV/30MonoH3.wav,2,2,1,7,,,,,1,3,19,6,0,4,4,0,,,,,,,,,1,0.736099268993712,,,020,001,2019_May_13_1007,MusicAffectPsychophysiology2019,3.0.5,59.952714811639225,
To what extent did the music make you feel ,ASHAMED,30MonoWAV/30MonoH3.wav,2,2,1,7,,,,,1,3,19,6,0,5,5,4,,,,,,,,,1,0.8526808099995833,,,020,001,2019_May_13_1007,MusicAffectPsychophysiology2019,3.0.5,59.952714811639225,
To what extent did the music make you feel ,FRUSTRATED,30MonoWAV/30MonoH3.wav,2,2,1,7,,,,,1,3,19,6,0,6,6,3,,,,,,,,,3,2.3200681720045395,,,020,001,2019_May_13_1007,MusicAffectPsychophysiology2019,3.0.5,59.952714811639225,
To what extent did the music make you feel ,ANGRY,30MonoWAV/30MonoH3.wav,2,2,1,7,,,,,1,3,19,6,0,7,7,2,,,,,,,,,3,1.1199137549992884,,,020,001,2019_May_13_1007,MusicAffectPsychophysiology2019,3.0.5,59.952714811639225,
To what extent did the music make you feel ,HAPPY,30MonoWAV/30MonoH3.wav,2,2,1,7,,,,,1,3,19,6,0,8,8,6,,,,,,,,,1,1.0864329139876645,,,020,001,2019_May_13_1007,MusicAffectPsychophysiology2019,3.0.5,59.952714811639225,
To what extent did the music make you feel ,EXCITED,30MonoWAV/30MonoH3.wav,2,2,1,7,,,,,1,3,19,6,0,9,9,7,,,,,,,,,1,1.2734508939902298,,,020,001,2019_May_13_1007,MusicAffectPsychophysiology2019,3.0.5,59.952714811639225,
To what extent did the music make you feel ,SCARED,30MonoWAV/30MonoH3.wav,2,2,1,7,,,,,1,3,19,6,0,10,10,11,,,,,,,,,3,1.8013810240081511,,,020,001,2019_May_13_1007,MusicAffectPsychophysiology2019,3.0.5,59.952714811639225,
To what extent did the music make you feel ,ACTIVE,30MonoWAV/30MonoH3.wav,2,2,1,7,,,,,1,3,19,6,0,11,11,9,,,,,,,,,3,1.5028050710097887,,,020,001,2019_May_13_1007,MusicAffectPsychophysiology2019,3.0.5,59.952714811639225,
,,30MonoWAV/30MonoH3.wav,2,2,1,7,,,,,1,3,19,6,,,,,,,,,,,,,,,,,020,001,2019_May_13_1007,MusicAffectPsychophysiology2019,3.0.5,59.952714811639225,
To what extent did the music make you feel ,HAPPY,30MonoWAV/30MonoS3.wav,1,1,3,11,,,,,1,4,20,10,0,0,0,6,,,1,2.4527473490015836,1,1.234102743997937,1,1.3359491839946713,1,1.2834394270030316,,,020,001,2019_May_13_1007,MusicAffectPsychophysiology2019,3.0.5,59.952714811639225,
To what extent did the music make you feel ,EXCITED,30MonoWAV/30MonoS3.wav,1,1,3,11,,,,,1,4,20,10,0,1,1,7,,,,,,,,,1,0.8352588809939334,,,020,001,2019_May_13_1007,MusicAffectPsychophysiology2019,3.0.5,59.952714811639225,
To what extent did the music make you feel ,GUILTY,30MonoWAV/30MonoS3.wav,1,1,3,11,,,,,1,4,20,10,0,2,2,5,,,,,,,,,3,1.9493311679980252,,,020,001,2019_May_13_1007,MusicAffectPsychophysiology2019,3.0.5,59.952714811639225,
To what extent did the music make you feel ,ANXIOUS ,30MonoWAV/30MonoS3.wav,1,1,3,11,,,,,1,4,20,10,0,3,3,1,,,,,,,,,1,1.7028051710076397,,,020,001,2019_May_13_1007,MusicAffectPsychophysiology2019,3.0.5,59.952714811639225,
To what extent did the music make you feel ,SAD,30MonoWAV/30MonoS3.wav,1,1,3,11,,,,,1,4,20,10,0,4,4,0,,,,,,,,,4,1.5548462690057931,,,020,001,2019_May_13_1007,MusicAffectPsychophysiology2019,3.0.5,59.952714811639225,
To what extent did the music make you feel ,FRUSTRATED,30MonoWAV/30MonoS3.wav,1,1,3,11,,,,,1,4,20,10,0,5,5,3,,,,,,,,,1,1.2537268890009727,,,020,001,2019_May_13_1007,MusicAffectPsychophysiology2019,3.0.5,59.952714811639225,
To what extent did the music make you feel ,ALERT,30MonoWAV/30MonoS3.wav,1,1,3,11,,,,,1,4,20,10,0,6,6,8,,,,,,,,,1,1.169350944008329,,,020,001,2019_May_13_1007,MusicAffectPsychophysiology2019,3.0.5,59.952714811639225,
To what extent did the music make you feel ,ASHAMED,30MonoWAV/30MonoS3.wav,1,1,3,11,,,,,1,4,20,10,0,7,7,4,,,,,,,,,3,1.802093207006692,,,020,001,2019_May_13_1007,MusicAffectPsychophysiology2019,3.0.5,59.952714811639225,
To what extent did the music make you feel ,ACTIVE,30MonoWAV/30MonoS3.wav,1,1,3,11,,,,,1,4,20,10,0,8,8,9,,,,,,,,,1,0.9186304049944738,,,020,001,2019_May_13_1007,MusicAffectPsychophysiology2019,3.0.5,59.952714811639225,
To what extent did the music make you feel ,ANGRY,30MonoWAV/30MonoS3.wav,1,1,3,11,,,,,1,4,20,10,0,9,9,2,,,,,,,,,1,1.1367252110067056,,,020,001,2019_May_13_1007,MusicAffectPsychophysiology2019,3.0.5,59.952714811639225,
To what extent did the music make you feel ,SCARED,30MonoWAV/30MonoS3.wav,1,1,3,11,,,,,1,4,20,10,0,10,10,11,,,,,,,,,1,1.5723003160092048,,,020,001,2019_May_13_1007,MusicAffectPsychophysiology2019,3.0.5,59.952714811639225,
To what extent did the music make you feel ,TENDER,30MonoWAV/30MonoS3.wav,1,1,3,11,,,,,1,4,20,10,0,11,11,10,,,,,,,,,4,1.4682625249988632,,,020,001,2019_May_13_1007,MusicAffectPsychophysiology2019,3.0.5,59.952714811639225,
,,30MonoWAV/30MonoS3.wav,1,1,3,11,,,,,1,4,20,10,,,,,,,,,,,,,,,,,020,001,2019_May_13_1007,MusicAffectPsychophysiology2019,3.0.5,59.952714811639225,
To what extent did the music make you feel ,ANXIOUS ,30MonoWAV/30MonoT1.wav,2,1,4,13,,,,,1,5,21,12,0,0,0,1,,,1,2.201331812000717,4,2.017676041999948,3,2.1837813330057543,1,2.1858741309988545,,,020,001,2019_May_13_1007,MusicAffectPsychophysiology2019,3.0.5,59.952714811639225,
To what extent did the music make you feel ,TENDER,30MonoWAV/30MonoT1.wav,2,1,4,13,,,,,1,5,21,12,0,1,1,10,,,,,,,,,4,2.4519002189917956,,,020,001,2019_May_13_1007,MusicAffectPsychophysiology2019,3.0.5,59.952714811639225,
To what extent did the music make you feel ,SAD,30MonoWAV/30MonoT1.wav,2,1,4,13,,,,,1,5,21,12,0,2,2,0,,,,,,,,,3,1.7685707540076692,,,020,001,2019_May_13_1007,MusicAffectPsychophysiology2019,3.0.5,59.952714811639225,
To what extent did the music make you feel ,SCARED,30MonoWAV/30MonoT1.wav,2,1,4,13,,,,,1,5,21,12,0,3,3,11,,,,,,,,,1,1.0180828900047345,,,020,001,2019_May_13_1007,MusicAffectPsychophysiology2019,3.0.5,59.952714811639225,
To what extent did the music make you feel ,ASHAMED,30MonoWAV/30MonoT1.wav,2,1,4,13,,,,,1,5,21,12,0,4,4,4,,,,,,,,,3,2.001915322995046,,,020,001,2019_May_13_1007,MusicAffectPsychophysiology2019,3.0.5,59.952714811639225,
To what extent did the music make you feel ,FRUSTRATED,30MonoWAV/30MonoT1.wav,2,1,4,13,,,,,1,5,21,12,0,5,5,3,,,,,,,,,1,0.8181688610056881,,,020,001,2019_May_13_1007,MusicAffectPsychophysiology2019,3.0.5,59.952714811639225,
To what extent did the music make you feel ,GUILTY,30MonoWAV/30MonoT1.wav,2,1,4,13,,,,,1,5,21,12,0,6,6,5,,,,,,,,,2,1.6014468480134383,,,020,001,2019_May_13_1007,MusicAffectPsychophysiology2019,3.0.5,59.952714811639225,
To what extent did the music make you feel ,ALERT,30MonoWAV/30MonoT1.wav,2,1,4,13,,,,,1,5,21,12,0,7,7,8,,,,,,,,,1,2.3845080149912974,,,020,001,2019_May_13_1007,MusicAffectPsychophysiology2019,3.0.5,59.952714811639225,
To what extent did the music make you feel ,EXCITED,30MonoWAV/30MonoT1.wav,2,1,4,13,,,,,1,5,21,12,0,8,8,7,,,,,,,,,1,3.084685078007169,,,020,001,2019_May_13_1007,MusicAffectPsychophysiology2019,3.0.5,59.952714811639225,
To what extent did the music make you feel ,ANGRY,30MonoWAV/30MonoT1.wav,2,1,4,13,,,,,1,5,21,12,0,9,9,2,,,,,,,,,1,1.5517606560024433,,,020,001,2019_May_13_1007,MusicAffectPsychophysiology2019,3.0.5,59.952714811639225,
To what extent did the music make you feel ,ACTIVE,30MonoWAV/30MonoT1.wav,2,1,4,13,,,,,1,5,21,12,0,10,10,9,,,,,,,,,1,0.8013323589984793,,,020,001,2019_May_13_1007,MusicAffectPsychophysiology2019,3.0.5,59.952714811639225,
To what extent did the music make you feel ,HAPPY,30MonoWAV/30MonoT1.wav,2,1,4,13,,,,,1,5,21,12,0,11,11,6,,,,,,,,,1,0.9016283959936118,,,020,001,2019_May_13_1007,MusicAffectPsychophysiology2019,3.0.5,59.952714811639225,
,,30MonoWAV/30MonoT1.wav,2,1,4,13,,,,,1,5,21,12,,,,,,,,,,,,,,,,,020,001,2019_May_13_1007,MusicAffectPsychophysiology2019,3.0.5,59.952714811639225,
To what extent did the music make you feel ,ANGRY,30MonoWAV/30MonoT4.wav,2,1,4,16,,,,,1,6,22,15,0,0,0,2,,,2,4.79207720499835,3,2.852071157991304,2,1.8013953949994175,1,2.535119036998367,,,020,001,2019_May_13_1007,MusicAffectPsychophysiology2019,3.0.5,59.952714811639225,
To what extent did the music make you feel ,GUILTY,30MonoWAV/30MonoT4.wav,2,1,4,16,,,,,1,6,22,15,0,1,1,5,,,,,,,,,3,1.7686731169960694,,,020,001,2019_May_13_1007,MusicAffectPsychophysiology2019,3.0.5,59.952714811639225,
To what extent did the music make you feel ,ANXIOUS ,30MonoWAV/30MonoT4.wav,2,1,4,16,,,,,1,6,22,15,0,2,2,1,,,,,,,,,1,0.9682795260014245,,,020,001,2019_May_13_1007,MusicAffectPsychophysiology2019,3.0.5,59.952714811639225,
To what extent did the music make you feel ,EXCITED,30MonoWAV/30MonoT4.wav,2,1,4,16,,,,,1,6,22,15,0,3,3,7,,,,,,,,,1,1.4518201440077974,,,020,001,2019_May_13_1007,MusicAffectPsychophysiology2019,3.0.5,59.952714811639225,
To what extent did the music make you feel ,HAPPY,30MonoWAV/30MonoT4.wav,2,1,4,16,,,,,1,6,22,15,0,4,4,6,,,,,,,,,2,1.9028903400030686,,,020,001,2019_May_13_1007,MusicAffectPsychophysiology2019,3.0.5,59.952714811639225,
To what extent did the music make you feel ,TENDER,30MonoWAV/30MonoT4.wav,2,1,4,16,,,,,1,6,22,15,0,5,5,10,,,,,,,,,4,1.5186131379887229,,,020,001,2019_May_13_1007,MusicAffectPsychophysiology2019,3.0.5,59.952714811639225,
To what extent did the music make you feel ,FRUSTRATED,30MonoWAV/30MonoT4.wav,2,1,4,16,,,,,1,6,22,15,0,6,6,3,,,,,,,,,1,2.651456296996912,,,020,001,2019_May_13_1007,MusicAffectPsychophysiology2019,3.0.5,59.952714811639225,
To what extent did the music make you feel ,ACTIVE,30MonoWAV/30MonoT4.wav,2,1,4,16,,,,,1,6,22,15,0,7,7,9,,,,,,,,,1,1.2181151240074541,,,020,001,2019_May_13_1007,MusicAffectPsychophysiology2019,3.0.5,59.952714811639225,
To what extent did the music make you feel ,ALERT,30MonoWAV/30MonoT4.wav,2,1,4,16,,,,,1,6,22,15,0,8,8,8,,,,,,,,,1,1.1843264330091188,,,020,001,2019_May_13_1007,MusicAffectPsychophysiology2019,3.0.5,59.952714811639225,
To what extent did the music make you feel ,ASHAMED,30MonoWAV/30MonoT4.wav,2,1,4,16,,,,,1,6,22,15,0,9,9,4,,,,,,,,,2,1.8515537769999355,,,020,001,2019_May_13_1007,MusicAffectPsychophysiology2019,3.0.5,59.952714811639225,
To what extent did the music make you feel ,SAD,30MonoWAV/30MonoT4.wav,2,1,4,16,,,,,1,6,22,15,0,10,10,0,,,,,,,,,2,1.335424007003894,,,020,001,2019_May_13_1007,MusicAffectPsychophysiology2019,3.0.5,59.952714811639225,
To what extent did the music make you feel ,SCARED,30MonoWAV/30MonoT4.wav,2,1,4,16,,,,,1,6,22,15,0,11,11,11,,,,,,,,,1,1.002062219005893,,,020,001,2019_May_13_1007,MusicAffectPsychophysiology2019,3.0.5,59.952714811639225,
,,30MonoWAV/30MonoT4.wav,2,1,4,16,,,,,1,6,22,15,,,,,,,,,,,,,,,,,020,001,2019_May_13_1007,MusicAffectPsychophysiology2019,3.0.5,59.952714811639225,
To what extent did the music make you feel ,FRUSTRATED,30MonoWAV/30MonoS2.wav,1,1,3,10,,,,,1,7,23,9,0,0,0,3,,,1,3.285875584013411,2,1.3902624439942883,2,1.1699774770095246,1,1.4350393979984801,,,020,001,2019_May_13_1007,MusicAffectPsychophysiology2019,3.0.5,59.952714811639225,
To what extent did the music make you feel ,GUILTY,30MonoWAV/30MonoS2.wav,1,1,3,10,,,,,1,7,23,9,0,1,1,5,,,,,,,,,3,1.7527304729883326,,,020,001,2019_May_13_1007,MusicAffectPsychophysiology2019,3.0.5,59.952714811639225,
To what extent did the music make you feel ,EXCITED,30MonoWAV/30MonoS2.wav,1,1,3,10,,,,,1,7,23,9,0,2,2,7,,,,,,,,,1,0.950895820002188,,,020,001,2019_May_13_1007,MusicAffectPsychophysiology2019,3.0.5,59.952714811639225,
To what extent did the music make you feel ,HAPPY,30MonoWAV/30MonoS2.wav,1,1,3,10,,,,,1,7,23,9,0,3,3,6,,,,,,,,,1,0.8183123130002059,,,020,001,2019_May_13_1007,MusicAffectPsychophysiology2019,3.0.5,59.952714811639225,
To what extent did the music make you feel ,ANXIOUS ,30MonoWAV/30MonoS2.wav,1,1,3,10,,,,,1,7,23,9,0,4,4,1,,,,,,,,,1,1.5500171430030605,,,020,001,2019_May_13_1007,MusicAffectPsychophysiology2019,3.0.5,59.952714811639225,
To what extent did the music make you feel ,TENDER,30MonoWAV/30MonoS2.wav,1,1,3,10,,,,,1,7,23,9,0,5,5,10,,,,,,,,,4,1.2850481729983585,,,020,001,2019_May_13_1007,MusicAffectPsychophysiology2019,3.0.5,59.952714811639225,
To what extent did the music make you feel ,SCARED,30MonoWAV/30MonoS2.wav,1,1,3,10,,,,,1,7,23,9,0,6,6,11,,,,,,,,,1,1.0691530970070744,,,020,001,2019_May_13_1007,MusicAffectPsychophysiology2019,3.0.5,59.952714811639225,
To what extent did the music make you feel ,ANGRY,30MonoWAV/30MonoS2.wav,1,1,3,10,,,,,1,7,23,9,0,7,7,2,,,,,,,,,1,0.9185669480066281,,,020,001,2019_May_13_1007,MusicAffectPsychophysiology2019,3.0.5,59.952714811639225,
To what extent did the music make you feel ,SAD,30MonoWAV/30MonoS2.wav,1,1,3,10,,,,,1,7,23,9,0,8,8,0,,,,,,,,,1,1.0676217270083725,,,020,001,2019_May_13_1007,MusicAffectPsychophysiology2019,3.0.5,59.952714811639225,
To what extent did the music make you feel ,ACTIVE,30MonoWAV/30MonoS2.wav,1,1,3,10,,,,,1,7,23,9,0,9,9,9,,,,,,,,,1,0.7682011040014913,,,020,001,2019_May_13_1007,MusicAffectPsychophysiology2019,3.0.5,59.952714811639225,
To what extent did the music make you feel ,ASHAMED,30MonoWAV/30MonoS2.wav,1,1,3,10,,,,,1,7,23,9,0,10,10,4,,,,,,,,,3,1.249091612000484,,,020,001,2019_May_13_1007,MusicAffectPsychophysiology2019,3.0.5,59.952714811639225,
To what extent did the music make you feel ,ALERT,30MonoWAV/30MonoS2.wav,1,1,3,10,,,,,1,7,23,9,0,11,11,8,,,,,,,,,1,1.0185232579970034,,,020,001,2019_May_13_1007,MusicAffectPsychophysiology2019,3.0.5,59.952714811639225,
,,30MonoWAV/30MonoS2.wav,1,1,3,10,,,,,1,7,23,9,,,,,,,,,,,,,,,,,020,001,2019_May_13_1007,MusicAffectPsychophysiology2019,3.0.5,59.952714811639225,
To what extent did the music make you feel ,GUILTY,30MonoWAV/30MonoT3.wav,2,1,4,15,,,,,1,8,24,14,0,0,0,5,,,1,2.9558909439947456,3,2.752274457991007,2,1.6696525869920151,2,3.584328965007444,,,020,001,2019_May_13_1007,MusicAffectPsychophysiology2019,3.0.5,59.952714811639225,
To what extent did the music make you feel ,ANXIOUS ,30MonoWAV/30MonoT3.wav,2,1,4,15,,,,,1,8,24,14,0,1,1,1,,,,,,,,,1,1.1845337960112374,,,020,001,2019_May_13_1007,MusicAffectPsychophysiology2019,3.0.5,59.952714811639225,
To what extent did the music make you feel ,FRUSTRATED,30MonoWAV/30MonoT3.wav,2,1,4,15,,,,,1,8,24,14,0,2,2,3,,,,,,,,,1,0.8335075729992241,,,020,001,2019_May_13_1007,MusicAffectPsychophysiology2019,3.0.5,59.952714811639225,
To what extent did the music make you feel ,SAD,30MonoWAV/30MonoT3.wav,2,1,4,15,,,,,1,8,24,14,0,3,3,0,,,,,,,,,3,2.003104991003056,,,020,001,2019_May_13_1007,MusicAffectPsychophysiology2019,3.0.5,59.952714811639225,
To what extent did the music make you feel ,EXCITED,30MonoWAV/30MonoT3.wav,2,1,4,15,,,,,1,8,24,14,0,4,4,7,,,,,,,,,1,1.38144000498869,,,020,001,2019_May_13_1007,MusicAffectPsychophysiology2019,3.0.5,59.952714811639225,
To what extent did the music make you feel ,HAPPY,30MonoWAV/30MonoT3.wav,2,1,4,15,,,,,1,8,24,14,0,5,5,6,,,,,,,,,2,2.50340020499425,,,020,001,2019_May_13_1007,MusicAffectPsychophysiology2019,3.0.5,59.952714811639225,
To what extent did the music make you feel ,ASHAMED,30MonoWAV/30MonoT3.wav,2,1,4,15,,,,,1,8,24,14,0,6,6,4,,,,,,,,,3,1.2354514050093712,,,020,001,2019_May_13_1007,MusicAffectPsychophysiology2019,3.0.5,59.952714811639225,
To what extent did the music make you feel ,TENDER,30MonoWAV/30MonoT3.wav,2,1,4,15,,,,,1,8,24,14,0,7,7,10,,,,,,,,,4,1.1012113939941628,,,020,001,2019_May_13_1007,MusicAffectPsychophysiology2019,3.0.5,59.952714811639225,
To what extent did the music make you feel ,ALERT,30MonoWAV/30MonoT3.wav,2,1,4,15,,,,,1,8,24,14,0,8,8,8,,,,,,,,,1,0.9025091919902479,,,020,001,2019_May_13_1007,MusicAffectPsychophysiology2019,3.0.5,59.952714811639225,
To what extent did the music make you feel ,ACTIVE,30MonoWAV/30MonoT3.wav,2,1,4,15,,,,,1,8,24,14,0,9,9,9,,,,,,,,,1,1.3685154010017868,,,020,001,2019_May_13_1007,MusicAffectPsychophysiology2019,3.0.5,59.952714811639225,
To what extent did the music make you feel ,SCARED,30MonoWAV/30MonoT3.wav,2,1,4,15,,,,,1,8,24,14,0,10,10,11,,,,,,,,,1,0.8186855199892307,,,020,001,2019_May_13_1007,MusicAffectPsychophysiology2019,3.0.5,59.952714811639225,
To what extent did the music make you feel ,ANGRY,30MonoWAV/30MonoT3.wav,2,1,4,15,,,,,1,8,24,14,0,11,11,2,,,,,,,,,1,1.4674295040022116,,,020,001,2019_May_13_1007,MusicAffectPsychophysiology2019,3.0.5,59.952714811639225,
,,30MonoWAV/30MonoT3.wav,2,1,4,15,,,,,1,8,24,14,,,,,,,,,,,,,,,,,020,001,2019_May_13_1007,MusicAffectPsychophysiology2019,3.0.5,59.952714811639225,
To what extent did the music make you feel ,HAPPY,30MonoWAV/30MonoS4.wav,1,1,3,12,,,,,1,9,25,11,0,0,0,6,,,1,2.520091029989999,2,2.2832947059941944,2,1.5682942240091506,1,1.1675096709950594,,,020,001,2019_May_13_1007,MusicAffectPsychophysiology2019,3.0.5,59.952714811639225,
To what extent did the music make you feel ,ALERT,30MonoWAV/30MonoS4.wav,1,1,3,12,,,,,1,9,25,11,0,1,1,8,,,,,,,,,1,1.0346631010033889,,,020,001,2019_May_13_1007,MusicAffectPsychophysiology2019,3.0.5,59.952714811639225,
To what extent did the music make you feel ,FRUSTRATED,30MonoWAV/30MonoS4.wav,1,1,3,12,,,,,1,9,25,11,0,2,2,3,,,,,,,,,1,0.8518977490020916,,,020,001,2019_May_13_1007,MusicAffectPsychophysiology2019,3.0.5,59.952714811639225,
To what extent did the music make you feel ,ASHAMED,30MonoWAV/30MonoS4.wav,1,1,3,12,,,,,1,9,25,11,0,3,3,4,,,,,,,,,3,1.3351199140015524,,,020,001,2019_May_13_1007,MusicAffectPsychophysiology2019,3.0.5,59.952714811639225,
To what extent did the music make you feel ,EXCITED,30MonoWAV/30MonoS4.wav,1,1,3,12,,,,,1,9,25,11,0,4,4,7,,,,,,,,,1,1.0011618160060607,,,020,001,2019_May_13_1007,MusicAffectPsychophysiology2019,3.0.5,59.952714811639225,
To what extent did the music make you feel ,SCARED,30MonoWAV/30MonoS4.wav,1,1,3,12,,,,,1,9,25,11,0,5,5,11,,,,,,,,,1,1.3526482220040634,,,020,001,2019_May_13_1007,MusicAffectPsychophysiology2019,3.0.5,59.952714811639225,
To what extent did the music make you feel ,ANXIOUS ,30MonoWAV/30MonoS4.wav,1,1,3,12,,,,,1,9,25,11,0,6,6,1,,,,,,,,,1,1.1680368770030327,,,020,001,2019_May_13_1007,MusicAffectPsychophysiology2019,3.0.5,59.952714811639225,
To what extent did the music make you feel ,TENDER,30MonoWAV/30MonoS4.wav,1,1,3,12,,,,,1,9,25,11,0,7,7,10,,,,,,,,,4,1.2191702919953968,,,020,001,2019_May_13_1007,MusicAffectPsychophysiology2019,3.0.5,59.952714811639225,
To what extent did the music make you feel ,GUILTY,30MonoWAV/30MonoS4.wav,1,1,3,12,,,,,1,9,25,11,0,8,8,5,,,,,,,,,1,1.4516296360088745,,,020,001,2019_May_13_1007,MusicAffectPsychophysiology2019,3.0.5,59.952714811639225,
To what extent did the music make you feel ,ANGRY,30MonoWAV/30MonoS4.wav,1,1,3,12,,,,,1,9,25,11,0,9,9,2,,,,,,,,,1,1.0682533989893273,,,020,001,2019_May_13_1007,MusicAffectPsychophysiology2019,3.0.5,59.952714811639225,
To what extent did the music make you feel ,SAD,30MonoWAV/30MonoS4.wav,1,1,3,12,,,,,1,9,25,11,0,10,10,0,,,,,,,,,2,1.2857124160073,,,020,001,2019_May_13_1007,MusicAffectPsychophysiology2019,3.0.5,59.952714811639225,
To what extent did the music make you feel ,ACTIVE,30MonoWAV/30MonoS4.wav,1,1,3,12,,,,,1,9,25,11,0,11,11,9,,,,,,,,,1,1.00124076299835,,,020,001,2019_May_13_1007,MusicAffectPsychophysiology2019,3.0.5,59.952714811639225,
,,30MonoWAV/30MonoS4.wav,1,1,3,12,,,,,1,9,25,11,,,,,,,,,,,,,,,,,020,001,2019_May_13_1007,MusicAffectPsychophysiology2019,3.0.5,59.952714811639225,
To what extent did the music make you feel ,SCARED,30MonoWAV/30MonoF3.wav,1,2,2,3,,,,,1,10,26,2,0,0,0,11,,,3,2.790166060003685,1,2.1185444919974543,1,1.3186660110077355,3,3.168059738003649,,,020,001,2019_May_13_1007,MusicAffectPsychophysiology2019,3.0.5,59.952714811639225,
To what extent did the music make you feel ,SAD,30MonoWAV/30MonoF3.wav,1,2,2,3,,,,,1,10,26,2,0,1,1,0,,,,,,,,,1,1.0687745140021434,,,020,001,2019_May_13_1007,MusicAffectPsychophysiology2019,3.0.5,59.952714811639225,
To what extent did the music make you feel ,ASHAMED,30MonoWAV/30MonoF3.wav,1,2,2,3,,,,,1,10,26,2,0,2,2,4,,,,,,,,,2,1.3017604030028451,,,020,001,2019_May_13_1007,MusicAffectPsychophysiology2019,3.0.5,59.952714811639225,
To what extent did the music make you feel ,ACTIVE,30MonoWAV/30MonoF3.wav,1,2,2,3,,,,,1,10,26,2,0,3,3,9,,,,,,,,,2,2.101821055999608,,,020,001,2019_May_13_1007,MusicAffectPsychophysiology2019,3.0.5,59.952714811639225,
To what extent did the music make you feel ,TENDER,30MonoWAV/30MonoF3.wav,1,2,2,3,,,,,1,10,26,2,0,4,4,10,,,,,,,,,1,1.3345394320058404,,,020,001,2019_May_13_1007,MusicAffectPsychophysiology2019,3.0.5,59.952714811639225,
To what extent did the music make you feel ,EXCITED,30MonoWAV/30MonoF3.wav,1,2,2,3,,,,,1,10,26,2,0,5,5,7,,,,,,,,,1,0.9498921019985573,,,020,001,2019_May_13_1007,MusicAffectPsychophysiology2019,3.0.5,59.952714811639225,
To what extent did the music make you feel ,HAPPY,30MonoWAV/30MonoF3.wav,1,2,2,3,,,,,1,10,26,2,0,6,6,6,,,,,,,,,1,0.9517520210065413,,,020,001,2019_May_13_1007,MusicAffectPsychophysiology2019,3.0.5,59.952714811639225,
To what extent did the music make you feel ,ANGRY,30MonoWAV/30MonoF3.wav,1,2,2,3,,,,,1,10,26,2,0,7,7,2,,,,,,,,,3,1.1853870499908226,,,020,001,2019_May_13_1007,MusicAffectPsychophysiology2019,3.0.5,59.952714811639225,
To what extent did the music make you feel ,FRUSTRATED,30MonoWAV/30MonoF3.wav,1,2,2,3,,,,,1,10,26,2,0,8,8,3,,,,,,,,,4,1.3675462440005504,,,020,001,2019_May_13_1007,MusicAffectPsychophysiology2019,3.0.5,59.952714811639225,
To what extent did the music make you feel ,ALERT,30MonoWAV/30MonoF3.wav,1,2,2,3,,,,,1,10,26,2,0,9,9,8,,,,,,,,,3,2.0517527960037114,,,020,001,2019_May_13_1007,MusicAffectPsychophysiology2019,3.0.5,59.952714811639225,
To what extent did the music make you feel ,GUILTY,30MonoWAV/30MonoF3.wav,1,2,2,3,,,,,1,10,26,2,0,10,10,5,,,,,,,,,2,1.1687420349917375,,,020,001,2019_May_13_1007,MusicAffectPsychophysiology2019,3.0.5,59.952714811639225,
To what extent did the music make you feel ,ANXIOUS ,30MonoWAV/30MonoF3.wav,1,2,2,3,,,,,1,10,26,2,0,11,11,1,,,,,,,,,3,1.7015459130052477,,,020,001,2019_May_13_1007,MusicAffectPsychophysiology2019,3.0.5,59.952714811639225,
,,30MonoWAV/30MonoF3.wav,1,2,2,3,,,,,1,10,26,2,,,,,,,,,,,,,,,,,020,001,2019_May_13_1007,MusicAffectPsychophysiology2019,3.0.5,59.952714811639225,
To what extent did the music make you feel ,ALERT,30MonoWAV/30MonoF1.wav,1,2,2,1,,,,,1,11,27,0,0,0,0,8,,,4,4.269051531009609,1,1.417409219997353,1,0.9852782240050146,4,1.8688681530038593,,,020,001,2019_May_13_1007,MusicAffectPsychophysiology2019,3.0.5,59.952714811639225,
To what extent did the music make you feel ,ASHAMED,30MonoWAV/30MonoF1.wav,1,2,2,1,,,,,1,11,27,0,0,1,1,4,,,,,,,,,1,1.250670765992254,,,020,001,2019_May_13_1007,MusicAffectPsychophysiology2019,3.0.5,59.952714811639225,
To what extent did the music make you feel ,ACTIVE,30MonoWAV/30MonoF1.wav,1,2,2,1,,,,,1,11,27,0,0,2,2,9,,,,,,,,,3,2.919271541002672,,,020,001,2019_May_13_1007,MusicAffectPsychophysiology2019,3.0.5,59.952714811639225,
To what extent did the music make you feel ,SAD,30MonoWAV/30MonoF1.wav,1,2,2,1,,,,,1,11,27,0,0,3,3,0,,,,,,,,,1,1.269226061005611,,,020,001,2019_May_13_1007,MusicAffectPsychophysiology2019,3.0.5,59.952714811639225,
To what extent did the music make you feel ,GUILTY,30MonoWAV/30MonoF1.wav,1,2,2,1,,,,,1,11,27,0,0,4,4,5,,,,,,,,,1,1.200459090003278,,,020,001,2019_May_13_1007,MusicAffectPsychophysiology2019,3.0.5,59.952714811639225,
To what extent did the music make you feel ,SCARED,30MonoWAV/30MonoF1.wav,1,2,2,1,,,,,1,11,27,0,0,5,5,11,,,,,,,,,2,1.5030264450033428,,,020,001,2019_May_13_1007,MusicAffectPsychophysiology2019,3.0.5,59.952714811639225,
To what extent did the music make you feel ,ANGRY,30MonoWAV/30MonoF1.wav,1,2,2,1,,,,,1,11,27,0,0,6,6,2,,,,,,,,,4,1.5029275760025484,,,020,001,2019_May_13_1007,MusicAffectPsychophysiology2019,3.0.5,59.952714811639225,
To what extent did the music make you feel ,EXCITED,30MonoWAV/30MonoF1.wav,1,2,2,1,,,,,1,11,27,0,0,7,7,7,,,,,,,,,1,1.2691347840009257,,,020,001,2019_May_13_1007,MusicAffectPsychophysiology2019,3.0.5,59.952714811639225,
To what extent did the music make you feel ,ANXIOUS ,30MonoWAV/30MonoF1.wav,1,2,2,1,,,,,1,11,27,0,0,8,8,1,,,,,,,,,4,1.1355853659915738,,,020,001,2019_May_13_1007,MusicAffectPsychophysiology2019,3.0.5,59.952714811639225,
To what extent did the music make you feel ,HAPPY,30MonoWAV/30MonoF1.wav,1,2,2,1,,,,,1,11,27,0,0,9,9,6,,,,,,,,,1,0.8858460960036609,,,020,001,2019_May_13_1007,MusicAffectPsychophysiology2019,3.0.5,59.952714811639225,
To what extent did the music make you feel ,TENDER,30MonoWAV/30MonoF1.wav,1,2,2,1,,,,,1,11,27,0,0,10,10,10,,,,,,,,,1,1.0516848619881785,,,020,001,2019_May_13_1007,MusicAffectPsychophysiology2019,3.0.5,59.952714811639225,
To what extent did the music make you feel ,FRUSTRATED,30MonoWAV/30MonoF1.wav,1,2,2,1,,,,,1,11,27,0,0,11,11,3,,,,,,,,,5,2.217580951997661,,,020,001,2019_May_13_1007,MusicAffectPsychophysiology2019,3.0.5,59.952714811639225,
,,30MonoWAV/30MonoF1.wav,1,2,2,1,,,,,1,11,27,0,,,,,,,,,,,,,,,,,020,001,2019_May_13_1007,MusicAffectPsychophysiology2019,3.0.5,59.952714811639225,
To what extent did the music make you feel ,HAPPY,30MonoWAV/30MonoH1.wav,2,2,1,5,,,,,1,12,28,4,0,0,0,6,,,3,4.035861130992998,4,3.4679637759982143,2,1.683548786008032,4,3.2855936940031825,,,020,001,2019_May_13_1007,MusicAffectPsychophysiology2019,3.0.5,59.952714811639225,
To what extent did the music make you feel ,SAD,30MonoWAV/30MonoH1.wav,2,2,1,5,,,,,1,12,28,4,0,1,1,0,,,,,,,,,1,1.0835886639979435,,,020,001,2019_May_13_1007,MusicAffectPsychophysiology2019,3.0.5,59.952714811639225,
To what extent did the music make you feel ,EXCITED,30MonoWAV/30MonoH1.wav,2,2,1,5,,,,,1,12,28,4,0,2,2,7,,,,,,,,,2,4.334434345000773,,,020,001,2019_May_13_1007,MusicAffectPsychophysiology2019,3.0.5,59.952714811639225,
To what extent did the music make you feel ,TENDER,30MonoWAV/30MonoH1.wav,2,2,1,5,,,,,1,12,28,4,0,3,3,10,,,,,,,,,1,0.8843985389976297,,,020,001,2019_May_13_1007,MusicAffectPsychophysiology2019,3.0.5,59.952714811639225,
To what extent did the music make you feel ,FRUSTRATED,30MonoWAV/30MonoH1.wav,2,2,1,5,,,,,1,12,28,4,0,4,4,3,,,,,,,,,1,0.9504720160039142,,,020,001,2019_May_13_1007,MusicAffectPsychophysiology2019,3.0.5,59.952714811639225,
To what extent did the music make you feel ,ACTIVE,30MonoWAV/30MonoH1.wav,2,2,1,5,,,,,1,12,28,4,0,5,5,9,,,,,,,,,3,1.7844682970026042,,,020,001,2019_May_13_1007,MusicAffectPsychophysiology2019,3.0.5,59.952714811639225,
To what extent did the music make you feel ,ANXIOUS ,30MonoWAV/30MonoH1.wav,2,2,1,5,,,,,1,12,28,4,0,6,6,1,,,,,,,,,1,1.318840966996504,,,020,001,2019_May_13_1007,MusicAffectPsychophysiology2019,3.0.5,59.952714811639225,
To what extent did the music make you feel ,SCARED,30MonoWAV/30MonoH1.wav,2,2,1,5,,,,,1,12,28,4,0,7,7,11,,,,,,,,,1,0.8836028199875727,,,020,001,2019_May_13_1007,MusicAffectPsychophysiology2019,3.0.5,59.952714811639225,
To what extent did the music make you feel ,GUILTY,30MonoWAV/30MonoH1.wav,2,2,1,5,,,,,1,12,28,4,0,8,8,5,,,,,,,,,1,0.7690023600007407,,,020,001,2019_May_13_1007,MusicAffectPsychophysiology2019,3.0.5,59.952714811639225,
To what extent did the music make you feel ,ANGRY,30MonoWAV/30MonoH1.wav,2,2,1,5,,,,,1,12,28,4,0,9,9,2,,,,,,,,,1,0.7850162149989046,,,020,001,2019_May_13_1007,MusicAffectPsychophysiology2019,3.0.5,59.952714811639225,
To what extent did the music make you feel ,ASHAMED,30MonoWAV/30MonoH1.wav,2,2,1,5,,,,,1,12,28,4,0,10,10,4,,,,,,,,,1,0.8345642240019515,,,020,001,2019_May_13_1007,MusicAffectPsychophysiology2019,3.0.5,59.952714811639225,
To what extent did the music make you feel ,ALERT,30MonoWAV/30MonoH1.wav,2,2,1,5,,,,,1,12,28,4,0,11,11,8,,,,,,,,,3,2.0684768469945993,,,020,001,2019_May_13_1007,MusicAffectPsychophysiology2019,3.0.5,59.952714811639225,
,,30MonoWAV/30MonoH1.wav,2,2,1,5,,,,,1,12,28,4,,,,,,,,,,,,,,,,,020,001,2019_May_13_1007,MusicAffectPsychophysiology2019,3.0.5,59.952714811639225,
To what extent did the music make you feel ,ACTIVE,30MonoWAV/30MonoH2.wav,2,2,1,6,,,,,1,13,29,5,0,0,0,9,,,2,3.7890920829959214,2,1.5378942179959267,2,1.574025170004461,1,1.8178921030048514,,,020,001,2019_May_13_1007,MusicAffectPsychophysiology2019,3.0.5,59.952714811639225,
To what extent did the music make you feel ,SCARED,30MonoWAV/30MonoH2.wav,2,2,1,6,,,,,1,13,29,5,0,1,1,11,,,,,,,,,1,0.886362511999323,,,020,001,2019_May_13_1007,MusicAffectPsychophysiology2019,3.0.5,59.952714811639225,
To what extent did the music make you feel ,GUILTY,30MonoWAV/30MonoH2.wav,2,2,1,6,,,,,1,13,29,5,0,2,2,5,,,,,,,,,3,2.9701795500004664,,,020,001,2019_May_13_1007,MusicAffectPsychophysiology2019,3.0.5,59.952714811639225,
To what extent did the music make you feel ,SAD,30MonoWAV/30MonoH2.wav,2,2,1,6,,,,,1,13,29,5,0,3,3,0,,,,,,,,,1,2.5024038510018727,,,020,001,2019_May_13_1007,MusicAffectPsychophysiology2019,3.0.5,59.952714811639225,
To what extent did the music make you feel ,FRUSTRATED,30MonoWAV/30MonoH2.wav,2,2,1,6,,,,,1,13,29,5,0,4,4,3,,,,,,,,,1,1.0851607719960157,,,020,001,2019_May_13_1007,MusicAffectPsychophysiology2019,3.0.5,59.952714811639225,
To what extent did the music make you feel ,ALERT,30MonoWAV/30MonoH2.wav,2,2,1,6,,,,,1,13,29,5,0,5,5,8,,,,,,,,,2,1.9516934389976086,,,020,001,2019_May_13_1007,MusicAffectPsychophysiology2019,3.0.5,59.952714811639225,
To what extent did the music make you feel ,ANXIOUS ,30MonoWAV/30MonoH2.wav,2,2,1,6,,,,,1,13,29,5,0,6,6,1,,,,,,,,,1,1.134890183006064,,,020,001,2019_May_13_1007,MusicAffectPsychophysiology2019,3.0.5,59.952714811639225,
To what extent did the music make you feel ,HAPPY,30MonoWAV/30MonoH2.wav,2,2,1,6,,,,,1,13,29,5,0,7,7,6,,,,,,,,,2,1.0689946719940053,,,020,001,2019_May_13_1007,MusicAffectPsychophysiology2019,3.0.5,59.952714811639225,
To what extent did the music make you feel ,TENDER,30MonoWAV/30MonoH2.wav,2,2,1,6,,,,,1,13,29,5,0,8,8,10,,,,,,,,,2,1.202882440004032,,,020,001,2019_May_13_1007,MusicAffectPsychophysiology2019,3.0.5,59.952714811639225,
To what extent did the music make you feel ,EXCITED,30MonoWAV/30MonoH2.wav,2,2,1,6,,,,,1,13,29,5,0,9,9,7,,,,,,,,,1,0.9671422179962974,,,020,001,2019_May_13_1007,MusicAffectPsychophysiology2019,3.0.5,59.952714811639225,
To what extent did the music make you feel ,ASHAMED,30MonoWAV/30MonoH2.wav,2,2,1,6,,,,,1,13,29,5,0,10,10,4,,,,,,,,,2,2.403535955992993,,,020,001,2019_May_13_1007,MusicAffectPsychophysiology2019,3.0.5,59.952714811639225,
To what extent did the music make you feel ,ANGRY,30MonoWAV/30MonoH2.wav,2,2,1,6,,,,,1,13,29,5,0,11,11,2,,,,,,,,,1,2.0241040519904345,,,020,001,2019_May_13_1007,MusicAffectPsychophysiology2019,3.0.5,59.952714811639225,
,,30MonoWAV/30MonoH2.wav,2,2,1,6,,,,,1,13,29,5,,,,,,,,,,,,,,,,,020,001,2019_May_13_1007,MusicAffectPsychophysiology2019,3.0.5,59.952714811639225,
To what extent did the music make you feel ,HAPPY,30MonoWAV/30MonoF2.wav,1,2,2,2,,,,,1,14,30,1,0,0,0,6,,,2,2.9009546849993058,1,1.301475770000252,2,1.3074275249964558,1,2.752226372002042,,,020,001,2019_May_13_1007,MusicAffectPsychophysiology2019,3.0.5,59.952714811639225,
To what extent did the music make you feel ,ANGRY,30MonoWAV/30MonoF2.wav,1,2,2,2,,,,,1,14,30,1,0,1,1,2,,,,,,,,,2,1.267299618004472,,,020,001,2019_May_13_1007,MusicAffectPsychophysiology2019,3.0.5,59.952714811639225,
To what extent did the music make you feel ,TENDER,30MonoWAV/30MonoF2.wav,1,2,2,2,,,,,1,14,30,1,0,2,2,10,,,,,,,,,1,1.5341146279970417,,,020,001,2019_May_13_1007,MusicAffectPsychophysiology2019,3.0.5,59.952714811639225,
To what extent did the music make you feel ,ASHAMED,30MonoWAV/30MonoF2.wav,1,2,2,2,,,,,1,14,30,1,0,3,3,4,,,,,,,,,2,2.56902727499255,,,020,001,2019_May_13_1007,MusicAffectPsychophysiology2019,3.0.5,59.952714811639225,
To what extent did the music make you feel ,ANXIOUS ,30MonoWAV/30MonoF2.wav,1,2,2,2,,,,,1,14,30,1,0,4,4,1,,,,,,,,,2,1.0189157400018303,,,020,001,2019_May_13_1007,MusicAffectPsychophysiology2019,3.0.5,59.952714811639225,
To what extent did the music make you feel ,SAD,30MonoWAV/30MonoF2.wav,1,2,2,2,,,,,1,14,30,1,0,5,5,0,,,,,,,,,2,1.8349153580056736,,,020,001,2019_May_13_1007,MusicAffectPsychophysiology2019,3.0.5,59.952714811639225,
To what extent did the music make you feel ,ALERT,30MonoWAV/30MonoF2.wav,1,2,2,2,,,,,1,14,30,1,0,6,6,8,,,,,,,,,2,1.8685349870065693,,,020,001,2019_May_13_1007,MusicAffectPsychophysiology2019,3.0.5,59.952714811639225,
To what extent did the music make you feel ,EXCITED,30MonoWAV/30MonoF2.wav,1,2,2,2,,,,,1,14,30,1,0,7,7,7,,,,,,,,,1,0.8508079839957645,,,020,001,2019_May_13_1007,MusicAffectPsychophysiology2019,3.0.5,59.952714811639225,
To what extent did the music make you feel ,FRUSTRATED,30MonoWAV/30MonoF2.wav,1,2,2,2,,,,,1,14,30,1,0,8,8,3,,,,,,,,,3,1.7186214239918627,,,020,001,2019_May_13_1007,MusicAffectPsychophysiology2019,3.0.5,59.952714811639225,
To what extent did the music make you feel ,ACTIVE,30MonoWAV/30MonoF2.wav,1,2,2,2,,,,,1,14,30,1,0,9,9,9,,,,,,,,,1,1.1517841790046077,,,020,001,2019_May_13_1007,MusicAffectPsychophysiology2019,3.0.5,59.952714811639225,
To what extent did the music make you feel ,SCARED,30MonoWAV/30MonoF2.wav,1,2,2,2,,,,,1,14,30,1,0,10,10,11,,,,,,,,,3,1.8730871040024795,,,020,001,2019_May_13_1007,MusicAffectPsychophysiology2019,3.0.5,59.952714811639225,
To what extent did the music make you feel ,GUILTY,30MonoWAV/30MonoF2.wav,1,2,2,2,,,,,1,14,30,1,0,11,11,5,,,,,,,,,2,2.554749784001615,,,020,001,2019_May_13_1007,MusicAffectPsychophysiology2019,3.0.5,59.952714811639225,
,,30MonoWAV/30MonoF2.wav,1,2,2,2,,,,,1,14,30,1,,,,,,,,,,,,,,,,,020,001,2019_May_13_1007,MusicAffectPsychophysiology2019,3.0.5,59.952714811639225,
To what extent did the music make you feel ,ANGRY,30MonoWAV/30MonoT2.wav,2,1,4,14,,,,,1,15,31,13,0,0,0,2,,,1,2.4509788189898245,3,1.6520823939936236,3,1.8030124940123642,1,1.0860695110022789,,,020,001,2019_May_13_1007,MusicAffectPsychophysiology2019,3.0.5,59.952714811639225,
To what extent did the music make you feel ,SCARED,30MonoWAV/30MonoT2.wav,2,1,4,14,,,,,1,15,31,13,0,1,1,11,,,,,,,,,1,0.7517502160044387,,,020,001,2019_May_13_1007,MusicAffectPsychophysiology2019,3.0.5,59.952714811639225,
To what extent did the music make you feel ,FRUSTRATED,30MonoWAV/30MonoT2.wav,2,1,4,14,,,,,1,15,31,13,0,2,2,3,,,,,,,,,1,0.6853296810004395,,,020,001,2019_May_13_1007,MusicAffectPsychophysiology2019,3.0.5,59.952714811639225,
To what extent did the music make you feel ,ANXIOUS ,30MonoWAV/30MonoT2.wav,2,1,4,14,,,,,1,15,31,13,0,3,3,1,,,,,,,,,1,0.8182528870092938,,,020,001,2019_May_13_1007,MusicAffectPsychophysiology2019,3.0.5,59.952714811639225,
To what extent did the music make you feel ,GUILTY,30MonoWAV/30MonoT2.wav,2,1,4,14,,,,,1,15,31,13,0,4,4,5,,,,,,,,,2,1.1856906439934392,,,020,001,2019_May_13_1007,MusicAffectPsychophysiology2019,3.0.5,59.952714811639225,
To what extent did the music make you feel ,EXCITED,30MonoWAV/30MonoT2.wav,2,1,4,14,,,,,1,15,31,13,0,5,5,7,,,,,,,,,1,0.8835184199997457,,,020,001,2019_May_13_1007,MusicAffectPsychophysiology2019,3.0.5,59.952714811639225,
To what extent did the music make you feel ,ALERT,30MonoWAV/30MonoT2.wav,2,1,4,14,,,,,1,15,31,13,0,6,6,8,,,,,,,,,1,0.8853478040109621,,,020,001,2019_May_13_1007,MusicAffectPsychophysiology2019,3.0.5,59.952714811639225,
To what extent did the music make you feel ,ASHAMED,30MonoWAV/30MonoT2.wav,2,1,4,14,,,,,1,15,31,13,0,7,7,4,,,,,,,,,3,1.5343911739910254,,,020,001,2019_May_13_1007,MusicAffectPsychophysiology2019,3.0.5,59.952714811639225,
To what extent did the music make you feel ,SAD,30MonoWAV/30MonoT2.wav,2,1,4,14,,,,,1,15,31,13,0,8,8,0,,,,,,,,,1,1.2347074980061734,,,020,001,2019_May_13_1007,MusicAffectPsychophysiology2019,3.0.5,59.952714811639225,
To what extent did the music make you feel ,TENDER,30MonoWAV/30MonoT2.wav,2,1,4,14,,,,,1,15,31,13,0,9,9,10,,,,,,,,,4,1.58493118500337,,,020,001,2019_May_13_1007,MusicAffectPsychophysiology2019,3.0.5,59.952714811639225,
To what extent did the music make you feel ,ACTIVE,30MonoWAV/30MonoT2.wav,2,1,4,14,,,,,1,15,31,13,0,10,10,9,,,,,,,,,1,1.0349534130073152,,,020,001,2019_May_13_1007,MusicAffectPsychophysiology2019,3.0.5,59.952714811639225,
To what extent did the music make you feel ,HAPPY,30MonoWAV/30MonoT2.wav,2,1,4,14,,,,,1,15,31,13,0,11,11,6,,,,,,,,,2,2.7012631469988264,,,020,001,2019_May_13_1007,MusicAffectPsychophysiology2019,3.0.5,59.952714811639225,
,,30MonoWAV/30MonoT2.wav,2,1,4,14,,,,,1,15,31,13,,,,,,,,,,,,,,,,,020,001,2019_May_13_1007,MusicAffectPsychophysiology2019,3.0.5,59.952714811639225,
,,,,,,,,,,,,,,,,,,,,,,,,,,,,,space,3.9008974419994047,020,001,2019_May_13_1007,MusicAffectPsychophysiology2019,3.0.5,59.952714811639225,
