Instruction,Word,song,valence,arousal,affectcat,songmark,pracwords.thisRepN,pracwords.thisTrialN,pracwords.thisN,pracwords.thisIndex,songtrials.thisRepN,songtrials.thisTrialN,songtrials.thisN,songtrials.thisIndex,words.thisRepN,words.thisTrialN,words.thisN,words.thisIndex,begin.keys,begin.rt,arousalkey.keys,arousalkey.rt,valencekey.keys,valencekey.rt,likekey.keys,likekey.rt,WordResponse.keys,WordResponse.rt,key_resp_2.keys,key_resp_2.rt,participant,session,date,expName,psychopyVersion,frameRate,
,,,,,,,,,,,,,,,,,,,space,9.120204977996764,,,,,,,,,,,021,001,2019_May_13_1110,MusicAffectPsychophysiology2019,3.0.5,59.922811626538774,
,,,,,,,,,,,,,,,,,,,,,4,5.234416492006858,,,,,,,,,021,001,2019_May_13_1110,MusicAffectPsychophysiology2019,3.0.5,59.922811626538774,
,,,,,,,,,,,,,,,,,,,,,,,4,4.551859212006093,,,,,,,021,001,2019_May_13_1110,MusicAffectPsychophysiology2019,3.0.5,59.922811626538774,
,,,,,,,,,,,,,,,,,,,,,,,,,4,2.768011784995906,,,,,021,001,2019_May_13_1110,MusicAffectPsychophysiology2019,3.0.5,59.922811626538774,
To what extent did the music make you feel ,HAPPY,,,,,,0,0,0,6,,,,,,,,,,,,,,,,,4,5.301266921989736,,,021,001,2019_May_13_1110,MusicAffectPsychophysiology2019,3.0.5,59.922811626538774,
To what extent did the music make you feel ,SCARED,,,,,,0,1,1,11,,,,,,,,,,,,,,,,,1,1.802071669997531,,,021,001,2019_May_13_1110,MusicAffectPsychophysiology2019,3.0.5,59.922811626538774,
To what extent did the music make you feel ,FRUSTRATED,,,,,,0,2,2,3,,,,,,,,,,,,,,,,,1,3.185019866010407,,,021,001,2019_May_13_1110,MusicAffectPsychophysiology2019,3.0.5,59.922811626538774,
To what extent did the music make you feel ,ANGRY,,,,,,0,3,3,2,,,,,,,,,,,,,,,,,1,0.6676338490069611,,,021,001,2019_May_13_1110,MusicAffectPsychophysiology2019,3.0.5,59.922811626538774,
To what extent did the music make you feel ,TENDER,,,,,,0,4,4,10,,,,,,,,,,,,,,,,,5,1.7507057320035528,,,021,001,2019_May_13_1110,MusicAffectPsychophysiology2019,3.0.5,59.922811626538774,
To what extent did the music make you feel ,ANXIOUS ,,,,,,0,5,5,1,,,,,,,,,,,,,,,,,1,2.5346864390012342,,,021,001,2019_May_13_1110,MusicAffectPsychophysiology2019,3.0.5,59.922811626538774,
To what extent did the music make you feel ,EXCITED,,,,,,0,6,6,7,,,,,,,,,,,,,,,,,3,1.9693183850031346,,,021,001,2019_May_13_1110,MusicAffectPsychophysiology2019,3.0.5,59.922811626538774,
To what extent did the music make you feel ,ASHAMED,,,,,,0,7,7,4,,,,,,,,,,,,,,,,,1,1.367467782998574,,,021,001,2019_May_13_1110,MusicAffectPsychophysiology2019,3.0.5,59.922811626538774,
To what extent did the music make you feel ,ACTIVE,,,,,,0,8,8,9,,,,,,,,,,,,,,,,,4,3.4517362199985655,,,021,001,2019_May_13_1110,MusicAffectPsychophysiology2019,3.0.5,59.922811626538774,
To what extent did the music make you feel ,GUILTY,,,,,,0,9,9,5,,,,,,,,,,,,,,,,,1,4.2853595149936154,,,021,001,2019_May_13_1110,MusicAffectPsychophysiology2019,3.0.5,59.922811626538774,
To what extent did the music make you feel ,ALERT,,,,,,0,10,10,8,,,,,,,,,,,,,,,,,2,4.917991089998395,,,021,001,2019_May_13_1110,MusicAffectPsychophysiology2019,3.0.5,59.922811626538774,
To what extent did the music make you feel ,SAD,,,,,,0,11,11,0,,,,,,,,,,,,,,,,,2,4.849468141008401,,,021,001,2019_May_13_1110,MusicAffectPsychophysiology2019,3.0.5,59.922811626538774,
To what extent did the music make you feel ,ASHAMED,30MonoWAV/30MonoF1.wav,1,2,2,1,,,,,0,0,0,0,0,0,0,4,,,2,3.785174429998733,1,3.318665389000671,3,2.9853543999925023,1,1.9189488780102693,,,021,001,2019_May_13_1110,MusicAffectPsychophysiology2019,3.0.5,59.922811626538774,
To what extent did the music make you feel ,ACTIVE,30MonoWAV/30MonoF1.wav,1,2,2,1,,,,,0,0,0,0,0,1,1,9,,,,,,,,,2,1.6174697850074153,,,021,001,2019_May_13_1110,MusicAffectPsychophysiology2019,3.0.5,59.922811626538774,
To what extent did the music make you feel ,ANXIOUS ,30MonoWAV/30MonoF1.wav,1,2,2,1,,,,,0,0,0,0,0,2,2,1,,,,,,,,,4,2.3511772959900554,,,021,001,2019_May_13_1110,MusicAffectPsychophysiology2019,3.0.5,59.922811626538774,
To what extent did the music make you feel ,GUILTY,30MonoWAV/30MonoF1.wav,1,2,2,1,,,,,0,0,0,0,0,3,3,5,,,,,,,,,1,1.7848365889949491,,,021,001,2019_May_13_1110,MusicAffectPsychophysiology2019,3.0.5,59.922811626538774,
To what extent did the music make you feel ,ALERT,30MonoWAV/30MonoF1.wav,1,2,2,1,,,,,0,0,0,0,0,4,4,8,,,,,,,,,5,2.798319834007998,,,021,001,2019_May_13_1110,MusicAffectPsychophysiology2019,3.0.5,59.922811626538774,
To what extent did the music make you feel ,EXCITED,30MonoWAV/30MonoF1.wav,1,2,2,1,,,,,0,0,0,0,0,5,5,7,,,,,,,,,2,2.951665443004458,,,021,001,2019_May_13_1110,MusicAffectPsychophysiology2019,3.0.5,59.922811626538774,
To what extent did the music make you feel ,FRUSTRATED,30MonoWAV/30MonoF1.wav,1,2,2,1,,,,,0,0,0,0,0,6,6,3,,,,,,,,,1,2.4186523749958724,,,021,001,2019_May_13_1110,MusicAffectPsychophysiology2019,3.0.5,59.922811626538774,
To what extent did the music make you feel ,HAPPY,30MonoWAV/30MonoF1.wav,1,2,2,1,,,,,0,0,0,0,0,7,7,6,,,,,,,,,2,1.5851877180102747,,,021,001,2019_May_13_1110,MusicAffectPsychophysiology2019,3.0.5,59.922811626538774,
To what extent did the music make you feel ,ANGRY,30MonoWAV/30MonoF1.wav,1,2,2,1,,,,,0,0,0,0,0,8,8,2,,,,,,,,,1,4.017870652998681,,,021,001,2019_May_13_1110,MusicAffectPsychophysiology2019,3.0.5,59.922811626538774,
To what extent did the music make you feel ,TENDER,30MonoWAV/30MonoF1.wav,1,2,2,1,,,,,0,0,0,0,0,9,9,10,,,,,,,,,1,0.9503804599953583,,,021,001,2019_May_13_1110,MusicAffectPsychophysiology2019,3.0.5,59.922811626538774,
To what extent did the music make you feel ,SAD,30MonoWAV/30MonoF1.wav,1,2,2,1,,,,,0,0,0,0,0,10,10,0,,,,,,,,,1,1.467603978002444,,,021,001,2019_May_13_1110,MusicAffectPsychophysiology2019,3.0.5,59.922811626538774,
To what extent did the music make you feel ,SCARED,30MonoWAV/30MonoF1.wav,1,2,2,1,,,,,0,0,0,0,0,11,11,11,,,,,,,,,4,2.6680154950008728,,,021,001,2019_May_13_1110,MusicAffectPsychophysiology2019,3.0.5,59.922811626538774,
,,30MonoWAV/30MonoF1.wav,1,2,2,1,,,,,0,0,0,0,,,,,,,,,,,,,,,,,021,001,2019_May_13_1110,MusicAffectPsychophysiology2019,3.0.5,59.922811626538774,
To what extent did the music make you feel ,ANGRY,30MonoWAV/30MonoS4.wav,1,1,3,12,,,,,0,1,1,11,0,0,0,2,,,1,3.751097790998756,1,2.8012908629898448,3,2.8352238010120345,1,2.51829919499869,,,021,001,2019_May_13_1110,MusicAffectPsychophysiology2019,3.0.5,59.922811626538774,
To what extent did the music make you feel ,SCARED,30MonoWAV/30MonoS4.wav,1,1,3,12,,,,,0,1,1,11,0,1,1,11,,,,,,,,,1,0.6015669870103011,,,021,001,2019_May_13_1110,MusicAffectPsychophysiology2019,3.0.5,59.922811626538774,
To what extent did the music make you feel ,FRUSTRATED,30MonoWAV/30MonoS4.wav,1,1,3,12,,,,,0,1,1,11,0,2,2,3,,,,,,,,,1,1.301542403001804,,,021,001,2019_May_13_1110,MusicAffectPsychophysiology2019,3.0.5,59.922811626538774,
To what extent did the music make you feel ,GUILTY,30MonoWAV/30MonoS4.wav,1,1,3,12,,,,,0,1,1,11,0,3,3,5,,,,,,,,,2,1.4184199690062087,,,021,001,2019_May_13_1110,MusicAffectPsychophysiology2019,3.0.5,59.922811626538774,
To what extent did the music make you feel ,ASHAMED,30MonoWAV/30MonoS4.wav,1,1,3,12,,,,,0,1,1,11,0,4,4,4,,,,,,,,,2,1.2341605889960192,,,021,001,2019_May_13_1110,MusicAffectPsychophysiology2019,3.0.5,59.922811626538774,
To what extent did the music make you feel ,EXCITED,30MonoWAV/30MonoS4.wav,1,1,3,12,,,,,0,1,1,11,0,5,5,7,,,,,,,,,1,1.8349809650098905,,,021,001,2019_May_13_1110,MusicAffectPsychophysiology2019,3.0.5,59.922811626538774,
To what extent did the music make you feel ,TENDER,30MonoWAV/30MonoS4.wav,1,1,3,12,,,,,0,1,1,11,0,6,6,10,,,,,,,,,5,2.4352211310033454,,,021,001,2019_May_13_1110,MusicAffectPsychophysiology2019,3.0.5,59.922811626538774,
To what extent did the music make you feel ,SAD,30MonoWAV/30MonoS4.wav,1,1,3,12,,,,,0,1,1,11,0,7,7,0,,,,,,,,,3,2.333382832002826,,,021,001,2019_May_13_1110,MusicAffectPsychophysiology2019,3.0.5,59.922811626538774,
To what extent did the music make you feel ,HAPPY,30MonoWAV/30MonoS4.wav,1,1,3,12,,,,,0,1,1,11,0,8,8,6,,,,,,,,,1,2.002555544997449,,,021,001,2019_May_13_1110,MusicAffectPsychophysiology2019,3.0.5,59.922811626538774,
To what extent did the music make you feel ,ACTIVE,30MonoWAV/30MonoS4.wav,1,1,3,12,,,,,0,1,1,11,0,9,9,9,,,,,,,,,1,0.7901467019983102,,,021,001,2019_May_13_1110,MusicAffectPsychophysiology2019,3.0.5,59.922811626538774,
To what extent did the music make you feel ,ALERT,30MonoWAV/30MonoS4.wav,1,1,3,12,,,,,0,1,1,11,0,10,10,8,,,,,,,,,1,1.5869097959948704,,,021,001,2019_May_13_1110,MusicAffectPsychophysiology2019,3.0.5,59.922811626538774,
To what extent did the music make you feel ,ANXIOUS ,30MonoWAV/30MonoS4.wav,1,1,3,12,,,,,0,1,1,11,0,11,11,1,,,,,,,,,1,1.1517261630069697,,,021,001,2019_May_13_1110,MusicAffectPsychophysiology2019,3.0.5,59.922811626538774,
,,30MonoWAV/30MonoS4.wav,1,1,3,12,,,,,0,1,1,11,,,,,,,,,,,,,,,,,021,001,2019_May_13_1110,MusicAffectPsychophysiology2019,3.0.5,59.922811626538774,
To what extent did the music make you feel ,ANGRY,30MonoWAV/30MonoH4.wav,2,2,1,8,,,,,0,2,2,7,0,0,0,2,,,5,2.6678520629939158,5,0.5830839469999773,5,0.9852130159997614,1,3.352465852993191,,,021,001,2019_May_13_1110,MusicAffectPsychophysiology2019,3.0.5,59.922811626538774,
To what extent did the music make you feel ,SAD,30MonoWAV/30MonoH4.wav,2,2,1,8,,,,,0,2,2,7,0,1,1,0,,,,,,,,,1,0.45141797899850644,,,021,001,2019_May_13_1110,MusicAffectPsychophysiology2019,3.0.5,59.922811626538774,
To what extent did the music make you feel ,EXCITED,30MonoWAV/30MonoH4.wav,2,2,1,8,,,,,0,2,2,7,0,2,2,7,,,,,,,,,4,2.268533430993557,,,021,001,2019_May_13_1110,MusicAffectPsychophysiology2019,3.0.5,59.922811626538774,
To what extent did the music make you feel ,SCARED,30MonoWAV/30MonoH4.wav,2,2,1,8,,,,,0,2,2,7,0,3,3,11,,,,,,,,,1,2.4354321590071777,,,021,001,2019_May_13_1110,MusicAffectPsychophysiology2019,3.0.5,59.922811626538774,
To what extent did the music make you feel ,FRUSTRATED,30MonoWAV/30MonoH4.wav,2,2,1,8,,,,,0,2,2,7,0,4,4,3,,,,,,,,,1,0.7513315179967321,,,021,001,2019_May_13_1110,MusicAffectPsychophysiology2019,3.0.5,59.922811626538774,
To what extent did the music make you feel ,TENDER,30MonoWAV/30MonoH4.wav,2,2,1,8,,,,,0,2,2,7,0,5,5,10,,,,,,,,,2,3.3680569889984326,,,021,001,2019_May_13_1110,MusicAffectPsychophysiology2019,3.0.5,59.922811626538774,
To what extent did the music make you feel ,HAPPY,30MonoWAV/30MonoH4.wav,2,2,1,8,,,,,0,2,2,7,0,6,6,6,,,,,,,,,5,1.5346391039929586,,,021,001,2019_May_13_1110,MusicAffectPsychophysiology2019,3.0.5,59.922811626538774,
To what extent did the music make you feel ,ACTIVE,30MonoWAV/30MonoH4.wav,2,2,1,8,,,,,0,2,2,7,0,7,7,9,,,,,,,,,4,1.2859100339992438,,,021,001,2019_May_13_1110,MusicAffectPsychophysiology2019,3.0.5,59.922811626538774,
To what extent did the music make you feel ,ALERT,30MonoWAV/30MonoH4.wav,2,2,1,8,,,,,0,2,2,7,0,8,8,8,,,,,,,,,3,2.535751169998548,,,021,001,2019_May_13_1110,MusicAffectPsychophysiology2019,3.0.5,59.922811626538774,
To what extent did the music make you feel ,ANXIOUS ,30MonoWAV/30MonoH4.wav,2,2,1,8,,,,,0,2,2,7,0,9,9,1,,,,,,,,,1,1.1513082910096273,,,021,001,2019_May_13_1110,MusicAffectPsychophysiology2019,3.0.5,59.922811626538774,
To what extent did the music make you feel ,ASHAMED,30MonoWAV/30MonoH4.wav,2,2,1,8,,,,,0,2,2,7,0,10,10,4,,,,,,,,,1,0.8846180510008708,,,021,001,2019_May_13_1110,MusicAffectPsychophysiology2019,3.0.5,59.922811626538774,
To what extent did the music make you feel ,GUILTY,30MonoWAV/30MonoH4.wav,2,2,1,8,,,,,0,2,2,7,0,11,11,5,,,,,,,,,1,0.5191331169917248,,,021,001,2019_May_13_1110,MusicAffectPsychophysiology2019,3.0.5,59.922811626538774,
,,30MonoWAV/30MonoH4.wav,2,2,1,8,,,,,0,2,2,7,,,,,,,,,,,,,,,,,021,001,2019_May_13_1110,MusicAffectPsychophysiology2019,3.0.5,59.922811626538774,
To what extent did the music make you feel ,ANXIOUS ,30MonoWAV/30MonoS3.wav,1,1,3,11,,,,,0,3,3,10,0,0,0,1,,,1,4.035482317995047,1,0.6845917160098907,2,1.3006516900059069,2,3.102137945999857,,,021,001,2019_May_13_1110,MusicAffectPsychophysiology2019,3.0.5,59.922811626538774,
To what extent did the music make you feel ,SAD,30MonoWAV/30MonoS3.wav,1,1,3,11,,,,,0,3,3,10,0,1,1,0,,,,,,,,,4,3.1175019910006085,,,021,001,2019_May_13_1110,MusicAffectPsychophysiology2019,3.0.5,59.922811626538774,
To what extent did the music make you feel ,ACTIVE,30MonoWAV/30MonoS3.wav,1,1,3,11,,,,,0,3,3,10,0,2,2,9,,,,,,,,,1,1.798598873996525,,,021,001,2019_May_13_1110,MusicAffectPsychophysiology2019,3.0.5,59.922811626538774,
To what extent did the music make you feel ,GUILTY,30MonoWAV/30MonoS3.wav,1,1,3,11,,,,,0,3,3,10,0,3,3,5,,,,,,,,,2,1.769200260998332,,,021,001,2019_May_13_1110,MusicAffectPsychophysiology2019,3.0.5,59.922811626538774,
To what extent did the music make you feel ,FRUSTRATED,30MonoWAV/30MonoS3.wav,1,1,3,11,,,,,0,3,3,10,0,4,4,3,,,,,,,,,1,1.535671113000717,,,021,001,2019_May_13_1110,MusicAffectPsychophysiology2019,3.0.5,59.922811626538774,
To what extent did the music make you feel ,SCARED,30MonoWAV/30MonoS3.wav,1,1,3,11,,,,,0,3,3,10,0,5,5,11,,,,,,,,,2,1.4025438490061788,,,021,001,2019_May_13_1110,MusicAffectPsychophysiology2019,3.0.5,59.922811626538774,
To what extent did the music make you feel ,ALERT,30MonoWAV/30MonoS3.wav,1,1,3,11,,,,,0,3,3,10,0,6,6,8,,,,,,,,,2,1.418303273996571,,,021,001,2019_May_13_1110,MusicAffectPsychophysiology2019,3.0.5,59.922811626538774,
To what extent did the music make you feel ,HAPPY,30MonoWAV/30MonoS3.wav,1,1,3,11,,,,,0,3,3,10,0,7,7,6,,,,,,,,,1,0.9015021979867015,,,021,001,2019_May_13_1110,MusicAffectPsychophysiology2019,3.0.5,59.922811626538774,
To what extent did the music make you feel ,TENDER,30MonoWAV/30MonoS3.wav,1,1,3,11,,,,,0,3,3,10,0,8,8,10,,,,,,,,,1,0.9515366870036814,,,021,001,2019_May_13_1110,MusicAffectPsychophysiology2019,3.0.5,59.922811626538774,
To what extent did the music make you feel ,EXCITED,30MonoWAV/30MonoS3.wav,1,1,3,11,,,,,0,3,3,10,0,9,9,7,,,,,,,,,1,1.8180095569987316,,,021,001,2019_May_13_1110,MusicAffectPsychophysiology2019,3.0.5,59.922811626538774,
To what extent did the music make you feel ,ASHAMED,30MonoWAV/30MonoS3.wav,1,1,3,11,,,,,0,3,3,10,0,10,10,4,,,,,,,,,2,2.085823856003117,,,021,001,2019_May_13_1110,MusicAffectPsychophysiology2019,3.0.5,59.922811626538774,
To what extent did the music make you feel ,ANGRY,30MonoWAV/30MonoS3.wav,1,1,3,11,,,,,0,3,3,10,0,11,11,2,,,,,,,,,1,1.117565194988856,,,021,001,2019_May_13_1110,MusicAffectPsychophysiology2019,3.0.5,59.922811626538774,
,,30MonoWAV/30MonoS3.wav,1,1,3,11,,,,,0,3,3,10,,,,,,,,,,,,,,,,,021,001,2019_May_13_1110,MusicAffectPsychophysiology2019,3.0.5,59.922811626538774,
To what extent did the music make you feel ,FRUSTRATED,30MonoWAV/30MonoF4.wav,1,2,2,4,,,,,0,4,4,3,0,0,0,3,,,3,2.9352116609952645,4,2.8845280219975393,5,1.4851097100035986,1,1.9067031950107776,,,021,001,2019_May_13_1110,MusicAffectPsychophysiology2019,3.0.5,59.922811626538774,
To what extent did the music make you feel ,EXCITED,30MonoWAV/30MonoF4.wav,1,2,2,4,,,,,0,4,4,3,0,1,1,7,,,,,,,,,3,2.2344609330029925,,,021,001,2019_May_13_1110,MusicAffectPsychophysiology2019,3.0.5,59.922811626538774,
To what extent did the music make you feel ,ANGRY,30MonoWAV/30MonoF4.wav,1,2,2,4,,,,,0,4,4,3,0,2,2,2,,,,,,,,,1,1.6517509419936687,,,021,001,2019_May_13_1110,MusicAffectPsychophysiology2019,3.0.5,59.922811626538774,
To what extent did the music make you feel ,SCARED,30MonoWAV/30MonoF4.wav,1,2,2,4,,,,,0,4,4,3,0,3,3,11,,,,,,,,,1,1.1841608410031768,,,021,001,2019_May_13_1110,MusicAffectPsychophysiology2019,3.0.5,59.922811626538774,
To what extent did the music make you feel ,ASHAMED,30MonoWAV/30MonoF4.wav,1,2,2,4,,,,,0,4,4,3,0,4,4,4,,,,,,,,,1,0.9225689840095583,,,021,001,2019_May_13_1110,MusicAffectPsychophysiology2019,3.0.5,59.922811626538774,
To what extent did the music make you feel ,ANXIOUS ,30MonoWAV/30MonoF4.wav,1,2,2,4,,,,,0,4,4,3,0,5,5,1,,,,,,,,,1,1.0355082129972288,,,021,001,2019_May_13_1110,MusicAffectPsychophysiology2019,3.0.5,59.922811626538774,
To what extent did the music make you feel ,TENDER,30MonoWAV/30MonoF4.wav,1,2,2,4,,,,,0,4,4,3,0,6,6,10,,,,,,,,,1,1.8029235279973364,,,021,001,2019_May_13_1110,MusicAffectPsychophysiology2019,3.0.5,59.922811626538774,
To what extent did the music make you feel ,ALERT,30MonoWAV/30MonoF4.wav,1,2,2,4,,,,,0,4,4,3,0,7,7,8,,,,,,,,,4,3.2213244309969014,,,021,001,2019_May_13_1110,MusicAffectPsychophysiology2019,3.0.5,59.922811626538774,
To what extent did the music make you feel ,SAD,30MonoWAV/30MonoF4.wav,1,2,2,4,,,,,0,4,4,3,0,8,8,0,,,,,,,,,1,1.822375693009235,,,021,001,2019_May_13_1110,MusicAffectPsychophysiology2019,3.0.5,59.922811626538774,
To what extent did the music make you feel ,ACTIVE,30MonoWAV/30MonoF4.wav,1,2,2,4,,,,,0,4,4,3,0,9,9,9,,,,,,,,,4,1.2014722019957844,,,021,001,2019_May_13_1110,MusicAffectPsychophysiology2019,3.0.5,59.922811626538774,
To what extent did the music make you feel ,GUILTY,30MonoWAV/30MonoF4.wav,1,2,2,4,,,,,0,4,4,3,0,10,10,5,,,,,,,,,1,1.1524823879881296,,,021,001,2019_May_13_1110,MusicAffectPsychophysiology2019,3.0.5,59.922811626538774,
To what extent did the music make you feel ,HAPPY,30MonoWAV/30MonoF4.wav,1,2,2,4,,,,,0,4,4,3,0,11,11,6,,,,,,,,,4,2.7669919670006493,,,021,001,2019_May_13_1110,MusicAffectPsychophysiology2019,3.0.5,59.922811626538774,
,,30MonoWAV/30MonoF4.wav,1,2,2,4,,,,,0,4,4,3,,,,,,,,,,,,,,,,,021,001,2019_May_13_1110,MusicAffectPsychophysiology2019,3.0.5,59.922811626538774,
To what extent did the music make you feel ,TENDER,30MonoWAV/30MonoS2.wav,1,1,3,10,,,,,0,5,5,9,0,0,0,10,,,1,4.084207961001084,1,1.4675210290006362,2,0.81939542600594,4,3.8724306199874263,,,021,001,2019_May_13_1110,MusicAffectPsychophysiology2019,3.0.5,59.922811626538774,
To what extent did the music make you feel ,ANXIOUS ,30MonoWAV/30MonoS2.wav,1,1,3,10,,,,,0,5,5,9,0,1,1,1,,,,,,,,,2,1.8361683029943379,,,021,001,2019_May_13_1110,MusicAffectPsychophysiology2019,3.0.5,59.922811626538774,
To what extent did the music make you feel ,GUILTY,30MonoWAV/30MonoS2.wav,1,1,3,10,,,,,0,5,5,9,0,2,2,5,,,,,,,,,2,0.8353787989908597,,,021,001,2019_May_13_1110,MusicAffectPsychophysiology2019,3.0.5,59.922811626538774,
To what extent did the music make you feel ,ANGRY,30MonoWAV/30MonoS2.wav,1,1,3,10,,,,,0,5,5,9,0,3,3,2,,,,,,,,,1,1.6868552090018056,,,021,001,2019_May_13_1110,MusicAffectPsychophysiology2019,3.0.5,59.922811626538774,
To what extent did the music make you feel ,ASHAMED,30MonoWAV/30MonoS2.wav,1,1,3,10,,,,,0,5,5,9,0,4,4,4,,,,,,,,,3,2.457908362004673,,,021,001,2019_May_13_1110,MusicAffectPsychophysiology2019,3.0.5,59.922811626538774,
To what extent did the music make you feel ,EXCITED,30MonoWAV/30MonoS2.wav,1,1,3,10,,,,,0,5,5,9,0,5,5,7,,,,,,,,,1,2.0672064120008145,,,021,001,2019_May_13_1110,MusicAffectPsychophysiology2019,3.0.5,59.922811626538774,
To what extent did the music make you feel ,SAD,30MonoWAV/30MonoS2.wav,1,1,3,10,,,,,0,5,5,9,0,6,6,0,,,,,,,,,5,3.001192200987134,,,021,001,2019_May_13_1110,MusicAffectPsychophysiology2019,3.0.5,59.922811626538774,
To what extent did the music make you feel ,FRUSTRATED,30MonoWAV/30MonoS2.wav,1,1,3,10,,,,,0,5,5,9,0,7,7,3,,,,,,,,,1,2.166819598991424,,,021,001,2019_May_13_1110,MusicAffectPsychophysiology2019,3.0.5,59.922811626538774,
To what extent did the music make you feel ,HAPPY,30MonoWAV/30MonoS2.wav,1,1,3,10,,,,,0,5,5,9,0,8,8,6,,,,,,,,,1,0.8849520679941634,,,021,001,2019_May_13_1110,MusicAffectPsychophysiology2019,3.0.5,59.922811626538774,
To what extent did the music make you feel ,SCARED,30MonoWAV/30MonoS2.wav,1,1,3,10,,,,,0,5,5,9,0,9,9,11,,,,,,,,,2,1.2020778459991561,,,021,001,2019_May_13_1110,MusicAffectPsychophysiology2019,3.0.5,59.922811626538774,
To what extent did the music make you feel ,ACTIVE,30MonoWAV/30MonoS2.wav,1,1,3,10,,,,,0,5,5,9,0,10,10,9,,,,,,,,,1,1.086341872010962,,,021,001,2019_May_13_1110,MusicAffectPsychophysiology2019,3.0.5,59.922811626538774,
To what extent did the music make you feel ,ALERT,30MonoWAV/30MonoS2.wav,1,1,3,10,,,,,0,5,5,9,0,11,11,8,,,,,,,,,2,1.318641165009467,,,021,001,2019_May_13_1110,MusicAffectPsychophysiology2019,3.0.5,59.922811626538774,
,,30MonoWAV/30MonoS2.wav,1,1,3,10,,,,,0,5,5,9,,,,,,,,,,,,,,,,,021,001,2019_May_13_1110,MusicAffectPsychophysiology2019,3.0.5,59.922811626538774,
To what extent did the music make you feel ,SAD,30MonoWAV/30MonoS1.wav,1,1,3,9,,,,,0,6,6,8,0,0,0,0,,,1,4.7906455759948585,2,1.186273079001694,3,1.587366223000572,3,2.5882611330016516,,,021,001,2019_May_13_1110,MusicAffectPsychophysiology2019,3.0.5,59.922811626538774,
To what extent did the music make you feel ,GUILTY,30MonoWAV/30MonoS1.wav,1,1,3,9,,,,,0,6,6,8,0,1,1,5,,,,,,,,,4,1.3402815029985504,,,021,001,2019_May_13_1110,MusicAffectPsychophysiology2019,3.0.5,59.922811626538774,
To what extent did the music make you feel ,HAPPY,30MonoWAV/30MonoS1.wav,1,1,3,9,,,,,0,6,6,8,0,2,2,6,,,,,,,,,1,1.3692304550058907,,,021,001,2019_May_13_1110,MusicAffectPsychophysiology2019,3.0.5,59.922811626538774,
To what extent did the music make you feel ,EXCITED,30MonoWAV/30MonoS1.wav,1,1,3,9,,,,,0,6,6,8,0,3,3,7,,,,,,,,,1,1.6347030930046458,,,021,001,2019_May_13_1110,MusicAffectPsychophysiology2019,3.0.5,59.922811626538774,
To what extent did the music make you feel ,ASHAMED,30MonoWAV/30MonoS1.wav,1,1,3,9,,,,,0,6,6,8,0,4,4,4,,,,,,,,,2,1.1017924189945916,,,021,001,2019_May_13_1110,MusicAffectPsychophysiology2019,3.0.5,59.922811626538774,
To what extent did the music make you feel ,ANXIOUS ,30MonoWAV/30MonoS1.wav,1,1,3,9,,,,,0,6,6,8,0,5,5,1,,,,,,,,,3,1.117938620998757,,,021,001,2019_May_13_1110,MusicAffectPsychophysiology2019,3.0.5,59.922811626538774,
To what extent did the music make you feel ,TENDER,30MonoWAV/30MonoS1.wav,1,1,3,9,,,,,0,6,6,8,0,6,6,10,,,,,,,,,1,1.2521439280099003,,,021,001,2019_May_13_1110,MusicAffectPsychophysiology2019,3.0.5,59.922811626538774,
To what extent did the music make you feel ,SCARED,30MonoWAV/30MonoS1.wav,1,1,3,9,,,,,0,6,6,8,0,7,7,11,,,,,,,,,2,1.6824237140099285,,,021,001,2019_May_13_1110,MusicAffectPsychophysiology2019,3.0.5,59.922811626538774,
To what extent did the music make you feel ,FRUSTRATED,30MonoWAV/30MonoS1.wav,1,1,3,9,,,,,0,6,6,8,0,8,8,3,,,,,,,,,1,0.7845217059948482,,,021,001,2019_May_13_1110,MusicAffectPsychophysiology2019,3.0.5,59.922811626538774,
To what extent did the music make you feel ,ALERT,30MonoWAV/30MonoS1.wav,1,1,3,9,,,,,0,6,6,8,0,9,9,8,,,,,,,,,1,1.8184530229918892,,,021,001,2019_May_13_1110,MusicAffectPsychophysiology2019,3.0.5,59.922811626538774,
To what extent did the music make you feel ,ACTIVE,30MonoWAV/30MonoS1.wav,1,1,3,9,,,,,0,6,6,8,0,10,10,9,,,,,,,,,1,1.8013457920023939,,,021,001,2019_May_13_1110,MusicAffectPsychophysiology2019,3.0.5,59.922811626538774,
To what extent did the music make you feel ,ANGRY,30MonoWAV/30MonoS1.wav,1,1,3,9,,,,,0,6,6,8,0,11,11,2,,,,,,,,,1,1.518726673006313,,,021,001,2019_May_13_1110,MusicAffectPsychophysiology2019,3.0.5,59.922811626538774,
,,30MonoWAV/30MonoS1.wav,1,1,3,9,,,,,0,6,6,8,,,,,,,,,,,,,,,,,021,001,2019_May_13_1110,MusicAffectPsychophysiology2019,3.0.5,59.922811626538774,
To what extent did the music make you feel ,SAD,30MonoWAV/30MonoT3.wav,2,1,4,15,,,,,0,7,7,14,0,0,0,0,,,1,3.467736710997997,1,1.2014078150095884,1,1.5356223139970098,1,5.034171651001088,,,021,001,2019_May_13_1110,MusicAffectPsychophysiology2019,3.0.5,59.922811626538774,
To what extent did the music make you feel ,HAPPY,30MonoWAV/30MonoT3.wav,2,1,4,15,,,,,0,7,7,14,0,1,1,6,,,,,,,,,1,1.169745178995072,,,021,001,2019_May_13_1110,MusicAffectPsychophysiology2019,3.0.5,59.922811626538774,
To what extent did the music make you feel ,GUILTY,30MonoWAV/30MonoT3.wav,2,1,4,15,,,,,0,7,7,14,0,2,2,5,,,,,,,,,1,1.351862120005535,,,021,001,2019_May_13_1110,MusicAffectPsychophysiology2019,3.0.5,59.922811626538774,
To what extent did the music make you feel ,EXCITED,30MonoWAV/30MonoT3.wav,2,1,4,15,,,,,0,7,7,14,0,3,3,7,,,,,,,,,1,1.5688726730004419,,,021,001,2019_May_13_1110,MusicAffectPsychophysiology2019,3.0.5,59.922811626538774,
To what extent did the music make you feel ,FRUSTRATED,30MonoWAV/30MonoT3.wav,2,1,4,15,,,,,0,7,7,14,0,4,4,3,,,,,,,,,4,2.518923112002085,,,021,001,2019_May_13_1110,MusicAffectPsychophysiology2019,3.0.5,59.922811626538774,
To what extent did the music make you feel ,SCARED,30MonoWAV/30MonoT3.wav,2,1,4,15,,,,,0,7,7,14,0,5,5,11,,,,,,,,,1,1.7016610720020253,,,021,001,2019_May_13_1110,MusicAffectPsychophysiology2019,3.0.5,59.922811626538774,
To what extent did the music make you feel ,ACTIVE,30MonoWAV/30MonoT3.wav,2,1,4,15,,,,,0,7,7,14,0,6,6,9,,,,,,,,,1,1.800964804002433,,,021,001,2019_May_13_1110,MusicAffectPsychophysiology2019,3.0.5,59.922811626538774,
To what extent did the music make you feel ,ANXIOUS ,30MonoWAV/30MonoT3.wav,2,1,4,15,,,,,0,7,7,14,0,7,7,1,,,,,,,,,2,1.0022964099916862,,,021,001,2019_May_13_1110,MusicAffectPsychophysiology2019,3.0.5,59.922811626538774,
To what extent did the music make you feel ,ALERT,30MonoWAV/30MonoT3.wav,2,1,4,15,,,,,0,7,7,14,0,8,8,8,,,,,,,,,2,0.9840223679930205,,,021,001,2019_May_13_1110,MusicAffectPsychophysiology2019,3.0.5,59.922811626538774,
To what extent did the music make you feel ,ANGRY,30MonoWAV/30MonoT3.wav,2,1,4,15,,,,,0,7,7,14,0,9,9,2,,,,,,,,,1,1.2007155239989515,,,021,001,2019_May_13_1110,MusicAffectPsychophysiology2019,3.0.5,59.922811626538774,
To what extent did the music make you feel ,ASHAMED,30MonoWAV/30MonoT3.wav,2,1,4,15,,,,,0,7,7,14,0,10,10,4,,,,,,,,,1,3.070079908007756,,,021,001,2019_May_13_1110,MusicAffectPsychophysiology2019,3.0.5,59.922811626538774,
To what extent did the music make you feel ,TENDER,30MonoWAV/30MonoT3.wav,2,1,4,15,,,,,0,7,7,14,0,11,11,10,,,,,,,,,1,0.5678684449958382,,,021,001,2019_May_13_1110,MusicAffectPsychophysiology2019,3.0.5,59.922811626538774,
,,30MonoWAV/30MonoT3.wav,2,1,4,15,,,,,0,7,7,14,,,,,,,,,,,,,,,,,021,001,2019_May_13_1110,MusicAffectPsychophysiology2019,3.0.5,59.922811626538774,
To what extent did the music make you feel ,ASHAMED,30MonoWAV/30MonoF2.wav,1,2,2,2,,,,,0,8,8,1,0,0,0,4,,,3,2.7679037130001234,1,1.152304508999805,1,1.0682716680021258,1,1.9534383620048175,,,021,001,2019_May_13_1110,MusicAffectPsychophysiology2019,3.0.5,59.922811626538774,
To what extent did the music make you feel ,ANXIOUS ,30MonoWAV/30MonoF2.wav,1,2,2,2,,,,,0,8,8,1,0,1,1,1,,,,,,,,,5,1.6180969849956455,,,021,001,2019_May_13_1110,MusicAffectPsychophysiology2019,3.0.5,59.922811626538774,
To what extent did the music make you feel ,ALERT,30MonoWAV/30MonoF2.wav,1,2,2,2,,,,,0,8,8,1,0,2,2,8,,,,,,,,,4,1.1028371110005537,,,021,001,2019_May_13_1110,MusicAffectPsychophysiology2019,3.0.5,59.922811626538774,
To what extent did the music make you feel ,ACTIVE,30MonoWAV/30MonoF2.wav,1,2,2,2,,,,,0,8,8,1,0,3,3,9,,,,,,,,,3,1.034030905997497,,,021,001,2019_May_13_1110,MusicAffectPsychophysiology2019,3.0.5,59.922811626538774,
To what extent did the music make you feel ,GUILTY,30MonoWAV/30MonoF2.wav,1,2,2,2,,,,,0,8,8,1,0,4,4,5,,,,,,,,,1,1.7352663899946492,,,021,001,2019_May_13_1110,MusicAffectPsychophysiology2019,3.0.5,59.922811626538774,
To what extent did the music make you feel ,FRUSTRATED,30MonoWAV/30MonoF2.wav,1,2,2,2,,,,,0,8,8,1,0,5,5,3,,,,,,,,,1,1.585311068003648,,,021,001,2019_May_13_1110,MusicAffectPsychophysiology2019,3.0.5,59.922811626538774,
To what extent did the music make you feel ,TENDER,30MonoWAV/30MonoF2.wav,1,2,2,2,,,,,0,8,8,1,0,6,6,10,,,,,,,,,1,0.5184724480059231,,,021,001,2019_May_13_1110,MusicAffectPsychophysiology2019,3.0.5,59.922811626538774,
To what extent did the music make you feel ,EXCITED,30MonoWAV/30MonoF2.wav,1,2,2,2,,,,,0,8,8,1,0,7,7,7,,,,,,,,,1,0.634331673005363,,,021,001,2019_May_13_1110,MusicAffectPsychophysiology2019,3.0.5,59.922811626538774,
To what extent did the music make you feel ,SAD,30MonoWAV/30MonoF2.wav,1,2,2,2,,,,,0,8,8,1,0,8,8,0,,,,,,,,,1,0.9696668069955194,,,021,001,2019_May_13_1110,MusicAffectPsychophysiology2019,3.0.5,59.922811626538774,
To what extent did the music make you feel ,SCARED,30MonoWAV/30MonoF2.wav,1,2,2,2,,,,,0,8,8,1,0,9,9,11,,,,,,,,,4,1.5356505859963363,,,021,001,2019_May_13_1110,MusicAffectPsychophysiology2019,3.0.5,59.922811626538774,
To what extent did the music make you feel ,HAPPY,30MonoWAV/30MonoF2.wav,1,2,2,2,,,,,0,8,8,1,0,10,10,6,,,,,,,,,1,1.8675081440014765,,,021,001,2019_May_13_1110,MusicAffectPsychophysiology2019,3.0.5,59.922811626538774,
To what extent did the music make you feel ,ANGRY,30MonoWAV/30MonoF2.wav,1,2,2,2,,,,,0,8,8,1,0,11,11,2,,,,,,,,,1,0.9176564670051448,,,021,001,2019_May_13_1110,MusicAffectPsychophysiology2019,3.0.5,59.922811626538774,
,,30MonoWAV/30MonoF2.wav,1,2,2,2,,,,,0,8,8,1,,,,,,,,,,,,,,,,,021,001,2019_May_13_1110,MusicAffectPsychophysiology2019,3.0.5,59.922811626538774,
To what extent did the music make you feel ,SAD,30MonoWAV/30MonoH3.wav,2,2,1,7,,,,,0,9,9,6,0,0,0,0,,,4,3.56814161199145,4,1.6011738749948563,5,0.41892119801195804,1,1.6018136060010875,,,021,001,2019_May_13_1110,MusicAffectPsychophysiology2019,3.0.5,59.922811626538774,
To what extent did the music make you feel ,ACTIVE,30MonoWAV/30MonoH3.wav,2,2,1,7,,,,,0,9,9,6,0,1,1,9,,,,,,,,,3,1.6996393299923511,,,021,001,2019_May_13_1110,MusicAffectPsychophysiology2019,3.0.5,59.922811626538774,
To what extent did the music make you feel ,EXCITED,30MonoWAV/30MonoH3.wav,2,2,1,7,,,,,0,9,9,6,0,2,2,7,,,,,,,,,4,0.9183270319917938,,,021,001,2019_May_13_1110,MusicAffectPsychophysiology2019,3.0.5,59.922811626538774,
To what extent did the music make you feel ,TENDER,30MonoWAV/30MonoH3.wav,2,2,1,7,,,,,0,9,9,6,0,3,3,10,,,,,,,,,1,2.450277943004039,,,021,001,2019_May_13_1110,MusicAffectPsychophysiology2019,3.0.5,59.922811626538774,
To what extent did the music make you feel ,ANGRY,30MonoWAV/30MonoH3.wav,2,2,1,7,,,,,0,9,9,6,0,4,4,2,,,,,,,,,1,1.4849320229986915,,,021,001,2019_May_13_1110,MusicAffectPsychophysiology2019,3.0.5,59.922811626538774,
To what extent did the music make you feel ,HAPPY,30MonoWAV/30MonoH3.wav,2,2,1,7,,,,,0,9,9,6,0,5,5,6,,,,,,,,,4,0.9516363720031222,,,021,001,2019_May_13_1110,MusicAffectPsychophysiology2019,3.0.5,59.922811626538774,
To what extent did the music make you feel ,SCARED,30MonoWAV/30MonoH3.wav,2,2,1,7,,,,,0,9,9,6,0,6,6,11,,,,,,,,,1,0.9689855089964112,,,021,001,2019_May_13_1110,MusicAffectPsychophysiology2019,3.0.5,59.922811626538774,
To what extent did the music make you feel ,FRUSTRATED,30MonoWAV/30MonoH3.wav,2,2,1,7,,,,,0,9,9,6,0,7,7,3,,,,,,,,,1,2.3848539629980223,,,021,001,2019_May_13_1110,MusicAffectPsychophysiology2019,3.0.5,59.922811626538774,
To what extent did the music make you feel ,ASHAMED,30MonoWAV/30MonoH3.wav,2,2,1,7,,,,,0,9,9,6,0,8,8,4,,,,,,,,,1,0.6527682880114298,,,021,001,2019_May_13_1110,MusicAffectPsychophysiology2019,3.0.5,59.922811626538774,
To what extent did the music make you feel ,ANXIOUS ,30MonoWAV/30MonoH3.wav,2,2,1,7,,,,,0,9,9,6,0,9,9,1,,,,,,,,,1,0.5349687929992797,,,021,001,2019_May_13_1110,MusicAffectPsychophysiology2019,3.0.5,59.922811626538774,
To what extent did the music make you feel ,GUILTY,30MonoWAV/30MonoH3.wav,2,2,1,7,,,,,0,9,9,6,0,10,10,5,,,,,,,,,1,0.5498556350066792,,,021,001,2019_May_13_1110,MusicAffectPsychophysiology2019,3.0.5,59.922811626538774,
To what extent did the music make you feel ,ALERT,30MonoWAV/30MonoH3.wav,2,2,1,7,,,,,0,9,9,6,0,11,11,8,,,,,,,,,3,1.8166202760039596,,,021,001,2019_May_13_1110,MusicAffectPsychophysiology2019,3.0.5,59.922811626538774,
,,30MonoWAV/30MonoH3.wav,2,2,1,7,,,,,0,9,9,6,,,,,,,,,,,,,,,,,021,001,2019_May_13_1110,MusicAffectPsychophysiology2019,3.0.5,59.922811626538774,
To what extent did the music make you feel ,ANXIOUS ,30MonoWAV/30MonoT1.wav,2,1,4,13,,,,,0,10,10,12,0,0,0,1,,,3,3.2548988529888447,3,1.553114201000426,4,0.9036032169969985,1,3.4580402680003317,,,021,001,2019_May_13_1110,MusicAffectPsychophysiology2019,3.0.5,59.922811626538774,
To what extent did the music make you feel ,SAD,30MonoWAV/30MonoT1.wav,2,1,4,13,,,,,0,10,10,12,0,1,1,0,,,,,,,,,1,0.6163789179990999,,,021,001,2019_May_13_1110,MusicAffectPsychophysiology2019,3.0.5,59.922811626538774,
To what extent did the music make you feel ,TENDER,30MonoWAV/30MonoT1.wav,2,1,4,13,,,,,0,10,10,12,0,2,2,10,,,,,,,,,3,1.9366061670007184,,,021,001,2019_May_13_1110,MusicAffectPsychophysiology2019,3.0.5,59.922811626538774,
To what extent did the music make you feel ,SCARED,30MonoWAV/30MonoT1.wav,2,1,4,13,,,,,0,10,10,12,0,3,3,11,,,,,,,,,1,2.50120619199879,,,021,001,2019_May_13_1110,MusicAffectPsychophysiology2019,3.0.5,59.922811626538774,
To what extent did the music make you feel ,GUILTY,30MonoWAV/30MonoT1.wav,2,1,4,13,,,,,0,10,10,12,0,4,4,5,,,,,,,,,1,0.6018513470044127,,,021,001,2019_May_13_1110,MusicAffectPsychophysiology2019,3.0.5,59.922811626538774,
To what extent did the music make you feel ,HAPPY,30MonoWAV/30MonoT1.wav,2,1,4,13,,,,,0,10,10,12,0,5,5,6,,,,,,,,,3,1.2358903349959292,,,021,001,2019_May_13_1110,MusicAffectPsychophysiology2019,3.0.5,59.922811626538774,
To what extent did the music make you feel ,EXCITED,30MonoWAV/30MonoT1.wav,2,1,4,13,,,,,0,10,10,12,0,6,6,7,,,,,,,,,3,1.1028870240115793,,,021,001,2019_May_13_1110,MusicAffectPsychophysiology2019,3.0.5,59.922811626538774,
To what extent did the music make you feel ,ALERT,30MonoWAV/30MonoT1.wav,2,1,4,13,,,,,0,10,10,12,0,7,7,8,,,,,,,,,1,1.634705998993013,,,021,001,2019_May_13_1110,MusicAffectPsychophysiology2019,3.0.5,59.922811626538774,
To what extent did the music make you feel ,ASHAMED,30MonoWAV/30MonoT1.wav,2,1,4,13,,,,,0,10,10,12,0,8,8,4,,,,,,,,,1,1.0847184330050368,,,021,001,2019_May_13_1110,MusicAffectPsychophysiology2019,3.0.5,59.922811626538774,
To what extent did the music make you feel ,FRUSTRATED,30MonoWAV/30MonoT1.wav,2,1,4,13,,,,,0,10,10,12,0,9,9,3,,,,,,,,,1,2.6509820749924984,,,021,001,2019_May_13_1110,MusicAffectPsychophysiology2019,3.0.5,59.922811626538774,
To what extent did the music make you feel ,ACTIVE,30MonoWAV/30MonoT1.wav,2,1,4,13,,,,,0,10,10,12,0,10,10,9,,,,,,,,,2,0.9663410799985286,,,021,001,2019_May_13_1110,MusicAffectPsychophysiology2019,3.0.5,59.922811626538774,
To what extent did the music make you feel ,ANGRY,30MonoWAV/30MonoT1.wav,2,1,4,13,,,,,0,10,10,12,0,11,11,2,,,,,,,,,1,1.8366045180009678,,,021,001,2019_May_13_1110,MusicAffectPsychophysiology2019,3.0.5,59.922811626538774,
,,30MonoWAV/30MonoT1.wav,2,1,4,13,,,,,0,10,10,12,,,,,,,,,,,,,,,,,021,001,2019_May_13_1110,MusicAffectPsychophysiology2019,3.0.5,59.922811626538774,
To what extent did the music make you feel ,ASHAMED,30MonoWAV/30MonoH2.wav,2,2,1,6,,,,,0,11,11,5,0,0,0,4,,,4,2.6381164170015836,4,0.9372122550121276,3,0.786875197009067,1,4.156212141999276,,,021,001,2019_May_13_1110,MusicAffectPsychophysiology2019,3.0.5,59.922811626538774,
To what extent did the music make you feel ,ANXIOUS ,30MonoWAV/30MonoH2.wav,2,2,1,6,,,,,0,11,11,5,0,1,1,1,,,,,,,,,1,0.6513659979973454,,,021,001,2019_May_13_1110,MusicAffectPsychophysiology2019,3.0.5,59.922811626538774,
To what extent did the music make you feel ,ACTIVE,30MonoWAV/30MonoH2.wav,2,2,1,6,,,,,0,11,11,5,0,2,2,9,,,,,,,,,4,1.4167443360056495,,,021,001,2019_May_13_1110,MusicAffectPsychophysiology2019,3.0.5,59.922811626538774,
To what extent did the music make you feel ,EXCITED,30MonoWAV/30MonoH2.wav,2,2,1,6,,,,,0,11,11,5,0,3,3,7,,,,,,,,,3,2.23377495900786,,,021,001,2019_May_13_1110,MusicAffectPsychophysiology2019,3.0.5,59.922811626538774,
To what extent did the music make you feel ,SCARED,30MonoWAV/30MonoH2.wav,2,2,1,6,,,,,0,11,11,5,0,4,4,11,,,,,,,,,1,1.7021206119970884,,,021,001,2019_May_13_1110,MusicAffectPsychophysiology2019,3.0.5,59.922811626538774,
To what extent did the music make you feel ,TENDER,30MonoWAV/30MonoH2.wav,2,2,1,6,,,,,0,11,11,5,0,5,5,10,,,,,,,,,2,1.235417743009748,,,021,001,2019_May_13_1110,MusicAffectPsychophysiology2019,3.0.5,59.922811626538774,
To what extent did the music make you feel ,ALERT,30MonoWAV/30MonoH2.wav,2,2,1,6,,,,,0,11,11,5,0,6,6,8,,,,,,,,,1,0.9516389100026572,,,021,001,2019_May_13_1110,MusicAffectPsychophysiology2019,3.0.5,59.922811626538774,
To what extent did the music make you feel ,ANGRY,30MonoWAV/30MonoH2.wav,2,2,1,6,,,,,0,11,11,5,0,7,7,2,,,,,,,,,1,0.7850443630013615,,,021,001,2019_May_13_1110,MusicAffectPsychophysiology2019,3.0.5,59.922811626538774,
To what extent did the music make you feel ,SAD,30MonoWAV/30MonoH2.wav,2,2,1,6,,,,,0,11,11,5,0,8,8,0,,,,,,,,,1,1.234768375987187,,,021,001,2019_May_13_1110,MusicAffectPsychophysiology2019,3.0.5,59.922811626538774,
To what extent did the music make you feel ,FRUSTRATED,30MonoWAV/30MonoH2.wav,2,2,1,6,,,,,0,11,11,5,0,9,9,3,,,,,,,,,1,1.4181905959994765,,,021,001,2019_May_13_1110,MusicAffectPsychophysiology2019,3.0.5,59.922811626538774,
To what extent did the music make you feel ,GUILTY,30MonoWAV/30MonoH2.wav,2,2,1,6,,,,,0,11,11,5,0,10,10,5,,,,,,,,,1,0.5360221309965709,,,021,001,2019_May_13_1110,MusicAffectPsychophysiology2019,3.0.5,59.922811626538774,
To what extent did the music make you feel ,HAPPY,30MonoWAV/30MonoH2.wav,2,2,1,6,,,,,0,11,11,5,0,11,11,6,,,,,,,,,3,1.0678926370019326,,,021,001,2019_May_13_1110,MusicAffectPsychophysiology2019,3.0.5,59.922811626538774,
,,30MonoWAV/30MonoH2.wav,2,2,1,6,,,,,0,11,11,5,,,,,,,,,,,,,,,,,021,001,2019_May_13_1110,MusicAffectPsychophysiology2019,3.0.5,59.922811626538774,
To what extent did the music make you feel ,GUILTY,30MonoWAV/30MonoH1.wav,2,2,1,5,,,,,0,12,12,4,0,0,0,5,,,4,3.4370436720055295,4,0.3356762570037972,4,0.3685574379924219,1,4.275453765003476,,,021,001,2019_May_13_1110,MusicAffectPsychophysiology2019,3.0.5,59.922811626538774,
To what extent did the music make you feel ,FRUSTRATED,30MonoWAV/30MonoH1.wav,2,2,1,5,,,,,0,12,12,4,0,1,1,3,,,,,,,,,1,0.5005784030072391,,,021,001,2019_May_13_1110,MusicAffectPsychophysiology2019,3.0.5,59.922811626538774,
To what extent did the music make you feel ,EXCITED,30MonoWAV/30MonoH1.wav,2,2,1,5,,,,,0,12,12,4,0,2,2,7,,,,,,,,,3,4.617595055999118,,,021,001,2019_May_13_1110,MusicAffectPsychophysiology2019,3.0.5,59.922811626538774,
To what extent did the music make you feel ,ASHAMED,30MonoWAV/30MonoH1.wav,2,2,1,5,,,,,0,12,12,4,0,3,3,4,,,,,,,,,1,0.8333886559994426,,,021,001,2019_May_13_1110,MusicAffectPsychophysiology2019,3.0.5,59.922811626538774,
To what extent did the music make you feel ,ANXIOUS ,30MonoWAV/30MonoH1.wav,2,2,1,5,,,,,0,12,12,4,0,4,4,1,,,,,,,,,1,0.6357632569997804,,,021,001,2019_May_13_1110,MusicAffectPsychophysiology2019,3.0.5,59.922811626538774,
To what extent did the music make you feel ,ANGRY,30MonoWAV/30MonoH1.wav,2,2,1,5,,,,,0,12,12,4,0,5,5,2,,,,,,,,,1,0.9342782330058981,,,021,001,2019_May_13_1110,MusicAffectPsychophysiology2019,3.0.5,59.922811626538774,
To what extent did the music make you feel ,ACTIVE,30MonoWAV/30MonoH1.wav,2,2,1,5,,,,,0,12,12,4,0,6,6,9,,,,,,,,,3,1.0163746049947804,,,021,001,2019_May_13_1110,MusicAffectPsychophysiology2019,3.0.5,59.922811626538774,
To what extent did the music make you feel ,TENDER,30MonoWAV/30MonoH1.wav,2,2,1,5,,,,,0,12,12,4,0,7,7,10,,,,,,,,,1,0.8020019230025355,,,021,001,2019_May_13_1110,MusicAffectPsychophysiology2019,3.0.5,59.922811626538774,
To what extent did the music make you feel ,SAD,30MonoWAV/30MonoH1.wav,2,2,1,5,,,,,0,12,12,4,0,8,8,0,,,,,,,,,1,1.2524221900093835,,,021,001,2019_May_13_1110,MusicAffectPsychophysiology2019,3.0.5,59.922811626538774,
To what extent did the music make you feel ,ALERT,30MonoWAV/30MonoH1.wav,2,2,1,5,,,,,0,12,12,4,0,9,9,8,,,,,,,,,2,1.6016823970130645,,,021,001,2019_May_13_1110,MusicAffectPsychophysiology2019,3.0.5,59.922811626538774,
To what extent did the music make you feel ,SCARED,30MonoWAV/30MonoH1.wav,2,2,1,5,,,,,0,12,12,4,0,10,10,11,,,,,,,,,1,1.1352082179946592,,,021,001,2019_May_13_1110,MusicAffectPsychophysiology2019,3.0.5,59.922811626538774,
To what extent did the music make you feel ,HAPPY,30MonoWAV/30MonoH1.wav,2,2,1,5,,,,,0,12,12,4,0,11,11,6,,,,,,,,,4,1.1507633670116775,,,021,001,2019_May_13_1110,MusicAffectPsychophysiology2019,3.0.5,59.922811626538774,
,,30MonoWAV/30MonoH1.wav,2,2,1,5,,,,,0,12,12,4,,,,,,,,,,,,,,,,,021,001,2019_May_13_1110,MusicAffectPsychophysiology2019,3.0.5,59.922811626538774,
To what extent did the music make you feel ,HAPPY,30MonoWAV/30MonoT4.wav,2,1,4,16,,,,,0,13,13,15,0,0,0,6,,,2,5.218369098001858,3,1.2013758300017798,3,1.6350082900025882,2,2.2852814700017916,,,021,001,2019_May_13_1110,MusicAffectPsychophysiology2019,3.0.5,59.922811626538774,
To what extent did the music make you feel ,FRUSTRATED,30MonoWAV/30MonoT4.wav,2,1,4,16,,,,,0,13,13,15,0,1,1,3,,,,,,,,,1,2.2185069959959947,,,021,001,2019_May_13_1110,MusicAffectPsychophysiology2019,3.0.5,59.922811626538774,
To what extent did the music make you feel ,EXCITED,30MonoWAV/30MonoT4.wav,2,1,4,16,,,,,0,13,13,15,0,2,2,7,,,,,,,,,2,1.7178288360009901,,,021,001,2019_May_13_1110,MusicAffectPsychophysiology2019,3.0.5,59.922811626538774,
To what extent did the music make you feel ,SAD,30MonoWAV/30MonoT4.wav,2,1,4,16,,,,,0,13,13,15,0,3,3,0,,,,,,,,,3,2.0855334879888687,,,021,001,2019_May_13_1110,MusicAffectPsychophysiology2019,3.0.5,59.922811626538774,
To what extent did the music make you feel ,ANXIOUS ,30MonoWAV/30MonoT4.wav,2,1,4,16,,,,,0,13,13,15,0,4,4,1,,,,,,,,,1,1.384908545005601,,,021,001,2019_May_13_1110,MusicAffectPsychophysiology2019,3.0.5,59.922811626538774,
To what extent did the music make you feel ,GUILTY,30MonoWAV/30MonoT4.wav,2,1,4,16,,,,,0,13,13,15,0,5,5,5,,,,,,,,,2,0.9183422479982255,,,021,001,2019_May_13_1110,MusicAffectPsychophysiology2019,3.0.5,59.922811626538774,
To what extent did the music make you feel ,ASHAMED,30MonoWAV/30MonoT4.wav,2,1,4,16,,,,,0,13,13,15,0,6,6,4,,,,,,,,,1,0.5525558189983713,,,021,001,2019_May_13_1110,MusicAffectPsychophysiology2019,3.0.5,59.922811626538774,
To what extent did the music make you feel ,ACTIVE,30MonoWAV/30MonoT4.wav,2,1,4,16,,,,,0,13,13,15,0,7,7,9,,,,,,,,,2,1.601724929001648,,,021,001,2019_May_13_1110,MusicAffectPsychophysiology2019,3.0.5,59.922811626538774,
To what extent did the music make you feel ,ANGRY,30MonoWAV/30MonoT4.wav,2,1,4,16,,,,,0,13,13,15,0,8,8,2,,,,,,,,,1,0.5348577809927519,,,021,001,2019_May_13_1110,MusicAffectPsychophysiology2019,3.0.5,59.922811626538774,
To what extent did the music make you feel ,ALERT,30MonoWAV/30MonoT4.wav,2,1,4,16,,,,,0,13,13,15,0,9,9,8,,,,,,,,,1,3.5020477819925873,,,021,001,2019_May_13_1110,MusicAffectPsychophysiology2019,3.0.5,59.922811626538774,
To what extent did the music make you feel ,TENDER,30MonoWAV/30MonoT4.wav,2,1,4,16,,,,,0,13,13,15,0,10,10,10,,,,,,,,,3,1.301070735004032,,,021,001,2019_May_13_1110,MusicAffectPsychophysiology2019,3.0.5,59.922811626538774,
To what extent did the music make you feel ,SCARED,30MonoWAV/30MonoT4.wav,2,1,4,16,,,,,0,13,13,15,0,11,11,11,,,,,,,,,1,3.1012699359998805,,,021,001,2019_May_13_1110,MusicAffectPsychophysiology2019,3.0.5,59.922811626538774,
,,30MonoWAV/30MonoT4.wav,2,1,4,16,,,,,0,13,13,15,,,,,,,,,,,,,,,,,021,001,2019_May_13_1110,MusicAffectPsychophysiology2019,3.0.5,59.922811626538774,
To what extent did the music make you feel ,ANGRY,30MonoWAV/30MonoT2.wav,2,1,4,14,,,,,0,14,14,13,0,0,0,2,,,2,2.7525402090104762,2,1.800762945000315,2,0.9843904500012286,1,2.1351854609965812,,,021,001,2019_May_13_1110,MusicAffectPsychophysiology2019,3.0.5,59.922811626538774,
To what extent did the music make you feel ,SAD,30MonoWAV/30MonoT2.wav,2,1,4,14,,,,,0,14,14,13,0,1,1,0,,,,,,,,,2,1.9013072100060526,,,021,001,2019_May_13_1110,MusicAffectPsychophysiology2019,3.0.5,59.922811626538774,
To what extent did the music make you feel ,ALERT,30MonoWAV/30MonoT2.wav,2,1,4,14,,,,,0,14,14,13,0,2,2,8,,,,,,,,,1,1.6186528370017186,,,021,001,2019_May_13_1110,MusicAffectPsychophysiology2019,3.0.5,59.922811626538774,
To what extent did the music make you feel ,ANXIOUS ,30MonoWAV/30MonoT2.wav,2,1,4,14,,,,,0,14,14,13,0,3,3,1,,,,,,,,,2,1.1355644759896677,,,021,001,2019_May_13_1110,MusicAffectPsychophysiology2019,3.0.5,59.922811626538774,
To what extent did the music make you feel ,EXCITED,30MonoWAV/30MonoT2.wav,2,1,4,14,,,,,0,14,14,13,0,4,4,7,,,,,,,,,1,3.3345914200035622,,,021,001,2019_May_13_1110,MusicAffectPsychophysiology2019,3.0.5,59.922811626538774,
To what extent did the music make you feel ,TENDER,30MonoWAV/30MonoT2.wav,2,1,4,14,,,,,0,14,14,13,0,5,5,10,,,,,,,,,3,1.3019294289988466,,,021,001,2019_May_13_1110,MusicAffectPsychophysiology2019,3.0.5,59.922811626538774,
To what extent did the music make you feel ,SCARED,30MonoWAV/30MonoT2.wav,2,1,4,14,,,,,0,14,14,13,0,6,6,11,,,,,,,,,1,6.286445639998419,,,021,001,2019_May_13_1110,MusicAffectPsychophysiology2019,3.0.5,59.922811626538774,
To what extent did the music make you feel ,FRUSTRATED,30MonoWAV/30MonoT2.wav,2,1,4,14,,,,,0,14,14,13,0,7,7,3,,,,,,,,,2,0.9670256630051881,,,021,001,2019_May_13_1110,MusicAffectPsychophysiology2019,3.0.5,59.922811626538774,
To what extent did the music make you feel ,ACTIVE,30MonoWAV/30MonoT2.wav,2,1,4,14,,,,,0,14,14,13,0,8,8,9,,,,,,,,,1,1.1190114170021843,,,021,001,2019_May_13_1110,MusicAffectPsychophysiology2019,3.0.5,59.922811626538774,
To what extent did the music make you feel ,HAPPY,30MonoWAV/30MonoT2.wav,2,1,4,14,,,,,0,14,14,13,0,9,9,6,,,,,,,,,1,0.735070317008649,,,021,001,2019_May_13_1110,MusicAffectPsychophysiology2019,3.0.5,59.922811626538774,
To what extent did the music make you feel ,GUILTY,30MonoWAV/30MonoT2.wav,2,1,4,14,,,,,0,14,14,13,0,10,10,5,,,,,,,,,1,1.9341264669928933,,,021,001,2019_May_13_1110,MusicAffectPsychophysiology2019,3.0.5,59.922811626538774,
To what extent did the music make you feel ,ASHAMED,30MonoWAV/30MonoT2.wav,2,1,4,14,,,,,0,14,14,13,0,11,11,4,,,,,,,,,1,0.8339009760093177,,,021,001,2019_May_13_1110,MusicAffectPsychophysiology2019,3.0.5,59.922811626538774,
,,30MonoWAV/30MonoT2.wav,2,1,4,14,,,,,0,14,14,13,,,,,,,,,,,,,,,,,021,001,2019_May_13_1110,MusicAffectPsychophysiology2019,3.0.5,59.922811626538774,
To what extent did the music make you feel ,HAPPY,30MonoWAV/30MonoF3.wav,1,2,2,3,,,,,0,15,15,2,0,0,0,6,,,4,2.873507091004285,2,1.9520824490027735,3,1.3680918299942277,1,3.042082478001248,,,021,001,2019_May_13_1110,MusicAffectPsychophysiology2019,3.0.5,59.922811626538774,
To what extent did the music make you feel ,FRUSTRATED,30MonoWAV/30MonoF3.wav,1,2,2,3,,,,,0,15,15,2,0,1,1,3,,,,,,,,,1,1.4998088740103412,,,021,001,2019_May_13_1110,MusicAffectPsychophysiology2019,3.0.5,59.922811626538774,
To what extent did the music make you feel ,TENDER,30MonoWAV/30MonoF3.wav,1,2,2,3,,,,,0,15,15,2,0,2,2,10,,,,,,,,,1,0.7855977290018927,,,021,001,2019_May_13_1110,MusicAffectPsychophysiology2019,3.0.5,59.922811626538774,
To what extent did the music make you feel ,ASHAMED,30MonoWAV/30MonoF3.wav,1,2,2,3,,,,,0,15,15,2,0,3,3,4,,,,,,,,,1,1.9519193610030925,,,021,001,2019_May_13_1110,MusicAffectPsychophysiology2019,3.0.5,59.922811626538774,
To what extent did the music make you feel ,ANXIOUS ,30MonoWAV/30MonoF3.wav,1,2,2,3,,,,,0,15,15,2,0,4,4,1,,,,,,,,,2,1.5843885070062242,,,021,001,2019_May_13_1110,MusicAffectPsychophysiology2019,3.0.5,59.922811626538774,
To what extent did the music make you feel ,ALERT,30MonoWAV/30MonoF3.wav,1,2,2,3,,,,,0,15,15,2,0,5,5,8,,,,,,,,,4,2.0685418530047173,,,021,001,2019_May_13_1110,MusicAffectPsychophysiology2019,3.0.5,59.922811626538774,
To what extent did the music make you feel ,GUILTY,30MonoWAV/30MonoF3.wav,1,2,2,3,,,,,0,15,15,2,0,6,6,5,,,,,,,,,1,3.1677861439966364,,,021,001,2019_May_13_1110,MusicAffectPsychophysiology2019,3.0.5,59.922811626538774,
To what extent did the music make you feel ,EXCITED,30MonoWAV/30MonoF3.wav,1,2,2,3,,,,,0,15,15,2,0,7,7,7,,,,,,,,,3,1.5182542959955754,,,021,001,2019_May_13_1110,MusicAffectPsychophysiology2019,3.0.5,59.922811626538774,
To what extent did the music make you feel ,ANGRY,30MonoWAV/30MonoF3.wav,1,2,2,3,,,,,0,15,15,2,0,8,8,2,,,,,,,,,1,1.5849910490069306,,,021,001,2019_May_13_1110,MusicAffectPsychophysiology2019,3.0.5,59.922811626538774,
To what extent did the music make you feel ,SAD,30MonoWAV/30MonoF3.wav,1,2,2,3,,,,,0,15,15,2,0,9,9,0,,,,,,,,,1,0.651555438991636,,,021,001,2019_May_13_1110,MusicAffectPsychophysiology2019,3.0.5,59.922811626538774,
To what extent did the music make you feel ,SCARED,30MonoWAV/30MonoF3.wav,1,2,2,3,,,,,0,15,15,2,0,10,10,11,,,,,,,,,1,0.5664045070006978,,,021,001,2019_May_13_1110,MusicAffectPsychophysiology2019,3.0.5,59.922811626538774,
To what extent did the music make you feel ,ACTIVE,30MonoWAV/30MonoF3.wav,1,2,2,3,,,,,0,15,15,2,0,11,11,9,,,,,,,,,2,0.5686801859992556,,,021,001,2019_May_13_1110,MusicAffectPsychophysiology2019,3.0.5,59.922811626538774,
,,30MonoWAV/30MonoF3.wav,1,2,2,3,,,,,0,15,15,2,,,,,,,,,,,,,,,,,021,001,2019_May_13_1110,MusicAffectPsychophysiology2019,3.0.5,59.922811626538774,
To what extent did the music make you feel ,ACTIVE,30MonoWAV/30MonoT1.wav,2,1,4,13,,,,,1,0,16,12,0,0,0,9,,,3,2.755201706007938,4,1.81955995199678,3,1.9203413299983367,3,2.37316220800858,,,021,001,2019_May_13_1110,MusicAffectPsychophysiology2019,3.0.5,59.922811626538774,
To what extent did the music make you feel ,GUILTY,30MonoWAV/30MonoT1.wav,2,1,4,13,,,,,1,0,16,12,0,1,1,5,,,,,,,,,1,2.384454960003495,,,021,001,2019_May_13_1110,MusicAffectPsychophysiology2019,3.0.5,59.922811626538774,
To what extent did the music make you feel ,EXCITED,30MonoWAV/30MonoT1.wav,2,1,4,13,,,,,1,0,16,12,0,2,2,7,,,,,,,,,2,1.385590341000352,,,021,001,2019_May_13_1110,MusicAffectPsychophysiology2019,3.0.5,59.922811626538774,
To what extent did the music make you feel ,ASHAMED,30MonoWAV/30MonoT1.wav,2,1,4,13,,,,,1,0,16,12,0,3,3,4,,,,,,,,,1,1.456324108003173,,,021,001,2019_May_13_1110,MusicAffectPsychophysiology2019,3.0.5,59.922811626538774,
To what extent did the music make you feel ,SCARED,30MonoWAV/30MonoT1.wav,2,1,4,13,,,,,1,0,16,12,0,4,4,11,,,,,,,,,2,1.5197245530143846,,,021,001,2019_May_13_1110,MusicAffectPsychophysiology2019,3.0.5,59.922811626538774,
To what extent did the music make you feel ,SAD,30MonoWAV/30MonoT1.wav,2,1,4,13,,,,,1,0,16,12,0,5,5,0,,,,,,,,,2,2.186529636994237,,,021,001,2019_May_13_1110,MusicAffectPsychophysiology2019,3.0.5,59.922811626538774,
To what extent did the music make you feel ,FRUSTRATED,30MonoWAV/30MonoT1.wav,2,1,4,13,,,,,1,0,16,12,0,6,6,3,,,,,,,,,1,1.2537633209867636,,,021,001,2019_May_13_1110,MusicAffectPsychophysiology2019,3.0.5,59.922811626538774,
To what extent did the music make you feel ,TENDER,30MonoWAV/30MonoT1.wav,2,1,4,13,,,,,1,0,16,12,0,7,7,10,,,,,,,,,3,3.1404538770002546,,,021,001,2019_May_13_1110,MusicAffectPsychophysiology2019,3.0.5,59.922811626538774,
To what extent did the music make you feel ,ALERT,30MonoWAV/30MonoT1.wav,2,1,4,13,,,,,1,0,16,12,0,8,8,8,,,,,,,,,1,2.6017827030009357,,,021,001,2019_May_13_1110,MusicAffectPsychophysiology2019,3.0.5,59.922811626538774,
To what extent did the music make you feel ,ANGRY,30MonoWAV/30MonoT1.wav,2,1,4,13,,,,,1,0,16,12,0,9,9,2,,,,,,,,,1,0.7352961189899361,,,021,001,2019_May_13_1110,MusicAffectPsychophysiology2019,3.0.5,59.922811626538774,
To what extent did the music make you feel ,HAPPY,30MonoWAV/30MonoT1.wav,2,1,4,13,,,,,1,0,16,12,0,10,10,6,,,,,,,,,4,3.8018421410088195,,,021,001,2019_May_13_1110,MusicAffectPsychophysiology2019,3.0.5,59.922811626538774,
To what extent did the music make you feel ,ANXIOUS ,30MonoWAV/30MonoT1.wav,2,1,4,13,,,,,1,0,16,12,0,11,11,1,,,,,,,,,1,1.135416188990348,,,021,001,2019_May_13_1110,MusicAffectPsychophysiology2019,3.0.5,59.922811626538774,
,,30MonoWAV/30MonoT1.wav,2,1,4,13,,,,,1,0,16,12,,,,,,,,,,,,,,,,,021,001,2019_May_13_1110,MusicAffectPsychophysiology2019,3.0.5,59.922811626538774,
To what extent did the music make you feel ,HAPPY,30MonoWAV/30MonoF2.wav,1,2,2,2,,,,,1,1,17,1,0,0,0,6,,,3,4.051845976995537,1,1.7190854670043336,2,1.2180302540073171,1,1.9186331639939453,,,021,001,2019_May_13_1110,MusicAffectPsychophysiology2019,3.0.5,59.922811626538774,
To what extent did the music make you feel ,TENDER,30MonoWAV/30MonoF2.wav,1,2,2,2,,,,,1,1,17,1,0,1,1,10,,,,,,,,,1,0.5352786269941134,,,021,001,2019_May_13_1110,MusicAffectPsychophysiology2019,3.0.5,59.922811626538774,
To what extent did the music make you feel ,SAD,30MonoWAV/30MonoF2.wav,1,2,2,2,,,,,1,1,17,1,0,2,2,0,,,,,,,,,1,1.0017581310094101,,,021,001,2019_May_13_1110,MusicAffectPsychophysiology2019,3.0.5,59.922811626538774,
To what extent did the music make you feel ,ASHAMED,30MonoWAV/30MonoF2.wav,1,2,2,2,,,,,1,1,17,1,0,3,3,4,,,,,,,,,1,0.935254725991399,,,021,001,2019_May_13_1110,MusicAffectPsychophysiology2019,3.0.5,59.922811626538774,
To what extent did the music make you feel ,EXCITED,30MonoWAV/30MonoF2.wav,1,2,2,2,,,,,1,1,17,1,0,4,4,7,,,,,,,,,2,3.250935207994189,,,021,001,2019_May_13_1110,MusicAffectPsychophysiology2019,3.0.5,59.922811626538774,
To what extent did the music make you feel ,ANGRY,30MonoWAV/30MonoF2.wav,1,2,2,2,,,,,1,1,17,1,0,5,5,2,,,,,,,,,1,1.3849000810005236,,,021,001,2019_May_13_1110,MusicAffectPsychophysiology2019,3.0.5,59.922811626538774,
To what extent did the music make you feel ,ANXIOUS ,30MonoWAV/30MonoF2.wav,1,2,2,2,,,,,1,1,17,1,0,6,6,1,,,,,,,,,4,1.8362759790034033,,,021,001,2019_May_13_1110,MusicAffectPsychophysiology2019,3.0.5,59.922811626538774,
To what extent did the music make you feel ,SCARED,30MonoWAV/30MonoF2.wav,1,2,2,2,,,,,1,1,17,1,0,7,7,11,,,,,,,,,5,1.7172682220116258,,,021,001,2019_May_13_1110,MusicAffectPsychophysiology2019,3.0.5,59.922811626538774,
To what extent did the music make you feel ,ACTIVE,30MonoWAV/30MonoF2.wav,1,2,2,2,,,,,1,1,17,1,0,8,8,9,,,,,,,,,2,4.018273487003171,,,021,001,2019_May_13_1110,MusicAffectPsychophysiology2019,3.0.5,59.922811626538774,
To what extent did the music make you feel ,GUILTY,30MonoWAV/30MonoF2.wav,1,2,2,2,,,,,1,1,17,1,0,9,9,5,,,,,,,,,1,0.9497681530046975,,,021,001,2019_May_13_1110,MusicAffectPsychophysiology2019,3.0.5,59.922811626538774,
To what extent did the music make you feel ,FRUSTRATED,30MonoWAV/30MonoF2.wav,1,2,2,2,,,,,1,1,17,1,0,10,10,3,,,,,,,,,1,1.7019509140081936,,,021,001,2019_May_13_1110,MusicAffectPsychophysiology2019,3.0.5,59.922811626538774,
To what extent did the music make you feel ,ALERT,30MonoWAV/30MonoF2.wav,1,2,2,2,,,,,1,1,17,1,0,11,11,8,,,,,,,,,3,1.2347978779871482,,,021,001,2019_May_13_1110,MusicAffectPsychophysiology2019,3.0.5,59.922811626538774,
,,30MonoWAV/30MonoF2.wav,1,2,2,2,,,,,1,1,17,1,,,,,,,,,,,,,,,,,021,001,2019_May_13_1110,MusicAffectPsychophysiology2019,3.0.5,59.922811626538774,
To what extent did the music make you feel ,EXCITED,30MonoWAV/30MonoH3.wav,2,2,1,7,,,,,1,2,18,6,0,0,0,7,,,4,3.2185681519913487,5,1.7349659770115977,5,1.000877931001014,4,4.935937143993215,,,021,001,2019_May_13_1110,MusicAffectPsychophysiology2019,3.0.5,59.922811626538774,
To what extent did the music make you feel ,ANXIOUS ,30MonoWAV/30MonoH3.wav,2,2,1,7,,,,,1,2,18,6,0,1,1,1,,,,,,,,,1,1.1515582570136758,,,021,001,2019_May_13_1110,MusicAffectPsychophysiology2019,3.0.5,59.922811626538774,
To what extent did the music make you feel ,HAPPY,30MonoWAV/30MonoH3.wav,2,2,1,7,,,,,1,2,18,6,0,2,2,6,,,,,,,,,4,0.8187714249943383,,,021,001,2019_May_13_1110,MusicAffectPsychophysiology2019,3.0.5,59.922811626538774,
To what extent did the music make you feel ,ANGRY,30MonoWAV/30MonoH3.wav,2,2,1,7,,,,,1,2,18,6,0,3,3,2,,,,,,,,,1,1.4193993879889604,,,021,001,2019_May_13_1110,MusicAffectPsychophysiology2019,3.0.5,59.922811626538774,
To what extent did the music make you feel ,ASHAMED,30MonoWAV/30MonoH3.wav,2,2,1,7,,,,,1,2,18,6,0,4,4,4,,,,,,,,,1,0.8029453359922627,,,021,001,2019_May_13_1110,MusicAffectPsychophysiology2019,3.0.5,59.922811626538774,
To what extent did the music make you feel ,TENDER,30MonoWAV/30MonoH3.wav,2,2,1,7,,,,,1,2,18,6,0,5,5,10,,,,,,,,,2,2.5522351510007866,,,021,001,2019_May_13_1110,MusicAffectPsychophysiology2019,3.0.5,59.922811626538774,
To what extent did the music make you feel ,ACTIVE,30MonoWAV/30MonoH3.wav,2,2,1,7,,,,,1,2,18,6,0,6,6,9,,,,,,,,,3,1.934838501008926,,,021,001,2019_May_13_1110,MusicAffectPsychophysiology2019,3.0.5,59.922811626538774,
To what extent did the music make you feel ,SCARED,30MonoWAV/30MonoH3.wav,2,2,1,7,,,,,1,2,18,6,0,7,7,11,,,,,,,,,1,3.934423234008136,,,021,001,2019_May_13_1110,MusicAffectPsychophysiology2019,3.0.5,59.922811626538774,
To what extent did the music make you feel ,GUILTY,30MonoWAV/30MonoH3.wav,2,2,1,7,,,,,1,2,18,6,0,8,8,5,,,,,,,,,1,1.8020220399921527,,,021,001,2019_May_13_1110,MusicAffectPsychophysiology2019,3.0.5,59.922811626538774,
To what extent did the music make you feel ,FRUSTRATED,30MonoWAV/30MonoH3.wav,2,2,1,7,,,,,1,2,18,6,0,9,9,3,,,,,,,,,1,1.1019805289979558,,,021,001,2019_May_13_1110,MusicAffectPsychophysiology2019,3.0.5,59.922811626538774,
To what extent did the music make you feel ,SAD,30MonoWAV/30MonoH3.wav,2,2,1,7,,,,,1,2,18,6,0,10,10,0,,,,,,,,,1,0.851674360994366,,,021,001,2019_May_13_1110,MusicAffectPsychophysiology2019,3.0.5,59.922811626538774,
To what extent did the music make you feel ,ALERT,30MonoWAV/30MonoH3.wav,2,2,1,7,,,,,1,2,18,6,0,11,11,8,,,,,,,,,2,1.3683689510071417,,,021,001,2019_May_13_1110,MusicAffectPsychophysiology2019,3.0.5,59.922811626538774,
,,30MonoWAV/30MonoH3.wav,2,2,1,7,,,,,1,2,18,6,,,,,,,,,,,,,,,,,021,001,2019_May_13_1110,MusicAffectPsychophysiology2019,3.0.5,59.922811626538774,
To what extent did the music make you feel ,ANGRY,30MonoWAV/30MonoS2.wav,1,1,3,10,,,,,1,3,19,9,0,0,0,2,,,1,6.449149355990812,1,2.385403171007056,4,5.4679406359937275,1,1.6019973880029283,,,021,001,2019_May_13_1110,MusicAffectPsychophysiology2019,3.0.5,59.922811626538774,
To what extent did the music make you feel ,TENDER,30MonoWAV/30MonoS2.wav,1,1,3,10,,,,,1,3,19,9,0,1,1,10,,,,,,,,,2,1.6179196479934035,,,021,001,2019_May_13_1110,MusicAffectPsychophysiology2019,3.0.5,59.922811626538774,
To what extent did the music make you feel ,FRUSTRATED,30MonoWAV/30MonoS2.wav,1,1,3,10,,,,,1,3,19,9,0,2,2,3,,,,,,,,,1,1.0012217000039527,,,021,001,2019_May_13_1110,MusicAffectPsychophysiology2019,3.0.5,59.922811626538774,
To what extent did the music make you feel ,SCARED,30MonoWAV/30MonoS2.wav,1,1,3,10,,,,,1,3,19,9,0,3,3,11,,,,,,,,,1,1.7015945669991197,,,021,001,2019_May_13_1110,MusicAffectPsychophysiology2019,3.0.5,59.922811626538774,
To what extent did the music make you feel ,SAD,30MonoWAV/30MonoS2.wav,1,1,3,10,,,,,1,3,19,9,0,4,4,0,,,,,,,,,4,3.3344334150024224,,,021,001,2019_May_13_1110,MusicAffectPsychophysiology2019,3.0.5,59.922811626538774,
To what extent did the music make you feel ,HAPPY,30MonoWAV/30MonoS2.wav,1,1,3,10,,,,,1,3,19,9,0,5,5,6,,,,,,,,,1,0.785230124994996,,,021,001,2019_May_13_1110,MusicAffectPsychophysiology2019,3.0.5,59.922811626538774,
To what extent did the music make you feel ,EXCITED,30MonoWAV/30MonoS2.wav,1,1,3,10,,,,,1,3,19,9,0,6,6,7,,,,,,,,,1,0.6524840440106345,,,021,001,2019_May_13_1110,MusicAffectPsychophysiology2019,3.0.5,59.922811626538774,
To what extent did the music make you feel ,ALERT,30MonoWAV/30MonoS2.wav,1,1,3,10,,,,,1,3,19,9,0,7,7,8,,,,,,,,,1,2.018318766989978,,,021,001,2019_May_13_1110,MusicAffectPsychophysiology2019,3.0.5,59.922811626538774,
To what extent did the music make you feel ,ASHAMED,30MonoWAV/30MonoS2.wav,1,1,3,10,,,,,1,3,19,9,0,8,8,4,,,,,,,,,2,0.9515846339927521,,,021,001,2019_May_13_1110,MusicAffectPsychophysiology2019,3.0.5,59.922811626538774,
To what extent did the music make you feel ,ANXIOUS ,30MonoWAV/30MonoS2.wav,1,1,3,10,,,,,1,3,19,9,0,9,9,1,,,,,,,,,1,0.6855088409938617,,,021,001,2019_May_13_1110,MusicAffectPsychophysiology2019,3.0.5,59.922811626538774,
To what extent did the music make you feel ,ACTIVE,30MonoWAV/30MonoS2.wav,1,1,3,10,,,,,1,3,19,9,0,10,10,9,,,,,,,,,1,3.6522630709951045,,,021,001,2019_May_13_1110,MusicAffectPsychophysiology2019,3.0.5,59.922811626538774,
To what extent did the music make you feel ,GUILTY,30MonoWAV/30MonoS2.wav,1,1,3,10,,,,,1,3,19,9,0,11,11,5,,,,,,,,,2,1.0670192649995442,,,021,001,2019_May_13_1110,MusicAffectPsychophysiology2019,3.0.5,59.922811626538774,
,,30MonoWAV/30MonoS2.wav,1,1,3,10,,,,,1,3,19,9,,,,,,,,,,,,,,,,,021,001,2019_May_13_1110,MusicAffectPsychophysiology2019,3.0.5,59.922811626538774,
To what extent did the music make you feel ,EXCITED,30MonoWAV/30MonoF4.wav,1,2,2,4,,,,,1,4,20,3,0,0,0,7,,,4,3.5682800999929896,2,3.4668965980090434,5,2.4340295139991213,4,4.335974734000047,,,021,001,2019_May_13_1110,MusicAffectPsychophysiology2019,3.0.5,59.922811626538774,
To what extent did the music make you feel ,ACTIVE,30MonoWAV/30MonoF4.wav,1,2,2,4,,,,,1,4,20,3,0,1,1,9,,,,,,,,,3,1.0342394839972258,,,021,001,2019_May_13_1110,MusicAffectPsychophysiology2019,3.0.5,59.922811626538774,
To what extent did the music make you feel ,TENDER,30MonoWAV/30MonoF4.wav,1,2,2,4,,,,,1,4,20,3,0,2,2,10,,,,,,,,,1,1.0682570920034777,,,021,001,2019_May_13_1110,MusicAffectPsychophysiology2019,3.0.5,59.922811626538774,
To what extent did the music make you feel ,ANGRY,30MonoWAV/30MonoF4.wav,1,2,2,4,,,,,1,4,20,3,0,3,3,2,,,,,,,,,1,0.7013049730012426,,,021,001,2019_May_13_1110,MusicAffectPsychophysiology2019,3.0.5,59.922811626538774,
To what extent did the music make you feel ,HAPPY,30MonoWAV/30MonoF4.wav,1,2,2,4,,,,,1,4,20,3,0,4,4,6,,,,,,,,,4,0.918576291995123,,,021,001,2019_May_13_1110,MusicAffectPsychophysiology2019,3.0.5,59.922811626538774,
To what extent did the music make you feel ,ALERT,30MonoWAV/30MonoF4.wav,1,2,2,4,,,,,1,4,20,3,0,5,5,8,,,,,,,,,3,2.3009753259975696,,,021,001,2019_May_13_1110,MusicAffectPsychophysiology2019,3.0.5,59.922811626538774,
To what extent did the music make you feel ,ANXIOUS ,30MonoWAV/30MonoF4.wav,1,2,2,4,,,,,1,4,20,3,0,6,6,1,,,,,,,,,1,0.7358502489951206,,,021,001,2019_May_13_1110,MusicAffectPsychophysiology2019,3.0.5,59.922811626538774,
To what extent did the music make you feel ,FRUSTRATED,30MonoWAV/30MonoF4.wav,1,2,2,4,,,,,1,4,20,3,0,7,7,3,,,,,,,,,1,1.0345054989884375,,,021,001,2019_May_13_1110,MusicAffectPsychophysiology2019,3.0.5,59.922811626538774,
To what extent did the music make you feel ,SAD,30MonoWAV/30MonoF4.wav,1,2,2,4,,,,,1,4,20,3,0,8,8,0,,,,,,,,,1,0.7682505720003974,,,021,001,2019_May_13_1110,MusicAffectPsychophysiology2019,3.0.5,59.922811626538774,
To what extent did the music make you feel ,SCARED,30MonoWAV/30MonoF4.wav,1,2,2,4,,,,,1,4,20,3,0,9,9,11,,,,,,,,,1,0.7501912880106829,,,021,001,2019_May_13_1110,MusicAffectPsychophysiology2019,3.0.5,59.922811626538774,
To what extent did the music make you feel ,ASHAMED,30MonoWAV/30MonoF4.wav,1,2,2,4,,,,,1,4,20,3,0,10,10,4,,,,,,,,,1,0.6521733440022217,,,021,001,2019_May_13_1110,MusicAffectPsychophysiology2019,3.0.5,59.922811626538774,
To what extent did the music make you feel ,GUILTY,30MonoWAV/30MonoF4.wav,1,2,2,4,,,,,1,4,20,3,0,11,11,5,,,,,,,,,1,0.5848319529904984,,,021,001,2019_May_13_1110,MusicAffectPsychophysiology2019,3.0.5,59.922811626538774,
,,30MonoWAV/30MonoF4.wav,1,2,2,4,,,,,1,4,20,3,,,,,,,,,,,,,,,,,021,001,2019_May_13_1110,MusicAffectPsychophysiology2019,3.0.5,59.922811626538774,
To what extent did the music make you feel ,HAPPY,30MonoWAV/30MonoT3.wav,2,1,4,15,,,,,1,5,21,14,0,0,0,6,,,2,5.1508003729977645,1,1.0177410589967621,1,1.5020514079951681,2,5.468371456008754,,,021,001,2019_May_13_1110,MusicAffectPsychophysiology2019,3.0.5,59.922811626538774,
To what extent did the music make you feel ,GUILTY,30MonoWAV/30MonoT3.wav,2,1,4,15,,,,,1,5,21,14,0,1,1,5,,,,,,,,,1,0.7848774099984439,,,021,001,2019_May_13_1110,MusicAffectPsychophysiology2019,3.0.5,59.922811626538774,
To what extent did the music make you feel ,SAD,30MonoWAV/30MonoT3.wav,2,1,4,15,,,,,1,5,21,14,0,2,2,0,,,,,,,,,1,1.0850006549881073,,,021,001,2019_May_13_1110,MusicAffectPsychophysiology2019,3.0.5,59.922811626538774,
To what extent did the music make you feel ,ANGRY,30MonoWAV/30MonoT3.wav,2,1,4,15,,,,,1,5,21,14,0,3,3,2,,,,,,,,,1,3.102756918000523,,,021,001,2019_May_13_1110,MusicAffectPsychophysiology2019,3.0.5,59.922811626538774,
To what extent did the music make you feel ,SCARED,30MonoWAV/30MonoT3.wav,2,1,4,15,,,,,1,5,21,14,0,4,4,11,,,,,,,,,1,4.651851262999116,,,021,001,2019_May_13_1110,MusicAffectPsychophysiology2019,3.0.5,59.922811626538774,
To what extent did the music make you feel ,FRUSTRATED,30MonoWAV/30MonoT3.wav,2,1,4,15,,,,,1,5,21,14,0,5,5,3,,,,,,,,,2,2.5516501320089446,,,021,001,2019_May_13_1110,MusicAffectPsychophysiology2019,3.0.5,59.922811626538774,
To what extent did the music make you feel ,ALERT,30MonoWAV/30MonoT3.wav,2,1,4,15,,,,,1,5,21,14,0,6,6,8,,,,,,,,,1,4.043132994993357,,,021,001,2019_May_13_1110,MusicAffectPsychophysiology2019,3.0.5,59.922811626538774,
To what extent did the music make you feel ,ASHAMED,30MonoWAV/30MonoT3.wav,2,1,4,15,,,,,1,5,21,14,0,7,7,4,,,,,,,,,1,1.0357367630058434,,,021,001,2019_May_13_1110,MusicAffectPsychophysiology2019,3.0.5,59.922811626538774,
To what extent did the music make you feel ,ACTIVE,30MonoWAV/30MonoT3.wav,2,1,4,15,,,,,1,5,21,14,0,8,8,9,,,,,,,,,1,0.8701219020003919,,,021,001,2019_May_13_1110,MusicAffectPsychophysiology2019,3.0.5,59.922811626538774,
To what extent did the music make you feel ,TENDER,30MonoWAV/30MonoT3.wav,2,1,4,15,,,,,1,5,21,14,0,9,9,10,,,,,,,,,1,0.5862654440134065,,,021,001,2019_May_13_1110,MusicAffectPsychophysiology2019,3.0.5,59.922811626538774,
To what extent did the music make you feel ,EXCITED,30MonoWAV/30MonoT3.wav,2,1,4,15,,,,,1,5,21,14,0,10,10,7,,,,,,,,,1,0.7528817939892178,,,021,001,2019_May_13_1110,MusicAffectPsychophysiology2019,3.0.5,59.922811626538774,
To what extent did the music make you feel ,ANXIOUS ,30MonoWAV/30MonoT3.wav,2,1,4,15,,,,,1,5,21,14,0,11,11,1,,,,,,,,,2,1.1060741030087229,,,021,001,2019_May_13_1110,MusicAffectPsychophysiology2019,3.0.5,59.922811626538774,
,,30MonoWAV/30MonoT3.wav,2,1,4,15,,,,,1,5,21,14,,,,,,,,,,,,,,,,,021,001,2019_May_13_1110,MusicAffectPsychophysiology2019,3.0.5,59.922811626538774,
To what extent did the music make you feel ,ANGRY,30MonoWAV/30MonoF1.wav,1,2,2,1,,,,,1,6,22,0,0,0,0,2,,,3,5.818482789007248,3,1.285039994007093,3,1.5025235239882022,1,3.4657660240045516,,,021,001,2019_May_13_1110,MusicAffectPsychophysiology2019,3.0.5,59.922811626538774,
To what extent did the music make you feel ,SAD,30MonoWAV/30MonoF1.wav,1,2,2,1,,,,,1,6,22,0,0,1,1,0,,,,,,,,,1,0.8188291149999714,,,021,001,2019_May_13_1110,MusicAffectPsychophysiology2019,3.0.5,59.922811626538774,
To what extent did the music make you feel ,ANXIOUS ,30MonoWAV/30MonoF1.wav,1,2,2,1,,,,,1,6,22,0,0,2,2,1,,,,,,,,,3,1.4521629060036503,,,021,001,2019_May_13_1110,MusicAffectPsychophysiology2019,3.0.5,59.922811626538774,
To what extent did the music make you feel ,GUILTY,30MonoWAV/30MonoF1.wav,1,2,2,1,,,,,1,6,22,0,0,3,3,5,,,,,,,,,1,2.3678136820090003,,,021,001,2019_May_13_1110,MusicAffectPsychophysiology2019,3.0.5,59.922811626538774,
To what extent did the music make you feel ,ACTIVE,30MonoWAV/30MonoF1.wav,1,2,2,1,,,,,1,6,22,0,0,4,4,9,,,,,,,,,3,1.6023800319962902,,,021,001,2019_May_13_1110,MusicAffectPsychophysiology2019,3.0.5,59.922811626538774,
To what extent did the music make you feel ,ALERT,30MonoWAV/30MonoF1.wav,1,2,2,1,,,,,1,6,22,0,0,5,5,8,,,,,,,,,4,1.435459100001026,,,021,001,2019_May_13_1110,MusicAffectPsychophysiology2019,3.0.5,59.922811626538774,
To what extent did the music make you feel ,HAPPY,30MonoWAV/30MonoF1.wav,1,2,2,1,,,,,1,6,22,0,0,6,6,6,,,,,,,,,1,1.0853189100016607,,,021,001,2019_May_13_1110,MusicAffectPsychophysiology2019,3.0.5,59.922811626538774,
To what extent did the music make you feel ,TENDER,30MonoWAV/30MonoF1.wav,1,2,2,1,,,,,1,6,22,0,0,7,7,10,,,,,,,,,1,1.4844646300043678,,,021,001,2019_May_13_1110,MusicAffectPsychophysiology2019,3.0.5,59.922811626538774,
To what extent did the music make you feel ,EXCITED,30MonoWAV/30MonoF1.wav,1,2,2,1,,,,,1,6,22,0,0,8,8,7,,,,,,,,,2,1.2531197299977066,,,021,001,2019_May_13_1110,MusicAffectPsychophysiology2019,3.0.5,59.922811626538774,
To what extent did the music make you feel ,ASHAMED,30MonoWAV/30MonoF1.wav,1,2,2,1,,,,,1,6,22,0,0,9,9,4,,,,,,,,,1,3.0848290770081803,,,021,001,2019_May_13_1110,MusicAffectPsychophysiology2019,3.0.5,59.922811626538774,
To what extent did the music make you feel ,SCARED,30MonoWAV/30MonoF1.wav,1,2,2,1,,,,,1,6,22,0,0,10,10,11,,,,,,,,,2,1.26678903499851,,,021,001,2019_May_13_1110,MusicAffectPsychophysiology2019,3.0.5,59.922811626538774,
To what extent did the music make you feel ,FRUSTRATED,30MonoWAV/30MonoF1.wav,1,2,2,1,,,,,1,6,22,0,0,11,11,3,,,,,,,,,1,0.5848976070119534,,,021,001,2019_May_13_1110,MusicAffectPsychophysiology2019,3.0.5,59.922811626538774,
,,30MonoWAV/30MonoF1.wav,1,2,2,1,,,,,1,6,22,0,,,,,,,,,,,,,,,,,021,001,2019_May_13_1110,MusicAffectPsychophysiology2019,3.0.5,59.922811626538774,
To what extent did the music make you feel ,TENDER,30MonoWAV/30MonoF3.wav,1,2,2,3,,,,,1,7,23,2,0,0,0,10,,,3,3.501228565990459,2,0.9018205140018836,3,2.168225032000919,1,1.2188147069973638,,,021,001,2019_May_13_1110,MusicAffectPsychophysiology2019,3.0.5,59.922811626538774,
To what extent did the music make you feel ,FRUSTRATED,30MonoWAV/30MonoF3.wav,1,2,2,3,,,,,1,7,23,2,0,1,1,3,,,,,,,,,1,1.0360095639916835,,,021,001,2019_May_13_1110,MusicAffectPsychophysiology2019,3.0.5,59.922811626538774,
To what extent did the music make you feel ,ANXIOUS ,30MonoWAV/30MonoF3.wav,1,2,2,3,,,,,1,7,23,2,0,2,2,1,,,,,,,,,3,2.390154706998146,,,021,001,2019_May_13_1110,MusicAffectPsychophysiology2019,3.0.5,59.922811626538774,
To what extent did the music make you feel ,ACTIVE,30MonoWAV/30MonoF3.wav,1,2,2,3,,,,,1,7,23,2,0,3,3,9,,,,,,,,,4,2.6714023439999437,,,021,001,2019_May_13_1110,MusicAffectPsychophysiology2019,3.0.5,59.922811626538774,
To what extent did the music make you feel ,ASHAMED,30MonoWAV/30MonoF3.wav,1,2,2,3,,,,,1,7,23,2,0,4,4,4,,,,,,,,,1,2.521664294996299,,,021,001,2019_May_13_1110,MusicAffectPsychophysiology2019,3.0.5,59.922811626538774,
To what extent did the music make you feel ,EXCITED,30MonoWAV/30MonoF3.wav,1,2,2,3,,,,,1,7,23,2,0,5,5,7,,,,,,,,,2,2.356319197002449,,,021,001,2019_May_13_1110,MusicAffectPsychophysiology2019,3.0.5,59.922811626538774,
To what extent did the music make you feel ,SCARED,30MonoWAV/30MonoF3.wav,1,2,2,3,,,,,1,7,23,2,0,6,6,11,,,,,,,,,2,1.686509313993156,,,021,001,2019_May_13_1110,MusicAffectPsychophysiology2019,3.0.5,59.922811626538774,
To what extent did the music make you feel ,HAPPY,30MonoWAV/30MonoF3.wav,1,2,2,3,,,,,1,7,23,2,0,7,7,6,,,,,,,,,1,1.6341063339932589,,,021,001,2019_May_13_1110,MusicAffectPsychophysiology2019,3.0.5,59.922811626538774,
To what extent did the music make you feel ,ANGRY,30MonoWAV/30MonoF3.wav,1,2,2,3,,,,,1,7,23,2,0,8,8,2,,,,,,,,,1,1.3519337000034284,,,021,001,2019_May_13_1110,MusicAffectPsychophysiology2019,3.0.5,59.922811626538774,
To what extent did the music make you feel ,ALERT,30MonoWAV/30MonoF3.wav,1,2,2,3,,,,,1,7,23,2,0,9,9,8,,,,,,,,,4,1.5018183700012742,,,021,001,2019_May_13_1110,MusicAffectPsychophysiology2019,3.0.5,59.922811626538774,
To what extent did the music make you feel ,GUILTY,30MonoWAV/30MonoF3.wav,1,2,2,3,,,,,1,7,23,2,0,10,10,5,,,,,,,,,1,2.3514645170071162,,,021,001,2019_May_13_1110,MusicAffectPsychophysiology2019,3.0.5,59.922811626538774,
To what extent did the music make you feel ,SAD,30MonoWAV/30MonoF3.wav,1,2,2,3,,,,,1,7,23,2,0,11,11,0,,,,,,,,,1,0.7849261840019608,,,021,001,2019_May_13_1110,MusicAffectPsychophysiology2019,3.0.5,59.922811626538774,
,,30MonoWAV/30MonoF3.wav,1,2,2,3,,,,,1,7,23,2,,,,,,,,,,,,,,,,,021,001,2019_May_13_1110,MusicAffectPsychophysiology2019,3.0.5,59.922811626538774,
To what extent did the music make you feel ,GUILTY,30MonoWAV/30MonoH1.wav,2,2,1,5,,,,,1,8,24,4,0,0,0,5,,,3,4.771612989003188,4,0.9196902030089404,5,0.7694846959930146,1,2.9218698119948385,,,021,001,2019_May_13_1110,MusicAffectPsychophysiology2019,3.0.5,59.922811626538774,
To what extent did the music make you feel ,HAPPY,30MonoWAV/30MonoH1.wav,2,2,1,5,,,,,1,8,24,4,0,1,1,6,,,,,,,,,4,1.9044450049987063,,,021,001,2019_May_13_1110,MusicAffectPsychophysiology2019,3.0.5,59.922811626538774,
To what extent did the music make you feel ,ANGRY,30MonoWAV/30MonoH1.wav,2,2,1,5,,,,,1,8,24,4,0,2,2,2,,,,,,,,,1,0.6526885009952821,,,021,001,2019_May_13_1110,MusicAffectPsychophysiology2019,3.0.5,59.922811626538774,
To what extent did the music make you feel ,TENDER,30MonoWAV/30MonoH1.wav,2,2,1,5,,,,,1,8,24,4,0,3,3,10,,,,,,,,,1,0.8217677650100086,,,021,001,2019_May_13_1110,MusicAffectPsychophysiology2019,3.0.5,59.922811626538774,
To what extent did the music make you feel ,ACTIVE,30MonoWAV/30MonoH1.wav,2,2,1,5,,,,,1,8,24,4,0,4,4,9,,,,,,,,,3,0.9187255980068585,,,021,001,2019_May_13_1110,MusicAffectPsychophysiology2019,3.0.5,59.922811626538774,
To what extent did the music make you feel ,ALERT,30MonoWAV/30MonoH1.wav,2,2,1,5,,,,,1,8,24,4,0,5,5,8,,,,,,,,,2,1.3180681969970465,,,021,001,2019_May_13_1110,MusicAffectPsychophysiology2019,3.0.5,59.922811626538774,
To what extent did the music make you feel ,SCARED,30MonoWAV/30MonoH1.wav,2,2,1,5,,,,,1,8,24,4,0,6,6,11,,,,,,,,,1,0.8187385729979724,,,021,001,2019_May_13_1110,MusicAffectPsychophysiology2019,3.0.5,59.922811626538774,
To what extent did the music make you feel ,ASHAMED,30MonoWAV/30MonoH1.wav,2,2,1,5,,,,,1,8,24,4,0,7,7,4,,,,,,,,,1,1.1204257330100518,,,021,001,2019_May_13_1110,MusicAffectPsychophysiology2019,3.0.5,59.922811626538774,
To what extent did the music make you feel ,SAD,30MonoWAV/30MonoH1.wav,2,2,1,5,,,,,1,8,24,4,0,8,8,0,,,,,,,,,1,0.6348989560065093,,,021,001,2019_May_13_1110,MusicAffectPsychophysiology2019,3.0.5,59.922811626538774,
To what extent did the music make you feel ,FRUSTRATED,30MonoWAV/30MonoH1.wav,2,2,1,5,,,,,1,8,24,4,0,9,9,3,,,,,,,,,1,0.6188819950039033,,,021,001,2019_May_13_1110,MusicAffectPsychophysiology2019,3.0.5,59.922811626538774,
To what extent did the music make you feel ,EXCITED,30MonoWAV/30MonoH1.wav,2,2,1,5,,,,,1,8,24,4,0,10,10,7,,,,,,,,,3,1.15127411299909,,,021,001,2019_May_13_1110,MusicAffectPsychophysiology2019,3.0.5,59.922811626538774,
To what extent did the music make you feel ,ANXIOUS ,30MonoWAV/30MonoH1.wav,2,2,1,5,,,,,1,8,24,4,0,11,11,1,,,,,,,,,1,1.070233473990811,,,021,001,2019_May_13_1110,MusicAffectPsychophysiology2019,3.0.5,59.922811626538774,
,,30MonoWAV/30MonoH1.wav,2,2,1,5,,,,,1,8,24,4,,,,,,,,,,,,,,,,,021,001,2019_May_13_1110,MusicAffectPsychophysiology2019,3.0.5,59.922811626538774,
To what extent did the music make you feel ,EXCITED,30MonoWAV/30MonoS4.wav,1,1,3,12,,,,,1,9,25,11,0,0,0,7,,,1,2.934181467993767,1,1.5685597380070249,2,1.5020154400117463,1,2.3552899609931046,,,021,001,2019_May_13_1110,MusicAffectPsychophysiology2019,3.0.5,59.922811626538774,
To what extent did the music make you feel ,HAPPY,30MonoWAV/30MonoS4.wav,1,1,3,12,,,,,1,9,25,11,0,1,1,6,,,,,,,,,1,0.4857680889981566,,,021,001,2019_May_13_1110,MusicAffectPsychophysiology2019,3.0.5,59.922811626538774,
To what extent did the music make you feel ,GUILTY,30MonoWAV/30MonoS4.wav,1,1,3,12,,,,,1,9,25,11,0,2,2,5,,,,,,,,,2,1.302512188005494,,,021,001,2019_May_13_1110,MusicAffectPsychophysiology2019,3.0.5,59.922811626538774,
To what extent did the music make you feel ,ACTIVE,30MonoWAV/30MonoS4.wav,1,1,3,12,,,,,1,9,25,11,0,3,3,9,,,,,,,,,1,0.9368694900040282,,,021,001,2019_May_13_1110,MusicAffectPsychophysiology2019,3.0.5,59.922811626538774,
To what extent did the music make you feel ,ANXIOUS ,30MonoWAV/30MonoS4.wav,1,1,3,12,,,,,1,9,25,11,0,4,4,1,,,,,,,,,2,1.1859849049942568,,,021,001,2019_May_13_1110,MusicAffectPsychophysiology2019,3.0.5,59.922811626538774,
To what extent did the music make you feel ,ANGRY,30MonoWAV/30MonoS4.wav,1,1,3,12,,,,,1,9,25,11,0,5,5,2,,,,,,,,,1,1.101522664001095,,,021,001,2019_May_13_1110,MusicAffectPsychophysiology2019,3.0.5,59.922811626538774,
To what extent did the music make you feel ,SAD,30MonoWAV/30MonoS4.wav,1,1,3,12,,,,,1,9,25,11,0,6,6,0,,,,,,,,,4,1.7904498419957235,,,021,001,2019_May_13_1110,MusicAffectPsychophysiology2019,3.0.5,59.922811626538774,
To what extent did the music make you feel ,TENDER,30MonoWAV/30MonoS4.wav,1,1,3,12,,,,,1,9,25,11,0,7,7,10,,,,,,,,,1,0.8352738320099888,,,021,001,2019_May_13_1110,MusicAffectPsychophysiology2019,3.0.5,59.922811626538774,
To what extent did the music make you feel ,ALERT,30MonoWAV/30MonoS4.wav,1,1,3,12,,,,,1,9,25,11,0,8,8,8,,,,,,,,,1,2.285496194002917,,,021,001,2019_May_13_1110,MusicAffectPsychophysiology2019,3.0.5,59.922811626538774,
To what extent did the music make you feel ,FRUSTRATED,30MonoWAV/30MonoS4.wav,1,1,3,12,,,,,1,9,25,11,0,9,9,3,,,,,,,,,1,1.7517140220006695,,,021,001,2019_May_13_1110,MusicAffectPsychophysiology2019,3.0.5,59.922811626538774,
To what extent did the music make you feel ,SCARED,30MonoWAV/30MonoS4.wav,1,1,3,12,,,,,1,9,25,11,0,10,10,11,,,,,,,,,1,2.135940923995804,,,021,001,2019_May_13_1110,MusicAffectPsychophysiology2019,3.0.5,59.922811626538774,
To what extent did the music make you feel ,ASHAMED,30MonoWAV/30MonoS4.wav,1,1,3,12,,,,,1,9,25,11,0,11,11,4,,,,,,,,,2,1.019063057989115,,,021,001,2019_May_13_1110,MusicAffectPsychophysiology2019,3.0.5,59.922811626538774,
,,30MonoWAV/30MonoS4.wav,1,1,3,12,,,,,1,9,25,11,,,,,,,,,,,,,,,,,021,001,2019_May_13_1110,MusicAffectPsychophysiology2019,3.0.5,59.922811626538774,
To what extent did the music make you feel ,SCARED,30MonoWAV/30MonoT4.wav,2,1,4,16,,,,,1,10,26,15,0,0,0,11,,,3,3.1051875359989936,3,1.0029614820086863,4,2.483209602010902,1,2.183011790009914,,,021,001,2019_May_13_1110,MusicAffectPsychophysiology2019,3.0.5,59.922811626538774,
To what extent did the music make you feel ,ANGRY,30MonoWAV/30MonoT4.wav,2,1,4,16,,,,,1,10,26,15,0,1,1,2,,,,,,,,,1,0.8341663929895731,,,021,001,2019_May_13_1110,MusicAffectPsychophysiology2019,3.0.5,59.922811626538774,
To what extent did the music make you feel ,ALERT,30MonoWAV/30MonoT4.wav,2,1,4,16,,,,,1,10,26,15,0,2,2,8,,,,,,,,,1,1.5021888519986533,,,021,001,2019_May_13_1110,MusicAffectPsychophysiology2019,3.0.5,59.922811626538774,
To what extent did the music make you feel ,HAPPY,30MonoWAV/30MonoT4.wav,2,1,4,16,,,,,1,10,26,15,0,3,3,6,,,,,,,,,2,1.6526824739994481,,,021,001,2019_May_13_1110,MusicAffectPsychophysiology2019,3.0.5,59.922811626538774,
To what extent did the music make you feel ,EXCITED,30MonoWAV/30MonoT4.wav,2,1,4,16,,,,,1,10,26,15,0,4,4,7,,,,,,,,,1,0.8684211200015852,,,021,001,2019_May_13_1110,MusicAffectPsychophysiology2019,3.0.5,59.922811626538774,
To what extent did the music make you feel ,SAD,30MonoWAV/30MonoT4.wav,2,1,4,16,,,,,1,10,26,15,0,5,5,0,,,,,,,,,2,1.2521356430079322,,,021,001,2019_May_13_1110,MusicAffectPsychophysiology2019,3.0.5,59.922811626538774,
To what extent did the music make you feel ,GUILTY,30MonoWAV/30MonoT4.wav,2,1,4,16,,,,,1,10,26,15,0,6,6,5,,,,,,,,,1,1.5176685159967747,,,021,001,2019_May_13_1110,MusicAffectPsychophysiology2019,3.0.5,59.922811626538774,
To what extent did the music make you feel ,ASHAMED,30MonoWAV/30MonoT4.wav,2,1,4,16,,,,,1,10,26,15,0,7,7,4,,,,,,,,,1,1.4519485479977448,,,021,001,2019_May_13_1110,MusicAffectPsychophysiology2019,3.0.5,59.922811626538774,
To what extent did the music make you feel ,ACTIVE,30MonoWAV/30MonoT4.wav,2,1,4,16,,,,,1,10,26,15,0,8,8,9,,,,,,,,,2,0.684217025001999,,,021,001,2019_May_13_1110,MusicAffectPsychophysiology2019,3.0.5,59.922811626538774,
To what extent did the music make you feel ,TENDER,30MonoWAV/30MonoT4.wav,2,1,4,16,,,,,1,10,26,15,0,9,9,10,,,,,,,,,3,1.8681752889970085,,,021,001,2019_May_13_1110,MusicAffectPsychophysiology2019,3.0.5,59.922811626538774,
To what extent did the music make you feel ,FRUSTRATED,30MonoWAV/30MonoT4.wav,2,1,4,16,,,,,1,10,26,15,0,10,10,3,,,,,,,,,1,1.4063042370107723,,,021,001,2019_May_13_1110,MusicAffectPsychophysiology2019,3.0.5,59.922811626538774,
To what extent did the music make you feel ,ANXIOUS ,30MonoWAV/30MonoT4.wav,2,1,4,16,,,,,1,10,26,15,0,11,11,1,,,,,,,,,1,0.9358749969978817,,,021,001,2019_May_13_1110,MusicAffectPsychophysiology2019,3.0.5,59.922811626538774,
,,30MonoWAV/30MonoT4.wav,2,1,4,16,,,,,1,10,26,15,,,,,,,,,,,,,,,,,021,001,2019_May_13_1110,MusicAffectPsychophysiology2019,3.0.5,59.922811626538774,
To what extent did the music make you feel ,ALERT,30MonoWAV/30MonoH2.wav,2,2,1,6,,,,,1,11,27,5,0,0,0,8,,,4,2.6515229910000926,4,1.3506578060041647,4,0.26898099899699446,1,3.968272825004533,,,021,001,2019_May_13_1110,MusicAffectPsychophysiology2019,3.0.5,59.922811626538774,
To what extent did the music make you feel ,FRUSTRATED,30MonoWAV/30MonoH2.wav,2,2,1,6,,,,,1,11,27,5,0,1,1,3,,,,,,,,,1,0.8187058069888735,,,021,001,2019_May_13_1110,MusicAffectPsychophysiology2019,3.0.5,59.922811626538774,
To what extent did the music make you feel ,ANGRY,30MonoWAV/30MonoH2.wav,2,2,1,6,,,,,1,11,27,5,0,2,2,2,,,,,,,,,1,0.617812030002824,,,021,001,2019_May_13_1110,MusicAffectPsychophysiology2019,3.0.5,59.922811626538774,
To what extent did the music make you feel ,HAPPY,30MonoWAV/30MonoH2.wav,2,2,1,6,,,,,1,11,27,5,0,3,3,6,,,,,,,,,3,1.0527619269996649,,,021,001,2019_May_13_1110,MusicAffectPsychophysiology2019,3.0.5,59.922811626538774,
To what extent did the music make you feel ,SAD,30MonoWAV/30MonoH2.wav,2,2,1,6,,,,,1,11,27,5,0,4,4,0,,,,,,,,,1,0.6849662320018979,,,021,001,2019_May_13_1110,MusicAffectPsychophysiology2019,3.0.5,59.922811626538774,
To what extent did the music make you feel ,ACTIVE,30MonoWAV/30MonoH2.wav,2,2,1,6,,,,,1,11,27,5,0,5,5,9,,,,,,,,,2,0.8189644660014892,,,021,001,2019_May_13_1110,MusicAffectPsychophysiology2019,3.0.5,59.922811626538774,
To what extent did the music make you feel ,GUILTY,30MonoWAV/30MonoH2.wav,2,2,1,6,,,,,1,11,27,5,0,6,6,5,,,,,,,,,1,1.185093031002907,,,021,001,2019_May_13_1110,MusicAffectPsychophysiology2019,3.0.5,59.922811626538774,
To what extent did the music make you feel ,SCARED,30MonoWAV/30MonoH2.wav,2,2,1,6,,,,,1,11,27,5,0,7,7,11,,,,,,,,,1,0.8013636180112371,,,021,001,2019_May_13_1110,MusicAffectPsychophysiology2019,3.0.5,59.922811626538774,
To what extent did the music make you feel ,ANXIOUS ,30MonoWAV/30MonoH2.wav,2,2,1,6,,,,,1,11,27,5,0,8,8,1,,,,,,,,,1,1.1688972219999414,,,021,001,2019_May_13_1110,MusicAffectPsychophysiology2019,3.0.5,59.922811626538774,
To what extent did the music make you feel ,TENDER,30MonoWAV/30MonoH2.wav,2,2,1,6,,,,,1,11,27,5,0,9,9,10,,,,,,,,,2,0.8855544910038589,,,021,001,2019_May_13_1110,MusicAffectPsychophysiology2019,3.0.5,59.922811626538774,
To what extent did the music make you feel ,ASHAMED,30MonoWAV/30MonoH2.wav,2,2,1,6,,,,,1,11,27,5,0,10,10,4,,,,,,,,,1,1.4179899650043808,,,021,001,2019_May_13_1110,MusicAffectPsychophysiology2019,3.0.5,59.922811626538774,
To what extent did the music make you feel ,EXCITED,30MonoWAV/30MonoH2.wav,2,2,1,6,,,,,1,11,27,5,0,11,11,7,,,,,,,,,3,0.8016208259941777,,,021,001,2019_May_13_1110,MusicAffectPsychophysiology2019,3.0.5,59.922811626538774,
,,30MonoWAV/30MonoH2.wav,2,2,1,6,,,,,1,11,27,5,,,,,,,,,,,,,,,,,021,001,2019_May_13_1110,MusicAffectPsychophysiology2019,3.0.5,59.922811626538774,
To what extent did the music make you feel ,HAPPY,30MonoWAV/30MonoH4.wav,2,2,1,8,,,,,1,12,28,7,0,0,0,6,,,4,3.9351832209940767,4,0.3180940360034583,5,0.2194408210052643,4,3.1017253500031075,,,021,001,2019_May_13_1110,MusicAffectPsychophysiology2019,3.0.5,59.922811626538774,
To what extent did the music make you feel ,TENDER,30MonoWAV/30MonoH4.wav,2,2,1,8,,,,,1,12,28,7,0,1,1,10,,,,,,,,,2,1.2347973930009175,,,021,001,2019_May_13_1110,MusicAffectPsychophysiology2019,3.0.5,59.922811626538774,
To what extent did the music make you feel ,ACTIVE,30MonoWAV/30MonoH4.wav,2,2,1,8,,,,,1,12,28,7,0,2,2,9,,,,,,,,,3,1.1860149150015786,,,021,001,2019_May_13_1110,MusicAffectPsychophysiology2019,3.0.5,59.922811626538774,
To what extent did the music make you feel ,ALERT,30MonoWAV/30MonoH4.wav,2,2,1,8,,,,,1,12,28,7,0,3,3,8,,,,,,,,,2,1.2683981640002457,,,021,001,2019_May_13_1110,MusicAffectPsychophysiology2019,3.0.5,59.922811626538774,
To what extent did the music make you feel ,ANXIOUS ,30MonoWAV/30MonoH4.wav,2,2,1,8,,,,,1,12,28,7,0,4,4,1,,,,,,,,,1,1.0359181730018463,,,021,001,2019_May_13_1110,MusicAffectPsychophysiology2019,3.0.5,59.922811626538774,
To what extent did the music make you feel ,ASHAMED,30MonoWAV/30MonoH4.wav,2,2,1,8,,,,,1,12,28,7,0,5,5,4,,,,,,,,,1,0.7682567640003981,,,021,001,2019_May_13_1110,MusicAffectPsychophysiology2019,3.0.5,59.922811626538774,
To what extent did the music make you feel ,SAD,30MonoWAV/30MonoH4.wav,2,2,1,8,,,,,1,12,28,7,0,6,6,0,,,,,,,,,1,0.7519230940088164,,,021,001,2019_May_13_1110,MusicAffectPsychophysiology2019,3.0.5,59.922811626538774,
To what extent did the music make you feel ,ANGRY,30MonoWAV/30MonoH4.wav,2,2,1,8,,,,,1,12,28,7,0,7,7,2,,,,,,,,,1,0.5346595680020982,,,021,001,2019_May_13_1110,MusicAffectPsychophysiology2019,3.0.5,59.922811626538774,
To what extent did the music make you feel ,EXCITED,30MonoWAV/30MonoH4.wav,2,2,1,8,,,,,1,12,28,7,0,8,8,7,,,,,,,,,3,0.8353781119949417,,,021,001,2019_May_13_1110,MusicAffectPsychophysiology2019,3.0.5,59.922811626538774,
To what extent did the music make you feel ,GUILTY,30MonoWAV/30MonoH4.wav,2,2,1,8,,,,,1,12,28,7,0,9,9,5,,,,,,,,,1,0.5522148110030685,,,021,001,2019_May_13_1110,MusicAffectPsychophysiology2019,3.0.5,59.922811626538774,
To what extent did the music make you feel ,SCARED,30MonoWAV/30MonoH4.wav,2,2,1,8,,,,,1,12,28,7,0,10,10,11,,,,,,,,,1,1.1017003619926982,,,021,001,2019_May_13_1110,MusicAffectPsychophysiology2019,3.0.5,59.922811626538774,
To what extent did the music make you feel ,FRUSTRATED,30MonoWAV/30MonoH4.wav,2,2,1,8,,,,,1,12,28,7,0,11,11,3,,,,,,,,,1,0.5518355980020715,,,021,001,2019_May_13_1110,MusicAffectPsychophysiology2019,3.0.5,59.922811626538774,
,,30MonoWAV/30MonoH4.wav,2,2,1,8,,,,,1,12,28,7,,,,,,,,,,,,,,,,,021,001,2019_May_13_1110,MusicAffectPsychophysiology2019,3.0.5,59.922811626538774,
To what extent did the music make you feel ,ANXIOUS ,30MonoWAV/30MonoS3.wav,1,1,3,11,,,,,1,13,29,10,0,0,0,1,,,1,2.6176613699935842,1,0.7506259579968173,3,0.7524940699950093,2,3.2684087959933095,,,021,001,2019_May_13_1110,MusicAffectPsychophysiology2019,3.0.5,59.922811626538774,
To what extent did the music make you feel ,HAPPY,30MonoWAV/30MonoS3.wav,1,1,3,11,,,,,1,13,29,10,0,1,1,6,,,,,,,,,1,0.7852784410060849,,,021,001,2019_May_13_1110,MusicAffectPsychophysiology2019,3.0.5,59.922811626538774,
To what extent did the music make you feel ,EXCITED,30MonoWAV/30MonoS3.wav,1,1,3,11,,,,,1,13,29,10,0,2,2,7,,,,,,,,,1,0.5347763850004412,,,021,001,2019_May_13_1110,MusicAffectPsychophysiology2019,3.0.5,59.922811626538774,
To what extent did the music make you feel ,FRUSTRATED,30MonoWAV/30MonoS3.wav,1,1,3,11,,,,,1,13,29,10,0,3,3,3,,,,,,,,,1,1.5345450730092125,,,021,001,2019_May_13_1110,MusicAffectPsychophysiology2019,3.0.5,59.922811626538774,
To what extent did the music make you feel ,TENDER,30MonoWAV/30MonoS3.wav,1,1,3,11,,,,,1,13,29,10,0,4,4,10,,,,,,,,,2,1.1355174990021624,,,021,001,2019_May_13_1110,MusicAffectPsychophysiology2019,3.0.5,59.922811626538774,
To what extent did the music make you feel ,ALERT,30MonoWAV/30MonoS3.wav,1,1,3,11,,,,,1,13,29,10,0,5,5,8,,,,,,,,,1,0.9674957509996602,,,021,001,2019_May_13_1110,MusicAffectPsychophysiology2019,3.0.5,59.922811626538774,
To what extent did the music make you feel ,SCARED,30MonoWAV/30MonoS3.wav,1,1,3,11,,,,,1,13,29,10,0,6,6,11,,,,,,,,,2,1.3512834700086387,,,021,001,2019_May_13_1110,MusicAffectPsychophysiology2019,3.0.5,59.922811626538774,
To what extent did the music make you feel ,SAD,30MonoWAV/30MonoS3.wav,1,1,3,11,,,,,1,13,29,10,0,7,7,0,,,,,,,,,1,0.8675999569968553,,,021,001,2019_May_13_1110,MusicAffectPsychophysiology2019,3.0.5,59.922811626538774,
To what extent did the music make you feel ,GUILTY,30MonoWAV/30MonoS3.wav,1,1,3,11,,,,,1,13,29,10,0,8,8,5,,,,,,,,,2,2.5522588599997107,,,021,001,2019_May_13_1110,MusicAffectPsychophysiology2019,3.0.5,59.922811626538774,
To what extent did the music make you feel ,ASHAMED,30MonoWAV/30MonoS3.wav,1,1,3,11,,,,,1,13,29,10,0,9,9,4,,,,,,,,,2,1.0679669520031894,,,021,001,2019_May_13_1110,MusicAffectPsychophysiology2019,3.0.5,59.922811626538774,
To what extent did the music make you feel ,ANGRY,30MonoWAV/30MonoS3.wav,1,1,3,11,,,,,1,13,29,10,0,10,10,2,,,,,,,,,1,1.3349215380003443,,,021,001,2019_May_13_1110,MusicAffectPsychophysiology2019,3.0.5,59.922811626538774,
To what extent did the music make you feel ,ACTIVE,30MonoWAV/30MonoS3.wav,1,1,3,11,,,,,1,13,29,10,0,11,11,9,,,,,,,,,1,0.8348885669984156,,,021,001,2019_May_13_1110,MusicAffectPsychophysiology2019,3.0.5,59.922811626538774,
,,30MonoWAV/30MonoS3.wav,1,1,3,11,,,,,1,13,29,10,,,,,,,,,,,,,,,,,021,001,2019_May_13_1110,MusicAffectPsychophysiology2019,3.0.5,59.922811626538774,
To what extent did the music make you feel ,ACTIVE,30MonoWAV/30MonoT2.wav,2,1,4,14,,,,,1,14,30,13,0,0,0,9,,,2,3.9170514610013925,3,1.4186711029906292,2,1.8018270769971423,1,3.5668822860025102,,,021,001,2019_May_13_1110,MusicAffectPsychophysiology2019,3.0.5,59.922811626538774,
To what extent did the music make you feel ,SAD,30MonoWAV/30MonoT2.wav,2,1,4,14,,,,,1,14,30,13,0,1,1,0,,,,,,,,,2,1.1515750070102513,,,021,001,2019_May_13_1110,MusicAffectPsychophysiology2019,3.0.5,59.922811626538774,
To what extent did the music make you feel ,HAPPY,30MonoWAV/30MonoT2.wav,2,1,4,14,,,,,1,14,30,13,0,2,2,6,,,,,,,,,2,0.6854217469954165,,,021,001,2019_May_13_1110,MusicAffectPsychophysiology2019,3.0.5,59.922811626538774,
To what extent did the music make you feel ,TENDER,30MonoWAV/30MonoT2.wav,2,1,4,14,,,,,1,14,30,13,0,3,3,10,,,,,,,,,2,1.2354219069966348,,,021,001,2019_May_13_1110,MusicAffectPsychophysiology2019,3.0.5,59.922811626538774,
To what extent did the music make you feel ,SCARED,30MonoWAV/30MonoT2.wav,2,1,4,14,,,,,1,14,30,13,0,4,4,11,,,,,,,,,1,2.1355479119956726,,,021,001,2019_May_13_1110,MusicAffectPsychophysiology2019,3.0.5,59.922811626538774,
To what extent did the music make you feel ,ANGRY,30MonoWAV/30MonoT2.wav,2,1,4,14,,,,,1,14,30,13,0,5,5,2,,,,,,,,,1,1.2169607319956413,,,021,001,2019_May_13_1110,MusicAffectPsychophysiology2019,3.0.5,59.922811626538774,
To what extent did the music make you feel ,ASHAMED,30MonoWAV/30MonoT2.wav,2,1,4,14,,,,,1,14,30,13,0,6,6,4,,,,,,,,,2,1.1013793599995552,,,021,001,2019_May_13_1110,MusicAffectPsychophysiology2019,3.0.5,59.922811626538774,
To what extent did the music make you feel ,GUILTY,30MonoWAV/30MonoT2.wav,2,1,4,14,,,,,1,14,30,13,0,7,7,5,,,,,,,,,1,0.8358784890006064,,,021,001,2019_May_13_1110,MusicAffectPsychophysiology2019,3.0.5,59.922811626538774,
To what extent did the music make you feel ,FRUSTRATED,30MonoWAV/30MonoT2.wav,2,1,4,14,,,,,1,14,30,13,0,8,8,3,,,,,,,,,2,2.2357432239950867,,,021,001,2019_May_13_1110,MusicAffectPsychophysiology2019,3.0.5,59.922811626538774,
To what extent did the music make you feel ,ALERT,30MonoWAV/30MonoT2.wav,2,1,4,14,,,,,1,14,30,13,0,9,9,8,,,,,,,,,1,1.2349592590035172,,,021,001,2019_May_13_1110,MusicAffectPsychophysiology2019,3.0.5,59.922811626538774,
To what extent did the music make you feel ,ANXIOUS ,30MonoWAV/30MonoT2.wav,2,1,4,14,,,,,1,14,30,13,0,10,10,1,,,,,,,,,1,0.4687003719882341,,,021,001,2019_May_13_1110,MusicAffectPsychophysiology2019,3.0.5,59.922811626538774,
To what extent did the music make you feel ,EXCITED,30MonoWAV/30MonoT2.wav,2,1,4,14,,,,,1,14,30,13,0,11,11,7,,,,,,,,,1,2.100977744004922,,,021,001,2019_May_13_1110,MusicAffectPsychophysiology2019,3.0.5,59.922811626538774,
,,30MonoWAV/30MonoT2.wav,2,1,4,14,,,,,1,14,30,13,,,,,,,,,,,,,,,,,021,001,2019_May_13_1110,MusicAffectPsychophysiology2019,3.0.5,59.922811626538774,
To what extent did the music make you feel ,ACTIVE,30MonoWAV/30MonoS1.wav,1,1,3,9,,,,,1,15,31,8,0,0,0,9,,,1,2.34992154900101,1,1.001442403998226,3,1.1021207269950537,1,2.6181298440060345,,,021,001,2019_May_13_1110,MusicAffectPsychophysiology2019,3.0.5,59.922811626538774,
To what extent did the music make you feel ,TENDER,30MonoWAV/30MonoS1.wav,1,1,3,9,,,,,1,15,31,8,0,1,1,10,,,,,,,,,2,0.8686753229994792,,,021,001,2019_May_13_1110,MusicAffectPsychophysiology2019,3.0.5,59.922811626538774,
To what extent did the music make you feel ,SCARED,30MonoWAV/30MonoS1.wav,1,1,3,9,,,,,1,15,31,8,0,2,2,11,,,,,,,,,2,1.2695364889950724,,,021,001,2019_May_13_1110,MusicAffectPsychophysiology2019,3.0.5,59.922811626538774,
To what extent did the music make you feel ,ALERT,30MonoWAV/30MonoS1.wav,1,1,3,9,,,,,1,15,31,8,0,3,3,8,,,,,,,,,2,1.318535284997779,,,021,001,2019_May_13_1110,MusicAffectPsychophysiology2019,3.0.5,59.922811626538774,
To what extent did the music make you feel ,SAD,30MonoWAV/30MonoS1.wav,1,1,3,9,,,,,1,15,31,8,0,4,4,0,,,,,,,,,3,1.268710843010922,,,021,001,2019_May_13_1110,MusicAffectPsychophysiology2019,3.0.5,59.922811626538774,
To what extent did the music make you feel ,ANGRY,30MonoWAV/30MonoS1.wav,1,1,3,9,,,,,1,15,31,8,0,5,5,2,,,,,,,,,1,1.517672471003607,,,021,001,2019_May_13_1110,MusicAffectPsychophysiology2019,3.0.5,59.922811626538774,
To what extent did the music make you feel ,GUILTY,30MonoWAV/30MonoS1.wav,1,1,3,9,,,,,1,15,31,8,0,6,6,5,,,,,,,,,2,0.8528189630014822,,,021,001,2019_May_13_1110,MusicAffectPsychophysiology2019,3.0.5,59.922811626538774,
To what extent did the music make you feel ,ANXIOUS ,30MonoWAV/30MonoS1.wav,1,1,3,9,,,,,1,15,31,8,0,7,7,1,,,,,,,,,2,2.335782317997655,,,021,001,2019_May_13_1110,MusicAffectPsychophysiology2019,3.0.5,59.922811626538774,
To what extent did the music make you feel ,HAPPY,30MonoWAV/30MonoS1.wav,1,1,3,9,,,,,1,15,31,8,0,8,8,6,,,,,,,,,1,1.1842525279935217,,,021,001,2019_May_13_1110,MusicAffectPsychophysiology2019,3.0.5,59.922811626538774,
To what extent did the music make you feel ,FRUSTRATED,30MonoWAV/30MonoS1.wav,1,1,3,9,,,,,1,15,31,8,0,9,9,3,,,,,,,,,1,1.8849578649969772,,,021,001,2019_May_13_1110,MusicAffectPsychophysiology2019,3.0.5,59.922811626538774,
To what extent did the music make you feel ,EXCITED,30MonoWAV/30MonoS1.wav,1,1,3,9,,,,,1,15,31,8,0,10,10,7,,,,,,,,,1,0.6505403119954281,,,021,001,2019_May_13_1110,MusicAffectPsychophysiology2019,3.0.5,59.922811626538774,
To what extent did the music make you feel ,ASHAMED,30MonoWAV/30MonoS1.wav,1,1,3,9,,,,,1,15,31,8,0,11,11,4,,,,,,,,,2,0.9687443700095173,,,021,001,2019_May_13_1110,MusicAffectPsychophysiology2019,3.0.5,59.922811626538774,
,,30MonoWAV/30MonoS1.wav,1,1,3,9,,,,,1,15,31,8,,,,,,,,,,,,,,,,,021,001,2019_May_13_1110,MusicAffectPsychophysiology2019,3.0.5,59.922811626538774,
,,,,,,,,,,,,,,,,,,,,,,,,,,,,,space,19.741776741997455,021,001,2019_May_13_1110,MusicAffectPsychophysiology2019,3.0.5,59.922811626538774,
