Instruction,Word,song,valence,arousal,affectcat,songmark,pracwords.thisRepN,pracwords.thisTrialN,pracwords.thisN,pracwords.thisIndex,songtrials.thisRepN,songtrials.thisTrialN,songtrials.thisN,songtrials.thisIndex,words.thisRepN,words.thisTrialN,words.thisN,words.thisIndex,begin.keys,begin.rt,arousalkey.keys,arousalkey.rt,valencekey.keys,valencekey.rt,likekey.keys,likekey.rt,WordResponse.keys,WordResponse.rt,participant,session,date,expName,psychopyVersion,frameRate,
,,,,,,,,,,,,,,,,,,,8,21.16753321699798,,,,,,,,,022,001,2019_May_13_1314,MusicAffectPsychophysiology2019,3.0.5,60.31301247180628,
,,,,,,,,,,,,,,,,,,,,,2,6.102293488002033,,,,,,,022,001,2019_May_13_1314,MusicAffectPsychophysiology2019,3.0.5,60.31301247180628,
,,,,,,,,,,,,,,,,,,,,,,,4,4.817854224005714,,,,,022,001,2019_May_13_1314,MusicAffectPsychophysiology2019,3.0.5,60.31301247180628,
,,,,,,,,,,,,,,,,,,,,,,,,,3,3.8349631969904294,,,022,001,2019_May_13_1314,MusicAffectPsychophysiology2019,3.0.5,60.31301247180628,
To what extent did the music make you feel ,TENDER,,,,,,0,0,0,10,,,,,,,,,,,,,,,,,4,4.1597550959995715,022,001,2019_May_13_1314,MusicAffectPsychophysiology2019,3.0.5,60.31301247180628,
To what extent did the music make you feel ,ANXIOUS ,,,,,,0,1,1,1,,,,,,,,,,,,,,,,,1,2.2496032630006084,022,001,2019_May_13_1314,MusicAffectPsychophysiology2019,3.0.5,60.31301247180628,
To what extent did the music make you feel ,HAPPY,,,,,,0,2,2,6,,,,,,,,,,,,,,,,,3,2.086811492990819,022,001,2019_May_13_1314,MusicAffectPsychophysiology2019,3.0.5,60.31301247180628,
To what extent did the music make you feel ,ASHAMED,,,,,,0,3,3,4,,,,,,,,,,,,,,,,,1,1.9004142259946093,022,001,2019_May_13_1314,MusicAffectPsychophysiology2019,3.0.5,60.31301247180628,
To what extent did the music make you feel ,FRUSTRATED,,,,,,0,4,4,3,,,,,,,,,,,,,,,,,1,0.9518082370050251,022,001,2019_May_13_1314,MusicAffectPsychophysiology2019,3.0.5,60.31301247180628,
To what extent did the music make you feel ,SAD,,,,,,0,5,5,0,,,,,,,,,,,,,,,,,2,1.7515823319990886,022,001,2019_May_13_1314,MusicAffectPsychophysiology2019,3.0.5,60.31301247180628,
To what extent did the music make you feel ,ALERT,,,,,,0,6,6,8,,,,,,,,,,,,,,,,,1,3.235244841009262,022,001,2019_May_13_1314,MusicAffectPsychophysiology2019,3.0.5,60.31301247180628,
To what extent did the music make you feel ,ANGRY,,,,,,0,7,7,2,,,,,,,,,,,,,,,,,1,1.2844640650000656,022,001,2019_May_13_1314,MusicAffectPsychophysiology2019,3.0.5,60.31301247180628,
To what extent did the music make you feel ,GUILTY,,,,,,0,8,8,5,,,,,,,,,,,,,,,,,1,0.8518770490045426,022,001,2019_May_13_1314,MusicAffectPsychophysiology2019,3.0.5,60.31301247180628,
To what extent did the music make you feel ,EXCITED,,,,,,0,9,9,7,,,,,,,,,,,,,,,,,1,2.6680069229914807,022,001,2019_May_13_1314,MusicAffectPsychophysiology2019,3.0.5,60.31301247180628,
To what extent did the music make you feel ,SCARED,,,,,,0,10,10,11,,,,,,,,,,,,,,,,,1,1.0021830860059708,022,001,2019_May_13_1314,MusicAffectPsychophysiology2019,3.0.5,60.31301247180628,
To what extent did the music make you feel ,ACTIVE,,,,,,0,11,11,9,,,,,,,,,,,,,,,,,1,1.3679966689960565,022,001,2019_May_13_1314,MusicAffectPsychophysiology2019,3.0.5,60.31301247180628,
To what extent did the music make you feel ,SAD,30MonoWAV/30MonoS4.wav,1,1,3,12,,,,,0,0,0,11,0,0,0,0,,,1,3.385484851009096,1,3.7514105349982856,2,3.0348345109960064,4,2.3846270779904444,022,001,2019_May_13_1314,MusicAffectPsychophysiology2019,3.0.5,60.31301247180628,
To what extent did the music make you feel ,HAPPY,30MonoWAV/30MonoS4.wav,1,1,3,12,,,,,0,0,0,11,0,1,1,6,,,,,,,,,1,1.2525444269995205,022,001,2019_May_13_1314,MusicAffectPsychophysiology2019,3.0.5,60.31301247180628,
To what extent did the music make you feel ,ANGRY,30MonoWAV/30MonoS4.wav,1,1,3,12,,,,,0,0,0,11,0,2,2,2,,,,,,,,,1,1.7013710619939957,022,001,2019_May_13_1314,MusicAffectPsychophysiology2019,3.0.5,60.31301247180628,
To what extent did the music make you feel ,GUILTY,30MonoWAV/30MonoS4.wav,1,1,3,12,,,,,0,0,0,11,0,3,3,5,,,,,,,,,1,2.151500402993406,022,001,2019_May_13_1314,MusicAffectPsychophysiology2019,3.0.5,60.31301247180628,
To what extent did the music make you feel ,TENDER,30MonoWAV/30MonoS4.wav,1,1,3,12,,,,,0,0,0,11,0,4,4,10,,,,,,,,,3,3.1178334430005634,022,001,2019_May_13_1314,MusicAffectPsychophysiology2019,3.0.5,60.31301247180628,
To what extent did the music make you feel ,FRUSTRATED,30MonoWAV/30MonoS4.wav,1,1,3,12,,,,,0,0,0,11,0,5,5,3,,,,,,,,,1,1.6358849039970664,022,001,2019_May_13_1314,MusicAffectPsychophysiology2019,3.0.5,60.31301247180628,
To what extent did the music make you feel ,SCARED,30MonoWAV/30MonoS4.wav,1,1,3,12,,,,,0,0,0,11,0,6,6,11,,,,,,,,,1,1.701681127990014,022,001,2019_May_13_1314,MusicAffectPsychophysiology2019,3.0.5,60.31301247180628,
To what extent did the music make you feel ,ASHAMED,30MonoWAV/30MonoS4.wav,1,1,3,12,,,,,0,0,0,11,0,7,7,4,,,,,,,,,1,3.2185791640076786,022,001,2019_May_13_1314,MusicAffectPsychophysiology2019,3.0.5,60.31301247180628,
To what extent did the music make you feel ,ALERT,30MonoWAV/30MonoS4.wav,1,1,3,12,,,,,0,0,0,11,0,8,8,8,,,,,,,,,1,0.9520626669982448,022,001,2019_May_13_1314,MusicAffectPsychophysiology2019,3.0.5,60.31301247180628,
To what extent did the music make you feel ,ANXIOUS ,30MonoWAV/30MonoS4.wav,1,1,3,12,,,,,0,0,0,11,0,9,9,1,,,,,,,,,2,1.7513237329985714,022,001,2019_May_13_1314,MusicAffectPsychophysiology2019,3.0.5,60.31301247180628,
To what extent did the music make you feel ,EXCITED,30MonoWAV/30MonoS4.wav,1,1,3,12,,,,,0,0,0,11,0,10,10,7,,,,,,,,,1,0.8692812829976901,022,001,2019_May_13_1314,MusicAffectPsychophysiology2019,3.0.5,60.31301247180628,
To what extent did the music make you feel ,ACTIVE,30MonoWAV/30MonoS4.wav,1,1,3,12,,,,,0,0,0,11,0,11,11,9,,,,,,,,,1,1.3222712819988374,022,001,2019_May_13_1314,MusicAffectPsychophysiology2019,3.0.5,60.31301247180628,
,,30MonoWAV/30MonoS4.wav,1,1,3,12,,,,,0,0,0,11,,,,,,,,,,,,,,,022,001,2019_May_13_1314,MusicAffectPsychophysiology2019,3.0.5,60.31301247180628,
To what extent did the music make you feel ,FRUSTRATED,30MonoWAV/30MonoF3.wav,1,2,2,3,,,,,0,1,1,2,0,0,0,3,,,1,3.0763384879974183,1,2.5497591919993283,1,1.985112038004445,2,4.300281770003494,022,001,2019_May_13_1314,MusicAffectPsychophysiology2019,3.0.5,60.31301247180628,
To what extent did the music make you feel ,ANGRY,30MonoWAV/30MonoF3.wav,1,2,2,3,,,,,0,1,1,2,0,1,1,2,,,,,,,,,3,1.4662612099928083,022,001,2019_May_13_1314,MusicAffectPsychophysiology2019,3.0.5,60.31301247180628,
To what extent did the music make you feel ,ALERT,30MonoWAV/30MonoF3.wav,1,2,2,3,,,,,0,1,1,2,0,2,2,8,,,,,,,,,4,1.7018928470060928,022,001,2019_May_13_1314,MusicAffectPsychophysiology2019,3.0.5,60.31301247180628,
To what extent did the music make you feel ,SCARED,30MonoWAV/30MonoF3.wav,1,2,2,3,,,,,0,1,1,2,0,3,3,11,,,,,,,,,1,2.6010955450037727,022,001,2019_May_13_1314,MusicAffectPsychophysiology2019,3.0.5,60.31301247180628,
To what extent did the music make you feel ,ACTIVE,30MonoWAV/30MonoF3.wav,1,2,2,3,,,,,0,1,1,2,0,4,4,9,,,,,,,,,2,3.801966478000395,022,001,2019_May_13_1314,MusicAffectPsychophysiology2019,3.0.5,60.31301247180628,
To what extent did the music make you feel ,ANXIOUS ,30MonoWAV/30MonoF3.wav,1,2,2,3,,,,,0,1,1,2,0,5,5,1,,,,,,,,,1,3.401467824995052,022,001,2019_May_13_1314,MusicAffectPsychophysiology2019,3.0.5,60.31301247180628,
To what extent did the music make you feel ,TENDER,30MonoWAV/30MonoF3.wav,1,2,2,3,,,,,0,1,1,2,0,6,6,10,,,,,,,,,1,1.1516914829990128,022,001,2019_May_13_1314,MusicAffectPsychophysiology2019,3.0.5,60.31301247180628,
To what extent did the music make you feel ,ASHAMED,30MonoWAV/30MonoF3.wav,1,2,2,3,,,,,0,1,1,2,0,7,7,4,,,,,,,,,1,0.9175451560004149,022,001,2019_May_13_1314,MusicAffectPsychophysiology2019,3.0.5,60.31301247180628,
To what extent did the music make you feel ,GUILTY,30MonoWAV/30MonoF3.wav,1,2,2,3,,,,,0,1,1,2,0,8,8,5,,,,,,,,,1,0.9017287909955485,022,001,2019_May_13_1314,MusicAffectPsychophysiology2019,3.0.5,60.31301247180628,
To what extent did the music make you feel ,SAD,30MonoWAV/30MonoF3.wav,1,2,2,3,,,,,0,1,1,2,0,9,9,0,,,,,,,,,1,0.9682909109978937,022,001,2019_May_13_1314,MusicAffectPsychophysiology2019,3.0.5,60.31301247180628,
To what extent did the music make you feel ,HAPPY,30MonoWAV/30MonoF3.wav,1,2,2,3,,,,,0,1,1,2,0,10,10,6,,,,,,,,,1,0.818199861998437,022,001,2019_May_13_1314,MusicAffectPsychophysiology2019,3.0.5,60.31301247180628,
To what extent did the music make you feel ,EXCITED,30MonoWAV/30MonoF3.wav,1,2,2,3,,,,,0,1,1,2,0,11,11,7,,,,,,,,,1,1.2015985219914,022,001,2019_May_13_1314,MusicAffectPsychophysiology2019,3.0.5,60.31301247180628,
,,30MonoWAV/30MonoF3.wav,1,2,2,3,,,,,0,1,1,2,,,,,,,,,,,,,,,022,001,2019_May_13_1314,MusicAffectPsychophysiology2019,3.0.5,60.31301247180628,
To what extent did the music make you feel ,ANXIOUS ,30MonoWAV/30MonoS2.wav,1,1,3,10,,,,,0,2,2,9,0,0,0,1,,,1,2.5850251619995106,1,5.884748343989486,2,2.234574937989237,1,2.1998132599983364,022,001,2019_May_13_1314,MusicAffectPsychophysiology2019,3.0.5,60.31301247180628,
To what extent did the music make you feel ,ANGRY,30MonoWAV/30MonoS2.wav,1,1,3,10,,,,,0,2,2,9,0,1,1,2,,,,,,,,,1,0.7173356499988586,022,001,2019_May_13_1314,MusicAffectPsychophysiology2019,3.0.5,60.31301247180628,
To what extent did the music make you feel ,EXCITED,30MonoWAV/30MonoS2.wav,1,1,3,10,,,,,0,2,2,9,0,2,2,7,,,,,,,,,1,0.7517643749888521,022,001,2019_May_13_1314,MusicAffectPsychophysiology2019,3.0.5,60.31301247180628,
To what extent did the music make you feel ,TENDER,30MonoWAV/30MonoS2.wav,1,1,3,10,,,,,0,2,2,9,0,3,3,10,,,,,,,,,3,2.6996585160086397,022,001,2019_May_13_1314,MusicAffectPsychophysiology2019,3.0.5,60.31301247180628,
To what extent did the music make you feel ,SAD,30MonoWAV/30MonoS2.wav,1,1,3,10,,,,,0,2,2,9,0,4,4,0,,,,,,,,,3,1.834784391001449,022,001,2019_May_13_1314,MusicAffectPsychophysiology2019,3.0.5,60.31301247180628,
To what extent did the music make you feel ,ACTIVE,30MonoWAV/30MonoS2.wav,1,1,3,10,,,,,0,2,2,9,0,5,5,9,,,,,,,,,1,1.1178566570015391,022,001,2019_May_13_1314,MusicAffectPsychophysiology2019,3.0.5,60.31301247180628,
To what extent did the music make you feel ,ALERT,30MonoWAV/30MonoS2.wav,1,1,3,10,,,,,0,2,2,9,0,6,6,8,,,,,,,,,1,5.9512719250051305,022,001,2019_May_13_1314,MusicAffectPsychophysiology2019,3.0.5,60.31301247180628,
To what extent did the music make you feel ,HAPPY,30MonoWAV/30MonoS2.wav,1,1,3,10,,,,,0,2,2,9,0,7,7,6,,,,,,,,,1,0.884251775991288,022,001,2019_May_13_1314,MusicAffectPsychophysiology2019,3.0.5,60.31301247180628,
To what extent did the music make you feel ,GUILTY,30MonoWAV/30MonoS2.wav,1,1,3,10,,,,,0,2,2,9,0,8,8,5,,,,,,,,,1,0.7020703610032797,022,001,2019_May_13_1314,MusicAffectPsychophysiology2019,3.0.5,60.31301247180628,
To what extent did the music make you feel ,SCARED,30MonoWAV/30MonoS2.wav,1,1,3,10,,,,,0,2,2,9,0,9,9,11,,,,,,,,,1,1.2162784989923239,022,001,2019_May_13_1314,MusicAffectPsychophysiology2019,3.0.5,60.31301247180628,
To what extent did the music make you feel ,ASHAMED,30MonoWAV/30MonoS2.wav,1,1,3,10,,,,,0,2,2,9,0,10,10,4,,,,,,,,,1,2.625364933992387,022,001,2019_May_13_1314,MusicAffectPsychophysiology2019,3.0.5,60.31301247180628,
To what extent did the music make you feel ,FRUSTRATED,30MonoWAV/30MonoS2.wav,1,1,3,10,,,,,0,2,2,9,0,11,11,3,,,,,,,,,1,1.1027892449928913,022,001,2019_May_13_1314,MusicAffectPsychophysiology2019,3.0.5,60.31301247180628,
,,30MonoWAV/30MonoS2.wav,1,1,3,10,,,,,0,2,2,9,,,,,,,,,,,,,,,022,001,2019_May_13_1314,MusicAffectPsychophysiology2019,3.0.5,60.31301247180628,
To what extent did the music make you feel ,SAD,30MonoWAV/30MonoH2.wav,2,2,1,6,,,,,0,3,3,5,0,0,0,0,,,2,4.767228091004654,2,2.557524050993379,1,2.9051295280078193,1,2.002723204001086,022,001,2019_May_13_1314,MusicAffectPsychophysiology2019,3.0.5,60.31301247180628,
To what extent did the music make you feel ,ACTIVE,30MonoWAV/30MonoH2.wav,2,2,1,6,,,,,0,3,3,5,0,1,1,9,,,,,,,,,1,2.4220619549887488,022,001,2019_May_13_1314,MusicAffectPsychophysiology2019,3.0.5,60.31301247180628,
To what extent did the music make you feel ,FRUSTRATED,30MonoWAV/30MonoH2.wav,2,2,1,6,,,,,0,3,3,5,0,2,2,3,,,,,,,,,1,2.0518157009937568,022,001,2019_May_13_1314,MusicAffectPsychophysiology2019,3.0.5,60.31301247180628,
To what extent did the music make you feel ,ASHAMED,30MonoWAV/30MonoH2.wav,2,2,1,6,,,,,0,3,3,5,0,3,3,4,,,,,,,,,1,0.7665701840014663,022,001,2019_May_13_1314,MusicAffectPsychophysiology2019,3.0.5,60.31301247180628,
To what extent did the music make you feel ,TENDER,30MonoWAV/30MonoH2.wav,2,2,1,6,,,,,0,3,3,5,0,4,4,10,,,,,,,,,1,0.9667927859991323,022,001,2019_May_13_1314,MusicAffectPsychophysiology2019,3.0.5,60.31301247180628,
To what extent did the music make you feel ,ALERT,30MonoWAV/30MonoH2.wav,2,2,1,6,,,,,0,3,3,5,0,5,5,8,,,,,,,,,3,2.017550812000991,022,001,2019_May_13_1314,MusicAffectPsychophysiology2019,3.0.5,60.31301247180628,
To what extent did the music make you feel ,ANXIOUS ,30MonoWAV/30MonoH2.wav,2,2,1,6,,,,,0,3,3,5,0,6,6,1,,,,,,,,,2,2.884827279005549,022,001,2019_May_13_1314,MusicAffectPsychophysiology2019,3.0.5,60.31301247180628,
To what extent did the music make you feel ,HAPPY,30MonoWAV/30MonoH2.wav,2,2,1,6,,,,,0,3,3,5,0,7,7,6,,,,,,,,,1,3.0673695110017434,022,001,2019_May_13_1314,MusicAffectPsychophysiology2019,3.0.5,60.31301247180628,
To what extent did the music make you feel ,ANGRY,30MonoWAV/30MonoH2.wav,2,2,1,6,,,,,0,3,3,5,0,8,8,2,,,,,,,,,1,3.851644734997535,022,001,2019_May_13_1314,MusicAffectPsychophysiology2019,3.0.5,60.31301247180628,
To what extent did the music make you feel ,GUILTY,30MonoWAV/30MonoH2.wav,2,2,1,6,,,,,0,3,3,5,0,9,9,5,,,,,,,,,1,0.7520556689996738,022,001,2019_May_13_1314,MusicAffectPsychophysiology2019,3.0.5,60.31301247180628,
To what extent did the music make you feel ,SCARED,30MonoWAV/30MonoH2.wav,2,2,1,6,,,,,0,3,3,5,0,10,10,11,,,,,,,,,1,4.1520302269927924,022,001,2019_May_13_1314,MusicAffectPsychophysiology2019,3.0.5,60.31301247180628,
To what extent did the music make you feel ,EXCITED,30MonoWAV/30MonoH2.wav,2,2,1,6,,,,,0,3,3,5,0,11,11,7,,,,,,,,,1,1.6171789310028544,022,001,2019_May_13_1314,MusicAffectPsychophysiology2019,3.0.5,60.31301247180628,
,,30MonoWAV/30MonoH2.wav,2,2,1,6,,,,,0,3,3,5,,,,,,,,,,,,,,,022,001,2019_May_13_1314,MusicAffectPsychophysiology2019,3.0.5,60.31301247180628,
To what extent did the music make you feel ,EXCITED,30MonoWAV/30MonoF1.wav,1,2,2,1,,,,,0,4,4,0,0,0,0,7,,,3,6.33864317300322,1,4.757127140997909,1,1.2528472389967646,1,1.272433998004999,022,001,2019_May_13_1314,MusicAffectPsychophysiology2019,3.0.5,60.31301247180628,
To what extent did the music make you feel ,ANGRY,30MonoWAV/30MonoF1.wav,1,2,2,1,,,,,0,4,4,0,0,1,1,2,,,,,,,,,1,0.9845910879957955,022,001,2019_May_13_1314,MusicAffectPsychophysiology2019,3.0.5,60.31301247180628,
To what extent did the music make you feel ,ASHAMED,30MonoWAV/30MonoF1.wav,1,2,2,1,,,,,0,4,4,0,0,2,2,4,,,,,,,,,1,0.883371140997042,022,001,2019_May_13_1314,MusicAffectPsychophysiology2019,3.0.5,60.31301247180628,
To what extent did the music make you feel ,SAD,30MonoWAV/30MonoF1.wav,1,2,2,1,,,,,0,4,4,0,0,3,3,0,,,,,,,,,1,1.4022175049904035,022,001,2019_May_13_1314,MusicAffectPsychophysiology2019,3.0.5,60.31301247180628,
To what extent did the music make you feel ,HAPPY,30MonoWAV/30MonoF1.wav,1,2,2,1,,,,,0,4,4,0,0,4,4,6,,,,,,,,,1,1.4520178520033369,022,001,2019_May_13_1314,MusicAffectPsychophysiology2019,3.0.5,60.31301247180628,
To what extent did the music make you feel ,FRUSTRATED,30MonoWAV/30MonoF1.wav,1,2,2,1,,,,,0,4,4,0,0,5,5,3,,,,,,,,,1,2.683412660000613,022,001,2019_May_13_1314,MusicAffectPsychophysiology2019,3.0.5,60.31301247180628,
To what extent did the music make you feel ,ANXIOUS ,30MonoWAV/30MonoF1.wav,1,2,2,1,,,,,0,4,4,0,0,6,6,1,,,,,,,,,3,1.6012353080004686,022,001,2019_May_13_1314,MusicAffectPsychophysiology2019,3.0.5,60.31301247180628,
To what extent did the music make you feel ,ALERT,30MonoWAV/30MonoF1.wav,1,2,2,1,,,,,0,4,4,0,0,7,7,8,,,,,,,,,3,2.002395207993686,022,001,2019_May_13_1314,MusicAffectPsychophysiology2019,3.0.5,60.31301247180628,
To what extent did the music make you feel ,ACTIVE,30MonoWAV/30MonoF1.wav,1,2,2,1,,,,,0,4,4,0,0,8,8,9,,,,,,,,,1,2.169353717996273,022,001,2019_May_13_1314,MusicAffectPsychophysiology2019,3.0.5,60.31301247180628,
To what extent did the music make you feel ,SCARED,30MonoWAV/30MonoF1.wav,1,2,2,1,,,,,0,4,4,0,0,9,9,11,,,,,,,,,3,1.9669241070077987,022,001,2019_May_13_1314,MusicAffectPsychophysiology2019,3.0.5,60.31301247180628,
To what extent did the music make you feel ,TENDER,30MonoWAV/30MonoF1.wav,1,2,2,1,,,,,0,4,4,0,0,10,10,10,,,,,,,,,1,1.9036399329925189,022,001,2019_May_13_1314,MusicAffectPsychophysiology2019,3.0.5,60.31301247180628,
To what extent did the music make you feel ,GUILTY,30MonoWAV/30MonoF1.wav,1,2,2,1,,,,,0,4,4,0,0,11,11,5,,,,,,,,,1,0.7180029830051353,022,001,2019_May_13_1314,MusicAffectPsychophysiology2019,3.0.5,60.31301247180628,
,,30MonoWAV/30MonoF1.wav,1,2,2,1,,,,,0,4,4,0,,,,,,,,,,,,,,,022,001,2019_May_13_1314,MusicAffectPsychophysiology2019,3.0.5,60.31301247180628,
To what extent did the music make you feel ,TENDER,30MonoWAV/30MonoF2.wav,1,2,2,2,,,,,0,5,5,1,0,0,0,10,,,2,4.424457934001111,1,1.7062333990033949,1,1.5509462720074225,1,1.185906694008736,022,001,2019_May_13_1314,MusicAffectPsychophysiology2019,3.0.5,60.31301247180628,
To what extent did the music make you feel ,ALERT,30MonoWAV/30MonoF2.wav,1,2,2,2,,,,,0,5,5,1,0,1,1,8,,,,,,,,,3,1.7524795780045679,022,001,2019_May_13_1314,MusicAffectPsychophysiology2019,3.0.5,60.31301247180628,
To what extent did the music make you feel ,ANXIOUS ,30MonoWAV/30MonoF2.wav,1,2,2,2,,,,,0,5,5,1,0,2,2,1,,,,,,,,,3,1.5668770060001407,022,001,2019_May_13_1314,MusicAffectPsychophysiology2019,3.0.5,60.31301247180628,
To what extent did the music make you feel ,ASHAMED,30MonoWAV/30MonoF2.wav,1,2,2,2,,,,,0,5,5,1,0,3,3,4,,,,,,,,,1,1.0352699950017268,022,001,2019_May_13_1314,MusicAffectPsychophysiology2019,3.0.5,60.31301247180628,
To what extent did the music make you feel ,FRUSTRATED,30MonoWAV/30MonoF2.wav,1,2,2,2,,,,,0,5,5,1,0,4,4,3,,,,,,,,,1,1.1857938039902365,022,001,2019_May_13_1314,MusicAffectPsychophysiology2019,3.0.5,60.31301247180628,
To what extent did the music make you feel ,SCARED,30MonoWAV/30MonoF2.wav,1,2,2,2,,,,,0,5,5,1,0,5,5,11,,,,,,,,,4,1.2843812349892687,022,001,2019_May_13_1314,MusicAffectPsychophysiology2019,3.0.5,60.31301247180628,
To what extent did the music make you feel ,ACTIVE,30MonoWAV/30MonoF2.wav,1,2,2,2,,,,,0,5,5,1,0,6,6,9,,,,,,,,,1,1.0501235999981873,022,001,2019_May_13_1314,MusicAffectPsychophysiology2019,3.0.5,60.31301247180628,
To what extent did the music make you feel ,HAPPY,30MonoWAV/30MonoF2.wav,1,2,2,2,,,,,0,5,5,1,0,7,7,6,,,,,,,,,1,1.3179078360117273,022,001,2019_May_13_1314,MusicAffectPsychophysiology2019,3.0.5,60.31301247180628,
To what extent did the music make you feel ,GUILTY,30MonoWAV/30MonoF2.wav,1,2,2,2,,,,,0,5,5,1,0,8,8,5,,,,,,,,,1,0.767811152007198,022,001,2019_May_13_1314,MusicAffectPsychophysiology2019,3.0.5,60.31301247180628,
To what extent did the music make you feel ,ANGRY,30MonoWAV/30MonoF2.wav,1,2,2,2,,,,,0,5,5,1,0,9,9,2,,,,,,,,,1,0.8516483029961819,022,001,2019_May_13_1314,MusicAffectPsychophysiology2019,3.0.5,60.31301247180628,
To what extent did the music make you feel ,EXCITED,30MonoWAV/30MonoF2.wav,1,2,2,2,,,,,0,5,5,1,0,10,10,7,,,,,,,,,1,0.8167863139969995,022,001,2019_May_13_1314,MusicAffectPsychophysiology2019,3.0.5,60.31301247180628,
To what extent did the music make you feel ,SAD,30MonoWAV/30MonoF2.wav,1,2,2,2,,,,,0,5,5,1,0,11,11,0,,,,,,,,,1,0.9366499919997295,022,001,2019_May_13_1314,MusicAffectPsychophysiology2019,3.0.5,60.31301247180628,
,,30MonoWAV/30MonoF2.wav,1,2,2,2,,,,,0,5,5,1,,,,,,,,,,,,,,,022,001,2019_May_13_1314,MusicAffectPsychophysiology2019,3.0.5,60.31301247180628,
To what extent did the music make you feel ,ASHAMED,30MonoWAV/30MonoH3.wav,2,2,1,7,,,,,0,6,6,6,0,0,0,4,,,4,3.0174879010010045,4,2.3346808909991523,2,2.2855391779885394,1,3.3839274759957334,022,001,2019_May_13_1314,MusicAffectPsychophysiology2019,3.0.5,60.31301247180628,
To what extent did the music make you feel ,FRUSTRATED,30MonoWAV/30MonoH3.wav,2,2,1,7,,,,,0,6,6,6,0,1,1,3,,,,,,,,,1,0.9686891510064015,022,001,2019_May_13_1314,MusicAffectPsychophysiology2019,3.0.5,60.31301247180628,
To what extent did the music make you feel ,EXCITED,30MonoWAV/30MonoH3.wav,2,2,1,7,,,,,0,6,6,6,0,2,2,7,,,,,,,,,2,1.1229633869952522,022,001,2019_May_13_1314,MusicAffectPsychophysiology2019,3.0.5,60.31301247180628,
To what extent did the music make you feel ,TENDER,30MonoWAV/30MonoH3.wav,2,2,1,7,,,,,0,6,6,6,0,3,3,10,,,,,,,,,1,0.9871480709989555,022,001,2019_May_13_1314,MusicAffectPsychophysiology2019,3.0.5,60.31301247180628,
To what extent did the music make you feel ,SAD,30MonoWAV/30MonoH3.wav,2,2,1,7,,,,,0,6,6,6,0,4,4,0,,,,,,,,,1,0.617336613999214,022,001,2019_May_13_1314,MusicAffectPsychophysiology2019,3.0.5,60.31301247180628,
To what extent did the music make you feel ,ALERT,30MonoWAV/30MonoH3.wav,2,2,1,7,,,,,0,6,6,6,0,5,5,8,,,,,,,,,2,1.3035740639897995,022,001,2019_May_13_1314,MusicAffectPsychophysiology2019,3.0.5,60.31301247180628,
To what extent did the music make you feel ,ANGRY,30MonoWAV/30MonoH3.wav,2,2,1,7,,,,,0,6,6,6,0,6,6,2,,,,,,,,,1,1.670109880011296,022,001,2019_May_13_1314,MusicAffectPsychophysiology2019,3.0.5,60.31301247180628,
To what extent did the music make you feel ,ANXIOUS ,30MonoWAV/30MonoH3.wav,2,2,1,7,,,,,0,6,6,6,0,7,7,1,,,,,,,,,1,0.7202162839967059,022,001,2019_May_13_1314,MusicAffectPsychophysiology2019,3.0.5,60.31301247180628,
To what extent did the music make you feel ,HAPPY,30MonoWAV/30MonoH3.wav,2,2,1,7,,,,,0,6,6,6,0,8,8,6,,,,,,,,,3,1.5071331689978251,022,001,2019_May_13_1314,MusicAffectPsychophysiology2019,3.0.5,60.31301247180628,
To what extent did the music make you feel ,ACTIVE,30MonoWAV/30MonoH3.wav,2,2,1,7,,,,,0,6,6,6,0,9,9,9,,,,,,,,,2,3.9189301899896236,022,001,2019_May_13_1314,MusicAffectPsychophysiology2019,3.0.5,60.31301247180628,
To what extent did the music make you feel ,SCARED,30MonoWAV/30MonoH3.wav,2,2,1,7,,,,,0,6,6,6,0,10,10,11,,,,,,,,,1,2.501664764000452,022,001,2019_May_13_1314,MusicAffectPsychophysiology2019,3.0.5,60.31301247180628,
To what extent did the music make you feel ,GUILTY,30MonoWAV/30MonoH3.wav,2,2,1,7,,,,,0,6,6,6,0,11,11,5,,,,,,,,,1,0.7024687500088476,022,001,2019_May_13_1314,MusicAffectPsychophysiology2019,3.0.5,60.31301247180628,
,,30MonoWAV/30MonoH3.wav,2,2,1,7,,,,,0,6,6,6,,,,,,,,,,,,,,,022,001,2019_May_13_1314,MusicAffectPsychophysiology2019,3.0.5,60.31301247180628,
To what extent did the music make you feel ,EXCITED,30MonoWAV/30MonoT3.wav,2,1,4,15,,,,,0,7,7,14,0,0,0,7,,,2,4.899988700009999,3,2.85247972299112,4,3.551915863994509,1,2.501395016995957,022,001,2019_May_13_1314,MusicAffectPsychophysiology2019,3.0.5,60.31301247180628,
To what extent did the music make you feel ,ANXIOUS ,30MonoWAV/30MonoT3.wav,2,1,4,15,,,,,0,7,7,14,0,1,1,1,,,,,,,,,1,1.0353679050022038,022,001,2019_May_13_1314,MusicAffectPsychophysiology2019,3.0.5,60.31301247180628,
To what extent did the music make you feel ,ACTIVE,30MonoWAV/30MonoT3.wav,2,1,4,15,,,,,0,7,7,14,0,2,2,9,,,,,,,,,1,0.7519761580042541,022,001,2019_May_13_1314,MusicAffectPsychophysiology2019,3.0.5,60.31301247180628,
To what extent did the music make you feel ,TENDER,30MonoWAV/30MonoT3.wav,2,1,4,15,,,,,0,7,7,14,0,3,3,10,,,,,,,,,2,0.8351270870043663,022,001,2019_May_13_1314,MusicAffectPsychophysiology2019,3.0.5,60.31301247180628,
To what extent did the music make you feel ,ALERT,30MonoWAV/30MonoT3.wav,2,1,4,15,,,,,0,7,7,14,0,4,4,8,,,,,,,,,1,2.4001210239948705,022,001,2019_May_13_1314,MusicAffectPsychophysiology2019,3.0.5,60.31301247180628,
To what extent did the music make you feel ,HAPPY,30MonoWAV/30MonoT3.wav,2,1,4,15,,,,,0,7,7,14,0,5,5,6,,,,,,,,,2,1.4356406790029723,022,001,2019_May_13_1314,MusicAffectPsychophysiology2019,3.0.5,60.31301247180628,
To what extent did the music make you feel ,FRUSTRATED,30MonoWAV/30MonoT3.wav,2,1,4,15,,,,,0,7,7,14,0,6,6,3,,,,,,,,,1,0.668453756996314,022,001,2019_May_13_1314,MusicAffectPsychophysiology2019,3.0.5,60.31301247180628,
To what extent did the music make you feel ,ANGRY,30MonoWAV/30MonoT3.wav,2,1,4,15,,,,,0,7,7,14,0,7,7,2,,,,,,,,,1,4.965745983994566,022,001,2019_May_13_1314,MusicAffectPsychophysiology2019,3.0.5,60.31301247180628,
To what extent did the music make you feel ,SCARED,30MonoWAV/30MonoT3.wav,2,1,4,15,,,,,0,7,7,14,0,8,8,11,,,,,,,,,1,1.2342190259951167,022,001,2019_May_13_1314,MusicAffectPsychophysiology2019,3.0.5,60.31301247180628,
To what extent did the music make you feel ,GUILTY,30MonoWAV/30MonoT3.wav,2,1,4,15,,,,,0,7,7,14,0,9,9,5,,,,,,,,,1,0.8846897759940475,022,001,2019_May_13_1314,MusicAffectPsychophysiology2019,3.0.5,60.31301247180628,
To what extent did the music make you feel ,ASHAMED,30MonoWAV/30MonoT3.wav,2,1,4,15,,,,,0,7,7,14,0,10,10,4,,,,,,,,,1,2.0351093739882344,022,001,2019_May_13_1314,MusicAffectPsychophysiology2019,3.0.5,60.31301247180628,
To what extent did the music make you feel ,SAD,30MonoWAV/30MonoT3.wav,2,1,4,15,,,,,0,7,7,14,0,11,11,0,,,,,,,,,2,1.3996992750035133,022,001,2019_May_13_1314,MusicAffectPsychophysiology2019,3.0.5,60.31301247180628,
,,30MonoWAV/30MonoT3.wav,2,1,4,15,,,,,0,7,7,14,,,,,,,,,,,,,,,022,001,2019_May_13_1314,MusicAffectPsychophysiology2019,3.0.5,60.31301247180628,
To what extent did the music make you feel ,TENDER,30MonoWAV/30MonoS1.wav,1,1,3,9,,,,,0,8,8,8,0,0,0,10,,,2,2.268423470988637,1,3.3849476449977374,4,3.317972203003592,4,4.235149803993409,022,001,2019_May_13_1314,MusicAffectPsychophysiology2019,3.0.5,60.31301247180628,
To what extent did the music make you feel ,SAD,30MonoWAV/30MonoS1.wav,1,1,3,9,,,,,0,8,8,8,0,1,1,0,,,,,,,,,3,2.0352075300033903,022,001,2019_May_13_1314,MusicAffectPsychophysiology2019,3.0.5,60.31301247180628,
To what extent did the music make you feel ,ALERT,30MonoWAV/30MonoS1.wav,1,1,3,9,,,,,0,8,8,8,0,2,2,8,,,,,,,,,1,1.167924565001158,022,001,2019_May_13_1314,MusicAffectPsychophysiology2019,3.0.5,60.31301247180628,
To what extent did the music make you feel ,ANGRY,30MonoWAV/30MonoS1.wav,1,1,3,9,,,,,0,8,8,8,0,3,3,2,,,,,,,,,1,0.7518548929947428,022,001,2019_May_13_1314,MusicAffectPsychophysiology2019,3.0.5,60.31301247180628,
To what extent did the music make you feel ,GUILTY,30MonoWAV/30MonoS1.wav,1,1,3,9,,,,,0,8,8,8,0,4,4,5,,,,,,,,,1,0.7350846429908415,022,001,2019_May_13_1314,MusicAffectPsychophysiology2019,3.0.5,60.31301247180628,
To what extent did the music make you feel ,ACTIVE,30MonoWAV/30MonoS1.wav,1,1,3,9,,,,,0,8,8,8,0,5,5,9,,,,,,,,,1,0.7005387160024839,022,001,2019_May_13_1314,MusicAffectPsychophysiology2019,3.0.5,60.31301247180628,
To what extent did the music make you feel ,SCARED,30MonoWAV/30MonoS1.wav,1,1,3,9,,,,,0,8,8,8,0,6,6,11,,,,,,,,,1,1.1018063219962642,022,001,2019_May_13_1314,MusicAffectPsychophysiology2019,3.0.5,60.31301247180628,
To what extent did the music make you feel ,EXCITED,30MonoWAV/30MonoS1.wav,1,1,3,9,,,,,0,8,8,8,0,7,7,7,,,,,,,,,1,1.051736597000854,022,001,2019_May_13_1314,MusicAffectPsychophysiology2019,3.0.5,60.31301247180628,
To what extent did the music make you feel ,ASHAMED,30MonoWAV/30MonoS1.wav,1,1,3,9,,,,,0,8,8,8,0,8,8,4,,,,,,,,,1,0.6684509269980481,022,001,2019_May_13_1314,MusicAffectPsychophysiology2019,3.0.5,60.31301247180628,
To what extent did the music make you feel ,HAPPY,30MonoWAV/30MonoS1.wav,1,1,3,9,,,,,0,8,8,8,0,9,9,6,,,,,,,,,1,1.685047331993701,022,001,2019_May_13_1314,MusicAffectPsychophysiology2019,3.0.5,60.31301247180628,
To what extent did the music make you feel ,ANXIOUS ,30MonoWAV/30MonoS1.wav,1,1,3,9,,,,,0,8,8,8,0,10,10,1,,,,,,,,,2,1.1348355900117895,022,001,2019_May_13_1314,MusicAffectPsychophysiology2019,3.0.5,60.31301247180628,
To what extent did the music make you feel ,FRUSTRATED,30MonoWAV/30MonoS1.wav,1,1,3,9,,,,,0,8,8,8,0,11,11,3,,,,,,,,,1,0.9857198539975798,022,001,2019_May_13_1314,MusicAffectPsychophysiology2019,3.0.5,60.31301247180628,
,,30MonoWAV/30MonoS1.wav,1,1,3,9,,,,,0,8,8,8,,,,,,,,,,,,,,,022,001,2019_May_13_1314,MusicAffectPsychophysiology2019,3.0.5,60.31301247180628,
To what extent did the music make you feel ,ANGRY,30MonoWAV/30MonoF4.wav,1,2,2,4,,,,,0,9,9,3,0,0,0,2,,,3,3.418236544006504,1,2.6674552190088434,1,1.768209982998087,1,3.684566983007244,022,001,2019_May_13_1314,MusicAffectPsychophysiology2019,3.0.5,60.31301247180628,
To what extent did the music make you feel ,ALERT,30MonoWAV/30MonoF4.wav,1,2,2,4,,,,,0,9,9,3,0,1,1,8,,,,,,,,,4,1.5690184559935005,022,001,2019_May_13_1314,MusicAffectPsychophysiology2019,3.0.5,60.31301247180628,
To what extent did the music make you feel ,FRUSTRATED,30MonoWAV/30MonoF4.wav,1,2,2,4,,,,,0,9,9,3,0,2,2,3,,,,,,,,,1,4.1842942499934,022,001,2019_May_13_1314,MusicAffectPsychophysiology2019,3.0.5,60.31301247180628,
To what extent did the music make you feel ,SCARED,30MonoWAV/30MonoF4.wav,1,2,2,4,,,,,0,9,9,3,0,3,3,11,,,,,,,,,2,2.2849374910001643,022,001,2019_May_13_1314,MusicAffectPsychophysiology2019,3.0.5,60.31301247180628,
To what extent did the music make you feel ,HAPPY,30MonoWAV/30MonoF4.wav,1,2,2,4,,,,,0,9,9,3,0,4,4,6,,,,,,,,,1,4.2522519119957,022,001,2019_May_13_1314,MusicAffectPsychophysiology2019,3.0.5,60.31301247180628,
To what extent did the music make you feel ,GUILTY,30MonoWAV/30MonoF4.wav,1,2,2,4,,,,,0,9,9,3,0,5,5,5,,,,,,,,,1,0.6183985090028727,022,001,2019_May_13_1314,MusicAffectPsychophysiology2019,3.0.5,60.31301247180628,
To what extent did the music make you feel ,ASHAMED,30MonoWAV/30MonoF4.wav,1,2,2,4,,,,,0,9,9,3,0,6,6,4,,,,,,,,,1,0.7514891250029905,022,001,2019_May_13_1314,MusicAffectPsychophysiology2019,3.0.5,60.31301247180628,
To what extent did the music make you feel ,EXCITED,30MonoWAV/30MonoF4.wav,1,2,2,4,,,,,0,9,9,3,0,7,7,7,,,,,,,,,1,0.9175443389976863,022,001,2019_May_13_1314,MusicAffectPsychophysiology2019,3.0.5,60.31301247180628,
To what extent did the music make you feel ,TENDER,30MonoWAV/30MonoF4.wav,1,2,2,4,,,,,0,9,9,3,0,8,8,10,,,,,,,,,1,0.6849028149881633,022,001,2019_May_13_1314,MusicAffectPsychophysiology2019,3.0.5,60.31301247180628,
To what extent did the music make you feel ,ACTIVE,30MonoWAV/30MonoF4.wav,1,2,2,4,,,,,0,9,9,3,0,9,9,9,,,,,,,,,1,1.6835388250037795,022,001,2019_May_13_1314,MusicAffectPsychophysiology2019,3.0.5,60.31301247180628,
To what extent did the music make you feel ,SAD,30MonoWAV/30MonoF4.wav,1,2,2,4,,,,,0,9,9,3,0,10,10,0,,,,,,,,,1,0.7682448340055998,022,001,2019_May_13_1314,MusicAffectPsychophysiology2019,3.0.5,60.31301247180628,
To what extent did the music make you feel ,ANXIOUS ,30MonoWAV/30MonoF4.wav,1,2,2,4,,,,,0,9,9,3,0,11,11,1,,,,,,,,,1,0.7998532470082864,022,001,2019_May_13_1314,MusicAffectPsychophysiology2019,3.0.5,60.31301247180628,
,,30MonoWAV/30MonoF4.wav,1,2,2,4,,,,,0,9,9,3,,,,,,,,,,,,,,,022,001,2019_May_13_1314,MusicAffectPsychophysiology2019,3.0.5,60.31301247180628,
To what extent did the music make you feel ,SCARED,30MonoWAV/30MonoT4.wav,2,1,4,16,,,,,0,10,10,15,0,0,0,11,,,2,4.5186375780031085,3,11.317670345000806,2,1.8346753840014571,1,1.2180608530034078,022,001,2019_May_13_1314,MusicAffectPsychophysiology2019,3.0.5,60.31301247180628,
To what extent did the music make you feel ,ASHAMED,30MonoWAV/30MonoT4.wav,2,1,4,16,,,,,0,10,10,15,0,1,1,4,,,,,,,,,1,1.035341522001545,022,001,2019_May_13_1314,MusicAffectPsychophysiology2019,3.0.5,60.31301247180628,
To what extent did the music make you feel ,HAPPY,30MonoWAV/30MonoT4.wav,2,1,4,16,,,,,0,10,10,15,0,2,2,6,,,,,,,,,2,1.0180128820065875,022,001,2019_May_13_1314,MusicAffectPsychophysiology2019,3.0.5,60.31301247180628,
To what extent did the music make you feel ,ANGRY,30MonoWAV/30MonoT4.wav,2,1,4,16,,,,,0,10,10,15,0,3,3,2,,,,,,,,,1,7.099683455002378,022,001,2019_May_13_1314,MusicAffectPsychophysiology2019,3.0.5,60.31301247180628,
To what extent did the music make you feel ,FRUSTRATED,30MonoWAV/30MonoT4.wav,2,1,4,16,,,,,0,10,10,15,0,4,4,3,,,,,,,,,1,0.8016394439910073,022,001,2019_May_13_1314,MusicAffectPsychophysiology2019,3.0.5,60.31301247180628,
To what extent did the music make you feel ,ANXIOUS ,30MonoWAV/30MonoT4.wav,2,1,4,16,,,,,0,10,10,15,0,5,5,1,,,,,,,,,1,1.0361575669958256,022,001,2019_May_13_1314,MusicAffectPsychophysiology2019,3.0.5,60.31301247180628,
To what extent did the music make you feel ,GUILTY,30MonoWAV/30MonoT4.wav,2,1,4,16,,,,,0,10,10,15,0,6,6,5,,,,,,,,,1,0.4678185179946013,022,001,2019_May_13_1314,MusicAffectPsychophysiology2019,3.0.5,60.31301247180628,
To what extent did the music make you feel ,EXCITED,30MonoWAV/30MonoT4.wav,2,1,4,16,,,,,0,10,10,15,0,7,7,7,,,,,,,,,1,0.718706010011374,022,001,2019_May_13_1314,MusicAffectPsychophysiology2019,3.0.5,60.31301247180628,
To what extent did the music make you feel ,ACTIVE,30MonoWAV/30MonoT4.wav,2,1,4,16,,,,,0,10,10,15,0,8,8,9,,,,,,,,,1,0.8530178020009771,022,001,2019_May_13_1314,MusicAffectPsychophysiology2019,3.0.5,60.31301247180628,
To what extent did the music make you feel ,SAD,30MonoWAV/30MonoT4.wav,2,1,4,16,,,,,0,10,10,15,0,9,9,0,,,,,,,,,1,0.9860405069921399,022,001,2019_May_13_1314,MusicAffectPsychophysiology2019,3.0.5,60.31301247180628,
To what extent did the music make you feel ,TENDER,30MonoWAV/30MonoT4.wav,2,1,4,16,,,,,0,10,10,15,0,10,10,10,,,,,,,,,3,1.5692519010044634,022,001,2019_May_13_1314,MusicAffectPsychophysiology2019,3.0.5,60.31301247180628,
To what extent did the music make you feel ,ALERT,30MonoWAV/30MonoT4.wav,2,1,4,16,,,,,0,10,10,15,0,11,11,8,,,,,,,,,1,2.785366829004488,022,001,2019_May_13_1314,MusicAffectPsychophysiology2019,3.0.5,60.31301247180628,
,,30MonoWAV/30MonoT4.wav,2,1,4,16,,,,,0,10,10,15,,,,,,,,,,,,,,,022,001,2019_May_13_1314,MusicAffectPsychophysiology2019,3.0.5,60.31301247180628,
To what extent did the music make you feel ,SCARED,30MonoWAV/30MonoS3.wav,1,1,3,11,,,,,0,11,11,10,0,0,0,11,,,1,8.00153653700545,1,1.6510610739933327,1,1.6019597419945057,2,3.783924522998859,022,001,2019_May_13_1314,MusicAffectPsychophysiology2019,3.0.5,60.31301247180628,
To what extent did the music make you feel ,EXCITED,30MonoWAV/30MonoS3.wav,1,1,3,11,,,,,0,11,11,10,0,1,1,7,,,,,,,,,1,0.8520641719951527,022,001,2019_May_13_1314,MusicAffectPsychophysiology2019,3.0.5,60.31301247180628,
To what extent did the music make you feel ,ACTIVE,30MonoWAV/30MonoS3.wav,1,1,3,11,,,,,0,11,11,10,0,2,2,9,,,,,,,,,1,1.4842010900028981,022,001,2019_May_13_1314,MusicAffectPsychophysiology2019,3.0.5,60.31301247180628,
To what extent did the music make you feel ,ANGRY,30MonoWAV/30MonoS3.wav,1,1,3,11,,,,,0,11,11,10,0,3,3,2,,,,,,,,,1,0.7014499799988698,022,001,2019_May_13_1314,MusicAffectPsychophysiology2019,3.0.5,60.31301247180628,
To what extent did the music make you feel ,ANXIOUS ,30MonoWAV/30MonoS3.wav,1,1,3,11,,,,,0,11,11,10,0,4,4,1,,,,,,,,,2,0.8674092669971287,022,001,2019_May_13_1314,MusicAffectPsychophysiology2019,3.0.5,60.31301247180628,
To what extent did the music make you feel ,GUILTY,30MonoWAV/30MonoS3.wav,1,1,3,11,,,,,0,11,11,10,0,5,5,5,,,,,,,,,1,3.167752531997394,022,001,2019_May_13_1314,MusicAffectPsychophysiology2019,3.0.5,60.31301247180628,
To what extent did the music make you feel ,FRUSTRATED,30MonoWAV/30MonoS3.wav,1,1,3,11,,,,,0,11,11,10,0,6,6,3,,,,,,,,,1,0.9434266890020808,022,001,2019_May_13_1314,MusicAffectPsychophysiology2019,3.0.5,60.31301247180628,
To what extent did the music make you feel ,TENDER,30MonoWAV/30MonoS3.wav,1,1,3,11,,,,,0,11,11,10,0,7,7,10,,,,,,,,,2,1.670875078998506,022,001,2019_May_13_1314,MusicAffectPsychophysiology2019,3.0.5,60.31301247180628,
To what extent did the music make you feel ,SAD,30MonoWAV/30MonoS3.wav,1,1,3,11,,,,,0,11,11,10,0,8,8,0,,,,,,,,,2,1.7730710559990257,022,001,2019_May_13_1314,MusicAffectPsychophysiology2019,3.0.5,60.31301247180628,
To what extent did the music make you feel ,ALERT,30MonoWAV/30MonoS3.wav,1,1,3,11,,,,,0,11,11,10,0,9,9,8,,,,,,,,,1,0.9190833119937452,022,001,2019_May_13_1314,MusicAffectPsychophysiology2019,3.0.5,60.31301247180628,
To what extent did the music make you feel ,HAPPY,30MonoWAV/30MonoS3.wav,1,1,3,11,,,,,0,11,11,10,0,10,10,6,,,,,,,,,1,0.5667765469988808,022,001,2019_May_13_1314,MusicAffectPsychophysiology2019,3.0.5,60.31301247180628,
To what extent did the music make you feel ,ASHAMED,30MonoWAV/30MonoS3.wav,1,1,3,11,,,,,0,11,11,10,0,11,11,4,,,,,,,,,2,1.170038085008855,022,001,2019_May_13_1314,MusicAffectPsychophysiology2019,3.0.5,60.31301247180628,
,,30MonoWAV/30MonoS3.wav,1,1,3,11,,,,,0,11,11,10,,,,,,,,,,,,,,,022,001,2019_May_13_1314,MusicAffectPsychophysiology2019,3.0.5,60.31301247180628,
To what extent did the music make you feel ,ANGRY,30MonoWAV/30MonoH1.wav,2,2,1,5,,,,,0,12,12,4,0,0,0,2,,,3,2.604715348003083,3,1.9210157510096906,3,1.4693473520019324,1,1.673459802987054,022,001,2019_May_13_1314,MusicAffectPsychophysiology2019,3.0.5,60.31301247180628,
To what extent did the music make you feel ,ALERT,30MonoWAV/30MonoH1.wav,2,2,1,5,,,,,0,12,12,4,0,1,1,8,,,,,,,,,2,1.5508253879961558,022,001,2019_May_13_1314,MusicAffectPsychophysiology2019,3.0.5,60.31301247180628,
To what extent did the music make you feel ,ANXIOUS ,30MonoWAV/30MonoH1.wav,2,2,1,5,,,,,0,12,12,4,0,2,2,1,,,,,,,,,1,0.9180378829914844,022,001,2019_May_13_1314,MusicAffectPsychophysiology2019,3.0.5,60.31301247180628,
To what extent did the music make you feel ,ASHAMED,30MonoWAV/30MonoH1.wav,2,2,1,5,,,,,0,12,12,4,0,3,3,4,,,,,,,,,1,0.8025191060005454,022,001,2019_May_13_1314,MusicAffectPsychophysiology2019,3.0.5,60.31301247180628,
To what extent did the music make you feel ,SAD,30MonoWAV/30MonoH1.wav,2,2,1,5,,,,,0,12,12,4,0,4,4,0,,,,,,,,,1,0.7675743930012686,022,001,2019_May_13_1314,MusicAffectPsychophysiology2019,3.0.5,60.31301247180628,
To what extent did the music make you feel ,FRUSTRATED,30MonoWAV/30MonoH1.wav,2,2,1,5,,,,,0,12,12,4,0,5,5,3,,,,,,,,,1,0.6683697080006823,022,001,2019_May_13_1314,MusicAffectPsychophysiology2019,3.0.5,60.31301247180628,
To what extent did the music make you feel ,ACTIVE,30MonoWAV/30MonoH1.wav,2,2,1,5,,,,,0,12,12,4,0,6,6,9,,,,,,,,,2,1.950915163004538,022,001,2019_May_13_1314,MusicAffectPsychophysiology2019,3.0.5,60.31301247180628,
To what extent did the music make you feel ,HAPPY,30MonoWAV/30MonoH1.wav,2,2,1,5,,,,,0,12,12,4,0,7,7,6,,,,,,,,,2,0.8848582619975787,022,001,2019_May_13_1314,MusicAffectPsychophysiology2019,3.0.5,60.31301247180628,
To what extent did the music make you feel ,TENDER,30MonoWAV/30MonoH1.wav,2,2,1,5,,,,,0,12,12,4,0,8,8,10,,,,,,,,,1,0.849670192998019,022,001,2019_May_13_1314,MusicAffectPsychophysiology2019,3.0.5,60.31301247180628,
To what extent did the music make you feel ,GUILTY,30MonoWAV/30MonoH1.wav,2,2,1,5,,,,,0,12,12,4,0,9,9,5,,,,,,,,,1,0.5852237780054566,022,001,2019_May_13_1314,MusicAffectPsychophysiology2019,3.0.5,60.31301247180628,
To what extent did the music make you feel ,EXCITED,30MonoWAV/30MonoH1.wav,2,2,1,5,,,,,0,12,12,4,0,10,10,7,,,,,,,,,2,0.8174824989982881,022,001,2019_May_13_1314,MusicAffectPsychophysiology2019,3.0.5,60.31301247180628,
To what extent did the music make you feel ,SCARED,30MonoWAV/30MonoH1.wav,2,2,1,5,,,,,0,12,12,4,0,11,11,11,,,,,,,,,1,0.6018578619987238,022,001,2019_May_13_1314,MusicAffectPsychophysiology2019,3.0.5,60.31301247180628,
,,30MonoWAV/30MonoH1.wav,2,2,1,5,,,,,0,12,12,4,,,,,,,,,,,,,,,022,001,2019_May_13_1314,MusicAffectPsychophysiology2019,3.0.5,60.31301247180628,
To what extent did the music make you feel ,ANXIOUS ,30MonoWAV/30MonoT2.wav,2,1,4,14,,,,,0,13,13,13,0,0,0,1,,,2,3.0667171589884674,3,3.1008889980003005,3,1.2682418820040766,1,1.801071749010589,022,001,2019_May_13_1314,MusicAffectPsychophysiology2019,3.0.5,60.31301247180628,
To what extent did the music make you feel ,SCARED,30MonoWAV/30MonoT2.wav,2,1,4,14,,,,,0,13,13,13,0,1,1,11,,,,,,,,,1,0.8684365569934016,022,001,2019_May_13_1314,MusicAffectPsychophysiology2019,3.0.5,60.31301247180628,
To what extent did the music make you feel ,TENDER,30MonoWAV/30MonoT2.wav,2,1,4,14,,,,,0,13,13,13,0,2,2,10,,,,,,,,,3,1.1008193279994885,022,001,2019_May_13_1314,MusicAffectPsychophysiology2019,3.0.5,60.31301247180628,
To what extent did the music make you feel ,FRUSTRATED,30MonoWAV/30MonoT2.wav,2,1,4,14,,,,,0,13,13,13,0,3,3,3,,,,,,,,,1,1.501144863999798,022,001,2019_May_13_1314,MusicAffectPsychophysiology2019,3.0.5,60.31301247180628,
To what extent did the music make you feel ,SAD,30MonoWAV/30MonoT2.wav,2,1,4,14,,,,,0,13,13,13,0,4,4,0,,,,,,,,,2,1.0844663979951292,022,001,2019_May_13_1314,MusicAffectPsychophysiology2019,3.0.5,60.31301247180628,
To what extent did the music make you feel ,ASHAMED,30MonoWAV/30MonoT2.wav,2,1,4,14,,,,,0,13,13,13,0,5,5,4,,,,,,,,,1,1.6360109849920264,022,001,2019_May_13_1314,MusicAffectPsychophysiology2019,3.0.5,60.31301247180628,
To what extent did the music make you feel ,EXCITED,30MonoWAV/30MonoT2.wav,2,1,4,14,,,,,0,13,13,13,0,6,6,7,,,,,,,,,1,1.2355201169993961,022,001,2019_May_13_1314,MusicAffectPsychophysiology2019,3.0.5,60.31301247180628,
To what extent did the music make you feel ,ACTIVE,30MonoWAV/30MonoT2.wav,2,1,4,14,,,,,0,13,13,13,0,7,7,9,,,,,,,,,1,0.7185208729933947,022,001,2019_May_13_1314,MusicAffectPsychophysiology2019,3.0.5,60.31301247180628,
To what extent did the music make you feel ,ALERT,30MonoWAV/30MonoT2.wav,2,1,4,14,,,,,0,13,13,13,0,8,8,8,,,,,,,,,1,0.9167289909964893,022,001,2019_May_13_1314,MusicAffectPsychophysiology2019,3.0.5,60.31301247180628,
To what extent did the music make you feel ,ANGRY,30MonoWAV/30MonoT2.wav,2,1,4,14,,,,,0,13,13,13,0,9,9,2,,,,,,,,,1,1.0194549779989757,022,001,2019_May_13_1314,MusicAffectPsychophysiology2019,3.0.5,60.31301247180628,
To what extent did the music make you feel ,HAPPY,30MonoWAV/30MonoT2.wav,2,1,4,14,,,,,0,13,13,13,0,10,10,6,,,,,,,,,2,2.267489766003564,022,001,2019_May_13_1314,MusicAffectPsychophysiology2019,3.0.5,60.31301247180628,
To what extent did the music make you feel ,GUILTY,30MonoWAV/30MonoT2.wav,2,1,4,14,,,,,0,13,13,13,0,11,11,5,,,,,,,,,1,0.6829569209949113,022,001,2019_May_13_1314,MusicAffectPsychophysiology2019,3.0.5,60.31301247180628,
,,30MonoWAV/30MonoT2.wav,2,1,4,14,,,,,0,13,13,13,,,,,,,,,,,,,,,022,001,2019_May_13_1314,MusicAffectPsychophysiology2019,3.0.5,60.31301247180628,
To what extent did the music make you feel ,ANXIOUS ,30MonoWAV/30MonoT1.wav,2,1,4,13,,,,,0,14,14,12,0,0,0,1,,,1,5.968750739004463,2,2.5507305060018552,1,2.534877755009802,1,1.35182566299045,022,001,2019_May_13_1314,MusicAffectPsychophysiology2019,3.0.5,60.31301247180628,
To what extent did the music make you feel ,FRUSTRATED,30MonoWAV/30MonoT1.wav,2,1,4,13,,,,,0,14,14,12,0,1,1,3,,,,,,,,,1,0.7345360129984329,022,001,2019_May_13_1314,MusicAffectPsychophysiology2019,3.0.5,60.31301247180628,
To what extent did the music make you feel ,ALERT,30MonoWAV/30MonoT1.wav,2,1,4,13,,,,,0,14,14,12,0,2,2,8,,,,,,,,,1,0.7837961750046816,022,001,2019_May_13_1314,MusicAffectPsychophysiology2019,3.0.5,60.31301247180628,
To what extent did the music make you feel ,SCARED,30MonoWAV/30MonoT1.wav,2,1,4,13,,,,,0,14,14,12,0,3,3,11,,,,,,,,,1,0.7518987320072483,022,001,2019_May_13_1314,MusicAffectPsychophysiology2019,3.0.5,60.31301247180628,
To what extent did the music make you feel ,ACTIVE,30MonoWAV/30MonoT1.wav,2,1,4,13,,,,,0,14,14,12,0,4,4,9,,,,,,,,,1,0.8361295470094774,022,001,2019_May_13_1314,MusicAffectPsychophysiology2019,3.0.5,60.31301247180628,
To what extent did the music make you feel ,GUILTY,30MonoWAV/30MonoT1.wav,2,1,4,13,,,,,0,14,14,12,0,5,5,5,,,,,,,,,1,0.6508154199982528,022,001,2019_May_13_1314,MusicAffectPsychophysiology2019,3.0.5,60.31301247180628,
To what extent did the music make you feel ,ANGRY,30MonoWAV/30MonoT1.wav,2,1,4,13,,,,,0,14,14,12,0,6,6,2,,,,,,,,,1,0.5012331350008026,022,001,2019_May_13_1314,MusicAffectPsychophysiology2019,3.0.5,60.31301247180628,
To what extent did the music make you feel ,HAPPY,30MonoWAV/30MonoT1.wav,2,1,4,13,,,,,0,14,14,12,0,7,7,6,,,,,,,,,1,1.5835899779922329,022,001,2019_May_13_1314,MusicAffectPsychophysiology2019,3.0.5,60.31301247180628,
To what extent did the music make you feel ,SAD,30MonoWAV/30MonoT1.wav,2,1,4,13,,,,,0,14,14,12,0,8,8,0,,,,,,,,,1,2.3915508019999834,022,001,2019_May_13_1314,MusicAffectPsychophysiology2019,3.0.5,60.31301247180628,
To what extent did the music make you feel ,ASHAMED,30MonoWAV/30MonoT1.wav,2,1,4,13,,,,,0,14,14,12,0,9,9,4,,,,,,,,,1,2.8706193849939154,022,001,2019_May_13_1314,MusicAffectPsychophysiology2019,3.0.5,60.31301247180628,
To what extent did the music make you feel ,EXCITED,30MonoWAV/30MonoT1.wav,2,1,4,13,,,,,0,14,14,12,0,10,10,7,,,,,,,,,1,0.9519862830056809,022,001,2019_May_13_1314,MusicAffectPsychophysiology2019,3.0.5,60.31301247180628,
To what extent did the music make you feel ,TENDER,30MonoWAV/30MonoT1.wav,2,1,4,13,,,,,0,14,14,12,0,11,11,10,,,,,,,,,2,1.3906477659911616,022,001,2019_May_13_1314,MusicAffectPsychophysiology2019,3.0.5,60.31301247180628,
,,30MonoWAV/30MonoT1.wav,2,1,4,13,,,,,0,14,14,12,,,,,,,,,,,,,,,022,001,2019_May_13_1314,MusicAffectPsychophysiology2019,3.0.5,60.31301247180628,
To what extent did the music make you feel ,ANXIOUS ,30MonoWAV/30MonoH4.wav,2,2,1,8,,,,,0,15,15,7,0,0,0,1,,,2,3.46998089599947,2,2.1691314939962467,2,1.684733205998782,1,1.2347839639987797,022,001,2019_May_13_1314,MusicAffectPsychophysiology2019,3.0.5,60.31301247180628,
To what extent did the music make you feel ,ACTIVE,30MonoWAV/30MonoH4.wav,2,2,1,8,,,,,0,15,15,7,0,1,1,9,,,,,,,,,3,1.6850854999938747,022,001,2019_May_13_1314,MusicAffectPsychophysiology2019,3.0.5,60.31301247180628,
To what extent did the music make you feel ,ALERT,30MonoWAV/30MonoH4.wav,2,2,1,8,,,,,0,15,15,7,0,2,2,8,,,,,,,,,2,1.818354917995748,022,001,2019_May_13_1314,MusicAffectPsychophysiology2019,3.0.5,60.31301247180628,
To what extent did the music make you feel ,SCARED,30MonoWAV/30MonoH4.wav,2,2,1,8,,,,,0,15,15,7,0,3,3,11,,,,,,,,,1,1.618832022009883,022,001,2019_May_13_1314,MusicAffectPsychophysiology2019,3.0.5,60.31301247180628,
To what extent did the music make you feel ,TENDER,30MonoWAV/30MonoH4.wav,2,2,1,8,,,,,0,15,15,7,0,4,4,10,,,,,,,,,1,0.8183979540044675,022,001,2019_May_13_1314,MusicAffectPsychophysiology2019,3.0.5,60.31301247180628,
To what extent did the music make you feel ,FRUSTRATED,30MonoWAV/30MonoH4.wav,2,2,1,8,,,,,0,15,15,7,0,5,5,3,,,,,,,,,1,0.9683873119938653,022,001,2019_May_13_1314,MusicAffectPsychophysiology2019,3.0.5,60.31301247180628,
To what extent did the music make you feel ,EXCITED,30MonoWAV/30MonoH4.wav,2,2,1,8,,,,,0,15,15,7,0,6,6,7,,,,,,,,,2,1.0885374450008385,022,001,2019_May_13_1314,MusicAffectPsychophysiology2019,3.0.5,60.31301247180628,
To what extent did the music make you feel ,ANGRY,30MonoWAV/30MonoH4.wav,2,2,1,8,,,,,0,15,15,7,0,7,7,2,,,,,,,,,1,0.8529536999994889,022,001,2019_May_13_1314,MusicAffectPsychophysiology2019,3.0.5,60.31301247180628,
To what extent did the music make you feel ,SAD,30MonoWAV/30MonoH4.wav,2,2,1,8,,,,,0,15,15,7,0,8,8,0,,,,,,,,,1,0.96894266900199,022,001,2019_May_13_1314,MusicAffectPsychophysiology2019,3.0.5,60.31301247180628,
To what extent did the music make you feel ,ASHAMED,30MonoWAV/30MonoH4.wav,2,2,1,8,,,,,0,15,15,7,0,9,9,4,,,,,,,,,1,1.8038367950066458,022,001,2019_May_13_1314,MusicAffectPsychophysiology2019,3.0.5,60.31301247180628,
To what extent did the music make you feel ,HAPPY,30MonoWAV/30MonoH4.wav,2,2,1,8,,,,,0,15,15,7,0,10,10,6,,,,,,,,,2,0.9531226370017976,022,001,2019_May_13_1314,MusicAffectPsychophysiology2019,3.0.5,60.31301247180628,
To what extent did the music make you feel ,GUILTY,30MonoWAV/30MonoH4.wav,2,2,1,8,,,,,0,15,15,7,0,11,11,5,,,,,,,,,1,0.7840005920006661,022,001,2019_May_13_1314,MusicAffectPsychophysiology2019,3.0.5,60.31301247180628,
,,30MonoWAV/30MonoH4.wav,2,2,1,8,,,,,0,15,15,7,,,,,,,,,,,,,,,022,001,2019_May_13_1314,MusicAffectPsychophysiology2019,3.0.5,60.31301247180628,
To what extent did the music make you feel ,SAD,30MonoWAV/30MonoT1.wav,2,1,4,13,,,,,1,0,16,12,0,0,0,0,,,1,2.752791154998704,2,2.9176732469932176,1,2.316691896994598,1,3.000458164999145,022,001,2019_May_13_1314,MusicAffectPsychophysiology2019,3.0.5,60.31301247180628,
To what extent did the music make you feel ,SCARED,30MonoWAV/30MonoT1.wav,2,1,4,13,,,,,1,0,16,12,0,1,1,11,,,,,,,,,1,1.651925707992632,022,001,2019_May_13_1314,MusicAffectPsychophysiology2019,3.0.5,60.31301247180628,
To what extent did the music make you feel ,ANGRY,30MonoWAV/30MonoT1.wav,2,1,4,13,,,,,1,0,16,12,0,2,2,2,,,,,,,,,1,0.8020699600019725,022,001,2019_May_13_1314,MusicAffectPsychophysiology2019,3.0.5,60.31301247180628,
To what extent did the music make you feel ,EXCITED,30MonoWAV/30MonoT1.wav,2,1,4,13,,,,,1,0,16,12,0,3,3,7,,,,,,,,,1,0.7517267719958909,022,001,2019_May_13_1314,MusicAffectPsychophysiology2019,3.0.5,60.31301247180628,
To what extent did the music make you feel ,GUILTY,30MonoWAV/30MonoT1.wav,2,1,4,13,,,,,1,0,16,12,0,4,4,5,,,,,,,,,1,0.8191096329974243,022,001,2019_May_13_1314,MusicAffectPsychophysiology2019,3.0.5,60.31301247180628,
To what extent did the music make you feel ,TENDER,30MonoWAV/30MonoT1.wav,2,1,4,13,,,,,1,0,16,12,0,5,5,10,,,,,,,,,2,0.9516170250135474,022,001,2019_May_13_1314,MusicAffectPsychophysiology2019,3.0.5,60.31301247180628,
To what extent did the music make you feel ,ANXIOUS ,30MonoWAV/30MonoT1.wav,2,1,4,13,,,,,1,0,16,12,0,6,6,1,,,,,,,,,1,3.435562892991584,022,001,2019_May_13_1314,MusicAffectPsychophysiology2019,3.0.5,60.31301247180628,
To what extent did the music make you feel ,ALERT,30MonoWAV/30MonoT1.wav,2,1,4,13,,,,,1,0,16,12,0,7,7,8,,,,,,,,,1,0.8026746120012831,022,001,2019_May_13_1314,MusicAffectPsychophysiology2019,3.0.5,60.31301247180628,
To what extent did the music make you feel ,ASHAMED,30MonoWAV/30MonoT1.wav,2,1,4,13,,,,,1,0,16,12,0,8,8,4,,,,,,,,,1,0.901615184993716,022,001,2019_May_13_1314,MusicAffectPsychophysiology2019,3.0.5,60.31301247180628,
To what extent did the music make you feel ,HAPPY,30MonoWAV/30MonoT1.wav,2,1,4,13,,,,,1,0,16,12,0,9,9,6,,,,,,,,,1,1.4181678850000026,022,001,2019_May_13_1314,MusicAffectPsychophysiology2019,3.0.5,60.31301247180628,
To what extent did the music make you feel ,FRUSTRATED,30MonoWAV/30MonoT1.wav,2,1,4,13,,,,,1,0,16,12,0,10,10,3,,,,,,,,,1,2.818102072997135,022,001,2019_May_13_1314,MusicAffectPsychophysiology2019,3.0.5,60.31301247180628,
To what extent did the music make you feel ,ACTIVE,30MonoWAV/30MonoT1.wav,2,1,4,13,,,,,1,0,16,12,0,11,11,9,,,,,,,,,1,1.0837532000005012,022,001,2019_May_13_1314,MusicAffectPsychophysiology2019,3.0.5,60.31301247180628,
,,30MonoWAV/30MonoT1.wav,2,1,4,13,,,,,1,0,16,12,,,,,,,,,,,,,,,022,001,2019_May_13_1314,MusicAffectPsychophysiology2019,3.0.5,60.31301247180628,
To what extent did the music make you feel ,EXCITED,30MonoWAV/30MonoS1.wav,1,1,3,9,,,,,1,1,17,8,0,0,0,7,,,1,4.334643937007058,1,2.134740319001139,4,2.351572304003639,1,1.5351474740018602,022,001,2019_May_13_1314,MusicAffectPsychophysiology2019,3.0.5,60.31301247180628,
To what extent did the music make you feel ,ACTIVE,30MonoWAV/30MonoS1.wav,1,1,3,9,,,,,1,1,17,8,0,1,1,9,,,,,,,,,1,0.8348894769878825,022,001,2019_May_13_1314,MusicAffectPsychophysiology2019,3.0.5,60.31301247180628,
To what extent did the music make you feel ,ANGRY,30MonoWAV/30MonoS1.wav,1,1,3,9,,,,,1,1,17,8,0,2,2,2,,,,,,,,,1,0.48474897400592454,022,001,2019_May_13_1314,MusicAffectPsychophysiology2019,3.0.5,60.31301247180628,
To what extent did the music make you feel ,SCARED,30MonoWAV/30MonoS1.wav,1,1,3,9,,,,,1,1,17,8,0,3,3,11,,,,,,,,,1,0.7685414500010666,022,001,2019_May_13_1314,MusicAffectPsychophysiology2019,3.0.5,60.31301247180628,
To what extent did the music make you feel ,GUILTY,30MonoWAV/30MonoS1.wav,1,1,3,9,,,,,1,1,17,8,0,4,4,5,,,,,,,,,1,0.5855353560036747,022,001,2019_May_13_1314,MusicAffectPsychophysiology2019,3.0.5,60.31301247180628,
To what extent did the music make you feel ,ALERT,30MonoWAV/30MonoS1.wav,1,1,3,9,,,,,1,1,17,8,0,5,5,8,,,,,,,,,1,1.3353043560055085,022,001,2019_May_13_1314,MusicAffectPsychophysiology2019,3.0.5,60.31301247180628,
To what extent did the music make you feel ,ASHAMED,30MonoWAV/30MonoS1.wav,1,1,3,9,,,,,1,1,17,8,0,6,6,4,,,,,,,,,1,4.033929538010852,022,001,2019_May_13_1314,MusicAffectPsychophysiology2019,3.0.5,60.31301247180628,
To what extent did the music make you feel ,HAPPY,30MonoWAV/30MonoS1.wav,1,1,3,9,,,,,1,1,17,8,0,7,7,6,,,,,,,,,1,0.7181797969969921,022,001,2019_May_13_1314,MusicAffectPsychophysiology2019,3.0.5,60.31301247180628,
To what extent did the music make you feel ,TENDER,30MonoWAV/30MonoS1.wav,1,1,3,9,,,,,1,1,17,8,0,8,8,10,,,,,,,,,2,1.301777086002403,022,001,2019_May_13_1314,MusicAffectPsychophysiology2019,3.0.5,60.31301247180628,
To what extent did the music make you feel ,FRUSTRATED,30MonoWAV/30MonoS1.wav,1,1,3,9,,,,,1,1,17,8,0,9,9,3,,,,,,,,,1,1.7832505389960716,022,001,2019_May_13_1314,MusicAffectPsychophysiology2019,3.0.5,60.31301247180628,
To what extent did the music make you feel ,SAD,30MonoWAV/30MonoS1.wav,1,1,3,9,,,,,1,1,17,8,0,10,10,0,,,,,,,,,2,1.2011849169939524,022,001,2019_May_13_1314,MusicAffectPsychophysiology2019,3.0.5,60.31301247180628,
To what extent did the music make you feel ,ANXIOUS ,30MonoWAV/30MonoS1.wav,1,1,3,9,,,,,1,1,17,8,0,11,11,1,,,,,,,,,1,1.1680279839929426,022,001,2019_May_13_1314,MusicAffectPsychophysiology2019,3.0.5,60.31301247180628,
,,30MonoWAV/30MonoS1.wav,1,1,3,9,,,,,1,1,17,8,,,,,,,,,,,,,,,022,001,2019_May_13_1314,MusicAffectPsychophysiology2019,3.0.5,60.31301247180628,
To what extent did the music make you feel ,ALERT,30MonoWAV/30MonoF1.wav,1,2,2,1,,,,,1,2,18,0,0,0,0,8,,,2,2.550974400000996,1,1.2180814470048063,1,1.2849841830029618,4,3.3014106939954218,022,001,2019_May_13_1314,MusicAffectPsychophysiology2019,3.0.5,60.31301247180628,
To what extent did the music make you feel ,ASHAMED,30MonoWAV/30MonoF1.wav,1,2,2,1,,,,,1,2,18,0,0,1,1,4,,,,,,,,,1,1.2180249039956834,022,001,2019_May_13_1314,MusicAffectPsychophysiology2019,3.0.5,60.31301247180628,
To what extent did the music make you feel ,HAPPY,30MonoWAV/30MonoF1.wav,1,2,2,1,,,,,1,2,18,0,0,2,2,6,,,,,,,,,1,1.034848804003559,022,001,2019_May_13_1314,MusicAffectPsychophysiology2019,3.0.5,60.31301247180628,
To what extent did the music make you feel ,FRUSTRATED,30MonoWAV/30MonoF1.wav,1,2,2,1,,,,,1,2,18,0,0,3,3,3,,,,,,,,,2,1.5516679779975675,022,001,2019_May_13_1314,MusicAffectPsychophysiology2019,3.0.5,60.31301247180628,
To what extent did the music make you feel ,SCARED,30MonoWAV/30MonoF1.wav,1,2,2,1,,,,,1,2,18,0,0,4,4,11,,,,,,,,,2,1.5013922470097896,022,001,2019_May_13_1314,MusicAffectPsychophysiology2019,3.0.5,60.31301247180628,
To what extent did the music make you feel ,SAD,30MonoWAV/30MonoF1.wav,1,2,2,1,,,,,1,2,18,0,0,5,5,0,,,,,,,,,1,0.8175156209908891,022,001,2019_May_13_1314,MusicAffectPsychophysiology2019,3.0.5,60.31301247180628,
To what extent did the music make you feel ,ANXIOUS ,30MonoWAV/30MonoF1.wav,1,2,2,1,,,,,1,2,18,0,0,6,6,1,,,,,,,,,2,1.4186742099991534,022,001,2019_May_13_1314,MusicAffectPsychophysiology2019,3.0.5,60.31301247180628,
To what extent did the music make you feel ,EXCITED,30MonoWAV/30MonoF1.wav,1,2,2,1,,,,,1,2,18,0,0,7,7,7,,,,,,,,,1,0.9522983869974269,022,001,2019_May_13_1314,MusicAffectPsychophysiology2019,3.0.5,60.31301247180628,
To what extent did the music make you feel ,ACTIVE,30MonoWAV/30MonoF1.wav,1,2,2,1,,,,,1,2,18,0,0,8,8,9,,,,,,,,,2,1.1351225560065359,022,001,2019_May_13_1314,MusicAffectPsychophysiology2019,3.0.5,60.31301247180628,
To what extent did the music make you feel ,TENDER,30MonoWAV/30MonoF1.wav,1,2,2,1,,,,,1,2,18,0,0,9,9,10,,,,,,,,,1,0.9339216399966972,022,001,2019_May_13_1314,MusicAffectPsychophysiology2019,3.0.5,60.31301247180628,
To what extent did the music make you feel ,ANGRY,30MonoWAV/30MonoF1.wav,1,2,2,1,,,,,1,2,18,0,0,10,10,2,,,,,,,,,1,1.0180494810047094,022,001,2019_May_13_1314,MusicAffectPsychophysiology2019,3.0.5,60.31301247180628,
To what extent did the music make you feel ,GUILTY,30MonoWAV/30MonoF1.wav,1,2,2,1,,,,,1,2,18,0,0,11,11,5,,,,,,,,,1,0.6686692889925325,022,001,2019_May_13_1314,MusicAffectPsychophysiology2019,3.0.5,60.31301247180628,
,,30MonoWAV/30MonoF1.wav,1,2,2,1,,,,,1,2,18,0,,,,,,,,,,,,,,,022,001,2019_May_13_1314,MusicAffectPsychophysiology2019,3.0.5,60.31301247180628,
To what extent did the music make you feel ,ANXIOUS ,30MonoWAV/30MonoH4.wav,2,2,1,8,,,,,1,3,19,7,0,0,0,1,,,3,4.501661898990278,2,2.868567156998324,2,1.2670503620029194,1,1.7500313719938276,022,001,2019_May_13_1314,MusicAffectPsychophysiology2019,3.0.5,60.31301247180628,
To what extent did the music make you feel ,TENDER,30MonoWAV/30MonoH4.wav,2,2,1,8,,,,,1,3,19,7,0,1,1,10,,,,,,,,,1,0.717927691002842,022,001,2019_May_13_1314,MusicAffectPsychophysiology2019,3.0.5,60.31301247180628,
To what extent did the music make you feel ,SCARED,30MonoWAV/30MonoH4.wav,2,2,1,8,,,,,1,3,19,7,0,2,2,11,,,,,,,,,1,0.5019249059987487,022,001,2019_May_13_1314,MusicAffectPsychophysiology2019,3.0.5,60.31301247180628,
To what extent did the music make you feel ,GUILTY,30MonoWAV/30MonoH4.wav,2,2,1,8,,,,,1,3,19,7,0,3,3,5,,,,,,,,,1,0.4688570720027201,022,001,2019_May_13_1314,MusicAffectPsychophysiology2019,3.0.5,60.31301247180628,
To what extent did the music make you feel ,SAD,30MonoWAV/30MonoH4.wav,2,2,1,8,,,,,1,3,19,7,0,4,4,0,,,,,,,,,1,0.5021606969967252,022,001,2019_May_13_1314,MusicAffectPsychophysiology2019,3.0.5,60.31301247180628,
To what extent did the music make you feel ,ANGRY,30MonoWAV/30MonoH4.wav,2,2,1,8,,,,,1,3,19,7,0,5,5,2,,,,,,,,,1,0.4853950230026385,022,001,2019_May_13_1314,MusicAffectPsychophysiology2019,3.0.5,60.31301247180628,
To what extent did the music make you feel ,HAPPY,30MonoWAV/30MonoH4.wav,2,2,1,8,,,,,1,3,19,7,0,6,6,6,,,,,,,,,3,1.4182277240033727,022,001,2019_May_13_1314,MusicAffectPsychophysiology2019,3.0.5,60.31301247180628,
To what extent did the music make you feel ,EXCITED,30MonoWAV/30MonoH4.wav,2,2,1,8,,,,,1,3,19,7,0,7,7,7,,,,,,,,,2,1.5862745250051375,022,001,2019_May_13_1314,MusicAffectPsychophysiology2019,3.0.5,60.31301247180628,
To what extent did the music make you feel ,ACTIVE,30MonoWAV/30MonoH4.wav,2,2,1,8,,,,,1,3,19,7,0,8,8,9,,,,,,,,,2,1.9334304549993249,022,001,2019_May_13_1314,MusicAffectPsychophysiology2019,3.0.5,60.31301247180628,
To what extent did the music make you feel ,ASHAMED,30MonoWAV/30MonoH4.wav,2,2,1,8,,,,,1,3,19,7,0,9,9,4,,,,,,,,,1,0.8350395640009083,022,001,2019_May_13_1314,MusicAffectPsychophysiology2019,3.0.5,60.31301247180628,
To what extent did the music make you feel ,ALERT,30MonoWAV/30MonoH4.wav,2,2,1,8,,,,,1,3,19,7,0,10,10,8,,,,,,,,,1,4.784977369999979,022,001,2019_May_13_1314,MusicAffectPsychophysiology2019,3.0.5,60.31301247180628,
To what extent did the music make you feel ,FRUSTRATED,30MonoWAV/30MonoH4.wav,2,2,1,8,,,,,1,3,19,7,0,11,11,3,,,,,,,,,1,0.9015118620009162,022,001,2019_May_13_1314,MusicAffectPsychophysiology2019,3.0.5,60.31301247180628,
,,30MonoWAV/30MonoH4.wav,2,2,1,8,,,,,1,3,19,7,,,,,,,,,,,,,,,022,001,2019_May_13_1314,MusicAffectPsychophysiology2019,3.0.5,60.31301247180628,
To what extent did the music make you feel ,SAD,30MonoWAV/30MonoF3.wav,1,2,2,3,,,,,1,4,20,2,0,0,0,0,,,2,3.0023561699927086,1,1.7506102359911893,1,1.1665651529910974,1,3.284144222998293,022,001,2019_May_13_1314,MusicAffectPsychophysiology2019,3.0.5,60.31301247180628,
To what extent did the music make you feel ,FRUSTRATED,30MonoWAV/30MonoF3.wav,1,2,2,3,,,,,1,4,20,2,0,1,1,3,,,,,,,,,1,0.9856065569911152,022,001,2019_May_13_1314,MusicAffectPsychophysiology2019,3.0.5,60.31301247180628,
To what extent did the music make you feel ,ASHAMED,30MonoWAV/30MonoF3.wav,1,2,2,3,,,,,1,4,20,2,0,2,2,4,,,,,,,,,1,0.7352701829950092,022,001,2019_May_13_1314,MusicAffectPsychophysiology2019,3.0.5,60.31301247180628,
To what extent did the music make you feel ,EXCITED,30MonoWAV/30MonoF3.wav,1,2,2,3,,,,,1,4,20,2,0,3,3,7,,,,,,,,,1,1.0685210700030439,022,001,2019_May_13_1314,MusicAffectPsychophysiology2019,3.0.5,60.31301247180628,
To what extent did the music make you feel ,SCARED,30MonoWAV/30MonoF3.wav,1,2,2,3,,,,,1,4,20,2,0,4,4,11,,,,,,,,,1,2.7673651359946234,022,001,2019_May_13_1314,MusicAffectPsychophysiology2019,3.0.5,60.31301247180628,
To what extent did the music make you feel ,ACTIVE,30MonoWAV/30MonoF3.wav,1,2,2,3,,,,,1,4,20,2,0,5,5,9,,,,,,,,,2,0.8846282890008297,022,001,2019_May_13_1314,MusicAffectPsychophysiology2019,3.0.5,60.31301247180628,
To what extent did the music make you feel ,TENDER,30MonoWAV/30MonoF3.wav,1,2,2,3,,,,,1,4,20,2,0,6,6,10,,,,,,,,,1,0.6353128010086948,022,001,2019_May_13_1314,MusicAffectPsychophysiology2019,3.0.5,60.31301247180628,
To what extent did the music make you feel ,ALERT,30MonoWAV/30MonoF3.wav,1,2,2,3,,,,,1,4,20,2,0,7,7,8,,,,,,,,,3,1.3175727509951685,022,001,2019_May_13_1314,MusicAffectPsychophysiology2019,3.0.5,60.31301247180628,
To what extent did the music make you feel ,ANXIOUS ,30MonoWAV/30MonoF3.wav,1,2,2,3,,,,,1,4,20,2,0,8,8,1,,,,,,,,,1,2.3682101760059595,022,001,2019_May_13_1314,MusicAffectPsychophysiology2019,3.0.5,60.31301247180628,
To what extent did the music make you feel ,ANGRY,30MonoWAV/30MonoF3.wav,1,2,2,3,,,,,1,4,20,2,0,9,9,2,,,,,,,,,1,4.968160852993606,022,001,2019_May_13_1314,MusicAffectPsychophysiology2019,3.0.5,60.31301247180628,
To what extent did the music make you feel ,HAPPY,30MonoWAV/30MonoF3.wav,1,2,2,3,,,,,1,4,20,2,0,10,10,6,,,,,,,,,1,2.884729896002682,022,001,2019_May_13_1314,MusicAffectPsychophysiology2019,3.0.5,60.31301247180628,
To what extent did the music make you feel ,GUILTY,30MonoWAV/30MonoF3.wav,1,2,2,3,,,,,1,4,20,2,0,11,11,5,,,,,,,,,1,0.6850291200098582,022,001,2019_May_13_1314,MusicAffectPsychophysiology2019,3.0.5,60.31301247180628,
,,30MonoWAV/30MonoF3.wav,1,2,2,3,,,,,1,4,20,2,,,,,,,,,,,,,,,022,001,2019_May_13_1314,MusicAffectPsychophysiology2019,3.0.5,60.31301247180628,
To what extent did the music make you feel ,EXCITED,30MonoWAV/30MonoS2.wav,1,1,3,10,,,,,1,5,21,9,0,0,0,7,,,1,3.1175237619900145,1,1.184645659988746,2,1.8690198179974686,1,1.2689380110095954,022,001,2019_May_13_1314,MusicAffectPsychophysiology2019,3.0.5,60.31301247180628,
To what extent did the music make you feel ,HAPPY,30MonoWAV/30MonoS2.wav,1,1,3,10,,,,,1,5,21,9,0,1,1,6,,,,,,,,,1,0.5510761549958261,022,001,2019_May_13_1314,MusicAffectPsychophysiology2019,3.0.5,60.31301247180628,
To what extent did the music make you feel ,GUILTY,30MonoWAV/30MonoS2.wav,1,1,3,10,,,,,1,5,21,9,0,2,2,5,,,,,,,,,1,0.8356616750097601,022,001,2019_May_13_1314,MusicAffectPsychophysiology2019,3.0.5,60.31301247180628,
To what extent did the music make you feel ,TENDER,30MonoWAV/30MonoS2.wav,1,1,3,10,,,,,1,5,21,9,0,3,3,10,,,,,,,,,2,1.1684193649998633,022,001,2019_May_13_1314,MusicAffectPsychophysiology2019,3.0.5,60.31301247180628,
To what extent did the music make you feel ,ACTIVE,30MonoWAV/30MonoS2.wav,1,1,3,10,,,,,1,5,21,9,0,4,4,9,,,,,,,,,1,1.984919157999684,022,001,2019_May_13_1314,MusicAffectPsychophysiology2019,3.0.5,60.31301247180628,
To what extent did the music make you feel ,FRUSTRATED,30MonoWAV/30MonoS2.wav,1,1,3,10,,,,,1,5,21,9,0,5,5,3,,,,,,,,,1,0.6853902299917536,022,001,2019_May_13_1314,MusicAffectPsychophysiology2019,3.0.5,60.31301247180628,
To what extent did the music make you feel ,ANXIOUS ,30MonoWAV/30MonoS2.wav,1,1,3,10,,,,,1,5,21,9,0,6,6,1,,,,,,,,,1,0.9344704440009082,022,001,2019_May_13_1314,MusicAffectPsychophysiology2019,3.0.5,60.31301247180628,
To what extent did the music make you feel ,ANGRY,30MonoWAV/30MonoS2.wav,1,1,3,10,,,,,1,5,21,9,0,7,7,2,,,,,,,,,1,0.5356612369942013,022,001,2019_May_13_1314,MusicAffectPsychophysiology2019,3.0.5,60.31301247180628,
To what extent did the music make you feel ,SCARED,30MonoWAV/30MonoS2.wav,1,1,3,10,,,,,1,5,21,9,0,8,8,11,,,,,,,,,1,0.9177206509921234,022,001,2019_May_13_1314,MusicAffectPsychophysiology2019,3.0.5,60.31301247180628,
To what extent did the music make you feel ,ALERT,30MonoWAV/30MonoS2.wav,1,1,3,10,,,,,1,5,21,9,0,9,9,8,,,,,,,,,1,0.7008420490019489,022,001,2019_May_13_1314,MusicAffectPsychophysiology2019,3.0.5,60.31301247180628,
To what extent did the music make you feel ,SAD,30MonoWAV/30MonoS2.wav,1,1,3,10,,,,,1,5,21,9,0,10,10,0,,,,,,,,,2,1.8014486259926343,022,001,2019_May_13_1314,MusicAffectPsychophysiology2019,3.0.5,60.31301247180628,
To what extent did the music make you feel ,ASHAMED,30MonoWAV/30MonoS2.wav,1,1,3,10,,,,,1,5,21,9,0,11,11,4,,,,,,,,,1,0.8694292680011131,022,001,2019_May_13_1314,MusicAffectPsychophysiology2019,3.0.5,60.31301247180628,
,,30MonoWAV/30MonoS2.wav,1,1,3,10,,,,,1,5,21,9,,,,,,,,,,,,,,,022,001,2019_May_13_1314,MusicAffectPsychophysiology2019,3.0.5,60.31301247180628,
To what extent did the music make you feel ,TENDER,30MonoWAV/30MonoT4.wav,2,1,4,16,,,,,1,6,22,15,0,0,0,10,,,2,2.6846761719934875,2,3.835526815004414,2,1.948265564002213,3,1.7533602230105316,022,001,2019_May_13_1314,MusicAffectPsychophysiology2019,3.0.5,60.31301247180628,
To what extent did the music make you feel ,ALERT,30MonoWAV/30MonoT4.wav,2,1,4,16,,,,,1,6,22,15,0,1,1,8,,,,,,,,,1,3.3174719900125638,022,001,2019_May_13_1314,MusicAffectPsychophysiology2019,3.0.5,60.31301247180628,
To what extent did the music make you feel ,ANXIOUS ,30MonoWAV/30MonoT4.wav,2,1,4,16,,,,,1,6,22,15,0,2,2,1,,,,,,,,,1,0.9014906919910572,022,001,2019_May_13_1314,MusicAffectPsychophysiology2019,3.0.5,60.31301247180628,
To what extent did the music make you feel ,GUILTY,30MonoWAV/30MonoT4.wav,2,1,4,16,,,,,1,6,22,15,0,3,3,5,,,,,,,,,1,0.7517905340064317,022,001,2019_May_13_1314,MusicAffectPsychophysiology2019,3.0.5,60.31301247180628,
To what extent did the music make you feel ,ACTIVE,30MonoWAV/30MonoT4.wav,2,1,4,16,,,,,1,6,22,15,0,4,4,9,,,,,,,,,1,0.7342726250062697,022,001,2019_May_13_1314,MusicAffectPsychophysiology2019,3.0.5,60.31301247180628,
To what extent did the music make you feel ,HAPPY,30MonoWAV/30MonoT4.wav,2,1,4,16,,,,,1,6,22,15,0,5,5,6,,,,,,,,,2,0.8682565159979276,022,001,2019_May_13_1314,MusicAffectPsychophysiology2019,3.0.5,60.31301247180628,
To what extent did the music make you feel ,EXCITED,30MonoWAV/30MonoT4.wav,2,1,4,16,,,,,1,6,22,15,0,6,6,7,,,,,,,,,1,1.0006041809974704,022,001,2019_May_13_1314,MusicAffectPsychophysiology2019,3.0.5,60.31301247180628,
To what extent did the music make you feel ,ANGRY,30MonoWAV/30MonoT4.wav,2,1,4,16,,,,,1,6,22,15,0,7,7,2,,,,,,,,,1,1.0348009989975253,022,001,2019_May_13_1314,MusicAffectPsychophysiology2019,3.0.5,60.31301247180628,
To what extent did the music make you feel ,SCARED,30MonoWAV/30MonoT4.wav,2,1,4,16,,,,,1,6,22,15,0,8,8,11,,,,,,,,,1,1.3691242659988347,022,001,2019_May_13_1314,MusicAffectPsychophysiology2019,3.0.5,60.31301247180628,
To what extent did the music make you feel ,SAD,30MonoWAV/30MonoT4.wav,2,1,4,16,,,,,1,6,22,15,0,9,9,0,,,,,,,,,1,0.8522316070011584,022,001,2019_May_13_1314,MusicAffectPsychophysiology2019,3.0.5,60.31301247180628,
To what extent did the music make you feel ,FRUSTRATED,30MonoWAV/30MonoT4.wav,2,1,4,16,,,,,1,6,22,15,0,10,10,3,,,,,,,,,1,0.50212661200203,022,001,2019_May_13_1314,MusicAffectPsychophysiology2019,3.0.5,60.31301247180628,
To what extent did the music make you feel ,ASHAMED,30MonoWAV/30MonoT4.wav,2,1,4,16,,,,,1,6,22,15,0,11,11,4,,,,,,,,,1,0.5483257720043184,022,001,2019_May_13_1314,MusicAffectPsychophysiology2019,3.0.5,60.31301247180628,
,,30MonoWAV/30MonoT4.wav,2,1,4,16,,,,,1,6,22,15,,,,,,,,,,,,,,,022,001,2019_May_13_1314,MusicAffectPsychophysiology2019,3.0.5,60.31301247180628,
To what extent did the music make you feel ,ANGRY,30MonoWAV/30MonoH1.wav,2,2,1,5,,,,,1,7,23,4,0,0,0,2,,,3,2.569300420989748,3,2.401312282003346,3,1.3686545430100523,1,3.3342541829915717,022,001,2019_May_13_1314,MusicAffectPsychophysiology2019,3.0.5,60.31301247180628,
To what extent did the music make you feel ,FRUSTRATED,30MonoWAV/30MonoH1.wav,2,2,1,5,,,,,1,7,23,4,0,1,1,3,,,,,,,,,1,0.7349600820016349,022,001,2019_May_13_1314,MusicAffectPsychophysiology2019,3.0.5,60.31301247180628,
To what extent did the music make you feel ,ACTIVE,30MonoWAV/30MonoH1.wav,2,2,1,5,,,,,1,7,23,4,0,2,2,9,,,,,,,,,3,1.8017747919948306,022,001,2019_May_13_1314,MusicAffectPsychophysiology2019,3.0.5,60.31301247180628,
To what extent did the music make you feel ,EXCITED,30MonoWAV/30MonoH1.wav,2,2,1,5,,,,,1,7,23,4,0,3,3,7,,,,,,,,,3,1.0183807149878703,022,001,2019_May_13_1314,MusicAffectPsychophysiology2019,3.0.5,60.31301247180628,
To what extent did the music make you feel ,HAPPY,30MonoWAV/30MonoH1.wav,2,2,1,5,,,,,1,7,23,4,0,4,4,6,,,,,,,,,3,1.8235613169963472,022,001,2019_May_13_1314,MusicAffectPsychophysiology2019,3.0.5,60.31301247180628,
To what extent did the music make you feel ,ANXIOUS ,30MonoWAV/30MonoH1.wav,2,2,1,5,,,,,1,7,23,4,0,5,5,1,,,,,,,,,1,3.7727873679978075,022,001,2019_May_13_1314,MusicAffectPsychophysiology2019,3.0.5,60.31301247180628,
To what extent did the music make you feel ,SAD,30MonoWAV/30MonoH1.wav,2,2,1,5,,,,,1,7,23,4,0,6,6,0,,,,,,,,,1,0.7193011580093298,022,001,2019_May_13_1314,MusicAffectPsychophysiology2019,3.0.5,60.31301247180628,
To what extent did the music make you feel ,ASHAMED,30MonoWAV/30MonoH1.wav,2,2,1,5,,,,,1,7,23,4,0,7,7,4,,,,,,,,,1,0.8199994319875259,022,001,2019_May_13_1314,MusicAffectPsychophysiology2019,3.0.5,60.31301247180628,
To what extent did the music make you feel ,GUILTY,30MonoWAV/30MonoH1.wav,2,2,1,5,,,,,1,7,23,4,0,8,8,5,,,,,,,,,1,0.9238313499954529,022,001,2019_May_13_1314,MusicAffectPsychophysiology2019,3.0.5,60.31301247180628,
To what extent did the music make you feel ,SCARED,30MonoWAV/30MonoH1.wav,2,2,1,5,,,,,1,7,23,4,0,9,9,11,,,,,,,,,1,0.6172256949939765,022,001,2019_May_13_1314,MusicAffectPsychophysiology2019,3.0.5,60.31301247180628,
To what extent did the music make you feel ,ALERT,30MonoWAV/30MonoH1.wav,2,2,1,5,,,,,1,7,23,4,0,10,10,8,,,,,,,,,2,1.0168637030001264,022,001,2019_May_13_1314,MusicAffectPsychophysiology2019,3.0.5,60.31301247180628,
To what extent did the music make you feel ,TENDER,30MonoWAV/30MonoH1.wav,2,2,1,5,,,,,1,7,23,4,0,11,11,10,,,,,,,,,1,0.7520666680065915,022,001,2019_May_13_1314,MusicAffectPsychophysiology2019,3.0.5,60.31301247180628,
,,30MonoWAV/30MonoH1.wav,2,2,1,5,,,,,1,7,23,4,,,,,,,,,,,,,,,022,001,2019_May_13_1314,MusicAffectPsychophysiology2019,3.0.5,60.31301247180628,
To what extent did the music make you feel ,ANGRY,30MonoWAV/30MonoS4.wav,1,1,3,12,,,,,1,8,24,11,0,0,0,2,,,1,3.218007889998262,1,2.5344534650066635,3,2.5159896510012913,1,2.1830286129988963,022,001,2019_May_13_1314,MusicAffectPsychophysiology2019,3.0.5,60.31301247180628,
To what extent did the music make you feel ,ASHAMED,30MonoWAV/30MonoS4.wav,1,1,3,12,,,,,1,8,24,11,0,1,1,4,,,,,,,,,1,0.551037423996604,022,001,2019_May_13_1314,MusicAffectPsychophysiology2019,3.0.5,60.31301247180628,
To what extent did the music make you feel ,ANXIOUS ,30MonoWAV/30MonoS4.wav,1,1,3,12,,,,,1,8,24,11,0,2,2,1,,,,,,,,,1,0.9511255440011155,022,001,2019_May_13_1314,MusicAffectPsychophysiology2019,3.0.5,60.31301247180628,
To what extent did the music make you feel ,ALERT,30MonoWAV/30MonoS4.wav,1,1,3,12,,,,,1,8,24,11,0,3,3,8,,,,,,,,,1,0.6019689860113431,022,001,2019_May_13_1314,MusicAffectPsychophysiology2019,3.0.5,60.31301247180628,
To what extent did the music make you feel ,HAPPY,30MonoWAV/30MonoS4.wav,1,1,3,12,,,,,1,8,24,11,0,4,4,6,,,,,,,,,1,0.518597130998387,022,001,2019_May_13_1314,MusicAffectPsychophysiology2019,3.0.5,60.31301247180628,
To what extent did the music make you feel ,SCARED,30MonoWAV/30MonoS4.wav,1,1,3,12,,,,,1,8,24,11,0,5,5,11,,,,,,,,,1,0.9358835659950273,022,001,2019_May_13_1314,MusicAffectPsychophysiology2019,3.0.5,60.31301247180628,
To what extent did the music make you feel ,FRUSTRATED,30MonoWAV/30MonoS4.wav,1,1,3,12,,,,,1,8,24,11,0,6,6,3,,,,,,,,,1,0.4692610060010338,022,001,2019_May_13_1314,MusicAffectPsychophysiology2019,3.0.5,60.31301247180628,
To what extent did the music make you feel ,TENDER,30MonoWAV/30MonoS4.wav,1,1,3,12,,,,,1,8,24,11,0,7,7,10,,,,,,,,,3,1.618827024998609,022,001,2019_May_13_1314,MusicAffectPsychophysiology2019,3.0.5,60.31301247180628,
To what extent did the music make you feel ,EXCITED,30MonoWAV/30MonoS4.wav,1,1,3,12,,,,,1,8,24,11,0,8,8,7,,,,,,,,,1,0.6510004230076447,022,001,2019_May_13_1314,MusicAffectPsychophysiology2019,3.0.5,60.31301247180628,
To what extent did the music make you feel ,GUILTY,30MonoWAV/30MonoS4.wav,1,1,3,12,,,,,1,8,24,11,0,9,9,5,,,,,,,,,1,1.2166745430004084,022,001,2019_May_13_1314,MusicAffectPsychophysiology2019,3.0.5,60.31301247180628,
To what extent did the music make you feel ,ACTIVE,30MonoWAV/30MonoS4.wav,1,1,3,12,,,,,1,8,24,11,0,10,10,9,,,,,,,,,1,1.7518091569945682,022,001,2019_May_13_1314,MusicAffectPsychophysiology2019,3.0.5,60.31301247180628,
To what extent did the music make you feel ,SAD,30MonoWAV/30MonoS4.wav,1,1,3,12,,,,,1,8,24,11,0,11,11,0,,,,,,,,,2,0.9351495650043944,022,001,2019_May_13_1314,MusicAffectPsychophysiology2019,3.0.5,60.31301247180628,
,,30MonoWAV/30MonoS4.wav,1,1,3,12,,,,,1,8,24,11,,,,,,,,,,,,,,,022,001,2019_May_13_1314,MusicAffectPsychophysiology2019,3.0.5,60.31301247180628,
To what extent did the music make you feel ,FRUSTRATED,30MonoWAV/30MonoT2.wav,2,1,4,14,,,,,1,9,25,13,0,0,0,3,,,2,2.2719779850012856,2,1.5860078590048943,2,6.3287041900039185,1,1.3332973670039792,022,001,2019_May_13_1314,MusicAffectPsychophysiology2019,3.0.5,60.31301247180628,
To what extent did the music make you feel ,EXCITED,30MonoWAV/30MonoT2.wav,2,1,4,14,,,,,1,9,25,13,0,1,1,7,,,,,,,,,1,0.8855801220051944,022,001,2019_May_13_1314,MusicAffectPsychophysiology2019,3.0.5,60.31301247180628,
To what extent did the music make you feel ,TENDER,30MonoWAV/30MonoT2.wav,2,1,4,14,,,,,1,9,25,13,0,2,2,10,,,,,,,,,3,1.2011998959933408,022,001,2019_May_13_1314,MusicAffectPsychophysiology2019,3.0.5,60.31301247180628,
To what extent did the music make you feel ,ASHAMED,30MonoWAV/30MonoT2.wav,2,1,4,14,,,,,1,9,25,13,0,3,3,4,,,,,,,,,1,0.5015437169931829,022,001,2019_May_13_1314,MusicAffectPsychophysiology2019,3.0.5,60.31301247180628,
To what extent did the music make you feel ,SCARED,30MonoWAV/30MonoT2.wav,2,1,4,14,,,,,1,9,25,13,0,4,4,11,,,,,,,,,1,0.8855367249925621,022,001,2019_May_13_1314,MusicAffectPsychophysiology2019,3.0.5,60.31301247180628,
To what extent did the music make you feel ,ANXIOUS ,30MonoWAV/30MonoT2.wav,2,1,4,14,,,,,1,9,25,13,0,5,5,1,,,,,,,,,1,1.434850607009139,022,001,2019_May_13_1314,MusicAffectPsychophysiology2019,3.0.5,60.31301247180628,
To what extent did the music make you feel ,ALERT,30MonoWAV/30MonoT2.wav,2,1,4,14,,,,,1,9,25,13,0,6,6,8,,,,,,,,,1,0.968057313002646,022,001,2019_May_13_1314,MusicAffectPsychophysiology2019,3.0.5,60.31301247180628,
To what extent did the music make you feel ,HAPPY,30MonoWAV/30MonoT2.wav,2,1,4,14,,,,,1,9,25,13,0,7,7,6,,,,,,,,,2,0.9355564509896794,022,001,2019_May_13_1314,MusicAffectPsychophysiology2019,3.0.5,60.31301247180628,
To what extent did the music make you feel ,ANGRY,30MonoWAV/30MonoT2.wav,2,1,4,14,,,,,1,9,25,13,0,8,8,2,,,,,,,,,1,0.4182380929996725,022,001,2019_May_13_1314,MusicAffectPsychophysiology2019,3.0.5,60.31301247180628,
To what extent did the music make you feel ,ACTIVE,30MonoWAV/30MonoT2.wav,2,1,4,14,,,,,1,9,25,13,0,9,9,9,,,,,,,,,1,0.8348013780050678,022,001,2019_May_13_1314,MusicAffectPsychophysiology2019,3.0.5,60.31301247180628,
To what extent did the music make you feel ,GUILTY,30MonoWAV/30MonoT2.wav,2,1,4,14,,,,,1,9,25,13,0,10,10,5,,,,,,,,,1,1.568411553002079,022,001,2019_May_13_1314,MusicAffectPsychophysiology2019,3.0.5,60.31301247180628,
To what extent did the music make you feel ,SAD,30MonoWAV/30MonoT2.wav,2,1,4,14,,,,,1,9,25,13,0,11,11,0,,,,,,,,,1,1.1354244480025955,022,001,2019_May_13_1314,MusicAffectPsychophysiology2019,3.0.5,60.31301247180628,
,,30MonoWAV/30MonoT2.wav,2,1,4,14,,,,,1,9,25,13,,,,,,,,,,,,,,,022,001,2019_May_13_1314,MusicAffectPsychophysiology2019,3.0.5,60.31301247180628,
To what extent did the music make you feel ,TENDER,30MonoWAV/30MonoF4.wav,1,2,2,4,,,,,1,10,26,3,0,0,0,10,,,3,4.151362036005594,1,1.4514588890015148,1,1.6021561530069448,1,0.8511489109951071,022,001,2019_May_13_1314,MusicAffectPsychophysiology2019,3.0.5,60.31301247180628,
To what extent did the music make you feel ,SAD,30MonoWAV/30MonoF4.wav,1,2,2,4,,,,,1,10,26,3,0,1,1,0,,,,,,,,,1,0.6343131189933047,022,001,2019_May_13_1314,MusicAffectPsychophysiology2019,3.0.5,60.31301247180628,
To what extent did the music make you feel ,SCARED,30MonoWAV/30MonoF4.wav,1,2,2,4,,,,,1,10,26,3,0,2,2,11,,,,,,,,,1,1.551441794988932,022,001,2019_May_13_1314,MusicAffectPsychophysiology2019,3.0.5,60.31301247180628,
To what extent did the music make you feel ,GUILTY,30MonoWAV/30MonoF4.wav,1,2,2,4,,,,,1,10,26,3,0,3,3,5,,,,,,,,,1,0.5190642160014249,022,001,2019_May_13_1314,MusicAffectPsychophysiology2019,3.0.5,60.31301247180628,
To what extent did the music make you feel ,HAPPY,30MonoWAV/30MonoF4.wav,1,2,2,4,,,,,1,10,26,3,0,4,4,6,,,,,,,,,1,0.5189335269969888,022,001,2019_May_13_1314,MusicAffectPsychophysiology2019,3.0.5,60.31301247180628,
To what extent did the music make you feel ,ALERT,30MonoWAV/30MonoF4.wav,1,2,2,4,,,,,1,10,26,3,0,5,5,8,,,,,,,,,3,1.268627908997587,022,001,2019_May_13_1314,MusicAffectPsychophysiology2019,3.0.5,60.31301247180628,
To what extent did the music make you feel ,ANXIOUS ,30MonoWAV/30MonoF4.wav,1,2,2,4,,,,,1,10,26,3,0,6,6,1,,,,,,,,,1,1.3193427029909799,022,001,2019_May_13_1314,MusicAffectPsychophysiology2019,3.0.5,60.31301247180628,
To what extent did the music make you feel ,ANGRY,30MonoWAV/30MonoF4.wav,1,2,2,4,,,,,1,10,26,3,0,7,7,2,,,,,,,,,1,1.118900924004265,022,001,2019_May_13_1314,MusicAffectPsychophysiology2019,3.0.5,60.31301247180628,
To what extent did the music make you feel ,FRUSTRATED,30MonoWAV/30MonoF4.wav,1,2,2,4,,,,,1,10,26,3,0,8,8,3,,,,,,,,,1,0.9517116729984991,022,001,2019_May_13_1314,MusicAffectPsychophysiology2019,3.0.5,60.31301247180628,
To what extent did the music make you feel ,ASHAMED,30MonoWAV/30MonoF4.wav,1,2,2,4,,,,,1,10,26,3,0,9,9,4,,,,,,,,,1,1.0678416169976117,022,001,2019_May_13_1314,MusicAffectPsychophysiology2019,3.0.5,60.31301247180628,
To what extent did the music make you feel ,EXCITED,30MonoWAV/30MonoF4.wav,1,2,2,4,,,,,1,10,26,3,0,10,10,7,,,,,,,,,1,1.3846844490035437,022,001,2019_May_13_1314,MusicAffectPsychophysiology2019,3.0.5,60.31301247180628,
To what extent did the music make you feel ,ACTIVE,30MonoWAV/30MonoF4.wav,1,2,2,4,,,,,1,10,26,3,0,11,11,9,,,,,,,,,2,0.9683505060093012,022,001,2019_May_13_1314,MusicAffectPsychophysiology2019,3.0.5,60.31301247180628,
,,30MonoWAV/30MonoF4.wav,1,2,2,4,,,,,1,10,26,3,,,,,,,,,,,,,,,022,001,2019_May_13_1314,MusicAffectPsychophysiology2019,3.0.5,60.31301247180628,
To what extent did the music make you feel ,ACTIVE,30MonoWAV/30MonoF2.wav,1,2,2,2,,,,,1,11,27,1,0,0,0,9,,,2,7.805730942010996,1,2.938284759002272,1,1.2363774339901283,2,1.3539507429959485,022,001,2019_May_13_1314,MusicAffectPsychophysiology2019,3.0.5,60.31301247180628,
To what extent did the music make you feel ,ALERT,30MonoWAV/30MonoF2.wav,1,2,2,2,,,,,1,11,27,1,0,1,1,8,,,,,,,,,3,1.0398276359919691,022,001,2019_May_13_1314,MusicAffectPsychophysiology2019,3.0.5,60.31301247180628,
To what extent did the music make you feel ,FRUSTRATED,30MonoWAV/30MonoF2.wav,1,2,2,2,,,,,1,11,27,1,0,2,2,3,,,,,,,,,1,1.3522344069933752,022,001,2019_May_13_1314,MusicAffectPsychophysiology2019,3.0.5,60.31301247180628,
To what extent did the music make you feel ,SCARED,30MonoWAV/30MonoF2.wav,1,2,2,2,,,,,1,11,27,1,0,3,3,11,,,,,,,,,3,1.3020100459980313,022,001,2019_May_13_1314,MusicAffectPsychophysiology2019,3.0.5,60.31301247180628,
To what extent did the music make you feel ,SAD,30MonoWAV/30MonoF2.wav,1,2,2,2,,,,,1,11,27,1,0,4,4,0,,,,,,,,,1,2.2182763529999647,022,001,2019_May_13_1314,MusicAffectPsychophysiology2019,3.0.5,60.31301247180628,
To what extent did the music make you feel ,EXCITED,30MonoWAV/30MonoF2.wav,1,2,2,2,,,,,1,11,27,1,0,5,5,7,,,,,,,,,1,0.8355760150006972,022,001,2019_May_13_1314,MusicAffectPsychophysiology2019,3.0.5,60.31301247180628,
To what extent did the music make you feel ,ANXIOUS ,30MonoWAV/30MonoF2.wav,1,2,2,2,,,,,1,11,27,1,0,6,6,1,,,,,,,,,2,0.9516393509984482,022,001,2019_May_13_1314,MusicAffectPsychophysiology2019,3.0.5,60.31301247180628,
To what extent did the music make you feel ,ANGRY,30MonoWAV/30MonoF2.wav,1,2,2,2,,,,,1,11,27,1,0,7,7,2,,,,,,,,,1,0.7850301360012963,022,001,2019_May_13_1314,MusicAffectPsychophysiology2019,3.0.5,60.31301247180628,
To what extent did the music make you feel ,ASHAMED,30MonoWAV/30MonoF2.wav,1,2,2,2,,,,,1,11,27,1,0,8,8,4,,,,,,,,,1,0.8350818449980579,022,001,2019_May_13_1314,MusicAffectPsychophysiology2019,3.0.5,60.31301247180628,
To what extent did the music make you feel ,TENDER,30MonoWAV/30MonoF2.wav,1,2,2,2,,,,,1,11,27,1,0,9,9,10,,,,,,,,,1,0.6182316610065755,022,001,2019_May_13_1314,MusicAffectPsychophysiology2019,3.0.5,60.31301247180628,
To what extent did the music make you feel ,HAPPY,30MonoWAV/30MonoF2.wav,1,2,2,2,,,,,1,11,27,1,0,10,10,6,,,,,,,,,1,0.5676234089914942,022,001,2019_May_13_1314,MusicAffectPsychophysiology2019,3.0.5,60.31301247180628,
To what extent did the music make you feel ,GUILTY,30MonoWAV/30MonoF2.wav,1,2,2,2,,,,,1,11,27,1,0,11,11,5,,,,,,,,,1,0.5350343719910597,022,001,2019_May_13_1314,MusicAffectPsychophysiology2019,3.0.5,60.31301247180628,
,,30MonoWAV/30MonoF2.wav,1,2,2,2,,,,,1,11,27,1,,,,,,,,,,,,,,,022,001,2019_May_13_1314,MusicAffectPsychophysiology2019,3.0.5,60.31301247180628,
To what extent did the music make you feel ,ALERT,30MonoWAV/30MonoH3.wav,2,2,1,7,,,,,1,12,28,6,0,0,0,8,,,2,1.7673099049861776,2,1.5020222379971528,1,1.068280813007732,2,1.555942792998394,022,001,2019_May_13_1314,MusicAffectPsychophysiology2019,3.0.5,60.31301247180628,
To what extent did the music make you feel ,FRUSTRATED,30MonoWAV/30MonoH3.wav,2,2,1,7,,,,,1,12,28,6,0,1,1,3,,,,,,,,,1,0.8176570350042311,022,001,2019_May_13_1314,MusicAffectPsychophysiology2019,3.0.5,60.31301247180628,
To what extent did the music make you feel ,SCARED,30MonoWAV/30MonoH3.wav,2,2,1,7,,,,,1,12,28,6,0,2,2,11,,,,,,,,,1,0.6357563600031426,022,001,2019_May_13_1314,MusicAffectPsychophysiology2019,3.0.5,60.31301247180628,
To what extent did the music make you feel ,TENDER,30MonoWAV/30MonoH3.wav,2,2,1,7,,,,,1,12,28,6,0,3,3,10,,,,,,,,,2,0.9695348840032239,022,001,2019_May_13_1314,MusicAffectPsychophysiology2019,3.0.5,60.31301247180628,
To what extent did the music make you feel ,ASHAMED,30MonoWAV/30MonoH3.wav,2,2,1,7,,,,,1,12,28,6,0,4,4,4,,,,,,,,,1,0.6198397130065132,022,001,2019_May_13_1314,MusicAffectPsychophysiology2019,3.0.5,60.31301247180628,
To what extent did the music make you feel ,ANXIOUS ,30MonoWAV/30MonoH3.wav,2,2,1,7,,,,,1,12,28,6,0,5,5,1,,,,,,,,,1,0.60258891400008,022,001,2019_May_13_1314,MusicAffectPsychophysiology2019,3.0.5,60.31301247180628,
To what extent did the music make you feel ,EXCITED,30MonoWAV/30MonoH3.wav,2,2,1,7,,,,,1,12,28,6,0,6,6,7,,,,,,,,,2,0.8859480389946839,022,001,2019_May_13_1314,MusicAffectPsychophysiology2019,3.0.5,60.31301247180628,
To what extent did the music make you feel ,ANGRY,30MonoWAV/30MonoH3.wav,2,2,1,7,,,,,1,12,28,6,0,7,7,2,,,,,,,,,1,0.4845846180105582,022,001,2019_May_13_1314,MusicAffectPsychophysiology2019,3.0.5,60.31301247180628,
To what extent did the music make you feel ,SAD,30MonoWAV/30MonoH3.wav,2,2,1,7,,,,,1,12,28,6,0,8,8,0,,,,,,,,,1,0.5358623409993015,022,001,2019_May_13_1314,MusicAffectPsychophysiology2019,3.0.5,60.31301247180628,
To what extent did the music make you feel ,HAPPY,30MonoWAV/30MonoH3.wav,2,2,1,7,,,,,1,12,28,6,0,9,9,6,,,,,,,,,2,0.8192343620030442,022,001,2019_May_13_1314,MusicAffectPsychophysiology2019,3.0.5,60.31301247180628,
To what extent did the music make you feel ,GUILTY,30MonoWAV/30MonoH3.wav,2,2,1,7,,,,,1,12,28,6,0,10,10,5,,,,,,,,,1,0.48869605000072625,022,001,2019_May_13_1314,MusicAffectPsychophysiology2019,3.0.5,60.31301247180628,
To what extent did the music make you feel ,ACTIVE,30MonoWAV/30MonoH3.wav,2,2,1,7,,,,,1,12,28,6,0,11,11,9,,,,,,,,,1,1.1023870049975812,022,001,2019_May_13_1314,MusicAffectPsychophysiology2019,3.0.5,60.31301247180628,
,,30MonoWAV/30MonoH3.wav,2,2,1,7,,,,,1,12,28,6,,,,,,,,,,,,,,,022,001,2019_May_13_1314,MusicAffectPsychophysiology2019,3.0.5,60.31301247180628,
To what extent did the music make you feel ,SCARED,30MonoWAV/30MonoT3.wav,2,1,4,15,,,,,1,13,29,14,0,0,0,11,,,2,2.3847171899979003,3,1.6846864639956038,3,2.250711543005309,1,1.3179287880047923,022,001,2019_May_13_1314,MusicAffectPsychophysiology2019,3.0.5,60.31301247180628,
To what extent did the music make you feel ,FRUSTRATED,30MonoWAV/30MonoT3.wav,2,1,4,15,,,,,1,13,29,14,0,1,1,3,,,,,,,,,1,0.6522418839886086,022,001,2019_May_13_1314,MusicAffectPsychophysiology2019,3.0.5,60.31301247180628,
To what extent did the music make you feel ,ACTIVE,30MonoWAV/30MonoT3.wav,2,1,4,15,,,,,1,13,29,14,0,2,2,9,,,,,,,,,1,1.318776579995756,022,001,2019_May_13_1314,MusicAffectPsychophysiology2019,3.0.5,60.31301247180628,
To what extent did the music make you feel ,ALERT,30MonoWAV/30MonoT3.wav,2,1,4,15,,,,,1,13,29,14,0,3,3,8,,,,,,,,,1,0.6834505290025845,022,001,2019_May_13_1314,MusicAffectPsychophysiology2019,3.0.5,60.31301247180628,
To what extent did the music make you feel ,TENDER,30MonoWAV/30MonoT3.wav,2,1,4,15,,,,,1,13,29,14,0,4,4,10,,,,,,,,,3,1.0195507559983525,022,001,2019_May_13_1314,MusicAffectPsychophysiology2019,3.0.5,60.31301247180628,
To what extent did the music make you feel ,GUILTY,30MonoWAV/30MonoT3.wav,2,1,4,15,,,,,1,13,29,14,0,5,5,5,,,,,,,,,1,0.518554016991402,022,001,2019_May_13_1314,MusicAffectPsychophysiology2019,3.0.5,60.31301247180628,
To what extent did the music make you feel ,HAPPY,30MonoWAV/30MonoT3.wav,2,1,4,15,,,,,1,13,29,14,0,6,6,6,,,,,,,,,2,1.3182316530001117,022,001,2019_May_13_1314,MusicAffectPsychophysiology2019,3.0.5,60.31301247180628,
To what extent did the music make you feel ,ASHAMED,30MonoWAV/30MonoT3.wav,2,1,4,15,,,,,1,13,29,14,0,7,7,4,,,,,,,,,1,0.45184884101036005,022,001,2019_May_13_1314,MusicAffectPsychophysiology2019,3.0.5,60.31301247180628,
To what extent did the music make you feel ,ANXIOUS ,30MonoWAV/30MonoT3.wav,2,1,4,15,,,,,1,13,29,14,0,8,8,1,,,,,,,,,1,0.5517766470002243,022,001,2019_May_13_1314,MusicAffectPsychophysiology2019,3.0.5,60.31301247180628,
To what extent did the music make you feel ,EXCITED,30MonoWAV/30MonoT3.wav,2,1,4,15,,,,,1,13,29,14,0,9,9,7,,,,,,,,,1,0.9350340039964067,022,001,2019_May_13_1314,MusicAffectPsychophysiology2019,3.0.5,60.31301247180628,
To what extent did the music make you feel ,SAD,30MonoWAV/30MonoT3.wav,2,1,4,15,,,,,1,13,29,14,0,10,10,0,,,,,,,,,1,0.45118145999731496,022,001,2019_May_13_1314,MusicAffectPsychophysiology2019,3.0.5,60.31301247180628,
To what extent did the music make you feel ,ANGRY,30MonoWAV/30MonoT3.wav,2,1,4,15,,,,,1,13,29,14,0,11,11,2,,,,,,,,,1,0.7345787630038103,022,001,2019_May_13_1314,MusicAffectPsychophysiology2019,3.0.5,60.31301247180628,
,,30MonoWAV/30MonoT3.wav,2,1,4,15,,,,,1,13,29,14,,,,,,,,,,,,,,,022,001,2019_May_13_1314,MusicAffectPsychophysiology2019,3.0.5,60.31301247180628,
To what extent did the music make you feel ,ACTIVE,30MonoWAV/30MonoH2.wav,2,2,1,6,,,,,1,14,30,5,0,0,0,9,,,3,5.518437981008901,2,2.353533953995793,1,1.1528958559938474,2,1.4203338880033698,022,001,2019_May_13_1314,MusicAffectPsychophysiology2019,3.0.5,60.31301247180628,
To what extent did the music make you feel ,SAD,30MonoWAV/30MonoH2.wav,2,2,1,6,,,,,1,14,30,5,0,1,1,0,,,,,,,,,1,0.6358958320051897,022,001,2019_May_13_1314,MusicAffectPsychophysiology2019,3.0.5,60.31301247180628,
To what extent did the music make you feel ,GUILTY,30MonoWAV/30MonoH2.wav,2,2,1,6,,,,,1,14,30,5,0,2,2,5,,,,,,,,,1,0.6699158599949442,022,001,2019_May_13_1314,MusicAffectPsychophysiology2019,3.0.5,60.31301247180628,
To what extent did the music make you feel ,EXCITED,30MonoWAV/30MonoH2.wav,2,2,1,6,,,,,1,14,30,5,0,3,3,7,,,,,,,,,2,1.3202273219940253,022,001,2019_May_13_1314,MusicAffectPsychophysiology2019,3.0.5,60.31301247180628,
To what extent did the music make you feel ,ANGRY,30MonoWAV/30MonoH2.wav,2,2,1,6,,,,,1,14,30,5,0,4,4,2,,,,,,,,,1,0.5528694660024485,022,001,2019_May_13_1314,MusicAffectPsychophysiology2019,3.0.5,60.31301247180628,
To what extent did the music make you feel ,SCARED,30MonoWAV/30MonoH2.wav,2,2,1,6,,,,,1,14,30,5,0,5,5,11,,,,,,,,,1,1.374867753998842,022,001,2019_May_13_1314,MusicAffectPsychophysiology2019,3.0.5,60.31301247180628,
To what extent did the music make you feel ,TENDER,30MonoWAV/30MonoH2.wav,2,2,1,6,,,,,1,14,30,5,0,6,6,10,,,,,,,,,1,0.6512449769943487,022,001,2019_May_13_1314,MusicAffectPsychophysiology2019,3.0.5,60.31301247180628,
To what extent did the music make you feel ,ALERT,30MonoWAV/30MonoH2.wav,2,2,1,6,,,,,1,14,30,5,0,7,7,8,,,,,,,,,2,1.4516039680020185,022,001,2019_May_13_1314,MusicAffectPsychophysiology2019,3.0.5,60.31301247180628,
To what extent did the music make you feel ,FRUSTRATED,30MonoWAV/30MonoH2.wav,2,2,1,6,,,,,1,14,30,5,0,8,8,3,,,,,,,,,1,0.6680029080016539,022,001,2019_May_13_1314,MusicAffectPsychophysiology2019,3.0.5,60.31301247180628,
To what extent did the music make you feel ,HAPPY,30MonoWAV/30MonoH2.wav,2,2,1,6,,,,,1,14,30,5,0,9,9,6,,,,,,,,,1,0.8853899899986573,022,001,2019_May_13_1314,MusicAffectPsychophysiology2019,3.0.5,60.31301247180628,
To what extent did the music make you feel ,ASHAMED,30MonoWAV/30MonoH2.wav,2,2,1,6,,,,,1,14,30,5,0,10,10,4,,,,,,,,,1,0.8685591250105062,022,001,2019_May_13_1314,MusicAffectPsychophysiology2019,3.0.5,60.31301247180628,
To what extent did the music make you feel ,ANXIOUS ,30MonoWAV/30MonoH2.wav,2,2,1,6,,,,,1,14,30,5,0,11,11,1,,,,,,,,,1,0.8019238609995227,022,001,2019_May_13_1314,MusicAffectPsychophysiology2019,3.0.5,60.31301247180628,
,,30MonoWAV/30MonoH2.wav,2,2,1,6,,,,,1,14,30,5,,,,,,,,,,,,,,,022,001,2019_May_13_1314,MusicAffectPsychophysiology2019,3.0.5,60.31301247180628,
To what extent did the music make you feel ,ALERT,30MonoWAV/30MonoS3.wav,1,1,3,11,,,,,1,15,31,10,0,0,0,8,,,1,2.370991726987995,1,1.203117518001818,2,1.3225037929951213,1,1.084351314988453,022,001,2019_May_13_1314,MusicAffectPsychophysiology2019,3.0.5,60.31301247180628,
To what extent did the music make you feel ,ACTIVE,30MonoWAV/30MonoS3.wav,1,1,3,11,,,,,1,15,31,10,0,1,1,9,,,,,,,,,1,0.6177522609941661,022,001,2019_May_13_1314,MusicAffectPsychophysiology2019,3.0.5,60.31301247180628,
To what extent did the music make you feel ,FRUSTRATED,30MonoWAV/30MonoS3.wav,1,1,3,11,,,,,1,15,31,10,0,2,2,3,,,,,,,,,1,0.5519764620112255,022,001,2019_May_13_1314,MusicAffectPsychophysiology2019,3.0.5,60.31301247180628,
To what extent did the music make you feel ,TENDER,30MonoWAV/30MonoS3.wav,1,1,3,11,,,,,1,15,31,10,0,3,3,10,,,,,,,,,1,1.5857116340048378,022,001,2019_May_13_1314,MusicAffectPsychophysiology2019,3.0.5,60.31301247180628,
To what extent did the music make you feel ,EXCITED,30MonoWAV/30MonoS3.wav,1,1,3,11,,,,,1,15,31,10,0,4,4,7,,,,,,,,,1,0.48594058900198434,022,001,2019_May_13_1314,MusicAffectPsychophysiology2019,3.0.5,60.31301247180628,
To what extent did the music make you feel ,ASHAMED,30MonoWAV/30MonoS3.wav,1,1,3,11,,,,,1,15,31,10,0,5,5,4,,,,,,,,,2,1.001894065993838,022,001,2019_May_13_1314,MusicAffectPsychophysiology2019,3.0.5,60.31301247180628,
To what extent did the music make you feel ,GUILTY,30MonoWAV/30MonoS3.wav,1,1,3,11,,,,,1,15,31,10,0,6,6,5,,,,,,,,,2,0.9850417650013696,022,001,2019_May_13_1314,MusicAffectPsychophysiology2019,3.0.5,60.31301247180628,
To what extent did the music make you feel ,SCARED,30MonoWAV/30MonoS3.wav,1,1,3,11,,,,,1,15,31,10,0,7,7,11,,,,,,,,,1,1.4847943850036245,022,001,2019_May_13_1314,MusicAffectPsychophysiology2019,3.0.5,60.31301247180628,
To what extent did the music make you feel ,HAPPY,30MonoWAV/30MonoS3.wav,1,1,3,11,,,,,1,15,31,10,0,8,8,6,,,,,,,,,1,0.8007576129894005,022,001,2019_May_13_1314,MusicAffectPsychophysiology2019,3.0.5,60.31301247180628,
To what extent did the music make you feel ,ANXIOUS ,30MonoWAV/30MonoS3.wav,1,1,3,11,,,,,1,15,31,10,0,9,9,1,,,,,,,,,2,0.8686688239977229,022,001,2019_May_13_1314,MusicAffectPsychophysiology2019,3.0.5,60.31301247180628,
To what extent did the music make you feel ,ANGRY,30MonoWAV/30MonoS3.wav,1,1,3,11,,,,,1,15,31,10,0,10,10,2,,,,,,,,,1,0.7017068029963411,022,001,2019_May_13_1314,MusicAffectPsychophysiology2019,3.0.5,60.31301247180628,
To what extent did the music make you feel ,SAD,30MonoWAV/30MonoS3.wav,1,1,3,11,,,,,1,15,31,10,0,11,11,0,,,,,,,,,2,0.6184152899950277,022,001,2019_May_13_1314,MusicAffectPsychophysiology2019,3.0.5,60.31301247180628,
,,30MonoWAV/30MonoS3.wav,1,1,3,11,,,,,1,15,31,10,,,,,,,,,,,,,,,022,001,2019_May_13_1314,MusicAffectPsychophysiology2019,3.0.5,60.31301247180628,
