Instruction,Word,song,valence,arousal,affectcat,songmark,pracwords.thisRepN,pracwords.thisTrialN,pracwords.thisN,pracwords.thisIndex,songtrials.thisRepN,songtrials.thisTrialN,songtrials.thisN,songtrials.thisIndex,words.thisRepN,words.thisTrialN,words.thisN,words.thisIndex,begin.keys,begin.rt,arousalkey.keys,arousalkey.rt,valencekey.keys,valencekey.rt,likekey.keys,likekey.rt,WordResponse.keys,WordResponse.rt,key_resp_2.keys,key_resp_2.rt,participant,session,date,expName,psychopyVersion,frameRate,
,,,,,,,,,,,,,,,,,,,return,3.742374313005712,,,,,,,,,,,023,001,2019_May_13_1413,MusicAffectPsychophysiology2019,3.0.5,59.94011359630846,
,,,,,,,,,,,,,,,,,,,,,1,7.751364230993204,,,,,,,,,023,001,2019_May_13_1413,MusicAffectPsychophysiology2019,3.0.5,59.94011359630846,
,,,,,,,,,,,,,,,,,,,,,,,2,3.3683330990024842,,,,,,,023,001,2019_May_13_1413,MusicAffectPsychophysiology2019,3.0.5,59.94011359630846,
,,,,,,,,,,,,,,,,,,,,,,,,,2,3.4680866379931103,,,,,023,001,2019_May_13_1413,MusicAffectPsychophysiology2019,3.0.5,59.94011359630846,
To what extent did the music make you feel ,EXCITED,,,,,,0,0,0,7,,,,,,,,,,,,,,,,,1,3.5504644659959013,,,023,001,2019_May_13_1413,MusicAffectPsychophysiology2019,3.0.5,59.94011359630846,
To what extent did the music make you feel ,SAD,,,,,,0,1,1,0,,,,,,,,,,,,,,,,,1,2.1532773219951196,,,023,001,2019_May_13_1413,MusicAffectPsychophysiology2019,3.0.5,59.94011359630846,
To what extent did the music make you feel ,ANXIOUS ,,,,,,0,2,2,1,,,,,,,,,,,,,,,,,1,1.0100179580040276,,,023,001,2019_May_13_1413,MusicAffectPsychophysiology2019,3.0.5,59.94011359630846,
To what extent did the music make you feel ,ACTIVE,,,,,,0,3,3,9,,,,,,,,,,,,,,,,,1,0.8686945910012582,,,023,001,2019_May_13_1413,MusicAffectPsychophysiology2019,3.0.5,59.94011359630846,
To what extent did the music make you feel ,ANGRY,,,,,,0,4,4,2,,,,,,,,,,,,,,,,,1,0.9521024090063293,,,023,001,2019_May_13_1413,MusicAffectPsychophysiology2019,3.0.5,59.94011359630846,
To what extent did the music make you feel ,HAPPY,,,,,,0,5,5,6,,,,,,,,,,,,,,,,,2,2.451380551996408,,,023,001,2019_May_13_1413,MusicAffectPsychophysiology2019,3.0.5,59.94011359630846,
To what extent did the music make you feel ,ASHAMED,,,,,,0,6,6,4,,,,,,,,,,,,,,,,,1,0.9529642560082721,,,023,001,2019_May_13_1413,MusicAffectPsychophysiology2019,3.0.5,59.94011359630846,
To what extent did the music make you feel ,TENDER,,,,,,0,7,7,10,,,,,,,,,,,,,,,,,1,0.9503007349994732,,,023,001,2019_May_13_1413,MusicAffectPsychophysiology2019,3.0.5,59.94011359630846,
To what extent did the music make you feel ,SCARED,,,,,,0,8,8,11,,,,,,,,,,,,,,,,,1,0.6686350500094704,,,023,001,2019_May_13_1413,MusicAffectPsychophysiology2019,3.0.5,59.94011359630846,
To what extent did the music make you feel ,GUILTY,,,,,,0,9,9,5,,,,,,,,,,,,,,,,,1,0.7193196570005966,,,023,001,2019_May_13_1413,MusicAffectPsychophysiology2019,3.0.5,59.94011359630846,
To what extent did the music make you feel ,ALERT,,,,,,0,10,10,8,,,,,,,,,,,,,,,,,1,0.5833274540054845,,,023,001,2019_May_13_1413,MusicAffectPsychophysiology2019,3.0.5,59.94011359630846,
To what extent did the music make you feel ,FRUSTRATED,,,,,,0,11,11,3,,,,,,,,,,,,,,,,,1,0.7853146250126883,,,023,001,2019_May_13_1413,MusicAffectPsychophysiology2019,3.0.5,59.94011359630846,
To what extent did the music make you feel ,ANGRY,30MonoWAV/30MonoF4.wav,1,2,2,4,,,,,0,0,0,3,0,0,0,2,,,2,3.7332510779961012,2,3.084913713988499,2,1.6522340879892,2,2.1182596019934863,,,023,001,2019_May_13_1413,MusicAffectPsychophysiology2019,3.0.5,59.94011359630846,
To what extent did the music make you feel ,ALERT,30MonoWAV/30MonoF4.wav,1,2,2,4,,,,,0,0,0,3,0,1,1,8,,,,,,,,,5,3.151939453993691,,,023,001,2019_May_13_1413,MusicAffectPsychophysiology2019,3.0.5,59.94011359630846,
To what extent did the music make you feel ,ACTIVE,30MonoWAV/30MonoF4.wav,1,2,2,4,,,,,0,0,0,3,0,2,2,9,,,,,,,,,3,1.8518400759930955,,,023,001,2019_May_13_1413,MusicAffectPsychophysiology2019,3.0.5,59.94011359630846,
To what extent did the music make you feel ,GUILTY,30MonoWAV/30MonoF4.wav,1,2,2,4,,,,,0,0,0,3,0,3,3,5,,,,,,,,,1,1.5173933010082692,,,023,001,2019_May_13_1413,MusicAffectPsychophysiology2019,3.0.5,59.94011359630846,
To what extent did the music make you feel ,ANXIOUS ,30MonoWAV/30MonoF4.wav,1,2,2,4,,,,,0,0,0,3,0,4,4,1,,,,,,,,,1,1.6858137939998414,,,023,001,2019_May_13_1413,MusicAffectPsychophysiology2019,3.0.5,59.94011359630846,
To what extent did the music make you feel ,EXCITED,30MonoWAV/30MonoF4.wav,1,2,2,4,,,,,0,0,0,3,0,5,5,7,,,,,,,,,2,1.66841338800441,,,023,001,2019_May_13_1413,MusicAffectPsychophysiology2019,3.0.5,59.94011359630846,
To what extent did the music make you feel ,SCARED,30MonoWAV/30MonoF4.wav,1,2,2,4,,,,,0,0,0,3,0,6,6,11,,,,,,,,,1,2.2179932500002906,,,023,001,2019_May_13_1413,MusicAffectPsychophysiology2019,3.0.5,59.94011359630846,
To what extent did the music make you feel ,SAD,30MonoWAV/30MonoF4.wav,1,2,2,4,,,,,0,0,0,3,0,7,7,0,,,,,,,,,1,1.7515398469986394,,,023,001,2019_May_13_1413,MusicAffectPsychophysiology2019,3.0.5,59.94011359630846,
To what extent did the music make you feel ,TENDER,30MonoWAV/30MonoF4.wav,1,2,2,4,,,,,0,0,0,3,0,8,8,10,,,,,,,,,1,0.8022372819978045,,,023,001,2019_May_13_1413,MusicAffectPsychophysiology2019,3.0.5,59.94011359630846,
To what extent did the music make you feel ,HAPPY,30MonoWAV/30MonoF4.wav,1,2,2,4,,,,,0,0,0,3,0,9,9,6,,,,,,,,,1,0.8679981490131468,,,023,001,2019_May_13_1413,MusicAffectPsychophysiology2019,3.0.5,59.94011359630846,
To what extent did the music make you feel ,ASHAMED,30MonoWAV/30MonoF4.wav,1,2,2,4,,,,,0,0,0,3,0,10,10,4,,,,,,,,,1,0.6190457580087241,,,023,001,2019_May_13_1413,MusicAffectPsychophysiology2019,3.0.5,59.94011359630846,
To what extent did the music make you feel ,FRUSTRATED,30MonoWAV/30MonoF4.wav,1,2,2,4,,,,,0,0,0,3,0,11,11,3,,,,,,,,,1,0.8516543350124266,,,023,001,2019_May_13_1413,MusicAffectPsychophysiology2019,3.0.5,59.94011359630846,
,,30MonoWAV/30MonoF4.wav,1,2,2,4,,,,,0,0,0,3,,,,,,,,,,,,,,,,,023,001,2019_May_13_1413,MusicAffectPsychophysiology2019,3.0.5,59.94011359630846,
To what extent did the music make you feel ,ACTIVE,30MonoWAV/30MonoF3.wav,1,2,2,3,,,,,0,1,1,2,0,0,0,9,,,2,3.0829622489982285,2,2.9997275170026114,1,4.502663139006472,3,2.187948187987786,,,023,001,2019_May_13_1413,MusicAffectPsychophysiology2019,3.0.5,59.94011359630846,
To what extent did the music make you feel ,SAD,30MonoWAV/30MonoF3.wav,1,2,2,3,,,,,0,1,1,2,0,1,1,0,,,,,,,,,1,1.168039463009336,,,023,001,2019_May_13_1413,MusicAffectPsychophysiology2019,3.0.5,59.94011359630846,
To what extent did the music make you feel ,ALERT,30MonoWAV/30MonoF3.wav,1,2,2,3,,,,,0,1,1,2,0,2,2,8,,,,,,,,,1,1.5188930409931345,,,023,001,2019_May_13_1413,MusicAffectPsychophysiology2019,3.0.5,59.94011359630846,
To what extent did the music make you feel ,SCARED,30MonoWAV/30MonoF3.wav,1,2,2,3,,,,,0,1,1,2,0,3,3,11,,,,,,,,,1,0.9004913470125757,,,023,001,2019_May_13_1413,MusicAffectPsychophysiology2019,3.0.5,59.94011359630846,
To what extent did the music make you feel ,FRUSTRATED,30MonoWAV/30MonoF3.wav,1,2,2,3,,,,,0,1,1,2,0,4,4,3,,,,,,,,,1,0.8017955310060643,,,023,001,2019_May_13_1413,MusicAffectPsychophysiology2019,3.0.5,59.94011359630846,
To what extent did the music make you feel ,HAPPY,30MonoWAV/30MonoF3.wav,1,2,2,3,,,,,0,1,1,2,0,5,5,6,,,,,,,,,1,1.2349286499957088,,,023,001,2019_May_13_1413,MusicAffectPsychophysiology2019,3.0.5,59.94011359630846,
To what extent did the music make you feel ,GUILTY,30MonoWAV/30MonoF3.wav,1,2,2,3,,,,,0,1,1,2,0,6,6,5,,,,,,,,,1,0.8182117889955407,,,023,001,2019_May_13_1413,MusicAffectPsychophysiology2019,3.0.5,59.94011359630846,
To what extent did the music make you feel ,ANGRY,30MonoWAV/30MonoF3.wav,1,2,2,3,,,,,0,1,1,2,0,7,7,2,,,,,,,,,1,0.584781120007392,,,023,001,2019_May_13_1413,MusicAffectPsychophysiology2019,3.0.5,59.94011359630846,
To what extent did the music make you feel ,ASHAMED,30MonoWAV/30MonoF3.wav,1,2,2,3,,,,,0,1,1,2,0,8,8,4,,,,,,,,,1,0.6688232729939045,,,023,001,2019_May_13_1413,MusicAffectPsychophysiology2019,3.0.5,59.94011359630846,
To what extent did the music make you feel ,TENDER,30MonoWAV/30MonoF3.wav,1,2,2,3,,,,,0,1,1,2,0,9,9,10,,,,,,,,,1,0.5510453119932208,,,023,001,2019_May_13_1413,MusicAffectPsychophysiology2019,3.0.5,59.94011359630846,
To what extent did the music make you feel ,EXCITED,30MonoWAV/30MonoF3.wav,1,2,2,3,,,,,0,1,1,2,0,10,10,7,,,,,,,,,2,1.550762498009135,,,023,001,2019_May_13_1413,MusicAffectPsychophysiology2019,3.0.5,59.94011359630846,
To what extent did the music make you feel ,ANXIOUS ,30MonoWAV/30MonoF3.wav,1,2,2,3,,,,,0,1,1,2,0,11,11,1,,,,,,,,,2,1.26917201600736,,,023,001,2019_May_13_1413,MusicAffectPsychophysiology2019,3.0.5,59.94011359630846,
,,30MonoWAV/30MonoF3.wav,1,2,2,3,,,,,0,1,1,2,,,,,,,,,,,,,,,,,023,001,2019_May_13_1413,MusicAffectPsychophysiology2019,3.0.5,59.94011359630846,
To what extent did the music make you feel ,HAPPY,30MonoWAV/30MonoH4.wav,2,2,1,8,,,,,0,2,2,7,0,0,0,6,,,2,3.350808479008265,3,2.9680845059920102,3,1.4515510409983108,4,2.7687349730113056,,,023,001,2019_May_13_1413,MusicAffectPsychophysiology2019,3.0.5,59.94011359630846,
To what extent did the music make you feel ,ACTIVE,30MonoWAV/30MonoH4.wav,2,2,1,8,,,,,0,2,2,7,0,1,1,9,,,,,,,,,4,1.5988529410096817,,,023,001,2019_May_13_1413,MusicAffectPsychophysiology2019,3.0.5,59.94011359630846,
To what extent did the music make you feel ,ANGRY,30MonoWAV/30MonoH4.wav,2,2,1,8,,,,,0,2,2,7,0,2,2,2,,,,,,,,,1,1.368278875001124,,,023,001,2019_May_13_1413,MusicAffectPsychophysiology2019,3.0.5,59.94011359630846,
To what extent did the music make you feel ,SCARED,30MonoWAV/30MonoH4.wav,2,2,1,8,,,,,0,2,2,7,0,3,3,11,,,,,,,,,1,0.5350972439919133,,,023,001,2019_May_13_1413,MusicAffectPsychophysiology2019,3.0.5,59.94011359630846,
To what extent did the music make you feel ,GUILTY,30MonoWAV/30MonoH4.wav,2,2,1,8,,,,,0,2,2,7,0,4,4,5,,,,,,,,,1,0.485282075998839,,,023,001,2019_May_13_1413,MusicAffectPsychophysiology2019,3.0.5,59.94011359630846,
To what extent did the music make you feel ,EXCITED,30MonoWAV/30MonoH4.wav,2,2,1,8,,,,,0,2,2,7,0,5,5,7,,,,,,,,,4,1.6897039470059099,,,023,001,2019_May_13_1413,MusicAffectPsychophysiology2019,3.0.5,59.94011359630846,
To what extent did the music make you feel ,FRUSTRATED,30MonoWAV/30MonoH4.wav,2,2,1,8,,,,,0,2,2,7,0,6,6,3,,,,,,,,,1,0.9365762920060661,,,023,001,2019_May_13_1413,MusicAffectPsychophysiology2019,3.0.5,59.94011359630846,
To what extent did the music make you feel ,ANXIOUS ,30MonoWAV/30MonoH4.wav,2,2,1,8,,,,,0,2,2,7,0,7,7,1,,,,,,,,,1,0.6865540189901367,,,023,001,2019_May_13_1413,MusicAffectPsychophysiology2019,3.0.5,59.94011359630846,
To what extent did the music make you feel ,SAD,30MonoWAV/30MonoH4.wav,2,2,1,8,,,,,0,2,2,7,0,8,8,0,,,,,,,,,1,1.0031446939974558,,,023,001,2019_May_13_1413,MusicAffectPsychophysiology2019,3.0.5,59.94011359630846,
To what extent did the music make you feel ,TENDER,30MonoWAV/30MonoH4.wav,2,2,1,8,,,,,0,2,2,7,0,9,9,10,,,,,,,,,1,0.48549726700002793,,,023,001,2019_May_13_1413,MusicAffectPsychophysiology2019,3.0.5,59.94011359630846,
To what extent did the music make you feel ,ASHAMED,30MonoWAV/30MonoH4.wav,2,2,1,8,,,,,0,2,2,7,0,10,10,4,,,,,,,,,1,0.4698992729972815,,,023,001,2019_May_13_1413,MusicAffectPsychophysiology2019,3.0.5,59.94011359630846,
To what extent did the music make you feel ,ALERT,30MonoWAV/30MonoH4.wav,2,2,1,8,,,,,0,2,2,7,0,11,11,8,,,,,,,,,1,0.518520208002883,,,023,001,2019_May_13_1413,MusicAffectPsychophysiology2019,3.0.5,59.94011359630846,
,,30MonoWAV/30MonoH4.wav,2,2,1,8,,,,,0,2,2,7,,,,,,,,,,,,,,,,,023,001,2019_May_13_1413,MusicAffectPsychophysiology2019,3.0.5,59.94011359630846,
To what extent did the music make you feel ,TENDER,30MonoWAV/30MonoS3.wav,1,1,3,11,,,,,0,3,3,10,0,0,0,10,,,1,2.7190560290036956,1,1.8226494440023089,1,2.0702798629936296,2,2.037489665992325,,,023,001,2019_May_13_1413,MusicAffectPsychophysiology2019,3.0.5,59.94011359630846,
To what extent did the music make you feel ,ASHAMED,30MonoWAV/30MonoS3.wav,1,1,3,11,,,,,0,3,3,10,0,1,1,4,,,,,,,,,1,0.685103985000751,,,023,001,2019_May_13_1413,MusicAffectPsychophysiology2019,3.0.5,59.94011359630846,
To what extent did the music make you feel ,ACTIVE,30MonoWAV/30MonoS3.wav,1,1,3,11,,,,,0,3,3,10,0,2,2,9,,,,,,,,,1,0.7191926230007084,,,023,001,2019_May_13_1413,MusicAffectPsychophysiology2019,3.0.5,59.94011359630846,
To what extent did the music make you feel ,ALERT,30MonoWAV/30MonoS3.wav,1,1,3,11,,,,,0,3,3,10,0,3,3,8,,,,,,,,,1,0.552970758988522,,,023,001,2019_May_13_1413,MusicAffectPsychophysiology2019,3.0.5,59.94011359630846,
To what extent did the music make you feel ,SAD,30MonoWAV/30MonoS3.wav,1,1,3,11,,,,,0,3,3,10,0,4,4,0,,,,,,,,,3,2.040320280008018,,,023,001,2019_May_13_1413,MusicAffectPsychophysiology2019,3.0.5,59.94011359630846,
To what extent did the music make you feel ,EXCITED,30MonoWAV/30MonoS3.wav,1,1,3,11,,,,,0,3,3,10,0,5,5,7,,,,,,,,,1,1.2834288269950775,,,023,001,2019_May_13_1413,MusicAffectPsychophysiology2019,3.0.5,59.94011359630846,
To what extent did the music make you feel ,HAPPY,30MonoWAV/30MonoS3.wav,1,1,3,11,,,,,0,3,3,10,0,6,6,6,,,,,,,,,1,1.519634294003481,,,023,001,2019_May_13_1413,MusicAffectPsychophysiology2019,3.0.5,59.94011359630846,
To what extent did the music make you feel ,ANGRY,30MonoWAV/30MonoS3.wav,1,1,3,11,,,,,0,3,3,10,0,7,7,2,,,,,,,,,1,1.3673148490051972,,,023,001,2019_May_13_1413,MusicAffectPsychophysiology2019,3.0.5,59.94011359630846,
To what extent did the music make you feel ,SCARED,30MonoWAV/30MonoS3.wav,1,1,3,11,,,,,0,3,3,10,0,8,8,11,,,,,,,,,1,1.0002133320085704,,,023,001,2019_May_13_1413,MusicAffectPsychophysiology2019,3.0.5,59.94011359630846,
To what extent did the music make you feel ,GUILTY,30MonoWAV/30MonoS3.wav,1,1,3,11,,,,,0,3,3,10,0,9,9,5,,,,,,,,,1,0.902932024007896,,,023,001,2019_May_13_1413,MusicAffectPsychophysiology2019,3.0.5,59.94011359630846,
To what extent did the music make you feel ,FRUSTRATED,30MonoWAV/30MonoS3.wav,1,1,3,11,,,,,0,3,3,10,0,10,10,3,,,,,,,,,1,1.8347548970050411,,,023,001,2019_May_13_1413,MusicAffectPsychophysiology2019,3.0.5,59.94011359630846,
To what extent did the music make you feel ,ANXIOUS ,30MonoWAV/30MonoS3.wav,1,1,3,11,,,,,0,3,3,10,0,11,11,1,,,,,,,,,1,0.585258270992199,,,023,001,2019_May_13_1413,MusicAffectPsychophysiology2019,3.0.5,59.94011359630846,
,,30MonoWAV/30MonoS3.wav,1,1,3,11,,,,,0,3,3,10,,,,,,,,,,,,,,,,,023,001,2019_May_13_1413,MusicAffectPsychophysiology2019,3.0.5,59.94011359630846,
To what extent did the music make you feel ,TENDER,30MonoWAV/30MonoT4.wav,2,1,4,16,,,,,0,4,4,15,0,0,0,10,,,2,4.1329761579982005,5,3.5523248630051967,4,2.1348127239907626,3,2.9676449929975206,,,023,001,2019_May_13_1413,MusicAffectPsychophysiology2019,3.0.5,59.94011359630846,
To what extent did the music make you feel ,ACTIVE,30MonoWAV/30MonoT4.wav,2,1,4,16,,,,,0,4,4,15,0,1,1,9,,,,,,,,,2,1.6184699299919885,,,023,001,2019_May_13_1413,MusicAffectPsychophysiology2019,3.0.5,59.94011359630846,
To what extent did the music make you feel ,ANGRY,30MonoWAV/30MonoT4.wav,2,1,4,16,,,,,0,4,4,15,0,2,2,2,,,,,,,,,1,1.332907609990798,,,023,001,2019_May_13_1413,MusicAffectPsychophysiology2019,3.0.5,59.94011359630846,
To what extent did the music make you feel ,ANXIOUS ,30MonoWAV/30MonoT4.wav,2,1,4,16,,,,,0,4,4,15,0,3,3,1,,,,,,,,,1,0.566207187002874,,,023,001,2019_May_13_1413,MusicAffectPsychophysiology2019,3.0.5,59.94011359630846,
To what extent did the music make you feel ,SAD,30MonoWAV/30MonoT4.wav,2,1,4,16,,,,,0,4,4,15,0,4,4,0,,,,,,,,,1,1.1194728309928905,,,023,001,2019_May_13_1413,MusicAffectPsychophysiology2019,3.0.5,59.94011359630846,
To what extent did the music make you feel ,SCARED,30MonoWAV/30MonoT4.wav,2,1,4,16,,,,,0,4,4,15,0,5,5,11,,,,,,,,,1,0.6165503090014681,,,023,001,2019_May_13_1413,MusicAffectPsychophysiology2019,3.0.5,59.94011359630846,
To what extent did the music make you feel ,ASHAMED,30MonoWAV/30MonoT4.wav,2,1,4,16,,,,,0,4,4,15,0,6,6,4,,,,,,,,,1,0.4358648430061294,,,023,001,2019_May_13_1413,MusicAffectPsychophysiology2019,3.0.5,59.94011359630846,
To what extent did the music make you feel ,ALERT,30MonoWAV/30MonoT4.wav,2,1,4,16,,,,,0,4,4,15,0,7,7,8,,,,,,,,,1,0.8355077680025715,,,023,001,2019_May_13_1413,MusicAffectPsychophysiology2019,3.0.5,59.94011359630846,
To what extent did the music make you feel ,GUILTY,30MonoWAV/30MonoT4.wav,2,1,4,16,,,,,0,4,4,15,0,8,8,5,,,,,,,,,1,0.5855928100063466,,,023,001,2019_May_13_1413,MusicAffectPsychophysiology2019,3.0.5,59.94011359630846,
To what extent did the music make you feel ,EXCITED,30MonoWAV/30MonoT4.wav,2,1,4,16,,,,,0,4,4,15,0,9,9,7,,,,,,,,,2,1.5345993710070616,,,023,001,2019_May_13_1413,MusicAffectPsychophysiology2019,3.0.5,59.94011359630846,
To what extent did the music make you feel ,HAPPY,30MonoWAV/30MonoT4.wav,2,1,4,16,,,,,0,4,4,15,0,10,10,6,,,,,,,,,5,1.6854114119923906,,,023,001,2019_May_13_1413,MusicAffectPsychophysiology2019,3.0.5,59.94011359630846,
To what extent did the music make you feel ,FRUSTRATED,30MonoWAV/30MonoT4.wav,2,1,4,16,,,,,0,4,4,15,0,11,11,3,,,,,,,,,1,1.18472670900519,,,023,001,2019_May_13_1413,MusicAffectPsychophysiology2019,3.0.5,59.94011359630846,
,,30MonoWAV/30MonoT4.wav,2,1,4,16,,,,,0,4,4,15,,,,,,,,,,,,,,,,,023,001,2019_May_13_1413,MusicAffectPsychophysiology2019,3.0.5,59.94011359630846,
To what extent did the music make you feel ,EXCITED,30MonoWAV/30MonoT2.wav,2,1,4,14,,,,,0,5,5,13,0,0,0,7,,,2,3.03501213301206,1,4.10189436901419,3,2.5182647250039736,1,1.9180210789927514,,,023,001,2019_May_13_1413,MusicAffectPsychophysiology2019,3.0.5,59.94011359630846,
To what extent did the music make you feel ,TENDER,30MonoWAV/30MonoT2.wav,2,1,4,14,,,,,0,5,5,13,0,1,1,10,,,,,,,,,1,0.5854615610005567,,,023,001,2019_May_13_1413,MusicAffectPsychophysiology2019,3.0.5,59.94011359630846,
To what extent did the music make you feel ,ALERT,30MonoWAV/30MonoT2.wav,2,1,4,14,,,,,0,5,5,13,0,2,2,8,,,,,,,,,1,0.8188459910015808,,,023,001,2019_May_13_1413,MusicAffectPsychophysiology2019,3.0.5,59.94011359630846,
To what extent did the music make you feel ,ACTIVE,30MonoWAV/30MonoT2.wav,2,1,4,14,,,,,0,5,5,13,0,3,3,9,,,,,,,,,1,2.2335853859985946,,,023,001,2019_May_13_1413,MusicAffectPsychophysiology2019,3.0.5,59.94011359630846,
To what extent did the music make you feel ,SCARED,30MonoWAV/30MonoT2.wav,2,1,4,14,,,,,0,5,5,13,0,4,4,11,,,,,,,,,1,1.251485815999331,,,023,001,2019_May_13_1413,MusicAffectPsychophysiology2019,3.0.5,59.94011359630846,
To what extent did the music make you feel ,FRUSTRATED,30MonoWAV/30MonoT2.wav,2,1,4,14,,,,,0,5,5,13,0,5,5,3,,,,,,,,,1,2.5014011159946676,,,023,001,2019_May_13_1413,MusicAffectPsychophysiology2019,3.0.5,59.94011359630846,
To what extent did the music make you feel ,HAPPY,30MonoWAV/30MonoT2.wav,2,1,4,14,,,,,0,5,5,13,0,6,6,6,,,,,,,,,1,1.9687858639954356,,,023,001,2019_May_13_1413,MusicAffectPsychophysiology2019,3.0.5,59.94011359630846,
To what extent did the music make you feel ,GUILTY,30MonoWAV/30MonoT2.wav,2,1,4,14,,,,,0,5,5,13,0,7,7,5,,,,,,,,,2,1.784965076003573,,,023,001,2019_May_13_1413,MusicAffectPsychophysiology2019,3.0.5,59.94011359630846,
To what extent did the music make you feel ,ANXIOUS ,30MonoWAV/30MonoT2.wav,2,1,4,14,,,,,0,5,5,13,0,8,8,1,,,,,,,,,2,1.9857155109930318,,,023,001,2019_May_13_1413,MusicAffectPsychophysiology2019,3.0.5,59.94011359630846,
To what extent did the music make you feel ,ANGRY,30MonoWAV/30MonoT2.wav,2,1,4,14,,,,,0,5,5,13,0,9,9,2,,,,,,,,,1,0.7854829610005254,,,023,001,2019_May_13_1413,MusicAffectPsychophysiology2019,3.0.5,59.94011359630846,
To what extent did the music make you feel ,SAD,30MonoWAV/30MonoT2.wav,2,1,4,14,,,,,0,5,5,13,0,10,10,0,,,,,,,,,4,2.368774436006788,,,023,001,2019_May_13_1413,MusicAffectPsychophysiology2019,3.0.5,59.94011359630846,
To what extent did the music make you feel ,ASHAMED,30MonoWAV/30MonoT2.wav,2,1,4,14,,,,,0,5,5,13,0,11,11,4,,,,,,,,,1,1.2842926450102823,,,023,001,2019_May_13_1413,MusicAffectPsychophysiology2019,3.0.5,59.94011359630846,
,,30MonoWAV/30MonoT2.wav,2,1,4,14,,,,,0,5,5,13,,,,,,,,,,,,,,,,,023,001,2019_May_13_1413,MusicAffectPsychophysiology2019,3.0.5,59.94011359630846,
To what extent did the music make you feel ,ACTIVE,30MonoWAV/30MonoS4.wav,1,1,3,12,,,,,0,6,6,11,0,0,0,9,,,1,2.454571145004593,1,1.2037601540068863,2,2.2711808509920957,1,1.4214620909915539,,,023,001,2019_May_13_1413,MusicAffectPsychophysiology2019,3.0.5,59.94011359630846,
To what extent did the music make you feel ,ASHAMED,30MonoWAV/30MonoS4.wav,1,1,3,12,,,,,0,6,6,11,0,1,1,4,,,,,,,,,1,1.0003410280041862,,,023,001,2019_May_13_1413,MusicAffectPsychophysiology2019,3.0.5,59.94011359630846,
To what extent did the music make you feel ,ALERT,30MonoWAV/30MonoS4.wav,1,1,3,12,,,,,0,6,6,11,0,2,2,8,,,,,,,,,1,1.2184495919937035,,,023,001,2019_May_13_1413,MusicAffectPsychophysiology2019,3.0.5,59.94011359630846,
To what extent did the music make you feel ,GUILTY,30MonoWAV/30MonoS4.wav,1,1,3,12,,,,,0,6,6,11,0,3,3,5,,,,,,,,,1,1.6864855960011482,,,023,001,2019_May_13_1413,MusicAffectPsychophysiology2019,3.0.5,59.94011359630846,
To what extent did the music make you feel ,SAD,30MonoWAV/30MonoS4.wav,1,1,3,12,,,,,0,6,6,11,0,4,4,0,,,,,,,,,5,3.051689940999495,,,023,001,2019_May_13_1413,MusicAffectPsychophysiology2019,3.0.5,59.94011359630846,
To what extent did the music make you feel ,EXCITED,30MonoWAV/30MonoS4.wav,1,1,3,12,,,,,0,6,6,11,0,5,5,7,,,,,,,,,1,1.0685175569960847,,,023,001,2019_May_13_1413,MusicAffectPsychophysiology2019,3.0.5,59.94011359630846,
To what extent did the music make you feel ,HAPPY,30MonoWAV/30MonoS4.wav,1,1,3,12,,,,,0,6,6,11,0,6,6,6,,,,,,,,,1,0.7173342730093282,,,023,001,2019_May_13_1413,MusicAffectPsychophysiology2019,3.0.5,59.94011359630846,
To what extent did the music make you feel ,ANGRY,30MonoWAV/30MonoS4.wav,1,1,3,12,,,,,0,6,6,11,0,7,7,2,,,,,,,,,1,0.7510599240049487,,,023,001,2019_May_13_1413,MusicAffectPsychophysiology2019,3.0.5,59.94011359630846,
To what extent did the music make you feel ,SCARED,30MonoWAV/30MonoS4.wav,1,1,3,12,,,,,0,6,6,11,0,8,8,11,,,,,,,,,1,1.8012793590023648,,,023,001,2019_May_13_1413,MusicAffectPsychophysiology2019,3.0.5,59.94011359630846,
To what extent did the music make you feel ,ANXIOUS ,30MonoWAV/30MonoS4.wav,1,1,3,12,,,,,0,6,6,11,0,9,9,1,,,,,,,,,3,1.5353336999978637,,,023,001,2019_May_13_1413,MusicAffectPsychophysiology2019,3.0.5,59.94011359630846,
To what extent did the music make you feel ,FRUSTRATED,30MonoWAV/30MonoS4.wav,1,1,3,12,,,,,0,6,6,11,0,10,10,3,,,,,,,,,1,1.1517169709986774,,,023,001,2019_May_13_1413,MusicAffectPsychophysiology2019,3.0.5,59.94011359630846,
To what extent did the music make you feel ,TENDER,30MonoWAV/30MonoS4.wav,1,1,3,12,,,,,0,6,6,11,0,11,11,10,,,,,,,,,3,1.4675869860075181,,,023,001,2019_May_13_1413,MusicAffectPsychophysiology2019,3.0.5,59.94011359630846,
,,30MonoWAV/30MonoS4.wav,1,1,3,12,,,,,0,6,6,11,,,,,,,,,,,,,,,,,023,001,2019_May_13_1413,MusicAffectPsychophysiology2019,3.0.5,59.94011359630846,
To what extent did the music make you feel ,EXCITED,30MonoWAV/30MonoH2.wav,2,2,1,6,,,,,0,7,7,5,0,0,0,7,,,3,3.002292511999258,2,1.3671339620050276,2,1.6851741029968252,4,3.4007928840001114,,,023,001,2019_May_13_1413,MusicAffectPsychophysiology2019,3.0.5,59.94011359630846,
To what extent did the music make you feel ,ASHAMED,30MonoWAV/30MonoH2.wav,2,2,1,6,,,,,0,7,7,5,0,1,1,4,,,,,,,,,1,1.5024290979927173,,,023,001,2019_May_13_1413,MusicAffectPsychophysiology2019,3.0.5,59.94011359630846,
To what extent did the music make you feel ,GUILTY,30MonoWAV/30MonoH2.wav,2,2,1,6,,,,,0,7,7,5,0,2,2,5,,,,,,,,,1,0.585903903003782,,,023,001,2019_May_13_1413,MusicAffectPsychophysiology2019,3.0.5,59.94011359630846,
To what extent did the music make you feel ,SAD,30MonoWAV/30MonoH2.wav,2,2,1,6,,,,,0,7,7,5,0,3,3,0,,,,,,,,,1,1.0834707510075532,,,023,001,2019_May_13_1413,MusicAffectPsychophysiology2019,3.0.5,59.94011359630846,
To what extent did the music make you feel ,ANXIOUS ,30MonoWAV/30MonoH2.wav,2,2,1,6,,,,,0,7,7,5,0,4,4,1,,,,,,,,,1,1.4724434609961463,,,023,001,2019_May_13_1413,MusicAffectPsychophysiology2019,3.0.5,59.94011359630846,
To what extent did the music make you feel ,ALERT,30MonoWAV/30MonoH2.wav,2,2,1,6,,,,,0,7,7,5,0,5,5,8,,,,,,,,,4,1.5701683360093739,,,023,001,2019_May_13_1413,MusicAffectPsychophysiology2019,3.0.5,59.94011359630846,
To what extent did the music make you feel ,HAPPY,30MonoWAV/30MonoH2.wav,2,2,1,6,,,,,0,7,7,5,0,6,6,6,,,,,,,,,2,2.07130153599428,,,023,001,2019_May_13_1413,MusicAffectPsychophysiology2019,3.0.5,59.94011359630846,
To what extent did the music make you feel ,FRUSTRATED,30MonoWAV/30MonoH2.wav,2,2,1,6,,,,,0,7,7,5,0,7,7,3,,,,,,,,,1,1.0862882450019242,,,023,001,2019_May_13_1413,MusicAffectPsychophysiology2019,3.0.5,59.94011359630846,
To what extent did the music make you feel ,TENDER,30MonoWAV/30MonoH2.wav,2,2,1,6,,,,,0,7,7,5,0,8,8,10,,,,,,,,,1,1.250953523995122,,,023,001,2019_May_13_1413,MusicAffectPsychophysiology2019,3.0.5,59.94011359630846,
To what extent did the music make you feel ,ACTIVE,30MonoWAV/30MonoH2.wav,2,2,1,6,,,,,0,7,7,5,0,9,9,9,,,,,,,,,1,0.9060319510026602,,,023,001,2019_May_13_1413,MusicAffectPsychophysiology2019,3.0.5,59.94011359630846,
To what extent did the music make you feel ,SCARED,30MonoWAV/30MonoH2.wav,2,2,1,6,,,,,0,7,7,5,0,10,10,11,,,,,,,,,1,2.0186183029873064,,,023,001,2019_May_13_1413,MusicAffectPsychophysiology2019,3.0.5,59.94011359630846,
To what extent did the music make you feel ,ANGRY,30MonoWAV/30MonoH2.wav,2,2,1,6,,,,,0,7,7,5,0,11,11,2,,,,,,,,,1,4.068844711990096,,,023,001,2019_May_13_1413,MusicAffectPsychophysiology2019,3.0.5,59.94011359630846,
,,30MonoWAV/30MonoH2.wav,2,2,1,6,,,,,0,7,7,5,,,,,,,,,,,,,,,,,023,001,2019_May_13_1413,MusicAffectPsychophysiology2019,3.0.5,59.94011359630846,
To what extent did the music make you feel ,FRUSTRATED,30MonoWAV/30MonoT1.wav,2,1,4,13,,,,,0,8,8,12,0,0,0,3,,,1,3.1024594260088634,1,3.283452492003562,3,2.152556619999814,1,1.3689613820024533,,,023,001,2019_May_13_1413,MusicAffectPsychophysiology2019,3.0.5,59.94011359630846,
To what extent did the music make you feel ,ANXIOUS ,30MonoWAV/30MonoT1.wav,2,1,4,13,,,,,0,8,8,12,0,1,1,1,,,,,,,,,2,1.8682629139948403,,,023,001,2019_May_13_1413,MusicAffectPsychophysiology2019,3.0.5,59.94011359630846,
To what extent did the music make you feel ,SAD,30MonoWAV/30MonoT1.wav,2,1,4,13,,,,,0,8,8,12,0,2,2,0,,,,,,,,,4,2.167575510989991,,,023,001,2019_May_13_1413,MusicAffectPsychophysiology2019,3.0.5,59.94011359630846,
To what extent did the music make you feel ,HAPPY,30MonoWAV/30MonoT1.wav,2,1,4,13,,,,,0,8,8,12,0,3,3,6,,,,,,,,,1,1.1848118009947939,,,023,001,2019_May_13_1413,MusicAffectPsychophysiology2019,3.0.5,59.94011359630846,
To what extent did the music make you feel ,ANGRY,30MonoWAV/30MonoT1.wav,2,1,4,13,,,,,0,8,8,12,0,4,4,2,,,,,,,,,1,0.9682316309917951,,,023,001,2019_May_13_1413,MusicAffectPsychophysiology2019,3.0.5,59.94011359630846,
To what extent did the music make you feel ,SCARED,30MonoWAV/30MonoT1.wav,2,1,4,13,,,,,0,8,8,12,0,5,5,11,,,,,,,,,1,1.2013231980090495,,,023,001,2019_May_13_1413,MusicAffectPsychophysiology2019,3.0.5,59.94011359630846,
To what extent did the music make you feel ,ALERT,30MonoWAV/30MonoT1.wav,2,1,4,13,,,,,0,8,8,12,0,6,6,8,,,,,,,,,2,2.0512541309872176,,,023,001,2019_May_13_1413,MusicAffectPsychophysiology2019,3.0.5,59.94011359630846,
To what extent did the music make you feel ,EXCITED,30MonoWAV/30MonoT1.wav,2,1,4,13,,,,,0,8,8,12,0,7,7,7,,,,,,,,,1,0.9532981750089675,,,023,001,2019_May_13_1413,MusicAffectPsychophysiology2019,3.0.5,59.94011359630846,
To what extent did the music make you feel ,GUILTY,30MonoWAV/30MonoT1.wav,2,1,4,13,,,,,0,8,8,12,0,8,8,5,,,,,,,,,2,1.3516911610058742,,,023,001,2019_May_13_1413,MusicAffectPsychophysiology2019,3.0.5,59.94011359630846,
To what extent did the music make you feel ,TENDER,30MonoWAV/30MonoT1.wav,2,1,4,13,,,,,0,8,8,12,0,9,9,10,,,,,,,,,2,1.1519090260117082,,,023,001,2019_May_13_1413,MusicAffectPsychophysiology2019,3.0.5,59.94011359630846,
To what extent did the music make you feel ,ACTIVE,30MonoWAV/30MonoT1.wav,2,1,4,13,,,,,0,8,8,12,0,10,10,9,,,,,,,,,1,0.9854399059986463,,,023,001,2019_May_13_1413,MusicAffectPsychophysiology2019,3.0.5,59.94011359630846,
To what extent did the music make you feel ,ASHAMED,30MonoWAV/30MonoT1.wav,2,1,4,13,,,,,0,8,8,12,0,11,11,4,,,,,,,,,1,1.6008774539950537,,,023,001,2019_May_13_1413,MusicAffectPsychophysiology2019,3.0.5,59.94011359630846,
,,30MonoWAV/30MonoT1.wav,2,1,4,13,,,,,0,8,8,12,,,,,,,,,,,,,,,,,023,001,2019_May_13_1413,MusicAffectPsychophysiology2019,3.0.5,59.94011359630846,
To what extent did the music make you feel ,SAD,30MonoWAV/30MonoH3.wav,2,2,1,7,,,,,0,9,9,6,0,0,0,0,,,4,2.917482820004807,4,1.7019488260120852,3,1.8180900830047904,1,1.4855936859967187,,,023,001,2019_May_13_1413,MusicAffectPsychophysiology2019,3.0.5,59.94011359630846,
To what extent did the music make you feel ,GUILTY,30MonoWAV/30MonoH3.wav,2,2,1,7,,,,,0,9,9,6,0,1,1,5,,,,,,,,,1,0.7027081270061899,,,023,001,2019_May_13_1413,MusicAffectPsychophysiology2019,3.0.5,59.94011359630846,
To what extent did the music make you feel ,ANGRY,30MonoWAV/30MonoH3.wav,2,2,1,7,,,,,0,9,9,6,0,2,2,2,,,,,,,,,1,0.5680723789992044,,,023,001,2019_May_13_1413,MusicAffectPsychophysiology2019,3.0.5,59.94011359630846,
To what extent did the music make you feel ,ALERT,30MonoWAV/30MonoH3.wav,2,2,1,7,,,,,0,9,9,6,0,3,3,8,,,,,,,,,4,1.4514967889990658,,,023,001,2019_May_13_1413,MusicAffectPsychophysiology2019,3.0.5,59.94011359630846,
To what extent did the music make you feel ,EXCITED,30MonoWAV/30MonoH3.wav,2,2,1,7,,,,,0,9,9,6,0,4,4,7,,,,,,,,,4,1.4685220709943678,,,023,001,2019_May_13_1413,MusicAffectPsychophysiology2019,3.0.5,59.94011359630846,
To what extent did the music make you feel ,HAPPY,30MonoWAV/30MonoH3.wav,2,2,1,7,,,,,0,9,9,6,0,5,5,6,,,,,,,,,4,0.9854386869992595,,,023,001,2019_May_13_1413,MusicAffectPsychophysiology2019,3.0.5,59.94011359630846,
To what extent did the music make you feel ,SCARED,30MonoWAV/30MonoH3.wav,2,2,1,7,,,,,0,9,9,6,0,6,6,11,,,,,,,,,1,0.9355027529963991,,,023,001,2019_May_13_1413,MusicAffectPsychophysiology2019,3.0.5,59.94011359630846,
To what extent did the music make you feel ,TENDER,30MonoWAV/30MonoH3.wav,2,2,1,7,,,,,0,9,9,6,0,7,7,10,,,,,,,,,1,1.2519797459972324,,,023,001,2019_May_13_1413,MusicAffectPsychophysiology2019,3.0.5,59.94011359630846,
To what extent did the music make you feel ,FRUSTRATED,30MonoWAV/30MonoH3.wav,2,2,1,7,,,,,0,9,9,6,0,8,8,3,,,,,,,,,1,0.6182611089898273,,,023,001,2019_May_13_1413,MusicAffectPsychophysiology2019,3.0.5,59.94011359630846,
To what extent did the music make you feel ,ANXIOUS ,30MonoWAV/30MonoH3.wav,2,2,1,7,,,,,0,9,9,6,0,9,9,1,,,,,,,,,1,0.7830218500021147,,,023,001,2019_May_13_1413,MusicAffectPsychophysiology2019,3.0.5,59.94011359630846,
To what extent did the music make you feel ,ASHAMED,30MonoWAV/30MonoH3.wav,2,2,1,7,,,,,0,9,9,6,0,10,10,4,,,,,,,,,1,0.6357068719953531,,,023,001,2019_May_13_1413,MusicAffectPsychophysiology2019,3.0.5,59.94011359630846,
To what extent did the music make you feel ,ACTIVE,30MonoWAV/30MonoH3.wav,2,2,1,7,,,,,0,9,9,6,0,11,11,9,,,,,,,,,4,1.5357666070049163,,,023,001,2019_May_13_1413,MusicAffectPsychophysiology2019,3.0.5,59.94011359630846,
,,30MonoWAV/30MonoH3.wav,2,2,1,7,,,,,0,9,9,6,,,,,,,,,,,,,,,,,023,001,2019_May_13_1413,MusicAffectPsychophysiology2019,3.0.5,59.94011359630846,
To what extent did the music make you feel ,ASHAMED,30MonoWAV/30MonoF1.wav,1,2,2,1,,,,,0,10,10,0,0,0,0,4,,,3,2.5698609230021248,1,1.6849949589959579,1,2.118870197009528,1,1.302748686997802,,,023,001,2019_May_13_1413,MusicAffectPsychophysiology2019,3.0.5,59.94011359630846,
To what extent did the music make you feel ,FRUSTRATED,30MonoWAV/30MonoF1.wav,1,2,2,1,,,,,0,10,10,0,0,1,1,3,,,,,,,,,1,0.8029683209897485,,,023,001,2019_May_13_1413,MusicAffectPsychophysiology2019,3.0.5,59.94011359630846,
To what extent did the music make you feel ,SCARED,30MonoWAV/30MonoF1.wav,1,2,2,1,,,,,0,10,10,0,0,2,2,11,,,,,,,,,1,0.8169061730004614,,,023,001,2019_May_13_1413,MusicAffectPsychophysiology2019,3.0.5,59.94011359630846,
To what extent did the music make you feel ,EXCITED,30MonoWAV/30MonoF1.wav,1,2,2,1,,,,,0,10,10,0,0,3,3,7,,,,,,,,,1,1.634785431000637,,,023,001,2019_May_13_1413,MusicAffectPsychophysiology2019,3.0.5,59.94011359630846,
To what extent did the music make you feel ,ALERT,30MonoWAV/30MonoF1.wav,1,2,2,1,,,,,0,10,10,0,0,4,4,8,,,,,,,,,4,1.4181075870001223,,,023,001,2019_May_13_1413,MusicAffectPsychophysiology2019,3.0.5,59.94011359630846,
To what extent did the music make you feel ,HAPPY,30MonoWAV/30MonoF1.wav,1,2,2,1,,,,,0,10,10,0,0,5,5,6,,,,,,,,,2,1.4684451280045323,,,023,001,2019_May_13_1413,MusicAffectPsychophysiology2019,3.0.5,59.94011359630846,
To what extent did the music make you feel ,TENDER,30MonoWAV/30MonoF1.wav,1,2,2,1,,,,,0,10,10,0,0,6,6,10,,,,,,,,,1,1.3853506180021213,,,023,001,2019_May_13_1413,MusicAffectPsychophysiology2019,3.0.5,59.94011359630846,
To what extent did the music make you feel ,ANGRY,30MonoWAV/30MonoF1.wav,1,2,2,1,,,,,0,10,10,0,0,7,7,2,,,,,,,,,2,2.234012893997715,,,023,001,2019_May_13_1413,MusicAffectPsychophysiology2019,3.0.5,59.94011359630846,
To what extent did the music make you feel ,SAD,30MonoWAV/30MonoF1.wav,1,2,2,1,,,,,0,10,10,0,0,8,8,0,,,,,,,,,1,2.468688118009595,,,023,001,2019_May_13_1413,MusicAffectPsychophysiology2019,3.0.5,59.94011359630846,
To what extent did the music make you feel ,ANXIOUS ,30MonoWAV/30MonoF1.wav,1,2,2,1,,,,,0,10,10,0,0,9,9,1,,,,,,,,,4,3.151680494003813,,,023,001,2019_May_13_1413,MusicAffectPsychophysiology2019,3.0.5,59.94011359630846,
To what extent did the music make you feel ,GUILTY,30MonoWAV/30MonoF1.wav,1,2,2,1,,,,,0,10,10,0,0,10,10,5,,,,,,,,,1,1.468416953997803,,,023,001,2019_May_13_1413,MusicAffectPsychophysiology2019,3.0.5,59.94011359630846,
To what extent did the music make you feel ,ACTIVE,30MonoWAV/30MonoF1.wav,1,2,2,1,,,,,0,10,10,0,0,11,11,9,,,,,,,,,4,1.3683015080023324,,,023,001,2019_May_13_1413,MusicAffectPsychophysiology2019,3.0.5,59.94011359630846,
,,30MonoWAV/30MonoF1.wav,1,2,2,1,,,,,0,10,10,0,,,,,,,,,,,,,,,,,023,001,2019_May_13_1413,MusicAffectPsychophysiology2019,3.0.5,59.94011359630846,
To what extent did the music make you feel ,SAD,30MonoWAV/30MonoT3.wav,2,1,4,15,,,,,0,11,11,14,0,0,0,0,,,2,4.855891519007855,5,1.885749865003163,4,4.368651351993321,2,2.0277847880061017,,,023,001,2019_May_13_1413,MusicAffectPsychophysiology2019,3.0.5,59.94011359630846,
To what extent did the music make you feel ,ANXIOUS ,30MonoWAV/30MonoT3.wav,2,1,4,15,,,,,0,11,11,14,0,1,1,1,,,,,,,,,1,1.0852015540003777,,,023,001,2019_May_13_1413,MusicAffectPsychophysiology2019,3.0.5,59.94011359630846,
To what extent did the music make you feel ,GUILTY,30MonoWAV/30MonoT3.wav,2,1,4,15,,,,,0,11,11,14,0,2,2,5,,,,,,,,,1,0.6858736959984526,,,023,001,2019_May_13_1413,MusicAffectPsychophysiology2019,3.0.5,59.94011359630846,
To what extent did the music make you feel ,SCARED,30MonoWAV/30MonoT3.wav,2,1,4,15,,,,,0,11,11,14,0,3,3,11,,,,,,,,,1,0.6351769750035601,,,023,001,2019_May_13_1413,MusicAffectPsychophysiology2019,3.0.5,59.94011359630846,
To what extent did the music make you feel ,ASHAMED,30MonoWAV/30MonoT3.wav,2,1,4,15,,,,,0,11,11,14,0,4,4,4,,,,,,,,,1,0.8346372320083901,,,023,001,2019_May_13_1413,MusicAffectPsychophysiology2019,3.0.5,59.94011359630846,
To what extent did the music make you feel ,EXCITED,30MonoWAV/30MonoT3.wav,2,1,4,15,,,,,0,11,11,14,0,5,5,7,,,,,,,,,2,1.8504090140049811,,,023,001,2019_May_13_1413,MusicAffectPsychophysiology2019,3.0.5,59.94011359630846,
To what extent did the music make you feel ,FRUSTRATED,30MonoWAV/30MonoT3.wav,2,1,4,15,,,,,0,11,11,14,0,6,6,3,,,,,,,,,1,0.6185367260040948,,,023,001,2019_May_13_1413,MusicAffectPsychophysiology2019,3.0.5,59.94011359630846,
To what extent did the music make you feel ,ANGRY,30MonoWAV/30MonoT3.wav,2,1,4,15,,,,,0,11,11,14,0,7,7,2,,,,,,,,,1,0.6370259639952565,,,023,001,2019_May_13_1413,MusicAffectPsychophysiology2019,3.0.5,59.94011359630846,
To what extent did the music make you feel ,ACTIVE,30MonoWAV/30MonoT3.wav,2,1,4,15,,,,,0,11,11,14,0,8,8,9,,,,,,,,,1,1.76971384701028,,,023,001,2019_May_13_1413,MusicAffectPsychophysiology2019,3.0.5,59.94011359630846,
To what extent did the music make you feel ,HAPPY,30MonoWAV/30MonoT3.wav,2,1,4,15,,,,,0,11,11,14,0,9,9,6,,,,,,,,,4,3.0191419280017726,,,023,001,2019_May_13_1413,MusicAffectPsychophysiology2019,3.0.5,59.94011359630846,
To what extent did the music make you feel ,ALERT,30MonoWAV/30MonoT3.wav,2,1,4,15,,,,,0,11,11,14,0,10,10,8,,,,,,,,,2,1.7190889929916011,,,023,001,2019_May_13_1413,MusicAffectPsychophysiology2019,3.0.5,59.94011359630846,
To what extent did the music make you feel ,TENDER,30MonoWAV/30MonoT3.wav,2,1,4,15,,,,,0,11,11,14,0,11,11,10,,,,,,,,,4,2.3850780289940303,,,023,001,2019_May_13_1413,MusicAffectPsychophysiology2019,3.0.5,59.94011359630846,
,,30MonoWAV/30MonoT3.wav,2,1,4,15,,,,,0,11,11,14,,,,,,,,,,,,,,,,,023,001,2019_May_13_1413,MusicAffectPsychophysiology2019,3.0.5,59.94011359630846,
To what extent did the music make you feel ,FRUSTRATED,30MonoWAV/30MonoH1.wav,2,2,1,5,,,,,0,12,12,4,0,0,0,3,,,4,3.802951674006181,5,1.6678831949975574,5,1.4519118609896395,1,1.327341541997157,,,023,001,2019_May_13_1413,MusicAffectPsychophysiology2019,3.0.5,59.94011359630846,
To what extent did the music make you feel ,ANXIOUS ,30MonoWAV/30MonoH1.wav,2,2,1,5,,,,,0,12,12,4,0,1,1,1,,,,,,,,,1,0.784131720996811,,,023,001,2019_May_13_1413,MusicAffectPsychophysiology2019,3.0.5,59.94011359630846,
To what extent did the music make you feel ,ALERT,30MonoWAV/30MonoH1.wav,2,2,1,5,,,,,0,12,12,4,0,2,2,8,,,,,,,,,3,1.9354860510065919,,,023,001,2019_May_13_1413,MusicAffectPsychophysiology2019,3.0.5,59.94011359630846,
To what extent did the music make you feel ,TENDER,30MonoWAV/30MonoH1.wav,2,2,1,5,,,,,0,12,12,4,0,3,3,10,,,,,,,,,2,1.6859876609960338,,,023,001,2019_May_13_1413,MusicAffectPsychophysiology2019,3.0.5,59.94011359630846,
To what extent did the music make you feel ,ANGRY,30MonoWAV/30MonoH1.wav,2,2,1,5,,,,,0,12,12,4,0,4,4,2,,,,,,,,,1,0.7677372210018802,,,023,001,2019_May_13_1413,MusicAffectPsychophysiology2019,3.0.5,59.94011359630846,
To what extent did the music make you feel ,ACTIVE,30MonoWAV/30MonoH1.wav,2,2,1,5,,,,,0,12,12,4,0,5,5,9,,,,,,,,,4,1.6676053319970379,,,023,001,2019_May_13_1413,MusicAffectPsychophysiology2019,3.0.5,59.94011359630846,
To what extent did the music make you feel ,ASHAMED,30MonoWAV/30MonoH1.wav,2,2,1,5,,,,,0,12,12,4,0,6,6,4,,,,,,,,,1,1.8857287760038162,,,023,001,2019_May_13_1413,MusicAffectPsychophysiology2019,3.0.5,59.94011359630846,
To what extent did the music make you feel ,HAPPY,30MonoWAV/30MonoH1.wav,2,2,1,5,,,,,0,12,12,4,0,7,7,6,,,,,,,,,5,2.3513027599983616,,,023,001,2019_May_13_1413,MusicAffectPsychophysiology2019,3.0.5,59.94011359630846,
To what extent did the music make you feel ,GUILTY,30MonoWAV/30MonoH1.wav,2,2,1,5,,,,,0,12,12,4,0,8,8,5,,,,,,,,,1,0.9183877250034129,,,023,001,2019_May_13_1413,MusicAffectPsychophysiology2019,3.0.5,59.94011359630846,
To what extent did the music make you feel ,EXCITED,30MonoWAV/30MonoH1.wav,2,2,1,5,,,,,0,12,12,4,0,9,9,7,,,,,,,,,4,1.6352028569963295,,,023,001,2019_May_13_1413,MusicAffectPsychophysiology2019,3.0.5,59.94011359630846,
To what extent did the music make you feel ,SAD,30MonoWAV/30MonoH1.wav,2,2,1,5,,,,,0,12,12,4,0,10,10,0,,,,,,,,,1,0.7020399129978614,,,023,001,2019_May_13_1413,MusicAffectPsychophysiology2019,3.0.5,59.94011359630846,
To what extent did the music make you feel ,SCARED,30MonoWAV/30MonoH1.wav,2,2,1,5,,,,,0,12,12,4,0,11,11,11,,,,,,,,,1,1.1680902380030602,,,023,001,2019_May_13_1413,MusicAffectPsychophysiology2019,3.0.5,59.94011359630846,
,,30MonoWAV/30MonoH1.wav,2,2,1,5,,,,,0,12,12,4,,,,,,,,,,,,,,,,,023,001,2019_May_13_1413,MusicAffectPsychophysiology2019,3.0.5,59.94011359630846,
To what extent did the music make you feel ,GUILTY,30MonoWAV/30MonoS2.wav,1,1,3,10,,,,,0,13,13,9,0,0,0,5,,,1,3.2523060879902914,1,1.7179563699901337,2,1.5522583480051253,1,1.0686289550067158,,,023,001,2019_May_13_1413,MusicAffectPsychophysiology2019,3.0.5,59.94011359630846,
To what extent did the music make you feel ,ANXIOUS ,30MonoWAV/30MonoS2.wav,1,1,3,10,,,,,0,13,13,9,0,1,1,1,,,,,,,,,2,1.5845573550031986,,,023,001,2019_May_13_1413,MusicAffectPsychophysiology2019,3.0.5,59.94011359630846,
To what extent did the music make you feel ,EXCITED,30MonoWAV/30MonoS2.wav,1,1,3,10,,,,,0,13,13,9,0,2,2,7,,,,,,,,,1,1.035441150990664,,,023,001,2019_May_13_1413,MusicAffectPsychophysiology2019,3.0.5,59.94011359630846,
To what extent did the music make you feel ,HAPPY,30MonoWAV/30MonoS2.wav,1,1,3,10,,,,,0,13,13,9,0,3,3,6,,,,,,,,,1,1.0683557690063026,,,023,001,2019_May_13_1413,MusicAffectPsychophysiology2019,3.0.5,59.94011359630846,
To what extent did the music make you feel ,SAD,30MonoWAV/30MonoS2.wav,1,1,3,10,,,,,0,13,13,9,0,4,4,0,,,,,,,,,4,1.5173376009915955,,,023,001,2019_May_13_1413,MusicAffectPsychophysiology2019,3.0.5,59.94011359630846,
To what extent did the music make you feel ,ACTIVE,30MonoWAV/30MonoS2.wav,1,1,3,10,,,,,0,13,13,9,0,5,5,9,,,,,,,,,1,1.6861795110016828,,,023,001,2019_May_13_1413,MusicAffectPsychophysiology2019,3.0.5,59.94011359630846,
To what extent did the music make you feel ,ANGRY,30MonoWAV/30MonoS2.wav,1,1,3,10,,,,,0,13,13,9,0,6,6,2,,,,,,,,,1,1.5687007560045458,,,023,001,2019_May_13_1413,MusicAffectPsychophysiology2019,3.0.5,59.94011359630846,
To what extent did the music make you feel ,ASHAMED,30MonoWAV/30MonoS2.wav,1,1,3,10,,,,,0,13,13,9,0,7,7,4,,,,,,,,,1,1.033528818996274,,,023,001,2019_May_13_1413,MusicAffectPsychophysiology2019,3.0.5,59.94011359630846,
To what extent did the music make you feel ,TENDER,30MonoWAV/30MonoS2.wav,1,1,3,10,,,,,0,13,13,9,0,8,8,10,,,,,,,,,3,2.1017041110026184,,,023,001,2019_May_13_1413,MusicAffectPsychophysiology2019,3.0.5,59.94011359630846,
To what extent did the music make you feel ,ALERT,30MonoWAV/30MonoS2.wav,1,1,3,10,,,,,0,13,13,9,0,9,9,8,,,,,,,,,1,0.8514721280080266,,,023,001,2019_May_13_1413,MusicAffectPsychophysiology2019,3.0.5,59.94011359630846,
To what extent did the music make you feel ,SCARED,30MonoWAV/30MonoS2.wav,1,1,3,10,,,,,0,13,13,9,0,10,10,11,,,,,,,,,1,1.1026658690097975,,,023,001,2019_May_13_1413,MusicAffectPsychophysiology2019,3.0.5,59.94011359630846,
To what extent did the music make you feel ,FRUSTRATED,30MonoWAV/30MonoS2.wav,1,1,3,10,,,,,0,13,13,9,0,11,11,3,,,,,,,,,1,1.2341991090070223,,,023,001,2019_May_13_1413,MusicAffectPsychophysiology2019,3.0.5,59.94011359630846,
,,30MonoWAV/30MonoS2.wav,1,1,3,10,,,,,0,13,13,9,,,,,,,,,,,,,,,,,023,001,2019_May_13_1413,MusicAffectPsychophysiology2019,3.0.5,59.94011359630846,
To what extent did the music make you feel ,HAPPY,30MonoWAV/30MonoS1.wav,1,1,3,9,,,,,0,14,14,8,0,0,0,6,,,1,3.1360020360007184,1,2.2513651329936692,2,1.8008363429980818,1,1.1014242280070903,,,023,001,2019_May_13_1413,MusicAffectPsychophysiology2019,3.0.5,59.94011359630846,
To what extent did the music make you feel ,EXCITED,30MonoWAV/30MonoS1.wav,1,1,3,9,,,,,0,14,14,8,0,1,1,7,,,,,,,,,1,0.9017734060034854,,,023,001,2019_May_13_1413,MusicAffectPsychophysiology2019,3.0.5,59.94011359630846,
To what extent did the music make you feel ,SAD,30MonoWAV/30MonoS1.wav,1,1,3,9,,,,,0,14,14,8,0,2,2,0,,,,,,,,,4,2.6349192740017315,,,023,001,2019_May_13_1413,MusicAffectPsychophysiology2019,3.0.5,59.94011359630846,
To what extent did the music make you feel ,TENDER,30MonoWAV/30MonoS1.wav,1,1,3,9,,,,,0,14,14,8,0,3,3,10,,,,,,,,,3,1.4327658230031375,,,023,001,2019_May_13_1413,MusicAffectPsychophysiology2019,3.0.5,59.94011359630846,
To what extent did the music make you feel ,ANXIOUS ,30MonoWAV/30MonoS1.wav,1,1,3,9,,,,,0,14,14,8,0,4,4,1,,,,,,,,,3,1.086356940009864,,,023,001,2019_May_13_1413,MusicAffectPsychophysiology2019,3.0.5,59.94011359630846,
To what extent did the music make you feel ,SCARED,30MonoWAV/30MonoS1.wav,1,1,3,9,,,,,0,14,14,8,0,5,5,11,,,,,,,,,1,1.1844730820012046,,,023,001,2019_May_13_1413,MusicAffectPsychophysiology2019,3.0.5,59.94011359630846,
To what extent did the music make you feel ,ASHAMED,30MonoWAV/30MonoS1.wav,1,1,3,9,,,,,0,14,14,8,0,6,6,4,,,,,,,,,1,0.9853588510013651,,,023,001,2019_May_13_1413,MusicAffectPsychophysiology2019,3.0.5,59.94011359630846,
To what extent did the music make you feel ,ALERT,30MonoWAV/30MonoS1.wav,1,1,3,9,,,,,0,14,14,8,0,7,7,8,,,,,,,,,2,1.6167386020097183,,,023,001,2019_May_13_1413,MusicAffectPsychophysiology2019,3.0.5,59.94011359630846,
To what extent did the music make you feel ,ANGRY,30MonoWAV/30MonoS1.wav,1,1,3,9,,,,,0,14,14,8,0,8,8,2,,,,,,,,,1,0.6348177030013176,,,023,001,2019_May_13_1413,MusicAffectPsychophysiology2019,3.0.5,59.94011359630846,
To what extent did the music make you feel ,GUILTY,30MonoWAV/30MonoS1.wav,1,1,3,9,,,,,0,14,14,8,0,9,9,5,,,,,,,,,2,1.5189496599923586,,,023,001,2019_May_13_1413,MusicAffectPsychophysiology2019,3.0.5,59.94011359630846,
To what extent did the music make you feel ,ACTIVE,30MonoWAV/30MonoS1.wav,1,1,3,9,,,,,0,14,14,8,0,10,10,9,,,,,,,,,1,1.267890935007017,,,023,001,2019_May_13_1413,MusicAffectPsychophysiology2019,3.0.5,59.94011359630846,
To what extent did the music make you feel ,FRUSTRATED,30MonoWAV/30MonoS1.wav,1,1,3,9,,,,,0,14,14,8,0,11,11,3,,,,,,,,,1,2.2844677469984163,,,023,001,2019_May_13_1413,MusicAffectPsychophysiology2019,3.0.5,59.94011359630846,
,,30MonoWAV/30MonoS1.wav,1,1,3,9,,,,,0,14,14,8,,,,,,,,,,,,,,,,,023,001,2019_May_13_1413,MusicAffectPsychophysiology2019,3.0.5,59.94011359630846,
To what extent did the music make you feel ,GUILTY,30MonoWAV/30MonoF2.wav,1,2,2,2,,,,,0,15,15,1,0,0,0,5,,,1,2.7015217620064504,1,1.2347288239980116,1,1.2681019300071057,1,1.3525695589923998,,,023,001,2019_May_13_1413,MusicAffectPsychophysiology2019,3.0.5,59.94011359630846,
To what extent did the music make you feel ,ALERT,30MonoWAV/30MonoF2.wav,1,2,2,2,,,,,0,15,15,1,0,1,1,8,,,,,,,,,3,1.9180997859948548,,,023,001,2019_May_13_1413,MusicAffectPsychophysiology2019,3.0.5,59.94011359630846,
To what extent did the music make you feel ,FRUSTRATED,30MonoWAV/30MonoF2.wav,1,2,2,2,,,,,0,15,15,1,0,2,2,3,,,,,,,,,2,1.6687165689945687,,,023,001,2019_May_13_1413,MusicAffectPsychophysiology2019,3.0.5,59.94011359630846,
To what extent did the music make you feel ,SCARED,30MonoWAV/30MonoF2.wav,1,2,2,2,,,,,0,15,15,1,0,3,3,11,,,,,,,,,4,1.5009750130120665,,,023,001,2019_May_13_1413,MusicAffectPsychophysiology2019,3.0.5,59.94011359630846,
To what extent did the music make you feel ,SAD,30MonoWAV/30MonoF2.wav,1,2,2,2,,,,,0,15,15,1,0,4,4,0,,,,,,,,,1,1.4827593070076546,,,023,001,2019_May_13_1413,MusicAffectPsychophysiology2019,3.0.5,59.94011359630846,
To what extent did the music make you feel ,EXCITED,30MonoWAV/30MonoF2.wav,1,2,2,2,,,,,0,15,15,1,0,5,5,7,,,,,,,,,1,1.8018397980049485,,,023,001,2019_May_13_1413,MusicAffectPsychophysiology2019,3.0.5,59.94011359630846,
To what extent did the music make you feel ,ASHAMED,30MonoWAV/30MonoF2.wav,1,2,2,2,,,,,0,15,15,1,0,6,6,4,,,,,,,,,1,0.7682548479933757,,,023,001,2019_May_13_1413,MusicAffectPsychophysiology2019,3.0.5,59.94011359630846,
To what extent did the music make you feel ,HAPPY,30MonoWAV/30MonoF2.wav,1,2,2,2,,,,,0,15,15,1,0,7,7,6,,,,,,,,,1,0.7360239159897901,,,023,001,2019_May_13_1413,MusicAffectPsychophysiology2019,3.0.5,59.94011359630846,
To what extent did the music make you feel ,ACTIVE,30MonoWAV/30MonoF2.wav,1,2,2,2,,,,,0,15,15,1,0,8,8,9,,,,,,,,,3,1.3347987450106302,,,023,001,2019_May_13_1413,MusicAffectPsychophysiology2019,3.0.5,59.94011359630846,
To what extent did the music make you feel ,ANGRY,30MonoWAV/30MonoF2.wav,1,2,2,2,,,,,0,15,15,1,0,9,9,2,,,,,,,,,1,1.9681538069999078,,,023,001,2019_May_13_1413,MusicAffectPsychophysiology2019,3.0.5,59.94011359630846,
To what extent did the music make you feel ,ANXIOUS ,30MonoWAV/30MonoF2.wav,1,2,2,2,,,,,0,15,15,1,0,10,10,1,,,,,,,,,4,1.868386191999889,,,023,001,2019_May_13_1413,MusicAffectPsychophysiology2019,3.0.5,59.94011359630846,
To what extent did the music make you feel ,TENDER,30MonoWAV/30MonoF2.wav,1,2,2,2,,,,,0,15,15,1,0,11,11,10,,,,,,,,,1,1.085293850992457,,,023,001,2019_May_13_1413,MusicAffectPsychophysiology2019,3.0.5,59.94011359630846,
,,30MonoWAV/30MonoF2.wav,1,2,2,2,,,,,0,15,15,1,,,,,,,,,,,,,,,,,023,001,2019_May_13_1413,MusicAffectPsychophysiology2019,3.0.5,59.94011359630846,
To what extent did the music make you feel ,FRUSTRATED,30MonoWAV/30MonoT2.wav,2,1,4,14,,,,,1,0,16,13,0,0,0,3,,,2,4.817955713006086,1,1.7344598980125738,3,2.0838618879934074,1,0.983576604994596,,,023,001,2019_May_13_1413,MusicAffectPsychophysiology2019,3.0.5,59.94011359630846,
To what extent did the music make you feel ,TENDER,30MonoWAV/30MonoT2.wav,2,1,4,14,,,,,1,0,16,13,0,1,1,10,,,,,,,,,4,1.3843761080061086,,,023,001,2019_May_13_1413,MusicAffectPsychophysiology2019,3.0.5,59.94011359630846,
To what extent did the music make you feel ,EXCITED,30MonoWAV/30MonoT2.wav,2,1,4,14,,,,,1,0,16,13,0,2,2,7,,,,,,,,,1,1.5028218420047779,,,023,001,2019_May_13_1413,MusicAffectPsychophysiology2019,3.0.5,59.94011359630846,
To what extent did the music make you feel ,ANXIOUS ,30MonoWAV/30MonoT2.wav,2,1,4,14,,,,,1,0,16,13,0,3,3,1,,,,,,,,,2,3.734613945998717,,,023,001,2019_May_13_1413,MusicAffectPsychophysiology2019,3.0.5,59.94011359630846,
To what extent did the music make you feel ,ANGRY,30MonoWAV/30MonoT2.wav,2,1,4,14,,,,,1,0,16,13,0,4,4,2,,,,,,,,,1,1.0024651800049469,,,023,001,2019_May_13_1413,MusicAffectPsychophysiology2019,3.0.5,59.94011359630846,
To what extent did the music make you feel ,GUILTY,30MonoWAV/30MonoT2.wav,2,1,4,14,,,,,1,0,16,13,0,5,5,5,,,,,,,,,1,0.7186157230025856,,,023,001,2019_May_13_1413,MusicAffectPsychophysiology2019,3.0.5,59.94011359630846,
To what extent did the music make you feel ,ACTIVE,30MonoWAV/30MonoT2.wav,2,1,4,14,,,,,1,0,16,13,0,6,6,9,,,,,,,,,1,0.7024088410107652,,,023,001,2019_May_13_1413,MusicAffectPsychophysiology2019,3.0.5,59.94011359630846,
To what extent did the music make you feel ,SAD,30MonoWAV/30MonoT2.wav,2,1,4,14,,,,,1,0,16,13,0,7,7,0,,,,,,,,,3,2.417504224998993,,,023,001,2019_May_13_1413,MusicAffectPsychophysiology2019,3.0.5,59.94011359630846,
To what extent did the music make you feel ,SCARED,30MonoWAV/30MonoT2.wav,2,1,4,14,,,,,1,0,16,13,0,8,8,11,,,,,,,,,1,1.5350871729897335,,,023,001,2019_May_13_1413,MusicAffectPsychophysiology2019,3.0.5,59.94011359630846,
To what extent did the music make you feel ,HAPPY,30MonoWAV/30MonoT2.wav,2,1,4,14,,,,,1,0,16,13,0,9,9,6,,,,,,,,,2,3.0353319349960657,,,023,001,2019_May_13_1413,MusicAffectPsychophysiology2019,3.0.5,59.94011359630846,
To what extent did the music make you feel ,ALERT,30MonoWAV/30MonoT2.wav,2,1,4,14,,,,,1,0,16,13,0,10,10,8,,,,,,,,,1,1.8506773580011213,,,023,001,2019_May_13_1413,MusicAffectPsychophysiology2019,3.0.5,59.94011359630846,
To what extent did the music make you feel ,ASHAMED,30MonoWAV/30MonoT2.wav,2,1,4,14,,,,,1,0,16,13,0,11,11,4,,,,,,,,,1,0.6678187109937426,,,023,001,2019_May_13_1413,MusicAffectPsychophysiology2019,3.0.5,59.94011359630846,
,,30MonoWAV/30MonoT2.wav,2,1,4,14,,,,,1,0,16,13,,,,,,,,,,,,,,,,,023,001,2019_May_13_1413,MusicAffectPsychophysiology2019,3.0.5,59.94011359630846,
To what extent did the music make you feel ,HAPPY,30MonoWAV/30MonoF4.wav,1,2,2,4,,,,,1,1,17,3,0,0,0,6,,,4,3.432652130999486,3,1.734919512993656,2,1.3853096960083349,2,4.251965980001842,,,023,001,2019_May_13_1413,MusicAffectPsychophysiology2019,3.0.5,59.94011359630846,
To what extent did the music make you feel ,SAD,30MonoWAV/30MonoF4.wav,1,2,2,4,,,,,1,1,17,3,0,1,1,0,,,,,,,,,3,4.767736967012752,,,023,001,2019_May_13_1413,MusicAffectPsychophysiology2019,3.0.5,59.94011359630846,
To what extent did the music make you feel ,ANXIOUS ,30MonoWAV/30MonoF4.wav,1,2,2,4,,,,,1,1,17,3,0,2,2,1,,,,,,,,,3,1.2522354679967975,,,023,001,2019_May_13_1413,MusicAffectPsychophysiology2019,3.0.5,59.94011359630846,
To what extent did the music make you feel ,ASHAMED,30MonoWAV/30MonoF4.wav,1,2,2,4,,,,,1,1,17,3,0,3,3,4,,,,,,,,,1,1.851347090996569,,,023,001,2019_May_13_1413,MusicAffectPsychophysiology2019,3.0.5,59.94011359630846,
To what extent did the music make you feel ,ACTIVE,30MonoWAV/30MonoF4.wav,1,2,2,4,,,,,1,1,17,3,0,4,4,9,,,,,,,,,4,1.5016760170110501,,,023,001,2019_May_13_1413,MusicAffectPsychophysiology2019,3.0.5,59.94011359630846,
To what extent did the music make you feel ,TENDER,30MonoWAV/30MonoF4.wav,1,2,2,4,,,,,1,1,17,3,0,5,5,10,,,,,,,,,1,1.6178384240047308,,,023,001,2019_May_13_1413,MusicAffectPsychophysiology2019,3.0.5,59.94011359630846,
To what extent did the music make you feel ,ALERT,30MonoWAV/30MonoF4.wav,1,2,2,4,,,,,1,1,17,3,0,6,6,8,,,,,,,,,4,1.7686039219988743,,,023,001,2019_May_13_1413,MusicAffectPsychophysiology2019,3.0.5,59.94011359630846,
To what extent did the music make you feel ,EXCITED,30MonoWAV/30MonoF4.wav,1,2,2,4,,,,,1,1,17,3,0,7,7,7,,,,,,,,,2,1.8355037580040516,,,023,001,2019_May_13_1413,MusicAffectPsychophysiology2019,3.0.5,59.94011359630846,
To what extent did the music make you feel ,GUILTY,30MonoWAV/30MonoF4.wav,1,2,2,4,,,,,1,1,17,3,0,8,8,5,,,,,,,,,1,0.934444323007483,,,023,001,2019_May_13_1413,MusicAffectPsychophysiology2019,3.0.5,59.94011359630846,
To what extent did the music make you feel ,FRUSTRATED,30MonoWAV/30MonoF4.wav,1,2,2,4,,,,,1,1,17,3,0,9,9,3,,,,,,,,,1,0.7856479990005028,,,023,001,2019_May_13_1413,MusicAffectPsychophysiology2019,3.0.5,59.94011359630846,
To what extent did the music make you feel ,SCARED,30MonoWAV/30MonoF4.wav,1,2,2,4,,,,,1,1,17,3,0,10,10,11,,,,,,,,,1,0.7674656480085105,,,023,001,2019_May_13_1413,MusicAffectPsychophysiology2019,3.0.5,59.94011359630846,
To what extent did the music make you feel ,ANGRY,30MonoWAV/30MonoF4.wav,1,2,2,4,,,,,1,1,17,3,0,11,11,2,,,,,,,,,2,3.9668733139988035,,,023,001,2019_May_13_1413,MusicAffectPsychophysiology2019,3.0.5,59.94011359630846,
,,30MonoWAV/30MonoF4.wav,1,2,2,4,,,,,1,1,17,3,,,,,,,,,,,,,,,,,023,001,2019_May_13_1413,MusicAffectPsychophysiology2019,3.0.5,59.94011359630846,
To what extent did the music make you feel ,ANGRY,30MonoWAV/30MonoT4.wav,2,1,4,16,,,,,1,2,18,15,0,0,0,2,,,2,2.735095639989595,3,2.66796830399835,3,2.35110248500132,1,1.534741186987958,,,023,001,2019_May_13_1413,MusicAffectPsychophysiology2019,3.0.5,59.94011359630846,
To what extent did the music make you feel ,ASHAMED,30MonoWAV/30MonoT4.wav,2,1,4,16,,,,,1,2,18,15,0,1,1,4,,,,,,,,,1,0.6520953770086635,,,023,001,2019_May_13_1413,MusicAffectPsychophysiology2019,3.0.5,59.94011359630846,
To what extent did the music make you feel ,HAPPY,30MonoWAV/30MonoT4.wav,2,1,4,16,,,,,1,2,18,15,0,2,2,6,,,,,,,,,3,1.8681352929997956,,,023,001,2019_May_13_1413,MusicAffectPsychophysiology2019,3.0.5,59.94011359630846,
To what extent did the music make you feel ,GUILTY,30MonoWAV/30MonoT4.wav,2,1,4,16,,,,,1,2,18,15,0,3,3,5,,,,,,,,,1,1.0166281819983851,,,023,001,2019_May_13_1413,MusicAffectPsychophysiology2019,3.0.5,59.94011359630846,
To what extent did the music make you feel ,ANXIOUS ,30MonoWAV/30MonoT4.wav,2,1,4,16,,,,,1,2,18,15,0,4,4,1,,,,,,,,,1,0.9862683989922516,,,023,001,2019_May_13_1413,MusicAffectPsychophysiology2019,3.0.5,59.94011359630846,
To what extent did the music make you feel ,SAD,30MonoWAV/30MonoT4.wav,2,1,4,16,,,,,1,2,18,15,0,5,5,0,,,,,,,,,3,1.3018964389921166,,,023,001,2019_May_13_1413,MusicAffectPsychophysiology2019,3.0.5,59.94011359630846,
To what extent did the music make you feel ,ACTIVE,30MonoWAV/30MonoT4.wav,2,1,4,16,,,,,1,2,18,15,0,6,6,9,,,,,,,,,1,0.734034186010831,,,023,001,2019_May_13_1413,MusicAffectPsychophysiology2019,3.0.5,59.94011359630846,
To what extent did the music make you feel ,FRUSTRATED,30MonoWAV/30MonoT4.wav,2,1,4,16,,,,,1,2,18,15,0,7,7,3,,,,,,,,,1,0.9185493219993077,,,023,001,2019_May_13_1413,MusicAffectPsychophysiology2019,3.0.5,59.94011359630846,
To what extent did the music make you feel ,SCARED,30MonoWAV/30MonoT4.wav,2,1,4,16,,,,,1,2,18,15,0,8,8,11,,,,,,,,,1,0.7527286399999866,,,023,001,2019_May_13_1413,MusicAffectPsychophysiology2019,3.0.5,59.94011359630846,
To what extent did the music make you feel ,ALERT,30MonoWAV/30MonoT4.wav,2,1,4,16,,,,,1,2,18,15,0,9,9,8,,,,,,,,,2,2.151799603991094,,,023,001,2019_May_13_1413,MusicAffectPsychophysiology2019,3.0.5,59.94011359630846,
To what extent did the music make you feel ,EXCITED,30MonoWAV/30MonoT4.wav,2,1,4,16,,,,,1,2,18,15,0,10,10,7,,,,,,,,,2,1.3845293580088764,,,023,001,2019_May_13_1413,MusicAffectPsychophysiology2019,3.0.5,59.94011359630846,
To what extent did the music make you feel ,TENDER,30MonoWAV/30MonoT4.wav,2,1,4,16,,,,,1,2,18,15,0,11,11,10,,,,,,,,,4,1.6851175310002873,,,023,001,2019_May_13_1413,MusicAffectPsychophysiology2019,3.0.5,59.94011359630846,
,,30MonoWAV/30MonoT4.wav,2,1,4,16,,,,,1,2,18,15,,,,,,,,,,,,,,,,,023,001,2019_May_13_1413,MusicAffectPsychophysiology2019,3.0.5,59.94011359630846,
To what extent did the music make you feel ,EXCITED,30MonoWAV/30MonoS2.wav,1,1,3,10,,,,,1,3,19,9,0,0,0,7,,,2,4.118831800995395,2,4.217816506003146,1,3.3514193419978255,1,1.4668396020133514,,,023,001,2019_May_13_1413,MusicAffectPsychophysiology2019,3.0.5,59.94011359630846,
To what extent did the music make you feel ,ACTIVE,30MonoWAV/30MonoS2.wav,1,1,3,10,,,,,1,3,19,9,0,1,1,9,,,,,,,,,1,1.802549640997313,,,023,001,2019_May_13_1413,MusicAffectPsychophysiology2019,3.0.5,59.94011359630846,
To what extent did the music make you feel ,SCARED,30MonoWAV/30MonoS2.wav,1,1,3,10,,,,,1,3,19,9,0,2,2,11,,,,,,,,,1,1.5352522380126175,,,023,001,2019_May_13_1413,MusicAffectPsychophysiology2019,3.0.5,59.94011359630846,
To what extent did the music make you feel ,HAPPY,30MonoWAV/30MonoS2.wav,1,1,3,10,,,,,1,3,19,9,0,3,3,6,,,,,,,,,1,0.7336826379905688,,,023,001,2019_May_13_1413,MusicAffectPsychophysiology2019,3.0.5,59.94011359630846,
To what extent did the music make you feel ,TENDER,30MonoWAV/30MonoS2.wav,1,1,3,10,,,,,1,3,19,9,0,4,4,10,,,,,,,,,3,1.6843603440065635,,,023,001,2019_May_13_1413,MusicAffectPsychophysiology2019,3.0.5,59.94011359630846,
To what extent did the music make you feel ,ALERT,30MonoWAV/30MonoS2.wav,1,1,3,10,,,,,1,3,19,9,0,5,5,8,,,,,,,,,1,1.8848435300023993,,,023,001,2019_May_13_1413,MusicAffectPsychophysiology2019,3.0.5,59.94011359630846,
To what extent did the music make you feel ,FRUSTRATED,30MonoWAV/30MonoS2.wav,1,1,3,10,,,,,1,3,19,9,0,6,6,3,,,,,,,,,1,2.534951795998495,,,023,001,2019_May_13_1413,MusicAffectPsychophysiology2019,3.0.5,59.94011359630846,
To what extent did the music make you feel ,SAD,30MonoWAV/30MonoS2.wav,1,1,3,10,,,,,1,3,19,9,0,7,7,0,,,,,,,,,5,1.5850026870029978,,,023,001,2019_May_13_1413,MusicAffectPsychophysiology2019,3.0.5,59.94011359630846,
To what extent did the music make you feel ,GUILTY,30MonoWAV/30MonoS2.wav,1,1,3,10,,,,,1,3,19,9,0,8,8,5,,,,,,,,,2,2.1678370860026916,,,023,001,2019_May_13_1413,MusicAffectPsychophysiology2019,3.0.5,59.94011359630846,
To what extent did the music make you feel ,ANGRY,30MonoWAV/30MonoS2.wav,1,1,3,10,,,,,1,3,19,9,0,9,9,2,,,,,,,,,1,0.784203482005978,,,023,001,2019_May_13_1413,MusicAffectPsychophysiology2019,3.0.5,59.94011359630846,
To what extent did the music make you feel ,ANXIOUS ,30MonoWAV/30MonoS2.wav,1,1,3,10,,,,,1,3,19,9,0,10,10,1,,,,,,,,,2,1.2510947400005534,,,023,001,2019_May_13_1413,MusicAffectPsychophysiology2019,3.0.5,59.94011359630846,
To what extent did the music make you feel ,ASHAMED,30MonoWAV/30MonoS2.wav,1,1,3,10,,,,,1,3,19,9,0,11,11,4,,,,,,,,,1,0.7184268909913953,,,023,001,2019_May_13_1413,MusicAffectPsychophysiology2019,3.0.5,59.94011359630846,
,,30MonoWAV/30MonoS2.wav,1,1,3,10,,,,,1,3,19,9,,,,,,,,,,,,,,,,,023,001,2019_May_13_1413,MusicAffectPsychophysiology2019,3.0.5,59.94011359630846,
To what extent did the music make you feel ,HAPPY,30MonoWAV/30MonoH4.wav,2,2,1,8,,,,,1,4,20,7,0,0,0,6,,,4,3.1226952580036595,4,0.886654873000225,4,2.22264535400609,5,1.4352552750060568,,,023,001,2019_May_13_1413,MusicAffectPsychophysiology2019,3.0.5,59.94011359630846,
To what extent did the music make you feel ,ASHAMED,30MonoWAV/30MonoH4.wav,2,2,1,8,,,,,1,4,20,7,0,1,1,4,,,,,,,,,1,1.2659887870104285,,,023,001,2019_May_13_1413,MusicAffectPsychophysiology2019,3.0.5,59.94011359630846,
To what extent did the music make you feel ,EXCITED,30MonoWAV/30MonoH4.wav,2,2,1,8,,,,,1,4,20,7,0,2,2,7,,,,,,,,,4,1.4185634860041318,,,023,001,2019_May_13_1413,MusicAffectPsychophysiology2019,3.0.5,59.94011359630846,
To what extent did the music make you feel ,FRUSTRATED,30MonoWAV/30MonoH4.wav,2,2,1,8,,,,,1,4,20,7,0,3,3,3,,,,,,,,,1,1.0847563959978288,,,023,001,2019_May_13_1413,MusicAffectPsychophysiology2019,3.0.5,59.94011359630846,
To what extent did the music make you feel ,SCARED,30MonoWAV/30MonoH4.wav,2,2,1,8,,,,,1,4,20,7,0,4,4,11,,,,,,,,,1,0.8350179440021748,,,023,001,2019_May_13_1413,MusicAffectPsychophysiology2019,3.0.5,59.94011359630846,
To what extent did the music make you feel ,ALERT,30MonoWAV/30MonoH4.wav,2,2,1,8,,,,,1,4,20,7,0,5,5,8,,,,,,,,,4,1.416670727005112,,,023,001,2019_May_13_1413,MusicAffectPsychophysiology2019,3.0.5,59.94011359630846,
To what extent did the music make you feel ,SAD,30MonoWAV/30MonoH4.wav,2,2,1,8,,,,,1,4,20,7,0,6,6,0,,,,,,,,,1,0.8178285169997253,,,023,001,2019_May_13_1413,MusicAffectPsychophysiology2019,3.0.5,59.94011359630846,
To what extent did the music make you feel ,ANGRY,30MonoWAV/30MonoH4.wav,2,2,1,8,,,,,1,4,20,7,0,7,7,2,,,,,,,,,1,1.385276558008627,,,023,001,2019_May_13_1413,MusicAffectPsychophysiology2019,3.0.5,59.94011359630846,
To what extent did the music make you feel ,GUILTY,30MonoWAV/30MonoH4.wav,2,2,1,8,,,,,1,4,20,7,0,8,8,5,,,,,,,,,1,1.5188853410072625,,,023,001,2019_May_13_1413,MusicAffectPsychophysiology2019,3.0.5,59.94011359630846,
To what extent did the music make you feel ,TENDER,30MonoWAV/30MonoH4.wav,2,2,1,8,,,,,1,4,20,7,0,9,9,10,,,,,,,,,2,1.8017059459962184,,,023,001,2019_May_13_1413,MusicAffectPsychophysiology2019,3.0.5,59.94011359630846,
To what extent did the music make you feel ,ANXIOUS ,30MonoWAV/30MonoH4.wav,2,2,1,8,,,,,1,4,20,7,0,10,10,1,,,,,,,,,1,0.8671288059995277,,,023,001,2019_May_13_1413,MusicAffectPsychophysiology2019,3.0.5,59.94011359630846,
To what extent did the music make you feel ,ACTIVE,30MonoWAV/30MonoH4.wav,2,2,1,8,,,,,1,4,20,7,0,11,11,9,,,,,,,,,4,1.336949229997117,,,023,001,2019_May_13_1413,MusicAffectPsychophysiology2019,3.0.5,59.94011359630846,
,,30MonoWAV/30MonoH4.wav,2,2,1,8,,,,,1,4,20,7,,,,,,,,,,,,,,,,,023,001,2019_May_13_1413,MusicAffectPsychophysiology2019,3.0.5,59.94011359630846,
To what extent did the music make you feel ,GUILTY,30MonoWAV/30MonoS3.wav,1,1,3,11,,,,,1,5,21,10,0,0,0,5,,,1,2.6016160330036655,1,1.4680584430025192,2,1.3014071279903874,1,1.2668811510084197,,,023,001,2019_May_13_1413,MusicAffectPsychophysiology2019,3.0.5,59.94011359630846,
To what extent did the music make you feel ,SAD,30MonoWAV/30MonoS3.wav,1,1,3,11,,,,,1,5,21,10,0,1,1,0,,,,,,,,,4,3.335310844995547,,,023,001,2019_May_13_1413,MusicAffectPsychophysiology2019,3.0.5,59.94011359630846,
To what extent did the music make you feel ,EXCITED,30MonoWAV/30MonoS3.wav,1,1,3,11,,,,,1,5,21,10,0,2,2,7,,,,,,,,,1,1.0000343550054822,,,023,001,2019_May_13_1413,MusicAffectPsychophysiology2019,3.0.5,59.94011359630846,
To what extent did the music make you feel ,ANGRY,30MonoWAV/30MonoS3.wav,1,1,3,11,,,,,1,5,21,10,0,3,3,2,,,,,,,,,1,0.8511449200013885,,,023,001,2019_May_13_1413,MusicAffectPsychophysiology2019,3.0.5,59.94011359630846,
To what extent did the music make you feel ,ACTIVE,30MonoWAV/30MonoS3.wav,1,1,3,11,,,,,1,5,21,10,0,4,4,9,,,,,,,,,2,1.5686347740120254,,,023,001,2019_May_13_1413,MusicAffectPsychophysiology2019,3.0.5,59.94011359630846,
To what extent did the music make you feel ,SCARED,30MonoWAV/30MonoS3.wav,1,1,3,11,,,,,1,5,21,10,0,5,5,11,,,,,,,,,1,1.7188252350024413,,,023,001,2019_May_13_1413,MusicAffectPsychophysiology2019,3.0.5,59.94011359630846,
To what extent did the music make you feel ,HAPPY,30MonoWAV/30MonoS3.wav,1,1,3,11,,,,,1,5,21,10,0,6,6,6,,,,,,,,,1,0.9191103979974287,,,023,001,2019_May_13_1413,MusicAffectPsychophysiology2019,3.0.5,59.94011359630846,
To what extent did the music make you feel ,ALERT,30MonoWAV/30MonoS3.wav,1,1,3,11,,,,,1,5,21,10,0,7,7,8,,,,,,,,,3,1.7677613099949667,,,023,001,2019_May_13_1413,MusicAffectPsychophysiology2019,3.0.5,59.94011359630846,
To what extent did the music make you feel ,ASHAMED,30MonoWAV/30MonoS3.wav,1,1,3,11,,,,,1,5,21,10,0,8,8,4,,,,,,,,,1,1.1353318280016538,,,023,001,2019_May_13_1413,MusicAffectPsychophysiology2019,3.0.5,59.94011359630846,
To what extent did the music make you feel ,ANXIOUS ,30MonoWAV/30MonoS3.wav,1,1,3,11,,,,,1,5,21,10,0,9,9,1,,,,,,,,,3,1.21699144601007,,,023,001,2019_May_13_1413,MusicAffectPsychophysiology2019,3.0.5,59.94011359630846,
To what extent did the music make you feel ,FRUSTRATED,30MonoWAV/30MonoS3.wav,1,1,3,11,,,,,1,5,21,10,0,10,10,3,,,,,,,,,1,0.9363064560020575,,,023,001,2019_May_13_1413,MusicAffectPsychophysiology2019,3.0.5,59.94011359630846,
To what extent did the music make you feel ,TENDER,30MonoWAV/30MonoS3.wav,1,1,3,11,,,,,1,5,21,10,0,11,11,10,,,,,,,,,3,2.333524094996392,,,023,001,2019_May_13_1413,MusicAffectPsychophysiology2019,3.0.5,59.94011359630846,
,,30MonoWAV/30MonoS3.wav,1,1,3,11,,,,,1,5,21,10,,,,,,,,,,,,,,,,,023,001,2019_May_13_1413,MusicAffectPsychophysiology2019,3.0.5,59.94011359630846,
To what extent did the music make you feel ,SCARED,30MonoWAV/30MonoF2.wav,1,2,2,2,,,,,1,6,22,1,0,0,0,11,,,1,2.9703956180019304,1,1.1369859139958862,1,0.9859964590141317,4,3.2878096630010987,,,023,001,2019_May_13_1413,MusicAffectPsychophysiology2019,3.0.5,59.94011359630846,
To what extent did the music make you feel ,ALERT,30MonoWAV/30MonoF2.wav,1,2,2,2,,,,,1,6,22,1,0,1,1,8,,,,,,,,,4,1.0195959960110486,,,023,001,2019_May_13_1413,MusicAffectPsychophysiology2019,3.0.5,59.94011359630846,
To what extent did the music make you feel ,ANXIOUS ,30MonoWAV/30MonoF2.wav,1,2,2,2,,,,,1,6,22,1,0,2,2,1,,,,,,,,,4,0.8690470339934109,,,023,001,2019_May_13_1413,MusicAffectPsychophysiology2019,3.0.5,59.94011359630846,
To what extent did the music make you feel ,SAD,30MonoWAV/30MonoF2.wav,1,2,2,2,,,,,1,6,22,1,0,3,3,0,,,,,,,,,2,3.784724043987808,,,023,001,2019_May_13_1413,MusicAffectPsychophysiology2019,3.0.5,59.94011359630846,
To what extent did the music make you feel ,EXCITED,30MonoWAV/30MonoF2.wav,1,2,2,2,,,,,1,6,22,1,0,4,4,7,,,,,,,,,1,0.6693383880046895,,,023,001,2019_May_13_1413,MusicAffectPsychophysiology2019,3.0.5,59.94011359630846,
To what extent did the music make you feel ,GUILTY,30MonoWAV/30MonoF2.wav,1,2,2,2,,,,,1,6,22,1,0,5,5,5,,,,,,,,,1,1.6026238379999995,,,023,001,2019_May_13_1413,MusicAffectPsychophysiology2019,3.0.5,59.94011359630846,
To what extent did the music make you feel ,ANGRY,30MonoWAV/30MonoF2.wav,1,2,2,2,,,,,1,6,22,1,0,6,6,2,,,,,,,,,1,1.0852813310048077,,,023,001,2019_May_13_1413,MusicAffectPsychophysiology2019,3.0.5,59.94011359630846,
To what extent did the music make you feel ,ACTIVE,30MonoWAV/30MonoF2.wav,1,2,2,2,,,,,1,6,22,1,0,7,7,9,,,,,,,,,3,2.1177669689932372,,,023,001,2019_May_13_1413,MusicAffectPsychophysiology2019,3.0.5,59.94011359630846,
To what extent did the music make you feel ,ASHAMED,30MonoWAV/30MonoF2.wav,1,2,2,2,,,,,1,6,22,1,0,8,8,4,,,,,,,,,1,0.5679271039989544,,,023,001,2019_May_13_1413,MusicAffectPsychophysiology2019,3.0.5,59.94011359630846,
To what extent did the music make you feel ,TENDER,30MonoWAV/30MonoF2.wav,1,2,2,2,,,,,1,6,22,1,0,9,9,10,,,,,,,,,1,1.1343687170010526,,,023,001,2019_May_13_1413,MusicAffectPsychophysiology2019,3.0.5,59.94011359630846,
To what extent did the music make you feel ,FRUSTRATED,30MonoWAV/30MonoF2.wav,1,2,2,2,,,,,1,6,22,1,0,10,10,3,,,,,,,,,2,2.168019082004321,,,023,001,2019_May_13_1413,MusicAffectPsychophysiology2019,3.0.5,59.94011359630846,
To what extent did the music make you feel ,HAPPY,30MonoWAV/30MonoF2.wav,1,2,2,2,,,,,1,6,22,1,0,11,11,6,,,,,,,,,1,0.5673630179953761,,,023,001,2019_May_13_1413,MusicAffectPsychophysiology2019,3.0.5,59.94011359630846,
,,30MonoWAV/30MonoF2.wav,1,2,2,2,,,,,1,6,22,1,,,,,,,,,,,,,,,,,023,001,2019_May_13_1413,MusicAffectPsychophysiology2019,3.0.5,59.94011359630846,
To what extent did the music make you feel ,ANGRY,30MonoWAV/30MonoH2.wav,2,2,1,6,,,,,1,7,23,5,0,0,0,2,,,3,5.528055823990144,3,1.3848707459983416,3,1.3347902649984462,1,1.368370641997899,,,023,001,2019_May_13_1413,MusicAffectPsychophysiology2019,3.0.5,59.94011359630846,
To what extent did the music make you feel ,SAD,30MonoWAV/30MonoH2.wav,2,2,1,6,,,,,1,7,23,5,0,1,1,0,,,,,,,,,1,0.6336016400018707,,,023,001,2019_May_13_1413,MusicAffectPsychophysiology2019,3.0.5,59.94011359630846,
To what extent did the music make you feel ,HAPPY,30MonoWAV/30MonoH2.wav,2,2,1,6,,,,,1,7,23,5,0,2,2,6,,,,,,,,,3,3.2521526850032387,,,023,001,2019_May_13_1413,MusicAffectPsychophysiology2019,3.0.5,59.94011359630846,
To what extent did the music make you feel ,EXCITED,30MonoWAV/30MonoH2.wav,2,2,1,6,,,,,1,7,23,5,0,3,3,7,,,,,,,,,4,1.368306850999943,,,023,001,2019_May_13_1413,MusicAffectPsychophysiology2019,3.0.5,59.94011359630846,
To what extent did the music make you feel ,TENDER,30MonoWAV/30MonoH2.wav,2,2,1,6,,,,,1,7,23,5,0,4,4,10,,,,,,,,,2,2.885414315998787,,,023,001,2019_May_13_1413,MusicAffectPsychophysiology2019,3.0.5,59.94011359630846,
To what extent did the music make you feel ,ASHAMED,30MonoWAV/30MonoH2.wav,2,2,1,6,,,,,1,7,23,5,0,5,5,4,,,,,,,,,1,0.8834688459901372,,,023,001,2019_May_13_1413,MusicAffectPsychophysiology2019,3.0.5,59.94011359630846,
To what extent did the music make you feel ,ALERT,30MonoWAV/30MonoH2.wav,2,2,1,6,,,,,1,7,23,5,0,6,6,8,,,,,,,,,4,1.5826346740068402,,,023,001,2019_May_13_1413,MusicAffectPsychophysiology2019,3.0.5,59.94011359630846,
To what extent did the music make you feel ,GUILTY,30MonoWAV/30MonoH2.wav,2,2,1,6,,,,,1,7,23,5,0,7,7,5,,,,,,,,,1,1.6022994649974862,,,023,001,2019_May_13_1413,MusicAffectPsychophysiology2019,3.0.5,59.94011359630846,
To what extent did the music make you feel ,ACTIVE,30MonoWAV/30MonoH2.wav,2,2,1,6,,,,,1,7,23,5,0,8,8,9,,,,,,,,,4,1.001309992003371,,,023,001,2019_May_13_1413,MusicAffectPsychophysiology2019,3.0.5,59.94011359630846,
To what extent did the music make you feel ,FRUSTRATED,30MonoWAV/30MonoH2.wav,2,2,1,6,,,,,1,7,23,5,0,9,9,3,,,,,,,,,1,0.7680827360018156,,,023,001,2019_May_13_1413,MusicAffectPsychophysiology2019,3.0.5,59.94011359630846,
To what extent did the music make you feel ,SCARED,30MonoWAV/30MonoH2.wav,2,2,1,6,,,,,1,7,23,5,0,10,10,11,,,,,,,,,1,1.0686096010031179,,,023,001,2019_May_13_1413,MusicAffectPsychophysiology2019,3.0.5,59.94011359630846,
To what extent did the music make you feel ,ANXIOUS ,30MonoWAV/30MonoH2.wav,2,2,1,6,,,,,1,7,23,5,0,11,11,1,,,,,,,,,1,0.9849581200105604,,,023,001,2019_May_13_1413,MusicAffectPsychophysiology2019,3.0.5,59.94011359630846,
,,30MonoWAV/30MonoH2.wav,2,2,1,6,,,,,1,7,23,5,,,,,,,,,,,,,,,,,023,001,2019_May_13_1413,MusicAffectPsychophysiology2019,3.0.5,59.94011359630846,
To what extent did the music make you feel ,EXCITED,30MonoWAV/30MonoS1.wav,1,1,3,9,,,,,1,8,24,8,0,0,0,7,,,2,3.575252916998579,1,1.2173139360093046,2,1.2367906080035027,1,1.5183878170064418,,,023,001,2019_May_13_1413,MusicAffectPsychophysiology2019,3.0.5,59.94011359630846,
To what extent did the music make you feel ,ALERT,30MonoWAV/30MonoS1.wav,1,1,3,9,,,,,1,8,24,8,0,1,1,8,,,,,,,,,1,0.8349323830043431,,,023,001,2019_May_13_1413,MusicAffectPsychophysiology2019,3.0.5,59.94011359630846,
To what extent did the music make you feel ,GUILTY,30MonoWAV/30MonoS1.wav,1,1,3,9,,,,,1,8,24,8,0,2,2,5,,,,,,,,,2,1.5572261619963683,,,023,001,2019_May_13_1413,MusicAffectPsychophysiology2019,3.0.5,59.94011359630846,
To what extent did the music make you feel ,ANGRY,30MonoWAV/30MonoS1.wav,1,1,3,9,,,,,1,8,24,8,0,3,3,2,,,,,,,,,1,0.6190695010009222,,,023,001,2019_May_13_1413,MusicAffectPsychophysiology2019,3.0.5,59.94011359630846,
To what extent did the music make you feel ,SAD,30MonoWAV/30MonoS1.wav,1,1,3,9,,,,,1,8,24,8,0,4,4,0,,,,,,,,,4,1.3370815200032666,,,023,001,2019_May_13_1413,MusicAffectPsychophysiology2019,3.0.5,59.94011359630846,
To what extent did the music make you feel ,FRUSTRATED,30MonoWAV/30MonoS1.wav,1,1,3,9,,,,,1,8,24,8,0,5,5,3,,,,,,,,,1,1.3873471620026976,,,023,001,2019_May_13_1413,MusicAffectPsychophysiology2019,3.0.5,59.94011359630846,
To what extent did the music make you feel ,ASHAMED,30MonoWAV/30MonoS1.wav,1,1,3,9,,,,,1,8,24,8,0,6,6,4,,,,,,,,,1,1.5039273580041481,,,023,001,2019_May_13_1413,MusicAffectPsychophysiology2019,3.0.5,59.94011359630846,
To what extent did the music make you feel ,SCARED,30MonoWAV/30MonoS1.wav,1,1,3,9,,,,,1,8,24,8,0,7,7,11,,,,,,,,,1,1.2021236529981252,,,023,001,2019_May_13_1413,MusicAffectPsychophysiology2019,3.0.5,59.94011359630846,
To what extent did the music make you feel ,TENDER,30MonoWAV/30MonoS1.wav,1,1,3,9,,,,,1,8,24,8,0,8,8,10,,,,,,,,,3,1.3224908109987155,,,023,001,2019_May_13_1413,MusicAffectPsychophysiology2019,3.0.5,59.94011359630846,
To what extent did the music make you feel ,ACTIVE,30MonoWAV/30MonoS1.wav,1,1,3,9,,,,,1,8,24,8,0,9,9,9,,,,,,,,,1,2.767546556002344,,,023,001,2019_May_13_1413,MusicAffectPsychophysiology2019,3.0.5,59.94011359630846,
To what extent did the music make you feel ,ANXIOUS ,30MonoWAV/30MonoS1.wav,1,1,3,9,,,,,1,8,24,8,0,10,10,1,,,,,,,,,3,1.7830601390014635,,,023,001,2019_May_13_1413,MusicAffectPsychophysiology2019,3.0.5,59.94011359630846,
To what extent did the music make you feel ,HAPPY,30MonoWAV/30MonoS1.wav,1,1,3,9,,,,,1,8,24,8,0,11,11,6,,,,,,,,,1,0.7177517359959893,,,023,001,2019_May_13_1413,MusicAffectPsychophysiology2019,3.0.5,59.94011359630846,
,,30MonoWAV/30MonoS1.wav,1,1,3,9,,,,,1,8,24,8,,,,,,,,,,,,,,,,,023,001,2019_May_13_1413,MusicAffectPsychophysiology2019,3.0.5,59.94011359630846,
To what extent did the music make you feel ,HAPPY,30MonoWAV/30MonoF3.wav,1,2,2,3,,,,,1,9,25,2,0,0,0,6,,,2,3.5588737900106935,1,2.8017061689897673,2,1.0520937219989719,2,1.9359209399990505,,,023,001,2019_May_13_1413,MusicAffectPsychophysiology2019,3.0.5,59.94011359630846,
To what extent did the music make you feel ,ANGRY,30MonoWAV/30MonoF3.wav,1,2,2,3,,,,,1,9,25,2,0,1,1,2,,,,,,,,,3,3.1591930729919113,,,023,001,2019_May_13_1413,MusicAffectPsychophysiology2019,3.0.5,59.94011359630846,
To what extent did the music make you feel ,TENDER,30MonoWAV/30MonoF3.wav,1,2,2,3,,,,,1,9,25,2,0,2,2,10,,,,,,,,,1,1.4019197970046662,,,023,001,2019_May_13_1413,MusicAffectPsychophysiology2019,3.0.5,59.94011359630846,
To what extent did the music make you feel ,FRUSTRATED,30MonoWAV/30MonoF3.wav,1,2,2,3,,,,,1,9,25,2,0,3,3,3,,,,,,,,,1,1.119911122994381,,,023,001,2019_May_13_1413,MusicAffectPsychophysiology2019,3.0.5,59.94011359630846,
To what extent did the music make you feel ,ANXIOUS ,30MonoWAV/30MonoF3.wav,1,2,2,3,,,,,1,9,25,2,0,4,4,1,,,,,,,,,3,1.5067508929932956,,,023,001,2019_May_13_1413,MusicAffectPsychophysiology2019,3.0.5,59.94011359630846,
To what extent did the music make you feel ,GUILTY,30MonoWAV/30MonoF3.wav,1,2,2,3,,,,,1,9,25,2,0,5,5,5,,,,,,,,,1,1.1857832070090808,,,023,001,2019_May_13_1413,MusicAffectPsychophysiology2019,3.0.5,59.94011359630846,
To what extent did the music make you feel ,ALERT,30MonoWAV/30MonoF3.wav,1,2,2,3,,,,,1,9,25,2,0,6,6,8,,,,,,,,,4,1.2852655799943022,,,023,001,2019_May_13_1413,MusicAffectPsychophysiology2019,3.0.5,59.94011359630846,
To what extent did the music make you feel ,EXCITED,30MonoWAV/30MonoF3.wav,1,2,2,3,,,,,1,9,25,2,0,7,7,7,,,,,,,,,2,2.002406532992609,,,023,001,2019_May_13_1413,MusicAffectPsychophysiology2019,3.0.5,59.94011359630846,
To what extent did the music make you feel ,ACTIVE,30MonoWAV/30MonoF3.wav,1,2,2,3,,,,,1,9,25,2,0,8,8,9,,,,,,,,,3,1.9679150590091012,,,023,001,2019_May_13_1413,MusicAffectPsychophysiology2019,3.0.5,59.94011359630846,
To what extent did the music make you feel ,SCARED,30MonoWAV/30MonoF3.wav,1,2,2,3,,,,,1,9,25,2,0,9,9,11,,,,,,,,,1,1.450879927011556,,,023,001,2019_May_13_1413,MusicAffectPsychophysiology2019,3.0.5,59.94011359630846,
To what extent did the music make you feel ,SAD,30MonoWAV/30MonoF3.wav,1,2,2,3,,,,,1,9,25,2,0,10,10,0,,,,,,,,,1,0.868918391992338,,,023,001,2019_May_13_1413,MusicAffectPsychophysiology2019,3.0.5,59.94011359630846,
To what extent did the music make you feel ,ASHAMED,30MonoWAV/30MonoF3.wav,1,2,2,3,,,,,1,9,25,2,0,11,11,4,,,,,,,,,1,1.9012153789954027,,,023,001,2019_May_13_1413,MusicAffectPsychophysiology2019,3.0.5,59.94011359630846,
,,30MonoWAV/30MonoF3.wav,1,2,2,3,,,,,1,9,25,2,,,,,,,,,,,,,,,,,023,001,2019_May_13_1413,MusicAffectPsychophysiology2019,3.0.5,59.94011359630846,
To what extent did the music make you feel ,FRUSTRATED,30MonoWAV/30MonoF1.wav,1,2,2,1,,,,,1,10,26,0,0,0,0,3,,,3,3.452134555001976,1,2.001710215001367,2,1.4333344509941526,2,4.017588407004951,,,023,001,2019_May_13_1413,MusicAffectPsychophysiology2019,3.0.5,59.94011359630846,
To what extent did the music make you feel ,SAD,30MonoWAV/30MonoF1.wav,1,2,2,1,,,,,1,10,26,0,0,1,1,0,,,,,,,,,2,4.316829699993832,,,023,001,2019_May_13_1413,MusicAffectPsychophysiology2019,3.0.5,59.94011359630846,
To what extent did the music make you feel ,TENDER,30MonoWAV/30MonoF1.wav,1,2,2,1,,,,,1,10,26,0,0,2,2,10,,,,,,,,,1,1.1366280920046847,,,023,001,2019_May_13_1413,MusicAffectPsychophysiology2019,3.0.5,59.94011359630846,
To what extent did the music make you feel ,SCARED,30MonoWAV/30MonoF1.wav,1,2,2,1,,,,,1,10,26,0,0,3,3,11,,,,,,,,,3,1.6832500010059448,,,023,001,2019_May_13_1413,MusicAffectPsychophysiology2019,3.0.5,59.94011359630846,
To what extent did the music make you feel ,EXCITED,30MonoWAV/30MonoF1.wav,1,2,2,1,,,,,1,10,26,0,0,4,4,7,,,,,,,,,3,1.6853764999978011,,,023,001,2019_May_13_1413,MusicAffectPsychophysiology2019,3.0.5,59.94011359630846,
To what extent did the music make you feel ,GUILTY,30MonoWAV/30MonoF1.wav,1,2,2,1,,,,,1,10,26,0,0,5,5,5,,,,,,,,,1,1.1011644180107396,,,023,001,2019_May_13_1413,MusicAffectPsychophysiology2019,3.0.5,59.94011359630846,
To what extent did the music make you feel ,ANXIOUS ,30MonoWAV/30MonoF1.wav,1,2,2,1,,,,,1,10,26,0,0,6,6,1,,,,,,,,,3,1.4845569679891923,,,023,001,2019_May_13_1413,MusicAffectPsychophysiology2019,3.0.5,59.94011359630846,
To what extent did the music make you feel ,ALERT,30MonoWAV/30MonoF1.wav,1,2,2,1,,,,,1,10,26,0,0,7,7,8,,,,,,,,,4,2.5155563650041586,,,023,001,2019_May_13_1413,MusicAffectPsychophysiology2019,3.0.5,59.94011359630846,
To what extent did the music make you feel ,ASHAMED,30MonoWAV/30MonoF1.wav,1,2,2,1,,,,,1,10,26,0,0,8,8,4,,,,,,,,,1,1.0843586300034076,,,023,001,2019_May_13_1413,MusicAffectPsychophysiology2019,3.0.5,59.94011359630846,
To what extent did the music make you feel ,ANGRY,30MonoWAV/30MonoF1.wav,1,2,2,1,,,,,1,10,26,0,0,9,9,2,,,,,,,,,2,2.8003736499958904,,,023,001,2019_May_13_1413,MusicAffectPsychophysiology2019,3.0.5,59.94011359630846,
To what extent did the music make you feel ,HAPPY,30MonoWAV/30MonoF1.wav,1,2,2,1,,,,,1,10,26,0,0,10,10,6,,,,,,,,,1,0.8022600520052947,,,023,001,2019_May_13_1413,MusicAffectPsychophysiology2019,3.0.5,59.94011359630846,
To what extent did the music make you feel ,ACTIVE,30MonoWAV/30MonoF1.wav,1,2,2,1,,,,,1,10,26,0,0,11,11,9,,,,,,,,,4,1.4683767789974809,,,023,001,2019_May_13_1413,MusicAffectPsychophysiology2019,3.0.5,59.94011359630846,
,,30MonoWAV/30MonoF1.wav,1,2,2,1,,,,,1,10,26,0,,,,,,,,,,,,,,,,,023,001,2019_May_13_1413,MusicAffectPsychophysiology2019,3.0.5,59.94011359630846,
To what extent did the music make you feel ,ACTIVE,30MonoWAV/30MonoS4.wav,1,1,3,12,,,,,1,11,27,11,0,0,0,9,,,1,2.252748472004896,1,2.150583167007426,2,2.8668770419899374,1,1.0355429299961543,,,023,001,2019_May_13_1413,MusicAffectPsychophysiology2019,3.0.5,59.94011359630846,
To what extent did the music make you feel ,HAPPY,30MonoWAV/30MonoS4.wav,1,1,3,12,,,,,1,11,27,11,0,1,1,6,,,,,,,,,1,1.084646053990582,,,023,001,2019_May_13_1413,MusicAffectPsychophysiology2019,3.0.5,59.94011359630846,
To what extent did the music make you feel ,EXCITED,30MonoWAV/30MonoS4.wav,1,1,3,12,,,,,1,11,27,11,0,2,2,7,,,,,,,,,1,1.3683921929914504,,,023,001,2019_May_13_1413,MusicAffectPsychophysiology2019,3.0.5,59.94011359630846,
To what extent did the music make you feel ,ANGRY,30MonoWAV/30MonoS4.wav,1,1,3,12,,,,,1,11,27,11,0,3,3,2,,,,,,,,,1,1.6156596220098436,,,023,001,2019_May_13_1413,MusicAffectPsychophysiology2019,3.0.5,59.94011359630846,
To what extent did the music make you feel ,TENDER,30MonoWAV/30MonoS4.wav,1,1,3,12,,,,,1,11,27,11,0,4,4,10,,,,,,,,,4,3.4017768440098735,,,023,001,2019_May_13_1413,MusicAffectPsychophysiology2019,3.0.5,59.94011359630846,
To what extent did the music make you feel ,SAD,30MonoWAV/30MonoS4.wav,1,1,3,12,,,,,1,11,27,11,0,5,5,0,,,,,,,,,5,1.801452152998536,,,023,001,2019_May_13_1413,MusicAffectPsychophysiology2019,3.0.5,59.94011359630846,
To what extent did the music make you feel ,ASHAMED,30MonoWAV/30MonoS4.wav,1,1,3,12,,,,,1,11,27,11,0,6,6,4,,,,,,,,,1,1.7847769380023237,,,023,001,2019_May_13_1413,MusicAffectPsychophysiology2019,3.0.5,59.94011359630846,
To what extent did the music make you feel ,FRUSTRATED,30MonoWAV/30MonoS4.wav,1,1,3,12,,,,,1,11,27,11,0,7,7,3,,,,,,,,,1,1.268505344996811,,,023,001,2019_May_13_1413,MusicAffectPsychophysiology2019,3.0.5,59.94011359630846,
To what extent did the music make you feel ,ANXIOUS ,30MonoWAV/30MonoS4.wav,1,1,3,12,,,,,1,11,27,11,0,8,8,1,,,,,,,,,2,2.4856612290022895,,,023,001,2019_May_13_1413,MusicAffectPsychophysiology2019,3.0.5,59.94011359630846,
To what extent did the music make you feel ,SCARED,30MonoWAV/30MonoS4.wav,1,1,3,12,,,,,1,11,27,11,0,9,9,11,,,,,,,,,1,1.5683550819958327,,,023,001,2019_May_13_1413,MusicAffectPsychophysiology2019,3.0.5,59.94011359630846,
To what extent did the music make you feel ,ALERT,30MonoWAV/30MonoS4.wav,1,1,3,12,,,,,1,11,27,11,0,10,10,8,,,,,,,,,1,3.4517699709977023,,,023,001,2019_May_13_1413,MusicAffectPsychophysiology2019,3.0.5,59.94011359630846,
To what extent did the music make you feel ,GUILTY,30MonoWAV/30MonoS4.wav,1,1,3,12,,,,,1,11,27,11,0,11,11,5,,,,,,,,,1,0.8011543339962373,,,023,001,2019_May_13_1413,MusicAffectPsychophysiology2019,3.0.5,59.94011359630846,
,,30MonoWAV/30MonoS4.wav,1,1,3,12,,,,,1,11,27,11,,,,,,,,,,,,,,,,,023,001,2019_May_13_1413,MusicAffectPsychophysiology2019,3.0.5,59.94011359630846,
To what extent did the music make you feel ,TENDER,30MonoWAV/30MonoT3.wav,2,1,4,15,,,,,1,12,28,14,0,0,0,10,,,2,5.233936275006272,4,2.8329550430062227,3,2.4175089659984224,4,2.70218114698946,,,023,001,2019_May_13_1413,MusicAffectPsychophysiology2019,3.0.5,59.94011359630846,
To what extent did the music make you feel ,HAPPY,30MonoWAV/30MonoT3.wav,2,1,4,15,,,,,1,12,28,14,0,1,1,6,,,,,,,,,3,3.168137130996911,,,023,001,2019_May_13_1413,MusicAffectPsychophysiology2019,3.0.5,59.94011359630846,
To what extent did the music make you feel ,ANXIOUS ,30MonoWAV/30MonoT3.wav,2,1,4,15,,,,,1,12,28,14,0,2,2,1,,,,,,,,,1,1.3184645340079442,,,023,001,2019_May_13_1413,MusicAffectPsychophysiology2019,3.0.5,59.94011359630846,
To what extent did the music make you feel ,ACTIVE,30MonoWAV/30MonoT3.wav,2,1,4,15,,,,,1,12,28,14,0,3,3,9,,,,,,,,,2,1.6192173519957578,,,023,001,2019_May_13_1413,MusicAffectPsychophysiology2019,3.0.5,59.94011359630846,
To what extent did the music make you feel ,FRUSTRATED,30MonoWAV/30MonoT3.wav,2,1,4,15,,,,,1,12,28,14,0,4,4,3,,,,,,,,,1,0.8682438899995759,,,023,001,2019_May_13_1413,MusicAffectPsychophysiology2019,3.0.5,59.94011359630846,
To what extent did the music make you feel ,SCARED,30MonoWAV/30MonoT3.wav,2,1,4,15,,,,,1,12,28,14,0,5,5,11,,,,,,,,,1,0.7351190900080837,,,023,001,2019_May_13_1413,MusicAffectPsychophysiology2019,3.0.5,59.94011359630846,
To what extent did the music make you feel ,ASHAMED,30MonoWAV/30MonoT3.wav,2,1,4,15,,,,,1,12,28,14,0,6,6,4,,,,,,,,,1,0.5848782359971665,,,023,001,2019_May_13_1413,MusicAffectPsychophysiology2019,3.0.5,59.94011359630846,
To what extent did the music make you feel ,GUILTY,30MonoWAV/30MonoT3.wav,2,1,4,15,,,,,1,12,28,14,0,7,7,5,,,,,,,,,1,0.6019528189935954,,,023,001,2019_May_13_1413,MusicAffectPsychophysiology2019,3.0.5,59.94011359630846,
To what extent did the music make you feel ,ALERT,30MonoWAV/30MonoT3.wav,2,1,4,15,,,,,1,12,28,14,0,8,8,8,,,,,,,,,2,1.4678837889950955,,,023,001,2019_May_13_1413,MusicAffectPsychophysiology2019,3.0.5,59.94011359630846,
To what extent did the music make you feel ,ANGRY,30MonoWAV/30MonoT3.wav,2,1,4,15,,,,,1,12,28,14,0,9,9,2,,,,,,,,,1,0.5519201520073693,,,023,001,2019_May_13_1413,MusicAffectPsychophysiology2019,3.0.5,59.94011359630846,
To what extent did the music make you feel ,EXCITED,30MonoWAV/30MonoT3.wav,2,1,4,15,,,,,1,12,28,14,0,10,10,7,,,,,,,,,2,1.768174197000917,,,023,001,2019_May_13_1413,MusicAffectPsychophysiology2019,3.0.5,59.94011359630846,
To what extent did the music make you feel ,SAD,30MonoWAV/30MonoT3.wav,2,1,4,15,,,,,1,12,28,14,0,11,11,0,,,,,,,,,1,0.8187720840069233,,,023,001,2019_May_13_1413,MusicAffectPsychophysiology2019,3.0.5,59.94011359630846,
,,30MonoWAV/30MonoT3.wav,2,1,4,15,,,,,1,12,28,14,,,,,,,,,,,,,,,,,023,001,2019_May_13_1413,MusicAffectPsychophysiology2019,3.0.5,59.94011359630846,
To what extent did the music make you feel ,ALERT,30MonoWAV/30MonoH3.wav,2,2,1,7,,,,,1,13,29,6,0,0,0,8,,,4,2.8520087999932002,4,0.9355402429937385,3,1.501498118013842,4,1.6848630610038526,,,023,001,2019_May_13_1413,MusicAffectPsychophysiology2019,3.0.5,59.94011359630846,
To what extent did the music make you feel ,ASHAMED,30MonoWAV/30MonoH3.wav,2,2,1,7,,,,,1,13,29,6,0,1,1,4,,,,,,,,,1,1.235054183009197,,,023,001,2019_May_13_1413,MusicAffectPsychophysiology2019,3.0.5,59.94011359630846,
To what extent did the music make you feel ,EXCITED,30MonoWAV/30MonoH3.wav,2,2,1,7,,,,,1,13,29,6,0,2,2,7,,,,,,,,,4,1.1523237689980306,,,023,001,2019_May_13_1413,MusicAffectPsychophysiology2019,3.0.5,59.94011359630846,
To what extent did the music make you feel ,SAD,30MonoWAV/30MonoH3.wav,2,2,1,7,,,,,1,13,29,6,0,3,3,0,,,,,,,,,1,1.3019409260014072,,,023,001,2019_May_13_1413,MusicAffectPsychophysiology2019,3.0.5,59.94011359630846,
To what extent did the music make you feel ,HAPPY,30MonoWAV/30MonoH3.wav,2,2,1,7,,,,,1,13,29,6,0,4,4,6,,,,,,,,,5,1.984728515992174,,,023,001,2019_May_13_1413,MusicAffectPsychophysiology2019,3.0.5,59.94011359630846,
To what extent did the music make you feel ,TENDER,30MonoWAV/30MonoH3.wav,2,2,1,7,,,,,1,13,29,6,0,5,5,10,,,,,,,,,2,1.5516789219982456,,,023,001,2019_May_13_1413,MusicAffectPsychophysiology2019,3.0.5,59.94011359630846,
To what extent did the music make you feel ,GUILTY,30MonoWAV/30MonoH3.wav,2,2,1,7,,,,,1,13,29,6,0,6,6,5,,,,,,,,,1,0.9182580829947256,,,023,001,2019_May_13_1413,MusicAffectPsychophysiology2019,3.0.5,59.94011359630846,
To what extent did the music make you feel ,SCARED,30MonoWAV/30MonoH3.wav,2,2,1,7,,,,,1,13,29,6,0,7,7,11,,,,,,,,,1,1.168604406004306,,,023,001,2019_May_13_1413,MusicAffectPsychophysiology2019,3.0.5,59.94011359630846,
To what extent did the music make you feel ,ANXIOUS ,30MonoWAV/30MonoH3.wav,2,2,1,7,,,,,1,13,29,6,0,8,8,1,,,,,,,,,1,0.8675755029980792,,,023,001,2019_May_13_1413,MusicAffectPsychophysiology2019,3.0.5,59.94011359630846,
To what extent did the music make you feel ,ANGRY,30MonoWAV/30MonoH3.wav,2,2,1,7,,,,,1,13,29,6,0,9,9,2,,,,,,,,,1,0.6848967029945925,,,023,001,2019_May_13_1413,MusicAffectPsychophysiology2019,3.0.5,59.94011359630846,
To what extent did the music make you feel ,FRUSTRATED,30MonoWAV/30MonoH3.wav,2,2,1,7,,,,,1,13,29,6,0,10,10,3,,,,,,,,,1,1.30209512100555,,,023,001,2019_May_13_1413,MusicAffectPsychophysiology2019,3.0.5,59.94011359630846,
To what extent did the music make you feel ,ACTIVE,30MonoWAV/30MonoH3.wav,2,2,1,7,,,,,1,13,29,6,0,11,11,9,,,,,,,,,4,1.4515228500094963,,,023,001,2019_May_13_1413,MusicAffectPsychophysiology2019,3.0.5,59.94011359630846,
,,30MonoWAV/30MonoH3.wav,2,2,1,7,,,,,1,13,29,6,,,,,,,,,,,,,,,,,023,001,2019_May_13_1413,MusicAffectPsychophysiology2019,3.0.5,59.94011359630846,
To what extent did the music make you feel ,SCARED,30MonoWAV/30MonoT1.wav,2,1,4,13,,,,,1,14,30,12,0,0,0,11,,,2,2.500687677995302,1,1.6689749029901577,2,1.5516692330129445,1,0.9855003779957769,,,023,001,2019_May_13_1413,MusicAffectPsychophysiology2019,3.0.5,59.94011359630846,
To what extent did the music make you feel ,ACTIVE,30MonoWAV/30MonoT1.wav,2,1,4,13,,,,,1,14,30,12,0,1,1,9,,,,,,,,,2,1.518388081996818,,,023,001,2019_May_13_1413,MusicAffectPsychophysiology2019,3.0.5,59.94011359630846,
To what extent did the music make you feel ,ALERT,30MonoWAV/30MonoT1.wav,2,1,4,13,,,,,1,14,30,12,0,2,2,8,,,,,,,,,1,1.551819175001583,,,023,001,2019_May_13_1413,MusicAffectPsychophysiology2019,3.0.5,59.94011359630846,
To what extent did the music make you feel ,ANXIOUS ,30MonoWAV/30MonoT1.wav,2,1,4,13,,,,,1,14,30,12,0,3,3,1,,,,,,,,,2,2.2842858109943336,,,023,001,2019_May_13_1413,MusicAffectPsychophysiology2019,3.0.5,59.94011359630846,
To what extent did the music make you feel ,ASHAMED,30MonoWAV/30MonoT1.wav,2,1,4,13,,,,,1,14,30,12,0,4,4,4,,,,,,,,,1,1.0185303220059723,,,023,001,2019_May_13_1413,MusicAffectPsychophysiology2019,3.0.5,59.94011359630846,
To what extent did the music make you feel ,GUILTY,30MonoWAV/30MonoT1.wav,2,1,4,13,,,,,1,14,30,12,0,5,5,5,,,,,,,,,2,1.1008941640029661,,,023,001,2019_May_13_1413,MusicAffectPsychophysiology2019,3.0.5,59.94011359630846,
To what extent did the music make you feel ,FRUSTRATED,30MonoWAV/30MonoT1.wav,2,1,4,13,,,,,1,14,30,12,0,6,6,3,,,,,,,,,1,1.269832101999782,,,023,001,2019_May_13_1413,MusicAffectPsychophysiology2019,3.0.5,59.94011359630846,
To what extent did the music make you feel ,SAD,30MonoWAV/30MonoT1.wav,2,1,4,13,,,,,1,14,30,12,0,7,7,0,,,,,,,,,4,1.7506174719892442,,,023,001,2019_May_13_1413,MusicAffectPsychophysiology2019,3.0.5,59.94011359630846,
To what extent did the music make you feel ,HAPPY,30MonoWAV/30MonoT1.wav,2,1,4,13,,,,,1,14,30,12,0,8,8,6,,,,,,,,,1,1.7072226379968924,,,023,001,2019_May_13_1413,MusicAffectPsychophysiology2019,3.0.5,59.94011359630846,
To what extent did the music make you feel ,ANGRY,30MonoWAV/30MonoT1.wav,2,1,4,13,,,,,1,14,30,12,0,9,9,2,,,,,,,,,1,1.001820810008212,,,023,001,2019_May_13_1413,MusicAffectPsychophysiology2019,3.0.5,59.94011359630846,
To what extent did the music make you feel ,EXCITED,30MonoWAV/30MonoT1.wav,2,1,4,13,,,,,1,14,30,12,0,10,10,7,,,,,,,,,1,1.7535130249889335,,,023,001,2019_May_13_1413,MusicAffectPsychophysiology2019,3.0.5,59.94011359630846,
To what extent did the music make you feel ,TENDER,30MonoWAV/30MonoT1.wav,2,1,4,13,,,,,1,14,30,12,0,11,11,10,,,,,,,,,3,1.3196735340025043,,,023,001,2019_May_13_1413,MusicAffectPsychophysiology2019,3.0.5,59.94011359630846,
,,30MonoWAV/30MonoT1.wav,2,1,4,13,,,,,1,14,30,12,,,,,,,,,,,,,,,,,023,001,2019_May_13_1413,MusicAffectPsychophysiology2019,3.0.5,59.94011359630846,
To what extent did the music make you feel ,TENDER,30MonoWAV/30MonoH1.wav,2,2,1,5,,,,,1,15,31,4,0,0,0,10,,,4,3.5351303030038252,4,0.9203443410078762,4,1.2704419729998335,3,2.002741660005995,,,023,001,2019_May_13_1413,MusicAffectPsychophysiology2019,3.0.5,59.94011359630846,
To what extent did the music make you feel ,SAD,30MonoWAV/30MonoH1.wav,2,2,1,5,,,,,1,15,31,4,0,1,1,0,,,,,,,,,1,1.1873922560043866,,,023,001,2019_May_13_1413,MusicAffectPsychophysiology2019,3.0.5,59.94011359630846,
To what extent did the music make you feel ,HAPPY,30MonoWAV/30MonoH1.wav,2,2,1,5,,,,,1,15,31,4,0,2,2,6,,,,,,,,,4,1.703202880002209,,,023,001,2019_May_13_1413,MusicAffectPsychophysiology2019,3.0.5,59.94011359630846,
To what extent did the music make you feel ,ANGRY,30MonoWAV/30MonoH1.wav,2,2,1,5,,,,,1,15,31,4,0,3,3,2,,,,,,,,,1,1.07131640901207,,,023,001,2019_May_13_1413,MusicAffectPsychophysiology2019,3.0.5,59.94011359630846,
To what extent did the music make you feel ,EXCITED,30MonoWAV/30MonoH1.wav,2,2,1,5,,,,,1,15,31,4,0,4,4,7,,,,,,,,,4,1.6723107519937912,,,023,001,2019_May_13_1413,MusicAffectPsychophysiology2019,3.0.5,59.94011359630846,
To what extent did the music make you feel ,ASHAMED,30MonoWAV/30MonoH1.wav,2,2,1,5,,,,,1,15,31,4,0,5,5,4,,,,,,,,,1,1.0016337350098183,,,023,001,2019_May_13_1413,MusicAffectPsychophysiology2019,3.0.5,59.94011359630846,
To what extent did the music make you feel ,ANXIOUS ,30MonoWAV/30MonoH1.wav,2,2,1,5,,,,,1,15,31,4,0,6,6,1,,,,,,,,,1,1.085817136001424,,,023,001,2019_May_13_1413,MusicAffectPsychophysiology2019,3.0.5,59.94011359630846,
To what extent did the music make you feel ,ALERT,30MonoWAV/30MonoH1.wav,2,2,1,5,,,,,1,15,31,4,0,7,7,8,,,,,,,,,4,1.635027865995653,,,023,001,2019_May_13_1413,MusicAffectPsychophysiology2019,3.0.5,59.94011359630846,
To what extent did the music make you feel ,FRUSTRATED,30MonoWAV/30MonoH1.wav,2,2,1,5,,,,,1,15,31,4,0,8,8,3,,,,,,,,,1,0.8880160840053577,,,023,001,2019_May_13_1413,MusicAffectPsychophysiology2019,3.0.5,59.94011359630846,
To what extent did the music make you feel ,ACTIVE,30MonoWAV/30MonoH1.wav,2,2,1,5,,,,,1,15,31,4,0,9,9,9,,,,,,,,,4,1.1865068469924154,,,023,001,2019_May_13_1413,MusicAffectPsychophysiology2019,3.0.5,59.94011359630846,
To what extent did the music make you feel ,SCARED,30MonoWAV/30MonoH1.wav,2,2,1,5,,,,,1,15,31,4,0,10,10,11,,,,,,,,,1,0.6694852809887379,,,023,001,2019_May_13_1413,MusicAffectPsychophysiology2019,3.0.5,59.94011359630846,
To what extent did the music make you feel ,GUILTY,30MonoWAV/30MonoH1.wav,2,2,1,5,,,,,1,15,31,4,0,11,11,5,,,,,,,,,1,1.0707527560007293,,,023,001,2019_May_13_1413,MusicAffectPsychophysiology2019,3.0.5,59.94011359630846,
,,30MonoWAV/30MonoH1.wav,2,2,1,5,,,,,1,15,31,4,,,,,,,,,,,,,,,,,023,001,2019_May_13_1413,MusicAffectPsychophysiology2019,3.0.5,59.94011359630846,
,,,,,,,,,,,,,,,,,,,,,,,,,,,,,space,5.1180636799981585,023,001,2019_May_13_1413,MusicAffectPsychophysiology2019,3.0.5,59.94011359630846,
