Instruction,Word,song,valence,arousal,affectcat,songmark,pracwords.thisRepN,pracwords.thisTrialN,pracwords.thisN,pracwords.thisIndex,songtrials.thisRepN,songtrials.thisTrialN,songtrials.thisN,songtrials.thisIndex,words.thisRepN,words.thisTrialN,words.thisN,words.thisIndex,begin.keys,begin.rt,arousalkey.keys,arousalkey.rt,valencekey.keys,valencekey.rt,likekey.keys,likekey.rt,WordResponse.keys,WordResponse.rt,participant,session,date,expName,psychopyVersion,frameRate,
,,,,,,,,,,,,,,,,,,,return,14.183708301003207,,,,,,,,,024,001,2019_May_13_1509,MusicAffectPsychophysiology2019,3.0.5,60.29326172150312,
,,,,,,,,,,,,,,,,,,,,,3,4.385434288997203,,,,,,,024,001,2019_May_13_1509,MusicAffectPsychophysiology2019,3.0.5,60.29326172150312,
,,,,,,,,,,,,,,,,,,,,,,,4,2.3851707709982293,,,,,024,001,2019_May_13_1509,MusicAffectPsychophysiology2019,3.0.5,60.29326172150312,
,,,,,,,,,,,,,,,,,,,,,,,,,3,3.3843884359957883,,,024,001,2019_May_13_1509,MusicAffectPsychophysiology2019,3.0.5,60.29326172150312,
To what extent did the music make you feel ,HAPPY,,,,,,0,0,0,6,,,,,,,,,,,,,,,,,4,2.367839194004773,024,001,2019_May_13_1509,MusicAffectPsychophysiology2019,3.0.5,60.29326172150312,
To what extent did the music make you feel ,ALERT,,,,,,0,1,1,8,,,,,,,,,,,,,,,,,3,3.0509824900073,024,001,2019_May_13_1509,MusicAffectPsychophysiology2019,3.0.5,60.29326172150312,
To what extent did the music make you feel ,GUILTY,,,,,,0,2,2,5,,,,,,,,,,,,,,,,,1,2.0594693340099184,024,001,2019_May_13_1509,MusicAffectPsychophysiology2019,3.0.5,60.29326172150312,
To what extent did the music make you feel ,ACTIVE,,,,,,0,3,3,9,,,,,,,,,,,,,,,,,3,3.010999076999724,024,001,2019_May_13_1509,MusicAffectPsychophysiology2019,3.0.5,60.29326172150312,
To what extent did the music make you feel ,ANGRY,,,,,,0,4,4,2,,,,,,,,,,,,,,,,,1,1.6684325340029318,024,001,2019_May_13_1509,MusicAffectPsychophysiology2019,3.0.5,60.29326172150312,
To what extent did the music make you feel ,EXCITED,,,,,,0,5,5,7,,,,,,,,,,,,,,,,,2,2.133939048013417,024,001,2019_May_13_1509,MusicAffectPsychophysiology2019,3.0.5,60.29326172150312,
To what extent did the music make you feel ,ANXIOUS ,,,,,,0,6,6,1,,,,,,,,,,,,,,,,,1,1.3682858719985234,024,001,2019_May_13_1509,MusicAffectPsychophysiology2019,3.0.5,60.29326172150312,
To what extent did the music make you feel ,ASHAMED,,,,,,0,7,7,4,,,,,,,,,,,,,,,,,1,1.2683364240074297,024,001,2019_May_13_1509,MusicAffectPsychophysiology2019,3.0.5,60.29326172150312,
To what extent did the music make you feel ,SCARED,,,,,,0,8,8,11,,,,,,,,,,,,,,,,,1,0.9187577419943409,024,001,2019_May_13_1509,MusicAffectPsychophysiology2019,3.0.5,60.29326172150312,
To what extent did the music make you feel ,FRUSTRATED,,,,,,0,9,9,3,,,,,,,,,,,,,,,,,1,1.1012259889976121,024,001,2019_May_13_1509,MusicAffectPsychophysiology2019,3.0.5,60.29326172150312,
To what extent did the music make you feel ,TENDER,,,,,,0,10,10,10,,,,,,,,,,,,,,,,,4,2.584013092011446,024,001,2019_May_13_1509,MusicAffectPsychophysiology2019,3.0.5,60.29326172150312,
To what extent did the music make you feel ,SAD,,,,,,0,11,11,0,,,,,,,,,,,,,,,,,2,4.035080262008705,024,001,2019_May_13_1509,MusicAffectPsychophysiology2019,3.0.5,60.29326172150312,
To what extent did the music make you feel ,ANXIOUS ,30MonoWAV/30MonoH2.wav,2,2,1,6,,,,,0,0,0,5,0,0,0,1,,,3,4.340364100993611,4,3.0557007400057046,4,2.0520648259989684,1,3.0007641739939572,024,001,2019_May_13_1509,MusicAffectPsychophysiology2019,3.0.5,60.29326172150312,
To what extent did the music make you feel ,ALERT,30MonoWAV/30MonoH2.wav,2,2,1,6,,,,,0,0,0,5,0,1,1,8,,,,,,,,,5,1.8180065589986043,024,001,2019_May_13_1509,MusicAffectPsychophysiology2019,3.0.5,60.29326172150312,
To what extent did the music make you feel ,GUILTY,30MonoWAV/30MonoH2.wav,2,2,1,6,,,,,0,0,0,5,0,2,2,5,,,,,,,,,1,2.3674060859921155,024,001,2019_May_13_1509,MusicAffectPsychophysiology2019,3.0.5,60.29326172150312,
To what extent did the music make you feel ,SAD,30MonoWAV/30MonoH2.wav,2,2,1,6,,,,,0,0,0,5,0,3,3,0,,,,,,,,,1,1.4858222420007223,024,001,2019_May_13_1509,MusicAffectPsychophysiology2019,3.0.5,60.29326172150312,
To what extent did the music make you feel ,SCARED,30MonoWAV/30MonoH2.wav,2,2,1,6,,,,,0,0,0,5,0,4,4,11,,,,,,,,,1,1.4839508820004994,024,001,2019_May_13_1509,MusicAffectPsychophysiology2019,3.0.5,60.29326172150312,
To what extent did the music make you feel ,ACTIVE,30MonoWAV/30MonoH2.wav,2,2,1,6,,,,,0,0,0,5,0,5,5,9,,,,,,,,,3,1.7842291870038025,024,001,2019_May_13_1509,MusicAffectPsychophysiology2019,3.0.5,60.29326172150312,
To what extent did the music make you feel ,ASHAMED,30MonoWAV/30MonoH2.wav,2,2,1,6,,,,,0,0,0,5,0,6,6,4,,,,,,,,,1,1.1504538220033282,024,001,2019_May_13_1509,MusicAffectPsychophysiology2019,3.0.5,60.29326172150312,
To what extent did the music make you feel ,EXCITED,30MonoWAV/30MonoH2.wav,2,2,1,6,,,,,0,0,0,5,0,7,7,7,,,,,,,,,4,4.768244530001539,024,001,2019_May_13_1509,MusicAffectPsychophysiology2019,3.0.5,60.29326172150312,
To what extent did the music make you feel ,HAPPY,30MonoWAV/30MonoH2.wav,2,2,1,6,,,,,0,0,0,5,0,8,8,6,,,,,,,,,3,1.6521962490078295,024,001,2019_May_13_1509,MusicAffectPsychophysiology2019,3.0.5,60.29326172150312,
To what extent did the music make you feel ,ANGRY,30MonoWAV/30MonoH2.wav,2,2,1,6,,,,,0,0,0,5,0,9,9,2,,,,,,,,,1,1.318186238000635,024,001,2019_May_13_1509,MusicAffectPsychophysiology2019,3.0.5,60.29326172150312,
To what extent did the music make you feel ,FRUSTRATED,30MonoWAV/30MonoH2.wav,2,2,1,6,,,,,0,0,0,5,0,10,10,3,,,,,,,,,1,7.482365661999211,024,001,2019_May_13_1509,MusicAffectPsychophysiology2019,3.0.5,60.29326172150312,
To what extent did the music make you feel ,TENDER,30MonoWAV/30MonoH2.wav,2,2,1,6,,,,,0,0,0,5,0,11,11,10,,,,,,,,,2,2.01708277099533,024,001,2019_May_13_1509,MusicAffectPsychophysiology2019,3.0.5,60.29326172150312,
,,30MonoWAV/30MonoH2.wav,2,2,1,6,,,,,0,0,0,5,,,,,,,,,,,,,,,024,001,2019_May_13_1509,MusicAffectPsychophysiology2019,3.0.5,60.29326172150312,
To what extent did the music make you feel ,TENDER,30MonoWAV/30MonoT3.wav,2,1,4,15,,,,,0,1,1,14,0,0,0,10,,,2,4.140715071000159,5,2.1691500919987448,5,2.6519460609997623,4,2.4848102510004537,024,001,2019_May_13_1509,MusicAffectPsychophysiology2019,3.0.5,60.29326172150312,
To what extent did the music make you feel ,ALERT,30MonoWAV/30MonoT3.wav,2,1,4,15,,,,,0,1,1,14,0,1,1,8,,,,,,,,,2,1.502494979009498,024,001,2019_May_13_1509,MusicAffectPsychophysiology2019,3.0.5,60.29326172150312,
To what extent did the music make you feel ,ANXIOUS ,30MonoWAV/30MonoT3.wav,2,1,4,15,,,,,0,1,1,14,0,2,2,1,,,,,,,,,1,0.9686701499886112,024,001,2019_May_13_1509,MusicAffectPsychophysiology2019,3.0.5,60.29326172150312,
To what extent did the music make you feel ,ACTIVE,30MonoWAV/30MonoT3.wav,2,1,4,15,,,,,0,1,1,14,0,3,3,9,,,,,,,,,2,2.3338416800106643,024,001,2019_May_13_1509,MusicAffectPsychophysiology2019,3.0.5,60.29326172150312,
To what extent did the music make you feel ,ANGRY,30MonoWAV/30MonoT3.wav,2,1,4,15,,,,,0,1,1,14,0,4,4,2,,,,,,,,,1,1.1350351790024433,024,001,2019_May_13_1509,MusicAffectPsychophysiology2019,3.0.5,60.29326172150312,
To what extent did the music make you feel ,ASHAMED,30MonoWAV/30MonoT3.wav,2,1,4,15,,,,,0,1,1,14,0,5,5,4,,,,,,,,,1,0.6347050040058093,024,001,2019_May_13_1509,MusicAffectPsychophysiology2019,3.0.5,60.29326172150312,
To what extent did the music make you feel ,SAD,30MonoWAV/30MonoT3.wav,2,1,4,15,,,,,0,1,1,14,0,6,6,0,,,,,,,,,1,0.6346095569897443,024,001,2019_May_13_1509,MusicAffectPsychophysiology2019,3.0.5,60.29326172150312,
To what extent did the music make you feel ,EXCITED,30MonoWAV/30MonoT3.wav,2,1,4,15,,,,,0,1,1,14,0,7,7,7,,,,,,,,,3,1.6665062309912173,024,001,2019_May_13_1509,MusicAffectPsychophysiology2019,3.0.5,60.29326172150312,
To what extent did the music make you feel ,FRUSTRATED,30MonoWAV/30MonoT3.wav,2,1,4,15,,,,,0,1,1,14,0,8,8,3,,,,,,,,,1,1.4513622950034915,024,001,2019_May_13_1509,MusicAffectPsychophysiology2019,3.0.5,60.29326172150312,
To what extent did the music make you feel ,GUILTY,30MonoWAV/30MonoT3.wav,2,1,4,15,,,,,0,1,1,14,0,9,9,5,,,,,,,,,1,0.8519536199892173,024,001,2019_May_13_1509,MusicAffectPsychophysiology2019,3.0.5,60.29326172150312,
To what extent did the music make you feel ,SCARED,30MonoWAV/30MonoT3.wav,2,1,4,15,,,,,0,1,1,14,0,10,10,11,,,,,,,,,1,1.0852599339996232,024,001,2019_May_13_1509,MusicAffectPsychophysiology2019,3.0.5,60.29326172150312,
To what extent did the music make you feel ,HAPPY,30MonoWAV/30MonoT3.wav,2,1,4,15,,,,,0,1,1,14,0,11,11,6,,,,,,,,,4,4.235091262002243,024,001,2019_May_13_1509,MusicAffectPsychophysiology2019,3.0.5,60.29326172150312,
,,30MonoWAV/30MonoT3.wav,2,1,4,15,,,,,0,1,1,14,,,,,,,,,,,,,,,024,001,2019_May_13_1509,MusicAffectPsychophysiology2019,3.0.5,60.29326172150312,
To what extent did the music make you feel ,EXCITED,30MonoWAV/30MonoS2.wav,1,1,3,10,,,,,0,2,2,9,0,0,0,7,,,1,4.15126402999158,3,2.81738884600054,3,2.384952243999578,1,3.9837754019972635,024,001,2019_May_13_1509,MusicAffectPsychophysiology2019,3.0.5,60.29326172150312,
To what extent did the music make you feel ,ANGRY,30MonoWAV/30MonoS2.wav,1,1,3,10,,,,,0,2,2,9,0,1,1,2,,,,,,,,,1,1.9027062969980761,024,001,2019_May_13_1509,MusicAffectPsychophysiology2019,3.0.5,60.29326172150312,
To what extent did the music make you feel ,SCARED,30MonoWAV/30MonoS2.wav,1,1,3,10,,,,,0,2,2,9,0,2,2,11,,,,,,,,,1,1.2851789400010603,024,001,2019_May_13_1509,MusicAffectPsychophysiology2019,3.0.5,60.29326172150312,
To what extent did the music make you feel ,ACTIVE,30MonoWAV/30MonoS2.wav,1,1,3,10,,,,,0,2,2,9,0,3,3,9,,,,,,,,,2,1.7509502320026513,024,001,2019_May_13_1509,MusicAffectPsychophysiology2019,3.0.5,60.29326172150312,
To what extent did the music make you feel ,ASHAMED,30MonoWAV/30MonoS2.wav,1,1,3,10,,,,,0,2,2,9,0,4,4,4,,,,,,,,,1,3.1679183240048587,024,001,2019_May_13_1509,MusicAffectPsychophysiology2019,3.0.5,60.29326172150312,
To what extent did the music make you feel ,ALERT,30MonoWAV/30MonoS2.wav,1,1,3,10,,,,,0,2,2,9,0,5,5,8,,,,,,,,,2,1.5850882899976568,024,001,2019_May_13_1509,MusicAffectPsychophysiology2019,3.0.5,60.29326172150312,
To what extent did the music make you feel ,SAD,30MonoWAV/30MonoS2.wav,1,1,3,10,,,,,0,2,2,9,0,6,6,0,,,,,,,,,3,1.8848393149964977,024,001,2019_May_13_1509,MusicAffectPsychophysiology2019,3.0.5,60.29326172150312,
To what extent did the music make you feel ,FRUSTRATED,30MonoWAV/30MonoS2.wav,1,1,3,10,,,,,0,2,2,9,0,7,7,3,,,,,,,,,2,2.2679150789917912,024,001,2019_May_13_1509,MusicAffectPsychophysiology2019,3.0.5,60.29326172150312,
To what extent did the music make you feel ,ANXIOUS ,30MonoWAV/30MonoS2.wav,1,1,3,10,,,,,0,2,2,9,0,8,8,1,,,,,,,,,2,3.1689139079971937,024,001,2019_May_13_1509,MusicAffectPsychophysiology2019,3.0.5,60.29326172150312,
To what extent did the music make you feel ,GUILTY,30MonoWAV/30MonoS2.wav,1,1,3,10,,,,,0,2,2,9,0,9,9,5,,,,,,,,,2,3.00194392199046,024,001,2019_May_13_1509,MusicAffectPsychophysiology2019,3.0.5,60.29326172150312,
To what extent did the music make you feel ,HAPPY,30MonoWAV/30MonoS2.wav,1,1,3,10,,,,,0,2,2,9,0,10,10,6,,,,,,,,,1,1.7504557659995044,024,001,2019_May_13_1509,MusicAffectPsychophysiology2019,3.0.5,60.29326172150312,
To what extent did the music make you feel ,TENDER,30MonoWAV/30MonoS2.wav,1,1,3,10,,,,,0,2,2,9,0,11,11,10,,,,,,,,,2,2.5180579340085387,024,001,2019_May_13_1509,MusicAffectPsychophysiology2019,3.0.5,60.29326172150312,
,,30MonoWAV/30MonoS2.wav,1,1,3,10,,,,,0,2,2,9,,,,,,,,,,,,,,,024,001,2019_May_13_1509,MusicAffectPsychophysiology2019,3.0.5,60.29326172150312,
To what extent did the music make you feel ,ASHAMED,30MonoWAV/30MonoS3.wav,1,1,3,11,,,,,0,3,3,10,0,0,0,4,,,1,3.602107472004718,1,2.467767301990534,3,1.6837577419937588,2,6.883854066996719,024,001,2019_May_13_1509,MusicAffectPsychophysiology2019,3.0.5,60.29326172150312,
To what extent did the music make you feel ,TENDER,30MonoWAV/30MonoS3.wav,1,1,3,11,,,,,0,3,3,10,0,1,1,10,,,,,,,,,1,3.1674085370032117,024,001,2019_May_13_1509,MusicAffectPsychophysiology2019,3.0.5,60.29326172150312,
To what extent did the music make you feel ,GUILTY,30MonoWAV/30MonoS3.wav,1,1,3,11,,,,,0,3,3,10,0,2,2,5,,,,,,,,,3,2.334639220003737,024,001,2019_May_13_1509,MusicAffectPsychophysiology2019,3.0.5,60.29326172150312,
To what extent did the music make you feel ,FRUSTRATED,30MonoWAV/30MonoS3.wav,1,1,3,11,,,,,0,3,3,10,0,3,3,3,,,,,,,,,2,1.1348017799900845,024,001,2019_May_13_1509,MusicAffectPsychophysiology2019,3.0.5,60.29326172150312,
To what extent did the music make you feel ,SAD,30MonoWAV/30MonoS3.wav,1,1,3,11,,,,,0,3,3,10,0,4,4,0,,,,,,,,,3,1.7513655859947903,024,001,2019_May_13_1509,MusicAffectPsychophysiology2019,3.0.5,60.29326172150312,
To what extent did the music make you feel ,SCARED,30MonoWAV/30MonoS3.wav,1,1,3,11,,,,,0,3,3,10,0,5,5,11,,,,,,,,,3,1.7675594089960214,024,001,2019_May_13_1509,MusicAffectPsychophysiology2019,3.0.5,60.29326172150312,
To what extent did the music make you feel ,ANXIOUS ,30MonoWAV/30MonoS3.wav,1,1,3,11,,,,,0,3,3,10,0,6,6,1,,,,,,,,,3,1.5024238409969257,024,001,2019_May_13_1509,MusicAffectPsychophysiology2019,3.0.5,60.29326172150312,
To what extent did the music make you feel ,ANGRY,30MonoWAV/30MonoS3.wav,1,1,3,11,,,,,0,3,3,10,0,7,7,2,,,,,,,,,2,2.16691178700421,024,001,2019_May_13_1509,MusicAffectPsychophysiology2019,3.0.5,60.29326172150312,
To what extent did the music make you feel ,EXCITED,30MonoWAV/30MonoS3.wav,1,1,3,11,,,,,0,3,3,10,0,8,8,7,,,,,,,,,1,1.6877606899943203,024,001,2019_May_13_1509,MusicAffectPsychophysiology2019,3.0.5,60.29326172150312,
To what extent did the music make you feel ,ACTIVE,30MonoWAV/30MonoS3.wav,1,1,3,11,,,,,0,3,3,10,0,9,9,9,,,,,,,,,1,2.1220672619965626,024,001,2019_May_13_1509,MusicAffectPsychophysiology2019,3.0.5,60.29326172150312,
To what extent did the music make you feel ,HAPPY,30MonoWAV/30MonoS3.wav,1,1,3,11,,,,,0,3,3,10,0,10,10,6,,,,,,,,,1,8.627422302000923,024,001,2019_May_13_1509,MusicAffectPsychophysiology2019,3.0.5,60.29326172150312,
To what extent did the music make you feel ,ALERT,30MonoWAV/30MonoS3.wav,1,1,3,11,,,,,0,3,3,10,0,11,11,8,,,,,,,,,2,1.1515431080042617,024,001,2019_May_13_1509,MusicAffectPsychophysiology2019,3.0.5,60.29326172150312,
,,30MonoWAV/30MonoS3.wav,1,1,3,11,,,,,0,3,3,10,,,,,,,,,,,,,,,024,001,2019_May_13_1509,MusicAffectPsychophysiology2019,3.0.5,60.29326172150312,
To what extent did the music make you feel ,EXCITED,30MonoWAV/30MonoH4.wav,2,2,1,8,,,,,0,4,4,7,0,0,0,7,,,5,3.2346361270028865,4,2.0190333549981005,3,1.6850324100087164,3,5.320310031005647,024,001,2019_May_13_1509,MusicAffectPsychophysiology2019,3.0.5,60.29326172150312,
To what extent did the music make you feel ,ACTIVE,30MonoWAV/30MonoH4.wav,2,2,1,8,,,,,0,4,4,7,0,1,1,9,,,,,,,,,4,1.6698508169938577,024,001,2019_May_13_1509,MusicAffectPsychophysiology2019,3.0.5,60.29326172150312,
To what extent did the music make you feel ,HAPPY,30MonoWAV/30MonoH4.wav,2,2,1,8,,,,,0,4,4,7,0,2,2,6,,,,,,,,,5,2.2023013519938104,024,001,2019_May_13_1509,MusicAffectPsychophysiology2019,3.0.5,60.29326172150312,
To what extent did the music make you feel ,ALERT,30MonoWAV/30MonoH4.wav,2,2,1,8,,,,,0,4,4,7,0,3,3,8,,,,,,,,,5,1.967700615990907,024,001,2019_May_13_1509,MusicAffectPsychophysiology2019,3.0.5,60.29326172150312,
To what extent did the music make you feel ,TENDER,30MonoWAV/30MonoH4.wav,2,2,1,8,,,,,0,4,4,7,0,4,4,10,,,,,,,,,2,2.1006837029999588,024,001,2019_May_13_1509,MusicAffectPsychophysiology2019,3.0.5,60.29326172150312,
To what extent did the music make you feel ,SAD,30MonoWAV/30MonoH4.wav,2,2,1,8,,,,,0,4,4,7,0,5,5,0,,,,,,,,,1,0.918132927006809,024,001,2019_May_13_1509,MusicAffectPsychophysiology2019,3.0.5,60.29326172150312,
To what extent did the music make you feel ,GUILTY,30MonoWAV/30MonoH4.wav,2,2,1,8,,,,,0,4,4,7,0,6,6,5,,,,,,,,,1,0.7193795929924818,024,001,2019_May_13_1509,MusicAffectPsychophysiology2019,3.0.5,60.29326172150312,
To what extent did the music make you feel ,SCARED,30MonoWAV/30MonoH4.wav,2,2,1,8,,,,,0,4,4,7,0,7,7,11,,,,,,,,,1,0.6017116049915785,024,001,2019_May_13_1509,MusicAffectPsychophysiology2019,3.0.5,60.29326172150312,
To what extent did the music make you feel ,ANGRY,30MonoWAV/30MonoH4.wav,2,2,1,8,,,,,0,4,4,7,0,8,8,2,,,,,,,,,1,2.685670595994452,024,001,2019_May_13_1509,MusicAffectPsychophysiology2019,3.0.5,60.29326172150312,
To what extent did the music make you feel ,FRUSTRATED,30MonoWAV/30MonoH4.wav,2,2,1,8,,,,,0,4,4,7,0,9,9,3,,,,,,,,,1,0.7520802359940717,024,001,2019_May_13_1509,MusicAffectPsychophysiology2019,3.0.5,60.29326172150312,
To what extent did the music make you feel ,ASHAMED,30MonoWAV/30MonoH4.wav,2,2,1,8,,,,,0,4,4,7,0,10,10,4,,,,,,,,,1,0.4855046860029688,024,001,2019_May_13_1509,MusicAffectPsychophysiology2019,3.0.5,60.29326172150312,
To what extent did the music make you feel ,ANXIOUS ,30MonoWAV/30MonoH4.wav,2,2,1,8,,,,,0,4,4,7,0,11,11,1,,,,,,,,,1,0.7172901699959766,024,001,2019_May_13_1509,MusicAffectPsychophysiology2019,3.0.5,60.29326172150312,
,,30MonoWAV/30MonoH4.wav,2,2,1,8,,,,,0,4,4,7,,,,,,,,,,,,,,,024,001,2019_May_13_1509,MusicAffectPsychophysiology2019,3.0.5,60.29326172150312,
To what extent did the music make you feel ,SCARED,30MonoWAV/30MonoS1.wav,1,1,3,9,,,,,0,5,5,8,0,0,0,11,,,1,3.623022371000843,2,5.935751718003303,3,2.6683564460108755,2,2.569109460004256,024,001,2019_May_13_1509,MusicAffectPsychophysiology2019,3.0.5,60.29326172150312,
To what extent did the music make you feel ,ANGRY,30MonoWAV/30MonoS1.wav,1,1,3,9,,,,,0,5,5,8,0,1,1,2,,,,,,,,,2,2.1488611690001562,024,001,2019_May_13_1509,MusicAffectPsychophysiology2019,3.0.5,60.29326172150312,
To what extent did the music make you feel ,SAD,30MonoWAV/30MonoS1.wav,1,1,3,9,,,,,0,5,5,8,0,2,2,0,,,,,,,,,3,1.6857095239975024,024,001,2019_May_13_1509,MusicAffectPsychophysiology2019,3.0.5,60.29326172150312,
To what extent did the music make you feel ,ASHAMED,30MonoWAV/30MonoS1.wav,1,1,3,9,,,,,0,5,5,8,0,3,3,4,,,,,,,,,3,4.968545569994603,024,001,2019_May_13_1509,MusicAffectPsychophysiology2019,3.0.5,60.29326172150312,
To what extent did the music make you feel ,HAPPY,30MonoWAV/30MonoS1.wav,1,1,3,9,,,,,0,5,5,8,0,4,4,6,,,,,,,,,2,1.7184874290105654,024,001,2019_May_13_1509,MusicAffectPsychophysiology2019,3.0.5,60.29326172150312,
To what extent did the music make you feel ,EXCITED,30MonoWAV/30MonoS1.wav,1,1,3,9,,,,,0,5,5,8,0,5,5,7,,,,,,,,,1,1.6013954579975689,024,001,2019_May_13_1509,MusicAffectPsychophysiology2019,3.0.5,60.29326172150312,
To what extent did the music make you feel ,FRUSTRATED,30MonoWAV/30MonoS1.wav,1,1,3,9,,,,,0,5,5,8,0,6,6,3,,,,,,,,,3,1.8687810000119498,024,001,2019_May_13_1509,MusicAffectPsychophysiology2019,3.0.5,60.29326172150312,
To what extent did the music make you feel ,TENDER,30MonoWAV/30MonoS1.wav,1,1,3,9,,,,,0,5,5,8,0,7,7,10,,,,,,,,,2,1.917552100989269,024,001,2019_May_13_1509,MusicAffectPsychophysiology2019,3.0.5,60.29326172150312,
To what extent did the music make you feel ,GUILTY,30MonoWAV/30MonoS1.wav,1,1,3,9,,,,,0,5,5,8,0,8,8,5,,,,,,,,,1,2.9695398829935584,024,001,2019_May_13_1509,MusicAffectPsychophysiology2019,3.0.5,60.29326172150312,
To what extent did the music make you feel ,ACTIVE,30MonoWAV/30MonoS1.wav,1,1,3,9,,,,,0,5,5,8,0,9,9,9,,,,,,,,,1,1.3181789140071487,024,001,2019_May_13_1509,MusicAffectPsychophysiology2019,3.0.5,60.29326172150312,
To what extent did the music make you feel ,ANXIOUS ,30MonoWAV/30MonoS1.wav,1,1,3,9,,,,,0,5,5,8,0,10,10,1,,,,,,,,,2,1.751556482995511,024,001,2019_May_13_1509,MusicAffectPsychophysiology2019,3.0.5,60.29326172150312,
To what extent did the music make you feel ,ALERT,30MonoWAV/30MonoS1.wav,1,1,3,9,,,,,0,5,5,8,0,11,11,8,,,,,,,,,1,2.6192739160032943,024,001,2019_May_13_1509,MusicAffectPsychophysiology2019,3.0.5,60.29326172150312,
,,30MonoWAV/30MonoS1.wav,1,1,3,9,,,,,0,5,5,8,,,,,,,,,,,,,,,024,001,2019_May_13_1509,MusicAffectPsychophysiology2019,3.0.5,60.29326172150312,
To what extent did the music make you feel ,ALERT,30MonoWAV/30MonoF2.wav,1,2,2,2,,,,,0,6,6,1,0,0,0,8,,,3,4.220421813995927,1,1.3196855779970065,1,5.45840204799606,5,2.490149104007287,024,001,2019_May_13_1509,MusicAffectPsychophysiology2019,3.0.5,60.29326172150312,
To what extent did the music make you feel ,TENDER,30MonoWAV/30MonoF2.wav,1,2,2,2,,,,,0,6,6,1,0,1,1,10,,,,,,,,,1,1.1191733349987771,024,001,2019_May_13_1509,MusicAffectPsychophysiology2019,3.0.5,60.29326172150312,
To what extent did the music make you feel ,GUILTY,30MonoWAV/30MonoF2.wav,1,2,2,2,,,,,0,6,6,1,0,2,2,5,,,,,,,,,1,1.618796276001376,024,001,2019_May_13_1509,MusicAffectPsychophysiology2019,3.0.5,60.29326172150312,
To what extent did the music make you feel ,ASHAMED,30MonoWAV/30MonoF2.wav,1,2,2,2,,,,,0,6,6,1,0,3,3,4,,,,,,,,,1,0.9851676230027806,024,001,2019_May_13_1509,MusicAffectPsychophysiology2019,3.0.5,60.29326172150312,
To what extent did the music make you feel ,ANXIOUS ,30MonoWAV/30MonoF2.wav,1,2,2,2,,,,,0,6,6,1,0,4,4,1,,,,,,,,,4,1.768413034005789,024,001,2019_May_13_1509,MusicAffectPsychophysiology2019,3.0.5,60.29326172150312,
To what extent did the music make you feel ,SCARED,30MonoWAV/30MonoF2.wav,1,2,2,2,,,,,0,6,6,1,0,5,5,11,,,,,,,,,5,1.8179664079943905,024,001,2019_May_13_1509,MusicAffectPsychophysiology2019,3.0.5,60.29326172150312,
To what extent did the music make you feel ,SAD,30MonoWAV/30MonoF2.wav,1,2,2,2,,,,,0,6,6,1,0,6,6,0,,,,,,,,,1,2.069032863000757,024,001,2019_May_13_1509,MusicAffectPsychophysiology2019,3.0.5,60.29326172150312,
To what extent did the music make you feel ,ANGRY,30MonoWAV/30MonoF2.wav,1,2,2,2,,,,,0,6,6,1,0,7,7,2,,,,,,,,,2,1.9861110009951517,024,001,2019_May_13_1509,MusicAffectPsychophysiology2019,3.0.5,60.29326172150312,
To what extent did the music make you feel ,EXCITED,30MonoWAV/30MonoF2.wav,1,2,2,2,,,,,0,6,6,1,0,8,8,7,,,,,,,,,2,3.5182694560062373,024,001,2019_May_13_1509,MusicAffectPsychophysiology2019,3.0.5,60.29326172150312,
To what extent did the music make you feel ,FRUSTRATED,30MonoWAV/30MonoF2.wav,1,2,2,2,,,,,0,6,6,1,0,9,9,3,,,,,,,,,2,2.153361541000777,024,001,2019_May_13_1509,MusicAffectPsychophysiology2019,3.0.5,60.29326172150312,
To what extent did the music make you feel ,ACTIVE,30MonoWAV/30MonoF2.wav,1,2,2,2,,,,,0,6,6,1,0,10,10,9,,,,,,,,,1,0.9184148329950403,024,001,2019_May_13_1509,MusicAffectPsychophysiology2019,3.0.5,60.29326172150312,
To what extent did the music make you feel ,HAPPY,30MonoWAV/30MonoF2.wav,1,2,2,2,,,,,0,6,6,1,0,11,11,6,,,,,,,,,1,1.2846162379864836,024,001,2019_May_13_1509,MusicAffectPsychophysiology2019,3.0.5,60.29326172150312,
,,30MonoWAV/30MonoF2.wav,1,2,2,2,,,,,0,6,6,1,,,,,,,,,,,,,,,024,001,2019_May_13_1509,MusicAffectPsychophysiology2019,3.0.5,60.29326172150312,
To what extent did the music make you feel ,ASHAMED,30MonoWAV/30MonoS4.wav,1,1,3,12,,,,,0,7,7,11,0,0,0,4,,,1,3.591624814987881,2,5.739814575004857,3,2.053647123000701,3,4.627484122989699,024,001,2019_May_13_1509,MusicAffectPsychophysiology2019,3.0.5,60.29326172150312,
To what extent did the music make you feel ,SAD,30MonoWAV/30MonoS4.wav,1,1,3,12,,,,,0,7,7,11,0,1,1,0,,,,,,,,,3,1.302609426988056,024,001,2019_May_13_1509,MusicAffectPsychophysiology2019,3.0.5,60.29326172150312,
To what extent did the music make you feel ,HAPPY,30MonoWAV/30MonoS4.wav,1,1,3,12,,,,,0,7,7,11,0,2,2,6,,,,,,,,,1,1.9855206709908089,024,001,2019_May_13_1509,MusicAffectPsychophysiology2019,3.0.5,60.29326172150312,
To what extent did the music make you feel ,EXCITED,30MonoWAV/30MonoS4.wav,1,1,3,12,,,,,0,7,7,11,0,3,3,7,,,,,,,,,1,1.3359567119914573,024,001,2019_May_13_1509,MusicAffectPsychophysiology2019,3.0.5,60.29326172150312,
To what extent did the music make you feel ,ALERT,30MonoWAV/30MonoS4.wav,1,1,3,12,,,,,0,7,7,11,0,4,4,8,,,,,,,,,1,1.1353308449906763,024,001,2019_May_13_1509,MusicAffectPsychophysiology2019,3.0.5,60.29326172150312,
To what extent did the music make you feel ,SCARED,30MonoWAV/30MonoS4.wav,1,1,3,12,,,,,0,7,7,11,0,5,5,11,,,,,,,,,2,1.1183622630051104,024,001,2019_May_13_1509,MusicAffectPsychophysiology2019,3.0.5,60.29326172150312,
To what extent did the music make you feel ,GUILTY,30MonoWAV/30MonoS4.wav,1,1,3,12,,,,,0,7,7,11,0,6,6,5,,,,,,,,,2,2.050360098000965,024,001,2019_May_13_1509,MusicAffectPsychophysiology2019,3.0.5,60.29326172150312,
To what extent did the music make you feel ,ACTIVE,30MonoWAV/30MonoS4.wav,1,1,3,12,,,,,0,7,7,11,0,7,7,9,,,,,,,,,1,1.6697753259941237,024,001,2019_May_13_1509,MusicAffectPsychophysiology2019,3.0.5,60.29326172150312,
To what extent did the music make you feel ,ANXIOUS ,30MonoWAV/30MonoS4.wav,1,1,3,12,,,,,0,7,7,11,0,8,8,1,,,,,,,,,2,1.1855834659945685,024,001,2019_May_13_1509,MusicAffectPsychophysiology2019,3.0.5,60.29326172150312,
To what extent did the music make you feel ,FRUSTRATED,30MonoWAV/30MonoS4.wav,1,1,3,12,,,,,0,7,7,11,0,9,9,3,,,,,,,,,2,1.2342957689979812,024,001,2019_May_13_1509,MusicAffectPsychophysiology2019,3.0.5,60.29326172150312,
To what extent did the music make you feel ,TENDER,30MonoWAV/30MonoS4.wav,1,1,3,12,,,,,0,7,7,11,0,10,10,10,,,,,,,,,1,1.1012577400106238,024,001,2019_May_13_1509,MusicAffectPsychophysiology2019,3.0.5,60.29326172150312,
To what extent did the music make you feel ,ANGRY,30MonoWAV/30MonoS4.wav,1,1,3,12,,,,,0,7,7,11,0,11,11,2,,,,,,,,,1,1.0346169300028123,024,001,2019_May_13_1509,MusicAffectPsychophysiology2019,3.0.5,60.29326172150312,
,,30MonoWAV/30MonoS4.wav,1,1,3,12,,,,,0,7,7,11,,,,,,,,,,,,,,,024,001,2019_May_13_1509,MusicAffectPsychophysiology2019,3.0.5,60.29326172150312,
To what extent did the music make you feel ,EXCITED,30MonoWAV/30MonoF3.wav,1,2,2,3,,,,,0,8,8,2,0,0,0,7,,,2,2.6562167100055376,2,2.921825800993247,1,1.1849313889979385,2,5.0388836820056895,024,001,2019_May_13_1509,MusicAffectPsychophysiology2019,3.0.5,60.29326172150312,
To what extent did the music make you feel ,TENDER,30MonoWAV/30MonoF3.wav,1,2,2,3,,,,,0,8,8,2,0,1,1,10,,,,,,,,,1,2.3697506719909143,024,001,2019_May_13_1509,MusicAffectPsychophysiology2019,3.0.5,60.29326172150312,
To what extent did the music make you feel ,GUILTY,30MonoWAV/30MonoF3.wav,1,2,2,3,,,,,0,8,8,2,0,2,2,5,,,,,,,,,1,1.951877047002199,024,001,2019_May_13_1509,MusicAffectPsychophysiology2019,3.0.5,60.29326172150312,
To what extent did the music make you feel ,SAD,30MonoWAV/30MonoF3.wav,1,2,2,3,,,,,0,8,8,2,0,3,3,0,,,,,,,,,1,0.8852127979916986,024,001,2019_May_13_1509,MusicAffectPsychophysiology2019,3.0.5,60.29326172150312,
To what extent did the music make you feel ,HAPPY,30MonoWAV/30MonoF3.wav,1,2,2,3,,,,,0,8,8,2,0,4,4,6,,,,,,,,,1,3.051843936002115,024,001,2019_May_13_1509,MusicAffectPsychophysiology2019,3.0.5,60.29326172150312,
To what extent did the music make you feel ,SCARED,30MonoWAV/30MonoF3.wav,1,2,2,3,,,,,0,8,8,2,0,5,5,11,,,,,,,,,3,1.5334528090024833,024,001,2019_May_13_1509,MusicAffectPsychophysiology2019,3.0.5,60.29326172150312,
To what extent did the music make you feel ,ALERT,30MonoWAV/30MonoF3.wav,1,2,2,3,,,,,0,8,8,2,0,6,6,8,,,,,,,,,3,1.2673625370080117,024,001,2019_May_13_1509,MusicAffectPsychophysiology2019,3.0.5,60.29326172150312,
To what extent did the music make you feel ,ASHAMED,30MonoWAV/30MonoF3.wav,1,2,2,3,,,,,0,8,8,2,0,7,7,4,,,,,,,,,1,2.318819962994894,024,001,2019_May_13_1509,MusicAffectPsychophysiology2019,3.0.5,60.29326172150312,
To what extent did the music make you feel ,ANXIOUS ,30MonoWAV/30MonoF3.wav,1,2,2,3,,,,,0,8,8,2,0,8,8,1,,,,,,,,,3,1.5349503620091127,024,001,2019_May_13_1509,MusicAffectPsychophysiology2019,3.0.5,60.29326172150312,
To what extent did the music make you feel ,FRUSTRATED,30MonoWAV/30MonoF3.wav,1,2,2,3,,,,,0,8,8,2,0,9,9,3,,,,,,,,,2,1.6516308169957483,024,001,2019_May_13_1509,MusicAffectPsychophysiology2019,3.0.5,60.29326172150312,
To what extent did the music make you feel ,ANGRY,30MonoWAV/30MonoF3.wav,1,2,2,3,,,,,0,8,8,2,0,10,10,2,,,,,,,,,2,1.5849721059930744,024,001,2019_May_13_1509,MusicAffectPsychophysiology2019,3.0.5,60.29326172150312,
To what extent did the music make you feel ,ACTIVE,30MonoWAV/30MonoF3.wav,1,2,2,3,,,,,0,8,8,2,0,11,11,9,,,,,,,,,1,1.318320948004839,024,001,2019_May_13_1509,MusicAffectPsychophysiology2019,3.0.5,60.29326172150312,
,,30MonoWAV/30MonoF3.wav,1,2,2,3,,,,,0,8,8,2,,,,,,,,,,,,,,,024,001,2019_May_13_1509,MusicAffectPsychophysiology2019,3.0.5,60.29326172150312,
To what extent did the music make you feel ,ANXIOUS ,30MonoWAV/30MonoF4.wav,1,2,2,4,,,,,0,9,9,3,0,0,0,1,,,4,2.57189393498993,1,2.5692329930025153,3,2.8397420149995014,3,2.9384638920018915,024,001,2019_May_13_1509,MusicAffectPsychophysiology2019,3.0.5,60.29326172150312,
To what extent did the music make you feel ,ANGRY,30MonoWAV/30MonoF4.wav,1,2,2,4,,,,,0,9,9,3,0,1,1,2,,,,,,,,,2,1.304778602992883,024,001,2019_May_13_1509,MusicAffectPsychophysiology2019,3.0.5,60.29326172150312,
To what extent did the music make you feel ,ASHAMED,30MonoWAV/30MonoF4.wav,1,2,2,4,,,,,0,9,9,3,0,2,2,4,,,,,,,,,1,0.9702986149932258,024,001,2019_May_13_1509,MusicAffectPsychophysiology2019,3.0.5,60.29326172150312,
To what extent did the music make you feel ,GUILTY,30MonoWAV/30MonoF4.wav,1,2,2,4,,,,,0,9,9,3,0,3,3,5,,,,,,,,,1,1.0895473260025028,024,001,2019_May_13_1509,MusicAffectPsychophysiology2019,3.0.5,60.29326172150312,
To what extent did the music make you feel ,ALERT,30MonoWAV/30MonoF4.wav,1,2,2,4,,,,,0,9,9,3,0,4,4,8,,,,,,,,,4,1.500046300003305,024,001,2019_May_13_1509,MusicAffectPsychophysiology2019,3.0.5,60.29326172150312,
To what extent did the music make you feel ,TENDER,30MonoWAV/30MonoF4.wav,1,2,2,4,,,,,0,9,9,3,0,5,5,10,,,,,,,,,1,1.8699672180082416,024,001,2019_May_13_1509,MusicAffectPsychophysiology2019,3.0.5,60.29326172150312,
To what extent did the music make you feel ,SCARED,30MonoWAV/30MonoF4.wav,1,2,2,4,,,,,0,9,9,3,0,6,6,11,,,,,,,,,3,1.8185360600036802,024,001,2019_May_13_1509,MusicAffectPsychophysiology2019,3.0.5,60.29326172150312,
To what extent did the music make you feel ,HAPPY,30MonoWAV/30MonoF4.wav,1,2,2,4,,,,,0,9,9,3,0,7,7,6,,,,,,,,,1,1.586116017002496,024,001,2019_May_13_1509,MusicAffectPsychophysiology2019,3.0.5,60.29326172150312,
To what extent did the music make you feel ,FRUSTRATED,30MonoWAV/30MonoF4.wav,1,2,2,4,,,,,0,9,9,3,0,8,8,3,,,,,,,,,1,2.601482775993645,024,001,2019_May_13_1509,MusicAffectPsychophysiology2019,3.0.5,60.29326172150312,
To what extent did the music make you feel ,ACTIVE,30MonoWAV/30MonoF4.wav,1,2,2,4,,,,,0,9,9,3,0,9,9,9,,,,,,,,,3,1.5015633900038665,024,001,2019_May_13_1509,MusicAffectPsychophysiology2019,3.0.5,60.29326172150312,
To what extent did the music make you feel ,SAD,30MonoWAV/30MonoF4.wav,1,2,2,4,,,,,0,9,9,3,0,10,10,0,,,,,,,,,1,1.2004424710030435,024,001,2019_May_13_1509,MusicAffectPsychophysiology2019,3.0.5,60.29326172150312,
To what extent did the music make you feel ,EXCITED,30MonoWAV/30MonoF4.wav,1,2,2,4,,,,,0,9,9,3,0,11,11,7,,,,,,,,,4,2.318612643997767,024,001,2019_May_13_1509,MusicAffectPsychophysiology2019,3.0.5,60.29326172150312,
,,30MonoWAV/30MonoF4.wav,1,2,2,4,,,,,0,9,9,3,,,,,,,,,,,,,,,024,001,2019_May_13_1509,MusicAffectPsychophysiology2019,3.0.5,60.29326172150312,
To what extent did the music make you feel ,ANGRY,30MonoWAV/30MonoT1.wav,2,1,4,13,,,,,0,10,10,12,0,0,0,2,,,2,8.26867201999994,4,1.8175581659888849,2,2.6197421429969836,1,1.6697760920069413,024,001,2019_May_13_1509,MusicAffectPsychophysiology2019,3.0.5,60.29326172150312,
To what extent did the music make you feel ,ASHAMED,30MonoWAV/30MonoT1.wav,2,1,4,13,,,,,0,10,10,12,0,1,1,4,,,,,,,,,1,1.7186072939948644,024,001,2019_May_13_1509,MusicAffectPsychophysiology2019,3.0.5,60.29326172150312,
To what extent did the music make you feel ,HAPPY,30MonoWAV/30MonoT1.wav,2,1,4,13,,,,,0,10,10,12,0,2,2,6,,,,,,,,,4,3.2018132800003514,024,001,2019_May_13_1509,MusicAffectPsychophysiology2019,3.0.5,60.29326172150312,
To what extent did the music make you feel ,GUILTY,30MonoWAV/30MonoT1.wav,2,1,4,13,,,,,0,10,10,12,0,3,3,5,,,,,,,,,1,1.2521833149949089,024,001,2019_May_13_1509,MusicAffectPsychophysiology2019,3.0.5,60.29326172150312,
To what extent did the music make you feel ,ANXIOUS ,30MonoWAV/30MonoT1.wav,2,1,4,13,,,,,0,10,10,12,0,4,4,1,,,,,,,,,1,2.1021047639951576,024,001,2019_May_13_1509,MusicAffectPsychophysiology2019,3.0.5,60.29326172150312,
To what extent did the music make you feel ,ACTIVE,30MonoWAV/30MonoT1.wav,2,1,4,13,,,,,0,10,10,12,0,5,5,9,,,,,,,,,2,1.7850683880096767,024,001,2019_May_13_1509,MusicAffectPsychophysiology2019,3.0.5,60.29326172150312,
To what extent did the music make you feel ,SCARED,30MonoWAV/30MonoT1.wav,2,1,4,13,,,,,0,10,10,12,0,6,6,11,,,,,,,,,1,1.050248831990757,024,001,2019_May_13_1509,MusicAffectPsychophysiology2019,3.0.5,60.29326172150312,
To what extent did the music make you feel ,TENDER,30MonoWAV/30MonoT1.wav,2,1,4,13,,,,,0,10,10,12,0,7,7,10,,,,,,,,,4,1.418172452991712,024,001,2019_May_13_1509,MusicAffectPsychophysiology2019,3.0.5,60.29326172150312,
To what extent did the music make you feel ,ALERT,30MonoWAV/30MonoT1.wav,2,1,4,13,,,,,0,10,10,12,0,8,8,8,,,,,,,,,2,1.9509967749909265,024,001,2019_May_13_1509,MusicAffectPsychophysiology2019,3.0.5,60.29326172150312,
To what extent did the music make you feel ,SAD,30MonoWAV/30MonoT1.wav,2,1,4,13,,,,,0,10,10,12,0,9,9,0,,,,,,,,,1,1.068830264994176,024,001,2019_May_13_1509,MusicAffectPsychophysiology2019,3.0.5,60.29326172150312,
To what extent did the music make you feel ,FRUSTRATED,30MonoWAV/30MonoT1.wav,2,1,4,13,,,,,0,10,10,12,0,10,10,3,,,,,,,,,1,1.3684011699951952,024,001,2019_May_13_1509,MusicAffectPsychophysiology2019,3.0.5,60.29326172150312,
To what extent did the music make you feel ,EXCITED,30MonoWAV/30MonoT1.wav,2,1,4,13,,,,,0,10,10,12,0,11,11,7,,,,,,,,,2,2.368077313003596,024,001,2019_May_13_1509,MusicAffectPsychophysiology2019,3.0.5,60.29326172150312,
,,30MonoWAV/30MonoT1.wav,2,1,4,13,,,,,0,10,10,12,,,,,,,,,,,,,,,024,001,2019_May_13_1509,MusicAffectPsychophysiology2019,3.0.5,60.29326172150312,
To what extent did the music make you feel ,TENDER,30MonoWAV/30MonoT4.wav,2,1,4,16,,,,,0,11,11,15,0,0,0,10,,,3,7.551369191001868,4,2.650514965003822,3,1.6855289899976924,4,1.669943092012545,024,001,2019_May_13_1509,MusicAffectPsychophysiology2019,3.0.5,60.29326172150312,
To what extent did the music make you feel ,ALERT,30MonoWAV/30MonoT4.wav,2,1,4,16,,,,,0,11,11,15,0,1,1,8,,,,,,,,,2,2.5202920609881403,024,001,2019_May_13_1509,MusicAffectPsychophysiology2019,3.0.5,60.29326172150312,
To what extent did the music make you feel ,FRUSTRATED,30MonoWAV/30MonoT4.wav,2,1,4,16,,,,,0,11,11,15,0,2,2,3,,,,,,,,,1,2.6512872010061983,024,001,2019_May_13_1509,MusicAffectPsychophysiology2019,3.0.5,60.29326172150312,
To what extent did the music make you feel ,ACTIVE,30MonoWAV/30MonoT4.wav,2,1,4,16,,,,,0,11,11,15,0,3,3,9,,,,,,,,,2,1.552264138997998,024,001,2019_May_13_1509,MusicAffectPsychophysiology2019,3.0.5,60.29326172150312,
To what extent did the music make you feel ,ANGRY,30MonoWAV/30MonoT4.wav,2,1,4,16,,,,,0,11,11,15,0,4,4,2,,,,,,,,,1,0.8188970819901442,024,001,2019_May_13_1509,MusicAffectPsychophysiology2019,3.0.5,60.29326172150312,
To what extent did the music make you feel ,ANXIOUS ,30MonoWAV/30MonoT4.wav,2,1,4,16,,,,,0,11,11,15,0,5,5,1,,,,,,,,,1,0.8360189430095488,024,001,2019_May_13_1509,MusicAffectPsychophysiology2019,3.0.5,60.29326172150312,
To what extent did the music make you feel ,SAD,30MonoWAV/30MonoT4.wav,2,1,4,16,,,,,0,11,11,15,0,6,6,0,,,,,,,,,1,0.851855358996545,024,001,2019_May_13_1509,MusicAffectPsychophysiology2019,3.0.5,60.29326172150312,
To what extent did the music make you feel ,HAPPY,30MonoWAV/30MonoT4.wav,2,1,4,16,,,,,0,11,11,15,0,7,7,6,,,,,,,,,4,1.8849448780092644,024,001,2019_May_13_1509,MusicAffectPsychophysiology2019,3.0.5,60.29326172150312,
To what extent did the music make you feel ,ASHAMED,30MonoWAV/30MonoT4.wav,2,1,4,16,,,,,0,11,11,15,0,8,8,4,,,,,,,,,1,1.3693949559965404,024,001,2019_May_13_1509,MusicAffectPsychophysiology2019,3.0.5,60.29326172150312,
To what extent did the music make you feel ,GUILTY,30MonoWAV/30MonoT4.wav,2,1,4,16,,,,,0,11,11,15,0,9,9,5,,,,,,,,,1,0.9010845059965504,024,001,2019_May_13_1509,MusicAffectPsychophysiology2019,3.0.5,60.29326172150312,
To what extent did the music make you feel ,SCARED,30MonoWAV/30MonoT4.wav,2,1,4,16,,,,,0,11,11,15,0,10,10,11,,,,,,,,,1,0.8690232219960308,024,001,2019_May_13_1509,MusicAffectPsychophysiology2019,3.0.5,60.29326172150312,
To what extent did the music make you feel ,EXCITED,30MonoWAV/30MonoT4.wav,2,1,4,16,,,,,0,11,11,15,0,11,11,7,,,,,,,,,3,3.656023326009745,024,001,2019_May_13_1509,MusicAffectPsychophysiology2019,3.0.5,60.29326172150312,
,,30MonoWAV/30MonoT4.wav,2,1,4,16,,,,,0,11,11,15,,,,,,,,,,,,,,,024,001,2019_May_13_1509,MusicAffectPsychophysiology2019,3.0.5,60.29326172150312,
To what extent did the music make you feel ,ANGRY,30MonoWAV/30MonoT2.wav,2,1,4,14,,,,,0,12,12,13,0,0,0,2,,,2,4.40145405101066,5,1.900158995995298,4,2.5015149880055105,1,1.5020606250036508,024,001,2019_May_13_1509,MusicAffectPsychophysiology2019,3.0.5,60.29326172150312,
To what extent did the music make you feel ,HAPPY,30MonoWAV/30MonoT2.wav,2,1,4,14,,,,,0,12,12,13,0,1,1,6,,,,,,,,,3,1.4359591160027776,024,001,2019_May_13_1509,MusicAffectPsychophysiology2019,3.0.5,60.29326172150312,
To what extent did the music make you feel ,SCARED,30MonoWAV/30MonoT2.wav,2,1,4,14,,,,,0,12,12,13,0,2,2,11,,,,,,,,,1,1.1863919750030618,024,001,2019_May_13_1509,MusicAffectPsychophysiology2019,3.0.5,60.29326172150312,
To what extent did the music make you feel ,FRUSTRATED,30MonoWAV/30MonoT2.wav,2,1,4,14,,,,,0,12,12,13,0,3,3,3,,,,,,,,,1,1.0196214919997146,024,001,2019_May_13_1509,MusicAffectPsychophysiology2019,3.0.5,60.29326172150312,
To what extent did the music make you feel ,ALERT,30MonoWAV/30MonoT2.wav,2,1,4,14,,,,,0,12,12,13,0,4,4,8,,,,,,,,,2,1.4523207169986563,024,001,2019_May_13_1509,MusicAffectPsychophysiology2019,3.0.5,60.29326172150312,
To what extent did the music make you feel ,GUILTY,30MonoWAV/30MonoT2.wav,2,1,4,14,,,,,0,12,12,13,0,5,5,5,,,,,,,,,1,0.9344865059974836,024,001,2019_May_13_1509,MusicAffectPsychophysiology2019,3.0.5,60.29326172150312,
To what extent did the music make you feel ,SAD,30MonoWAV/30MonoT2.wav,2,1,4,14,,,,,0,12,12,13,0,6,6,0,,,,,,,,,1,0.7690899729932426,024,001,2019_May_13_1509,MusicAffectPsychophysiology2019,3.0.5,60.29326172150312,
To what extent did the music make you feel ,TENDER,30MonoWAV/30MonoT2.wav,2,1,4,14,,,,,0,12,12,13,0,7,7,10,,,,,,,,,5,1.284730651997961,024,001,2019_May_13_1509,MusicAffectPsychophysiology2019,3.0.5,60.29326172150312,
To what extent did the music make you feel ,EXCITED,30MonoWAV/30MonoT2.wav,2,1,4,14,,,,,0,12,12,13,0,8,8,7,,,,,,,,,2,2.0873821240093093,024,001,2019_May_13_1509,MusicAffectPsychophysiology2019,3.0.5,60.29326172150312,
To what extent did the music make you feel ,ANXIOUS ,30MonoWAV/30MonoT2.wav,2,1,4,14,,,,,0,12,12,13,0,9,9,1,,,,,,,,,1,1.234454683988588,024,001,2019_May_13_1509,MusicAffectPsychophysiology2019,3.0.5,60.29326172150312,
To what extent did the music make you feel ,ACTIVE,30MonoWAV/30MonoT2.wav,2,1,4,14,,,,,0,12,12,13,0,10,10,9,,,,,,,,,2,1.4847179280041019,024,001,2019_May_13_1509,MusicAffectPsychophysiology2019,3.0.5,60.29326172150312,
To what extent did the music make you feel ,ASHAMED,30MonoWAV/30MonoT2.wav,2,1,4,14,,,,,0,12,12,13,0,11,11,4,,,,,,,,,1,0.9016566909995163,024,001,2019_May_13_1509,MusicAffectPsychophysiology2019,3.0.5,60.29326172150312,
,,30MonoWAV/30MonoT2.wav,2,1,4,14,,,,,0,12,12,13,,,,,,,,,,,,,,,024,001,2019_May_13_1509,MusicAffectPsychophysiology2019,3.0.5,60.29326172150312,
To what extent did the music make you feel ,SCARED,30MonoWAV/30MonoH3.wav,2,2,1,7,,,,,0,13,13,6,0,0,0,11,,,4,3.167766106998897,4,1.3511479919980047,4,2.9369871279923245,1,1.5186143210012233,024,001,2019_May_13_1509,MusicAffectPsychophysiology2019,3.0.5,60.29326172150312,
To what extent did the music make you feel ,ANGRY,30MonoWAV/30MonoH3.wav,2,2,1,7,,,,,0,13,13,6,0,1,1,2,,,,,,,,,1,0.7012745960091706,024,001,2019_May_13_1509,MusicAffectPsychophysiology2019,3.0.5,60.29326172150312,
To what extent did the music make you feel ,ANXIOUS ,30MonoWAV/30MonoH3.wav,2,2,1,7,,,,,0,13,13,6,0,2,2,1,,,,,,,,,1,0.752242769987788,024,001,2019_May_13_1509,MusicAffectPsychophysiology2019,3.0.5,60.29326172150312,
To what extent did the music make you feel ,TENDER,30MonoWAV/30MonoH3.wav,2,2,1,7,,,,,0,13,13,6,0,3,3,10,,,,,,,,,2,2.4675979769963305,024,001,2019_May_13_1509,MusicAffectPsychophysiology2019,3.0.5,60.29326172150312,
To what extent did the music make you feel ,EXCITED,30MonoWAV/30MonoH3.wav,2,2,1,7,,,,,0,13,13,6,0,4,4,7,,,,,,,,,4,1.536354317999212,024,001,2019_May_13_1509,MusicAffectPsychophysiology2019,3.0.5,60.29326172150312,
To what extent did the music make you feel ,ALERT,30MonoWAV/30MonoH3.wav,2,2,1,7,,,,,0,13,13,6,0,5,5,8,,,,,,,,,4,1.1692041609931039,024,001,2019_May_13_1509,MusicAffectPsychophysiology2019,3.0.5,60.29326172150312,
To what extent did the music make you feel ,SAD,30MonoWAV/30MonoH3.wav,2,2,1,7,,,,,0,13,13,6,0,6,6,0,,,,,,,,,1,2.1019827000127407,024,001,2019_May_13_1509,MusicAffectPsychophysiology2019,3.0.5,60.29326172150312,
To what extent did the music make you feel ,GUILTY,30MonoWAV/30MonoH3.wav,2,2,1,7,,,,,0,13,13,6,0,7,7,5,,,,,,,,,1,0.9350117790017975,024,001,2019_May_13_1509,MusicAffectPsychophysiology2019,3.0.5,60.29326172150312,
To what extent did the music make you feel ,ACTIVE,30MonoWAV/30MonoH3.wav,2,2,1,7,,,,,0,13,13,6,0,8,8,9,,,,,,,,,2,2.2679491029994097,024,001,2019_May_13_1509,MusicAffectPsychophysiology2019,3.0.5,60.29326172150312,
To what extent did the music make you feel ,ASHAMED,30MonoWAV/30MonoH3.wav,2,2,1,7,,,,,0,13,13,6,0,9,9,4,,,,,,,,,1,0.9684407109889435,024,001,2019_May_13_1509,MusicAffectPsychophysiology2019,3.0.5,60.29326172150312,
To what extent did the music make you feel ,FRUSTRATED,30MonoWAV/30MonoH3.wav,2,2,1,7,,,,,0,13,13,6,0,10,10,3,,,,,,,,,1,6.1510404880100396,024,001,2019_May_13_1509,MusicAffectPsychophysiology2019,3.0.5,60.29326172150312,
To what extent did the music make you feel ,HAPPY,30MonoWAV/30MonoH3.wav,2,2,1,7,,,,,0,13,13,6,0,11,11,6,,,,,,,,,3,1.8856142860022373,024,001,2019_May_13_1509,MusicAffectPsychophysiology2019,3.0.5,60.29326172150312,
,,30MonoWAV/30MonoH3.wav,2,2,1,7,,,,,0,13,13,6,,,,,,,,,,,,,,,024,001,2019_May_13_1509,MusicAffectPsychophysiology2019,3.0.5,60.29326172150312,
To what extent did the music make you feel ,TENDER,30MonoWAV/30MonoH1.wav,2,2,1,5,,,,,0,14,14,4,0,0,0,10,,,4,5.3505830240028445,4,1.9843629600072745,5,1.3183334830100648,1,2.7380483970046043,024,001,2019_May_13_1509,MusicAffectPsychophysiology2019,3.0.5,60.29326172150312,
To what extent did the music make you feel ,SCARED,30MonoWAV/30MonoH1.wav,2,2,1,5,,,,,0,14,14,4,0,1,1,11,,,,,,,,,1,0.7850261050043628,024,001,2019_May_13_1509,MusicAffectPsychophysiology2019,3.0.5,60.29326172150312,
To what extent did the music make you feel ,ANXIOUS ,30MonoWAV/30MonoH1.wav,2,2,1,5,,,,,0,14,14,4,0,2,2,1,,,,,,,,,1,1.201439672993729,024,001,2019_May_13_1509,MusicAffectPsychophysiology2019,3.0.5,60.29326172150312,
To what extent did the music make you feel ,ACTIVE,30MonoWAV/30MonoH1.wav,2,2,1,5,,,,,0,14,14,4,0,3,3,9,,,,,,,,,5,1.701747881990741,024,001,2019_May_13_1509,MusicAffectPsychophysiology2019,3.0.5,60.29326172150312,
To what extent did the music make you feel ,GUILTY,30MonoWAV/30MonoH1.wav,2,2,1,5,,,,,0,14,14,4,0,4,4,5,,,,,,,,,1,0.8515931570000248,024,001,2019_May_13_1509,MusicAffectPsychophysiology2019,3.0.5,60.29326172150312,
To what extent did the music make you feel ,SAD,30MonoWAV/30MonoH1.wav,2,2,1,5,,,,,0,14,14,4,0,5,5,0,,,,,,,,,1,1.4685916360031115,024,001,2019_May_13_1509,MusicAffectPsychophysiology2019,3.0.5,60.29326172150312,
To what extent did the music make you feel ,ANGRY,30MonoWAV/30MonoH1.wav,2,2,1,5,,,,,0,14,14,4,0,6,6,2,,,,,,,,,1,0.9343629139912082,024,001,2019_May_13_1509,MusicAffectPsychophysiology2019,3.0.5,60.29326172150312,
To what extent did the music make you feel ,FRUSTRATED,30MonoWAV/30MonoH1.wav,2,2,1,5,,,,,0,14,14,4,0,7,7,3,,,,,,,,,1,0.5023378680052701,024,001,2019_May_13_1509,MusicAffectPsychophysiology2019,3.0.5,60.29326172150312,
To what extent did the music make you feel ,HAPPY,30MonoWAV/30MonoH1.wav,2,2,1,5,,,,,0,14,14,4,0,8,8,6,,,,,,,,,4,1.2689140809961827,024,001,2019_May_13_1509,MusicAffectPsychophysiology2019,3.0.5,60.29326172150312,
To what extent did the music make you feel ,EXCITED,30MonoWAV/30MonoH1.wav,2,2,1,5,,,,,0,14,14,4,0,9,9,7,,,,,,,,,4,2.3851475840056082,024,001,2019_May_13_1509,MusicAffectPsychophysiology2019,3.0.5,60.29326172150312,
To what extent did the music make you feel ,ASHAMED,30MonoWAV/30MonoH1.wav,2,2,1,5,,,,,0,14,14,4,0,10,10,4,,,,,,,,,1,0.8846373879932798,024,001,2019_May_13_1509,MusicAffectPsychophysiology2019,3.0.5,60.29326172150312,
To what extent did the music make you feel ,ALERT,30MonoWAV/30MonoH1.wav,2,2,1,5,,,,,0,14,14,4,0,11,11,8,,,,,,,,,4,2.5530684419936733,024,001,2019_May_13_1509,MusicAffectPsychophysiology2019,3.0.5,60.29326172150312,
,,30MonoWAV/30MonoH1.wav,2,2,1,5,,,,,0,14,14,4,,,,,,,,,,,,,,,024,001,2019_May_13_1509,MusicAffectPsychophysiology2019,3.0.5,60.29326172150312,
To what extent did the music make you feel ,ASHAMED,30MonoWAV/30MonoF1.wav,1,2,2,1,,,,,0,15,15,0,0,0,0,4,,,4,9.301452981002512,3,3.857244680999429,3,1.6042061269981787,1,1.4864151710062288,024,001,2019_May_13_1509,MusicAffectPsychophysiology2019,3.0.5,60.29326172150312,
To what extent did the music make you feel ,ANGRY,30MonoWAV/30MonoF1.wav,1,2,2,1,,,,,0,15,15,0,0,1,1,2,,,,,,,,,1,3.189108299004147,024,001,2019_May_13_1509,MusicAffectPsychophysiology2019,3.0.5,60.29326172150312,
To what extent did the music make you feel ,SAD,30MonoWAV/30MonoF1.wav,1,2,2,1,,,,,0,15,15,0,0,2,2,0,,,,,,,,,1,0.7205523879965767,024,001,2019_May_13_1509,MusicAffectPsychophysiology2019,3.0.5,60.29326172150312,
To what extent did the music make you feel ,HAPPY,30MonoWAV/30MonoF1.wav,1,2,2,1,,,,,0,15,15,0,0,3,3,6,,,,,,,,,2,1.4357764879969181,024,001,2019_May_13_1509,MusicAffectPsychophysiology2019,3.0.5,60.29326172150312,
To what extent did the music make you feel ,EXCITED,30MonoWAV/30MonoF1.wav,1,2,2,1,,,,,0,15,15,0,0,4,4,7,,,,,,,,,3,1.6360756349895382,024,001,2019_May_13_1509,MusicAffectPsychophysiology2019,3.0.5,60.29326172150312,
To what extent did the music make you feel ,TENDER,30MonoWAV/30MonoF1.wav,1,2,2,1,,,,,0,15,15,0,0,5,5,10,,,,,,,,,1,5.368140434002271,024,001,2019_May_13_1509,MusicAffectPsychophysiology2019,3.0.5,60.29326172150312,
To what extent did the music make you feel ,GUILTY,30MonoWAV/30MonoF1.wav,1,2,2,1,,,,,0,15,15,0,0,6,6,5,,,,,,,,,1,0.9345648500020616,024,001,2019_May_13_1509,MusicAffectPsychophysiology2019,3.0.5,60.29326172150312,
To what extent did the music make you feel ,SCARED,30MonoWAV/30MonoF1.wav,1,2,2,1,,,,,0,15,15,0,0,7,7,11,,,,,,,,,2,2.385787193008582,024,001,2019_May_13_1509,MusicAffectPsychophysiology2019,3.0.5,60.29326172150312,
To what extent did the music make you feel ,FRUSTRATED,30MonoWAV/30MonoF1.wav,1,2,2,1,,,,,0,15,15,0,0,8,8,3,,,,,,,,,1,0.9514381710032467,024,001,2019_May_13_1509,MusicAffectPsychophysiology2019,3.0.5,60.29326172150312,
To what extent did the music make you feel ,ALERT,30MonoWAV/30MonoF1.wav,1,2,2,1,,,,,0,15,15,0,0,9,9,8,,,,,,,,,4,1.4863868359971093,024,001,2019_May_13_1509,MusicAffectPsychophysiology2019,3.0.5,60.29326172150312,
To what extent did the music make you feel ,ANXIOUS ,30MonoWAV/30MonoF1.wav,1,2,2,1,,,,,0,15,15,0,0,10,10,1,,,,,,,,,2,1.10103469400201,024,001,2019_May_13_1509,MusicAffectPsychophysiology2019,3.0.5,60.29326172150312,
To what extent did the music make you feel ,ACTIVE,30MonoWAV/30MonoF1.wav,1,2,2,1,,,,,0,15,15,0,0,11,11,9,,,,,,,,,3,2.0845692430011695,024,001,2019_May_13_1509,MusicAffectPsychophysiology2019,3.0.5,60.29326172150312,
,,30MonoWAV/30MonoF1.wav,1,2,2,1,,,,,0,15,15,0,,,,,,,,,,,,,,,024,001,2019_May_13_1509,MusicAffectPsychophysiology2019,3.0.5,60.29326172150312,
To what extent did the music make you feel ,FRUSTRATED,30MonoWAV/30MonoH3.wav,2,2,1,7,,,,,1,0,16,6,0,0,0,3,,,3,5.016643588998704,3,2.2350634430040373,3,1.6854455380089348,1,1.3519248619995778,024,001,2019_May_13_1509,MusicAffectPsychophysiology2019,3.0.5,60.29326172150312,
To what extent did the music make you feel ,ASHAMED,30MonoWAV/30MonoH3.wav,2,2,1,7,,,,,1,0,16,6,0,1,1,4,,,,,,,,,1,3.0179340860049706,024,001,2019_May_13_1509,MusicAffectPsychophysiology2019,3.0.5,60.29326172150312,
To what extent did the music make you feel ,SCARED,30MonoWAV/30MonoH3.wav,2,2,1,7,,,,,1,0,16,6,0,2,2,11,,,,,,,,,1,1.6185480929998448,024,001,2019_May_13_1509,MusicAffectPsychophysiology2019,3.0.5,60.29326172150312,
To what extent did the music make you feel ,EXCITED,30MonoWAV/30MonoH3.wav,2,2,1,7,,,,,1,0,16,6,0,3,3,7,,,,,,,,,3,2.7366521829972044,024,001,2019_May_13_1509,MusicAffectPsychophysiology2019,3.0.5,60.29326172150312,
To what extent did the music make you feel ,GUILTY,30MonoWAV/30MonoH3.wav,2,2,1,7,,,,,1,0,16,6,0,4,4,5,,,,,,,,,1,0.8859896170033608,024,001,2019_May_13_1509,MusicAffectPsychophysiology2019,3.0.5,60.29326172150312,
To what extent did the music make you feel ,ANGRY,30MonoWAV/30MonoH3.wav,2,2,1,7,,,,,1,0,16,6,0,5,5,2,,,,,,,,,1,0.5685383769887267,024,001,2019_May_13_1509,MusicAffectPsychophysiology2019,3.0.5,60.29326172150312,
To what extent did the music make you feel ,ANXIOUS ,30MonoWAV/30MonoH3.wav,2,2,1,7,,,,,1,0,16,6,0,6,6,1,,,,,,,,,1,0.6346742049936438,024,001,2019_May_13_1509,MusicAffectPsychophysiology2019,3.0.5,60.29326172150312,
To what extent did the music make you feel ,TENDER,30MonoWAV/30MonoH3.wav,2,2,1,7,,,,,1,0,16,6,0,7,7,10,,,,,,,,,1,1.7351802939956542,024,001,2019_May_13_1509,MusicAffectPsychophysiology2019,3.0.5,60.29326172150312,
To what extent did the music make you feel ,ALERT,30MonoWAV/30MonoH3.wav,2,2,1,7,,,,,1,0,16,6,0,8,8,8,,,,,,,,,3,3.068718827998964,024,001,2019_May_13_1509,MusicAffectPsychophysiology2019,3.0.5,60.29326172150312,
To what extent did the music make you feel ,ACTIVE,30MonoWAV/30MonoH3.wav,2,2,1,7,,,,,1,0,16,6,0,9,9,9,,,,,,,,,4,1.8353584110009251,024,001,2019_May_13_1509,MusicAffectPsychophysiology2019,3.0.5,60.29326172150312,
To what extent did the music make you feel ,SAD,30MonoWAV/30MonoH3.wav,2,2,1,7,,,,,1,0,16,6,0,10,10,0,,,,,,,,,1,0.817597162007587,024,001,2019_May_13_1509,MusicAffectPsychophysiology2019,3.0.5,60.29326172150312,
To what extent did the music make you feel ,HAPPY,30MonoWAV/30MonoH3.wav,2,2,1,7,,,,,1,0,16,6,0,11,11,6,,,,,,,,,3,1.8326695569994627,024,001,2019_May_13_1509,MusicAffectPsychophysiology2019,3.0.5,60.29326172150312,
,,30MonoWAV/30MonoH3.wav,2,2,1,7,,,,,1,0,16,6,,,,,,,,,,,,,,,024,001,2019_May_13_1509,MusicAffectPsychophysiology2019,3.0.5,60.29326172150312,
To what extent did the music make you feel ,ANXIOUS ,30MonoWAV/30MonoT2.wav,2,1,4,14,,,,,1,1,17,13,0,0,0,1,,,2,2.5694899700029055,4,1.9688221029937267,3,1.8722460370045155,1,2.371506743002101,024,001,2019_May_13_1509,MusicAffectPsychophysiology2019,3.0.5,60.29326172150312,
To what extent did the music make you feel ,FRUSTRATED,30MonoWAV/30MonoT2.wav,2,1,4,14,,,,,1,1,17,13,0,1,1,3,,,,,,,,,2,1.3363584309990983,024,001,2019_May_13_1509,MusicAffectPsychophysiology2019,3.0.5,60.29326172150312,
To what extent did the music make you feel ,SCARED,30MonoWAV/30MonoT2.wav,2,1,4,14,,,,,1,1,17,13,0,2,2,11,,,,,,,,,1,1.4688639619998867,024,001,2019_May_13_1509,MusicAffectPsychophysiology2019,3.0.5,60.29326172150312,
To what extent did the music make you feel ,HAPPY,30MonoWAV/30MonoT2.wav,2,1,4,14,,,,,1,1,17,13,0,3,3,6,,,,,,,,,3,2.2914620860101422,024,001,2019_May_13_1509,MusicAffectPsychophysiology2019,3.0.5,60.29326172150312,
To what extent did the music make you feel ,TENDER,30MonoWAV/30MonoT2.wav,2,1,4,14,,,,,1,1,17,13,0,4,4,10,,,,,,,,,3,1.8005495569959749,024,001,2019_May_13_1509,MusicAffectPsychophysiology2019,3.0.5,60.29326172150312,
To what extent did the music make you feel ,EXCITED,30MonoWAV/30MonoT2.wav,2,1,4,14,,,,,1,1,17,13,0,5,5,7,,,,,,,,,2,1.3185329440020723,024,001,2019_May_13_1509,MusicAffectPsychophysiology2019,3.0.5,60.29326172150312,
To what extent did the music make you feel ,ASHAMED,30MonoWAV/30MonoT2.wav,2,1,4,14,,,,,1,1,17,13,0,6,6,4,,,,,,,,,1,0.7857448539871257,024,001,2019_May_13_1509,MusicAffectPsychophysiology2019,3.0.5,60.29326172150312,
To what extent did the music make you feel ,ACTIVE,30MonoWAV/30MonoT2.wav,2,1,4,14,,,,,1,1,17,13,0,7,7,9,,,,,,,,,2,1.4356186799996067,024,001,2019_May_13_1509,MusicAffectPsychophysiology2019,3.0.5,60.29326172150312,
To what extent did the music make you feel ,GUILTY,30MonoWAV/30MonoT2.wav,2,1,4,14,,,,,1,1,17,13,0,8,8,5,,,,,,,,,1,0.8011619339958997,024,001,2019_May_13_1509,MusicAffectPsychophysiology2019,3.0.5,60.29326172150312,
To what extent did the music make you feel ,SAD,30MonoWAV/30MonoT2.wav,2,1,4,14,,,,,1,1,17,13,0,9,9,0,,,,,,,,,1,0.9671967070025858,024,001,2019_May_13_1509,MusicAffectPsychophysiology2019,3.0.5,60.29326172150312,
To what extent did the music make you feel ,ALERT,30MonoWAV/30MonoT2.wav,2,1,4,14,,,,,1,1,17,13,0,10,10,8,,,,,,,,,3,1.8684371249983087,024,001,2019_May_13_1509,MusicAffectPsychophysiology2019,3.0.5,60.29326172150312,
To what extent did the music make you feel ,ANGRY,30MonoWAV/30MonoT2.wav,2,1,4,14,,,,,1,1,17,13,0,11,11,2,,,,,,,,,1,0.9001378219982143,024,001,2019_May_13_1509,MusicAffectPsychophysiology2019,3.0.5,60.29326172150312,
,,30MonoWAV/30MonoT2.wav,2,1,4,14,,,,,1,1,17,13,,,,,,,,,,,,,,,024,001,2019_May_13_1509,MusicAffectPsychophysiology2019,3.0.5,60.29326172150312,
To what extent did the music make you feel ,ASHAMED,30MonoWAV/30MonoH4.wav,2,2,1,8,,,,,1,2,18,7,0,0,0,4,,,4,2.7681706139992457,4,1.4021112629998242,4,1.7018835619965103,1,1.1854874510027003,024,001,2019_May_13_1509,MusicAffectPsychophysiology2019,3.0.5,60.29326172150312,
To what extent did the music make you feel ,EXCITED,30MonoWAV/30MonoH4.wav,2,2,1,8,,,,,1,2,18,7,0,1,1,7,,,,,,,,,3,2.4019654669973534,024,001,2019_May_13_1509,MusicAffectPsychophysiology2019,3.0.5,60.29326172150312,
To what extent did the music make you feel ,ANXIOUS ,30MonoWAV/30MonoH4.wav,2,2,1,8,,,,,1,2,18,7,0,2,2,1,,,,,,,,,1,0.9176773389917798,024,001,2019_May_13_1509,MusicAffectPsychophysiology2019,3.0.5,60.29326172150312,
To what extent did the music make you feel ,TENDER,30MonoWAV/30MonoH4.wav,2,2,1,8,,,,,1,2,18,7,0,3,3,10,,,,,,,,,1,1.5678022339998279,024,001,2019_May_13_1509,MusicAffectPsychophysiology2019,3.0.5,60.29326172150312,
To what extent did the music make you feel ,ANGRY,30MonoWAV/30MonoH4.wav,2,2,1,8,,,,,1,2,18,7,0,4,4,2,,,,,,,,,1,0.6018951250007376,024,001,2019_May_13_1509,MusicAffectPsychophysiology2019,3.0.5,60.29326172150312,
To what extent did the music make you feel ,FRUSTRATED,30MonoWAV/30MonoH4.wav,2,2,1,8,,,,,1,2,18,7,0,5,5,3,,,,,,,,,1,0.5841239369910909,024,001,2019_May_13_1509,MusicAffectPsychophysiology2019,3.0.5,60.29326172150312,
To what extent did the music make you feel ,HAPPY,30MonoWAV/30MonoH4.wav,2,2,1,8,,,,,1,2,18,7,0,6,6,6,,,,,,,,,5,1.6002424939943012,024,001,2019_May_13_1509,MusicAffectPsychophysiology2019,3.0.5,60.29326172150312,
To what extent did the music make you feel ,ALERT,30MonoWAV/30MonoH4.wav,2,2,1,8,,,,,1,2,18,7,0,7,7,8,,,,,,,,,4,1.66759229300078,024,001,2019_May_13_1509,MusicAffectPsychophysiology2019,3.0.5,60.29326172150312,
To what extent did the music make you feel ,SCARED,30MonoWAV/30MonoH4.wav,2,2,1,8,,,,,1,2,18,7,0,8,8,11,,,,,,,,,1,1.0520695540035376,024,001,2019_May_13_1509,MusicAffectPsychophysiology2019,3.0.5,60.29326172150312,
To what extent did the music make you feel ,SAD,30MonoWAV/30MonoH4.wav,2,2,1,8,,,,,1,2,18,7,0,9,9,0,,,,,,,,,1,0.6348486690112622,024,001,2019_May_13_1509,MusicAffectPsychophysiology2019,3.0.5,60.29326172150312,
To what extent did the music make you feel ,ACTIVE,30MonoWAV/30MonoH4.wav,2,2,1,8,,,,,1,2,18,7,0,10,10,9,,,,,,,,,4,1.3848950850078836,024,001,2019_May_13_1509,MusicAffectPsychophysiology2019,3.0.5,60.29326172150312,
To what extent did the music make you feel ,GUILTY,30MonoWAV/30MonoH4.wav,2,2,1,8,,,,,1,2,18,7,0,11,11,5,,,,,,,,,1,0.9017960480123293,024,001,2019_May_13_1509,MusicAffectPsychophysiology2019,3.0.5,60.29326172150312,
,,30MonoWAV/30MonoH4.wav,2,2,1,8,,,,,1,2,18,7,,,,,,,,,,,,,,,024,001,2019_May_13_1509,MusicAffectPsychophysiology2019,3.0.5,60.29326172150312,
To what extent did the music make you feel ,TENDER,30MonoWAV/30MonoH1.wav,2,2,1,5,,,,,1,3,19,4,0,0,0,10,,,4,3.255526770997676,4,2.084607053999207,5,1.4855014930071775,1,3.8360713190049864,024,001,2019_May_13_1509,MusicAffectPsychophysiology2019,3.0.5,60.29326172150312,
To what extent did the music make you feel ,ALERT,30MonoWAV/30MonoH1.wav,2,2,1,5,,,,,1,3,19,4,0,1,1,8,,,,,,,,,5,2.0015714350010967,024,001,2019_May_13_1509,MusicAffectPsychophysiology2019,3.0.5,60.29326172150312,
To what extent did the music make you feel ,HAPPY,30MonoWAV/30MonoH1.wav,2,2,1,5,,,,,1,3,19,4,0,2,2,6,,,,,,,,,4,1.5691126969904872,024,001,2019_May_13_1509,MusicAffectPsychophysiology2019,3.0.5,60.29326172150312,
To what extent did the music make you feel ,GUILTY,30MonoWAV/30MonoH1.wav,2,2,1,5,,,,,1,3,19,4,0,3,3,5,,,,,,,,,1,1.0682115000090562,024,001,2019_May_13_1509,MusicAffectPsychophysiology2019,3.0.5,60.29326172150312,
To what extent did the music make you feel ,ANXIOUS ,30MonoWAV/30MonoH1.wav,2,2,1,5,,,,,1,3,19,4,0,4,4,1,,,,,,,,,1,0.5183931840001605,024,001,2019_May_13_1509,MusicAffectPsychophysiology2019,3.0.5,60.29326172150312,
To what extent did the music make you feel ,ANGRY,30MonoWAV/30MonoH1.wav,2,2,1,5,,,,,1,3,19,4,0,5,5,2,,,,,,,,,1,0.5018055050022667,024,001,2019_May_13_1509,MusicAffectPsychophysiology2019,3.0.5,60.29326172150312,
To what extent did the music make you feel ,SCARED,30MonoWAV/30MonoH1.wav,2,2,1,5,,,,,1,3,19,4,0,6,6,11,,,,,,,,,1,0.7678868210059591,024,001,2019_May_13_1509,MusicAffectPsychophysiology2019,3.0.5,60.29326172150312,
To what extent did the music make you feel ,SAD,30MonoWAV/30MonoH1.wav,2,2,1,5,,,,,1,3,19,4,0,7,7,0,,,,,,,,,1,0.6013363929960178,024,001,2019_May_13_1509,MusicAffectPsychophysiology2019,3.0.5,60.29326172150312,
To what extent did the music make you feel ,ACTIVE,30MonoWAV/30MonoH1.wav,2,2,1,5,,,,,1,3,19,4,0,8,8,9,,,,,,,,,4,1.6854349810018903,024,001,2019_May_13_1509,MusicAffectPsychophysiology2019,3.0.5,60.29326172150312,
To what extent did the music make you feel ,ASHAMED,30MonoWAV/30MonoH1.wav,2,2,1,5,,,,,1,3,19,4,0,9,9,4,,,,,,,,,1,0.9013045369938482,024,001,2019_May_13_1509,MusicAffectPsychophysiology2019,3.0.5,60.29326172150312,
To what extent did the music make you feel ,EXCITED,30MonoWAV/30MonoH1.wav,2,2,1,5,,,,,1,3,19,4,0,10,10,7,,,,,,,,,4,1.2522114430030342,024,001,2019_May_13_1509,MusicAffectPsychophysiology2019,3.0.5,60.29326172150312,
To what extent did the music make you feel ,FRUSTRATED,30MonoWAV/30MonoH1.wav,2,2,1,5,,,,,1,3,19,4,0,11,11,3,,,,,,,,,1,1.1184653139935108,024,001,2019_May_13_1509,MusicAffectPsychophysiology2019,3.0.5,60.29326172150312,
,,30MonoWAV/30MonoH1.wav,2,2,1,5,,,,,1,3,19,4,,,,,,,,,,,,,,,024,001,2019_May_13_1509,MusicAffectPsychophysiology2019,3.0.5,60.29326172150312,
To what extent did the music make you feel ,HAPPY,30MonoWAV/30MonoF1.wav,1,2,2,1,,,,,1,4,20,0,0,0,0,6,,,3,4.324041703002877,2,1.903144001000328,3,1.485912643998745,1,2.351856201988994,024,001,2019_May_13_1509,MusicAffectPsychophysiology2019,3.0.5,60.29326172150312,
To what extent did the music make you feel ,GUILTY,30MonoWAV/30MonoF1.wav,1,2,2,1,,,,,1,4,20,0,0,1,1,5,,,,,,,,,1,1.6693725770019228,024,001,2019_May_13_1509,MusicAffectPsychophysiology2019,3.0.5,60.29326172150312,
To what extent did the music make you feel ,TENDER,30MonoWAV/30MonoF1.wav,1,2,2,1,,,,,1,4,20,0,0,2,2,10,,,,,,,,,1,1.219112013000995,024,001,2019_May_13_1509,MusicAffectPsychophysiology2019,3.0.5,60.29326172150312,
To what extent did the music make you feel ,ASHAMED,30MonoWAV/30MonoF1.wav,1,2,2,1,,,,,1,4,20,0,0,3,3,4,,,,,,,,,2,1.6511857989971759,024,001,2019_May_13_1509,MusicAffectPsychophysiology2019,3.0.5,60.29326172150312,
To what extent did the music make you feel ,ANXIOUS ,30MonoWAV/30MonoF1.wav,1,2,2,1,,,,,1,4,20,0,0,4,4,1,,,,,,,,,3,1.4693578889855416,024,001,2019_May_13_1509,MusicAffectPsychophysiology2019,3.0.5,60.29326172150312,
To what extent did the music make you feel ,ACTIVE,30MonoWAV/30MonoF1.wav,1,2,2,1,,,,,1,4,20,0,0,5,5,9,,,,,,,,,4,1.8859942569979466,024,001,2019_May_13_1509,MusicAffectPsychophysiology2019,3.0.5,60.29326172150312,
To what extent did the music make you feel ,SAD,30MonoWAV/30MonoF1.wav,1,2,2,1,,,,,1,4,20,0,0,6,6,0,,,,,,,,,1,1.8849157799995737,024,001,2019_May_13_1509,MusicAffectPsychophysiology2019,3.0.5,60.29326172150312,
To what extent did the music make you feel ,ALERT,30MonoWAV/30MonoF1.wav,1,2,2,1,,,,,1,4,20,0,0,7,7,8,,,,,,,,,5,1.8191656400013017,024,001,2019_May_13_1509,MusicAffectPsychophysiology2019,3.0.5,60.29326172150312,
To what extent did the music make you feel ,FRUSTRATED,30MonoWAV/30MonoF1.wav,1,2,2,1,,,,,1,4,20,0,0,8,8,3,,,,,,,,,2,1.3195089979999466,024,001,2019_May_13_1509,MusicAffectPsychophysiology2019,3.0.5,60.29326172150312,
To what extent did the music make you feel ,EXCITED,30MonoWAV/30MonoF1.wav,1,2,2,1,,,,,1,4,20,0,0,9,9,7,,,,,,,,,2,1.4021575880033197,024,001,2019_May_13_1509,MusicAffectPsychophysiology2019,3.0.5,60.29326172150312,
To what extent did the music make you feel ,ANGRY,30MonoWAV/30MonoF1.wav,1,2,2,1,,,,,1,4,20,0,0,10,10,2,,,,,,,,,2,1.5523899420077214,024,001,2019_May_13_1509,MusicAffectPsychophysiology2019,3.0.5,60.29326172150312,
To what extent did the music make you feel ,SCARED,30MonoWAV/30MonoF1.wav,1,2,2,1,,,,,1,4,20,0,0,11,11,11,,,,,,,,,3,1.8831924359983532,024,001,2019_May_13_1509,MusicAffectPsychophysiology2019,3.0.5,60.29326172150312,
,,30MonoWAV/30MonoF1.wav,1,2,2,1,,,,,1,4,20,0,,,,,,,,,,,,,,,024,001,2019_May_13_1509,MusicAffectPsychophysiology2019,3.0.5,60.29326172150312,
To what extent did the music make you feel ,SCARED,30MonoWAV/30MonoH2.wav,2,2,1,6,,,,,1,5,21,5,0,0,0,11,,,3,2.869246852991637,3,2.069808489002753,2,2.218694687995594,1,1.3016015239991248,024,001,2019_May_13_1509,MusicAffectPsychophysiology2019,3.0.5,60.29326172150312,
To what extent did the music make you feel ,SAD,30MonoWAV/30MonoH2.wav,2,2,1,6,,,,,1,5,21,5,0,1,1,0,,,,,,,,,1,0.868199492993881,024,001,2019_May_13_1509,MusicAffectPsychophysiology2019,3.0.5,60.29326172150312,
To what extent did the music make you feel ,EXCITED,30MonoWAV/30MonoH2.wav,2,2,1,6,,,,,1,5,21,5,0,2,2,7,,,,,,,,,3,1.285022472991841,024,001,2019_May_13_1509,MusicAffectPsychophysiology2019,3.0.5,60.29326172150312,
To what extent did the music make you feel ,ASHAMED,30MonoWAV/30MonoH2.wav,2,2,1,6,,,,,1,5,21,5,0,3,3,4,,,,,,,,,1,1.1513530259981053,024,001,2019_May_13_1509,MusicAffectPsychophysiology2019,3.0.5,60.29326172150312,
To what extent did the music make you feel ,ANGRY,30MonoWAV/30MonoH2.wav,2,2,1,6,,,,,1,5,21,5,0,4,4,2,,,,,,,,,1,1.5325616030022502,024,001,2019_May_13_1509,MusicAffectPsychophysiology2019,3.0.5,60.29326172150312,
To what extent did the music make you feel ,TENDER,30MonoWAV/30MonoH2.wav,2,2,1,6,,,,,1,5,21,5,0,5,5,10,,,,,,,,,1,1.7346913610090269,024,001,2019_May_13_1509,MusicAffectPsychophysiology2019,3.0.5,60.29326172150312,
To what extent did the music make you feel ,ALERT,30MonoWAV/30MonoH2.wav,2,2,1,6,,,,,1,5,21,5,0,6,6,8,,,,,,,,,2,2.019010859003174,024,001,2019_May_13_1509,MusicAffectPsychophysiology2019,3.0.5,60.29326172150312,
To what extent did the music make you feel ,ACTIVE,30MonoWAV/30MonoH2.wav,2,2,1,6,,,,,1,5,21,5,0,7,7,9,,,,,,,,,3,1.4021271620003972,024,001,2019_May_13_1509,MusicAffectPsychophysiology2019,3.0.5,60.29326172150312,
To what extent did the music make you feel ,FRUSTRATED,30MonoWAV/30MonoH2.wav,2,2,1,6,,,,,1,5,21,5,0,8,8,3,,,,,,,,,1,1.5847649710049154,024,001,2019_May_13_1509,MusicAffectPsychophysiology2019,3.0.5,60.29326172150312,
To what extent did the music make you feel ,ANXIOUS ,30MonoWAV/30MonoH2.wav,2,2,1,6,,,,,1,5,21,5,0,9,9,1,,,,,,,,,1,0.6829889840009855,024,001,2019_May_13_1509,MusicAffectPsychophysiology2019,3.0.5,60.29326172150312,
To what extent did the music make you feel ,HAPPY,30MonoWAV/30MonoH2.wav,2,2,1,6,,,,,1,5,21,5,0,10,10,6,,,,,,,,,3,3.1352876799937803,024,001,2019_May_13_1509,MusicAffectPsychophysiology2019,3.0.5,60.29326172150312,
To what extent did the music make you feel ,GUILTY,30MonoWAV/30MonoH2.wav,2,2,1,6,,,,,1,5,21,5,0,11,11,5,,,,,,,,,1,1.518538588003139,024,001,2019_May_13_1509,MusicAffectPsychophysiology2019,3.0.5,60.29326172150312,
,,30MonoWAV/30MonoH2.wav,2,2,1,6,,,,,1,5,21,5,,,,,,,,,,,,,,,024,001,2019_May_13_1509,MusicAffectPsychophysiology2019,3.0.5,60.29326172150312,
To what extent did the music make you feel ,ANXIOUS ,30MonoWAV/30MonoS1.wav,1,1,3,9,,,,,1,6,22,8,0,0,0,1,,,2,12.766986318005365,2,1.7363113690080354,3,1.8075153249956202,1,2.56909941000049,024,001,2019_May_13_1509,MusicAffectPsychophysiology2019,3.0.5,60.29326172150312,
To what extent did the music make you feel ,GUILTY,30MonoWAV/30MonoS1.wav,1,1,3,9,,,,,1,6,22,8,0,1,1,5,,,,,,,,,3,1.5346188179973979,024,001,2019_May_13_1509,MusicAffectPsychophysiology2019,3.0.5,60.29326172150312,
To what extent did the music make you feel ,HAPPY,30MonoWAV/30MonoS1.wav,1,1,3,9,,,,,1,6,22,8,0,2,2,6,,,,,,,,,2,1.3850554849923356,024,001,2019_May_13_1509,MusicAffectPsychophysiology2019,3.0.5,60.29326172150312,
To what extent did the music make you feel ,ASHAMED,30MonoWAV/30MonoS1.wav,1,1,3,9,,,,,1,6,22,8,0,3,3,4,,,,,,,,,3,1.58653474599123,024,001,2019_May_13_1509,MusicAffectPsychophysiology2019,3.0.5,60.29326172150312,
To what extent did the music make you feel ,FRUSTRATED,30MonoWAV/30MonoS1.wav,1,1,3,9,,,,,1,6,22,8,0,4,4,3,,,,,,,,,3,1.4347781789983856,024,001,2019_May_13_1509,MusicAffectPsychophysiology2019,3.0.5,60.29326172150312,
To what extent did the music make you feel ,ANGRY,30MonoWAV/30MonoS1.wav,1,1,3,9,,,,,1,6,22,8,0,5,5,2,,,,,,,,,2,1.186377681005979,024,001,2019_May_13_1509,MusicAffectPsychophysiology2019,3.0.5,60.29326172150312,
To what extent did the music make you feel ,TENDER,30MonoWAV/30MonoS1.wav,1,1,3,9,,,,,1,6,22,8,0,6,6,10,,,,,,,,,2,8.252009496995015,024,001,2019_May_13_1509,MusicAffectPsychophysiology2019,3.0.5,60.29326172150312,
To what extent did the music make you feel ,SCARED,30MonoWAV/30MonoS1.wav,1,1,3,9,,,,,1,6,22,8,0,7,7,11,,,,,,,,,1,1.7168171900120797,024,001,2019_May_13_1509,MusicAffectPsychophysiology2019,3.0.5,60.29326172150312,
To what extent did the music make you feel ,ACTIVE,30MonoWAV/30MonoS1.wav,1,1,3,9,,,,,1,6,22,8,0,8,8,9,,,,,,,,,2,1.2849359230021946,024,001,2019_May_13_1509,MusicAffectPsychophysiology2019,3.0.5,60.29326172150312,
To what extent did the music make you feel ,EXCITED,30MonoWAV/30MonoS1.wav,1,1,3,9,,,,,1,6,22,8,0,9,9,7,,,,,,,,,1,1.7520129699987592,024,001,2019_May_13_1509,MusicAffectPsychophysiology2019,3.0.5,60.29326172150312,
To what extent did the music make you feel ,SAD,30MonoWAV/30MonoS1.wav,1,1,3,9,,,,,1,6,22,8,0,10,10,0,,,,,,,,,3,1.9508207970065996,024,001,2019_May_13_1509,MusicAffectPsychophysiology2019,3.0.5,60.29326172150312,
To what extent did the music make you feel ,ALERT,30MonoWAV/30MonoS1.wav,1,1,3,9,,,,,1,6,22,8,0,11,11,8,,,,,,,,,2,1.2012016120133922,024,001,2019_May_13_1509,MusicAffectPsychophysiology2019,3.0.5,60.29326172150312,
,,30MonoWAV/30MonoS1.wav,1,1,3,9,,,,,1,6,22,8,,,,,,,,,,,,,,,024,001,2019_May_13_1509,MusicAffectPsychophysiology2019,3.0.5,60.29326172150312,
To what extent did the music make you feel ,SCARED,30MonoWAV/30MonoF4.wav,1,2,2,4,,,,,1,7,23,3,0,0,0,11,,,4,2.9222059699968668,2,1.9404335299914237,3,1.5677181369974278,2,2.4002365240012296,024,001,2019_May_13_1509,MusicAffectPsychophysiology2019,3.0.5,60.29326172150312,
To what extent did the music make you feel ,TENDER,30MonoWAV/30MonoF4.wav,1,2,2,4,,,,,1,7,23,3,0,1,1,10,,,,,,,,,1,0.9683812820003368,024,001,2019_May_13_1509,MusicAffectPsychophysiology2019,3.0.5,60.29326172150312,
To what extent did the music make you feel ,GUILTY,30MonoWAV/30MonoF4.wav,1,2,2,4,,,,,1,7,23,3,0,2,2,5,,,,,,,,,1,1.6349865700030932,024,001,2019_May_13_1509,MusicAffectPsychophysiology2019,3.0.5,60.29326172150312,
To what extent did the music make you feel ,SAD,30MonoWAV/30MonoF4.wav,1,2,2,4,,,,,1,7,23,3,0,3,3,0,,,,,,,,,1,0.8177815870003542,024,001,2019_May_13_1509,MusicAffectPsychophysiology2019,3.0.5,60.29326172150312,
To what extent did the music make you feel ,ACTIVE,30MonoWAV/30MonoF4.wav,1,2,2,4,,,,,1,7,23,3,0,4,4,9,,,,,,,,,4,1.434990575988195,024,001,2019_May_13_1509,MusicAffectPsychophysiology2019,3.0.5,60.29326172150312,
To what extent did the music make you feel ,ASHAMED,30MonoWAV/30MonoF4.wav,1,2,2,4,,,,,1,7,23,3,0,5,5,4,,,,,,,,,1,1.2523305780050578,024,001,2019_May_13_1509,MusicAffectPsychophysiology2019,3.0.5,60.29326172150312,
To what extent did the music make you feel ,ALERT,30MonoWAV/30MonoF4.wav,1,2,2,4,,,,,1,7,23,3,0,6,6,8,,,,,,,,,4,1.8689110889972653,024,001,2019_May_13_1509,MusicAffectPsychophysiology2019,3.0.5,60.29326172150312,
To what extent did the music make you feel ,HAPPY,30MonoWAV/30MonoF4.wav,1,2,2,4,,,,,1,7,23,3,0,7,7,6,,,,,,,,,1,2.734761603001971,024,001,2019_May_13_1509,MusicAffectPsychophysiology2019,3.0.5,60.29326172150312,
To what extent did the music make you feel ,EXCITED,30MonoWAV/30MonoF4.wav,1,2,2,4,,,,,1,7,23,3,0,8,8,7,,,,,,,,,3,1.886169941004482,024,001,2019_May_13_1509,MusicAffectPsychophysiology2019,3.0.5,60.29326172150312,
To what extent did the music make you feel ,ANXIOUS ,30MonoWAV/30MonoF4.wav,1,2,2,4,,,,,1,7,23,3,0,9,9,1,,,,,,,,,3,2.33459575100278,024,001,2019_May_13_1509,MusicAffectPsychophysiology2019,3.0.5,60.29326172150312,
To what extent did the music make you feel ,FRUSTRATED,30MonoWAV/30MonoF4.wav,1,2,2,4,,,,,1,7,23,3,0,10,10,3,,,,,,,,,2,1.386050005996367,024,001,2019_May_13_1509,MusicAffectPsychophysiology2019,3.0.5,60.29326172150312,
To what extent did the music make you feel ,ANGRY,30MonoWAV/30MonoF4.wav,1,2,2,4,,,,,1,7,23,3,0,11,11,2,,,,,,,,,1,1.4183451020071516,024,001,2019_May_13_1509,MusicAffectPsychophysiology2019,3.0.5,60.29326172150312,
,,30MonoWAV/30MonoF4.wav,1,2,2,4,,,,,1,7,23,3,,,,,,,,,,,,,,,024,001,2019_May_13_1509,MusicAffectPsychophysiology2019,3.0.5,60.29326172150312,
To what extent did the music make you feel ,EXCITED,30MonoWAV/30MonoF3.wav,1,2,2,3,,,,,1,8,24,2,0,0,0,7,,,2,3.25515740699484,1,2.7336507479922147,1,2.8677074139995966,2,2.36781608700403,024,001,2019_May_13_1509,MusicAffectPsychophysiology2019,3.0.5,60.29326172150312,
To what extent did the music make you feel ,ALERT,30MonoWAV/30MonoF3.wav,1,2,2,3,,,,,1,8,24,2,0,1,1,8,,,,,,,,,5,1.5678422480123118,024,001,2019_May_13_1509,MusicAffectPsychophysiology2019,3.0.5,60.29326172150312,
To what extent did the music make you feel ,HAPPY,30MonoWAV/30MonoF3.wav,1,2,2,3,,,,,1,8,24,2,0,2,2,6,,,,,,,,,1,1.1524710450030398,024,001,2019_May_13_1509,MusicAffectPsychophysiology2019,3.0.5,60.29326172150312,
To what extent did the music make you feel ,TENDER,30MonoWAV/30MonoF3.wav,1,2,2,3,,,,,1,8,24,2,0,3,3,10,,,,,,,,,1,1.0167723530030344,024,001,2019_May_13_1509,MusicAffectPsychophysiology2019,3.0.5,60.29326172150312,
To what extent did the music make you feel ,ANXIOUS ,30MonoWAV/30MonoF3.wav,1,2,2,3,,,,,1,8,24,2,0,4,4,1,,,,,,,,,3,1.6678475179942325,024,001,2019_May_13_1509,MusicAffectPsychophysiology2019,3.0.5,60.29326172150312,
To what extent did the music make you feel ,ANGRY,30MonoWAV/30MonoF3.wav,1,2,2,3,,,,,1,8,24,2,0,5,5,2,,,,,,,,,2,1.2183573789952789,024,001,2019_May_13_1509,MusicAffectPsychophysiology2019,3.0.5,60.29326172150312,
To what extent did the music make you feel ,ACTIVE,30MonoWAV/30MonoF3.wav,1,2,2,3,,,,,1,8,24,2,0,6,6,9,,,,,,,,,4,1.468884761998197,024,001,2019_May_13_1509,MusicAffectPsychophysiology2019,3.0.5,60.29326172150312,
To what extent did the music make you feel ,GUILTY,30MonoWAV/30MonoF3.wav,1,2,2,3,,,,,1,8,24,2,0,7,7,5,,,,,,,,,1,2.3346084539953154,024,001,2019_May_13_1509,MusicAffectPsychophysiology2019,3.0.5,60.29326172150312,
To what extent did the music make you feel ,ASHAMED,30MonoWAV/30MonoF3.wav,1,2,2,3,,,,,1,8,24,2,0,8,8,4,,,,,,,,,1,0.9857229469926096,024,001,2019_May_13_1509,MusicAffectPsychophysiology2019,3.0.5,60.29326172150312,
To what extent did the music make you feel ,FRUSTRATED,30MonoWAV/30MonoF3.wav,1,2,2,3,,,,,1,8,24,2,0,9,9,3,,,,,,,,,2,1.2188481689954642,024,001,2019_May_13_1509,MusicAffectPsychophysiology2019,3.0.5,60.29326172150312,
To what extent did the music make you feel ,SCARED,30MonoWAV/30MonoF3.wav,1,2,2,3,,,,,1,8,24,2,0,10,10,11,,,,,,,,,3,1.9529086429974996,024,001,2019_May_13_1509,MusicAffectPsychophysiology2019,3.0.5,60.29326172150312,
To what extent did the music make you feel ,SAD,30MonoWAV/30MonoF3.wav,1,2,2,3,,,,,1,8,24,2,0,11,11,0,,,,,,,,,1,1.7354080410004826,024,001,2019_May_13_1509,MusicAffectPsychophysiology2019,3.0.5,60.29326172150312,
,,30MonoWAV/30MonoF3.wav,1,2,2,3,,,,,1,8,24,2,,,,,,,,,,,,,,,024,001,2019_May_13_1509,MusicAffectPsychophysiology2019,3.0.5,60.29326172150312,
To what extent did the music make you feel ,TENDER,30MonoWAV/30MonoS3.wav,1,1,3,11,,,,,1,9,25,10,0,0,0,10,,,1,3.0860405929997796,1,2.119258645005175,3,3.1020195849996526,1,2.1173170630063396,024,001,2019_May_13_1509,MusicAffectPsychophysiology2019,3.0.5,60.29326172150312,
To what extent did the music make you feel ,ANGRY,30MonoWAV/30MonoS3.wav,1,1,3,11,,,,,1,9,25,10,0,1,1,2,,,,,,,,,2,1.7836316079919925,024,001,2019_May_13_1509,MusicAffectPsychophysiology2019,3.0.5,60.29326172150312,
To what extent did the music make you feel ,SAD,30MonoWAV/30MonoS3.wav,1,1,3,11,,,,,1,9,25,10,0,2,2,0,,,,,,,,,3,1.7012688889954006,024,001,2019_May_13_1509,MusicAffectPsychophysiology2019,3.0.5,60.29326172150312,
To what extent did the music make you feel ,FRUSTRATED,30MonoWAV/30MonoS3.wav,1,1,3,11,,,,,1,9,25,10,0,3,3,3,,,,,,,,,2,1.2167059789935593,024,001,2019_May_13_1509,MusicAffectPsychophysiology2019,3.0.5,60.29326172150312,
To what extent did the music make you feel ,ALERT,30MonoWAV/30MonoS3.wav,1,1,3,11,,,,,1,9,25,10,0,4,4,8,,,,,,,,,1,1.5020727789960802,024,001,2019_May_13_1509,MusicAffectPsychophysiology2019,3.0.5,60.29326172150312,
To what extent did the music make you feel ,ASHAMED,30MonoWAV/30MonoS3.wav,1,1,3,11,,,,,1,9,25,10,0,5,5,4,,,,,,,,,2,3.001081009002519,024,001,2019_May_13_1509,MusicAffectPsychophysiology2019,3.0.5,60.29326172150312,
To what extent did the music make you feel ,ACTIVE,30MonoWAV/30MonoS3.wav,1,1,3,11,,,,,1,9,25,10,0,6,6,9,,,,,,,,,2,2.916661389012006,024,001,2019_May_13_1509,MusicAffectPsychophysiology2019,3.0.5,60.29326172150312,
To what extent did the music make you feel ,EXCITED,30MonoWAV/30MonoS3.wav,1,1,3,11,,,,,1,9,25,10,0,7,7,7,,,,,,,,,1,1.3856937119999202,024,001,2019_May_13_1509,MusicAffectPsychophysiology2019,3.0.5,60.29326172150312,
To what extent did the music make you feel ,SCARED,30MonoWAV/30MonoS3.wav,1,1,3,11,,,,,1,9,25,10,0,8,8,11,,,,,,,,,2,1.8506128060107585,024,001,2019_May_13_1509,MusicAffectPsychophysiology2019,3.0.5,60.29326172150312,
To what extent did the music make you feel ,ANXIOUS ,30MonoWAV/30MonoS3.wav,1,1,3,11,,,,,1,9,25,10,0,9,9,1,,,,,,,,,3,2.769140486998367,024,001,2019_May_13_1509,MusicAffectPsychophysiology2019,3.0.5,60.29326172150312,
To what extent did the music make you feel ,HAPPY,30MonoWAV/30MonoS3.wav,1,1,3,11,,,,,1,9,25,10,0,10,10,6,,,,,,,,,1,1.057055778990616,024,001,2019_May_13_1509,MusicAffectPsychophysiology2019,3.0.5,60.29326172150312,
To what extent did the music make you feel ,GUILTY,30MonoWAV/30MonoS3.wav,1,1,3,11,,,,,1,9,25,10,0,11,11,5,,,,,,,,,3,2.105310268001631,024,001,2019_May_13_1509,MusicAffectPsychophysiology2019,3.0.5,60.29326172150312,
,,30MonoWAV/30MonoS3.wav,1,1,3,11,,,,,1,9,25,10,,,,,,,,,,,,,,,024,001,2019_May_13_1509,MusicAffectPsychophysiology2019,3.0.5,60.29326172150312,
To what extent did the music make you feel ,ALERT,30MonoWAV/30MonoS4.wav,1,1,3,12,,,,,1,10,26,11,0,0,0,8,,,1,2.733615638993797,2,1.8530503720103297,3,1.3184859619941562,1,2.49988020901219,024,001,2019_May_13_1509,MusicAffectPsychophysiology2019,3.0.5,60.29326172150312,
To what extent did the music make you feel ,SAD,30MonoWAV/30MonoS4.wav,1,1,3,12,,,,,1,10,26,11,0,1,1,0,,,,,,,,,4,2.166759743995499,024,001,2019_May_13_1509,MusicAffectPsychophysiology2019,3.0.5,60.29326172150312,
To what extent did the music make you feel ,HAPPY,30MonoWAV/30MonoS4.wav,1,1,3,12,,,,,1,10,26,11,0,2,2,6,,,,,,,,,1,1.6348129800026072,024,001,2019_May_13_1509,MusicAffectPsychophysiology2019,3.0.5,60.29326172150312,
To what extent did the music make you feel ,ASHAMED,30MonoWAV/30MonoS4.wav,1,1,3,12,,,,,1,10,26,11,0,3,3,4,,,,,,,,,3,1.585595110009308,024,001,2019_May_13_1509,MusicAffectPsychophysiology2019,3.0.5,60.29326172150312,
To what extent did the music make you feel ,ANGRY,30MonoWAV/30MonoS4.wav,1,1,3,12,,,,,1,10,26,11,0,4,4,2,,,,,,,,,2,1.284309127004235,024,001,2019_May_13_1509,MusicAffectPsychophysiology2019,3.0.5,60.29326172150312,
To what extent did the music make you feel ,GUILTY,30MonoWAV/30MonoS4.wav,1,1,3,12,,,,,1,10,26,11,0,5,5,5,,,,,,,,,3,1.135355559992604,024,001,2019_May_13_1509,MusicAffectPsychophysiology2019,3.0.5,60.29326172150312,
To what extent did the music make you feel ,SCARED,30MonoWAV/30MonoS4.wav,1,1,3,12,,,,,1,10,26,11,0,6,6,11,,,,,,,,,1,1.4331486689916346,024,001,2019_May_13_1509,MusicAffectPsychophysiology2019,3.0.5,60.29326172150312,
To what extent did the music make you feel ,ANXIOUS ,30MonoWAV/30MonoS4.wav,1,1,3,12,,,,,1,10,26,11,0,7,7,1,,,,,,,,,1,1.735575776998303,024,001,2019_May_13_1509,MusicAffectPsychophysiology2019,3.0.5,60.29326172150312,
To what extent did the music make you feel ,ACTIVE,30MonoWAV/30MonoS4.wav,1,1,3,12,,,,,1,10,26,11,0,8,8,9,,,,,,,,,1,1.0853101519896882,024,001,2019_May_13_1509,MusicAffectPsychophysiology2019,3.0.5,60.29326172150312,
To what extent did the music make you feel ,TENDER,30MonoWAV/30MonoS4.wav,1,1,3,12,,,,,1,10,26,11,0,9,9,10,,,,,,,,,2,1.5684802210016642,024,001,2019_May_13_1509,MusicAffectPsychophysiology2019,3.0.5,60.29326172150312,
To what extent did the music make you feel ,EXCITED,30MonoWAV/30MonoS4.wav,1,1,3,12,,,,,1,10,26,11,0,10,10,7,,,,,,,,,1,1.1187673370004632,024,001,2019_May_13_1509,MusicAffectPsychophysiology2019,3.0.5,60.29326172150312,
To what extent did the music make you feel ,FRUSTRATED,30MonoWAV/30MonoS4.wav,1,1,3,12,,,,,1,10,26,11,0,11,11,3,,,,,,,,,2,1.2185775830002967,024,001,2019_May_13_1509,MusicAffectPsychophysiology2019,3.0.5,60.29326172150312,
,,30MonoWAV/30MonoS4.wav,1,1,3,12,,,,,1,10,26,11,,,,,,,,,,,,,,,024,001,2019_May_13_1509,MusicAffectPsychophysiology2019,3.0.5,60.29326172150312,
To what extent did the music make you feel ,HAPPY,30MonoWAV/30MonoT4.wav,2,1,4,16,,,,,1,11,27,15,0,0,0,6,,,2,2.334944959002314,5,1.436162209007307,4,2.6523922880005557,4,1.8017290209972998,024,001,2019_May_13_1509,MusicAffectPsychophysiology2019,3.0.5,60.29326172150312,
To what extent did the music make you feel ,ASHAMED,30MonoWAV/30MonoT4.wav,2,1,4,16,,,,,1,11,27,15,0,1,1,4,,,,,,,,,1,1.218435609000153,024,001,2019_May_13_1509,MusicAffectPsychophysiology2019,3.0.5,60.29326172150312,
To what extent did the music make you feel ,ANGRY,30MonoWAV/30MonoT4.wav,2,1,4,16,,,,,1,11,27,15,0,2,2,2,,,,,,,,,1,0.7522794660035288,024,001,2019_May_13_1509,MusicAffectPsychophysiology2019,3.0.5,60.29326172150312,
To what extent did the music make you feel ,TENDER,30MonoWAV/30MonoT4.wav,2,1,4,16,,,,,1,11,27,15,0,3,3,10,,,,,,,,,4,1.5691773099970305,024,001,2019_May_13_1509,MusicAffectPsychophysiology2019,3.0.5,60.29326172150312,
To what extent did the music make you feel ,SAD,30MonoWAV/30MonoT4.wav,2,1,4,16,,,,,1,11,27,15,0,4,4,0,,,,,,,,,1,0.9857682369911345,024,001,2019_May_13_1509,MusicAffectPsychophysiology2019,3.0.5,60.29326172150312,
To what extent did the music make you feel ,ALERT,30MonoWAV/30MonoT4.wav,2,1,4,16,,,,,1,11,27,15,0,5,5,8,,,,,,,,,2,2.2680052270006854,024,001,2019_May_13_1509,MusicAffectPsychophysiology2019,3.0.5,60.29326172150312,
To what extent did the music make you feel ,EXCITED,30MonoWAV/30MonoT4.wav,2,1,4,16,,,,,1,11,27,15,0,6,6,7,,,,,,,,,5,1.50207686900103,024,001,2019_May_13_1509,MusicAffectPsychophysiology2019,3.0.5,60.29326172150312,
To what extent did the music make you feel ,ACTIVE,30MonoWAV/30MonoT4.wav,2,1,4,16,,,,,1,11,27,15,0,7,7,9,,,,,,,,,1,1.1670429020014126,024,001,2019_May_13_1509,MusicAffectPsychophysiology2019,3.0.5,60.29326172150312,
To what extent did the music make you feel ,GUILTY,30MonoWAV/30MonoT4.wav,2,1,4,16,,,,,1,11,27,15,0,8,8,5,,,,,,,,,1,0.6331827309913933,024,001,2019_May_13_1509,MusicAffectPsychophysiology2019,3.0.5,60.29326172150312,
To what extent did the music make you feel ,FRUSTRATED,30MonoWAV/30MonoT4.wav,2,1,4,16,,,,,1,11,27,15,0,9,9,3,,,,,,,,,1,0.5015514209953835,024,001,2019_May_13_1509,MusicAffectPsychophysiology2019,3.0.5,60.29326172150312,
To what extent did the music make you feel ,ANXIOUS ,30MonoWAV/30MonoT4.wav,2,1,4,16,,,,,1,11,27,15,0,10,10,1,,,,,,,,,1,0.6169648869981756,024,001,2019_May_13_1509,MusicAffectPsychophysiology2019,3.0.5,60.29326172150312,
To what extent did the music make you feel ,SCARED,30MonoWAV/30MonoT4.wav,2,1,4,16,,,,,1,11,27,15,0,11,11,11,,,,,,,,,1,0.6520127680123551,024,001,2019_May_13_1509,MusicAffectPsychophysiology2019,3.0.5,60.29326172150312,
,,30MonoWAV/30MonoT4.wav,2,1,4,16,,,,,1,11,27,15,,,,,,,,,,,,,,,024,001,2019_May_13_1509,MusicAffectPsychophysiology2019,3.0.5,60.29326172150312,
To what extent did the music make you feel ,ASHAMED,30MonoWAV/30MonoS2.wav,1,1,3,10,,,,,1,12,28,9,0,0,0,4,,,1,5.666155644998071,2,2.3831882329977816,3,2.118554057989968,2,4.601358157000504,024,001,2019_May_13_1509,MusicAffectPsychophysiology2019,3.0.5,60.29326172150312,
To what extent did the music make you feel ,ANXIOUS ,30MonoWAV/30MonoS2.wav,1,1,3,10,,,,,1,12,28,9,0,1,1,1,,,,,,,,,1,1.0687857600132702,024,001,2019_May_13_1509,MusicAffectPsychophysiology2019,3.0.5,60.29326172150312,
To what extent did the music make you feel ,ALERT,30MonoWAV/30MonoS2.wav,1,1,3,10,,,,,1,12,28,9,0,2,2,8,,,,,,,,,1,1.9347102509927936,024,001,2019_May_13_1509,MusicAffectPsychophysiology2019,3.0.5,60.29326172150312,
To what extent did the music make you feel ,FRUSTRATED,30MonoWAV/30MonoS2.wav,1,1,3,10,,,,,1,12,28,9,0,3,3,3,,,,,,,,,2,1.6523003350012004,024,001,2019_May_13_1509,MusicAffectPsychophysiology2019,3.0.5,60.29326172150312,
To what extent did the music make you feel ,TENDER,30MonoWAV/30MonoS2.wav,1,1,3,10,,,,,1,12,28,9,0,4,4,10,,,,,,,,,2,2.135218259994872,024,001,2019_May_13_1509,MusicAffectPsychophysiology2019,3.0.5,60.29326172150312,
To what extent did the music make you feel ,GUILTY,30MonoWAV/30MonoS2.wav,1,1,3,10,,,,,1,12,28,9,0,5,5,5,,,,,,,,,3,1.7187598820019048,024,001,2019_May_13_1509,MusicAffectPsychophysiology2019,3.0.5,60.29326172150312,
To what extent did the music make you feel ,SAD,30MonoWAV/30MonoS2.wav,1,1,3,10,,,,,1,12,28,9,0,6,6,0,,,,,,,,,3,1.5190453710092697,024,001,2019_May_13_1509,MusicAffectPsychophysiology2019,3.0.5,60.29326172150312,
To what extent did the music make you feel ,ACTIVE,30MonoWAV/30MonoS2.wav,1,1,3,10,,,,,1,12,28,9,0,7,7,9,,,,,,,,,2,1.2700595979986247,024,001,2019_May_13_1509,MusicAffectPsychophysiology2019,3.0.5,60.29326172150312,
To what extent did the music make you feel ,SCARED,30MonoWAV/30MonoS2.wav,1,1,3,10,,,,,1,12,28,9,0,8,8,11,,,,,,,,,1,1.9351820640004007,024,001,2019_May_13_1509,MusicAffectPsychophysiology2019,3.0.5,60.29326172150312,
To what extent did the music make you feel ,HAPPY,30MonoWAV/30MonoS2.wav,1,1,3,10,,,,,1,12,28,9,0,9,9,6,,,,,,,,,1,0.9168985200085444,024,001,2019_May_13_1509,MusicAffectPsychophysiology2019,3.0.5,60.29326172150312,
To what extent did the music make you feel ,EXCITED,30MonoWAV/30MonoS2.wav,1,1,3,10,,,,,1,12,28,9,0,10,10,7,,,,,,,,,1,1.0519049829890719,024,001,2019_May_13_1509,MusicAffectPsychophysiology2019,3.0.5,60.29326172150312,
To what extent did the music make you feel ,ANGRY,30MonoWAV/30MonoS2.wav,1,1,3,10,,,,,1,12,28,9,0,11,11,2,,,,,,,,,2,1.1502329710056074,024,001,2019_May_13_1509,MusicAffectPsychophysiology2019,3.0.5,60.29326172150312,
,,30MonoWAV/30MonoS2.wav,1,1,3,10,,,,,1,12,28,9,,,,,,,,,,,,,,,024,001,2019_May_13_1509,MusicAffectPsychophysiology2019,3.0.5,60.29326172150312,
To what extent did the music make you feel ,GUILTY,30MonoWAV/30MonoT3.wav,2,1,4,15,,,,,1,13,29,14,0,0,0,5,,,2,4.2174663949990645,4,2.217590897998889,4,2.0176686250051716,1,1.403038414006005,024,001,2019_May_13_1509,MusicAffectPsychophysiology2019,3.0.5,60.29326172150312,
To what extent did the music make you feel ,SAD,30MonoWAV/30MonoT3.wav,2,1,4,15,,,,,1,13,29,14,0,1,1,0,,,,,,,,,1,1.317426987006911,024,001,2019_May_13_1509,MusicAffectPsychophysiology2019,3.0.5,60.29326172150312,
To what extent did the music make you feel ,SCARED,30MonoWAV/30MonoT3.wav,2,1,4,15,,,,,1,13,29,14,0,2,2,11,,,,,,,,,1,1.0847749709937489,024,001,2019_May_13_1509,MusicAffectPsychophysiology2019,3.0.5,60.29326172150312,
To what extent did the music make you feel ,HAPPY,30MonoWAV/30MonoT3.wav,2,1,4,15,,,,,1,13,29,14,0,3,3,6,,,,,,,,,3,1.2182119759963825,024,001,2019_May_13_1509,MusicAffectPsychophysiology2019,3.0.5,60.29326172150312,
To what extent did the music make you feel ,EXCITED,30MonoWAV/30MonoT3.wav,2,1,4,15,,,,,1,13,29,14,0,4,4,7,,,,,,,,,4,1.7017632439965382,024,001,2019_May_13_1509,MusicAffectPsychophysiology2019,3.0.5,60.29326172150312,
To what extent did the music make you feel ,ANGRY,30MonoWAV/30MonoT3.wav,2,1,4,15,,,,,1,13,29,14,0,5,5,2,,,,,,,,,1,1.7350352799985558,024,001,2019_May_13_1509,MusicAffectPsychophysiology2019,3.0.5,60.29326172150312,
To what extent did the music make you feel ,ACTIVE,30MonoWAV/30MonoT3.wav,2,1,4,15,,,,,1,13,29,14,0,6,6,9,,,,,,,,,3,1.4012642370071262,024,001,2019_May_13_1509,MusicAffectPsychophysiology2019,3.0.5,60.29326172150312,
To what extent did the music make you feel ,ALERT,30MonoWAV/30MonoT3.wav,2,1,4,15,,,,,1,13,29,14,0,7,7,8,,,,,,,,,2,2.0183739840140333,024,001,2019_May_13_1509,MusicAffectPsychophysiology2019,3.0.5,60.29326172150312,
To what extent did the music make you feel ,ASHAMED,30MonoWAV/30MonoT3.wav,2,1,4,15,,,,,1,13,29,14,0,8,8,4,,,,,,,,,1,2.0320999620016664,024,001,2019_May_13_1509,MusicAffectPsychophysiology2019,3.0.5,60.29326172150312,
To what extent did the music make you feel ,TENDER,30MonoWAV/30MonoT3.wav,2,1,4,15,,,,,1,13,29,14,0,9,9,10,,,,,,,,,2,1.4688058690080652,024,001,2019_May_13_1509,MusicAffectPsychophysiology2019,3.0.5,60.29326172150312,
To what extent did the music make you feel ,ANXIOUS ,30MonoWAV/30MonoT3.wav,2,1,4,15,,,,,1,13,29,14,0,10,10,1,,,,,,,,,1,0.8007429069984937,024,001,2019_May_13_1509,MusicAffectPsychophysiology2019,3.0.5,60.29326172150312,
To what extent did the music make you feel ,FRUSTRATED,30MonoWAV/30MonoT3.wav,2,1,4,15,,,,,1,13,29,14,0,11,11,3,,,,,,,,,1,0.736221442988608,024,001,2019_May_13_1509,MusicAffectPsychophysiology2019,3.0.5,60.29326172150312,
,,30MonoWAV/30MonoT3.wav,2,1,4,15,,,,,1,13,29,14,,,,,,,,,,,,,,,024,001,2019_May_13_1509,MusicAffectPsychophysiology2019,3.0.5,60.29326172150312,
To what extent did the music make you feel ,SAD,30MonoWAV/30MonoF2.wav,1,2,2,2,,,,,1,14,30,1,0,0,0,0,,,3,5.590522855010931,1,1.7219036229944322,2,2.418810326998937,2,2.2010332250065403,024,001,2019_May_13_1509,MusicAffectPsychophysiology2019,3.0.5,60.29326172150312,
To what extent did the music make you feel ,EXCITED,30MonoWAV/30MonoF2.wav,1,2,2,2,,,,,1,14,30,1,0,1,1,7,,,,,,,,,2,6.018384204988251,024,001,2019_May_13_1509,MusicAffectPsychophysiology2019,3.0.5,60.29326172150312,
To what extent did the music make you feel ,ANGRY,30MonoWAV/30MonoF2.wav,1,2,2,2,,,,,1,14,30,1,0,2,2,2,,,,,,,,,2,1.4695035969925812,024,001,2019_May_13_1509,MusicAffectPsychophysiology2019,3.0.5,60.29326172150312,
To what extent did the music make you feel ,ASHAMED,30MonoWAV/30MonoF2.wav,1,2,2,2,,,,,1,14,30,1,0,3,3,4,,,,,,,,,1,2.150074595003389,024,001,2019_May_13_1509,MusicAffectPsychophysiology2019,3.0.5,60.29326172150312,
To what extent did the music make you feel ,ALERT,30MonoWAV/30MonoF2.wav,1,2,2,2,,,,,1,14,30,1,0,4,4,8,,,,,,,,,4,1.436790990002919,024,001,2019_May_13_1509,MusicAffectPsychophysiology2019,3.0.5,60.29326172150312,
To what extent did the music make you feel ,FRUSTRATED,30MonoWAV/30MonoF2.wav,1,2,2,2,,,,,1,14,30,1,0,5,5,3,,,,,,,,,2,1.5506861110043246,024,001,2019_May_13_1509,MusicAffectPsychophysiology2019,3.0.5,60.29326172150312,
To what extent did the music make you feel ,GUILTY,30MonoWAV/30MonoF2.wav,1,2,2,2,,,,,1,14,30,1,0,6,6,5,,,,,,,,,1,1.534331173999817,024,001,2019_May_13_1509,MusicAffectPsychophysiology2019,3.0.5,60.29326172150312,
To what extent did the music make you feel ,ACTIVE,30MonoWAV/30MonoF2.wav,1,2,2,2,,,,,1,14,30,1,0,7,7,9,,,,,,,,,3,1.1681747090042336,024,001,2019_May_13_1509,MusicAffectPsychophysiology2019,3.0.5,60.29326172150312,
To what extent did the music make you feel ,TENDER,30MonoWAV/30MonoF2.wav,1,2,2,2,,,,,1,14,30,1,0,8,8,10,,,,,,,,,1,1.0697729180101305,024,001,2019_May_13_1509,MusicAffectPsychophysiology2019,3.0.5,60.29326172150312,
To what extent did the music make you feel ,HAPPY,30MonoWAV/30MonoF2.wav,1,2,2,2,,,,,1,14,30,1,0,9,9,6,,,,,,,,,1,1.1846604890015442,024,001,2019_May_13_1509,MusicAffectPsychophysiology2019,3.0.5,60.29326172150312,
To what extent did the music make you feel ,SCARED,30MonoWAV/30MonoF2.wav,1,2,2,2,,,,,1,14,30,1,0,10,10,11,,,,,,,,,5,1.1658260389958741,024,001,2019_May_13_1509,MusicAffectPsychophysiology2019,3.0.5,60.29326172150312,
To what extent did the music make you feel ,ANXIOUS ,30MonoWAV/30MonoF2.wav,1,2,2,2,,,,,1,14,30,1,0,11,11,1,,,,,,,,,4,1.6030643810081528,024,001,2019_May_13_1509,MusicAffectPsychophysiology2019,3.0.5,60.29326172150312,
,,30MonoWAV/30MonoF2.wav,1,2,2,2,,,,,1,14,30,1,,,,,,,,,,,,,,,024,001,2019_May_13_1509,MusicAffectPsychophysiology2019,3.0.5,60.29326172150312,
To what extent did the music make you feel ,ANGRY,30MonoWAV/30MonoT1.wav,2,1,4,13,,,,,1,15,31,12,0,0,0,2,,,1,4.384511397001916,3,2.8181427550007356,3,1.7012198890006403,1,1.168448725991766,024,001,2019_May_13_1509,MusicAffectPsychophysiology2019,3.0.5,60.29326172150312,
To what extent did the music make you feel ,GUILTY,30MonoWAV/30MonoT1.wav,2,1,4,13,,,,,1,15,31,12,0,1,1,5,,,,,,,,,1,0.7856160399969667,024,001,2019_May_13_1509,MusicAffectPsychophysiology2019,3.0.5,60.29326172150312,
To what extent did the music make you feel ,FRUSTRATED,30MonoWAV/30MonoT1.wav,2,1,4,13,,,,,1,15,31,12,0,2,2,3,,,,,,,,,1,0.8850697870075237,024,001,2019_May_13_1509,MusicAffectPsychophysiology2019,3.0.5,60.29326172150312,
To what extent did the music make you feel ,SAD,30MonoWAV/30MonoT1.wav,2,1,4,13,,,,,1,15,31,12,0,3,3,0,,,,,,,,,1,1.4345525240059942,024,001,2019_May_13_1509,MusicAffectPsychophysiology2019,3.0.5,60.29326172150312,
To what extent did the music make you feel ,ACTIVE,30MonoWAV/30MonoT1.wav,2,1,4,13,,,,,1,15,31,12,0,4,4,9,,,,,,,,,2,1.467246358995908,024,001,2019_May_13_1509,MusicAffectPsychophysiology2019,3.0.5,60.29326172150312,
To what extent did the music make you feel ,EXCITED,30MonoWAV/30MonoT1.wav,2,1,4,13,,,,,1,15,31,12,0,5,5,7,,,,,,,,,2,1.5678642530110665,024,001,2019_May_13_1509,MusicAffectPsychophysiology2019,3.0.5,60.29326172150312,
To what extent did the music make you feel ,TENDER,30MonoWAV/30MonoT1.wav,2,1,4,13,,,,,1,15,31,12,0,6,6,10,,,,,,,,,3,1.2681361180002568,024,001,2019_May_13_1509,MusicAffectPsychophysiology2019,3.0.5,60.29326172150312,
To what extent did the music make you feel ,ANXIOUS ,30MonoWAV/30MonoT1.wav,2,1,4,13,,,,,1,15,31,12,0,7,7,1,,,,,,,,,1,1.0023072359908838,024,001,2019_May_13_1509,MusicAffectPsychophysiology2019,3.0.5,60.29326172150312,
To what extent did the music make you feel ,SCARED,30MonoWAV/30MonoT1.wav,2,1,4,13,,,,,1,15,31,12,0,8,8,11,,,,,,,,,1,0.5680971779947868,024,001,2019_May_13_1509,MusicAffectPsychophysiology2019,3.0.5,60.29326172150312,
To what extent did the music make you feel ,ASHAMED,30MonoWAV/30MonoT1.wav,2,1,4,13,,,,,1,15,31,12,0,9,9,4,,,,,,,,,1,0.7346056879905518,024,001,2019_May_13_1509,MusicAffectPsychophysiology2019,3.0.5,60.29326172150312,
To what extent did the music make you feel ,HAPPY,30MonoWAV/30MonoT1.wav,2,1,4,13,,,,,1,15,31,12,0,10,10,6,,,,,,,,,4,1.686021906993119,024,001,2019_May_13_1509,MusicAffectPsychophysiology2019,3.0.5,60.29326172150312,
To what extent did the music make you feel ,ALERT,30MonoWAV/30MonoT1.wav,2,1,4,13,,,,,1,15,31,12,0,11,11,8,,,,,,,,,2,1.13617965800222,024,001,2019_May_13_1509,MusicAffectPsychophysiology2019,3.0.5,60.29326172150312,
,,30MonoWAV/30MonoT1.wav,2,1,4,13,,,,,1,15,31,12,,,,,,,,,,,,,,,024,001,2019_May_13_1509,MusicAffectPsychophysiology2019,3.0.5,60.29326172150312,
