Instruction,Word,song,valence,arousal,affectcat,songmark,pracwords.thisRepN,pracwords.thisTrialN,pracwords.thisN,pracwords.thisIndex,songtrials.thisRepN,songtrials.thisTrialN,songtrials.thisN,songtrials.thisIndex,words.thisRepN,words.thisTrialN,words.thisN,words.thisIndex,begin.keys,begin.rt,arousalkey.keys,arousalkey.rt,valencekey.keys,valencekey.rt,likekey.keys,likekey.rt,WordResponse.keys,WordResponse.rt,participant,session,date,expName,psychopyVersion,frameRate,
,,,,,,,,,,,,,,,,,,,space,20.91940826800419,,,,,,,,,025,001,2019_May_13_1612,MusicAffectPsychophysiology2019,3.0.5,59.7993306691054,
,,,,,,,,,,,,,,,,,,,,,4,4.901385791992652,,,,,,,025,001,2019_May_13_1612,MusicAffectPsychophysiology2019,3.0.5,59.7993306691054,
,,,,,,,,,,,,,,,,,,,,,,,5,8.26162727001065,,,,,025,001,2019_May_13_1612,MusicAffectPsychophysiology2019,3.0.5,59.7993306691054,
,,,,,,,,,,,,,,,,,,,,,,,,,4,5.258240866009146,,,025,001,2019_May_13_1612,MusicAffectPsychophysiology2019,3.0.5,59.7993306691054,
To what extent did the music make you feel ,ACTIVE,,,,,,0,0,0,9,,,,,,,,,,,,,,,,,1,12.384829752001679,025,001,2019_May_13_1612,MusicAffectPsychophysiology2019,3.0.5,59.7993306691054,
To what extent did the music make you feel ,FRUSTRATED,,,,,,0,1,1,3,,,,,,,,,,,,,,,,,1,1.9850917490111897,025,001,2019_May_13_1612,MusicAffectPsychophysiology2019,3.0.5,59.7993306691054,
To what extent did the music make you feel ,SAD,,,,,,0,2,2,0,,,,,,,,,,,,,,,,,1,2.085516492006718,025,001,2019_May_13_1612,MusicAffectPsychophysiology2019,3.0.5,59.7993306691054,
To what extent did the music make you feel ,GUILTY,,,,,,0,3,3,5,,,,,,,,,,,,,,,,,1,0.9683261430036509,025,001,2019_May_13_1612,MusicAffectPsychophysiology2019,3.0.5,59.7993306691054,
To what extent did the music make you feel ,ANXIOUS ,,,,,,0,4,4,1,,,,,,,,,,,,,,,,,1,0.8345459749980364,025,001,2019_May_13_1612,MusicAffectPsychophysiology2019,3.0.5,59.7993306691054,
To what extent did the music make you feel ,HAPPY,,,,,,0,5,5,6,,,,,,,,,,,,,,,,,2,2.934767469007056,025,001,2019_May_13_1612,MusicAffectPsychophysiology2019,3.0.5,59.7993306691054,
To what extent did the music make you feel ,ASHAMED,,,,,,0,6,6,4,,,,,,,,,,,,,,,,,1,1.0187789290066576,025,001,2019_May_13_1612,MusicAffectPsychophysiology2019,3.0.5,59.7993306691054,
To what extent did the music make you feel ,SCARED,,,,,,0,7,7,11,,,,,,,,,,,,,,,,,1,1.0174936130060814,025,001,2019_May_13_1612,MusicAffectPsychophysiology2019,3.0.5,59.7993306691054,
To what extent did the music make you feel ,ANGRY,,,,,,0,8,8,2,,,,,,,,,,,,,,,,,1,0.9024057070055278,025,001,2019_May_13_1612,MusicAffectPsychophysiology2019,3.0.5,59.7993306691054,
To what extent did the music make you feel ,EXCITED,,,,,,0,9,9,7,,,,,,,,,,,,,,,,,2,2.9349947739974596,025,001,2019_May_13_1612,MusicAffectPsychophysiology2019,3.0.5,59.7993306691054,
To what extent did the music make you feel ,TENDER,,,,,,0,10,10,10,,,,,,,,,,,,,,,,,1,8.660595941008069,025,001,2019_May_13_1612,MusicAffectPsychophysiology2019,3.0.5,59.7993306691054,
To what extent did the music make you feel ,ALERT,,,,,,0,11,11,8,,,,,,,,,,,,,,,,,4,3.8089686229941435,025,001,2019_May_13_1612,MusicAffectPsychophysiology2019,3.0.5,59.7993306691054,
To what extent did the music make you feel ,SAD,30MonoWAV/30MonoT4.wav,2,1,4,16,,,,,0,0,0,15,0,0,0,0,,,4,9.64108230599959,4,5.76834316100576,3,6.00173415899917,1,3.5514206169900717,025,001,2019_May_13_1612,MusicAffectPsychophysiology2019,3.0.5,59.7993306691054,
To what extent did the music make you feel ,GUILTY,30MonoWAV/30MonoT4.wav,2,1,4,16,,,,,0,0,0,15,0,1,1,5,,,,,,,,,1,0.6852139110123971,025,001,2019_May_13_1612,MusicAffectPsychophysiology2019,3.0.5,59.7993306691054,
To what extent did the music make you feel ,ANXIOUS ,30MonoWAV/30MonoT4.wav,2,1,4,16,,,,,0,0,0,15,0,2,2,1,,,,,,,,,1,0.5688191359949997,025,001,2019_May_13_1612,MusicAffectPsychophysiology2019,3.0.5,59.7993306691054,
To what extent did the music make you feel ,ACTIVE,30MonoWAV/30MonoT4.wav,2,1,4,16,,,,,0,0,0,15,0,3,3,9,,,,,,,,,1,3.6017663270031335,025,001,2019_May_13_1612,MusicAffectPsychophysiology2019,3.0.5,59.7993306691054,
To what extent did the music make you feel ,SCARED,30MonoWAV/30MonoT4.wav,2,1,4,16,,,,,0,0,0,15,0,4,4,11,,,,,,,,,1,0.7182681289996253,025,001,2019_May_13_1612,MusicAffectPsychophysiology2019,3.0.5,59.7993306691054,
To what extent did the music make you feel ,FRUSTRATED,30MonoWAV/30MonoT4.wav,2,1,4,16,,,,,0,0,0,15,0,5,5,3,,,,,,,,,1,0.6001653279963648,025,001,2019_May_13_1612,MusicAffectPsychophysiology2019,3.0.5,59.7993306691054,
To what extent did the music make you feel ,ALERT,30MonoWAV/30MonoT4.wav,2,1,4,16,,,,,0,0,0,15,0,6,6,8,,,,,,,,,5,2.933738601001096,025,001,2019_May_13_1612,MusicAffectPsychophysiology2019,3.0.5,59.7993306691054,
To what extent did the music make you feel ,EXCITED,30MonoWAV/30MonoT4.wav,2,1,4,16,,,,,0,0,0,15,0,7,7,7,,,,,,,,,3,4.335587966997991,025,001,2019_May_13_1612,MusicAffectPsychophysiology2019,3.0.5,59.7993306691054,
To what extent did the music make you feel ,TENDER,30MonoWAV/30MonoT4.wav,2,1,4,16,,,,,0,0,0,15,0,8,8,10,,,,,,,,,2,1.75032344799547,025,001,2019_May_13_1612,MusicAffectPsychophysiology2019,3.0.5,59.7993306691054,
To what extent did the music make you feel ,ASHAMED,30MonoWAV/30MonoT4.wav,2,1,4,16,,,,,0,0,0,15,0,9,9,4,,,,,,,,,1,0.7850195049977629,025,001,2019_May_13_1612,MusicAffectPsychophysiology2019,3.0.5,59.7993306691054,
To what extent did the music make you feel ,ANGRY,30MonoWAV/30MonoT4.wav,2,1,4,16,,,,,0,0,0,15,0,10,10,2,,,,,,,,,1,0.58528269600356,025,001,2019_May_13_1612,MusicAffectPsychophysiology2019,3.0.5,59.7993306691054,
To what extent did the music make you feel ,HAPPY,30MonoWAV/30MonoT4.wav,2,1,4,16,,,,,0,0,0,15,0,11,11,6,,,,,,,,,2,3.084515344002284,025,001,2019_May_13_1612,MusicAffectPsychophysiology2019,3.0.5,59.7993306691054,
,,30MonoWAV/30MonoT4.wav,2,1,4,16,,,,,0,0,0,15,,,,,,,,,,,,,,,025,001,2019_May_13_1612,MusicAffectPsychophysiology2019,3.0.5,59.7993306691054,
To what extent did the music make you feel ,GUILTY,30MonoWAV/30MonoH2.wav,2,2,1,6,,,,,0,1,1,5,0,0,0,5,,,5,6.1196779669990065,4,4.533990518000792,3,2.101289081008872,1,2.1179887509933906,025,001,2019_May_13_1612,MusicAffectPsychophysiology2019,3.0.5,59.7993306691054,
To what extent did the music make you feel ,HAPPY,30MonoWAV/30MonoH2.wav,2,2,1,6,,,,,0,1,1,5,0,1,1,6,,,,,,,,,2,2.0687869020039216,025,001,2019_May_13_1612,MusicAffectPsychophysiology2019,3.0.5,59.7993306691054,
To what extent did the music make you feel ,SCARED,30MonoWAV/30MonoH2.wav,2,2,1,6,,,,,0,1,1,5,0,2,2,11,,,,,,,,,1,8.217108978002216,025,001,2019_May_13_1612,MusicAffectPsychophysiology2019,3.0.5,59.7993306691054,
To what extent did the music make you feel ,ANGRY,30MonoWAV/30MonoH2.wav,2,2,1,6,,,,,0,1,1,5,0,3,3,2,,,,,,,,,1,0.9515442780102603,025,001,2019_May_13_1612,MusicAffectPsychophysiology2019,3.0.5,59.7993306691054,
To what extent did the music make you feel ,ACTIVE,30MonoWAV/30MonoH2.wav,2,2,1,6,,,,,0,1,1,5,0,4,4,9,,,,,,,,,2,2.418085728000733,025,001,2019_May_13_1612,MusicAffectPsychophysiology2019,3.0.5,59.7993306691054,
To what extent did the music make you feel ,SAD,30MonoWAV/30MonoH2.wav,2,2,1,6,,,,,0,1,1,5,0,5,5,0,,,,,,,,,1,1.9683925429999363,025,001,2019_May_13_1612,MusicAffectPsychophysiology2019,3.0.5,59.7993306691054,
To what extent did the music make you feel ,ALERT,30MonoWAV/30MonoH2.wav,2,2,1,6,,,,,0,1,1,5,0,6,6,8,,,,,,,,,5,2.4682929660048103,025,001,2019_May_13_1612,MusicAffectPsychophysiology2019,3.0.5,59.7993306691054,
To what extent did the music make you feel ,ASHAMED,30MonoWAV/30MonoH2.wav,2,2,1,6,,,,,0,1,1,5,0,7,7,4,,,,,,,,,1,1.4359567279898329,025,001,2019_May_13_1612,MusicAffectPsychophysiology2019,3.0.5,59.7993306691054,
To what extent did the music make you feel ,EXCITED,30MonoWAV/30MonoH2.wav,2,2,1,6,,,,,0,1,1,5,0,8,8,7,,,,,,,,,4,2.801719682000112,025,001,2019_May_13_1612,MusicAffectPsychophysiology2019,3.0.5,59.7993306691054,
To what extent did the music make you feel ,FRUSTRATED,30MonoWAV/30MonoH2.wav,2,2,1,6,,,,,0,1,1,5,0,9,9,3,,,,,,,,,1,3.385094558005221,025,001,2019_May_13_1612,MusicAffectPsychophysiology2019,3.0.5,59.7993306691054,
To what extent did the music make you feel ,ANXIOUS ,30MonoWAV/30MonoH2.wav,2,2,1,6,,,,,0,1,1,5,0,10,10,1,,,,,,,,,1,4.417593297010171,025,001,2019_May_13_1612,MusicAffectPsychophysiology2019,3.0.5,59.7993306691054,
To what extent did the music make you feel ,TENDER,30MonoWAV/30MonoH2.wav,2,2,1,6,,,,,0,1,1,5,0,11,11,10,,,,,,,,,1,0.7686367590067675,025,001,2019_May_13_1612,MusicAffectPsychophysiology2019,3.0.5,59.7993306691054,
,,30MonoWAV/30MonoH2.wav,2,2,1,6,,,,,0,1,1,5,,,,,,,,,,,,,,,025,001,2019_May_13_1612,MusicAffectPsychophysiology2019,3.0.5,59.7993306691054,
To what extent did the music make you feel ,ASHAMED,30MonoWAV/30MonoS1.wav,1,1,3,9,,,,,0,2,2,8,0,0,0,4,,,3,9.705957433994627,3,1.8343144569953438,2,5.484964133996982,1,4.0886515810125275,025,001,2019_May_13_1612,MusicAffectPsychophysiology2019,3.0.5,59.7993306691054,
To what extent did the music make you feel ,EXCITED,30MonoWAV/30MonoS1.wav,1,1,3,9,,,,,0,2,2,8,0,1,1,7,,,,,,,,,1,11.278494954007328,025,001,2019_May_13_1612,MusicAffectPsychophysiology2019,3.0.5,59.7993306691054,
To what extent did the music make you feel ,FRUSTRATED,30MonoWAV/30MonoS1.wav,1,1,3,9,,,,,0,2,2,8,0,2,2,3,,,,,,,,,1,0.9839663710008608,025,001,2019_May_13_1612,MusicAffectPsychophysiology2019,3.0.5,59.7993306691054,
To what extent did the music make you feel ,SAD,30MonoWAV/30MonoS1.wav,1,1,3,9,,,,,0,2,2,8,0,3,3,0,,,,,,,,,2,3.8193638139928225,025,001,2019_May_13_1612,MusicAffectPsychophysiology2019,3.0.5,59.7993306691054,
To what extent did the music make you feel ,HAPPY,30MonoWAV/30MonoS1.wav,1,1,3,9,,,,,0,2,2,8,0,4,4,6,,,,,,,,,1,2.467166575996089,025,001,2019_May_13_1612,MusicAffectPsychophysiology2019,3.0.5,59.7993306691054,
To what extent did the music make you feel ,TENDER,30MonoWAV/30MonoS1.wav,1,1,3,9,,,,,0,2,2,8,0,5,5,10,,,,,,,,,2,3.018125128990505,025,001,2019_May_13_1612,MusicAffectPsychophysiology2019,3.0.5,59.7993306691054,
To what extent did the music make you feel ,ANXIOUS ,30MonoWAV/30MonoS1.wav,1,1,3,9,,,,,0,2,2,8,0,6,6,1,,,,,,,,,1,6.23446448300092,025,001,2019_May_13_1612,MusicAffectPsychophysiology2019,3.0.5,59.7993306691054,
To what extent did the music make you feel ,ALERT,30MonoWAV/30MonoS1.wav,1,1,3,9,,,,,0,2,2,8,0,7,7,8,,,,,,,,,3,6.048855976012419,025,001,2019_May_13_1612,MusicAffectPsychophysiology2019,3.0.5,59.7993306691054,
To what extent did the music make you feel ,ANGRY,30MonoWAV/30MonoS1.wav,1,1,3,9,,,,,0,2,2,8,0,8,8,2,,,,,,,,,1,1.5521879059961066,025,001,2019_May_13_1612,MusicAffectPsychophysiology2019,3.0.5,59.7993306691054,
To what extent did the music make you feel ,GUILTY,30MonoWAV/30MonoS1.wav,1,1,3,9,,,,,0,2,2,8,0,9,9,5,,,,,,,,,2,2.432368313995539,025,001,2019_May_13_1612,MusicAffectPsychophysiology2019,3.0.5,59.7993306691054,
To what extent did the music make you feel ,ACTIVE,30MonoWAV/30MonoS1.wav,1,1,3,9,,,,,0,2,2,8,0,10,10,9,,,,,,,,,1,2.0682714139984455,025,001,2019_May_13_1612,MusicAffectPsychophysiology2019,3.0.5,59.7993306691054,
To what extent did the music make you feel ,SCARED,30MonoWAV/30MonoS1.wav,1,1,3,9,,,,,0,2,2,8,0,11,11,11,,,,,,,,,1,2.7397731649980415,025,001,2019_May_13_1612,MusicAffectPsychophysiology2019,3.0.5,59.7993306691054,
,,30MonoWAV/30MonoS1.wav,1,1,3,9,,,,,0,2,2,8,,,,,,,,,,,,,,,025,001,2019_May_13_1612,MusicAffectPsychophysiology2019,3.0.5,59.7993306691054,
To what extent did the music make you feel ,GUILTY,30MonoWAV/30MonoT1.wav,2,1,4,13,,,,,0,3,3,12,0,0,0,5,,,3,5.5677275150083005,3,6.300110277006752,3,3.035230257009971,1,6.418245688997558,025,001,2019_May_13_1612,MusicAffectPsychophysiology2019,3.0.5,59.7993306691054,
To what extent did the music make you feel ,TENDER,30MonoWAV/30MonoT1.wav,2,1,4,13,,,,,0,3,3,12,0,1,1,10,,,,,,,,,2,1.435424717987189,025,001,2019_May_13_1612,MusicAffectPsychophysiology2019,3.0.5,59.7993306691054,
To what extent did the music make you feel ,ASHAMED,30MonoWAV/30MonoT1.wav,2,1,4,13,,,,,0,3,3,12,0,2,2,4,,,,,,,,,1,0.9176691059983568,025,001,2019_May_13_1612,MusicAffectPsychophysiology2019,3.0.5,59.7993306691054,
To what extent did the music make you feel ,ANGRY,30MonoWAV/30MonoT1.wav,2,1,4,13,,,,,0,3,3,12,0,3,3,2,,,,,,,,,1,0.9851367419905728,025,001,2019_May_13_1612,MusicAffectPsychophysiology2019,3.0.5,59.7993306691054,
To what extent did the music make you feel ,ALERT,30MonoWAV/30MonoT1.wav,2,1,4,13,,,,,0,3,3,12,0,4,4,8,,,,,,,,,2,2.75192470800539,025,001,2019_May_13_1612,MusicAffectPsychophysiology2019,3.0.5,59.7993306691054,
To what extent did the music make you feel ,FRUSTRATED,30MonoWAV/30MonoT1.wav,2,1,4,13,,,,,0,3,3,12,0,5,5,3,,,,,,,,,1,3.417824493997614,025,001,2019_May_13_1612,MusicAffectPsychophysiology2019,3.0.5,59.7993306691054,
To what extent did the music make you feel ,HAPPY,30MonoWAV/30MonoT1.wav,2,1,4,13,,,,,0,3,3,12,0,6,6,6,,,,,,,,,3,2.536321545005194,025,001,2019_May_13_1612,MusicAffectPsychophysiology2019,3.0.5,59.7993306691054,
To what extent did the music make you feel ,SCARED,30MonoWAV/30MonoT1.wav,2,1,4,13,,,,,0,3,3,12,0,7,7,11,,,,,,,,,1,4.751218132994836,025,001,2019_May_13_1612,MusicAffectPsychophysiology2019,3.0.5,59.7993306691054,
To what extent did the music make you feel ,EXCITED,30MonoWAV/30MonoT1.wav,2,1,4,13,,,,,0,3,3,12,0,8,8,7,,,,,,,,,2,3.6676651010056958,025,001,2019_May_13_1612,MusicAffectPsychophysiology2019,3.0.5,59.7993306691054,
To what extent did the music make you feel ,ANXIOUS ,30MonoWAV/30MonoT1.wav,2,1,4,13,,,,,0,3,3,12,0,9,9,1,,,,,,,,,1,14.750128357001813,025,001,2019_May_13_1612,MusicAffectPsychophysiology2019,3.0.5,59.7993306691054,
To what extent did the music make you feel ,SAD,30MonoWAV/30MonoT1.wav,2,1,4,13,,,,,0,3,3,12,0,10,10,0,,,,,,,,,2,1.8832922189903911,025,001,2019_May_13_1612,MusicAffectPsychophysiology2019,3.0.5,59.7993306691054,
To what extent did the music make you feel ,ACTIVE,30MonoWAV/30MonoT1.wav,2,1,4,13,,,,,0,3,3,12,0,11,11,9,,,,,,,,,1,3.19903093900939,025,001,2019_May_13_1612,MusicAffectPsychophysiology2019,3.0.5,59.7993306691054,
,,30MonoWAV/30MonoT1.wav,2,1,4,13,,,,,0,3,3,12,,,,,,,,,,,,,,,025,001,2019_May_13_1612,MusicAffectPsychophysiology2019,3.0.5,59.7993306691054,
To what extent did the music make you feel ,SAD,30MonoWAV/30MonoT3.wav,2,1,4,15,,,,,0,4,4,14,0,0,0,0,,,2,7.699076720004086,2,2.7516145309928106,3,5.000988184998278,2,2.224672851996729,025,001,2019_May_13_1612,MusicAffectPsychophysiology2019,3.0.5,59.7993306691054,
To what extent did the music make you feel ,ALERT,30MonoWAV/30MonoT3.wav,2,1,4,15,,,,,0,4,4,14,0,1,1,8,,,,,,,,,3,2.8845639639912406,025,001,2019_May_13_1612,MusicAffectPsychophysiology2019,3.0.5,59.7993306691054,
To what extent did the music make you feel ,GUILTY,30MonoWAV/30MonoT3.wav,2,1,4,15,,,,,0,4,4,14,0,2,2,5,,,,,,,,,1,2.4689057049981784,025,001,2019_May_13_1612,MusicAffectPsychophysiology2019,3.0.5,59.7993306691054,
To what extent did the music make you feel ,ANGRY,30MonoWAV/30MonoT3.wav,2,1,4,15,,,,,0,4,4,14,0,3,3,2,,,,,,,,,1,1.8169247140031075,025,001,2019_May_13_1612,MusicAffectPsychophysiology2019,3.0.5,59.7993306691054,
To what extent did the music make you feel ,ANXIOUS ,30MonoWAV/30MonoT3.wav,2,1,4,15,,,,,0,4,4,14,0,4,4,1,,,,,,,,,2,1.6023915650002891,025,001,2019_May_13_1612,MusicAffectPsychophysiology2019,3.0.5,59.7993306691054,
To what extent did the music make you feel ,FRUSTRATED,30MonoWAV/30MonoT3.wav,2,1,4,15,,,,,0,4,4,14,0,5,5,3,,,,,,,,,2,2.518049770995276,025,001,2019_May_13_1612,MusicAffectPsychophysiology2019,3.0.5,59.7993306691054,
To what extent did the music make you feel ,TENDER,30MonoWAV/30MonoT3.wav,2,1,4,15,,,,,0,4,4,14,0,6,6,10,,,,,,,,,2,4.30032439599745,025,001,2019_May_13_1612,MusicAffectPsychophysiology2019,3.0.5,59.7993306691054,
To what extent did the music make you feel ,ACTIVE,30MonoWAV/30MonoT3.wav,2,1,4,15,,,,,0,4,4,14,0,7,7,9,,,,,,,,,1,1.368841457995586,025,001,2019_May_13_1612,MusicAffectPsychophysiology2019,3.0.5,59.7993306691054,
To what extent did the music make you feel ,ASHAMED,30MonoWAV/30MonoT3.wav,2,1,4,15,,,,,0,4,4,14,0,8,8,4,,,,,,,,,1,1.6354473770043114,025,001,2019_May_13_1612,MusicAffectPsychophysiology2019,3.0.5,59.7993306691054,
To what extent did the music make you feel ,SCARED,30MonoWAV/30MonoT3.wav,2,1,4,15,,,,,0,4,4,14,0,9,9,11,,,,,,,,,2,1.9888978750095703,025,001,2019_May_13_1612,MusicAffectPsychophysiology2019,3.0.5,59.7993306691054,
To what extent did the music make you feel ,HAPPY,30MonoWAV/30MonoT3.wav,2,1,4,15,,,,,0,4,4,14,0,10,10,6,,,,,,,,,2,3.799261366002611,025,001,2019_May_13_1612,MusicAffectPsychophysiology2019,3.0.5,59.7993306691054,
To what extent did the music make you feel ,EXCITED,30MonoWAV/30MonoT3.wav,2,1,4,15,,,,,0,4,4,14,0,11,11,7,,,,,,,,,1,1.9493405649991473,025,001,2019_May_13_1612,MusicAffectPsychophysiology2019,3.0.5,59.7993306691054,
,,30MonoWAV/30MonoT3.wav,2,1,4,15,,,,,0,4,4,14,,,,,,,,,,,,,,,025,001,2019_May_13_1612,MusicAffectPsychophysiology2019,3.0.5,59.7993306691054,
To what extent did the music make you feel ,HAPPY,30MonoWAV/30MonoH3.wav,2,2,1,7,,,,,0,5,5,6,0,0,0,6,,,5,2.9859564390062587,3,4.4845674309908645,2,2.3673704450047808,4,7.1826830609934404,025,001,2019_May_13_1612,MusicAffectPsychophysiology2019,3.0.5,59.7993306691054,
To what extent did the music make you feel ,TENDER,30MonoWAV/30MonoH3.wav,2,2,1,7,,,,,0,5,5,6,0,1,1,10,,,,,,,,,1,2.1519641909981146,025,001,2019_May_13_1612,MusicAffectPsychophysiology2019,3.0.5,59.7993306691054,
To what extent did the music make you feel ,SAD,30MonoWAV/30MonoH3.wav,2,2,1,7,,,,,0,5,5,6,0,2,2,0,,,,,,,,,1,1.2692090130003635,025,001,2019_May_13_1612,MusicAffectPsychophysiology2019,3.0.5,59.7993306691054,
To what extent did the music make you feel ,EXCITED,30MonoWAV/30MonoH3.wav,2,2,1,7,,,,,0,5,5,6,0,3,3,7,,,,,,,,,5,1.7499447209993377,025,001,2019_May_13_1612,MusicAffectPsychophysiology2019,3.0.5,59.7993306691054,
To what extent did the music make you feel ,ALERT,30MonoWAV/30MonoH3.wav,2,2,1,7,,,,,0,5,5,6,0,4,4,8,,,,,,,,,5,1.002013353005168,025,001,2019_May_13_1612,MusicAffectPsychophysiology2019,3.0.5,59.7993306691054,
To what extent did the music make you feel ,GUILTY,30MonoWAV/30MonoH3.wav,2,2,1,7,,,,,0,5,5,6,0,5,5,5,,,,,,,,,1,1.2688594369974453,025,001,2019_May_13_1612,MusicAffectPsychophysiology2019,3.0.5,59.7993306691054,
To what extent did the music make you feel ,ANGRY,30MonoWAV/30MonoH3.wav,2,2,1,7,,,,,0,5,5,6,0,6,6,2,,,,,,,,,1,1.1849721979961032,025,001,2019_May_13_1612,MusicAffectPsychophysiology2019,3.0.5,59.7993306691054,
To what extent did the music make you feel ,ACTIVE,30MonoWAV/30MonoH3.wav,2,2,1,7,,,,,0,5,5,6,0,7,7,9,,,,,,,,,3,3.967618439986836,025,001,2019_May_13_1612,MusicAffectPsychophysiology2019,3.0.5,59.7993306691054,
To what extent did the music make you feel ,FRUSTRATED,30MonoWAV/30MonoH3.wav,2,2,1,7,,,,,0,5,5,6,0,8,8,3,,,,,,,,,1,3.4859311949985567,025,001,2019_May_13_1612,MusicAffectPsychophysiology2019,3.0.5,59.7993306691054,
To what extent did the music make you feel ,ASHAMED,30MonoWAV/30MonoH3.wav,2,2,1,7,,,,,0,5,5,6,0,9,9,4,,,,,,,,,1,0.7512138129968662,025,001,2019_May_13_1612,MusicAffectPsychophysiology2019,3.0.5,59.7993306691054,
To what extent did the music make you feel ,SCARED,30MonoWAV/30MonoH3.wav,2,2,1,7,,,,,0,5,5,6,0,10,10,11,,,,,,,,,1,0.719474394005374,025,001,2019_May_13_1612,MusicAffectPsychophysiology2019,3.0.5,59.7993306691054,
To what extent did the music make you feel ,ANXIOUS ,30MonoWAV/30MonoH3.wav,2,2,1,7,,,,,0,5,5,6,0,11,11,1,,,,,,,,,2,3.202408678000211,025,001,2019_May_13_1612,MusicAffectPsychophysiology2019,3.0.5,59.7993306691054,
,,30MonoWAV/30MonoH3.wav,2,2,1,7,,,,,0,5,5,6,,,,,,,,,,,,,,,025,001,2019_May_13_1612,MusicAffectPsychophysiology2019,3.0.5,59.7993306691054,
To what extent did the music make you feel ,SCARED,30MonoWAV/30MonoF4.wav,1,2,2,4,,,,,0,6,6,3,0,0,0,11,,,4,5.8674410530074965,1,4.851828290993581,1,1.450137524996535,5,4.019562506000511,025,001,2019_May_13_1612,MusicAffectPsychophysiology2019,3.0.5,59.7993306691054,
To what extent did the music make you feel ,GUILTY,30MonoWAV/30MonoF4.wav,1,2,2,4,,,,,0,6,6,3,0,1,1,5,,,,,,,,,2,7.800892368002678,025,001,2019_May_13_1612,MusicAffectPsychophysiology2019,3.0.5,59.7993306691054,
To what extent did the music make you feel ,HAPPY,30MonoWAV/30MonoF4.wav,1,2,2,4,,,,,0,6,6,3,0,2,2,6,,,,,,,,,1,1.701604961999692,025,001,2019_May_13_1612,MusicAffectPsychophysiology2019,3.0.5,59.7993306691054,
To what extent did the music make you feel ,EXCITED,30MonoWAV/30MonoF4.wav,1,2,2,4,,,,,0,6,6,3,0,3,3,7,,,,,,,,,2,2.851468688008026,025,001,2019_May_13_1612,MusicAffectPsychophysiology2019,3.0.5,59.7993306691054,
To what extent did the music make you feel ,FRUSTRATED,30MonoWAV/30MonoF4.wav,1,2,2,4,,,,,0,6,6,3,0,4,4,3,,,,,,,,,1,2.43507334899914,025,001,2019_May_13_1612,MusicAffectPsychophysiology2019,3.0.5,59.7993306691054,
To what extent did the music make you feel ,SAD,30MonoWAV/30MonoF4.wav,1,2,2,4,,,,,0,6,6,3,0,5,5,0,,,,,,,,,1,1.4848348749947036,025,001,2019_May_13_1612,MusicAffectPsychophysiology2019,3.0.5,59.7993306691054,
To what extent did the music make you feel ,ANGRY,30MonoWAV/30MonoF4.wav,1,2,2,4,,,,,0,6,6,3,0,6,6,2,,,,,,,,,3,2.5196699560037814,025,001,2019_May_13_1612,MusicAffectPsychophysiology2019,3.0.5,59.7993306691054,
To what extent did the music make you feel ,ALERT,30MonoWAV/30MonoF4.wav,1,2,2,4,,,,,0,6,6,3,0,7,7,8,,,,,,,,,4,2.0671463960024994,025,001,2019_May_13_1612,MusicAffectPsychophysiology2019,3.0.5,59.7993306691054,
To what extent did the music make you feel ,ASHAMED,30MonoWAV/30MonoF4.wav,1,2,2,4,,,,,0,6,6,3,0,8,8,4,,,,,,,,,2,2.3503322869946714,025,001,2019_May_13_1612,MusicAffectPsychophysiology2019,3.0.5,59.7993306691054,
To what extent did the music make you feel ,ANXIOUS ,30MonoWAV/30MonoF4.wav,1,2,2,4,,,,,0,6,6,3,0,9,9,1,,,,,,,,,4,4.186505710997153,025,001,2019_May_13_1612,MusicAffectPsychophysiology2019,3.0.5,59.7993306691054,
To what extent did the music make you feel ,ACTIVE,30MonoWAV/30MonoF4.wav,1,2,2,4,,,,,0,6,6,3,0,10,10,9,,,,,,,,,2,4.28452296499745,025,001,2019_May_13_1612,MusicAffectPsychophysiology2019,3.0.5,59.7993306691054,
To what extent did the music make you feel ,TENDER,30MonoWAV/30MonoF4.wav,1,2,2,4,,,,,0,6,6,3,0,11,11,10,,,,,,,,,1,2.084883372997865,025,001,2019_May_13_1612,MusicAffectPsychophysiology2019,3.0.5,59.7993306691054,
,,30MonoWAV/30MonoF4.wav,1,2,2,4,,,,,0,6,6,3,,,,,,,,,,,,,,,025,001,2019_May_13_1612,MusicAffectPsychophysiology2019,3.0.5,59.7993306691054,
To what extent did the music make you feel ,ANGRY,30MonoWAV/30MonoF2.wav,1,2,2,2,,,,,0,7,7,1,0,0,0,2,,,5,6.450681351998355,1,3.6853642070054775,1,1.2188038269960089,1,3.0884331009874586,025,001,2019_May_13_1612,MusicAffectPsychophysiology2019,3.0.5,59.7993306691054,
To what extent did the music make you feel ,TENDER,30MonoWAV/30MonoF2.wav,1,2,2,2,,,,,0,7,7,1,0,1,1,10,,,,,,,,,1,1.6169822350057075,025,001,2019_May_13_1612,MusicAffectPsychophysiology2019,3.0.5,59.7993306691054,
To what extent did the music make you feel ,ACTIVE,30MonoWAV/30MonoF2.wav,1,2,2,2,,,,,0,7,7,1,0,2,2,9,,,,,,,,,1,2.2345278510038042,025,001,2019_May_13_1612,MusicAffectPsychophysiology2019,3.0.5,59.7993306691054,
To what extent did the music make you feel ,HAPPY,30MonoWAV/30MonoF2.wav,1,2,2,2,,,,,0,7,7,1,0,3,3,6,,,,,,,,,1,0.9019969429937191,025,001,2019_May_13_1612,MusicAffectPsychophysiology2019,3.0.5,59.7993306691054,
To what extent did the music make you feel ,FRUSTRATED,30MonoWAV/30MonoF2.wav,1,2,2,2,,,,,0,7,7,1,0,4,4,3,,,,,,,,,1,4.167667734989664,025,001,2019_May_13_1612,MusicAffectPsychophysiology2019,3.0.5,59.7993306691054,
To what extent did the music make you feel ,GUILTY,30MonoWAV/30MonoF2.wav,1,2,2,2,,,,,0,7,7,1,0,5,5,5,,,,,,,,,1,2.3517467049969127,025,001,2019_May_13_1612,MusicAffectPsychophysiology2019,3.0.5,59.7993306691054,
To what extent did the music make you feel ,ANXIOUS ,30MonoWAV/30MonoF2.wav,1,2,2,2,,,,,0,7,7,1,0,6,6,1,,,,,,,,,5,1.6349480229982873,025,001,2019_May_13_1612,MusicAffectPsychophysiology2019,3.0.5,59.7993306691054,
To what extent did the music make you feel ,ALERT,30MonoWAV/30MonoF2.wav,1,2,2,2,,,,,0,7,7,1,0,7,7,8,,,,,,,,,5,0.7856326830078615,025,001,2019_May_13_1612,MusicAffectPsychophysiology2019,3.0.5,59.7993306691054,
To what extent did the music make you feel ,EXCITED,30MonoWAV/30MonoF2.wav,1,2,2,2,,,,,0,7,7,1,0,8,8,7,,,,,,,,,1,3.6178289389936253,025,001,2019_May_13_1612,MusicAffectPsychophysiology2019,3.0.5,59.7993306691054,
To what extent did the music make you feel ,ASHAMED,30MonoWAV/30MonoF2.wav,1,2,2,2,,,,,0,7,7,1,0,9,9,4,,,,,,,,,1,2.449554420003551,025,001,2019_May_13_1612,MusicAffectPsychophysiology2019,3.0.5,59.7993306691054,
To what extent did the music make you feel ,SCARED,30MonoWAV/30MonoF2.wav,1,2,2,2,,,,,0,7,7,1,0,10,10,11,,,,,,,,,5,0.8856701209879247,025,001,2019_May_13_1612,MusicAffectPsychophysiology2019,3.0.5,59.7993306691054,
To what extent did the music make you feel ,SAD,30MonoWAV/30MonoF2.wav,1,2,2,2,,,,,0,7,7,1,0,11,11,0,,,,,,,,,1,4.984418021005695,025,001,2019_May_13_1612,MusicAffectPsychophysiology2019,3.0.5,59.7993306691054,
,,30MonoWAV/30MonoF2.wav,1,2,2,2,,,,,0,7,7,1,,,,,,,,,,,,,,,025,001,2019_May_13_1612,MusicAffectPsychophysiology2019,3.0.5,59.7993306691054,
To what extent did the music make you feel ,ASHAMED,30MonoWAV/30MonoF3.wav,1,2,2,3,,,,,0,8,8,2,0,0,0,4,,,4,5.051657708012499,3,13.600480902998243,2,3.236289341992233,1,1.9353304550022585,025,001,2019_May_13_1612,MusicAffectPsychophysiology2019,3.0.5,59.7993306691054,
To what extent did the music make you feel ,FRUSTRATED,30MonoWAV/30MonoF3.wav,1,2,2,3,,,,,0,8,8,2,0,1,1,3,,,,,,,,,2,4.207044050999684,025,001,2019_May_13_1612,MusicAffectPsychophysiology2019,3.0.5,59.7993306691054,
To what extent did the music make you feel ,ACTIVE,30MonoWAV/30MonoF3.wav,1,2,2,3,,,,,0,8,8,2,0,2,2,9,,,,,,,,,4,2.0711890799866524,025,001,2019_May_13_1612,MusicAffectPsychophysiology2019,3.0.5,59.7993306691054,
To what extent did the music make you feel ,ANXIOUS ,30MonoWAV/30MonoF3.wav,1,2,2,3,,,,,0,8,8,2,0,3,3,1,,,,,,,,,2,2.127646976005053,025,001,2019_May_13_1612,MusicAffectPsychophysiology2019,3.0.5,59.7993306691054,
To what extent did the music make you feel ,TENDER,30MonoWAV/30MonoF3.wav,1,2,2,3,,,,,0,8,8,2,0,4,4,10,,,,,,,,,1,1.5683236680051778,025,001,2019_May_13_1612,MusicAffectPsychophysiology2019,3.0.5,59.7993306691054,
To what extent did the music make you feel ,HAPPY,30MonoWAV/30MonoF3.wav,1,2,2,3,,,,,0,8,8,2,0,5,5,6,,,,,,,,,1,3.5341702379955677,025,001,2019_May_13_1612,MusicAffectPsychophysiology2019,3.0.5,59.7993306691054,
To what extent did the music make you feel ,ANGRY,30MonoWAV/30MonoF3.wav,1,2,2,3,,,,,0,8,8,2,0,6,6,2,,,,,,,,,1,0.7831078500021249,025,001,2019_May_13_1612,MusicAffectPsychophysiology2019,3.0.5,59.7993306691054,
To what extent did the music make you feel ,GUILTY,30MonoWAV/30MonoF3.wav,1,2,2,3,,,,,0,8,8,2,0,7,7,5,,,,,,,,,1,3.635269915990648,025,001,2019_May_13_1612,MusicAffectPsychophysiology2019,3.0.5,59.7993306691054,
To what extent did the music make you feel ,SCARED,30MonoWAV/30MonoF3.wav,1,2,2,3,,,,,0,8,8,2,0,8,8,11,,,,,,,,,2,2.1346203410066664,025,001,2019_May_13_1612,MusicAffectPsychophysiology2019,3.0.5,59.7993306691054,
To what extent did the music make you feel ,SAD,30MonoWAV/30MonoF3.wav,1,2,2,3,,,,,0,8,8,2,0,9,9,0,,,,,,,,,2,2.4849642799963476,025,001,2019_May_13_1612,MusicAffectPsychophysiology2019,3.0.5,59.7993306691054,
To what extent did the music make you feel ,EXCITED,30MonoWAV/30MonoF3.wav,1,2,2,3,,,,,0,8,8,2,0,10,10,7,,,,,,,,,4,2.1514377650019014,025,001,2019_May_13_1612,MusicAffectPsychophysiology2019,3.0.5,59.7993306691054,
To what extent did the music make you feel ,ALERT,30MonoWAV/30MonoF3.wav,1,2,2,3,,,,,0,8,8,2,0,11,11,8,,,,,,,,,4,1.8006709109904477,025,001,2019_May_13_1612,MusicAffectPsychophysiology2019,3.0.5,59.7993306691054,
,,30MonoWAV/30MonoF3.wav,1,2,2,3,,,,,0,8,8,2,,,,,,,,,,,,,,,025,001,2019_May_13_1612,MusicAffectPsychophysiology2019,3.0.5,59.7993306691054,
To what extent did the music make you feel ,ANGRY,30MonoWAV/30MonoH1.wav,2,2,1,5,,,,,0,9,9,4,0,0,0,2,,,5,3.7512458870041883,5,1.4360781659925124,5,0.8348916909890249,1,2.3029679419996683,025,001,2019_May_13_1612,MusicAffectPsychophysiology2019,3.0.5,59.7993306691054,
To what extent did the music make you feel ,ALERT,30MonoWAV/30MonoH1.wav,2,2,1,5,,,,,0,9,9,4,0,1,1,8,,,,,,,,,4,2.519226685006288,025,001,2019_May_13_1612,MusicAffectPsychophysiology2019,3.0.5,59.7993306691054,
To what extent did the music make you feel ,ACTIVE,30MonoWAV/30MonoH1.wav,2,2,1,5,,,,,0,9,9,4,0,2,2,9,,,,,,,,,5,2.1364685430016834,025,001,2019_May_13_1612,MusicAffectPsychophysiology2019,3.0.5,59.7993306691054,
To what extent did the music make you feel ,HAPPY,30MonoWAV/30MonoH1.wav,2,2,1,5,,,,,0,9,9,4,0,3,3,6,,,,,,,,,4,2.0007717320113443,025,001,2019_May_13_1612,MusicAffectPsychophysiology2019,3.0.5,59.7993306691054,
To what extent did the music make you feel ,EXCITED,30MonoWAV/30MonoH1.wav,2,2,1,5,,,,,0,9,9,4,0,4,4,7,,,,,,,,,3,3.3677630650054198,025,001,2019_May_13_1612,MusicAffectPsychophysiology2019,3.0.5,59.7993306691054,
To what extent did the music make you feel ,ANXIOUS ,30MonoWAV/30MonoH1.wav,2,2,1,5,,,,,0,9,9,4,0,5,5,1,,,,,,,,,1,1.7023316480044741,025,001,2019_May_13_1612,MusicAffectPsychophysiology2019,3.0.5,59.7993306691054,
To what extent did the music make you feel ,GUILTY,30MonoWAV/30MonoH1.wav,2,2,1,5,,,,,0,9,9,4,0,6,6,5,,,,,,,,,1,1.1685112260020105,025,001,2019_May_13_1612,MusicAffectPsychophysiology2019,3.0.5,59.7993306691054,
To what extent did the music make you feel ,SCARED,30MonoWAV/30MonoH1.wav,2,2,1,5,,,,,0,9,9,4,0,7,7,11,,,,,,,,,1,2.634387512996909,025,001,2019_May_13_1612,MusicAffectPsychophysiology2019,3.0.5,59.7993306691054,
To what extent did the music make you feel ,TENDER,30MonoWAV/30MonoH1.wav,2,2,1,5,,,,,0,9,9,4,0,8,8,10,,,,,,,,,3,3.8996122750104405,025,001,2019_May_13_1612,MusicAffectPsychophysiology2019,3.0.5,59.7993306691054,
To what extent did the music make you feel ,ASHAMED,30MonoWAV/30MonoH1.wav,2,2,1,5,,,,,0,9,9,4,0,9,9,4,,,,,,,,,1,1.001565454993397,025,001,2019_May_13_1612,MusicAffectPsychophysiology2019,3.0.5,59.7993306691054,
To what extent did the music make you feel ,FRUSTRATED,30MonoWAV/30MonoH1.wav,2,2,1,5,,,,,0,9,9,4,0,10,10,3,,,,,,,,,1,1.2852056639967486,025,001,2019_May_13_1612,MusicAffectPsychophysiology2019,3.0.5,59.7993306691054,
To what extent did the music make you feel ,SAD,30MonoWAV/30MonoH1.wav,2,2,1,5,,,,,0,9,9,4,0,11,11,0,,,,,,,,,1,0.5352366799925221,025,001,2019_May_13_1612,MusicAffectPsychophysiology2019,3.0.5,59.7993306691054,
,,30MonoWAV/30MonoH1.wav,2,2,1,5,,,,,0,9,9,4,,,,,,,,,,,,,,,025,001,2019_May_13_1612,MusicAffectPsychophysiology2019,3.0.5,59.7993306691054,
To what extent did the music make you feel ,GUILTY,30MonoWAV/30MonoF1.wav,1,2,2,1,,,,,0,10,10,0,0,0,0,5,,,4,4.335842122003669,1,3.3184350749943405,1,5.182425527993473,2,1.5027353890036466,025,001,2019_May_13_1612,MusicAffectPsychophysiology2019,3.0.5,59.7993306691054,
To what extent did the music make you feel ,EXCITED,30MonoWAV/30MonoF1.wav,1,2,2,1,,,,,0,10,10,0,0,1,1,7,,,,,,,,,3,1.666810105991317,025,001,2019_May_13_1612,MusicAffectPsychophysiology2019,3.0.5,59.7993306691054,
To what extent did the music make you feel ,ANGRY,30MonoWAV/30MonoF1.wav,1,2,2,1,,,,,0,10,10,0,0,2,2,2,,,,,,,,,1,11.28453244199045,025,001,2019_May_13_1612,MusicAffectPsychophysiology2019,3.0.5,59.7993306691054,
To what extent did the music make you feel ,ANXIOUS ,30MonoWAV/30MonoF1.wav,1,2,2,1,,,,,0,10,10,0,0,3,3,1,,,,,,,,,5,2.8677682319976157,025,001,2019_May_13_1612,MusicAffectPsychophysiology2019,3.0.5,59.7993306691054,
To what extent did the music make you feel ,ALERT,30MonoWAV/30MonoF1.wav,1,2,2,1,,,,,0,10,10,0,0,4,4,8,,,,,,,,,5,1.1854422920005163,025,001,2019_May_13_1612,MusicAffectPsychophysiology2019,3.0.5,59.7993306691054,
To what extent did the music make you feel ,HAPPY,30MonoWAV/30MonoF1.wav,1,2,2,1,,,,,0,10,10,0,0,5,5,6,,,,,,,,,1,1.985410862005665,025,001,2019_May_13_1612,MusicAffectPsychophysiology2019,3.0.5,59.7993306691054,
To what extent did the music make you feel ,FRUSTRATED,30MonoWAV/30MonoF1.wav,1,2,2,1,,,,,0,10,10,0,0,6,6,3,,,,,,,,,1,6.2522423150076065,025,001,2019_May_13_1612,MusicAffectPsychophysiology2019,3.0.5,59.7993306691054,
To what extent did the music make you feel ,SAD,30MonoWAV/30MonoF1.wav,1,2,2,1,,,,,0,10,10,0,0,7,7,0,,,,,,,,,1,1.4018337540037464,025,001,2019_May_13_1612,MusicAffectPsychophysiology2019,3.0.5,59.7993306691054,
To what extent did the music make you feel ,ASHAMED,30MonoWAV/30MonoF1.wav,1,2,2,1,,,,,0,10,10,0,0,8,8,4,,,,,,,,,2,2.550575611006934,025,001,2019_May_13_1612,MusicAffectPsychophysiology2019,3.0.5,59.7993306691054,
To what extent did the music make you feel ,TENDER,30MonoWAV/30MonoF1.wav,1,2,2,1,,,,,0,10,10,0,0,9,9,10,,,,,,,,,1,1.6530418610054767,025,001,2019_May_13_1612,MusicAffectPsychophysiology2019,3.0.5,59.7993306691054,
To what extent did the music make you feel ,ACTIVE,30MonoWAV/30MonoF1.wav,1,2,2,1,,,,,0,10,10,0,0,10,10,9,,,,,,,,,3,2.053095700000995,025,001,2019_May_13_1612,MusicAffectPsychophysiology2019,3.0.5,59.7993306691054,
To what extent did the music make you feel ,SCARED,30MonoWAV/30MonoF1.wav,1,2,2,1,,,,,0,10,10,0,0,11,11,11,,,,,,,,,4,1.8842939289897913,025,001,2019_May_13_1612,MusicAffectPsychophysiology2019,3.0.5,59.7993306691054,
,,30MonoWAV/30MonoF1.wav,1,2,2,1,,,,,0,10,10,0,,,,,,,,,,,,,,,025,001,2019_May_13_1612,MusicAffectPsychophysiology2019,3.0.5,59.7993306691054,
To what extent did the music make you feel ,FRUSTRATED,30MonoWAV/30MonoS3.wav,1,1,3,11,,,,,0,11,11,10,0,0,0,3,,,2,24.299297391000437,1,5.916775934994803,1,2.5013728129997617,2,4.08547933200316,025,001,2019_May_13_1612,MusicAffectPsychophysiology2019,3.0.5,59.7993306691054,
To what extent did the music make you feel ,TENDER,30MonoWAV/30MonoS3.wav,1,1,3,11,,,,,0,11,11,10,0,1,1,10,,,,,,,,,1,1.9374437840015162,025,001,2019_May_13_1612,MusicAffectPsychophysiology2019,3.0.5,59.7993306691054,
To what extent did the music make you feel ,SCARED,30MonoWAV/30MonoS3.wav,1,1,3,11,,,,,0,11,11,10,0,2,2,11,,,,,,,,,3,1.8008199360047001,025,001,2019_May_13_1612,MusicAffectPsychophysiology2019,3.0.5,59.7993306691054,
To what extent did the music make you feel ,SAD,30MonoWAV/30MonoS3.wav,1,1,3,11,,,,,0,11,11,10,0,3,3,0,,,,,,,,,4,1.8680051980045391,025,001,2019_May_13_1612,MusicAffectPsychophysiology2019,3.0.5,59.7993306691054,
To what extent did the music make you feel ,ANXIOUS ,30MonoWAV/30MonoS3.wav,1,1,3,11,,,,,0,11,11,10,0,4,4,1,,,,,,,,,4,1.4847778200055473,025,001,2019_May_13_1612,MusicAffectPsychophysiology2019,3.0.5,59.7993306691054,
To what extent did the music make you feel ,HAPPY,30MonoWAV/30MonoS3.wav,1,1,3,11,,,,,0,11,11,10,0,5,5,6,,,,,,,,,1,1.1560168090072693,025,001,2019_May_13_1612,MusicAffectPsychophysiology2019,3.0.5,59.7993306691054,
To what extent did the music make you feel ,ANGRY,30MonoWAV/30MonoS3.wav,1,1,3,11,,,,,0,11,11,10,0,6,6,2,,,,,,,,,2,2.0188693429954583,025,001,2019_May_13_1612,MusicAffectPsychophysiology2019,3.0.5,59.7993306691054,
To what extent did the music make you feel ,GUILTY,30MonoWAV/30MonoS3.wav,1,1,3,11,,,,,0,11,11,10,0,7,7,5,,,,,,,,,2,1.1526242980035022,025,001,2019_May_13_1612,MusicAffectPsychophysiology2019,3.0.5,59.7993306691054,
To what extent did the music make you feel ,ALERT,30MonoWAV/30MonoS3.wav,1,1,3,11,,,,,0,11,11,10,0,8,8,8,,,,,,,,,2,5.734325162004097,025,001,2019_May_13_1612,MusicAffectPsychophysiology2019,3.0.5,59.7993306691054,
To what extent did the music make you feel ,ASHAMED,30MonoWAV/30MonoS3.wav,1,1,3,11,,,,,0,11,11,10,0,9,9,4,,,,,,,,,1,1.4525346699956572,025,001,2019_May_13_1612,MusicAffectPsychophysiology2019,3.0.5,59.7993306691054,
To what extent did the music make you feel ,EXCITED,30MonoWAV/30MonoS3.wav,1,1,3,11,,,,,0,11,11,10,0,10,10,7,,,,,,,,,1,2.433911522006383,025,001,2019_May_13_1612,MusicAffectPsychophysiology2019,3.0.5,59.7993306691054,
To what extent did the music make you feel ,ACTIVE,30MonoWAV/30MonoS3.wav,1,1,3,11,,,,,0,11,11,10,0,11,11,9,,,,,,,,,1,3.153081664000638,025,001,2019_May_13_1612,MusicAffectPsychophysiology2019,3.0.5,59.7993306691054,
,,30MonoWAV/30MonoS3.wav,1,1,3,11,,,,,0,11,11,10,,,,,,,,,,,,,,,025,001,2019_May_13_1612,MusicAffectPsychophysiology2019,3.0.5,59.7993306691054,
To what extent did the music make you feel ,SCARED,30MonoWAV/30MonoH4.wav,2,2,1,8,,,,,0,12,12,7,0,0,0,11,,,5,3.001516160002211,5,1.20217706800031,3,2.585774670005776,1,2.6358718749979744,025,001,2019_May_13_1612,MusicAffectPsychophysiology2019,3.0.5,59.7993306691054,
To what extent did the music make you feel ,ANGRY,30MonoWAV/30MonoH4.wav,2,2,1,8,,,,,0,12,12,7,0,1,1,2,,,,,,,,,1,2.285282893004478,025,001,2019_May_13_1612,MusicAffectPsychophysiology2019,3.0.5,59.7993306691054,
To what extent did the music make you feel ,GUILTY,30MonoWAV/30MonoH4.wav,2,2,1,8,,,,,0,12,12,7,0,2,2,5,,,,,,,,,1,1.0516041060036514,025,001,2019_May_13_1612,MusicAffectPsychophysiology2019,3.0.5,59.7993306691054,
To what extent did the music make you feel ,ANXIOUS ,30MonoWAV/30MonoH4.wav,2,2,1,8,,,,,0,12,12,7,0,3,3,1,,,,,,,,,1,0.7845157960109646,025,001,2019_May_13_1612,MusicAffectPsychophysiology2019,3.0.5,59.7993306691054,
To what extent did the music make you feel ,FRUSTRATED,30MonoWAV/30MonoH4.wav,2,2,1,8,,,,,0,12,12,7,0,4,4,3,,,,,,,,,1,0.9013636830059113,025,001,2019_May_13_1612,MusicAffectPsychophysiology2019,3.0.5,59.7993306691054,
To what extent did the music make you feel ,HAPPY,30MonoWAV/30MonoH4.wav,2,2,1,8,,,,,0,12,12,7,0,5,5,6,,,,,,,,,5,2.1181997200037586,025,001,2019_May_13_1612,MusicAffectPsychophysiology2019,3.0.5,59.7993306691054,
To what extent did the music make you feel ,ALERT,30MonoWAV/30MonoH4.wav,2,2,1,8,,,,,0,12,12,7,0,6,6,8,,,,,,,,,5,0.9013642540085129,025,001,2019_May_13_1612,MusicAffectPsychophysiology2019,3.0.5,59.7993306691054,
To what extent did the music make you feel ,ACTIVE,30MonoWAV/30MonoH4.wav,2,2,1,8,,,,,0,12,12,7,0,7,7,9,,,,,,,,,5,0.6522636390000116,025,001,2019_May_13_1612,MusicAffectPsychophysiology2019,3.0.5,59.7993306691054,
To what extent did the music make you feel ,ASHAMED,30MonoWAV/30MonoH4.wav,2,2,1,8,,,,,0,12,12,7,0,8,8,4,,,,,,,,,1,1.9484346679964801,025,001,2019_May_13_1612,MusicAffectPsychophysiology2019,3.0.5,59.7993306691054,
To what extent did the music make you feel ,SAD,30MonoWAV/30MonoH4.wav,2,2,1,8,,,,,0,12,12,7,0,9,9,0,,,,,,,,,1,0.7519597409991547,025,001,2019_May_13_1612,MusicAffectPsychophysiology2019,3.0.5,59.7993306691054,
To what extent did the music make you feel ,EXCITED,30MonoWAV/30MonoH4.wav,2,2,1,8,,,,,0,12,12,7,0,10,10,7,,,,,,,,,4,1.451666242995998,025,001,2019_May_13_1612,MusicAffectPsychophysiology2019,3.0.5,59.7993306691054,
To what extent did the music make you feel ,TENDER,30MonoWAV/30MonoH4.wav,2,2,1,8,,,,,0,12,12,7,0,11,11,10,,,,,,,,,1,1.0357788279943634,025,001,2019_May_13_1612,MusicAffectPsychophysiology2019,3.0.5,59.7993306691054,
,,30MonoWAV/30MonoH4.wav,2,2,1,8,,,,,0,12,12,7,,,,,,,,,,,,,,,025,001,2019_May_13_1612,MusicAffectPsychophysiology2019,3.0.5,59.7993306691054,
To what extent did the music make you feel ,ANXIOUS ,30MonoWAV/30MonoS2.wav,1,1,3,10,,,,,0,13,13,9,0,0,0,1,,,1,5.110472507003578,1,3.8352303329884307,1,2.605890045000706,2,1.947184885997558,025,001,2019_May_13_1612,MusicAffectPsychophysiology2019,3.0.5,59.7993306691054,
To what extent did the music make you feel ,EXCITED,30MonoWAV/30MonoS2.wav,1,1,3,10,,,,,0,13,13,9,0,1,1,7,,,,,,,,,1,2.9529904310038546,025,001,2019_May_13_1612,MusicAffectPsychophysiology2019,3.0.5,59.7993306691054,
To what extent did the music make you feel ,FRUSTRATED,30MonoWAV/30MonoS2.wav,1,1,3,10,,,,,0,13,13,9,0,2,2,3,,,,,,,,,3,2.6998929279943695,025,001,2019_May_13_1612,MusicAffectPsychophysiology2019,3.0.5,59.7993306691054,
To what extent did the music make you feel ,ASHAMED,30MonoWAV/30MonoS2.wav,1,1,3,10,,,,,0,13,13,9,0,3,3,4,,,,,,,,,3,2.767968493993976,025,001,2019_May_13_1612,MusicAffectPsychophysiology2019,3.0.5,59.7993306691054,
To what extent did the music make you feel ,SAD,30MonoWAV/30MonoS2.wav,1,1,3,10,,,,,0,13,13,9,0,4,4,0,,,,,,,,,4,3.2846524180058623,025,001,2019_May_13_1612,MusicAffectPsychophysiology2019,3.0.5,59.7993306691054,
To what extent did the music make you feel ,ALERT,30MonoWAV/30MonoS2.wav,1,1,3,10,,,,,0,13,13,9,0,5,5,8,,,,,,,,,1,2.234986290000961,025,001,2019_May_13_1612,MusicAffectPsychophysiology2019,3.0.5,59.7993306691054,
To what extent did the music make you feel ,ANGRY,30MonoWAV/30MonoS2.wav,1,1,3,10,,,,,0,13,13,9,0,6,6,2,,,,,,,,,1,1.8351324289978947,025,001,2019_May_13_1612,MusicAffectPsychophysiology2019,3.0.5,59.7993306691054,
To what extent did the music make you feel ,ACTIVE,30MonoWAV/30MonoS2.wav,1,1,3,10,,,,,0,13,13,9,0,7,7,9,,,,,,,,,2,1.5184950950060738,025,001,2019_May_13_1612,MusicAffectPsychophysiology2019,3.0.5,59.7993306691054,
To what extent did the music make you feel ,TENDER,30MonoWAV/30MonoS2.wav,1,1,3,10,,,,,0,13,13,9,0,8,8,10,,,,,,,,,3,2.034751621991745,025,001,2019_May_13_1612,MusicAffectPsychophysiology2019,3.0.5,59.7993306691054,
To what extent did the music make you feel ,HAPPY,30MonoWAV/30MonoS2.wav,1,1,3,10,,,,,0,13,13,9,0,9,9,6,,,,,,,,,1,1.6690633219986921,025,001,2019_May_13_1612,MusicAffectPsychophysiology2019,3.0.5,59.7993306691054,
To what extent did the music make you feel ,SCARED,30MonoWAV/30MonoS2.wav,1,1,3,10,,,,,0,13,13,9,0,10,10,11,,,,,,,,,1,0.7533777089993237,025,001,2019_May_13_1612,MusicAffectPsychophysiology2019,3.0.5,59.7993306691054,
To what extent did the music make you feel ,GUILTY,30MonoWAV/30MonoS2.wav,1,1,3,10,,,,,0,13,13,9,0,11,11,5,,,,,,,,,4,2.622524902995792,025,001,2019_May_13_1612,MusicAffectPsychophysiology2019,3.0.5,59.7993306691054,
,,30MonoWAV/30MonoS2.wav,1,1,3,10,,,,,0,13,13,9,,,,,,,,,,,,,,,025,001,2019_May_13_1612,MusicAffectPsychophysiology2019,3.0.5,59.7993306691054,
To what extent did the music make you feel ,FRUSTRATED,30MonoWAV/30MonoT2.wav,2,1,4,14,,,,,0,14,14,13,0,0,0,3,,,4,8.525693642994156,3,5.984015291993273,5,1.668651169995428,1,2.290260384004796,025,001,2019_May_13_1612,MusicAffectPsychophysiology2019,3.0.5,59.7993306691054,
To what extent did the music make you feel ,TENDER,30MonoWAV/30MonoT2.wav,2,1,4,14,,,,,0,14,14,13,0,1,1,10,,,,,,,,,4,2.3676048680063104,025,001,2019_May_13_1612,MusicAffectPsychophysiology2019,3.0.5,59.7993306691054,
To what extent did the music make you feel ,ALERT,30MonoWAV/30MonoT2.wav,2,1,4,14,,,,,0,14,14,13,0,2,2,8,,,,,,,,,3,2.286229741992429,025,001,2019_May_13_1612,MusicAffectPsychophysiology2019,3.0.5,59.7993306691054,
To what extent did the music make you feel ,ANGRY,30MonoWAV/30MonoT2.wav,2,1,4,14,,,,,0,14,14,13,0,3,3,2,,,,,,,,,1,1.518253217000165,025,001,2019_May_13_1612,MusicAffectPsychophysiology2019,3.0.5,59.7993306691054,
To what extent did the music make you feel ,GUILTY,30MonoWAV/30MonoT2.wav,2,1,4,14,,,,,0,14,14,13,0,4,4,5,,,,,,,,,1,1.5860291729914024,025,001,2019_May_13_1612,MusicAffectPsychophysiology2019,3.0.5,59.7993306691054,
To what extent did the music make you feel ,HAPPY,30MonoWAV/30MonoT2.wav,2,1,4,14,,,,,0,14,14,13,0,5,5,6,,,,,,,,,5,3.7358891240000958,025,001,2019_May_13_1612,MusicAffectPsychophysiology2019,3.0.5,59.7993306691054,
To what extent did the music make you feel ,ASHAMED,30MonoWAV/30MonoT2.wav,2,1,4,14,,,,,0,14,14,13,0,6,6,4,,,,,,,,,1,1.0860511179926107,025,001,2019_May_13_1612,MusicAffectPsychophysiology2019,3.0.5,59.7993306691054,
To what extent did the music make you feel ,EXCITED,30MonoWAV/30MonoT2.wav,2,1,4,14,,,,,0,14,14,13,0,7,7,7,,,,,,,,,1,2.1674675310059683,025,001,2019_May_13_1612,MusicAffectPsychophysiology2019,3.0.5,59.7993306691054,
To what extent did the music make you feel ,SCARED,30MonoWAV/30MonoT2.wav,2,1,4,14,,,,,0,14,14,13,0,8,8,11,,,,,,,,,1,0.7021050850016763,025,001,2019_May_13_1612,MusicAffectPsychophysiology2019,3.0.5,59.7993306691054,
To what extent did the music make you feel ,ANXIOUS ,30MonoWAV/30MonoT2.wav,2,1,4,14,,,,,0,14,14,13,0,9,9,1,,,,,,,,,1,1.0687301299913088,025,001,2019_May_13_1612,MusicAffectPsychophysiology2019,3.0.5,59.7993306691054,
To what extent did the music make you feel ,ACTIVE,30MonoWAV/30MonoT2.wav,2,1,4,14,,,,,0,14,14,13,0,10,10,9,,,,,,,,,2,2.05156183699728,025,001,2019_May_13_1612,MusicAffectPsychophysiology2019,3.0.5,59.7993306691054,
To what extent did the music make you feel ,SAD,30MonoWAV/30MonoT2.wav,2,1,4,14,,,,,0,14,14,13,0,11,11,0,,,,,,,,,3,5.001727351991576,025,001,2019_May_13_1612,MusicAffectPsychophysiology2019,3.0.5,59.7993306691054,
,,30MonoWAV/30MonoT2.wav,2,1,4,14,,,,,0,14,14,13,,,,,,,,,,,,,,,025,001,2019_May_13_1612,MusicAffectPsychophysiology2019,3.0.5,59.7993306691054,
To what extent did the music make you feel ,GUILTY,30MonoWAV/30MonoS4.wav,1,1,3,12,,,,,0,15,15,11,0,0,0,5,,,1,6.20140659599565,1,3.833156617998611,2,3.2182690759946126,3,6.802179161997628,025,001,2019_May_13_1612,MusicAffectPsychophysiology2019,3.0.5,59.7993306691054,
To what extent did the music make you feel ,SAD,30MonoWAV/30MonoS4.wav,1,1,3,12,,,,,0,15,15,11,0,1,1,0,,,,,,,,,4,1.2520009440049762,025,001,2019_May_13_1612,MusicAffectPsychophysiology2019,3.0.5,59.7993306691054,
To what extent did the music make you feel ,ASHAMED,30MonoWAV/30MonoS4.wav,1,1,3,12,,,,,0,15,15,11,0,2,2,4,,,,,,,,,2,1.9196542680001585,025,001,2019_May_13_1612,MusicAffectPsychophysiology2019,3.0.5,59.7993306691054,
To what extent did the music make you feel ,ACTIVE,30MonoWAV/30MonoS4.wav,1,1,3,12,,,,,0,15,15,11,0,3,3,9,,,,,,,,,1,1.1353361229994334,025,001,2019_May_13_1612,MusicAffectPsychophysiology2019,3.0.5,59.7993306691054,
To what extent did the music make you feel ,ALERT,30MonoWAV/30MonoS4.wav,1,1,3,12,,,,,0,15,15,11,0,4,4,8,,,,,,,,,1,2.66788338200422,025,001,2019_May_13_1612,MusicAffectPsychophysiology2019,3.0.5,59.7993306691054,
To what extent did the music make you feel ,ANGRY,30MonoWAV/30MonoS4.wav,1,1,3,12,,,,,0,15,15,11,0,5,5,2,,,,,,,,,1,1.4185416210093535,025,001,2019_May_13_1612,MusicAffectPsychophysiology2019,3.0.5,59.7993306691054,
To what extent did the music make you feel ,HAPPY,30MonoWAV/30MonoS4.wav,1,1,3,12,,,,,0,15,15,11,0,6,6,6,,,,,,,,,1,1.7192064770060824,025,001,2019_May_13_1612,MusicAffectPsychophysiology2019,3.0.5,59.7993306691054,
To what extent did the music make you feel ,FRUSTRATED,30MonoWAV/30MonoS4.wav,1,1,3,12,,,,,0,15,15,11,0,7,7,3,,,,,,,,,1,2.353888124009245,025,001,2019_May_13_1612,MusicAffectPsychophysiology2019,3.0.5,59.7993306691054,
To what extent did the music make you feel ,TENDER,30MonoWAV/30MonoS4.wav,1,1,3,12,,,,,0,15,15,11,0,8,8,10,,,,,,,,,4,2.05364373800694,025,001,2019_May_13_1612,MusicAffectPsychophysiology2019,3.0.5,59.7993306691054,
To what extent did the music make you feel ,SCARED,30MonoWAV/30MonoS4.wav,1,1,3,12,,,,,0,15,15,11,0,9,9,11,,,,,,,,,2,1.4368933360092342,025,001,2019_May_13_1612,MusicAffectPsychophysiology2019,3.0.5,59.7993306691054,
To what extent did the music make you feel ,ANXIOUS ,30MonoWAV/30MonoS4.wav,1,1,3,12,,,,,0,15,15,11,0,10,10,1,,,,,,,,,2,1.721720195011585,025,001,2019_May_13_1612,MusicAffectPsychophysiology2019,3.0.5,59.7993306691054,
To what extent did the music make you feel ,EXCITED,30MonoWAV/30MonoS4.wav,1,1,3,12,,,,,0,15,15,11,0,11,11,7,,,,,,,,,1,1.2740323809994152,025,001,2019_May_13_1612,MusicAffectPsychophysiology2019,3.0.5,59.7993306691054,
,,30MonoWAV/30MonoS4.wav,1,1,3,12,,,,,0,15,15,11,,,,,,,,,,,,,,,025,001,2019_May_13_1612,MusicAffectPsychophysiology2019,3.0.5,59.7993306691054,
To what extent did the music make you feel ,SCARED,30MonoWAV/30MonoS2.wav,1,1,3,10,,,,,1,0,16,9,0,0,0,11,,,1,4.185019099997589,1,6.833894265000708,1,1.9352693969995016,1,2.134835718010436,025,001,2019_May_13_1612,MusicAffectPsychophysiology2019,3.0.5,59.7993306691054,
To what extent did the music make you feel ,ANGRY,30MonoWAV/30MonoS2.wav,1,1,3,10,,,,,1,0,16,9,0,1,1,2,,,,,,,,,1,3.885166605003178,025,001,2019_May_13_1612,MusicAffectPsychophysiology2019,3.0.5,59.7993306691054,
To what extent did the music make you feel ,GUILTY,30MonoWAV/30MonoS2.wav,1,1,3,10,,,,,1,0,16,9,0,2,2,5,,,,,,,,,4,2.3352864390035393,025,001,2019_May_13_1612,MusicAffectPsychophysiology2019,3.0.5,59.7993306691054,
To what extent did the music make you feel ,SAD,30MonoWAV/30MonoS2.wav,1,1,3,10,,,,,1,0,16,9,0,3,3,0,,,,,,,,,4,1.184936072997516,025,001,2019_May_13_1612,MusicAffectPsychophysiology2019,3.0.5,59.7993306691054,
To what extent did the music make you feel ,ALERT,30MonoWAV/30MonoS2.wav,1,1,3,10,,,,,1,0,16,9,0,4,4,8,,,,,,,,,1,2.952663579999353,025,001,2019_May_13_1612,MusicAffectPsychophysiology2019,3.0.5,59.7993306691054,
To what extent did the music make you feel ,ANXIOUS ,30MonoWAV/30MonoS2.wav,1,1,3,10,,,,,1,0,16,9,0,5,5,1,,,,,,,,,1,3.17003296900657,025,001,2019_May_13_1612,MusicAffectPsychophysiology2019,3.0.5,59.7993306691054,
To what extent did the music make you feel ,EXCITED,30MonoWAV/30MonoS2.wav,1,1,3,10,,,,,1,0,16,9,0,6,6,7,,,,,,,,,1,0.818318192003062,025,001,2019_May_13_1612,MusicAffectPsychophysiology2019,3.0.5,59.7993306691054,
To what extent did the music make you feel ,FRUSTRATED,30MonoWAV/30MonoS2.wav,1,1,3,10,,,,,1,0,16,9,0,7,7,3,,,,,,,,,2,1.8185630319931079,025,001,2019_May_13_1612,MusicAffectPsychophysiology2019,3.0.5,59.7993306691054,
To what extent did the music make you feel ,HAPPY,30MonoWAV/30MonoS2.wav,1,1,3,10,,,,,1,0,16,9,0,8,8,6,,,,,,,,,1,0.88461808100692,025,001,2019_May_13_1612,MusicAffectPsychophysiology2019,3.0.5,59.7993306691054,
To what extent did the music make you feel ,ACTIVE,30MonoWAV/30MonoS2.wav,1,1,3,10,,,,,1,0,16,9,0,9,9,9,,,,,,,,,1,0.8689136130124098,025,001,2019_May_13_1612,MusicAffectPsychophysiology2019,3.0.5,59.7993306691054,
To what extent did the music make you feel ,ASHAMED,30MonoWAV/30MonoS2.wav,1,1,3,10,,,,,1,0,16,9,0,10,10,4,,,,,,,,,3,1.7176153470063582,025,001,2019_May_13_1612,MusicAffectPsychophysiology2019,3.0.5,59.7993306691054,
To what extent did the music make you feel ,TENDER,30MonoWAV/30MonoS2.wav,1,1,3,10,,,,,1,0,16,9,0,11,11,10,,,,,,,,,3,1.218418707998353,025,001,2019_May_13_1612,MusicAffectPsychophysiology2019,3.0.5,59.7993306691054,
,,30MonoWAV/30MonoS2.wav,1,1,3,10,,,,,1,0,16,9,,,,,,,,,,,,,,,025,001,2019_May_13_1612,MusicAffectPsychophysiology2019,3.0.5,59.7993306691054,
To what extent did the music make you feel ,EXCITED,30MonoWAV/30MonoS3.wav,1,1,3,11,,,,,1,1,17,10,0,0,0,7,,,1,5.183021603006637,2,2.4181152090022806,1,2.1187805579975247,1,1.4022518520068843,025,001,2019_May_13_1612,MusicAffectPsychophysiology2019,3.0.5,59.7993306691054,
To what extent did the music make you feel ,FRUSTRATED,30MonoWAV/30MonoS3.wav,1,1,3,11,,,,,1,1,17,10,0,1,1,3,,,,,,,,,1,4.669055717997253,025,001,2019_May_13_1612,MusicAffectPsychophysiology2019,3.0.5,59.7993306691054,
To what extent did the music make you feel ,SAD,30MonoWAV/30MonoS3.wav,1,1,3,11,,,,,1,1,17,10,0,2,2,0,,,,,,,,,3,2.3665901940112235,025,001,2019_May_13_1612,MusicAffectPsychophysiology2019,3.0.5,59.7993306691054,
To what extent did the music make you feel ,HAPPY,30MonoWAV/30MonoS3.wav,1,1,3,11,,,,,1,1,17,10,0,3,3,6,,,,,,,,,1,1.0019203440024285,025,001,2019_May_13_1612,MusicAffectPsychophysiology2019,3.0.5,59.7993306691054,
To what extent did the music make you feel ,GUILTY,30MonoWAV/30MonoS3.wav,1,1,3,11,,,,,1,1,17,10,0,4,4,5,,,,,,,,,4,1.8193023619969608,025,001,2019_May_13_1612,MusicAffectPsychophysiology2019,3.0.5,59.7993306691054,
To what extent did the music make you feel ,TENDER,30MonoWAV/30MonoS3.wav,1,1,3,11,,,,,1,1,17,10,0,5,5,10,,,,,,,,,3,2.4013177399901906,025,001,2019_May_13_1612,MusicAffectPsychophysiology2019,3.0.5,59.7993306691054,
To what extent did the music make you feel ,SCARED,30MonoWAV/30MonoS3.wav,1,1,3,11,,,,,1,1,17,10,0,6,6,11,,,,,,,,,2,1.5524777819955489,025,001,2019_May_13_1612,MusicAffectPsychophysiology2019,3.0.5,59.7993306691054,
To what extent did the music make you feel ,ASHAMED,30MonoWAV/30MonoS3.wav,1,1,3,11,,,,,1,1,17,10,0,7,7,4,,,,,,,,,2,2.8015598689962644,025,001,2019_May_13_1612,MusicAffectPsychophysiology2019,3.0.5,59.7993306691054,
To what extent did the music make you feel ,ACTIVE,30MonoWAV/30MonoS3.wav,1,1,3,11,,,,,1,1,17,10,0,8,8,9,,,,,,,,,1,0.9845712170063052,025,001,2019_May_13_1612,MusicAffectPsychophysiology2019,3.0.5,59.7993306691054,
To what extent did the music make you feel ,ANGRY,30MonoWAV/30MonoS3.wav,1,1,3,11,,,,,1,1,17,10,0,9,9,2,,,,,,,,,1,4.201470346990391,025,001,2019_May_13_1612,MusicAffectPsychophysiology2019,3.0.5,59.7993306691054,
To what extent did the music make you feel ,ANXIOUS ,30MonoWAV/30MonoS3.wav,1,1,3,11,,,,,1,1,17,10,0,10,10,1,,,,,,,,,4,2.186079860999598,025,001,2019_May_13_1612,MusicAffectPsychophysiology2019,3.0.5,59.7993306691054,
To what extent did the music make you feel ,ALERT,30MonoWAV/30MonoS3.wav,1,1,3,11,,,,,1,1,17,10,0,11,11,8,,,,,,,,,4,2.3013551179901697,025,001,2019_May_13_1612,MusicAffectPsychophysiology2019,3.0.5,59.7993306691054,
,,30MonoWAV/30MonoS3.wav,1,1,3,11,,,,,1,1,17,10,,,,,,,,,,,,,,,025,001,2019_May_13_1612,MusicAffectPsychophysiology2019,3.0.5,59.7993306691054,
To what extent did the music make you feel ,GUILTY,30MonoWAV/30MonoT1.wav,2,1,4,13,,,,,1,2,18,12,0,0,0,5,,,2,3.3355739820108283,3,2.334361079003429,3,1.3856073039933108,1,6.835562972992193,025,001,2019_May_13_1612,MusicAffectPsychophysiology2019,3.0.5,59.7993306691054,
To what extent did the music make you feel ,HAPPY,30MonoWAV/30MonoT1.wav,2,1,4,13,,,,,1,2,18,12,0,1,1,6,,,,,,,,,4,2.751521222991869,025,001,2019_May_13_1612,MusicAffectPsychophysiology2019,3.0.5,59.7993306691054,
To what extent did the music make you feel ,ASHAMED,30MonoWAV/30MonoT1.wav,2,1,4,13,,,,,1,2,18,12,0,2,2,4,,,,,,,,,1,1.0182913820026442,025,001,2019_May_13_1612,MusicAffectPsychophysiology2019,3.0.5,59.7993306691054,
To what extent did the music make you feel ,SCARED,30MonoWAV/30MonoT1.wav,2,1,4,13,,,,,1,2,18,12,0,3,3,11,,,,,,,,,1,1.6191030039917678,025,001,2019_May_13_1612,MusicAffectPsychophysiology2019,3.0.5,59.7993306691054,
To what extent did the music make you feel ,TENDER,30MonoWAV/30MonoT1.wav,2,1,4,13,,,,,1,2,18,12,0,4,4,10,,,,,,,,,3,1.867659105992061,025,001,2019_May_13_1612,MusicAffectPsychophysiology2019,3.0.5,59.7993306691054,
To what extent did the music make you feel ,ANXIOUS ,30MonoWAV/30MonoT1.wav,2,1,4,13,,,,,1,2,18,12,0,5,5,1,,,,,,,,,1,1.4864063450077083,025,001,2019_May_13_1612,MusicAffectPsychophysiology2019,3.0.5,59.7993306691054,
To what extent did the music make you feel ,FRUSTRATED,30MonoWAV/30MonoT1.wav,2,1,4,13,,,,,1,2,18,12,0,6,6,3,,,,,,,,,1,0.9352023370011011,025,001,2019_May_13_1612,MusicAffectPsychophysiology2019,3.0.5,59.7993306691054,
To what extent did the music make you feel ,ANGRY,30MonoWAV/30MonoT1.wav,2,1,4,13,,,,,1,2,18,12,0,7,7,2,,,,,,,,,1,0.7006617400038522,025,001,2019_May_13_1612,MusicAffectPsychophysiology2019,3.0.5,59.7993306691054,
To what extent did the music make you feel ,EXCITED,30MonoWAV/30MonoT1.wav,2,1,4,13,,,,,1,2,18,12,0,8,8,7,,,,,,,,,2,2.383662981999805,025,001,2019_May_13_1612,MusicAffectPsychophysiology2019,3.0.5,59.7993306691054,
To what extent did the music make you feel ,ALERT,30MonoWAV/30MonoT1.wav,2,1,4,13,,,,,1,2,18,12,0,9,9,8,,,,,,,,,1,4.049761934991693,025,001,2019_May_13_1612,MusicAffectPsychophysiology2019,3.0.5,59.7993306691054,
To what extent did the music make you feel ,SAD,30MonoWAV/30MonoT1.wav,2,1,4,13,,,,,1,2,18,12,0,10,10,0,,,,,,,,,1,2.8022536579956068,025,001,2019_May_13_1612,MusicAffectPsychophysiology2019,3.0.5,59.7993306691054,
To what extent did the music make you feel ,ACTIVE,30MonoWAV/30MonoT1.wav,2,1,4,13,,,,,1,2,18,12,0,11,11,9,,,,,,,,,1,1.1851024530042196,025,001,2019_May_13_1612,MusicAffectPsychophysiology2019,3.0.5,59.7993306691054,
,,30MonoWAV/30MonoT1.wav,2,1,4,13,,,,,1,2,18,12,,,,,,,,,,,,,,,025,001,2019_May_13_1612,MusicAffectPsychophysiology2019,3.0.5,59.7993306691054,
To what extent did the music make you feel ,GUILTY,30MonoWAV/30MonoF3.wav,1,2,2,3,,,,,1,3,19,2,0,0,0,5,,,3,5.1539431489945855,1,3.318287304995465,1,1.234512711991556,1,1.8842308400053298,025,001,2019_May_13_1612,MusicAffectPsychophysiology2019,3.0.5,59.7993306691054,
To what extent did the music make you feel ,ANGRY,30MonoWAV/30MonoF3.wav,1,2,2,3,,,,,1,3,19,2,0,1,1,2,,,,,,,,,3,2.90102308501082,025,001,2019_May_13_1612,MusicAffectPsychophysiology2019,3.0.5,59.7993306691054,
To what extent did the music make you feel ,HAPPY,30MonoWAV/30MonoF3.wav,1,2,2,3,,,,,1,3,19,2,0,2,2,6,,,,,,,,,1,1.7692304969968973,025,001,2019_May_13_1612,MusicAffectPsychophysiology2019,3.0.5,59.7993306691054,
To what extent did the music make you feel ,ACTIVE,30MonoWAV/30MonoF3.wav,1,2,2,3,,,,,1,3,19,2,0,3,3,9,,,,,,,,,3,1.9851434449956287,025,001,2019_May_13_1612,MusicAffectPsychophysiology2019,3.0.5,59.7993306691054,
To what extent did the music make you feel ,FRUSTRATED,30MonoWAV/30MonoF3.wav,1,2,2,3,,,,,1,3,19,2,0,4,4,3,,,,,,,,,2,1.468634770004428,025,001,2019_May_13_1612,MusicAffectPsychophysiology2019,3.0.5,59.7993306691054,
To what extent did the music make you feel ,ASHAMED,30MonoWAV/30MonoF3.wav,1,2,2,3,,,,,1,3,19,2,0,5,5,4,,,,,,,,,1,1.6185779380029999,025,001,2019_May_13_1612,MusicAffectPsychophysiology2019,3.0.5,59.7993306691054,
To what extent did the music make you feel ,ALERT,30MonoWAV/30MonoF3.wav,1,2,2,3,,,,,1,3,19,2,0,6,6,8,,,,,,,,,2,1.9689061819954077,025,001,2019_May_13_1612,MusicAffectPsychophysiology2019,3.0.5,59.7993306691054,
To what extent did the music make you feel ,EXCITED,30MonoWAV/30MonoF3.wav,1,2,2,3,,,,,1,3,19,2,0,7,7,7,,,,,,,,,2,2.1683052750013303,025,001,2019_May_13_1612,MusicAffectPsychophysiology2019,3.0.5,59.7993306691054,
To what extent did the music make you feel ,SCARED,30MonoWAV/30MonoF3.wav,1,2,2,3,,,,,1,3,19,2,0,8,8,11,,,,,,,,,2,3.5020067489967914,025,001,2019_May_13_1612,MusicAffectPsychophysiology2019,3.0.5,59.7993306691054,
To what extent did the music make you feel ,SAD,30MonoWAV/30MonoF3.wav,1,2,2,3,,,,,1,3,19,2,0,9,9,0,,,,,,,,,1,2.26782447900041,025,001,2019_May_13_1612,MusicAffectPsychophysiology2019,3.0.5,59.7993306691054,
To what extent did the music make you feel ,ANXIOUS ,30MonoWAV/30MonoF3.wav,1,2,2,3,,,,,1,3,19,2,0,10,10,1,,,,,,,,,2,5.001108271011617,025,001,2019_May_13_1612,MusicAffectPsychophysiology2019,3.0.5,59.7993306691054,
To what extent did the music make you feel ,TENDER,30MonoWAV/30MonoF3.wav,1,2,2,3,,,,,1,3,19,2,0,11,11,10,,,,,,,,,1,1.5020594809902832,025,001,2019_May_13_1612,MusicAffectPsychophysiology2019,3.0.5,59.7993306691054,
,,30MonoWAV/30MonoF3.wav,1,2,2,3,,,,,1,3,19,2,,,,,,,,,,,,,,,025,001,2019_May_13_1612,MusicAffectPsychophysiology2019,3.0.5,59.7993306691054,
To what extent did the music make you feel ,ANGRY,30MonoWAV/30MonoS1.wav,1,1,3,9,,,,,1,4,20,8,0,0,0,2,,,2,4.650073078999412,1,2.399551488997531,1,1.3683147170086158,1,1.6331927979917964,025,001,2019_May_13_1612,MusicAffectPsychophysiology2019,3.0.5,59.7993306691054,
To what extent did the music make you feel ,ASHAMED,30MonoWAV/30MonoS1.wav,1,1,3,9,,,,,1,4,20,8,0,1,1,4,,,,,,,,,2,3.3673338899970986,025,001,2019_May_13_1612,MusicAffectPsychophysiology2019,3.0.5,59.7993306691054,
To what extent did the music make you feel ,FRUSTRATED,30MonoWAV/30MonoS1.wav,1,1,3,9,,,,,1,4,20,8,0,2,2,3,,,,,,,,,1,2.170409993996145,025,001,2019_May_13_1612,MusicAffectPsychophysiology2019,3.0.5,59.7993306691054,
To what extent did the music make you feel ,EXCITED,30MonoWAV/30MonoS1.wav,1,1,3,9,,,,,1,4,20,8,0,3,3,7,,,,,,,,,1,1.0006466779886978,025,001,2019_May_13_1612,MusicAffectPsychophysiology2019,3.0.5,59.7993306691054,
To what extent did the music make you feel ,ACTIVE,30MonoWAV/30MonoS1.wav,1,1,3,9,,,,,1,4,20,8,0,4,4,9,,,,,,,,,1,0.9853091560071334,025,001,2019_May_13_1612,MusicAffectPsychophysiology2019,3.0.5,59.7993306691054,
To what extent did the music make you feel ,ALERT,30MonoWAV/30MonoS1.wav,1,1,3,9,,,,,1,4,20,8,0,5,5,8,,,,,,,,,1,1.7016303159907693,025,001,2019_May_13_1612,MusicAffectPsychophysiology2019,3.0.5,59.7993306691054,
To what extent did the music make you feel ,HAPPY,30MonoWAV/30MonoS1.wav,1,1,3,9,,,,,1,4,20,8,0,6,6,6,,,,,,,,,1,1.4516001859883545,025,001,2019_May_13_1612,MusicAffectPsychophysiology2019,3.0.5,59.7993306691054,
To what extent did the music make you feel ,ANXIOUS ,30MonoWAV/30MonoS1.wav,1,1,3,9,,,,,1,4,20,8,0,7,7,1,,,,,,,,,5,2.151407337994897,025,001,2019_May_13_1612,MusicAffectPsychophysiology2019,3.0.5,59.7993306691054,
To what extent did the music make you feel ,TENDER,30MonoWAV/30MonoS1.wav,1,1,3,9,,,,,1,4,20,8,0,8,8,10,,,,,,,,,2,2.4514278040005593,025,001,2019_May_13_1612,MusicAffectPsychophysiology2019,3.0.5,59.7993306691054,
To what extent did the music make you feel ,SAD,30MonoWAV/30MonoS1.wav,1,1,3,9,,,,,1,4,20,8,0,9,9,0,,,,,,,,,3,2.918079948009108,025,001,2019_May_13_1612,MusicAffectPsychophysiology2019,3.0.5,59.7993306691054,
To what extent did the music make you feel ,GUILTY,30MonoWAV/30MonoS1.wav,1,1,3,9,,,,,1,4,20,8,0,10,10,5,,,,,,,,,2,1.3528582239960087,025,001,2019_May_13_1612,MusicAffectPsychophysiology2019,3.0.5,59.7993306691054,
To what extent did the music make you feel ,SCARED,30MonoWAV/30MonoS1.wav,1,1,3,9,,,,,1,4,20,8,0,11,11,11,,,,,,,,,2,2.4349137929966673,025,001,2019_May_13_1612,MusicAffectPsychophysiology2019,3.0.5,59.7993306691054,
,,30MonoWAV/30MonoS1.wav,1,1,3,9,,,,,1,4,20,8,,,,,,,,,,,,,,,025,001,2019_May_13_1612,MusicAffectPsychophysiology2019,3.0.5,59.7993306691054,
To what extent did the music make you feel ,ANXIOUS ,30MonoWAV/30MonoT4.wav,2,1,4,16,,,,,1,5,21,15,0,0,0,1,,,5,2.268572362998384,4,3.7020822369959205,3,1.7021445249993121,1,2.1068674139969517,025,001,2019_May_13_1612,MusicAffectPsychophysiology2019,3.0.5,59.7993306691054,
To what extent did the music make you feel ,ALERT,30MonoWAV/30MonoT4.wav,2,1,4,16,,,,,1,5,21,15,0,1,1,8,,,,,,,,,4,1.7850850090035237,025,001,2019_May_13_1612,MusicAffectPsychophysiology2019,3.0.5,59.7993306691054,
To what extent did the music make you feel ,ASHAMED,30MonoWAV/30MonoT4.wav,2,1,4,16,,,,,1,5,21,15,0,2,2,4,,,,,,,,,1,1.5035023009986617,025,001,2019_May_13_1612,MusicAffectPsychophysiology2019,3.0.5,59.7993306691054,
To what extent did the music make you feel ,GUILTY,30MonoWAV/30MonoT4.wav,2,1,4,16,,,,,1,5,21,15,0,3,3,5,,,,,,,,,1,0.5760087610105984,025,001,2019_May_13_1612,MusicAffectPsychophysiology2019,3.0.5,59.7993306691054,
To what extent did the music make you feel ,ACTIVE,30MonoWAV/30MonoT4.wav,2,1,4,16,,,,,1,5,21,15,0,4,4,9,,,,,,,,,2,1.9347463159938343,025,001,2019_May_13_1612,MusicAffectPsychophysiology2019,3.0.5,59.7993306691054,
To what extent did the music make you feel ,ANGRY,30MonoWAV/30MonoT4.wav,2,1,4,16,,,,,1,5,21,15,0,5,5,2,,,,,,,,,1,0.7354779300076189,025,001,2019_May_13_1612,MusicAffectPsychophysiology2019,3.0.5,59.7993306691054,
To what extent did the music make you feel ,SAD,30MonoWAV/30MonoT4.wav,2,1,4,16,,,,,1,5,21,15,0,6,6,0,,,,,,,,,1,2.35069812599977,025,001,2019_May_13_1612,MusicAffectPsychophysiology2019,3.0.5,59.7993306691054,
To what extent did the music make you feel ,SCARED,30MonoWAV/30MonoT4.wav,2,1,4,16,,,,,1,5,21,15,0,7,7,11,,,,,,,,,1,0.8520534849958494,025,001,2019_May_13_1612,MusicAffectPsychophysiology2019,3.0.5,59.7993306691054,
To what extent did the music make you feel ,FRUSTRATED,30MonoWAV/30MonoT4.wav,2,1,4,16,,,,,1,5,21,15,0,8,8,3,,,,,,,,,1,0.8171427179913735,025,001,2019_May_13_1612,MusicAffectPsychophysiology2019,3.0.5,59.7993306691054,
To what extent did the music make you feel ,HAPPY,30MonoWAV/30MonoT4.wav,2,1,4,16,,,,,1,5,21,15,0,9,9,6,,,,,,,,,3,1.468602409993764,025,001,2019_May_13_1612,MusicAffectPsychophysiology2019,3.0.5,59.7993306691054,
To what extent did the music make you feel ,TENDER,30MonoWAV/30MonoT4.wav,2,1,4,16,,,,,1,5,21,15,0,10,10,10,,,,,,,,,4,1.619053733011242,025,001,2019_May_13_1612,MusicAffectPsychophysiology2019,3.0.5,59.7993306691054,
To what extent did the music make you feel ,EXCITED,30MonoWAV/30MonoT4.wav,2,1,4,16,,,,,1,5,21,15,0,11,11,7,,,,,,,,,3,2.7345158370007994,025,001,2019_May_13_1612,MusicAffectPsychophysiology2019,3.0.5,59.7993306691054,
,,30MonoWAV/30MonoT4.wav,2,1,4,16,,,,,1,5,21,15,,,,,,,,,,,,,,,025,001,2019_May_13_1612,MusicAffectPsychophysiology2019,3.0.5,59.7993306691054,
To what extent did the music make you feel ,SAD,30MonoWAV/30MonoH3.wav,2,2,1,7,,,,,1,6,22,6,0,0,0,0,,,5,2.418117799999891,4,4.652215032998356,2,2.4693583650077926,1,1.6001731629949063,025,001,2019_May_13_1612,MusicAffectPsychophysiology2019,3.0.5,59.7993306691054,
To what extent did the music make you feel ,EXCITED,30MonoWAV/30MonoH3.wav,2,2,1,7,,,,,1,6,22,6,0,1,1,7,,,,,,,,,5,1.8356060210062424,025,001,2019_May_13_1612,MusicAffectPsychophysiology2019,3.0.5,59.7993306691054,
To what extent did the music make you feel ,ANXIOUS ,30MonoWAV/30MonoH3.wav,2,2,1,7,,,,,1,6,22,6,0,2,2,1,,,,,,,,,1,0.9021450569998706,025,001,2019_May_13_1612,MusicAffectPsychophysiology2019,3.0.5,59.7993306691054,
To what extent did the music make you feel ,FRUSTRATED,30MonoWAV/30MonoH3.wav,2,2,1,7,,,,,1,6,22,6,0,3,3,3,,,,,,,,,1,2.667895809005131,025,001,2019_May_13_1612,MusicAffectPsychophysiology2019,3.0.5,59.7993306691054,
To what extent did the music make you feel ,ASHAMED,30MonoWAV/30MonoH3.wav,2,2,1,7,,,,,1,6,22,6,0,4,4,4,,,,,,,,,1,1.0191282190062338,025,001,2019_May_13_1612,MusicAffectPsychophysiology2019,3.0.5,59.7993306691054,
To what extent did the music make you feel ,ANGRY,30MonoWAV/30MonoH3.wav,2,2,1,7,,,,,1,6,22,6,0,5,5,2,,,,,,,,,1,1.252309545991011,025,001,2019_May_13_1612,MusicAffectPsychophysiology2019,3.0.5,59.7993306691054,
To what extent did the music make you feel ,ACTIVE,30MonoWAV/30MonoH3.wav,2,2,1,7,,,,,1,6,22,6,0,6,6,9,,,,,,,,,4,1.9511053689930122,025,001,2019_May_13_1612,MusicAffectPsychophysiology2019,3.0.5,59.7993306691054,
To what extent did the music make you feel ,TENDER,30MonoWAV/30MonoH3.wav,2,2,1,7,,,,,1,6,22,6,0,7,7,10,,,,,,,,,1,1.71874007700535,025,001,2019_May_13_1612,MusicAffectPsychophysiology2019,3.0.5,59.7993306691054,
To what extent did the music make you feel ,SCARED,30MonoWAV/30MonoH3.wav,2,2,1,7,,,,,1,6,22,6,0,8,8,11,,,,,,,,,1,1.1669002700073179,025,001,2019_May_13_1612,MusicAffectPsychophysiology2019,3.0.5,59.7993306691054,
To what extent did the music make you feel ,HAPPY,30MonoWAV/30MonoH3.wav,2,2,1,7,,,,,1,6,22,6,0,9,9,6,,,,,,,,,4,1.8834534040070139,025,001,2019_May_13_1612,MusicAffectPsychophysiology2019,3.0.5,59.7993306691054,
To what extent did the music make you feel ,GUILTY,30MonoWAV/30MonoH3.wav,2,2,1,7,,,,,1,6,22,6,0,10,10,5,,,,,,,,,1,1.9007590350083774,025,001,2019_May_13_1612,MusicAffectPsychophysiology2019,3.0.5,59.7993306691054,
To what extent did the music make you feel ,ALERT,30MonoWAV/30MonoH3.wav,2,2,1,7,,,,,1,6,22,6,0,11,11,8,,,,,,,,,5,2.301643229991896,025,001,2019_May_13_1612,MusicAffectPsychophysiology2019,3.0.5,59.7993306691054,
,,30MonoWAV/30MonoH3.wav,2,2,1,7,,,,,1,6,22,6,,,,,,,,,,,,,,,025,001,2019_May_13_1612,MusicAffectPsychophysiology2019,3.0.5,59.7993306691054,
To what extent did the music make you feel ,TENDER,30MonoWAV/30MonoF1.wav,1,2,2,1,,,,,1,7,23,0,0,0,0,10,,,5,5.38368186900334,1,4.584315826999955,1,0.8689716600056272,1,1.9181093889928889,025,001,2019_May_13_1612,MusicAffectPsychophysiology2019,3.0.5,59.7993306691054,
To what extent did the music make you feel ,GUILTY,30MonoWAV/30MonoF1.wav,1,2,2,1,,,,,1,7,23,0,0,1,1,5,,,,,,,,,2,2.134914245994878,025,001,2019_May_13_1612,MusicAffectPsychophysiology2019,3.0.5,59.7993306691054,
To what extent did the music make you feel ,ACTIVE,30MonoWAV/30MonoF1.wav,1,2,2,1,,,,,1,7,23,0,0,2,2,9,,,,,,,,,4,1.8515230960038025,025,001,2019_May_13_1612,MusicAffectPsychophysiology2019,3.0.5,59.7993306691054,
To what extent did the music make you feel ,HAPPY,30MonoWAV/30MonoF1.wav,1,2,2,1,,,,,1,7,23,0,0,3,3,6,,,,,,,,,1,1.0014290330000222,025,001,2019_May_13_1612,MusicAffectPsychophysiology2019,3.0.5,59.7993306691054,
To what extent did the music make you feel ,ANGRY,30MonoWAV/30MonoF1.wav,1,2,2,1,,,,,1,7,23,0,0,4,4,2,,,,,,,,,5,1.7677997309947386,025,001,2019_May_13_1612,MusicAffectPsychophysiology2019,3.0.5,59.7993306691054,
To what extent did the music make you feel ,SCARED,30MonoWAV/30MonoF1.wav,1,2,2,1,,,,,1,7,23,0,0,5,5,11,,,,,,,,,4,3.4513660149968928,025,001,2019_May_13_1612,MusicAffectPsychophysiology2019,3.0.5,59.7993306691054,
To what extent did the music make you feel ,FRUSTRATED,30MonoWAV/30MonoF1.wav,1,2,2,1,,,,,1,7,23,0,0,6,6,3,,,,,,,,,1,3.3167665349901654,025,001,2019_May_13_1612,MusicAffectPsychophysiology2019,3.0.5,59.7993306691054,
To what extent did the music make you feel ,ALERT,30MonoWAV/30MonoF1.wav,1,2,2,1,,,,,1,7,23,0,0,7,7,8,,,,,,,,,5,1.3680441429896746,025,001,2019_May_13_1612,MusicAffectPsychophysiology2019,3.0.5,59.7993306691054,
To what extent did the music make you feel ,SAD,30MonoWAV/30MonoF1.wav,1,2,2,1,,,,,1,7,23,0,0,8,8,0,,,,,,,,,1,2.0174076589901233,025,001,2019_May_13_1612,MusicAffectPsychophysiology2019,3.0.5,59.7993306691054,
To what extent did the music make you feel ,ASHAMED,30MonoWAV/30MonoF1.wav,1,2,2,1,,,,,1,7,23,0,0,9,9,4,,,,,,,,,2,1.3847984960011672,025,001,2019_May_13_1612,MusicAffectPsychophysiology2019,3.0.5,59.7993306691054,
To what extent did the music make you feel ,ANXIOUS ,30MonoWAV/30MonoF1.wav,1,2,2,1,,,,,1,7,23,0,0,10,10,1,,,,,,,,,5,2.151459063999937,025,001,2019_May_13_1612,MusicAffectPsychophysiology2019,3.0.5,59.7993306691054,
To what extent did the music make you feel ,EXCITED,30MonoWAV/30MonoF1.wav,1,2,2,1,,,,,1,7,23,0,0,11,11,7,,,,,,,,,1,4.718242148999707,025,001,2019_May_13_1612,MusicAffectPsychophysiology2019,3.0.5,59.7993306691054,
,,30MonoWAV/30MonoF1.wav,1,2,2,1,,,,,1,7,23,0,,,,,,,,,,,,,,,025,001,2019_May_13_1612,MusicAffectPsychophysiology2019,3.0.5,59.7993306691054,
To what extent did the music make you feel ,SAD,30MonoWAV/30MonoF2.wav,1,2,2,2,,,,,1,8,24,1,0,0,0,0,,,4,3.868945818001521,1,1.602131660998566,1,0.733532529004151,1,1.5849813680106308,025,001,2019_May_13_1612,MusicAffectPsychophysiology2019,3.0.5,59.7993306691054,
To what extent did the music make you feel ,GUILTY,30MonoWAV/30MonoF2.wav,1,2,2,2,,,,,1,8,24,1,0,1,1,5,,,,,,,,,2,3.6017469780053943,025,001,2019_May_13_1612,MusicAffectPsychophysiology2019,3.0.5,59.7993306691054,
To what extent did the music make you feel ,ANGRY,30MonoWAV/30MonoF2.wav,1,2,2,2,,,,,1,8,24,1,0,2,2,2,,,,,,,,,1,1.2179980829969281,025,001,2019_May_13_1612,MusicAffectPsychophysiology2019,3.0.5,59.7993306691054,
To what extent did the music make you feel ,ANXIOUS ,30MonoWAV/30MonoF2.wav,1,2,2,2,,,,,1,8,24,1,0,3,3,1,,,,,,,,,5,1.3851944689959055,025,001,2019_May_13_1612,MusicAffectPsychophysiology2019,3.0.5,59.7993306691054,
To what extent did the music make you feel ,EXCITED,30MonoWAV/30MonoF2.wav,1,2,2,2,,,,,1,8,24,1,0,4,4,7,,,,,,,,,1,2.968481249001343,025,001,2019_May_13_1612,MusicAffectPsychophysiology2019,3.0.5,59.7993306691054,
To what extent did the music make you feel ,FRUSTRATED,30MonoWAV/30MonoF2.wav,1,2,2,2,,,,,1,8,24,1,0,5,5,3,,,,,,,,,1,0.9516201369988266,025,001,2019_May_13_1612,MusicAffectPsychophysiology2019,3.0.5,59.7993306691054,
To what extent did the music make you feel ,ASHAMED,30MonoWAV/30MonoF2.wav,1,2,2,2,,,,,1,8,24,1,0,6,6,4,,,,,,,,,1,3.4329187630064553,025,001,2019_May_13_1612,MusicAffectPsychophysiology2019,3.0.5,59.7993306691054,
To what extent did the music make you feel ,TENDER,30MonoWAV/30MonoF2.wav,1,2,2,2,,,,,1,8,24,1,0,7,7,10,,,,,,,,,1,1.149984328993014,025,001,2019_May_13_1612,MusicAffectPsychophysiology2019,3.0.5,59.7993306691054,
To what extent did the music make you feel ,ACTIVE,30MonoWAV/30MonoF2.wav,1,2,2,2,,,,,1,8,24,1,0,8,8,9,,,,,,,,,2,1.618484521008213,025,001,2019_May_13_1612,MusicAffectPsychophysiology2019,3.0.5,59.7993306691054,
To what extent did the music make you feel ,SCARED,30MonoWAV/30MonoF2.wav,1,2,2,2,,,,,1,8,24,1,0,9,9,11,,,,,,,,,5,1.0383772169880103,025,001,2019_May_13_1612,MusicAffectPsychophysiology2019,3.0.5,59.7993306691054,
To what extent did the music make you feel ,ALERT,30MonoWAV/30MonoF2.wav,1,2,2,2,,,,,1,8,24,1,0,10,10,8,,,,,,,,,5,0.7363352679967647,025,001,2019_May_13_1612,MusicAffectPsychophysiology2019,3.0.5,59.7993306691054,
To what extent did the music make you feel ,HAPPY,30MonoWAV/30MonoF2.wav,1,2,2,2,,,,,1,8,24,1,0,11,11,6,,,,,,,,,1,1.1035544500045944,025,001,2019_May_13_1612,MusicAffectPsychophysiology2019,3.0.5,59.7993306691054,
,,30MonoWAV/30MonoF2.wav,1,2,2,2,,,,,1,8,24,1,,,,,,,,,,,,,,,025,001,2019_May_13_1612,MusicAffectPsychophysiology2019,3.0.5,59.7993306691054,
To what extent did the music make you feel ,ANGRY,30MonoWAV/30MonoF4.wav,1,2,2,4,,,,,1,9,25,3,0,0,0,2,,,5,2.9513874919939553,1,2.051706276004552,1,1.0019442320044618,2,1.8188963900029194,025,001,2019_May_13_1612,MusicAffectPsychophysiology2019,3.0.5,59.7993306691054,
To what extent did the music make you feel ,GUILTY,30MonoWAV/30MonoF4.wav,1,2,2,4,,,,,1,9,25,3,0,1,1,5,,,,,,,,,1,1.7516392590041505,025,001,2019_May_13_1612,MusicAffectPsychophysiology2019,3.0.5,59.7993306691054,
To what extent did the music make you feel ,ANXIOUS ,30MonoWAV/30MonoF4.wav,1,2,2,4,,,,,1,9,25,3,0,2,2,1,,,,,,,,,4,6.384464566013776,025,001,2019_May_13_1612,MusicAffectPsychophysiology2019,3.0.5,59.7993306691054,
To what extent did the music make you feel ,FRUSTRATED,30MonoWAV/30MonoF4.wav,1,2,2,4,,,,,1,9,25,3,0,3,3,3,,,,,,,,,1,1.5500214810017496,025,001,2019_May_13_1612,MusicAffectPsychophysiology2019,3.0.5,59.7993306691054,
To what extent did the music make you feel ,ALERT,30MonoWAV/30MonoF4.wav,1,2,2,4,,,,,1,9,25,3,0,4,4,8,,,,,,,,,5,1.1862064449960599,025,001,2019_May_13_1612,MusicAffectPsychophysiology2019,3.0.5,59.7993306691054,
To what extent did the music make you feel ,HAPPY,30MonoWAV/30MonoF4.wav,1,2,2,4,,,,,1,9,25,3,0,5,5,6,,,,,,,,,1,1.3857082909962628,025,001,2019_May_13_1612,MusicAffectPsychophysiology2019,3.0.5,59.7993306691054,
To what extent did the music make you feel ,SCARED,30MonoWAV/30MonoF4.wav,1,2,2,4,,,,,1,9,25,3,0,6,6,11,,,,,,,,,5,0.8493323790025897,025,001,2019_May_13_1612,MusicAffectPsychophysiology2019,3.0.5,59.7993306691054,
To what extent did the music make you feel ,EXCITED,30MonoWAV/30MonoF4.wav,1,2,2,4,,,,,1,9,25,3,0,7,7,7,,,,,,,,,2,1.4514448740083026,025,001,2019_May_13_1612,MusicAffectPsychophysiology2019,3.0.5,59.7993306691054,
To what extent did the music make you feel ,SAD,30MonoWAV/30MonoF4.wav,1,2,2,4,,,,,1,9,25,3,0,8,8,0,,,,,,,,,1,0.9344209260016214,025,001,2019_May_13_1612,MusicAffectPsychophysiology2019,3.0.5,59.7993306691054,
To what extent did the music make you feel ,ASHAMED,30MonoWAV/30MonoF4.wav,1,2,2,4,,,,,1,9,25,3,0,9,9,4,,,,,,,,,1,0.8344716930005234,025,001,2019_May_13_1612,MusicAffectPsychophysiology2019,3.0.5,59.7993306691054,
To what extent did the music make you feel ,TENDER,30MonoWAV/30MonoF4.wav,1,2,2,4,,,,,1,9,25,3,0,10,10,10,,,,,,,,,1,0.8525660570012406,025,001,2019_May_13_1612,MusicAffectPsychophysiology2019,3.0.5,59.7993306691054,
To what extent did the music make you feel ,ACTIVE,30MonoWAV/30MonoF4.wav,1,2,2,4,,,,,1,9,25,3,0,11,11,9,,,,,,,,,2,1.3524304080056027,025,001,2019_May_13_1612,MusicAffectPsychophysiology2019,3.0.5,59.7993306691054,
,,30MonoWAV/30MonoF4.wav,1,2,2,4,,,,,1,9,25,3,,,,,,,,,,,,,,,025,001,2019_May_13_1612,MusicAffectPsychophysiology2019,3.0.5,59.7993306691054,
To what extent did the music make you feel ,GUILTY,30MonoWAV/30MonoH1.wav,2,2,1,5,,,,,1,10,26,4,0,0,0,5,,,5,4.590264451995608,5,3.521341925006709,5,1.0363159610133152,1,1.5871517839987064,025,001,2019_May_13_1612,MusicAffectPsychophysiology2019,3.0.5,59.7993306691054,
To what extent did the music make you feel ,ANGRY,30MonoWAV/30MonoH1.wav,2,2,1,5,,,,,1,10,26,4,0,1,1,2,,,,,,,,,1,0.5528222249995451,025,001,2019_May_13_1612,MusicAffectPsychophysiology2019,3.0.5,59.7993306691054,
To what extent did the music make you feel ,EXCITED,30MonoWAV/30MonoH1.wav,2,2,1,5,,,,,1,10,26,4,0,2,2,7,,,,,,,,,3,2.30410822200065,025,001,2019_May_13_1612,MusicAffectPsychophysiology2019,3.0.5,59.7993306691054,
To what extent did the music make you feel ,SAD,30MonoWAV/30MonoH1.wav,2,2,1,5,,,,,1,10,26,4,0,3,3,0,,,,,,,,,1,0.9361097219953081,025,001,2019_May_13_1612,MusicAffectPsychophysiology2019,3.0.5,59.7993306691054,
To what extent did the music make you feel ,FRUSTRATED,30MonoWAV/30MonoH1.wav,2,2,1,5,,,,,1,10,26,4,0,4,4,3,,,,,,,,,1,1.4875494779989822,025,001,2019_May_13_1612,MusicAffectPsychophysiology2019,3.0.5,59.7993306691054,
To what extent did the music make you feel ,SCARED,30MonoWAV/30MonoH1.wav,2,2,1,5,,,,,1,10,26,4,0,5,5,11,,,,,,,,,1,1.0338241730059963,025,001,2019_May_13_1612,MusicAffectPsychophysiology2019,3.0.5,59.7993306691054,
To what extent did the music make you feel ,ALERT,30MonoWAV/30MonoH1.wav,2,2,1,5,,,,,1,10,26,4,0,6,6,8,,,,,,,,,4,1.4195339200086892,025,001,2019_May_13_1612,MusicAffectPsychophysiology2019,3.0.5,59.7993306691054,
To what extent did the music make you feel ,HAPPY,30MonoWAV/30MonoH1.wav,2,2,1,5,,,,,1,10,26,4,0,7,7,6,,,,,,,,,5,1.184928190006758,025,001,2019_May_13_1612,MusicAffectPsychophysiology2019,3.0.5,59.7993306691054,
To what extent did the music make you feel ,ANXIOUS ,30MonoWAV/30MonoH1.wav,2,2,1,5,,,,,1,10,26,4,0,8,8,1,,,,,,,,,1,1.4680038100050297,025,001,2019_May_13_1612,MusicAffectPsychophysiology2019,3.0.5,59.7993306691054,
To what extent did the music make you feel ,TENDER,30MonoWAV/30MonoH1.wav,2,2,1,5,,,,,1,10,26,4,0,9,9,10,,,,,,,,,1,1.9004802519921213,025,001,2019_May_13_1612,MusicAffectPsychophysiology2019,3.0.5,59.7993306691054,
To what extent did the music make you feel ,ASHAMED,30MonoWAV/30MonoH1.wav,2,2,1,5,,,,,1,10,26,4,0,10,10,4,,,,,,,,,1,1.0520736159960506,025,001,2019_May_13_1612,MusicAffectPsychophysiology2019,3.0.5,59.7993306691054,
To what extent did the music make you feel ,ACTIVE,30MonoWAV/30MonoH1.wav,2,2,1,5,,,,,1,10,26,4,0,11,11,9,,,,,,,,,4,1.8190499839984113,025,001,2019_May_13_1612,MusicAffectPsychophysiology2019,3.0.5,59.7993306691054,
,,30MonoWAV/30MonoH1.wav,2,2,1,5,,,,,1,10,26,4,,,,,,,,,,,,,,,025,001,2019_May_13_1612,MusicAffectPsychophysiology2019,3.0.5,59.7993306691054,
To what extent did the music make you feel ,ANGRY,30MonoWAV/30MonoT3.wav,2,1,4,15,,,,,1,11,27,14,0,0,0,2,,,3,8.417606075992808,3,1.602007224006229,3,1.434206459991401,1,1.266787166998256,025,001,2019_May_13_1612,MusicAffectPsychophysiology2019,3.0.5,59.7993306691054,
To what extent did the music make you feel ,HAPPY,30MonoWAV/30MonoT3.wav,2,1,4,15,,,,,1,11,27,14,0,1,1,6,,,,,,,,,3,5.368622684996808,025,001,2019_May_13_1612,MusicAffectPsychophysiology2019,3.0.5,59.7993306691054,
To what extent did the music make you feel ,SAD,30MonoWAV/30MonoT3.wav,2,1,4,15,,,,,1,11,27,14,0,2,2,0,,,,,,,,,1,4.702174919002573,025,001,2019_May_13_1612,MusicAffectPsychophysiology2019,3.0.5,59.7993306691054,
To what extent did the music make you feel ,SCARED,30MonoWAV/30MonoT3.wav,2,1,4,15,,,,,1,11,27,14,0,3,3,11,,,,,,,,,1,1.1347438039956614,025,001,2019_May_13_1612,MusicAffectPsychophysiology2019,3.0.5,59.7993306691054,
To what extent did the music make you feel ,ALERT,30MonoWAV/30MonoT3.wav,2,1,4,15,,,,,1,11,27,14,0,4,4,8,,,,,,,,,2,1.3844032660126686,025,001,2019_May_13_1612,MusicAffectPsychophysiology2019,3.0.5,59.7993306691054,
To what extent did the music make you feel ,ACTIVE,30MonoWAV/30MonoT3.wav,2,1,4,15,,,,,1,11,27,14,0,5,5,9,,,,,,,,,1,2.6179237149917753,025,001,2019_May_13_1612,MusicAffectPsychophysiology2019,3.0.5,59.7993306691054,
To what extent did the music make you feel ,EXCITED,30MonoWAV/30MonoT3.wav,2,1,4,15,,,,,1,11,27,14,0,6,6,7,,,,,,,,,1,4.251884668003186,025,001,2019_May_13_1612,MusicAffectPsychophysiology2019,3.0.5,59.7993306691054,
To what extent did the music make you feel ,ASHAMED,30MonoWAV/30MonoT3.wav,2,1,4,15,,,,,1,11,27,14,0,7,7,4,,,,,,,,,1,0.785687131996383,025,001,2019_May_13_1612,MusicAffectPsychophysiology2019,3.0.5,59.7993306691054,
To what extent did the music make you feel ,FRUSTRATED,30MonoWAV/30MonoT3.wav,2,1,4,15,,,,,1,11,27,14,0,8,8,3,,,,,,,,,2,1.7513018530007685,025,001,2019_May_13_1612,MusicAffectPsychophysiology2019,3.0.5,59.7993306691054,
To what extent did the music make you feel ,TENDER,30MonoWAV/30MonoT3.wav,2,1,4,15,,,,,1,11,27,14,0,9,9,10,,,,,,,,,3,2.1182240880007157,025,001,2019_May_13_1612,MusicAffectPsychophysiology2019,3.0.5,59.7993306691054,
To what extent did the music make you feel ,ANXIOUS ,30MonoWAV/30MonoT3.wav,2,1,4,15,,,,,1,11,27,14,0,10,10,1,,,,,,,,,1,3.117924332997063,025,001,2019_May_13_1612,MusicAffectPsychophysiology2019,3.0.5,59.7993306691054,
To what extent did the music make you feel ,GUILTY,30MonoWAV/30MonoT3.wav,2,1,4,15,,,,,1,11,27,14,0,11,11,5,,,,,,,,,1,1.3024663149990374,025,001,2019_May_13_1612,MusicAffectPsychophysiology2019,3.0.5,59.7993306691054,
,,30MonoWAV/30MonoT3.wav,2,1,4,15,,,,,1,11,27,14,,,,,,,,,,,,,,,025,001,2019_May_13_1612,MusicAffectPsychophysiology2019,3.0.5,59.7993306691054,
To what extent did the music make you feel ,SCARED,30MonoWAV/30MonoT2.wav,2,1,4,14,,,,,1,12,28,13,0,0,0,11,,,4,3.0833920760051114,4,1.418090746999951,4,0.9686473620095057,1,1.1167321749962866,025,001,2019_May_13_1612,MusicAffectPsychophysiology2019,3.0.5,59.7993306691054,
To what extent did the music make you feel ,FRUSTRATED,30MonoWAV/30MonoT2.wav,2,1,4,14,,,,,1,12,28,13,0,1,1,3,,,,,,,,,1,0.8506992580078077,025,001,2019_May_13_1612,MusicAffectPsychophysiology2019,3.0.5,59.7993306691054,
To what extent did the music make you feel ,HAPPY,30MonoWAV/30MonoT2.wav,2,1,4,14,,,,,1,12,28,13,0,2,2,6,,,,,,,,,4,1.3672731359984027,025,001,2019_May_13_1612,MusicAffectPsychophysiology2019,3.0.5,59.7993306691054,
To what extent did the music make you feel ,ALERT,30MonoWAV/30MonoT2.wav,2,1,4,14,,,,,1,12,28,13,0,3,3,8,,,,,,,,,4,1.1187283309991471,025,001,2019_May_13_1612,MusicAffectPsychophysiology2019,3.0.5,59.7993306691054,
To what extent did the music make you feel ,ANXIOUS ,30MonoWAV/30MonoT2.wav,2,1,4,14,,,,,1,12,28,13,0,4,4,1,,,,,,,,,1,2.5848708620032994,025,001,2019_May_13_1612,MusicAffectPsychophysiology2019,3.0.5,59.7993306691054,
To what extent did the music make you feel ,TENDER,30MonoWAV/30MonoT2.wav,2,1,4,14,,,,,1,12,28,13,0,5,5,10,,,,,,,,,1,2.5524126149975928,025,001,2019_May_13_1612,MusicAffectPsychophysiology2019,3.0.5,59.7993306691054,
To what extent did the music make you feel ,ACTIVE,30MonoWAV/30MonoT2.wav,2,1,4,14,,,,,1,12,28,13,0,6,6,9,,,,,,,,,2,2.1853745319967857,025,001,2019_May_13_1612,MusicAffectPsychophysiology2019,3.0.5,59.7993306691054,
To what extent did the music make you feel ,ANGRY,30MonoWAV/30MonoT2.wav,2,1,4,14,,,,,1,12,28,13,0,7,7,2,,,,,,,,,1,0.8690315749990987,025,001,2019_May_13_1612,MusicAffectPsychophysiology2019,3.0.5,59.7993306691054,
To what extent did the music make you feel ,ASHAMED,30MonoWAV/30MonoT2.wav,2,1,4,14,,,,,1,12,28,13,0,8,8,4,,,,,,,,,1,0.8855055650055874,025,001,2019_May_13_1612,MusicAffectPsychophysiology2019,3.0.5,59.7993306691054,
To what extent did the music make you feel ,GUILTY,30MonoWAV/30MonoT2.wav,2,1,4,14,,,,,1,12,28,13,0,9,9,5,,,,,,,,,1,1.733487106001121,025,001,2019_May_13_1612,MusicAffectPsychophysiology2019,3.0.5,59.7993306691054,
To what extent did the music make you feel ,EXCITED,30MonoWAV/30MonoT2.wav,2,1,4,14,,,,,1,12,28,13,0,10,10,7,,,,,,,,,2,1.5353172159957467,025,001,2019_May_13_1612,MusicAffectPsychophysiology2019,3.0.5,59.7993306691054,
To what extent did the music make you feel ,SAD,30MonoWAV/30MonoT2.wav,2,1,4,14,,,,,1,12,28,13,0,11,11,0,,,,,,,,,1,1.302968995005358,025,001,2019_May_13_1612,MusicAffectPsychophysiology2019,3.0.5,59.7993306691054,
,,30MonoWAV/30MonoT2.wav,2,1,4,14,,,,,1,12,28,13,,,,,,,,,,,,,,,025,001,2019_May_13_1612,MusicAffectPsychophysiology2019,3.0.5,59.7993306691054,
To what extent did the music make you feel ,SCARED,30MonoWAV/30MonoH4.wav,2,2,1,8,,,,,1,13,29,7,0,0,0,11,,,5,2.3021142369980225,4,5.7677628160017775,3,1.5529747280088486,1,1.5356296359968837,025,001,2019_May_13_1612,MusicAffectPsychophysiology2019,3.0.5,59.7993306691054,
To what extent did the music make you feel ,ACTIVE,30MonoWAV/30MonoH4.wav,2,2,1,8,,,,,1,13,29,7,0,1,1,9,,,,,,,,,5,2.6509579039993696,025,001,2019_May_13_1612,MusicAffectPsychophysiology2019,3.0.5,59.7993306691054,
To what extent did the music make you feel ,SAD,30MonoWAV/30MonoH4.wav,2,2,1,8,,,,,1,13,29,7,0,2,2,0,,,,,,,,,1,1.5835111600026721,025,001,2019_May_13_1612,MusicAffectPsychophysiology2019,3.0.5,59.7993306691054,
To what extent did the music make you feel ,ANGRY,30MonoWAV/30MonoH4.wav,2,2,1,8,,,,,1,13,29,7,0,3,3,2,,,,,,,,,1,1.068070468987571,025,001,2019_May_13_1612,MusicAffectPsychophysiology2019,3.0.5,59.7993306691054,
To what extent did the music make you feel ,ASHAMED,30MonoWAV/30MonoH4.wav,2,2,1,8,,,,,1,13,29,7,0,4,4,4,,,,,,,,,1,0.669173756003147,025,001,2019_May_13_1612,MusicAffectPsychophysiology2019,3.0.5,59.7993306691054,
To what extent did the music make you feel ,GUILTY,30MonoWAV/30MonoH4.wav,2,2,1,8,,,,,1,13,29,7,0,5,5,5,,,,,,,,,1,0.4849155479896581,025,001,2019_May_13_1612,MusicAffectPsychophysiology2019,3.0.5,59.7993306691054,
To what extent did the music make you feel ,EXCITED,30MonoWAV/30MonoH4.wav,2,2,1,8,,,,,1,13,29,7,0,6,6,7,,,,,,,,,4,1.4861065639997832,025,001,2019_May_13_1612,MusicAffectPsychophysiology2019,3.0.5,59.7993306691054,
To what extent did the music make you feel ,ANXIOUS ,30MonoWAV/30MonoH4.wav,2,2,1,8,,,,,1,13,29,7,0,7,7,1,,,,,,,,,1,2.1687511729978723,025,001,2019_May_13_1612,MusicAffectPsychophysiology2019,3.0.5,59.7993306691054,
To what extent did the music make you feel ,TENDER,30MonoWAV/30MonoH4.wav,2,2,1,8,,,,,1,13,29,7,0,8,8,10,,,,,,,,,1,1.0673521350108786,025,001,2019_May_13_1612,MusicAffectPsychophysiology2019,3.0.5,59.7993306691054,
To what extent did the music make you feel ,ALERT,30MonoWAV/30MonoH4.wav,2,2,1,8,,,,,1,13,29,7,0,9,9,8,,,,,,,,,4,1.2351320430025226,025,001,2019_May_13_1612,MusicAffectPsychophysiology2019,3.0.5,59.7993306691054,
To what extent did the music make you feel ,FRUSTRATED,30MonoWAV/30MonoH4.wav,2,2,1,8,,,,,1,13,29,7,0,10,10,3,,,,,,,,,1,0.8515942679950967,025,001,2019_May_13_1612,MusicAffectPsychophysiology2019,3.0.5,59.7993306691054,
To what extent did the music make you feel ,HAPPY,30MonoWAV/30MonoH4.wav,2,2,1,8,,,,,1,13,29,7,0,11,11,6,,,,,,,,,5,1.235324651002884,025,001,2019_May_13_1612,MusicAffectPsychophysiology2019,3.0.5,59.7993306691054,
,,30MonoWAV/30MonoH4.wav,2,2,1,8,,,,,1,13,29,7,,,,,,,,,,,,,,,025,001,2019_May_13_1612,MusicAffectPsychophysiology2019,3.0.5,59.7993306691054,
To what extent did the music make you feel ,HAPPY,30MonoWAV/30MonoH2.wav,2,2,1,6,,,,,1,14,30,5,0,0,0,6,,,4,4.0735523579933215,4,3.449916323996149,2,2.401286677995813,3,3.333774461003486,025,001,2019_May_13_1612,MusicAffectPsychophysiology2019,3.0.5,59.7993306691054,
To what extent did the music make you feel ,GUILTY,30MonoWAV/30MonoH2.wav,2,2,1,6,,,,,1,14,30,5,0,1,1,5,,,,,,,,,1,2.501932510000188,025,001,2019_May_13_1612,MusicAffectPsychophysiology2019,3.0.5,59.7993306691054,
To what extent did the music make you feel ,ASHAMED,30MonoWAV/30MonoH2.wav,2,2,1,6,,,,,1,14,30,5,0,2,2,4,,,,,,,,,1,2.5668790490017273,025,001,2019_May_13_1612,MusicAffectPsychophysiology2019,3.0.5,59.7993306691054,
To what extent did the music make you feel ,FRUSTRATED,30MonoWAV/30MonoH2.wav,2,2,1,6,,,,,1,14,30,5,0,3,3,3,,,,,,,,,1,1.0681571589957457,025,001,2019_May_13_1612,MusicAffectPsychophysiology2019,3.0.5,59.7993306691054,
To what extent did the music make you feel ,EXCITED,30MonoWAV/30MonoH2.wav,2,2,1,6,,,,,1,14,30,5,0,4,4,7,,,,,,,,,4,2.5180754239991074,025,001,2019_May_13_1612,MusicAffectPsychophysiology2019,3.0.5,59.7993306691054,
To what extent did the music make you feel ,ALERT,30MonoWAV/30MonoH2.wav,2,2,1,6,,,,,1,14,30,5,0,5,5,8,,,,,,,,,4,1.6374377769971034,025,001,2019_May_13_1612,MusicAffectPsychophysiology2019,3.0.5,59.7993306691054,
To what extent did the music make you feel ,ANXIOUS ,30MonoWAV/30MonoH2.wav,2,2,1,6,,,,,1,14,30,5,0,6,6,1,,,,,,,,,1,3.1684747979888925,025,001,2019_May_13_1612,MusicAffectPsychophysiology2019,3.0.5,59.7993306691054,
To what extent did the music make you feel ,TENDER,30MonoWAV/30MonoH2.wav,2,2,1,6,,,,,1,14,30,5,0,7,7,10,,,,,,,,,1,1.1687492729979567,025,001,2019_May_13_1612,MusicAffectPsychophysiology2019,3.0.5,59.7993306691054,
To what extent did the music make you feel ,SAD,30MonoWAV/30MonoH2.wav,2,2,1,6,,,,,1,14,30,5,0,8,8,0,,,,,,,,,1,1.3501821939862566,025,001,2019_May_13_1612,MusicAffectPsychophysiology2019,3.0.5,59.7993306691054,
To what extent did the music make you feel ,ANGRY,30MonoWAV/30MonoH2.wav,2,2,1,6,,,,,1,14,30,5,0,9,9,2,,,,,,,,,1,1.2846925690100761,025,001,2019_May_13_1612,MusicAffectPsychophysiology2019,3.0.5,59.7993306691054,
To what extent did the music make you feel ,ACTIVE,30MonoWAV/30MonoH2.wav,2,2,1,6,,,,,1,14,30,5,0,10,10,9,,,,,,,,,2,1.3844672889972571,025,001,2019_May_13_1612,MusicAffectPsychophysiology2019,3.0.5,59.7993306691054,
To what extent did the music make you feel ,SCARED,30MonoWAV/30MonoH2.wav,2,2,1,6,,,,,1,14,30,5,0,11,11,11,,,,,,,,,1,1.8183758679952007,025,001,2019_May_13_1612,MusicAffectPsychophysiology2019,3.0.5,59.7993306691054,
,,30MonoWAV/30MonoH2.wav,2,2,1,6,,,,,1,14,30,5,,,,,,,,,,,,,,,025,001,2019_May_13_1612,MusicAffectPsychophysiology2019,3.0.5,59.7993306691054,
To what extent did the music make you feel ,EXCITED,30MonoWAV/30MonoS4.wav,1,1,3,12,,,,,1,15,31,11,0,0,0,7,,,1,5.4350436859967886,1,2.0516967119910987,2,1.9521177319984417,1,1.3186305279959925,025,001,2019_May_13_1612,MusicAffectPsychophysiology2019,3.0.5,59.7993306691054,
To what extent did the music make you feel ,ACTIVE,30MonoWAV/30MonoS4.wav,1,1,3,12,,,,,1,15,31,11,0,1,1,9,,,,,,,,,1,1.3015080970071722,025,001,2019_May_13_1612,MusicAffectPsychophysiology2019,3.0.5,59.7993306691054,
To what extent did the music make you feel ,ASHAMED,30MonoWAV/30MonoS4.wav,1,1,3,12,,,,,1,15,31,11,0,2,2,4,,,,,,,,,2,2.065746792999562,025,001,2019_May_13_1612,MusicAffectPsychophysiology2019,3.0.5,59.7993306691054,
To what extent did the music make you feel ,GUILTY,30MonoWAV/30MonoS4.wav,1,1,3,12,,,,,1,15,31,11,0,3,3,5,,,,,,,,,2,0.7519011559925275,025,001,2019_May_13_1612,MusicAffectPsychophysiology2019,3.0.5,59.7993306691054,
To what extent did the music make you feel ,HAPPY,30MonoWAV/30MonoS4.wav,1,1,3,12,,,,,1,15,31,11,0,4,4,6,,,,,,,,,1,1.2689554160024272,025,001,2019_May_13_1612,MusicAffectPsychophysiology2019,3.0.5,59.7993306691054,
To what extent did the music make you feel ,SCARED,30MonoWAV/30MonoS4.wav,1,1,3,12,,,,,1,15,31,11,0,5,5,11,,,,,,,,,1,1.8342315860063536,025,001,2019_May_13_1612,MusicAffectPsychophysiology2019,3.0.5,59.7993306691054,
To what extent did the music make you feel ,ANGRY,30MonoWAV/30MonoS4.wav,1,1,3,12,,,,,1,15,31,11,0,6,6,2,,,,,,,,,1,0.8180688580032438,025,001,2019_May_13_1612,MusicAffectPsychophysiology2019,3.0.5,59.7993306691054,
To what extent did the music make you feel ,FRUSTRATED,30MonoWAV/30MonoS4.wav,1,1,3,12,,,,,1,15,31,11,0,7,7,3,,,,,,,,,1,1.6012139259983087,025,001,2019_May_13_1612,MusicAffectPsychophysiology2019,3.0.5,59.7993306691054,
To what extent did the music make you feel ,SAD,30MonoWAV/30MonoS4.wav,1,1,3,12,,,,,1,15,31,11,0,8,8,0,,,,,,,,,3,2.403488873009337,025,001,2019_May_13_1612,MusicAffectPsychophysiology2019,3.0.5,59.7993306691054,
To what extent did the music make you feel ,ALERT,30MonoWAV/30MonoS4.wav,1,1,3,12,,,,,1,15,31,11,0,9,9,8,,,,,,,,,1,2.0187990230042487,025,001,2019_May_13_1612,MusicAffectPsychophysiology2019,3.0.5,59.7993306691054,
To what extent did the music make you feel ,TENDER,30MonoWAV/30MonoS4.wav,1,1,3,12,,,,,1,15,31,11,0,10,10,10,,,,,,,,,3,1.5844366539968178,025,001,2019_May_13_1612,MusicAffectPsychophysiology2019,3.0.5,59.7993306691054,
To what extent did the music make you feel ,ANXIOUS ,30MonoWAV/30MonoS4.wav,1,1,3,12,,,,,1,15,31,11,0,11,11,1,,,,,,,,,1,3.1679963680071523,025,001,2019_May_13_1612,MusicAffectPsychophysiology2019,3.0.5,59.7993306691054,
,,30MonoWAV/30MonoS4.wav,1,1,3,12,,,,,1,15,31,11,,,,,,,,,,,,,,,025,001,2019_May_13_1612,MusicAffectPsychophysiology2019,3.0.5,59.7993306691054,
