Instruction,Word,song,valence,arousal,affectcat,songmark,pracwords.thisRepN,pracwords.thisTrialN,pracwords.thisN,pracwords.thisIndex,songtrials.thisRepN,songtrials.thisTrialN,songtrials.thisN,songtrials.thisIndex,words.thisRepN,words.thisTrialN,words.thisN,words.thisIndex,begin.keys,begin.rt,arousalkey.keys,arousalkey.rt,valencekey.keys,valencekey.rt,likekey.keys,likekey.rt,WordResponse.keys,WordResponse.rt,key_resp_2.keys,key_resp_2.rt,participant,session,date,expName,psychopyVersion,frameRate,
,,,,,,,,,,,,,,,,,,,space,708.5519373030111,,,,,,,,,,,026,001,2019_May_14_0855,MusicAffectPsychophysiology2019,3.0.5,60.027144273434985,
,,,,,,,,,,,,,,,,,,,,,3,3.8180520070018247,,,,,,,,,026,001,2019_May_14_0855,MusicAffectPsychophysiology2019,3.0.5,60.027144273434985,
,,,,,,,,,,,,,,,,,,,,,,,4,4.485328188005951,,,,,,,026,001,2019_May_14_0855,MusicAffectPsychophysiology2019,3.0.5,60.027144273434985,
,,,,,,,,,,,,,,,,,,,,,,,,,2,2.984964656003285,,,,,026,001,2019_May_14_0855,MusicAffectPsychophysiology2019,3.0.5,60.027144273434985,
To what extent did the music make you feel ,TENDER,,,,,,0,0,0,10,,,,,,,,,,,,,,,,,2,6.8346595100010745,,,026,001,2019_May_14_0855,MusicAffectPsychophysiology2019,3.0.5,60.027144273434985,
To what extent did the music make you feel ,HAPPY,,,,,,0,1,1,6,,,,,,,,,,,,,,,,,3,1.3520646640099585,,,026,001,2019_May_14_0855,MusicAffectPsychophysiology2019,3.0.5,60.027144273434985,
To what extent did the music make you feel ,ALERT,,,,,,0,2,2,8,,,,,,,,,,,,,,,,,1,1.8015510909899604,,,026,001,2019_May_14_0855,MusicAffectPsychophysiology2019,3.0.5,60.027144273434985,
To what extent did the music make you feel ,ANXIOUS ,,,,,,0,3,3,1,,,,,,,,,,,,,,,,,1,1.8347582099959254,,,026,001,2019_May_14_0855,MusicAffectPsychophysiology2019,3.0.5,60.027144273434985,
To what extent did the music make you feel ,ASHAMED,,,,,,0,4,4,4,,,,,,,,,,,,,,,,,1,1.2519667710002977,,,026,001,2019_May_14_0855,MusicAffectPsychophysiology2019,3.0.5,60.027144273434985,
To what extent did the music make you feel ,EXCITED,,,,,,0,5,5,7,,,,,,,,,,,,,,,,,2,1.6520350869977847,,,026,001,2019_May_14_0855,MusicAffectPsychophysiology2019,3.0.5,60.027144273434985,
To what extent did the music make you feel ,FRUSTRATED,,,,,,0,6,6,3,,,,,,,,,,,,,,,,,1,1.251690007004072,,,026,001,2019_May_14_0855,MusicAffectPsychophysiology2019,3.0.5,60.027144273434985,
To what extent did the music make you feel ,ACTIVE,,,,,,0,7,7,9,,,,,,,,,,,,,,,,,2,2.7184357559890486,,,026,001,2019_May_14_0855,MusicAffectPsychophysiology2019,3.0.5,60.027144273434985,
To what extent did the music make you feel ,ANGRY,,,,,,0,8,8,2,,,,,,,,,,,,,,,,,1,1.0679467339941766,,,026,001,2019_May_14_0855,MusicAffectPsychophysiology2019,3.0.5,60.027144273434985,
To what extent did the music make you feel ,SCARED,,,,,,0,9,9,11,,,,,,,,,,,,,,,,,1,1.3515112239983864,,,026,001,2019_May_14_0855,MusicAffectPsychophysiology2019,3.0.5,60.027144273434985,
To what extent did the music make you feel ,SAD,,,,,,0,10,10,0,,,,,,,,,,,,,,,,,1,1.534951456997078,,,026,001,2019_May_14_0855,MusicAffectPsychophysiology2019,3.0.5,60.027144273434985,
To what extent did the music make you feel ,GUILTY,,,,,,0,11,11,5,,,,,,,,,,,,,,,,,1,0.7849521940079285,,,026,001,2019_May_14_0855,MusicAffectPsychophysiology2019,3.0.5,60.027144273434985,
To what extent did the music make you feel ,FRUSTRATED,30MonoWAV/30MonoH1.wav,2,2,1,5,,,,,0,0,0,4,0,0,0,3,,,3,3.1006884389935294,3,2.5014648219948867,3,2.052437516002101,1,1.7781546339974739,,,026,001,2019_May_14_0855,MusicAffectPsychophysiology2019,3.0.5,60.027144273434985,
To what extent did the music make you feel ,SCARED,30MonoWAV/30MonoH1.wav,2,2,1,5,,,,,0,0,0,4,0,1,1,11,,,,,,,,,1,0.7679933440085733,,,026,001,2019_May_14_0855,MusicAffectPsychophysiology2019,3.0.5,60.027144273434985,
To what extent did the music make you feel ,ANGRY,30MonoWAV/30MonoH1.wav,2,2,1,5,,,,,0,0,0,4,0,2,2,2,,,,,,,,,1,0.7514742299972568,,,026,001,2019_May_14_0855,MusicAffectPsychophysiology2019,3.0.5,60.027144273434985,
To what extent did the music make you feel ,EXCITED,30MonoWAV/30MonoH1.wav,2,2,1,5,,,,,0,0,0,4,0,3,3,7,,,,,,,,,2,1.6357299329974921,,,026,001,2019_May_14_0855,MusicAffectPsychophysiology2019,3.0.5,60.027144273434985,
To what extent did the music make you feel ,TENDER,30MonoWAV/30MonoH1.wav,2,2,1,5,,,,,0,0,0,4,0,4,4,10,,,,,,,,,2,1.702134137012763,,,026,001,2019_May_14_0855,MusicAffectPsychophysiology2019,3.0.5,60.027144273434985,
To what extent did the music make you feel ,HAPPY,30MonoWAV/30MonoH1.wav,2,2,1,5,,,,,0,0,0,4,0,5,5,6,,,,,,,,,3,1.2527191469998797,,,026,001,2019_May_14_0855,MusicAffectPsychophysiology2019,3.0.5,60.027144273434985,
To what extent did the music make you feel ,SAD,30MonoWAV/30MonoH1.wav,2,2,1,5,,,,,0,0,0,4,0,6,6,0,,,,,,,,,1,1.2524162100016838,,,026,001,2019_May_14_0855,MusicAffectPsychophysiology2019,3.0.5,60.027144273434985,
To what extent did the music make you feel ,ACTIVE,30MonoWAV/30MonoH1.wav,2,2,1,5,,,,,0,0,0,4,0,7,7,9,,,,,,,,,3,2.0196086390060373,,,026,001,2019_May_14_0855,MusicAffectPsychophysiology2019,3.0.5,60.027144273434985,
To what extent did the music make you feel ,ASHAMED,30MonoWAV/30MonoH1.wav,2,2,1,5,,,,,0,0,0,4,0,8,8,4,,,,,,,,,1,1.1857924939977238,,,026,001,2019_May_14_0855,MusicAffectPsychophysiology2019,3.0.5,60.027144273434985,
To what extent did the music make you feel ,ALERT,30MonoWAV/30MonoH1.wav,2,2,1,5,,,,,0,0,0,4,0,9,9,8,,,,,,,,,3,5.284612018003827,,,026,001,2019_May_14_0855,MusicAffectPsychophysiology2019,3.0.5,60.027144273434985,
To what extent did the music make you feel ,GUILTY,30MonoWAV/30MonoH1.wav,2,2,1,5,,,,,0,0,0,4,0,10,10,5,,,,,,,,,1,1.4031567790079862,,,026,001,2019_May_14_0855,MusicAffectPsychophysiology2019,3.0.5,60.027144273434985,
To what extent did the music make you feel ,ANXIOUS ,30MonoWAV/30MonoH1.wav,2,2,1,5,,,,,0,0,0,4,0,11,11,1,,,,,,,,,1,1.8514588620018912,,,026,001,2019_May_14_0855,MusicAffectPsychophysiology2019,3.0.5,60.027144273434985,
,,30MonoWAV/30MonoH1.wav,2,2,1,5,,,,,0,0,0,4,,,,,,,,,,,,,,,,,026,001,2019_May_14_0855,MusicAffectPsychophysiology2019,3.0.5,60.027144273434985,
To what extent did the music make you feel ,SAD,30MonoWAV/30MonoH2.wav,2,2,1,6,,,,,0,1,1,5,0,0,0,0,,,4,3.005702417998691,3,3.2392754379980033,2,2.0226787509891437,1,2.336628518998623,,,026,001,2019_May_14_0855,MusicAffectPsychophysiology2019,3.0.5,60.027144273434985,
To what extent did the music make you feel ,FRUSTRATED,30MonoWAV/30MonoH2.wav,2,2,1,6,,,,,0,1,1,5,0,1,1,3,,,,,,,,,1,1.0848358719958924,,,026,001,2019_May_14_0855,MusicAffectPsychophysiology2019,3.0.5,60.027144273434985,
To what extent did the music make you feel ,TENDER,30MonoWAV/30MonoH2.wav,2,2,1,6,,,,,0,1,1,5,0,2,2,10,,,,,,,,,2,1.3348260470083915,,,026,001,2019_May_14_0855,MusicAffectPsychophysiology2019,3.0.5,60.027144273434985,
To what extent did the music make you feel ,ACTIVE,30MonoWAV/30MonoH2.wav,2,2,1,6,,,,,0,1,1,5,0,3,3,9,,,,,,,,,2,1.9659876389923738,,,026,001,2019_May_14_0855,MusicAffectPsychophysiology2019,3.0.5,60.027144273434985,
To what extent did the music make you feel ,EXCITED,30MonoWAV/30MonoH2.wav,2,2,1,6,,,,,0,1,1,5,0,4,4,7,,,,,,,,,3,1.2019063089974225,,,026,001,2019_May_14_0855,MusicAffectPsychophysiology2019,3.0.5,60.027144273434985,
To what extent did the music make you feel ,ANGRY,30MonoWAV/30MonoH2.wav,2,2,1,6,,,,,0,1,1,5,0,5,5,2,,,,,,,,,1,1.6516303980024531,,,026,001,2019_May_14_0855,MusicAffectPsychophysiology2019,3.0.5,60.027144273434985,
To what extent did the music make you feel ,SCARED,30MonoWAV/30MonoH2.wav,2,2,1,6,,,,,0,1,1,5,0,6,6,11,,,,,,,,,1,1.7019190860009985,,,026,001,2019_May_14_0855,MusicAffectPsychophysiology2019,3.0.5,60.027144273434985,
To what extent did the music make you feel ,ALERT,30MonoWAV/30MonoH2.wav,2,2,1,6,,,,,0,1,1,5,0,7,7,8,,,,,,,,,3,1.751907426994876,,,026,001,2019_May_14_0855,MusicAffectPsychophysiology2019,3.0.5,60.027144273434985,
To what extent did the music make you feel ,HAPPY,30MonoWAV/30MonoH2.wav,2,2,1,6,,,,,0,1,1,5,0,8,8,6,,,,,,,,,3,1.7682406970125157,,,026,001,2019_May_14_0855,MusicAffectPsychophysiology2019,3.0.5,60.027144273434985,
To what extent did the music make you feel ,GUILTY,30MonoWAV/30MonoH2.wav,2,2,1,6,,,,,0,1,1,5,0,9,9,5,,,,,,,,,1,1.4020658980007283,,,026,001,2019_May_14_0855,MusicAffectPsychophysiology2019,3.0.5,60.027144273434985,
To what extent did the music make you feel ,ASHAMED,30MonoWAV/30MonoH2.wav,2,2,1,6,,,,,0,1,1,5,0,10,10,4,,,,,,,,,1,1.2856408880033996,,,026,001,2019_May_14_0855,MusicAffectPsychophysiology2019,3.0.5,60.027144273434985,
To what extent did the music make you feel ,ANXIOUS ,30MonoWAV/30MonoH2.wav,2,2,1,6,,,,,0,1,1,5,0,11,11,1,,,,,,,,,1,1.5670101669966243,,,026,001,2019_May_14_0855,MusicAffectPsychophysiology2019,3.0.5,60.027144273434985,
,,30MonoWAV/30MonoH2.wav,2,2,1,6,,,,,0,1,1,5,,,,,,,,,,,,,,,,,026,001,2019_May_14_0855,MusicAffectPsychophysiology2019,3.0.5,60.027144273434985,
To what extent did the music make you feel ,ANGRY,30MonoWAV/30MonoS4.wav,1,1,3,12,,,,,0,2,2,11,0,0,0,2,,,2,2.9085545869893394,2,4.652296829997795,4,1.8558453589939745,2,2.472199001989793,,,026,001,2019_May_14_0855,MusicAffectPsychophysiology2019,3.0.5,60.027144273434985,
To what extent did the music make you feel ,SAD,30MonoWAV/30MonoS4.wav,1,1,3,12,,,,,0,2,2,11,0,1,1,0,,,,,,,,,4,1.9535936090105679,,,026,001,2019_May_14_0855,MusicAffectPsychophysiology2019,3.0.5,60.027144273434985,
To what extent did the music make you feel ,ASHAMED,30MonoWAV/30MonoS4.wav,1,1,3,12,,,,,0,2,2,11,0,2,2,4,,,,,,,,,1,3.008490288993926,,,026,001,2019_May_14_0855,MusicAffectPsychophysiology2019,3.0.5,60.027144273434985,
To what extent did the music make you feel ,FRUSTRATED,30MonoWAV/30MonoS4.wav,1,1,3,12,,,,,0,2,2,11,0,3,3,3,,,,,,,,,1,2.1673792980000144,,,026,001,2019_May_14_0855,MusicAffectPsychophysiology2019,3.0.5,60.027144273434985,
To what extent did the music make you feel ,HAPPY,30MonoWAV/30MonoS4.wav,1,1,3,12,,,,,0,2,2,11,0,4,4,6,,,,,,,,,2,2.917877893996774,,,026,001,2019_May_14_0855,MusicAffectPsychophysiology2019,3.0.5,60.027144273434985,
To what extent did the music make you feel ,TENDER,30MonoWAV/30MonoS4.wav,1,1,3,12,,,,,0,2,2,11,0,5,5,10,,,,,,,,,2,2.0015435209934367,,,026,001,2019_May_14_0855,MusicAffectPsychophysiology2019,3.0.5,60.027144273434985,
To what extent did the music make you feel ,ACTIVE,30MonoWAV/30MonoS4.wav,1,1,3,12,,,,,0,2,2,11,0,6,6,9,,,,,,,,,1,1.6663522239978192,,,026,001,2019_May_14_0855,MusicAffectPsychophysiology2019,3.0.5,60.027144273434985,
To what extent did the music make you feel ,ANXIOUS ,30MonoWAV/30MonoS4.wav,1,1,3,12,,,,,0,2,2,11,0,7,7,1,,,,,,,,,2,2.251916193999932,,,026,001,2019_May_14_0855,MusicAffectPsychophysiology2019,3.0.5,60.027144273434985,
To what extent did the music make you feel ,ALERT,30MonoWAV/30MonoS4.wav,1,1,3,12,,,,,0,2,2,11,0,8,8,8,,,,,,,,,1,1.7015246800001478,,,026,001,2019_May_14_0855,MusicAffectPsychophysiology2019,3.0.5,60.027144273434985,
To what extent did the music make you feel ,GUILTY,30MonoWAV/30MonoS4.wav,1,1,3,12,,,,,0,2,2,11,0,9,9,5,,,,,,,,,2,2.384573741001077,,,026,001,2019_May_14_0855,MusicAffectPsychophysiology2019,3.0.5,60.027144273434985,
To what extent did the music make you feel ,SCARED,30MonoWAV/30MonoS4.wav,1,1,3,12,,,,,0,2,2,11,0,10,10,11,,,,,,,,,2,3.5525673200027086,,,026,001,2019_May_14_0855,MusicAffectPsychophysiology2019,3.0.5,60.027144273434985,
To what extent did the music make you feel ,EXCITED,30MonoWAV/30MonoS4.wav,1,1,3,12,,,,,0,2,2,11,0,11,11,7,,,,,,,,,1,1.9018387719988823,,,026,001,2019_May_14_0855,MusicAffectPsychophysiology2019,3.0.5,60.027144273434985,
,,30MonoWAV/30MonoS4.wav,1,1,3,12,,,,,0,2,2,11,,,,,,,,,,,,,,,,,026,001,2019_May_14_0855,MusicAffectPsychophysiology2019,3.0.5,60.027144273434985,
To what extent did the music make you feel ,ANGRY,30MonoWAV/30MonoF2.wav,1,2,2,2,,,,,0,3,3,1,0,0,0,2,,,3,5.435323401005007,1,1.5348002899991116,1,2.7019992389978142,1,1.8693214179947972,,,026,001,2019_May_14_0855,MusicAffectPsychophysiology2019,3.0.5,60.027144273434985,
To what extent did the music make you feel ,ALERT,30MonoWAV/30MonoF2.wav,1,2,2,2,,,,,0,3,3,1,0,1,1,8,,,,,,,,,4,2.1524101979885017,,,026,001,2019_May_14_0855,MusicAffectPsychophysiology2019,3.0.5,60.027144273434985,
To what extent did the music make you feel ,GUILTY,30MonoWAV/30MonoF2.wav,1,2,2,2,,,,,0,3,3,1,0,2,2,5,,,,,,,,,1,1.5359766759938793,,,026,001,2019_May_14_0855,MusicAffectPsychophysiology2019,3.0.5,60.027144273434985,
To what extent did the music make you feel ,ACTIVE,30MonoWAV/30MonoF2.wav,1,2,2,2,,,,,0,3,3,1,0,3,3,9,,,,,,,,,2,1.3333862360013882,,,026,001,2019_May_14_0855,MusicAffectPsychophysiology2019,3.0.5,60.027144273434985,
To what extent did the music make you feel ,SAD,30MonoWAV/30MonoF2.wav,1,2,2,2,,,,,0,3,3,1,0,4,4,0,,,,,,,,,1,2.1830451309942873,,,026,001,2019_May_14_0855,MusicAffectPsychophysiology2019,3.0.5,60.027144273434985,
To what extent did the music make you feel ,FRUSTRATED,30MonoWAV/30MonoF2.wav,1,2,2,2,,,,,0,3,3,1,0,5,5,3,,,,,,,,,1,2.0189792919991305,,,026,001,2019_May_14_0855,MusicAffectPsychophysiology2019,3.0.5,60.027144273434985,
To what extent did the music make you feel ,SCARED,30MonoWAV/30MonoF2.wav,1,2,2,2,,,,,0,3,3,1,0,6,6,11,,,,,,,,,4,2.034544858004665,,,026,001,2019_May_14_0855,MusicAffectPsychophysiology2019,3.0.5,60.027144273434985,
To what extent did the music make you feel ,EXCITED,30MonoWAV/30MonoF2.wav,1,2,2,2,,,,,0,3,3,1,0,7,7,7,,,,,,,,,1,1.4016899529960938,,,026,001,2019_May_14_0855,MusicAffectPsychophysiology2019,3.0.5,60.027144273434985,
To what extent did the music make you feel ,ANXIOUS ,30MonoWAV/30MonoF2.wav,1,2,2,2,,,,,0,3,3,1,0,8,8,1,,,,,,,,,4,2.4509742749942234,,,026,001,2019_May_14_0855,MusicAffectPsychophysiology2019,3.0.5,60.027144273434985,
To what extent did the music make you feel ,ASHAMED,30MonoWAV/30MonoF2.wav,1,2,2,2,,,,,0,3,3,1,0,9,9,4,,,,,,,,,1,1.1839074949966744,,,026,001,2019_May_14_0855,MusicAffectPsychophysiology2019,3.0.5,60.027144273434985,
To what extent did the music make you feel ,HAPPY,30MonoWAV/30MonoF2.wav,1,2,2,2,,,,,0,3,3,1,0,10,10,6,,,,,,,,,1,1.3681964429997606,,,026,001,2019_May_14_0855,MusicAffectPsychophysiology2019,3.0.5,60.027144273434985,
To what extent did the music make you feel ,TENDER,30MonoWAV/30MonoF2.wav,1,2,2,2,,,,,0,3,3,1,0,11,11,10,,,,,,,,,1,1.5000366840104107,,,026,001,2019_May_14_0855,MusicAffectPsychophysiology2019,3.0.5,60.027144273434985,
,,30MonoWAV/30MonoF2.wav,1,2,2,2,,,,,0,3,3,1,,,,,,,,,,,,,,,,,026,001,2019_May_14_0855,MusicAffectPsychophysiology2019,3.0.5,60.027144273434985,
To what extent did the music make you feel ,ACTIVE,30MonoWAV/30MonoT4.wav,2,1,4,16,,,,,0,4,4,15,0,0,0,9,,,4,46.77742236301128,5,6.986033164997934,4,2.3351977820129832,3,8.568542236011126,,,026,001,2019_May_14_0855,MusicAffectPsychophysiology2019,3.0.5,60.027144273434985,
To what extent did the music make you feel ,ANGRY,30MonoWAV/30MonoT4.wav,2,1,4,16,,,,,0,4,4,15,0,1,1,2,,,,,,,,,1,1.1849303430062719,,,026,001,2019_May_14_0855,MusicAffectPsychophysiology2019,3.0.5,60.027144273434985,
To what extent did the music make you feel ,ALERT,30MonoWAV/30MonoT4.wav,2,1,4,16,,,,,0,4,4,15,0,2,2,8,,,,,,,,,2,1.8025357689912198,,,026,001,2019_May_14_0855,MusicAffectPsychophysiology2019,3.0.5,60.027144273434985,
To what extent did the music make you feel ,HAPPY,30MonoWAV/30MonoT4.wav,2,1,4,16,,,,,0,4,4,15,0,3,3,6,,,,,,,,,5,2.152351237993571,,,026,001,2019_May_14_0855,MusicAffectPsychophysiology2019,3.0.5,60.027144273434985,
To what extent did the music make you feel ,SAD,30MonoWAV/30MonoT4.wav,2,1,4,16,,,,,0,4,4,15,0,4,4,0,,,,,,,,,1,1.5020267220097594,,,026,001,2019_May_14_0855,MusicAffectPsychophysiology2019,3.0.5,60.027144273434985,
To what extent did the music make you feel ,EXCITED,30MonoWAV/30MonoT4.wav,2,1,4,16,,,,,0,4,4,15,0,5,5,7,,,,,,,,,4,1.6183489359973464,,,026,001,2019_May_14_0855,MusicAffectPsychophysiology2019,3.0.5,60.027144273434985,
To what extent did the music make you feel ,ANXIOUS ,30MonoWAV/30MonoT4.wav,2,1,4,16,,,,,0,4,4,15,0,6,6,1,,,,,,,,,1,1.4521359689970268,,,026,001,2019_May_14_0855,MusicAffectPsychophysiology2019,3.0.5,60.027144273434985,
To what extent did the music make you feel ,FRUSTRATED,30MonoWAV/30MonoT4.wav,2,1,4,16,,,,,0,4,4,15,0,7,7,3,,,,,,,,,1,1.1855227049964014,,,026,001,2019_May_14_0855,MusicAffectPsychophysiology2019,3.0.5,60.027144273434985,
To what extent did the music make you feel ,SCARED,30MonoWAV/30MonoT4.wav,2,1,4,16,,,,,0,4,4,15,0,8,8,11,,,,,,,,,1,1.3334354260005057,,,026,001,2019_May_14_0855,MusicAffectPsychophysiology2019,3.0.5,60.027144273434985,
To what extent did the music make you feel ,GUILTY,30MonoWAV/30MonoT4.wav,2,1,4,16,,,,,0,4,4,15,0,9,9,5,,,,,,,,,1,0.8344278879958438,,,026,001,2019_May_14_0855,MusicAffectPsychophysiology2019,3.0.5,60.027144273434985,
To what extent did the music make you feel ,TENDER,30MonoWAV/30MonoT4.wav,2,1,4,16,,,,,0,4,4,15,0,10,10,10,,,,,,,,,3,1.4848818519967608,,,026,001,2019_May_14_0855,MusicAffectPsychophysiology2019,3.0.5,60.027144273434985,
To what extent did the music make you feel ,ASHAMED,30MonoWAV/30MonoT4.wav,2,1,4,16,,,,,0,4,4,15,0,11,11,4,,,,,,,,,1,1.1516287249978632,,,026,001,2019_May_14_0855,MusicAffectPsychophysiology2019,3.0.5,60.027144273434985,
,,30MonoWAV/30MonoT4.wav,2,1,4,16,,,,,0,4,4,15,,,,,,,,,,,,,,,,,026,001,2019_May_14_0855,MusicAffectPsychophysiology2019,3.0.5,60.027144273434985,
To what extent did the music make you feel ,TENDER,30MonoWAV/30MonoS1.wav,1,1,3,9,,,,,0,5,5,8,0,0,0,10,,,3,3.885027512005763,2,1.451601013992331,3,2.4670252060022904,2,3.019606315996498,,,026,001,2019_May_14_0855,MusicAffectPsychophysiology2019,3.0.5,60.027144273434985,
To what extent did the music make you feel ,ACTIVE,30MonoWAV/30MonoS1.wav,1,1,3,9,,,,,0,5,5,8,0,1,1,9,,,,,,,,,1,1.9163657879980747,,,026,001,2019_May_14_0855,MusicAffectPsychophysiology2019,3.0.5,60.027144273434985,
To what extent did the music make you feel ,EXCITED,30MonoWAV/30MonoS1.wav,1,1,3,9,,,,,0,5,5,8,0,2,2,7,,,,,,,,,1,2.01852339899051,,,026,001,2019_May_14_0855,MusicAffectPsychophysiology2019,3.0.5,60.027144273434985,
To what extent did the music make you feel ,ANXIOUS ,30MonoWAV/30MonoS1.wav,1,1,3,9,,,,,0,5,5,8,0,3,3,1,,,,,,,,,2,1.8356047319975914,,,026,001,2019_May_14_0855,MusicAffectPsychophysiology2019,3.0.5,60.027144273434985,
To what extent did the music make you feel ,ALERT,30MonoWAV/30MonoS1.wav,1,1,3,9,,,,,0,5,5,8,0,4,4,8,,,,,,,,,2,2.6687654800043674,,,026,001,2019_May_14_0855,MusicAffectPsychophysiology2019,3.0.5,60.027144273434985,
To what extent did the music make you feel ,HAPPY,30MonoWAV/30MonoS1.wav,1,1,3,9,,,,,0,5,5,8,0,5,5,6,,,,,,,,,1,1.4366498349991161,,,026,001,2019_May_14_0855,MusicAffectPsychophysiology2019,3.0.5,60.027144273434985,
To what extent did the music make you feel ,SCARED,30MonoWAV/30MonoS1.wav,1,1,3,9,,,,,0,5,5,8,0,6,6,11,,,,,,,,,2,2.6344208319933387,,,026,001,2019_May_14_0855,MusicAffectPsychophysiology2019,3.0.5,60.027144273434985,
To what extent did the music make you feel ,GUILTY,30MonoWAV/30MonoS1.wav,1,1,3,9,,,,,0,5,5,8,0,7,7,5,,,,,,,,,3,2.0512830860097893,,,026,001,2019_May_14_0855,MusicAffectPsychophysiology2019,3.0.5,60.027144273434985,
To what extent did the music make you feel ,SAD,30MonoWAV/30MonoS1.wav,1,1,3,9,,,,,0,5,5,8,0,8,8,0,,,,,,,,,3,1.4340177909907652,,,026,001,2019_May_14_0855,MusicAffectPsychophysiology2019,3.0.5,60.027144273434985,
To what extent did the music make you feel ,ANGRY,30MonoWAV/30MonoS1.wav,1,1,3,9,,,,,0,5,5,8,0,9,9,2,,,,,,,,,2,2.1858038879872765,,,026,001,2019_May_14_0855,MusicAffectPsychophysiology2019,3.0.5,60.027144273434985,
To what extent did the music make you feel ,ASHAMED,30MonoWAV/30MonoS1.wav,1,1,3,9,,,,,0,5,5,8,0,10,10,4,,,,,,,,,3,1.534913785988465,,,026,001,2019_May_14_0855,MusicAffectPsychophysiology2019,3.0.5,60.027144273434985,
To what extent did the music make you feel ,FRUSTRATED,30MonoWAV/30MonoS1.wav,1,1,3,9,,,,,0,5,5,8,0,11,11,3,,,,,,,,,1,1.785029636012041,,,026,001,2019_May_14_0855,MusicAffectPsychophysiology2019,3.0.5,60.027144273434985,
,,30MonoWAV/30MonoS1.wav,1,1,3,9,,,,,0,5,5,8,,,,,,,,,,,,,,,,,026,001,2019_May_14_0855,MusicAffectPsychophysiology2019,3.0.5,60.027144273434985,
To what extent did the music make you feel ,SCARED,30MonoWAV/30MonoF3.wav,1,2,2,3,,,,,0,6,6,2,0,0,0,11,,,3,2.7349292309954762,1,3.251364919997286,3,2.7678098359901924,3,3.0857127319904976,,,026,001,2019_May_14_0855,MusicAffectPsychophysiology2019,3.0.5,60.027144273434985,
To what extent did the music make you feel ,TENDER,30MonoWAV/30MonoF3.wav,1,2,2,3,,,,,0,6,6,2,0,1,1,10,,,,,,,,,1,1.2175679130014032,,,026,001,2019_May_14_0855,MusicAffectPsychophysiology2019,3.0.5,60.027144273434985,
To what extent did the music make you feel ,ANGRY,30MonoWAV/30MonoF3.wav,1,2,2,3,,,,,0,6,6,2,0,2,2,2,,,,,,,,,1,2.5349682610103628,,,026,001,2019_May_14_0855,MusicAffectPsychophysiology2019,3.0.5,60.027144273434985,
To what extent did the music make you feel ,ACTIVE,30MonoWAV/30MonoF3.wav,1,2,2,3,,,,,0,6,6,2,0,3,3,9,,,,,,,,,3,2.957583676005015,,,026,001,2019_May_14_0855,MusicAffectPsychophysiology2019,3.0.5,60.027144273434985,
To what extent did the music make you feel ,HAPPY,30MonoWAV/30MonoF3.wav,1,2,2,3,,,,,0,6,6,2,0,4,4,6,,,,,,,,,1,1.2358922440034803,,,026,001,2019_May_14_0855,MusicAffectPsychophysiology2019,3.0.5,60.027144273434985,
To what extent did the music make you feel ,GUILTY,30MonoWAV/30MonoF3.wav,1,2,2,3,,,,,0,6,6,2,0,5,5,5,,,,,,,,,2,2.770942240997101,,,026,001,2019_May_14_0855,MusicAffectPsychophysiology2019,3.0.5,60.027144273434985,
To what extent did the music make you feel ,ALERT,30MonoWAV/30MonoF3.wav,1,2,2,3,,,,,0,6,6,2,0,6,6,8,,,,,,,,,3,1.2729842270055087,,,026,001,2019_May_14_0855,MusicAffectPsychophysiology2019,3.0.5,60.027144273434985,
To what extent did the music make you feel ,ASHAMED,30MonoWAV/30MonoF3.wav,1,2,2,3,,,,,0,6,6,2,0,7,7,4,,,,,,,,,1,1.7342830819980009,,,026,001,2019_May_14_0855,MusicAffectPsychophysiology2019,3.0.5,60.027144273434985,
To what extent did the music make you feel ,FRUSTRATED,30MonoWAV/30MonoF3.wav,1,2,2,3,,,,,0,6,6,2,0,8,8,3,,,,,,,,,1,1.0691886059939861,,,026,001,2019_May_14_0855,MusicAffectPsychophysiology2019,3.0.5,60.027144273434985,
To what extent did the music make you feel ,ANXIOUS ,30MonoWAV/30MonoF3.wav,1,2,2,3,,,,,0,6,6,2,0,9,9,1,,,,,,,,,3,2.118355357000837,,,026,001,2019_May_14_0855,MusicAffectPsychophysiology2019,3.0.5,60.027144273434985,
To what extent did the music make you feel ,SAD,30MonoWAV/30MonoF3.wav,1,2,2,3,,,,,0,6,6,2,0,10,10,0,,,,,,,,,1,1.6688700759987114,,,026,001,2019_May_14_0855,MusicAffectPsychophysiology2019,3.0.5,60.027144273434985,
To what extent did the music make you feel ,EXCITED,30MonoWAV/30MonoF3.wav,1,2,2,3,,,,,0,6,6,2,0,11,11,7,,,,,,,,,2,1.6859664160001557,,,026,001,2019_May_14_0855,MusicAffectPsychophysiology2019,3.0.5,60.027144273434985,
,,30MonoWAV/30MonoF3.wav,1,2,2,3,,,,,0,6,6,2,,,,,,,,,,,,,,,,,026,001,2019_May_14_0855,MusicAffectPsychophysiology2019,3.0.5,60.027144273434985,
To what extent did the music make you feel ,GUILTY,30MonoWAV/30MonoS2.wav,1,1,3,10,,,,,0,7,7,9,0,0,0,5,,,1,2.9191916870040586,2,2.635748209999292,2,2.2830277049943106,3,2.701134817994898,,,026,001,2019_May_14_0855,MusicAffectPsychophysiology2019,3.0.5,60.027144273434985,
To what extent did the music make you feel ,FRUSTRATED,30MonoWAV/30MonoS2.wav,1,1,3,10,,,,,0,7,7,9,0,1,1,3,,,,,,,,,3,1.852068287000293,,,026,001,2019_May_14_0855,MusicAffectPsychophysiology2019,3.0.5,60.027144273434985,
To what extent did the music make you feel ,SAD,30MonoWAV/30MonoS2.wav,1,1,3,10,,,,,0,7,7,9,0,2,2,0,,,,,,,,,4,2.051125868005329,,,026,001,2019_May_14_0855,MusicAffectPsychophysiology2019,3.0.5,60.027144273434985,
To what extent did the music make you feel ,SCARED,30MonoWAV/30MonoS2.wav,1,1,3,10,,,,,0,7,7,9,0,3,3,11,,,,,,,,,1,3.3350249159993837,,,026,001,2019_May_14_0855,MusicAffectPsychophysiology2019,3.0.5,60.027144273434985,
To what extent did the music make you feel ,TENDER,30MonoWAV/30MonoS2.wav,1,1,3,10,,,,,0,7,7,9,0,4,4,10,,,,,,,,,2,1.7524487400078215,,,026,001,2019_May_14_0855,MusicAffectPsychophysiology2019,3.0.5,60.027144273434985,
To what extent did the music make you feel ,ACTIVE,30MonoWAV/30MonoS2.wav,1,1,3,10,,,,,0,7,7,9,0,5,5,9,,,,,,,,,1,1.3017936010000994,,,026,001,2019_May_14_0855,MusicAffectPsychophysiology2019,3.0.5,60.027144273434985,
To what extent did the music make you feel ,HAPPY,30MonoWAV/30MonoS2.wav,1,1,3,10,,,,,0,7,7,9,0,6,6,6,,,,,,,,,1,0.8843050630093785,,,026,001,2019_May_14_0855,MusicAffectPsychophysiology2019,3.0.5,60.027144273434985,
To what extent did the music make you feel ,ASHAMED,30MonoWAV/30MonoS2.wav,1,1,3,10,,,,,0,7,7,9,0,7,7,4,,,,,,,,,4,2.518535792012699,,,026,001,2019_May_14_0855,MusicAffectPsychophysiology2019,3.0.5,60.027144273434985,
To what extent did the music make you feel ,EXCITED,30MonoWAV/30MonoS2.wav,1,1,3,10,,,,,0,7,7,9,0,8,8,7,,,,,,,,,1,2.601843191005173,,,026,001,2019_May_14_0855,MusicAffectPsychophysiology2019,3.0.5,60.027144273434985,
To what extent did the music make you feel ,ANGRY,30MonoWAV/30MonoS2.wav,1,1,3,10,,,,,0,7,7,9,0,9,9,2,,,,,,,,,2,3.1189152610022575,,,026,001,2019_May_14_0855,MusicAffectPsychophysiology2019,3.0.5,60.027144273434985,
To what extent did the music make you feel ,ANXIOUS ,30MonoWAV/30MonoS2.wav,1,1,3,10,,,,,0,7,7,9,0,10,10,1,,,,,,,,,3,2.752005130998441,,,026,001,2019_May_14_0855,MusicAffectPsychophysiology2019,3.0.5,60.027144273434985,
To what extent did the music make you feel ,ALERT,30MonoWAV/30MonoS2.wav,1,1,3,10,,,,,0,7,7,9,0,11,11,8,,,,,,,,,1,4.185413700004574,,,026,001,2019_May_14_0855,MusicAffectPsychophysiology2019,3.0.5,60.027144273434985,
,,30MonoWAV/30MonoS2.wav,1,1,3,10,,,,,0,7,7,9,,,,,,,,,,,,,,,,,026,001,2019_May_14_0855,MusicAffectPsychophysiology2019,3.0.5,60.027144273434985,
To what extent did the music make you feel ,EXCITED,30MonoWAV/30MonoF1.wav,1,2,2,1,,,,,0,8,8,0,0,0,0,7,,,2,3.0181142509973142,1,1.218531599995913,1,2.5845366300054593,1,2.0859206080058357,,,026,001,2019_May_14_0855,MusicAffectPsychophysiology2019,3.0.5,60.027144273434985,
To what extent did the music make you feel ,SCARED,30MonoWAV/30MonoF1.wav,1,2,2,1,,,,,0,8,8,0,0,1,1,11,,,,,,,,,4,1.718605160000152,,,026,001,2019_May_14_0855,MusicAffectPsychophysiology2019,3.0.5,60.027144273434985,
To what extent did the music make you feel ,FRUSTRATED,30MonoWAV/30MonoF1.wav,1,2,2,1,,,,,0,8,8,0,0,2,2,3,,,,,,,,,2,1.6522946930053877,,,026,001,2019_May_14_0855,MusicAffectPsychophysiology2019,3.0.5,60.027144273434985,
To what extent did the music make you feel ,ACTIVE,30MonoWAV/30MonoF1.wav,1,2,2,1,,,,,0,8,8,0,0,3,3,9,,,,,,,,,1,1.3529927510098787,,,026,001,2019_May_14_0855,MusicAffectPsychophysiology2019,3.0.5,60.027144273434985,
To what extent did the music make you feel ,HAPPY,30MonoWAV/30MonoF1.wav,1,2,2,1,,,,,0,8,8,0,0,4,4,6,,,,,,,,,1,1.582712805000483,,,026,001,2019_May_14_0855,MusicAffectPsychophysiology2019,3.0.5,60.027144273434985,
To what extent did the music make you feel ,GUILTY,30MonoWAV/30MonoF1.wav,1,2,2,1,,,,,0,8,8,0,0,5,5,5,,,,,,,,,2,2.60057786499965,,,026,001,2019_May_14_0855,MusicAffectPsychophysiology2019,3.0.5,60.027144273434985,
To what extent did the music make you feel ,ASHAMED,30MonoWAV/30MonoF1.wav,1,2,2,1,,,,,0,8,8,0,0,6,6,4,,,,,,,,,2,1.5838772440038156,,,026,001,2019_May_14_0855,MusicAffectPsychophysiology2019,3.0.5,60.027144273434985,
To what extent did the music make you feel ,SAD,30MonoWAV/30MonoF1.wav,1,2,2,1,,,,,0,8,8,0,0,7,7,0,,,,,,,,,1,2.718993504997343,,,026,001,2019_May_14_0855,MusicAffectPsychophysiology2019,3.0.5,60.027144273434985,
To what extent did the music make you feel ,TENDER,30MonoWAV/30MonoF1.wav,1,2,2,1,,,,,0,8,8,0,0,8,8,10,,,,,,,,,1,1.3355448119982611,,,026,001,2019_May_14_0855,MusicAffectPsychophysiology2019,3.0.5,60.027144273434985,
To what extent did the music make you feel ,ANGRY,30MonoWAV/30MonoF1.wav,1,2,2,1,,,,,0,8,8,0,0,9,9,2,,,,,,,,,1,3.6348231619922444,,,026,001,2019_May_14_0855,MusicAffectPsychophysiology2019,3.0.5,60.027144273434985,
To what extent did the music make you feel ,ALERT,30MonoWAV/30MonoF1.wav,1,2,2,1,,,,,0,8,8,0,0,10,10,8,,,,,,,,,3,1.7852474120008992,,,026,001,2019_May_14_0855,MusicAffectPsychophysiology2019,3.0.5,60.027144273434985,
To what extent did the music make you feel ,ANXIOUS ,30MonoWAV/30MonoF1.wav,1,2,2,1,,,,,0,8,8,0,0,11,11,1,,,,,,,,,3,2.28513107499748,,,026,001,2019_May_14_0855,MusicAffectPsychophysiology2019,3.0.5,60.027144273434985,
,,30MonoWAV/30MonoF1.wav,1,2,2,1,,,,,0,8,8,0,,,,,,,,,,,,,,,,,026,001,2019_May_14_0855,MusicAffectPsychophysiology2019,3.0.5,60.027144273434985,
To what extent did the music make you feel ,SCARED,30MonoWAV/30MonoS3.wav,1,1,3,11,,,,,0,9,9,10,0,0,0,11,,,1,2.238055654001073,1,1.086704830013332,2,1.937855436000973,1,1.8677007079968462,,,026,001,2019_May_14_0855,MusicAffectPsychophysiology2019,3.0.5,60.027144273434985,
To what extent did the music make you feel ,ANXIOUS ,30MonoWAV/30MonoS3.wav,1,1,3,11,,,,,0,9,9,10,0,1,1,1,,,,,,,,,2,1.6841238799970597,,,026,001,2019_May_14_0855,MusicAffectPsychophysiology2019,3.0.5,60.027144273434985,
To what extent did the music make you feel ,FRUSTRATED,30MonoWAV/30MonoS3.wav,1,1,3,11,,,,,0,9,9,10,0,2,2,3,,,,,,,,,4,2.002150674990844,,,026,001,2019_May_14_0855,MusicAffectPsychophysiology2019,3.0.5,60.027144273434985,
To what extent did the music make you feel ,ALERT,30MonoWAV/30MonoS3.wav,1,1,3,11,,,,,0,9,9,10,0,3,3,8,,,,,,,,,1,2.055513642990263,,,026,001,2019_May_14_0855,MusicAffectPsychophysiology2019,3.0.5,60.027144273434985,
To what extent did the music make you feel ,ANGRY,30MonoWAV/30MonoS3.wav,1,1,3,11,,,,,0,9,9,10,0,4,4,2,,,,,,,,,3,3.1722148489934625,,,026,001,2019_May_14_0855,MusicAffectPsychophysiology2019,3.0.5,60.027144273434985,
To what extent did the music make you feel ,SAD,30MonoWAV/30MonoS3.wav,1,1,3,11,,,,,0,9,9,10,0,5,5,0,,,,,,,,,2,2.503940500988392,,,026,001,2019_May_14_0855,MusicAffectPsychophysiology2019,3.0.5,60.027144273434985,
To what extent did the music make you feel ,GUILTY,30MonoWAV/30MonoS3.wav,1,1,3,11,,,,,0,9,9,10,0,6,6,5,,,,,,,,,2,3.290777424990665,,,026,001,2019_May_14_0855,MusicAffectPsychophysiology2019,3.0.5,60.027144273434985,
To what extent did the music make you feel ,ASHAMED,30MonoWAV/30MonoS3.wav,1,1,3,11,,,,,0,9,9,10,0,7,7,4,,,,,,,,,2,2.0510969170136377,,,026,001,2019_May_14_0855,MusicAffectPsychophysiology2019,3.0.5,60.027144273434985,
To what extent did the music make you feel ,ACTIVE,30MonoWAV/30MonoS3.wav,1,1,3,11,,,,,0,9,9,10,0,8,8,9,,,,,,,,,1,2.7690966769878287,,,026,001,2019_May_14_0855,MusicAffectPsychophysiology2019,3.0.5,60.027144273434985,
To what extent did the music make you feel ,HAPPY,30MonoWAV/30MonoS3.wav,1,1,3,11,,,,,0,9,9,10,0,9,9,6,,,,,,,,,1,0.951502222000272,,,026,001,2019_May_14_0855,MusicAffectPsychophysiology2019,3.0.5,60.027144273434985,
To what extent did the music make you feel ,EXCITED,30MonoWAV/30MonoS3.wav,1,1,3,11,,,,,0,9,9,10,0,10,10,7,,,,,,,,,1,1.535370690995478,,,026,001,2019_May_14_0855,MusicAffectPsychophysiology2019,3.0.5,60.027144273434985,
To what extent did the music make you feel ,TENDER,30MonoWAV/30MonoS3.wav,1,1,3,11,,,,,0,9,9,10,0,11,11,10,,,,,,,,,1,1.3852813410048839,,,026,001,2019_May_14_0855,MusicAffectPsychophysiology2019,3.0.5,60.027144273434985,
,,30MonoWAV/30MonoS3.wav,1,1,3,11,,,,,0,9,9,10,,,,,,,,,,,,,,,,,026,001,2019_May_14_0855,MusicAffectPsychophysiology2019,3.0.5,60.027144273434985,
To what extent did the music make you feel ,ANGRY,30MonoWAV/30MonoT2.wav,2,1,4,14,,,,,0,10,10,13,0,0,0,2,,,2,2.3000446110090706,3,1.9351544189994456,3,2.4396546299976762,1,1.9032120170013513,,,026,001,2019_May_14_0855,MusicAffectPsychophysiology2019,3.0.5,60.027144273434985,
To what extent did the music make you feel ,TENDER,30MonoWAV/30MonoT2.wav,2,1,4,14,,,,,0,10,10,13,0,1,1,10,,,,,,,,,4,1.48696343699703,,,026,001,2019_May_14_0855,MusicAffectPsychophysiology2019,3.0.5,60.027144273434985,
To what extent did the music make you feel ,SCARED,30MonoWAV/30MonoT2.wav,2,1,4,14,,,,,0,10,10,13,0,2,2,11,,,,,,,,,1,1.236337401001947,,,026,001,2019_May_14_0855,MusicAffectPsychophysiology2019,3.0.5,60.027144273434985,
To what extent did the music make you feel ,ACTIVE,30MonoWAV/30MonoT2.wav,2,1,4,14,,,,,0,10,10,13,0,3,3,9,,,,,,,,,2,1.5366582269925857,,,026,001,2019_May_14_0855,MusicAffectPsychophysiology2019,3.0.5,60.027144273434985,
To what extent did the music make you feel ,ANXIOUS ,30MonoWAV/30MonoT2.wav,2,1,4,14,,,,,0,10,10,13,0,4,4,1,,,,,,,,,1,2.8201326790003804,,,026,001,2019_May_14_0855,MusicAffectPsychophysiology2019,3.0.5,60.027144273434985,
To what extent did the music make you feel ,ALERT,30MonoWAV/30MonoT2.wav,2,1,4,14,,,,,0,10,10,13,0,5,5,8,,,,,,,,,1,1.269009900992387,,,026,001,2019_May_14_0855,MusicAffectPsychophysiology2019,3.0.5,60.027144273434985,
To what extent did the music make you feel ,EXCITED,30MonoWAV/30MonoT2.wav,2,1,4,14,,,,,0,10,10,13,0,6,6,7,,,,,,,,,3,1.8518995769991307,,,026,001,2019_May_14_0855,MusicAffectPsychophysiology2019,3.0.5,60.027144273434985,
To what extent did the music make you feel ,FRUSTRATED,30MonoWAV/30MonoT2.wav,2,1,4,14,,,,,0,10,10,13,0,7,7,3,,,,,,,,,1,1.535910780003178,,,026,001,2019_May_14_0855,MusicAffectPsychophysiology2019,3.0.5,60.027144273434985,
To what extent did the music make you feel ,ASHAMED,30MonoWAV/30MonoT2.wav,2,1,4,14,,,,,0,10,10,13,0,8,8,4,,,,,,,,,1,0.9683077069930732,,,026,001,2019_May_14_0855,MusicAffectPsychophysiology2019,3.0.5,60.027144273434985,
To what extent did the music make you feel ,HAPPY,30MonoWAV/30MonoT2.wav,2,1,4,14,,,,,0,10,10,13,0,9,9,6,,,,,,,,,3,1.5847024190006778,,,026,001,2019_May_14_0855,MusicAffectPsychophysiology2019,3.0.5,60.027144273434985,
To what extent did the music make you feel ,GUILTY,30MonoWAV/30MonoT2.wav,2,1,4,14,,,,,0,10,10,13,0,10,10,5,,,,,,,,,1,1.3027432990056695,,,026,001,2019_May_14_0855,MusicAffectPsychophysiology2019,3.0.5,60.027144273434985,
To what extent did the music make you feel ,SAD,30MonoWAV/30MonoT2.wav,2,1,4,14,,,,,0,10,10,13,0,11,11,0,,,,,,,,,1,1.0013466099917423,,,026,001,2019_May_14_0855,MusicAffectPsychophysiology2019,3.0.5,60.027144273434985,
,,30MonoWAV/30MonoT2.wav,2,1,4,14,,,,,0,10,10,13,,,,,,,,,,,,,,,,,026,001,2019_May_14_0855,MusicAffectPsychophysiology2019,3.0.5,60.027144273434985,
To what extent did the music make you feel ,ALERT,30MonoWAV/30MonoT3.wav,2,1,4,15,,,,,0,11,11,14,0,0,0,8,,,1,7.893796855991241,3,2.3059770449908683,1,1.9895931350038154,1,2.76763963700796,,,026,001,2019_May_14_0855,MusicAffectPsychophysiology2019,3.0.5,60.027144273434985,
To what extent did the music make you feel ,SCARED,30MonoWAV/30MonoT3.wav,2,1,4,15,,,,,0,11,11,14,0,1,1,11,,,,,,,,,1,0.9351356880069943,,,026,001,2019_May_14_0855,MusicAffectPsychophysiology2019,3.0.5,60.027144273434985,
To what extent did the music make you feel ,ANXIOUS ,30MonoWAV/30MonoT3.wav,2,1,4,15,,,,,0,11,11,14,0,2,2,1,,,,,,,,,1,0.8853296820016112,,,026,001,2019_May_14_0855,MusicAffectPsychophysiology2019,3.0.5,60.027144273434985,
To what extent did the music make you feel ,FRUSTRATED,30MonoWAV/30MonoT3.wav,2,1,4,15,,,,,0,11,11,14,0,3,3,3,,,,,,,,,1,0.9850223700050265,,,026,001,2019_May_14_0855,MusicAffectPsychophysiology2019,3.0.5,60.027144273434985,
To what extent did the music make you feel ,GUILTY,30MonoWAV/30MonoT3.wav,2,1,4,15,,,,,0,11,11,14,0,4,4,5,,,,,,,,,1,1.1848629320011241,,,026,001,2019_May_14_0855,MusicAffectPsychophysiology2019,3.0.5,60.027144273434985,
To what extent did the music make you feel ,ASHAMED,30MonoWAV/30MonoT3.wav,2,1,4,15,,,,,0,11,11,14,0,5,5,4,,,,,,,,,1,1.3522803780069808,,,026,001,2019_May_14_0855,MusicAffectPsychophysiology2019,3.0.5,60.027144273434985,
To what extent did the music make you feel ,SAD,30MonoWAV/30MonoT3.wav,2,1,4,15,,,,,0,11,11,14,0,6,6,0,,,,,,,,,1,1.200606433005305,,,026,001,2019_May_14_0855,MusicAffectPsychophysiology2019,3.0.5,60.027144273434985,
To what extent did the music make you feel ,EXCITED,30MonoWAV/30MonoT3.wav,2,1,4,15,,,,,0,11,11,14,0,7,7,7,,,,,,,,,2,1.4662463160057086,,,026,001,2019_May_14_0855,MusicAffectPsychophysiology2019,3.0.5,60.027144273434985,
To what extent did the music make you feel ,ANGRY,30MonoWAV/30MonoT3.wav,2,1,4,15,,,,,0,11,11,14,0,8,8,2,,,,,,,,,1,1.017905195010826,,,026,001,2019_May_14_0855,MusicAffectPsychophysiology2019,3.0.5,60.027144273434985,
To what extent did the music make you feel ,ACTIVE,30MonoWAV/30MonoT3.wav,2,1,4,15,,,,,0,11,11,14,0,9,9,9,,,,,,,,,2,1.6169331319979392,,,026,001,2019_May_14_0855,MusicAffectPsychophysiology2019,3.0.5,60.027144273434985,
To what extent did the music make you feel ,TENDER,30MonoWAV/30MonoT3.wav,2,1,4,15,,,,,0,11,11,14,0,10,10,10,,,,,,,,,4,1.8348765269911382,,,026,001,2019_May_14_0855,MusicAffectPsychophysiology2019,3.0.5,60.027144273434985,
To what extent did the music make you feel ,HAPPY,30MonoWAV/30MonoT3.wav,2,1,4,15,,,,,0,11,11,14,0,11,11,6,,,,,,,,,3,1.4019112860114546,,,026,001,2019_May_14_0855,MusicAffectPsychophysiology2019,3.0.5,60.027144273434985,
,,30MonoWAV/30MonoT3.wav,2,1,4,15,,,,,0,11,11,14,,,,,,,,,,,,,,,,,026,001,2019_May_14_0855,MusicAffectPsychophysiology2019,3.0.5,60.027144273434985,
To what extent did the music make you feel ,SAD,30MonoWAV/30MonoT1.wav,2,1,4,13,,,,,0,12,12,12,0,0,0,0,,,3,2.351816953989328,3,4.6688513700064505,2,1.8029844500124454,1,1.3180847220064607,,,026,001,2019_May_14_0855,MusicAffectPsychophysiology2019,3.0.5,60.027144273434985,
To what extent did the music make you feel ,TENDER,30MonoWAV/30MonoT1.wav,2,1,4,13,,,,,0,12,12,12,0,1,1,10,,,,,,,,,4,3.0533555490110302,,,026,001,2019_May_14_0855,MusicAffectPsychophysiology2019,3.0.5,60.027144273434985,
To what extent did the music make you feel ,FRUSTRATED,30MonoWAV/30MonoT1.wav,2,1,4,13,,,,,0,12,12,12,0,2,2,3,,,,,,,,,1,1.235089738998795,,,026,001,2019_May_14_0855,MusicAffectPsychophysiology2019,3.0.5,60.027144273434985,
To what extent did the music make you feel ,GUILTY,30MonoWAV/30MonoT1.wav,2,1,4,13,,,,,0,12,12,12,0,3,3,5,,,,,,,,,1,1.2683209309907397,,,026,001,2019_May_14_0855,MusicAffectPsychophysiology2019,3.0.5,60.027144273434985,
To what extent did the music make you feel ,ANGRY,30MonoWAV/30MonoT1.wav,2,1,4,13,,,,,0,12,12,12,0,4,4,2,,,,,,,,,1,1.3191979399998672,,,026,001,2019_May_14_0855,MusicAffectPsychophysiology2019,3.0.5,60.027144273434985,
To what extent did the music make you feel ,ACTIVE,30MonoWAV/30MonoT1.wav,2,1,4,13,,,,,0,12,12,12,0,5,5,9,,,,,,,,,2,1.4695787249947898,,,026,001,2019_May_14_0855,MusicAffectPsychophysiology2019,3.0.5,60.027144273434985,
To what extent did the music make you feel ,ANXIOUS ,30MonoWAV/30MonoT1.wav,2,1,4,13,,,,,0,12,12,12,0,6,6,1,,,,,,,,,1,1.1014551749976818,,,026,001,2019_May_14_0855,MusicAffectPsychophysiology2019,3.0.5,60.027144273434985,
To what extent did the music make you feel ,ASHAMED,30MonoWAV/30MonoT1.wav,2,1,4,13,,,,,0,12,12,12,0,7,7,4,,,,,,,,,1,1.6181437050108798,,,026,001,2019_May_14_0855,MusicAffectPsychophysiology2019,3.0.5,60.027144273434985,
To what extent did the music make you feel ,EXCITED,30MonoWAV/30MonoT1.wav,2,1,4,13,,,,,0,12,12,12,0,8,8,7,,,,,,,,,3,2.1531978499988327,,,026,001,2019_May_14_0855,MusicAffectPsychophysiology2019,3.0.5,60.027144273434985,
To what extent did the music make you feel ,SCARED,30MonoWAV/30MonoT1.wav,2,1,4,13,,,,,0,12,12,12,0,9,9,11,,,,,,,,,1,1.101964161003707,,,026,001,2019_May_14_0855,MusicAffectPsychophysiology2019,3.0.5,60.027144273434985,
To what extent did the music make you feel ,ALERT,30MonoWAV/30MonoT1.wav,2,1,4,13,,,,,0,12,12,12,0,10,10,8,,,,,,,,,1,1.885492557004909,,,026,001,2019_May_14_0855,MusicAffectPsychophysiology2019,3.0.5,60.027144273434985,
To what extent did the music make you feel ,HAPPY,30MonoWAV/30MonoT1.wav,2,1,4,13,,,,,0,12,12,12,0,11,11,6,,,,,,,,,4,2.069426622008905,,,026,001,2019_May_14_0855,MusicAffectPsychophysiology2019,3.0.5,60.027144273434985,
,,30MonoWAV/30MonoT1.wav,2,1,4,13,,,,,0,12,12,12,,,,,,,,,,,,,,,,,026,001,2019_May_14_0855,MusicAffectPsychophysiology2019,3.0.5,60.027144273434985,
To what extent did the music make you feel ,SAD,30MonoWAV/30MonoH4.wav,2,2,1,8,,,,,0,13,13,7,0,0,0,0,,,5,2.1341032260097563,4,2.303746756995679,5,2.172302088001743,1,2.0883613449987024,,,026,001,2019_May_14_0855,MusicAffectPsychophysiology2019,3.0.5,60.027144273434985,
To what extent did the music make you feel ,GUILTY,30MonoWAV/30MonoH4.wav,2,2,1,8,,,,,0,13,13,7,0,1,1,5,,,,,,,,,1,0.6857035480061313,,,026,001,2019_May_14_0855,MusicAffectPsychophysiology2019,3.0.5,60.027144273434985,
To what extent did the music make you feel ,ANXIOUS ,30MonoWAV/30MonoH4.wav,2,2,1,8,,,,,0,13,13,7,0,2,2,1,,,,,,,,,1,0.6678660939942347,,,026,001,2019_May_14_0855,MusicAffectPsychophysiology2019,3.0.5,60.027144273434985,
To what extent did the music make you feel ,SCARED,30MonoWAV/30MonoH4.wav,2,2,1,8,,,,,0,13,13,7,0,3,3,11,,,,,,,,,1,1.404646683993633,,,026,001,2019_May_14_0855,MusicAffectPsychophysiology2019,3.0.5,60.027144273434985,
To what extent did the music make you feel ,FRUSTRATED,30MonoWAV/30MonoH4.wav,2,2,1,8,,,,,0,13,13,7,0,4,4,3,,,,,,,,,1,0.8846322069875896,,,026,001,2019_May_14_0855,MusicAffectPsychophysiology2019,3.0.5,60.027144273434985,
To what extent did the music make you feel ,ANGRY,30MonoWAV/30MonoH4.wav,2,2,1,8,,,,,0,13,13,7,0,5,5,2,,,,,,,,,1,0.903694792999886,,,026,001,2019_May_14_0855,MusicAffectPsychophysiology2019,3.0.5,60.027144273434985,
To what extent did the music make you feel ,ACTIVE,30MonoWAV/30MonoH4.wav,2,2,1,8,,,,,0,13,13,7,0,6,6,9,,,,,,,,,4,1.6050370650045807,,,026,001,2019_May_14_0855,MusicAffectPsychophysiology2019,3.0.5,60.027144273434985,
To what extent did the music make you feel ,ASHAMED,30MonoWAV/30MonoH4.wav,2,2,1,8,,,,,0,13,13,7,0,7,7,4,,,,,,,,,1,1.2333320929901674,,,026,001,2019_May_14_0855,MusicAffectPsychophysiology2019,3.0.5,60.027144273434985,
To what extent did the music make you feel ,HAPPY,30MonoWAV/30MonoH4.wav,2,2,1,8,,,,,0,13,13,7,0,8,8,6,,,,,,,,,5,2.052596358989831,,,026,001,2019_May_14_0855,MusicAffectPsychophysiology2019,3.0.5,60.027144273434985,
To what extent did the music make you feel ,ALERT,30MonoWAV/30MonoH4.wav,2,2,1,8,,,,,0,13,13,7,0,9,9,8,,,,,,,,,3,2.4223295679985313,,,026,001,2019_May_14_0855,MusicAffectPsychophysiology2019,3.0.5,60.027144273434985,
To what extent did the music make you feel ,TENDER,30MonoWAV/30MonoH4.wav,2,2,1,8,,,,,0,13,13,7,0,10,10,10,,,,,,,,,2,2.2714980070013553,,,026,001,2019_May_14_0855,MusicAffectPsychophysiology2019,3.0.5,60.027144273434985,
To what extent did the music make you feel ,EXCITED,30MonoWAV/30MonoH4.wav,2,2,1,8,,,,,0,13,13,7,0,11,11,7,,,,,,,,,5,2.4531353910133475,,,026,001,2019_May_14_0855,MusicAffectPsychophysiology2019,3.0.5,60.027144273434985,
,,30MonoWAV/30MonoH4.wav,2,2,1,8,,,,,0,13,13,7,,,,,,,,,,,,,,,,,026,001,2019_May_14_0855,MusicAffectPsychophysiology2019,3.0.5,60.027144273434985,
To what extent did the music make you feel ,ALERT,30MonoWAV/30MonoH3.wav,2,2,1,7,,,,,0,14,14,6,0,0,0,8,,,4,2.7331216930033406,4,2.172893822993501,3,3.2383422949933447,2,2.6691738719964633,,,026,001,2019_May_14_0855,MusicAffectPsychophysiology2019,3.0.5,60.027144273434985,
To what extent did the music make you feel ,HAPPY,30MonoWAV/30MonoH3.wav,2,2,1,7,,,,,0,14,14,6,0,1,1,6,,,,,,,,,4,1.1397907380014658,,,026,001,2019_May_14_0855,MusicAffectPsychophysiology2019,3.0.5,60.027144273434985,
To what extent did the music make you feel ,SCARED,30MonoWAV/30MonoH3.wav,2,2,1,7,,,,,0,14,14,6,0,2,2,11,,,,,,,,,1,1.2183436490013264,,,026,001,2019_May_14_0855,MusicAffectPsychophysiology2019,3.0.5,60.027144273434985,
To what extent did the music make you feel ,ACTIVE,30MonoWAV/30MonoH3.wav,2,2,1,7,,,,,0,14,14,6,0,3,3,9,,,,,,,,,3,1.60232870701293,,,026,001,2019_May_14_0855,MusicAffectPsychophysiology2019,3.0.5,60.027144273434985,
To what extent did the music make you feel ,ANGRY,30MonoWAV/30MonoH3.wav,2,2,1,7,,,,,0,14,14,6,0,4,4,2,,,,,,,,,1,1.5177960930013796,,,026,001,2019_May_14_0855,MusicAffectPsychophysiology2019,3.0.5,60.027144273434985,
To what extent did the music make you feel ,GUILTY,30MonoWAV/30MonoH3.wav,2,2,1,7,,,,,0,14,14,6,0,5,5,5,,,,,,,,,1,0.9841980670025805,,,026,001,2019_May_14_0855,MusicAffectPsychophysiology2019,3.0.5,60.027144273434985,
To what extent did the music make you feel ,ASHAMED,30MonoWAV/30MonoH3.wav,2,2,1,7,,,,,0,14,14,6,0,6,6,4,,,,,,,,,1,0.6524775400030194,,,026,001,2019_May_14_0855,MusicAffectPsychophysiology2019,3.0.5,60.027144273434985,
To what extent did the music make you feel ,FRUSTRATED,30MonoWAV/30MonoH3.wav,2,2,1,7,,,,,0,14,14,6,0,7,7,3,,,,,,,,,1,0.6519073870003922,,,026,001,2019_May_14_0855,MusicAffectPsychophysiology2019,3.0.5,60.027144273434985,
To what extent did the music make you feel ,ANXIOUS ,30MonoWAV/30MonoH3.wav,2,2,1,7,,,,,0,14,14,6,0,8,8,1,,,,,,,,,1,1.9343325470108539,,,026,001,2019_May_14_0855,MusicAffectPsychophysiology2019,3.0.5,60.027144273434985,
To what extent did the music make you feel ,SAD,30MonoWAV/30MonoH3.wav,2,2,1,7,,,,,0,14,14,6,0,9,9,0,,,,,,,,,1,1.101932753008441,,,026,001,2019_May_14_0855,MusicAffectPsychophysiology2019,3.0.5,60.027144273434985,
To what extent did the music make you feel ,TENDER,30MonoWAV/30MonoH3.wav,2,2,1,7,,,,,0,14,14,6,0,10,10,10,,,,,,,,,2,2.0859157140075695,,,026,001,2019_May_14_0855,MusicAffectPsychophysiology2019,3.0.5,60.027144273434985,
To what extent did the music make you feel ,EXCITED,30MonoWAV/30MonoH3.wav,2,2,1,7,,,,,0,14,14,6,0,11,11,7,,,,,,,,,4,1.500583053988521,,,026,001,2019_May_14_0855,MusicAffectPsychophysiology2019,3.0.5,60.027144273434985,
,,30MonoWAV/30MonoH3.wav,2,2,1,7,,,,,0,14,14,6,,,,,,,,,,,,,,,,,026,001,2019_May_14_0855,MusicAffectPsychophysiology2019,3.0.5,60.027144273434985,
To what extent did the music make you feel ,TENDER,30MonoWAV/30MonoF4.wav,1,2,2,4,,,,,0,15,15,3,0,0,0,10,,,3,2.2352907120075542,2,1.585889522000798,3,2.5515990940039046,1,1.6669119509897428,,,026,001,2019_May_14_0855,MusicAffectPsychophysiology2019,3.0.5,60.027144273434985,
To what extent did the music make you feel ,SCARED,30MonoWAV/30MonoF4.wav,1,2,2,4,,,,,0,15,15,3,0,1,1,11,,,,,,,,,3,1.7683368180005345,,,026,001,2019_May_14_0855,MusicAffectPsychophysiology2019,3.0.5,60.027144273434985,
To what extent did the music make you feel ,ANGRY,30MonoWAV/30MonoF4.wav,1,2,2,4,,,,,0,15,15,3,0,2,2,2,,,,,,,,,2,2.7839186650089687,,,026,001,2019_May_14_0855,MusicAffectPsychophysiology2019,3.0.5,60.027144273434985,
To what extent did the music make you feel ,FRUSTRATED,30MonoWAV/30MonoF4.wav,1,2,2,4,,,,,0,15,15,3,0,3,3,3,,,,,,,,,2,1.4527590639918344,,,026,001,2019_May_14_0855,MusicAffectPsychophysiology2019,3.0.5,60.027144273434985,
To what extent did the music make you feel ,ALERT,30MonoWAV/30MonoF4.wav,1,2,2,4,,,,,0,15,15,3,0,4,4,8,,,,,,,,,3,3.3503104529954726,,,026,001,2019_May_14_0855,MusicAffectPsychophysiology2019,3.0.5,60.027144273434985,
To what extent did the music make you feel ,ANXIOUS ,30MonoWAV/30MonoF4.wav,1,2,2,4,,,,,0,15,15,3,0,5,5,1,,,,,,,,,3,2.0855029429949354,,,026,001,2019_May_14_0855,MusicAffectPsychophysiology2019,3.0.5,60.027144273434985,
To what extent did the music make you feel ,GUILTY,30MonoWAV/30MonoF4.wav,1,2,2,4,,,,,0,15,15,3,0,6,6,5,,,,,,,,,1,3.584448284993414,,,026,001,2019_May_14_0855,MusicAffectPsychophysiology2019,3.0.5,60.027144273434985,
To what extent did the music make you feel ,SAD,30MonoWAV/30MonoF4.wav,1,2,2,4,,,,,0,15,15,3,0,7,7,0,,,,,,,,,1,1.4525860879948596,,,026,001,2019_May_14_0855,MusicAffectPsychophysiology2019,3.0.5,60.027144273434985,
To what extent did the music make you feel ,ASHAMED,30MonoWAV/30MonoF4.wav,1,2,2,4,,,,,0,15,15,3,0,8,8,4,,,,,,,,,1,1.834629725999548,,,026,001,2019_May_14_0855,MusicAffectPsychophysiology2019,3.0.5,60.027144273434985,
To what extent did the music make you feel ,HAPPY,30MonoWAV/30MonoF4.wav,1,2,2,4,,,,,0,15,15,3,0,9,9,6,,,,,,,,,1,2.55188902199734,,,026,001,2019_May_14_0855,MusicAffectPsychophysiology2019,3.0.5,60.027144273434985,
To what extent did the music make you feel ,ACTIVE,30MonoWAV/30MonoF4.wav,1,2,2,4,,,,,0,15,15,3,0,10,10,9,,,,,,,,,3,3.16849904099945,,,026,001,2019_May_14_0855,MusicAffectPsychophysiology2019,3.0.5,60.027144273434985,
To what extent did the music make you feel ,EXCITED,30MonoWAV/30MonoF4.wav,1,2,2,4,,,,,0,15,15,3,0,11,11,7,,,,,,,,,2,1.8187297029944602,,,026,001,2019_May_14_0855,MusicAffectPsychophysiology2019,3.0.5,60.027144273434985,
,,30MonoWAV/30MonoF4.wav,1,2,2,4,,,,,0,15,15,3,,,,,,,,,,,,,,,,,026,001,2019_May_14_0855,MusicAffectPsychophysiology2019,3.0.5,60.027144273434985,
To what extent did the music make you feel ,FRUSTRATED,30MonoWAV/30MonoF1.wav,1,2,2,1,,,,,1,0,16,0,0,0,0,3,,,3,2.8004927240108373,1,2.385190697008511,2,1.2689137109991862,2,2.6295375030022115,,,026,001,2019_May_14_0855,MusicAffectPsychophysiology2019,3.0.5,60.027144273434985,
To what extent did the music make you feel ,TENDER,30MonoWAV/30MonoF1.wav,1,2,2,1,,,,,1,0,16,0,0,1,1,10,,,,,,,,,1,1.1352658709947718,,,026,001,2019_May_14_0855,MusicAffectPsychophysiology2019,3.0.5,60.027144273434985,
To what extent did the music make you feel ,HAPPY,30MonoWAV/30MonoF1.wav,1,2,2,1,,,,,1,0,16,0,0,2,2,6,,,,,,,,,1,1.168313643996953,,,026,001,2019_May_14_0855,MusicAffectPsychophysiology2019,3.0.5,60.027144273434985,
To what extent did the music make you feel ,ANGRY,30MonoWAV/30MonoF1.wav,1,2,2,1,,,,,1,0,16,0,0,3,3,2,,,,,,,,,3,2.118471994996071,,,026,001,2019_May_14_0855,MusicAffectPsychophysiology2019,3.0.5,60.027144273434985,
To what extent did the music make you feel ,GUILTY,30MonoWAV/30MonoF1.wav,1,2,2,1,,,,,1,0,16,0,0,4,4,5,,,,,,,,,2,1.5348509339964949,,,026,001,2019_May_14_0855,MusicAffectPsychophysiology2019,3.0.5,60.027144273434985,
To what extent did the music make you feel ,EXCITED,30MonoWAV/30MonoF1.wav,1,2,2,1,,,,,1,0,16,0,0,5,5,7,,,,,,,,,1,1.7345999669923913,,,026,001,2019_May_14_0855,MusicAffectPsychophysiology2019,3.0.5,60.027144273434985,
To what extent did the music make you feel ,ANXIOUS ,30MonoWAV/30MonoF1.wav,1,2,2,1,,,,,1,0,16,0,0,6,6,1,,,,,,,,,4,1.7004136760078836,,,026,001,2019_May_14_0855,MusicAffectPsychophysiology2019,3.0.5,60.027144273434985,
To what extent did the music make you feel ,ASHAMED,30MonoWAV/30MonoF1.wav,1,2,2,1,,,,,1,0,16,0,0,7,7,4,,,,,,,,,2,2.8671119719947455,,,026,001,2019_May_14_0855,MusicAffectPsychophysiology2019,3.0.5,60.027144273434985,
To what extent did the music make you feel ,ALERT,30MonoWAV/30MonoF1.wav,1,2,2,1,,,,,1,0,16,0,0,8,8,8,,,,,,,,,3,1.4682181200041668,,,026,001,2019_May_14_0855,MusicAffectPsychophysiology2019,3.0.5,60.027144273434985,
To what extent did the music make you feel ,ACTIVE,30MonoWAV/30MonoF1.wav,1,2,2,1,,,,,1,0,16,0,0,9,9,9,,,,,,,,,2,1.5855197120108642,,,026,001,2019_May_14_0855,MusicAffectPsychophysiology2019,3.0.5,60.027144273434985,
To what extent did the music make you feel ,SAD,30MonoWAV/30MonoF1.wav,1,2,2,1,,,,,1,0,16,0,0,10,10,0,,,,,,,,,1,1.5517311430012342,,,026,001,2019_May_14_0855,MusicAffectPsychophysiology2019,3.0.5,60.027144273434985,
To what extent did the music make you feel ,SCARED,30MonoWAV/30MonoF1.wav,1,2,2,1,,,,,1,0,16,0,0,11,11,11,,,,,,,,,4,2.467929923994234,,,026,001,2019_May_14_0855,MusicAffectPsychophysiology2019,3.0.5,60.027144273434985,
,,30MonoWAV/30MonoF1.wav,1,2,2,1,,,,,1,0,16,0,,,,,,,,,,,,,,,,,026,001,2019_May_14_0855,MusicAffectPsychophysiology2019,3.0.5,60.027144273434985,
To what extent did the music make you feel ,ACTIVE,30MonoWAV/30MonoF2.wav,1,2,2,2,,,,,1,1,17,1,0,0,0,9,,,3,4.723897816002136,1,1.3693089010048425,1,1.2406117990030907,3,3.4524149439967005,,,026,001,2019_May_14_0855,MusicAffectPsychophysiology2019,3.0.5,60.027144273434985,
To what extent did the music make you feel ,ANXIOUS ,30MonoWAV/30MonoF2.wav,1,2,2,2,,,,,1,1,17,1,0,1,1,1,,,,,,,,,5,1.6689392179978313,,,026,001,2019_May_14_0855,MusicAffectPsychophysiology2019,3.0.5,60.027144273434985,
To what extent did the music make you feel ,TENDER,30MonoWAV/30MonoF2.wav,1,2,2,2,,,,,1,1,17,1,0,2,2,10,,,,,,,,,1,2.701418418000685,,,026,001,2019_May_14_0855,MusicAffectPsychophysiology2019,3.0.5,60.027144273434985,
To what extent did the music make you feel ,ALERT,30MonoWAV/30MonoF2.wav,1,2,2,2,,,,,1,1,17,1,0,3,3,8,,,,,,,,,5,1.683676386004663,,,026,001,2019_May_14_0855,MusicAffectPsychophysiology2019,3.0.5,60.027144273434985,
To what extent did the music make you feel ,ANGRY,30MonoWAV/30MonoF2.wav,1,2,2,2,,,,,1,1,17,1,0,4,4,2,,,,,,,,,1,2.0177701609936776,,,026,001,2019_May_14_0855,MusicAffectPsychophysiology2019,3.0.5,60.027144273434985,
To what extent did the music make you feel ,ASHAMED,30MonoWAV/30MonoF2.wav,1,2,2,2,,,,,1,1,17,1,0,5,5,4,,,,,,,,,1,1.0689501290034968,,,026,001,2019_May_14_0855,MusicAffectPsychophysiology2019,3.0.5,60.027144273434985,
To what extent did the music make you feel ,EXCITED,30MonoWAV/30MonoF2.wav,1,2,2,2,,,,,1,1,17,1,0,6,6,7,,,,,,,,,1,1.1680353849951643,,,026,001,2019_May_14_0855,MusicAffectPsychophysiology2019,3.0.5,60.027144273434985,
To what extent did the music make you feel ,SAD,30MonoWAV/30MonoF2.wav,1,2,2,2,,,,,1,1,17,1,0,7,7,0,,,,,,,,,1,1.317768820998026,,,026,001,2019_May_14_0855,MusicAffectPsychophysiology2019,3.0.5,60.027144273434985,
To what extent did the music make you feel ,FRUSTRATED,30MonoWAV/30MonoF2.wav,1,2,2,2,,,,,1,1,17,1,0,8,8,3,,,,,,,,,2,1.7516647649899824,,,026,001,2019_May_14_0855,MusicAffectPsychophysiology2019,3.0.5,60.027144273434985,
To what extent did the music make you feel ,SCARED,30MonoWAV/30MonoF2.wav,1,2,2,2,,,,,1,1,17,1,0,9,9,11,,,,,,,,,4,1.637577045999933,,,026,001,2019_May_14_0855,MusicAffectPsychophysiology2019,3.0.5,60.027144273434985,
To what extent did the music make you feel ,HAPPY,30MonoWAV/30MonoF2.wav,1,2,2,2,,,,,1,1,17,1,0,10,10,6,,,,,,,,,1,1.8710284050030168,,,026,001,2019_May_14_0855,MusicAffectPsychophysiology2019,3.0.5,60.027144273434985,
To what extent did the music make you feel ,GUILTY,30MonoWAV/30MonoF2.wav,1,2,2,2,,,,,1,1,17,1,0,11,11,5,,,,,,,,,2,4.090290623003966,,,026,001,2019_May_14_0855,MusicAffectPsychophysiology2019,3.0.5,60.027144273434985,
,,30MonoWAV/30MonoF2.wav,1,2,2,2,,,,,1,1,17,1,,,,,,,,,,,,,,,,,026,001,2019_May_14_0855,MusicAffectPsychophysiology2019,3.0.5,60.027144273434985,
To what extent did the music make you feel ,ASHAMED,30MonoWAV/30MonoF4.wav,1,2,2,4,,,,,1,2,18,3,0,0,0,4,,,2,2.301685312006157,1,1.1183812839881284,1,1.218442244004109,3,4.468260497000301,,,026,001,2019_May_14_0855,MusicAffectPsychophysiology2019,3.0.5,60.027144273434985,
To what extent did the music make you feel ,SAD,30MonoWAV/30MonoF4.wav,1,2,2,4,,,,,1,2,18,3,0,1,1,0,,,,,,,,,2,1.9679927199904341,,,026,001,2019_May_14_0855,MusicAffectPsychophysiology2019,3.0.5,60.027144273434985,
To what extent did the music make you feel ,SCARED,30MonoWAV/30MonoF4.wav,1,2,2,4,,,,,1,2,18,3,0,2,2,11,,,,,,,,,4,2.5011197790008737,,,026,001,2019_May_14_0855,MusicAffectPsychophysiology2019,3.0.5,60.027144273434985,
To what extent did the music make you feel ,HAPPY,30MonoWAV/30MonoF4.wav,1,2,2,4,,,,,1,2,18,3,0,3,3,6,,,,,,,,,1,1.1685495429992443,,,026,001,2019_May_14_0855,MusicAffectPsychophysiology2019,3.0.5,60.027144273434985,
To what extent did the music make you feel ,GUILTY,30MonoWAV/30MonoF4.wav,1,2,2,4,,,,,1,2,18,3,0,4,4,5,,,,,,,,,2,1.8023209189996123,,,026,001,2019_May_14_0855,MusicAffectPsychophysiology2019,3.0.5,60.027144273434985,
To what extent did the music make you feel ,ACTIVE,30MonoWAV/30MonoF4.wav,1,2,2,4,,,,,1,2,18,3,0,5,5,9,,,,,,,,,2,2.1514177589997416,,,026,001,2019_May_14_0855,MusicAffectPsychophysiology2019,3.0.5,60.027144273434985,
To what extent did the music make you feel ,ALERT,30MonoWAV/30MonoF4.wav,1,2,2,4,,,,,1,2,18,3,0,6,6,8,,,,,,,,,3,1.4514411250129342,,,026,001,2019_May_14_0855,MusicAffectPsychophysiology2019,3.0.5,60.027144273434985,
To what extent did the music make you feel ,ANXIOUS ,30MonoWAV/30MonoF4.wav,1,2,2,4,,,,,1,2,18,3,0,7,7,1,,,,,,,,,4,3.168603048005025,,,026,001,2019_May_14_0855,MusicAffectPsychophysiology2019,3.0.5,60.027144273434985,
To what extent did the music make you feel ,FRUSTRATED,30MonoWAV/30MonoF4.wav,1,2,2,4,,,,,1,2,18,3,0,8,8,3,,,,,,,,,2,1.9836740769969765,,,026,001,2019_May_14_0855,MusicAffectPsychophysiology2019,3.0.5,60.027144273434985,
To what extent did the music make you feel ,TENDER,30MonoWAV/30MonoF4.wav,1,2,2,4,,,,,1,2,18,3,0,9,9,10,,,,,,,,,1,1.0014471680042334,,,026,001,2019_May_14_0855,MusicAffectPsychophysiology2019,3.0.5,60.027144273434985,
To what extent did the music make you feel ,EXCITED,30MonoWAV/30MonoF4.wav,1,2,2,4,,,,,1,2,18,3,0,10,10,7,,,,,,,,,1,0.999643653005478,,,026,001,2019_May_14_0855,MusicAffectPsychophysiology2019,3.0.5,60.027144273434985,
To what extent did the music make you feel ,ANGRY,30MonoWAV/30MonoF4.wav,1,2,2,4,,,,,1,2,18,3,0,11,11,2,,,,,,,,,3,1.7525914059951901,,,026,001,2019_May_14_0855,MusicAffectPsychophysiology2019,3.0.5,60.027144273434985,
,,30MonoWAV/30MonoF4.wav,1,2,2,4,,,,,1,2,18,3,,,,,,,,,,,,,,,,,026,001,2019_May_14_0855,MusicAffectPsychophysiology2019,3.0.5,60.027144273434985,
To what extent did the music make you feel ,HAPPY,30MonoWAV/30MonoH3.wav,2,2,1,7,,,,,1,3,19,6,0,0,0,6,,,4,2.1865396960056387,5,3.654655334990821,3,2.971869497996522,4,1.9529990339942742,,,026,001,2019_May_14_0855,MusicAffectPsychophysiology2019,3.0.5,60.027144273434985,
To what extent did the music make you feel ,SAD,30MonoWAV/30MonoH3.wav,2,2,1,7,,,,,1,3,19,6,0,1,1,0,,,,,,,,,1,0.9497874280059477,,,026,001,2019_May_14_0855,MusicAffectPsychophysiology2019,3.0.5,60.027144273434985,
To what extent did the music make you feel ,TENDER,30MonoWAV/30MonoH3.wav,2,2,1,7,,,,,1,3,19,6,0,2,2,10,,,,,,,,,1,1.3357263579964638,,,026,001,2019_May_14_0855,MusicAffectPsychophysiology2019,3.0.5,60.027144273434985,
To what extent did the music make you feel ,ASHAMED,30MonoWAV/30MonoH3.wav,2,2,1,7,,,,,1,3,19,6,0,3,3,4,,,,,,,,,1,1.4191047479980625,,,026,001,2019_May_14_0855,MusicAffectPsychophysiology2019,3.0.5,60.027144273434985,
To what extent did the music make you feel ,ALERT,30MonoWAV/30MonoH3.wav,2,2,1,7,,,,,1,3,19,6,0,4,4,8,,,,,,,,,2,1.4854475100000855,,,026,001,2019_May_14_0855,MusicAffectPsychophysiology2019,3.0.5,60.027144273434985,
To what extent did the music make you feel ,EXCITED,30MonoWAV/30MonoH3.wav,2,2,1,7,,,,,1,3,19,6,0,5,5,7,,,,,,,,,4,1.7850755639956333,,,026,001,2019_May_14_0855,MusicAffectPsychophysiology2019,3.0.5,60.027144273434985,
To what extent did the music make you feel ,ACTIVE,30MonoWAV/30MonoH3.wav,2,2,1,7,,,,,1,3,19,6,0,6,6,9,,,,,,,,,3,1.6349911709985463,,,026,001,2019_May_14_0855,MusicAffectPsychophysiology2019,3.0.5,60.027144273434985,
To what extent did the music make you feel ,GUILTY,30MonoWAV/30MonoH3.wav,2,2,1,7,,,,,1,3,19,6,0,7,7,5,,,,,,,,,1,2.1691371869965224,,,026,001,2019_May_14_0855,MusicAffectPsychophysiology2019,3.0.5,60.027144273434985,
To what extent did the music make you feel ,ANXIOUS ,30MonoWAV/30MonoH3.wav,2,2,1,7,,,,,1,3,19,6,0,8,8,1,,,,,,,,,1,0.6007408799923724,,,026,001,2019_May_14_0855,MusicAffectPsychophysiology2019,3.0.5,60.027144273434985,
To what extent did the music make you feel ,ANGRY,30MonoWAV/30MonoH3.wav,2,2,1,7,,,,,1,3,19,6,0,9,9,2,,,,,,,,,1,0.6695793939870782,,,026,001,2019_May_14_0855,MusicAffectPsychophysiology2019,3.0.5,60.027144273434985,
To what extent did the music make you feel ,SCARED,30MonoWAV/30MonoH3.wav,2,2,1,7,,,,,1,3,19,6,0,10,10,11,,,,,,,,,1,0.9184304069931386,,,026,001,2019_May_14_0855,MusicAffectPsychophysiology2019,3.0.5,60.027144273434985,
To what extent did the music make you feel ,FRUSTRATED,30MonoWAV/30MonoH3.wav,2,2,1,7,,,,,1,3,19,6,0,11,11,3,,,,,,,,,1,1.9019001759879757,,,026,001,2019_May_14_0855,MusicAffectPsychophysiology2019,3.0.5,60.027144273434985,
,,30MonoWAV/30MonoH3.wav,2,2,1,7,,,,,1,3,19,6,,,,,,,,,,,,,,,,,026,001,2019_May_14_0855,MusicAffectPsychophysiology2019,3.0.5,60.027144273434985,
To what extent did the music make you feel ,SAD,30MonoWAV/30MonoT4.wav,2,1,4,16,,,,,1,4,20,15,0,0,0,0,,,4,1.9174322390026646,5,5.3663041010004235,3,2.986407959004282,1,2.1656073040066985,,,026,001,2019_May_14_0855,MusicAffectPsychophysiology2019,3.0.5,60.027144273434985,
To what extent did the music make you feel ,ASHAMED,30MonoWAV/30MonoT4.wav,2,1,4,16,,,,,1,4,20,15,0,1,1,4,,,,,,,,,1,0.6508041010092711,,,026,001,2019_May_14_0855,MusicAffectPsychophysiology2019,3.0.5,60.027144273434985,
To what extent did the music make you feel ,EXCITED,30MonoWAV/30MonoT4.wav,2,1,4,16,,,,,1,4,20,15,0,2,2,7,,,,,,,,,3,1.6030306219909107,,,026,001,2019_May_14_0855,MusicAffectPsychophysiology2019,3.0.5,60.027144273434985,
To what extent did the music make you feel ,SCARED,30MonoWAV/30MonoT4.wav,2,1,4,16,,,,,1,4,20,15,0,3,3,11,,,,,,,,,1,0.9516902540053707,,,026,001,2019_May_14_0855,MusicAffectPsychophysiology2019,3.0.5,60.027144273434985,
To what extent did the music make you feel ,HAPPY,30MonoWAV/30MonoT4.wav,2,1,4,16,,,,,1,4,20,15,0,4,4,6,,,,,,,,,5,1.1684981110010995,,,026,001,2019_May_14_0855,MusicAffectPsychophysiology2019,3.0.5,60.027144273434985,
To what extent did the music make you feel ,TENDER,30MonoWAV/30MonoT4.wav,2,1,4,16,,,,,1,4,20,15,0,5,5,10,,,,,,,,,3,1.8032071310008178,,,026,001,2019_May_14_0855,MusicAffectPsychophysiology2019,3.0.5,60.027144273434985,
To what extent did the music make you feel ,ANGRY,30MonoWAV/30MonoT4.wav,2,1,4,16,,,,,1,4,20,15,0,6,6,2,,,,,,,,,1,1.8842697930085706,,,026,001,2019_May_14_0855,MusicAffectPsychophysiology2019,3.0.5,60.027144273434985,
To what extent did the music make you feel ,ANXIOUS ,30MonoWAV/30MonoT4.wav,2,1,4,16,,,,,1,4,20,15,0,7,7,1,,,,,,,,,1,1.1351111300027696,,,026,001,2019_May_14_0855,MusicAffectPsychophysiology2019,3.0.5,60.027144273434985,
To what extent did the music make you feel ,FRUSTRATED,30MonoWAV/30MonoT4.wav,2,1,4,16,,,,,1,4,20,15,0,8,8,3,,,,,,,,,1,0.735042127998895,,,026,001,2019_May_14_0855,MusicAffectPsychophysiology2019,3.0.5,60.027144273434985,
To what extent did the music make you feel ,ACTIVE,30MonoWAV/30MonoT4.wav,2,1,4,16,,,,,1,4,20,15,0,9,9,9,,,,,,,,,3,2.206872367998585,,,026,001,2019_May_14_0855,MusicAffectPsychophysiology2019,3.0.5,60.027144273434985,
To what extent did the music make you feel ,ALERT,30MonoWAV/30MonoT4.wav,2,1,4,16,,,,,1,4,20,15,0,10,10,8,,,,,,,,,2,1.9376088279968826,,,026,001,2019_May_14_0855,MusicAffectPsychophysiology2019,3.0.5,60.027144273434985,
To what extent did the music make you feel ,GUILTY,30MonoWAV/30MonoT4.wav,2,1,4,16,,,,,1,4,20,15,0,11,11,5,,,,,,,,,1,1.169317276988295,,,026,001,2019_May_14_0855,MusicAffectPsychophysiology2019,3.0.5,60.027144273434985,
,,30MonoWAV/30MonoT4.wav,2,1,4,16,,,,,1,4,20,15,,,,,,,,,,,,,,,,,026,001,2019_May_14_0855,MusicAffectPsychophysiology2019,3.0.5,60.027144273434985,
To what extent did the music make you feel ,TENDER,30MonoWAV/30MonoH1.wav,2,2,1,5,,,,,1,5,21,4,0,0,0,10,,,3,6.152184111997485,4,1.9498976760078222,3,3.0159373139904346,2,6.6353852989996085,,,026,001,2019_May_14_0855,MusicAffectPsychophysiology2019,3.0.5,60.027144273434985,
To what extent did the music make you feel ,ANXIOUS ,30MonoWAV/30MonoH1.wav,2,2,1,5,,,,,1,5,21,4,0,1,1,1,,,,,,,,,1,0.901558373006992,,,026,001,2019_May_14_0855,MusicAffectPsychophysiology2019,3.0.5,60.027144273434985,
To what extent did the music make you feel ,ACTIVE,30MonoWAV/30MonoH1.wav,2,2,1,5,,,,,1,5,21,4,0,2,2,9,,,,,,,,,4,1.439685429999372,,,026,001,2019_May_14_0855,MusicAffectPsychophysiology2019,3.0.5,60.027144273434985,
To what extent did the music make you feel ,ANGRY,30MonoWAV/30MonoH1.wav,2,2,1,5,,,,,1,5,21,4,0,3,3,2,,,,,,,,,1,1.2525640439998824,,,026,001,2019_May_14_0855,MusicAffectPsychophysiology2019,3.0.5,60.027144273434985,
To what extent did the music make you feel ,SAD,30MonoWAV/30MonoH1.wav,2,2,1,5,,,,,1,5,21,4,0,4,4,0,,,,,,,,,1,2.9712198180059204,,,026,001,2019_May_14_0855,MusicAffectPsychophysiology2019,3.0.5,60.027144273434985,
To what extent did the music make you feel ,GUILTY,30MonoWAV/30MonoH1.wav,2,2,1,5,,,,,1,5,21,4,0,5,5,5,,,,,,,,,1,0.8507986870099558,,,026,001,2019_May_14_0855,MusicAffectPsychophysiology2019,3.0.5,60.027144273434985,
To what extent did the music make you feel ,FRUSTRATED,30MonoWAV/30MonoH1.wav,2,2,1,5,,,,,1,5,21,4,0,6,6,3,,,,,,,,,1,0.6692393949924735,,,026,001,2019_May_14_0855,MusicAffectPsychophysiology2019,3.0.5,60.027144273434985,
To what extent did the music make you feel ,HAPPY,30MonoWAV/30MonoH1.wav,2,2,1,5,,,,,1,5,21,4,0,7,7,6,,,,,,,,,4,1.373331757989945,,,026,001,2019_May_14_0855,MusicAffectPsychophysiology2019,3.0.5,60.027144273434985,
To what extent did the music make you feel ,ASHAMED,30MonoWAV/30MonoH1.wav,2,2,1,5,,,,,1,5,21,4,0,8,8,4,,,,,,,,,1,1.2844367649959167,,,026,001,2019_May_14_0855,MusicAffectPsychophysiology2019,3.0.5,60.027144273434985,
To what extent did the music make you feel ,ALERT,30MonoWAV/30MonoH1.wav,2,2,1,5,,,,,1,5,21,4,0,9,9,8,,,,,,,,,2,1.43716062400199,,,026,001,2019_May_14_0855,MusicAffectPsychophysiology2019,3.0.5,60.027144273434985,
To what extent did the music make you feel ,EXCITED,30MonoWAV/30MonoH1.wav,2,2,1,5,,,,,1,5,21,4,0,10,10,7,,,,,,,,,5,2.1851186279964168,,,026,001,2019_May_14_0855,MusicAffectPsychophysiology2019,3.0.5,60.027144273434985,
To what extent did the music make you feel ,SCARED,30MonoWAV/30MonoH1.wav,2,2,1,5,,,,,1,5,21,4,0,11,11,11,,,,,,,,,1,1.5682924870052375,,,026,001,2019_May_14_0855,MusicAffectPsychophysiology2019,3.0.5,60.027144273434985,
,,30MonoWAV/30MonoH1.wav,2,2,1,5,,,,,1,5,21,4,,,,,,,,,,,,,,,,,026,001,2019_May_14_0855,MusicAffectPsychophysiology2019,3.0.5,60.027144273434985,
To what extent did the music make you feel ,ASHAMED,30MonoWAV/30MonoS4.wav,1,1,3,12,,,,,1,6,22,11,0,0,0,4,,,1,3.158719450002536,1,3.1853884140000446,4,3.073212524992414,2,2.937863908999134,,,026,001,2019_May_14_0855,MusicAffectPsychophysiology2019,3.0.5,60.027144273434985,
To what extent did the music make you feel ,SAD,30MonoWAV/30MonoS4.wav,1,1,3,12,,,,,1,6,22,11,0,1,1,0,,,,,,,,,4,1.937239860999398,,,026,001,2019_May_14_0855,MusicAffectPsychophysiology2019,3.0.5,60.027144273434985,
To what extent did the music make you feel ,HAPPY,30MonoWAV/30MonoS4.wav,1,1,3,12,,,,,1,6,22,11,0,2,2,6,,,,,,,,,1,1.590164877998177,,,026,001,2019_May_14_0855,MusicAffectPsychophysiology2019,3.0.5,60.027144273434985,
To what extent did the music make you feel ,ACTIVE,30MonoWAV/30MonoS4.wav,1,1,3,12,,,,,1,6,22,11,0,3,3,9,,,,,,,,,2,4.951316335995216,,,026,001,2019_May_14_0855,MusicAffectPsychophysiology2019,3.0.5,60.027144273434985,
To what extent did the music make you feel ,TENDER,30MonoWAV/30MonoS4.wav,1,1,3,12,,,,,1,6,22,11,0,4,4,10,,,,,,,,,2,2.819041434006067,,,026,001,2019_May_14_0855,MusicAffectPsychophysiology2019,3.0.5,60.027144273434985,
To what extent did the music make you feel ,GUILTY,30MonoWAV/30MonoS4.wav,1,1,3,12,,,,,1,6,22,11,0,5,5,5,,,,,,,,,3,5.318618018005509,,,026,001,2019_May_14_0855,MusicAffectPsychophysiology2019,3.0.5,60.027144273434985,
To what extent did the music make you feel ,ANGRY,30MonoWAV/30MonoS4.wav,1,1,3,12,,,,,1,6,22,11,0,6,6,2,,,,,,,,,2,2.2524575339921284,,,026,001,2019_May_14_0855,MusicAffectPsychophysiology2019,3.0.5,60.027144273434985,
To what extent did the music make you feel ,SCARED,30MonoWAV/30MonoS4.wav,1,1,3,12,,,,,1,6,22,11,0,7,7,11,,,,,,,,,1,1.700363626005128,,,026,001,2019_May_14_0855,MusicAffectPsychophysiology2019,3.0.5,60.027144273434985,
To what extent did the music make you feel ,ALERT,30MonoWAV/30MonoS4.wav,1,1,3,12,,,,,1,6,22,11,0,8,8,8,,,,,,,,,1,1.4859384010051144,,,026,001,2019_May_14_0855,MusicAffectPsychophysiology2019,3.0.5,60.027144273434985,
To what extent did the music make you feel ,ANXIOUS ,30MonoWAV/30MonoS4.wav,1,1,3,12,,,,,1,6,22,11,0,9,9,1,,,,,,,,,1,2.4348324250022415,,,026,001,2019_May_14_0855,MusicAffectPsychophysiology2019,3.0.5,60.027144273434985,
To what extent did the music make you feel ,FRUSTRATED,30MonoWAV/30MonoS4.wav,1,1,3,12,,,,,1,6,22,11,0,10,10,3,,,,,,,,,3,1.9354749860067386,,,026,001,2019_May_14_0855,MusicAffectPsychophysiology2019,3.0.5,60.027144273434985,
To what extent did the music make you feel ,EXCITED,30MonoWAV/30MonoS4.wav,1,1,3,12,,,,,1,6,22,11,0,11,11,7,,,,,,,,,1,2.6679652169987094,,,026,001,2019_May_14_0855,MusicAffectPsychophysiology2019,3.0.5,60.027144273434985,
,,30MonoWAV/30MonoS4.wav,1,1,3,12,,,,,1,6,22,11,,,,,,,,,,,,,,,,,026,001,2019_May_14_0855,MusicAffectPsychophysiology2019,3.0.5,60.027144273434985,
To what extent did the music make you feel ,ANXIOUS ,30MonoWAV/30MonoS1.wav,1,1,3,9,,,,,1,7,23,8,0,0,0,1,,,1,6.986208734000684,2,1.5850521320098778,3,2.3026356239861343,2,2.238212370997644,,,026,001,2019_May_14_0855,MusicAffectPsychophysiology2019,3.0.5,60.027144273434985,
To what extent did the music make you feel ,ANGRY,30MonoWAV/30MonoS1.wav,1,1,3,9,,,,,1,7,23,8,0,1,1,2,,,,,,,,,1,1.4522438620042522,,,026,001,2019_May_14_0855,MusicAffectPsychophysiology2019,3.0.5,60.027144273434985,
To what extent did the music make you feel ,HAPPY,30MonoWAV/30MonoS1.wav,1,1,3,9,,,,,1,7,23,8,0,2,2,6,,,,,,,,,1,1.685447394993389,,,026,001,2019_May_14_0855,MusicAffectPsychophysiology2019,3.0.5,60.027144273434985,
To what extent did the music make you feel ,SAD,30MonoWAV/30MonoS1.wav,1,1,3,9,,,,,1,7,23,8,0,3,3,0,,,,,,,,,4,2.1686838530004025,,,026,001,2019_May_14_0855,MusicAffectPsychophysiology2019,3.0.5,60.027144273434985,
To what extent did the music make you feel ,ASHAMED,30MonoWAV/30MonoS1.wav,1,1,3,9,,,,,1,7,23,8,0,4,4,4,,,,,,,,,2,1.6682806460012216,,,026,001,2019_May_14_0855,MusicAffectPsychophysiology2019,3.0.5,60.027144273434985,
To what extent did the music make you feel ,SCARED,30MonoWAV/30MonoS1.wav,1,1,3,9,,,,,1,7,23,8,0,5,5,11,,,,,,,,,1,1.635044665003079,,,026,001,2019_May_14_0855,MusicAffectPsychophysiology2019,3.0.5,60.027144273434985,
To what extent did the music make you feel ,ACTIVE,30MonoWAV/30MonoS1.wav,1,1,3,9,,,,,1,7,23,8,0,6,6,9,,,,,,,,,2,1.6350151780061424,,,026,001,2019_May_14_0855,MusicAffectPsychophysiology2019,3.0.5,60.027144273434985,
To what extent did the music make you feel ,EXCITED,30MonoWAV/30MonoS1.wav,1,1,3,9,,,,,1,7,23,8,0,7,7,7,,,,,,,,,1,1.2852021980070276,,,026,001,2019_May_14_0855,MusicAffectPsychophysiology2019,3.0.5,60.027144273434985,
To what extent did the music make you feel ,GUILTY,30MonoWAV/30MonoS1.wav,1,1,3,9,,,,,1,7,23,8,0,8,8,5,,,,,,,,,3,1.3021681719983462,,,026,001,2019_May_14_0855,MusicAffectPsychophysiology2019,3.0.5,60.027144273434985,
To what extent did the music make you feel ,TENDER,30MonoWAV/30MonoS1.wav,1,1,3,9,,,,,1,7,23,8,0,9,9,10,,,,,,,,,1,0.9524624219920952,,,026,001,2019_May_14_0855,MusicAffectPsychophysiology2019,3.0.5,60.027144273434985,
To what extent did the music make you feel ,FRUSTRATED,30MonoWAV/30MonoS1.wav,1,1,3,9,,,,,1,7,23,8,0,10,10,3,,,,,,,,,1,1.8013839440100128,,,026,001,2019_May_14_0855,MusicAffectPsychophysiology2019,3.0.5,60.027144273434985,
To what extent did the music make you feel ,ALERT,30MonoWAV/30MonoS1.wav,1,1,3,9,,,,,1,7,23,8,0,11,11,8,,,,,,,,,1,1.6021681589918444,,,026,001,2019_May_14_0855,MusicAffectPsychophysiology2019,3.0.5,60.027144273434985,
,,30MonoWAV/30MonoS1.wav,1,1,3,9,,,,,1,7,23,8,,,,,,,,,,,,,,,,,026,001,2019_May_14_0855,MusicAffectPsychophysiology2019,3.0.5,60.027144273434985,
To what extent did the music make you feel ,SCARED,30MonoWAV/30MonoT1.wav,2,1,4,13,,,,,1,8,24,12,0,0,0,11,,,2,3.2358406459970865,3,1.7531876689899946,2,1.9359948019991862,1,1.3191150009952253,,,026,001,2019_May_14_0855,MusicAffectPsychophysiology2019,3.0.5,60.027144273434985,
To what extent did the music make you feel ,ANXIOUS ,30MonoWAV/30MonoT1.wav,2,1,4,13,,,,,1,8,24,12,0,1,1,1,,,,,,,,,1,0.9525848290068097,,,026,001,2019_May_14_0855,MusicAffectPsychophysiology2019,3.0.5,60.027144273434985,
To what extent did the music make you feel ,EXCITED,30MonoWAV/30MonoT1.wav,2,1,4,13,,,,,1,8,24,12,0,2,2,7,,,,,,,,,2,1.4678605440130923,,,026,001,2019_May_14_0855,MusicAffectPsychophysiology2019,3.0.5,60.027144273434985,
To what extent did the music make you feel ,GUILTY,30MonoWAV/30MonoT1.wav,2,1,4,13,,,,,1,8,24,12,0,3,3,5,,,,,,,,,1,3.4008199100062484,,,026,001,2019_May_14_0855,MusicAffectPsychophysiology2019,3.0.5,60.027144273434985,
To what extent did the music make you feel ,ANGRY,30MonoWAV/30MonoT1.wav,2,1,4,13,,,,,1,8,24,12,0,4,4,2,,,,,,,,,1,1.2849015160027193,,,026,001,2019_May_14_0855,MusicAffectPsychophysiology2019,3.0.5,60.027144273434985,
To what extent did the music make you feel ,ASHAMED,30MonoWAV/30MonoT1.wav,2,1,4,13,,,,,1,8,24,12,0,5,5,4,,,,,,,,,1,1.8699723869940499,,,026,001,2019_May_14_0855,MusicAffectPsychophysiology2019,3.0.5,60.027144273434985,
To what extent did the music make you feel ,ACTIVE,30MonoWAV/30MonoT1.wav,2,1,4,13,,,,,1,8,24,12,0,6,6,9,,,,,,,,,2,1.4186346309870714,,,026,001,2019_May_14_0855,MusicAffectPsychophysiology2019,3.0.5,60.027144273434985,
To what extent did the music make you feel ,ALERT,30MonoWAV/30MonoT1.wav,2,1,4,13,,,,,1,8,24,12,0,7,7,8,,,,,,,,,1,1.0014764929946978,,,026,001,2019_May_14_0855,MusicAffectPsychophysiology2019,3.0.5,60.027144273434985,
To what extent did the music make you feel ,HAPPY,30MonoWAV/30MonoT1.wav,2,1,4,13,,,,,1,8,24,12,0,8,8,6,,,,,,,,,3,2.7177819190110313,,,026,001,2019_May_14_0855,MusicAffectPsychophysiology2019,3.0.5,60.027144273434985,
To what extent did the music make you feel ,TENDER,30MonoWAV/30MonoT1.wav,2,1,4,13,,,,,1,8,24,12,0,9,9,10,,,,,,,,,5,1.286622517000069,,,026,001,2019_May_14_0855,MusicAffectPsychophysiology2019,3.0.5,60.027144273434985,
To what extent did the music make you feel ,SAD,30MonoWAV/30MonoT1.wav,2,1,4,13,,,,,1,8,24,12,0,10,10,0,,,,,,,,,1,1.2357153729972197,,,026,001,2019_May_14_0855,MusicAffectPsychophysiology2019,3.0.5,60.027144273434985,
To what extent did the music make you feel ,FRUSTRATED,30MonoWAV/30MonoT1.wav,2,1,4,13,,,,,1,8,24,12,0,11,11,3,,,,,,,,,1,2.7217691259866115,,,026,001,2019_May_14_0855,MusicAffectPsychophysiology2019,3.0.5,60.027144273434985,
,,30MonoWAV/30MonoT1.wav,2,1,4,13,,,,,1,8,24,12,,,,,,,,,,,,,,,,,026,001,2019_May_14_0855,MusicAffectPsychophysiology2019,3.0.5,60.027144273434985,
To what extent did the music make you feel ,HAPPY,30MonoWAV/30MonoF3.wav,1,2,2,3,,,,,1,9,25,2,0,0,0,6,,,2,5.568220018991269,1,7.400930183997843,1,2.4152516100002686,1,5.9188405699969735,,,026,001,2019_May_14_0855,MusicAffectPsychophysiology2019,3.0.5,60.027144273434985,
To what extent did the music make you feel ,EXCITED,30MonoWAV/30MonoF3.wav,1,2,2,3,,,,,1,9,25,2,0,1,1,7,,,,,,,,,2,1.2514250990061555,,,026,001,2019_May_14_0855,MusicAffectPsychophysiology2019,3.0.5,60.027144273434985,
To what extent did the music make you feel ,FRUSTRATED,30MonoWAV/30MonoF3.wav,1,2,2,3,,,,,1,9,25,2,0,2,2,3,,,,,,,,,3,2.101642672001617,,,026,001,2019_May_14_0855,MusicAffectPsychophysiology2019,3.0.5,60.027144273434985,
To what extent did the music make you feel ,ANXIOUS ,30MonoWAV/30MonoF3.wav,1,2,2,3,,,,,1,9,25,2,0,3,3,1,,,,,,,,,3,1.6015062450023834,,,026,001,2019_May_14_0855,MusicAffectPsychophysiology2019,3.0.5,60.027144273434985,
To what extent did the music make you feel ,ALERT,30MonoWAV/30MonoF3.wav,1,2,2,3,,,,,1,9,25,2,0,4,4,8,,,,,,,,,4,1.4345277910033474,,,026,001,2019_May_14_0855,MusicAffectPsychophysiology2019,3.0.5,60.027144273434985,
To what extent did the music make you feel ,SCARED,30MonoWAV/30MonoF3.wav,1,2,2,3,,,,,1,9,25,2,0,5,5,11,,,,,,,,,2,2.868630930999643,,,026,001,2019_May_14_0855,MusicAffectPsychophysiology2019,3.0.5,60.027144273434985,
To what extent did the music make you feel ,ACTIVE,30MonoWAV/30MonoF3.wav,1,2,2,3,,,,,1,9,25,2,0,6,6,9,,,,,,,,,2,3.0185666019970085,,,026,001,2019_May_14_0855,MusicAffectPsychophysiology2019,3.0.5,60.027144273434985,
To what extent did the music make you feel ,TENDER,30MonoWAV/30MonoF3.wav,1,2,2,3,,,,,1,9,25,2,0,7,7,10,,,,,,,,,1,1.152271978004137,,,026,001,2019_May_14_0855,MusicAffectPsychophysiology2019,3.0.5,60.027144273434985,
To what extent did the music make you feel ,ASHAMED,30MonoWAV/30MonoF3.wav,1,2,2,3,,,,,1,9,25,2,0,8,8,4,,,,,,,,,1,1.1852212910016533,,,026,001,2019_May_14_0855,MusicAffectPsychophysiology2019,3.0.5,60.027144273434985,
To what extent did the music make you feel ,ANGRY,30MonoWAV/30MonoF3.wav,1,2,2,3,,,,,1,9,25,2,0,9,9,2,,,,,,,,,1,1.50309062100132,,,026,001,2019_May_14_0855,MusicAffectPsychophysiology2019,3.0.5,60.027144273434985,
To what extent did the music make you feel ,GUILTY,30MonoWAV/30MonoF3.wav,1,2,2,3,,,,,1,9,25,2,0,10,10,5,,,,,,,,,1,1.519422591998591,,,026,001,2019_May_14_0855,MusicAffectPsychophysiology2019,3.0.5,60.027144273434985,
To what extent did the music make you feel ,SAD,30MonoWAV/30MonoF3.wav,1,2,2,3,,,,,1,9,25,2,0,11,11,0,,,,,,,,,1,1.6834351959987544,,,026,001,2019_May_14_0855,MusicAffectPsychophysiology2019,3.0.5,60.027144273434985,
,,30MonoWAV/30MonoF3.wav,1,2,2,3,,,,,1,9,25,2,,,,,,,,,,,,,,,,,026,001,2019_May_14_0855,MusicAffectPsychophysiology2019,3.0.5,60.027144273434985,
To what extent did the music make you feel ,FRUSTRATED,30MonoWAV/30MonoH2.wav,2,2,1,6,,,,,1,10,26,5,0,0,0,3,,,3,2.668130136007676,3,1.9180300729931332,2,1.5012669139978243,1,1.876128121992224,,,026,001,2019_May_14_0855,MusicAffectPsychophysiology2019,3.0.5,60.027144273434985,
To what extent did the music make you feel ,ALERT,30MonoWAV/30MonoH2.wav,2,2,1,6,,,,,1,10,26,5,0,1,1,8,,,,,,,,,2,1.3006184089899762,,,026,001,2019_May_14_0855,MusicAffectPsychophysiology2019,3.0.5,60.027144273434985,
To what extent did the music make you feel ,HAPPY,30MonoWAV/30MonoH2.wav,2,2,1,6,,,,,1,10,26,5,0,2,2,6,,,,,,,,,4,1.517910799011588,,,026,001,2019_May_14_0855,MusicAffectPsychophysiology2019,3.0.5,60.027144273434985,
To what extent did the music make you feel ,GUILTY,30MonoWAV/30MonoH2.wav,2,2,1,6,,,,,1,10,26,5,0,3,3,5,,,,,,,,,1,1.2343625289940974,,,026,001,2019_May_14_0855,MusicAffectPsychophysiology2019,3.0.5,60.027144273434985,
To what extent did the music make you feel ,SAD,30MonoWAV/30MonoH2.wav,2,2,1,6,,,,,1,10,26,5,0,4,4,0,,,,,,,,,1,0.9517186969897011,,,026,001,2019_May_14_0855,MusicAffectPsychophysiology2019,3.0.5,60.027144273434985,
To what extent did the music make you feel ,SCARED,30MonoWAV/30MonoH2.wav,2,2,1,6,,,,,1,10,26,5,0,5,5,11,,,,,,,,,1,0.9691394219989888,,,026,001,2019_May_14_0855,MusicAffectPsychophysiology2019,3.0.5,60.027144273434985,
To what extent did the music make you feel ,ANGRY,30MonoWAV/30MonoH2.wav,2,2,1,6,,,,,1,10,26,5,0,6,6,2,,,,,,,,,1,2.3018116250023013,,,026,001,2019_May_14_0855,MusicAffectPsychophysiology2019,3.0.5,60.027144273434985,
To what extent did the music make you feel ,ACTIVE,30MonoWAV/30MonoH2.wav,2,2,1,6,,,,,1,10,26,5,0,7,7,9,,,,,,,,,3,2.551265126996441,,,026,001,2019_May_14_0855,MusicAffectPsychophysiology2019,3.0.5,60.027144273434985,
To what extent did the music make you feel ,EXCITED,30MonoWAV/30MonoH2.wav,2,2,1,6,,,,,1,10,26,5,0,8,8,7,,,,,,,,,4,1.951235476997681,,,026,001,2019_May_14_0855,MusicAffectPsychophysiology2019,3.0.5,60.027144273434985,
To what extent did the music make you feel ,ANXIOUS ,30MonoWAV/30MonoH2.wav,2,2,1,6,,,,,1,10,26,5,0,9,9,1,,,,,,,,,1,1.151469377000467,,,026,001,2019_May_14_0855,MusicAffectPsychophysiology2019,3.0.5,60.027144273434985,
To what extent did the music make you feel ,TENDER,30MonoWAV/30MonoH2.wav,2,2,1,6,,,,,1,10,26,5,0,10,10,10,,,,,,,,,1,1.3355769870104268,,,026,001,2019_May_14_0855,MusicAffectPsychophysiology2019,3.0.5,60.027144273434985,
To what extent did the music make you feel ,ASHAMED,30MonoWAV/30MonoH2.wav,2,2,1,6,,,,,1,10,26,5,0,11,11,4,,,,,,,,,1,0.9003167560003931,,,026,001,2019_May_14_0855,MusicAffectPsychophysiology2019,3.0.5,60.027144273434985,
,,30MonoWAV/30MonoH2.wav,2,2,1,6,,,,,1,10,26,5,,,,,,,,,,,,,,,,,026,001,2019_May_14_0855,MusicAffectPsychophysiology2019,3.0.5,60.027144273434985,
To what extent did the music make you feel ,EXCITED,30MonoWAV/30MonoT2.wav,2,1,4,14,,,,,1,11,27,13,0,0,0,7,,,2,6.951350472998456,4,1.3857847100007348,4,1.8023832800099626,2,1.8012996720062802,,,026,001,2019_May_14_0855,MusicAffectPsychophysiology2019,3.0.5,60.027144273434985,
To what extent did the music make you feel ,HAPPY,30MonoWAV/30MonoT2.wav,2,1,4,14,,,,,1,11,27,13,0,1,1,6,,,,,,,,,5,1.3170257229940034,,,026,001,2019_May_14_0855,MusicAffectPsychophysiology2019,3.0.5,60.027144273434985,
To what extent did the music make you feel ,SCARED,30MonoWAV/30MonoT2.wav,2,1,4,14,,,,,1,11,27,13,0,2,2,11,,,,,,,,,1,1.0024238250043709,,,026,001,2019_May_14_0855,MusicAffectPsychophysiology2019,3.0.5,60.027144273434985,
To what extent did the music make you feel ,FRUSTRATED,30MonoWAV/30MonoT2.wav,2,1,4,14,,,,,1,11,27,13,0,3,3,3,,,,,,,,,1,0.8013987029989948,,,026,001,2019_May_14_0855,MusicAffectPsychophysiology2019,3.0.5,60.027144273434985,
To what extent did the music make you feel ,ACTIVE,30MonoWAV/30MonoT2.wav,2,1,4,14,,,,,1,11,27,13,0,4,4,9,,,,,,,,,3,1.6001036660018144,,,026,001,2019_May_14_0855,MusicAffectPsychophysiology2019,3.0.5,60.027144273434985,
To what extent did the music make you feel ,ALERT,30MonoWAV/30MonoT2.wav,2,1,4,14,,,,,1,11,27,13,0,5,5,8,,,,,,,,,1,1.1511210009921342,,,026,001,2019_May_14_0855,MusicAffectPsychophysiology2019,3.0.5,60.027144273434985,
To what extent did the music make you feel ,ASHAMED,30MonoWAV/30MonoT2.wav,2,1,4,14,,,,,1,11,27,13,0,6,6,4,,,,,,,,,1,1.5839783980045468,,,026,001,2019_May_14_0855,MusicAffectPsychophysiology2019,3.0.5,60.027144273434985,
To what extent did the music make you feel ,TENDER,30MonoWAV/30MonoT2.wav,2,1,4,14,,,,,1,11,27,13,0,7,7,10,,,,,,,,,5,2.4854626419983106,,,026,001,2019_May_14_0855,MusicAffectPsychophysiology2019,3.0.5,60.027144273434985,
To what extent did the music make you feel ,GUILTY,30MonoWAV/30MonoT2.wav,2,1,4,14,,,,,1,11,27,13,0,8,8,5,,,,,,,,,1,1.3352721990086138,,,026,001,2019_May_14_0855,MusicAffectPsychophysiology2019,3.0.5,60.027144273434985,
To what extent did the music make you feel ,SAD,30MonoWAV/30MonoT2.wav,2,1,4,14,,,,,1,11,27,13,0,9,9,0,,,,,,,,,1,2.1352448249963345,,,026,001,2019_May_14_0855,MusicAffectPsychophysiology2019,3.0.5,60.027144273434985,
To what extent did the music make you feel ,ANXIOUS ,30MonoWAV/30MonoT2.wav,2,1,4,14,,,,,1,11,27,13,0,10,10,1,,,,,,,,,1,1.6689674149965867,,,026,001,2019_May_14_0855,MusicAffectPsychophysiology2019,3.0.5,60.027144273434985,
To what extent did the music make you feel ,ANGRY,30MonoWAV/30MonoT2.wav,2,1,4,14,,,,,1,11,27,13,0,11,11,2,,,,,,,,,1,0.5691401649964973,,,026,001,2019_May_14_0855,MusicAffectPsychophysiology2019,3.0.5,60.027144273434985,
,,30MonoWAV/30MonoT2.wav,2,1,4,14,,,,,1,11,27,13,,,,,,,,,,,,,,,,,026,001,2019_May_14_0855,MusicAffectPsychophysiology2019,3.0.5,60.027144273434985,
To what extent did the music make you feel ,ACTIVE,30MonoWAV/30MonoS2.wav,1,1,3,10,,,,,1,12,28,9,0,0,0,9,,,2,2.252747789010755,1,1.4185211150033865,3,2.3185831859882455,1,1.9840778710058657,,,026,001,2019_May_14_0855,MusicAffectPsychophysiology2019,3.0.5,60.027144273434985,
To what extent did the music make you feel ,ANGRY,30MonoWAV/30MonoS2.wav,1,1,3,10,,,,,1,12,28,9,0,1,1,2,,,,,,,,,2,1.28494804300135,,,026,001,2019_May_14_0855,MusicAffectPsychophysiology2019,3.0.5,60.027144273434985,
To what extent did the music make you feel ,HAPPY,30MonoWAV/30MonoS2.wav,1,1,3,10,,,,,1,12,28,9,0,2,2,6,,,,,,,,,1,0.984988345997408,,,026,001,2019_May_14_0855,MusicAffectPsychophysiology2019,3.0.5,60.027144273434985,
To what extent did the music make you feel ,ASHAMED,30MonoWAV/30MonoS2.wav,1,1,3,10,,,,,1,12,28,9,0,3,3,4,,,,,,,,,4,1.3522429820004618,,,026,001,2019_May_14_0855,MusicAffectPsychophysiology2019,3.0.5,60.027144273434985,
To what extent did the music make you feel ,EXCITED,30MonoWAV/30MonoS2.wav,1,1,3,10,,,,,1,12,28,9,0,4,4,7,,,,,,,,,1,1.5828265979944263,,,026,001,2019_May_14_0855,MusicAffectPsychophysiology2019,3.0.5,60.027144273434985,
To what extent did the music make you feel ,SCARED,30MonoWAV/30MonoS2.wav,1,1,3,10,,,,,1,12,28,9,0,5,5,11,,,,,,,,,3,1.2180493769992609,,,026,001,2019_May_14_0855,MusicAffectPsychophysiology2019,3.0.5,60.027144273434985,
To what extent did the music make you feel ,ALERT,30MonoWAV/30MonoS2.wav,1,1,3,10,,,,,1,12,28,9,0,6,6,8,,,,,,,,,1,2.58516371800215,,,026,001,2019_May_14_0855,MusicAffectPsychophysiology2019,3.0.5,60.027144273434985,
To what extent did the music make you feel ,SAD,30MonoWAV/30MonoS2.wav,1,1,3,10,,,,,1,12,28,9,0,7,7,0,,,,,,,,,3,3.117222335000406,,,026,001,2019_May_14_0855,MusicAffectPsychophysiology2019,3.0.5,60.027144273434985,
To what extent did the music make you feel ,GUILTY,30MonoWAV/30MonoS2.wav,1,1,3,10,,,,,1,12,28,9,0,8,8,5,,,,,,,,,4,1.4346522650012048,,,026,001,2019_May_14_0855,MusicAffectPsychophysiology2019,3.0.5,60.027144273434985,
To what extent did the music make you feel ,ANXIOUS ,30MonoWAV/30MonoS2.wav,1,1,3,10,,,,,1,12,28,9,0,9,9,1,,,,,,,,,2,1.884886098006973,,,026,001,2019_May_14_0855,MusicAffectPsychophysiology2019,3.0.5,60.027144273434985,
To what extent did the music make you feel ,FRUSTRATED,30MonoWAV/30MonoS2.wav,1,1,3,10,,,,,1,12,28,9,0,10,10,3,,,,,,,,,3,1.8244678000046406,,,026,001,2019_May_14_0855,MusicAffectPsychophysiology2019,3.0.5,60.027144273434985,
To what extent did the music make you feel ,TENDER,30MonoWAV/30MonoS2.wav,1,1,3,10,,,,,1,12,28,9,0,11,11,10,,,,,,,,,1,0.917531240003882,,,026,001,2019_May_14_0855,MusicAffectPsychophysiology2019,3.0.5,60.027144273434985,
,,30MonoWAV/30MonoS2.wav,1,1,3,10,,,,,1,12,28,9,,,,,,,,,,,,,,,,,026,001,2019_May_14_0855,MusicAffectPsychophysiology2019,3.0.5,60.027144273434985,
To what extent did the music make you feel ,ANGRY,30MonoWAV/30MonoS3.wav,1,1,3,11,,,,,1,13,29,10,0,0,0,2,,,2,2.6185960010043345,2,1.902075074001914,3,2.0358281470107613,2,1.5681230690097436,,,026,001,2019_May_14_0855,MusicAffectPsychophysiology2019,3.0.5,60.027144273434985,
To what extent did the music make you feel ,TENDER,30MonoWAV/30MonoS3.wav,1,1,3,11,,,,,1,13,29,10,0,1,1,10,,,,,,,,,1,1.3191095500078518,,,026,001,2019_May_14_0855,MusicAffectPsychophysiology2019,3.0.5,60.027144273434985,
To what extent did the music make you feel ,GUILTY,30MonoWAV/30MonoS3.wav,1,1,3,11,,,,,1,13,29,10,0,2,2,5,,,,,,,,,3,1.836140935003641,,,026,001,2019_May_14_0855,MusicAffectPsychophysiology2019,3.0.5,60.027144273434985,
To what extent did the music make you feel ,FRUSTRATED,30MonoWAV/30MonoS3.wav,1,1,3,11,,,,,1,13,29,10,0,3,3,3,,,,,,,,,4,2.1518384590017376,,,026,001,2019_May_14_0855,MusicAffectPsychophysiology2019,3.0.5,60.027144273434985,
To what extent did the music make you feel ,HAPPY,30MonoWAV/30MonoS3.wav,1,1,3,11,,,,,1,13,29,10,0,4,4,6,,,,,,,,,1,1.2181595400033984,,,026,001,2019_May_14_0855,MusicAffectPsychophysiology2019,3.0.5,60.027144273434985,
To what extent did the music make you feel ,ASHAMED,30MonoWAV/30MonoS3.wav,1,1,3,11,,,,,1,13,29,10,0,5,5,4,,,,,,,,,3,3.5845561280002585,,,026,001,2019_May_14_0855,MusicAffectPsychophysiology2019,3.0.5,60.027144273434985,
To what extent did the music make you feel ,ANXIOUS ,30MonoWAV/30MonoS3.wav,1,1,3,11,,,,,1,13,29,10,0,6,6,1,,,,,,,,,2,1.3195104009937495,,,026,001,2019_May_14_0855,MusicAffectPsychophysiology2019,3.0.5,60.027144273434985,
To what extent did the music make you feel ,EXCITED,30MonoWAV/30MonoS3.wav,1,1,3,11,,,,,1,13,29,10,0,7,7,7,,,,,,,,,1,1.085396998008946,,,026,001,2019_May_14_0855,MusicAffectPsychophysiology2019,3.0.5,60.027144273434985,
To what extent did the music make you feel ,SAD,30MonoWAV/30MonoS3.wav,1,1,3,11,,,,,1,13,29,10,0,8,8,0,,,,,,,,,3,2.034099551005056,,,026,001,2019_May_14_0855,MusicAffectPsychophysiology2019,3.0.5,60.027144273434985,
To what extent did the music make you feel ,ALERT,30MonoWAV/30MonoS3.wav,1,1,3,11,,,,,1,13,29,10,0,9,9,8,,,,,,,,,2,2.8513253459968837,,,026,001,2019_May_14_0855,MusicAffectPsychophysiology2019,3.0.5,60.027144273434985,
To what extent did the music make you feel ,ACTIVE,30MonoWAV/30MonoS3.wav,1,1,3,11,,,,,1,13,29,10,0,10,10,9,,,,,,,,,1,1.3179437669896288,,,026,001,2019_May_14_0855,MusicAffectPsychophysiology2019,3.0.5,60.027144273434985,
To what extent did the music make you feel ,SCARED,30MonoWAV/30MonoS3.wav,1,1,3,11,,,,,1,13,29,10,0,11,11,11,,,,,,,,,3,2.884829014990828,,,026,001,2019_May_14_0855,MusicAffectPsychophysiology2019,3.0.5,60.027144273434985,
,,30MonoWAV/30MonoS3.wav,1,1,3,11,,,,,1,13,29,10,,,,,,,,,,,,,,,,,026,001,2019_May_14_0855,MusicAffectPsychophysiology2019,3.0.5,60.027144273434985,
To what extent did the music make you feel ,ALERT,30MonoWAV/30MonoT3.wav,2,1,4,15,,,,,1,14,30,14,0,0,0,8,,,2,9.035101057001157,2,3.317644326001755,2,2.9524447439907817,1,3.1502334349934245,,,026,001,2019_May_14_0855,MusicAffectPsychophysiology2019,3.0.5,60.027144273434985,
To what extent did the music make you feel ,ANGRY,30MonoWAV/30MonoT3.wav,2,1,4,15,,,,,1,14,30,14,0,1,1,2,,,,,,,,,1,1.8691712270083372,,,026,001,2019_May_14_0855,MusicAffectPsychophysiology2019,3.0.5,60.027144273434985,
To what extent did the music make you feel ,ACTIVE,30MonoWAV/30MonoT3.wav,2,1,4,15,,,,,1,14,30,14,0,2,2,9,,,,,,,,,2,1.2523359570041066,,,026,001,2019_May_14_0855,MusicAffectPsychophysiology2019,3.0.5,60.027144273434985,
To what extent did the music make you feel ,FRUSTRATED,30MonoWAV/30MonoT3.wav,2,1,4,15,,,,,1,14,30,14,0,3,3,3,,,,,,,,,1,1.9179705370042939,,,026,001,2019_May_14_0855,MusicAffectPsychophysiology2019,3.0.5,60.027144273434985,
To what extent did the music make you feel ,TENDER,30MonoWAV/30MonoT3.wav,2,1,4,15,,,,,1,14,30,14,0,4,4,10,,,,,,,,,3,1.6020217159966705,,,026,001,2019_May_14_0855,MusicAffectPsychophysiology2019,3.0.5,60.027144273434985,
To what extent did the music make you feel ,HAPPY,30MonoWAV/30MonoT3.wav,2,1,4,15,,,,,1,14,30,14,0,5,5,6,,,,,,,,,3,1.935035918999347,,,026,001,2019_May_14_0855,MusicAffectPsychophysiology2019,3.0.5,60.027144273434985,
To what extent did the music make you feel ,ANXIOUS ,30MonoWAV/30MonoT3.wav,2,1,4,15,,,,,1,14,30,14,0,6,6,1,,,,,,,,,1,2.951005899012671,,,026,001,2019_May_14_0855,MusicAffectPsychophysiology2019,3.0.5,60.027144273434985,
To what extent did the music make you feel ,SAD,30MonoWAV/30MonoT3.wav,2,1,4,15,,,,,1,14,30,14,0,7,7,0,,,,,,,,,1,0.7018157860002248,,,026,001,2019_May_14_0855,MusicAffectPsychophysiology2019,3.0.5,60.027144273434985,
To what extent did the music make you feel ,ASHAMED,30MonoWAV/30MonoT3.wav,2,1,4,15,,,,,1,14,30,14,0,8,8,4,,,,,,,,,1,0.6857493559946306,,,026,001,2019_May_14_0855,MusicAffectPsychophysiology2019,3.0.5,60.027144273434985,
To what extent did the music make you feel ,EXCITED,30MonoWAV/30MonoT3.wav,2,1,4,15,,,,,1,14,30,14,0,9,9,7,,,,,,,,,2,1.868130969000049,,,026,001,2019_May_14_0855,MusicAffectPsychophysiology2019,3.0.5,60.027144273434985,
To what extent did the music make you feel ,GUILTY,30MonoWAV/30MonoT3.wav,2,1,4,15,,,,,1,14,30,14,0,10,10,5,,,,,,,,,2,6.234056775996578,,,026,001,2019_May_14_0855,MusicAffectPsychophysiology2019,3.0.5,60.027144273434985,
To what extent did the music make you feel ,SCARED,30MonoWAV/30MonoT3.wav,2,1,4,15,,,,,1,14,30,14,0,11,11,11,,,,,,,,,1,0.9854351230023894,,,026,001,2019_May_14_0855,MusicAffectPsychophysiology2019,3.0.5,60.027144273434985,
,,30MonoWAV/30MonoT3.wav,2,1,4,15,,,,,1,14,30,14,,,,,,,,,,,,,,,,,026,001,2019_May_14_0855,MusicAffectPsychophysiology2019,3.0.5,60.027144273434985,
To what extent did the music make you feel ,ANXIOUS ,30MonoWAV/30MonoH4.wav,2,2,1,8,,,,,1,15,31,7,0,0,0,1,,,4,2.285805003004498,5,15.312888824002584,5,10.863864005994401,1,1.1699572289944626,,,026,001,2019_May_14_0855,MusicAffectPsychophysiology2019,3.0.5,60.027144273434985,
To what extent did the music make you feel ,ACTIVE,30MonoWAV/30MonoH4.wav,2,2,1,8,,,,,1,15,31,7,0,1,1,9,,,,,,,,,4,1.4363869240041822,,,026,001,2019_May_14_0855,MusicAffectPsychophysiology2019,3.0.5,60.027144273434985,
To what extent did the music make you feel ,ASHAMED,30MonoWAV/30MonoH4.wav,2,2,1,8,,,,,1,15,31,7,0,2,2,4,,,,,,,,,1,0.9734307119942969,,,026,001,2019_May_14_0855,MusicAffectPsychophysiology2019,3.0.5,60.027144273434985,
To what extent did the music make you feel ,SAD,30MonoWAV/30MonoH4.wav,2,2,1,8,,,,,1,15,31,7,0,3,3,0,,,,,,,,,1,1.3499782959988806,,,026,001,2019_May_14_0855,MusicAffectPsychophysiology2019,3.0.5,60.027144273434985,
To what extent did the music make you feel ,ANGRY,30MonoWAV/30MonoH4.wav,2,2,1,8,,,,,1,15,31,7,0,4,4,2,,,,,,,,,1,2.0195077169919387,,,026,001,2019_May_14_0855,MusicAffectPsychophysiology2019,3.0.5,60.027144273434985,
To what extent did the music make you feel ,FRUSTRATED,30MonoWAV/30MonoH4.wav,2,2,1,8,,,,,1,15,31,7,0,5,5,3,,,,,,,,,1,1.0523413549963152,,,026,001,2019_May_14_0855,MusicAffectPsychophysiology2019,3.0.5,60.027144273434985,
To what extent did the music make you feel ,ALERT,30MonoWAV/30MonoH4.wav,2,2,1,8,,,,,1,15,31,7,0,6,6,8,,,,,,,,,3,2.0523734769958537,,,026,001,2019_May_14_0855,MusicAffectPsychophysiology2019,3.0.5,60.027144273434985,
To what extent did the music make you feel ,TENDER,30MonoWAV/30MonoH4.wav,2,2,1,8,,,,,1,15,31,7,0,7,7,10,,,,,,,,,1,1.119236947997706,,,026,001,2019_May_14_0855,MusicAffectPsychophysiology2019,3.0.5,60.027144273434985,
To what extent did the music make you feel ,GUILTY,30MonoWAV/30MonoH4.wav,2,2,1,8,,,,,1,15,31,7,0,8,8,5,,,,,,,,,1,2.185675435990561,,,026,001,2019_May_14_0855,MusicAffectPsychophysiology2019,3.0.5,60.027144273434985,
To what extent did the music make you feel ,SCARED,30MonoWAV/30MonoH4.wav,2,2,1,8,,,,,1,15,31,7,0,9,9,11,,,,,,,,,1,0.8511510690004798,,,026,001,2019_May_14_0855,MusicAffectPsychophysiology2019,3.0.5,60.027144273434985,
To what extent did the music make you feel ,HAPPY,30MonoWAV/30MonoH4.wav,2,2,1,8,,,,,1,15,31,7,0,10,10,6,,,,,,,,,5,0.9847458069998538,,,026,001,2019_May_14_0855,MusicAffectPsychophysiology2019,3.0.5,60.027144273434985,
To what extent did the music make you feel ,EXCITED,30MonoWAV/30MonoH4.wav,2,2,1,8,,,,,1,15,31,7,0,11,11,7,,,,,,,,,5,1.2002410739951301,,,026,001,2019_May_14_0855,MusicAffectPsychophysiology2019,3.0.5,60.027144273434985,
,,30MonoWAV/30MonoH4.wav,2,2,1,8,,,,,1,15,31,7,,,,,,,,,,,,,,,,,026,001,2019_May_14_0855,MusicAffectPsychophysiology2019,3.0.5,60.027144273434985,
,,,,,,,,,,,,,,,,,,,,,,,,,,,,,space,4.934120530000655,026,001,2019_May_14_0855,MusicAffectPsychophysiology2019,3.0.5,60.027144273434985,
