Instruction,Word,song,valence,arousal,affectcat,songmark,pracwords.thisRepN,pracwords.thisTrialN,pracwords.thisN,pracwords.thisIndex,songtrials.thisRepN,songtrials.thisTrialN,songtrials.thisN,songtrials.thisIndex,words.thisRepN,words.thisTrialN,words.thisN,words.thisIndex,begin.keys,begin.rt,arousalkey.keys,arousalkey.rt,valencekey.keys,valencekey.rt,likekey.keys,likekey.rt,WordResponse.keys,WordResponse.rt,key_resp_2.keys,key_resp_2.rt,participant,session,date,expName,psychopyVersion,frameRate,
,,,,,,,,,,,,,,,,,,,space,17.422926054990967,,,,,,,,,,,027,001,2019_May_14_1009,MusicAffectPsychophysiology2019,3.0.5,59.991014183804,
,,,,,,,,,,,,,,,,,,,,,4,10.549546074995305,,,,,,,,,027,001,2019_May_14_1009,MusicAffectPsychophysiology2019,3.0.5,59.991014183804,
,,,,,,,,,,,,,,,,,,,,,,,2,3.569160314000328,,,,,,,027,001,2019_May_14_1009,MusicAffectPsychophysiology2019,3.0.5,59.991014183804,
,,,,,,,,,,,,,,,,,,,,,,,,,2,2.69101561899879,,,,,027,001,2019_May_14_1009,MusicAffectPsychophysiology2019,3.0.5,59.991014183804,
To what extent did the music make you feel ,ANGRY,,,,,,0,0,0,2,,,,,,,,,,,,,,,,,3,5.444724814995425,,,027,001,2019_May_14_1009,MusicAffectPsychophysiology2019,3.0.5,59.991014183804,
To what extent did the music make you feel ,ACTIVE,,,,,,0,1,1,9,,,,,,,,,,,,,,,,,4,1.718854961989564,,,027,001,2019_May_14_1009,MusicAffectPsychophysiology2019,3.0.5,59.991014183804,
To what extent did the music make you feel ,ASHAMED,,,,,,0,2,2,4,,,,,,,,,,,,,,,,,3,1.684537963999901,,,027,001,2019_May_14_1009,MusicAffectPsychophysiology2019,3.0.5,59.991014183804,
To what extent did the music make you feel ,ANXIOUS ,,,,,,0,3,3,1,,,,,,,,,,,,,,,,,2,2.385296512991772,,,027,001,2019_May_14_1009,MusicAffectPsychophysiology2019,3.0.5,59.991014183804,
To what extent did the music make you feel ,FRUSTRATED,,,,,,0,4,4,3,,,,,,,,,,,,,,,,,2,3.6186534730077256,,,027,001,2019_May_14_1009,MusicAffectPsychophysiology2019,3.0.5,59.991014183804,
To what extent did the music make you feel ,GUILTY,,,,,,0,5,5,5,,,,,,,,,,,,,,,,,1,1.7348195539962035,,,027,001,2019_May_14_1009,MusicAffectPsychophysiology2019,3.0.5,59.991014183804,
To what extent did the music make you feel ,SCARED,,,,,,0,6,6,11,,,,,,,,,,,,,,,,,1,1.3345584680064349,,,027,001,2019_May_14_1009,MusicAffectPsychophysiology2019,3.0.5,59.991014183804,
To what extent did the music make you feel ,EXCITED,,,,,,0,7,7,7,,,,,,,,,,,,,,,,,2,2.1024823970074067,,,027,001,2019_May_14_1009,MusicAffectPsychophysiology2019,3.0.5,59.991014183804,
To what extent did the music make you feel ,TENDER,,,,,,0,8,8,10,,,,,,,,,,,,,,,,,1,2.219299461998162,,,027,001,2019_May_14_1009,MusicAffectPsychophysiology2019,3.0.5,59.991014183804,
To what extent did the music make you feel ,ALERT,,,,,,0,9,9,8,,,,,,,,,,,,,,,,,1,1.8340542130026734,,,027,001,2019_May_14_1009,MusicAffectPsychophysiology2019,3.0.5,59.991014183804,
To what extent did the music make you feel ,HAPPY,,,,,,0,10,10,6,,,,,,,,,,,,,,,,,1,1.4020353770029033,,,027,001,2019_May_14_1009,MusicAffectPsychophysiology2019,3.0.5,59.991014183804,
To what extent did the music make you feel ,SAD,,,,,,0,11,11,0,,,,,,,,,,,,,,,,,1,0.9519962660124293,,,027,001,2019_May_14_1009,MusicAffectPsychophysiology2019,3.0.5,59.991014183804,
To what extent did the music make you feel ,GUILTY,30MonoWAV/30MonoT2.wav,2,1,4,14,,,,,0,0,0,13,0,0,0,5,,,2,3.768812833004631,2,2.068302986008348,2,1.672784551003133,1,1.537840025004698,,,027,001,2019_May_14_1009,MusicAffectPsychophysiology2019,3.0.5,59.991014183804,
To what extent did the music make you feel ,ASHAMED,30MonoWAV/30MonoT2.wav,2,1,4,14,,,,,0,0,0,13,0,1,1,4,,,,,,,,,1,1.3363326309918193,,,027,001,2019_May_14_1009,MusicAffectPsychophysiology2019,3.0.5,59.991014183804,
To what extent did the music make you feel ,TENDER,30MonoWAV/30MonoT2.wav,2,1,4,14,,,,,0,0,0,13,0,2,2,10,,,,,,,,,1,0.9029878599976655,,,027,001,2019_May_14_1009,MusicAffectPsychophysiology2019,3.0.5,59.991014183804,
To what extent did the music make you feel ,SAD,30MonoWAV/30MonoT2.wav,2,1,4,14,,,,,0,0,0,13,0,3,3,0,,,,,,,,,1,0.7860268750082469,,,027,001,2019_May_14_1009,MusicAffectPsychophysiology2019,3.0.5,59.991014183804,
To what extent did the music make you feel ,ALERT,30MonoWAV/30MonoT2.wav,2,1,4,14,,,,,0,0,0,13,0,4,4,8,,,,,,,,,3,1.5520374839979922,,,027,001,2019_May_14_1009,MusicAffectPsychophysiology2019,3.0.5,59.991014183804,
To what extent did the music make you feel ,ACTIVE,30MonoWAV/30MonoT2.wav,2,1,4,14,,,,,0,0,0,13,0,5,5,9,,,,,,,,,2,1.6232727829919895,,,027,001,2019_May_14_1009,MusicAffectPsychophysiology2019,3.0.5,59.991014183804,
To what extent did the music make you feel ,ANGRY,30MonoWAV/30MonoT2.wav,2,1,4,14,,,,,0,0,0,13,0,6,6,2,,,,,,,,,1,1.1345687120046932,,,027,001,2019_May_14_1009,MusicAffectPsychophysiology2019,3.0.5,59.991014183804,
To what extent did the music make you feel ,HAPPY,30MonoWAV/30MonoT2.wav,2,1,4,14,,,,,0,0,0,13,0,7,7,6,,,,,,,,,2,1.2364545840100618,,,027,001,2019_May_14_1009,MusicAffectPsychophysiology2019,3.0.5,59.991014183804,
To what extent did the music make you feel ,FRUSTRATED,30MonoWAV/30MonoT2.wav,2,1,4,14,,,,,0,0,0,13,0,8,8,3,,,,,,,,,2,1.5182361360057257,,,027,001,2019_May_14_1009,MusicAffectPsychophysiology2019,3.0.5,59.991014183804,
To what extent did the music make you feel ,ANXIOUS ,30MonoWAV/30MonoT2.wav,2,1,4,14,,,,,0,0,0,13,0,9,9,1,,,,,,,,,1,1.5349946499918588,,,027,001,2019_May_14_1009,MusicAffectPsychophysiology2019,3.0.5,59.991014183804,
To what extent did the music make you feel ,SCARED,30MonoWAV/30MonoT2.wav,2,1,4,14,,,,,0,0,0,13,0,10,10,11,,,,,,,,,1,1.0679934049985604,,,027,001,2019_May_14_1009,MusicAffectPsychophysiology2019,3.0.5,59.991014183804,
To what extent did the music make you feel ,EXCITED,30MonoWAV/30MonoT2.wav,2,1,4,14,,,,,0,0,0,13,0,11,11,7,,,,,,,,,3,2.66879045200767,,,027,001,2019_May_14_1009,MusicAffectPsychophysiology2019,3.0.5,59.991014183804,
,,30MonoWAV/30MonoT2.wav,2,1,4,14,,,,,0,0,0,13,,,,,,,,,,,,,,,,,027,001,2019_May_14_1009,MusicAffectPsychophysiology2019,3.0.5,59.991014183804,
To what extent did the music make you feel ,ASHAMED,30MonoWAV/30MonoF4.wav,1,2,2,4,,,,,0,1,1,3,0,0,0,4,,,3,3.8519160870055202,1,3.26798772100301,1,1.4185469990043202,2,2.8167181280005025,,,027,001,2019_May_14_1009,MusicAffectPsychophysiology2019,3.0.5,59.991014183804,
To what extent did the music make you feel ,ANXIOUS ,30MonoWAV/30MonoF4.wav,1,2,2,4,,,,,0,1,1,3,0,1,1,1,,,,,,,,,4,1.4025329230062198,,,027,001,2019_May_14_1009,MusicAffectPsychophysiology2019,3.0.5,59.991014183804,
To what extent did the music make you feel ,ACTIVE,30MonoWAV/30MonoF4.wav,1,2,2,4,,,,,0,1,1,3,0,2,2,9,,,,,,,,,2,1.4529547970014391,,,027,001,2019_May_14_1009,MusicAffectPsychophysiology2019,3.0.5,59.991014183804,
To what extent did the music make you feel ,SCARED,30MonoWAV/30MonoF4.wav,1,2,2,4,,,,,0,1,1,3,0,3,3,11,,,,,,,,,4,1.868476012008614,,,027,001,2019_May_14_1009,MusicAffectPsychophysiology2019,3.0.5,59.991014183804,
To what extent did the music make you feel ,EXCITED,30MonoWAV/30MonoF4.wav,1,2,2,4,,,,,0,1,1,3,0,4,4,7,,,,,,,,,2,1.5021246760006761,,,027,001,2019_May_14_1009,MusicAffectPsychophysiology2019,3.0.5,59.991014183804,
To what extent did the music make you feel ,GUILTY,30MonoWAV/30MonoF4.wav,1,2,2,4,,,,,0,1,1,3,0,5,5,5,,,,,,,,,1,1.5009422119910596,,,027,001,2019_May_14_1009,MusicAffectPsychophysiology2019,3.0.5,59.991014183804,
To what extent did the music make you feel ,FRUSTRATED,30MonoWAV/30MonoF4.wav,1,2,2,4,,,,,0,1,1,3,0,6,6,3,,,,,,,,,3,1.3853926649899222,,,027,001,2019_May_14_1009,MusicAffectPsychophysiology2019,3.0.5,59.991014183804,
To what extent did the music make you feel ,TENDER,30MonoWAV/30MonoF4.wav,1,2,2,4,,,,,0,1,1,3,0,7,7,10,,,,,,,,,3,1.5353082270012237,,,027,001,2019_May_14_1009,MusicAffectPsychophysiology2019,3.0.5,59.991014183804,
To what extent did the music make you feel ,HAPPY,30MonoWAV/30MonoF4.wav,1,2,2,4,,,,,0,1,1,3,0,8,8,6,,,,,,,,,1,1.8685944720054977,,,027,001,2019_May_14_1009,MusicAffectPsychophysiology2019,3.0.5,59.991014183804,
To what extent did the music make you feel ,ALERT,30MonoWAV/30MonoF4.wav,1,2,2,4,,,,,0,1,1,3,0,9,9,8,,,,,,,,,3,1.3499035360000562,,,027,001,2019_May_14_1009,MusicAffectPsychophysiology2019,3.0.5,59.991014183804,
To what extent did the music make you feel ,ANGRY,30MonoWAV/30MonoF4.wav,1,2,2,4,,,,,0,1,1,3,0,10,10,2,,,,,,,,,4,1.234217281002202,,,027,001,2019_May_14_1009,MusicAffectPsychophysiology2019,3.0.5,59.991014183804,
To what extent did the music make you feel ,SAD,30MonoWAV/30MonoF4.wav,1,2,2,4,,,,,0,1,1,3,0,11,11,0,,,,,,,,,1,1.4355720199964708,,,027,001,2019_May_14_1009,MusicAffectPsychophysiology2019,3.0.5,59.991014183804,
,,30MonoWAV/30MonoF4.wav,1,2,2,4,,,,,0,1,1,3,,,,,,,,,,,,,,,,,027,001,2019_May_14_1009,MusicAffectPsychophysiology2019,3.0.5,59.991014183804,
To what extent did the music make you feel ,ANGRY,30MonoWAV/30MonoF1.wav,1,2,2,1,,,,,0,2,2,0,0,0,0,2,,,3,2.7349892610072857,2,1.433040568997967,1,1.7016482860053657,4,3.418828330002725,,,027,001,2019_May_14_1009,MusicAffectPsychophysiology2019,3.0.5,59.991014183804,
To what extent did the music make you feel ,ASHAMED,30MonoWAV/30MonoF1.wav,1,2,2,1,,,,,0,2,2,0,0,1,1,4,,,,,,,,,4,1.5682084869913524,,,027,001,2019_May_14_1009,MusicAffectPsychophysiology2019,3.0.5,59.991014183804,
To what extent did the music make you feel ,HAPPY,30MonoWAV/30MonoF1.wav,1,2,2,1,,,,,0,2,2,0,0,2,2,6,,,,,,,,,2,1.049993695007288,,,027,001,2019_May_14_1009,MusicAffectPsychophysiology2019,3.0.5,59.991014183804,
To what extent did the music make you feel ,TENDER,30MonoWAV/30MonoF1.wav,1,2,2,1,,,,,0,2,2,0,0,3,3,10,,,,,,,,,4,0.8685594280104851,,,027,001,2019_May_14_1009,MusicAffectPsychophysiology2019,3.0.5,59.991014183804,
To what extent did the music make you feel ,GUILTY,30MonoWAV/30MonoF1.wav,1,2,2,1,,,,,0,2,2,0,0,4,4,5,,,,,,,,,3,1.335623648003093,,,027,001,2019_May_14_1009,MusicAffectPsychophysiology2019,3.0.5,59.991014183804,
To what extent did the music make you feel ,SAD,30MonoWAV/30MonoF1.wav,1,2,2,1,,,,,0,2,2,0,0,5,5,0,,,,,,,,,2,1.7353722129919333,,,027,001,2019_May_14_1009,MusicAffectPsychophysiology2019,3.0.5,59.991014183804,
To what extent did the music make you feel ,ANXIOUS ,30MonoWAV/30MonoF1.wav,1,2,2,1,,,,,0,2,2,0,0,6,6,1,,,,,,,,,5,1.2024067699967418,,,027,001,2019_May_14_1009,MusicAffectPsychophysiology2019,3.0.5,59.991014183804,
To what extent did the music make you feel ,ALERT,30MonoWAV/30MonoF1.wav,1,2,2,1,,,,,0,2,2,0,0,7,7,8,,,,,,,,,3,1.3524189949966967,,,027,001,2019_May_14_1009,MusicAffectPsychophysiology2019,3.0.5,59.991014183804,
To what extent did the music make you feel ,SCARED,30MonoWAV/30MonoF1.wav,1,2,2,1,,,,,0,2,2,0,0,8,8,11,,,,,,,,,4,1.352233099998557,,,027,001,2019_May_14_1009,MusicAffectPsychophysiology2019,3.0.5,59.991014183804,
To what extent did the music make you feel ,EXCITED,30MonoWAV/30MonoF1.wav,1,2,2,1,,,,,0,2,2,0,0,9,9,7,,,,,,,,,2,1.617810969997663,,,027,001,2019_May_14_1009,MusicAffectPsychophysiology2019,3.0.5,59.991014183804,
To what extent did the music make you feel ,ACTIVE,30MonoWAV/30MonoF1.wav,1,2,2,1,,,,,0,2,2,0,0,10,10,9,,,,,,,,,1,1.202148283002316,,,027,001,2019_May_14_1009,MusicAffectPsychophysiology2019,3.0.5,59.991014183804,
To what extent did the music make you feel ,FRUSTRATED,30MonoWAV/30MonoF1.wav,1,2,2,1,,,,,0,2,2,0,0,11,11,3,,,,,,,,,4,1.3687313559930772,,,027,001,2019_May_14_1009,MusicAffectPsychophysiology2019,3.0.5,59.991014183804,
,,30MonoWAV/30MonoF1.wav,1,2,2,1,,,,,0,2,2,0,,,,,,,,,,,,,,,,,027,001,2019_May_14_1009,MusicAffectPsychophysiology2019,3.0.5,59.991014183804,
To what extent did the music make you feel ,SCARED,30MonoWAV/30MonoT1.wav,2,1,4,13,,,,,0,3,3,12,0,0,0,11,,,2,3.740965346994926,4,3.1384806300047785,3,2.5722550680075074,1,2.1200365069962572,,,027,001,2019_May_14_1009,MusicAffectPsychophysiology2019,3.0.5,59.991014183804,
To what extent did the music make you feel ,ANXIOUS ,30MonoWAV/30MonoT1.wav,2,1,4,13,,,,,0,3,3,12,0,1,1,1,,,,,,,,,1,0.7014236789982533,,,027,001,2019_May_14_1009,MusicAffectPsychophysiology2019,3.0.5,59.991014183804,
To what extent did the music make you feel ,HAPPY,30MonoWAV/30MonoT1.wav,2,1,4,13,,,,,0,3,3,12,0,2,2,6,,,,,,,,,3,1.201312909994158,,,027,001,2019_May_14_1009,MusicAffectPsychophysiology2019,3.0.5,59.991014183804,
To what extent did the music make you feel ,EXCITED,30MonoWAV/30MonoT1.wav,2,1,4,13,,,,,0,3,3,12,0,3,3,7,,,,,,,,,3,1.3847135550022358,,,027,001,2019_May_14_1009,MusicAffectPsychophysiology2019,3.0.5,59.991014183804,
To what extent did the music make you feel ,ASHAMED,30MonoWAV/30MonoT1.wav,2,1,4,13,,,,,0,3,3,12,0,4,4,4,,,,,,,,,2,0.9999089240009198,,,027,001,2019_May_14_1009,MusicAffectPsychophysiology2019,3.0.5,59.991014183804,
To what extent did the music make you feel ,TENDER,30MonoWAV/30MonoT1.wav,2,1,4,13,,,,,0,3,3,12,0,5,5,10,,,,,,,,,1,0.9017807389900554,,,027,001,2019_May_14_1009,MusicAffectPsychophysiology2019,3.0.5,59.991014183804,
To what extent did the music make you feel ,SAD,30MonoWAV/30MonoT1.wav,2,1,4,13,,,,,0,3,3,12,0,6,6,0,,,,,,,,,1,0.6510348940064432,,,027,001,2019_May_14_1009,MusicAffectPsychophysiology2019,3.0.5,59.991014183804,
To what extent did the music make you feel ,GUILTY,30MonoWAV/30MonoT1.wav,2,1,4,13,,,,,0,3,3,12,0,7,7,5,,,,,,,,,1,0.735780850998708,,,027,001,2019_May_14_1009,MusicAffectPsychophysiology2019,3.0.5,59.991014183804,
To what extent did the music make you feel ,FRUSTRATED,30MonoWAV/30MonoT1.wav,2,1,4,13,,,,,0,3,3,12,0,8,8,3,,,,,,,,,1,0.9016981640015729,,,027,001,2019_May_14_1009,MusicAffectPsychophysiology2019,3.0.5,59.991014183804,
To what extent did the music make you feel ,ALERT,30MonoWAV/30MonoT1.wav,2,1,4,13,,,,,0,3,3,12,0,9,9,8,,,,,,,,,1,0.9005197129881708,,,027,001,2019_May_14_1009,MusicAffectPsychophysiology2019,3.0.5,59.991014183804,
To what extent did the music make you feel ,ANGRY,30MonoWAV/30MonoT1.wav,2,1,4,13,,,,,0,3,3,12,0,10,10,2,,,,,,,,,1,0.8345686599932378,,,027,001,2019_May_14_1009,MusicAffectPsychophysiology2019,3.0.5,59.991014183804,
To what extent did the music make you feel ,ACTIVE,30MonoWAV/30MonoT1.wav,2,1,4,13,,,,,0,3,3,12,0,11,11,9,,,,,,,,,4,1.2683313460001955,,,027,001,2019_May_14_1009,MusicAffectPsychophysiology2019,3.0.5,59.991014183804,
,,30MonoWAV/30MonoT1.wav,2,1,4,13,,,,,0,3,3,12,,,,,,,,,,,,,,,,,027,001,2019_May_14_1009,MusicAffectPsychophysiology2019,3.0.5,59.991014183804,
To what extent did the music make you feel ,SAD,30MonoWAV/30MonoH1.wav,2,2,1,5,,,,,0,4,4,4,0,0,0,0,,,2,3.2856412440014537,5,1.6184173380024731,5,1.1177346580079757,1,1.618928837007843,,,027,001,2019_May_14_1009,MusicAffectPsychophysiology2019,3.0.5,59.991014183804,
To what extent did the music make you feel ,ACTIVE,30MonoWAV/30MonoH1.wav,2,2,1,5,,,,,0,4,4,4,0,1,1,9,,,,,,,,,5,1.652187811996555,,,027,001,2019_May_14_1009,MusicAffectPsychophysiology2019,3.0.5,59.991014183804,
To what extent did the music make you feel ,ANGRY,30MonoWAV/30MonoH1.wav,2,2,1,5,,,,,0,4,4,4,0,2,2,2,,,,,,,,,1,1.5177441679988988,,,027,001,2019_May_14_1009,MusicAffectPsychophysiology2019,3.0.5,59.991014183804,
To what extent did the music make you feel ,FRUSTRATED,30MonoWAV/30MonoH1.wav,2,2,1,5,,,,,0,4,4,4,0,3,3,3,,,,,,,,,2,1.6194167119974736,,,027,001,2019_May_14_1009,MusicAffectPsychophysiology2019,3.0.5,59.991014183804,
To what extent did the music make you feel ,ALERT,30MonoWAV/30MonoH1.wav,2,2,1,5,,,,,0,4,4,4,0,4,4,8,,,,,,,,,2,1.4186429059918737,,,027,001,2019_May_14_1009,MusicAffectPsychophysiology2019,3.0.5,59.991014183804,
To what extent did the music make you feel ,HAPPY,30MonoWAV/30MonoH1.wav,2,2,1,5,,,,,0,4,4,4,0,5,5,6,,,,,,,,,4,1.3199389090004843,,,027,001,2019_May_14_1009,MusicAffectPsychophysiology2019,3.0.5,59.991014183804,
To what extent did the music make you feel ,ASHAMED,30MonoWAV/30MonoH1.wav,2,2,1,5,,,,,0,4,4,4,0,6,6,4,,,,,,,,,1,2.2349388629954774,,,027,001,2019_May_14_1009,MusicAffectPsychophysiology2019,3.0.5,59.991014183804,
To what extent did the music make you feel ,SCARED,30MonoWAV/30MonoH1.wav,2,2,1,5,,,,,0,4,4,4,0,7,7,11,,,,,,,,,1,0.7518273599998793,,,027,001,2019_May_14_1009,MusicAffectPsychophysiology2019,3.0.5,59.991014183804,
To what extent did the music make you feel ,GUILTY,30MonoWAV/30MonoH1.wav,2,2,1,5,,,,,0,4,4,4,0,8,8,5,,,,,,,,,1,0.8853184160107048,,,027,001,2019_May_14_1009,MusicAffectPsychophysiology2019,3.0.5,59.991014183804,
To what extent did the music make you feel ,TENDER,30MonoWAV/30MonoH1.wav,2,2,1,5,,,,,0,4,4,4,0,9,9,10,,,,,,,,,1,1.1675403109984472,,,027,001,2019_May_14_1009,MusicAffectPsychophysiology2019,3.0.5,59.991014183804,
To what extent did the music make you feel ,EXCITED,30MonoWAV/30MonoH1.wav,2,2,1,5,,,,,0,4,4,4,0,10,10,7,,,,,,,,,5,1.5192353910097154,,,027,001,2019_May_14_1009,MusicAffectPsychophysiology2019,3.0.5,59.991014183804,
To what extent did the music make you feel ,ANXIOUS ,30MonoWAV/30MonoH1.wav,2,2,1,5,,,,,0,4,4,4,0,11,11,1,,,,,,,,,1,1.20234372500272,,,027,001,2019_May_14_1009,MusicAffectPsychophysiology2019,3.0.5,59.991014183804,
,,30MonoWAV/30MonoH1.wav,2,2,1,5,,,,,0,4,4,4,,,,,,,,,,,,,,,,,027,001,2019_May_14_1009,MusicAffectPsychophysiology2019,3.0.5,59.991014183804,
To what extent did the music make you feel ,ASHAMED,30MonoWAV/30MonoH3.wav,2,2,1,7,,,,,0,5,5,6,0,0,0,4,,,4,3.4517985440033954,3,1.9854291299998295,3,2.0164947279990884,2,1.7353239440126345,,,027,001,2019_May_14_1009,MusicAffectPsychophysiology2019,3.0.5,59.991014183804,
To what extent did the music make you feel ,SAD,30MonoWAV/30MonoH3.wav,2,2,1,7,,,,,0,5,5,6,0,1,1,0,,,,,,,,,1,1.119971527994494,,,027,001,2019_May_14_1009,MusicAffectPsychophysiology2019,3.0.5,59.991014183804,
To what extent did the music make you feel ,ANGRY,30MonoWAV/30MonoH3.wav,2,2,1,7,,,,,0,5,5,6,0,2,2,2,,,,,,,,,1,0.9511455650062999,,,027,001,2019_May_14_1009,MusicAffectPsychophysiology2019,3.0.5,59.991014183804,
To what extent did the music make you feel ,TENDER,30MonoWAV/30MonoH3.wav,2,2,1,7,,,,,0,5,5,6,0,3,3,10,,,,,,,,,1,0.7695590360090137,,,027,001,2019_May_14_1009,MusicAffectPsychophysiology2019,3.0.5,59.991014183804,
To what extent did the music make you feel ,ACTIVE,30MonoWAV/30MonoH3.wav,2,2,1,7,,,,,0,5,5,6,0,4,4,9,,,,,,,,,3,1.7845885940041626,,,027,001,2019_May_14_1009,MusicAffectPsychophysiology2019,3.0.5,59.991014183804,
To what extent did the music make you feel ,FRUSTRATED,30MonoWAV/30MonoH3.wav,2,2,1,7,,,,,0,5,5,6,0,5,5,3,,,,,,,,,3,1.051741895993473,,,027,001,2019_May_14_1009,MusicAffectPsychophysiology2019,3.0.5,59.991014183804,
To what extent did the music make you feel ,EXCITED,30MonoWAV/30MonoH3.wav,2,2,1,7,,,,,0,5,5,6,0,6,6,7,,,,,,,,,4,0.8184402140032034,,,027,001,2019_May_14_1009,MusicAffectPsychophysiology2019,3.0.5,59.991014183804,
To what extent did the music make you feel ,ALERT,30MonoWAV/30MonoH3.wav,2,2,1,7,,,,,0,5,5,6,0,7,7,8,,,,,,,,,3,1.6860391600057483,,,027,001,2019_May_14_1009,MusicAffectPsychophysiology2019,3.0.5,59.991014183804,
To what extent did the music make you feel ,GUILTY,30MonoWAV/30MonoH3.wav,2,2,1,7,,,,,0,5,5,6,0,8,8,5,,,,,,,,,1,1.2184237140027108,,,027,001,2019_May_14_1009,MusicAffectPsychophysiology2019,3.0.5,59.991014183804,
To what extent did the music make you feel ,ANXIOUS ,30MonoWAV/30MonoH3.wav,2,2,1,7,,,,,0,5,5,6,0,9,9,1,,,,,,,,,1,1.1511326510080835,,,027,001,2019_May_14_1009,MusicAffectPsychophysiology2019,3.0.5,59.991014183804,
To what extent did the music make you feel ,HAPPY,30MonoWAV/30MonoH3.wav,2,2,1,7,,,,,0,5,5,6,0,10,10,6,,,,,,,,,3,1.2356014980032342,,,027,001,2019_May_14_1009,MusicAffectPsychophysiology2019,3.0.5,59.991014183804,
To what extent did the music make you feel ,SCARED,30MonoWAV/30MonoH3.wav,2,2,1,7,,,,,0,5,5,6,0,11,11,11,,,,,,,,,1,0.918026967003243,,,027,001,2019_May_14_1009,MusicAffectPsychophysiology2019,3.0.5,59.991014183804,
,,30MonoWAV/30MonoH3.wav,2,2,1,7,,,,,0,5,5,6,,,,,,,,,,,,,,,,,027,001,2019_May_14_1009,MusicAffectPsychophysiology2019,3.0.5,59.991014183804,
To what extent did the music make you feel ,TENDER,30MonoWAV/30MonoT4.wav,2,1,4,16,,,,,0,6,6,15,0,0,0,10,,,2,4.507644067998626,3,1.1034322760096984,2,2.0874966510018567,2,2.039128044998506,,,027,001,2019_May_14_1009,MusicAffectPsychophysiology2019,3.0.5,59.991014183804,
To what extent did the music make you feel ,SAD,30MonoWAV/30MonoT4.wav,2,1,4,16,,,,,0,6,6,15,0,1,1,0,,,,,,,,,2,1.372952071003965,,,027,001,2019_May_14_1009,MusicAffectPsychophysiology2019,3.0.5,59.991014183804,
To what extent did the music make you feel ,ALERT,30MonoWAV/30MonoT4.wav,2,1,4,16,,,,,0,6,6,15,0,2,2,8,,,,,,,,,2,0.9159588399925269,,,027,001,2019_May_14_1009,MusicAffectPsychophysiology2019,3.0.5,59.991014183804,
To what extent did the music make you feel ,ANGRY,30MonoWAV/30MonoT4.wav,2,1,4,16,,,,,0,6,6,15,0,3,3,2,,,,,,,,,1,1.0862164069985738,,,027,001,2019_May_14_1009,MusicAffectPsychophysiology2019,3.0.5,59.991014183804,
To what extent did the music make you feel ,HAPPY,30MonoWAV/30MonoT4.wav,2,1,4,16,,,,,0,6,6,15,0,4,4,6,,,,,,,,,3,1.118375169011415,,,027,001,2019_May_14_1009,MusicAffectPsychophysiology2019,3.0.5,59.991014183804,
To what extent did the music make you feel ,FRUSTRATED,30MonoWAV/30MonoT4.wav,2,1,4,16,,,,,0,6,6,15,0,5,5,3,,,,,,,,,2,1.2352261079940945,,,027,001,2019_May_14_1009,MusicAffectPsychophysiology2019,3.0.5,59.991014183804,
To what extent did the music make you feel ,GUILTY,30MonoWAV/30MonoT4.wav,2,1,4,16,,,,,0,6,6,15,0,6,6,5,,,,,,,,,1,1.0009320350072812,,,027,001,2019_May_14_1009,MusicAffectPsychophysiology2019,3.0.5,59.991014183804,
To what extent did the music make you feel ,ACTIVE,30MonoWAV/30MonoT4.wav,2,1,4,16,,,,,0,6,6,15,0,7,7,9,,,,,,,,,3,1.3029411950119538,,,027,001,2019_May_14_1009,MusicAffectPsychophysiology2019,3.0.5,59.991014183804,
To what extent did the music make you feel ,EXCITED,30MonoWAV/30MonoT4.wav,2,1,4,16,,,,,0,6,6,15,0,8,8,7,,,,,,,,,2,1.2854438539943658,,,027,001,2019_May_14_1009,MusicAffectPsychophysiology2019,3.0.5,59.991014183804,
To what extent did the music make you feel ,ANXIOUS ,30MonoWAV/30MonoT4.wav,2,1,4,16,,,,,0,6,6,15,0,9,9,1,,,,,,,,,1,1.7673914930055616,,,027,001,2019_May_14_1009,MusicAffectPsychophysiology2019,3.0.5,59.991014183804,
To what extent did the music make you feel ,ASHAMED,30MonoWAV/30MonoT4.wav,2,1,4,16,,,,,0,6,6,15,0,10,10,4,,,,,,,,,1,1.3162260929966578,,,027,001,2019_May_14_1009,MusicAffectPsychophysiology2019,3.0.5,59.991014183804,
To what extent did the music make you feel ,SCARED,30MonoWAV/30MonoT4.wav,2,1,4,16,,,,,0,6,6,15,0,11,11,11,,,,,,,,,1,1.0012142680061515,,,027,001,2019_May_14_1009,MusicAffectPsychophysiology2019,3.0.5,59.991014183804,
,,30MonoWAV/30MonoT4.wav,2,1,4,16,,,,,0,6,6,15,,,,,,,,,,,,,,,,,027,001,2019_May_14_1009,MusicAffectPsychophysiology2019,3.0.5,59.991014183804,
To what extent did the music make you feel ,ASHAMED,30MonoWAV/30MonoS3.wav,1,1,3,11,,,,,0,7,7,10,0,0,0,4,,,2,3.5344409230019664,1,1.2690314699866576,1,1.3184553220053203,3,1.9351529990090057,,,027,001,2019_May_14_1009,MusicAffectPsychophysiology2019,3.0.5,59.991014183804,
To what extent did the music make you feel ,HAPPY,30MonoWAV/30MonoS3.wav,1,1,3,11,,,,,0,7,7,10,0,1,1,6,,,,,,,,,1,1.3844729960110271,,,027,001,2019_May_14_1009,MusicAffectPsychophysiology2019,3.0.5,59.991014183804,
To what extent did the music make you feel ,ANGRY,30MonoWAV/30MonoS3.wav,1,1,3,11,,,,,0,7,7,10,0,2,2,2,,,,,,,,,2,1.4686521789990366,,,027,001,2019_May_14_1009,MusicAffectPsychophysiology2019,3.0.5,59.991014183804,
To what extent did the music make you feel ,ANXIOUS ,30MonoWAV/30MonoS3.wav,1,1,3,11,,,,,0,7,7,10,0,3,3,1,,,,,,,,,4,1.4346083989948966,,,027,001,2019_May_14_1009,MusicAffectPsychophysiology2019,3.0.5,59.991014183804,
To what extent did the music make you feel ,SAD,30MonoWAV/30MonoS3.wav,1,1,3,11,,,,,0,7,7,10,0,4,4,0,,,,,,,,,3,1.4029781940043904,,,027,001,2019_May_14_1009,MusicAffectPsychophysiology2019,3.0.5,59.991014183804,
To what extent did the music make you feel ,ACTIVE,30MonoWAV/30MonoS3.wav,1,1,3,11,,,,,0,7,7,10,0,5,5,9,,,,,,,,,2,0.9516411750082625,,,027,001,2019_May_14_1009,MusicAffectPsychophysiology2019,3.0.5,59.991014183804,
To what extent did the music make you feel ,TENDER,30MonoWAV/30MonoS3.wav,1,1,3,11,,,,,0,7,7,10,0,6,6,10,,,,,,,,,4,0.9359075399988797,,,027,001,2019_May_14_1009,MusicAffectPsychophysiology2019,3.0.5,59.991014183804,
To what extent did the music make you feel ,SCARED,30MonoWAV/30MonoS3.wav,1,1,3,11,,,,,0,7,7,10,0,7,7,11,,,,,,,,,4,0.6054653830069583,,,027,001,2019_May_14_1009,MusicAffectPsychophysiology2019,3.0.5,59.991014183804,
To what extent did the music make you feel ,EXCITED,30MonoWAV/30MonoS3.wav,1,1,3,11,,,,,0,7,7,10,0,8,8,7,,,,,,,,,1,1.3369186819909373,,,027,001,2019_May_14_1009,MusicAffectPsychophysiology2019,3.0.5,59.991014183804,
To what extent did the music make you feel ,ALERT,30MonoWAV/30MonoS3.wav,1,1,3,11,,,,,0,7,7,10,0,9,9,8,,,,,,,,,3,1.2031502460013144,,,027,001,2019_May_14_1009,MusicAffectPsychophysiology2019,3.0.5,59.991014183804,
To what extent did the music make you feel ,GUILTY,30MonoWAV/30MonoS3.wav,1,1,3,11,,,,,0,7,7,10,0,10,10,5,,,,,,,,,4,1.436557287001051,,,027,001,2019_May_14_1009,MusicAffectPsychophysiology2019,3.0.5,59.991014183804,
To what extent did the music make you feel ,FRUSTRATED,30MonoWAV/30MonoS3.wav,1,1,3,11,,,,,0,7,7,10,0,11,11,3,,,,,,,,,4,1.2535054789914284,,,027,001,2019_May_14_1009,MusicAffectPsychophysiology2019,3.0.5,59.991014183804,
,,30MonoWAV/30MonoS3.wav,1,1,3,11,,,,,0,7,7,10,,,,,,,,,,,,,,,,,027,001,2019_May_14_1009,MusicAffectPsychophysiology2019,3.0.5,59.991014183804,
To what extent did the music make you feel ,ANXIOUS ,30MonoWAV/30MonoH2.wav,2,2,1,6,,,,,0,8,8,5,0,0,0,1,,,2,3.5171009629993932,2,1.8024868000065908,2,1.8677141520020086,1,1.4524420520028798,,,027,001,2019_May_14_1009,MusicAffectPsychophysiology2019,3.0.5,59.991014183804,
To what extent did the music make you feel ,HAPPY,30MonoWAV/30MonoH2.wav,2,2,1,6,,,,,0,8,8,5,0,1,1,6,,,,,,,,,3,1.4518476580124116,,,027,001,2019_May_14_1009,MusicAffectPsychophysiology2019,3.0.5,59.991014183804,
To what extent did the music make you feel ,EXCITED,30MonoWAV/30MonoH2.wav,2,2,1,6,,,,,0,8,8,5,0,2,2,7,,,,,,,,,4,1.716694019996794,,,027,001,2019_May_14_1009,MusicAffectPsychophysiology2019,3.0.5,59.991014183804,
To what extent did the music make you feel ,SCARED,30MonoWAV/30MonoH2.wav,2,2,1,6,,,,,0,8,8,5,0,3,3,11,,,,,,,,,2,2.318390403990634,,,027,001,2019_May_14_1009,MusicAffectPsychophysiology2019,3.0.5,59.991014183804,
To what extent did the music make you feel ,ALERT,30MonoWAV/30MonoH2.wav,2,2,1,6,,,,,0,8,8,5,0,4,4,8,,,,,,,,,2,1.1196396480081603,,,027,001,2019_May_14_1009,MusicAffectPsychophysiology2019,3.0.5,59.991014183804,
To what extent did the music make you feel ,SAD,30MonoWAV/30MonoH2.wav,2,2,1,6,,,,,0,8,8,5,0,5,5,0,,,,,,,,,1,0.9184905190049903,,,027,001,2019_May_14_1009,MusicAffectPsychophysiology2019,3.0.5,59.991014183804,
To what extent did the music make you feel ,ANGRY,30MonoWAV/30MonoH2.wav,2,2,1,6,,,,,0,8,8,5,0,6,6,2,,,,,,,,,1,1.1884329479944427,,,027,001,2019_May_14_1009,MusicAffectPsychophysiology2019,3.0.5,59.991014183804,
To what extent did the music make you feel ,TENDER,30MonoWAV/30MonoH2.wav,2,2,1,6,,,,,0,8,8,5,0,7,7,10,,,,,,,,,2,0.8694859059905866,,,027,001,2019_May_14_1009,MusicAffectPsychophysiology2019,3.0.5,59.991014183804,
To what extent did the music make you feel ,ASHAMED,30MonoWAV/30MonoH2.wav,2,2,1,6,,,,,0,8,8,5,0,8,8,4,,,,,,,,,3,0.8366538690024754,,,027,001,2019_May_14_1009,MusicAffectPsychophysiology2019,3.0.5,59.991014183804,
To what extent did the music make you feel ,GUILTY,30MonoWAV/30MonoH2.wav,2,2,1,6,,,,,0,8,8,5,0,9,9,5,,,,,,,,,1,1.2697981340024853,,,027,001,2019_May_14_1009,MusicAffectPsychophysiology2019,3.0.5,59.991014183804,
To what extent did the music make you feel ,ACTIVE,30MonoWAV/30MonoH2.wav,2,2,1,6,,,,,0,8,8,5,0,10,10,9,,,,,,,,,4,1.4203679030033527,,,027,001,2019_May_14_1009,MusicAffectPsychophysiology2019,3.0.5,59.991014183804,
To what extent did the music make you feel ,FRUSTRATED,30MonoWAV/30MonoH2.wav,2,2,1,6,,,,,0,8,8,5,0,11,11,3,,,,,,,,,2,1.3346733790094731,,,027,001,2019_May_14_1009,MusicAffectPsychophysiology2019,3.0.5,59.991014183804,
,,30MonoWAV/30MonoH2.wav,2,2,1,6,,,,,0,8,8,5,,,,,,,,,,,,,,,,,027,001,2019_May_14_1009,MusicAffectPsychophysiology2019,3.0.5,59.991014183804,
To what extent did the music make you feel ,EXCITED,30MonoWAV/30MonoS4.wav,1,1,3,12,,,,,0,9,9,11,0,0,0,7,,,1,2.4706230430019787,1,1.284856940008467,3,2.1407852270058356,1,1.3529869459889596,,,027,001,2019_May_14_1009,MusicAffectPsychophysiology2019,3.0.5,59.991014183804,
To what extent did the music make you feel ,ANGRY,30MonoWAV/30MonoS4.wav,1,1,3,12,,,,,0,9,9,11,0,1,1,2,,,,,,,,,2,1.3854796550003812,,,027,001,2019_May_14_1009,MusicAffectPsychophysiology2019,3.0.5,59.991014183804,
To what extent did the music make you feel ,ACTIVE,30MonoWAV/30MonoS4.wav,1,1,3,12,,,,,0,9,9,11,0,2,2,9,,,,,,,,,1,0.8358906270004809,,,027,001,2019_May_14_1009,MusicAffectPsychophysiology2019,3.0.5,59.991014183804,
To what extent did the music make you feel ,ALERT,30MonoWAV/30MonoS4.wav,1,1,3,12,,,,,0,9,9,11,0,3,3,8,,,,,,,,,2,0.9859202619991265,,,027,001,2019_May_14_1009,MusicAffectPsychophysiology2019,3.0.5,59.991014183804,
To what extent did the music make you feel ,GUILTY,30MonoWAV/30MonoS4.wav,1,1,3,12,,,,,0,9,9,11,0,4,4,5,,,,,,,,,2,1.1902421590057202,,,027,001,2019_May_14_1009,MusicAffectPsychophysiology2019,3.0.5,59.991014183804,
To what extent did the music make you feel ,HAPPY,30MonoWAV/30MonoS4.wav,1,1,3,12,,,,,0,9,9,11,0,5,5,6,,,,,,,,,1,0.8346655720088165,,,027,001,2019_May_14_1009,MusicAffectPsychophysiology2019,3.0.5,59.991014183804,
To what extent did the music make you feel ,SAD,30MonoWAV/30MonoS4.wav,1,1,3,12,,,,,0,9,9,11,0,6,6,0,,,,,,,,,5,1.5006562009948539,,,027,001,2019_May_14_1009,MusicAffectPsychophysiology2019,3.0.5,59.991014183804,
To what extent did the music make you feel ,ASHAMED,30MonoWAV/30MonoS4.wav,1,1,3,12,,,,,0,9,9,11,0,7,7,4,,,,,,,,,3,1.4187454119964968,,,027,001,2019_May_14_1009,MusicAffectPsychophysiology2019,3.0.5,59.991014183804,
To what extent did the music make you feel ,ANXIOUS ,30MonoWAV/30MonoS4.wav,1,1,3,12,,,,,0,9,9,11,0,8,8,1,,,,,,,,,3,1.7023690920032095,,,027,001,2019_May_14_1009,MusicAffectPsychophysiology2019,3.0.5,59.991014183804,
To what extent did the music make you feel ,SCARED,30MonoWAV/30MonoS4.wav,1,1,3,12,,,,,0,9,9,11,0,9,9,11,,,,,,,,,2,1.3190879100002348,,,027,001,2019_May_14_1009,MusicAffectPsychophysiology2019,3.0.5,59.991014183804,
To what extent did the music make you feel ,FRUSTRATED,30MonoWAV/30MonoS4.wav,1,1,3,12,,,,,0,9,9,11,0,10,10,3,,,,,,,,,3,1.3363499369879719,,,027,001,2019_May_14_1009,MusicAffectPsychophysiology2019,3.0.5,59.991014183804,
To what extent did the music make you feel ,TENDER,30MonoWAV/30MonoS4.wav,1,1,3,12,,,,,0,9,9,11,0,11,11,10,,,,,,,,,2,1.369539283987251,,,027,001,2019_May_14_1009,MusicAffectPsychophysiology2019,3.0.5,59.991014183804,
,,30MonoWAV/30MonoS4.wav,1,1,3,12,,,,,0,9,9,11,,,,,,,,,,,,,,,,,027,001,2019_May_14_1009,MusicAffectPsychophysiology2019,3.0.5,59.991014183804,
To what extent did the music make you feel ,GUILTY,30MonoWAV/30MonoH4.wav,2,2,1,8,,,,,0,10,10,7,0,0,0,5,,,4,3.567794020011206,4,1.8011259409977356,3,1.572918384001241,1,1.3368812480039196,,,027,001,2019_May_14_1009,MusicAffectPsychophysiology2019,3.0.5,59.991014183804,
To what extent did the music make you feel ,HAPPY,30MonoWAV/30MonoH4.wav,2,2,1,8,,,,,0,10,10,7,0,1,1,6,,,,,,,,,5,1.1863697299995692,,,027,001,2019_May_14_1009,MusicAffectPsychophysiology2019,3.0.5,59.991014183804,
To what extent did the music make you feel ,ANGRY,30MonoWAV/30MonoH4.wav,2,2,1,8,,,,,0,10,10,7,0,2,2,2,,,,,,,,,1,1.41934675599623,,,027,001,2019_May_14_1009,MusicAffectPsychophysiology2019,3.0.5,59.991014183804,
To what extent did the music make you feel ,ACTIVE,30MonoWAV/30MonoH4.wav,2,2,1,8,,,,,0,10,10,7,0,3,3,9,,,,,,,,,5,1.5204381410003407,,,027,001,2019_May_14_1009,MusicAffectPsychophysiology2019,3.0.5,59.991014183804,
To what extent did the music make you feel ,SCARED,30MonoWAV/30MonoH4.wav,2,2,1,8,,,,,0,10,10,7,0,4,4,11,,,,,,,,,1,1.1570592509960989,,,027,001,2019_May_14_1009,MusicAffectPsychophysiology2019,3.0.5,59.991014183804,
To what extent did the music make you feel ,SAD,30MonoWAV/30MonoH4.wav,2,2,1,8,,,,,0,10,10,7,0,5,5,0,,,,,,,,,1,0.9851070549921133,,,027,001,2019_May_14_1009,MusicAffectPsychophysiology2019,3.0.5,59.991014183804,
To what extent did the music make you feel ,FRUSTRATED,30MonoWAV/30MonoH4.wav,2,2,1,8,,,,,0,10,10,7,0,6,6,3,,,,,,,,,1,1.3357566150079947,,,027,001,2019_May_14_1009,MusicAffectPsychophysiology2019,3.0.5,59.991014183804,
To what extent did the music make you feel ,ALERT,30MonoWAV/30MonoH4.wav,2,2,1,8,,,,,0,10,10,7,0,7,7,8,,,,,,,,,1,1.1335803130059503,,,027,001,2019_May_14_1009,MusicAffectPsychophysiology2019,3.0.5,59.991014183804,
To what extent did the music make you feel ,ASHAMED,30MonoWAV/30MonoH4.wav,2,2,1,8,,,,,0,10,10,7,0,8,8,4,,,,,,,,,2,1.4523168099985924,,,027,001,2019_May_14_1009,MusicAffectPsychophysiology2019,3.0.5,59.991014183804,
To what extent did the music make you feel ,TENDER,30MonoWAV/30MonoH4.wav,2,2,1,8,,,,,0,10,10,7,0,9,9,10,,,,,,,,,1,1.100022105005337,,,027,001,2019_May_14_1009,MusicAffectPsychophysiology2019,3.0.5,59.991014183804,
To what extent did the music make you feel ,EXCITED,30MonoWAV/30MonoH4.wav,2,2,1,8,,,,,0,10,10,7,0,10,10,7,,,,,,,,,4,1.26863487099763,,,027,001,2019_May_14_1009,MusicAffectPsychophysiology2019,3.0.5,59.991014183804,
To what extent did the music make you feel ,ANXIOUS ,30MonoWAV/30MonoH4.wav,2,2,1,8,,,,,0,10,10,7,0,11,11,1,,,,,,,,,1,2.2841486419929424,,,027,001,2019_May_14_1009,MusicAffectPsychophysiology2019,3.0.5,59.991014183804,
,,30MonoWAV/30MonoH4.wav,2,2,1,8,,,,,0,10,10,7,,,,,,,,,,,,,,,,,027,001,2019_May_14_1009,MusicAffectPsychophysiology2019,3.0.5,59.991014183804,
To what extent did the music make you feel ,ASHAMED,30MonoWAV/30MonoT3.wav,2,1,4,15,,,,,0,11,11,14,0,0,0,4,,,2,2.7350486569921486,2,1.3850306590029504,2,1.1834919819957577,1,1.5864146429958055,,,027,001,2019_May_14_1009,MusicAffectPsychophysiology2019,3.0.5,59.991014183804,
To what extent did the music make you feel ,SAD,30MonoWAV/30MonoT3.wav,2,1,4,15,,,,,0,11,11,14,0,1,1,0,,,,,,,,,4,3.7019841489964165,,,027,001,2019_May_14_1009,MusicAffectPsychophysiology2019,3.0.5,59.991014183804,
To what extent did the music make you feel ,ANGRY,30MonoWAV/30MonoT3.wav,2,1,4,15,,,,,0,11,11,14,0,2,2,2,,,,,,,,,1,1.2354944659891771,,,027,001,2019_May_14_1009,MusicAffectPsychophysiology2019,3.0.5,59.991014183804,
To what extent did the music make you feel ,TENDER,30MonoWAV/30MonoT3.wav,2,1,4,15,,,,,0,11,11,14,0,3,3,10,,,,,,,,,3,2.1516581439937,,,027,001,2019_May_14_1009,MusicAffectPsychophysiology2019,3.0.5,59.991014183804,
To what extent did the music make you feel ,EXCITED,30MonoWAV/30MonoT3.wav,2,1,4,15,,,,,0,11,11,14,0,4,4,7,,,,,,,,,1,1.31958465698699,,,027,001,2019_May_14_1009,MusicAffectPsychophysiology2019,3.0.5,59.991014183804,
To what extent did the music make you feel ,SCARED,30MonoWAV/30MonoT3.wav,2,1,4,15,,,,,0,11,11,14,0,5,5,11,,,,,,,,,1,1.3357137699931627,,,027,001,2019_May_14_1009,MusicAffectPsychophysiology2019,3.0.5,59.991014183804,
To what extent did the music make you feel ,GUILTY,30MonoWAV/30MonoT3.wav,2,1,4,15,,,,,0,11,11,14,0,6,6,5,,,,,,,,,1,0.9519056579883909,,,027,001,2019_May_14_1009,MusicAffectPsychophysiology2019,3.0.5,59.991014183804,
To what extent did the music make you feel ,HAPPY,30MonoWAV/30MonoT3.wav,2,1,4,15,,,,,0,11,11,14,0,7,7,6,,,,,,,,,1,1.852411950007081,,,027,001,2019_May_14_1009,MusicAffectPsychophysiology2019,3.0.5,59.991014183804,
To what extent did the music make you feel ,FRUSTRATED,30MonoWAV/30MonoT3.wav,2,1,4,15,,,,,0,11,11,14,0,8,8,3,,,,,,,,,3,1.8232286739948904,,,027,001,2019_May_14_1009,MusicAffectPsychophysiology2019,3.0.5,59.991014183804,
To what extent did the music make you feel ,ALERT,30MonoWAV/30MonoT3.wav,2,1,4,15,,,,,0,11,11,14,0,9,9,8,,,,,,,,,2,1.0535149580100551,,,027,001,2019_May_14_1009,MusicAffectPsychophysiology2019,3.0.5,59.991014183804,
To what extent did the music make you feel ,ACTIVE,30MonoWAV/30MonoT3.wav,2,1,4,15,,,,,0,11,11,14,0,10,10,9,,,,,,,,,1,2.1872698750084965,,,027,001,2019_May_14_1009,MusicAffectPsychophysiology2019,3.0.5,59.991014183804,
To what extent did the music make you feel ,ANXIOUS ,30MonoWAV/30MonoT3.wav,2,1,4,15,,,,,0,11,11,14,0,11,11,1,,,,,,,,,4,1.9548907029966358,,,027,001,2019_May_14_1009,MusicAffectPsychophysiology2019,3.0.5,59.991014183804,
,,30MonoWAV/30MonoT3.wav,2,1,4,15,,,,,0,11,11,14,,,,,,,,,,,,,,,,,027,001,2019_May_14_1009,MusicAffectPsychophysiology2019,3.0.5,59.991014183804,
To what extent did the music make you feel ,ANGRY,30MonoWAV/30MonoF2.wav,1,2,2,2,,,,,0,12,12,1,0,0,0,2,,,3,4.449864000998787,1,0.8524857510055881,3,2.651361056996393,2,2.5017161750001833,,,027,001,2019_May_14_1009,MusicAffectPsychophysiology2019,3.0.5,59.991014183804,
To what extent did the music make you feel ,GUILTY,30MonoWAV/30MonoF2.wav,1,2,2,2,,,,,0,12,12,1,0,1,1,5,,,,,,,,,4,1.168900650998694,,,027,001,2019_May_14_1009,MusicAffectPsychophysiology2019,3.0.5,59.991014183804,
To what extent did the music make you feel ,HAPPY,30MonoWAV/30MonoF2.wav,1,2,2,2,,,,,0,12,12,1,0,2,2,6,,,,,,,,,1,1.6017616989993257,,,027,001,2019_May_14_1009,MusicAffectPsychophysiology2019,3.0.5,59.991014183804,
To what extent did the music make you feel ,ACTIVE,30MonoWAV/30MonoF2.wav,1,2,2,2,,,,,0,12,12,1,0,3,3,9,,,,,,,,,2,1.46922495799663,,,027,001,2019_May_14_1009,MusicAffectPsychophysiology2019,3.0.5,59.991014183804,
To what extent did the music make you feel ,TENDER,30MonoWAV/30MonoF2.wav,1,2,2,2,,,,,0,12,12,1,0,4,4,10,,,,,,,,,4,1.2172098559967708,,,027,001,2019_May_14_1009,MusicAffectPsychophysiology2019,3.0.5,59.991014183804,
To what extent did the music make you feel ,FRUSTRATED,30MonoWAV/30MonoF2.wav,1,2,2,2,,,,,0,12,12,1,0,5,5,3,,,,,,,,,4,1.1176827610033797,,,027,001,2019_May_14_1009,MusicAffectPsychophysiology2019,3.0.5,59.991014183804,
To what extent did the music make you feel ,ASHAMED,30MonoWAV/30MonoF2.wav,1,2,2,2,,,,,0,12,12,1,0,6,6,4,,,,,,,,,4,1.1180781809962355,,,027,001,2019_May_14_1009,MusicAffectPsychophysiology2019,3.0.5,59.991014183804,
To what extent did the music make you feel ,SCARED,30MonoWAV/30MonoF2.wav,1,2,2,2,,,,,0,12,12,1,0,7,7,11,,,,,,,,,5,1.1680908419948537,,,027,001,2019_May_14_1009,MusicAffectPsychophysiology2019,3.0.5,59.991014183804,
To what extent did the music make you feel ,ALERT,30MonoWAV/30MonoF2.wav,1,2,2,2,,,,,0,12,12,1,0,8,8,8,,,,,,,,,3,1.15162767599395,,,027,001,2019_May_14_1009,MusicAffectPsychophysiology2019,3.0.5,59.991014183804,
To what extent did the music make you feel ,SAD,30MonoWAV/30MonoF2.wav,1,2,2,2,,,,,0,12,12,1,0,9,9,0,,,,,,,,,2,1.9004095480049727,,,027,001,2019_May_14_1009,MusicAffectPsychophysiology2019,3.0.5,59.991014183804,
To what extent did the music make you feel ,ANXIOUS ,30MonoWAV/30MonoF2.wav,1,2,2,2,,,,,0,12,12,1,0,10,10,1,,,,,,,,,5,1.5190216940100072,,,027,001,2019_May_14_1009,MusicAffectPsychophysiology2019,3.0.5,59.991014183804,
To what extent did the music make you feel ,EXCITED,30MonoWAV/30MonoF2.wav,1,2,2,2,,,,,0,12,12,1,0,11,11,7,,,,,,,,,2,1.4693125210033031,,,027,001,2019_May_14_1009,MusicAffectPsychophysiology2019,3.0.5,59.991014183804,
,,30MonoWAV/30MonoF2.wav,1,2,2,2,,,,,0,12,12,1,,,,,,,,,,,,,,,,,027,001,2019_May_14_1009,MusicAffectPsychophysiology2019,3.0.5,59.991014183804,
To what extent did the music make you feel ,TENDER,30MonoWAV/30MonoS1.wav,1,1,3,9,,,,,0,13,13,8,0,0,0,10,,,1,3.0022242740087677,1,1.5366136700031348,2,1.4023128939879825,2,2.1676740669936407,,,027,001,2019_May_14_1009,MusicAffectPsychophysiology2019,3.0.5,59.991014183804,
To what extent did the music make you feel ,HAPPY,30MonoWAV/30MonoS1.wav,1,1,3,9,,,,,0,13,13,8,0,1,1,6,,,,,,,,,1,1.1021766909980215,,,027,001,2019_May_14_1009,MusicAffectPsychophysiology2019,3.0.5,59.991014183804,
To what extent did the music make you feel ,ALERT,30MonoWAV/30MonoS1.wav,1,1,3,9,,,,,0,13,13,8,0,2,2,8,,,,,,,,,3,1.1676259950036183,,,027,001,2019_May_14_1009,MusicAffectPsychophysiology2019,3.0.5,59.991014183804,
To what extent did the music make you feel ,ANXIOUS ,30MonoWAV/30MonoS1.wav,1,1,3,9,,,,,0,13,13,8,0,3,3,1,,,,,,,,,3,1.5862459509953624,,,027,001,2019_May_14_1009,MusicAffectPsychophysiology2019,3.0.5,59.991014183804,
To what extent did the music make you feel ,FRUSTRATED,30MonoWAV/30MonoS1.wav,1,1,3,9,,,,,0,13,13,8,0,4,4,3,,,,,,,,,2,1.2020360169990454,,,027,001,2019_May_14_1009,MusicAffectPsychophysiology2019,3.0.5,59.991014183804,
To what extent did the music make you feel ,EXCITED,30MonoWAV/30MonoS1.wav,1,1,3,9,,,,,0,13,13,8,0,5,5,7,,,,,,,,,1,1.185405099997297,,,027,001,2019_May_14_1009,MusicAffectPsychophysiology2019,3.0.5,59.991014183804,
To what extent did the music make you feel ,GUILTY,30MonoWAV/30MonoS1.wav,1,1,3,9,,,,,0,13,13,8,0,6,6,5,,,,,,,,,1,2.892485417003627,,,027,001,2019_May_14_1009,MusicAffectPsychophysiology2019,3.0.5,59.991014183804,
To what extent did the music make you feel ,SAD,30MonoWAV/30MonoS1.wav,1,1,3,9,,,,,0,13,13,8,0,7,7,0,,,,,,,,,5,1.569362320995424,,,027,001,2019_May_14_1009,MusicAffectPsychophysiology2019,3.0.5,59.991014183804,
To what extent did the music make you feel ,ASHAMED,30MonoWAV/30MonoS1.wav,1,1,3,9,,,,,0,13,13,8,0,8,8,4,,,,,,,,,4,1.1708795659942552,,,027,001,2019_May_14_1009,MusicAffectPsychophysiology2019,3.0.5,59.991014183804,
To what extent did the music make you feel ,SCARED,30MonoWAV/30MonoS1.wav,1,1,3,9,,,,,0,13,13,8,0,9,9,11,,,,,,,,,2,1.6571435799996834,,,027,001,2019_May_14_1009,MusicAffectPsychophysiology2019,3.0.5,59.991014183804,
To what extent did the music make you feel ,ANGRY,30MonoWAV/30MonoS1.wav,1,1,3,9,,,,,0,13,13,8,0,10,10,2,,,,,,,,,1,2.048856445006095,,,027,001,2019_May_14_1009,MusicAffectPsychophysiology2019,3.0.5,59.991014183804,
To what extent did the music make you feel ,ACTIVE,30MonoWAV/30MonoS1.wav,1,1,3,9,,,,,0,13,13,8,0,11,11,9,,,,,,,,,2,1.3874204599997029,,,027,001,2019_May_14_1009,MusicAffectPsychophysiology2019,3.0.5,59.991014183804,
,,30MonoWAV/30MonoS1.wav,1,1,3,9,,,,,0,13,13,8,,,,,,,,,,,,,,,,,027,001,2019_May_14_1009,MusicAffectPsychophysiology2019,3.0.5,59.991014183804,
To what extent did the music make you feel ,GUILTY,30MonoWAV/30MonoS2.wav,1,1,3,10,,,,,0,14,14,9,0,0,0,5,,,1,2.634908442996675,1,1.4353606899967417,2,1.4183708769996883,3,1.817208901993581,,,027,001,2019_May_14_1009,MusicAffectPsychophysiology2019,3.0.5,59.991014183804,
To what extent did the music make you feel ,ACTIVE,30MonoWAV/30MonoS2.wav,1,1,3,10,,,,,0,14,14,9,0,1,1,9,,,,,,,,,2,1.233754132001195,,,027,001,2019_May_14_1009,MusicAffectPsychophysiology2019,3.0.5,59.991014183804,
To what extent did the music make you feel ,EXCITED,30MonoWAV/30MonoS2.wav,1,1,3,10,,,,,0,14,14,9,0,2,2,7,,,,,,,,,1,1.6346071989974007,,,027,001,2019_May_14_1009,MusicAffectPsychophysiology2019,3.0.5,59.991014183804,
To what extent did the music make you feel ,SAD,30MonoWAV/30MonoS2.wav,1,1,3,10,,,,,0,14,14,9,0,3,3,0,,,,,,,,,4,1.252190266008256,,,027,001,2019_May_14_1009,MusicAffectPsychophysiology2019,3.0.5,59.991014183804,
To what extent did the music make you feel ,SCARED,30MonoWAV/30MonoS2.wav,1,1,3,10,,,,,0,14,14,9,0,4,4,11,,,,,,,,,2,1.7192630279896548,,,027,001,2019_May_14_1009,MusicAffectPsychophysiology2019,3.0.5,59.991014183804,
To what extent did the music make you feel ,ANGRY,30MonoWAV/30MonoS2.wav,1,1,3,10,,,,,0,14,14,9,0,5,5,2,,,,,,,,,3,2.735924160995637,,,027,001,2019_May_14_1009,MusicAffectPsychophysiology2019,3.0.5,59.991014183804,
To what extent did the music make you feel ,TENDER,30MonoWAV/30MonoS2.wav,1,1,3,10,,,,,0,14,14,9,0,6,6,10,,,,,,,,,4,1.7848028130101738,,,027,001,2019_May_14_1009,MusicAffectPsychophysiology2019,3.0.5,59.991014183804,
To what extent did the music make you feel ,ASHAMED,30MonoWAV/30MonoS2.wav,1,1,3,10,,,,,0,14,14,9,0,7,7,4,,,,,,,,,3,1.5180504369927803,,,027,001,2019_May_14_1009,MusicAffectPsychophysiology2019,3.0.5,59.991014183804,
To what extent did the music make you feel ,ALERT,30MonoWAV/30MonoS2.wav,1,1,3,10,,,,,0,14,14,9,0,8,8,8,,,,,,,,,2,1.6521834360028151,,,027,001,2019_May_14_1009,MusicAffectPsychophysiology2019,3.0.5,59.991014183804,
To what extent did the music make you feel ,HAPPY,30MonoWAV/30MonoS2.wav,1,1,3,10,,,,,0,14,14,9,0,9,9,6,,,,,,,,,1,1.4010465620085597,,,027,001,2019_May_14_1009,MusicAffectPsychophysiology2019,3.0.5,59.991014183804,
To what extent did the music make you feel ,ANXIOUS ,30MonoWAV/30MonoS2.wav,1,1,3,10,,,,,0,14,14,9,0,10,10,1,,,,,,,,,5,1.2017463500087615,,,027,001,2019_May_14_1009,MusicAffectPsychophysiology2019,3.0.5,59.991014183804,
To what extent did the music make you feel ,FRUSTRATED,30MonoWAV/30MonoS2.wav,1,1,3,10,,,,,0,14,14,9,0,11,11,3,,,,,,,,,3,1.5857807699940167,,,027,001,2019_May_14_1009,MusicAffectPsychophysiology2019,3.0.5,59.991014183804,
,,30MonoWAV/30MonoS2.wav,1,1,3,10,,,,,0,14,14,9,,,,,,,,,,,,,,,,,027,001,2019_May_14_1009,MusicAffectPsychophysiology2019,3.0.5,59.991014183804,
To what extent did the music make you feel ,FRUSTRATED,30MonoWAV/30MonoF3.wav,1,2,2,3,,,,,0,15,15,2,0,0,0,3,,,4,2.317679006999242,1,1.401413997009513,2,1.2518884129967773,3,1.4517933930037543,,,027,001,2019_May_14_1009,MusicAffectPsychophysiology2019,3.0.5,59.991014183804,
To what extent did the music make you feel ,ACTIVE,30MonoWAV/30MonoF3.wav,1,2,2,3,,,,,0,15,15,2,0,1,1,9,,,,,,,,,4,1.0525802909978665,,,027,001,2019_May_14_1009,MusicAffectPsychophysiology2019,3.0.5,59.991014183804,
To what extent did the music make you feel ,ANXIOUS ,30MonoWAV/30MonoF3.wav,1,2,2,3,,,,,0,15,15,2,0,2,2,1,,,,,,,,,5,1.2510050999990199,,,027,001,2019_May_14_1009,MusicAffectPsychophysiology2019,3.0.5,59.991014183804,
To what extent did the music make you feel ,SAD,30MonoWAV/30MonoF3.wav,1,2,2,3,,,,,0,15,15,2,0,3,3,0,,,,,,,,,2,1.3693252140074037,,,027,001,2019_May_14_1009,MusicAffectPsychophysiology2019,3.0.5,59.991014183804,
To what extent did the music make you feel ,HAPPY,30MonoWAV/30MonoF3.wav,1,2,2,3,,,,,0,15,15,2,0,4,4,6,,,,,,,,,1,1.1520951080019586,,,027,001,2019_May_14_1009,MusicAffectPsychophysiology2019,3.0.5,59.991014183804,
To what extent did the music make you feel ,EXCITED,30MonoWAV/30MonoF3.wav,1,2,2,3,,,,,0,15,15,2,0,5,5,7,,,,,,,,,4,1.2174903269915376,,,027,001,2019_May_14_1009,MusicAffectPsychophysiology2019,3.0.5,59.991014183804,
To what extent did the music make you feel ,ANGRY,30MonoWAV/30MonoF3.wav,1,2,2,3,,,,,0,15,15,2,0,6,6,2,,,,,,,,,2,1.218074162999983,,,027,001,2019_May_14_1009,MusicAffectPsychophysiology2019,3.0.5,59.991014183804,
To what extent did the music make you feel ,SCARED,30MonoWAV/30MonoF3.wav,1,2,2,3,,,,,0,15,15,2,0,7,7,11,,,,,,,,,4,2.535469294001814,,,027,001,2019_May_14_1009,MusicAffectPsychophysiology2019,3.0.5,59.991014183804,
To what extent did the music make you feel ,TENDER,30MonoWAV/30MonoF3.wav,1,2,2,3,,,,,0,15,15,2,0,8,8,10,,,,,,,,,3,1.1692550299922004,,,027,001,2019_May_14_1009,MusicAffectPsychophysiology2019,3.0.5,59.991014183804,
To what extent did the music make you feel ,ALERT,30MonoWAV/30MonoF3.wav,1,2,2,3,,,,,0,15,15,2,0,9,9,8,,,,,,,,,4,1.2004500640032347,,,027,001,2019_May_14_1009,MusicAffectPsychophysiology2019,3.0.5,59.991014183804,
To what extent did the music make you feel ,GUILTY,30MonoWAV/30MonoF3.wav,1,2,2,3,,,,,0,15,15,2,0,10,10,5,,,,,,,,,2,2.802168634996633,,,027,001,2019_May_14_1009,MusicAffectPsychophysiology2019,3.0.5,59.991014183804,
To what extent did the music make you feel ,ASHAMED,30MonoWAV/30MonoF3.wav,1,2,2,3,,,,,0,15,15,2,0,11,11,4,,,,,,,,,4,1.2848142220027512,,,027,001,2019_May_14_1009,MusicAffectPsychophysiology2019,3.0.5,59.991014183804,
,,30MonoWAV/30MonoF3.wav,1,2,2,3,,,,,0,15,15,2,,,,,,,,,,,,,,,,,027,001,2019_May_14_1009,MusicAffectPsychophysiology2019,3.0.5,59.991014183804,
To what extent did the music make you feel ,SCARED,30MonoWAV/30MonoF3.wav,1,2,2,3,,,,,1,0,16,2,0,0,0,11,,,3,4.701776949004852,1,1.2015042860002723,2,1.4339324629982002,4,2.1853658229956636,,,027,001,2019_May_14_1009,MusicAffectPsychophysiology2019,3.0.5,59.991014183804,
To what extent did the music make you feel ,ASHAMED,30MonoWAV/30MonoF3.wav,1,2,2,3,,,,,1,0,16,2,0,1,1,4,,,,,,,,,3,1.0855662520043552,,,027,001,2019_May_14_1009,MusicAffectPsychophysiology2019,3.0.5,59.991014183804,
To what extent did the music make you feel ,GUILTY,30MonoWAV/30MonoF3.wav,1,2,2,3,,,,,1,0,16,2,0,2,2,5,,,,,,,,,2,1.5333647209918126,,,027,001,2019_May_14_1009,MusicAffectPsychophysiology2019,3.0.5,59.991014183804,
To what extent did the music make you feel ,ANGRY,30MonoWAV/30MonoF3.wav,1,2,2,3,,,,,1,0,16,2,0,3,3,2,,,,,,,,,3,1.850708742000279,,,027,001,2019_May_14_1009,MusicAffectPsychophysiology2019,3.0.5,59.991014183804,
To what extent did the music make you feel ,TENDER,30MonoWAV/30MonoF3.wav,1,2,2,3,,,,,1,0,16,2,0,4,4,10,,,,,,,,,4,1.6524653100059368,,,027,001,2019_May_14_1009,MusicAffectPsychophysiology2019,3.0.5,59.991014183804,
To what extent did the music make you feel ,ALERT,30MonoWAV/30MonoF3.wav,1,2,2,3,,,,,1,0,16,2,0,5,5,8,,,,,,,,,2,1.3853779079945525,,,027,001,2019_May_14_1009,MusicAffectPsychophysiology2019,3.0.5,59.991014183804,
To what extent did the music make you feel ,HAPPY,30MonoWAV/30MonoF3.wav,1,2,2,3,,,,,1,0,16,2,0,6,6,6,,,,,,,,,1,1.1357059690053575,,,027,001,2019_May_14_1009,MusicAffectPsychophysiology2019,3.0.5,59.991014183804,
To what extent did the music make you feel ,ACTIVE,30MonoWAV/30MonoF3.wav,1,2,2,3,,,,,1,0,16,2,0,7,7,9,,,,,,,,,4,1.7997020000038901,,,027,001,2019_May_14_1009,MusicAffectPsychophysiology2019,3.0.5,59.991014183804,
To what extent did the music make you feel ,EXCITED,30MonoWAV/30MonoF3.wav,1,2,2,3,,,,,1,0,16,2,0,8,8,7,,,,,,,,,4,1.3017839070089394,,,027,001,2019_May_14_1009,MusicAffectPsychophysiology2019,3.0.5,59.991014183804,
To what extent did the music make you feel ,SAD,30MonoWAV/30MonoF3.wav,1,2,2,3,,,,,1,0,16,2,0,9,9,0,,,,,,,,,1,1.068290335999336,,,027,001,2019_May_14_1009,MusicAffectPsychophysiology2019,3.0.5,59.991014183804,
To what extent did the music make you feel ,FRUSTRATED,30MonoWAV/30MonoF3.wav,1,2,2,3,,,,,1,0,16,2,0,10,10,3,,,,,,,,,3,1.3846839720063144,,,027,001,2019_May_14_1009,MusicAffectPsychophysiology2019,3.0.5,59.991014183804,
To what extent did the music make you feel ,ANXIOUS ,30MonoWAV/30MonoF3.wav,1,2,2,3,,,,,1,0,16,2,0,11,11,1,,,,,,,,,4,1.7189416769979289,,,027,001,2019_May_14_1009,MusicAffectPsychophysiology2019,3.0.5,59.991014183804,
,,30MonoWAV/30MonoF3.wav,1,2,2,3,,,,,1,0,16,2,,,,,,,,,,,,,,,,,027,001,2019_May_14_1009,MusicAffectPsychophysiology2019,3.0.5,59.991014183804,
To what extent did the music make you feel ,ALERT,30MonoWAV/30MonoS1.wav,1,1,3,9,,,,,1,1,17,8,0,0,0,8,,,2,3.8417412089911522,1,1.151183598994976,2,1.7861863330035703,2,1.3338186640030472,,,027,001,2019_May_14_1009,MusicAffectPsychophysiology2019,3.0.5,59.991014183804,
To what extent did the music make you feel ,SCARED,30MonoWAV/30MonoS1.wav,1,1,3,9,,,,,1,1,17,8,0,1,1,11,,,,,,,,,1,2.2349597760039615,,,027,001,2019_May_14_1009,MusicAffectPsychophysiology2019,3.0.5,59.991014183804,
To what extent did the music make you feel ,FRUSTRATED,30MonoWAV/30MonoS1.wav,1,1,3,9,,,,,1,1,17,8,0,2,2,3,,,,,,,,,3,1.9361957579967566,,,027,001,2019_May_14_1009,MusicAffectPsychophysiology2019,3.0.5,59.991014183804,
To what extent did the music make you feel ,SAD,30MonoWAV/30MonoS1.wav,1,1,3,9,,,,,1,1,17,8,0,3,3,0,,,,,,,,,4,1.184105388005264,,,027,001,2019_May_14_1009,MusicAffectPsychophysiology2019,3.0.5,59.991014183804,
To what extent did the music make you feel ,GUILTY,30MonoWAV/30MonoS1.wav,1,1,3,9,,,,,1,1,17,8,0,4,4,5,,,,,,,,,2,1.2843180490017403,,,027,001,2019_May_14_1009,MusicAffectPsychophysiology2019,3.0.5,59.991014183804,
To what extent did the music make you feel ,ANGRY,30MonoWAV/30MonoS1.wav,1,1,3,9,,,,,1,1,17,8,0,5,5,2,,,,,,,,,1,1.5183704329974717,,,027,001,2019_May_14_1009,MusicAffectPsychophysiology2019,3.0.5,59.991014183804,
To what extent did the music make you feel ,ACTIVE,30MonoWAV/30MonoS1.wav,1,1,3,9,,,,,1,1,17,8,0,6,6,9,,,,,,,,,2,1.4518399449880235,,,027,001,2019_May_14_1009,MusicAffectPsychophysiology2019,3.0.5,59.991014183804,
To what extent did the music make you feel ,ANXIOUS ,30MonoWAV/30MonoS1.wav,1,1,3,9,,,,,1,1,17,8,0,7,7,1,,,,,,,,,5,1.5192199949960923,,,027,001,2019_May_14_1009,MusicAffectPsychophysiology2019,3.0.5,59.991014183804,
To what extent did the music make you feel ,EXCITED,30MonoWAV/30MonoS1.wav,1,1,3,9,,,,,1,1,17,8,0,8,8,7,,,,,,,,,1,1.4194074489932973,,,027,001,2019_May_14_1009,MusicAffectPsychophysiology2019,3.0.5,59.991014183804,
To what extent did the music make you feel ,HAPPY,30MonoWAV/30MonoS1.wav,1,1,3,9,,,,,1,1,17,8,0,9,9,6,,,,,,,,,1,1.5030417530069826,,,027,001,2019_May_14_1009,MusicAffectPsychophysiology2019,3.0.5,59.991014183804,
To what extent did the music make you feel ,TENDER,30MonoWAV/30MonoS1.wav,1,1,3,9,,,,,1,1,17,8,0,10,10,10,,,,,,,,,3,1.8353396019956563,,,027,001,2019_May_14_1009,MusicAffectPsychophysiology2019,3.0.5,59.991014183804,
To what extent did the music make you feel ,ASHAMED,30MonoWAV/30MonoS1.wav,1,1,3,9,,,,,1,1,17,8,0,11,11,4,,,,,,,,,4,1.4685631030006334,,,027,001,2019_May_14_1009,MusicAffectPsychophysiology2019,3.0.5,59.991014183804,
,,30MonoWAV/30MonoS1.wav,1,1,3,9,,,,,1,1,17,8,,,,,,,,,,,,,,,,,027,001,2019_May_14_1009,MusicAffectPsychophysiology2019,3.0.5,59.991014183804,
To what extent did the music make you feel ,ALERT,30MonoWAV/30MonoS4.wav,1,1,3,12,,,,,1,2,18,11,0,0,0,8,,,1,7.651147206997848,1,1.5019659660028992,2,3.718374179006787,2,1.619192281999858,,,027,001,2019_May_14_1009,MusicAffectPsychophysiology2019,3.0.5,59.991014183804,
To what extent did the music make you feel ,EXCITED,30MonoWAV/30MonoS4.wav,1,1,3,12,,,,,1,2,18,11,0,1,1,7,,,,,,,,,1,1.3360003529960522,,,027,001,2019_May_14_1009,MusicAffectPsychophysiology2019,3.0.5,59.991014183804,
To what extent did the music make you feel ,ANXIOUS ,30MonoWAV/30MonoS4.wav,1,1,3,12,,,,,1,2,18,11,0,2,2,1,,,,,,,,,3,1.5168221810017712,,,027,001,2019_May_14_1009,MusicAffectPsychophysiology2019,3.0.5,59.991014183804,
To what extent did the music make you feel ,GUILTY,30MonoWAV/30MonoS4.wav,1,1,3,12,,,,,1,2,18,11,0,3,3,5,,,,,,,,,2,1.3022712060046615,,,027,001,2019_May_14_1009,MusicAffectPsychophysiology2019,3.0.5,59.991014183804,
To what extent did the music make you feel ,TENDER,30MonoWAV/30MonoS4.wav,1,1,3,12,,,,,1,2,18,11,0,4,4,10,,,,,,,,,3,1.818665699000121,,,027,001,2019_May_14_1009,MusicAffectPsychophysiology2019,3.0.5,59.991014183804,
To what extent did the music make you feel ,ANGRY,30MonoWAV/30MonoS4.wav,1,1,3,12,,,,,1,2,18,11,0,5,5,2,,,,,,,,,2,3.0346699410001747,,,027,001,2019_May_14_1009,MusicAffectPsychophysiology2019,3.0.5,59.991014183804,
To what extent did the music make you feel ,ACTIVE,30MonoWAV/30MonoS4.wav,1,1,3,12,,,,,1,2,18,11,0,6,6,9,,,,,,,,,2,1.7843894149991684,,,027,001,2019_May_14_1009,MusicAffectPsychophysiology2019,3.0.5,59.991014183804,
To what extent did the music make you feel ,FRUSTRATED,30MonoWAV/30MonoS4.wav,1,1,3,12,,,,,1,2,18,11,0,7,7,3,,,,,,,,,4,1.3694873460044619,,,027,001,2019_May_14_1009,MusicAffectPsychophysiology2019,3.0.5,59.991014183804,
To what extent did the music make you feel ,ASHAMED,30MonoWAV/30MonoS4.wav,1,1,3,12,,,,,1,2,18,11,0,8,8,4,,,,,,,,,4,1.6674381220072974,,,027,001,2019_May_14_1009,MusicAffectPsychophysiology2019,3.0.5,59.991014183804,
To what extent did the music make you feel ,SAD,30MonoWAV/30MonoS4.wav,1,1,3,12,,,,,1,2,18,11,0,9,9,0,,,,,,,,,5,1.2177501059923088,,,027,001,2019_May_14_1009,MusicAffectPsychophysiology2019,3.0.5,59.991014183804,
To what extent did the music make you feel ,SCARED,30MonoWAV/30MonoS4.wav,1,1,3,12,,,,,1,2,18,11,0,10,10,11,,,,,,,,,1,2.1866256070061354,,,027,001,2019_May_14_1009,MusicAffectPsychophysiology2019,3.0.5,59.991014183804,
To what extent did the music make you feel ,HAPPY,30MonoWAV/30MonoS4.wav,1,1,3,12,,,,,1,2,18,11,0,11,11,6,,,,,,,,,1,1.150500321004074,,,027,001,2019_May_14_1009,MusicAffectPsychophysiology2019,3.0.5,59.991014183804,
,,30MonoWAV/30MonoS4.wav,1,1,3,12,,,,,1,2,18,11,,,,,,,,,,,,,,,,,027,001,2019_May_14_1009,MusicAffectPsychophysiology2019,3.0.5,59.991014183804,
To what extent did the music make you feel ,ANXIOUS ,30MonoWAV/30MonoH3.wav,2,2,1,7,,,,,1,3,19,6,0,0,0,1,,,3,2.785423199995421,4,2.401001010002801,2,3.584404987996095,2,1.584976394995465,,,027,001,2019_May_14_1009,MusicAffectPsychophysiology2019,3.0.5,59.991014183804,
To what extent did the music make you feel ,ALERT,30MonoWAV/30MonoH3.wav,2,2,1,7,,,,,1,3,19,6,0,1,1,8,,,,,,,,,2,1.3017896520032082,,,027,001,2019_May_14_1009,MusicAffectPsychophysiology2019,3.0.5,59.991014183804,
To what extent did the music make you feel ,TENDER,30MonoWAV/30MonoH3.wav,2,2,1,7,,,,,1,3,19,6,0,2,2,10,,,,,,,,,2,1.719485891997465,,,027,001,2019_May_14_1009,MusicAffectPsychophysiology2019,3.0.5,59.991014183804,
To what extent did the music make you feel ,GUILTY,30MonoWAV/30MonoH3.wav,2,2,1,7,,,,,1,3,19,6,0,3,3,5,,,,,,,,,1,1.0186199329909869,,,027,001,2019_May_14_1009,MusicAffectPsychophysiology2019,3.0.5,59.991014183804,
To what extent did the music make you feel ,SAD,30MonoWAV/30MonoH3.wav,2,2,1,7,,,,,1,3,19,6,0,4,4,0,,,,,,,,,1,1.0843676859949483,,,027,001,2019_May_14_1009,MusicAffectPsychophysiology2019,3.0.5,59.991014183804,
To what extent did the music make you feel ,EXCITED,30MonoWAV/30MonoH3.wav,2,2,1,7,,,,,1,3,19,6,0,5,5,7,,,,,,,,,5,1.2344138479966205,,,027,001,2019_May_14_1009,MusicAffectPsychophysiology2019,3.0.5,59.991014183804,
To what extent did the music make you feel ,ANGRY,30MonoWAV/30MonoH3.wav,2,2,1,7,,,,,1,3,19,6,0,6,6,2,,,,,,,,,1,2.033995364996372,,,027,001,2019_May_14_1009,MusicAffectPsychophysiology2019,3.0.5,59.991014183804,
To what extent did the music make you feel ,FRUSTRATED,30MonoWAV/30MonoH3.wav,2,2,1,7,,,,,1,3,19,6,0,7,7,3,,,,,,,,,1,2.068776329004322,,,027,001,2019_May_14_1009,MusicAffectPsychophysiology2019,3.0.5,59.991014183804,
To what extent did the music make you feel ,ASHAMED,30MonoWAV/30MonoH3.wav,2,2,1,7,,,,,1,3,19,6,0,8,8,4,,,,,,,,,1,1.301604922991828,,,027,001,2019_May_14_1009,MusicAffectPsychophysiology2019,3.0.5,59.991014183804,
To what extent did the music make you feel ,ACTIVE,30MonoWAV/30MonoH3.wav,2,2,1,7,,,,,1,3,19,6,0,9,9,9,,,,,,,,,5,1.2017931300069904,,,027,001,2019_May_14_1009,MusicAffectPsychophysiology2019,3.0.5,59.991014183804,
To what extent did the music make you feel ,HAPPY,30MonoWAV/30MonoH3.wav,2,2,1,7,,,,,1,3,19,6,0,10,10,6,,,,,,,,,3,1.7178531390090939,,,027,001,2019_May_14_1009,MusicAffectPsychophysiology2019,3.0.5,59.991014183804,
To what extent did the music make you feel ,SCARED,30MonoWAV/30MonoH3.wav,2,2,1,7,,,,,1,3,19,6,0,11,11,11,,,,,,,,,1,1.1177913330029696,,,027,001,2019_May_14_1009,MusicAffectPsychophysiology2019,3.0.5,59.991014183804,
,,30MonoWAV/30MonoH3.wav,2,2,1,7,,,,,1,3,19,6,,,,,,,,,,,,,,,,,027,001,2019_May_14_1009,MusicAffectPsychophysiology2019,3.0.5,59.991014183804,
To what extent did the music make you feel ,ASHAMED,30MonoWAV/30MonoT4.wav,2,1,4,16,,,,,1,4,20,15,0,0,0,4,,,3,2.702470764008467,2,1.567666264003492,3,2.0361817499942845,1,1.53463831100089,,,027,001,2019_May_14_1009,MusicAffectPsychophysiology2019,3.0.5,59.991014183804,
To what extent did the music make you feel ,ALERT,30MonoWAV/30MonoT4.wav,2,1,4,16,,,,,1,4,20,15,0,1,1,8,,,,,,,,,1,1.2181813940114807,,,027,001,2019_May_14_1009,MusicAffectPsychophysiology2019,3.0.5,59.991014183804,
To what extent did the music make you feel ,HAPPY,30MonoWAV/30MonoT4.wav,2,1,4,16,,,,,1,4,20,15,0,2,2,6,,,,,,,,,3,1.6348712210019585,,,027,001,2019_May_14_1009,MusicAffectPsychophysiology2019,3.0.5,59.991014183804,
To what extent did the music make you feel ,SAD,30MonoWAV/30MonoT4.wav,2,1,4,16,,,,,1,4,20,15,0,3,3,0,,,,,,,,,1,1.4183929949940648,,,027,001,2019_May_14_1009,MusicAffectPsychophysiology2019,3.0.5,59.991014183804,
To what extent did the music make you feel ,ANGRY,30MonoWAV/30MonoT4.wav,2,1,4,16,,,,,1,4,20,15,0,4,4,2,,,,,,,,,1,1.0343654839962255,,,027,001,2019_May_14_1009,MusicAffectPsychophysiology2019,3.0.5,59.991014183804,
To what extent did the music make you feel ,TENDER,30MonoWAV/30MonoT4.wav,2,1,4,16,,,,,1,4,20,15,0,5,5,10,,,,,,,,,1,1.4325968100019963,,,027,001,2019_May_14_1009,MusicAffectPsychophysiology2019,3.0.5,59.991014183804,
To what extent did the music make you feel ,GUILTY,30MonoWAV/30MonoT4.wav,2,1,4,16,,,,,1,4,20,15,0,6,6,5,,,,,,,,,1,1.150666915011243,,,027,001,2019_May_14_1009,MusicAffectPsychophysiology2019,3.0.5,59.991014183804,
To what extent did the music make you feel ,FRUSTRATED,30MonoWAV/30MonoT4.wav,2,1,4,16,,,,,1,4,20,15,0,7,7,3,,,,,,,,,2,1.1675719060003757,,,027,001,2019_May_14_1009,MusicAffectPsychophysiology2019,3.0.5,59.991014183804,
To what extent did the music make you feel ,ACTIVE,30MonoWAV/30MonoT4.wav,2,1,4,16,,,,,1,4,20,15,0,8,8,9,,,,,,,,,4,1.4022692029975588,,,027,001,2019_May_14_1009,MusicAffectPsychophysiology2019,3.0.5,59.991014183804,
To what extent did the music make you feel ,EXCITED,30MonoWAV/30MonoT4.wav,2,1,4,16,,,,,1,4,20,15,0,9,9,7,,,,,,,,,3,1.2341099309996935,,,027,001,2019_May_14_1009,MusicAffectPsychophysiology2019,3.0.5,59.991014183804,
To what extent did the music make you feel ,ANXIOUS ,30MonoWAV/30MonoT4.wav,2,1,4,16,,,,,1,4,20,15,0,10,10,1,,,,,,,,,1,1.322419941003318,,,027,001,2019_May_14_1009,MusicAffectPsychophysiology2019,3.0.5,59.991014183804,
To what extent did the music make you feel ,SCARED,30MonoWAV/30MonoT4.wav,2,1,4,16,,,,,1,4,20,15,0,11,11,11,,,,,,,,,1,1.2695523150032386,,,027,001,2019_May_14_1009,MusicAffectPsychophysiology2019,3.0.5,59.991014183804,
,,30MonoWAV/30MonoT4.wav,2,1,4,16,,,,,1,4,20,15,,,,,,,,,,,,,,,,,027,001,2019_May_14_1009,MusicAffectPsychophysiology2019,3.0.5,59.991014183804,
To what extent did the music make you feel ,SCARED,30MonoWAV/30MonoH1.wav,2,2,1,5,,,,,1,5,21,4,0,0,0,11,,,4,2.6519975569972303,4,1.7186955039942404,3,1.3029009790043347,1,2.285042055998929,,,027,001,2019_May_14_1009,MusicAffectPsychophysiology2019,3.0.5,59.991014183804,
To what extent did the music make you feel ,ACTIVE,30MonoWAV/30MonoH1.wav,2,2,1,5,,,,,1,5,21,4,0,1,1,9,,,,,,,,,5,1.4665789540013066,,,027,001,2019_May_14_1009,MusicAffectPsychophysiology2019,3.0.5,59.991014183804,
To what extent did the music make you feel ,ANXIOUS ,30MonoWAV/30MonoH1.wav,2,2,1,5,,,,,1,5,21,4,0,2,2,1,,,,,,,,,1,2.7347843750030734,,,027,001,2019_May_14_1009,MusicAffectPsychophysiology2019,3.0.5,59.991014183804,
To what extent did the music make you feel ,ASHAMED,30MonoWAV/30MonoH1.wav,2,2,1,5,,,,,1,5,21,4,0,3,3,4,,,,,,,,,2,1.1519121509918477,,,027,001,2019_May_14_1009,MusicAffectPsychophysiology2019,3.0.5,59.991014183804,
To what extent did the music make you feel ,EXCITED,30MonoWAV/30MonoH1.wav,2,2,1,5,,,,,1,5,21,4,0,4,4,7,,,,,,,,,4,1.4506913300137967,,,027,001,2019_May_14_1009,MusicAffectPsychophysiology2019,3.0.5,59.991014183804,
To what extent did the music make you feel ,ALERT,30MonoWAV/30MonoH1.wav,2,2,1,5,,,,,1,5,21,4,0,5,5,8,,,,,,,,,1,1.302444884000579,,,027,001,2019_May_14_1009,MusicAffectPsychophysiology2019,3.0.5,59.991014183804,
To what extent did the music make you feel ,HAPPY,30MonoWAV/30MonoH1.wav,2,2,1,5,,,,,1,5,21,4,0,6,6,6,,,,,,,,,5,1.1504983570048353,,,027,001,2019_May_14_1009,MusicAffectPsychophysiology2019,3.0.5,59.991014183804,
To what extent did the music make you feel ,TENDER,30MonoWAV/30MonoH1.wav,2,2,1,5,,,,,1,5,21,4,0,7,7,10,,,,,,,,,1,1.2347210330044618,,,027,001,2019_May_14_1009,MusicAffectPsychophysiology2019,3.0.5,59.991014183804,
To what extent did the music make you feel ,SAD,30MonoWAV/30MonoH1.wav,2,2,1,5,,,,,1,5,21,4,0,8,8,0,,,,,,,,,1,1.2687438150023809,,,027,001,2019_May_14_1009,MusicAffectPsychophysiology2019,3.0.5,59.991014183804,
To what extent did the music make you feel ,GUILTY,30MonoWAV/30MonoH1.wav,2,2,1,5,,,,,1,5,21,4,0,9,9,5,,,,,,,,,1,1.018218341996544,,,027,001,2019_May_14_1009,MusicAffectPsychophysiology2019,3.0.5,59.991014183804,
To what extent did the music make you feel ,ANGRY,30MonoWAV/30MonoH1.wav,2,2,1,5,,,,,1,5,21,4,0,10,10,2,,,,,,,,,1,1.200351702995249,,,027,001,2019_May_14_1009,MusicAffectPsychophysiology2019,3.0.5,59.991014183804,
To what extent did the music make you feel ,FRUSTRATED,30MonoWAV/30MonoH1.wav,2,2,1,5,,,,,1,5,21,4,0,11,11,3,,,,,,,,,1,1.1015082219964825,,,027,001,2019_May_14_1009,MusicAffectPsychophysiology2019,3.0.5,59.991014183804,
,,30MonoWAV/30MonoH1.wav,2,2,1,5,,,,,1,5,21,4,,,,,,,,,,,,,,,,,027,001,2019_May_14_1009,MusicAffectPsychophysiology2019,3.0.5,59.991014183804,
To what extent did the music make you feel ,ALERT,30MonoWAV/30MonoF2.wav,1,2,2,2,,,,,1,6,22,1,0,0,0,8,,,3,2.5362777300033486,1,1.2155651450011646,2,1.2181091079983162,2,1.3860850919882068,,,027,001,2019_May_14_1009,MusicAffectPsychophysiology2019,3.0.5,59.991014183804,
To what extent did the music make you feel ,ASHAMED,30MonoWAV/30MonoF2.wav,1,2,2,2,,,,,1,6,22,1,0,1,1,4,,,,,,,,,3,1.4856063760089455,,,027,001,2019_May_14_1009,MusicAffectPsychophysiology2019,3.0.5,59.991014183804,
To what extent did the music make you feel ,SCARED,30MonoWAV/30MonoF2.wav,1,2,2,2,,,,,1,6,22,1,0,2,2,11,,,,,,,,,5,1.2019245010014856,,,027,001,2019_May_14_1009,MusicAffectPsychophysiology2019,3.0.5,59.991014183804,
To what extent did the music make you feel ,ANGRY,30MonoWAV/30MonoF2.wav,1,2,2,2,,,,,1,6,22,1,0,3,3,2,,,,,,,,,3,1.7021496490051504,,,027,001,2019_May_14_1009,MusicAffectPsychophysiology2019,3.0.5,59.991014183804,
To what extent did the music make you feel ,TENDER,30MonoWAV/30MonoF2.wav,1,2,2,2,,,,,1,6,22,1,0,4,4,10,,,,,,,,,5,1.4182900440064259,,,027,001,2019_May_14_1009,MusicAffectPsychophysiology2019,3.0.5,59.991014183804,
To what extent did the music make you feel ,HAPPY,30MonoWAV/30MonoF2.wav,1,2,2,2,,,,,1,6,22,1,0,5,5,6,,,,,,,,,1,1.16798177799501,,,027,001,2019_May_14_1009,MusicAffectPsychophysiology2019,3.0.5,59.991014183804,
To what extent did the music make you feel ,EXCITED,30MonoWAV/30MonoF2.wav,1,2,2,2,,,,,1,6,22,1,0,6,6,7,,,,,,,,,3,1.5194414029974723,,,027,001,2019_May_14_1009,MusicAffectPsychophysiology2019,3.0.5,59.991014183804,
To what extent did the music make you feel ,ACTIVE,30MonoWAV/30MonoF2.wav,1,2,2,2,,,,,1,6,22,1,0,7,7,9,,,,,,,,,3,1.4002267440082505,,,027,001,2019_May_14_1009,MusicAffectPsychophysiology2019,3.0.5,59.991014183804,
To what extent did the music make you feel ,SAD,30MonoWAV/30MonoF2.wav,1,2,2,2,,,,,1,6,22,1,0,8,8,0,,,,,,,,,2,2.0681552890018793,,,027,001,2019_May_14_1009,MusicAffectPsychophysiology2019,3.0.5,59.991014183804,
To what extent did the music make you feel ,GUILTY,30MonoWAV/30MonoF2.wav,1,2,2,2,,,,,1,6,22,1,0,9,9,5,,,,,,,,,4,1.5355919790017651,,,027,001,2019_May_14_1009,MusicAffectPsychophysiology2019,3.0.5,59.991014183804,
To what extent did the music make you feel ,ANXIOUS ,30MonoWAV/30MonoF2.wav,1,2,2,2,,,,,1,6,22,1,0,10,10,1,,,,,,,,,5,1.8855356839922024,,,027,001,2019_May_14_1009,MusicAffectPsychophysiology2019,3.0.5,59.991014183804,
To what extent did the music make you feel ,FRUSTRATED,30MonoWAV/30MonoF2.wav,1,2,2,2,,,,,1,6,22,1,0,11,11,3,,,,,,,,,3,1.3339452859945595,,,027,001,2019_May_14_1009,MusicAffectPsychophysiology2019,3.0.5,59.991014183804,
,,30MonoWAV/30MonoF2.wav,1,2,2,2,,,,,1,6,22,1,,,,,,,,,,,,,,,,,027,001,2019_May_14_1009,MusicAffectPsychophysiology2019,3.0.5,59.991014183804,
To what extent did the music make you feel ,ANGRY,30MonoWAV/30MonoF1.wav,1,2,2,1,,,,,1,7,23,0,0,0,0,2,,,4,2.801535870996304,1,1.26892832100566,2,1.017696923998301,3,1.6359782560029998,,,027,001,2019_May_14_1009,MusicAffectPsychophysiology2019,3.0.5,59.991014183804,
To what extent did the music make you feel ,SCARED,30MonoWAV/30MonoF1.wav,1,2,2,1,,,,,1,7,23,0,0,1,1,11,,,,,,,,,2,1.4174171140039107,,,027,001,2019_May_14_1009,MusicAffectPsychophysiology2019,3.0.5,59.991014183804,
To what extent did the music make you feel ,ANXIOUS ,30MonoWAV/30MonoF1.wav,1,2,2,1,,,,,1,7,23,0,0,2,2,1,,,,,,,,,4,1.1852126849989872,,,027,001,2019_May_14_1009,MusicAffectPsychophysiology2019,3.0.5,59.991014183804,
To what extent did the music make you feel ,ASHAMED,30MonoWAV/30MonoF1.wav,1,2,2,1,,,,,1,7,23,0,0,3,3,4,,,,,,,,,3,1.135300947993528,,,027,001,2019_May_14_1009,MusicAffectPsychophysiology2019,3.0.5,59.991014183804,
To what extent did the music make you feel ,ACTIVE,30MonoWAV/30MonoF1.wav,1,2,2,1,,,,,1,7,23,0,0,4,4,9,,,,,,,,,5,1.1681954039959237,,,027,001,2019_May_14_1009,MusicAffectPsychophysiology2019,3.0.5,59.991014183804,
To what extent did the music make you feel ,TENDER,30MonoWAV/30MonoF1.wav,1,2,2,1,,,,,1,7,23,0,0,5,5,10,,,,,,,,,3,1.2018022400006885,,,027,001,2019_May_14_1009,MusicAffectPsychophysiology2019,3.0.5,59.991014183804,
To what extent did the music make you feel ,EXCITED,30MonoWAV/30MonoF1.wav,1,2,2,1,,,,,1,7,23,0,0,6,6,7,,,,,,,,,4,1.0499832649948075,,,027,001,2019_May_14_1009,MusicAffectPsychophysiology2019,3.0.5,59.991014183804,
To what extent did the music make you feel ,FRUSTRATED,30MonoWAV/30MonoF1.wav,1,2,2,1,,,,,1,7,23,0,0,7,7,3,,,,,,,,,2,1.3183785519941011,,,027,001,2019_May_14_1009,MusicAffectPsychophysiology2019,3.0.5,59.991014183804,
To what extent did the music make you feel ,SAD,30MonoWAV/30MonoF1.wav,1,2,2,1,,,,,1,7,23,0,0,8,8,0,,,,,,,,,1,1.0845028580079088,,,027,001,2019_May_14_1009,MusicAffectPsychophysiology2019,3.0.5,59.991014183804,
To what extent did the music make you feel ,ALERT,30MonoWAV/30MonoF1.wav,1,2,2,1,,,,,1,7,23,0,0,9,9,8,,,,,,,,,2,1.168878439013497,,,027,001,2019_May_14_1009,MusicAffectPsychophysiology2019,3.0.5,59.991014183804,
To what extent did the music make you feel ,HAPPY,30MonoWAV/30MonoF1.wav,1,2,2,1,,,,,1,7,23,0,0,10,10,6,,,,,,,,,1,0.9335428829945158,,,027,001,2019_May_14_1009,MusicAffectPsychophysiology2019,3.0.5,59.991014183804,
To what extent did the music make you feel ,GUILTY,30MonoWAV/30MonoF1.wav,1,2,2,1,,,,,1,7,23,0,0,11,11,5,,,,,,,,,2,1.535225747997174,,,027,001,2019_May_14_1009,MusicAffectPsychophysiology2019,3.0.5,59.991014183804,
,,30MonoWAV/30MonoF1.wav,1,2,2,1,,,,,1,7,23,0,,,,,,,,,,,,,,,,,027,001,2019_May_14_1009,MusicAffectPsychophysiology2019,3.0.5,59.991014183804,
To what extent did the music make you feel ,ANGRY,30MonoWAV/30MonoT1.wav,2,1,4,13,,,,,1,8,24,12,0,0,0,2,,,2,2.301622792991111,2,1.6180796839907998,2,1.3679374280036427,1,1.5681740859872662,,,027,001,2019_May_14_1009,MusicAffectPsychophysiology2019,3.0.5,59.991014183804,
To what extent did the music make you feel ,ASHAMED,30MonoWAV/30MonoT1.wav,2,1,4,13,,,,,1,8,24,12,0,1,1,4,,,,,,,,,2,2.3013360030017793,,,027,001,2019_May_14_1009,MusicAffectPsychophysiology2019,3.0.5,59.991014183804,
To what extent did the music make you feel ,FRUSTRATED,30MonoWAV/30MonoT1.wav,2,1,4,13,,,,,1,8,24,12,0,2,2,3,,,,,,,,,1,1.1185757890052628,,,027,001,2019_May_14_1009,MusicAffectPsychophysiology2019,3.0.5,59.991014183804,
To what extent did the music make you feel ,EXCITED,30MonoWAV/30MonoT1.wav,2,1,4,13,,,,,1,8,24,12,0,3,3,7,,,,,,,,,1,1.5180384539999068,,,027,001,2019_May_14_1009,MusicAffectPsychophysiology2019,3.0.5,59.991014183804,
To what extent did the music make you feel ,HAPPY,30MonoWAV/30MonoT1.wav,2,1,4,13,,,,,1,8,24,12,0,4,4,6,,,,,,,,,1,1.2178732489992399,,,027,001,2019_May_14_1009,MusicAffectPsychophysiology2019,3.0.5,59.991014183804,
To what extent did the music make you feel ,ACTIVE,30MonoWAV/30MonoT1.wav,2,1,4,13,,,,,1,8,24,12,0,5,5,9,,,,,,,,,1,1.7356038069992792,,,027,001,2019_May_14_1009,MusicAffectPsychophysiology2019,3.0.5,59.991014183804,
To what extent did the music make you feel ,SAD,30MonoWAV/30MonoT1.wav,2,1,4,13,,,,,1,8,24,12,0,6,6,0,,,,,,,,,3,1.2681248790031532,,,027,001,2019_May_14_1009,MusicAffectPsychophysiology2019,3.0.5,59.991014183804,
To what extent did the music make you feel ,ANXIOUS ,30MonoWAV/30MonoT1.wav,2,1,4,13,,,,,1,8,24,12,0,7,7,1,,,,,,,,,1,1.3518117789935786,,,027,001,2019_May_14_1009,MusicAffectPsychophysiology2019,3.0.5,59.991014183804,
To what extent did the music make you feel ,TENDER,30MonoWAV/30MonoT1.wav,2,1,4,13,,,,,1,8,24,12,0,8,8,10,,,,,,,,,1,2.4517110859887907,,,027,001,2019_May_14_1009,MusicAffectPsychophysiology2019,3.0.5,59.991014183804,
To what extent did the music make you feel ,ALERT,30MonoWAV/30MonoT1.wav,2,1,4,13,,,,,1,8,24,12,0,9,9,8,,,,,,,,,2,0.9352528729941696,,,027,001,2019_May_14_1009,MusicAffectPsychophysiology2019,3.0.5,59.991014183804,
To what extent did the music make you feel ,SCARED,30MonoWAV/30MonoT1.wav,2,1,4,13,,,,,1,8,24,12,0,10,10,11,,,,,,,,,1,1.502635974000441,,,027,001,2019_May_14_1009,MusicAffectPsychophysiology2019,3.0.5,59.991014183804,
To what extent did the music make you feel ,GUILTY,30MonoWAV/30MonoT1.wav,2,1,4,13,,,,,1,8,24,12,0,11,11,5,,,,,,,,,1,1.3524502189975465,,,027,001,2019_May_14_1009,MusicAffectPsychophysiology2019,3.0.5,59.991014183804,
,,30MonoWAV/30MonoT1.wav,2,1,4,13,,,,,1,8,24,12,,,,,,,,,,,,,,,,,027,001,2019_May_14_1009,MusicAffectPsychophysiology2019,3.0.5,59.991014183804,
To what extent did the music make you feel ,HAPPY,30MonoWAV/30MonoF4.wav,1,2,2,4,,,,,1,9,25,3,0,0,0,6,,,3,3.0893539399985457,1,0.81935121800052,1,1.4074110420042416,1,1.3818108749983367,,,027,001,2019_May_14_1009,MusicAffectPsychophysiology2019,3.0.5,59.991014183804,
To what extent did the music make you feel ,GUILTY,30MonoWAV/30MonoF4.wav,1,2,2,4,,,,,1,9,25,3,0,1,1,5,,,,,,,,,4,1.2697647500026505,,,027,001,2019_May_14_1009,MusicAffectPsychophysiology2019,3.0.5,59.991014183804,
To what extent did the music make you feel ,FRUSTRATED,30MonoWAV/30MonoF4.wav,1,2,2,4,,,,,1,9,25,3,0,2,2,3,,,,,,,,,3,0.9858943319995888,,,027,001,2019_May_14_1009,MusicAffectPsychophysiology2019,3.0.5,59.991014183804,
To what extent did the music make you feel ,ALERT,30MonoWAV/30MonoF4.wav,1,2,2,4,,,,,1,9,25,3,0,3,3,8,,,,,,,,,3,1.2015210620011203,,,027,001,2019_May_14_1009,MusicAffectPsychophysiology2019,3.0.5,59.991014183804,
To what extent did the music make you feel ,TENDER,30MonoWAV/30MonoF4.wav,1,2,2,4,,,,,1,9,25,3,0,4,4,10,,,,,,,,,5,1.134970147992135,,,027,001,2019_May_14_1009,MusicAffectPsychophysiology2019,3.0.5,59.991014183804,
To what extent did the music make you feel ,ACTIVE,30MonoWAV/30MonoF4.wav,1,2,2,4,,,,,1,9,25,3,0,5,5,9,,,,,,,,,4,1.2183894829940982,,,027,001,2019_May_14_1009,MusicAffectPsychophysiology2019,3.0.5,59.991014183804,
To what extent did the music make you feel ,ANGRY,30MonoWAV/30MonoF4.wav,1,2,2,4,,,,,1,9,25,3,0,6,6,2,,,,,,,,,3,1.0681182569969678,,,027,001,2019_May_14_1009,MusicAffectPsychophysiology2019,3.0.5,59.991014183804,
To what extent did the music make you feel ,SAD,30MonoWAV/30MonoF4.wav,1,2,2,4,,,,,1,9,25,3,0,7,7,0,,,,,,,,,1,1.4180076459888369,,,027,001,2019_May_14_1009,MusicAffectPsychophysiology2019,3.0.5,59.991014183804,
To what extent did the music make you feel ,ASHAMED,30MonoWAV/30MonoF4.wav,1,2,2,4,,,,,1,9,25,3,0,8,8,4,,,,,,,,,1,0.9524101610004436,,,027,001,2019_May_14_1009,MusicAffectPsychophysiology2019,3.0.5,59.991014183804,
To what extent did the music make you feel ,EXCITED,30MonoWAV/30MonoF4.wav,1,2,2,4,,,,,1,9,25,3,0,9,9,7,,,,,,,,,4,1.3513504469883628,,,027,001,2019_May_14_1009,MusicAffectPsychophysiology2019,3.0.5,59.991014183804,
To what extent did the music make you feel ,SCARED,30MonoWAV/30MonoF4.wav,1,2,2,4,,,,,1,9,25,3,0,10,10,11,,,,,,,,,4,1.6178104290011106,,,027,001,2019_May_14_1009,MusicAffectPsychophysiology2019,3.0.5,59.991014183804,
To what extent did the music make you feel ,ANXIOUS ,30MonoWAV/30MonoF4.wav,1,2,2,4,,,,,1,9,25,3,0,11,11,1,,,,,,,,,4,1.0678397940064315,,,027,001,2019_May_14_1009,MusicAffectPsychophysiology2019,3.0.5,59.991014183804,
,,30MonoWAV/30MonoF4.wav,1,2,2,4,,,,,1,9,25,3,,,,,,,,,,,,,,,,,027,001,2019_May_14_1009,MusicAffectPsychophysiology2019,3.0.5,59.991014183804,
To what extent did the music make you feel ,SCARED,30MonoWAV/30MonoT3.wav,2,1,4,15,,,,,1,10,26,14,0,0,0,11,,,1,3.8521211959887296,3,1.235075358999893,2,1.534585358996992,1,1.3687230870127678,,,027,001,2019_May_14_1009,MusicAffectPsychophysiology2019,3.0.5,59.991014183804,
To what extent did the music make you feel ,GUILTY,30MonoWAV/30MonoT3.wav,2,1,4,15,,,,,1,10,26,14,0,1,1,5,,,,,,,,,1,0.9683682790055173,,,027,001,2019_May_14_1009,MusicAffectPsychophysiology2019,3.0.5,59.991014183804,
To what extent did the music make you feel ,ANGRY,30MonoWAV/30MonoT3.wav,2,1,4,15,,,,,1,10,26,14,0,2,2,2,,,,,,,,,1,0.8021661070088157,,,027,001,2019_May_14_1009,MusicAffectPsychophysiology2019,3.0.5,59.991014183804,
To what extent did the music make you feel ,TENDER,30MonoWAV/30MonoT3.wav,2,1,4,15,,,,,1,10,26,14,0,3,3,10,,,,,,,,,2,1.1186473190027755,,,027,001,2019_May_14_1009,MusicAffectPsychophysiology2019,3.0.5,59.991014183804,
To what extent did the music make you feel ,FRUSTRATED,30MonoWAV/30MonoT3.wav,2,1,4,15,,,,,1,10,26,14,0,4,4,3,,,,,,,,,2,1.167655545999878,,,027,001,2019_May_14_1009,MusicAffectPsychophysiology2019,3.0.5,59.991014183804,
To what extent did the music make you feel ,SAD,30MonoWAV/30MonoT3.wav,2,1,4,15,,,,,1,10,26,14,0,5,5,0,,,,,,,,,3,1.4513722150004469,,,027,001,2019_May_14_1009,MusicAffectPsychophysiology2019,3.0.5,59.991014183804,
To what extent did the music make you feel ,ACTIVE,30MonoWAV/30MonoT3.wav,2,1,4,15,,,,,1,10,26,14,0,6,6,9,,,,,,,,,1,1.4014795890107052,,,027,001,2019_May_14_1009,MusicAffectPsychophysiology2019,3.0.5,59.991014183804,
To what extent did the music make you feel ,ASHAMED,30MonoWAV/30MonoT3.wav,2,1,4,15,,,,,1,10,26,14,0,7,7,4,,,,,,,,,2,1.23499712299963,,,027,001,2019_May_14_1009,MusicAffectPsychophysiology2019,3.0.5,59.991014183804,
To what extent did the music make you feel ,ALERT,30MonoWAV/30MonoT3.wav,2,1,4,15,,,,,1,10,26,14,0,8,8,8,,,,,,,,,1,1.2021104680025019,,,027,001,2019_May_14_1009,MusicAffectPsychophysiology2019,3.0.5,59.991014183804,
To what extent did the music make you feel ,HAPPY,30MonoWAV/30MonoT3.wav,2,1,4,15,,,,,1,10,26,14,0,9,9,6,,,,,,,,,3,1.6513498460117262,,,027,001,2019_May_14_1009,MusicAffectPsychophysiology2019,3.0.5,59.991014183804,
To what extent did the music make you feel ,EXCITED,30MonoWAV/30MonoT3.wav,2,1,4,15,,,,,1,10,26,14,0,10,10,7,,,,,,,,,2,1.2521110439993208,,,027,001,2019_May_14_1009,MusicAffectPsychophysiology2019,3.0.5,59.991014183804,
To what extent did the music make you feel ,ANXIOUS ,30MonoWAV/30MonoT3.wav,2,1,4,15,,,,,1,10,26,14,0,11,11,1,,,,,,,,,1,2.8831456230109325,,,027,001,2019_May_14_1009,MusicAffectPsychophysiology2019,3.0.5,59.991014183804,
,,30MonoWAV/30MonoT3.wav,2,1,4,15,,,,,1,10,26,14,,,,,,,,,,,,,,,,,027,001,2019_May_14_1009,MusicAffectPsychophysiology2019,3.0.5,59.991014183804,
To what extent did the music make you feel ,SAD,30MonoWAV/30MonoT2.wav,2,1,4,14,,,,,1,11,27,13,0,0,0,0,,,1,2.9685581310041016,1,1.585530756987282,3,1.234995409991825,4,1.3186809430044377,,,027,001,2019_May_14_1009,MusicAffectPsychophysiology2019,3.0.5,59.991014183804,
To what extent did the music make you feel ,EXCITED,30MonoWAV/30MonoT2.wav,2,1,4,14,,,,,1,11,27,13,0,1,1,7,,,,,,,,,2,1.1676864519977244,,,027,001,2019_May_14_1009,MusicAffectPsychophysiology2019,3.0.5,59.991014183804,
To what extent did the music make you feel ,TENDER,30MonoWAV/30MonoT2.wav,2,1,4,14,,,,,1,11,27,13,0,2,2,10,,,,,,,,,2,1.766689657990355,,,027,001,2019_May_14_1009,MusicAffectPsychophysiology2019,3.0.5,59.991014183804,
To what extent did the music make you feel ,GUILTY,30MonoWAV/30MonoT2.wav,2,1,4,14,,,,,1,11,27,13,0,3,3,5,,,,,,,,,1,1.236402843001997,,,027,001,2019_May_14_1009,MusicAffectPsychophysiology2019,3.0.5,59.991014183804,
To what extent did the music make you feel ,ALERT,30MonoWAV/30MonoT2.wav,2,1,4,14,,,,,1,11,27,13,0,4,4,8,,,,,,,,,2,1.1351101170002948,,,027,001,2019_May_14_1009,MusicAffectPsychophysiology2019,3.0.5,59.991014183804,
To what extent did the music make you feel ,FRUSTRATED,30MonoWAV/30MonoT2.wav,2,1,4,14,,,,,1,11,27,13,0,5,5,3,,,,,,,,,1,1.2855909529898781,,,027,001,2019_May_14_1009,MusicAffectPsychophysiology2019,3.0.5,59.991014183804,
To what extent did the music make you feel ,ASHAMED,30MonoWAV/30MonoT2.wav,2,1,4,14,,,,,1,11,27,13,0,6,6,4,,,,,,,,,4,1.6065100799896754,,,027,001,2019_May_14_1009,MusicAffectPsychophysiology2019,3.0.5,59.991014183804,
To what extent did the music make you feel ,ANGRY,30MonoWAV/30MonoT2.wav,2,1,4,14,,,,,1,11,27,13,0,7,7,2,,,,,,,,,1,1.1522816680080723,,,027,001,2019_May_14_1009,MusicAffectPsychophysiology2019,3.0.5,59.991014183804,
To what extent did the music make you feel ,ACTIVE,30MonoWAV/30MonoT2.wav,2,1,4,14,,,,,1,11,27,13,0,8,8,9,,,,,,,,,2,1.3204013639915502,,,027,001,2019_May_14_1009,MusicAffectPsychophysiology2019,3.0.5,59.991014183804,
To what extent did the music make you feel ,HAPPY,30MonoWAV/30MonoT2.wav,2,1,4,14,,,,,1,11,27,13,0,9,9,6,,,,,,,,,1,0.9523061579966452,,,027,001,2019_May_14_1009,MusicAffectPsychophysiology2019,3.0.5,59.991014183804,
To what extent did the music make you feel ,SCARED,30MonoWAV/30MonoT2.wav,2,1,4,14,,,,,1,11,27,13,0,10,10,11,,,,,,,,,1,0.9026880769961281,,,027,001,2019_May_14_1009,MusicAffectPsychophysiology2019,3.0.5,59.991014183804,
To what extent did the music make you feel ,ANXIOUS ,30MonoWAV/30MonoT2.wav,2,1,4,14,,,,,1,11,27,13,0,11,11,1,,,,,,,,,1,1.601701139996294,,,027,001,2019_May_14_1009,MusicAffectPsychophysiology2019,3.0.5,59.991014183804,
,,30MonoWAV/30MonoT2.wav,2,1,4,14,,,,,1,11,27,13,,,,,,,,,,,,,,,,,027,001,2019_May_14_1009,MusicAffectPsychophysiology2019,3.0.5,59.991014183804,
To what extent did the music make you feel ,TENDER,30MonoWAV/30MonoH2.wav,2,2,1,6,,,,,1,12,28,5,0,0,0,10,,,3,2.9661330959934276,2,1.735035435995087,3,2.019343250009115,4,1.9430649670102866,,,027,001,2019_May_14_1009,MusicAffectPsychophysiology2019,3.0.5,59.991014183804,
To what extent did the music make you feel ,ACTIVE,30MonoWAV/30MonoH2.wav,2,2,1,6,,,,,1,12,28,5,0,1,1,9,,,,,,,,,5,1.0513234320096672,,,027,001,2019_May_14_1009,MusicAffectPsychophysiology2019,3.0.5,59.991014183804,
To what extent did the music make you feel ,FRUSTRATED,30MonoWAV/30MonoH2.wav,2,2,1,6,,,,,1,12,28,5,0,2,2,3,,,,,,,,,3,1.2190886879980098,,,027,001,2019_May_14_1009,MusicAffectPsychophysiology2019,3.0.5,59.991014183804,
To what extent did the music make you feel ,ALERT,30MonoWAV/30MonoH2.wav,2,2,1,6,,,,,1,12,28,5,0,3,3,8,,,,,,,,,3,1.2003346779965796,,,027,001,2019_May_14_1009,MusicAffectPsychophysiology2019,3.0.5,59.991014183804,
To what extent did the music make you feel ,HAPPY,30MonoWAV/30MonoH2.wav,2,2,1,6,,,,,1,12,28,5,0,4,4,6,,,,,,,,,2,1.6040573200007202,,,027,001,2019_May_14_1009,MusicAffectPsychophysiology2019,3.0.5,59.991014183804,
To what extent did the music make you feel ,ASHAMED,30MonoWAV/30MonoH2.wav,2,2,1,6,,,,,1,12,28,5,0,5,5,4,,,,,,,,,1,1.5517693549918476,,,027,001,2019_May_14_1009,MusicAffectPsychophysiology2019,3.0.5,59.991014183804,
To what extent did the music make you feel ,GUILTY,30MonoWAV/30MonoH2.wav,2,2,1,6,,,,,1,12,28,5,0,6,6,5,,,,,,,,,1,1.1516558050061576,,,027,001,2019_May_14_1009,MusicAffectPsychophysiology2019,3.0.5,59.991014183804,
To what extent did the music make you feel ,EXCITED,30MonoWAV/30MonoH2.wav,2,2,1,6,,,,,1,12,28,5,0,7,7,7,,,,,,,,,3,3.018468941998435,,,027,001,2019_May_14_1009,MusicAffectPsychophysiology2019,3.0.5,59.991014183804,
To what extent did the music make you feel ,SAD,30MonoWAV/30MonoH2.wav,2,2,1,6,,,,,1,12,28,5,0,8,8,0,,,,,,,,,1,1.268617085996084,,,027,001,2019_May_14_1009,MusicAffectPsychophysiology2019,3.0.5,59.991014183804,
To what extent did the music make you feel ,ANGRY,30MonoWAV/30MonoH2.wav,2,2,1,6,,,,,1,12,28,5,0,9,9,2,,,,,,,,,1,1.351780159995542,,,027,001,2019_May_14_1009,MusicAffectPsychophysiology2019,3.0.5,59.991014183804,
To what extent did the music make you feel ,SCARED,30MonoWAV/30MonoH2.wav,2,2,1,6,,,,,1,12,28,5,0,10,10,11,,,,,,,,,1,1.1511492419958813,,,027,001,2019_May_14_1009,MusicAffectPsychophysiology2019,3.0.5,59.991014183804,
To what extent did the music make you feel ,ANXIOUS ,30MonoWAV/30MonoH2.wav,2,2,1,6,,,,,1,12,28,5,0,11,11,1,,,,,,,,,3,1.6350210759992478,,,027,001,2019_May_14_1009,MusicAffectPsychophysiology2019,3.0.5,59.991014183804,
,,30MonoWAV/30MonoH2.wav,2,2,1,6,,,,,1,12,28,5,,,,,,,,,,,,,,,,,027,001,2019_May_14_1009,MusicAffectPsychophysiology2019,3.0.5,59.991014183804,
To what extent did the music make you feel ,ANXIOUS ,30MonoWAV/30MonoH4.wav,2,2,1,8,,,,,1,13,29,7,0,0,0,1,,,4,2.849511970009189,5,1.568224148999434,4,1.4851516850030748,1,1.6836388369993074,,,027,001,2019_May_14_1009,MusicAffectPsychophysiology2019,3.0.5,59.991014183804,
To what extent did the music make you feel ,ACTIVE,30MonoWAV/30MonoH4.wav,2,2,1,8,,,,,1,13,29,7,0,1,1,9,,,,,,,,,4,1.6354276500060223,,,027,001,2019_May_14_1009,MusicAffectPsychophysiology2019,3.0.5,59.991014183804,
To what extent did the music make you feel ,ASHAMED,30MonoWAV/30MonoH4.wav,2,2,1,8,,,,,1,13,29,7,0,2,2,4,,,,,,,,,2,1.0522789799870225,,,027,001,2019_May_14_1009,MusicAffectPsychophysiology2019,3.0.5,59.991014183804,
To what extent did the music make you feel ,TENDER,30MonoWAV/30MonoH4.wav,2,2,1,8,,,,,1,13,29,7,0,3,3,10,,,,,,,,,1,2.4340051010076422,,,027,001,2019_May_14_1009,MusicAffectPsychophysiology2019,3.0.5,59.991014183804,
To what extent did the music make you feel ,SCARED,30MonoWAV/30MonoH4.wav,2,2,1,8,,,,,1,13,29,7,0,4,4,11,,,,,,,,,1,0.9186731930094538,,,027,001,2019_May_14_1009,MusicAffectPsychophysiology2019,3.0.5,59.991014183804,
To what extent did the music make you feel ,ANGRY,30MonoWAV/30MonoH4.wav,2,2,1,8,,,,,1,13,29,7,0,5,5,2,,,,,,,,,1,0.9695562940032687,,,027,001,2019_May_14_1009,MusicAffectPsychophysiology2019,3.0.5,59.991014183804,
To what extent did the music make you feel ,HAPPY,30MonoWAV/30MonoH4.wav,2,2,1,8,,,,,1,13,29,7,0,6,6,6,,,,,,,,,4,1.3350567020097515,,,027,001,2019_May_14_1009,MusicAffectPsychophysiology2019,3.0.5,59.991014183804,
To what extent did the music make you feel ,SAD,30MonoWAV/30MonoH4.wav,2,2,1,8,,,,,1,13,29,7,0,7,7,0,,,,,,,,,1,1.1834237169969128,,,027,001,2019_May_14_1009,MusicAffectPsychophysiology2019,3.0.5,59.991014183804,
To what extent did the music make you feel ,ALERT,30MonoWAV/30MonoH4.wav,2,2,1,8,,,,,1,13,29,7,0,8,8,8,,,,,,,,,1,1.2520976959931431,,,027,001,2019_May_14_1009,MusicAffectPsychophysiology2019,3.0.5,59.991014183804,
To what extent did the music make you feel ,GUILTY,30MonoWAV/30MonoH4.wav,2,2,1,8,,,,,1,13,29,7,0,9,9,5,,,,,,,,,1,0.9850476959982188,,,027,001,2019_May_14_1009,MusicAffectPsychophysiology2019,3.0.5,59.991014183804,
To what extent did the music make you feel ,EXCITED,30MonoWAV/30MonoH4.wav,2,2,1,8,,,,,1,13,29,7,0,10,10,7,,,,,,,,,5,1.3023842410038924,,,027,001,2019_May_14_1009,MusicAffectPsychophysiology2019,3.0.5,59.991014183804,
To what extent did the music make you feel ,FRUSTRATED,30MonoWAV/30MonoH4.wav,2,2,1,8,,,,,1,13,29,7,0,11,11,3,,,,,,,,,1,1.4000126930041006,,,027,001,2019_May_14_1009,MusicAffectPsychophysiology2019,3.0.5,59.991014183804,
,,30MonoWAV/30MonoH4.wav,2,2,1,8,,,,,1,13,29,7,,,,,,,,,,,,,,,,,027,001,2019_May_14_1009,MusicAffectPsychophysiology2019,3.0.5,59.991014183804,
To what extent did the music make you feel ,SCARED,30MonoWAV/30MonoS3.wav,1,1,3,11,,,,,1,14,30,10,0,0,0,11,,,2,3.119261118990835,1,1.1342823059967486,2,1.367906501996913,3,1.4845702210004674,,,027,001,2019_May_14_1009,MusicAffectPsychophysiology2019,3.0.5,59.991014183804,
To what extent did the music make you feel ,ASHAMED,30MonoWAV/30MonoS3.wav,1,1,3,11,,,,,1,14,30,10,0,1,1,4,,,,,,,,,4,1.8857126770017203,,,027,001,2019_May_14_1009,MusicAffectPsychophysiology2019,3.0.5,59.991014183804,
To what extent did the music make you feel ,ACTIVE,30MonoWAV/30MonoS3.wav,1,1,3,11,,,,,1,14,30,10,0,2,2,9,,,,,,,,,2,2.1345810610073386,,,027,001,2019_May_14_1009,MusicAffectPsychophysiology2019,3.0.5,59.991014183804,
To what extent did the music make you feel ,ANXIOUS ,30MonoWAV/30MonoS3.wav,1,1,3,11,,,,,1,14,30,10,0,3,3,1,,,,,,,,,4,1.335358301002998,,,027,001,2019_May_14_1009,MusicAffectPsychophysiology2019,3.0.5,59.991014183804,
To what extent did the music make you feel ,HAPPY,30MonoWAV/30MonoS3.wav,1,1,3,11,,,,,1,14,30,10,0,4,4,6,,,,,,,,,1,0.951646168003208,,,027,001,2019_May_14_1009,MusicAffectPsychophysiology2019,3.0.5,59.991014183804,
To what extent did the music make you feel ,GUILTY,30MonoWAV/30MonoS3.wav,1,1,3,11,,,,,1,14,30,10,0,5,5,5,,,,,,,,,3,1.302489356006845,,,027,001,2019_May_14_1009,MusicAffectPsychophysiology2019,3.0.5,59.991014183804,
To what extent did the music make you feel ,TENDER,30MonoWAV/30MonoS3.wav,1,1,3,11,,,,,1,14,30,10,0,6,6,10,,,,,,,,,4,1.1392664700106252,,,027,001,2019_May_14_1009,MusicAffectPsychophysiology2019,3.0.5,59.991014183804,
To what extent did the music make you feel ,SAD,30MonoWAV/30MonoS3.wav,1,1,3,11,,,,,1,14,30,10,0,7,7,0,,,,,,,,,2,1.1029742660030024,,,027,001,2019_May_14_1009,MusicAffectPsychophysiology2019,3.0.5,59.991014183804,
To what extent did the music make you feel ,ANGRY,30MonoWAV/30MonoS3.wav,1,1,3,11,,,,,1,14,30,10,0,8,8,2,,,,,,,,,1,1.0523748699924909,,,027,001,2019_May_14_1009,MusicAffectPsychophysiology2019,3.0.5,59.991014183804,
To what extent did the music make you feel ,FRUSTRATED,30MonoWAV/30MonoS3.wav,1,1,3,11,,,,,1,14,30,10,0,9,9,3,,,,,,,,,3,1.1528784590045689,,,027,001,2019_May_14_1009,MusicAffectPsychophysiology2019,3.0.5,59.991014183804,
To what extent did the music make you feel ,EXCITED,30MonoWAV/30MonoS3.wav,1,1,3,11,,,,,1,14,30,10,0,10,10,7,,,,,,,,,2,1.5711232479952741,,,027,001,2019_May_14_1009,MusicAffectPsychophysiology2019,3.0.5,59.991014183804,
To what extent did the music make you feel ,ALERT,30MonoWAV/30MonoS3.wav,1,1,3,11,,,,,1,14,30,10,0,11,11,8,,,,,,,,,2,1.3690941279928666,,,027,001,2019_May_14_1009,MusicAffectPsychophysiology2019,3.0.5,59.991014183804,
,,30MonoWAV/30MonoS3.wav,1,1,3,11,,,,,1,14,30,10,,,,,,,,,,,,,,,,,027,001,2019_May_14_1009,MusicAffectPsychophysiology2019,3.0.5,59.991014183804,
To what extent did the music make you feel ,FRUSTRATED,30MonoWAV/30MonoS2.wav,1,1,3,10,,,,,1,15,31,9,0,0,0,3,,,1,2.700347681005951,2,1.2680342700041365,1,1.367947273000027,3,3.326548726996407,,,027,001,2019_May_14_1009,MusicAffectPsychophysiology2019,3.0.5,59.991014183804,
To what extent did the music make you feel ,ACTIVE,30MonoWAV/30MonoS2.wav,1,1,3,10,,,,,1,15,31,9,0,1,1,9,,,,,,,,,1,1.7188583940005628,,,027,001,2019_May_14_1009,MusicAffectPsychophysiology2019,3.0.5,59.991014183804,
To what extent did the music make you feel ,SCARED,30MonoWAV/30MonoS2.wav,1,1,3,10,,,,,1,15,31,9,0,2,2,11,,,,,,,,,2,1.4687081540032523,,,027,001,2019_May_14_1009,MusicAffectPsychophysiology2019,3.0.5,59.991014183804,
To what extent did the music make you feel ,ANXIOUS ,30MonoWAV/30MonoS2.wav,1,1,3,10,,,,,1,15,31,9,0,3,3,1,,,,,,,,,4,1.3676573789998656,,,027,001,2019_May_14_1009,MusicAffectPsychophysiology2019,3.0.5,59.991014183804,
To what extent did the music make you feel ,GUILTY,30MonoWAV/30MonoS2.wav,1,1,3,10,,,,,1,15,31,9,0,4,4,5,,,,,,,,,4,1.3690791060071206,,,027,001,2019_May_14_1009,MusicAffectPsychophysiology2019,3.0.5,59.991014183804,
To what extent did the music make you feel ,EXCITED,30MonoWAV/30MonoS2.wav,1,1,3,10,,,,,1,15,31,9,0,5,5,7,,,,,,,,,2,1.4506486750033218,,,027,001,2019_May_14_1009,MusicAffectPsychophysiology2019,3.0.5,59.991014183804,
To what extent did the music make you feel ,HAPPY,30MonoWAV/30MonoS2.wav,1,1,3,10,,,,,1,15,31,9,0,6,6,6,,,,,,,,,1,1.0556067059951602,,,027,001,2019_May_14_1009,MusicAffectPsychophysiology2019,3.0.5,59.991014183804,
To what extent did the music make you feel ,ANGRY,30MonoWAV/30MonoS2.wav,1,1,3,10,,,,,1,15,31,9,0,7,7,2,,,,,,,,,1,1.1031868260033661,,,027,001,2019_May_14_1009,MusicAffectPsychophysiology2019,3.0.5,59.991014183804,
To what extent did the music make you feel ,ALERT,30MonoWAV/30MonoS2.wav,1,1,3,10,,,,,1,15,31,9,0,8,8,8,,,,,,,,,3,1.0691379970085109,,,027,001,2019_May_14_1009,MusicAffectPsychophysiology2019,3.0.5,59.991014183804,
To what extent did the music make you feel ,TENDER,30MonoWAV/30MonoS2.wav,1,1,3,10,,,,,1,15,31,9,0,9,9,10,,,,,,,,,4,1.5196121799963294,,,027,001,2019_May_14_1009,MusicAffectPsychophysiology2019,3.0.5,59.991014183804,
To what extent did the music make you feel ,ASHAMED,30MonoWAV/30MonoS2.wav,1,1,3,10,,,,,1,15,31,9,0,10,10,4,,,,,,,,,4,1.7700572419998934,,,027,001,2019_May_14_1009,MusicAffectPsychophysiology2019,3.0.5,59.991014183804,
To what extent did the music make you feel ,SAD,30MonoWAV/30MonoS2.wav,1,1,3,10,,,,,1,15,31,9,0,11,11,0,,,,,,,,,4,1.6237744620011654,,,027,001,2019_May_14_1009,MusicAffectPsychophysiology2019,3.0.5,59.991014183804,
,,30MonoWAV/30MonoS2.wav,1,1,3,10,,,,,1,15,31,9,,,,,,,,,,,,,,,,,027,001,2019_May_14_1009,MusicAffectPsychophysiology2019,3.0.5,59.991014183804,
,,,,,,,,,,,,,,,,,,,,,,,,,,,,,space,340.28049624898995,027,001,2019_May_14_1009,MusicAffectPsychophysiology2019,3.0.5,59.991014183804,
