Instruction,Word,song,valence,arousal,affectcat,songmark,pracwords.thisRepN,pracwords.thisTrialN,pracwords.thisN,pracwords.thisIndex,songtrials.thisRepN,songtrials.thisTrialN,songtrials.thisN,songtrials.thisIndex,words.thisRepN,words.thisTrialN,words.thisN,words.thisIndex,begin.keys,begin.rt,arousalkey.keys,arousalkey.rt,valencekey.keys,valencekey.rt,likekey.keys,likekey.rt,WordResponse.keys,WordResponse.rt,participant,session,date,expName,psychopyVersion,frameRate,
,,,,,,,,,,,,,,,,,,,space,22.068182079005055,,,,,,,,,028,001,2019_May_14_1112,MusicAffectPsychophysiology2019,3.0.5,59.961308650102815,
,,,,,,,,,,,,,,,,,,,,,3,5.884527187998174,,,,,,,028,001,2019_May_14_1112,MusicAffectPsychophysiology2019,3.0.5,59.961308650102815,
,,,,,,,,,,,,,,,,,,,,,,,4,3.901692005005316,,,,,028,001,2019_May_14_1112,MusicAffectPsychophysiology2019,3.0.5,59.961308650102815,
,,,,,,,,,,,,,,,,,,,,,,,,,2,4.385160869001993,,,028,001,2019_May_14_1112,MusicAffectPsychophysiology2019,3.0.5,59.961308650102815,
To what extent did the music make you feel ,SAD,,,,,,0,0,0,0,,,,,,,,,,,,,,,,,2,7.411559186002705,028,001,2019_May_14_1112,MusicAffectPsychophysiology2019,3.0.5,59.961308650102815,
To what extent did the music make you feel ,GUILTY,,,,,,0,1,1,5,,,,,,,,,,,,,,,,,1,1.854750395010342,028,001,2019_May_14_1112,MusicAffectPsychophysiology2019,3.0.5,59.961308650102815,
To what extent did the music make you feel ,ALERT,,,,,,0,2,2,8,,,,,,,,,,,,,,,,,3,3.337069753004471,028,001,2019_May_14_1112,MusicAffectPsychophysiology2019,3.0.5,59.961308650102815,
To what extent did the music make you feel ,ACTIVE,,,,,,0,3,3,9,,,,,,,,,,,,,,,,,2,2.9015897560020676,028,001,2019_May_14_1112,MusicAffectPsychophysiology2019,3.0.5,59.961308650102815,
To what extent did the music make you feel ,HAPPY,,,,,,0,4,4,6,,,,,,,,,,,,,,,,,2,1.7010595289902994,028,001,2019_May_14_1112,MusicAffectPsychophysiology2019,3.0.5,59.961308650102815,
To what extent did the music make you feel ,ANGRY,,,,,,0,5,5,2,,,,,,,,,,,,,,,,,1,1.4515820350061404,028,001,2019_May_14_1112,MusicAffectPsychophysiology2019,3.0.5,59.961308650102815,
To what extent did the music make you feel ,EXCITED,,,,,,0,6,6,7,,,,,,,,,,,,,,,,,2,1.6518622349976795,028,001,2019_May_14_1112,MusicAffectPsychophysiology2019,3.0.5,59.961308650102815,
To what extent did the music make you feel ,FRUSTRATED,,,,,,0,7,7,3,,,,,,,,,,,,,,,,,1,1.684974281990435,028,001,2019_May_14_1112,MusicAffectPsychophysiology2019,3.0.5,59.961308650102815,
To what extent did the music make you feel ,TENDER,,,,,,0,8,8,10,,,,,,,,,,,,,,,,,1,2.951785540994024,028,001,2019_May_14_1112,MusicAffectPsychophysiology2019,3.0.5,59.961308650102815,
To what extent did the music make you feel ,SCARED,,,,,,0,9,9,11,,,,,,,,,,,,,,,,,2,1.8374749479989987,028,001,2019_May_14_1112,MusicAffectPsychophysiology2019,3.0.5,59.961308650102815,
To what extent did the music make you feel ,ASHAMED,,,,,,0,10,10,4,,,,,,,,,,,,,,,,,1,0.8510709319962189,028,001,2019_May_14_1112,MusicAffectPsychophysiology2019,3.0.5,59.961308650102815,
To what extent did the music make you feel ,ANXIOUS ,,,,,,0,11,11,1,,,,,,,,,,,,,,,,,2,1.970227427998907,028,001,2019_May_14_1112,MusicAffectPsychophysiology2019,3.0.5,59.961308650102815,
To what extent did the music make you feel ,GUILTY,30MonoWAV/30MonoT2.wav,2,1,4,14,,,,,0,0,0,13,0,0,0,5,,,3,4.035090486999252,4,4.451738203002606,4,2.1178611110080965,2,2.2850666290032677,028,001,2019_May_14_1112,MusicAffectPsychophysiology2019,3.0.5,59.961308650102815,
To what extent did the music make you feel ,EXCITED,30MonoWAV/30MonoT2.wav,2,1,4,14,,,,,0,0,0,13,0,1,1,7,,,,,,,,,4,4.668586976011284,028,001,2019_May_14_1112,MusicAffectPsychophysiology2019,3.0.5,59.961308650102815,
To what extent did the music make you feel ,ANGRY,30MonoWAV/30MonoT2.wav,2,1,4,14,,,,,0,0,0,13,0,2,2,2,,,,,,,,,1,1.334569573009503,028,001,2019_May_14_1112,MusicAffectPsychophysiology2019,3.0.5,59.961308650102815,
To what extent did the music make you feel ,SCARED,30MonoWAV/30MonoT2.wav,2,1,4,14,,,,,0,0,0,13,0,3,3,11,,,,,,,,,1,3.3349370140058454,028,001,2019_May_14_1112,MusicAffectPsychophysiology2019,3.0.5,59.961308650102815,
To what extent did the music make you feel ,SAD,30MonoWAV/30MonoT2.wav,2,1,4,14,,,,,0,0,0,13,0,4,4,0,,,,,,,,,2,1.601411105992156,028,001,2019_May_14_1112,MusicAffectPsychophysiology2019,3.0.5,59.961308650102815,
To what extent did the music make you feel ,TENDER,30MonoWAV/30MonoT2.wav,2,1,4,14,,,,,0,0,0,13,0,5,5,10,,,,,,,,,1,0.7847268180048559,028,001,2019_May_14_1112,MusicAffectPsychophysiology2019,3.0.5,59.961308650102815,
To what extent did the music make you feel ,ALERT,30MonoWAV/30MonoT2.wav,2,1,4,14,,,,,0,0,0,13,0,6,6,8,,,,,,,,,2,3.235446188991773,028,001,2019_May_14_1112,MusicAffectPsychophysiology2019,3.0.5,59.961308650102815,
To what extent did the music make you feel ,ACTIVE,30MonoWAV/30MonoT2.wav,2,1,4,14,,,,,0,0,0,13,0,7,7,9,,,,,,,,,2,2.018144243003917,028,001,2019_May_14_1112,MusicAffectPsychophysiology2019,3.0.5,59.961308650102815,
To what extent did the music make you feel ,ASHAMED,30MonoWAV/30MonoT2.wav,2,1,4,14,,,,,0,0,0,13,0,8,8,4,,,,,,,,,1,1.2186993680079468,028,001,2019_May_14_1112,MusicAffectPsychophysiology2019,3.0.5,59.961308650102815,
To what extent did the music make you feel ,FRUSTRATED,30MonoWAV/30MonoT2.wav,2,1,4,14,,,,,0,0,0,13,0,9,9,3,,,,,,,,,1,0.7179356919950806,028,001,2019_May_14_1112,MusicAffectPsychophysiology2019,3.0.5,59.961308650102815,
To what extent did the music make you feel ,HAPPY,30MonoWAV/30MonoT2.wav,2,1,4,14,,,,,0,0,0,13,0,10,10,6,,,,,,,,,4,2.033885709999595,028,001,2019_May_14_1112,MusicAffectPsychophysiology2019,3.0.5,59.961308650102815,
To what extent did the music make you feel ,ANXIOUS ,30MonoWAV/30MonoT2.wav,2,1,4,14,,,,,0,0,0,13,0,11,11,1,,,,,,,,,1,1.2864864919974934,028,001,2019_May_14_1112,MusicAffectPsychophysiology2019,3.0.5,59.961308650102815,
,,30MonoWAV/30MonoT2.wav,2,1,4,14,,,,,0,0,0,13,,,,,,,,,,,,,,,028,001,2019_May_14_1112,MusicAffectPsychophysiology2019,3.0.5,59.961308650102815,
To what extent did the music make you feel ,ANXIOUS ,30MonoWAV/30MonoS2.wav,1,1,3,10,,,,,0,1,1,9,0,0,0,1,,,1,3.3347420189966215,1,3.1183348310005385,2,1.752359036996495,2,1.8684319599997252,028,001,2019_May_14_1112,MusicAffectPsychophysiology2019,3.0.5,59.961308650102815,
To what extent did the music make you feel ,EXCITED,30MonoWAV/30MonoS2.wav,1,1,3,10,,,,,0,1,1,9,0,1,1,7,,,,,,,,,1,2.201367602989194,028,001,2019_May_14_1112,MusicAffectPsychophysiology2019,3.0.5,59.961308650102815,
To what extent did the music make you feel ,ANGRY,30MonoWAV/30MonoS2.wav,1,1,3,10,,,,,0,1,1,9,0,2,2,2,,,,,,,,,2,2.5186850590107497,028,001,2019_May_14_1112,MusicAffectPsychophysiology2019,3.0.5,59.961308650102815,
To what extent did the music make you feel ,SAD,30MonoWAV/30MonoS2.wav,1,1,3,10,,,,,0,1,1,9,0,3,3,0,,,,,,,,,4,1.9851013199950103,028,001,2019_May_14_1112,MusicAffectPsychophysiology2019,3.0.5,59.961308650102815,
To what extent did the music make you feel ,TENDER,30MonoWAV/30MonoS2.wav,1,1,3,10,,,,,0,1,1,9,0,4,4,10,,,,,,,,,3,1.986069939986919,028,001,2019_May_14_1112,MusicAffectPsychophysiology2019,3.0.5,59.961308650102815,
To what extent did the music make you feel ,HAPPY,30MonoWAV/30MonoS2.wav,1,1,3,10,,,,,0,1,1,9,0,5,5,6,,,,,,,,,2,4.38636353900074,028,001,2019_May_14_1112,MusicAffectPsychophysiology2019,3.0.5,59.961308650102815,
To what extent did the music make you feel ,GUILTY,30MonoWAV/30MonoS2.wav,1,1,3,10,,,,,0,1,1,9,0,6,6,5,,,,,,,,,2,1.8515880040067714,028,001,2019_May_14_1112,MusicAffectPsychophysiology2019,3.0.5,59.961308650102815,
To what extent did the music make you feel ,FRUSTRATED,30MonoWAV/30MonoS2.wav,1,1,3,10,,,,,0,1,1,9,0,7,7,3,,,,,,,,,1,1.0350824729976011,028,001,2019_May_14_1112,MusicAffectPsychophysiology2019,3.0.5,59.961308650102815,
To what extent did the music make you feel ,SCARED,30MonoWAV/30MonoS2.wav,1,1,3,10,,,,,0,1,1,9,0,8,8,11,,,,,,,,,1,1.0837843580084154,028,001,2019_May_14_1112,MusicAffectPsychophysiology2019,3.0.5,59.961308650102815,
To what extent did the music make you feel ,ACTIVE,30MonoWAV/30MonoS2.wav,1,1,3,10,,,,,0,1,1,9,0,9,9,9,,,,,,,,,1,0.8854316729994025,028,001,2019_May_14_1112,MusicAffectPsychophysiology2019,3.0.5,59.961308650102815,
To what extent did the music make you feel ,ASHAMED,30MonoWAV/30MonoS2.wav,1,1,3,10,,,,,0,1,1,9,0,10,10,4,,,,,,,,,2,2.033300673996564,028,001,2019_May_14_1112,MusicAffectPsychophysiology2019,3.0.5,59.961308650102815,
To what extent did the music make you feel ,ALERT,30MonoWAV/30MonoS2.wav,1,1,3,10,,,,,0,1,1,9,0,11,11,8,,,,,,,,,2,5.086235230992315,028,001,2019_May_14_1112,MusicAffectPsychophysiology2019,3.0.5,59.961308650102815,
,,30MonoWAV/30MonoS2.wav,1,1,3,10,,,,,0,1,1,9,,,,,,,,,,,,,,,028,001,2019_May_14_1112,MusicAffectPsychophysiology2019,3.0.5,59.961308650102815,
To what extent did the music make you feel ,ALERT,30MonoWAV/30MonoF3.wav,1,2,2,3,,,,,0,2,2,2,0,0,0,8,,,2,3.201742719000322,1,3.8017626110085985,2,1.9018139089894248,2,1.80183981799928,028,001,2019_May_14_1112,MusicAffectPsychophysiology2019,3.0.5,59.961308650102815,
To what extent did the music make you feel ,ACTIVE,30MonoWAV/30MonoF3.wav,1,2,2,3,,,,,0,2,2,2,0,1,1,9,,,,,,,,,2,1.3013645530008944,028,001,2019_May_14_1112,MusicAffectPsychophysiology2019,3.0.5,59.961308650102815,
To what extent did the music make you feel ,GUILTY,30MonoWAV/30MonoF3.wav,1,2,2,3,,,,,0,2,2,2,0,2,2,5,,,,,,,,,1,2.1850445220043184,028,001,2019_May_14_1112,MusicAffectPsychophysiology2019,3.0.5,59.961308650102815,
To what extent did the music make you feel ,HAPPY,30MonoWAV/30MonoF3.wav,1,2,2,3,,,,,0,2,2,2,0,3,3,6,,,,,,,,,1,1.0855309049948119,028,001,2019_May_14_1112,MusicAffectPsychophysiology2019,3.0.5,59.961308650102815,
To what extent did the music make you feel ,ASHAMED,30MonoWAV/30MonoF3.wav,1,2,2,3,,,,,0,2,2,2,0,4,4,4,,,,,,,,,1,1.0834639289969346,028,001,2019_May_14_1112,MusicAffectPsychophysiology2019,3.0.5,59.961308650102815,
To what extent did the music make you feel ,ANGRY,30MonoWAV/30MonoF3.wav,1,2,2,3,,,,,0,2,2,2,0,5,5,2,,,,,,,,,2,1.334442441991996,028,001,2019_May_14_1112,MusicAffectPsychophysiology2019,3.0.5,59.961308650102815,
To what extent did the music make you feel ,FRUSTRATED,30MonoWAV/30MonoF3.wav,1,2,2,3,,,,,0,2,2,2,0,6,6,3,,,,,,,,,1,0.9682725830061827,028,001,2019_May_14_1112,MusicAffectPsychophysiology2019,3.0.5,59.961308650102815,
To what extent did the music make you feel ,EXCITED,30MonoWAV/30MonoF3.wav,1,2,2,3,,,,,0,2,2,2,0,7,7,7,,,,,,,,,2,1.9853586430108408,028,001,2019_May_14_1112,MusicAffectPsychophysiology2019,3.0.5,59.961308650102815,
To what extent did the music make you feel ,SAD,30MonoWAV/30MonoF3.wav,1,2,2,3,,,,,0,2,2,2,0,8,8,0,,,,,,,,,1,1.5057866020069923,028,001,2019_May_14_1112,MusicAffectPsychophysiology2019,3.0.5,59.961308650102815,
To what extent did the music make you feel ,ANXIOUS ,30MonoWAV/30MonoF3.wav,1,2,2,3,,,,,0,2,2,2,0,9,9,1,,,,,,,,,4,3.4059132949914783,028,001,2019_May_14_1112,MusicAffectPsychophysiology2019,3.0.5,59.961308650102815,
To what extent did the music make you feel ,SCARED,30MonoWAV/30MonoF3.wav,1,2,2,3,,,,,0,2,2,2,0,10,10,11,,,,,,,,,2,2.6210492410027655,028,001,2019_May_14_1112,MusicAffectPsychophysiology2019,3.0.5,59.961308650102815,
To what extent did the music make you feel ,TENDER,30MonoWAV/30MonoF3.wav,1,2,2,3,,,,,0,2,2,2,0,11,11,10,,,,,,,,,1,1.6575008630024968,028,001,2019_May_14_1112,MusicAffectPsychophysiology2019,3.0.5,59.961308650102815,
,,30MonoWAV/30MonoF3.wav,1,2,2,3,,,,,0,2,2,2,,,,,,,,,,,,,,,028,001,2019_May_14_1112,MusicAffectPsychophysiology2019,3.0.5,59.961308650102815,
To what extent did the music make you feel ,SAD,30MonoWAV/30MonoS1.wav,1,1,3,9,,,,,0,3,3,8,0,0,0,0,,,2,3.1336259960080497,4,2.2347813160013175,4,5.168215571990004,2,3.0520939790003467,028,001,2019_May_14_1112,MusicAffectPsychophysiology2019,3.0.5,59.961308650102815,
To what extent did the music make you feel ,ALERT,30MonoWAV/30MonoS1.wav,1,1,3,9,,,,,0,3,3,8,0,1,1,8,,,,,,,,,3,2.669344280991936,028,001,2019_May_14_1112,MusicAffectPsychophysiology2019,3.0.5,59.961308650102815,
To what extent did the music make you feel ,HAPPY,30MonoWAV/30MonoS1.wav,1,1,3,9,,,,,0,3,3,8,0,2,2,6,,,,,,,,,3,1.5695357710064854,028,001,2019_May_14_1112,MusicAffectPsychophysiology2019,3.0.5,59.961308650102815,
To what extent did the music make you feel ,ANXIOUS ,30MonoWAV/30MonoS1.wav,1,1,3,9,,,,,0,3,3,8,0,3,3,1,,,,,,,,,1,1.3849363549961708,028,001,2019_May_14_1112,MusicAffectPsychophysiology2019,3.0.5,59.961308650102815,
To what extent did the music make you feel ,TENDER,30MonoWAV/30MonoS1.wav,1,1,3,9,,,,,0,3,3,8,0,4,4,10,,,,,,,,,2,1.5520959870045772,028,001,2019_May_14_1112,MusicAffectPsychophysiology2019,3.0.5,59.961308650102815,
To what extent did the music make you feel ,ANGRY,30MonoWAV/30MonoS1.wav,1,1,3,9,,,,,0,3,3,8,0,5,5,2,,,,,,,,,1,0.701611853990471,028,001,2019_May_14_1112,MusicAffectPsychophysiology2019,3.0.5,59.961308650102815,
To what extent did the music make you feel ,EXCITED,30MonoWAV/30MonoS1.wav,1,1,3,9,,,,,0,3,3,8,0,6,6,7,,,,,,,,,1,1.5186914270016132,028,001,2019_May_14_1112,MusicAffectPsychophysiology2019,3.0.5,59.961308650102815,
To what extent did the music make you feel ,FRUSTRATED,30MonoWAV/30MonoS1.wav,1,1,3,9,,,,,0,3,3,8,0,7,7,3,,,,,,,,,1,0.9174281629966572,028,001,2019_May_14_1112,MusicAffectPsychophysiology2019,3.0.5,59.961308650102815,
To what extent did the music make you feel ,GUILTY,30MonoWAV/30MonoS1.wav,1,1,3,9,,,,,0,3,3,8,0,8,8,5,,,,,,,,,1,0.8336534019908868,028,001,2019_May_14_1112,MusicAffectPsychophysiology2019,3.0.5,59.961308650102815,
To what extent did the music make you feel ,ACTIVE,30MonoWAV/30MonoS1.wav,1,1,3,9,,,,,0,3,3,8,0,9,9,9,,,,,,,,,2,2.153689040002064,028,001,2019_May_14_1112,MusicAffectPsychophysiology2019,3.0.5,59.961308650102815,
To what extent did the music make you feel ,SCARED,30MonoWAV/30MonoS1.wav,1,1,3,9,,,,,0,3,3,8,0,10,10,11,,,,,,,,,1,1.3521797489956953,028,001,2019_May_14_1112,MusicAffectPsychophysiology2019,3.0.5,59.961308650102815,
To what extent did the music make you feel ,ASHAMED,30MonoWAV/30MonoS1.wav,1,1,3,9,,,,,0,3,3,8,0,11,11,4,,,,,,,,,1,1.2013770089979516,028,001,2019_May_14_1112,MusicAffectPsychophysiology2019,3.0.5,59.961308650102815,
,,30MonoWAV/30MonoS1.wav,1,1,3,9,,,,,0,3,3,8,,,,,,,,,,,,,,,028,001,2019_May_14_1112,MusicAffectPsychophysiology2019,3.0.5,59.961308650102815,
To what extent did the music make you feel ,ANXIOUS ,30MonoWAV/30MonoS3.wav,1,1,3,11,,,,,0,4,4,10,0,0,0,1,,,1,3.2272618989954935,3,1.9176639810029883,3,2.069773322000401,1,4.35687775099359,028,001,2019_May_14_1112,MusicAffectPsychophysiology2019,3.0.5,59.961308650102815,
To what extent did the music make you feel ,GUILTY,30MonoWAV/30MonoS3.wav,1,1,3,11,,,,,0,4,4,10,0,1,1,5,,,,,,,,,1,0.6692143280088203,028,001,2019_May_14_1112,MusicAffectPsychophysiology2019,3.0.5,59.961308650102815,
To what extent did the music make you feel ,ANGRY,30MonoWAV/30MonoS3.wav,1,1,3,11,,,,,0,4,4,10,0,2,2,2,,,,,,,,,1,1.2871028299996397,028,001,2019_May_14_1112,MusicAffectPsychophysiology2019,3.0.5,59.961308650102815,
To what extent did the music make you feel ,ASHAMED,30MonoWAV/30MonoS3.wav,1,1,3,11,,,,,0,4,4,10,0,3,3,4,,,,,,,,,1,1.8198222710052505,028,001,2019_May_14_1112,MusicAffectPsychophysiology2019,3.0.5,59.961308650102815,
To what extent did the music make you feel ,EXCITED,30MonoWAV/30MonoS3.wav,1,1,3,11,,,,,0,4,4,10,0,4,4,7,,,,,,,,,2,1.7073845629929565,028,001,2019_May_14_1112,MusicAffectPsychophysiology2019,3.0.5,59.961308650102815,
To what extent did the music make you feel ,ACTIVE,30MonoWAV/30MonoS3.wav,1,1,3,11,,,,,0,4,4,10,0,5,5,9,,,,,,,,,1,1.53506708900386,028,001,2019_May_14_1112,MusicAffectPsychophysiology2019,3.0.5,59.961308650102815,
To what extent did the music make you feel ,ALERT,30MonoWAV/30MonoS3.wav,1,1,3,11,,,,,0,4,4,10,0,6,6,8,,,,,,,,,2,1.4347303819959052,028,001,2019_May_14_1112,MusicAffectPsychophysiology2019,3.0.5,59.961308650102815,
To what extent did the music make you feel ,SCARED,30MonoWAV/30MonoS3.wav,1,1,3,11,,,,,0,4,4,10,0,7,7,11,,,,,,,,,1,1.7002863579982659,028,001,2019_May_14_1112,MusicAffectPsychophysiology2019,3.0.5,59.961308650102815,
To what extent did the music make you feel ,FRUSTRATED,30MonoWAV/30MonoS3.wav,1,1,3,11,,,,,0,4,4,10,0,8,8,3,,,,,,,,,1,1.4355026929988526,028,001,2019_May_14_1112,MusicAffectPsychophysiology2019,3.0.5,59.961308650102815,
To what extent did the music make you feel ,SAD,30MonoWAV/30MonoS3.wav,1,1,3,11,,,,,0,4,4,10,0,9,9,0,,,,,,,,,3,1.5014765039959457,028,001,2019_May_14_1112,MusicAffectPsychophysiology2019,3.0.5,59.961308650102815,
To what extent did the music make you feel ,HAPPY,30MonoWAV/30MonoS3.wav,1,1,3,11,,,,,0,4,4,10,0,10,10,6,,,,,,,,,2,2.033958708998398,028,001,2019_May_14_1112,MusicAffectPsychophysiology2019,3.0.5,59.961308650102815,
To what extent did the music make you feel ,TENDER,30MonoWAV/30MonoS3.wav,1,1,3,11,,,,,0,4,4,10,0,11,11,10,,,,,,,,,2,1.4023956150049344,028,001,2019_May_14_1112,MusicAffectPsychophysiology2019,3.0.5,59.961308650102815,
,,30MonoWAV/30MonoS3.wav,1,1,3,11,,,,,0,4,4,10,,,,,,,,,,,,,,,028,001,2019_May_14_1112,MusicAffectPsychophysiology2019,3.0.5,59.961308650102815,
To what extent did the music make you feel ,FRUSTRATED,30MonoWAV/30MonoH4.wav,2,2,1,8,,,,,0,5,5,7,0,0,0,3,,,2,3.7020544330007397,1,2.4010478449927177,1,3.0523989200009964,2,1.9589280979998875,028,001,2019_May_14_1112,MusicAffectPsychophysiology2019,3.0.5,59.961308650102815,
To what extent did the music make you feel ,SAD,30MonoWAV/30MonoH4.wav,2,2,1,8,,,,,0,5,5,7,0,1,1,0,,,,,,,,,1,1.4349761410121573,028,001,2019_May_14_1112,MusicAffectPsychophysiology2019,3.0.5,59.961308650102815,
To what extent did the music make you feel ,EXCITED,30MonoWAV/30MonoH4.wav,2,2,1,8,,,,,0,5,5,7,0,2,2,7,,,,,,,,,1,1.8670320849923883,028,001,2019_May_14_1112,MusicAffectPsychophysiology2019,3.0.5,59.961308650102815,
To what extent did the music make you feel ,ALERT,30MonoWAV/30MonoH4.wav,2,2,1,8,,,,,0,5,5,7,0,3,3,8,,,,,,,,,2,1.1194574889959767,028,001,2019_May_14_1112,MusicAffectPsychophysiology2019,3.0.5,59.961308650102815,
To what extent did the music make you feel ,ASHAMED,30MonoWAV/30MonoH4.wav,2,2,1,8,,,,,0,5,5,7,0,4,4,4,,,,,,,,,1,1.5181004509940976,028,001,2019_May_14_1112,MusicAffectPsychophysiology2019,3.0.5,59.961308650102815,
To what extent did the music make you feel ,ANGRY,30MonoWAV/30MonoH4.wav,2,2,1,8,,,,,0,5,5,7,0,5,5,2,,,,,,,,,2,1.8237043259869097,028,001,2019_May_14_1112,MusicAffectPsychophysiology2019,3.0.5,59.961308650102815,
To what extent did the music make you feel ,GUILTY,30MonoWAV/30MonoH4.wav,2,2,1,8,,,,,0,5,5,7,0,6,6,5,,,,,,,,,1,1.0693717300018761,028,001,2019_May_14_1112,MusicAffectPsychophysiology2019,3.0.5,59.961308650102815,
To what extent did the music make you feel ,ACTIVE,30MonoWAV/30MonoH4.wav,2,2,1,8,,,,,0,5,5,7,0,7,7,9,,,,,,,,,2,1.402145999003551,028,001,2019_May_14_1112,MusicAffectPsychophysiology2019,3.0.5,59.961308650102815,
To what extent did the music make you feel ,TENDER,30MonoWAV/30MonoH4.wav,2,2,1,8,,,,,0,5,5,7,0,8,8,10,,,,,,,,,1,2.771481589996256,028,001,2019_May_14_1112,MusicAffectPsychophysiology2019,3.0.5,59.961308650102815,
To what extent did the music make you feel ,HAPPY,30MonoWAV/30MonoH4.wav,2,2,1,8,,,,,0,5,5,7,0,9,9,6,,,,,,,,,1,1.8232729669980472,028,001,2019_May_14_1112,MusicAffectPsychophysiology2019,3.0.5,59.961308650102815,
To what extent did the music make you feel ,ANXIOUS ,30MonoWAV/30MonoH4.wav,2,2,1,8,,,,,0,5,5,7,0,10,10,1,,,,,,,,,3,2.3019655460084323,028,001,2019_May_14_1112,MusicAffectPsychophysiology2019,3.0.5,59.961308650102815,
To what extent did the music make you feel ,SCARED,30MonoWAV/30MonoH4.wav,2,2,1,8,,,,,0,5,5,7,0,11,11,11,,,,,,,,,1,1.2183443089888897,028,001,2019_May_14_1112,MusicAffectPsychophysiology2019,3.0.5,59.961308650102815,
,,30MonoWAV/30MonoH4.wav,2,2,1,8,,,,,0,5,5,7,,,,,,,,,,,,,,,028,001,2019_May_14_1112,MusicAffectPsychophysiology2019,3.0.5,59.961308650102815,
To what extent did the music make you feel ,ANXIOUS ,30MonoWAV/30MonoF2.wav,1,2,2,2,,,,,0,6,6,1,0,0,0,1,,,2,2.63793343200814,1,2.1373118570045335,1,1.5073869120096788,5,2.9524747469986323,028,001,2019_May_14_1112,MusicAffectPsychophysiology2019,3.0.5,59.961308650102815,
To what extent did the music make you feel ,SCARED,30MonoWAV/30MonoF2.wav,1,2,2,2,,,,,0,6,6,1,0,1,1,11,,,,,,,,,4,1.135869013989577,028,001,2019_May_14_1112,MusicAffectPsychophysiology2019,3.0.5,59.961308650102815,
To what extent did the music make you feel ,FRUSTRATED,30MonoWAV/30MonoF2.wav,1,2,2,2,,,,,0,6,6,1,0,2,2,3,,,,,,,,,1,2.1183382809977047,028,001,2019_May_14_1112,MusicAffectPsychophysiology2019,3.0.5,59.961308650102815,
To what extent did the music make you feel ,EXCITED,30MonoWAV/30MonoF2.wav,1,2,2,2,,,,,0,6,6,1,0,3,3,7,,,,,,,,,1,1.0341968959983205,028,001,2019_May_14_1112,MusicAffectPsychophysiology2019,3.0.5,59.961308650102815,
To what extent did the music make you feel ,ANGRY,30MonoWAV/30MonoF2.wav,1,2,2,2,,,,,0,6,6,1,0,4,4,2,,,,,,,,,2,1.3354293250013143,028,001,2019_May_14_1112,MusicAffectPsychophysiology2019,3.0.5,59.961308650102815,
To what extent did the music make you feel ,SAD,30MonoWAV/30MonoF2.wav,1,2,2,2,,,,,0,6,6,1,0,5,5,0,,,,,,,,,1,1.7182323659944814,028,001,2019_May_14_1112,MusicAffectPsychophysiology2019,3.0.5,59.961308650102815,
To what extent did the music make you feel ,ASHAMED,30MonoWAV/30MonoF2.wav,1,2,2,2,,,,,0,6,6,1,0,6,6,4,,,,,,,,,1,1.2190442680002889,028,001,2019_May_14_1112,MusicAffectPsychophysiology2019,3.0.5,59.961308650102815,
To what extent did the music make you feel ,ACTIVE,30MonoWAV/30MonoF2.wav,1,2,2,2,,,,,0,6,6,1,0,7,7,9,,,,,,,,,1,1.0344664270087378,028,001,2019_May_14_1112,MusicAffectPsychophysiology2019,3.0.5,59.961308650102815,
To what extent did the music make you feel ,HAPPY,30MonoWAV/30MonoF2.wav,1,2,2,2,,,,,0,6,6,1,0,8,8,6,,,,,,,,,1,1.085470339996391,028,001,2019_May_14_1112,MusicAffectPsychophysiology2019,3.0.5,59.961308650102815,
To what extent did the music make you feel ,ALERT,30MonoWAV/30MonoF2.wav,1,2,2,2,,,,,0,6,6,1,0,9,9,8,,,,,,,,,3,1.7830575550033245,028,001,2019_May_14_1112,MusicAffectPsychophysiology2019,3.0.5,59.961308650102815,
To what extent did the music make you feel ,GUILTY,30MonoWAV/30MonoF2.wav,1,2,2,2,,,,,0,6,6,1,0,10,10,5,,,,,,,,,1,1.117077265997068,028,001,2019_May_14_1112,MusicAffectPsychophysiology2019,3.0.5,59.961308650102815,
To what extent did the music make you feel ,TENDER,30MonoWAV/30MonoF2.wav,1,2,2,2,,,,,0,6,6,1,0,11,11,10,,,,,,,,,2,2.222613428995828,028,001,2019_May_14_1112,MusicAffectPsychophysiology2019,3.0.5,59.961308650102815,
,,30MonoWAV/30MonoF2.wav,1,2,2,2,,,,,0,6,6,1,,,,,,,,,,,,,,,028,001,2019_May_14_1112,MusicAffectPsychophysiology2019,3.0.5,59.961308650102815,
To what extent did the music make you feel ,TENDER,30MonoWAV/30MonoF1.wav,1,2,2,1,,,,,0,7,7,0,0,0,0,10,,,2,2.734804551000707,1,1.7016025300108595,1,2.1507121640024707,2,1.4189045329985674,028,001,2019_May_14_1112,MusicAffectPsychophysiology2019,3.0.5,59.961308650102815,
To what extent did the music make you feel ,EXCITED,30MonoWAV/30MonoF1.wav,1,2,2,1,,,,,0,7,7,0,0,1,1,7,,,,,,,,,1,1.2179318249982316,028,001,2019_May_14_1112,MusicAffectPsychophysiology2019,3.0.5,59.961308650102815,
To what extent did the music make you feel ,SAD,30MonoWAV/30MonoF1.wav,1,2,2,1,,,,,0,7,7,0,0,2,2,0,,,,,,,,,1,1.8236570400040364,028,001,2019_May_14_1112,MusicAffectPsychophysiology2019,3.0.5,59.961308650102815,
To what extent did the music make you feel ,ANGRY,30MonoWAV/30MonoF1.wav,1,2,2,1,,,,,0,7,7,0,0,3,3,2,,,,,,,,,2,2.184991432004608,028,001,2019_May_14_1112,MusicAffectPsychophysiology2019,3.0.5,59.961308650102815,
To what extent did the music make you feel ,ACTIVE,30MonoWAV/30MonoF1.wav,1,2,2,1,,,,,0,7,7,0,0,4,4,9,,,,,,,,,1,1.887768770000548,028,001,2019_May_14_1112,MusicAffectPsychophysiology2019,3.0.5,59.961308650102815,
To what extent did the music make you feel ,SCARED,30MonoWAV/30MonoF1.wav,1,2,2,1,,,,,0,7,7,0,0,5,5,11,,,,,,,,,4,1.5369764039933216,028,001,2019_May_14_1112,MusicAffectPsychophysiology2019,3.0.5,59.961308650102815,
To what extent did the music make you feel ,ANXIOUS ,30MonoWAV/30MonoF1.wav,1,2,2,1,,,,,0,7,7,0,0,6,6,1,,,,,,,,,4,0.7894849019940011,028,001,2019_May_14_1112,MusicAffectPsychophysiology2019,3.0.5,59.961308650102815,
To what extent did the music make you feel ,FRUSTRATED,30MonoWAV/30MonoF1.wav,1,2,2,1,,,,,0,7,7,0,0,7,7,3,,,,,,,,,1,1.6032626689993776,028,001,2019_May_14_1112,MusicAffectPsychophysiology2019,3.0.5,59.961308650102815,
To what extent did the music make you feel ,ASHAMED,30MonoWAV/30MonoF1.wav,1,2,2,1,,,,,0,7,7,0,0,8,8,4,,,,,,,,,1,0.8351326069969218,028,001,2019_May_14_1112,MusicAffectPsychophysiology2019,3.0.5,59.961308650102815,
To what extent did the music make you feel ,GUILTY,30MonoWAV/30MonoF1.wav,1,2,2,1,,,,,0,7,7,0,0,9,9,5,,,,,,,,,1,0.6675610849924851,028,001,2019_May_14_1112,MusicAffectPsychophysiology2019,3.0.5,59.961308650102815,
To what extent did the music make you feel ,HAPPY,30MonoWAV/30MonoF1.wav,1,2,2,1,,,,,0,7,7,0,0,10,10,6,,,,,,,,,1,0.7179700639971998,028,001,2019_May_14_1112,MusicAffectPsychophysiology2019,3.0.5,59.961308650102815,
To what extent did the music make you feel ,ALERT,30MonoWAV/30MonoF1.wav,1,2,2,1,,,,,0,7,7,0,0,11,11,8,,,,,,,,,3,1.568011754003237,028,001,2019_May_14_1112,MusicAffectPsychophysiology2019,3.0.5,59.961308650102815,
,,30MonoWAV/30MonoF1.wav,1,2,2,1,,,,,0,7,7,0,,,,,,,,,,,,,,,028,001,2019_May_14_1112,MusicAffectPsychophysiology2019,3.0.5,59.961308650102815,
To what extent did the music make you feel ,ASHAMED,30MonoWAV/30MonoT3.wav,2,1,4,15,,,,,0,8,8,14,0,0,0,4,,,1,2.5026628590130713,3,3.589302876003785,3,2.068224064001697,1,2.2841172850021394,028,001,2019_May_14_1112,MusicAffectPsychophysiology2019,3.0.5,59.961308650102815,
To what extent did the music make you feel ,EXCITED,30MonoWAV/30MonoT3.wav,2,1,4,15,,,,,0,8,8,14,0,1,1,7,,,,,,,,,2,1.2686983090097783,028,001,2019_May_14_1112,MusicAffectPsychophysiology2019,3.0.5,59.961308650102815,
To what extent did the music make you feel ,ALERT,30MonoWAV/30MonoT3.wav,2,1,4,15,,,,,0,8,8,14,0,2,2,8,,,,,,,,,2,1.4850622809899505,028,001,2019_May_14_1112,MusicAffectPsychophysiology2019,3.0.5,59.961308650102815,
To what extent did the music make you feel ,ACTIVE,30MonoWAV/30MonoT3.wav,2,1,4,15,,,,,0,8,8,14,0,3,3,9,,,,,,,,,3,1.0999003509932663,028,001,2019_May_14_1112,MusicAffectPsychophysiology2019,3.0.5,59.961308650102815,
To what extent did the music make you feel ,ANXIOUS ,30MonoWAV/30MonoT3.wav,2,1,4,15,,,,,0,8,8,14,0,4,4,1,,,,,,,,,1,1.5182620490086265,028,001,2019_May_14_1112,MusicAffectPsychophysiology2019,3.0.5,59.961308650102815,
To what extent did the music make you feel ,HAPPY,30MonoWAV/30MonoT3.wav,2,1,4,15,,,,,0,8,8,14,0,5,5,6,,,,,,,,,3,1.5194420619955054,028,001,2019_May_14_1112,MusicAffectPsychophysiology2019,3.0.5,59.961308650102815,
To what extent did the music make you feel ,SAD,30MonoWAV/30MonoT3.wav,2,1,4,15,,,,,0,8,8,14,0,6,6,0,,,,,,,,,1,0.7686896509985672,028,001,2019_May_14_1112,MusicAffectPsychophysiology2019,3.0.5,59.961308650102815,
To what extent did the music make you feel ,ANGRY,30MonoWAV/30MonoT3.wav,2,1,4,15,,,,,0,8,8,14,0,7,7,2,,,,,,,,,1,1.0521493370033568,028,001,2019_May_14_1112,MusicAffectPsychophysiology2019,3.0.5,59.961308650102815,
To what extent did the music make you feel ,GUILTY,30MonoWAV/30MonoT3.wav,2,1,4,15,,,,,0,8,8,14,0,8,8,5,,,,,,,,,1,2.4179676990024745,028,001,2019_May_14_1112,MusicAffectPsychophysiology2019,3.0.5,59.961308650102815,
To what extent did the music make you feel ,TENDER,30MonoWAV/30MonoT3.wav,2,1,4,15,,,,,0,8,8,14,0,9,9,10,,,,,,,,,1,0.6348447960044723,028,001,2019_May_14_1112,MusicAffectPsychophysiology2019,3.0.5,59.961308650102815,
To what extent did the music make you feel ,SCARED,30MonoWAV/30MonoT3.wav,2,1,4,15,,,,,0,8,8,14,0,10,10,11,,,,,,,,,1,0.7684841279988177,028,001,2019_May_14_1112,MusicAffectPsychophysiology2019,3.0.5,59.961308650102815,
To what extent did the music make you feel ,FRUSTRATED,30MonoWAV/30MonoT3.wav,2,1,4,15,,,,,0,8,8,14,0,11,11,3,,,,,,,,,1,1.5522386299999198,028,001,2019_May_14_1112,MusicAffectPsychophysiology2019,3.0.5,59.961308650102815,
,,30MonoWAV/30MonoT3.wav,2,1,4,15,,,,,0,8,8,14,,,,,,,,,,,,,,,028,001,2019_May_14_1112,MusicAffectPsychophysiology2019,3.0.5,59.961308650102815,
To what extent did the music make you feel ,ASHAMED,30MonoWAV/30MonoT4.wav,2,1,4,16,,,,,0,9,9,15,0,0,0,4,,,2,2.7084983059903607,4,2.5349626550014364,3,1.3353467870038003,1,1.3676655960007338,028,001,2019_May_14_1112,MusicAffectPsychophysiology2019,3.0.5,59.961308650102815,
To what extent did the music make you feel ,ACTIVE,30MonoWAV/30MonoT4.wav,2,1,4,16,,,,,0,9,9,15,0,1,1,9,,,,,,,,,3,1.3187764449976385,028,001,2019_May_14_1112,MusicAffectPsychophysiology2019,3.0.5,59.961308650102815,
To what extent did the music make you feel ,GUILTY,30MonoWAV/30MonoT4.wav,2,1,4,16,,,,,0,9,9,15,0,2,2,5,,,,,,,,,1,0.9175723410007777,028,001,2019_May_14_1112,MusicAffectPsychophysiology2019,3.0.5,59.961308650102815,
To what extent did the music make you feel ,EXCITED,30MonoWAV/30MonoT4.wav,2,1,4,16,,,,,0,9,9,15,0,3,3,7,,,,,,,,,2,1.2179913110012421,028,001,2019_May_14_1112,MusicAffectPsychophysiology2019,3.0.5,59.961308650102815,
To what extent did the music make you feel ,ALERT,30MonoWAV/30MonoT4.wav,2,1,4,16,,,,,0,9,9,15,0,4,4,8,,,,,,,,,3,2.1699112320056884,028,001,2019_May_14_1112,MusicAffectPsychophysiology2019,3.0.5,59.961308650102815,
To what extent did the music make you feel ,ANXIOUS ,30MonoWAV/30MonoT4.wav,2,1,4,16,,,,,0,9,9,15,0,5,5,1,,,,,,,,,1,0.8520578049938194,028,001,2019_May_14_1112,MusicAffectPsychophysiology2019,3.0.5,59.961308650102815,
To what extent did the music make you feel ,FRUSTRATED,30MonoWAV/30MonoT4.wav,2,1,4,16,,,,,0,9,9,15,0,6,6,3,,,,,,,,,1,0.9009321170015028,028,001,2019_May_14_1112,MusicAffectPsychophysiology2019,3.0.5,59.961308650102815,
To what extent did the music make you feel ,SAD,30MonoWAV/30MonoT4.wav,2,1,4,16,,,,,0,9,9,15,0,7,7,0,,,,,,,,,1,0.68526451800426,028,001,2019_May_14_1112,MusicAffectPsychophysiology2019,3.0.5,59.961308650102815,
To what extent did the music make you feel ,HAPPY,30MonoWAV/30MonoT4.wav,2,1,4,16,,,,,0,9,9,15,0,8,8,6,,,,,,,,,3,1.0358952520036837,028,001,2019_May_14_1112,MusicAffectPsychophysiology2019,3.0.5,59.961308650102815,
To what extent did the music make you feel ,SCARED,30MonoWAV/30MonoT4.wav,2,1,4,16,,,,,0,9,9,15,0,9,9,11,,,,,,,,,1,0.9685470949916635,028,001,2019_May_14_1112,MusicAffectPsychophysiology2019,3.0.5,59.961308650102815,
To what extent did the music make you feel ,ANGRY,30MonoWAV/30MonoT4.wav,2,1,4,16,,,,,0,9,9,15,0,10,10,2,,,,,,,,,1,0.9351603060058551,028,001,2019_May_14_1112,MusicAffectPsychophysiology2019,3.0.5,59.961308650102815,
To what extent did the music make you feel ,TENDER,30MonoWAV/30MonoT4.wav,2,1,4,16,,,,,0,9,9,15,0,11,11,10,,,,,,,,,2,1.1522397230000934,028,001,2019_May_14_1112,MusicAffectPsychophysiology2019,3.0.5,59.961308650102815,
,,30MonoWAV/30MonoT4.wav,2,1,4,16,,,,,0,9,9,15,,,,,,,,,,,,,,,028,001,2019_May_14_1112,MusicAffectPsychophysiology2019,3.0.5,59.961308650102815,
To what extent did the music make you feel ,SCARED,30MonoWAV/30MonoH1.wav,2,2,1,5,,,,,0,10,10,4,0,0,0,11,,,4,5.578397317993222,4,1.6020738179940963,3,3.701895345002413,1,1.7225827400106937,028,001,2019_May_14_1112,MusicAffectPsychophysiology2019,3.0.5,59.961308650102815,
To what extent did the music make you feel ,SAD,30MonoWAV/30MonoH1.wav,2,2,1,5,,,,,0,10,10,4,0,1,1,0,,,,,,,,,1,0.7363249920017552,028,001,2019_May_14_1112,MusicAffectPsychophysiology2019,3.0.5,59.961308650102815,
To what extent did the music make you feel ,EXCITED,30MonoWAV/30MonoH1.wav,2,2,1,5,,,,,0,10,10,4,0,2,2,7,,,,,,,,,3,0.869901548998314,028,001,2019_May_14_1112,MusicAffectPsychophysiology2019,3.0.5,59.961308650102815,
To what extent did the music make you feel ,ANXIOUS ,30MonoWAV/30MonoH1.wav,2,2,1,5,,,,,0,10,10,4,0,3,3,1,,,,,,,,,1,1.9545920709933853,028,001,2019_May_14_1112,MusicAffectPsychophysiology2019,3.0.5,59.961308650102815,
To what extent did the music make you feel ,ACTIVE,30MonoWAV/30MonoH1.wav,2,2,1,5,,,,,0,10,10,4,0,4,4,9,,,,,,,,,4,0.9186130479938583,028,001,2019_May_14_1112,MusicAffectPsychophysiology2019,3.0.5,59.961308650102815,
To what extent did the music make you feel ,HAPPY,30MonoWAV/30MonoH1.wav,2,2,1,5,,,,,0,10,10,4,0,5,5,6,,,,,,,,,4,1.487127036001766,028,001,2019_May_14_1112,MusicAffectPsychophysiology2019,3.0.5,59.961308650102815,
To what extent did the music make you feel ,TENDER,30MonoWAV/30MonoH1.wav,2,2,1,5,,,,,0,10,10,4,0,6,6,10,,,,,,,,,2,2.1225207219977165,028,001,2019_May_14_1112,MusicAffectPsychophysiology2019,3.0.5,59.961308650102815,
To what extent did the music make you feel ,ALERT,30MonoWAV/30MonoH1.wav,2,2,1,5,,,,,0,10,10,4,0,7,7,8,,,,,,,,,3,1.8022134170023492,028,001,2019_May_14_1112,MusicAffectPsychophysiology2019,3.0.5,59.961308650102815,
To what extent did the music make you feel ,ASHAMED,30MonoWAV/30MonoH1.wav,2,2,1,5,,,,,0,10,10,4,0,8,8,4,,,,,,,,,1,1.1348369299957994,028,001,2019_May_14_1112,MusicAffectPsychophysiology2019,3.0.5,59.961308650102815,
To what extent did the music make you feel ,ANGRY,30MonoWAV/30MonoH1.wav,2,2,1,5,,,,,0,10,10,4,0,9,9,2,,,,,,,,,1,0.6353402690001531,028,001,2019_May_14_1112,MusicAffectPsychophysiology2019,3.0.5,59.961308650102815,
To what extent did the music make you feel ,GUILTY,30MonoWAV/30MonoH1.wav,2,2,1,5,,,,,0,10,10,4,0,10,10,5,,,,,,,,,1,0.7186620670108823,028,001,2019_May_14_1112,MusicAffectPsychophysiology2019,3.0.5,59.961308650102815,
To what extent did the music make you feel ,FRUSTRATED,30MonoWAV/30MonoH1.wav,2,2,1,5,,,,,0,10,10,4,0,11,11,3,,,,,,,,,1,0.9344104909978341,028,001,2019_May_14_1112,MusicAffectPsychophysiology2019,3.0.5,59.961308650102815,
,,30MonoWAV/30MonoH1.wav,2,2,1,5,,,,,0,10,10,4,,,,,,,,,,,,,,,028,001,2019_May_14_1112,MusicAffectPsychophysiology2019,3.0.5,59.961308650102815,
To what extent did the music make you feel ,SAD,30MonoWAV/30MonoH2.wav,2,2,1,6,,,,,0,11,11,5,0,0,0,0,,,4,2.2359399069973733,4,0.8677231199981179,4,1.2180341280036373,1,1.2843836630054284,028,001,2019_May_14_1112,MusicAffectPsychophysiology2019,3.0.5,59.961308650102815,
To what extent did the music make you feel ,ANGRY,30MonoWAV/30MonoH2.wav,2,2,1,6,,,,,0,11,11,5,0,1,1,2,,,,,,,,,1,0.6698806160129607,028,001,2019_May_14_1112,MusicAffectPsychophysiology2019,3.0.5,59.961308650102815,
To what extent did the music make you feel ,ANXIOUS ,30MonoWAV/30MonoH2.wav,2,2,1,6,,,,,0,11,11,5,0,2,2,1,,,,,,,,,1,1.0510053759935545,028,001,2019_May_14_1112,MusicAffectPsychophysiology2019,3.0.5,59.961308650102815,
To what extent did the music make you feel ,TENDER,30MonoWAV/30MonoH2.wav,2,2,1,6,,,,,0,11,11,5,0,3,3,10,,,,,,,,,2,0.9184978080011206,028,001,2019_May_14_1112,MusicAffectPsychophysiology2019,3.0.5,59.961308650102815,
To what extent did the music make you feel ,HAPPY,30MonoWAV/30MonoH2.wav,2,2,1,6,,,,,0,11,11,5,0,4,4,6,,,,,,,,,4,1.1513605219952296,028,001,2019_May_14_1112,MusicAffectPsychophysiology2019,3.0.5,59.961308650102815,
To what extent did the music make you feel ,ACTIVE,30MonoWAV/30MonoH2.wav,2,2,1,6,,,,,0,11,11,5,0,5,5,9,,,,,,,,,4,2.302019052003743,028,001,2019_May_14_1112,MusicAffectPsychophysiology2019,3.0.5,59.961308650102815,
To what extent did the music make you feel ,ASHAMED,30MonoWAV/30MonoH2.wav,2,2,1,6,,,,,0,11,11,5,0,6,6,4,,,,,,,,,1,1.0013610900059575,028,001,2019_May_14_1112,MusicAffectPsychophysiology2019,3.0.5,59.961308650102815,
To what extent did the music make you feel ,EXCITED,30MonoWAV/30MonoH2.wav,2,2,1,6,,,,,0,11,11,5,0,7,7,7,,,,,,,,,3,1.1845368320064154,028,001,2019_May_14_1112,MusicAffectPsychophysiology2019,3.0.5,59.961308650102815,
To what extent did the music make you feel ,ALERT,30MonoWAV/30MonoH2.wav,2,2,1,6,,,,,0,11,11,5,0,8,8,8,,,,,,,,,3,1.1009253189986339,028,001,2019_May_14_1112,MusicAffectPsychophysiology2019,3.0.5,59.961308650102815,
To what extent did the music make you feel ,SCARED,30MonoWAV/30MonoH2.wav,2,2,1,6,,,,,0,11,11,5,0,9,9,11,,,,,,,,,1,0.6178485069976887,028,001,2019_May_14_1112,MusicAffectPsychophysiology2019,3.0.5,59.961308650102815,
To what extent did the music make you feel ,GUILTY,30MonoWAV/30MonoH2.wav,2,2,1,6,,,,,0,11,11,5,0,10,10,5,,,,,,,,,1,0.4838238999946043,028,001,2019_May_14_1112,MusicAffectPsychophysiology2019,3.0.5,59.961308650102815,
To what extent did the music make you feel ,FRUSTRATED,30MonoWAV/30MonoH2.wav,2,2,1,6,,,,,0,11,11,5,0,11,11,3,,,,,,,,,1,0.501752750002197,028,001,2019_May_14_1112,MusicAffectPsychophysiology2019,3.0.5,59.961308650102815,
,,30MonoWAV/30MonoH2.wav,2,2,1,6,,,,,0,11,11,5,,,,,,,,,,,,,,,028,001,2019_May_14_1112,MusicAffectPsychophysiology2019,3.0.5,59.961308650102815,
To what extent did the music make you feel ,SAD,30MonoWAV/30MonoT1.wav,2,1,4,13,,,,,0,12,12,12,0,0,0,0,,,2,2.305371273003402,4,3.2729498080007033,2,1.3519098440010566,1,1.3374113089957973,028,001,2019_May_14_1112,MusicAffectPsychophysiology2019,3.0.5,59.961308650102815,
To what extent did the music make you feel ,ANGRY,30MonoWAV/30MonoT1.wav,2,1,4,13,,,,,0,12,12,12,0,1,1,2,,,,,,,,,1,0.6018288370105438,028,001,2019_May_14_1112,MusicAffectPsychophysiology2019,3.0.5,59.961308650102815,
To what extent did the music make you feel ,EXCITED,30MonoWAV/30MonoT1.wav,2,1,4,13,,,,,0,12,12,12,0,2,2,7,,,,,,,,,2,1.2057457759947283,028,001,2019_May_14_1112,MusicAffectPsychophysiology2019,3.0.5,59.961308650102815,
To what extent did the music make you feel ,ANXIOUS ,30MonoWAV/30MonoT1.wav,2,1,4,13,,,,,0,12,12,12,0,3,3,1,,,,,,,,,1,0.9017983609955991,028,001,2019_May_14_1112,MusicAffectPsychophysiology2019,3.0.5,59.961308650102815,
To what extent did the music make you feel ,FRUSTRATED,30MonoWAV/30MonoT1.wav,2,1,4,13,,,,,0,12,12,12,0,4,4,3,,,,,,,,,1,0.801279347986565,028,001,2019_May_14_1112,MusicAffectPsychophysiology2019,3.0.5,59.961308650102815,
To what extent did the music make you feel ,GUILTY,30MonoWAV/30MonoT1.wav,2,1,4,13,,,,,0,12,12,12,0,5,5,5,,,,,,,,,1,0.6842680009867763,028,001,2019_May_14_1112,MusicAffectPsychophysiology2019,3.0.5,59.961308650102815,
To what extent did the music make you feel ,ALERT,30MonoWAV/30MonoT1.wav,2,1,4,13,,,,,0,12,12,12,0,6,6,8,,,,,,,,,3,1.0006220180075616,028,001,2019_May_14_1112,MusicAffectPsychophysiology2019,3.0.5,59.961308650102815,
To what extent did the music make you feel ,ASHAMED,30MonoWAV/30MonoT1.wav,2,1,4,13,,,,,0,12,12,12,0,7,7,4,,,,,,,,,1,1.0181928889942355,028,001,2019_May_14_1112,MusicAffectPsychophysiology2019,3.0.5,59.961308650102815,
To what extent did the music make you feel ,ACTIVE,30MonoWAV/30MonoT1.wav,2,1,4,13,,,,,0,12,12,12,0,8,8,9,,,,,,,,,2,0.7688300529989647,028,001,2019_May_14_1112,MusicAffectPsychophysiology2019,3.0.5,59.961308650102815,
To what extent did the music make you feel ,HAPPY,30MonoWAV/30MonoT1.wav,2,1,4,13,,,,,0,12,12,12,0,9,9,6,,,,,,,,,3,1.0347693639923818,028,001,2019_May_14_1112,MusicAffectPsychophysiology2019,3.0.5,59.961308650102815,
To what extent did the music make you feel ,SCARED,30MonoWAV/30MonoT1.wav,2,1,4,13,,,,,0,12,12,12,0,10,10,11,,,,,,,,,1,1.0682951210037572,028,001,2019_May_14_1112,MusicAffectPsychophysiology2019,3.0.5,59.961308650102815,
To what extent did the music make you feel ,TENDER,30MonoWAV/30MonoT1.wav,2,1,4,13,,,,,0,12,12,12,0,11,11,10,,,,,,,,,2,1.1520338100090157,028,001,2019_May_14_1112,MusicAffectPsychophysiology2019,3.0.5,59.961308650102815,
,,30MonoWAV/30MonoT1.wav,2,1,4,13,,,,,0,12,12,12,,,,,,,,,,,,,,,028,001,2019_May_14_1112,MusicAffectPsychophysiology2019,3.0.5,59.961308650102815,
To what extent did the music make you feel ,SCARED,30MonoWAV/30MonoH3.wav,2,2,1,7,,,,,0,13,13,6,0,0,0,11,,,3,3.018114816004527,3,0.8854922629980138,3,1.6358523150120163,1,1.0014193300012266,028,001,2019_May_14_1112,MusicAffectPsychophysiology2019,3.0.5,59.961308650102815,
To what extent did the music make you feel ,FRUSTRATED,30MonoWAV/30MonoH3.wav,2,2,1,7,,,,,0,13,13,6,0,1,1,3,,,,,,,,,1,0.5855665690032765,028,001,2019_May_14_1112,MusicAffectPsychophysiology2019,3.0.5,59.961308650102815,
To what extent did the music make you feel ,SAD,30MonoWAV/30MonoH3.wav,2,2,1,7,,,,,0,13,13,6,0,2,2,0,,,,,,,,,1,0.7994742070004577,028,001,2019_May_14_1112,MusicAffectPsychophysiology2019,3.0.5,59.961308650102815,
To what extent did the music make you feel ,HAPPY,30MonoWAV/30MonoH3.wav,2,2,1,7,,,,,0,13,13,6,0,3,3,6,,,,,,,,,3,1.301947747997474,028,001,2019_May_14_1112,MusicAffectPsychophysiology2019,3.0.5,59.961308650102815,
To what extent did the music make you feel ,ALERT,30MonoWAV/30MonoH3.wav,2,2,1,7,,,,,0,13,13,6,0,4,4,8,,,,,,,,,3,1.1011660509975627,028,001,2019_May_14_1112,MusicAffectPsychophysiology2019,3.0.5,59.961308650102815,
To what extent did the music make you feel ,EXCITED,30MonoWAV/30MonoH3.wav,2,2,1,7,,,,,0,13,13,6,0,5,5,7,,,,,,,,,3,2.3519108619948383,028,001,2019_May_14_1112,MusicAffectPsychophysiology2019,3.0.5,59.961308650102815,
To what extent did the music make you feel ,ANXIOUS ,30MonoWAV/30MonoH3.wav,2,2,1,7,,,,,0,13,13,6,0,6,6,1,,,,,,,,,1,0.9519330589973833,028,001,2019_May_14_1112,MusicAffectPsychophysiology2019,3.0.5,59.961308650102815,
To what extent did the music make you feel ,TENDER,30MonoWAV/30MonoH3.wav,2,2,1,7,,,,,0,13,13,6,0,7,7,10,,,,,,,,,1,2.617571531998692,028,001,2019_May_14_1112,MusicAffectPsychophysiology2019,3.0.5,59.961308650102815,
To what extent did the music make you feel ,GUILTY,30MonoWAV/30MonoH3.wav,2,2,1,7,,,,,0,13,13,6,0,8,8,5,,,,,,,,,1,0.5862094600015553,028,001,2019_May_14_1112,MusicAffectPsychophysiology2019,3.0.5,59.961308650102815,
To what extent did the music make you feel ,ASHAMED,30MonoWAV/30MonoH3.wav,2,2,1,7,,,,,0,13,13,6,0,9,9,4,,,,,,,,,1,0.519307567999931,028,001,2019_May_14_1112,MusicAffectPsychophysiology2019,3.0.5,59.961308650102815,
To what extent did the music make you feel ,ANGRY,30MonoWAV/30MonoH3.wav,2,2,1,7,,,,,0,13,13,6,0,10,10,2,,,,,,,,,1,0.5185194840014447,028,001,2019_May_14_1112,MusicAffectPsychophysiology2019,3.0.5,59.961308650102815,
To what extent did the music make you feel ,ACTIVE,30MonoWAV/30MonoH3.wav,2,2,1,7,,,,,0,13,13,6,0,11,11,9,,,,,,,,,4,1.3014079660060816,028,001,2019_May_14_1112,MusicAffectPsychophysiology2019,3.0.5,59.961308650102815,
,,30MonoWAV/30MonoH3.wav,2,2,1,7,,,,,0,13,13,6,,,,,,,,,,,,,,,028,001,2019_May_14_1112,MusicAffectPsychophysiology2019,3.0.5,59.961308650102815,
To what extent did the music make you feel ,EXCITED,30MonoWAV/30MonoS4.wav,1,1,3,12,,,,,0,14,14,11,0,0,0,7,,,2,2.9058339050097857,2,1.4568791720084846,3,2.0850395929883234,1,2.8682017879909836,028,001,2019_May_14_1112,MusicAffectPsychophysiology2019,3.0.5,59.961308650102815,
To what extent did the music make you feel ,ASHAMED,30MonoWAV/30MonoS4.wav,1,1,3,12,,,,,0,14,14,11,0,1,1,4,,,,,,,,,1,0.7018083709990606,028,001,2019_May_14_1112,MusicAffectPsychophysiology2019,3.0.5,59.961308650102815,
To what extent did the music make you feel ,ANXIOUS ,30MonoWAV/30MonoS4.wav,1,1,3,12,,,,,0,14,14,11,0,2,2,1,,,,,,,,,1,1.2014018059999216,028,001,2019_May_14_1112,MusicAffectPsychophysiology2019,3.0.5,59.961308650102815,
To what extent did the music make you feel ,SCARED,30MonoWAV/30MonoS4.wav,1,1,3,12,,,,,0,14,14,11,0,3,3,11,,,,,,,,,1,0.5677315889915917,028,001,2019_May_14_1112,MusicAffectPsychophysiology2019,3.0.5,59.961308650102815,
To what extent did the music make you feel ,HAPPY,30MonoWAV/30MonoS4.wav,1,1,3,12,,,,,0,14,14,11,0,4,4,6,,,,,,,,,2,0.9855562529992312,028,001,2019_May_14_1112,MusicAffectPsychophysiology2019,3.0.5,59.961308650102815,
To what extent did the music make you feel ,ALERT,30MonoWAV/30MonoS4.wav,1,1,3,12,,,,,0,14,14,11,0,5,5,8,,,,,,,,,3,1.5509314759983681,028,001,2019_May_14_1112,MusicAffectPsychophysiology2019,3.0.5,59.961308650102815,
To what extent did the music make you feel ,SAD,30MonoWAV/30MonoS4.wav,1,1,3,12,,,,,0,14,14,11,0,6,6,0,,,,,,,,,1,0.7017899409984238,028,001,2019_May_14_1112,MusicAffectPsychophysiology2019,3.0.5,59.961308650102815,
To what extent did the music make you feel ,GUILTY,30MonoWAV/30MonoS4.wav,1,1,3,12,,,,,0,14,14,11,0,7,7,5,,,,,,,,,1,0.5856433870067121,028,001,2019_May_14_1112,MusicAffectPsychophysiology2019,3.0.5,59.961308650102815,
To what extent did the music make you feel ,TENDER,30MonoWAV/30MonoS4.wav,1,1,3,12,,,,,0,14,14,11,0,8,8,10,,,,,,,,,3,2.285351445010747,028,001,2019_May_14_1112,MusicAffectPsychophysiology2019,3.0.5,59.961308650102815,
To what extent did the music make you feel ,ACTIVE,30MonoWAV/30MonoS4.wav,1,1,3,12,,,,,0,14,14,11,0,9,9,9,,,,,,,,,1,1.3026136819971725,028,001,2019_May_14_1112,MusicAffectPsychophysiology2019,3.0.5,59.961308650102815,
To what extent did the music make you feel ,FRUSTRATED,30MonoWAV/30MonoS4.wav,1,1,3,12,,,,,0,14,14,11,0,10,10,3,,,,,,,,,1,1.8181260510027641,028,001,2019_May_14_1112,MusicAffectPsychophysiology2019,3.0.5,59.961308650102815,
To what extent did the music make you feel ,ANGRY,30MonoWAV/30MonoS4.wav,1,1,3,12,,,,,0,14,14,11,0,11,11,2,,,,,,,,,1,0.6693683480116306,028,001,2019_May_14_1112,MusicAffectPsychophysiology2019,3.0.5,59.961308650102815,
,,30MonoWAV/30MonoS4.wav,1,1,3,12,,,,,0,14,14,11,,,,,,,,,,,,,,,028,001,2019_May_14_1112,MusicAffectPsychophysiology2019,3.0.5,59.961308650102815,
To what extent did the music make you feel ,ALERT,30MonoWAV/30MonoF4.wav,1,2,2,4,,,,,0,15,15,3,0,0,0,8,,,3,4.767713459004881,2,1.4033155369979795,1,2.6160403520043474,4,3.268728972005192,028,001,2019_May_14_1112,MusicAffectPsychophysiology2019,3.0.5,59.961308650102815,
To what extent did the music make you feel ,GUILTY,30MonoWAV/30MonoF4.wav,1,2,2,4,,,,,0,15,15,3,0,1,1,5,,,,,,,,,1,2.174849211005494,028,001,2019_May_14_1112,MusicAffectPsychophysiology2019,3.0.5,59.961308650102815,
To what extent did the music make you feel ,EXCITED,30MonoWAV/30MonoF4.wav,1,2,2,4,,,,,0,15,15,3,0,2,2,7,,,,,,,,,2,2.02057880499342,028,001,2019_May_14_1112,MusicAffectPsychophysiology2019,3.0.5,59.961308650102815,
To what extent did the music make you feel ,HAPPY,30MonoWAV/30MonoF4.wav,1,2,2,4,,,,,0,15,15,3,0,3,3,6,,,,,,,,,1,0.9860579099913593,028,001,2019_May_14_1112,MusicAffectPsychophysiology2019,3.0.5,59.961308650102815,
To what extent did the music make you feel ,TENDER,30MonoWAV/30MonoF4.wav,1,2,2,4,,,,,0,15,15,3,0,4,4,10,,,,,,,,,1,1.1532399130082922,028,001,2019_May_14_1112,MusicAffectPsychophysiology2019,3.0.5,59.961308650102815,
To what extent did the music make you feel ,ASHAMED,30MonoWAV/30MonoF4.wav,1,2,2,4,,,,,0,15,15,3,0,5,5,4,,,,,,,,,1,0.8069667329982622,028,001,2019_May_14_1112,MusicAffectPsychophysiology2019,3.0.5,59.961308650102815,
To what extent did the music make you feel ,FRUSTRATED,30MonoWAV/30MonoF4.wav,1,2,2,4,,,,,0,15,15,3,0,6,6,3,,,,,,,,,1,0.8172006879904075,028,001,2019_May_14_1112,MusicAffectPsychophysiology2019,3.0.5,59.961308650102815,
To what extent did the music make you feel ,SCARED,30MonoWAV/30MonoF4.wav,1,2,2,4,,,,,0,15,15,3,0,7,7,11,,,,,,,,,4,1.086104284011526,028,001,2019_May_14_1112,MusicAffectPsychophysiology2019,3.0.5,59.961308650102815,
To what extent did the music make you feel ,SAD,30MonoWAV/30MonoF4.wav,1,2,2,4,,,,,0,15,15,3,0,8,8,0,,,,,,,,,1,2.784196737993625,028,001,2019_May_14_1112,MusicAffectPsychophysiology2019,3.0.5,59.961308650102815,
To what extent did the music make you feel ,ANXIOUS ,30MonoWAV/30MonoF4.wav,1,2,2,4,,,,,0,15,15,3,0,9,9,1,,,,,,,,,4,1.4365550619986607,028,001,2019_May_14_1112,MusicAffectPsychophysiology2019,3.0.5,59.961308650102815,
To what extent did the music make you feel ,ANGRY,30MonoWAV/30MonoF4.wav,1,2,2,4,,,,,0,15,15,3,0,10,10,2,,,,,,,,,1,2.0359825549967354,028,001,2019_May_14_1112,MusicAffectPsychophysiology2019,3.0.5,59.961308650102815,
To what extent did the music make you feel ,ACTIVE,30MonoWAV/30MonoF4.wav,1,2,2,4,,,,,0,15,15,3,0,11,11,9,,,,,,,,,3,4.8020885399891995,028,001,2019_May_14_1112,MusicAffectPsychophysiology2019,3.0.5,59.961308650102815,
,,30MonoWAV/30MonoF4.wav,1,2,2,4,,,,,0,15,15,3,,,,,,,,,,,,,,,028,001,2019_May_14_1112,MusicAffectPsychophysiology2019,3.0.5,59.961308650102815,
To what extent did the music make you feel ,ACTIVE,30MonoWAV/30MonoF3.wav,1,2,2,3,,,,,1,0,16,2,0,0,0,9,,,2,2.2849058779975167,2,1.3505329030012945,1,1.4355891150044044,2,8.216863198002102,028,001,2019_May_14_1112,MusicAffectPsychophysiology2019,3.0.5,59.961308650102815,
To what extent did the music make you feel ,ALERT,30MonoWAV/30MonoF3.wav,1,2,2,3,,,,,1,0,16,2,0,1,1,8,,,,,,,,,3,1.6018773190007778,028,001,2019_May_14_1112,MusicAffectPsychophysiology2019,3.0.5,59.961308650102815,
To what extent did the music make you feel ,HAPPY,30MonoWAV/30MonoF3.wav,1,2,2,3,,,,,1,0,16,2,0,2,2,6,,,,,,,,,1,1.284573522003484,028,001,2019_May_14_1112,MusicAffectPsychophysiology2019,3.0.5,59.961308650102815,
To what extent did the music make you feel ,ASHAMED,30MonoWAV/30MonoF3.wav,1,2,2,3,,,,,1,0,16,2,0,3,3,4,,,,,,,,,1,0.6689989830047125,028,001,2019_May_14_1112,MusicAffectPsychophysiology2019,3.0.5,59.961308650102815,
To what extent did the music make you feel ,TENDER,30MonoWAV/30MonoF3.wav,1,2,2,3,,,,,1,0,16,2,0,4,4,10,,,,,,,,,2,1.6025855769985355,028,001,2019_May_14_1112,MusicAffectPsychophysiology2019,3.0.5,59.961308650102815,
To what extent did the music make you feel ,ANXIOUS ,30MonoWAV/30MonoF3.wav,1,2,2,3,,,,,1,0,16,2,0,5,5,1,,,,,,,,,4,2.049491288998979,028,001,2019_May_14_1112,MusicAffectPsychophysiology2019,3.0.5,59.961308650102815,
To what extent did the music make you feel ,SCARED,30MonoWAV/30MonoF3.wav,1,2,2,3,,,,,1,0,16,2,0,6,6,11,,,,,,,,,4,0.6161759269889444,028,001,2019_May_14_1112,MusicAffectPsychophysiology2019,3.0.5,59.961308650102815,
To what extent did the music make you feel ,SAD,30MonoWAV/30MonoF3.wav,1,2,2,3,,,,,1,0,16,2,0,7,7,0,,,,,,,,,1,1.1524058600043645,028,001,2019_May_14_1112,MusicAffectPsychophysiology2019,3.0.5,59.961308650102815,
To what extent did the music make you feel ,GUILTY,30MonoWAV/30MonoF3.wav,1,2,2,3,,,,,1,0,16,2,0,8,8,5,,,,,,,,,1,1.1347577090054983,028,001,2019_May_14_1112,MusicAffectPsychophysiology2019,3.0.5,59.961308650102815,
To what extent did the music make you feel ,ANGRY,30MonoWAV/30MonoF3.wav,1,2,2,3,,,,,1,0,16,2,0,9,9,2,,,,,,,,,1,0.8838846269936766,028,001,2019_May_14_1112,MusicAffectPsychophysiology2019,3.0.5,59.961308650102815,
To what extent did the music make you feel ,FRUSTRATED,30MonoWAV/30MonoF3.wav,1,2,2,3,,,,,1,0,16,2,0,10,10,3,,,,,,,,,1,0.6508833780098939,028,001,2019_May_14_1112,MusicAffectPsychophysiology2019,3.0.5,59.961308650102815,
To what extent did the music make you feel ,EXCITED,30MonoWAV/30MonoF3.wav,1,2,2,3,,,,,1,0,16,2,0,11,11,7,,,,,,,,,2,2.0678763659961987,028,001,2019_May_14_1112,MusicAffectPsychophysiology2019,3.0.5,59.961308650102815,
,,30MonoWAV/30MonoF3.wav,1,2,2,3,,,,,1,0,16,2,,,,,,,,,,,,,,,028,001,2019_May_14_1112,MusicAffectPsychophysiology2019,3.0.5,59.961308650102815,
To what extent did the music make you feel ,ANXIOUS ,30MonoWAV/30MonoS2.wav,1,1,3,10,,,,,1,1,17,9,0,0,0,1,,,2,2.9883361569955014,3,1.7044345699978294,3,1.787241672995151,1,2.9547743200091645,028,001,2019_May_14_1112,MusicAffectPsychophysiology2019,3.0.5,59.961308650102815,
To what extent did the music make you feel ,ALERT,30MonoWAV/30MonoS2.wav,1,1,3,10,,,,,1,1,17,9,0,1,1,8,,,,,,,,,1,1.2184394109935965,028,001,2019_May_14_1112,MusicAffectPsychophysiology2019,3.0.5,59.961308650102815,
To what extent did the music make you feel ,SAD,30MonoWAV/30MonoS2.wav,1,1,3,10,,,,,1,1,17,9,0,2,2,0,,,,,,,,,3,2.405457649991149,028,001,2019_May_14_1112,MusicAffectPsychophysiology2019,3.0.5,59.961308650102815,
To what extent did the music make you feel ,ASHAMED,30MonoWAV/30MonoS2.wav,1,1,3,10,,,,,1,1,17,9,0,3,3,4,,,,,,,,,1,1.8549784909992013,028,001,2019_May_14_1112,MusicAffectPsychophysiology2019,3.0.5,59.961308650102815,
To what extent did the music make you feel ,ACTIVE,30MonoWAV/30MonoS2.wav,1,1,3,10,,,,,1,1,17,9,0,4,4,9,,,,,,,,,2,1.036687100000563,028,001,2019_May_14_1112,MusicAffectPsychophysiology2019,3.0.5,59.961308650102815,
To what extent did the music make you feel ,TENDER,30MonoWAV/30MonoS2.wav,1,1,3,10,,,,,1,1,17,9,0,5,5,10,,,,,,,,,2,2.636518340004841,028,001,2019_May_14_1112,MusicAffectPsychophysiology2019,3.0.5,59.961308650102815,
To what extent did the music make you feel ,GUILTY,30MonoWAV/30MonoS2.wav,1,1,3,10,,,,,1,1,17,9,0,6,6,5,,,,,,,,,1,4.189144889009185,028,001,2019_May_14_1112,MusicAffectPsychophysiology2019,3.0.5,59.961308650102815,
To what extent did the music make you feel ,SCARED,30MonoWAV/30MonoS2.wav,1,1,3,10,,,,,1,1,17,9,0,7,7,11,,,,,,,,,1,0.7185140210058307,028,001,2019_May_14_1112,MusicAffectPsychophysiology2019,3.0.5,59.961308650102815,
To what extent did the music make you feel ,FRUSTRATED,30MonoWAV/30MonoS2.wav,1,1,3,10,,,,,1,1,17,9,0,8,8,3,,,,,,,,,1,0.7351204360020347,028,001,2019_May_14_1112,MusicAffectPsychophysiology2019,3.0.5,59.961308650102815,
To what extent did the music make you feel ,ANGRY,30MonoWAV/30MonoS2.wav,1,1,3,10,,,,,1,1,17,9,0,9,9,2,,,,,,,,,1,0.5686055120022502,028,001,2019_May_14_1112,MusicAffectPsychophysiology2019,3.0.5,59.961308650102815,
To what extent did the music make you feel ,EXCITED,30MonoWAV/30MonoS2.wav,1,1,3,10,,,,,1,1,17,9,0,10,10,7,,,,,,,,,1,1.8185782590007875,028,001,2019_May_14_1112,MusicAffectPsychophysiology2019,3.0.5,59.961308650102815,
To what extent did the music make you feel ,HAPPY,30MonoWAV/30MonoS2.wav,1,1,3,10,,,,,1,1,17,9,0,11,11,6,,,,,,,,,2,1.3688461400015512,028,001,2019_May_14_1112,MusicAffectPsychophysiology2019,3.0.5,59.961308650102815,
,,30MonoWAV/30MonoS2.wav,1,1,3,10,,,,,1,1,17,9,,,,,,,,,,,,,,,028,001,2019_May_14_1112,MusicAffectPsychophysiology2019,3.0.5,59.961308650102815,
To what extent did the music make you feel ,GUILTY,30MonoWAV/30MonoT1.wav,2,1,4,13,,,,,1,2,18,12,0,0,0,5,,,2,2.4249827939929673,3,1.2192297630099347,3,1.384234078010195,1,1.217910766004934,028,001,2019_May_14_1112,MusicAffectPsychophysiology2019,3.0.5,59.961308650102815,
To what extent did the music make you feel ,ANGRY,30MonoWAV/30MonoT1.wav,2,1,4,13,,,,,1,2,18,12,0,1,1,2,,,,,,,,,1,0.8521729420026531,028,001,2019_May_14_1112,MusicAffectPsychophysiology2019,3.0.5,59.961308650102815,
To what extent did the music make you feel ,ASHAMED,30MonoWAV/30MonoT1.wav,2,1,4,13,,,,,1,2,18,12,0,2,2,4,,,,,,,,,1,0.7022661949886242,028,001,2019_May_14_1112,MusicAffectPsychophysiology2019,3.0.5,59.961308650102815,
To what extent did the music make you feel ,ACTIVE,30MonoWAV/30MonoT1.wav,2,1,4,13,,,,,1,2,18,12,0,3,3,9,,,,,,,,,2,1.102079374002642,028,001,2019_May_14_1112,MusicAffectPsychophysiology2019,3.0.5,59.961308650102815,
To what extent did the music make you feel ,SCARED,30MonoWAV/30MonoT1.wav,2,1,4,13,,,,,1,2,18,12,0,4,4,11,,,,,,,,,1,2.3188372790027643,028,001,2019_May_14_1112,MusicAffectPsychophysiology2019,3.0.5,59.961308650102815,
To what extent did the music make you feel ,ANXIOUS ,30MonoWAV/30MonoT1.wav,2,1,4,13,,,,,1,2,18,12,0,5,5,1,,,,,,,,,1,0.7011068880092353,028,001,2019_May_14_1112,MusicAffectPsychophysiology2019,3.0.5,59.961308650102815,
To what extent did the music make you feel ,HAPPY,30MonoWAV/30MonoT1.wav,2,1,4,13,,,,,1,2,18,12,0,6,6,6,,,,,,,,,3,0.8860645679960726,028,001,2019_May_14_1112,MusicAffectPsychophysiology2019,3.0.5,59.961308650102815,
To what extent did the music make you feel ,SAD,30MonoWAV/30MonoT1.wav,2,1,4,13,,,,,1,2,18,12,0,7,7,0,,,,,,,,,1,0.9188713250041474,028,001,2019_May_14_1112,MusicAffectPsychophysiology2019,3.0.5,59.961308650102815,
To what extent did the music make you feel ,FRUSTRATED,30MonoWAV/30MonoT1.wav,2,1,4,13,,,,,1,2,18,12,0,8,8,3,,,,,,,,,1,1.4512400740059093,028,001,2019_May_14_1112,MusicAffectPsychophysiology2019,3.0.5,59.961308650102815,
To what extent did the music make you feel ,TENDER,30MonoWAV/30MonoT1.wav,2,1,4,13,,,,,1,2,18,12,0,9,9,10,,,,,,,,,2,0.8187017769960221,028,001,2019_May_14_1112,MusicAffectPsychophysiology2019,3.0.5,59.961308650102815,
To what extent did the music make you feel ,EXCITED,30MonoWAV/30MonoT1.wav,2,1,4,13,,,,,1,2,18,12,0,10,10,7,,,,,,,,,2,1.334571537998272,028,001,2019_May_14_1112,MusicAffectPsychophysiology2019,3.0.5,59.961308650102815,
To what extent did the music make you feel ,ALERT,30MonoWAV/30MonoT1.wav,2,1,4,13,,,,,1,2,18,12,0,11,11,8,,,,,,,,,3,1.6366979790036567,028,001,2019_May_14_1112,MusicAffectPsychophysiology2019,3.0.5,59.961308650102815,
,,30MonoWAV/30MonoT1.wav,2,1,4,13,,,,,1,2,18,12,,,,,,,,,,,,,,,028,001,2019_May_14_1112,MusicAffectPsychophysiology2019,3.0.5,59.961308650102815,
To what extent did the music make you feel ,SCARED,30MonoWAV/30MonoT2.wav,2,1,4,14,,,,,1,3,19,13,0,0,0,11,,,1,5.241573685998446,3,1.439286919994629,3,0.9350028960034251,1,0.9528206009999849,028,001,2019_May_14_1112,MusicAffectPsychophysiology2019,3.0.5,59.961308650102815,
To what extent did the music make you feel ,TENDER,30MonoWAV/30MonoT2.wav,2,1,4,14,,,,,1,3,19,13,0,1,1,10,,,,,,,,,2,0.8026430830068421,028,001,2019_May_14_1112,MusicAffectPsychophysiology2019,3.0.5,59.961308650102815,
To what extent did the music make you feel ,FRUSTRATED,30MonoWAV/30MonoT2.wav,2,1,4,14,,,,,1,3,19,13,0,2,2,3,,,,,,,,,1,0.6851833870023256,028,001,2019_May_14_1112,MusicAffectPsychophysiology2019,3.0.5,59.961308650102815,
To what extent did the music make you feel ,GUILTY,30MonoWAV/30MonoT2.wav,2,1,4,14,,,,,1,3,19,13,0,3,3,5,,,,,,,,,1,0.5345229000085965,028,001,2019_May_14_1112,MusicAffectPsychophysiology2019,3.0.5,59.961308650102815,
To what extent did the music make you feel ,HAPPY,30MonoWAV/30MonoT2.wav,2,1,4,14,,,,,1,3,19,13,0,4,4,6,,,,,,,,,2,1.5018237710028188,028,001,2019_May_14_1112,MusicAffectPsychophysiology2019,3.0.5,59.961308650102815,
To what extent did the music make you feel ,ANGRY,30MonoWAV/30MonoT2.wav,2,1,4,14,,,,,1,3,19,13,0,5,5,2,,,,,,,,,1,2.601577314999304,028,001,2019_May_14_1112,MusicAffectPsychophysiology2019,3.0.5,59.961308650102815,
To what extent did the music make you feel ,ANXIOUS ,30MonoWAV/30MonoT2.wav,2,1,4,14,,,,,1,3,19,13,0,6,6,1,,,,,,,,,2,3.817845696990844,028,001,2019_May_14_1112,MusicAffectPsychophysiology2019,3.0.5,59.961308650102815,
To what extent did the music make you feel ,ASHAMED,30MonoWAV/30MonoT2.wav,2,1,4,14,,,,,1,3,19,13,0,7,7,4,,,,,,,,,1,2.601363790992764,028,001,2019_May_14_1112,MusicAffectPsychophysiology2019,3.0.5,59.961308650102815,
To what extent did the music make you feel ,ACTIVE,30MonoWAV/30MonoT2.wav,2,1,4,14,,,,,1,3,19,13,0,8,8,9,,,,,,,,,2,0.8844682169874432,028,001,2019_May_14_1112,MusicAffectPsychophysiology2019,3.0.5,59.961308650102815,
To what extent did the music make you feel ,SAD,30MonoWAV/30MonoT2.wav,2,1,4,14,,,,,1,3,19,13,0,9,9,0,,,,,,,,,1,0.7514202169986675,028,001,2019_May_14_1112,MusicAffectPsychophysiology2019,3.0.5,59.961308650102815,
To what extent did the music make you feel ,EXCITED,30MonoWAV/30MonoT2.wav,2,1,4,14,,,,,1,3,19,13,0,10,10,7,,,,,,,,,2,0.9352034240000648,028,001,2019_May_14_1112,MusicAffectPsychophysiology2019,3.0.5,59.961308650102815,
To what extent did the music make you feel ,ALERT,30MonoWAV/30MonoT2.wav,2,1,4,14,,,,,1,3,19,13,0,11,11,8,,,,,,,,,3,1.4683500889950665,028,001,2019_May_14_1112,MusicAffectPsychophysiology2019,3.0.5,59.961308650102815,
,,30MonoWAV/30MonoT2.wav,2,1,4,14,,,,,1,3,19,13,,,,,,,,,,,,,,,028,001,2019_May_14_1112,MusicAffectPsychophysiology2019,3.0.5,59.961308650102815,
To what extent did the music make you feel ,HAPPY,30MonoWAV/30MonoF1.wav,1,2,2,1,,,,,1,4,20,0,0,0,0,6,,,2,2.317392679004115,1,1.3004361049970612,1,1.4018728939990979,1,0.9988206400012132,028,001,2019_May_14_1112,MusicAffectPsychophysiology2019,3.0.5,59.961308650102815,
To what extent did the music make you feel ,ASHAMED,30MonoWAV/30MonoF1.wav,1,2,2,1,,,,,1,4,20,0,0,1,1,4,,,,,,,,,1,0.8192874810047215,028,001,2019_May_14_1112,MusicAffectPsychophysiology2019,3.0.5,59.961308650102815,
To what extent did the music make you feel ,ANGRY,30MonoWAV/30MonoF1.wav,1,2,2,1,,,,,1,4,20,0,0,2,2,2,,,,,,,,,1,1.3181780169979902,028,001,2019_May_14_1112,MusicAffectPsychophysiology2019,3.0.5,59.961308650102815,
To what extent did the music make you feel ,EXCITED,30MonoWAV/30MonoF1.wav,1,2,2,1,,,,,1,4,20,0,0,3,3,7,,,,,,,,,1,3.334345630995813,028,001,2019_May_14_1112,MusicAffectPsychophysiology2019,3.0.5,59.961308650102815,
To what extent did the music make you feel ,ANXIOUS ,30MonoWAV/30MonoF1.wav,1,2,2,1,,,,,1,4,20,0,0,4,4,1,,,,,,,,,4,2.1682490639941534,028,001,2019_May_14_1112,MusicAffectPsychophysiology2019,3.0.5,59.961308650102815,
To what extent did the music make you feel ,SAD,30MonoWAV/30MonoF1.wav,1,2,2,1,,,,,1,4,20,0,0,5,5,0,,,,,,,,,1,1.3020036170055391,028,001,2019_May_14_1112,MusicAffectPsychophysiology2019,3.0.5,59.961308650102815,
To what extent did the music make you feel ,ALERT,30MonoWAV/30MonoF1.wav,1,2,2,1,,,,,1,4,20,0,0,6,6,8,,,,,,,,,4,1.16940470400732,028,001,2019_May_14_1112,MusicAffectPsychophysiology2019,3.0.5,59.961308650102815,
To what extent did the music make you feel ,ACTIVE,30MonoWAV/30MonoF1.wav,1,2,2,1,,,,,1,4,20,0,0,7,7,9,,,,,,,,,2,1.5529002630064497,028,001,2019_May_14_1112,MusicAffectPsychophysiology2019,3.0.5,59.961308650102815,
To what extent did the music make you feel ,SCARED,30MonoWAV/30MonoF1.wav,1,2,2,1,,,,,1,4,20,0,0,8,8,11,,,,,,,,,4,1.2017183090065373,028,001,2019_May_14_1112,MusicAffectPsychophysiology2019,3.0.5,59.961308650102815,
To what extent did the music make you feel ,FRUSTRATED,30MonoWAV/30MonoF1.wav,1,2,2,1,,,,,1,4,20,0,0,9,9,3,,,,,,,,,1,1.3998085880011786,028,001,2019_May_14_1112,MusicAffectPsychophysiology2019,3.0.5,59.961308650102815,
To what extent did the music make you feel ,GUILTY,30MonoWAV/30MonoF1.wav,1,2,2,1,,,,,1,4,20,0,0,10,10,5,,,,,,,,,1,0.8694704490044387,028,001,2019_May_14_1112,MusicAffectPsychophysiology2019,3.0.5,59.961308650102815,
To what extent did the music make you feel ,TENDER,30MonoWAV/30MonoF1.wav,1,2,2,1,,,,,1,4,20,0,0,11,11,10,,,,,,,,,2,0.8855064899980789,028,001,2019_May_14_1112,MusicAffectPsychophysiology2019,3.0.5,59.961308650102815,
,,30MonoWAV/30MonoF1.wav,1,2,2,1,,,,,1,4,20,0,,,,,,,,,,,,,,,028,001,2019_May_14_1112,MusicAffectPsychophysiology2019,3.0.5,59.961308650102815,
To what extent did the music make you feel ,FRUSTRATED,30MonoWAV/30MonoT4.wav,2,1,4,16,,,,,1,5,21,15,0,0,0,3,,,2,5.6944929949968355,3,3.534966050996445,3,1.1352015860029496,1,1.0317095650098054,028,001,2019_May_14_1112,MusicAffectPsychophysiology2019,3.0.5,59.961308650102815,
To what extent did the music make you feel ,TENDER,30MonoWAV/30MonoT4.wav,2,1,4,16,,,,,1,5,21,15,0,1,1,10,,,,,,,,,1,0.4851583359995857,028,001,2019_May_14_1112,MusicAffectPsychophysiology2019,3.0.5,59.961308650102815,
To what extent did the music make you feel ,ACTIVE,30MonoWAV/30MonoT4.wav,2,1,4,16,,,,,1,5,21,15,0,2,2,9,,,,,,,,,2,1.4181475660006981,028,001,2019_May_14_1112,MusicAffectPsychophysiology2019,3.0.5,59.961308650102815,
To what extent did the music make you feel ,ALERT,30MonoWAV/30MonoT4.wav,2,1,4,16,,,,,1,5,21,15,0,3,3,8,,,,,,,,,3,1.2857675289997132,028,001,2019_May_14_1112,MusicAffectPsychophysiology2019,3.0.5,59.961308650102815,
To what extent did the music make you feel ,EXCITED,30MonoWAV/30MonoT4.wav,2,1,4,16,,,,,1,5,21,15,0,4,4,7,,,,,,,,,2,1.6178390360000776,028,001,2019_May_14_1112,MusicAffectPsychophysiology2019,3.0.5,59.961308650102815,
To what extent did the music make you feel ,GUILTY,30MonoWAV/30MonoT4.wav,2,1,4,16,,,,,1,5,21,15,0,5,5,5,,,,,,,,,1,0.8844657769950572,028,001,2019_May_14_1112,MusicAffectPsychophysiology2019,3.0.5,59.961308650102815,
To what extent did the music make you feel ,SCARED,30MonoWAV/30MonoT4.wav,2,1,4,16,,,,,1,5,21,15,0,6,6,11,,,,,,,,,1,0.6178485979908146,028,001,2019_May_14_1112,MusicAffectPsychophysiology2019,3.0.5,59.961308650102815,
To what extent did the music make you feel ,ANXIOUS ,30MonoWAV/30MonoT4.wav,2,1,4,16,,,,,1,5,21,15,0,7,7,1,,,,,,,,,1,0.43489503499586135,028,001,2019_May_14_1112,MusicAffectPsychophysiology2019,3.0.5,59.961308650102815,
To what extent did the music make you feel ,HAPPY,30MonoWAV/30MonoT4.wav,2,1,4,16,,,,,1,5,21,15,0,8,8,6,,,,,,,,,2,1.1189461699977983,028,001,2019_May_14_1112,MusicAffectPsychophysiology2019,3.0.5,59.961308650102815,
To what extent did the music make you feel ,SAD,30MonoWAV/30MonoT4.wav,2,1,4,16,,,,,1,5,21,15,0,9,9,0,,,,,,,,,1,1.6518196010001702,028,001,2019_May_14_1112,MusicAffectPsychophysiology2019,3.0.5,59.961308650102815,
To what extent did the music make you feel ,ASHAMED,30MonoWAV/30MonoT4.wav,2,1,4,16,,,,,1,5,21,15,0,10,10,4,,,,,,,,,1,0.7523338969913311,028,001,2019_May_14_1112,MusicAffectPsychophysiology2019,3.0.5,59.961308650102815,
To what extent did the music make you feel ,ANGRY,30MonoWAV/30MonoT4.wav,2,1,4,16,,,,,1,5,21,15,0,11,11,2,,,,,,,,,1,0.6847085240005981,028,001,2019_May_14_1112,MusicAffectPsychophysiology2019,3.0.5,59.961308650102815,
,,30MonoWAV/30MonoT4.wav,2,1,4,16,,,,,1,5,21,15,,,,,,,,,,,,,,,028,001,2019_May_14_1112,MusicAffectPsychophysiology2019,3.0.5,59.961308650102815,
To what extent did the music make you feel ,ANGRY,30MonoWAV/30MonoS4.wav,1,1,3,12,,,,,1,6,22,11,0,0,0,2,,,1,2.6008069600065937,3,1.2523478040093323,3,1.419118794001406,1,1.401804342007381,028,001,2019_May_14_1112,MusicAffectPsychophysiology2019,3.0.5,59.961308650102815,
To what extent did the music make you feel ,ASHAMED,30MonoWAV/30MonoS4.wav,1,1,3,12,,,,,1,6,22,11,0,1,1,4,,,,,,,,,1,0.6179059800051618,028,001,2019_May_14_1112,MusicAffectPsychophysiology2019,3.0.5,59.961308650102815,
To what extent did the music make you feel ,SCARED,30MonoWAV/30MonoS4.wav,1,1,3,12,,,,,1,6,22,11,0,2,2,11,,,,,,,,,1,0.6848229050083319,028,001,2019_May_14_1112,MusicAffectPsychophysiology2019,3.0.5,59.961308650102815,
To what extent did the music make you feel ,SAD,30MonoWAV/30MonoS4.wav,1,1,3,12,,,,,1,6,22,11,0,3,3,0,,,,,,,,,1,0.6340246189938625,028,001,2019_May_14_1112,MusicAffectPsychophysiology2019,3.0.5,59.961308650102815,
To what extent did the music make you feel ,ALERT,30MonoWAV/30MonoS4.wav,1,1,3,12,,,,,1,6,22,11,0,4,4,8,,,,,,,,,2,3.5687712840008317,028,001,2019_May_14_1112,MusicAffectPsychophysiology2019,3.0.5,59.961308650102815,
To what extent did the music make you feel ,ANXIOUS ,30MonoWAV/30MonoS4.wav,1,1,3,12,,,,,1,6,22,11,0,5,5,1,,,,,,,,,1,1.1689615770010278,028,001,2019_May_14_1112,MusicAffectPsychophysiology2019,3.0.5,59.961308650102815,
To what extent did the music make you feel ,TENDER,30MonoWAV/30MonoS4.wav,1,1,3,12,,,,,1,6,22,11,0,6,6,10,,,,,,,,,3,1.4534572689881315,028,001,2019_May_14_1112,MusicAffectPsychophysiology2019,3.0.5,59.961308650102815,
To what extent did the music make you feel ,ACTIVE,30MonoWAV/30MonoS4.wav,1,1,3,12,,,,,1,6,22,11,0,7,7,9,,,,,,,,,1,1.1019221890019253,028,001,2019_May_14_1112,MusicAffectPsychophysiology2019,3.0.5,59.961308650102815,
To what extent did the music make you feel ,GUILTY,30MonoWAV/30MonoS4.wav,1,1,3,12,,,,,1,6,22,11,0,8,8,5,,,,,,,,,1,1.9852598670113366,028,001,2019_May_14_1112,MusicAffectPsychophysiology2019,3.0.5,59.961308650102815,
To what extent did the music make you feel ,HAPPY,30MonoWAV/30MonoS4.wav,1,1,3,12,,,,,1,6,22,11,0,9,9,6,,,,,,,,,1,1.402168239990715,028,001,2019_May_14_1112,MusicAffectPsychophysiology2019,3.0.5,59.961308650102815,
To what extent did the music make you feel ,FRUSTRATED,30MonoWAV/30MonoS4.wav,1,1,3,12,,,,,1,6,22,11,0,10,10,3,,,,,,,,,1,1.4020543960068608,028,001,2019_May_14_1112,MusicAffectPsychophysiology2019,3.0.5,59.961308650102815,
To what extent did the music make you feel ,EXCITED,30MonoWAV/30MonoS4.wav,1,1,3,12,,,,,1,6,22,11,0,11,11,7,,,,,,,,,1,0.93510800099466,028,001,2019_May_14_1112,MusicAffectPsychophysiology2019,3.0.5,59.961308650102815,
,,30MonoWAV/30MonoS4.wav,1,1,3,12,,,,,1,6,22,11,,,,,,,,,,,,,,,028,001,2019_May_14_1112,MusicAffectPsychophysiology2019,3.0.5,59.961308650102815,
To what extent did the music make you feel ,GUILTY,30MonoWAV/30MonoH1.wav,2,2,1,5,,,,,1,7,23,4,0,0,0,5,,,2,2.135815683999681,3,3.383738553005969,3,0.9350038760021562,1,1.0524850889923982,028,001,2019_May_14_1112,MusicAffectPsychophysiology2019,3.0.5,59.961308650102815,
To what extent did the music make you feel ,SAD,30MonoWAV/30MonoH1.wav,2,2,1,5,,,,,1,7,23,4,0,1,1,0,,,,,,,,,1,0.6683757490100106,028,001,2019_May_14_1112,MusicAffectPsychophysiology2019,3.0.5,59.961308650102815,
To what extent did the music make you feel ,SCARED,30MonoWAV/30MonoH1.wav,2,2,1,5,,,,,1,7,23,4,0,2,2,11,,,,,,,,,1,0.6694449770002393,028,001,2019_May_14_1112,MusicAffectPsychophysiology2019,3.0.5,59.961308650102815,
To what extent did the music make you feel ,ANXIOUS ,30MonoWAV/30MonoH1.wav,2,2,1,5,,,,,1,7,23,4,0,3,3,1,,,,,,,,,1,0.7669714529911289,028,001,2019_May_14_1112,MusicAffectPsychophysiology2019,3.0.5,59.961308650102815,
To what extent did the music make you feel ,EXCITED,30MonoWAV/30MonoH1.wav,2,2,1,5,,,,,1,7,23,4,0,4,4,7,,,,,,,,,3,1.1020516309945378,028,001,2019_May_14_1112,MusicAffectPsychophysiology2019,3.0.5,59.961308650102815,
To what extent did the music make you feel ,ACTIVE,30MonoWAV/30MonoH1.wav,2,2,1,5,,,,,1,7,23,4,0,5,5,9,,,,,,,,,3,1.0683487770002102,028,001,2019_May_14_1112,MusicAffectPsychophysiology2019,3.0.5,59.961308650102815,
To what extent did the music make you feel ,ANGRY,30MonoWAV/30MonoH1.wav,2,2,1,5,,,,,1,7,23,4,0,6,6,2,,,,,,,,,1,1.486645976008731,028,001,2019_May_14_1112,MusicAffectPsychophysiology2019,3.0.5,59.961308650102815,
To what extent did the music make you feel ,TENDER,30MonoWAV/30MonoH1.wav,2,2,1,5,,,,,1,7,23,4,0,7,7,10,,,,,,,,,2,1.1345941760082496,028,001,2019_May_14_1112,MusicAffectPsychophysiology2019,3.0.5,59.961308650102815,
To what extent did the music make you feel ,HAPPY,30MonoWAV/30MonoH1.wav,2,2,1,5,,,,,1,7,23,4,0,8,8,6,,,,,,,,,3,1.2163268400036031,028,001,2019_May_14_1112,MusicAffectPsychophysiology2019,3.0.5,59.961308650102815,
To what extent did the music make you feel ,FRUSTRATED,30MonoWAV/30MonoH1.wav,2,2,1,5,,,,,1,7,23,4,0,9,9,3,,,,,,,,,1,1.3854030040092766,028,001,2019_May_14_1112,MusicAffectPsychophysiology2019,3.0.5,59.961308650102815,
To what extent did the music make you feel ,ALERT,30MonoWAV/30MonoH1.wav,2,2,1,5,,,,,1,7,23,4,0,10,10,8,,,,,,,,,4,1.4184818289941177,028,001,2019_May_14_1112,MusicAffectPsychophysiology2019,3.0.5,59.961308650102815,
To what extent did the music make you feel ,ASHAMED,30MonoWAV/30MonoH1.wav,2,2,1,5,,,,,1,7,23,4,0,11,11,4,,,,,,,,,1,0.7182851190009387,028,001,2019_May_14_1112,MusicAffectPsychophysiology2019,3.0.5,59.961308650102815,
,,30MonoWAV/30MonoH1.wav,2,2,1,5,,,,,1,7,23,4,,,,,,,,,,,,,,,028,001,2019_May_14_1112,MusicAffectPsychophysiology2019,3.0.5,59.961308650102815,
To what extent did the music make you feel ,ASHAMED,30MonoWAV/30MonoH3.wav,2,2,1,7,,,,,1,8,24,6,0,0,0,4,,,3,2.1855814280133927,3,1.585777390995645,2,1.3845955419965321,1,1.7330758040043293,028,001,2019_May_14_1112,MusicAffectPsychophysiology2019,3.0.5,59.961308650102815,
To what extent did the music make you feel ,TENDER,30MonoWAV/30MonoH3.wav,2,2,1,7,,,,,1,8,24,6,0,1,1,10,,,,,,,,,1,1.3351709179987665,028,001,2019_May_14_1112,MusicAffectPsychophysiology2019,3.0.5,59.961308650102815,
To what extent did the music make you feel ,FRUSTRATED,30MonoWAV/30MonoH3.wav,2,2,1,7,,,,,1,8,24,6,0,2,2,3,,,,,,,,,1,0.5851614749990404,028,001,2019_May_14_1112,MusicAffectPsychophysiology2019,3.0.5,59.961308650102815,
To what extent did the music make you feel ,GUILTY,30MonoWAV/30MonoH3.wav,2,2,1,7,,,,,1,8,24,6,0,3,3,5,,,,,,,,,1,0.5015784510032972,028,001,2019_May_14_1112,MusicAffectPsychophysiology2019,3.0.5,59.961308650102815,
To what extent did the music make you feel ,SCARED,30MonoWAV/30MonoH3.wav,2,2,1,7,,,,,1,8,24,6,0,4,4,11,,,,,,,,,1,0.4858877399965422,028,001,2019_May_14_1112,MusicAffectPsychophysiology2019,3.0.5,59.961308650102815,
To what extent did the music make you feel ,EXCITED,30MonoWAV/30MonoH3.wav,2,2,1,7,,,,,1,8,24,6,0,5,5,7,,,,,,,,,3,1.233089821995236,028,001,2019_May_14_1112,MusicAffectPsychophysiology2019,3.0.5,59.961308650102815,
To what extent did the music make you feel ,SAD,30MonoWAV/30MonoH3.wav,2,2,1,7,,,,,1,8,24,6,0,6,6,0,,,,,,,,,1,0.7999358259985456,028,001,2019_May_14_1112,MusicAffectPsychophysiology2019,3.0.5,59.961308650102815,
To what extent did the music make you feel ,ACTIVE,30MonoWAV/30MonoH3.wav,2,2,1,7,,,,,1,8,24,6,0,7,7,9,,,,,,,,,4,1.3348850660113385,028,001,2019_May_14_1112,MusicAffectPsychophysiology2019,3.0.5,59.961308650102815,
To what extent did the music make you feel ,ANGRY,30MonoWAV/30MonoH3.wav,2,2,1,7,,,,,1,8,24,6,0,8,8,2,,,,,,,,,1,1.88428394201037,028,001,2019_May_14_1112,MusicAffectPsychophysiology2019,3.0.5,59.961308650102815,
To what extent did the music make you feel ,HAPPY,30MonoWAV/30MonoH3.wav,2,2,1,7,,,,,1,8,24,6,0,9,9,6,,,,,,,,,3,2.6676534300058847,028,001,2019_May_14_1112,MusicAffectPsychophysiology2019,3.0.5,59.961308650102815,
To what extent did the music make you feel ,ALERT,30MonoWAV/30MonoH3.wav,2,2,1,7,,,,,1,8,24,6,0,10,10,8,,,,,,,,,1,0.9019505420001224,028,001,2019_May_14_1112,MusicAffectPsychophysiology2019,3.0.5,59.961308650102815,
To what extent did the music make you feel ,ANXIOUS ,30MonoWAV/30MonoH3.wav,2,2,1,7,,,,,1,8,24,6,0,11,11,1,,,,,,,,,1,1.5687570800073445,028,001,2019_May_14_1112,MusicAffectPsychophysiology2019,3.0.5,59.961308650102815,
,,30MonoWAV/30MonoH3.wav,2,2,1,7,,,,,1,8,24,6,,,,,,,,,,,,,,,028,001,2019_May_14_1112,MusicAffectPsychophysiology2019,3.0.5,59.961308650102815,
To what extent did the music make you feel ,ALERT,30MonoWAV/30MonoF2.wav,1,2,2,2,,,,,1,9,25,1,0,0,0,8,,,3,4.136247418005951,1,1.5849832719977712,1,1.3691717710025841,3,1.718859168002382,028,001,2019_May_14_1112,MusicAffectPsychophysiology2019,3.0.5,59.961308650102815,
To what extent did the music make you feel ,TENDER,30MonoWAV/30MonoF2.wav,1,2,2,2,,,,,1,9,25,1,0,1,1,10,,,,,,,,,1,1.018422990993713,028,001,2019_May_14_1112,MusicAffectPsychophysiology2019,3.0.5,59.961308650102815,
To what extent did the music make you feel ,ANGRY,30MonoWAV/30MonoF2.wav,1,2,2,2,,,,,1,9,25,1,0,2,2,2,,,,,,,,,2,1.2683775829937076,028,001,2019_May_14_1112,MusicAffectPsychophysiology2019,3.0.5,59.961308650102815,
To what extent did the music make you feel ,GUILTY,30MonoWAV/30MonoF2.wav,1,2,2,2,,,,,1,9,25,1,0,3,3,5,,,,,,,,,1,0.9685497960017528,028,001,2019_May_14_1112,MusicAffectPsychophysiology2019,3.0.5,59.961308650102815,
To what extent did the music make you feel ,FRUSTRATED,30MonoWAV/30MonoF2.wav,1,2,2,2,,,,,1,9,25,1,0,4,4,3,,,,,,,,,1,0.9506251380080357,028,001,2019_May_14_1112,MusicAffectPsychophysiology2019,3.0.5,59.961308650102815,
To what extent did the music make you feel ,SAD,30MonoWAV/30MonoF2.wav,1,2,2,2,,,,,1,9,25,1,0,5,5,0,,,,,,,,,1,1.135322472997359,028,001,2019_May_14_1112,MusicAffectPsychophysiology2019,3.0.5,59.961308650102815,
To what extent did the music make you feel ,ANXIOUS ,30MonoWAV/30MonoF2.wav,1,2,2,2,,,,,1,9,25,1,0,6,6,1,,,,,,,,,5,2.201711212997907,028,001,2019_May_14_1112,MusicAffectPsychophysiology2019,3.0.5,59.961308650102815,
To what extent did the music make you feel ,HAPPY,30MonoWAV/30MonoF2.wav,1,2,2,2,,,,,1,9,25,1,0,7,7,6,,,,,,,,,1,1.2032612080074614,028,001,2019_May_14_1112,MusicAffectPsychophysiology2019,3.0.5,59.961308650102815,
To what extent did the music make you feel ,ASHAMED,30MonoWAV/30MonoF2.wav,1,2,2,2,,,,,1,9,25,1,0,8,8,4,,,,,,,,,1,1.0344816349970642,028,001,2019_May_14_1112,MusicAffectPsychophysiology2019,3.0.5,59.961308650102815,
To what extent did the music make you feel ,EXCITED,30MonoWAV/30MonoF2.wav,1,2,2,2,,,,,1,9,25,1,0,9,9,7,,,,,,,,,1,2.2345342280023033,028,001,2019_May_14_1112,MusicAffectPsychophysiology2019,3.0.5,59.961308650102815,
To what extent did the music make you feel ,SCARED,30MonoWAV/30MonoF2.wav,1,2,2,2,,,,,1,9,25,1,0,10,10,11,,,,,,,,,4,1.9685457849991508,028,001,2019_May_14_1112,MusicAffectPsychophysiology2019,3.0.5,59.961308650102815,
To what extent did the music make you feel ,ACTIVE,30MonoWAV/30MonoF2.wav,1,2,2,2,,,,,1,9,25,1,0,11,11,9,,,,,,,,,3,2.0854160329909064,028,001,2019_May_14_1112,MusicAffectPsychophysiology2019,3.0.5,59.961308650102815,
,,30MonoWAV/30MonoF2.wav,1,2,2,2,,,,,1,9,25,1,,,,,,,,,,,,,,,028,001,2019_May_14_1112,MusicAffectPsychophysiology2019,3.0.5,59.961308650102815,
To what extent did the music make you feel ,ALERT,30MonoWAV/30MonoF4.wav,1,2,2,4,,,,,1,10,26,3,0,0,0,8,,,3,4.351315849999082,2,1.7849460629950045,3,1.7189001539954916,4,1.5682303630019305,028,001,2019_May_14_1112,MusicAffectPsychophysiology2019,3.0.5,59.961308650102815,
To what extent did the music make you feel ,FRUSTRATED,30MonoWAV/30MonoF4.wav,1,2,2,4,,,,,1,10,26,3,0,1,1,3,,,,,,,,,1,1.2008943900000304,028,001,2019_May_14_1112,MusicAffectPsychophysiology2019,3.0.5,59.961308650102815,
To what extent did the music make you feel ,ACTIVE,30MonoWAV/30MonoF4.wav,1,2,2,4,,,,,1,10,26,3,0,2,2,9,,,,,,,,,3,1.3015110929991351,028,001,2019_May_14_1112,MusicAffectPsychophysiology2019,3.0.5,59.961308650102815,
To what extent did the music make you feel ,EXCITED,30MonoWAV/30MonoF4.wav,1,2,2,4,,,,,1,10,26,3,0,3,3,7,,,,,,,,,2,1.3501306410034886,028,001,2019_May_14_1112,MusicAffectPsychophysiology2019,3.0.5,59.961308650102815,
To what extent did the music make you feel ,ASHAMED,30MonoWAV/30MonoF4.wav,1,2,2,4,,,,,1,10,26,3,0,4,4,4,,,,,,,,,1,1.5009821700077737,028,001,2019_May_14_1112,MusicAffectPsychophysiology2019,3.0.5,59.961308650102815,
To what extent did the music make you feel ,HAPPY,30MonoWAV/30MonoF4.wav,1,2,2,4,,,,,1,10,26,3,0,5,5,6,,,,,,,,,1,2.3186952059913892,028,001,2019_May_14_1112,MusicAffectPsychophysiology2019,3.0.5,59.961308650102815,
To what extent did the music make you feel ,GUILTY,30MonoWAV/30MonoF4.wav,1,2,2,4,,,,,1,10,26,3,0,6,6,5,,,,,,,,,1,0.7502423249970889,028,001,2019_May_14_1112,MusicAffectPsychophysiology2019,3.0.5,59.961308650102815,
To what extent did the music make you feel ,SAD,30MonoWAV/30MonoF4.wav,1,2,2,4,,,,,1,10,26,3,0,7,7,0,,,,,,,,,1,0.7863927319995128,028,001,2019_May_14_1112,MusicAffectPsychophysiology2019,3.0.5,59.961308650102815,
To what extent did the music make you feel ,ANXIOUS ,30MonoWAV/30MonoF4.wav,1,2,2,4,,,,,1,10,26,3,0,8,8,1,,,,,,,,,3,1.551294028002303,028,001,2019_May_14_1112,MusicAffectPsychophysiology2019,3.0.5,59.961308650102815,
To what extent did the music make you feel ,ANGRY,30MonoWAV/30MonoF4.wav,1,2,2,4,,,,,1,10,26,3,0,9,9,2,,,,,,,,,1,1.552001542004291,028,001,2019_May_14_1112,MusicAffectPsychophysiology2019,3.0.5,59.961308650102815,
To what extent did the music make you feel ,TENDER,30MonoWAV/30MonoF4.wav,1,2,2,4,,,,,1,10,26,3,0,10,10,10,,,,,,,,,2,3.5187555570009863,028,001,2019_May_14_1112,MusicAffectPsychophysiology2019,3.0.5,59.961308650102815,
To what extent did the music make you feel ,SCARED,30MonoWAV/30MonoF4.wav,1,2,2,4,,,,,1,10,26,3,0,11,11,11,,,,,,,,,1,2.6177543490048265,028,001,2019_May_14_1112,MusicAffectPsychophysiology2019,3.0.5,59.961308650102815,
,,30MonoWAV/30MonoF4.wav,1,2,2,4,,,,,1,10,26,3,,,,,,,,,,,,,,,028,001,2019_May_14_1112,MusicAffectPsychophysiology2019,3.0.5,59.961308650102815,
To what extent did the music make you feel ,ANGRY,30MonoWAV/30MonoS3.wav,1,1,3,11,,,,,1,11,27,10,0,0,0,2,,,2,2.752220889000455,2,2.4021390339912614,3,3.21792139900208,1,1.7843340789986541,028,001,2019_May_14_1112,MusicAffectPsychophysiology2019,3.0.5,59.961308650102815,
To what extent did the music make you feel ,FRUSTRATED,30MonoWAV/30MonoS3.wav,1,1,3,11,,,,,1,11,27,10,0,1,1,3,,,,,,,,,1,0.7185143910028273,028,001,2019_May_14_1112,MusicAffectPsychophysiology2019,3.0.5,59.961308650102815,
To what extent did the music make you feel ,ACTIVE,30MonoWAV/30MonoS3.wav,1,1,3,11,,,,,1,11,27,10,0,2,2,9,,,,,,,,,1,1.2358964340091916,028,001,2019_May_14_1112,MusicAffectPsychophysiology2019,3.0.5,59.961308650102815,
To what extent did the music make you feel ,TENDER,30MonoWAV/30MonoS3.wav,1,1,3,11,,,,,1,11,27,10,0,3,3,10,,,,,,,,,2,1.4522024499892723,028,001,2019_May_14_1112,MusicAffectPsychophysiology2019,3.0.5,59.961308650102815,
To what extent did the music make you feel ,ASHAMED,30MonoWAV/30MonoS3.wav,1,1,3,11,,,,,1,11,27,10,0,4,4,4,,,,,,,,,1,1.6687010810128413,028,001,2019_May_14_1112,MusicAffectPsychophysiology2019,3.0.5,59.961308650102815,
To what extent did the music make you feel ,EXCITED,30MonoWAV/30MonoS3.wav,1,1,3,11,,,,,1,11,27,10,0,5,5,7,,,,,,,,,1,1.7183406990079675,028,001,2019_May_14_1112,MusicAffectPsychophysiology2019,3.0.5,59.961308650102815,
To what extent did the music make you feel ,ANXIOUS ,30MonoWAV/30MonoS3.wav,1,1,3,11,,,,,1,11,27,10,0,6,6,1,,,,,,,,,1,0.9021005669928854,028,001,2019_May_14_1112,MusicAffectPsychophysiology2019,3.0.5,59.961308650102815,
To what extent did the music make you feel ,SCARED,30MonoWAV/30MonoS3.wav,1,1,3,11,,,,,1,11,27,10,0,7,7,11,,,,,,,,,1,0.5519512710015988,028,001,2019_May_14_1112,MusicAffectPsychophysiology2019,3.0.5,59.961308650102815,
To what extent did the music make you feel ,ALERT,30MonoWAV/30MonoS3.wav,1,1,3,11,,,,,1,11,27,10,0,8,8,8,,,,,,,,,2,1.0837462630006485,028,001,2019_May_14_1112,MusicAffectPsychophysiology2019,3.0.5,59.961308650102815,
To what extent did the music make you feel ,GUILTY,30MonoWAV/30MonoS3.wav,1,1,3,11,,,,,1,11,27,10,0,9,9,5,,,,,,,,,1,1.601760967008886,028,001,2019_May_14_1112,MusicAffectPsychophysiology2019,3.0.5,59.961308650102815,
To what extent did the music make you feel ,HAPPY,30MonoWAV/30MonoS3.wav,1,1,3,11,,,,,1,11,27,10,0,10,10,6,,,,,,,,,2,0.8851506890059682,028,001,2019_May_14_1112,MusicAffectPsychophysiology2019,3.0.5,59.961308650102815,
To what extent did the music make you feel ,SAD,30MonoWAV/30MonoS3.wav,1,1,3,11,,,,,1,11,27,10,0,11,11,0,,,,,,,,,1,0.7355320009955904,028,001,2019_May_14_1112,MusicAffectPsychophysiology2019,3.0.5,59.961308650102815,
,,30MonoWAV/30MonoS3.wav,1,1,3,11,,,,,1,11,27,10,,,,,,,,,,,,,,,028,001,2019_May_14_1112,MusicAffectPsychophysiology2019,3.0.5,59.961308650102815,
To what extent did the music make you feel ,FRUSTRATED,30MonoWAV/30MonoS1.wav,1,1,3,9,,,,,1,12,28,8,0,0,0,3,,,2,4.534202877999633,2,1.8353531600005226,3,2.485201681003673,1,2.405111649000901,028,001,2019_May_14_1112,MusicAffectPsychophysiology2019,3.0.5,59.961308650102815,
To what extent did the music make you feel ,ANXIOUS ,30MonoWAV/30MonoS1.wav,1,1,3,9,,,,,1,12,28,8,0,1,1,1,,,,,,,,,1,1.101674039993668,028,001,2019_May_14_1112,MusicAffectPsychophysiology2019,3.0.5,59.961308650102815,
To what extent did the music make you feel ,ALERT,30MonoWAV/30MonoS1.wav,1,1,3,9,,,,,1,12,28,8,0,2,2,8,,,,,,,,,2,0.9684253910090774,028,001,2019_May_14_1112,MusicAffectPsychophysiology2019,3.0.5,59.961308650102815,
To what extent did the music make you feel ,ANGRY,30MonoWAV/30MonoS1.wav,1,1,3,9,,,,,1,12,28,8,0,3,3,2,,,,,,,,,1,0.5697565890004626,028,001,2019_May_14_1112,MusicAffectPsychophysiology2019,3.0.5,59.961308650102815,
To what extent did the music make you feel ,GUILTY,30MonoWAV/30MonoS1.wav,1,1,3,9,,,,,1,12,28,8,0,4,4,5,,,,,,,,,1,0.7182575399929192,028,001,2019_May_14_1112,MusicAffectPsychophysiology2019,3.0.5,59.961308650102815,
To what extent did the music make you feel ,HAPPY,30MonoWAV/30MonoS1.wav,1,1,3,9,,,,,1,12,28,8,0,5,5,6,,,,,,,,,3,1.3526190209959168,028,001,2019_May_14_1112,MusicAffectPsychophysiology2019,3.0.5,59.961308650102815,
To what extent did the music make you feel ,EXCITED,30MonoWAV/30MonoS1.wav,1,1,3,9,,,,,1,12,28,8,0,6,6,7,,,,,,,,,1,1.3682609080133261,028,001,2019_May_14_1112,MusicAffectPsychophysiology2019,3.0.5,59.961308650102815,
To what extent did the music make you feel ,SAD,30MonoWAV/30MonoS1.wav,1,1,3,9,,,,,1,12,28,8,0,7,7,0,,,,,,,,,1,2.0515399659925606,028,001,2019_May_14_1112,MusicAffectPsychophysiology2019,3.0.5,59.961308650102815,
To what extent did the music make you feel ,ACTIVE,30MonoWAV/30MonoS1.wav,1,1,3,9,,,,,1,12,28,8,0,8,8,9,,,,,,,,,2,1.2520636489934986,028,001,2019_May_14_1112,MusicAffectPsychophysiology2019,3.0.5,59.961308650102815,
To what extent did the music make you feel ,ASHAMED,30MonoWAV/30MonoS1.wav,1,1,3,9,,,,,1,12,28,8,0,9,9,4,,,,,,,,,1,0.702140514011262,028,001,2019_May_14_1112,MusicAffectPsychophysiology2019,3.0.5,59.961308650102815,
To what extent did the music make you feel ,SCARED,30MonoWAV/30MonoS1.wav,1,1,3,9,,,,,1,12,28,8,0,10,10,11,,,,,,,,,1,0.7862156859919196,028,001,2019_May_14_1112,MusicAffectPsychophysiology2019,3.0.5,59.961308650102815,
To what extent did the music make you feel ,TENDER,30MonoWAV/30MonoS1.wav,1,1,3,9,,,,,1,12,28,8,0,11,11,10,,,,,,,,,2,0.8526330470049288,028,001,2019_May_14_1112,MusicAffectPsychophysiology2019,3.0.5,59.961308650102815,
,,30MonoWAV/30MonoS1.wav,1,1,3,9,,,,,1,12,28,8,,,,,,,,,,,,,,,028,001,2019_May_14_1112,MusicAffectPsychophysiology2019,3.0.5,59.961308650102815,
To what extent did the music make you feel ,GUILTY,30MonoWAV/30MonoT3.wav,2,1,4,15,,,,,1,13,29,14,0,0,0,5,,,1,1.7510637780069374,3,1.8521519219939364,2,1.868138015997829,1,1.2013451980019454,028,001,2019_May_14_1112,MusicAffectPsychophysiology2019,3.0.5,59.961308650102815,
To what extent did the music make you feel ,FRUSTRATED,30MonoWAV/30MonoT3.wav,2,1,4,15,,,,,1,13,29,14,0,1,1,3,,,,,,,,,1,0.6184889860014664,028,001,2019_May_14_1112,MusicAffectPsychophysiology2019,3.0.5,59.961308650102815,
To what extent did the music make you feel ,HAPPY,30MonoWAV/30MonoT3.wav,2,1,4,15,,,,,1,13,29,14,0,2,2,6,,,,,,,,,2,0.9186151309986599,028,001,2019_May_14_1112,MusicAffectPsychophysiology2019,3.0.5,59.961308650102815,
To what extent did the music make you feel ,EXCITED,30MonoWAV/30MonoT3.wav,2,1,4,15,,,,,1,13,29,14,0,3,3,7,,,,,,,,,1,0.8184915050078416,028,001,2019_May_14_1112,MusicAffectPsychophysiology2019,3.0.5,59.961308650102815,
To what extent did the music make you feel ,SAD,30MonoWAV/30MonoT3.wav,2,1,4,15,,,,,1,13,29,14,0,4,4,0,,,,,,,,,2,2.201674787007505,028,001,2019_May_14_1112,MusicAffectPsychophysiology2019,3.0.5,59.961308650102815,
To what extent did the music make you feel ,ALERT,30MonoWAV/30MonoT3.wav,2,1,4,15,,,,,1,13,29,14,0,5,5,8,,,,,,,,,3,1.3865661320014624,028,001,2019_May_14_1112,MusicAffectPsychophysiology2019,3.0.5,59.961308650102815,
To what extent did the music make you feel ,ANXIOUS ,30MonoWAV/30MonoT3.wav,2,1,4,15,,,,,1,13,29,14,0,6,6,1,,,,,,,,,1,0.8517442580050556,028,001,2019_May_14_1112,MusicAffectPsychophysiology2019,3.0.5,59.961308650102815,
To what extent did the music make you feel ,ACTIVE,30MonoWAV/30MonoT3.wav,2,1,4,15,,,,,1,13,29,14,0,7,7,9,,,,,,,,,1,5.069245664999471,028,001,2019_May_14_1112,MusicAffectPsychophysiology2019,3.0.5,59.961308650102815,
To what extent did the music make you feel ,TENDER,30MonoWAV/30MonoT3.wav,2,1,4,15,,,,,1,13,29,14,0,8,8,10,,,,,,,,,2,0.9435681140021188,028,001,2019_May_14_1112,MusicAffectPsychophysiology2019,3.0.5,59.961308650102815,
To what extent did the music make you feel ,ANGRY,30MonoWAV/30MonoT3.wav,2,1,4,15,,,,,1,13,29,14,0,9,9,2,,,,,,,,,1,0.6519852649944369,028,001,2019_May_14_1112,MusicAffectPsychophysiology2019,3.0.5,59.961308650102815,
To what extent did the music make you feel ,SCARED,30MonoWAV/30MonoT3.wav,2,1,4,15,,,,,1,13,29,14,0,10,10,11,,,,,,,,,1,0.7354975250054849,028,001,2019_May_14_1112,MusicAffectPsychophysiology2019,3.0.5,59.961308650102815,
To what extent did the music make you feel ,ASHAMED,30MonoWAV/30MonoT3.wav,2,1,4,15,,,,,1,13,29,14,0,11,11,4,,,,,,,,,1,0.9676899360056268,028,001,2019_May_14_1112,MusicAffectPsychophysiology2019,3.0.5,59.961308650102815,
,,30MonoWAV/30MonoT3.wav,2,1,4,15,,,,,1,13,29,14,,,,,,,,,,,,,,,028,001,2019_May_14_1112,MusicAffectPsychophysiology2019,3.0.5,59.961308650102815,
To what extent did the music make you feel ,ANGRY,30MonoWAV/30MonoH4.wav,2,2,1,8,,,,,1,14,30,7,0,0,0,2,,,2,2.2848488809977425,2,1.1682382900035009,3,1.1178969249885995,1,0.9853896819986403,028,001,2019_May_14_1112,MusicAffectPsychophysiology2019,3.0.5,59.961308650102815,
To what extent did the music make you feel ,ANXIOUS ,30MonoWAV/30MonoH4.wav,2,2,1,8,,,,,1,14,30,7,0,1,1,1,,,,,,,,,1,0.6494140410068212,028,001,2019_May_14_1112,MusicAffectPsychophysiology2019,3.0.5,59.961308650102815,
To what extent did the music make you feel ,ASHAMED,30MonoWAV/30MonoH4.wav,2,2,1,8,,,,,1,14,30,7,0,2,2,4,,,,,,,,,1,0.517872520009405,028,001,2019_May_14_1112,MusicAffectPsychophysiology2019,3.0.5,59.961308650102815,
To what extent did the music make you feel ,ACTIVE,30MonoWAV/30MonoH4.wav,2,2,1,8,,,,,1,14,30,7,0,3,3,9,,,,,,,,,3,2.135658926999895,028,001,2019_May_14_1112,MusicAffectPsychophysiology2019,3.0.5,59.961308650102815,
To what extent did the music make you feel ,SCARED,30MonoWAV/30MonoH4.wav,2,2,1,8,,,,,1,14,30,7,0,4,4,11,,,,,,,,,1,0.6681685549992835,028,001,2019_May_14_1112,MusicAffectPsychophysiology2019,3.0.5,59.961308650102815,
To what extent did the music make you feel ,HAPPY,30MonoWAV/30MonoH4.wav,2,2,1,8,,,,,1,14,30,7,0,5,5,6,,,,,,,,,3,1.1354181919887196,028,001,2019_May_14_1112,MusicAffectPsychophysiology2019,3.0.5,59.961308650102815,
To what extent did the music make you feel ,TENDER,30MonoWAV/30MonoH4.wav,2,2,1,8,,,,,1,14,30,7,0,6,6,10,,,,,,,,,2,1.5354656519921264,028,001,2019_May_14_1112,MusicAffectPsychophysiology2019,3.0.5,59.961308650102815,
To what extent did the music make you feel ,FRUSTRATED,30MonoWAV/30MonoH4.wav,2,2,1,8,,,,,1,14,30,7,0,7,7,3,,,,,,,,,1,1.0682078020035988,028,001,2019_May_14_1112,MusicAffectPsychophysiology2019,3.0.5,59.961308650102815,
To what extent did the music make you feel ,EXCITED,30MonoWAV/30MonoH4.wav,2,2,1,8,,,,,1,14,30,7,0,8,8,7,,,,,,,,,3,1.9505483470129548,028,001,2019_May_14_1112,MusicAffectPsychophysiology2019,3.0.5,59.961308650102815,
To what extent did the music make you feel ,GUILTY,30MonoWAV/30MonoH4.wav,2,2,1,8,,,,,1,14,30,7,0,9,9,5,,,,,,,,,1,3.368910908990074,028,001,2019_May_14_1112,MusicAffectPsychophysiology2019,3.0.5,59.961308650102815,
To what extent did the music make you feel ,SAD,30MonoWAV/30MonoH4.wav,2,2,1,8,,,,,1,14,30,7,0,10,10,0,,,,,,,,,1,0.6519122999889078,028,001,2019_May_14_1112,MusicAffectPsychophysiology2019,3.0.5,59.961308650102815,
To what extent did the music make you feel ,ALERT,30MonoWAV/30MonoH4.wav,2,2,1,8,,,,,1,14,30,7,0,11,11,8,,,,,,,,,3,0.9348097430047346,028,001,2019_May_14_1112,MusicAffectPsychophysiology2019,3.0.5,59.961308650102815,
,,30MonoWAV/30MonoH4.wav,2,2,1,8,,,,,1,14,30,7,,,,,,,,,,,,,,,028,001,2019_May_14_1112,MusicAffectPsychophysiology2019,3.0.5,59.961308650102815,
To what extent did the music make you feel ,ACTIVE,30MonoWAV/30MonoH2.wav,2,2,1,6,,,,,1,15,31,5,0,0,0,9,,,3,2.0517383350088494,4,2.535503021994373,4,1.5684904330119025,2,2.4971759670006577,028,001,2019_May_14_1112,MusicAffectPsychophysiology2019,3.0.5,59.961308650102815,
To what extent did the music make you feel ,ASHAMED,30MonoWAV/30MonoH2.wav,2,2,1,6,,,,,1,15,31,5,0,1,1,4,,,,,,,,,1,0.9331160830042791,028,001,2019_May_14_1112,MusicAffectPsychophysiology2019,3.0.5,59.961308650102815,
To what extent did the music make you feel ,SCARED,30MonoWAV/30MonoH2.wav,2,2,1,6,,,,,1,15,31,5,0,2,2,11,,,,,,,,,1,1.0017845499969553,028,001,2019_May_14_1112,MusicAffectPsychophysiology2019,3.0.5,59.961308650102815,
To what extent did the music make you feel ,TENDER,30MonoWAV/30MonoH2.wav,2,2,1,6,,,,,1,15,31,5,0,3,3,10,,,,,,,,,1,1.3020048720063642,028,001,2019_May_14_1112,MusicAffectPsychophysiology2019,3.0.5,59.961308650102815,
To what extent did the music make you feel ,HAPPY,30MonoWAV/30MonoH2.wav,2,2,1,6,,,,,1,15,31,5,0,4,4,6,,,,,,,,,4,1.250307877009618,028,001,2019_May_14_1112,MusicAffectPsychophysiology2019,3.0.5,59.961308650102815,
To what extent did the music make you feel ,GUILTY,30MonoWAV/30MonoH2.wav,2,2,1,6,,,,,1,15,31,5,0,5,5,5,,,,,,,,,1,0.6520574059977662,028,001,2019_May_14_1112,MusicAffectPsychophysiology2019,3.0.5,59.961308650102815,
To what extent did the music make you feel ,EXCITED,30MonoWAV/30MonoH2.wav,2,2,1,6,,,,,1,15,31,5,0,6,6,7,,,,,,,,,3,1.1172362209908897,028,001,2019_May_14_1112,MusicAffectPsychophysiology2019,3.0.5,59.961308650102815,
To what extent did the music make you feel ,FRUSTRATED,30MonoWAV/30MonoH2.wav,2,2,1,6,,,,,1,15,31,5,0,7,7,3,,,,,,,,,1,1.4694027020013891,028,001,2019_May_14_1112,MusicAffectPsychophysiology2019,3.0.5,59.961308650102815,
To what extent did the music make you feel ,ANGRY,30MonoWAV/30MonoH2.wav,2,2,1,6,,,,,1,15,31,5,0,8,8,2,,,,,,,,,1,0.9851212429930456,028,001,2019_May_14_1112,MusicAffectPsychophysiology2019,3.0.5,59.961308650102815,
To what extent did the music make you feel ,ALERT,30MonoWAV/30MonoH2.wav,2,2,1,6,,,,,1,15,31,5,0,9,9,8,,,,,,,,,4,1.069097617000807,028,001,2019_May_14_1112,MusicAffectPsychophysiology2019,3.0.5,59.961308650102815,
To what extent did the music make you feel ,ANXIOUS ,30MonoWAV/30MonoH2.wav,2,2,1,6,,,,,1,15,31,5,0,10,10,1,,,,,,,,,1,0.9683511740004178,028,001,2019_May_14_1112,MusicAffectPsychophysiology2019,3.0.5,59.961308650102815,
To what extent did the music make you feel ,SAD,30MonoWAV/30MonoH2.wav,2,2,1,6,,,,,1,15,31,5,0,11,11,0,,,,,,,,,1,0.5851429009926505,028,001,2019_May_14_1112,MusicAffectPsychophysiology2019,3.0.5,59.961308650102815,
,,30MonoWAV/30MonoH2.wav,2,2,1,6,,,,,1,15,31,5,,,,,,,,,,,,,,,028,001,2019_May_14_1112,MusicAffectPsychophysiology2019,3.0.5,59.961308650102815,
