Instruction,Word,song,valence,arousal,affectcat,songmark,pracwords.thisRepN,pracwords.thisTrialN,pracwords.thisN,pracwords.thisIndex,songtrials.thisRepN,songtrials.thisTrialN,songtrials.thisN,songtrials.thisIndex,words.thisRepN,words.thisTrialN,words.thisN,words.thisIndex,begin.keys,begin.rt,arousalkey.keys,arousalkey.rt,valencekey.keys,valencekey.rt,likekey.keys,likekey.rt,WordResponse.keys,WordResponse.rt,key_resp_2.keys,key_resp_2.rt,participant,session,date,expName,psychopyVersion,frameRate,
,,,,,,,,,,,,,,,,,,,space,8.602044537998154,,,,,,,,,,,029,001,2019_May_14_1312,MusicAffectPsychophysiology2019,3.0.5,59.975380945015885,
,,,,,,,,,,,,,,,,,,,,,3,4.952290921995882,,,,,,,,,029,001,2019_May_14_1312,MusicAffectPsychophysiology2019,3.0.5,59.975380945015885,
,,,,,,,,,,,,,,,,,,,,,,,3,11.072956321993843,,,,,,,029,001,2019_May_14_1312,MusicAffectPsychophysiology2019,3.0.5,59.975380945015885,
,,,,,,,,,,,,,,,,,,,,,,,,,2,2.7880781830026535,,,,,029,001,2019_May_14_1312,MusicAffectPsychophysiology2019,3.0.5,59.975380945015885,
To what extent did the music make you feel ,SAD,,,,,,0,0,0,0,,,,,,,,,,,,,,,,,1,2.435150427991175,,,029,001,2019_May_14_1312,MusicAffectPsychophysiology2019,3.0.5,59.975380945015885,
To what extent did the music make you feel ,EXCITED,,,,,,0,1,1,7,,,,,,,,,,,,,,,,,3,3.333137016990804,,,029,001,2019_May_14_1312,MusicAffectPsychophysiology2019,3.0.5,59.975380945015885,
To what extent did the music make you feel ,TENDER,,,,,,0,2,2,10,,,,,,,,,,,,,,,,,2,2.402346483009751,,,029,001,2019_May_14_1312,MusicAffectPsychophysiology2019,3.0.5,59.975380945015885,
To what extent did the music make you feel ,ANXIOUS ,,,,,,0,3,3,1,,,,,,,,,,,,,,,,,1,2.0529388079885393,,,029,001,2019_May_14_1312,MusicAffectPsychophysiology2019,3.0.5,59.975380945015885,
To what extent did the music make you feel ,HAPPY,,,,,,0,4,4,6,,,,,,,,,,,,,,,,,2,2.268456341000274,,,029,001,2019_May_14_1312,MusicAffectPsychophysiology2019,3.0.5,59.975380945015885,
To what extent did the music make you feel ,FRUSTRATED,,,,,,0,5,5,3,,,,,,,,,,,,,,,,,1,2.0012422209983924,,,029,001,2019_May_14_1312,MusicAffectPsychophysiology2019,3.0.5,59.975380945015885,
To what extent did the music make you feel ,GUILTY,,,,,,0,6,6,5,,,,,,,,,,,,,,,,,1,1.418985144002363,,,029,001,2019_May_14_1312,MusicAffectPsychophysiology2019,3.0.5,59.975380945015885,
To what extent did the music make you feel ,ASHAMED,,,,,,0,7,7,4,,,,,,,,,,,,,,,,,1,1.2349846150027588,,,029,001,2019_May_14_1312,MusicAffectPsychophysiology2019,3.0.5,59.975380945015885,
To what extent did the music make you feel ,SCARED,,,,,,0,8,8,11,,,,,,,,,,,,,,,,,1,1.3164728390111122,,,029,001,2019_May_14_1312,MusicAffectPsychophysiology2019,3.0.5,59.975380945015885,
To what extent did the music make you feel ,ANGRY,,,,,,0,9,9,2,,,,,,,,,,,,,,,,,1,1.4190497340023285,,,029,001,2019_May_14_1312,MusicAffectPsychophysiology2019,3.0.5,59.975380945015885,
To what extent did the music make you feel ,ALERT,,,,,,0,10,10,8,,,,,,,,,,,,,,,,,2,1.7992982849973487,,,029,001,2019_May_14_1312,MusicAffectPsychophysiology2019,3.0.5,59.975380945015885,
To what extent did the music make you feel ,ACTIVE,,,,,,0,11,11,9,,,,,,,,,,,,,,,,,2,1.5860913389915368,,,029,001,2019_May_14_1312,MusicAffectPsychophysiology2019,3.0.5,59.975380945015885,
To what extent did the music make you feel ,GUILTY,30MonoWAV/30MonoS4.wav,1,1,3,12,,,,,0,0,0,11,0,0,0,5,,,2,5.818096179005806,2,2.318276167003205,3,3.0024704710085643,1,2.5526909769978374,,,029,001,2019_May_14_1312,MusicAffectPsychophysiology2019,3.0.5,59.975380945015885,
To what extent did the music make you feel ,HAPPY,30MonoWAV/30MonoS4.wav,1,1,3,12,,,,,0,0,0,11,0,1,1,6,,,,,,,,,2,5.035385748007684,,,029,001,2019_May_14_1312,MusicAffectPsychophysiology2019,3.0.5,59.975380945015885,
To what extent did the music make you feel ,ASHAMED,30MonoWAV/30MonoS4.wav,1,1,3,12,,,,,0,0,0,11,0,2,2,4,,,,,,,,,1,0.8835924129962223,,,029,001,2019_May_14_1312,MusicAffectPsychophysiology2019,3.0.5,59.975380945015885,
To what extent did the music make you feel ,SAD,30MonoWAV/30MonoS4.wav,1,1,3,12,,,,,0,0,0,11,0,3,3,0,,,,,,,,,2,1.4175035410007695,,,029,001,2019_May_14_1312,MusicAffectPsychophysiology2019,3.0.5,59.975380945015885,
To what extent did the music make you feel ,ANXIOUS ,30MonoWAV/30MonoS4.wav,1,1,3,12,,,,,0,0,0,11,0,4,4,1,,,,,,,,,1,1.1179925460019149,,,029,001,2019_May_14_1312,MusicAffectPsychophysiology2019,3.0.5,59.975380945015885,
To what extent did the music make you feel ,FRUSTRATED,30MonoWAV/30MonoS4.wav,1,1,3,12,,,,,0,0,0,11,0,5,5,3,,,,,,,,,1,0.8010284589981893,,,029,001,2019_May_14_1312,MusicAffectPsychophysiology2019,3.0.5,59.975380945015885,
To what extent did the music make you feel ,EXCITED,30MonoWAV/30MonoS4.wav,1,1,3,12,,,,,0,0,0,11,0,6,6,7,,,,,,,,,2,3.81847182099591,,,029,001,2019_May_14_1312,MusicAffectPsychophysiology2019,3.0.5,59.975380945015885,
To what extent did the music make you feel ,ANGRY,30MonoWAV/30MonoS4.wav,1,1,3,12,,,,,0,0,0,11,0,7,7,2,,,,,,,,,1,0.7166275229974417,,,029,001,2019_May_14_1312,MusicAffectPsychophysiology2019,3.0.5,59.975380945015885,
To what extent did the music make you feel ,ALERT,30MonoWAV/30MonoS4.wav,1,1,3,12,,,,,0,0,0,11,0,8,8,8,,,,,,,,,1,4.170030301989755,,,029,001,2019_May_14_1312,MusicAffectPsychophysiology2019,3.0.5,59.975380945015885,
To what extent did the music make you feel ,TENDER,30MonoWAV/30MonoS4.wav,1,1,3,12,,,,,0,0,0,11,0,9,9,10,,,,,,,,,3,1.5684096990007674,,,029,001,2019_May_14_1312,MusicAffectPsychophysiology2019,3.0.5,59.975380945015885,
To what extent did the music make you feel ,ACTIVE,30MonoWAV/30MonoS4.wav,1,1,3,12,,,,,0,0,0,11,0,10,10,9,,,,,,,,,1,3.2350454870029353,,,029,001,2019_May_14_1312,MusicAffectPsychophysiology2019,3.0.5,59.975380945015885,
To what extent did the music make you feel ,SCARED,30MonoWAV/30MonoS4.wav,1,1,3,12,,,,,0,0,0,11,0,11,11,11,,,,,,,,,1,0.8517128959938418,,,029,001,2019_May_14_1312,MusicAffectPsychophysiology2019,3.0.5,59.975380945015885,
,,30MonoWAV/30MonoS4.wav,1,1,3,12,,,,,0,0,0,11,,,,,,,,,,,,,,,,,029,001,2019_May_14_1312,MusicAffectPsychophysiology2019,3.0.5,59.975380945015885,
To what extent did the music make you feel ,ASHAMED,30MonoWAV/30MonoF4.wav,1,2,2,4,,,,,0,1,1,3,0,0,0,4,,,4,6.335845018998953,1,4.799501771994983,2,1.9512090839998564,1,1.100882096987334,,,029,001,2019_May_14_1312,MusicAffectPsychophysiology2019,3.0.5,59.975380945015885,
To what extent did the music make you feel ,HAPPY,30MonoWAV/30MonoF4.wav,1,2,2,4,,,,,0,1,1,3,0,1,1,6,,,,,,,,,1,1.9688838900037808,,,029,001,2019_May_14_1312,MusicAffectPsychophysiology2019,3.0.5,59.975380945015885,
To what extent did the music make you feel ,EXCITED,30MonoWAV/30MonoF4.wav,1,2,2,4,,,,,0,1,1,3,0,2,2,7,,,,,,,,,2,2.072290028008865,,,029,001,2019_May_14_1312,MusicAffectPsychophysiology2019,3.0.5,59.975380945015885,
To what extent did the music make you feel ,GUILTY,30MonoWAV/30MonoF4.wav,1,2,2,4,,,,,0,1,1,3,0,3,3,5,,,,,,,,,1,1.518268828993314,,,029,001,2019_May_14_1312,MusicAffectPsychophysiology2019,3.0.5,59.975380945015885,
To what extent did the music make you feel ,ALERT,30MonoWAV/30MonoF4.wav,1,2,2,4,,,,,0,1,1,3,0,4,4,8,,,,,,,,,4,2.17036567699688,,,029,001,2019_May_14_1312,MusicAffectPsychophysiology2019,3.0.5,59.975380945015885,
To what extent did the music make you feel ,ACTIVE,30MonoWAV/30MonoF4.wav,1,2,2,4,,,,,0,1,1,3,0,5,5,9,,,,,,,,,3,2.170764751994284,,,029,001,2019_May_14_1312,MusicAffectPsychophysiology2019,3.0.5,59.975380945015885,
To what extent did the music make you feel ,ANGRY,30MonoWAV/30MonoF4.wav,1,2,2,4,,,,,0,1,1,3,0,6,6,2,,,,,,,,,1,1.3896134779934073,,,029,001,2019_May_14_1312,MusicAffectPsychophysiology2019,3.0.5,59.975380945015885,
To what extent did the music make you feel ,TENDER,30MonoWAV/30MonoF4.wav,1,2,2,4,,,,,0,1,1,3,0,7,7,10,,,,,,,,,1,1.0191291309893131,,,029,001,2019_May_14_1312,MusicAffectPsychophysiology2019,3.0.5,59.975380945015885,
To what extent did the music make you feel ,FRUSTRATED,30MonoWAV/30MonoF4.wav,1,2,2,4,,,,,0,1,1,3,0,8,8,3,,,,,,,,,1,1.0693778350105276,,,029,001,2019_May_14_1312,MusicAffectPsychophysiology2019,3.0.5,59.975380945015885,
To what extent did the music make you feel ,SCARED,30MonoWAV/30MonoF4.wav,1,2,2,4,,,,,0,1,1,3,0,9,9,11,,,,,,,,,2,3.4189534910110524,,,029,001,2019_May_14_1312,MusicAffectPsychophysiology2019,3.0.5,59.975380945015885,
To what extent did the music make you feel ,SAD,30MonoWAV/30MonoF4.wav,1,2,2,4,,,,,0,1,1,3,0,10,10,0,,,,,,,,,1,1.0846193239995046,,,029,001,2019_May_14_1312,MusicAffectPsychophysiology2019,3.0.5,59.975380945015885,
To what extent did the music make you feel ,ANXIOUS ,30MonoWAV/30MonoF4.wav,1,2,2,4,,,,,0,1,1,3,0,11,11,1,,,,,,,,,2,1.851906902011251,,,029,001,2019_May_14_1312,MusicAffectPsychophysiology2019,3.0.5,59.975380945015885,
,,30MonoWAV/30MonoF4.wav,1,2,2,4,,,,,0,1,1,3,,,,,,,,,,,,,,,,,029,001,2019_May_14_1312,MusicAffectPsychophysiology2019,3.0.5,59.975380945015885,
To what extent did the music make you feel ,ALERT,30MonoWAV/30MonoT4.wav,2,1,4,16,,,,,0,2,2,15,0,0,0,8,,,2,4.505424486997072,3,1.6847720790101448,4,2.085102122000535,2,3.3682766040001297,,,029,001,2019_May_14_1312,MusicAffectPsychophysiology2019,3.0.5,59.975380945015885,
To what extent did the music make you feel ,SAD,30MonoWAV/30MonoT4.wav,2,1,4,16,,,,,0,2,2,15,0,1,1,0,,,,,,,,,1,1.1012613060011063,,,029,001,2019_May_14_1312,MusicAffectPsychophysiology2019,3.0.5,59.975380945015885,
To what extent did the music make you feel ,GUILTY,30MonoWAV/30MonoT4.wav,2,1,4,16,,,,,0,2,2,15,0,2,2,5,,,,,,,,,1,0.6683098349894863,,,029,001,2019_May_14_1312,MusicAffectPsychophysiology2019,3.0.5,59.975380945015885,
To what extent did the music make you feel ,FRUSTRATED,30MonoWAV/30MonoT4.wav,2,1,4,16,,,,,0,2,2,15,0,3,3,3,,,,,,,,,1,1.035502208993421,,,029,001,2019_May_14_1312,MusicAffectPsychophysiology2019,3.0.5,59.975380945015885,
To what extent did the music make you feel ,HAPPY,30MonoWAV/30MonoT4.wav,2,1,4,16,,,,,0,2,2,15,0,4,4,6,,,,,,,,,3,3.73436931699689,,,029,001,2019_May_14_1312,MusicAffectPsychophysiology2019,3.0.5,59.975380945015885,
To what extent did the music make you feel ,TENDER,30MonoWAV/30MonoT4.wav,2,1,4,16,,,,,0,2,2,15,0,5,5,10,,,,,,,,,3,1.8192319919908186,,,029,001,2019_May_14_1312,MusicAffectPsychophysiology2019,3.0.5,59.975380945015885,
To what extent did the music make you feel ,SCARED,30MonoWAV/30MonoT4.wav,2,1,4,16,,,,,0,2,2,15,0,6,6,11,,,,,,,,,1,1.7013854810065823,,,029,001,2019_May_14_1312,MusicAffectPsychophysiology2019,3.0.5,59.975380945015885,
To what extent did the music make you feel ,ANXIOUS ,30MonoWAV/30MonoT4.wav,2,1,4,16,,,,,0,2,2,15,0,7,7,1,,,,,,,,,1,0.6855101580003975,,,029,001,2019_May_14_1312,MusicAffectPsychophysiology2019,3.0.5,59.975380945015885,
To what extent did the music make you feel ,ACTIVE,30MonoWAV/30MonoT4.wav,2,1,4,16,,,,,0,2,2,15,0,8,8,9,,,,,,,,,2,1.1350808960123686,,,029,001,2019_May_14_1312,MusicAffectPsychophysiology2019,3.0.5,59.975380945015885,
To what extent did the music make you feel ,ASHAMED,30MonoWAV/30MonoT4.wav,2,1,4,16,,,,,0,2,2,15,0,9,9,4,,,,,,,,,1,1.7008468479907606,,,029,001,2019_May_14_1312,MusicAffectPsychophysiology2019,3.0.5,59.975380945015885,
To what extent did the music make you feel ,EXCITED,30MonoWAV/30MonoT4.wav,2,1,4,16,,,,,0,2,2,15,0,10,10,7,,,,,,,,,2,1.7009952230000636,,,029,001,2019_May_14_1312,MusicAffectPsychophysiology2019,3.0.5,59.975380945015885,
To what extent did the music make you feel ,ANGRY,30MonoWAV/30MonoT4.wav,2,1,4,16,,,,,0,2,2,15,0,11,11,2,,,,,,,,,1,1.0018167039961554,,,029,001,2019_May_14_1312,MusicAffectPsychophysiology2019,3.0.5,59.975380945015885,
,,30MonoWAV/30MonoT4.wav,2,1,4,16,,,,,0,2,2,15,,,,,,,,,,,,,,,,,029,001,2019_May_14_1312,MusicAffectPsychophysiology2019,3.0.5,59.975380945015885,
To what extent did the music make you feel ,GUILTY,30MonoWAV/30MonoF2.wav,1,2,2,2,,,,,0,3,3,1,0,0,0,5,,,3,4.102568945003441,1,4.650106339002377,1,2.268263617006596,1,1.5847466190025443,,,029,001,2019_May_14_1312,MusicAffectPsychophysiology2019,3.0.5,59.975380945015885,
To what extent did the music make you feel ,HAPPY,30MonoWAV/30MonoF2.wav,1,2,2,2,,,,,0,3,3,1,0,1,1,6,,,,,,,,,1,1.101483320002444,,,029,001,2019_May_14_1312,MusicAffectPsychophysiology2019,3.0.5,59.975380945015885,
To what extent did the music make you feel ,FRUSTRATED,30MonoWAV/30MonoF2.wav,1,2,2,2,,,,,0,3,3,1,0,2,2,3,,,,,,,,,1,1.1375279650092125,,,029,001,2019_May_14_1312,MusicAffectPsychophysiology2019,3.0.5,59.975380945015885,
To what extent did the music make you feel ,SCARED,30MonoWAV/30MonoF2.wav,1,2,2,2,,,,,0,3,3,1,0,3,3,11,,,,,,,,,4,3.0384733459941344,,,029,001,2019_May_14_1312,MusicAffectPsychophysiology2019,3.0.5,59.975380945015885,
To what extent did the music make you feel ,ANXIOUS ,30MonoWAV/30MonoF2.wav,1,2,2,2,,,,,0,3,3,1,0,4,4,1,,,,,,,,,3,1.819126161004533,,,029,001,2019_May_14_1312,MusicAffectPsychophysiology2019,3.0.5,59.975380945015885,
To what extent did the music make you feel ,ACTIVE,30MonoWAV/30MonoF2.wav,1,2,2,2,,,,,0,3,3,1,0,5,5,9,,,,,,,,,3,1.8711177059885813,,,029,001,2019_May_14_1312,MusicAffectPsychophysiology2019,3.0.5,59.975380945015885,
To what extent did the music make you feel ,SAD,30MonoWAV/30MonoF2.wav,1,2,2,2,,,,,0,3,3,1,0,6,6,0,,,,,,,,,1,3.00687933700101,,,029,001,2019_May_14_1312,MusicAffectPsychophysiology2019,3.0.5,59.975380945015885,
To what extent did the music make you feel ,TENDER,30MonoWAV/30MonoF2.wav,1,2,2,2,,,,,0,3,3,1,0,7,7,10,,,,,,,,,1,0.9837811639881693,,,029,001,2019_May_14_1312,MusicAffectPsychophysiology2019,3.0.5,59.975380945015885,
To what extent did the music make you feel ,EXCITED,30MonoWAV/30MonoF2.wav,1,2,2,2,,,,,0,3,3,1,0,8,8,7,,,,,,,,,4,2.4661949910077965,,,029,001,2019_May_14_1312,MusicAffectPsychophysiology2019,3.0.5,59.975380945015885,
To what extent did the music make you feel ,ANGRY,30MonoWAV/30MonoF2.wav,1,2,2,2,,,,,0,3,3,1,0,9,9,2,,,,,,,,,1,1.484423642992624,,,029,001,2019_May_14_1312,MusicAffectPsychophysiology2019,3.0.5,59.975380945015885,
To what extent did the music make you feel ,ASHAMED,30MonoWAV/30MonoF2.wav,1,2,2,2,,,,,0,3,3,1,0,10,10,4,,,,,,,,,1,3.3182082480052486,,,029,001,2019_May_14_1312,MusicAffectPsychophysiology2019,3.0.5,59.975380945015885,
To what extent did the music make you feel ,ALERT,30MonoWAV/30MonoF2.wav,1,2,2,2,,,,,0,3,3,1,0,11,11,8,,,,,,,,,4,1.7016943049966358,,,029,001,2019_May_14_1312,MusicAffectPsychophysiology2019,3.0.5,59.975380945015885,
,,30MonoWAV/30MonoF2.wav,1,2,2,2,,,,,0,3,3,1,,,,,,,,,,,,,,,,,029,001,2019_May_14_1312,MusicAffectPsychophysiology2019,3.0.5,59.975380945015885,
To what extent did the music make you feel ,ANXIOUS ,30MonoWAV/30MonoH4.wav,2,2,1,8,,,,,0,4,4,7,0,0,0,1,,,3,3.7516026430093916,4,3.6002670170128113,2,2.085197883003275,1,1.28406394799822,,,029,001,2019_May_14_1312,MusicAffectPsychophysiology2019,3.0.5,59.975380945015885,
To what extent did the music make you feel ,ANGRY,30MonoWAV/30MonoH4.wav,2,2,1,8,,,,,0,4,4,7,0,1,1,2,,,,,,,,,1,0.9185393249936169,,,029,001,2019_May_14_1312,MusicAffectPsychophysiology2019,3.0.5,59.975380945015885,
To what extent did the music make you feel ,FRUSTRATED,30MonoWAV/30MonoH4.wav,2,2,1,8,,,,,0,4,4,7,0,2,2,3,,,,,,,,,1,0.9183380990143633,,,029,001,2019_May_14_1312,MusicAffectPsychophysiology2019,3.0.5,59.975380945015885,
To what extent did the music make you feel ,SCARED,30MonoWAV/30MonoH4.wav,2,2,1,8,,,,,0,4,4,7,0,3,3,11,,,,,,,,,1,0.9494894870003918,,,029,001,2019_May_14_1312,MusicAffectPsychophysiology2019,3.0.5,59.975380945015885,
To what extent did the music make you feel ,ALERT,30MonoWAV/30MonoH4.wav,2,2,1,8,,,,,0,4,4,7,0,4,4,8,,,,,,,,,2,1.1685099550086306,,,029,001,2019_May_14_1312,MusicAffectPsychophysiology2019,3.0.5,59.975380945015885,
To what extent did the music make you feel ,HAPPY,30MonoWAV/30MonoH4.wav,2,2,1,8,,,,,0,4,4,7,0,5,5,6,,,,,,,,,3,1.151178690008237,,,029,001,2019_May_14_1312,MusicAffectPsychophysiology2019,3.0.5,59.975380945015885,
To what extent did the music make you feel ,GUILTY,30MonoWAV/30MonoH4.wav,2,2,1,8,,,,,0,4,4,7,0,6,6,5,,,,,,,,,1,1.651717036991613,,,029,001,2019_May_14_1312,MusicAffectPsychophysiology2019,3.0.5,59.975380945015885,
To what extent did the music make you feel ,TENDER,30MonoWAV/30MonoH4.wav,2,2,1,8,,,,,0,4,4,7,0,7,7,10,,,,,,,,,1,1.0171231679996708,,,029,001,2019_May_14_1312,MusicAffectPsychophysiology2019,3.0.5,59.975380945015885,
To what extent did the music make you feel ,EXCITED,30MonoWAV/30MonoH4.wav,2,2,1,8,,,,,0,4,4,7,0,8,8,7,,,,,,,,,4,3.7844290050124982,,,029,001,2019_May_14_1312,MusicAffectPsychophysiology2019,3.0.5,59.975380945015885,
To what extent did the music make you feel ,ASHAMED,30MonoWAV/30MonoH4.wav,2,2,1,8,,,,,0,4,4,7,0,9,9,4,,,,,,,,,1,1.2679707839997718,,,029,001,2019_May_14_1312,MusicAffectPsychophysiology2019,3.0.5,59.975380945015885,
To what extent did the music make you feel ,SAD,30MonoWAV/30MonoH4.wav,2,2,1,8,,,,,0,4,4,7,0,10,10,0,,,,,,,,,1,1.5025666590081528,,,029,001,2019_May_14_1312,MusicAffectPsychophysiology2019,3.0.5,59.975380945015885,
To what extent did the music make you feel ,ACTIVE,30MonoWAV/30MonoH4.wav,2,2,1,8,,,,,0,4,4,7,0,11,11,9,,,,,,,,,3,1.5500848810042953,,,029,001,2019_May_14_1312,MusicAffectPsychophysiology2019,3.0.5,59.975380945015885,
,,30MonoWAV/30MonoH4.wav,2,2,1,8,,,,,0,4,4,7,,,,,,,,,,,,,,,,,029,001,2019_May_14_1312,MusicAffectPsychophysiology2019,3.0.5,59.975380945015885,
To what extent did the music make you feel ,EXCITED,30MonoWAV/30MonoT3.wav,2,1,4,15,,,,,0,5,5,14,0,0,0,7,,,2,3.517443559001549,3,1.6854252030025236,3,2.268334584994591,2,3.0056172479962697,,,029,001,2019_May_14_1312,MusicAffectPsychophysiology2019,3.0.5,59.975380945015885,
To what extent did the music make you feel ,SAD,30MonoWAV/30MonoT3.wav,2,1,4,15,,,,,0,5,5,14,0,1,1,0,,,,,,,,,1,0.835034250994795,,,029,001,2019_May_14_1312,MusicAffectPsychophysiology2019,3.0.5,59.975380945015885,
To what extent did the music make you feel ,FRUSTRATED,30MonoWAV/30MonoT3.wav,2,1,4,15,,,,,0,5,5,14,0,2,2,3,,,,,,,,,1,1.235355744996923,,,029,001,2019_May_14_1312,MusicAffectPsychophysiology2019,3.0.5,59.975380945015885,
To what extent did the music make you feel ,ACTIVE,30MonoWAV/30MonoT3.wav,2,1,4,15,,,,,0,5,5,14,0,3,3,9,,,,,,,,,1,3.7350950180116342,,,029,001,2019_May_14_1312,MusicAffectPsychophysiology2019,3.0.5,59.975380945015885,
To what extent did the music make you feel ,TENDER,30MonoWAV/30MonoT3.wav,2,1,4,15,,,,,0,5,5,14,0,4,4,10,,,,,,,,,3,2.0683366029988974,,,029,001,2019_May_14_1312,MusicAffectPsychophysiology2019,3.0.5,59.975380945015885,
To what extent did the music make you feel ,ASHAMED,30MonoWAV/30MonoT3.wav,2,1,4,15,,,,,0,5,5,14,0,5,5,4,,,,,,,,,1,0.768577502007247,,,029,001,2019_May_14_1312,MusicAffectPsychophysiology2019,3.0.5,59.975380945015885,
To what extent did the music make you feel ,HAPPY,30MonoWAV/30MonoT3.wav,2,1,4,15,,,,,0,5,5,14,0,6,6,6,,,,,,,,,2,2.1520310860069003,,,029,001,2019_May_14_1312,MusicAffectPsychophysiology2019,3.0.5,59.975380945015885,
To what extent did the music make you feel ,GUILTY,30MonoWAV/30MonoT3.wav,2,1,4,15,,,,,0,5,5,14,0,7,7,5,,,,,,,,,1,0.884353800007375,,,029,001,2019_May_14_1312,MusicAffectPsychophysiology2019,3.0.5,59.975380945015885,
To what extent did the music make you feel ,ALERT,30MonoWAV/30MonoT3.wav,2,1,4,15,,,,,0,5,5,14,0,8,8,8,,,,,,,,,1,1.0518731670017587,,,029,001,2019_May_14_1312,MusicAffectPsychophysiology2019,3.0.5,59.975380945015885,
To what extent did the music make you feel ,ANXIOUS ,30MonoWAV/30MonoT3.wav,2,1,4,15,,,,,0,5,5,14,0,9,9,1,,,,,,,,,1,1.133184803999029,,,029,001,2019_May_14_1312,MusicAffectPsychophysiology2019,3.0.5,59.975380945015885,
To what extent did the music make you feel ,SCARED,30MonoWAV/30MonoT3.wav,2,1,4,15,,,,,0,5,5,14,0,10,10,11,,,,,,,,,1,0.852414969005622,,,029,001,2019_May_14_1312,MusicAffectPsychophysiology2019,3.0.5,59.975380945015885,
To what extent did the music make you feel ,ANGRY,30MonoWAV/30MonoT3.wav,2,1,4,15,,,,,0,5,5,14,0,11,11,2,,,,,,,,,1,1.2193746350094443,,,029,001,2019_May_14_1312,MusicAffectPsychophysiology2019,3.0.5,59.975380945015885,
,,30MonoWAV/30MonoT3.wav,2,1,4,15,,,,,0,5,5,14,,,,,,,,,,,,,,,,,029,001,2019_May_14_1312,MusicAffectPsychophysiology2019,3.0.5,59.975380945015885,
To what extent did the music make you feel ,ASHAMED,30MonoWAV/30MonoS3.wav,1,1,3,11,,,,,0,6,6,10,0,0,0,4,,,2,3.435609524996835,2,3.90014032900217,4,2.5530316039948957,1,1.7844876199960709,,,029,001,2019_May_14_1312,MusicAffectPsychophysiology2019,3.0.5,59.975380945015885,
To what extent did the music make you feel ,SCARED,30MonoWAV/30MonoS3.wav,1,1,3,11,,,,,0,6,6,10,0,1,1,11,,,,,,,,,1,1.6671511489985278,,,029,001,2019_May_14_1312,MusicAffectPsychophysiology2019,3.0.5,59.975380945015885,
To what extent did the music make you feel ,GUILTY,30MonoWAV/30MonoS3.wav,1,1,3,11,,,,,0,6,6,10,0,2,2,5,,,,,,,,,1,1.5010052290017484,,,029,001,2019_May_14_1312,MusicAffectPsychophysiology2019,3.0.5,59.975380945015885,
To what extent did the music make you feel ,ANXIOUS ,30MonoWAV/30MonoS3.wav,1,1,3,11,,,,,0,6,6,10,0,3,3,1,,,,,,,,,1,1.4684021409921115,,,029,001,2019_May_14_1312,MusicAffectPsychophysiology2019,3.0.5,59.975380945015885,
To what extent did the music make you feel ,ANGRY,30MonoWAV/30MonoS3.wav,1,1,3,11,,,,,0,6,6,10,0,4,4,2,,,,,,,,,1,1.1189389280043542,,,029,001,2019_May_14_1312,MusicAffectPsychophysiology2019,3.0.5,59.975380945015885,
To what extent did the music make you feel ,EXCITED,30MonoWAV/30MonoS3.wav,1,1,3,11,,,,,0,6,6,10,0,5,5,7,,,,,,,,,2,1.5353219550015638,,,029,001,2019_May_14_1312,MusicAffectPsychophysiology2019,3.0.5,59.975380945015885,
To what extent did the music make you feel ,HAPPY,30MonoWAV/30MonoS3.wav,1,1,3,11,,,,,0,6,6,10,0,6,6,6,,,,,,,,,1,3.500159654999152,,,029,001,2019_May_14_1312,MusicAffectPsychophysiology2019,3.0.5,59.975380945015885,
To what extent did the music make you feel ,TENDER,30MonoWAV/30MonoS3.wav,1,1,3,11,,,,,0,6,6,10,0,7,7,10,,,,,,,,,3,2.118918370004394,,,029,001,2019_May_14_1312,MusicAffectPsychophysiology2019,3.0.5,59.975380945015885,
To what extent did the music make you feel ,ACTIVE,30MonoWAV/30MonoS3.wav,1,1,3,11,,,,,0,6,6,10,0,8,8,9,,,,,,,,,2,2.485313415993005,,,029,001,2019_May_14_1312,MusicAffectPsychophysiology2019,3.0.5,59.975380945015885,
To what extent did the music make you feel ,FRUSTRATED,30MonoWAV/30MonoS3.wav,1,1,3,11,,,,,0,6,6,10,0,9,9,3,,,,,,,,,1,0.9357824979961151,,,029,001,2019_May_14_1312,MusicAffectPsychophysiology2019,3.0.5,59.975380945015885,
To what extent did the music make you feel ,SAD,30MonoWAV/30MonoS3.wav,1,1,3,11,,,,,0,6,6,10,0,10,10,0,,,,,,,,,3,2.002324981003767,,,029,001,2019_May_14_1312,MusicAffectPsychophysiology2019,3.0.5,59.975380945015885,
To what extent did the music make you feel ,ALERT,30MonoWAV/30MonoS3.wav,1,1,3,11,,,,,0,6,6,10,0,11,11,8,,,,,,,,,2,2.3837902410014067,,,029,001,2019_May_14_1312,MusicAffectPsychophysiology2019,3.0.5,59.975380945015885,
,,30MonoWAV/30MonoS3.wav,1,1,3,11,,,,,0,6,6,10,,,,,,,,,,,,,,,,,029,001,2019_May_14_1312,MusicAffectPsychophysiology2019,3.0.5,59.975380945015885,
To what extent did the music make you feel ,ANXIOUS ,30MonoWAV/30MonoS1.wav,1,1,3,9,,,,,0,7,7,8,0,0,0,1,,,2,3.7830270399863366,1,1.685070651001297,2,1.7019894559925888,1,4.084451478993287,,,029,001,2019_May_14_1312,MusicAffectPsychophysiology2019,3.0.5,59.975380945015885,
To what extent did the music make you feel ,GUILTY,30MonoWAV/30MonoS1.wav,1,1,3,9,,,,,0,7,7,8,0,1,1,5,,,,,,,,,1,1.4015466359996935,,,029,001,2019_May_14_1312,MusicAffectPsychophysiology2019,3.0.5,59.975380945015885,
To what extent did the music make you feel ,TENDER,30MonoWAV/30MonoS1.wav,1,1,3,9,,,,,0,7,7,8,0,2,2,10,,,,,,,,,2,1.4666288400039775,,,029,001,2019_May_14_1312,MusicAffectPsychophysiology2019,3.0.5,59.975380945015885,
To what extent did the music make you feel ,ACTIVE,30MonoWAV/30MonoS1.wav,1,1,3,9,,,,,0,7,7,8,0,3,3,9,,,,,,,,,1,1.7030250670068199,,,029,001,2019_May_14_1312,MusicAffectPsychophysiology2019,3.0.5,59.975380945015885,
To what extent did the music make you feel ,ANGRY,30MonoWAV/30MonoS1.wav,1,1,3,9,,,,,0,7,7,8,0,4,4,2,,,,,,,,,1,2.0684005430084653,,,029,001,2019_May_14_1312,MusicAffectPsychophysiology2019,3.0.5,59.975380945015885,
To what extent did the music make you feel ,HAPPY,30MonoWAV/30MonoS1.wav,1,1,3,9,,,,,0,7,7,8,0,5,5,6,,,,,,,,,1,2.5674054679984692,,,029,001,2019_May_14_1312,MusicAffectPsychophysiology2019,3.0.5,59.975380945015885,
To what extent did the music make you feel ,ALERT,30MonoWAV/30MonoS1.wav,1,1,3,9,,,,,0,7,7,8,0,6,6,8,,,,,,,,,1,2.2356669589935336,,,029,001,2019_May_14_1312,MusicAffectPsychophysiology2019,3.0.5,59.975380945015885,
To what extent did the music make you feel ,SCARED,30MonoWAV/30MonoS1.wav,1,1,3,9,,,,,0,7,7,8,0,7,7,11,,,,,,,,,1,1.4503499480051687,,,029,001,2019_May_14_1312,MusicAffectPsychophysiology2019,3.0.5,59.975380945015885,
To what extent did the music make you feel ,SAD,30MonoWAV/30MonoS1.wav,1,1,3,9,,,,,0,7,7,8,0,8,8,0,,,,,,,,,2,1.5007211640040623,,,029,001,2019_May_14_1312,MusicAffectPsychophysiology2019,3.0.5,59.975380945015885,
To what extent did the music make you feel ,ASHAMED,30MonoWAV/30MonoS1.wav,1,1,3,9,,,,,0,7,7,8,0,9,9,4,,,,,,,,,1,1.4024894360045437,,,029,001,2019_May_14_1312,MusicAffectPsychophysiology2019,3.0.5,59.975380945015885,
To what extent did the music make you feel ,EXCITED,30MonoWAV/30MonoS1.wav,1,1,3,9,,,,,0,7,7,8,0,10,10,7,,,,,,,,,1,1.2173712070070906,,,029,001,2019_May_14_1312,MusicAffectPsychophysiology2019,3.0.5,59.975380945015885,
To what extent did the music make you feel ,FRUSTRATED,30MonoWAV/30MonoS1.wav,1,1,3,9,,,,,0,7,7,8,0,11,11,3,,,,,,,,,1,2.5407449689955683,,,029,001,2019_May_14_1312,MusicAffectPsychophysiology2019,3.0.5,59.975380945015885,
,,30MonoWAV/30MonoS1.wav,1,1,3,9,,,,,0,7,7,8,,,,,,,,,,,,,,,,,029,001,2019_May_14_1312,MusicAffectPsychophysiology2019,3.0.5,59.975380945015885,
To what extent did the music make you feel ,ACTIVE,30MonoWAV/30MonoF1.wav,1,2,2,1,,,,,0,8,8,0,0,0,0,9,,,4,5.018000487005338,2,5.283626286996878,2,3.7662988640076946,3,1.6185546100023203,,,029,001,2019_May_14_1312,MusicAffectPsychophysiology2019,3.0.5,59.975380945015885,
To what extent did the music make you feel ,HAPPY,30MonoWAV/30MonoF1.wav,1,2,2,1,,,,,0,8,8,0,0,1,1,6,,,,,,,,,1,1.9171900389919756,,,029,001,2019_May_14_1312,MusicAffectPsychophysiology2019,3.0.5,59.975380945015885,
To what extent did the music make you feel ,SAD,30MonoWAV/30MonoF1.wav,1,2,2,1,,,,,0,8,8,0,0,2,2,0,,,,,,,,,1,1.4026513459975831,,,029,001,2019_May_14_1312,MusicAffectPsychophysiology2019,3.0.5,59.975380945015885,
To what extent did the music make you feel ,ANXIOUS ,30MonoWAV/30MonoF1.wav,1,2,2,1,,,,,0,8,8,0,0,3,3,1,,,,,,,,,2,1.4516319379908964,,,029,001,2019_May_14_1312,MusicAffectPsychophysiology2019,3.0.5,59.975380945015885,
To what extent did the music make you feel ,TENDER,30MonoWAV/30MonoF1.wav,1,2,2,1,,,,,0,8,8,0,0,4,4,10,,,,,,,,,1,1.2030322490027174,,,029,001,2019_May_14_1312,MusicAffectPsychophysiology2019,3.0.5,59.975380945015885,
To what extent did the music make you feel ,ANGRY,30MonoWAV/30MonoF1.wav,1,2,2,1,,,,,0,8,8,0,0,5,5,2,,,,,,,,,1,3.5688002810056787,,,029,001,2019_May_14_1312,MusicAffectPsychophysiology2019,3.0.5,59.975380945015885,
To what extent did the music make you feel ,GUILTY,30MonoWAV/30MonoF1.wav,1,2,2,1,,,,,0,8,8,0,0,6,6,5,,,,,,,,,1,2.8687766220100457,,,029,001,2019_May_14_1312,MusicAffectPsychophysiology2019,3.0.5,59.975380945015885,
To what extent did the music make you feel ,FRUSTRATED,30MonoWAV/30MonoF1.wav,1,2,2,1,,,,,0,8,8,0,0,7,7,3,,,,,,,,,1,1.369258026999887,,,029,001,2019_May_14_1312,MusicAffectPsychophysiology2019,3.0.5,59.975380945015885,
To what extent did the music make you feel ,ALERT,30MonoWAV/30MonoF1.wav,1,2,2,1,,,,,0,8,8,0,0,8,8,8,,,,,,,,,4,2.0515830399963306,,,029,001,2019_May_14_1312,MusicAffectPsychophysiology2019,3.0.5,59.975380945015885,
To what extent did the music make you feel ,EXCITED,30MonoWAV/30MonoF1.wav,1,2,2,1,,,,,0,8,8,0,0,9,9,7,,,,,,,,,3,3.6687964250013465,,,029,001,2019_May_14_1312,MusicAffectPsychophysiology2019,3.0.5,59.975380945015885,
To what extent did the music make you feel ,ASHAMED,30MonoWAV/30MonoF1.wav,1,2,2,1,,,,,0,8,8,0,0,10,10,4,,,,,,,,,1,1.3683734719961649,,,029,001,2019_May_14_1312,MusicAffectPsychophysiology2019,3.0.5,59.975380945015885,
To what extent did the music make you feel ,SCARED,30MonoWAV/30MonoF1.wav,1,2,2,1,,,,,0,8,8,0,0,11,11,11,,,,,,,,,2,1.7835624300059862,,,029,001,2019_May_14_1312,MusicAffectPsychophysiology2019,3.0.5,59.975380945015885,
,,30MonoWAV/30MonoF1.wav,1,2,2,1,,,,,0,8,8,0,,,,,,,,,,,,,,,,,029,001,2019_May_14_1312,MusicAffectPsychophysiology2019,3.0.5,59.975380945015885,
To what extent did the music make you feel ,SCARED,30MonoWAV/30MonoH2.wav,2,2,1,6,,,,,0,9,9,5,0,0,0,11,,,4,3.268358376008109,4,1.718593294994207,4,2.0185690249927575,1,1.7361962540016975,,,029,001,2019_May_14_1312,MusicAffectPsychophysiology2019,3.0.5,59.975380945015885,
To what extent did the music make you feel ,SAD,30MonoWAV/30MonoH2.wav,2,2,1,6,,,,,0,9,9,5,0,1,1,0,,,,,,,,,1,1.1354497099964647,,,029,001,2019_May_14_1312,MusicAffectPsychophysiology2019,3.0.5,59.975380945015885,
To what extent did the music make you feel ,FRUSTRATED,30MonoWAV/30MonoH2.wav,2,2,1,6,,,,,0,9,9,5,0,2,2,3,,,,,,,,,1,0.9015874489996349,,,029,001,2019_May_14_1312,MusicAffectPsychophysiology2019,3.0.5,59.975380945015885,
To what extent did the music make you feel ,GUILTY,30MonoWAV/30MonoH2.wav,2,2,1,6,,,,,0,9,9,5,0,3,3,5,,,,,,,,,1,1.001509805006208,,,029,001,2019_May_14_1312,MusicAffectPsychophysiology2019,3.0.5,59.975380945015885,
To what extent did the music make you feel ,ANGRY,30MonoWAV/30MonoH2.wav,2,2,1,6,,,,,0,9,9,5,0,4,4,2,,,,,,,,,1,0.9009337799943751,,,029,001,2019_May_14_1312,MusicAffectPsychophysiology2019,3.0.5,59.975380945015885,
To what extent did the music make you feel ,TENDER,30MonoWAV/30MonoH2.wav,2,2,1,6,,,,,0,9,9,5,0,5,5,10,,,,,,,,,2,1.4522363340074662,,,029,001,2019_May_14_1312,MusicAffectPsychophysiology2019,3.0.5,59.975380945015885,
To what extent did the music make you feel ,ASHAMED,30MonoWAV/30MonoH2.wav,2,2,1,6,,,,,0,9,9,5,0,6,6,4,,,,,,,,,1,1.134226125999703,,,029,001,2019_May_14_1312,MusicAffectPsychophysiology2019,3.0.5,59.975380945015885,
To what extent did the music make you feel ,ALERT,30MonoWAV/30MonoH2.wav,2,2,1,6,,,,,0,9,9,5,0,7,7,8,,,,,,,,,4,3.1522700740024447,,,029,001,2019_May_14_1312,MusicAffectPsychophysiology2019,3.0.5,59.975380945015885,
To what extent did the music make you feel ,ACTIVE,30MonoWAV/30MonoH2.wav,2,2,1,6,,,,,0,9,9,5,0,8,8,9,,,,,,,,,3,1.9179815230017994,,,029,001,2019_May_14_1312,MusicAffectPsychophysiology2019,3.0.5,59.975380945015885,
To what extent did the music make you feel ,EXCITED,30MonoWAV/30MonoH2.wav,2,2,1,6,,,,,0,9,9,5,0,9,9,7,,,,,,,,,4,1.3183423369919183,,,029,001,2019_May_14_1312,MusicAffectPsychophysiology2019,3.0.5,59.975380945015885,
To what extent did the music make you feel ,ANXIOUS ,30MonoWAV/30MonoH2.wav,2,2,1,6,,,,,0,9,9,5,0,10,10,1,,,,,,,,,1,1.1850561070023105,,,029,001,2019_May_14_1312,MusicAffectPsychophysiology2019,3.0.5,59.975380945015885,
To what extent did the music make you feel ,HAPPY,30MonoWAV/30MonoH2.wav,2,2,1,6,,,,,0,9,9,5,0,11,11,6,,,,,,,,,4,1.4689131500053918,,,029,001,2019_May_14_1312,MusicAffectPsychophysiology2019,3.0.5,59.975380945015885,
,,30MonoWAV/30MonoH2.wav,2,2,1,6,,,,,0,9,9,5,,,,,,,,,,,,,,,,,029,001,2019_May_14_1312,MusicAffectPsychophysiology2019,3.0.5,59.975380945015885,
To what extent did the music make you feel ,ANXIOUS ,30MonoWAV/30MonoF3.wav,1,2,2,3,,,,,0,10,10,2,0,0,0,1,,,2,4.23542988699046,1,2.390532968987827,2,1.2034921919985209,3,2.5213951600017026,,,029,001,2019_May_14_1312,MusicAffectPsychophysiology2019,3.0.5,59.975380945015885,
To what extent did the music make you feel ,SAD,30MonoWAV/30MonoF3.wav,1,2,2,3,,,,,0,10,10,2,0,1,1,0,,,,,,,,,1,1.436669183007325,,,029,001,2019_May_14_1312,MusicAffectPsychophysiology2019,3.0.5,59.975380945015885,
To what extent did the music make you feel ,EXCITED,30MonoWAV/30MonoF3.wav,1,2,2,3,,,,,0,10,10,2,0,2,2,7,,,,,,,,,2,2.8215905299875885,,,029,001,2019_May_14_1312,MusicAffectPsychophysiology2019,3.0.5,59.975380945015885,
To what extent did the music make you feel ,ANGRY,30MonoWAV/30MonoF3.wav,1,2,2,3,,,,,0,10,10,2,0,3,3,2,,,,,,,,,1,1.5692955499980599,,,029,001,2019_May_14_1312,MusicAffectPsychophysiology2019,3.0.5,59.975380945015885,
To what extent did the music make you feel ,FRUSTRATED,30MonoWAV/30MonoF3.wav,1,2,2,3,,,,,0,10,10,2,0,4,4,3,,,,,,,,,1,0.9016664800001308,,,029,001,2019_May_14_1312,MusicAffectPsychophysiology2019,3.0.5,59.975380945015885,
To what extent did the music make you feel ,GUILTY,30MonoWAV/30MonoF3.wav,1,2,2,3,,,,,0,10,10,2,0,5,5,5,,,,,,,,,1,1.452630419007619,,,029,001,2019_May_14_1312,MusicAffectPsychophysiology2019,3.0.5,59.975380945015885,
To what extent did the music make you feel ,TENDER,30MonoWAV/30MonoF3.wav,1,2,2,3,,,,,0,10,10,2,0,6,6,10,,,,,,,,,1,1.4513480470050126,,,029,001,2019_May_14_1312,MusicAffectPsychophysiology2019,3.0.5,59.975380945015885,
To what extent did the music make you feel ,HAPPY,30MonoWAV/30MonoF3.wav,1,2,2,3,,,,,0,10,10,2,0,7,7,6,,,,,,,,,1,1.0523915800004033,,,029,001,2019_May_14_1312,MusicAffectPsychophysiology2019,3.0.5,59.975380945015885,
To what extent did the music make you feel ,ASHAMED,30MonoWAV/30MonoF3.wav,1,2,2,3,,,,,0,10,10,2,0,8,8,4,,,,,,,,,1,1.4351017869921634,,,029,001,2019_May_14_1312,MusicAffectPsychophysiology2019,3.0.5,59.975380945015885,
To what extent did the music make you feel ,ALERT,30MonoWAV/30MonoF3.wav,1,2,2,3,,,,,0,10,10,2,0,9,9,8,,,,,,,,,3,2.0007875010051066,,,029,001,2019_May_14_1312,MusicAffectPsychophysiology2019,3.0.5,59.975380945015885,
To what extent did the music make you feel ,SCARED,30MonoWAV/30MonoF3.wav,1,2,2,3,,,,,0,10,10,2,0,10,10,11,,,,,,,,,2,1.1347932549979305,,,029,001,2019_May_14_1312,MusicAffectPsychophysiology2019,3.0.5,59.975380945015885,
To what extent did the music make you feel ,ACTIVE,30MonoWAV/30MonoF3.wav,1,2,2,3,,,,,0,10,10,2,0,11,11,9,,,,,,,,,2,1.653063285004464,,,029,001,2019_May_14_1312,MusicAffectPsychophysiology2019,3.0.5,59.975380945015885,
,,30MonoWAV/30MonoF3.wav,1,2,2,3,,,,,0,10,10,2,,,,,,,,,,,,,,,,,029,001,2019_May_14_1312,MusicAffectPsychophysiology2019,3.0.5,59.975380945015885,
To what extent did the music make you feel ,SAD,30MonoWAV/30MonoT1.wav,2,1,4,13,,,,,0,11,11,12,0,0,0,0,,,2,5.4174185680021765,4,2.4013586590008345,4,1.6522304259997327,1,6.0663593350036535,,,029,001,2019_May_14_1312,MusicAffectPsychophysiology2019,3.0.5,59.975380945015885,
To what extent did the music make you feel ,SCARED,30MonoWAV/30MonoT1.wav,2,1,4,13,,,,,0,11,11,12,0,1,1,11,,,,,,,,,1,1.0002658299927134,,,029,001,2019_May_14_1312,MusicAffectPsychophysiology2019,3.0.5,59.975380945015885,
To what extent did the music make you feel ,ANGRY,30MonoWAV/30MonoT1.wav,2,1,4,13,,,,,0,11,11,12,0,2,2,2,,,,,,,,,1,0.7851872390019707,,,029,001,2019_May_14_1312,MusicAffectPsychophysiology2019,3.0.5,59.975380945015885,
To what extent did the music make you feel ,ALERT,30MonoWAV/30MonoT1.wav,2,1,4,13,,,,,0,11,11,12,0,3,3,8,,,,,,,,,2,1.1352338430006057,,,029,001,2019_May_14_1312,MusicAffectPsychophysiology2019,3.0.5,59.975380945015885,
To what extent did the music make you feel ,ACTIVE,30MonoWAV/30MonoT1.wav,2,1,4,13,,,,,0,11,11,12,0,4,4,9,,,,,,,,,2,1.0351967470051022,,,029,001,2019_May_14_1312,MusicAffectPsychophysiology2019,3.0.5,59.975380945015885,
To what extent did the music make you feel ,FRUSTRATED,30MonoWAV/30MonoT1.wav,2,1,4,13,,,,,0,11,11,12,0,5,5,3,,,,,,,,,1,0.885546631005127,,,029,001,2019_May_14_1312,MusicAffectPsychophysiology2019,3.0.5,59.975380945015885,
To what extent did the music make you feel ,GUILTY,30MonoWAV/30MonoT1.wav,2,1,4,13,,,,,0,11,11,12,0,6,6,5,,,,,,,,,1,1.2685026539984392,,,029,001,2019_May_14_1312,MusicAffectPsychophysiology2019,3.0.5,59.975380945015885,
To what extent did the music make you feel ,ASHAMED,30MonoWAV/30MonoT1.wav,2,1,4,13,,,,,0,11,11,12,0,7,7,4,,,,,,,,,1,1.1514577030029614,,,029,001,2019_May_14_1312,MusicAffectPsychophysiology2019,3.0.5,59.975380945015885,
To what extent did the music make you feel ,HAPPY,30MonoWAV/30MonoT1.wav,2,1,4,13,,,,,0,11,11,12,0,8,8,6,,,,,,,,,4,2.252165216996218,,,029,001,2019_May_14_1312,MusicAffectPsychophysiology2019,3.0.5,59.975380945015885,
To what extent did the music make you feel ,EXCITED,30MonoWAV/30MonoT1.wav,2,1,4,13,,,,,0,11,11,12,0,9,9,7,,,,,,,,,3,1.1514620200032368,,,029,001,2019_May_14_1312,MusicAffectPsychophysiology2019,3.0.5,59.975380945015885,
To what extent did the music make you feel ,ANXIOUS ,30MonoWAV/30MonoT1.wav,2,1,4,13,,,,,0,11,11,12,0,10,10,1,,,,,,,,,1,1.3027778859977843,,,029,001,2019_May_14_1312,MusicAffectPsychophysiology2019,3.0.5,59.975380945015885,
To what extent did the music make you feel ,TENDER,30MonoWAV/30MonoT1.wav,2,1,4,13,,,,,0,11,11,12,0,11,11,10,,,,,,,,,2,1.9163784539996414,,,029,001,2019_May_14_1312,MusicAffectPsychophysiology2019,3.0.5,59.975380945015885,
,,30MonoWAV/30MonoT1.wav,2,1,4,13,,,,,0,11,11,12,,,,,,,,,,,,,,,,,029,001,2019_May_14_1312,MusicAffectPsychophysiology2019,3.0.5,59.975380945015885,
To what extent did the music make you feel ,FRUSTRATED,30MonoWAV/30MonoS2.wav,1,1,3,10,,,,,0,12,12,9,0,0,0,3,,,2,4.50019682700804,1,4.069735746990773,3,1.834487956992234,1,1.5620874690066557,,,029,001,2019_May_14_1312,MusicAffectPsychophysiology2019,3.0.5,59.975380945015885,
To what extent did the music make you feel ,TENDER,30MonoWAV/30MonoS2.wav,1,1,3,10,,,,,0,12,12,9,0,1,1,10,,,,,,,,,3,1.6345054099947447,,,029,001,2019_May_14_1312,MusicAffectPsychophysiology2019,3.0.5,59.975380945015885,
To what extent did the music make you feel ,GUILTY,30MonoWAV/30MonoS2.wav,1,1,3,10,,,,,0,12,12,9,0,2,2,5,,,,,,,,,1,1.4512246119993506,,,029,001,2019_May_14_1312,MusicAffectPsychophysiology2019,3.0.5,59.975380945015885,
To what extent did the music make you feel ,SAD,30MonoWAV/30MonoS2.wav,1,1,3,10,,,,,0,12,12,9,0,3,3,0,,,,,,,,,3,1.9514054540049983,,,029,001,2019_May_14_1312,MusicAffectPsychophysiology2019,3.0.5,59.975380945015885,
To what extent did the music make you feel ,ANGRY,30MonoWAV/30MonoS2.wav,1,1,3,10,,,,,0,12,12,9,0,4,4,2,,,,,,,,,1,1.4844892890105257,,,029,001,2019_May_14_1312,MusicAffectPsychophysiology2019,3.0.5,59.975380945015885,
To what extent did the music make you feel ,EXCITED,30MonoWAV/30MonoS2.wav,1,1,3,10,,,,,0,12,12,9,0,5,5,7,,,,,,,,,1,3.0188446170068346,,,029,001,2019_May_14_1312,MusicAffectPsychophysiology2019,3.0.5,59.975380945015885,
To what extent did the music make you feel ,ACTIVE,30MonoWAV/30MonoS2.wav,1,1,3,10,,,,,0,12,12,9,0,6,6,9,,,,,,,,,2,1.6020321839896496,,,029,001,2019_May_14_1312,MusicAffectPsychophysiology2019,3.0.5,59.975380945015885,
To what extent did the music make you feel ,ANXIOUS ,30MonoWAV/30MonoS2.wav,1,1,3,10,,,,,0,12,12,9,0,7,7,1,,,,,,,,,1,1.752892899006838,,,029,001,2019_May_14_1312,MusicAffectPsychophysiology2019,3.0.5,59.975380945015885,
To what extent did the music make you feel ,HAPPY,30MonoWAV/30MonoS2.wav,1,1,3,10,,,,,0,12,12,9,0,8,8,6,,,,,,,,,2,2.7354446120007196,,,029,001,2019_May_14_1312,MusicAffectPsychophysiology2019,3.0.5,59.975380945015885,
To what extent did the music make you feel ,SCARED,30MonoWAV/30MonoS2.wav,1,1,3,10,,,,,0,12,12,9,0,9,9,11,,,,,,,,,1,1.8014538629940944,,,029,001,2019_May_14_1312,MusicAffectPsychophysiology2019,3.0.5,59.975380945015885,
To what extent did the music make you feel ,ALERT,30MonoWAV/30MonoS2.wav,1,1,3,10,,,,,0,12,12,9,0,10,10,8,,,,,,,,,2,3.7343102839950006,,,029,001,2019_May_14_1312,MusicAffectPsychophysiology2019,3.0.5,59.975380945015885,
To what extent did the music make you feel ,ASHAMED,30MonoWAV/30MonoS2.wav,1,1,3,10,,,,,0,12,12,9,0,11,11,4,,,,,,,,,1,1.268152018004912,,,029,001,2019_May_14_1312,MusicAffectPsychophysiology2019,3.0.5,59.975380945015885,
,,30MonoWAV/30MonoS2.wav,1,1,3,10,,,,,0,12,12,9,,,,,,,,,,,,,,,,,029,001,2019_May_14_1312,MusicAffectPsychophysiology2019,3.0.5,59.975380945015885,
To what extent did the music make you feel ,FRUSTRATED,30MonoWAV/30MonoH1.wav,2,2,1,5,,,,,0,13,13,4,0,0,0,3,,,3,3.439226750007947,3,1.973895694987732,3,0.7190446229942609,1,1.4368346690025646,,,029,001,2019_May_14_1312,MusicAffectPsychophysiology2019,3.0.5,59.975380945015885,
To what extent did the music make you feel ,TENDER,30MonoWAV/30MonoH1.wav,2,2,1,5,,,,,0,13,13,4,0,1,1,10,,,,,,,,,1,1.8015204690018436,,,029,001,2019_May_14_1312,MusicAffectPsychophysiology2019,3.0.5,59.975380945015885,
To what extent did the music make you feel ,ACTIVE,30MonoWAV/30MonoH1.wav,2,2,1,5,,,,,0,13,13,4,0,2,2,9,,,,,,,,,3,1.2181443400040735,,,029,001,2019_May_14_1312,MusicAffectPsychophysiology2019,3.0.5,59.975380945015885,
To what extent did the music make you feel ,SCARED,30MonoWAV/30MonoH1.wav,2,2,1,5,,,,,0,13,13,4,0,3,3,11,,,,,,,,,1,0.973020744000678,,,029,001,2019_May_14_1312,MusicAffectPsychophysiology2019,3.0.5,59.975380945015885,
To what extent did the music make you feel ,ANGRY,30MonoWAV/30MonoH1.wav,2,2,1,5,,,,,0,13,13,4,0,4,4,2,,,,,,,,,1,1.753911160005373,,,029,001,2019_May_14_1312,MusicAffectPsychophysiology2019,3.0.5,59.975380945015885,
To what extent did the music make you feel ,EXCITED,30MonoWAV/30MonoH1.wav,2,2,1,5,,,,,0,13,13,4,0,5,5,7,,,,,,,,,3,1.3034163120028097,,,029,001,2019_May_14_1312,MusicAffectPsychophysiology2019,3.0.5,59.975380945015885,
To what extent did the music make you feel ,ALERT,30MonoWAV/30MonoH1.wav,2,2,1,5,,,,,0,13,13,4,0,6,6,8,,,,,,,,,3,1.5209980469953734,,,029,001,2019_May_14_1312,MusicAffectPsychophysiology2019,3.0.5,59.975380945015885,
To what extent did the music make you feel ,GUILTY,30MonoWAV/30MonoH1.wav,2,2,1,5,,,,,0,13,13,4,0,7,7,5,,,,,,,,,1,1.1689775940030813,,,029,001,2019_May_14_1312,MusicAffectPsychophysiology2019,3.0.5,59.975380945015885,
To what extent did the music make you feel ,ANXIOUS ,30MonoWAV/30MonoH1.wav,2,2,1,5,,,,,0,13,13,4,0,8,8,1,,,,,,,,,1,1.8567010260012466,,,029,001,2019_May_14_1312,MusicAffectPsychophysiology2019,3.0.5,59.975380945015885,
To what extent did the music make you feel ,SAD,30MonoWAV/30MonoH1.wav,2,2,1,5,,,,,0,13,13,4,0,9,9,0,,,,,,,,,1,1.501659731991822,,,029,001,2019_May_14_1312,MusicAffectPsychophysiology2019,3.0.5,59.975380945015885,
To what extent did the music make you feel ,HAPPY,30MonoWAV/30MonoH1.wav,2,2,1,5,,,,,0,13,13,4,0,10,10,6,,,,,,,,,3,1.935796350997407,,,029,001,2019_May_14_1312,MusicAffectPsychophysiology2019,3.0.5,59.975380945015885,
To what extent did the music make you feel ,ASHAMED,30MonoWAV/30MonoH1.wav,2,2,1,5,,,,,0,13,13,4,0,11,11,4,,,,,,,,,1,1.0688582629954908,,,029,001,2019_May_14_1312,MusicAffectPsychophysiology2019,3.0.5,59.975380945015885,
,,30MonoWAV/30MonoH1.wav,2,2,1,5,,,,,0,13,13,4,,,,,,,,,,,,,,,,,029,001,2019_May_14_1312,MusicAffectPsychophysiology2019,3.0.5,59.975380945015885,
To what extent did the music make you feel ,ANGRY,30MonoWAV/30MonoH3.wav,2,2,1,7,,,,,0,14,14,6,0,0,0,2,,,4,3.423028085002443,4,3.171718347002752,4,0.7691014849988278,1,1.8692041790054645,,,029,001,2019_May_14_1312,MusicAffectPsychophysiology2019,3.0.5,59.975380945015885,
To what extent did the music make you feel ,HAPPY,30MonoWAV/30MonoH3.wav,2,2,1,7,,,,,0,14,14,6,0,1,1,6,,,,,,,,,4,1.8177989420073573,,,029,001,2019_May_14_1312,MusicAffectPsychophysiology2019,3.0.5,59.975380945015885,
To what extent did the music make you feel ,GUILTY,30MonoWAV/30MonoH3.wav,2,2,1,7,,,,,0,14,14,6,0,2,2,5,,,,,,,,,1,1.1352083100064192,,,029,001,2019_May_14_1312,MusicAffectPsychophysiology2019,3.0.5,59.975380945015885,
To what extent did the music make you feel ,EXCITED,30MonoWAV/30MonoH3.wav,2,2,1,7,,,,,0,14,14,6,0,3,3,7,,,,,,,,,3,3.6021175680070883,,,029,001,2019_May_14_1312,MusicAffectPsychophysiology2019,3.0.5,59.975380945015885,
To what extent did the music make you feel ,ALERT,30MonoWAV/30MonoH3.wav,2,2,1,7,,,,,0,14,14,6,0,4,4,8,,,,,,,,,3,2.1523609139985638,,,029,001,2019_May_14_1312,MusicAffectPsychophysiology2019,3.0.5,59.975380945015885,
To what extent did the music make you feel ,FRUSTRATED,30MonoWAV/30MonoH3.wav,2,2,1,7,,,,,0,14,14,6,0,5,5,3,,,,,,,,,1,1.3686645279958611,,,029,001,2019_May_14_1312,MusicAffectPsychophysiology2019,3.0.5,59.975380945015885,
To what extent did the music make you feel ,TENDER,30MonoWAV/30MonoH3.wav,2,2,1,7,,,,,0,14,14,6,0,6,6,10,,,,,,,,,1,2.3187029270047788,,,029,001,2019_May_14_1312,MusicAffectPsychophysiology2019,3.0.5,59.975380945015885,
To what extent did the music make you feel ,ANXIOUS ,30MonoWAV/30MonoH3.wav,2,2,1,7,,,,,0,14,14,6,0,7,7,1,,,,,,,,,1,1.7187612460111268,,,029,001,2019_May_14_1312,MusicAffectPsychophysiology2019,3.0.5,59.975380945015885,
To what extent did the music make you feel ,ACTIVE,30MonoWAV/30MonoH3.wav,2,2,1,7,,,,,0,14,14,6,0,8,8,9,,,,,,,,,3,2.068440532995737,,,029,001,2019_May_14_1312,MusicAffectPsychophysiology2019,3.0.5,59.975380945015885,
To what extent did the music make you feel ,ASHAMED,30MonoWAV/30MonoH3.wav,2,2,1,7,,,,,0,14,14,6,0,9,9,4,,,,,,,,,1,0.7348154820065247,,,029,001,2019_May_14_1312,MusicAffectPsychophysiology2019,3.0.5,59.975380945015885,
To what extent did the music make you feel ,SAD,30MonoWAV/30MonoH3.wav,2,2,1,7,,,,,0,14,14,6,0,10,10,0,,,,,,,,,1,0.9519297519873362,,,029,001,2019_May_14_1312,MusicAffectPsychophysiology2019,3.0.5,59.975380945015885,
To what extent did the music make you feel ,SCARED,30MonoWAV/30MonoH3.wav,2,2,1,7,,,,,0,14,14,6,0,11,11,11,,,,,,,,,1,0.9518799369980115,,,029,001,2019_May_14_1312,MusicAffectPsychophysiology2019,3.0.5,59.975380945015885,
,,30MonoWAV/30MonoH3.wav,2,2,1,7,,,,,0,14,14,6,,,,,,,,,,,,,,,,,029,001,2019_May_14_1312,MusicAffectPsychophysiology2019,3.0.5,59.975380945015885,
To what extent did the music make you feel ,ALERT,30MonoWAV/30MonoT2.wav,2,1,4,14,,,,,0,15,15,13,0,0,0,8,,,3,3.484325468991301,2,2.0834739209967665,3,0.818990276005934,2,1.5522205130109796,,,029,001,2019_May_14_1312,MusicAffectPsychophysiology2019,3.0.5,59.975380945015885,
To what extent did the music make you feel ,SAD,30MonoWAV/30MonoT2.wav,2,1,4,14,,,,,0,15,15,13,0,1,1,0,,,,,,,,,3,4.651723714006948,,,029,001,2019_May_14_1312,MusicAffectPsychophysiology2019,3.0.5,59.975380945015885,
To what extent did the music make you feel ,FRUSTRATED,30MonoWAV/30MonoT2.wav,2,1,4,14,,,,,0,15,15,13,0,2,2,3,,,,,,,,,1,1.0345218219881644,,,029,001,2019_May_14_1312,MusicAffectPsychophysiology2019,3.0.5,59.975380945015885,
To what extent did the music make you feel ,ACTIVE,30MonoWAV/30MonoT2.wav,2,1,4,14,,,,,0,15,15,13,0,3,3,9,,,,,,,,,2,1.2353656699997373,,,029,001,2019_May_14_1312,MusicAffectPsychophysiology2019,3.0.5,59.975380945015885,
To what extent did the music make you feel ,ASHAMED,30MonoWAV/30MonoT2.wav,2,1,4,14,,,,,0,15,15,13,0,4,4,4,,,,,,,,,1,0.9845240750000812,,,029,001,2019_May_14_1312,MusicAffectPsychophysiology2019,3.0.5,59.975380945015885,
To what extent did the music make you feel ,TENDER,30MonoWAV/30MonoT2.wav,2,1,4,14,,,,,0,15,15,13,0,5,5,10,,,,,,,,,3,1.3014197099982994,,,029,001,2019_May_14_1312,MusicAffectPsychophysiology2019,3.0.5,59.975380945015885,
To what extent did the music make you feel ,ANXIOUS ,30MonoWAV/30MonoT2.wav,2,1,4,14,,,,,0,15,15,13,0,6,6,1,,,,,,,,,1,1.035272632012493,,,029,001,2019_May_14_1312,MusicAffectPsychophysiology2019,3.0.5,59.975380945015885,
To what extent did the music make you feel ,SCARED,30MonoWAV/30MonoT2.wav,2,1,4,14,,,,,0,15,15,13,0,7,7,11,,,,,,,,,1,1.570037070006947,,,029,001,2019_May_14_1312,MusicAffectPsychophysiology2019,3.0.5,59.975380945015885,
To what extent did the music make you feel ,GUILTY,30MonoWAV/30MonoT2.wav,2,1,4,14,,,,,0,15,15,13,0,8,8,5,,,,,,,,,1,2.468261222995352,,,029,001,2019_May_14_1312,MusicAffectPsychophysiology2019,3.0.5,59.975380945015885,
To what extent did the music make you feel ,HAPPY,30MonoWAV/30MonoT2.wav,2,1,4,14,,,,,0,15,15,13,0,9,9,6,,,,,,,,,2,1.5510017790074926,,,029,001,2019_May_14_1312,MusicAffectPsychophysiology2019,3.0.5,59.975380945015885,
To what extent did the music make you feel ,EXCITED,30MonoWAV/30MonoT2.wav,2,1,4,14,,,,,0,15,15,13,0,10,10,7,,,,,,,,,2,1.9680640150036197,,,029,001,2019_May_14_1312,MusicAffectPsychophysiology2019,3.0.5,59.975380945015885,
To what extent did the music make you feel ,ANGRY,30MonoWAV/30MonoT2.wav,2,1,4,14,,,,,0,15,15,13,0,11,11,2,,,,,,,,,1,2.1677660449931864,,,029,001,2019_May_14_1312,MusicAffectPsychophysiology2019,3.0.5,59.975380945015885,
,,30MonoWAV/30MonoT2.wav,2,1,4,14,,,,,0,15,15,13,,,,,,,,,,,,,,,,,029,001,2019_May_14_1312,MusicAffectPsychophysiology2019,3.0.5,59.975380945015885,
To what extent did the music make you feel ,FRUSTRATED,30MonoWAV/30MonoS3.wav,1,1,3,11,,,,,1,0,16,10,0,0,0,3,,,2,4.9836967479932355,1,1.6694901870068861,2,2.418538358004298,1,1.069213940994814,,,029,001,2019_May_14_1312,MusicAffectPsychophysiology2019,3.0.5,59.975380945015885,
To what extent did the music make you feel ,ALERT,30MonoWAV/30MonoS3.wav,1,1,3,11,,,,,1,0,16,10,0,1,1,8,,,,,,,,,2,1.1189918399904855,,,029,001,2019_May_14_1312,MusicAffectPsychophysiology2019,3.0.5,59.975380945015885,
To what extent did the music make you feel ,ACTIVE,30MonoWAV/30MonoS3.wav,1,1,3,11,,,,,1,0,16,10,0,2,2,9,,,,,,,,,1,1.3859236809948925,,,029,001,2019_May_14_1312,MusicAffectPsychophysiology2019,3.0.5,59.975380945015885,
To what extent did the music make you feel ,GUILTY,30MonoWAV/30MonoS3.wav,1,1,3,11,,,,,1,0,16,10,0,3,3,5,,,,,,,,,1,1.0514197590091499,,,029,001,2019_May_14_1312,MusicAffectPsychophysiology2019,3.0.5,59.975380945015885,
To what extent did the music make you feel ,EXCITED,30MonoWAV/30MonoS3.wav,1,1,3,11,,,,,1,0,16,10,0,4,4,7,,,,,,,,,1,1.7012449509929866,,,029,001,2019_May_14_1312,MusicAffectPsychophysiology2019,3.0.5,59.975380945015885,
To what extent did the music make you feel ,ANXIOUS ,30MonoWAV/30MonoS3.wav,1,1,3,11,,,,,1,0,16,10,0,5,5,1,,,,,,,,,1,2.235515330990893,,,029,001,2019_May_14_1312,MusicAffectPsychophysiology2019,3.0.5,59.975380945015885,
To what extent did the music make you feel ,SAD,30MonoWAV/30MonoS3.wav,1,1,3,11,,,,,1,0,16,10,0,6,6,0,,,,,,,,,2,1.2515884540043771,,,029,001,2019_May_14_1312,MusicAffectPsychophysiology2019,3.0.5,59.975380945015885,
To what extent did the music make you feel ,SCARED,30MonoWAV/30MonoS3.wav,1,1,3,11,,,,,1,0,16,10,0,7,7,11,,,,,,,,,1,5.300520770993899,,,029,001,2019_May_14_1312,MusicAffectPsychophysiology2019,3.0.5,59.975380945015885,
To what extent did the music make you feel ,ASHAMED,30MonoWAV/30MonoS3.wav,1,1,3,11,,,,,1,0,16,10,0,8,8,4,,,,,,,,,1,2.736378520989092,,,029,001,2019_May_14_1312,MusicAffectPsychophysiology2019,3.0.5,59.975380945015885,
To what extent did the music make you feel ,ANGRY,30MonoWAV/30MonoS3.wav,1,1,3,11,,,,,1,0,16,10,0,9,9,2,,,,,,,,,1,0.984432529003243,,,029,001,2019_May_14_1312,MusicAffectPsychophysiology2019,3.0.5,59.975380945015885,
To what extent did the music make you feel ,HAPPY,30MonoWAV/30MonoS3.wav,1,1,3,11,,,,,1,0,16,10,0,10,10,6,,,,,,,,,1,1.4687255619937787,,,029,001,2019_May_14_1312,MusicAffectPsychophysiology2019,3.0.5,59.975380945015885,
To what extent did the music make you feel ,TENDER,30MonoWAV/30MonoS3.wav,1,1,3,11,,,,,1,0,16,10,0,11,11,10,,,,,,,,,2,1.2851038420049008,,,029,001,2019_May_14_1312,MusicAffectPsychophysiology2019,3.0.5,59.975380945015885,
,,30MonoWAV/30MonoS3.wav,1,1,3,11,,,,,1,0,16,10,,,,,,,,,,,,,,,,,029,001,2019_May_14_1312,MusicAffectPsychophysiology2019,3.0.5,59.975380945015885,
To what extent did the music make you feel ,ASHAMED,30MonoWAV/30MonoH1.wav,2,2,1,5,,,,,1,1,17,4,0,0,0,4,,,2,3.505369805992814,2,2.1687317799951416,2,0.7884332740068203,1,1.1523658469959628,,,029,001,2019_May_14_1312,MusicAffectPsychophysiology2019,3.0.5,59.975380945015885,
To what extent did the music make you feel ,ANXIOUS ,30MonoWAV/30MonoH1.wav,2,2,1,5,,,,,1,1,17,4,0,1,1,1,,,,,,,,,1,1.169526935002068,,,029,001,2019_May_14_1312,MusicAffectPsychophysiology2019,3.0.5,59.975380945015885,
To what extent did the music make you feel ,TENDER,30MonoWAV/30MonoH1.wav,2,2,1,5,,,,,1,1,17,4,0,2,2,10,,,,,,,,,1,1.1531144670007052,,,029,001,2019_May_14_1312,MusicAffectPsychophysiology2019,3.0.5,59.975380945015885,
To what extent did the music make you feel ,FRUSTRATED,30MonoWAV/30MonoH1.wav,2,2,1,5,,,,,1,1,17,4,0,3,3,3,,,,,,,,,1,0.8860041640000418,,,029,001,2019_May_14_1312,MusicAffectPsychophysiology2019,3.0.5,59.975380945015885,
To what extent did the music make you feel ,SCARED,30MonoWAV/30MonoH1.wav,2,2,1,5,,,,,1,1,17,4,0,4,4,11,,,,,,,,,1,0.9361625040037325,,,029,001,2019_May_14_1312,MusicAffectPsychophysiology2019,3.0.5,59.975380945015885,
To what extent did the music make you feel ,SAD,30MonoWAV/30MonoH1.wav,2,2,1,5,,,,,1,1,17,4,0,5,5,0,,,,,,,,,1,1.0864203350065509,,,029,001,2019_May_14_1312,MusicAffectPsychophysiology2019,3.0.5,59.975380945015885,
To what extent did the music make you feel ,HAPPY,30MonoWAV/30MonoH1.wav,2,2,1,5,,,,,1,1,17,4,0,6,6,6,,,,,,,,,2,1.9908218320051674,,,029,001,2019_May_14_1312,MusicAffectPsychophysiology2019,3.0.5,59.975380945015885,
To what extent did the music make you feel ,ALERT,30MonoWAV/30MonoH1.wav,2,2,1,5,,,,,1,1,17,4,0,7,7,8,,,,,,,,,2,1.801769449011772,,,029,001,2019_May_14_1312,MusicAffectPsychophysiology2019,3.0.5,59.975380945015885,
To what extent did the music make you feel ,ACTIVE,30MonoWAV/30MonoH1.wav,2,2,1,5,,,,,1,1,17,4,0,8,8,9,,,,,,,,,2,1.2514012199972058,,,029,001,2019_May_14_1312,MusicAffectPsychophysiology2019,3.0.5,59.975380945015885,
To what extent did the music make you feel ,ANGRY,30MonoWAV/30MonoH1.wav,2,2,1,5,,,,,1,1,17,4,0,9,9,2,,,,,,,,,1,0.95160513400333,,,029,001,2019_May_14_1312,MusicAffectPsychophysiology2019,3.0.5,59.975380945015885,
To what extent did the music make you feel ,EXCITED,30MonoWAV/30MonoH1.wav,2,2,1,5,,,,,1,1,17,4,0,10,10,7,,,,,,,,,2,1.1016447900037747,,,029,001,2019_May_14_1312,MusicAffectPsychophysiology2019,3.0.5,59.975380945015885,
To what extent did the music make you feel ,GUILTY,30MonoWAV/30MonoH1.wav,2,2,1,5,,,,,1,1,17,4,0,11,11,5,,,,,,,,,1,0.818097455005045,,,029,001,2019_May_14_1312,MusicAffectPsychophysiology2019,3.0.5,59.975380945015885,
,,30MonoWAV/30MonoH1.wav,2,2,1,5,,,,,1,1,17,4,,,,,,,,,,,,,,,,,029,001,2019_May_14_1312,MusicAffectPsychophysiology2019,3.0.5,59.975380945015885,
To what extent did the music make you feel ,GUILTY,30MonoWAV/30MonoS2.wav,1,1,3,10,,,,,1,2,18,9,0,0,0,5,,,1,4.484631625004113,1,1.435996358995908,3,1.117864311003359,1,2.2021755009918706,,,029,001,2019_May_14_1312,MusicAffectPsychophysiology2019,3.0.5,59.975380945015885,
To what extent did the music make you feel ,ANGRY,30MonoWAV/30MonoS2.wav,1,1,3,10,,,,,1,2,18,9,0,1,1,2,,,,,,,,,1,1.0022057310125092,,,029,001,2019_May_14_1312,MusicAffectPsychophysiology2019,3.0.5,59.975380945015885,
To what extent did the music make you feel ,EXCITED,30MonoWAV/30MonoS2.wav,1,1,3,10,,,,,1,2,18,9,0,2,2,7,,,,,,,,,1,1.1513510009972379,,,029,001,2019_May_14_1312,MusicAffectPsychophysiology2019,3.0.5,59.975380945015885,
To what extent did the music make you feel ,SCARED,30MonoWAV/30MonoS2.wav,1,1,3,10,,,,,1,2,18,9,0,3,3,11,,,,,,,,,1,1.1346068090060726,,,029,001,2019_May_14_1312,MusicAffectPsychophysiology2019,3.0.5,59.975380945015885,
To what extent did the music make you feel ,ASHAMED,30MonoWAV/30MonoS2.wav,1,1,3,10,,,,,1,2,18,9,0,4,4,4,,,,,,,,,1,1.1343607110029552,,,029,001,2019_May_14_1312,MusicAffectPsychophysiology2019,3.0.5,59.975380945015885,
To what extent did the music make you feel ,HAPPY,30MonoWAV/30MonoS2.wav,1,1,3,10,,,,,1,2,18,9,0,5,5,6,,,,,,,,,1,2.302182671992341,,,029,001,2019_May_14_1312,MusicAffectPsychophysiology2019,3.0.5,59.975380945015885,
To what extent did the music make you feel ,FRUSTRATED,30MonoWAV/30MonoS2.wav,1,1,3,10,,,,,1,2,18,9,0,6,6,3,,,,,,,,,1,1.3496094129950507,,,029,001,2019_May_14_1312,MusicAffectPsychophysiology2019,3.0.5,59.975380945015885,
To what extent did the music make you feel ,TENDER,30MonoWAV/30MonoS2.wav,1,1,3,10,,,,,1,2,18,9,0,7,7,10,,,,,,,,,2,1.1511356779956259,,,029,001,2019_May_14_1312,MusicAffectPsychophysiology2019,3.0.5,59.975380945015885,
To what extent did the music make you feel ,ANXIOUS ,30MonoWAV/30MonoS2.wav,1,1,3,10,,,,,1,2,18,9,0,8,8,1,,,,,,,,,1,1.120015965992934,,,029,001,2019_May_14_1312,MusicAffectPsychophysiology2019,3.0.5,59.975380945015885,
To what extent did the music make you feel ,ACTIVE,30MonoWAV/30MonoS2.wav,1,1,3,10,,,,,1,2,18,9,0,9,9,9,,,,,,,,,1,2.3686871270037955,,,029,001,2019_May_14_1312,MusicAffectPsychophysiology2019,3.0.5,59.975380945015885,
To what extent did the music make you feel ,ALERT,30MonoWAV/30MonoS2.wav,1,1,3,10,,,,,1,2,18,9,0,10,10,8,,,,,,,,,1,4.36848594500043,,,029,001,2019_May_14_1312,MusicAffectPsychophysiology2019,3.0.5,59.975380945015885,
To what extent did the music make you feel ,SAD,30MonoWAV/30MonoS2.wav,1,1,3,10,,,,,1,2,18,9,0,11,11,0,,,,,,,,,2,1.484511634989758,,,029,001,2019_May_14_1312,MusicAffectPsychophysiology2019,3.0.5,59.975380945015885,
,,30MonoWAV/30MonoS2.wav,1,1,3,10,,,,,1,2,18,9,,,,,,,,,,,,,,,,,029,001,2019_May_14_1312,MusicAffectPsychophysiology2019,3.0.5,59.975380945015885,
To what extent did the music make you feel ,ACTIVE,30MonoWAV/30MonoF3.wav,1,2,2,3,,,,,1,3,19,2,0,0,0,9,,,3,4.068329139990965,1,3.034378918004222,2,1.5004073210002389,3,2.3182808440033114,,,029,001,2019_May_14_1312,MusicAffectPsychophysiology2019,3.0.5,59.975380945015885,
To what extent did the music make you feel ,ASHAMED,30MonoWAV/30MonoF3.wav,1,2,2,3,,,,,1,3,19,2,0,1,1,4,,,,,,,,,1,0.934704202998546,,,029,001,2019_May_14_1312,MusicAffectPsychophysiology2019,3.0.5,59.975380945015885,
To what extent did the music make you feel ,EXCITED,30MonoWAV/30MonoF3.wav,1,2,2,3,,,,,1,3,19,2,0,2,2,7,,,,,,,,,3,1.9522758400125895,,,029,001,2019_May_14_1312,MusicAffectPsychophysiology2019,3.0.5,59.975380945015885,
To what extent did the music make you feel ,SAD,30MonoWAV/30MonoF3.wav,1,2,2,3,,,,,1,3,19,2,0,3,3,0,,,,,,,,,1,1.2182258770044427,,,029,001,2019_May_14_1312,MusicAffectPsychophysiology2019,3.0.5,59.975380945015885,
To what extent did the music make you feel ,FRUSTRATED,30MonoWAV/30MonoF3.wav,1,2,2,3,,,,,1,3,19,2,0,4,4,3,,,,,,,,,1,0.8348420639958931,,,029,001,2019_May_14_1312,MusicAffectPsychophysiology2019,3.0.5,59.975380945015885,
To what extent did the music make you feel ,ANGRY,30MonoWAV/30MonoF3.wav,1,2,2,3,,,,,1,3,19,2,0,5,5,2,,,,,,,,,1,0.9350198549946072,,,029,001,2019_May_14_1312,MusicAffectPsychophysiology2019,3.0.5,59.975380945015885,
To what extent did the music make you feel ,TENDER,30MonoWAV/30MonoF3.wav,1,2,2,3,,,,,1,3,19,2,0,6,6,10,,,,,,,,,1,0.8837212830112549,,,029,001,2019_May_14_1312,MusicAffectPsychophysiology2019,3.0.5,59.975380945015885,
To what extent did the music make you feel ,GUILTY,30MonoWAV/30MonoF3.wav,1,2,2,3,,,,,1,3,19,2,0,7,7,5,,,,,,,,,1,0.8361907479993533,,,029,001,2019_May_14_1312,MusicAffectPsychophysiology2019,3.0.5,59.975380945015885,
To what extent did the music make you feel ,ALERT,30MonoWAV/30MonoF3.wav,1,2,2,3,,,,,1,3,19,2,0,8,8,8,,,,,,,,,3,1.1340814219875028,,,029,001,2019_May_14_1312,MusicAffectPsychophysiology2019,3.0.5,59.975380945015885,
To what extent did the music make you feel ,HAPPY,30MonoWAV/30MonoF3.wav,1,2,2,3,,,,,1,3,19,2,0,9,9,6,,,,,,,,,1,1.4023360369901638,,,029,001,2019_May_14_1312,MusicAffectPsychophysiology2019,3.0.5,59.975380945015885,
To what extent did the music make you feel ,SCARED,30MonoWAV/30MonoF3.wav,1,2,2,3,,,,,1,3,19,2,0,10,10,11,,,,,,,,,2,1.2013492719997885,,,029,001,2019_May_14_1312,MusicAffectPsychophysiology2019,3.0.5,59.975380945015885,
To what extent did the music make you feel ,ANXIOUS ,30MonoWAV/30MonoF3.wav,1,2,2,3,,,,,1,3,19,2,0,11,11,1,,,,,,,,,2,0.9495622510003159,,,029,001,2019_May_14_1312,MusicAffectPsychophysiology2019,3.0.5,59.975380945015885,
,,30MonoWAV/30MonoF3.wav,1,2,2,3,,,,,1,3,19,2,,,,,,,,,,,,,,,,,029,001,2019_May_14_1312,MusicAffectPsychophysiology2019,3.0.5,59.975380945015885,
To what extent did the music make you feel ,GUILTY,30MonoWAV/30MonoT3.wav,2,1,4,15,,,,,1,4,20,14,0,0,0,5,,,2,2.700480809988221,3,2.268957303997013,3,1.1011927530053072,1,1.001958516004379,,,029,001,2019_May_14_1312,MusicAffectPsychophysiology2019,3.0.5,59.975380945015885,
To what extent did the music make you feel ,ANGRY,30MonoWAV/30MonoT3.wav,2,1,4,15,,,,,1,4,20,14,0,1,1,2,,,,,,,,,1,1.069681856999523,,,029,001,2019_May_14_1312,MusicAffectPsychophysiology2019,3.0.5,59.975380945015885,
To what extent did the music make you feel ,ANXIOUS ,30MonoWAV/30MonoT3.wav,2,1,4,15,,,,,1,4,20,14,0,2,2,1,,,,,,,,,1,1.2852864229935221,,,029,001,2019_May_14_1312,MusicAffectPsychophysiology2019,3.0.5,59.975380945015885,
To what extent did the music make you feel ,ALERT,30MonoWAV/30MonoT3.wav,2,1,4,15,,,,,1,4,20,14,0,3,3,8,,,,,,,,,1,2.068723044998478,,,029,001,2019_May_14_1312,MusicAffectPsychophysiology2019,3.0.5,59.975380945015885,
To what extent did the music make you feel ,SCARED,30MonoWAV/30MonoT3.wav,2,1,4,15,,,,,1,4,20,14,0,4,4,11,,,,,,,,,1,0.9514561510004569,,,029,001,2019_May_14_1312,MusicAffectPsychophysiology2019,3.0.5,59.975380945015885,
To what extent did the music make you feel ,ACTIVE,30MonoWAV/30MonoT3.wav,2,1,4,15,,,,,1,4,20,14,0,5,5,9,,,,,,,,,1,2.084412481999607,,,029,001,2019_May_14_1312,MusicAffectPsychophysiology2019,3.0.5,59.975380945015885,
To what extent did the music make you feel ,TENDER,30MonoWAV/30MonoT3.wav,2,1,4,15,,,,,1,4,20,14,0,6,6,10,,,,,,,,,3,2.100637067007483,,,029,001,2019_May_14_1312,MusicAffectPsychophysiology2019,3.0.5,59.975380945015885,
To what extent did the music make you feel ,ASHAMED,30MonoWAV/30MonoT3.wav,2,1,4,15,,,,,1,4,20,14,0,7,7,4,,,,,,,,,1,1.0021520009904634,,,029,001,2019_May_14_1312,MusicAffectPsychophysiology2019,3.0.5,59.975380945015885,
To what extent did the music make you feel ,HAPPY,30MonoWAV/30MonoT3.wav,2,1,4,15,,,,,1,4,20,14,0,8,8,6,,,,,,,,,3,2.2855977290018927,,,029,001,2019_May_14_1312,MusicAffectPsychophysiology2019,3.0.5,59.975380945015885,
To what extent did the music make you feel ,FRUSTRATED,30MonoWAV/30MonoT3.wav,2,1,4,15,,,,,1,4,20,14,0,9,9,3,,,,,,,,,1,0.8186011409998173,,,029,001,2019_May_14_1312,MusicAffectPsychophysiology2019,3.0.5,59.975380945015885,
To what extent did the music make you feel ,EXCITED,30MonoWAV/30MonoT3.wav,2,1,4,15,,,,,1,4,20,14,0,10,10,7,,,,,,,,,1,2.8165152709989343,,,029,001,2019_May_14_1312,MusicAffectPsychophysiology2019,3.0.5,59.975380945015885,
To what extent did the music make you feel ,SAD,30MonoWAV/30MonoT3.wav,2,1,4,15,,,,,1,4,20,14,0,11,11,0,,,,,,,,,1,0.6519479919952573,,,029,001,2019_May_14_1312,MusicAffectPsychophysiology2019,3.0.5,59.975380945015885,
,,30MonoWAV/30MonoT3.wav,2,1,4,15,,,,,1,4,20,14,,,,,,,,,,,,,,,,,029,001,2019_May_14_1312,MusicAffectPsychophysiology2019,3.0.5,59.975380945015885,
To what extent did the music make you feel ,ACTIVE,30MonoWAV/30MonoH3.wav,2,2,1,7,,,,,1,5,21,6,0,0,0,9,,,4,3.570918347002589,4,2.0547256909922,4,0.8861089669953799,4,3.255451642005937,,,029,001,2019_May_14_1312,MusicAffectPsychophysiology2019,3.0.5,59.975380945015885,
To what extent did the music make you feel ,FRUSTRATED,30MonoWAV/30MonoH3.wav,2,2,1,7,,,,,1,5,21,6,0,1,1,3,,,,,,,,,1,1.6741693109943299,,,029,001,2019_May_14_1312,MusicAffectPsychophysiology2019,3.0.5,59.975380945015885,
To what extent did the music make you feel ,SAD,30MonoWAV/30MonoH3.wav,2,2,1,7,,,,,1,5,21,6,0,2,2,0,,,,,,,,,1,1.1154744189989287,,,029,001,2019_May_14_1312,MusicAffectPsychophysiology2019,3.0.5,59.975380945015885,
To what extent did the music make you feel ,ASHAMED,30MonoWAV/30MonoH3.wav,2,2,1,7,,,,,1,5,21,6,0,3,3,4,,,,,,,,,1,0.7691044719977072,,,029,001,2019_May_14_1312,MusicAffectPsychophysiology2019,3.0.5,59.975380945015885,
To what extent did the music make you feel ,ANGRY,30MonoWAV/30MonoH3.wav,2,2,1,7,,,,,1,5,21,6,0,4,4,2,,,,,,,,,1,0.7036603019951144,,,029,001,2019_May_14_1312,MusicAffectPsychophysiology2019,3.0.5,59.975380945015885,
To what extent did the music make you feel ,GUILTY,30MonoWAV/30MonoH3.wav,2,2,1,7,,,,,1,5,21,6,0,5,5,5,,,,,,,,,1,0.6523601740045706,,,029,001,2019_May_14_1312,MusicAffectPsychophysiology2019,3.0.5,59.975380945015885,
To what extent did the music make you feel ,HAPPY,30MonoWAV/30MonoH3.wav,2,2,1,7,,,,,1,5,21,6,0,6,6,6,,,,,,,,,4,1.4526793059922056,,,029,001,2019_May_14_1312,MusicAffectPsychophysiology2019,3.0.5,59.975380945015885,
To what extent did the music make you feel ,ANXIOUS ,30MonoWAV/30MonoH3.wav,2,2,1,7,,,,,1,5,21,6,0,7,7,1,,,,,,,,,1,1.1854921010090038,,,029,001,2019_May_14_1312,MusicAffectPsychophysiology2019,3.0.5,59.975380945015885,
To what extent did the music make you feel ,SCARED,30MonoWAV/30MonoH3.wav,2,2,1,7,,,,,1,5,21,6,0,8,8,11,,,,,,,,,1,0.8179849029984325,,,029,001,2019_May_14_1312,MusicAffectPsychophysiology2019,3.0.5,59.975380945015885,
To what extent did the music make you feel ,ALERT,30MonoWAV/30MonoH3.wav,2,2,1,7,,,,,1,5,21,6,0,9,9,8,,,,,,,,,4,1.985616182006197,,,029,001,2019_May_14_1312,MusicAffectPsychophysiology2019,3.0.5,59.975380945015885,
To what extent did the music make you feel ,EXCITED,30MonoWAV/30MonoH3.wav,2,2,1,7,,,,,1,5,21,6,0,10,10,7,,,,,,,,,4,4.08546618600667,,,029,001,2019_May_14_1312,MusicAffectPsychophysiology2019,3.0.5,59.975380945015885,
To what extent did the music make you feel ,TENDER,30MonoWAV/30MonoH3.wav,2,2,1,7,,,,,1,5,21,6,0,11,11,10,,,,,,,,,2,2.1355551080050645,,,029,001,2019_May_14_1312,MusicAffectPsychophysiology2019,3.0.5,59.975380945015885,
,,30MonoWAV/30MonoH3.wav,2,2,1,7,,,,,1,5,21,6,,,,,,,,,,,,,,,,,029,001,2019_May_14_1312,MusicAffectPsychophysiology2019,3.0.5,59.975380945015885,
To what extent did the music make you feel ,ANGRY,30MonoWAV/30MonoF4.wav,1,2,2,4,,,,,1,6,22,3,0,0,0,2,,,3,2.801578320999397,1,1.8523166150116595,2,1.3518028219987173,1,1.6197387180000078,,,029,001,2019_May_14_1312,MusicAffectPsychophysiology2019,3.0.5,59.975380945015885,
To what extent did the music make you feel ,SAD,30MonoWAV/30MonoF4.wav,1,2,2,4,,,,,1,6,22,3,0,1,1,0,,,,,,,,,1,1.4851724069885677,,,029,001,2019_May_14_1312,MusicAffectPsychophysiology2019,3.0.5,59.975380945015885,
To what extent did the music make you feel ,TENDER,30MonoWAV/30MonoF4.wav,1,2,2,4,,,,,1,6,22,3,0,2,2,10,,,,,,,,,1,1.0356659780081827,,,029,001,2019_May_14_1312,MusicAffectPsychophysiology2019,3.0.5,59.975380945015885,
To what extent did the music make you feel ,SCARED,30MonoWAV/30MonoF4.wav,1,2,2,4,,,,,1,6,22,3,0,3,3,11,,,,,,,,,2,2.568620810008724,,,029,001,2019_May_14_1312,MusicAffectPsychophysiology2019,3.0.5,59.975380945015885,
To what extent did the music make you feel ,ANXIOUS ,30MonoWAV/30MonoF4.wav,1,2,2,4,,,,,1,6,22,3,0,4,4,1,,,,,,,,,2,1.5402306690084515,,,029,001,2019_May_14_1312,MusicAffectPsychophysiology2019,3.0.5,59.975380945015885,
To what extent did the music make you feel ,ASHAMED,30MonoWAV/30MonoF4.wav,1,2,2,4,,,,,1,6,22,3,0,5,5,4,,,,,,,,,1,0.6523498320020735,,,029,001,2019_May_14_1312,MusicAffectPsychophysiology2019,3.0.5,59.975380945015885,
To what extent did the music make you feel ,EXCITED,30MonoWAV/30MonoF4.wav,1,2,2,4,,,,,1,6,22,3,0,6,6,7,,,,,,,,,2,1.1378960849979194,,,029,001,2019_May_14_1312,MusicAffectPsychophysiology2019,3.0.5,59.975380945015885,
To what extent did the music make you feel ,ALERT,30MonoWAV/30MonoF4.wav,1,2,2,4,,,,,1,6,22,3,0,7,7,8,,,,,,,,,3,1.821250417997362,,,029,001,2019_May_14_1312,MusicAffectPsychophysiology2019,3.0.5,59.975380945015885,
To what extent did the music make you feel ,ACTIVE,30MonoWAV/30MonoF4.wav,1,2,2,4,,,,,1,6,22,3,0,8,8,9,,,,,,,,,2,1.2532653369999025,,,029,001,2019_May_14_1312,MusicAffectPsychophysiology2019,3.0.5,59.975380945015885,
To what extent did the music make you feel ,GUILTY,30MonoWAV/30MonoF4.wav,1,2,2,4,,,,,1,6,22,3,0,9,9,5,,,,,,,,,1,0.6188619130116422,,,029,001,2019_May_14_1312,MusicAffectPsychophysiology2019,3.0.5,59.975380945015885,
To what extent did the music make you feel ,FRUSTRATED,30MonoWAV/30MonoF4.wav,1,2,2,4,,,,,1,6,22,3,0,10,10,3,,,,,,,,,1,0.9193091530032689,,,029,001,2019_May_14_1312,MusicAffectPsychophysiology2019,3.0.5,59.975380945015885,
To what extent did the music make you feel ,HAPPY,30MonoWAV/30MonoF4.wav,1,2,2,4,,,,,1,6,22,3,0,11,11,6,,,,,,,,,1,1.3909468649944756,,,029,001,2019_May_14_1312,MusicAffectPsychophysiology2019,3.0.5,59.975380945015885,
,,30MonoWAV/30MonoF4.wav,1,2,2,4,,,,,1,6,22,3,,,,,,,,,,,,,,,,,029,001,2019_May_14_1312,MusicAffectPsychophysiology2019,3.0.5,59.975380945015885,
To what extent did the music make you feel ,HAPPY,30MonoWAV/30MonoT1.wav,2,1,4,13,,,,,1,7,23,12,0,0,0,6,,,2,3.685122433002107,3,3.2355712529970333,3,2.218961071004742,3,1.7012125059991376,,,029,001,2019_May_14_1312,MusicAffectPsychophysiology2019,3.0.5,59.975380945015885,
To what extent did the music make you feel ,SAD,30MonoWAV/30MonoT1.wav,2,1,4,13,,,,,1,7,23,12,0,1,1,0,,,,,,,,,1,3.986983381008031,,,029,001,2019_May_14_1312,MusicAffectPsychophysiology2019,3.0.5,59.975380945015885,
To what extent did the music make you feel ,ASHAMED,30MonoWAV/30MonoT1.wav,2,1,4,13,,,,,1,7,23,12,0,2,2,4,,,,,,,,,1,0.8524786740017589,,,029,001,2019_May_14_1312,MusicAffectPsychophysiology2019,3.0.5,59.975380945015885,
To what extent did the music make you feel ,ANGRY,30MonoWAV/30MonoT1.wav,2,1,4,13,,,,,1,7,23,12,0,3,3,2,,,,,,,,,1,1.3015489959943807,,,029,001,2019_May_14_1312,MusicAffectPsychophysiology2019,3.0.5,59.975380945015885,
To what extent did the music make you feel ,ANXIOUS ,30MonoWAV/30MonoT1.wav,2,1,4,13,,,,,1,7,23,12,0,4,4,1,,,,,,,,,1,1.0844370359991444,,,029,001,2019_May_14_1312,MusicAffectPsychophysiology2019,3.0.5,59.975380945015885,
To what extent did the music make you feel ,ACTIVE,30MonoWAV/30MonoT1.wav,2,1,4,13,,,,,1,7,23,12,0,5,5,9,,,,,,,,,1,1.7502866249997169,,,029,001,2019_May_14_1312,MusicAffectPsychophysiology2019,3.0.5,59.975380945015885,
To what extent did the music make you feel ,EXCITED,30MonoWAV/30MonoT1.wav,2,1,4,13,,,,,1,7,23,12,0,6,6,7,,,,,,,,,2,1.1184382279898273,,,029,001,2019_May_14_1312,MusicAffectPsychophysiology2019,3.0.5,59.975380945015885,
To what extent did the music make you feel ,FRUSTRATED,30MonoWAV/30MonoT1.wav,2,1,4,13,,,,,1,7,23,12,0,7,7,3,,,,,,,,,1,0.6689296679978725,,,029,001,2019_May_14_1312,MusicAffectPsychophysiology2019,3.0.5,59.975380945015885,
To what extent did the music make you feel ,TENDER,30MonoWAV/30MonoT1.wav,2,1,4,13,,,,,1,7,23,12,0,8,8,10,,,,,,,,,3,1.23560507199727,,,029,001,2019_May_14_1312,MusicAffectPsychophysiology2019,3.0.5,59.975380945015885,
To what extent did the music make you feel ,GUILTY,30MonoWAV/30MonoT1.wav,2,1,4,13,,,,,1,7,23,12,0,9,9,5,,,,,,,,,1,1.7341711600020062,,,029,001,2019_May_14_1312,MusicAffectPsychophysiology2019,3.0.5,59.975380945015885,
To what extent did the music make you feel ,ALERT,30MonoWAV/30MonoT1.wav,2,1,4,13,,,,,1,7,23,12,0,10,10,8,,,,,,,,,1,1.8193492430000333,,,029,001,2019_May_14_1312,MusicAffectPsychophysiology2019,3.0.5,59.975380945015885,
To what extent did the music make you feel ,SCARED,30MonoWAV/30MonoT1.wav,2,1,4,13,,,,,1,7,23,12,0,11,11,11,,,,,,,,,1,0.6348345869919285,,,029,001,2019_May_14_1312,MusicAffectPsychophysiology2019,3.0.5,59.975380945015885,
,,30MonoWAV/30MonoT1.wav,2,1,4,13,,,,,1,7,23,12,,,,,,,,,,,,,,,,,029,001,2019_May_14_1312,MusicAffectPsychophysiology2019,3.0.5,59.975380945015885,
To what extent did the music make you feel ,ASHAMED,30MonoWAV/30MonoF1.wav,1,2,2,1,,,,,1,8,24,0,0,0,0,4,,,3,2.922037198994076,1,2.4758335560036357,2,1.38342561700847,1,1.0021240819914965,,,029,001,2019_May_14_1312,MusicAffectPsychophysiology2019,3.0.5,59.975380945015885,
To what extent did the music make you feel ,GUILTY,30MonoWAV/30MonoF1.wav,1,2,2,1,,,,,1,8,24,0,0,1,1,5,,,,,,,,,1,0.7690792259963928,,,029,001,2019_May_14_1312,MusicAffectPsychophysiology2019,3.0.5,59.975380945015885,
To what extent did the music make you feel ,ACTIVE,30MonoWAV/30MonoF1.wav,1,2,2,1,,,,,1,8,24,0,0,2,2,9,,,,,,,,,2,0.9861274660070194,,,029,001,2019_May_14_1312,MusicAffectPsychophysiology2019,3.0.5,59.975380945015885,
To what extent did the music make you feel ,FRUSTRATED,30MonoWAV/30MonoF1.wav,1,2,2,1,,,,,1,8,24,0,0,3,3,3,,,,,,,,,1,0.7858932719973382,,,029,001,2019_May_14_1312,MusicAffectPsychophysiology2019,3.0.5,59.975380945015885,
To what extent did the music make you feel ,EXCITED,30MonoWAV/30MonoF1.wav,1,2,2,1,,,,,1,8,24,0,0,4,4,7,,,,,,,,,1,2.5175773270020727,,,029,001,2019_May_14_1312,MusicAffectPsychophysiology2019,3.0.5,59.975380945015885,
To what extent did the music make you feel ,ANGRY,30MonoWAV/30MonoF1.wav,1,2,2,1,,,,,1,8,24,0,0,5,5,2,,,,,,,,,1,0.8178834919963265,,,029,001,2019_May_14_1312,MusicAffectPsychophysiology2019,3.0.5,59.975380945015885,
To what extent did the music make you feel ,HAPPY,30MonoWAV/30MonoF1.wav,1,2,2,1,,,,,1,8,24,0,0,6,6,6,,,,,,,,,1,0.9851605159929022,,,029,001,2019_May_14_1312,MusicAffectPsychophysiology2019,3.0.5,59.975380945015885,
To what extent did the music make you feel ,ANXIOUS ,30MonoWAV/30MonoF1.wav,1,2,2,1,,,,,1,8,24,0,0,7,7,1,,,,,,,,,2,1.0507304709899472,,,029,001,2019_May_14_1312,MusicAffectPsychophysiology2019,3.0.5,59.975380945015885,
To what extent did the music make you feel ,TENDER,30MonoWAV/30MonoF1.wav,1,2,2,1,,,,,1,8,24,0,0,8,8,10,,,,,,,,,1,0.8518805030034855,,,029,001,2019_May_14_1312,MusicAffectPsychophysiology2019,3.0.5,59.975380945015885,
To what extent did the music make you feel ,SCARED,30MonoWAV/30MonoF1.wav,1,2,2,1,,,,,1,8,24,0,0,9,9,11,,,,,,,,,2,1.1334372410055948,,,029,001,2019_May_14_1312,MusicAffectPsychophysiology2019,3.0.5,59.975380945015885,
To what extent did the music make you feel ,ALERT,30MonoWAV/30MonoF1.wav,1,2,2,1,,,,,1,8,24,0,0,10,10,8,,,,,,,,,3,1.2181547399959527,,,029,001,2019_May_14_1312,MusicAffectPsychophysiology2019,3.0.5,59.975380945015885,
To what extent did the music make you feel ,SAD,30MonoWAV/30MonoF1.wav,1,2,2,1,,,,,1,8,24,0,0,11,11,0,,,,,,,,,1,2.0181029719969956,,,029,001,2019_May_14_1312,MusicAffectPsychophysiology2019,3.0.5,59.975380945015885,
,,30MonoWAV/30MonoF1.wav,1,2,2,1,,,,,1,8,24,0,,,,,,,,,,,,,,,,,029,001,2019_May_14_1312,MusicAffectPsychophysiology2019,3.0.5,59.975380945015885,
To what extent did the music make you feel ,EXCITED,30MonoWAV/30MonoS1.wav,1,1,3,9,,,,,1,9,25,8,0,0,0,7,,,1,3.8689422749885125,2,3.251091361991712,3,1.834923942995374,1,1.8017078970005969,,,029,001,2019_May_14_1312,MusicAffectPsychophysiology2019,3.0.5,59.975380945015885,
To what extent did the music make you feel ,ALERT,30MonoWAV/30MonoS1.wav,1,1,3,9,,,,,1,9,25,8,0,1,1,8,,,,,,,,,2,3.152297727006953,,,029,001,2019_May_14_1312,MusicAffectPsychophysiology2019,3.0.5,59.975380945015885,
To what extent did the music make you feel ,ANXIOUS ,30MonoWAV/30MonoS1.wav,1,1,3,9,,,,,1,9,25,8,0,2,2,1,,,,,,,,,1,1.1523379110003589,,,029,001,2019_May_14_1312,MusicAffectPsychophysiology2019,3.0.5,59.975380945015885,
To what extent did the music make you feel ,TENDER,30MonoWAV/30MonoS1.wav,1,1,3,9,,,,,1,9,25,8,0,3,3,10,,,,,,,,,3,1.2512911399971927,,,029,001,2019_May_14_1312,MusicAffectPsychophysiology2019,3.0.5,59.975380945015885,
To what extent did the music make you feel ,GUILTY,30MonoWAV/30MonoS1.wav,1,1,3,9,,,,,1,9,25,8,0,4,4,5,,,,,,,,,1,1.5180895509984111,,,029,001,2019_May_14_1312,MusicAffectPsychophysiology2019,3.0.5,59.975380945015885,
To what extent did the music make you feel ,SCARED,30MonoWAV/30MonoS1.wav,1,1,3,9,,,,,1,9,25,8,0,5,5,11,,,,,,,,,1,1.0023973990028026,,,029,001,2019_May_14_1312,MusicAffectPsychophysiology2019,3.0.5,59.975380945015885,
To what extent did the music make you feel ,ANGRY,30MonoWAV/30MonoS1.wav,1,1,3,9,,,,,1,9,25,8,0,6,6,2,,,,,,,,,1,1.483538224012591,,,029,001,2019_May_14_1312,MusicAffectPsychophysiology2019,3.0.5,59.975380945015885,
To what extent did the music make you feel ,HAPPY,30MonoWAV/30MonoS1.wav,1,1,3,9,,,,,1,9,25,8,0,7,7,6,,,,,,,,,1,4.3522880020027515,,,029,001,2019_May_14_1312,MusicAffectPsychophysiology2019,3.0.5,59.975380945015885,
To what extent did the music make you feel ,ACTIVE,30MonoWAV/30MonoS1.wav,1,1,3,9,,,,,1,9,25,8,0,8,8,9,,,,,,,,,1,1.2519109200075036,,,029,001,2019_May_14_1312,MusicAffectPsychophysiology2019,3.0.5,59.975380945015885,
To what extent did the music make you feel ,FRUSTRATED,30MonoWAV/30MonoS1.wav,1,1,3,9,,,,,1,9,25,8,0,9,9,3,,,,,,,,,1,0.6851933590078261,,,029,001,2019_May_14_1312,MusicAffectPsychophysiology2019,3.0.5,59.975380945015885,
To what extent did the music make you feel ,ASHAMED,30MonoWAV/30MonoS1.wav,1,1,3,9,,,,,1,9,25,8,0,10,10,4,,,,,,,,,1,0.8015777529944899,,,029,001,2019_May_14_1312,MusicAffectPsychophysiology2019,3.0.5,59.975380945015885,
To what extent did the music make you feel ,SAD,30MonoWAV/30MonoS1.wav,1,1,3,9,,,,,1,9,25,8,0,11,11,0,,,,,,,,,2,4.051074673989206,,,029,001,2019_May_14_1312,MusicAffectPsychophysiology2019,3.0.5,59.975380945015885,
,,30MonoWAV/30MonoS1.wav,1,1,3,9,,,,,1,9,25,8,,,,,,,,,,,,,,,,,029,001,2019_May_14_1312,MusicAffectPsychophysiology2019,3.0.5,59.975380945015885,
To what extent did the music make you feel ,ASHAMED,30MonoWAV/30MonoF2.wav,1,2,2,2,,,,,1,10,26,1,0,0,0,4,,,3,4.368072186000063,1,1.8511907069914741,1,1.268632285995409,1,1.884558833000483,,,029,001,2019_May_14_1312,MusicAffectPsychophysiology2019,3.0.5,59.975380945015885,
To what extent did the music make you feel ,ACTIVE,30MonoWAV/30MonoF2.wav,1,2,2,2,,,,,1,10,26,1,0,1,1,9,,,,,,,,,2,1.9850718270026846,,,029,001,2019_May_14_1312,MusicAffectPsychophysiology2019,3.0.5,59.975380945015885,
To what extent did the music make you feel ,ANGRY,30MonoWAV/30MonoF2.wav,1,2,2,2,,,,,1,10,26,1,0,2,2,2,,,,,,,,,1,1.1164113430131692,,,029,001,2019_May_14_1312,MusicAffectPsychophysiology2019,3.0.5,59.975380945015885,
To what extent did the music make you feel ,GUILTY,30MonoWAV/30MonoF2.wav,1,2,2,2,,,,,1,10,26,1,0,3,3,5,,,,,,,,,1,0.8846627019956941,,,029,001,2019_May_14_1312,MusicAffectPsychophysiology2019,3.0.5,59.975380945015885,
To what extent did the music make you feel ,SAD,30MonoWAV/30MonoF2.wav,1,2,2,2,,,,,1,10,26,1,0,4,4,0,,,,,,,,,1,1.0012623530055862,,,029,001,2019_May_14_1312,MusicAffectPsychophysiology2019,3.0.5,59.975380945015885,
To what extent did the music make you feel ,SCARED,30MonoWAV/30MonoF2.wav,1,2,2,2,,,,,1,10,26,1,0,5,5,11,,,,,,,,,3,1.6530593520001275,,,029,001,2019_May_14_1312,MusicAffectPsychophysiology2019,3.0.5,59.975380945015885,
To what extent did the music make you feel ,TENDER,30MonoWAV/30MonoF2.wav,1,2,2,2,,,,,1,10,26,1,0,6,6,10,,,,,,,,,1,1.4011502679932164,,,029,001,2019_May_14_1312,MusicAffectPsychophysiology2019,3.0.5,59.975380945015885,
To what extent did the music make you feel ,ANXIOUS ,30MonoWAV/30MonoF2.wav,1,2,2,2,,,,,1,10,26,1,0,7,7,1,,,,,,,,,3,1.234406030998798,,,029,001,2019_May_14_1312,MusicAffectPsychophysiology2019,3.0.5,59.975380945015885,
To what extent did the music make you feel ,FRUSTRATED,30MonoWAV/30MonoF2.wav,1,2,2,2,,,,,1,10,26,1,0,8,8,3,,,,,,,,,1,0.8678325840010075,,,029,001,2019_May_14_1312,MusicAffectPsychophysiology2019,3.0.5,59.975380945015885,
To what extent did the music make you feel ,ALERT,30MonoWAV/30MonoF2.wav,1,2,2,2,,,,,1,10,26,1,0,9,9,8,,,,,,,,,3,1.3024640619987622,,,029,001,2019_May_14_1312,MusicAffectPsychophysiology2019,3.0.5,59.975380945015885,
To what extent did the music make you feel ,EXCITED,30MonoWAV/30MonoF2.wav,1,2,2,2,,,,,1,10,26,1,0,10,10,7,,,,,,,,,1,1.6691685559926555,,,029,001,2019_May_14_1312,MusicAffectPsychophysiology2019,3.0.5,59.975380945015885,
To what extent did the music make you feel ,HAPPY,30MonoWAV/30MonoF2.wav,1,2,2,2,,,,,1,10,26,1,0,11,11,6,,,,,,,,,1,0.7854323820065474,,,029,001,2019_May_14_1312,MusicAffectPsychophysiology2019,3.0.5,59.975380945015885,
,,30MonoWAV/30MonoF2.wav,1,2,2,2,,,,,1,10,26,1,,,,,,,,,,,,,,,,,029,001,2019_May_14_1312,MusicAffectPsychophysiology2019,3.0.5,59.975380945015885,
To what extent did the music make you feel ,HAPPY,30MonoWAV/30MonoH2.wav,2,2,1,6,,,,,1,11,27,5,0,0,0,6,,,4,5.36939416298992,4,2.5832077419909183,4,1.0674804209993454,4,2.084940604006988,,,029,001,2019_May_14_1312,MusicAffectPsychophysiology2019,3.0.5,59.975380945015885,
To what extent did the music make you feel ,SCARED,30MonoWAV/30MonoH2.wav,2,2,1,6,,,,,1,11,27,5,0,1,1,11,,,,,,,,,1,2.0177871709893225,,,029,001,2019_May_14_1312,MusicAffectPsychophysiology2019,3.0.5,59.975380945015885,
To what extent did the music make you feel ,FRUSTRATED,30MonoWAV/30MonoH2.wav,2,2,1,6,,,,,1,11,27,5,0,2,2,3,,,,,,,,,1,0.7850410520040896,,,029,001,2019_May_14_1312,MusicAffectPsychophysiology2019,3.0.5,59.975380945015885,
To what extent did the music make you feel ,SAD,30MonoWAV/30MonoH2.wav,2,2,1,6,,,,,1,11,27,5,0,3,3,0,,,,,,,,,1,0.7348224529996514,,,029,001,2019_May_14_1312,MusicAffectPsychophysiology2019,3.0.5,59.975380945015885,
To what extent did the music make you feel ,ANGRY,30MonoWAV/30MonoH2.wav,2,2,1,6,,,,,1,11,27,5,0,4,4,2,,,,,,,,,1,0.5692891680082539,,,029,001,2019_May_14_1312,MusicAffectPsychophysiology2019,3.0.5,59.975380945015885,
To what extent did the music make you feel ,ALERT,30MonoWAV/30MonoH2.wav,2,2,1,6,,,,,1,11,27,5,0,5,5,8,,,,,,,,,3,1.3508817900001304,,,029,001,2019_May_14_1312,MusicAffectPsychophysiology2019,3.0.5,59.975380945015885,
To what extent did the music make you feel ,ACTIVE,30MonoWAV/30MonoH2.wav,2,2,1,6,,,,,1,11,27,5,0,6,6,9,,,,,,,,,2,2.005944548000116,,,029,001,2019_May_14_1312,MusicAffectPsychophysiology2019,3.0.5,59.975380945015885,
To what extent did the music make you feel ,ANXIOUS ,30MonoWAV/30MonoH2.wav,2,2,1,6,,,,,1,11,27,5,0,7,7,1,,,,,,,,,1,0.7529032849997748,,,029,001,2019_May_14_1312,MusicAffectPsychophysiology2019,3.0.5,59.975380945015885,
To what extent did the music make you feel ,ASHAMED,30MonoWAV/30MonoH2.wav,2,2,1,6,,,,,1,11,27,5,0,8,8,4,,,,,,,,,1,0.6850724159885431,,,029,001,2019_May_14_1312,MusicAffectPsychophysiology2019,3.0.5,59.975380945015885,
To what extent did the music make you feel ,EXCITED,30MonoWAV/30MonoH2.wav,2,2,1,6,,,,,1,11,27,5,0,9,9,7,,,,,,,,,3,1.2857945379946614,,,029,001,2019_May_14_1312,MusicAffectPsychophysiology2019,3.0.5,59.975380945015885,
To what extent did the music make you feel ,TENDER,30MonoWAV/30MonoH2.wav,2,2,1,6,,,,,1,11,27,5,0,10,10,10,,,,,,,,,2,2.338296205998631,,,029,001,2019_May_14_1312,MusicAffectPsychophysiology2019,3.0.5,59.975380945015885,
To what extent did the music make you feel ,GUILTY,30MonoWAV/30MonoH2.wav,2,2,1,6,,,,,1,11,27,5,0,11,11,5,,,,,,,,,1,0.7859923089999938,,,029,001,2019_May_14_1312,MusicAffectPsychophysiology2019,3.0.5,59.975380945015885,
,,30MonoWAV/30MonoH2.wav,2,2,1,6,,,,,1,11,27,5,,,,,,,,,,,,,,,,,029,001,2019_May_14_1312,MusicAffectPsychophysiology2019,3.0.5,59.975380945015885,
To what extent did the music make you feel ,SCARED,30MonoWAV/30MonoT4.wav,2,1,4,16,,,,,1,12,28,15,0,0,0,11,,,3,3.635701926003094,3,1.1687487029994372,4,0.5184570910059847,1,1.3174692250031512,,,029,001,2019_May_14_1312,MusicAffectPsychophysiology2019,3.0.5,59.975380945015885,
To what extent did the music make you feel ,HAPPY,30MonoWAV/30MonoT4.wav,2,1,4,16,,,,,1,12,28,15,0,1,1,6,,,,,,,,,3,2.3855327280034544,,,029,001,2019_May_14_1312,MusicAffectPsychophysiology2019,3.0.5,59.975380945015885,
To what extent did the music make you feel ,EXCITED,30MonoWAV/30MonoT4.wav,2,1,4,16,,,,,1,12,28,15,0,2,2,7,,,,,,,,,2,1.386088182000094,,,029,001,2019_May_14_1312,MusicAffectPsychophysiology2019,3.0.5,59.975380945015885,
To what extent did the music make you feel ,TENDER,30MonoWAV/30MonoT4.wav,2,1,4,16,,,,,1,12,28,15,0,3,3,10,,,,,,,,,3,0.9849092210060917,,,029,001,2019_May_14_1312,MusicAffectPsychophysiology2019,3.0.5,59.975380945015885,
To what extent did the music make you feel ,ALERT,30MonoWAV/30MonoT4.wav,2,1,4,16,,,,,1,12,28,15,0,4,4,8,,,,,,,,,2,3.151525289998972,,,029,001,2019_May_14_1312,MusicAffectPsychophysiology2019,3.0.5,59.975380945015885,
To what extent did the music make you feel ,ANXIOUS ,30MonoWAV/30MonoT4.wav,2,1,4,16,,,,,1,12,28,15,0,5,5,1,,,,,,,,,1,0.9180428719992051,,,029,001,2019_May_14_1312,MusicAffectPsychophysiology2019,3.0.5,59.975380945015885,
To what extent did the music make you feel ,ANGRY,30MonoWAV/30MonoT4.wav,2,1,4,16,,,,,1,12,28,15,0,6,6,2,,,,,,,,,1,0.6679256470088148,,,029,001,2019_May_14_1312,MusicAffectPsychophysiology2019,3.0.5,59.975380945015885,
To what extent did the music make you feel ,ACTIVE,30MonoWAV/30MonoT4.wav,2,1,4,16,,,,,1,12,28,15,0,7,7,9,,,,,,,,,2,0.9683787440008018,,,029,001,2019_May_14_1312,MusicAffectPsychophysiology2019,3.0.5,59.975380945015885,
To what extent did the music make you feel ,GUILTY,30MonoWAV/30MonoT4.wav,2,1,4,16,,,,,1,12,28,15,0,8,8,5,,,,,,,,,1,0.8845048689981923,,,029,001,2019_May_14_1312,MusicAffectPsychophysiology2019,3.0.5,59.975380945015885,
To what extent did the music make you feel ,FRUSTRATED,30MonoWAV/30MonoT4.wav,2,1,4,16,,,,,1,12,28,15,0,9,9,3,,,,,,,,,1,0.7357435320009245,,,029,001,2019_May_14_1312,MusicAffectPsychophysiology2019,3.0.5,59.975380945015885,
To what extent did the music make you feel ,ASHAMED,30MonoWAV/30MonoT4.wav,2,1,4,16,,,,,1,12,28,15,0,10,10,4,,,,,,,,,1,0.7018875259964261,,,029,001,2019_May_14_1312,MusicAffectPsychophysiology2019,3.0.5,59.975380945015885,
To what extent did the music make you feel ,SAD,30MonoWAV/30MonoT4.wav,2,1,4,16,,,,,1,12,28,15,0,11,11,0,,,,,,,,,1,0.9015498969965847,,,029,001,2019_May_14_1312,MusicAffectPsychophysiology2019,3.0.5,59.975380945015885,
,,30MonoWAV/30MonoT4.wav,2,1,4,16,,,,,1,12,28,15,,,,,,,,,,,,,,,,,029,001,2019_May_14_1312,MusicAffectPsychophysiology2019,3.0.5,59.975380945015885,
To what extent did the music make you feel ,SCARED,30MonoWAV/30MonoH4.wav,2,2,1,8,,,,,1,13,29,7,0,0,0,11,,,4,3.7393704319983954,4,2.0685137510008644,3,0.6861840229976224,1,1.6686533719912404,,,029,001,2019_May_14_1312,MusicAffectPsychophysiology2019,3.0.5,59.975380945015885,
To what extent did the music make you feel ,ALERT,30MonoWAV/30MonoH4.wav,2,2,1,8,,,,,1,13,29,7,0,1,1,8,,,,,,,,,3,1.4525753239868209,,,029,001,2019_May_14_1312,MusicAffectPsychophysiology2019,3.0.5,59.975380945015885,
To what extent did the music make you feel ,ANGRY,30MonoWAV/30MonoH4.wav,2,2,1,8,,,,,1,13,29,7,0,2,2,2,,,,,,,,,1,0.7681086499942467,,,029,001,2019_May_14_1312,MusicAffectPsychophysiology2019,3.0.5,59.975380945015885,
To what extent did the music make you feel ,FRUSTRATED,30MonoWAV/30MonoH4.wav,2,2,1,8,,,,,1,13,29,7,0,3,3,3,,,,,,,,,1,0.7680369349982357,,,029,001,2019_May_14_1312,MusicAffectPsychophysiology2019,3.0.5,59.975380945015885,
To what extent did the music make you feel ,ANXIOUS ,30MonoWAV/30MonoH4.wav,2,2,1,8,,,,,1,13,29,7,0,4,4,1,,,,,,,,,1,1.2525421070022276,,,029,001,2019_May_14_1312,MusicAffectPsychophysiology2019,3.0.5,59.975380945015885,
To what extent did the music make you feel ,TENDER,30MonoWAV/30MonoH4.wav,2,2,1,8,,,,,1,13,29,7,0,5,5,10,,,,,,,,,1,1.2177106589952018,,,029,001,2019_May_14_1312,MusicAffectPsychophysiology2019,3.0.5,59.975380945015885,
To what extent did the music make you feel ,ACTIVE,30MonoWAV/30MonoH4.wav,2,2,1,8,,,,,1,13,29,7,0,6,6,9,,,,,,,,,3,1.2192615069943713,,,029,001,2019_May_14_1312,MusicAffectPsychophysiology2019,3.0.5,59.975380945015885,
To what extent did the music make you feel ,GUILTY,30MonoWAV/30MonoH4.wav,2,2,1,8,,,,,1,13,29,7,0,7,7,5,,,,,,,,,1,1.2505781930085504,,,029,001,2019_May_14_1312,MusicAffectPsychophysiology2019,3.0.5,59.975380945015885,
To what extent did the music make you feel ,ASHAMED,30MonoWAV/30MonoH4.wav,2,2,1,8,,,,,1,13,29,7,0,8,8,4,,,,,,,,,1,0.5691221129964106,,,029,001,2019_May_14_1312,MusicAffectPsychophysiology2019,3.0.5,59.975380945015885,
To what extent did the music make you feel ,HAPPY,30MonoWAV/30MonoH4.wav,2,2,1,8,,,,,1,13,29,7,0,9,9,6,,,,,,,,,3,1.2357644400035497,,,029,001,2019_May_14_1312,MusicAffectPsychophysiology2019,3.0.5,59.975380945015885,
To what extent did the music make you feel ,SAD,30MonoWAV/30MonoH4.wav,2,2,1,8,,,,,1,13,29,7,0,10,10,0,,,,,,,,,1,1.0517718199989758,,,029,001,2019_May_14_1312,MusicAffectPsychophysiology2019,3.0.5,59.975380945015885,
To what extent did the music make you feel ,EXCITED,30MonoWAV/30MonoH4.wav,2,2,1,8,,,,,1,13,29,7,0,11,11,7,,,,,,,,,3,1.1501033870008541,,,029,001,2019_May_14_1312,MusicAffectPsychophysiology2019,3.0.5,59.975380945015885,
,,30MonoWAV/30MonoH4.wav,2,2,1,8,,,,,1,13,29,7,,,,,,,,,,,,,,,,,029,001,2019_May_14_1312,MusicAffectPsychophysiology2019,3.0.5,59.975380945015885,
To what extent did the music make you feel ,SCARED,30MonoWAV/30MonoS4.wav,1,1,3,12,,,,,1,14,30,11,0,0,0,11,,,1,3.292059999992489,1,1.119261641986668,3,0.918180733002373,1,1.4680733260029228,,,029,001,2019_May_14_1312,MusicAffectPsychophysiology2019,3.0.5,59.975380945015885,
To what extent did the music make you feel ,ACTIVE,30MonoWAV/30MonoS4.wav,1,1,3,12,,,,,1,14,30,11,0,1,1,9,,,,,,,,,1,2.2027151040092576,,,029,001,2019_May_14_1312,MusicAffectPsychophysiology2019,3.0.5,59.975380945015885,
To what extent did the music make you feel ,ASHAMED,30MonoWAV/30MonoS4.wav,1,1,3,12,,,,,1,14,30,11,0,2,2,4,,,,,,,,,1,0.8684190110070631,,,029,001,2019_May_14_1312,MusicAffectPsychophysiology2019,3.0.5,59.975380945015885,
To what extent did the music make you feel ,TENDER,30MonoWAV/30MonoS4.wav,1,1,3,12,,,,,1,14,30,11,0,3,3,10,,,,,,,,,3,1.1664054099965142,,,029,001,2019_May_14_1312,MusicAffectPsychophysiology2019,3.0.5,59.975380945015885,
To what extent did the music make you feel ,ANGRY,30MonoWAV/30MonoS4.wav,1,1,3,12,,,,,1,14,30,11,0,4,4,2,,,,,,,,,1,0.7017096610070439,,,029,001,2019_May_14_1312,MusicAffectPsychophysiology2019,3.0.5,59.975380945015885,
To what extent did the music make you feel ,SAD,30MonoWAV/30MonoS4.wav,1,1,3,12,,,,,1,14,30,11,0,5,5,0,,,,,,,,,3,1.1854799709981307,,,029,001,2019_May_14_1312,MusicAffectPsychophysiology2019,3.0.5,59.975380945015885,
To what extent did the music make you feel ,FRUSTRATED,30MonoWAV/30MonoS4.wav,1,1,3,12,,,,,1,14,30,11,0,6,6,3,,,,,,,,,1,0.9519700009986991,,,029,001,2019_May_14_1312,MusicAffectPsychophysiology2019,3.0.5,59.975380945015885,
To what extent did the music make you feel ,ANXIOUS ,30MonoWAV/30MonoS4.wav,1,1,3,12,,,,,1,14,30,11,0,7,7,1,,,,,,,,,1,1.1679470040107844,,,029,001,2019_May_14_1312,MusicAffectPsychophysiology2019,3.0.5,59.975380945015885,
To what extent did the music make you feel ,HAPPY,30MonoWAV/30MonoS4.wav,1,1,3,12,,,,,1,14,30,11,0,8,8,6,,,,,,,,,1,1.8853359639906557,,,029,001,2019_May_14_1312,MusicAffectPsychophysiology2019,3.0.5,59.975380945015885,
To what extent did the music make you feel ,EXCITED,30MonoWAV/30MonoS4.wav,1,1,3,12,,,,,1,14,30,11,0,9,9,7,,,,,,,,,1,0.9018975509970915,,,029,001,2019_May_14_1312,MusicAffectPsychophysiology2019,3.0.5,59.975380945015885,
To what extent did the music make you feel ,GUILTY,30MonoWAV/30MonoS4.wav,1,1,3,12,,,,,1,14,30,11,0,10,10,5,,,,,,,,,1,0.9515396189963212,,,029,001,2019_May_14_1312,MusicAffectPsychophysiology2019,3.0.5,59.975380945015885,
To what extent did the music make you feel ,ALERT,30MonoWAV/30MonoS4.wav,1,1,3,12,,,,,1,14,30,11,0,11,11,8,,,,,,,,,1,1.0516773209965322,,,029,001,2019_May_14_1312,MusicAffectPsychophysiology2019,3.0.5,59.975380945015885,
,,30MonoWAV/30MonoS4.wav,1,1,3,12,,,,,1,14,30,11,,,,,,,,,,,,,,,,,029,001,2019_May_14_1312,MusicAffectPsychophysiology2019,3.0.5,59.975380945015885,
To what extent did the music make you feel ,ALERT,30MonoWAV/30MonoT2.wav,2,1,4,14,,,,,1,15,31,13,0,0,0,8,,,3,4.13515521500085,3,1.13474726799177,3,0.884583910999936,2,2.7513155929918867,,,029,001,2019_May_14_1312,MusicAffectPsychophysiology2019,3.0.5,59.975380945015885,
To what extent did the music make you feel ,ANGRY,30MonoWAV/30MonoT2.wav,2,1,4,14,,,,,1,15,31,13,0,1,1,2,,,,,,,,,1,1.001952277001692,,,029,001,2019_May_14_1312,MusicAffectPsychophysiology2019,3.0.5,59.975380945015885,
To what extent did the music make you feel ,HAPPY,30MonoWAV/30MonoT2.wav,2,1,4,14,,,,,1,15,31,13,0,2,2,6,,,,,,,,,3,1.1178057259967318,,,029,001,2019_May_14_1312,MusicAffectPsychophysiology2019,3.0.5,59.975380945015885,
To what extent did the music make you feel ,EXCITED,30MonoWAV/30MonoT2.wav,2,1,4,14,,,,,1,15,31,13,0,3,3,7,,,,,,,,,1,2.668658324997523,,,029,001,2019_May_14_1312,MusicAffectPsychophysiology2019,3.0.5,59.975380945015885,
To what extent did the music make you feel ,ASHAMED,30MonoWAV/30MonoT2.wav,2,1,4,14,,,,,1,15,31,13,0,4,4,4,,,,,,,,,1,0.7185962039948208,,,029,001,2019_May_14_1312,MusicAffectPsychophysiology2019,3.0.5,59.975380945015885,
To what extent did the music make you feel ,SAD,30MonoWAV/30MonoT2.wav,2,1,4,14,,,,,1,15,31,13,0,5,5,0,,,,,,,,,1,0.8502651949966094,,,029,001,2019_May_14_1312,MusicAffectPsychophysiology2019,3.0.5,59.975380945015885,
To what extent did the music make you feel ,ACTIVE,30MonoWAV/30MonoT2.wav,2,1,4,14,,,,,1,15,31,13,0,6,6,9,,,,,,,,,2,3.58494791398698,,,029,001,2019_May_14_1312,MusicAffectPsychophysiology2019,3.0.5,59.975380945015885,
To what extent did the music make you feel ,TENDER,30MonoWAV/30MonoT2.wav,2,1,4,14,,,,,1,15,31,13,0,7,7,10,,,,,,,,,3,1.135421059007058,,,029,001,2019_May_14_1312,MusicAffectPsychophysiology2019,3.0.5,59.975380945015885,
To what extent did the music make you feel ,ANXIOUS ,30MonoWAV/30MonoT2.wav,2,1,4,14,,,,,1,15,31,13,0,8,8,1,,,,,,,,,1,2.116860567999538,,,029,001,2019_May_14_1312,MusicAffectPsychophysiology2019,3.0.5,59.975380945015885,
To what extent did the music make you feel ,SCARED,30MonoWAV/30MonoT2.wav,2,1,4,14,,,,,1,15,31,13,0,9,9,11,,,,,,,,,1,0.5356785789917922,,,029,001,2019_May_14_1312,MusicAffectPsychophysiology2019,3.0.5,59.975380945015885,
To what extent did the music make you feel ,GUILTY,30MonoWAV/30MonoT2.wav,2,1,4,14,,,,,1,15,31,13,0,10,10,5,,,,,,,,,1,0.6014800260018092,,,029,001,2019_May_14_1312,MusicAffectPsychophysiology2019,3.0.5,59.975380945015885,
To what extent did the music make you feel ,FRUSTRATED,30MonoWAV/30MonoT2.wav,2,1,4,14,,,,,1,15,31,13,0,11,11,3,,,,,,,,,1,0.5181969690020196,,,029,001,2019_May_14_1312,MusicAffectPsychophysiology2019,3.0.5,59.975380945015885,
,,30MonoWAV/30MonoT2.wav,2,1,4,14,,,,,1,15,31,13,,,,,,,,,,,,,,,,,029,001,2019_May_14_1312,MusicAffectPsychophysiology2019,3.0.5,59.975380945015885,
,,,,,,,,,,,,,,,,,,,,,,,,,,,,,space,4.934800089991768,029,001,2019_May_14_1312,MusicAffectPsychophysiology2019,3.0.5,59.975380945015885,
