Instruction,Word,song,valence,arousal,affectcat,songmark,pracwords.thisRepN,pracwords.thisTrialN,pracwords.thisN,pracwords.thisIndex,songtrials.thisRepN,songtrials.thisTrialN,songtrials.thisN,songtrials.thisIndex,words.thisRepN,words.thisTrialN,words.thisN,words.thisIndex,begin.keys,begin.rt,arousalkey.keys,arousalkey.rt,valencekey.keys,valencekey.rt,likekey.keys,likekey.rt,WordResponse.keys,WordResponse.rt,key_resp_2.keys,key_resp_2.rt,participant,session,date,expName,psychopyVersion,frameRate,
,,,,,,,,,,,,,,,,,,,space,23.734521671998664,,,,,,,,,,,030,001,2019_May_14_1410,MusicAffectPsychophysiology2019,3.0.5,59.82184086699928,
,,,,,,,,,,,,,,,,,,,,,3,6.9279381959931925,,,,,,,,,030,001,2019_May_14_1410,MusicAffectPsychophysiology2019,3.0.5,59.82184086699928,
,,,,,,,,,,,,,,,,,,,,,,,4,3.3255778699967777,,,,,,,030,001,2019_May_14_1410,MusicAffectPsychophysiology2019,3.0.5,59.82184086699928,
,,,,,,,,,,,,,,,,,,,,,,,,,4,3.6678997869894374,,,,,030,001,2019_May_14_1410,MusicAffectPsychophysiology2019,3.0.5,59.82184086699928,
To what extent did the music make you feel ,ASHAMED,,,,,,0,0,0,4,,,,,,,,,,,,,,,,,1,5.167325230999268,,,030,001,2019_May_14_1410,MusicAffectPsychophysiology2019,3.0.5,59.82184086699928,
To what extent did the music make you feel ,FRUSTRATED,,,,,,0,1,1,3,,,,,,,,,,,,,,,,,1,2.1529374929959886,,,030,001,2019_May_14_1410,MusicAffectPsychophysiology2019,3.0.5,59.82184086699928,
To what extent did the music make you feel ,ANGRY,,,,,,0,2,2,2,,,,,,,,,,,,,,,,,1,0.9667148269945756,,,030,001,2019_May_14_1410,MusicAffectPsychophysiology2019,3.0.5,59.82184086699928,
To what extent did the music make you feel ,ALERT,,,,,,0,3,3,8,,,,,,,,,,,,,,,,,2,2.218044909997843,,,030,001,2019_May_14_1410,MusicAffectPsychophysiology2019,3.0.5,59.82184086699928,
To what extent did the music make you feel ,TENDER,,,,,,0,4,4,10,,,,,,,,,,,,,,,,,3,1.5181088389945216,,,030,001,2019_May_14_1410,MusicAffectPsychophysiology2019,3.0.5,59.82184086699928,
To what extent did the music make you feel ,SAD,,,,,,0,5,5,0,,,,,,,,,,,,,,,,,3,1.6510552280087722,,,030,001,2019_May_14_1410,MusicAffectPsychophysiology2019,3.0.5,59.82184086699928,
To what extent did the music make you feel ,HAPPY,,,,,,0,6,6,6,,,,,,,,,,,,,,,,,3,1.3003491390118143,,,030,001,2019_May_14_1410,MusicAffectPsychophysiology2019,3.0.5,59.82184086699928,
To what extent did the music make you feel ,EXCITED,,,,,,0,7,7,7,,,,,,,,,,,,,,,,,3,1.5686170599947218,,,030,001,2019_May_14_1410,MusicAffectPsychophysiology2019,3.0.5,59.82184086699928,
To what extent did the music make you feel ,ANXIOUS ,,,,,,0,8,8,1,,,,,,,,,,,,,,,,,1,2.1193875939934514,,,030,001,2019_May_14_1410,MusicAffectPsychophysiology2019,3.0.5,59.82184086699928,
To what extent did the music make you feel ,SCARED,,,,,,0,9,9,11,,,,,,,,,,,,,,,,,1,1.9344340320094489,,,030,001,2019_May_14_1410,MusicAffectPsychophysiology2019,3.0.5,59.82184086699928,
To what extent did the music make you feel ,ACTIVE,,,,,,0,10,10,9,,,,,,,,,,,,,,,,,3,2.2525398730067536,,,030,001,2019_May_14_1410,MusicAffectPsychophysiology2019,3.0.5,59.82184086699928,
To what extent did the music make you feel ,GUILTY,,,,,,0,11,11,5,,,,,,,,,,,,,,,,,1,1.8191648759966483,,,030,001,2019_May_14_1410,MusicAffectPsychophysiology2019,3.0.5,59.82184086699928,
To what extent did the music make you feel ,GUILTY,30MonoWAV/30MonoF3.wav,1,2,2,3,,,,,0,0,0,2,0,0,0,5,,,3,4.81798544000776,2,5.45125392000773,3,3.1517616269993596,1,4.186140101010096,,,030,001,2019_May_14_1410,MusicAffectPsychophysiology2019,3.0.5,59.82184086699928,
To what extent did the music make you feel ,ANXIOUS ,30MonoWAV/30MonoF3.wav,1,2,2,3,,,,,0,0,0,2,0,1,1,1,,,,,,,,,1,1.8674150879960507,,,030,001,2019_May_14_1410,MusicAffectPsychophysiology2019,3.0.5,59.82184086699928,
To what extent did the music make you feel ,ACTIVE,30MonoWAV/30MonoF3.wav,1,2,2,3,,,,,0,0,0,2,0,2,2,9,,,,,,,,,3,2.2181661399954464,,,030,001,2019_May_14_1410,MusicAffectPsychophysiology2019,3.0.5,59.82184086699928,
To what extent did the music make you feel ,EXCITED,30MonoWAV/30MonoF3.wav,1,2,2,3,,,,,0,0,0,2,0,3,3,7,,,,,,,,,2,1.3698463539913064,,,030,001,2019_May_14_1410,MusicAffectPsychophysiology2019,3.0.5,59.82184086699928,
To what extent did the music make you feel ,FRUSTRATED,30MonoWAV/30MonoF3.wav,1,2,2,3,,,,,0,0,0,2,0,4,4,3,,,,,,,,,1,2.1644741609925404,,,030,001,2019_May_14_1410,MusicAffectPsychophysiology2019,3.0.5,59.82184086699928,
To what extent did the music make you feel ,SCARED,30MonoWAV/30MonoF3.wav,1,2,2,3,,,,,0,0,0,2,0,5,5,11,,,,,,,,,2,2.3852103730023373,,,030,001,2019_May_14_1410,MusicAffectPsychophysiology2019,3.0.5,59.82184086699928,
To what extent did the music make you feel ,ANGRY,30MonoWAV/30MonoF3.wav,1,2,2,3,,,,,0,0,0,2,0,6,6,2,,,,,,,,,1,1.9676776370033622,,,030,001,2019_May_14_1410,MusicAffectPsychophysiology2019,3.0.5,59.82184086699928,
To what extent did the music make you feel ,ALERT,30MonoWAV/30MonoF3.wav,1,2,2,3,,,,,0,0,0,2,0,7,7,8,,,,,,,,,3,1.83556437700463,,,030,001,2019_May_14_1410,MusicAffectPsychophysiology2019,3.0.5,59.82184086699928,
To what extent did the music make you feel ,SAD,30MonoWAV/30MonoF3.wav,1,2,2,3,,,,,0,0,0,2,0,8,8,0,,,,,,,,,1,1.8517753320047632,,,030,001,2019_May_14_1410,MusicAffectPsychophysiology2019,3.0.5,59.82184086699928,
To what extent did the music make you feel ,TENDER,30MonoWAV/30MonoF3.wav,1,2,2,3,,,,,0,0,0,2,0,9,9,10,,,,,,,,,1,1.0019615229975898,,,030,001,2019_May_14_1410,MusicAffectPsychophysiology2019,3.0.5,59.82184086699928,
To what extent did the music make you feel ,HAPPY,30MonoWAV/30MonoF3.wav,1,2,2,3,,,,,0,0,0,2,0,10,10,6,,,,,,,,,2,3.085371234003105,,,030,001,2019_May_14_1410,MusicAffectPsychophysiology2019,3.0.5,59.82184086699928,
To what extent did the music make you feel ,ASHAMED,30MonoWAV/30MonoF3.wav,1,2,2,3,,,,,0,0,0,2,0,11,11,4,,,,,,,,,1,2.9173748410103144,,,030,001,2019_May_14_1410,MusicAffectPsychophysiology2019,3.0.5,59.82184086699928,
,,30MonoWAV/30MonoF3.wav,1,2,2,3,,,,,0,0,0,2,,,,,,,,,,,,,,,,,030,001,2019_May_14_1410,MusicAffectPsychophysiology2019,3.0.5,59.82184086699928,
To what extent did the music make you feel ,ANXIOUS ,30MonoWAV/30MonoT1.wav,2,1,4,13,,,,,0,1,1,12,0,0,0,1,,,2,5.533216858006199,2,2.1355483870138414,3,3.534976445007487,1,3.03490491300181,,,030,001,2019_May_14_1410,MusicAffectPsychophysiology2019,3.0.5,59.82184086699928,
To what extent did the music make you feel ,EXCITED,30MonoWAV/30MonoT1.wav,2,1,4,13,,,,,0,1,1,12,0,1,1,7,,,,,,,,,1,1.7521062139858259,,,030,001,2019_May_14_1410,MusicAffectPsychophysiology2019,3.0.5,59.82184086699928,
To what extent did the music make you feel ,GUILTY,30MonoWAV/30MonoT1.wav,2,1,4,13,,,,,0,1,1,12,0,2,2,5,,,,,,,,,2,1.3692780349956593,,,030,001,2019_May_14_1410,MusicAffectPsychophysiology2019,3.0.5,59.82184086699928,
To what extent did the music make you feel ,FRUSTRATED,30MonoWAV/30MonoT1.wav,2,1,4,13,,,,,0,1,1,12,0,3,3,3,,,,,,,,,1,2.005352859996492,,,030,001,2019_May_14_1410,MusicAffectPsychophysiology2019,3.0.5,59.82184086699928,
To what extent did the music make you feel ,SAD,30MonoWAV/30MonoT1.wav,2,1,4,13,,,,,0,1,1,12,0,4,4,0,,,,,,,,,3,1.5702736349921906,,,030,001,2019_May_14_1410,MusicAffectPsychophysiology2019,3.0.5,59.82184086699928,
To what extent did the music make you feel ,ALERT,30MonoWAV/30MonoT1.wav,2,1,4,13,,,,,0,1,1,12,0,5,5,8,,,,,,,,,2,1.436034145008307,,,030,001,2019_May_14_1410,MusicAffectPsychophysiology2019,3.0.5,59.82184086699928,
To what extent did the music make you feel ,TENDER,30MonoWAV/30MonoT1.wav,2,1,4,13,,,,,0,1,1,12,0,6,6,10,,,,,,,,,2,1.4706326309969882,,,030,001,2019_May_14_1410,MusicAffectPsychophysiology2019,3.0.5,59.82184086699928,
To what extent did the music make you feel ,ASHAMED,30MonoWAV/30MonoT1.wav,2,1,4,13,,,,,0,1,1,12,0,7,7,4,,,,,,,,,2,1.5369786429946544,,,030,001,2019_May_14_1410,MusicAffectPsychophysiology2019,3.0.5,59.82184086699928,
To what extent did the music make you feel ,SCARED,30MonoWAV/30MonoT1.wav,2,1,4,13,,,,,0,1,1,12,0,8,8,11,,,,,,,,,1,1.3738820279977517,,,030,001,2019_May_14_1410,MusicAffectPsychophysiology2019,3.0.5,59.82184086699928,
To what extent did the music make you feel ,ACTIVE,30MonoWAV/30MonoT1.wav,2,1,4,13,,,,,0,1,1,12,0,9,9,9,,,,,,,,,2,1.4498847539944109,,,030,001,2019_May_14_1410,MusicAffectPsychophysiology2019,3.0.5,59.82184086699928,
To what extent did the music make you feel ,ANGRY,30MonoWAV/30MonoT1.wav,2,1,4,13,,,,,0,1,1,12,0,10,10,2,,,,,,,,,1,1.6207170709967613,,,030,001,2019_May_14_1410,MusicAffectPsychophysiology2019,3.0.5,59.82184086699928,
To what extent did the music make you feel ,HAPPY,30MonoWAV/30MonoT1.wav,2,1,4,13,,,,,0,1,1,12,0,11,11,6,,,,,,,,,1,1.6845594640035415,,,030,001,2019_May_14_1410,MusicAffectPsychophysiology2019,3.0.5,59.82184086699928,
,,30MonoWAV/30MonoT1.wav,2,1,4,13,,,,,0,1,1,12,,,,,,,,,,,,,,,,,030,001,2019_May_14_1410,MusicAffectPsychophysiology2019,3.0.5,59.82184086699928,
To what extent did the music make you feel ,ASHAMED,30MonoWAV/30MonoT2.wav,2,1,4,14,,,,,0,2,2,13,0,0,0,4,,,4,4.66046768000524,4,1.2855786439904477,4,2.2344146800023736,1,2.9355611430073623,,,030,001,2019_May_14_1410,MusicAffectPsychophysiology2019,3.0.5,59.82184086699928,
To what extent did the music make you feel ,TENDER,30MonoWAV/30MonoT2.wav,2,1,4,14,,,,,0,2,2,13,0,1,1,10,,,,,,,,,2,1.967796583994641,,,030,001,2019_May_14_1410,MusicAffectPsychophysiology2019,3.0.5,59.82184086699928,
To what extent did the music make you feel ,SAD,30MonoWAV/30MonoT2.wav,2,1,4,14,,,,,0,2,2,13,0,2,2,0,,,,,,,,,2,1.502173421002226,,,030,001,2019_May_14_1410,MusicAffectPsychophysiology2019,3.0.5,59.82184086699928,
To what extent did the music make you feel ,ALERT,30MonoWAV/30MonoT2.wav,2,1,4,14,,,,,0,2,2,13,0,3,3,8,,,,,,,,,3,1.4677996340033133,,,030,001,2019_May_14_1410,MusicAffectPsychophysiology2019,3.0.5,59.82184086699928,
To what extent did the music make you feel ,ANXIOUS ,30MonoWAV/30MonoT2.wav,2,1,4,14,,,,,0,2,2,13,0,4,4,1,,,,,,,,,2,3.135264315002132,,,030,001,2019_May_14_1410,MusicAffectPsychophysiology2019,3.0.5,59.82184086699928,
To what extent did the music make you feel ,HAPPY,30MonoWAV/30MonoT2.wav,2,1,4,14,,,,,0,2,2,13,0,5,5,6,,,,,,,,,4,1.418592746995273,,,030,001,2019_May_14_1410,MusicAffectPsychophysiology2019,3.0.5,59.82184086699928,
To what extent did the music make you feel ,EXCITED,30MonoWAV/30MonoT2.wav,2,1,4,14,,,,,0,2,2,13,0,6,6,7,,,,,,,,,4,1.41919451400463,,,030,001,2019_May_14_1410,MusicAffectPsychophysiology2019,3.0.5,59.82184086699928,
To what extent did the music make you feel ,FRUSTRATED,30MonoWAV/30MonoT2.wav,2,1,4,14,,,,,0,2,2,13,0,7,7,3,,,,,,,,,1,1.870256148991757,,,030,001,2019_May_14_1410,MusicAffectPsychophysiology2019,3.0.5,59.82184086699928,
To what extent did the music make you feel ,SCARED,30MonoWAV/30MonoT2.wav,2,1,4,14,,,,,0,2,2,13,0,8,8,11,,,,,,,,,1,1.034999264011276,,,030,001,2019_May_14_1410,MusicAffectPsychophysiology2019,3.0.5,59.82184086699928,
To what extent did the music make you feel ,ACTIVE,30MonoWAV/30MonoT2.wav,2,1,4,14,,,,,0,2,2,13,0,9,9,9,,,,,,,,,3,1.317734718992142,,,030,001,2019_May_14_1410,MusicAffectPsychophysiology2019,3.0.5,59.82184086699928,
To what extent did the music make you feel ,GUILTY,30MonoWAV/30MonoT2.wav,2,1,4,14,,,,,0,2,2,13,0,10,10,5,,,,,,,,,2,1.3186430859932443,,,030,001,2019_May_14_1410,MusicAffectPsychophysiology2019,3.0.5,59.82184086699928,
To what extent did the music make you feel ,ANGRY,30MonoWAV/30MonoT2.wav,2,1,4,14,,,,,0,2,2,13,0,11,11,2,,,,,,,,,1,1.8828303460031748,,,030,001,2019_May_14_1410,MusicAffectPsychophysiology2019,3.0.5,59.82184086699928,
,,30MonoWAV/30MonoT2.wav,2,1,4,14,,,,,0,2,2,13,,,,,,,,,,,,,,,,,030,001,2019_May_14_1410,MusicAffectPsychophysiology2019,3.0.5,59.82184086699928,
To what extent did the music make you feel ,ANGRY,30MonoWAV/30MonoS1.wav,1,1,3,9,,,,,0,3,3,8,0,0,0,2,,,2,9.401450623001438,1,2.319300415998441,3,4.301867169007892,1,2.634417156004929,,,030,001,2019_May_14_1410,MusicAffectPsychophysiology2019,3.0.5,59.82184086699928,
To what extent did the music make you feel ,ANXIOUS ,30MonoWAV/30MonoS1.wav,1,1,3,9,,,,,0,3,3,8,0,1,1,1,,,,,,,,,2,1.2184803190029925,,,030,001,2019_May_14_1410,MusicAffectPsychophysiology2019,3.0.5,59.82184086699928,
To what extent did the music make you feel ,HAPPY,30MonoWAV/30MonoS1.wav,1,1,3,9,,,,,0,3,3,8,0,2,2,6,,,,,,,,,1,1.9347363839915488,,,030,001,2019_May_14_1410,MusicAffectPsychophysiology2019,3.0.5,59.82184086699928,
To what extent did the music make you feel ,ALERT,30MonoWAV/30MonoS1.wav,1,1,3,9,,,,,0,3,3,8,0,3,3,8,,,,,,,,,3,1.45040888900985,,,030,001,2019_May_14_1410,MusicAffectPsychophysiology2019,3.0.5,59.82184086699928,
To what extent did the music make you feel ,EXCITED,30MonoWAV/30MonoS1.wav,1,1,3,9,,,,,0,3,3,8,0,4,4,7,,,,,,,,,1,1.2853668360039592,,,030,001,2019_May_14_1410,MusicAffectPsychophysiology2019,3.0.5,59.82184086699928,
To what extent did the music make you feel ,ACTIVE,30MonoWAV/30MonoS1.wav,1,1,3,9,,,,,0,3,3,8,0,5,5,9,,,,,,,,,2,1.4519741929980228,,,030,001,2019_May_14_1410,MusicAffectPsychophysiology2019,3.0.5,59.82184086699928,
To what extent did the music make you feel ,ASHAMED,30MonoWAV/30MonoS1.wav,1,1,3,9,,,,,0,3,3,8,0,6,6,4,,,,,,,,,2,2.067142336993129,,,030,001,2019_May_14_1410,MusicAffectPsychophysiology2019,3.0.5,59.82184086699928,
To what extent did the music make you feel ,GUILTY,30MonoWAV/30MonoS1.wav,1,1,3,9,,,,,0,3,3,8,0,7,7,5,,,,,,,,,2,1.4696559400035767,,,030,001,2019_May_14_1410,MusicAffectPsychophysiology2019,3.0.5,59.82184086699928,
To what extent did the music make you feel ,FRUSTRATED,30MonoWAV/30MonoS1.wav,1,1,3,9,,,,,0,3,3,8,0,8,8,3,,,,,,,,,1,1.4354713619977701,,,030,001,2019_May_14_1410,MusicAffectPsychophysiology2019,3.0.5,59.82184086699928,
To what extent did the music make you feel ,TENDER,30MonoWAV/30MonoS1.wav,1,1,3,9,,,,,0,3,3,8,0,9,9,10,,,,,,,,,2,1.568365276005352,,,030,001,2019_May_14_1410,MusicAffectPsychophysiology2019,3.0.5,59.82184086699928,
To what extent did the music make you feel ,SCARED,30MonoWAV/30MonoS1.wav,1,1,3,9,,,,,0,3,3,8,0,10,10,11,,,,,,,,,2,1.4179904729971895,,,030,001,2019_May_14_1410,MusicAffectPsychophysiology2019,3.0.5,59.82184086699928,
To what extent did the music make you feel ,SAD,30MonoWAV/30MonoS1.wav,1,1,3,9,,,,,0,3,3,8,0,11,11,0,,,,,,,,,3,1.2182293689984363,,,030,001,2019_May_14_1410,MusicAffectPsychophysiology2019,3.0.5,59.82184086699928,
,,30MonoWAV/30MonoS1.wav,1,1,3,9,,,,,0,3,3,8,,,,,,,,,,,,,,,,,030,001,2019_May_14_1410,MusicAffectPsychophysiology2019,3.0.5,59.82184086699928,
To what extent did the music make you feel ,ANGRY,30MonoWAV/30MonoF1.wav,1,2,2,1,,,,,0,4,4,0,0,0,0,2,,,5,7.316251180003746,4,1.5019662189879455,2,2.2010128880065167,1,2.7183930600003805,,,030,001,2019_May_14_1410,MusicAffectPsychophysiology2019,3.0.5,59.82184086699928,
To what extent did the music make you feel ,ACTIVE,30MonoWAV/30MonoF1.wav,1,2,2,1,,,,,0,4,4,0,0,1,1,9,,,,,,,,,4,1.8521547089912929,,,030,001,2019_May_14_1410,MusicAffectPsychophysiology2019,3.0.5,59.82184086699928,
To what extent did the music make you feel ,SCARED,30MonoWAV/30MonoF1.wav,1,2,2,1,,,,,0,4,4,0,0,2,2,11,,,,,,,,,3,1.8180662249942543,,,030,001,2019_May_14_1410,MusicAffectPsychophysiology2019,3.0.5,59.82184086699928,
To what extent did the music make you feel ,ASHAMED,30MonoWAV/30MonoF1.wav,1,2,2,1,,,,,0,4,4,0,0,3,3,4,,,,,,,,,1,1.6860794460080797,,,030,001,2019_May_14_1410,MusicAffectPsychophysiology2019,3.0.5,59.82184086699928,
To what extent did the music make you feel ,SAD,30MonoWAV/30MonoF1.wav,1,2,2,1,,,,,0,4,4,0,0,4,4,0,,,,,,,,,1,1.3855282229924342,,,030,001,2019_May_14_1410,MusicAffectPsychophysiology2019,3.0.5,59.82184086699928,
To what extent did the music make you feel ,FRUSTRATED,30MonoWAV/30MonoF1.wav,1,2,2,1,,,,,0,4,4,0,0,5,5,3,,,,,,,,,2,2.08434915599355,,,030,001,2019_May_14_1410,MusicAffectPsychophysiology2019,3.0.5,59.82184086699928,
To what extent did the music make you feel ,TENDER,30MonoWAV/30MonoF1.wav,1,2,2,1,,,,,0,4,4,0,0,6,6,10,,,,,,,,,1,1.6504416069947183,,,030,001,2019_May_14_1410,MusicAffectPsychophysiology2019,3.0.5,59.82184086699928,
To what extent did the music make you feel ,ANXIOUS ,30MonoWAV/30MonoF1.wav,1,2,2,1,,,,,0,4,4,0,0,7,7,1,,,,,,,,,2,4.833837474012398,,,030,001,2019_May_14_1410,MusicAffectPsychophysiology2019,3.0.5,59.82184086699928,
To what extent did the music make you feel ,HAPPY,30MonoWAV/30MonoF1.wav,1,2,2,1,,,,,0,4,4,0,0,8,8,6,,,,,,,,,2,1.9498025940119987,,,030,001,2019_May_14_1410,MusicAffectPsychophysiology2019,3.0.5,59.82184086699928,
To what extent did the music make you feel ,ALERT,30MonoWAV/30MonoF1.wav,1,2,2,1,,,,,0,4,4,0,0,9,9,8,,,,,,,,,4,1.802606969999033,,,030,001,2019_May_14_1410,MusicAffectPsychophysiology2019,3.0.5,59.82184086699928,
To what extent did the music make you feel ,EXCITED,30MonoWAV/30MonoF1.wav,1,2,2,1,,,,,0,4,4,0,0,10,10,7,,,,,,,,,4,2.1011012050003046,,,030,001,2019_May_14_1410,MusicAffectPsychophysiology2019,3.0.5,59.82184086699928,
To what extent did the music make you feel ,GUILTY,30MonoWAV/30MonoF1.wav,1,2,2,1,,,,,0,4,4,0,0,11,11,5,,,,,,,,,1,1.6692158000078052,,,030,001,2019_May_14_1410,MusicAffectPsychophysiology2019,3.0.5,59.82184086699928,
,,30MonoWAV/30MonoF1.wav,1,2,2,1,,,,,0,4,4,0,,,,,,,,,,,,,,,,,030,001,2019_May_14_1410,MusicAffectPsychophysiology2019,3.0.5,59.82184086699928,
To what extent did the music make you feel ,SCARED,30MonoWAV/30MonoT3.wav,2,1,4,15,,,,,0,5,5,14,0,0,0,11,,,2,4.655364521997399,3,1.1185221070045372,2,1.8514584530057618,2,2.4022910509957,,,030,001,2019_May_14_1410,MusicAffectPsychophysiology2019,3.0.5,59.82184086699928,
To what extent did the music make you feel ,ALERT,30MonoWAV/30MonoT3.wav,2,1,4,15,,,,,0,5,5,14,0,1,1,8,,,,,,,,,2,2.00102271400101,,,030,001,2019_May_14_1410,MusicAffectPsychophysiology2019,3.0.5,59.82184086699928,
To what extent did the music make you feel ,ACTIVE,30MonoWAV/30MonoT3.wav,2,1,4,15,,,,,0,5,5,14,0,2,2,9,,,,,,,,,1,1.5859261680016061,,,030,001,2019_May_14_1410,MusicAffectPsychophysiology2019,3.0.5,59.82184086699928,
To what extent did the music make you feel ,FRUSTRATED,30MonoWAV/30MonoT3.wav,2,1,4,15,,,,,0,5,5,14,0,3,3,3,,,,,,,,,1,1.5847359000035794,,,030,001,2019_May_14_1410,MusicAffectPsychophysiology2019,3.0.5,59.82184086699928,
To what extent did the music make you feel ,GUILTY,30MonoWAV/30MonoT3.wav,2,1,4,15,,,,,0,5,5,14,0,4,4,5,,,,,,,,,1,0.8004010220029159,,,030,001,2019_May_14_1410,MusicAffectPsychophysiology2019,3.0.5,59.82184086699928,
To what extent did the music make you feel ,ASHAMED,30MonoWAV/30MonoT3.wav,2,1,4,15,,,,,0,5,5,14,0,5,5,4,,,,,,,,,2,1.5360353580035735,,,030,001,2019_May_14_1410,MusicAffectPsychophysiology2019,3.0.5,59.82184086699928,
To what extent did the music make you feel ,ANGRY,30MonoWAV/30MonoT3.wav,2,1,4,15,,,,,0,5,5,14,0,6,6,2,,,,,,,,,1,0.9197654460003832,,,030,001,2019_May_14_1410,MusicAffectPsychophysiology2019,3.0.5,59.82184086699928,
To what extent did the music make you feel ,SAD,30MonoWAV/30MonoT3.wav,2,1,4,15,,,,,0,5,5,14,0,7,7,0,,,,,,,,,3,1.4020021250034915,,,030,001,2019_May_14_1410,MusicAffectPsychophysiology2019,3.0.5,59.82184086699928,
To what extent did the music make you feel ,HAPPY,30MonoWAV/30MonoT3.wav,2,1,4,15,,,,,0,5,5,14,0,8,8,6,,,,,,,,,1,2.018177778008976,,,030,001,2019_May_14_1410,MusicAffectPsychophysiology2019,3.0.5,59.82184086699928,
To what extent did the music make you feel ,EXCITED,30MonoWAV/30MonoT3.wav,2,1,4,15,,,,,0,5,5,14,0,9,9,7,,,,,,,,,1,1.0837218739907257,,,030,001,2019_May_14_1410,MusicAffectPsychophysiology2019,3.0.5,59.82184086699928,
To what extent did the music make you feel ,ANXIOUS ,30MonoWAV/30MonoT3.wav,2,1,4,15,,,,,0,5,5,14,0,10,10,1,,,,,,,,,1,1.8860358910023933,,,030,001,2019_May_14_1410,MusicAffectPsychophysiology2019,3.0.5,59.82184086699928,
To what extent did the music make you feel ,TENDER,30MonoWAV/30MonoT3.wav,2,1,4,15,,,,,0,5,5,14,0,11,11,10,,,,,,,,,2,2.4339532900048653,,,030,001,2019_May_14_1410,MusicAffectPsychophysiology2019,3.0.5,59.82184086699928,
,,30MonoWAV/30MonoT3.wav,2,1,4,15,,,,,0,5,5,14,,,,,,,,,,,,,,,,,030,001,2019_May_14_1410,MusicAffectPsychophysiology2019,3.0.5,59.82184086699928,
To what extent did the music make you feel ,ALERT,30MonoWAV/30MonoH1.wav,2,2,1,5,,,,,0,6,6,4,0,0,0,8,,,4,3.884687229001429,4,2.9515493210055865,2,1.9183057820046088,4,3.6062899520038627,,,030,001,2019_May_14_1410,MusicAffectPsychophysiology2019,3.0.5,59.82184086699928,
To what extent did the music make you feel ,ANXIOUS ,30MonoWAV/30MonoH1.wav,2,2,1,5,,,,,0,6,6,4,0,1,1,1,,,,,,,,,1,1.2852613209979609,,,030,001,2019_May_14_1410,MusicAffectPsychophysiology2019,3.0.5,59.82184086699928,
To what extent did the music make you feel ,TENDER,30MonoWAV/30MonoH1.wav,2,2,1,5,,,,,0,6,6,4,0,2,2,10,,,,,,,,,2,1.55203830699611,,,030,001,2019_May_14_1410,MusicAffectPsychophysiology2019,3.0.5,59.82184086699928,
To what extent did the music make you feel ,ASHAMED,30MonoWAV/30MonoH1.wav,2,2,1,5,,,,,0,6,6,4,0,3,3,4,,,,,,,,,1,1.6519092829985311,,,030,001,2019_May_14_1410,MusicAffectPsychophysiology2019,3.0.5,59.82184086699928,
To what extent did the music make you feel ,FRUSTRATED,30MonoWAV/30MonoH1.wav,2,2,1,5,,,,,0,6,6,4,0,4,4,3,,,,,,,,,1,1.0680960320023587,,,030,001,2019_May_14_1410,MusicAffectPsychophysiology2019,3.0.5,59.82184086699928,
To what extent did the music make you feel ,ACTIVE,30MonoWAV/30MonoH1.wav,2,2,1,5,,,,,0,6,6,4,0,5,5,9,,,,,,,,,4,2.08469203900313,,,030,001,2019_May_14_1410,MusicAffectPsychophysiology2019,3.0.5,59.82184086699928,
To what extent did the music make you feel ,GUILTY,30MonoWAV/30MonoH1.wav,2,2,1,5,,,,,0,6,6,4,0,6,6,5,,,,,,,,,1,1.4182428700005403,,,030,001,2019_May_14_1410,MusicAffectPsychophysiology2019,3.0.5,59.82184086699928,
To what extent did the music make you feel ,SCARED,30MonoWAV/30MonoH1.wav,2,2,1,5,,,,,0,6,6,4,0,7,7,11,,,,,,,,,1,1.167854327999521,,,030,001,2019_May_14_1410,MusicAffectPsychophysiology2019,3.0.5,59.82184086699928,
To what extent did the music make you feel ,SAD,30MonoWAV/30MonoH1.wav,2,2,1,5,,,,,0,6,6,4,0,8,8,0,,,,,,,,,1,1.2512243810051586,,,030,001,2019_May_14_1410,MusicAffectPsychophysiology2019,3.0.5,59.82184086699928,
To what extent did the music make you feel ,HAPPY,30MonoWAV/30MonoH1.wav,2,2,1,5,,,,,0,6,6,4,0,9,9,6,,,,,,,,,4,1.2829416390013648,,,030,001,2019_May_14_1410,MusicAffectPsychophysiology2019,3.0.5,59.82184086699928,
To what extent did the music make you feel ,EXCITED,30MonoWAV/30MonoH1.wav,2,2,1,5,,,,,0,6,6,4,0,10,10,7,,,,,,,,,4,1.2679956700012553,,,030,001,2019_May_14_1410,MusicAffectPsychophysiology2019,3.0.5,59.82184086699928,
To what extent did the music make you feel ,ANGRY,30MonoWAV/30MonoH1.wav,2,2,1,5,,,,,0,6,6,4,0,11,11,2,,,,,,,,,1,1.20004728200729,,,030,001,2019_May_14_1410,MusicAffectPsychophysiology2019,3.0.5,59.82184086699928,
,,30MonoWAV/30MonoH1.wav,2,2,1,5,,,,,0,6,6,4,,,,,,,,,,,,,,,,,030,001,2019_May_14_1410,MusicAffectPsychophysiology2019,3.0.5,59.82184086699928,
To what extent did the music make you feel ,SCARED,30MonoWAV/30MonoF2.wav,1,2,2,2,,,,,0,7,7,1,0,0,0,11,,,2,3.76895309399697,2,2.1178471070015803,3,2.8187661770061823,4,6.0519446169928415,,,030,001,2019_May_14_1410,MusicAffectPsychophysiology2019,3.0.5,59.82184086699928,
To what extent did the music make you feel ,EXCITED,30MonoWAV/30MonoF2.wav,1,2,2,2,,,,,0,7,7,1,0,1,1,7,,,,,,,,,2,2.3682419010001468,,,030,001,2019_May_14_1410,MusicAffectPsychophysiology2019,3.0.5,59.82184086699928,
To what extent did the music make you feel ,ALERT,30MonoWAV/30MonoF2.wav,1,2,2,2,,,,,0,7,7,1,0,2,2,8,,,,,,,,,4,2.3186867119948147,,,030,001,2019_May_14_1410,MusicAffectPsychophysiology2019,3.0.5,59.82184086699928,
To what extent did the music make you feel ,ASHAMED,30MonoWAV/30MonoF2.wav,1,2,2,2,,,,,0,7,7,1,0,3,3,4,,,,,,,,,1,2.468783293996239,,,030,001,2019_May_14_1410,MusicAffectPsychophysiology2019,3.0.5,59.82184086699928,
To what extent did the music make you feel ,SAD,30MonoWAV/30MonoF2.wav,1,2,2,2,,,,,0,7,7,1,0,4,4,0,,,,,,,,,2,1.786206001008395,,,030,001,2019_May_14_1410,MusicAffectPsychophysiology2019,3.0.5,59.82184086699928,
To what extent did the music make you feel ,ANXIOUS ,30MonoWAV/30MonoF2.wav,1,2,2,2,,,,,0,7,7,1,0,5,5,1,,,,,,,,,3,1.7333007889974397,,,030,001,2019_May_14_1410,MusicAffectPsychophysiology2019,3.0.5,59.82184086699928,
To what extent did the music make you feel ,TENDER,30MonoWAV/30MonoF2.wav,1,2,2,2,,,,,0,7,7,1,0,6,6,10,,,,,,,,,1,1.3839962920028483,,,030,001,2019_May_14_1410,MusicAffectPsychophysiology2019,3.0.5,59.82184086699928,
To what extent did the music make you feel ,GUILTY,30MonoWAV/30MonoF2.wav,1,2,2,2,,,,,0,7,7,1,0,7,7,5,,,,,,,,,2,1.8013433529995382,,,030,001,2019_May_14_1410,MusicAffectPsychophysiology2019,3.0.5,59.82184086699928,
To what extent did the music make you feel ,HAPPY,30MonoWAV/30MonoF2.wav,1,2,2,2,,,,,0,7,7,1,0,8,8,6,,,,,,,,,1,2.1511674119974487,,,030,001,2019_May_14_1410,MusicAffectPsychophysiology2019,3.0.5,59.82184086699928,
To what extent did the music make you feel ,ANGRY,30MonoWAV/30MonoF2.wav,1,2,2,2,,,,,0,7,7,1,0,9,9,2,,,,,,,,,2,2.8853935950028244,,,030,001,2019_May_14_1410,MusicAffectPsychophysiology2019,3.0.5,59.82184086699928,
To what extent did the music make you feel ,ACTIVE,30MonoWAV/30MonoF2.wav,1,2,2,2,,,,,0,7,7,1,0,10,10,9,,,,,,,,,3,2.5012950409873156,,,030,001,2019_May_14_1410,MusicAffectPsychophysiology2019,3.0.5,59.82184086699928,
To what extent did the music make you feel ,FRUSTRATED,30MonoWAV/30MonoF2.wav,1,2,2,2,,,,,0,7,7,1,0,11,11,3,,,,,,,,,2,4.101369116004207,,,030,001,2019_May_14_1410,MusicAffectPsychophysiology2019,3.0.5,59.82184086699928,
,,30MonoWAV/30MonoF2.wav,1,2,2,2,,,,,0,7,7,1,,,,,,,,,,,,,,,,,030,001,2019_May_14_1410,MusicAffectPsychophysiology2019,3.0.5,59.82184086699928,
To what extent did the music make you feel ,SCARED,30MonoWAV/30MonoS4.wav,1,1,3,12,,,,,0,8,8,11,0,0,0,11,,,1,4.934270871992339,2,1.4996192940016044,3,2.0354158309928607,1,1.4191071999957785,,,030,001,2019_May_14_1410,MusicAffectPsychophysiology2019,3.0.5,59.82184086699928,
To what extent did the music make you feel ,SAD,30MonoWAV/30MonoS4.wav,1,1,3,12,,,,,0,8,8,11,0,1,1,0,,,,,,,,,3,1.9516534699941985,,,030,001,2019_May_14_1410,MusicAffectPsychophysiology2019,3.0.5,59.82184086699928,
To what extent did the music make you feel ,FRUSTRATED,30MonoWAV/30MonoS4.wav,1,1,3,12,,,,,0,8,8,11,0,2,2,3,,,,,,,,,1,1.2013671670138137,,,030,001,2019_May_14_1410,MusicAffectPsychophysiology2019,3.0.5,59.82184086699928,
To what extent did the music make you feel ,ASHAMED,30MonoWAV/30MonoS4.wav,1,1,3,12,,,,,0,8,8,11,0,3,3,4,,,,,,,,,2,1.3844401429960271,,,030,001,2019_May_14_1410,MusicAffectPsychophysiology2019,3.0.5,59.82184086699928,
To what extent did the music make you feel ,TENDER,30MonoWAV/30MonoS4.wav,1,1,3,12,,,,,0,8,8,11,0,4,4,10,,,,,,,,,3,1.4517718659917591,,,030,001,2019_May_14_1410,MusicAffectPsychophysiology2019,3.0.5,59.82184086699928,
To what extent did the music make you feel ,ANGRY,30MonoWAV/30MonoS4.wav,1,1,3,12,,,,,0,8,8,11,0,5,5,2,,,,,,,,,1,1.0688150619971566,,,030,001,2019_May_14_1410,MusicAffectPsychophysiology2019,3.0.5,59.82184086699928,
To what extent did the music make you feel ,HAPPY,30MonoWAV/30MonoS4.wav,1,1,3,12,,,,,0,8,8,11,0,6,6,6,,,,,,,,,2,1.5523778529895935,,,030,001,2019_May_14_1410,MusicAffectPsychophysiology2019,3.0.5,59.82184086699928,
To what extent did the music make you feel ,ACTIVE,30MonoWAV/30MonoS4.wav,1,1,3,12,,,,,0,8,8,11,0,7,7,9,,,,,,,,,2,2.1339261829998577,,,030,001,2019_May_14_1410,MusicAffectPsychophysiology2019,3.0.5,59.82184086699928,
To what extent did the music make you feel ,ANXIOUS ,30MonoWAV/30MonoS4.wav,1,1,3,12,,,,,0,8,8,11,0,8,8,1,,,,,,,,,1,1.4027735730051063,,,030,001,2019_May_14_1410,MusicAffectPsychophysiology2019,3.0.5,59.82184086699928,
To what extent did the music make you feel ,EXCITED,30MonoWAV/30MonoS4.wav,1,1,3,12,,,,,0,8,8,11,0,9,9,7,,,,,,,,,1,2.068799329994363,,,030,001,2019_May_14_1410,MusicAffectPsychophysiology2019,3.0.5,59.82184086699928,
To what extent did the music make you feel ,ALERT,30MonoWAV/30MonoS4.wav,1,1,3,12,,,,,0,8,8,11,0,10,10,8,,,,,,,,,2,1.3660741840139963,,,030,001,2019_May_14_1410,MusicAffectPsychophysiology2019,3.0.5,59.82184086699928,
To what extent did the music make you feel ,GUILTY,30MonoWAV/30MonoS4.wav,1,1,3,12,,,,,0,8,8,11,0,11,11,5,,,,,,,,,2,1.4183227009925758,,,030,001,2019_May_14_1410,MusicAffectPsychophysiology2019,3.0.5,59.82184086699928,
,,30MonoWAV/30MonoS4.wav,1,1,3,12,,,,,0,8,8,11,,,,,,,,,,,,,,,,,030,001,2019_May_14_1410,MusicAffectPsychophysiology2019,3.0.5,59.82184086699928,
To what extent did the music make you feel ,GUILTY,30MonoWAV/30MonoH2.wav,2,2,1,6,,,,,0,9,9,5,0,0,0,5,,,3,5.225640333999763,2,3.2557067699963227,3,1.9546247199905338,1,3.272653848005575,,,030,001,2019_May_14_1410,MusicAffectPsychophysiology2019,3.0.5,59.82184086699928,
To what extent did the music make you feel ,ANGRY,30MonoWAV/30MonoH2.wav,2,2,1,6,,,,,0,9,9,5,0,1,1,2,,,,,,,,,2,1.1682127079984639,,,030,001,2019_May_14_1410,MusicAffectPsychophysiology2019,3.0.5,59.82184086699928,
To what extent did the music make you feel ,TENDER,30MonoWAV/30MonoH2.wav,2,2,1,6,,,,,0,9,9,5,0,2,2,10,,,,,,,,,1,1.3506542819959577,,,030,001,2019_May_14_1410,MusicAffectPsychophysiology2019,3.0.5,59.82184086699928,
To what extent did the music make you feel ,HAPPY,30MonoWAV/30MonoH2.wav,2,2,1,6,,,,,0,9,9,5,0,3,3,6,,,,,,,,,2,1.2027104799926747,,,030,001,2019_May_14_1410,MusicAffectPsychophysiology2019,3.0.5,59.82184086699928,
To what extent did the music make you feel ,EXCITED,30MonoWAV/30MonoH2.wav,2,2,1,6,,,,,0,9,9,5,0,4,4,7,,,,,,,,,2,1.438086313995882,,,030,001,2019_May_14_1410,MusicAffectPsychophysiology2019,3.0.5,59.82184086699928,
To what extent did the music make you feel ,FRUSTRATED,30MonoWAV/30MonoH2.wav,2,2,1,6,,,,,0,9,9,5,0,5,5,3,,,,,,,,,2,1.1697634860029211,,,030,001,2019_May_14_1410,MusicAffectPsychophysiology2019,3.0.5,59.82184086699928,
To what extent did the music make you feel ,ALERT,30MonoWAV/30MonoH2.wav,2,2,1,6,,,,,0,9,9,5,0,6,6,8,,,,,,,,,3,2.0206345679907827,,,030,001,2019_May_14_1410,MusicAffectPsychophysiology2019,3.0.5,59.82184086699928,
To what extent did the music make you feel ,ACTIVE,30MonoWAV/30MonoH2.wav,2,2,1,6,,,,,0,9,9,5,0,7,7,9,,,,,,,,,2,1.6360559390013805,,,030,001,2019_May_14_1410,MusicAffectPsychophysiology2019,3.0.5,59.82184086699928,
To what extent did the music make you feel ,SCARED,30MonoWAV/30MonoH2.wav,2,2,1,6,,,,,0,9,9,5,0,8,8,11,,,,,,,,,2,1.3711126419948414,,,030,001,2019_May_14_1410,MusicAffectPsychophysiology2019,3.0.5,59.82184086699928,
To what extent did the music make you feel ,ASHAMED,30MonoWAV/30MonoH2.wav,2,2,1,6,,,,,0,9,9,5,0,9,9,4,,,,,,,,,2,1.3557802169962088,,,030,001,2019_May_14_1410,MusicAffectPsychophysiology2019,3.0.5,59.82184086699928,
To what extent did the music make you feel ,ANXIOUS ,30MonoWAV/30MonoH2.wav,2,2,1,6,,,,,0,9,9,5,0,10,10,1,,,,,,,,,1,2.1854824110050686,,,030,001,2019_May_14_1410,MusicAffectPsychophysiology2019,3.0.5,59.82184086699928,
To what extent did the music make you feel ,SAD,30MonoWAV/30MonoH2.wav,2,2,1,6,,,,,0,9,9,5,0,11,11,0,,,,,,,,,2,1.6856440050032688,,,030,001,2019_May_14_1410,MusicAffectPsychophysiology2019,3.0.5,59.82184086699928,
,,30MonoWAV/30MonoH2.wav,2,2,1,6,,,,,0,9,9,5,,,,,,,,,,,,,,,,,030,001,2019_May_14_1410,MusicAffectPsychophysiology2019,3.0.5,59.82184086699928,
To what extent did the music make you feel ,ASHAMED,30MonoWAV/30MonoT4.wav,2,1,4,16,,,,,0,10,10,15,0,0,0,4,,,2,3.6683050139981788,3,2.0674301859980915,4,1.3183572879934218,3,4.736025079997489,,,030,001,2019_May_14_1410,MusicAffectPsychophysiology2019,3.0.5,59.82184086699928,
To what extent did the music make you feel ,FRUSTRATED,30MonoWAV/30MonoT4.wav,2,1,4,16,,,,,0,10,10,15,0,1,1,3,,,,,,,,,1,1.3353919780056458,,,030,001,2019_May_14_1410,MusicAffectPsychophysiology2019,3.0.5,59.82184086699928,
To what extent did the music make you feel ,ANGRY,30MonoWAV/30MonoT4.wav,2,1,4,16,,,,,0,10,10,15,0,2,2,2,,,,,,,,,1,0.8190532959997654,,,030,001,2019_May_14_1410,MusicAffectPsychophysiology2019,3.0.5,59.82184086699928,
To what extent did the music make you feel ,ALERT,30MonoWAV/30MonoT4.wav,2,1,4,16,,,,,0,10,10,15,0,3,3,8,,,,,,,,,2,2.286401294011739,,,030,001,2019_May_14_1410,MusicAffectPsychophysiology2019,3.0.5,59.82184086699928,
To what extent did the music make you feel ,SAD,30MonoWAV/30MonoT4.wav,2,1,4,16,,,,,0,10,10,15,0,4,4,0,,,,,,,,,3,1.269232427002862,,,030,001,2019_May_14_1410,MusicAffectPsychophysiology2019,3.0.5,59.82184086699928,
To what extent did the music make you feel ,TENDER,30MonoWAV/30MonoT4.wav,2,1,4,16,,,,,0,10,10,15,0,5,5,10,,,,,,,,,3,0.8677070240082685,,,030,001,2019_May_14_1410,MusicAffectPsychophysiology2019,3.0.5,59.82184086699928,
To what extent did the music make you feel ,SCARED,30MonoWAV/30MonoT4.wav,2,1,4,16,,,,,0,10,10,15,0,6,6,11,,,,,,,,,1,1.2182992540037958,,,030,001,2019_May_14_1410,MusicAffectPsychophysiology2019,3.0.5,59.82184086699928,
To what extent did the music make you feel ,ANXIOUS ,30MonoWAV/30MonoT4.wav,2,1,4,16,,,,,0,10,10,15,0,7,7,1,,,,,,,,,2,1.4517019750055624,,,030,001,2019_May_14_1410,MusicAffectPsychophysiology2019,3.0.5,59.82184086699928,
To what extent did the music make you feel ,ACTIVE,30MonoWAV/30MonoT4.wav,2,1,4,16,,,,,0,10,10,15,0,8,8,9,,,,,,,,,2,1.6037475820048712,,,030,001,2019_May_14_1410,MusicAffectPsychophysiology2019,3.0.5,59.82184086699928,
To what extent did the music make you feel ,EXCITED,30MonoWAV/30MonoT4.wav,2,1,4,16,,,,,0,10,10,15,0,9,9,7,,,,,,,,,1,1.4188226190017303,,,030,001,2019_May_14_1410,MusicAffectPsychophysiology2019,3.0.5,59.82184086699928,
To what extent did the music make you feel ,GUILTY,30MonoWAV/30MonoT4.wav,2,1,4,16,,,,,0,10,10,15,0,10,10,5,,,,,,,,,3,1.7343012089986587,,,030,001,2019_May_14_1410,MusicAffectPsychophysiology2019,3.0.5,59.82184086699928,
To what extent did the music make you feel ,HAPPY,30MonoWAV/30MonoT4.wav,2,1,4,16,,,,,0,10,10,15,0,11,11,6,,,,,,,,,2,1.3690663010056596,,,030,001,2019_May_14_1410,MusicAffectPsychophysiology2019,3.0.5,59.82184086699928,
,,30MonoWAV/30MonoT4.wav,2,1,4,16,,,,,0,10,10,15,,,,,,,,,,,,,,,,,030,001,2019_May_14_1410,MusicAffectPsychophysiology2019,3.0.5,59.82184086699928,
To what extent did the music make you feel ,HAPPY,30MonoWAV/30MonoH4.wav,2,2,1,8,,,,,0,11,11,7,0,0,0,6,,,4,4.8742847819958115,4,1.2861010339984205,2,1.9083796089980751,4,2.355914722997113,,,030,001,2019_May_14_1410,MusicAffectPsychophysiology2019,3.0.5,59.82184086699928,
To what extent did the music make you feel ,TENDER,30MonoWAV/30MonoH4.wav,2,2,1,8,,,,,0,11,11,7,0,1,1,10,,,,,,,,,3,1.4714989230124047,,,030,001,2019_May_14_1410,MusicAffectPsychophysiology2019,3.0.5,59.82184086699928,
To what extent did the music make you feel ,ANXIOUS ,30MonoWAV/30MonoH4.wav,2,2,1,8,,,,,0,11,11,7,0,2,2,1,,,,,,,,,1,1.2206067129882285,,,030,001,2019_May_14_1410,MusicAffectPsychophysiology2019,3.0.5,59.82184086699928,
To what extent did the music make you feel ,EXCITED,30MonoWAV/30MonoH4.wav,2,2,1,8,,,,,0,11,11,7,0,3,3,7,,,,,,,,,4,1.6245083090034313,,,030,001,2019_May_14_1410,MusicAffectPsychophysiology2019,3.0.5,59.82184086699928,
To what extent did the music make you feel ,GUILTY,30MonoWAV/30MonoH4.wav,2,2,1,8,,,,,0,11,11,7,0,4,4,5,,,,,,,,,1,1.268507791988668,,,030,001,2019_May_14_1410,MusicAffectPsychophysiology2019,3.0.5,59.82184086699928,
To what extent did the music make you feel ,SCARED,30MonoWAV/30MonoH4.wav,2,2,1,8,,,,,0,11,11,7,0,5,5,11,,,,,,,,,1,1.2023592810000991,,,030,001,2019_May_14_1410,MusicAffectPsychophysiology2019,3.0.5,59.82184086699928,
To what extent did the music make you feel ,ANGRY,30MonoWAV/30MonoH4.wav,2,2,1,8,,,,,0,11,11,7,0,6,6,2,,,,,,,,,1,0.9698430100106634,,,030,001,2019_May_14_1410,MusicAffectPsychophysiology2019,3.0.5,59.82184086699928,
To what extent did the music make you feel ,SAD,30MonoWAV/30MonoH4.wav,2,2,1,8,,,,,0,11,11,7,0,7,7,0,,,,,,,,,1,1.0524196379992645,,,030,001,2019_May_14_1410,MusicAffectPsychophysiology2019,3.0.5,59.82184086699928,
To what extent did the music make you feel ,ACTIVE,30MonoWAV/30MonoH4.wav,2,2,1,8,,,,,0,11,11,7,0,8,8,9,,,,,,,,,4,1.4525515799905406,,,030,001,2019_May_14_1410,MusicAffectPsychophysiology2019,3.0.5,59.82184086699928,
To what extent did the music make you feel ,ASHAMED,30MonoWAV/30MonoH4.wav,2,2,1,8,,,,,0,11,11,7,0,9,9,4,,,,,,,,,1,1.1189699099923018,,,030,001,2019_May_14_1410,MusicAffectPsychophysiology2019,3.0.5,59.82184086699928,
To what extent did the music make you feel ,FRUSTRATED,30MonoWAV/30MonoH4.wav,2,2,1,8,,,,,0,11,11,7,0,10,10,3,,,,,,,,,1,1.3353306650096783,,,030,001,2019_May_14_1410,MusicAffectPsychophysiology2019,3.0.5,59.82184086699928,
To what extent did the music make you feel ,ALERT,30MonoWAV/30MonoH4.wav,2,2,1,8,,,,,0,11,11,7,0,11,11,8,,,,,,,,,2,1.8165740969998296,,,030,001,2019_May_14_1410,MusicAffectPsychophysiology2019,3.0.5,59.82184086699928,
,,30MonoWAV/30MonoH4.wav,2,2,1,8,,,,,0,11,11,7,,,,,,,,,,,,,,,,,030,001,2019_May_14_1410,MusicAffectPsychophysiology2019,3.0.5,59.82184086699928,
To what extent did the music make you feel ,TENDER,30MonoWAV/30MonoH3.wav,2,2,1,7,,,,,0,12,12,6,0,0,0,10,,,3,3.7028455389954615,3,1.9347018109983765,3,1.3198119770095218,2,1.7966366030013887,,,030,001,2019_May_14_1410,MusicAffectPsychophysiology2019,3.0.5,59.82184086699928,
To what extent did the music make you feel ,ANXIOUS ,30MonoWAV/30MonoH3.wav,2,2,1,7,,,,,0,12,12,6,0,1,1,1,,,,,,,,,1,1.3689903630001936,,,030,001,2019_May_14_1410,MusicAffectPsychophysiology2019,3.0.5,59.82184086699928,
To what extent did the music make you feel ,SAD,30MonoWAV/30MonoH3.wav,2,2,1,7,,,,,0,12,12,6,0,2,2,0,,,,,,,,,1,0.9326645949913654,,,030,001,2019_May_14_1410,MusicAffectPsychophysiology2019,3.0.5,59.82184086699928,
To what extent did the music make you feel ,ALERT,30MonoWAV/30MonoH3.wav,2,2,1,7,,,,,0,12,12,6,0,3,3,8,,,,,,,,,2,1.2860874329926446,,,030,001,2019_May_14_1410,MusicAffectPsychophysiology2019,3.0.5,59.82184086699928,
To what extent did the music make you feel ,HAPPY,30MonoWAV/30MonoH3.wav,2,2,1,7,,,,,0,12,12,6,0,4,4,6,,,,,,,,,2,1.6836771090020193,,,030,001,2019_May_14_1410,MusicAffectPsychophysiology2019,3.0.5,59.82184086699928,
To what extent did the music make you feel ,GUILTY,30MonoWAV/30MonoH3.wav,2,2,1,7,,,,,0,12,12,6,0,5,5,5,,,,,,,,,1,1.4865028619969962,,,030,001,2019_May_14_1410,MusicAffectPsychophysiology2019,3.0.5,59.82184086699928,
To what extent did the music make you feel ,EXCITED,30MonoWAV/30MonoH3.wav,2,2,1,7,,,,,0,12,12,6,0,6,6,7,,,,,,,,,2,1.41792014100065,,,030,001,2019_May_14_1410,MusicAffectPsychophysiology2019,3.0.5,59.82184086699928,
To what extent did the music make you feel ,ASHAMED,30MonoWAV/30MonoH3.wav,2,2,1,7,,,,,0,12,12,6,0,7,7,4,,,,,,,,,1,1.0355832110071788,,,030,001,2019_May_14_1410,MusicAffectPsychophysiology2019,3.0.5,59.82184086699928,
To what extent did the music make you feel ,ANGRY,30MonoWAV/30MonoH3.wav,2,2,1,7,,,,,0,12,12,6,0,8,8,2,,,,,,,,,1,1.2235800420021405,,,030,001,2019_May_14_1410,MusicAffectPsychophysiology2019,3.0.5,59.82184086699928,
To what extent did the music make you feel ,FRUSTRATED,30MonoWAV/30MonoH3.wav,2,2,1,7,,,,,0,12,12,6,0,9,9,3,,,,,,,,,1,1.0859550269960891,,,030,001,2019_May_14_1410,MusicAffectPsychophysiology2019,3.0.5,59.82184086699928,
To what extent did the music make you feel ,ACTIVE,30MonoWAV/30MonoH3.wav,2,2,1,7,,,,,0,12,12,6,0,10,10,9,,,,,,,,,2,1.1182594029960455,,,030,001,2019_May_14_1410,MusicAffectPsychophysiology2019,3.0.5,59.82184086699928,
To what extent did the music make you feel ,SCARED,30MonoWAV/30MonoH3.wav,2,2,1,7,,,,,0,12,12,6,0,11,11,11,,,,,,,,,1,1.2360850990080507,,,030,001,2019_May_14_1410,MusicAffectPsychophysiology2019,3.0.5,59.82184086699928,
,,30MonoWAV/30MonoH3.wav,2,2,1,7,,,,,0,12,12,6,,,,,,,,,,,,,,,,,030,001,2019_May_14_1410,MusicAffectPsychophysiology2019,3.0.5,59.82184086699928,
To what extent did the music make you feel ,GUILTY,30MonoWAV/30MonoF4.wav,1,2,2,4,,,,,0,13,13,3,0,0,0,5,,,5,3.216712526002084,4,2.5347204050049186,3,2.3679743009997765,2,1.335076855000807,,,030,001,2019_May_14_1410,MusicAffectPsychophysiology2019,3.0.5,59.82184086699928,
To what extent did the music make you feel ,ANGRY,30MonoWAV/30MonoF4.wav,1,2,2,4,,,,,0,13,13,3,0,1,1,2,,,,,,,,,3,1.6184899280051468,,,030,001,2019_May_14_1410,MusicAffectPsychophysiology2019,3.0.5,59.82184086699928,
To what extent did the music make you feel ,SAD,30MonoWAV/30MonoF4.wav,1,2,2,4,,,,,0,13,13,3,0,2,2,0,,,,,,,,,2,1.135219222996966,,,030,001,2019_May_14_1410,MusicAffectPsychophysiology2019,3.0.5,59.82184086699928,
To what extent did the music make you feel ,ANXIOUS ,30MonoWAV/30MonoF4.wav,1,2,2,4,,,,,0,13,13,3,0,3,3,1,,,,,,,,,2,2.9177143609995255,,,030,001,2019_May_14_1410,MusicAffectPsychophysiology2019,3.0.5,59.82184086699928,
To what extent did the music make you feel ,SCARED,30MonoWAV/30MonoF4.wav,1,2,2,4,,,,,0,13,13,3,0,4,4,11,,,,,,,,,3,1.7029300599970156,,,030,001,2019_May_14_1410,MusicAffectPsychophysiology2019,3.0.5,59.82184086699928,
To what extent did the music make you feel ,ACTIVE,30MonoWAV/30MonoF4.wav,1,2,2,4,,,,,0,13,13,3,0,5,5,9,,,,,,,,,3,2.100128991995007,,,030,001,2019_May_14_1410,MusicAffectPsychophysiology2019,3.0.5,59.82184086699928,
To what extent did the music make you feel ,EXCITED,30MonoWAV/30MonoF4.wav,1,2,2,4,,,,,0,13,13,3,0,6,6,7,,,,,,,,,4,1.5518528899992816,,,030,001,2019_May_14_1410,MusicAffectPsychophysiology2019,3.0.5,59.82184086699928,
To what extent did the music make you feel ,ASHAMED,30MonoWAV/30MonoF4.wav,1,2,2,4,,,,,0,13,13,3,0,7,7,4,,,,,,,,,1,1.435508540002047,,,030,001,2019_May_14_1410,MusicAffectPsychophysiology2019,3.0.5,59.82184086699928,
To what extent did the music make you feel ,TENDER,30MonoWAV/30MonoF4.wav,1,2,2,4,,,,,0,13,13,3,0,8,8,10,,,,,,,,,1,1.366974525997648,,,030,001,2019_May_14_1410,MusicAffectPsychophysiology2019,3.0.5,59.82184086699928,
To what extent did the music make you feel ,HAPPY,30MonoWAV/30MonoF4.wav,1,2,2,4,,,,,0,13,13,3,0,9,9,6,,,,,,,,,3,1.9019167460064637,,,030,001,2019_May_14_1410,MusicAffectPsychophysiology2019,3.0.5,59.82184086699928,
To what extent did the music make you feel ,FRUSTRATED,30MonoWAV/30MonoF4.wav,1,2,2,4,,,,,0,13,13,3,0,10,10,3,,,,,,,,,2,1.9695083900005557,,,030,001,2019_May_14_1410,MusicAffectPsychophysiology2019,3.0.5,59.82184086699928,
To what extent did the music make you feel ,ALERT,30MonoWAV/30MonoF4.wav,1,2,2,4,,,,,0,13,13,3,0,11,11,8,,,,,,,,,4,1.5180647219967796,,,030,001,2019_May_14_1410,MusicAffectPsychophysiology2019,3.0.5,59.82184086699928,
,,30MonoWAV/30MonoF4.wav,1,2,2,4,,,,,0,13,13,3,,,,,,,,,,,,,,,,,030,001,2019_May_14_1410,MusicAffectPsychophysiology2019,3.0.5,59.82184086699928,
To what extent did the music make you feel ,FRUSTRATED,30MonoWAV/30MonoS3.wav,1,1,3,11,,,,,0,14,14,10,0,0,0,3,,,2,5.466307426991989,2,1.9848267070046859,3,2.1839888889953727,2,2.2527056079998147,,,030,001,2019_May_14_1410,MusicAffectPsychophysiology2019,3.0.5,59.82184086699928,
To what extent did the music make you feel ,ANGRY,30MonoWAV/30MonoS3.wav,1,1,3,11,,,,,0,14,14,10,0,1,1,2,,,,,,,,,1,1.6187567390006734,,,030,001,2019_May_14_1410,MusicAffectPsychophysiology2019,3.0.5,59.82184086699928,
To what extent did the music make you feel ,HAPPY,30MonoWAV/30MonoS3.wav,1,1,3,11,,,,,0,14,14,10,0,2,2,6,,,,,,,,,2,1.0674901720049093,,,030,001,2019_May_14_1410,MusicAffectPsychophysiology2019,3.0.5,59.82184086699928,
To what extent did the music make you feel ,TENDER,30MonoWAV/30MonoS3.wav,1,1,3,11,,,,,0,14,14,10,0,3,3,10,,,,,,,,,2,1.0005093530053273,,,030,001,2019_May_14_1410,MusicAffectPsychophysiology2019,3.0.5,59.82184086699928,
To what extent did the music make you feel ,ALERT,30MonoWAV/30MonoS3.wav,1,1,3,11,,,,,0,14,14,10,0,4,4,8,,,,,,,,,2,1.0855918109882623,,,030,001,2019_May_14_1410,MusicAffectPsychophysiology2019,3.0.5,59.82184086699928,
To what extent did the music make you feel ,ASHAMED,30MonoWAV/30MonoS3.wav,1,1,3,11,,,,,0,14,14,10,0,5,5,4,,,,,,,,,2,1.168620705997455,,,030,001,2019_May_14_1410,MusicAffectPsychophysiology2019,3.0.5,59.82184086699928,
To what extent did the music make you feel ,ANXIOUS ,30MonoWAV/30MonoS3.wav,1,1,3,11,,,,,0,14,14,10,0,6,6,1,,,,,,,,,2,1.0018536080024205,,,030,001,2019_May_14_1410,MusicAffectPsychophysiology2019,3.0.5,59.82184086699928,
To what extent did the music make you feel ,GUILTY,30MonoWAV/30MonoS3.wav,1,1,3,11,,,,,0,14,14,10,0,7,7,5,,,,,,,,,2,1.368213508001645,,,030,001,2019_May_14_1410,MusicAffectPsychophysiology2019,3.0.5,59.82184086699928,
To what extent did the music make you feel ,SCARED,30MonoWAV/30MonoS3.wav,1,1,3,11,,,,,0,14,14,10,0,8,8,11,,,,,,,,,2,1.9852349130087532,,,030,001,2019_May_14_1410,MusicAffectPsychophysiology2019,3.0.5,59.82184086699928,
To what extent did the music make you feel ,EXCITED,30MonoWAV/30MonoS3.wav,1,1,3,11,,,,,0,14,14,10,0,9,9,7,,,,,,,,,2,1.1685289799934253,,,030,001,2019_May_14_1410,MusicAffectPsychophysiology2019,3.0.5,59.82184086699928,
To what extent did the music make you feel ,ACTIVE,30MonoWAV/30MonoS3.wav,1,1,3,11,,,,,0,14,14,10,0,10,10,9,,,,,,,,,1,2.1358124270045664,,,030,001,2019_May_14_1410,MusicAffectPsychophysiology2019,3.0.5,59.82184086699928,
To what extent did the music make you feel ,SAD,30MonoWAV/30MonoS3.wav,1,1,3,11,,,,,0,14,14,10,0,11,11,0,,,,,,,,,3,1.6217218230012804,,,030,001,2019_May_14_1410,MusicAffectPsychophysiology2019,3.0.5,59.82184086699928,
,,30MonoWAV/30MonoS3.wav,1,1,3,11,,,,,0,14,14,10,,,,,,,,,,,,,,,,,030,001,2019_May_14_1410,MusicAffectPsychophysiology2019,3.0.5,59.82184086699928,
To what extent did the music make you feel ,ASHAMED,30MonoWAV/30MonoS2.wav,1,1,3,10,,,,,0,15,15,9,0,0,0,4,,,2,3.5430743519973475,2,3.1686369070084766,3,2.7062260520033306,3,1.5013389529922279,,,030,001,2019_May_14_1410,MusicAffectPsychophysiology2019,3.0.5,59.82184086699928,
To what extent did the music make you feel ,TENDER,30MonoWAV/30MonoS2.wav,1,1,3,10,,,,,0,15,15,9,0,1,1,10,,,,,,,,,3,1.453142422993551,,,030,001,2019_May_14_1410,MusicAffectPsychophysiology2019,3.0.5,59.82184086699928,
To what extent did the music make you feel ,HAPPY,30MonoWAV/30MonoS2.wav,1,1,3,10,,,,,0,15,15,9,0,2,2,6,,,,,,,,,2,1.353229663989623,,,030,001,2019_May_14_1410,MusicAffectPsychophysiology2019,3.0.5,59.82184086699928,
To what extent did the music make you feel ,EXCITED,30MonoWAV/30MonoS2.wav,1,1,3,10,,,,,0,15,15,9,0,3,3,7,,,,,,,,,1,1.2518347120058024,,,030,001,2019_May_14_1410,MusicAffectPsychophysiology2019,3.0.5,59.82184086699928,
To what extent did the music make you feel ,FRUSTRATED,30MonoWAV/30MonoS2.wav,1,1,3,10,,,,,0,15,15,9,0,4,4,3,,,,,,,,,1,0.7528158539935248,,,030,001,2019_May_14_1410,MusicAffectPsychophysiology2019,3.0.5,59.82184086699928,
To what extent did the music make you feel ,SCARED,30MonoWAV/30MonoS2.wav,1,1,3,10,,,,,0,15,15,9,0,5,5,11,,,,,,,,,1,1.053412811990711,,,030,001,2019_May_14_1410,MusicAffectPsychophysiology2019,3.0.5,59.82184086699928,
To what extent did the music make you feel ,ANGRY,30MonoWAV/30MonoS2.wav,1,1,3,10,,,,,0,15,15,9,0,6,6,2,,,,,,,,,1,0.8042687470006058,,,030,001,2019_May_14_1410,MusicAffectPsychophysiology2019,3.0.5,59.82184086699928,
To what extent did the music make you feel ,ALERT,30MonoWAV/30MonoS2.wav,1,1,3,10,,,,,0,15,15,9,0,7,7,8,,,,,,,,,1,2.618349815995316,,,030,001,2019_May_14_1410,MusicAffectPsychophysiology2019,3.0.5,59.82184086699928,
To what extent did the music make you feel ,SAD,30MonoWAV/30MonoS2.wav,1,1,3,10,,,,,0,15,15,9,0,8,8,0,,,,,,,,,3,1.50190938700689,,,030,001,2019_May_14_1410,MusicAffectPsychophysiology2019,3.0.5,59.82184086699928,
To what extent did the music make you feel ,ANXIOUS ,30MonoWAV/30MonoS2.wav,1,1,3,10,,,,,0,15,15,9,0,9,9,1,,,,,,,,,2,1.4358452789892908,,,030,001,2019_May_14_1410,MusicAffectPsychophysiology2019,3.0.5,59.82184086699928,
To what extent did the music make you feel ,GUILTY,30MonoWAV/30MonoS2.wav,1,1,3,10,,,,,0,15,15,9,0,10,10,5,,,,,,,,,2,1.552138359998935,,,030,001,2019_May_14_1410,MusicAffectPsychophysiology2019,3.0.5,59.82184086699928,
To what extent did the music make you feel ,ACTIVE,30MonoWAV/30MonoS2.wav,1,1,3,10,,,,,0,15,15,9,0,11,11,9,,,,,,,,,1,1.8336619670008076,,,030,001,2019_May_14_1410,MusicAffectPsychophysiology2019,3.0.5,59.82184086699928,
,,30MonoWAV/30MonoS2.wav,1,1,3,10,,,,,0,15,15,9,,,,,,,,,,,,,,,,,030,001,2019_May_14_1410,MusicAffectPsychophysiology2019,3.0.5,59.82184086699928,
To what extent did the music make you feel ,ACTIVE,30MonoWAV/30MonoS4.wav,1,1,3,12,,,,,1,0,16,11,0,0,0,9,,,2,3.772753402008675,2,5.685336861002725,4,2.0839067050110316,2,3.169176569004776,,,030,001,2019_May_14_1410,MusicAffectPsychophysiology2019,3.0.5,59.82184086699928,
To what extent did the music make you feel ,ALERT,30MonoWAV/30MonoS4.wav,1,1,3,12,,,,,1,0,16,11,0,1,1,8,,,,,,,,,3,1.349092414995539,,,030,001,2019_May_14_1410,MusicAffectPsychophysiology2019,3.0.5,59.82184086699928,
To what extent did the music make you feel ,EXCITED,30MonoWAV/30MonoS4.wav,1,1,3,12,,,,,1,0,16,11,0,2,2,7,,,,,,,,,1,1.586240573989926,,,030,001,2019_May_14_1410,MusicAffectPsychophysiology2019,3.0.5,59.82184086699928,
To what extent did the music make you feel ,SCARED,30MonoWAV/30MonoS4.wav,1,1,3,12,,,,,1,0,16,11,0,3,3,11,,,,,,,,,2,2.2856712459906703,,,030,001,2019_May_14_1410,MusicAffectPsychophysiology2019,3.0.5,59.82184086699928,
To what extent did the music make you feel ,GUILTY,30MonoWAV/30MonoS4.wav,1,1,3,12,,,,,1,0,16,11,0,4,4,5,,,,,,,,,3,1.4511516059865244,,,030,001,2019_May_14_1410,MusicAffectPsychophysiology2019,3.0.5,59.82184086699928,
To what extent did the music make you feel ,ANGRY,30MonoWAV/30MonoS4.wav,1,1,3,12,,,,,1,0,16,11,0,5,5,2,,,,,,,,,1,1.1688933610130334,,,030,001,2019_May_14_1410,MusicAffectPsychophysiology2019,3.0.5,59.82184086699928,
To what extent did the music make you feel ,FRUSTRATED,30MonoWAV/30MonoS4.wav,1,1,3,12,,,,,1,0,16,11,0,6,6,3,,,,,,,,,1,1.0849263060081284,,,030,001,2019_May_14_1410,MusicAffectPsychophysiology2019,3.0.5,59.82184086699928,
To what extent did the music make you feel ,ANXIOUS ,30MonoWAV/30MonoS4.wav,1,1,3,12,,,,,1,0,16,11,0,7,7,1,,,,,,,,,2,1.8853089769982034,,,030,001,2019_May_14_1410,MusicAffectPsychophysiology2019,3.0.5,59.82184086699928,
To what extent did the music make you feel ,HAPPY,30MonoWAV/30MonoS4.wav,1,1,3,12,,,,,1,0,16,11,0,8,8,6,,,,,,,,,1,4.501430270989658,,,030,001,2019_May_14_1410,MusicAffectPsychophysiology2019,3.0.5,59.82184086699928,
To what extent did the music make you feel ,SAD,30MonoWAV/30MonoS4.wav,1,1,3,12,,,,,1,0,16,11,0,9,9,0,,,,,,,,,4,1.6686495739995735,,,030,001,2019_May_14_1410,MusicAffectPsychophysiology2019,3.0.5,59.82184086699928,
To what extent did the music make you feel ,TENDER,30MonoWAV/30MonoS4.wav,1,1,3,12,,,,,1,0,16,11,0,10,10,10,,,,,,,,,3,1.5187920030002715,,,030,001,2019_May_14_1410,MusicAffectPsychophysiology2019,3.0.5,59.82184086699928,
To what extent did the music make you feel ,ASHAMED,30MonoWAV/30MonoS4.wav,1,1,3,12,,,,,1,0,16,11,0,11,11,4,,,,,,,,,2,1.5028982969961362,,,030,001,2019_May_14_1410,MusicAffectPsychophysiology2019,3.0.5,59.82184086699928,
,,30MonoWAV/30MonoS4.wav,1,1,3,12,,,,,1,0,16,11,,,,,,,,,,,,,,,,,030,001,2019_May_14_1410,MusicAffectPsychophysiology2019,3.0.5,59.82184086699928,
To what extent did the music make you feel ,ALERT,30MonoWAV/30MonoF3.wav,1,2,2,3,,,,,1,1,17,2,0,0,0,8,,,4,5.4016740349907195,3,1.8344556789961644,3,1.3525092170020798,3,2.15269790799357,,,030,001,2019_May_14_1410,MusicAffectPsychophysiology2019,3.0.5,59.82184086699928,
To what extent did the music make you feel ,ANXIOUS ,30MonoWAV/30MonoF3.wav,1,2,2,3,,,,,1,1,17,2,0,1,1,1,,,,,,,,,1,1.2678668769949581,,,030,001,2019_May_14_1410,MusicAffectPsychophysiology2019,3.0.5,59.82184086699928,
To what extent did the music make you feel ,GUILTY,30MonoWAV/30MonoF3.wav,1,2,2,3,,,,,1,1,17,2,0,2,2,5,,,,,,,,,1,0.8348523629974807,,,030,001,2019_May_14_1410,MusicAffectPsychophysiology2019,3.0.5,59.82184086699928,
To what extent did the music make you feel ,ACTIVE,30MonoWAV/30MonoF3.wav,1,2,2,3,,,,,1,1,17,2,0,3,3,9,,,,,,,,,4,1.6188078849954763,,,030,001,2019_May_14_1410,MusicAffectPsychophysiology2019,3.0.5,59.82184086699928,
To what extent did the music make you feel ,SCARED,30MonoWAV/30MonoF3.wav,1,2,2,3,,,,,1,1,17,2,0,4,4,11,,,,,,,,,1,1.4180013759905705,,,030,001,2019_May_14_1410,MusicAffectPsychophysiology2019,3.0.5,59.82184086699928,
To what extent did the music make you feel ,EXCITED,30MonoWAV/30MonoF3.wav,1,2,2,3,,,,,1,1,17,2,0,5,5,7,,,,,,,,,2,1.1505311169894412,,,030,001,2019_May_14_1410,MusicAffectPsychophysiology2019,3.0.5,59.82184086699928,
To what extent did the music make you feel ,FRUSTRATED,30MonoWAV/30MonoF3.wav,1,2,2,3,,,,,1,1,17,2,0,6,6,3,,,,,,,,,1,1.1014958180021495,,,030,001,2019_May_14_1410,MusicAffectPsychophysiology2019,3.0.5,59.82184086699928,
To what extent did the music make you feel ,TENDER,30MonoWAV/30MonoF3.wav,1,2,2,3,,,,,1,1,17,2,0,7,7,10,,,,,,,,,1,1.0022433819976868,,,030,001,2019_May_14_1410,MusicAffectPsychophysiology2019,3.0.5,59.82184086699928,
To what extent did the music make you feel ,ANGRY,30MonoWAV/30MonoF3.wav,1,2,2,3,,,,,1,1,17,2,0,8,8,2,,,,,,,,,1,1.1351291080063675,,,030,001,2019_May_14_1410,MusicAffectPsychophysiology2019,3.0.5,59.82184086699928,
To what extent did the music make you feel ,HAPPY,30MonoWAV/30MonoF3.wav,1,2,2,3,,,,,1,1,17,2,0,9,9,6,,,,,,,,,3,1.4845855570019921,,,030,001,2019_May_14_1410,MusicAffectPsychophysiology2019,3.0.5,59.82184086699928,
To what extent did the music make you feel ,SAD,30MonoWAV/30MonoF3.wav,1,2,2,3,,,,,1,1,17,2,0,10,10,0,,,,,,,,,1,1.0171580220048781,,,030,001,2019_May_14_1410,MusicAffectPsychophysiology2019,3.0.5,59.82184086699928,
To what extent did the music make you feel ,ASHAMED,30MonoWAV/30MonoF3.wav,1,2,2,3,,,,,1,1,17,2,0,11,11,4,,,,,,,,,1,1.3348893360089278,,,030,001,2019_May_14_1410,MusicAffectPsychophysiology2019,3.0.5,59.82184086699928,
,,30MonoWAV/30MonoF3.wav,1,2,2,3,,,,,1,1,17,2,,,,,,,,,,,,,,,,,030,001,2019_May_14_1410,MusicAffectPsychophysiology2019,3.0.5,59.82184086699928,
To what extent did the music make you feel ,GUILTY,30MonoWAV/30MonoT2.wav,2,1,4,14,,,,,1,2,18,13,0,0,0,5,,,3,4.307271470999694,3,2.1860654519987293,4,1.433752512006322,2,5.900271478007198,,,030,001,2019_May_14_1410,MusicAffectPsychophysiology2019,3.0.5,59.82184086699928,
To what extent did the music make you feel ,EXCITED,30MonoWAV/30MonoT2.wav,2,1,4,14,,,,,1,2,18,13,0,1,1,7,,,,,,,,,2,2.4691380339936586,,,030,001,2019_May_14_1410,MusicAffectPsychophysiology2019,3.0.5,59.82184086699928,
To what extent did the music make you feel ,ASHAMED,30MonoWAV/30MonoT2.wav,2,1,4,14,,,,,1,2,18,13,0,2,2,4,,,,,,,,,2,1.1679499189922353,,,030,001,2019_May_14_1410,MusicAffectPsychophysiology2019,3.0.5,59.82184086699928,
To what extent did the music make you feel ,SCARED,30MonoWAV/30MonoT2.wav,2,1,4,14,,,,,1,2,18,13,0,3,3,11,,,,,,,,,1,2.452641809999477,,,030,001,2019_May_14_1410,MusicAffectPsychophysiology2019,3.0.5,59.82184086699928,
To what extent did the music make you feel ,ALERT,30MonoWAV/30MonoT2.wav,2,1,4,14,,,,,1,2,18,13,0,4,4,8,,,,,,,,,2,2.9830960169929313,,,030,001,2019_May_14_1410,MusicAffectPsychophysiology2019,3.0.5,59.82184086699928,
To what extent did the music make you feel ,TENDER,30MonoWAV/30MonoT2.wav,2,1,4,14,,,,,1,2,18,13,0,5,5,10,,,,,,,,,2,1.0689163469942287,,,030,001,2019_May_14_1410,MusicAffectPsychophysiology2019,3.0.5,59.82184086699928,
To what extent did the music make you feel ,FRUSTRATED,30MonoWAV/30MonoT2.wav,2,1,4,14,,,,,1,2,18,13,0,6,6,3,,,,,,,,,1,1.1183891099935863,,,030,001,2019_May_14_1410,MusicAffectPsychophysiology2019,3.0.5,59.82184086699928,
To what extent did the music make you feel ,ACTIVE,30MonoWAV/30MonoT2.wav,2,1,4,14,,,,,1,2,18,13,0,7,7,9,,,,,,,,,2,1.2179081979993498,,,030,001,2019_May_14_1410,MusicAffectPsychophysiology2019,3.0.5,59.82184086699928,
To what extent did the music make you feel ,ANXIOUS ,30MonoWAV/30MonoT2.wav,2,1,4,14,,,,,1,2,18,13,0,8,8,1,,,,,,,,,1,2.767776082007913,,,030,001,2019_May_14_1410,MusicAffectPsychophysiology2019,3.0.5,59.82184086699928,
To what extent did the music make you feel ,ANGRY,30MonoWAV/30MonoT2.wav,2,1,4,14,,,,,1,2,18,13,0,9,9,2,,,,,,,,,1,1.4191003989981255,,,030,001,2019_May_14_1410,MusicAffectPsychophysiology2019,3.0.5,59.82184086699928,
To what extent did the music make you feel ,HAPPY,30MonoWAV/30MonoT2.wav,2,1,4,14,,,,,1,2,18,13,0,10,10,6,,,,,,,,,3,1.4860980619996553,,,030,001,2019_May_14_1410,MusicAffectPsychophysiology2019,3.0.5,59.82184086699928,
To what extent did the music make you feel ,SAD,30MonoWAV/30MonoT2.wav,2,1,4,14,,,,,1,2,18,13,0,11,11,0,,,,,,,,,3,1.6689330600056564,,,030,001,2019_May_14_1410,MusicAffectPsychophysiology2019,3.0.5,59.82184086699928,
,,30MonoWAV/30MonoT2.wav,2,1,4,14,,,,,1,2,18,13,,,,,,,,,,,,,,,,,030,001,2019_May_14_1410,MusicAffectPsychophysiology2019,3.0.5,59.82184086699928,
To what extent did the music make you feel ,SAD,30MonoWAV/30MonoS1.wav,1,1,3,9,,,,,1,3,19,8,0,0,0,0,,,2,6.883457274001557,2,1.2522807019995525,3,1.668491226999322,3,2.201556015992537,,,030,001,2019_May_14_1410,MusicAffectPsychophysiology2019,3.0.5,59.82184086699928,
To what extent did the music make you feel ,HAPPY,30MonoWAV/30MonoS1.wav,1,1,3,9,,,,,1,3,19,8,0,1,1,6,,,,,,,,,1,1.067983827990247,,,030,001,2019_May_14_1410,MusicAffectPsychophysiology2019,3.0.5,59.82184086699928,
To what extent did the music make you feel ,ANXIOUS ,30MonoWAV/30MonoS1.wav,1,1,3,9,,,,,1,3,19,8,0,2,2,1,,,,,,,,,2,1.3846721750014694,,,030,001,2019_May_14_1410,MusicAffectPsychophysiology2019,3.0.5,59.82184086699928,
To what extent did the music make you feel ,FRUSTRATED,30MonoWAV/30MonoS1.wav,1,1,3,9,,,,,1,3,19,8,0,3,3,3,,,,,,,,,1,1.3025267610064475,,,030,001,2019_May_14_1410,MusicAffectPsychophysiology2019,3.0.5,59.82184086699928,
To what extent did the music make you feel ,TENDER,30MonoWAV/30MonoS1.wav,1,1,3,9,,,,,1,3,19,8,0,4,4,10,,,,,,,,,2,0.9854388710082276,,,030,001,2019_May_14_1410,MusicAffectPsychophysiology2019,3.0.5,59.82184086699928,
To what extent did the music make you feel ,ANGRY,30MonoWAV/30MonoS1.wav,1,1,3,9,,,,,1,3,19,8,0,5,5,2,,,,,,,,,1,1.0347334580001188,,,030,001,2019_May_14_1410,MusicAffectPsychophysiology2019,3.0.5,59.82184086699928,
To what extent did the music make you feel ,ACTIVE,30MonoWAV/30MonoS1.wav,1,1,3,9,,,,,1,3,19,8,0,6,6,9,,,,,,,,,2,1.0520254019938875,,,030,001,2019_May_14_1410,MusicAffectPsychophysiology2019,3.0.5,59.82184086699928,
To what extent did the music make you feel ,ALERT,30MonoWAV/30MonoS1.wav,1,1,3,9,,,,,1,3,19,8,0,7,7,8,,,,,,,,,2,1.1168795620033052,,,030,001,2019_May_14_1410,MusicAffectPsychophysiology2019,3.0.5,59.82184086699928,
To what extent did the music make you feel ,SCARED,30MonoWAV/30MonoS1.wav,1,1,3,9,,,,,1,3,19,8,0,8,8,11,,,,,,,,,3,1.5034492480044719,,,030,001,2019_May_14_1410,MusicAffectPsychophysiology2019,3.0.5,59.82184086699928,
To what extent did the music make you feel ,ASHAMED,30MonoWAV/30MonoS1.wav,1,1,3,9,,,,,1,3,19,8,0,9,9,4,,,,,,,,,2,1.670525430003181,,,030,001,2019_May_14_1410,MusicAffectPsychophysiology2019,3.0.5,59.82184086699928,
To what extent did the music make you feel ,EXCITED,30MonoWAV/30MonoS1.wav,1,1,3,9,,,,,1,3,19,8,0,10,10,7,,,,,,,,,1,1.1360641659994144,,,030,001,2019_May_14_1410,MusicAffectPsychophysiology2019,3.0.5,59.82184086699928,
To what extent did the music make you feel ,GUILTY,30MonoWAV/30MonoS1.wav,1,1,3,9,,,,,1,3,19,8,0,11,11,5,,,,,,,,,2,1.0188265820033848,,,030,001,2019_May_14_1410,MusicAffectPsychophysiology2019,3.0.5,59.82184086699928,
,,30MonoWAV/30MonoS1.wav,1,1,3,9,,,,,1,3,19,8,,,,,,,,,,,,,,,,,030,001,2019_May_14_1410,MusicAffectPsychophysiology2019,3.0.5,59.82184086699928,
To what extent did the music make you feel ,ANXIOUS ,30MonoWAV/30MonoH2.wav,2,2,1,6,,,,,1,4,20,5,0,0,0,1,,,3,2.899615886999527,3,1.4686656609992497,3,1.3197078099910868,2,1.4351734270021552,,,030,001,2019_May_14_1410,MusicAffectPsychophysiology2019,3.0.5,59.82184086699928,
To what extent did the music make you feel ,HAPPY,30MonoWAV/30MonoH2.wav,2,2,1,6,,,,,1,4,20,5,0,1,1,6,,,,,,,,,2,1.835857953003142,,,030,001,2019_May_14_1410,MusicAffectPsychophysiology2019,3.0.5,59.82184086699928,
To what extent did the music make you feel ,SCARED,30MonoWAV/30MonoH2.wav,2,2,1,6,,,,,1,4,20,5,0,2,2,11,,,,,,,,,2,0.9185700649977662,,,030,001,2019_May_14_1410,MusicAffectPsychophysiology2019,3.0.5,59.82184086699928,
To what extent did the music make you feel ,GUILTY,30MonoWAV/30MonoH2.wav,2,2,1,6,,,,,1,4,20,5,0,3,3,5,,,,,,,,,2,1.1683049150014995,,,030,001,2019_May_14_1410,MusicAffectPsychophysiology2019,3.0.5,59.82184086699928,
To what extent did the music make you feel ,SAD,30MonoWAV/30MonoH2.wav,2,2,1,6,,,,,1,4,20,5,0,4,4,0,,,,,,,,,2,1.1687182049936382,,,030,001,2019_May_14_1410,MusicAffectPsychophysiology2019,3.0.5,59.82184086699928,
To what extent did the music make you feel ,ASHAMED,30MonoWAV/30MonoH2.wav,2,2,1,6,,,,,1,4,20,5,0,5,5,4,,,,,,,,,2,1.2504849429969909,,,030,001,2019_May_14_1410,MusicAffectPsychophysiology2019,3.0.5,59.82184086699928,
To what extent did the music make you feel ,TENDER,30MonoWAV/30MonoH2.wav,2,2,1,6,,,,,1,4,20,5,0,6,6,10,,,,,,,,,2,1.2845057990052737,,,030,001,2019_May_14_1410,MusicAffectPsychophysiology2019,3.0.5,59.82184086699928,
To what extent did the music make you feel ,ANGRY,30MonoWAV/30MonoH2.wav,2,2,1,6,,,,,1,4,20,5,0,7,7,2,,,,,,,,,1,1.617280676990049,,,030,001,2019_May_14_1410,MusicAffectPsychophysiology2019,3.0.5,59.82184086699928,
To what extent did the music make you feel ,FRUSTRATED,30MonoWAV/30MonoH2.wav,2,2,1,6,,,,,1,4,20,5,0,8,8,3,,,,,,,,,1,0.7670592869981192,,,030,001,2019_May_14_1410,MusicAffectPsychophysiology2019,3.0.5,59.82184086699928,
To what extent did the music make you feel ,ACTIVE,30MonoWAV/30MonoH2.wav,2,2,1,6,,,,,1,4,20,5,0,9,9,9,,,,,,,,,2,1.7502457660011714,,,030,001,2019_May_14_1410,MusicAffectPsychophysiology2019,3.0.5,59.82184086699928,
To what extent did the music make you feel ,EXCITED,30MonoWAV/30MonoH2.wav,2,2,1,6,,,,,1,4,20,5,0,10,10,7,,,,,,,,,1,1.4349918219959363,,,030,001,2019_May_14_1410,MusicAffectPsychophysiology2019,3.0.5,59.82184086699928,
To what extent did the music make you feel ,ALERT,30MonoWAV/30MonoH2.wav,2,2,1,6,,,,,1,4,20,5,0,11,11,8,,,,,,,,,2,1.9380695660074707,,,030,001,2019_May_14_1410,MusicAffectPsychophysiology2019,3.0.5,59.82184086699928,
,,30MonoWAV/30MonoH2.wav,2,2,1,6,,,,,1,4,20,5,,,,,,,,,,,,,,,,,030,001,2019_May_14_1410,MusicAffectPsychophysiology2019,3.0.5,59.82184086699928,
To what extent did the music make you feel ,EXCITED,30MonoWAV/30MonoH3.wav,2,2,1,7,,,,,1,5,21,6,0,0,0,7,,,3,5.034387837993563,3,1.101681649000966,3,1.1345506069919793,3,1.2164844510116382,,,030,001,2019_May_14_1410,MusicAffectPsychophysiology2019,3.0.5,59.82184086699928,
To what extent did the music make you feel ,ANXIOUS ,30MonoWAV/30MonoH3.wav,2,2,1,7,,,,,1,5,21,6,0,1,1,1,,,,,,,,,1,1.2187978720030515,,,030,001,2019_May_14_1410,MusicAffectPsychophysiology2019,3.0.5,59.82184086699928,
To what extent did the music make you feel ,HAPPY,30MonoWAV/30MonoH3.wav,2,2,1,7,,,,,1,5,21,6,0,2,2,6,,,,,,,,,3,1.3018157000042265,,,030,001,2019_May_14_1410,MusicAffectPsychophysiology2019,3.0.5,59.82184086699928,
To what extent did the music make you feel ,FRUSTRATED,30MonoWAV/30MonoH3.wav,2,2,1,7,,,,,1,5,21,6,0,3,3,3,,,,,,,,,1,1.3350990480103064,,,030,001,2019_May_14_1410,MusicAffectPsychophysiology2019,3.0.5,59.82184086699928,
To what extent did the music make you feel ,SAD,30MonoWAV/30MonoH3.wav,2,2,1,7,,,,,1,5,21,6,0,4,4,0,,,,,,,,,1,1.3356958819931606,,,030,001,2019_May_14_1410,MusicAffectPsychophysiology2019,3.0.5,59.82184086699928,
To what extent did the music make you feel ,ASHAMED,30MonoWAV/30MonoH3.wav,2,2,1,7,,,,,1,5,21,6,0,5,5,4,,,,,,,,,1,1.352217172010569,,,030,001,2019_May_14_1410,MusicAffectPsychophysiology2019,3.0.5,59.82184086699928,
To what extent did the music make you feel ,ANGRY,30MonoWAV/30MonoH3.wav,2,2,1,7,,,,,1,5,21,6,0,6,6,2,,,,,,,,,1,1.0008586960029788,,,030,001,2019_May_14_1410,MusicAffectPsychophysiology2019,3.0.5,59.82184086699928,
To what extent did the music make you feel ,ALERT,30MonoWAV/30MonoH3.wav,2,2,1,7,,,,,1,5,21,6,0,7,7,8,,,,,,,,,2,1.3520093559927773,,,030,001,2019_May_14_1410,MusicAffectPsychophysiology2019,3.0.5,59.82184086699928,
To what extent did the music make you feel ,SCARED,30MonoWAV/30MonoH3.wav,2,2,1,7,,,,,1,5,21,6,0,8,8,11,,,,,,,,,1,1.5678876979945926,,,030,001,2019_May_14_1410,MusicAffectPsychophysiology2019,3.0.5,59.82184086699928,
To what extent did the music make you feel ,TENDER,30MonoWAV/30MonoH3.wav,2,2,1,7,,,,,1,5,21,6,0,9,9,10,,,,,,,,,2,1.1696587609912967,,,030,001,2019_May_14_1410,MusicAffectPsychophysiology2019,3.0.5,59.82184086699928,
To what extent did the music make you feel ,GUILTY,30MonoWAV/30MonoH3.wav,2,2,1,7,,,,,1,5,21,6,0,10,10,5,,,,,,,,,1,1.417757643997902,,,030,001,2019_May_14_1410,MusicAffectPsychophysiology2019,3.0.5,59.82184086699928,
To what extent did the music make you feel ,ACTIVE,30MonoWAV/30MonoH3.wav,2,2,1,7,,,,,1,5,21,6,0,11,11,9,,,,,,,,,2,3.374988156996551,,,030,001,2019_May_14_1410,MusicAffectPsychophysiology2019,3.0.5,59.82184086699928,
,,30MonoWAV/30MonoH3.wav,2,2,1,7,,,,,1,5,21,6,,,,,,,,,,,,,,,,,030,001,2019_May_14_1410,MusicAffectPsychophysiology2019,3.0.5,59.82184086699928,
To what extent did the music make you feel ,FRUSTRATED,30MonoWAV/30MonoF4.wav,1,2,2,4,,,,,1,6,22,3,0,0,0,3,,,4,3.523475038993638,3,2.6179132079996634,4,0.9683837190095801,1,2.4252684230013983,,,030,001,2019_May_14_1410,MusicAffectPsychophysiology2019,3.0.5,59.82184086699928,
To what extent did the music make you feel ,HAPPY,30MonoWAV/30MonoF4.wav,1,2,2,4,,,,,1,6,22,3,0,1,1,6,,,,,,,,,2,3.038652991002891,,,030,001,2019_May_14_1410,MusicAffectPsychophysiology2019,3.0.5,59.82184086699928,
To what extent did the music make you feel ,ALERT,30MonoWAV/30MonoF4.wav,1,2,2,4,,,,,1,6,22,3,0,2,2,8,,,,,,,,,4,1.6029730810114415,,,030,001,2019_May_14_1410,MusicAffectPsychophysiology2019,3.0.5,59.82184086699928,
To what extent did the music make you feel ,GUILTY,30MonoWAV/30MonoF4.wav,1,2,2,4,,,,,1,6,22,3,0,3,3,5,,,,,,,,,1,2.3230908349942183,,,030,001,2019_May_14_1410,MusicAffectPsychophysiology2019,3.0.5,59.82184086699928,
To what extent did the music make you feel ,ACTIVE,30MonoWAV/30MonoF4.wav,1,2,2,4,,,,,1,6,22,3,0,4,4,9,,,,,,,,,3,1.4360650030139368,,,030,001,2019_May_14_1410,MusicAffectPsychophysiology2019,3.0.5,59.82184086699928,
To what extent did the music make you feel ,ASHAMED,30MonoWAV/30MonoF4.wav,1,2,2,4,,,,,1,6,22,3,0,5,5,4,,,,,,,,,1,1.3850603419996332,,,030,001,2019_May_14_1410,MusicAffectPsychophysiology2019,3.0.5,59.82184086699928,
To what extent did the music make you feel ,ANGRY,30MonoWAV/30MonoF4.wav,1,2,2,4,,,,,1,6,22,3,0,6,6,2,,,,,,,,,1,0.9526592930051265,,,030,001,2019_May_14_1410,MusicAffectPsychophysiology2019,3.0.5,59.82184086699928,
To what extent did the music make you feel ,EXCITED,30MonoWAV/30MonoF4.wav,1,2,2,4,,,,,1,6,22,3,0,7,7,7,,,,,,,,,3,1.4347883539885515,,,030,001,2019_May_14_1410,MusicAffectPsychophysiology2019,3.0.5,59.82184086699928,
To what extent did the music make you feel ,TENDER,30MonoWAV/30MonoF4.wav,1,2,2,4,,,,,1,6,22,3,0,8,8,10,,,,,,,,,1,1.1353544710000278,,,030,001,2019_May_14_1410,MusicAffectPsychophysiology2019,3.0.5,59.82184086699928,
To what extent did the music make you feel ,SCARED,30MonoWAV/30MonoF4.wav,1,2,2,4,,,,,1,6,22,3,0,9,9,11,,,,,,,,,1,3.1451705630024662,,,030,001,2019_May_14_1410,MusicAffectPsychophysiology2019,3.0.5,59.82184086699928,
To what extent did the music make you feel ,SAD,30MonoWAV/30MonoF4.wav,1,2,2,4,,,,,1,6,22,3,0,10,10,0,,,,,,,,,1,1.2205045339942444,,,030,001,2019_May_14_1410,MusicAffectPsychophysiology2019,3.0.5,59.82184086699928,
To what extent did the music make you feel ,ANXIOUS ,30MonoWAV/30MonoF4.wav,1,2,2,4,,,,,1,6,22,3,0,11,11,1,,,,,,,,,1,2.3746360649965936,,,030,001,2019_May_14_1410,MusicAffectPsychophysiology2019,3.0.5,59.82184086699928,
,,30MonoWAV/30MonoF4.wav,1,2,2,4,,,,,1,6,22,3,,,,,,,,,,,,,,,,,030,001,2019_May_14_1410,MusicAffectPsychophysiology2019,3.0.5,59.82184086699928,
To what extent did the music make you feel ,FRUSTRATED,30MonoWAV/30MonoT3.wav,2,1,4,15,,,,,1,7,23,14,0,0,0,3,,,2,3.4015917029901175,2,1.5028189439908601,3,1.8356350139947608,1,1.9409733369975584,,,030,001,2019_May_14_1410,MusicAffectPsychophysiology2019,3.0.5,59.82184086699928,
To what extent did the music make you feel ,SCARED,30MonoWAV/30MonoT3.wav,2,1,4,15,,,,,1,7,23,14,0,1,1,11,,,,,,,,,1,0.9680257519939914,,,030,001,2019_May_14_1410,MusicAffectPsychophysiology2019,3.0.5,59.82184086699928,
To what extent did the music make you feel ,ASHAMED,30MonoWAV/30MonoT3.wav,2,1,4,15,,,,,1,7,23,14,0,2,2,4,,,,,,,,,2,1.0347344260080718,,,030,001,2019_May_14_1410,MusicAffectPsychophysiology2019,3.0.5,59.82184086699928,
To what extent did the music make you feel ,ACTIVE,30MonoWAV/30MonoT3.wav,2,1,4,15,,,,,1,7,23,14,0,3,3,9,,,,,,,,,1,0.936091060997569,,,030,001,2019_May_14_1410,MusicAffectPsychophysiology2019,3.0.5,59.82184086699928,
To what extent did the music make you feel ,GUILTY,30MonoWAV/30MonoT3.wav,2,1,4,15,,,,,1,7,23,14,0,4,4,5,,,,,,,,,2,0.9863842630002182,,,030,001,2019_May_14_1410,MusicAffectPsychophysiology2019,3.0.5,59.82184086699928,
To what extent did the music make you feel ,HAPPY,30MonoWAV/30MonoT3.wav,2,1,4,15,,,,,1,7,23,14,0,5,5,6,,,,,,,,,1,0.9019904050073819,,,030,001,2019_May_14_1410,MusicAffectPsychophysiology2019,3.0.5,59.82184086699928,
To what extent did the music make you feel ,ANGRY,30MonoWAV/30MonoT3.wav,2,1,4,15,,,,,1,7,23,14,0,6,6,2,,,,,,,,,1,1.0685968199977651,,,030,001,2019_May_14_1410,MusicAffectPsychophysiology2019,3.0.5,59.82184086699928,
To what extent did the music make you feel ,ALERT,30MonoWAV/30MonoT3.wav,2,1,4,15,,,,,1,7,23,14,0,7,7,8,,,,,,,,,2,1.2851376340113347,,,030,001,2019_May_14_1410,MusicAffectPsychophysiology2019,3.0.5,59.82184086699928,
To what extent did the music make you feel ,SAD,30MonoWAV/30MonoT3.wav,2,1,4,15,,,,,1,7,23,14,0,8,8,0,,,,,,,,,3,1.2515485750045627,,,030,001,2019_May_14_1410,MusicAffectPsychophysiology2019,3.0.5,59.82184086699928,
To what extent did the music make you feel ,TENDER,30MonoWAV/30MonoT3.wav,2,1,4,15,,,,,1,7,23,14,0,9,9,10,,,,,,,,,2,0.9839182430005167,,,030,001,2019_May_14_1410,MusicAffectPsychophysiology2019,3.0.5,59.82184086699928,
To what extent did the music make you feel ,EXCITED,30MonoWAV/30MonoT3.wav,2,1,4,15,,,,,1,7,23,14,0,10,10,7,,,,,,,,,1,0.9845573740021791,,,030,001,2019_May_14_1410,MusicAffectPsychophysiology2019,3.0.5,59.82184086699928,
To what extent did the music make you feel ,ANXIOUS ,30MonoWAV/30MonoT3.wav,2,1,4,15,,,,,1,7,23,14,0,11,11,1,,,,,,,,,2,0.9514589019963751,,,030,001,2019_May_14_1410,MusicAffectPsychophysiology2019,3.0.5,59.82184086699928,
,,30MonoWAV/30MonoT3.wav,2,1,4,15,,,,,1,7,23,14,,,,,,,,,,,,,,,,,030,001,2019_May_14_1410,MusicAffectPsychophysiology2019,3.0.5,59.82184086699928,
To what extent did the music make you feel ,ANGRY,30MonoWAV/30MonoS3.wav,1,1,3,11,,,,,1,8,24,10,0,0,0,2,,,2,3.5024663469957886,2,0.16868808199069463,3,1.8836934009887045,1,2.4011044149956433,,,030,001,2019_May_14_1410,MusicAffectPsychophysiology2019,3.0.5,59.82184086699928,
To what extent did the music make you feel ,HAPPY,30MonoWAV/30MonoS3.wav,1,1,3,11,,,,,1,8,24,10,0,1,1,6,,,,,,,,,1,0.9681636989989784,,,030,001,2019_May_14_1410,MusicAffectPsychophysiology2019,3.0.5,59.82184086699928,
To what extent did the music make you feel ,EXCITED,30MonoWAV/30MonoS3.wav,1,1,3,11,,,,,1,8,24,10,0,2,2,7,,,,,,,,,2,1.1518597530084662,,,030,001,2019_May_14_1410,MusicAffectPsychophysiology2019,3.0.5,59.82184086699928,
To what extent did the music make you feel ,GUILTY,30MonoWAV/30MonoS3.wav,1,1,3,11,,,,,1,8,24,10,0,3,3,5,,,,,,,,,2,0.9849768040003255,,,030,001,2019_May_14_1410,MusicAffectPsychophysiology2019,3.0.5,59.82184086699928,
To what extent did the music make you feel ,SCARED,30MonoWAV/30MonoS3.wav,1,1,3,11,,,,,1,8,24,10,0,4,4,11,,,,,,,,,2,1.2848130589991342,,,030,001,2019_May_14_1410,MusicAffectPsychophysiology2019,3.0.5,59.82184086699928,
To what extent did the music make you feel ,ASHAMED,30MonoWAV/30MonoS3.wav,1,1,3,11,,,,,1,8,24,10,0,5,5,4,,,,,,,,,2,0.9341135279973969,,,030,001,2019_May_14_1410,MusicAffectPsychophysiology2019,3.0.5,59.82184086699928,
To what extent did the music make you feel ,SAD,30MonoWAV/30MonoS3.wav,1,1,3,11,,,,,1,8,24,10,0,6,6,0,,,,,,,,,3,0.968732474007993,,,030,001,2019_May_14_1410,MusicAffectPsychophysiology2019,3.0.5,59.82184086699928,
To what extent did the music make you feel ,ACTIVE,30MonoWAV/30MonoS3.wav,1,1,3,11,,,,,1,8,24,10,0,7,7,9,,,,,,,,,1,1.7347132959985174,,,030,001,2019_May_14_1410,MusicAffectPsychophysiology2019,3.0.5,59.82184086699928,
To what extent did the music make you feel ,TENDER,30MonoWAV/30MonoS3.wav,1,1,3,11,,,,,1,8,24,10,0,8,8,10,,,,,,,,,2,0.868055512997671,,,030,001,2019_May_14_1410,MusicAffectPsychophysiology2019,3.0.5,59.82184086699928,
To what extent did the music make you feel ,ALERT,30MonoWAV/30MonoS3.wav,1,1,3,11,,,,,1,8,24,10,0,9,9,8,,,,,,,,,3,1.523806848010281,,,030,001,2019_May_14_1410,MusicAffectPsychophysiology2019,3.0.5,59.82184086699928,
To what extent did the music make you feel ,FRUSTRATED,30MonoWAV/30MonoS3.wav,1,1,3,11,,,,,1,8,24,10,0,10,10,3,,,,,,,,,1,1.1366390039911494,,,030,001,2019_May_14_1410,MusicAffectPsychophysiology2019,3.0.5,59.82184086699928,
To what extent did the music make you feel ,ANXIOUS ,30MonoWAV/30MonoS3.wav,1,1,3,11,,,,,1,8,24,10,0,11,11,1,,,,,,,,,2,1.5540432870038785,,,030,001,2019_May_14_1410,MusicAffectPsychophysiology2019,3.0.5,59.82184086699928,
,,30MonoWAV/30MonoS3.wav,1,1,3,11,,,,,1,8,24,10,,,,,,,,,,,,,,,,,030,001,2019_May_14_1410,MusicAffectPsychophysiology2019,3.0.5,59.82184086699928,
To what extent did the music make you feel ,ASHAMED,30MonoWAV/30MonoT1.wav,2,1,4,13,,,,,1,9,25,12,0,0,0,4,,,2,5.900976173012168,2,0.46871017100056633,2,0.8686100759950932,2,2.102601033009705,,,030,001,2019_May_14_1410,MusicAffectPsychophysiology2019,3.0.5,59.82184086699928,
To what extent did the music make you feel ,ALERT,30MonoWAV/30MonoT1.wav,2,1,4,13,,,,,1,9,25,12,0,1,1,8,,,,,,,,,2,1.0181237100041471,,,030,001,2019_May_14_1410,MusicAffectPsychophysiology2019,3.0.5,59.82184086699928,
To what extent did the music make you feel ,GUILTY,30MonoWAV/30MonoT1.wav,2,1,4,13,,,,,1,9,25,12,0,2,2,5,,,,,,,,,2,0.8187315600080183,,,030,001,2019_May_14_1410,MusicAffectPsychophysiology2019,3.0.5,59.82184086699928,
To what extent did the music make you feel ,SCARED,30MonoWAV/30MonoT1.wav,2,1,4,13,,,,,1,9,25,12,0,3,3,11,,,,,,,,,2,0.9689651439985028,,,030,001,2019_May_14_1410,MusicAffectPsychophysiology2019,3.0.5,59.82184086699928,
To what extent did the music make you feel ,ACTIVE,30MonoWAV/30MonoT1.wav,2,1,4,13,,,,,1,9,25,12,0,4,4,9,,,,,,,,,1,1.8017383109981893,,,030,001,2019_May_14_1410,MusicAffectPsychophysiology2019,3.0.5,59.82184086699928,
To what extent did the music make you feel ,ANXIOUS ,30MonoWAV/30MonoT1.wav,2,1,4,13,,,,,1,9,25,12,0,5,5,1,,,,,,,,,2,0.9352297419973183,,,030,001,2019_May_14_1410,MusicAffectPsychophysiology2019,3.0.5,59.82184086699928,
To what extent did the music make you feel ,HAPPY,30MonoWAV/30MonoT1.wav,2,1,4,13,,,,,1,9,25,12,0,6,6,6,,,,,,,,,2,1.1018267720064614,,,030,001,2019_May_14_1410,MusicAffectPsychophysiology2019,3.0.5,59.82184086699928,
To what extent did the music make you feel ,EXCITED,30MonoWAV/30MonoT1.wav,2,1,4,13,,,,,1,9,25,12,0,7,7,7,,,,,,,,,1,1.1855431469884934,,,030,001,2019_May_14_1410,MusicAffectPsychophysiology2019,3.0.5,59.82184086699928,
To what extent did the music make you feel ,ANGRY,30MonoWAV/30MonoT1.wav,2,1,4,13,,,,,1,9,25,12,0,8,8,2,,,,,,,,,1,3.8852362379984697,,,030,001,2019_May_14_1410,MusicAffectPsychophysiology2019,3.0.5,59.82184086699928,
To what extent did the music make you feel ,SAD,30MonoWAV/30MonoT1.wav,2,1,4,13,,,,,1,9,25,12,0,9,9,0,,,,,,,,,3,2.036442583994358,,,030,001,2019_May_14_1410,MusicAffectPsychophysiology2019,3.0.5,59.82184086699928,
To what extent did the music make you feel ,FRUSTRATED,30MonoWAV/30MonoT1.wav,2,1,4,13,,,,,1,9,25,12,0,10,10,3,,,,,,,,,1,1.5007000759942457,,,030,001,2019_May_14_1410,MusicAffectPsychophysiology2019,3.0.5,59.82184086699928,
To what extent did the music make you feel ,TENDER,30MonoWAV/30MonoT1.wav,2,1,4,13,,,,,1,9,25,12,0,11,11,10,,,,,,,,,2,0.8346012469992274,,,030,001,2019_May_14_1410,MusicAffectPsychophysiology2019,3.0.5,59.82184086699928,
,,30MonoWAV/30MonoT1.wav,2,1,4,13,,,,,1,9,25,12,,,,,,,,,,,,,,,,,030,001,2019_May_14_1410,MusicAffectPsychophysiology2019,3.0.5,59.82184086699928,
To what extent did the music make you feel ,TENDER,30MonoWAV/30MonoH1.wav,2,2,1,5,,,,,1,10,26,4,0,0,0,10,,,3,3.8861754819954513,3,1.1510567310033366,3,1.001919276008266,1,2.1192053920094622,,,030,001,2019_May_14_1410,MusicAffectPsychophysiology2019,3.0.5,59.82184086699928,
To what extent did the music make you feel ,HAPPY,30MonoWAV/30MonoH1.wav,2,2,1,5,,,,,1,10,26,4,0,1,1,6,,,,,,,,,3,1.2674537979910383,,,030,001,2019_May_14_1410,MusicAffectPsychophysiology2019,3.0.5,59.82184086699928,
To what extent did the music make you feel ,EXCITED,30MonoWAV/30MonoH1.wav,2,2,1,5,,,,,1,10,26,4,0,2,2,7,,,,,,,,,3,1.2016535599977942,,,030,001,2019_May_14_1410,MusicAffectPsychophysiology2019,3.0.5,59.82184086699928,
To what extent did the music make you feel ,SCARED,30MonoWAV/30MonoH1.wav,2,2,1,5,,,,,1,10,26,4,0,3,3,11,,,,,,,,,1,1.0174028590117814,,,030,001,2019_May_14_1410,MusicAffectPsychophysiology2019,3.0.5,59.82184086699928,
To what extent did the music make you feel ,FRUSTRATED,30MonoWAV/30MonoH1.wav,2,2,1,5,,,,,1,10,26,4,0,4,4,3,,,,,,,,,1,0.9016248300031293,,,030,001,2019_May_14_1410,MusicAffectPsychophysiology2019,3.0.5,59.82184086699928,
To what extent did the music make you feel ,SAD,30MonoWAV/30MonoH1.wav,2,2,1,5,,,,,1,10,26,4,0,5,5,0,,,,,,,,,1,0.9007620269985637,,,030,001,2019_May_14_1410,MusicAffectPsychophysiology2019,3.0.5,59.82184086699928,
To what extent did the music make you feel ,ACTIVE,30MonoWAV/30MonoH1.wav,2,2,1,5,,,,,1,10,26,4,0,6,6,9,,,,,,,,,3,0.9847624099929817,,,030,001,2019_May_14_1410,MusicAffectPsychophysiology2019,3.0.5,59.82184086699928,
To what extent did the music make you feel ,GUILTY,30MonoWAV/30MonoH1.wav,2,2,1,5,,,,,1,10,26,4,0,7,7,5,,,,,,,,,1,0.9350789279997116,,,030,001,2019_May_14_1410,MusicAffectPsychophysiology2019,3.0.5,59.82184086699928,
To what extent did the music make you feel ,ASHAMED,30MonoWAV/30MonoH1.wav,2,2,1,5,,,,,1,10,26,4,0,8,8,4,,,,,,,,,1,0.9522351449995767,,,030,001,2019_May_14_1410,MusicAffectPsychophysiology2019,3.0.5,59.82184086699928,
To what extent did the music make you feel ,ANGRY,30MonoWAV/30MonoH1.wav,2,2,1,5,,,,,1,10,26,4,0,9,9,2,,,,,,,,,1,0.9693485110037727,,,030,001,2019_May_14_1410,MusicAffectPsychophysiology2019,3.0.5,59.82184086699928,
To what extent did the music make you feel ,ANXIOUS ,30MonoWAV/30MonoH1.wav,2,2,1,5,,,,,1,10,26,4,0,10,10,1,,,,,,,,,1,0.9683679550071247,,,030,001,2019_May_14_1410,MusicAffectPsychophysiology2019,3.0.5,59.82184086699928,
To what extent did the music make you feel ,ALERT,30MonoWAV/30MonoH1.wav,2,2,1,5,,,,,1,10,26,4,0,11,11,8,,,,,,,,,2,1.251711279997835,,,030,001,2019_May_14_1410,MusicAffectPsychophysiology2019,3.0.5,59.82184086699928,
,,30MonoWAV/30MonoH1.wav,2,2,1,5,,,,,1,10,26,4,,,,,,,,,,,,,,,,,030,001,2019_May_14_1410,MusicAffectPsychophysiology2019,3.0.5,59.82184086699928,
To what extent did the music make you feel ,GUILTY,30MonoWAV/30MonoS2.wav,1,1,3,10,,,,,1,11,27,9,0,0,0,5,,,2,3.1693776009924477,2,1.6348523579945322,3,1.6858834809972905,2,2.4191261920059333,,,030,001,2019_May_14_1410,MusicAffectPsychophysiology2019,3.0.5,59.82184086699928,
To what extent did the music make you feel ,ANXIOUS ,30MonoWAV/30MonoS2.wav,1,1,3,10,,,,,1,11,27,9,0,1,1,1,,,,,,,,,2,0.9856004119938007,,,030,001,2019_May_14_1410,MusicAffectPsychophysiology2019,3.0.5,59.82184086699928,
To what extent did the music make you feel ,ASHAMED,30MonoWAV/30MonoS2.wav,1,1,3,10,,,,,1,11,27,9,0,2,2,4,,,,,,,,,2,0.9181674930005101,,,030,001,2019_May_14_1410,MusicAffectPsychophysiology2019,3.0.5,59.82184086699928,
To what extent did the music make you feel ,SAD,30MonoWAV/30MonoS2.wav,1,1,3,10,,,,,1,11,27,9,0,3,3,0,,,,,,,,,3,0.9854469370038714,,,030,001,2019_May_14_1410,MusicAffectPsychophysiology2019,3.0.5,59.82184086699928,
To what extent did the music make you feel ,TENDER,30MonoWAV/30MonoS2.wav,1,1,3,10,,,,,1,11,27,9,0,4,4,10,,,,,,,,,2,0.9190648619987769,,,030,001,2019_May_14_1410,MusicAffectPsychophysiology2019,3.0.5,59.82184086699928,
To what extent did the music make you feel ,FRUSTRATED,30MonoWAV/30MonoS2.wav,1,1,3,10,,,,,1,11,27,9,0,5,5,3,,,,,,,,,1,0.969092024010024,,,030,001,2019_May_14_1410,MusicAffectPsychophysiology2019,3.0.5,59.82184086699928,
To what extent did the music make you feel ,HAPPY,30MonoWAV/30MonoS2.wav,1,1,3,10,,,,,1,11,27,9,0,6,6,6,,,,,,,,,1,0.9836304539931007,,,030,001,2019_May_14_1410,MusicAffectPsychophysiology2019,3.0.5,59.82184086699928,
To what extent did the music make you feel ,ALERT,30MonoWAV/30MonoS2.wav,1,1,3,10,,,,,1,11,27,9,0,7,7,8,,,,,,,,,1,1.868859980997513,,,030,001,2019_May_14_1410,MusicAffectPsychophysiology2019,3.0.5,59.82184086699928,
To what extent did the music make you feel ,SCARED,30MonoWAV/30MonoS2.wav,1,1,3,10,,,,,1,11,27,9,0,8,8,11,,,,,,,,,2,1.5856662330043036,,,030,001,2019_May_14_1410,MusicAffectPsychophysiology2019,3.0.5,59.82184086699928,
To what extent did the music make you feel ,EXCITED,30MonoWAV/30MonoS2.wav,1,1,3,10,,,,,1,11,27,9,0,9,9,7,,,,,,,,,1,0.8179185089975363,,,030,001,2019_May_14_1410,MusicAffectPsychophysiology2019,3.0.5,59.82184086699928,
To what extent did the music make you feel ,ANGRY,30MonoWAV/30MonoS2.wav,1,1,3,10,,,,,1,11,27,9,0,10,10,2,,,,,,,,,2,0.9695412400033092,,,030,001,2019_May_14_1410,MusicAffectPsychophysiology2019,3.0.5,59.82184086699928,
To what extent did the music make you feel ,ACTIVE,30MonoWAV/30MonoS2.wav,1,1,3,10,,,,,1,11,27,9,0,11,11,9,,,,,,,,,1,0.8686986279935809,,,030,001,2019_May_14_1410,MusicAffectPsychophysiology2019,3.0.5,59.82184086699928,
,,30MonoWAV/30MonoS2.wav,1,1,3,10,,,,,1,11,27,9,,,,,,,,,,,,,,,,,030,001,2019_May_14_1410,MusicAffectPsychophysiology2019,3.0.5,59.82184086699928,
To what extent did the music make you feel ,ANXIOUS ,30MonoWAV/30MonoT4.wav,2,1,4,16,,,,,1,12,28,15,0,0,0,1,,,3,3.8845952979900176,3,0.20066115701047238,3,1.2864076279947767,1,2.169082727006753,,,030,001,2019_May_14_1410,MusicAffectPsychophysiology2019,3.0.5,59.82184086699928,
To what extent did the music make you feel ,SAD,30MonoWAV/30MonoT4.wav,2,1,4,16,,,,,1,12,28,15,0,1,1,0,,,,,,,,,2,1.2184398389945272,,,030,001,2019_May_14_1410,MusicAffectPsychophysiology2019,3.0.5,59.82184086699928,
To what extent did the music make you feel ,EXCITED,30MonoWAV/30MonoT4.wav,2,1,4,16,,,,,1,12,28,15,0,2,2,7,,,,,,,,,2,1.0350780629960354,,,030,001,2019_May_14_1410,MusicAffectPsychophysiology2019,3.0.5,59.82184086699928,
To what extent did the music make you feel ,ACTIVE,30MonoWAV/30MonoT4.wav,2,1,4,16,,,,,1,12,28,15,0,3,3,9,,,,,,,,,2,0.23341920399980154,,,030,001,2019_May_14_1410,MusicAffectPsychophysiology2019,3.0.5,59.82184086699928,
To what extent did the music make you feel ,SCARED,30MonoWAV/30MonoT4.wav,2,1,4,16,,,,,1,12,28,15,0,4,4,11,,,,,,,,,1,1.2018463910062565,,,030,001,2019_May_14_1410,MusicAffectPsychophysiology2019,3.0.5,59.82184086699928,
To what extent did the music make you feel ,ALERT,30MonoWAV/30MonoT4.wav,2,1,4,16,,,,,1,12,28,15,0,5,5,8,,,,,,,,,2,0.8685145550116431,,,030,001,2019_May_14_1410,MusicAffectPsychophysiology2019,3.0.5,59.82184086699928,
To what extent did the music make you feel ,HAPPY,30MonoWAV/30MonoT4.wav,2,1,4,16,,,,,1,12,28,15,0,6,6,6,,,,,,,,,3,0.9851700010040076,,,030,001,2019_May_14_1410,MusicAffectPsychophysiology2019,3.0.5,59.82184086699928,
To what extent did the music make you feel ,ANGRY,30MonoWAV/30MonoT4.wav,2,1,4,16,,,,,1,12,28,15,0,7,7,2,,,,,,,,,1,0.9847893809928792,,,030,001,2019_May_14_1410,MusicAffectPsychophysiology2019,3.0.5,59.82184086699928,
To what extent did the music make you feel ,ASHAMED,30MonoWAV/30MonoT4.wav,2,1,4,16,,,,,1,12,28,15,0,8,8,4,,,,,,,,,1,1.0353165720007382,,,030,001,2019_May_14_1410,MusicAffectPsychophysiology2019,3.0.5,59.82184086699928,
To what extent did the music make you feel ,FRUSTRATED,30MonoWAV/30MonoT4.wav,2,1,4,16,,,,,1,12,28,15,0,9,9,3,,,,,,,,,1,0.9346737320011016,,,030,001,2019_May_14_1410,MusicAffectPsychophysiology2019,3.0.5,59.82184086699928,
To what extent did the music make you feel ,GUILTY,30MonoWAV/30MonoT4.wav,2,1,4,16,,,,,1,12,28,15,0,10,10,5,,,,,,,,,2,1.051870212002541,,,030,001,2019_May_14_1410,MusicAffectPsychophysiology2019,3.0.5,59.82184086699928,
To what extent did the music make you feel ,TENDER,30MonoWAV/30MonoT4.wav,2,1,4,16,,,,,1,12,28,15,0,11,11,10,,,,,,,,,2,0.9350027320033405,,,030,001,2019_May_14_1410,MusicAffectPsychophysiology2019,3.0.5,59.82184086699928,
,,30MonoWAV/30MonoT4.wav,2,1,4,16,,,,,1,12,28,15,,,,,,,,,,,,,,,,,030,001,2019_May_14_1410,MusicAffectPsychophysiology2019,3.0.5,59.82184086699928,
To what extent did the music make you feel ,SCARED,30MonoWAV/30MonoF1.wav,1,2,2,1,,,,,1,13,29,0,0,0,0,11,,,3,5.442794813003275,3,0.26855019701179117,3,0.28554057198925875,1,1.5864799929986475,,,030,001,2019_May_14_1410,MusicAffectPsychophysiology2019,3.0.5,59.82184086699928,
To what extent did the music make you feel ,FRUSTRATED,30MonoWAV/30MonoF1.wav,1,2,2,1,,,,,1,13,29,0,0,1,1,3,,,,,,,,,1,0.8358665839914465,,,030,001,2019_May_14_1410,MusicAffectPsychophysiology2019,3.0.5,59.82184086699928,
To what extent did the music make you feel ,ALERT,30MonoWAV/30MonoF1.wav,1,2,2,1,,,,,1,13,29,0,0,2,2,8,,,,,,,,,4,1.4714231160032796,,,030,001,2019_May_14_1410,MusicAffectPsychophysiology2019,3.0.5,59.82184086699928,
To what extent did the music make you feel ,ANXIOUS ,30MonoWAV/30MonoF1.wav,1,2,2,1,,,,,1,13,29,0,0,3,3,1,,,,,,,,,1,1.1165232399944216,,,030,001,2019_May_14_1410,MusicAffectPsychophysiology2019,3.0.5,59.82184086699928,
To what extent did the music make you feel ,TENDER,30MonoWAV/30MonoF1.wav,1,2,2,1,,,,,1,13,29,0,0,4,4,10,,,,,,,,,1,1.4844730059994617,,,030,001,2019_May_14_1410,MusicAffectPsychophysiology2019,3.0.5,59.82184086699928,
To what extent did the music make you feel ,SAD,30MonoWAV/30MonoF1.wav,1,2,2,1,,,,,1,13,29,0,0,5,5,0,,,,,,,,,1,0.9515671669942094,,,030,001,2019_May_14_1410,MusicAffectPsychophysiology2019,3.0.5,59.82184086699928,
To what extent did the music make you feel ,HAPPY,30MonoWAV/30MonoF1.wav,1,2,2,1,,,,,1,13,29,0,0,6,6,6,,,,,,,,,2,0.9836579190014163,,,030,001,2019_May_14_1410,MusicAffectPsychophysiology2019,3.0.5,59.82184086699928,
To what extent did the music make you feel ,ASHAMED,30MonoWAV/30MonoF1.wav,1,2,2,1,,,,,1,13,29,0,0,7,7,4,,,,,,,,,1,1.8234368310077116,,,030,001,2019_May_14_1410,MusicAffectPsychophysiology2019,3.0.5,59.82184086699928,
To what extent did the music make you feel ,GUILTY,30MonoWAV/30MonoF1.wav,1,2,2,1,,,,,1,13,29,0,0,8,8,5,,,,,,,,,1,1.120393042001524,,,030,001,2019_May_14_1410,MusicAffectPsychophysiology2019,3.0.5,59.82184086699928,
To what extent did the music make you feel ,ACTIVE,30MonoWAV/30MonoF1.wav,1,2,2,1,,,,,1,13,29,0,0,9,9,9,,,,,,,,,3,1.0866499199910322,,,030,001,2019_May_14_1410,MusicAffectPsychophysiology2019,3.0.5,59.82184086699928,
To what extent did the music make you feel ,EXCITED,30MonoWAV/30MonoF1.wav,1,2,2,1,,,,,1,13,29,0,0,10,10,7,,,,,,,,,3,0.9524808020069031,,,030,001,2019_May_14_1410,MusicAffectPsychophysiology2019,3.0.5,59.82184086699928,
To what extent did the music make you feel ,ANGRY,30MonoWAV/30MonoF1.wav,1,2,2,1,,,,,1,13,29,0,0,11,11,2,,,,,,,,,1,0.9361264409963042,,,030,001,2019_May_14_1410,MusicAffectPsychophysiology2019,3.0.5,59.82184086699928,
,,30MonoWAV/30MonoF1.wav,1,2,2,1,,,,,1,13,29,0,,,,,,,,,,,,,,,,,030,001,2019_May_14_1410,MusicAffectPsychophysiology2019,3.0.5,59.82184086699928,
To what extent did the music make you feel ,FRUSTRATED,30MonoWAV/30MonoH4.wav,2,2,1,8,,,,,1,14,30,7,0,0,0,3,,,3,7.667477801995119,3,1.301281817999552,3,0.4681499540020013,1,1.1685157439933391,,,030,001,2019_May_14_1410,MusicAffectPsychophysiology2019,3.0.5,59.82184086699928,
To what extent did the music make you feel ,ANGRY,30MonoWAV/30MonoH4.wav,2,2,1,8,,,,,1,14,30,7,0,1,1,2,,,,,,,,,1,0.9850142470095307,,,030,001,2019_May_14_1410,MusicAffectPsychophysiology2019,3.0.5,59.82184086699928,
To what extent did the music make you feel ,HAPPY,30MonoWAV/30MonoH4.wav,2,2,1,8,,,,,1,14,30,7,0,2,2,6,,,,,,,,,3,1.2187345889979042,,,030,001,2019_May_14_1410,MusicAffectPsychophysiology2019,3.0.5,59.82184086699928,
To what extent did the music make you feel ,GUILTY,30MonoWAV/30MonoH4.wav,2,2,1,8,,,,,1,14,30,7,0,3,3,5,,,,,,,,,1,0.9345216949877795,,,030,001,2019_May_14_1410,MusicAffectPsychophysiology2019,3.0.5,59.82184086699928,
To what extent did the music make you feel ,SAD,30MonoWAV/30MonoH4.wav,2,2,1,8,,,,,1,14,30,7,0,4,4,0,,,,,,,,,1,0.7676113600027747,,,030,001,2019_May_14_1410,MusicAffectPsychophysiology2019,3.0.5,59.82184086699928,
To what extent did the music make you feel ,ALERT,30MonoWAV/30MonoH4.wav,2,2,1,8,,,,,1,14,30,7,0,5,5,8,,,,,,,,,2,1.1168442760099424,,,030,001,2019_May_14_1410,MusicAffectPsychophysiology2019,3.0.5,59.82184086699928,
To what extent did the music make you feel ,ACTIVE,30MonoWAV/30MonoH4.wav,2,2,1,8,,,,,1,14,30,7,0,6,6,9,,,,,,,,,3,1.435401879993151,,,030,001,2019_May_14_1410,MusicAffectPsychophysiology2019,3.0.5,59.82184086699928,
To what extent did the music make you feel ,ANXIOUS ,30MonoWAV/30MonoH4.wav,2,2,1,8,,,,,1,14,30,7,0,7,7,1,,,,,,,,,1,1.118643232010072,,,030,001,2019_May_14_1410,MusicAffectPsychophysiology2019,3.0.5,59.82184086699928,
To what extent did the music make you feel ,EXCITED,30MonoWAV/30MonoH4.wav,2,2,1,8,,,,,1,14,30,7,0,8,8,7,,,,,,,,,3,1.0405104009987554,,,030,001,2019_May_14_1410,MusicAffectPsychophysiology2019,3.0.5,59.82184086699928,
To what extent did the music make you feel ,TENDER,30MonoWAV/30MonoH4.wav,2,2,1,8,,,,,1,14,30,7,0,9,9,10,,,,,,,,,1,1.5706641010037856,,,030,001,2019_May_14_1410,MusicAffectPsychophysiology2019,3.0.5,59.82184086699928,
To what extent did the music make you feel ,ASHAMED,30MonoWAV/30MonoH4.wav,2,2,1,8,,,,,1,14,30,7,0,10,10,4,,,,,,,,,1,0.9194405669986736,,,030,001,2019_May_14_1410,MusicAffectPsychophysiology2019,3.0.5,59.82184086699928,
To what extent did the music make you feel ,SCARED,30MonoWAV/30MonoH4.wav,2,2,1,8,,,,,1,14,30,7,0,11,11,11,,,,,,,,,1,0.7695687280065613,,,030,001,2019_May_14_1410,MusicAffectPsychophysiology2019,3.0.5,59.82184086699928,
,,30MonoWAV/30MonoH4.wav,2,2,1,8,,,,,1,14,30,7,,,,,,,,,,,,,,,,,030,001,2019_May_14_1410,MusicAffectPsychophysiology2019,3.0.5,59.82184086699928,
To what extent did the music make you feel ,TENDER,30MonoWAV/30MonoF2.wav,1,2,2,2,,,,,1,15,31,1,0,0,0,10,,,3,2.419520844996441,2,0.9015276650025044,3,1.3364516610017745,1,1.8865375390014378,,,030,001,2019_May_14_1410,MusicAffectPsychophysiology2019,3.0.5,59.82184086699928,
To what extent did the music make you feel ,ANXIOUS ,30MonoWAV/30MonoF2.wav,1,2,2,2,,,,,1,15,31,1,0,1,1,1,,,,,,,,,2,1.0359738320112228,,,030,001,2019_May_14_1410,MusicAffectPsychophysiology2019,3.0.5,59.82184086699928,
To what extent did the music make you feel ,ANGRY,30MonoWAV/30MonoF2.wav,1,2,2,2,,,,,1,15,31,1,0,2,2,2,,,,,,,,,1,1.0195490179903572,,,030,001,2019_May_14_1410,MusicAffectPsychophysiology2019,3.0.5,59.82184086699928,
To what extent did the music make you feel ,ASHAMED,30MonoWAV/30MonoF2.wav,1,2,2,2,,,,,1,15,31,1,0,3,3,4,,,,,,,,,2,1.2519063369982177,,,030,001,2019_May_14_1410,MusicAffectPsychophysiology2019,3.0.5,59.82184086699928,
To what extent did the music make you feel ,FRUSTRATED,30MonoWAV/30MonoF2.wav,1,2,2,2,,,,,1,15,31,1,0,4,4,3,,,,,,,,,1,0.9696339869988151,,,030,001,2019_May_14_1410,MusicAffectPsychophysiology2019,3.0.5,59.82184086699928,
To what extent did the music make you feel ,ALERT,30MonoWAV/30MonoF2.wav,1,2,2,2,,,,,1,15,31,1,0,5,5,8,,,,,,,,,3,1.67446570598986,,,030,001,2019_May_14_1410,MusicAffectPsychophysiology2019,3.0.5,59.82184086699928,
To what extent did the music make you feel ,SCARED,30MonoWAV/30MonoF2.wav,1,2,2,2,,,,,1,15,31,1,0,6,6,11,,,,,,,,,3,0.751798017998226,,,030,001,2019_May_14_1410,MusicAffectPsychophysiology2019,3.0.5,59.82184086699928,
To what extent did the music make you feel ,SAD,30MonoWAV/30MonoF2.wav,1,2,2,2,,,,,1,15,31,1,0,7,7,0,,,,,,,,,1,1.2840525280043948,,,030,001,2019_May_14_1410,MusicAffectPsychophysiology2019,3.0.5,59.82184086699928,
To what extent did the music make you feel ,ACTIVE,30MonoWAV/30MonoF2.wav,1,2,2,2,,,,,1,15,31,1,0,8,8,9,,,,,,,,,2,1.235234121006215,,,030,001,2019_May_14_1410,MusicAffectPsychophysiology2019,3.0.5,59.82184086699928,
To what extent did the music make you feel ,HAPPY,30MonoWAV/30MonoF2.wav,1,2,2,2,,,,,1,15,31,1,0,9,9,6,,,,,,,,,1,0.7678577629994834,,,030,001,2019_May_14_1410,MusicAffectPsychophysiology2019,3.0.5,59.82184086699928,
To what extent did the music make you feel ,EXCITED,30MonoWAV/30MonoF2.wav,1,2,2,2,,,,,1,15,31,1,0,10,10,7,,,,,,,,,2,0.7191433310072171,,,030,001,2019_May_14_1410,MusicAffectPsychophysiology2019,3.0.5,59.82184086699928,
To what extent did the music make you feel ,GUILTY,30MonoWAV/30MonoF2.wav,1,2,2,2,,,,,1,15,31,1,0,11,11,5,,,,,,,,,2,1.084478536999086,,,030,001,2019_May_14_1410,MusicAffectPsychophysiology2019,3.0.5,59.82184086699928,
,,30MonoWAV/30MonoF2.wav,1,2,2,2,,,,,1,15,31,1,,,,,,,,,,,,,,,,,030,001,2019_May_14_1410,MusicAffectPsychophysiology2019,3.0.5,59.82184086699928,
,,,,,,,,,,,,,,,,,,,,,,,,,,,,,space,5.10116398500395,030,001,2019_May_14_1410,MusicAffectPsychophysiology2019,3.0.5,59.82184086699928,
