Instruction,Word,song,valence,arousal,affectcat,songmark,pracwords.thisRepN,pracwords.thisTrialN,pracwords.thisN,pracwords.thisIndex,songtrials.thisRepN,songtrials.thisTrialN,songtrials.thisN,songtrials.thisIndex,words.thisRepN,words.thisTrialN,words.thisN,words.thisIndex,begin.keys,begin.rt,arousalkey.keys,arousalkey.rt,valencekey.keys,valencekey.rt,likekey.keys,likekey.rt,WordResponse.keys,WordResponse.rt,participant,session,date,expName,psychopyVersion,frameRate,
,,,,,,,,,,,,,,,,,,,space,24.720374771000934,,,,,,,,,031,001,2019_May_14_1511,MusicAffectPsychophysiology2019,3.0.5,59.98165484649898,
,,,,,,,,,,,,,,,,,,,,,3,8.884830966999289,,,,,,,031,001,2019_May_14_1511,MusicAffectPsychophysiology2019,3.0.5,59.98165484649898,
,,,,,,,,,,,,,,,,,,,,,,,3,9.16859257100441,,,,,031,001,2019_May_14_1511,MusicAffectPsychophysiology2019,3.0.5,59.98165484649898,
,,,,,,,,,,,,,,,,,,,,,,,,,1,8.817523099001846,,,031,001,2019_May_14_1511,MusicAffectPsychophysiology2019,3.0.5,59.98165484649898,
To what extent did the music make you feel ,ALERT,,,,,,0,0,0,8,,,,,,,,,,,,,,,,,2,10.220319062995259,031,001,2019_May_14_1511,MusicAffectPsychophysiology2019,3.0.5,59.98165484649898,
To what extent did the music make you feel ,SCARED,,,,,,0,1,1,11,,,,,,,,,,,,,,,,,2,5.818351371999597,031,001,2019_May_14_1511,MusicAffectPsychophysiology2019,3.0.5,59.98165484649898,
To what extent did the music make you feel ,TENDER,,,,,,0,2,2,10,,,,,,,,,,,,,,,,,3,14.90005404499243,031,001,2019_May_14_1511,MusicAffectPsychophysiology2019,3.0.5,59.98165484649898,
To what extent did the music make you feel ,HAPPY,,,,,,0,3,3,6,,,,,,,,,,,,,,,,,3,10.33411893399898,031,001,2019_May_14_1511,MusicAffectPsychophysiology2019,3.0.5,59.98165484649898,
To what extent did the music make you feel ,ASHAMED,,,,,,0,4,4,4,,,,,,,,,,,,,,,,,1,3.968811133003328,031,001,2019_May_14_1511,MusicAffectPsychophysiology2019,3.0.5,59.98165484649898,
To what extent did the music make you feel ,FRUSTRATED,,,,,,0,5,5,3,,,,,,,,,,,,,,,,,1,2.801277771999594,031,001,2019_May_14_1511,MusicAffectPsychophysiology2019,3.0.5,59.98165484649898,
To what extent did the music make you feel ,SAD,,,,,,0,6,6,0,,,,,,,,,,,,,,,,,1,4.767615220989683,031,001,2019_May_14_1511,MusicAffectPsychophysiology2019,3.0.5,59.98165484649898,
To what extent did the music make you feel ,ANXIOUS ,,,,,,0,7,7,1,,,,,,,,,,,,,,,,,1,2.851762869991944,031,001,2019_May_14_1511,MusicAffectPsychophysiology2019,3.0.5,59.98165484649898,
To what extent did the music make you feel ,EXCITED,,,,,,0,8,8,7,,,,,,,,,,,,,,,,,2,7.100822622000123,031,001,2019_May_14_1511,MusicAffectPsychophysiology2019,3.0.5,59.98165484649898,
To what extent did the music make you feel ,ACTIVE,,,,,,0,9,9,9,,,,,,,,,,,,,,,,,2,1.2680539639986819,031,001,2019_May_14_1511,MusicAffectPsychophysiology2019,3.0.5,59.98165484649898,
To what extent did the music make you feel ,GUILTY,,,,,,0,10,10,5,,,,,,,,,,,,,,,,,1,2.0357622080045985,031,001,2019_May_14_1511,MusicAffectPsychophysiology2019,3.0.5,59.98165484649898,
To what extent did the music make you feel ,ANGRY,,,,,,0,11,11,2,,,,,,,,,,,,,,,,,1,2.817895033003879,031,001,2019_May_14_1511,MusicAffectPsychophysiology2019,3.0.5,59.98165484649898,
To what extent did the music make you feel ,SCARED,30MonoWAV/30MonoT2.wav,2,1,4,14,,,,,0,0,0,13,0,0,0,11,,,1,6.201296416998957,1,8.600928058003774,2,5.068184956006007,1,3.200615067005856,031,001,2019_May_14_1511,MusicAffectPsychophysiology2019,3.0.5,59.98165484649898,
To what extent did the music make you feel ,SAD,30MonoWAV/30MonoT2.wav,2,1,4,14,,,,,0,0,0,13,0,1,1,0,,,,,,,,,2,4.434485135003342,031,001,2019_May_14_1511,MusicAffectPsychophysiology2019,3.0.5,59.98165484649898,
To what extent did the music make you feel ,HAPPY,30MonoWAV/30MonoT2.wav,2,1,4,14,,,,,0,0,0,13,0,2,2,6,,,,,,,,,2,3.1502115949988365,031,001,2019_May_14_1511,MusicAffectPsychophysiology2019,3.0.5,59.98165484649898,
To what extent did the music make you feel ,ACTIVE,30MonoWAV/30MonoT2.wav,2,1,4,14,,,,,0,0,0,13,0,3,3,9,,,,,,,,,1,4.1521525510033825,031,001,2019_May_14_1511,MusicAffectPsychophysiology2019,3.0.5,59.98165484649898,
To what extent did the music make you feel ,FRUSTRATED,30MonoWAV/30MonoT2.wav,2,1,4,14,,,,,0,0,0,13,0,4,4,3,,,,,,,,,1,5.968583091002074,031,001,2019_May_14_1511,MusicAffectPsychophysiology2019,3.0.5,59.98165484649898,
To what extent did the music make you feel ,ALERT,30MonoWAV/30MonoT2.wav,2,1,4,14,,,,,0,0,0,13,0,5,5,8,,,,,,,,,2,3.1342049289960414,031,001,2019_May_14_1511,MusicAffectPsychophysiology2019,3.0.5,59.98165484649898,
To what extent did the music make you feel ,ASHAMED,30MonoWAV/30MonoT2.wav,2,1,4,14,,,,,0,0,0,13,0,6,6,4,,,,,,,,,1,1.3668650949985022,031,001,2019_May_14_1511,MusicAffectPsychophysiology2019,3.0.5,59.98165484649898,
To what extent did the music make you feel ,EXCITED,30MonoWAV/30MonoT2.wav,2,1,4,14,,,,,0,0,0,13,0,7,7,7,,,,,,,,,2,3.884829129005084,031,001,2019_May_14_1511,MusicAffectPsychophysiology2019,3.0.5,59.98165484649898,
To what extent did the music make you feel ,GUILTY,30MonoWAV/30MonoT2.wav,2,1,4,14,,,,,0,0,0,13,0,8,8,5,,,,,,,,,1,2.5346126439981163,031,001,2019_May_14_1511,MusicAffectPsychophysiology2019,3.0.5,59.98165484649898,
To what extent did the music make you feel ,TENDER,30MonoWAV/30MonoT2.wav,2,1,4,14,,,,,0,0,0,13,0,9,9,10,,,,,,,,,2,2.9350017749966355,031,001,2019_May_14_1511,MusicAffectPsychophysiology2019,3.0.5,59.98165484649898,
To what extent did the music make you feel ,ANXIOUS ,30MonoWAV/30MonoT2.wav,2,1,4,14,,,,,0,0,0,13,0,10,10,1,,,,,,,,,1,5.633447213011095,031,001,2019_May_14_1511,MusicAffectPsychophysiology2019,3.0.5,59.98165484649898,
To what extent did the music make you feel ,ANGRY,30MonoWAV/30MonoT2.wav,2,1,4,14,,,,,0,0,0,13,0,11,11,2,,,,,,,,,1,1.9844277369993506,031,001,2019_May_14_1511,MusicAffectPsychophysiology2019,3.0.5,59.98165484649898,
,,30MonoWAV/30MonoT2.wav,2,1,4,14,,,,,0,0,0,13,,,,,,,,,,,,,,,031,001,2019_May_14_1511,MusicAffectPsychophysiology2019,3.0.5,59.98165484649898,
To what extent did the music make you feel ,SCARED,30MonoWAV/30MonoS1.wav,1,1,3,9,,,,,0,1,1,8,0,0,0,11,,,1,5.185697531996993,2,6.702648407997913,2,2.351758767006686,2,5.750867326991283,031,001,2019_May_14_1511,MusicAffectPsychophysiology2019,3.0.5,59.98165484649898,
To what extent did the music make you feel ,ANXIOUS ,30MonoWAV/30MonoS1.wav,1,1,3,9,,,,,0,1,1,8,0,1,1,1,,,,,,,,,2,1.484217584002181,031,001,2019_May_14_1511,MusicAffectPsychophysiology2019,3.0.5,59.98165484649898,
To what extent did the music make you feel ,EXCITED,30MonoWAV/30MonoS1.wav,1,1,3,9,,,,,0,1,1,8,0,2,2,7,,,,,,,,,1,3.183919668008457,031,001,2019_May_14_1511,MusicAffectPsychophysiology2019,3.0.5,59.98165484649898,
To what extent did the music make you feel ,ASHAMED,30MonoWAV/30MonoS1.wav,1,1,3,9,,,,,0,1,1,8,0,3,3,4,,,,,,,,,1,1.4852590329974191,031,001,2019_May_14_1511,MusicAffectPsychophysiology2019,3.0.5,59.98165484649898,
To what extent did the music make you feel ,HAPPY,30MonoWAV/30MonoS1.wav,1,1,3,9,,,,,0,1,1,8,0,4,4,6,,,,,,,,,2,3.568712666994543,031,001,2019_May_14_1511,MusicAffectPsychophysiology2019,3.0.5,59.98165484649898,
To what extent did the music make you feel ,ALERT,30MonoWAV/30MonoS1.wav,1,1,3,9,,,,,0,1,1,8,0,5,5,8,,,,,,,,,1,2.6191942200093763,031,001,2019_May_14_1511,MusicAffectPsychophysiology2019,3.0.5,59.98165484649898,
To what extent did the music make you feel ,GUILTY,30MonoWAV/30MonoS1.wav,1,1,3,9,,,,,0,1,1,8,0,6,6,5,,,,,,,,,1,2.434927031994448,031,001,2019_May_14_1511,MusicAffectPsychophysiology2019,3.0.5,59.98165484649898,
To what extent did the music make you feel ,ANGRY,30MonoWAV/30MonoS1.wav,1,1,3,9,,,,,0,1,1,8,0,7,7,2,,,,,,,,,1,2.1541786230081925,031,001,2019_May_14_1511,MusicAffectPsychophysiology2019,3.0.5,59.98165484649898,
To what extent did the music make you feel ,SAD,30MonoWAV/30MonoS1.wav,1,1,3,9,,,,,0,1,1,8,0,8,8,0,,,,,,,,,2,3.785429726995062,031,001,2019_May_14_1511,MusicAffectPsychophysiology2019,3.0.5,59.98165484649898,
To what extent did the music make you feel ,FRUSTRATED,30MonoWAV/30MonoS1.wav,1,1,3,9,,,,,0,1,1,8,0,9,9,3,,,,,,,,,1,3.101454792995355,031,001,2019_May_14_1511,MusicAffectPsychophysiology2019,3.0.5,59.98165484649898,
To what extent did the music make you feel ,ACTIVE,30MonoWAV/30MonoS1.wav,1,1,3,9,,,,,0,1,1,8,0,10,10,9,,,,,,,,,2,5.550981881999178,031,001,2019_May_14_1511,MusicAffectPsychophysiology2019,3.0.5,59.98165484649898,
To what extent did the music make you feel ,TENDER,30MonoWAV/30MonoS1.wav,1,1,3,9,,,,,0,1,1,8,0,11,11,10,,,,,,,,,3,4.634055458009243,031,001,2019_May_14_1511,MusicAffectPsychophysiology2019,3.0.5,59.98165484649898,
,,30MonoWAV/30MonoS1.wav,1,1,3,9,,,,,0,1,1,8,,,,,,,,,,,,,,,031,001,2019_May_14_1511,MusicAffectPsychophysiology2019,3.0.5,59.98165484649898,
To what extent did the music make you feel ,ASHAMED,30MonoWAV/30MonoT3.wav,2,1,4,15,,,,,0,2,2,14,0,0,0,4,,,1,3.5341399120079586,1,3.685091156003182,1,6.3773497869988205,1,1.2022101290058345,031,001,2019_May_14_1511,MusicAffectPsychophysiology2019,3.0.5,59.98165484649898,
To what extent did the music make you feel ,ACTIVE,30MonoWAV/30MonoT3.wav,2,1,4,15,,,,,0,2,2,14,0,1,1,9,,,,,,,,,1,1.134989673999371,031,001,2019_May_14_1511,MusicAffectPsychophysiology2019,3.0.5,59.98165484649898,
To what extent did the music make you feel ,ANXIOUS ,30MonoWAV/30MonoT3.wav,2,1,4,15,,,,,0,2,2,14,0,2,2,1,,,,,,,,,2,2.2173426000081236,031,001,2019_May_14_1511,MusicAffectPsychophysiology2019,3.0.5,59.98165484649898,
To what extent did the music make you feel ,ANGRY,30MonoWAV/30MonoT3.wav,2,1,4,15,,,,,0,2,2,14,0,3,3,2,,,,,,,,,2,2.236100484005874,031,001,2019_May_14_1511,MusicAffectPsychophysiology2019,3.0.5,59.98165484649898,
To what extent did the music make you feel ,SAD,30MonoWAV/30MonoT3.wav,2,1,4,15,,,,,0,2,2,14,0,4,4,0,,,,,,,,,2,3.9855264679936226,031,001,2019_May_14_1511,MusicAffectPsychophysiology2019,3.0.5,59.98165484649898,
To what extent did the music make you feel ,HAPPY,30MonoWAV/30MonoT3.wav,2,1,4,15,,,,,0,2,2,14,0,5,5,6,,,,,,,,,1,4.302187704000971,031,001,2019_May_14_1511,MusicAffectPsychophysiology2019,3.0.5,59.98165484649898,
To what extent did the music make you feel ,ALERT,30MonoWAV/30MonoT3.wav,2,1,4,15,,,,,0,2,2,14,0,6,6,8,,,,,,,,,1,6.519086954998784,031,001,2019_May_14_1511,MusicAffectPsychophysiology2019,3.0.5,59.98165484649898,
To what extent did the music make you feel ,FRUSTRATED,30MonoWAV/30MonoT3.wav,2,1,4,15,,,,,0,2,2,14,0,7,7,3,,,,,,,,,2,2.0510678509890568,031,001,2019_May_14_1511,MusicAffectPsychophysiology2019,3.0.5,59.98165484649898,
To what extent did the music make you feel ,EXCITED,30MonoWAV/30MonoT3.wav,2,1,4,15,,,,,0,2,2,14,0,8,8,7,,,,,,,,,1,2.951939239006606,031,001,2019_May_14_1511,MusicAffectPsychophysiology2019,3.0.5,59.98165484649898,
To what extent did the music make you feel ,SCARED,30MonoWAV/30MonoT3.wav,2,1,4,15,,,,,0,2,2,14,0,9,9,11,,,,,,,,,1,6.001366135998978,031,001,2019_May_14_1511,MusicAffectPsychophysiology2019,3.0.5,59.98165484649898,
To what extent did the music make you feel ,TENDER,30MonoWAV/30MonoT3.wav,2,1,4,15,,,,,0,2,2,14,0,10,10,10,,,,,,,,,2,6.58549897899502,031,001,2019_May_14_1511,MusicAffectPsychophysiology2019,3.0.5,59.98165484649898,
To what extent did the music make you feel ,GUILTY,30MonoWAV/30MonoT3.wav,2,1,4,15,,,,,0,2,2,14,0,11,11,5,,,,,,,,,1,2.8021944939973764,031,001,2019_May_14_1511,MusicAffectPsychophysiology2019,3.0.5,59.98165484649898,
,,30MonoWAV/30MonoT3.wav,2,1,4,15,,,,,0,2,2,14,,,,,,,,,,,,,,,031,001,2019_May_14_1511,MusicAffectPsychophysiology2019,3.0.5,59.98165484649898,
To what extent did the music make you feel ,FRUSTRATED,30MonoWAV/30MonoF2.wav,1,2,2,2,,,,,0,3,3,1,0,0,0,3,,,3,5.157352270005504,1,6.645242810001946,1,1.9497206490050303,2,2.351495718001388,031,001,2019_May_14_1511,MusicAffectPsychophysiology2019,3.0.5,59.98165484649898,
To what extent did the music make you feel ,EXCITED,30MonoWAV/30MonoF2.wav,1,2,2,2,,,,,0,3,3,1,0,1,1,7,,,,,,,,,2,2.9018681769957766,031,001,2019_May_14_1511,MusicAffectPsychophysiology2019,3.0.5,59.98165484649898,
To what extent did the music make you feel ,GUILTY,30MonoWAV/30MonoF2.wav,1,2,2,2,,,,,0,3,3,1,0,2,2,5,,,,,,,,,1,1.7193514679966029,031,001,2019_May_14_1511,MusicAffectPsychophysiology2019,3.0.5,59.98165484649898,
To what extent did the music make you feel ,HAPPY,30MonoWAV/30MonoF2.wav,1,2,2,2,,,,,0,3,3,1,0,3,3,6,,,,,,,,,1,2.3838204810017487,031,001,2019_May_14_1511,MusicAffectPsychophysiology2019,3.0.5,59.98165484649898,
To what extent did the music make you feel ,SCARED,30MonoWAV/30MonoF2.wav,1,2,2,2,,,,,0,3,3,1,0,4,4,11,,,,,,,,,3,3.2842964219889836,031,001,2019_May_14_1511,MusicAffectPsychophysiology2019,3.0.5,59.98165484649898,
To what extent did the music make you feel ,ANGRY,30MonoWAV/30MonoF2.wav,1,2,2,2,,,,,0,3,3,1,0,5,5,2,,,,,,,,,2,1.6860937519959407,031,001,2019_May_14_1511,MusicAffectPsychophysiology2019,3.0.5,59.98165484649898,
To what extent did the music make you feel ,ASHAMED,30MonoWAV/30MonoF2.wav,1,2,2,2,,,,,0,3,3,1,0,6,6,4,,,,,,,,,1,1.8512317449931288,031,001,2019_May_14_1511,MusicAffectPsychophysiology2019,3.0.5,59.98165484649898,
To what extent did the music make you feel ,TENDER,30MonoWAV/30MonoF2.wav,1,2,2,2,,,,,0,3,3,1,0,7,7,10,,,,,,,,,1,1.4732172380026896,031,001,2019_May_14_1511,MusicAffectPsychophysiology2019,3.0.5,59.98165484649898,
To what extent did the music make you feel ,SAD,30MonoWAV/30MonoF2.wav,1,2,2,2,,,,,0,3,3,1,0,8,8,0,,,,,,,,,2,3.1054175939934794,031,001,2019_May_14_1511,MusicAffectPsychophysiology2019,3.0.5,59.98165484649898,
To what extent did the music make you feel ,ACTIVE,30MonoWAV/30MonoF2.wav,1,2,2,2,,,,,0,3,3,1,0,9,9,9,,,,,,,,,2,3.1553565329959383,031,001,2019_May_14_1511,MusicAffectPsychophysiology2019,3.0.5,59.98165484649898,
To what extent did the music make you feel ,ALERT,30MonoWAV/30MonoF2.wav,1,2,2,2,,,,,0,3,3,1,0,10,10,8,,,,,,,,,2,2.056353831998422,031,001,2019_May_14_1511,MusicAffectPsychophysiology2019,3.0.5,59.98165484649898,
To what extent did the music make you feel ,ANXIOUS ,30MonoWAV/30MonoF2.wav,1,2,2,2,,,,,0,3,3,1,0,11,11,1,,,,,,,,,2,1.817706884990912,031,001,2019_May_14_1511,MusicAffectPsychophysiology2019,3.0.5,59.98165484649898,
,,30MonoWAV/30MonoF2.wav,1,2,2,2,,,,,0,3,3,1,,,,,,,,,,,,,,,031,001,2019_May_14_1511,MusicAffectPsychophysiology2019,3.0.5,59.98165484649898,
To what extent did the music make you feel ,ANGRY,30MonoWAV/30MonoF1.wav,1,2,2,1,,,,,0,4,4,0,0,0,0,2,,,3,4.940939515989157,1,3.4723711219994584,1,1.9700141009961953,2,5.201832785998704,031,001,2019_May_14_1511,MusicAffectPsychophysiology2019,3.0.5,59.98165484649898,
To what extent did the music make you feel ,EXCITED,30MonoWAV/30MonoF1.wav,1,2,2,1,,,,,0,4,4,0,0,1,1,7,,,,,,,,,3,4.202165709997644,031,001,2019_May_14_1511,MusicAffectPsychophysiology2019,3.0.5,59.98165484649898,
To what extent did the music make you feel ,ACTIVE,30MonoWAV/30MonoF1.wav,1,2,2,1,,,,,0,4,4,0,0,2,2,9,,,,,,,,,3,2.9018326359946514,031,001,2019_May_14_1511,MusicAffectPsychophysiology2019,3.0.5,59.98165484649898,
To what extent did the music make you feel ,HAPPY,30MonoWAV/30MonoF1.wav,1,2,2,1,,,,,0,4,4,0,0,3,3,6,,,,,,,,,1,3.4667786000063643,031,001,2019_May_14_1511,MusicAffectPsychophysiology2019,3.0.5,59.98165484649898,
To what extent did the music make you feel ,SCARED,30MonoWAV/30MonoF1.wav,1,2,2,1,,,,,0,4,4,0,0,4,4,11,,,,,,,,,2,4.051352465001401,031,001,2019_May_14_1511,MusicAffectPsychophysiology2019,3.0.5,59.98165484649898,
To what extent did the music make you feel ,TENDER,30MonoWAV/30MonoF1.wav,1,2,2,1,,,,,0,4,4,0,0,5,5,10,,,,,,,,,1,1.4349410879949573,031,001,2019_May_14_1511,MusicAffectPsychophysiology2019,3.0.5,59.98165484649898,
To what extent did the music make you feel ,ANXIOUS ,30MonoWAV/30MonoF1.wav,1,2,2,1,,,,,0,4,4,0,0,6,6,1,,,,,,,,,3,3.3521065789973363,031,001,2019_May_14_1511,MusicAffectPsychophysiology2019,3.0.5,59.98165484649898,
To what extent did the music make you feel ,ALERT,30MonoWAV/30MonoF1.wav,1,2,2,1,,,,,0,4,4,0,0,7,7,8,,,,,,,,,3,6.235511471997597,031,001,2019_May_14_1511,MusicAffectPsychophysiology2019,3.0.5,59.98165484649898,
To what extent did the music make you feel ,ASHAMED,30MonoWAV/30MonoF1.wav,1,2,2,1,,,,,0,4,4,0,0,8,8,4,,,,,,,,,1,2.402065625996329,031,001,2019_May_14_1511,MusicAffectPsychophysiology2019,3.0.5,59.98165484649898,
To what extent did the music make you feel ,SAD,30MonoWAV/30MonoF1.wav,1,2,2,1,,,,,0,4,4,0,0,9,9,0,,,,,,,,,1,3.785176860008505,031,001,2019_May_14_1511,MusicAffectPsychophysiology2019,3.0.5,59.98165484649898,
To what extent did the music make you feel ,GUILTY,30MonoWAV/30MonoF1.wav,1,2,2,1,,,,,0,4,4,0,0,10,10,5,,,,,,,,,1,0.9843247170065297,031,001,2019_May_14_1511,MusicAffectPsychophysiology2019,3.0.5,59.98165484649898,
To what extent did the music make you feel ,FRUSTRATED,30MonoWAV/30MonoF1.wav,1,2,2,1,,,,,0,4,4,0,0,11,11,3,,,,,,,,,2,5.0183261889906134,031,001,2019_May_14_1511,MusicAffectPsychophysiology2019,3.0.5,59.98165484649898,
,,30MonoWAV/30MonoF1.wav,1,2,2,1,,,,,0,4,4,0,,,,,,,,,,,,,,,031,001,2019_May_14_1511,MusicAffectPsychophysiology2019,3.0.5,59.98165484649898,
To what extent did the music make you feel ,ASHAMED,30MonoWAV/30MonoT1.wav,2,1,4,13,,,,,0,5,5,12,0,0,0,4,,,2,4.303013776996522,3,4.600854050004273,3,4.3178552919998765,1,4.584667945004185,031,001,2019_May_14_1511,MusicAffectPsychophysiology2019,3.0.5,59.98165484649898,
To what extent did the music make you feel ,TENDER,30MonoWAV/30MonoT1.wav,2,1,4,13,,,,,0,5,5,12,0,1,1,10,,,,,,,,,3,2.5509268649911974,031,001,2019_May_14_1511,MusicAffectPsychophysiology2019,3.0.5,59.98165484649898,
To what extent did the music make you feel ,SCARED,30MonoWAV/30MonoT1.wav,2,1,4,13,,,,,0,5,5,12,0,2,2,11,,,,,,,,,1,1.5521466659993166,031,001,2019_May_14_1511,MusicAffectPsychophysiology2019,3.0.5,59.98165484649898,
To what extent did the music make you feel ,ANGRY,30MonoWAV/30MonoT1.wav,2,1,4,13,,,,,0,5,5,12,0,3,3,2,,,,,,,,,1,1.2557316480088048,031,001,2019_May_14_1511,MusicAffectPsychophysiology2019,3.0.5,59.98165484649898,
To what extent did the music make you feel ,EXCITED,30MonoWAV/30MonoT1.wav,2,1,4,13,,,,,0,5,5,12,0,4,4,7,,,,,,,,,2,3.3220046059868764,031,001,2019_May_14_1511,MusicAffectPsychophysiology2019,3.0.5,59.98165484649898,
To what extent did the music make you feel ,SAD,30MonoWAV/30MonoT1.wav,2,1,4,13,,,,,0,5,5,12,0,5,5,0,,,,,,,,,2,2.488072395004565,031,001,2019_May_14_1511,MusicAffectPsychophysiology2019,3.0.5,59.98165484649898,
To what extent did the music make you feel ,GUILTY,30MonoWAV/30MonoT1.wav,2,1,4,13,,,,,0,5,5,12,0,6,6,5,,,,,,,,,1,1.4739052340009948,031,001,2019_May_14_1511,MusicAffectPsychophysiology2019,3.0.5,59.98165484649898,
To what extent did the music make you feel ,ALERT,30MonoWAV/30MonoT1.wav,2,1,4,13,,,,,0,5,5,12,0,7,7,8,,,,,,,,,2,1.6656777979951585,031,001,2019_May_14_1511,MusicAffectPsychophysiology2019,3.0.5,59.98165484649898,
To what extent did the music make you feel ,ACTIVE,30MonoWAV/30MonoT1.wav,2,1,4,13,,,,,0,5,5,12,0,8,8,9,,,,,,,,,2,1.65163647600275,031,001,2019_May_14_1511,MusicAffectPsychophysiology2019,3.0.5,59.98165484649898,
To what extent did the music make you feel ,HAPPY,30MonoWAV/30MonoT1.wav,2,1,4,13,,,,,0,5,5,12,0,9,9,6,,,,,,,,,3,3.0344806920038536,031,001,2019_May_14_1511,MusicAffectPsychophysiology2019,3.0.5,59.98165484649898,
To what extent did the music make you feel ,ANXIOUS ,30MonoWAV/30MonoT1.wav,2,1,4,13,,,,,0,5,5,12,0,10,10,1,,,,,,,,,2,4.234709872995154,031,001,2019_May_14_1511,MusicAffectPsychophysiology2019,3.0.5,59.98165484649898,
To what extent did the music make you feel ,FRUSTRATED,30MonoWAV/30MonoT1.wav,2,1,4,13,,,,,0,5,5,12,0,11,11,3,,,,,,,,,1,2.1352816090075066,031,001,2019_May_14_1511,MusicAffectPsychophysiology2019,3.0.5,59.98165484649898,
,,30MonoWAV/30MonoT1.wav,2,1,4,13,,,,,0,5,5,12,,,,,,,,,,,,,,,031,001,2019_May_14_1511,MusicAffectPsychophysiology2019,3.0.5,59.98165484649898,
To what extent did the music make you feel ,ANGRY,30MonoWAV/30MonoH3.wav,2,2,1,7,,,,,0,6,6,6,0,0,0,2,,,3,5.55892063700594,1,2.5386271480092546,1,4.108305231988197,2,7.484530728004756,031,001,2019_May_14_1511,MusicAffectPsychophysiology2019,3.0.5,59.98165484649898,
To what extent did the music make you feel ,TENDER,30MonoWAV/30MonoH3.wav,2,2,1,7,,,,,0,6,6,6,0,1,1,10,,,,,,,,,2,2.767734990004101,031,001,2019_May_14_1511,MusicAffectPsychophysiology2019,3.0.5,59.98165484649898,
To what extent did the music make you feel ,GUILTY,30MonoWAV/30MonoH3.wav,2,2,1,7,,,,,0,6,6,6,0,2,2,5,,,,,,,,,1,1.1335266829992179,031,001,2019_May_14_1511,MusicAffectPsychophysiology2019,3.0.5,59.98165484649898,
To what extent did the music make you feel ,EXCITED,30MonoWAV/30MonoH3.wav,2,2,1,7,,,,,0,6,6,6,0,3,3,7,,,,,,,,,2,3.800832658991567,031,001,2019_May_14_1511,MusicAffectPsychophysiology2019,3.0.5,59.98165484649898,
To what extent did the music make you feel ,ACTIVE,30MonoWAV/30MonoH3.wav,2,2,1,7,,,,,0,6,6,6,0,4,4,9,,,,,,,,,2,1.9023113419971196,031,001,2019_May_14_1511,MusicAffectPsychophysiology2019,3.0.5,59.98165484649898,
To what extent did the music make you feel ,SCARED,30MonoWAV/30MonoH3.wav,2,2,1,7,,,,,0,6,6,6,0,5,5,11,,,,,,,,,1,2.2847530549915973,031,001,2019_May_14_1511,MusicAffectPsychophysiology2019,3.0.5,59.98165484649898,
To what extent did the music make you feel ,HAPPY,30MonoWAV/30MonoH3.wav,2,2,1,7,,,,,0,6,6,6,0,6,6,6,,,,,,,,,1,3.9658724709879607,031,001,2019_May_14_1511,MusicAffectPsychophysiology2019,3.0.5,59.98165484649898,
To what extent did the music make you feel ,ASHAMED,30MonoWAV/30MonoH3.wav,2,2,1,7,,,,,0,6,6,6,0,7,7,4,,,,,,,,,1,1.2689582070015604,031,001,2019_May_14_1511,MusicAffectPsychophysiology2019,3.0.5,59.98165484649898,
To what extent did the music make you feel ,SAD,30MonoWAV/30MonoH3.wav,2,2,1,7,,,,,0,6,6,6,0,8,8,0,,,,,,,,,1,2.184986364998622,031,001,2019_May_14_1511,MusicAffectPsychophysiology2019,3.0.5,59.98165484649898,
To what extent did the music make you feel ,ALERT,30MonoWAV/30MonoH3.wav,2,2,1,7,,,,,0,6,6,6,0,9,9,8,,,,,,,,,2,2.302090495999437,031,001,2019_May_14_1511,MusicAffectPsychophysiology2019,3.0.5,59.98165484649898,
To what extent did the music make you feel ,ANXIOUS ,30MonoWAV/30MonoH3.wav,2,2,1,7,,,,,0,6,6,6,0,10,10,1,,,,,,,,,2,1.7992680089955684,031,001,2019_May_14_1511,MusicAffectPsychophysiology2019,3.0.5,59.98165484649898,
To what extent did the music make you feel ,FRUSTRATED,30MonoWAV/30MonoH3.wav,2,2,1,7,,,,,0,6,6,6,0,11,11,3,,,,,,,,,2,8.584756131007452,031,001,2019_May_14_1511,MusicAffectPsychophysiology2019,3.0.5,59.98165484649898,
,,30MonoWAV/30MonoH3.wav,2,2,1,7,,,,,0,6,6,6,,,,,,,,,,,,,,,031,001,2019_May_14_1511,MusicAffectPsychophysiology2019,3.0.5,59.98165484649898,
To what extent did the music make you feel ,EXCITED,30MonoWAV/30MonoH1.wav,2,2,1,5,,,,,0,7,7,4,0,0,0,7,,,3,5.1181835400057025,3,5.5684474740119185,3,6.635837617010111,3,8.768154082994442,031,001,2019_May_14_1511,MusicAffectPsychophysiology2019,3.0.5,59.98165484649898,
To what extent did the music make you feel ,ALERT,30MonoWAV/30MonoH1.wav,2,2,1,5,,,,,0,7,7,4,0,1,1,8,,,,,,,,,3,3.8013916259951657,031,001,2019_May_14_1511,MusicAffectPsychophysiology2019,3.0.5,59.98165484649898,
To what extent did the music make you feel ,FRUSTRATED,30MonoWAV/30MonoH1.wav,2,2,1,5,,,,,0,7,7,4,0,2,2,3,,,,,,,,,1,1.918608146996121,031,001,2019_May_14_1511,MusicAffectPsychophysiology2019,3.0.5,59.98165484649898,
To what extent did the music make you feel ,SCARED,30MonoWAV/30MonoH1.wav,2,2,1,5,,,,,0,7,7,4,0,3,3,11,,,,,,,,,1,1.0848981749877566,031,001,2019_May_14_1511,MusicAffectPsychophysiology2019,3.0.5,59.98165484649898,
To what extent did the music make you feel ,ANGRY,30MonoWAV/30MonoH1.wav,2,2,1,5,,,,,0,7,7,4,0,4,4,2,,,,,,,,,1,0.7021494459913811,031,001,2019_May_14_1511,MusicAffectPsychophysiology2019,3.0.5,59.98165484649898,
To what extent did the music make you feel ,ASHAMED,30MonoWAV/30MonoH1.wav,2,2,1,5,,,,,0,7,7,4,0,5,5,4,,,,,,,,,1,0.8356519959925208,031,001,2019_May_14_1511,MusicAffectPsychophysiology2019,3.0.5,59.98165484649898,
To what extent did the music make you feel ,ACTIVE,30MonoWAV/30MonoH1.wav,2,2,1,5,,,,,0,7,7,4,0,6,6,9,,,,,,,,,2,3.9675700340012554,031,001,2019_May_14_1511,MusicAffectPsychophysiology2019,3.0.5,59.98165484649898,
To what extent did the music make you feel ,TENDER,30MonoWAV/30MonoH1.wav,2,2,1,5,,,,,0,7,7,4,0,7,7,10,,,,,,,,,2,4.66651856599492,031,001,2019_May_14_1511,MusicAffectPsychophysiology2019,3.0.5,59.98165484649898,
To what extent did the music make you feel ,ANXIOUS ,30MonoWAV/30MonoH1.wav,2,2,1,5,,,,,0,7,7,4,0,8,8,1,,,,,,,,,1,1.9523552380123874,031,001,2019_May_14_1511,MusicAffectPsychophysiology2019,3.0.5,59.98165484649898,
To what extent did the music make you feel ,GUILTY,30MonoWAV/30MonoH1.wav,2,2,1,5,,,,,0,7,7,4,0,9,9,5,,,,,,,,,1,1.0675193189963466,031,001,2019_May_14_1511,MusicAffectPsychophysiology2019,3.0.5,59.98165484649898,
To what extent did the music make you feel ,SAD,30MonoWAV/30MonoH1.wav,2,2,1,5,,,,,0,7,7,4,0,10,10,0,,,,,,,,,1,0.6353730329865357,031,001,2019_May_14_1511,MusicAffectPsychophysiology2019,3.0.5,59.98165484649898,
To what extent did the music make you feel ,HAPPY,30MonoWAV/30MonoH1.wav,2,2,1,5,,,,,0,7,7,4,0,11,11,6,,,,,,,,,3,2.8015372380032204,031,001,2019_May_14_1511,MusicAffectPsychophysiology2019,3.0.5,59.98165484649898,
,,30MonoWAV/30MonoH1.wav,2,2,1,5,,,,,0,7,7,4,,,,,,,,,,,,,,,031,001,2019_May_14_1511,MusicAffectPsychophysiology2019,3.0.5,59.98165484649898,
To what extent did the music make you feel ,HAPPY,30MonoWAV/30MonoT4.wav,2,1,4,16,,,,,0,8,8,15,0,0,0,6,,,3,6.250777793000452,1,12.100962440992589,1,2.4355665540060727,1,4.568745523996768,031,001,2019_May_14_1511,MusicAffectPsychophysiology2019,3.0.5,59.98165484649898,
To what extent did the music make you feel ,EXCITED,30MonoWAV/30MonoT4.wav,2,1,4,16,,,,,0,8,8,15,0,1,1,7,,,,,,,,,2,4.200979614004609,031,001,2019_May_14_1511,MusicAffectPsychophysiology2019,3.0.5,59.98165484649898,
To what extent did the music make you feel ,TENDER,30MonoWAV/30MonoT4.wav,2,1,4,16,,,,,0,8,8,15,0,2,2,10,,,,,,,,,2,2.53478615199856,031,001,2019_May_14_1511,MusicAffectPsychophysiology2019,3.0.5,59.98165484649898,
To what extent did the music make you feel ,ANXIOUS ,30MonoWAV/30MonoT4.wav,2,1,4,16,,,,,0,8,8,15,0,3,3,1,,,,,,,,,2,2.052389429998584,031,001,2019_May_14_1511,MusicAffectPsychophysiology2019,3.0.5,59.98165484649898,
To what extent did the music make you feel ,SCARED,30MonoWAV/30MonoT4.wav,2,1,4,16,,,,,0,8,8,15,0,4,4,11,,,,,,,,,1,1.9517516339983558,031,001,2019_May_14_1511,MusicAffectPsychophysiology2019,3.0.5,59.98165484649898,
To what extent did the music make you feel ,GUILTY,30MonoWAV/30MonoT4.wav,2,1,4,16,,,,,0,8,8,15,0,5,5,5,,,,,,,,,1,0.7016640499932691,031,001,2019_May_14_1511,MusicAffectPsychophysiology2019,3.0.5,59.98165484649898,
To what extent did the music make you feel ,SAD,30MonoWAV/30MonoT4.wav,2,1,4,16,,,,,0,8,8,15,0,6,6,0,,,,,,,,,2,1.9861064230062766,031,001,2019_May_14_1511,MusicAffectPsychophysiology2019,3.0.5,59.98165484649898,
To what extent did the music make you feel ,FRUSTRATED,30MonoWAV/30MonoT4.wav,2,1,4,16,,,,,0,8,8,15,0,7,7,3,,,,,,,,,2,2.7350192290032282,031,001,2019_May_14_1511,MusicAffectPsychophysiology2019,3.0.5,59.98165484649898,
To what extent did the music make you feel ,ASHAMED,30MonoWAV/30MonoT4.wav,2,1,4,16,,,,,0,8,8,15,0,8,8,4,,,,,,,,,1,2.317849714003387,031,001,2019_May_14_1511,MusicAffectPsychophysiology2019,3.0.5,59.98165484649898,
To what extent did the music make you feel ,ALERT,30MonoWAV/30MonoT4.wav,2,1,4,16,,,,,0,8,8,15,0,9,9,8,,,,,,,,,1,2.3011074399983045,031,001,2019_May_14_1511,MusicAffectPsychophysiology2019,3.0.5,59.98165484649898,
To what extent did the music make you feel ,ANGRY,30MonoWAV/30MonoT4.wav,2,1,4,16,,,,,0,8,8,15,0,10,10,2,,,,,,,,,2,4.901531249008258,031,001,2019_May_14_1511,MusicAffectPsychophysiology2019,3.0.5,59.98165484649898,
To what extent did the music make you feel ,ACTIVE,30MonoWAV/30MonoT4.wav,2,1,4,16,,,,,0,8,8,15,0,11,11,9,,,,,,,,,2,5.5670346669940045,031,001,2019_May_14_1511,MusicAffectPsychophysiology2019,3.0.5,59.98165484649898,
,,30MonoWAV/30MonoT4.wav,2,1,4,16,,,,,0,8,8,15,,,,,,,,,,,,,,,031,001,2019_May_14_1511,MusicAffectPsychophysiology2019,3.0.5,59.98165484649898,
To what extent did the music make you feel ,SCARED,30MonoWAV/30MonoH4.wav,2,2,1,8,,,,,0,9,9,7,0,0,0,11,,,3,11.126235506002558,3,4.901813106000191,3,3.169175560993608,1,6.206535623990931,031,001,2019_May_14_1511,MusicAffectPsychophysiology2019,3.0.5,59.98165484649898,
To what extent did the music make you feel ,ANGRY,30MonoWAV/30MonoH4.wav,2,2,1,8,,,,,0,9,9,7,0,1,1,2,,,,,,,,,1,1.4374405689886771,031,001,2019_May_14_1511,MusicAffectPsychophysiology2019,3.0.5,59.98165484649898,
To what extent did the music make you feel ,TENDER,30MonoWAV/30MonoH4.wav,2,2,1,8,,,,,0,9,9,7,0,2,2,10,,,,,,,,,2,2.988658240006771,031,001,2019_May_14_1511,MusicAffectPsychophysiology2019,3.0.5,59.98165484649898,
To what extent did the music make you feel ,FRUSTRATED,30MonoWAV/30MonoH4.wav,2,2,1,8,,,,,0,9,9,7,0,3,3,3,,,,,,,,,1,1.6748817799962126,031,001,2019_May_14_1511,MusicAffectPsychophysiology2019,3.0.5,59.98165484649898,
To what extent did the music make you feel ,EXCITED,30MonoWAV/30MonoH4.wav,2,2,1,8,,,,,0,9,9,7,0,4,4,7,,,,,,,,,3,2.717771857001935,031,001,2019_May_14_1511,MusicAffectPsychophysiology2019,3.0.5,59.98165484649898,
To what extent did the music make you feel ,ALERT,30MonoWAV/30MonoH4.wav,2,2,1,8,,,,,0,9,9,7,0,5,5,8,,,,,,,,,3,1.4862675870099338,031,001,2019_May_14_1511,MusicAffectPsychophysiology2019,3.0.5,59.98165484649898,
To what extent did the music make you feel ,ASHAMED,30MonoWAV/30MonoH4.wav,2,2,1,8,,,,,0,9,9,7,0,6,6,4,,,,,,,,,1,1.4023058689926984,031,001,2019_May_14_1511,MusicAffectPsychophysiology2019,3.0.5,59.98165484649898,
To what extent did the music make you feel ,ANXIOUS ,30MonoWAV/30MonoH4.wav,2,2,1,8,,,,,0,9,9,7,0,7,7,1,,,,,,,,,1,2.851089136005612,031,001,2019_May_14_1511,MusicAffectPsychophysiology2019,3.0.5,59.98165484649898,
To what extent did the music make you feel ,ACTIVE,30MonoWAV/30MonoH4.wav,2,2,1,8,,,,,0,9,9,7,0,8,8,9,,,,,,,,,3,1.61840019999363,031,001,2019_May_14_1511,MusicAffectPsychophysiology2019,3.0.5,59.98165484649898,
To what extent did the music make you feel ,HAPPY,30MonoWAV/30MonoH4.wav,2,2,1,8,,,,,0,9,9,7,0,9,9,6,,,,,,,,,3,2.8344532170012826,031,001,2019_May_14_1511,MusicAffectPsychophysiology2019,3.0.5,59.98165484649898,
To what extent did the music make you feel ,GUILTY,30MonoWAV/30MonoH4.wav,2,2,1,8,,,,,0,9,9,7,0,10,10,5,,,,,,,,,1,1.5186558279965539,031,001,2019_May_14_1511,MusicAffectPsychophysiology2019,3.0.5,59.98165484649898,
To what extent did the music make you feel ,SAD,30MonoWAV/30MonoH4.wav,2,2,1,8,,,,,0,9,9,7,0,11,11,0,,,,,,,,,1,0.7350359850097448,031,001,2019_May_14_1511,MusicAffectPsychophysiology2019,3.0.5,59.98165484649898,
,,30MonoWAV/30MonoH4.wav,2,2,1,8,,,,,0,9,9,7,,,,,,,,,,,,,,,031,001,2019_May_14_1511,MusicAffectPsychophysiology2019,3.0.5,59.98165484649898,
To what extent did the music make you feel ,ACTIVE,30MonoWAV/30MonoF4.wav,1,2,2,4,,,,,0,10,10,3,0,0,0,9,,,3,8.951364338005078,1,3.7186614670063136,1,1.984297932998743,2,4.584037181994063,031,001,2019_May_14_1511,MusicAffectPsychophysiology2019,3.0.5,59.98165484649898,
To what extent did the music make you feel ,SAD,30MonoWAV/30MonoF4.wav,1,2,2,4,,,,,0,10,10,3,0,1,1,0,,,,,,,,,2,3.035095736006042,031,001,2019_May_14_1511,MusicAffectPsychophysiology2019,3.0.5,59.98165484649898,
To what extent did the music make you feel ,ANGRY,30MonoWAV/30MonoF4.wav,1,2,2,4,,,,,0,10,10,3,0,2,2,2,,,,,,,,,2,1.1993646680057282,031,001,2019_May_14_1511,MusicAffectPsychophysiology2019,3.0.5,59.98165484649898,
To what extent did the music make you feel ,GUILTY,30MonoWAV/30MonoF4.wav,1,2,2,4,,,,,0,10,10,3,0,3,3,5,,,,,,,,,1,2.252856751001673,031,001,2019_May_14_1511,MusicAffectPsychophysiology2019,3.0.5,59.98165484649898,
To what extent did the music make you feel ,EXCITED,30MonoWAV/30MonoF4.wav,1,2,2,4,,,,,0,10,10,3,0,4,4,7,,,,,,,,,1,5.17602166699362,031,001,2019_May_14_1511,MusicAffectPsychophysiology2019,3.0.5,59.98165484649898,
To what extent did the music make you feel ,SCARED,30MonoWAV/30MonoF4.wav,1,2,2,4,,,,,0,10,10,3,0,5,5,11,,,,,,,,,2,5.361612961001811,031,001,2019_May_14_1511,MusicAffectPsychophysiology2019,3.0.5,59.98165484649898,
To what extent did the music make you feel ,ANXIOUS ,30MonoWAV/30MonoF4.wav,1,2,2,4,,,,,0,10,10,3,0,6,6,1,,,,,,,,,2,1.1689069400017615,031,001,2019_May_14_1511,MusicAffectPsychophysiology2019,3.0.5,59.98165484649898,
To what extent did the music make you feel ,TENDER,30MonoWAV/30MonoF4.wav,1,2,2,4,,,,,0,10,10,3,0,7,7,10,,,,,,,,,1,1.5358077510027215,031,001,2019_May_14_1511,MusicAffectPsychophysiology2019,3.0.5,59.98165484649898,
To what extent did the music make you feel ,HAPPY,30MonoWAV/30MonoF4.wav,1,2,2,4,,,,,0,10,10,3,0,8,8,6,,,,,,,,,1,2.719596769005875,031,001,2019_May_14_1511,MusicAffectPsychophysiology2019,3.0.5,59.98165484649898,
To what extent did the music make you feel ,ALERT,30MonoWAV/30MonoF4.wav,1,2,2,4,,,,,0,10,10,3,0,9,9,8,,,,,,,,,2,2.2739111820119433,031,001,2019_May_14_1511,MusicAffectPsychophysiology2019,3.0.5,59.98165484649898,
To what extent did the music make you feel ,FRUSTRATED,30MonoWAV/30MonoF4.wav,1,2,2,4,,,,,0,10,10,3,0,10,10,3,,,,,,,,,2,1.7538043559907237,031,001,2019_May_14_1511,MusicAffectPsychophysiology2019,3.0.5,59.98165484649898,
To what extent did the music make you feel ,ASHAMED,30MonoWAV/30MonoF4.wav,1,2,2,4,,,,,0,10,10,3,0,11,11,4,,,,,,,,,1,2.2201918929931708,031,001,2019_May_14_1511,MusicAffectPsychophysiology2019,3.0.5,59.98165484649898,
,,30MonoWAV/30MonoF4.wav,1,2,2,4,,,,,0,10,10,3,,,,,,,,,,,,,,,031,001,2019_May_14_1511,MusicAffectPsychophysiology2019,3.0.5,59.98165484649898,
To what extent did the music make you feel ,SCARED,30MonoWAV/30MonoH2.wav,2,2,1,6,,,,,0,11,11,5,0,0,0,11,,,2,7.3347166089952225,1,2.401620514006936,1,1.2180486150027718,2,6.337956939009018,031,001,2019_May_14_1511,MusicAffectPsychophysiology2019,3.0.5,59.98165484649898,
To what extent did the music make you feel ,ALERT,30MonoWAV/30MonoH2.wav,2,2,1,6,,,,,0,11,11,5,0,1,1,8,,,,,,,,,2,1.6580518020055024,031,001,2019_May_14_1511,MusicAffectPsychophysiology2019,3.0.5,59.98165484649898,
To what extent did the music make you feel ,ACTIVE,30MonoWAV/30MonoH2.wav,2,2,1,6,,,,,0,11,11,5,0,2,2,9,,,,,,,,,2,2.9213636630011024,031,001,2019_May_14_1511,MusicAffectPsychophysiology2019,3.0.5,59.98165484649898,
To what extent did the music make you feel ,ASHAMED,30MonoWAV/30MonoH2.wav,2,2,1,6,,,,,0,11,11,5,0,3,3,4,,,,,,,,,1,3.941151074002846,031,001,2019_May_14_1511,MusicAffectPsychophysiology2019,3.0.5,59.98165484649898,
To what extent did the music make you feel ,HAPPY,30MonoWAV/30MonoH2.wav,2,2,1,6,,,,,0,11,11,5,0,4,4,6,,,,,,,,,1,2.585120204996201,031,001,2019_May_14_1511,MusicAffectPsychophysiology2019,3.0.5,59.98165484649898,
To what extent did the music make you feel ,ANGRY,30MonoWAV/30MonoH2.wav,2,2,1,6,,,,,0,11,11,5,0,5,5,2,,,,,,,,,1,5.783760745005566,031,001,2019_May_14_1511,MusicAffectPsychophysiology2019,3.0.5,59.98165484649898,
To what extent did the music make you feel ,EXCITED,30MonoWAV/30MonoH2.wav,2,2,1,6,,,,,0,11,11,5,0,6,6,7,,,,,,,,,1,2.0178654860064853,031,001,2019_May_14_1511,MusicAffectPsychophysiology2019,3.0.5,59.98165484649898,
To what extent did the music make you feel ,SAD,30MonoWAV/30MonoH2.wav,2,2,1,6,,,,,0,11,11,5,0,7,7,0,,,,,,,,,1,0.8684565699950326,031,001,2019_May_14_1511,MusicAffectPsychophysiology2019,3.0.5,59.98165484649898,
To what extent did the music make you feel ,GUILTY,30MonoWAV/30MonoH2.wav,2,2,1,6,,,,,0,11,11,5,0,8,8,5,,,,,,,,,1,1.3692527869861806,031,001,2019_May_14_1511,MusicAffectPsychophysiology2019,3.0.5,59.98165484649898,
To what extent did the music make you feel ,FRUSTRATED,30MonoWAV/30MonoH2.wav,2,2,1,6,,,,,0,11,11,5,0,9,9,3,,,,,,,,,2,3.985180946998298,031,001,2019_May_14_1511,MusicAffectPsychophysiology2019,3.0.5,59.98165484649898,
To what extent did the music make you feel ,TENDER,30MonoWAV/30MonoH2.wav,2,2,1,6,,,,,0,11,11,5,0,10,10,10,,,,,,,,,2,6.885256060995744,031,001,2019_May_14_1511,MusicAffectPsychophysiology2019,3.0.5,59.98165484649898,
To what extent did the music make you feel ,ANXIOUS ,30MonoWAV/30MonoH2.wav,2,2,1,6,,,,,0,11,11,5,0,11,11,1,,,,,,,,,1,3.4521182000025874,031,001,2019_May_14_1511,MusicAffectPsychophysiology2019,3.0.5,59.98165484649898,
,,30MonoWAV/30MonoH2.wav,2,2,1,6,,,,,0,11,11,5,,,,,,,,,,,,,,,031,001,2019_May_14_1511,MusicAffectPsychophysiology2019,3.0.5,59.98165484649898,
To what extent did the music make you feel ,ANGRY,30MonoWAV/30MonoS4.wav,1,1,3,12,,,,,0,12,12,11,0,0,0,2,,,2,4.759898226999212,3,2.8394402919948334,3,1.6551145239936886,1,3.652803365010186,031,001,2019_May_14_1511,MusicAffectPsychophysiology2019,3.0.5,59.98165484649898,
To what extent did the music make you feel ,ANXIOUS ,30MonoWAV/30MonoS4.wav,1,1,3,12,,,,,0,12,12,11,0,1,1,1,,,,,,,,,1,0.8351393610064406,031,001,2019_May_14_1511,MusicAffectPsychophysiology2019,3.0.5,59.98165484649898,
To what extent did the music make you feel ,EXCITED,30MonoWAV/30MonoS4.wav,1,1,3,12,,,,,0,12,12,11,0,2,2,7,,,,,,,,,2,1.6530635550006991,031,001,2019_May_14_1511,MusicAffectPsychophysiology2019,3.0.5,59.98165484649898,
To what extent did the music make you feel ,TENDER,30MonoWAV/30MonoS4.wav,1,1,3,12,,,,,0,12,12,11,0,3,3,10,,,,,,,,,3,2.9176207069976954,031,001,2019_May_14_1511,MusicAffectPsychophysiology2019,3.0.5,59.98165484649898,
To what extent did the music make you feel ,FRUSTRATED,30MonoWAV/30MonoS4.wav,1,1,3,12,,,,,0,12,12,11,0,4,4,3,,,,,,,,,1,1.6363634899898898,031,001,2019_May_14_1511,MusicAffectPsychophysiology2019,3.0.5,59.98165484649898,
To what extent did the music make you feel ,GUILTY,30MonoWAV/30MonoS4.wav,1,1,3,12,,,,,0,12,12,11,0,5,5,5,,,,,,,,,1,1.0355145420035115,031,001,2019_May_14_1511,MusicAffectPsychophysiology2019,3.0.5,59.98165484649898,
To what extent did the music make you feel ,ALERT,30MonoWAV/30MonoS4.wav,1,1,3,12,,,,,0,12,12,11,0,6,6,8,,,,,,,,,2,1.5344157419895055,031,001,2019_May_14_1511,MusicAffectPsychophysiology2019,3.0.5,59.98165484649898,
To what extent did the music make you feel ,SCARED,30MonoWAV/30MonoS4.wav,1,1,3,12,,,,,0,12,12,11,0,7,7,11,,,,,,,,,1,1.384530559007544,031,001,2019_May_14_1511,MusicAffectPsychophysiology2019,3.0.5,59.98165484649898,
To what extent did the music make you feel ,ASHAMED,30MonoWAV/30MonoS4.wav,1,1,3,12,,,,,0,12,12,11,0,8,8,4,,,,,,,,,1,1.3033953950071009,031,001,2019_May_14_1511,MusicAffectPsychophysiology2019,3.0.5,59.98165484649898,
To what extent did the music make you feel ,ACTIVE,30MonoWAV/30MonoS4.wav,1,1,3,12,,,,,0,12,12,11,0,9,9,9,,,,,,,,,2,1.317843791010091,031,001,2019_May_14_1511,MusicAffectPsychophysiology2019,3.0.5,59.98165484649898,
To what extent did the music make you feel ,HAPPY,30MonoWAV/30MonoS4.wav,1,1,3,12,,,,,0,12,12,11,0,10,10,6,,,,,,,,,3,1.3679342600080417,031,001,2019_May_14_1511,MusicAffectPsychophysiology2019,3.0.5,59.98165484649898,
To what extent did the music make you feel ,SAD,30MonoWAV/30MonoS4.wav,1,1,3,12,,,,,0,12,12,11,0,11,11,0,,,,,,,,,1,1.1690249620005488,031,001,2019_May_14_1511,MusicAffectPsychophysiology2019,3.0.5,59.98165484649898,
,,30MonoWAV/30MonoS4.wav,1,1,3,12,,,,,0,12,12,11,,,,,,,,,,,,,,,031,001,2019_May_14_1511,MusicAffectPsychophysiology2019,3.0.5,59.98165484649898,
To what extent did the music make you feel ,SCARED,30MonoWAV/30MonoS3.wav,1,1,3,11,,,,,0,13,13,10,0,0,0,11,,,2,6.617704524003784,1,3.9678010439965874,1,1.7184854229999473,2,2.4845223969896324,031,001,2019_May_14_1511,MusicAffectPsychophysiology2019,3.0.5,59.98165484649898,
To what extent did the music make you feel ,EXCITED,30MonoWAV/30MonoS3.wav,1,1,3,11,,,,,0,13,13,10,0,1,1,7,,,,,,,,,2,6.401741374997073,031,001,2019_May_14_1511,MusicAffectPsychophysiology2019,3.0.5,59.98165484649898,
To what extent did the music make you feel ,ALERT,30MonoWAV/30MonoS3.wav,1,1,3,11,,,,,0,13,13,10,0,2,2,8,,,,,,,,,3,4.765784072995302,031,001,2019_May_14_1511,MusicAffectPsychophysiology2019,3.0.5,59.98165484649898,
To what extent did the music make you feel ,TENDER,30MonoWAV/30MonoS3.wav,1,1,3,11,,,,,0,13,13,10,0,3,3,10,,,,,,,,,2,3.218000460998155,031,001,2019_May_14_1511,MusicAffectPsychophysiology2019,3.0.5,59.98165484649898,
To what extent did the music make you feel ,FRUSTRATED,30MonoWAV/30MonoS3.wav,1,1,3,11,,,,,0,13,13,10,0,4,4,3,,,,,,,,,2,6.018456107005477,031,001,2019_May_14_1511,MusicAffectPsychophysiology2019,3.0.5,59.98165484649898,
To what extent did the music make you feel ,HAPPY,30MonoWAV/30MonoS3.wav,1,1,3,11,,,,,0,13,13,10,0,5,5,6,,,,,,,,,1,2.0850127169978805,031,001,2019_May_14_1511,MusicAffectPsychophysiology2019,3.0.5,59.98165484649898,
To what extent did the music make you feel ,ASHAMED,30MonoWAV/30MonoS3.wav,1,1,3,11,,,,,0,13,13,10,0,6,6,4,,,,,,,,,1,2.3023570380028104,031,001,2019_May_14_1511,MusicAffectPsychophysiology2019,3.0.5,59.98165484649898,
To what extent did the music make you feel ,ANGRY,30MonoWAV/30MonoS3.wav,1,1,3,11,,,,,0,13,13,10,0,7,7,2,,,,,,,,,2,4.967122297995957,031,001,2019_May_14_1511,MusicAffectPsychophysiology2019,3.0.5,59.98165484649898,
To what extent did the music make you feel ,GUILTY,30MonoWAV/30MonoS3.wav,1,1,3,11,,,,,0,13,13,10,0,8,8,5,,,,,,,,,1,1.934462931996677,031,001,2019_May_14_1511,MusicAffectPsychophysiology2019,3.0.5,59.98165484649898,
To what extent did the music make you feel ,SAD,30MonoWAV/30MonoS3.wav,1,1,3,11,,,,,0,13,13,10,0,9,9,0,,,,,,,,,2,1.618503536999924,031,001,2019_May_14_1511,MusicAffectPsychophysiology2019,3.0.5,59.98165484649898,
To what extent did the music make you feel ,ANXIOUS ,30MonoWAV/30MonoS3.wav,1,1,3,11,,,,,0,13,13,10,0,10,10,1,,,,,,,,,3,4.93426186000579,031,001,2019_May_14_1511,MusicAffectPsychophysiology2019,3.0.5,59.98165484649898,
To what extent did the music make you feel ,ACTIVE,30MonoWAV/30MonoS3.wav,1,1,3,11,,,,,0,13,13,10,0,11,11,9,,,,,,,,,1,5.617300519996206,031,001,2019_May_14_1511,MusicAffectPsychophysiology2019,3.0.5,59.98165484649898,
,,30MonoWAV/30MonoS3.wav,1,1,3,11,,,,,0,13,13,10,,,,,,,,,,,,,,,031,001,2019_May_14_1511,MusicAffectPsychophysiology2019,3.0.5,59.98165484649898,
To what extent did the music make you feel ,ALERT,30MonoWAV/30MonoS2.wav,1,1,3,10,,,,,0,14,14,9,0,0,0,8,,,2,6.634797314996831,2,4.901201296990621,2,5.569462090992602,1,5.510739586999989,031,001,2019_May_14_1511,MusicAffectPsychophysiology2019,3.0.5,59.98165484649898,
To what extent did the music make you feel ,GUILTY,30MonoWAV/30MonoS2.wav,1,1,3,10,,,,,0,14,14,9,0,1,1,5,,,,,,,,,1,1.9845141370024066,031,001,2019_May_14_1511,MusicAffectPsychophysiology2019,3.0.5,59.98165484649898,
To what extent did the music make you feel ,SAD,30MonoWAV/30MonoS2.wav,1,1,3,10,,,,,0,14,14,9,0,2,2,0,,,,,,,,,3,5.335062777012354,031,001,2019_May_14_1511,MusicAffectPsychophysiology2019,3.0.5,59.98165484649898,
To what extent did the music make you feel ,ANGRY,30MonoWAV/30MonoS2.wav,1,1,3,10,,,,,0,14,14,9,0,3,3,2,,,,,,,,,1,3.7530563110049115,031,001,2019_May_14_1511,MusicAffectPsychophysiology2019,3.0.5,59.98165484649898,
To what extent did the music make you feel ,SCARED,30MonoWAV/30MonoS2.wav,1,1,3,10,,,,,0,14,14,9,0,4,4,11,,,,,,,,,1,2.0678985389968148,031,001,2019_May_14_1511,MusicAffectPsychophysiology2019,3.0.5,59.98165484649898,
To what extent did the music make you feel ,FRUSTRATED,30MonoWAV/30MonoS2.wav,1,1,3,10,,,,,0,14,14,9,0,5,5,3,,,,,,,,,2,2.985266440009582,031,001,2019_May_14_1511,MusicAffectPsychophysiology2019,3.0.5,59.98165484649898,
To what extent did the music make you feel ,ANXIOUS ,30MonoWAV/30MonoS2.wav,1,1,3,10,,,,,0,14,14,9,0,6,6,1,,,,,,,,,2,3.085106945000007,031,001,2019_May_14_1511,MusicAffectPsychophysiology2019,3.0.5,59.98165484649898,
To what extent did the music make you feel ,EXCITED,30MonoWAV/30MonoS2.wav,1,1,3,10,,,,,0,14,14,9,0,7,7,7,,,,,,,,,1,2.8011862040002597,031,001,2019_May_14_1511,MusicAffectPsychophysiology2019,3.0.5,59.98165484649898,
To what extent did the music make you feel ,HAPPY,30MonoWAV/30MonoS2.wav,1,1,3,10,,,,,0,14,14,9,0,8,8,6,,,,,,,,,2,2.502922732004663,031,001,2019_May_14_1511,MusicAffectPsychophysiology2019,3.0.5,59.98165484649898,
To what extent did the music make you feel ,ACTIVE,30MonoWAV/30MonoS2.wav,1,1,3,10,,,,,0,14,14,9,0,9,9,9,,,,,,,,,2,2.6024216060031904,031,001,2019_May_14_1511,MusicAffectPsychophysiology2019,3.0.5,59.98165484649898,
To what extent did the music make you feel ,TENDER,30MonoWAV/30MonoS2.wav,1,1,3,10,,,,,0,14,14,9,0,10,10,10,,,,,,,,,3,2.8348930310021387,031,001,2019_May_14_1511,MusicAffectPsychophysiology2019,3.0.5,59.98165484649898,
To what extent did the music make you feel ,ASHAMED,30MonoWAV/30MonoS2.wav,1,1,3,10,,,,,0,14,14,9,0,11,11,4,,,,,,,,,1,2.7851188009954058,031,001,2019_May_14_1511,MusicAffectPsychophysiology2019,3.0.5,59.98165484649898,
,,30MonoWAV/30MonoS2.wav,1,1,3,10,,,,,0,14,14,9,,,,,,,,,,,,,,,031,001,2019_May_14_1511,MusicAffectPsychophysiology2019,3.0.5,59.98165484649898,
To what extent did the music make you feel ,EXCITED,30MonoWAV/30MonoF3.wav,1,2,2,3,,,,,0,15,15,2,0,0,0,7,,,3,5.6418228639959125,1,7.819471570008318,1,2.5352420279959915,2,6.602031314992928,031,001,2019_May_14_1511,MusicAffectPsychophysiology2019,3.0.5,59.98165484649898,
To what extent did the music make you feel ,HAPPY,30MonoWAV/30MonoF3.wav,1,2,2,3,,,,,0,15,15,2,0,1,1,6,,,,,,,,,2,4.21812034600589,031,001,2019_May_14_1511,MusicAffectPsychophysiology2019,3.0.5,59.98165484649898,
To what extent did the music make you feel ,ANGRY,30MonoWAV/30MonoF3.wav,1,2,2,3,,,,,0,15,15,2,0,2,2,2,,,,,,,,,2,5.750433549008449,031,001,2019_May_14_1511,MusicAffectPsychophysiology2019,3.0.5,59.98165484649898,
To what extent did the music make you feel ,ALERT,30MonoWAV/30MonoF3.wav,1,2,2,3,,,,,0,15,15,2,0,3,3,8,,,,,,,,,2,1.534611123992363,031,001,2019_May_14_1511,MusicAffectPsychophysiology2019,3.0.5,59.98165484649898,
To what extent did the music make you feel ,FRUSTRATED,30MonoWAV/30MonoF3.wav,1,2,2,3,,,,,0,15,15,2,0,4,4,3,,,,,,,,,3,3.9698377400054596,031,001,2019_May_14_1511,MusicAffectPsychophysiology2019,3.0.5,59.98165484649898,
To what extent did the music make you feel ,SAD,30MonoWAV/30MonoF3.wav,1,2,2,3,,,,,0,15,15,2,0,5,5,0,,,,,,,,,1,2.184467491999385,031,001,2019_May_14_1511,MusicAffectPsychophysiology2019,3.0.5,59.98165484649898,
To what extent did the music make you feel ,ANXIOUS ,30MonoWAV/30MonoF3.wav,1,2,2,3,,,,,0,15,15,2,0,6,6,1,,,,,,,,,2,1.8512753380055074,031,001,2019_May_14_1511,MusicAffectPsychophysiology2019,3.0.5,59.98165484649898,
To what extent did the music make you feel ,ASHAMED,30MonoWAV/30MonoF3.wav,1,2,2,3,,,,,0,15,15,2,0,7,7,4,,,,,,,,,1,1.4017613710020669,031,001,2019_May_14_1511,MusicAffectPsychophysiology2019,3.0.5,59.98165484649898,
To what extent did the music make you feel ,GUILTY,30MonoWAV/30MonoF3.wav,1,2,2,3,,,,,0,15,15,2,0,8,8,5,,,,,,,,,1,2.899750821001362,031,001,2019_May_14_1511,MusicAffectPsychophysiology2019,3.0.5,59.98165484649898,
To what extent did the music make you feel ,TENDER,30MonoWAV/30MonoF3.wav,1,2,2,3,,,,,0,15,15,2,0,9,9,10,,,,,,,,,2,7.202320512995357,031,001,2019_May_14_1511,MusicAffectPsychophysiology2019,3.0.5,59.98165484649898,
To what extent did the music make you feel ,SCARED,30MonoWAV/30MonoF3.wav,1,2,2,3,,,,,0,15,15,2,0,10,10,11,,,,,,,,,2,2.434715066992794,031,001,2019_May_14_1511,MusicAffectPsychophysiology2019,3.0.5,59.98165484649898,
To what extent did the music make you feel ,ACTIVE,30MonoWAV/30MonoF3.wav,1,2,2,3,,,,,0,15,15,2,0,11,11,9,,,,,,,,,2,1.4017880779865663,031,001,2019_May_14_1511,MusicAffectPsychophysiology2019,3.0.5,59.98165484649898,
,,30MonoWAV/30MonoF3.wav,1,2,2,3,,,,,0,15,15,2,,,,,,,,,,,,,,,031,001,2019_May_14_1511,MusicAffectPsychophysiology2019,3.0.5,59.98165484649898,
To what extent did the music make you feel ,TENDER,30MonoWAV/30MonoS1.wav,1,1,3,9,,,,,1,0,16,8,0,0,0,10,,,2,4.302291350002633,1,3.2013329250039533,1,2.0694348749966593,2,7.973152391001349,031,001,2019_May_14_1511,MusicAffectPsychophysiology2019,3.0.5,59.98165484649898,
To what extent did the music make you feel ,ANGRY,30MonoWAV/30MonoS1.wav,1,1,3,9,,,,,1,0,16,8,0,1,1,2,,,,,,,,,1,1.819277657996281,031,001,2019_May_14_1511,MusicAffectPsychophysiology2019,3.0.5,59.98165484649898,
To what extent did the music make you feel ,SCARED,30MonoWAV/30MonoS1.wav,1,1,3,9,,,,,1,0,16,8,0,2,2,11,,,,,,,,,1,2.052073405997362,031,001,2019_May_14_1511,MusicAffectPsychophysiology2019,3.0.5,59.98165484649898,
To what extent did the music make you feel ,ALERT,30MonoWAV/30MonoS1.wav,1,1,3,9,,,,,1,0,16,8,0,3,3,8,,,,,,,,,1,2.984875698995893,031,001,2019_May_14_1511,MusicAffectPsychophysiology2019,3.0.5,59.98165484649898,
To what extent did the music make you feel ,SAD,30MonoWAV/30MonoS1.wav,1,1,3,9,,,,,1,0,16,8,0,4,4,0,,,,,,,,,3,1.8338168680056697,031,001,2019_May_14_1511,MusicAffectPsychophysiology2019,3.0.5,59.98165484649898,
To what extent did the music make you feel ,HAPPY,30MonoWAV/30MonoS1.wav,1,1,3,9,,,,,1,0,16,8,0,5,5,6,,,,,,,,,1,1.9519719989912119,031,001,2019_May_14_1511,MusicAffectPsychophysiology2019,3.0.5,59.98165484649898,
To what extent did the music make you feel ,GUILTY,30MonoWAV/30MonoS1.wav,1,1,3,9,,,,,1,0,16,8,0,6,6,5,,,,,,,,,1,2.01879963700776,031,001,2019_May_14_1511,MusicAffectPsychophysiology2019,3.0.5,59.98165484649898,
To what extent did the music make you feel ,ASHAMED,30MonoWAV/30MonoS1.wav,1,1,3,9,,,,,1,0,16,8,0,7,7,4,,,,,,,,,1,2.5515660630044295,031,001,2019_May_14_1511,MusicAffectPsychophysiology2019,3.0.5,59.98165484649898,
To what extent did the music make you feel ,EXCITED,30MonoWAV/30MonoS1.wav,1,1,3,9,,,,,1,0,16,8,0,8,8,7,,,,,,,,,2,10.101479242992355,031,001,2019_May_14_1511,MusicAffectPsychophysiology2019,3.0.5,59.98165484649898,
To what extent did the music make you feel ,ANXIOUS ,30MonoWAV/30MonoS1.wav,1,1,3,9,,,,,1,0,16,8,0,9,9,1,,,,,,,,,3,3.917596072991728,031,001,2019_May_14_1511,MusicAffectPsychophysiology2019,3.0.5,59.98165484649898,
To what extent did the music make you feel ,FRUSTRATED,30MonoWAV/30MonoS1.wav,1,1,3,9,,,,,1,0,16,8,0,10,10,3,,,,,,,,,2,1.5188292399980128,031,001,2019_May_14_1511,MusicAffectPsychophysiology2019,3.0.5,59.98165484649898,
To what extent did the music make you feel ,ACTIVE,30MonoWAV/30MonoS1.wav,1,1,3,9,,,,,1,0,16,8,0,11,11,9,,,,,,,,,1,2.6862282539950684,031,001,2019_May_14_1511,MusicAffectPsychophysiology2019,3.0.5,59.98165484649898,
,,30MonoWAV/30MonoS1.wav,1,1,3,9,,,,,1,0,16,8,,,,,,,,,,,,,,,031,001,2019_May_14_1511,MusicAffectPsychophysiology2019,3.0.5,59.98165484649898,
To what extent did the music make you feel ,HAPPY,30MonoWAV/30MonoH1.wav,2,2,1,5,,,,,1,1,17,4,0,0,0,6,,,3,4.284501658999943,4,5.8847801859956235,4,4.551594364005723,4,6.300500571000157,031,001,2019_May_14_1511,MusicAffectPsychophysiology2019,3.0.5,59.98165484649898,
To what extent did the music make you feel ,FRUSTRATED,30MonoWAV/30MonoH1.wav,2,2,1,5,,,,,1,1,17,4,0,1,1,3,,,,,,,,,1,2.4020467899972573,031,001,2019_May_14_1511,MusicAffectPsychophysiology2019,3.0.5,59.98165484649898,
To what extent did the music make you feel ,ACTIVE,30MonoWAV/30MonoH1.wav,2,2,1,5,,,,,1,1,17,4,0,2,2,9,,,,,,,,,3,1.8020716410101159,031,001,2019_May_14_1511,MusicAffectPsychophysiology2019,3.0.5,59.98165484649898,
To what extent did the music make you feel ,SAD,30MonoWAV/30MonoH1.wav,2,2,1,5,,,,,1,1,17,4,0,3,3,0,,,,,,,,,1,1.5021051179937785,031,001,2019_May_14_1511,MusicAffectPsychophysiology2019,3.0.5,59.98165484649898,
To what extent did the music make you feel ,GUILTY,30MonoWAV/30MonoH1.wav,2,2,1,5,,,,,1,1,17,4,0,4,4,5,,,,,,,,,1,0.702365610995912,031,001,2019_May_14_1511,MusicAffectPsychophysiology2019,3.0.5,59.98165484649898,
To what extent did the music make you feel ,EXCITED,30MonoWAV/30MonoH1.wav,2,2,1,5,,,,,1,1,17,4,0,5,5,7,,,,,,,,,3,2.0346385540033225,031,001,2019_May_14_1511,MusicAffectPsychophysiology2019,3.0.5,59.98165484649898,
To what extent did the music make you feel ,ANXIOUS ,30MonoWAV/30MonoH1.wav,2,2,1,5,,,,,1,1,17,4,0,6,6,1,,,,,,,,,1,5.034814015991287,031,001,2019_May_14_1511,MusicAffectPsychophysiology2019,3.0.5,59.98165484649898,
To what extent did the music make you feel ,ASHAMED,30MonoWAV/30MonoH1.wav,2,2,1,5,,,,,1,1,17,4,0,7,7,4,,,,,,,,,1,1.1511801260057837,031,001,2019_May_14_1511,MusicAffectPsychophysiology2019,3.0.5,59.98165484649898,
To what extent did the music make you feel ,TENDER,30MonoWAV/30MonoH1.wav,2,2,1,5,,,,,1,1,17,4,0,8,8,10,,,,,,,,,3,4.635675064011593,031,001,2019_May_14_1511,MusicAffectPsychophysiology2019,3.0.5,59.98165484649898,
To what extent did the music make you feel ,ANGRY,30MonoWAV/30MonoH1.wav,2,2,1,5,,,,,1,1,17,4,0,9,9,2,,,,,,,,,1,1.5341636809898773,031,001,2019_May_14_1511,MusicAffectPsychophysiology2019,3.0.5,59.98165484649898,
To what extent did the music make you feel ,ALERT,30MonoWAV/30MonoH1.wav,2,2,1,5,,,,,1,1,17,4,0,10,10,8,,,,,,,,,3,3.1860894550045487,031,001,2019_May_14_1511,MusicAffectPsychophysiology2019,3.0.5,59.98165484649898,
To what extent did the music make you feel ,SCARED,30MonoWAV/30MonoH1.wav,2,2,1,5,,,,,1,1,17,4,0,11,11,11,,,,,,,,,1,2.0180540580040542,031,001,2019_May_14_1511,MusicAffectPsychophysiology2019,3.0.5,59.98165484649898,
,,30MonoWAV/30MonoH1.wav,2,2,1,5,,,,,1,1,17,4,,,,,,,,,,,,,,,031,001,2019_May_14_1511,MusicAffectPsychophysiology2019,3.0.5,59.98165484649898,
To what extent did the music make you feel ,TENDER,30MonoWAV/30MonoT1.wav,2,1,4,13,,,,,1,2,18,12,0,0,0,10,,,1,5.16776064800797,3,3.6344305710081244,3,4.152070219992311,3,5.268790873000398,031,001,2019_May_14_1511,MusicAffectPsychophysiology2019,3.0.5,59.98165484649898,
To what extent did the music make you feel ,FRUSTRATED,30MonoWAV/30MonoT1.wav,2,1,4,13,,,,,1,2,18,12,0,1,1,3,,,,,,,,,1,2.3688346660055686,031,001,2019_May_14_1511,MusicAffectPsychophysiology2019,3.0.5,59.98165484649898,
To what extent did the music make you feel ,ASHAMED,30MonoWAV/30MonoT1.wav,2,1,4,13,,,,,1,2,18,12,0,2,2,4,,,,,,,,,1,0.7665458449919242,031,001,2019_May_14_1511,MusicAffectPsychophysiology2019,3.0.5,59.98165484649898,
To what extent did the music make you feel ,ANGRY,30MonoWAV/30MonoT1.wav,2,1,4,13,,,,,1,2,18,12,0,3,3,2,,,,,,,,,1,0.952145481001935,031,001,2019_May_14_1511,MusicAffectPsychophysiology2019,3.0.5,59.98165484649898,
To what extent did the music make you feel ,ACTIVE,30MonoWAV/30MonoT1.wav,2,1,4,13,,,,,1,2,18,12,0,4,4,9,,,,,,,,,1,8.650650716997916,031,001,2019_May_14_1511,MusicAffectPsychophysiology2019,3.0.5,59.98165484649898,
To what extent did the music make you feel ,GUILTY,30MonoWAV/30MonoT1.wav,2,1,4,13,,,,,1,2,18,12,0,5,5,5,,,,,,,,,1,0.8009316050010966,031,001,2019_May_14_1511,MusicAffectPsychophysiology2019,3.0.5,59.98165484649898,
To what extent did the music make you feel ,ANXIOUS ,30MonoWAV/30MonoT1.wav,2,1,4,13,,,,,1,2,18,12,0,6,6,1,,,,,,,,,1,6.501641324008233,031,001,2019_May_14_1511,MusicAffectPsychophysiology2019,3.0.5,59.98165484649898,
To what extent did the music make you feel ,SCARED,30MonoWAV/30MonoT1.wav,2,1,4,13,,,,,1,2,18,12,0,7,7,11,,,,,,,,,1,1.5187942049960839,031,001,2019_May_14_1511,MusicAffectPsychophysiology2019,3.0.5,59.98165484649898,
To what extent did the music make you feel ,EXCITED,30MonoWAV/30MonoT1.wav,2,1,4,13,,,,,1,2,18,12,0,8,8,7,,,,,,,,,2,3.9497977559949504,031,001,2019_May_14_1511,MusicAffectPsychophysiology2019,3.0.5,59.98165484649898,
To what extent did the music make you feel ,HAPPY,30MonoWAV/30MonoT1.wav,2,1,4,13,,,,,1,2,18,12,0,9,9,6,,,,,,,,,2,4.525131388989394,031,001,2019_May_14_1511,MusicAffectPsychophysiology2019,3.0.5,59.98165484649898,
To what extent did the music make you feel ,SAD,30MonoWAV/30MonoT1.wav,2,1,4,13,,,,,1,2,18,12,0,10,10,0,,,,,,,,,2,1.5205147980013862,031,001,2019_May_14_1511,MusicAffectPsychophysiology2019,3.0.5,59.98165484649898,
To what extent did the music make you feel ,ALERT,30MonoWAV/30MonoT1.wav,2,1,4,13,,,,,1,2,18,12,0,11,11,8,,,,,,,,,1,4.359965652009123,031,001,2019_May_14_1511,MusicAffectPsychophysiology2019,3.0.5,59.98165484649898,
,,30MonoWAV/30MonoT1.wav,2,1,4,13,,,,,1,2,18,12,,,,,,,,,,,,,,,031,001,2019_May_14_1511,MusicAffectPsychophysiology2019,3.0.5,59.98165484649898,
To what extent did the music make you feel ,ANXIOUS ,30MonoWAV/30MonoF4.wav,1,2,2,4,,,,,1,3,19,3,0,0,0,1,,,3,5.100793074991088,1,3.6015199039975414,1,1.5009140399924945,3,2.1849126879969845,031,001,2019_May_14_1511,MusicAffectPsychophysiology2019,3.0.5,59.98165484649898,
To what extent did the music make you feel ,GUILTY,30MonoWAV/30MonoF4.wav,1,2,2,4,,,,,1,3,19,3,0,1,1,5,,,,,,,,,1,2.617704981996212,031,001,2019_May_14_1511,MusicAffectPsychophysiology2019,3.0.5,59.98165484649898,
To what extent did the music make you feel ,EXCITED,30MonoWAV/30MonoF4.wav,1,2,2,4,,,,,1,3,19,3,0,2,2,7,,,,,,,,,2,4.885008907003794,031,001,2019_May_14_1511,MusicAffectPsychophysiology2019,3.0.5,59.98165484649898,
To what extent did the music make you feel ,SCARED,30MonoWAV/30MonoF4.wav,1,2,2,4,,,,,1,3,19,3,0,3,3,11,,,,,,,,,3,2.8350631309876917,031,001,2019_May_14_1511,MusicAffectPsychophysiology2019,3.0.5,59.98165484649898,
To what extent did the music make you feel ,HAPPY,30MonoWAV/30MonoF4.wav,1,2,2,4,,,,,1,3,19,3,0,4,4,6,,,,,,,,,1,1.752250320991152,031,001,2019_May_14_1511,MusicAffectPsychophysiology2019,3.0.5,59.98165484649898,
To what extent did the music make you feel ,SAD,30MonoWAV/30MonoF4.wav,1,2,2,4,,,,,1,3,19,3,0,5,5,0,,,,,,,,,1,4.135554776992649,031,001,2019_May_14_1511,MusicAffectPsychophysiology2019,3.0.5,59.98165484649898,
To what extent did the music make you feel ,FRUSTRATED,30MonoWAV/30MonoF4.wav,1,2,2,4,,,,,1,3,19,3,0,6,6,3,,,,,,,,,2,1.852438424990396,031,001,2019_May_14_1511,MusicAffectPsychophysiology2019,3.0.5,59.98165484649898,
To what extent did the music make you feel ,ASHAMED,30MonoWAV/30MonoF4.wav,1,2,2,4,,,,,1,3,19,3,0,7,7,4,,,,,,,,,1,1.6998623379913624,031,001,2019_May_14_1511,MusicAffectPsychophysiology2019,3.0.5,59.98165484649898,
To what extent did the music make you feel ,ACTIVE,30MonoWAV/30MonoF4.wav,1,2,2,4,,,,,1,3,19,3,0,8,8,9,,,,,,,,,2,4.900894641003106,031,001,2019_May_14_1511,MusicAffectPsychophysiology2019,3.0.5,59.98165484649898,
To what extent did the music make you feel ,ANGRY,30MonoWAV/30MonoF4.wav,1,2,2,4,,,,,1,3,19,3,0,9,9,2,,,,,,,,,2,1.652522766002221,031,001,2019_May_14_1511,MusicAffectPsychophysiology2019,3.0.5,59.98165484649898,
To what extent did the music make you feel ,ALERT,30MonoWAV/30MonoF4.wav,1,2,2,4,,,,,1,3,19,3,0,10,10,8,,,,,,,,,3,3.452284207000048,031,001,2019_May_14_1511,MusicAffectPsychophysiology2019,3.0.5,59.98165484649898,
To what extent did the music make you feel ,TENDER,30MonoWAV/30MonoF4.wav,1,2,2,4,,,,,1,3,19,3,0,11,11,10,,,,,,,,,1,3.8684860490029678,031,001,2019_May_14_1511,MusicAffectPsychophysiology2019,3.0.5,59.98165484649898,
,,30MonoWAV/30MonoF4.wav,1,2,2,4,,,,,1,3,19,3,,,,,,,,,,,,,,,031,001,2019_May_14_1511,MusicAffectPsychophysiology2019,3.0.5,59.98165484649898,
To what extent did the music make you feel ,ALERT,30MonoWAV/30MonoF2.wav,1,2,2,2,,,,,1,4,20,1,0,0,0,8,,,2,4.884462889996939,1,2.891297927009873,1,1.2690723090054234,3,6.926677960989764,031,001,2019_May_14_1511,MusicAffectPsychophysiology2019,3.0.5,59.98165484649898,
To what extent did the music make you feel ,ACTIVE,30MonoWAV/30MonoF2.wav,1,2,2,2,,,,,1,4,20,1,0,1,1,9,,,,,,,,,2,1.6033105239912402,031,001,2019_May_14_1511,MusicAffectPsychophysiology2019,3.0.5,59.98165484649898,
To what extent did the music make you feel ,SCARED,30MonoWAV/30MonoF2.wav,1,2,2,2,,,,,1,4,20,1,0,2,2,11,,,,,,,,,3,2.5022347000049194,031,001,2019_May_14_1511,MusicAffectPsychophysiology2019,3.0.5,59.98165484649898,
To what extent did the music make you feel ,EXCITED,30MonoWAV/30MonoF2.wav,1,2,2,2,,,,,1,4,20,1,0,3,3,7,,,,,,,,,2,3.218375145996106,031,001,2019_May_14_1511,MusicAffectPsychophysiology2019,3.0.5,59.98165484649898,
To what extent did the music make you feel ,SAD,30MonoWAV/30MonoF2.wav,1,2,2,2,,,,,1,4,20,1,0,4,4,0,,,,,,,,,1,3.652207053004531,031,001,2019_May_14_1511,MusicAffectPsychophysiology2019,3.0.5,59.98165484649898,
To what extent did the music make you feel ,ANXIOUS ,30MonoWAV/30MonoF2.wav,1,2,2,2,,,,,1,4,20,1,0,5,5,1,,,,,,,,,3,3.3015029919915833,031,001,2019_May_14_1511,MusicAffectPsychophysiology2019,3.0.5,59.98165484649898,
To what extent did the music make you feel ,ASHAMED,30MonoWAV/30MonoF2.wav,1,2,2,2,,,,,1,4,20,1,0,6,6,4,,,,,,,,,1,2.119165673997486,031,001,2019_May_14_1511,MusicAffectPsychophysiology2019,3.0.5,59.98165484649898,
To what extent did the music make you feel ,GUILTY,30MonoWAV/30MonoF2.wav,1,2,2,2,,,,,1,4,20,1,0,7,7,5,,,,,,,,,1,1.4400942100037355,031,001,2019_May_14_1511,MusicAffectPsychophysiology2019,3.0.5,59.98165484649898,
To what extent did the music make you feel ,FRUSTRATED,30MonoWAV/30MonoF2.wav,1,2,2,2,,,,,1,4,20,1,0,8,8,3,,,,,,,,,3,12.529412643998512,031,001,2019_May_14_1511,MusicAffectPsychophysiology2019,3.0.5,59.98165484649898,
To what extent did the music make you feel ,ANGRY,30MonoWAV/30MonoF2.wav,1,2,2,2,,,,,1,4,20,1,0,9,9,2,,,,,,,,,2,2.1354716070054565,031,001,2019_May_14_1511,MusicAffectPsychophysiology2019,3.0.5,59.98165484649898,
To what extent did the music make you feel ,TENDER,30MonoWAV/30MonoF2.wav,1,2,2,2,,,,,1,4,20,1,0,10,10,10,,,,,,,,,1,4.667812459010747,031,001,2019_May_14_1511,MusicAffectPsychophysiology2019,3.0.5,59.98165484649898,
To what extent did the music make you feel ,HAPPY,30MonoWAV/30MonoF2.wav,1,2,2,2,,,,,1,4,20,1,0,11,11,6,,,,,,,,,1,2.534374929004116,031,001,2019_May_14_1511,MusicAffectPsychophysiology2019,3.0.5,59.98165484649898,
,,30MonoWAV/30MonoF2.wav,1,2,2,2,,,,,1,4,20,1,,,,,,,,,,,,,,,031,001,2019_May_14_1511,MusicAffectPsychophysiology2019,3.0.5,59.98165484649898,
To what extent did the music make you feel ,ACTIVE,30MonoWAV/30MonoH4.wav,2,2,1,8,,,,,1,5,21,7,0,0,0,9,,,3,6.317754353993223,3,4.817612379993079,3,3.919393421994755,4,7.701382985003875,031,001,2019_May_14_1511,MusicAffectPsychophysiology2019,3.0.5,59.98165484649898,
To what extent did the music make you feel ,ANGRY,30MonoWAV/30MonoH4.wav,2,2,1,8,,,,,1,5,21,7,0,1,1,2,,,,,,,,,1,2.718920758998138,031,001,2019_May_14_1511,MusicAffectPsychophysiology2019,3.0.5,59.98165484649898,
To what extent did the music make you feel ,ALERT,30MonoWAV/30MonoH4.wav,2,2,1,8,,,,,1,5,21,7,0,2,2,8,,,,,,,,,3,2.035954874998424,031,001,2019_May_14_1511,MusicAffectPsychophysiology2019,3.0.5,59.98165484649898,
To what extent did the music make you feel ,HAPPY,30MonoWAV/30MonoH4.wav,2,2,1,8,,,,,1,5,21,7,0,3,3,6,,,,,,,,,3,1.4869877180026378,031,001,2019_May_14_1511,MusicAffectPsychophysiology2019,3.0.5,59.98165484649898,
To what extent did the music make you feel ,GUILTY,30MonoWAV/30MonoH4.wav,2,2,1,8,,,,,1,5,21,7,0,4,4,5,,,,,,,,,1,2.2378225200081943,031,001,2019_May_14_1511,MusicAffectPsychophysiology2019,3.0.5,59.98165484649898,
To what extent did the music make you feel ,ASHAMED,30MonoWAV/30MonoH4.wav,2,2,1,8,,,,,1,5,21,7,0,5,5,4,,,,,,,,,1,1.220193889006623,031,001,2019_May_14_1511,MusicAffectPsychophysiology2019,3.0.5,59.98165484649898,
To what extent did the music make you feel ,FRUSTRATED,30MonoWAV/30MonoH4.wav,2,2,1,8,,,,,1,5,21,7,0,6,6,3,,,,,,,,,1,2.488428053999087,031,001,2019_May_14_1511,MusicAffectPsychophysiology2019,3.0.5,59.98165484649898,
To what extent did the music make you feel ,SAD,30MonoWAV/30MonoH4.wav,2,2,1,8,,,,,1,5,21,7,0,7,7,0,,,,,,,,,1,1.3220571970014134,031,001,2019_May_14_1511,MusicAffectPsychophysiology2019,3.0.5,59.98165484649898,
To what extent did the music make you feel ,SCARED,30MonoWAV/30MonoH4.wav,2,2,1,8,,,,,1,5,21,7,0,8,8,11,,,,,,,,,1,1.4848924250109121,031,001,2019_May_14_1511,MusicAffectPsychophysiology2019,3.0.5,59.98165484649898,
To what extent did the music make you feel ,ANXIOUS ,30MonoWAV/30MonoH4.wav,2,2,1,8,,,,,1,5,21,7,0,9,9,1,,,,,,,,,1,1.1345243389951065,031,001,2019_May_14_1511,MusicAffectPsychophysiology2019,3.0.5,59.98165484649898,
To what extent did the music make you feel ,TENDER,30MonoWAV/30MonoH4.wav,2,2,1,8,,,,,1,5,21,7,0,10,10,10,,,,,,,,,2,1.718121723009972,031,001,2019_May_14_1511,MusicAffectPsychophysiology2019,3.0.5,59.98165484649898,
To what extent did the music make you feel ,EXCITED,30MonoWAV/30MonoH4.wav,2,2,1,8,,,,,1,5,21,7,0,11,11,7,,,,,,,,,3,3.625517991997185,031,001,2019_May_14_1511,MusicAffectPsychophysiology2019,3.0.5,59.98165484649898,
,,30MonoWAV/30MonoH4.wav,2,2,1,8,,,,,1,5,21,7,,,,,,,,,,,,,,,031,001,2019_May_14_1511,MusicAffectPsychophysiology2019,3.0.5,59.98165484649898,
To what extent did the music make you feel ,FRUSTRATED,30MonoWAV/30MonoT3.wav,2,1,4,15,,,,,1,6,22,14,0,0,0,3,,,1,4.617624325997895,1,3.552168891998008,1,1.984740881001926,3,6.3774867829924915,031,001,2019_May_14_1511,MusicAffectPsychophysiology2019,3.0.5,59.98165484649898,
To what extent did the music make you feel ,ANGRY,30MonoWAV/30MonoT3.wav,2,1,4,15,,,,,1,6,22,14,0,1,1,2,,,,,,,,,2,3.901494018995436,031,001,2019_May_14_1511,MusicAffectPsychophysiology2019,3.0.5,59.98165484649898,
To what extent did the music make you feel ,SAD,30MonoWAV/30MonoT3.wav,2,1,4,15,,,,,1,6,22,14,0,2,2,0,,,,,,,,,2,4.076440525997896,031,001,2019_May_14_1511,MusicAffectPsychophysiology2019,3.0.5,59.98165484649898,
To what extent did the music make you feel ,ASHAMED,30MonoWAV/30MonoT3.wav,2,1,4,15,,,,,1,6,22,14,0,3,3,4,,,,,,,,,1,1.0360580330016091,031,001,2019_May_14_1511,MusicAffectPsychophysiology2019,3.0.5,59.98165484649898,
To what extent did the music make you feel ,EXCITED,30MonoWAV/30MonoT3.wav,2,1,4,15,,,,,1,6,22,14,0,4,4,7,,,,,,,,,1,1.2700608899904182,031,001,2019_May_14_1511,MusicAffectPsychophysiology2019,3.0.5,59.98165484649898,
To what extent did the music make you feel ,ALERT,30MonoWAV/30MonoT3.wav,2,1,4,15,,,,,1,6,22,14,0,5,5,8,,,,,,,,,2,2.540777671005344,031,001,2019_May_14_1511,MusicAffectPsychophysiology2019,3.0.5,59.98165484649898,
To what extent did the music make you feel ,GUILTY,30MonoWAV/30MonoT3.wav,2,1,4,15,,,,,1,6,22,14,0,6,6,5,,,,,,,,,1,1.4181653230043594,031,001,2019_May_14_1511,MusicAffectPsychophysiology2019,3.0.5,59.98165484649898,
To what extent did the music make you feel ,HAPPY,30MonoWAV/30MonoT3.wav,2,1,4,15,,,,,1,6,22,14,0,7,7,6,,,,,,,,,2,5.9021191770007135,031,001,2019_May_14_1511,MusicAffectPsychophysiology2019,3.0.5,59.98165484649898,
To what extent did the music make you feel ,ACTIVE,30MonoWAV/30MonoT3.wav,2,1,4,15,,,,,1,6,22,14,0,8,8,9,,,,,,,,,2,2.384911771005136,031,001,2019_May_14_1511,MusicAffectPsychophysiology2019,3.0.5,59.98165484649898,
To what extent did the music make you feel ,TENDER,30MonoWAV/30MonoT3.wav,2,1,4,15,,,,,1,6,22,14,0,9,9,10,,,,,,,,,2,3.5186366550042294,031,001,2019_May_14_1511,MusicAffectPsychophysiology2019,3.0.5,59.98165484649898,
To what extent did the music make you feel ,SCARED,30MonoWAV/30MonoT3.wav,2,1,4,15,,,,,1,6,22,14,0,10,10,11,,,,,,,,,2,1.6173180339974351,031,001,2019_May_14_1511,MusicAffectPsychophysiology2019,3.0.5,59.98165484649898,
To what extent did the music make you feel ,ANXIOUS ,30MonoWAV/30MonoT3.wav,2,1,4,15,,,,,1,6,22,14,0,11,11,1,,,,,,,,,2,3.2181002049910603,031,001,2019_May_14_1511,MusicAffectPsychophysiology2019,3.0.5,59.98165484649898,
,,30MonoWAV/30MonoT3.wav,2,1,4,15,,,,,1,6,22,14,,,,,,,,,,,,,,,031,001,2019_May_14_1511,MusicAffectPsychophysiology2019,3.0.5,59.98165484649898,
To what extent did the music make you feel ,GUILTY,30MonoWAV/30MonoS2.wav,1,1,3,10,,,,,1,7,23,9,0,0,0,5,,,2,8.194674804995884,3,2.7222399650054285,3,1.6035562420001952,1,4.8244840589904925,031,001,2019_May_14_1511,MusicAffectPsychophysiology2019,3.0.5,59.98165484649898,
To what extent did the music make you feel ,ANXIOUS ,30MonoWAV/30MonoS2.wav,1,1,3,10,,,,,1,7,23,9,0,1,1,1,,,,,,,,,1,2.5720749200118007,031,001,2019_May_14_1511,MusicAffectPsychophysiology2019,3.0.5,59.98165484649898,
To what extent did the music make you feel ,TENDER,30MonoWAV/30MonoS2.wav,1,1,3,10,,,,,1,7,23,9,0,2,2,10,,,,,,,,,3,2.2683920209965436,031,001,2019_May_14_1511,MusicAffectPsychophysiology2019,3.0.5,59.98165484649898,
To what extent did the music make you feel ,SCARED,30MonoWAV/30MonoS2.wav,1,1,3,10,,,,,1,7,23,9,0,3,3,11,,,,,,,,,1,1.7196412390039768,031,001,2019_May_14_1511,MusicAffectPsychophysiology2019,3.0.5,59.98165484649898,
To what extent did the music make you feel ,HAPPY,30MonoWAV/30MonoS2.wav,1,1,3,10,,,,,1,7,23,9,0,4,4,6,,,,,,,,,3,3.5690041960042436,031,001,2019_May_14_1511,MusicAffectPsychophysiology2019,3.0.5,59.98165484649898,
To what extent did the music make you feel ,ALERT,30MonoWAV/30MonoS2.wav,1,1,3,10,,,,,1,7,23,9,0,5,5,8,,,,,,,,,2,1.1351347559975693,031,001,2019_May_14_1511,MusicAffectPsychophysiology2019,3.0.5,59.98165484649898,
To what extent did the music make you feel ,ANGRY,30MonoWAV/30MonoS2.wav,1,1,3,10,,,,,1,7,23,9,0,6,6,2,,,,,,,,,1,1.235347237001406,031,001,2019_May_14_1511,MusicAffectPsychophysiology2019,3.0.5,59.98165484649898,
To what extent did the music make you feel ,SAD,30MonoWAV/30MonoS2.wav,1,1,3,10,,,,,1,7,23,9,0,7,7,0,,,,,,,,,1,0.718731504995958,031,001,2019_May_14_1511,MusicAffectPsychophysiology2019,3.0.5,59.98165484649898,
To what extent did the music make you feel ,EXCITED,30MonoWAV/30MonoS2.wav,1,1,3,10,,,,,1,7,23,9,0,8,8,7,,,,,,,,,1,3.450982198002748,031,001,2019_May_14_1511,MusicAffectPsychophysiology2019,3.0.5,59.98165484649898,
To what extent did the music make you feel ,ASHAMED,30MonoWAV/30MonoS2.wav,1,1,3,10,,,,,1,7,23,9,0,9,9,4,,,,,,,,,1,1.5527570699923672,031,001,2019_May_14_1511,MusicAffectPsychophysiology2019,3.0.5,59.98165484649898,
To what extent did the music make you feel ,FRUSTRATED,30MonoWAV/30MonoS2.wav,1,1,3,10,,,,,1,7,23,9,0,10,10,3,,,,,,,,,1,2.016450953989988,031,001,2019_May_14_1511,MusicAffectPsychophysiology2019,3.0.5,59.98165484649898,
To what extent did the music make you feel ,ACTIVE,30MonoWAV/30MonoS2.wav,1,1,3,10,,,,,1,7,23,9,0,11,11,9,,,,,,,,,1,2.4351945119997254,031,001,2019_May_14_1511,MusicAffectPsychophysiology2019,3.0.5,59.98165484649898,
,,30MonoWAV/30MonoS2.wav,1,1,3,10,,,,,1,7,23,9,,,,,,,,,,,,,,,031,001,2019_May_14_1511,MusicAffectPsychophysiology2019,3.0.5,59.98165484649898,
To what extent did the music make you feel ,ALERT,30MonoWAV/30MonoT2.wav,2,1,4,14,,,,,1,8,24,13,0,0,0,8,,,1,8.306130444994778,1,4.083988269994734,1,1.3684688890061807,1,4.250697739000316,031,001,2019_May_14_1511,MusicAffectPsychophysiology2019,3.0.5,59.98165484649898,
To what extent did the music make you feel ,FRUSTRATED,30MonoWAV/30MonoT2.wav,2,1,4,14,,,,,1,8,24,13,0,1,1,3,,,,,,,,,2,1.58557620299689,031,001,2019_May_14_1511,MusicAffectPsychophysiology2019,3.0.5,59.98165484649898,
To what extent did the music make you feel ,ASHAMED,30MonoWAV/30MonoT2.wav,2,1,4,14,,,,,1,8,24,13,0,2,2,4,,,,,,,,,1,1.0517386270075804,031,001,2019_May_14_1511,MusicAffectPsychophysiology2019,3.0.5,59.98165484649898,
To what extent did the music make you feel ,EXCITED,30MonoWAV/30MonoT2.wav,2,1,4,14,,,,,1,8,24,13,0,3,3,7,,,,,,,,,1,1.0683420239947736,031,001,2019_May_14_1511,MusicAffectPsychophysiology2019,3.0.5,59.98165484649898,
To what extent did the music make you feel ,GUILTY,30MonoWAV/30MonoT2.wav,2,1,4,14,,,,,1,8,24,13,0,4,4,5,,,,,,,,,1,1.485409522007103,031,001,2019_May_14_1511,MusicAffectPsychophysiology2019,3.0.5,59.98165484649898,
To what extent did the music make you feel ,TENDER,30MonoWAV/30MonoT2.wav,2,1,4,14,,,,,1,8,24,13,0,5,5,10,,,,,,,,,1,1.1850419719994534,031,001,2019_May_14_1511,MusicAffectPsychophysiology2019,3.0.5,59.98165484649898,
To what extent did the music make you feel ,SCARED,30MonoWAV/30MonoT2.wav,2,1,4,14,,,,,1,8,24,13,0,6,6,11,,,,,,,,,1,4.951444403995993,031,001,2019_May_14_1511,MusicAffectPsychophysiology2019,3.0.5,59.98165484649898,
To what extent did the music make you feel ,ANXIOUS ,30MonoWAV/30MonoT2.wav,2,1,4,14,,,,,1,8,24,13,0,7,7,1,,,,,,,,,2,1.4006453790061641,031,001,2019_May_14_1511,MusicAffectPsychophysiology2019,3.0.5,59.98165484649898,
To what extent did the music make you feel ,ANGRY,30MonoWAV/30MonoT2.wav,2,1,4,14,,,,,1,8,24,13,0,8,8,2,,,,,,,,,1,2.0335363390040584,031,001,2019_May_14_1511,MusicAffectPsychophysiology2019,3.0.5,59.98165484649898,
To what extent did the music make you feel ,HAPPY,30MonoWAV/30MonoT2.wav,2,1,4,14,,,,,1,8,24,13,0,9,9,6,,,,,,,,,1,3.318693358989549,031,001,2019_May_14_1511,MusicAffectPsychophysiology2019,3.0.5,59.98165484649898,
To what extent did the music make you feel ,SAD,30MonoWAV/30MonoT2.wav,2,1,4,14,,,,,1,8,24,13,0,10,10,0,,,,,,,,,2,1.9173979229963152,031,001,2019_May_14_1511,MusicAffectPsychophysiology2019,3.0.5,59.98165484649898,
To what extent did the music make you feel ,ACTIVE,30MonoWAV/30MonoT2.wav,2,1,4,14,,,,,1,8,24,13,0,11,11,9,,,,,,,,,1,2.5516814760048874,031,001,2019_May_14_1511,MusicAffectPsychophysiology2019,3.0.5,59.98165484649898,
