Instruction,Word,song,valence,arousal,affectcat,songmark,pracwords.thisRepN,pracwords.thisTrialN,pracwords.thisN,pracwords.thisIndex,songtrials.thisRepN,songtrials.thisTrialN,songtrials.thisN,songtrials.thisIndex,words.thisRepN,words.thisTrialN,words.thisN,words.thisIndex,begin.keys,begin.rt,arousalkey.keys,arousalkey.rt,valencekey.keys,valencekey.rt,likekey.keys,likekey.rt,WordResponse.keys,WordResponse.rt,key_resp_2.keys,key_resp_2.rt,participant,session,date,expName,psychopyVersion,frameRate,
,,,,,,,,,,,,,,,,,,,space,24.083808237002813,,,,,,,,,,,032,001,2019_May_14_1612,MusicAffectPsychophysiology2019,3.0.5,59.91328151687972,
,,,,,,,,,,,,,,,,,,,,,3,8.301301480998518,,,,,,,,,032,001,2019_May_14_1612,MusicAffectPsychophysiology2019,3.0.5,59.91328151687972,
,,,,,,,,,,,,,,,,,,,,,,,2,5.084079513995675,,,,,,,032,001,2019_May_14_1612,MusicAffectPsychophysiology2019,3.0.5,59.91328151687972,
,,,,,,,,,,,,,,,,,,,,,,,,,2,3.0511020850099158,,,,,032,001,2019_May_14_1612,MusicAffectPsychophysiology2019,3.0.5,59.91328151687972,
To what extent did the music make you feel ,FRUSTRATED,,,,,,0,0,0,3,,,,,,,,,,,,,,,,,1,5.28375024900015,,,032,001,2019_May_14_1612,MusicAffectPsychophysiology2019,3.0.5,59.91328151687972,
To what extent did the music make you feel ,HAPPY,,,,,,0,1,1,6,,,,,,,,,,,,,,,,,2,2.785383713999181,,,032,001,2019_May_14_1612,MusicAffectPsychophysiology2019,3.0.5,59.91328151687972,
To what extent did the music make you feel ,SAD,,,,,,0,2,2,0,,,,,,,,,,,,,,,,,1,3.552179067002726,,,032,001,2019_May_14_1612,MusicAffectPsychophysiology2019,3.0.5,59.91328151687972,
To what extent did the music make you feel ,TENDER,,,,,,0,3,3,10,,,,,,,,,,,,,,,,,1,3.5830118490121095,,,032,001,2019_May_14_1612,MusicAffectPsychophysiology2019,3.0.5,59.91328151687972,
To what extent did the music make you feel ,ACTIVE,,,,,,0,4,4,9,,,,,,,,,,,,,,,,,2,2.1835922690079315,,,032,001,2019_May_14_1612,MusicAffectPsychophysiology2019,3.0.5,59.91328151687972,
To what extent did the music make you feel ,SCARED,,,,,,0,5,5,11,,,,,,,,,,,,,,,,,1,2.1183169670111965,,,032,001,2019_May_14_1612,MusicAffectPsychophysiology2019,3.0.5,59.91328151687972,
To what extent did the music make you feel ,ALERT,,,,,,0,6,6,8,,,,,,,,,,,,,,,,,2,3.0837036489974707,,,032,001,2019_May_14_1612,MusicAffectPsychophysiology2019,3.0.5,59.91328151687972,
To what extent did the music make you feel ,GUILTY,,,,,,0,7,7,5,,,,,,,,,,,,,,,,,1,2.0509061030024895,,,032,001,2019_May_14_1612,MusicAffectPsychophysiology2019,3.0.5,59.91328151687972,
To what extent did the music make you feel ,ANXIOUS ,,,,,,0,8,8,1,,,,,,,,,,,,,,,,,1,2.7685368209931767,,,032,001,2019_May_14_1612,MusicAffectPsychophysiology2019,3.0.5,59.91328151687972,
To what extent did the music make you feel ,ANGRY,,,,,,0,9,9,2,,,,,,,,,,,,,,,,,1,2.002328963004402,,,032,001,2019_May_14_1612,MusicAffectPsychophysiology2019,3.0.5,59.91328151687972,
To what extent did the music make you feel ,EXCITED,,,,,,0,10,10,7,,,,,,,,,,,,,,,,,2,1.5014200120058376,,,032,001,2019_May_14_1612,MusicAffectPsychophysiology2019,3.0.5,59.91328151687972,
To what extent did the music make you feel ,ASHAMED,,,,,,0,11,11,4,,,,,,,,,,,,,,,,,1,3.9189772500103572,,,032,001,2019_May_14_1612,MusicAffectPsychophysiology2019,3.0.5,59.91328151687972,
To what extent did the music make you feel ,ANXIOUS ,30MonoWAV/30MonoH3.wav,2,2,1,7,,,,,0,0,0,6,0,0,0,1,,,2,5.290036218997557,3,6.695889016991714,2,2.9351027509983396,1,7.711080007007695,,,032,001,2019_May_14_1612,MusicAffectPsychophysiology2019,3.0.5,59.91328151687972,
To what extent did the music make you feel ,ACTIVE,30MonoWAV/30MonoH3.wav,2,2,1,7,,,,,0,0,0,6,0,1,1,9,,,,,,,,,2,1.5534814380080206,,,032,001,2019_May_14_1612,MusicAffectPsychophysiology2019,3.0.5,59.91328151687972,
To what extent did the music make you feel ,ANGRY,30MonoWAV/30MonoH3.wav,2,2,1,7,,,,,0,0,0,6,0,2,2,2,,,,,,,,,1,1.3898022579960525,,,032,001,2019_May_14_1612,MusicAffectPsychophysiology2019,3.0.5,59.91328151687972,
To what extent did the music make you feel ,ASHAMED,30MonoWAV/30MonoH3.wav,2,2,1,7,,,,,0,0,0,6,0,3,3,4,,,,,,,,,1,1.8516041780094383,,,032,001,2019_May_14_1612,MusicAffectPsychophysiology2019,3.0.5,59.91328151687972,
To what extent did the music make you feel ,SAD,30MonoWAV/30MonoH3.wav,2,2,1,7,,,,,0,0,0,6,0,4,4,0,,,,,,,,,1,4.573379373992793,,,032,001,2019_May_14_1612,MusicAffectPsychophysiology2019,3.0.5,59.91328151687972,
To what extent did the music make you feel ,SCARED,30MonoWAV/30MonoH3.wav,2,2,1,7,,,,,0,0,0,6,0,5,5,11,,,,,,,,,1,1.0698274379974464,,,032,001,2019_May_14_1612,MusicAffectPsychophysiology2019,3.0.5,59.91328151687972,
To what extent did the music make you feel ,GUILTY,30MonoWAV/30MonoH3.wav,2,2,1,7,,,,,0,0,0,6,0,6,6,5,,,,,,,,,1,1.7708635159942787,,,032,001,2019_May_14_1612,MusicAffectPsychophysiology2019,3.0.5,59.91328151687972,
To what extent did the music make you feel ,HAPPY,30MonoWAV/30MonoH3.wav,2,2,1,7,,,,,0,0,0,6,0,7,7,6,,,,,,,,,2,2.9215752689924557,,,032,001,2019_May_14_1612,MusicAffectPsychophysiology2019,3.0.5,59.91328151687972,
To what extent did the music make you feel ,TENDER,30MonoWAV/30MonoH3.wav,2,2,1,7,,,,,0,0,0,6,0,8,8,10,,,,,,,,,1,1.6396170759981032,,,032,001,2019_May_14_1612,MusicAffectPsychophysiology2019,3.0.5,59.91328151687972,
To what extent did the music make you feel ,EXCITED,30MonoWAV/30MonoH3.wav,2,2,1,7,,,,,0,0,0,6,0,9,9,7,,,,,,,,,2,1.834866019009496,,,032,001,2019_May_14_1612,MusicAffectPsychophysiology2019,3.0.5,59.91328151687972,
To what extent did the music make you feel ,ALERT,30MonoWAV/30MonoH3.wav,2,2,1,7,,,,,0,0,0,6,0,10,10,8,,,,,,,,,1,1.2026707339973655,,,032,001,2019_May_14_1612,MusicAffectPsychophysiology2019,3.0.5,59.91328151687972,
To what extent did the music make you feel ,FRUSTRATED,30MonoWAV/30MonoH3.wav,2,2,1,7,,,,,0,0,0,6,0,11,11,3,,,,,,,,,1,1.1854202980030095,,,032,001,2019_May_14_1612,MusicAffectPsychophysiology2019,3.0.5,59.91328151687972,
,,30MonoWAV/30MonoH3.wav,2,2,1,7,,,,,0,0,0,6,,,,,,,,,,,,,,,,,032,001,2019_May_14_1612,MusicAffectPsychophysiology2019,3.0.5,59.91328151687972,
To what extent did the music make you feel ,GUILTY,30MonoWAV/30MonoH2.wav,2,2,1,6,,,,,0,1,1,5,0,0,0,5,,,3,3.8513819789950503,3,5.301833063989761,2,2.652152758993907,1,1.366071501004626,,,032,001,2019_May_14_1612,MusicAffectPsychophysiology2019,3.0.5,59.91328151687972,
To what extent did the music make you feel ,ANXIOUS ,30MonoWAV/30MonoH2.wav,2,2,1,6,,,,,0,1,1,5,0,1,1,1,,,,,,,,,1,1.084419542006799,,,032,001,2019_May_14_1612,MusicAffectPsychophysiology2019,3.0.5,59.91328151687972,
To what extent did the music make you feel ,ANGRY,30MonoWAV/30MonoH2.wav,2,2,1,6,,,,,0,1,1,5,0,2,2,2,,,,,,,,,1,1.299456918000942,,,032,001,2019_May_14_1612,MusicAffectPsychophysiology2019,3.0.5,59.91328151687972,
To what extent did the music make you feel ,FRUSTRATED,30MonoWAV/30MonoH2.wav,2,2,1,6,,,,,0,1,1,5,0,3,3,3,,,,,,,,,1,1.251899526003399,,,032,001,2019_May_14_1612,MusicAffectPsychophysiology2019,3.0.5,59.91328151687972,
To what extent did the music make you feel ,SCARED,30MonoWAV/30MonoH2.wav,2,2,1,6,,,,,0,1,1,5,0,4,4,11,,,,,,,,,1,0.7684002059977502,,,032,001,2019_May_14_1612,MusicAffectPsychophysiology2019,3.0.5,59.91328151687972,
To what extent did the music make you feel ,TENDER,30MonoWAV/30MonoH2.wav,2,2,1,6,,,,,0,1,1,5,0,5,5,10,,,,,,,,,1,1.4856457980058622,,,032,001,2019_May_14_1612,MusicAffectPsychophysiology2019,3.0.5,59.91328151687972,
To what extent did the music make you feel ,ACTIVE,30MonoWAV/30MonoH2.wav,2,2,1,6,,,,,0,1,1,5,0,6,6,9,,,,,,,,,2,1.1860464589990443,,,032,001,2019_May_14_1612,MusicAffectPsychophysiology2019,3.0.5,59.91328151687972,
To what extent did the music make you feel ,EXCITED,30MonoWAV/30MonoH2.wav,2,2,1,6,,,,,0,1,1,5,0,7,7,7,,,,,,,,,2,3.850426151009742,,,032,001,2019_May_14_1612,MusicAffectPsychophysiology2019,3.0.5,59.91328151687972,
To what extent did the music make you feel ,ASHAMED,30MonoWAV/30MonoH2.wav,2,2,1,6,,,,,0,1,1,5,0,8,8,4,,,,,,,,,1,2.3853690889955033,,,032,001,2019_May_14_1612,MusicAffectPsychophysiology2019,3.0.5,59.91328151687972,
To what extent did the music make you feel ,SAD,30MonoWAV/30MonoH2.wav,2,2,1,6,,,,,0,1,1,5,0,9,9,0,,,,,,,,,1,1.0010199309908785,,,032,001,2019_May_14_1612,MusicAffectPsychophysiology2019,3.0.5,59.91328151687972,
To what extent did the music make you feel ,HAPPY,30MonoWAV/30MonoH2.wav,2,2,1,6,,,,,0,1,1,5,0,10,10,6,,,,,,,,,2,3.9687171039986424,,,032,001,2019_May_14_1612,MusicAffectPsychophysiology2019,3.0.5,59.91328151687972,
To what extent did the music make you feel ,ALERT,30MonoWAV/30MonoH2.wav,2,2,1,6,,,,,0,1,1,5,0,11,11,8,,,,,,,,,1,3.0339631279930472,,,032,001,2019_May_14_1612,MusicAffectPsychophysiology2019,3.0.5,59.91328151687972,
,,30MonoWAV/30MonoH2.wav,2,2,1,6,,,,,0,1,1,5,,,,,,,,,,,,,,,,,032,001,2019_May_14_1612,MusicAffectPsychophysiology2019,3.0.5,59.91328151687972,
To what extent did the music make you feel ,SAD,30MonoWAV/30MonoF3.wav,1,2,2,3,,,,,0,2,2,2,0,0,0,0,,,2,3.917235407003318,2,5.833535744008259,2,2.0186677820020122,1,4.292080034996616,,,032,001,2019_May_14_1612,MusicAffectPsychophysiology2019,3.0.5,59.91328151687972,
To what extent did the music make you feel ,ANGRY,30MonoWAV/30MonoF3.wav,1,2,2,3,,,,,0,2,2,2,0,1,1,2,,,,,,,,,1,2.3712608920031926,,,032,001,2019_May_14_1612,MusicAffectPsychophysiology2019,3.0.5,59.91328151687972,
To what extent did the music make you feel ,TENDER,30MonoWAV/30MonoF3.wav,1,2,2,3,,,,,0,2,2,2,0,2,2,10,,,,,,,,,1,1.1697999949974474,,,032,001,2019_May_14_1612,MusicAffectPsychophysiology2019,3.0.5,59.91328151687972,
To what extent did the music make you feel ,HAPPY,30MonoWAV/30MonoF3.wav,1,2,2,3,,,,,0,2,2,2,0,3,3,6,,,,,,,,,1,2.640725058998214,,,032,001,2019_May_14_1612,MusicAffectPsychophysiology2019,3.0.5,59.91328151687972,
To what extent did the music make you feel ,ASHAMED,30MonoWAV/30MonoF3.wav,1,2,2,3,,,,,0,2,2,2,0,4,4,4,,,,,,,,,1,2.7857942059927154,,,032,001,2019_May_14_1612,MusicAffectPsychophysiology2019,3.0.5,59.91328151687972,
To what extent did the music make you feel ,ALERT,30MonoWAV/30MonoF3.wav,1,2,2,3,,,,,0,2,2,2,0,5,5,8,,,,,,,,,2,1.7859118220076198,,,032,001,2019_May_14_1612,MusicAffectPsychophysiology2019,3.0.5,59.91328151687972,
To what extent did the music make you feel ,ANXIOUS ,30MonoWAV/30MonoF3.wav,1,2,2,3,,,,,0,2,2,2,0,6,6,1,,,,,,,,,2,1.9346729050012073,,,032,001,2019_May_14_1612,MusicAffectPsychophysiology2019,3.0.5,59.91328151687972,
To what extent did the music make you feel ,EXCITED,30MonoWAV/30MonoF3.wav,1,2,2,3,,,,,0,2,2,2,0,7,7,7,,,,,,,,,3,4.849768747997587,,,032,001,2019_May_14_1612,MusicAffectPsychophysiology2019,3.0.5,59.91328151687972,
To what extent did the music make you feel ,FRUSTRATED,30MonoWAV/30MonoF3.wav,1,2,2,3,,,,,0,2,2,2,0,8,8,3,,,,,,,,,1,3.617881236001267,,,032,001,2019_May_14_1612,MusicAffectPsychophysiology2019,3.0.5,59.91328151687972,
To what extent did the music make you feel ,GUILTY,30MonoWAV/30MonoF3.wav,1,2,2,3,,,,,0,2,2,2,0,9,9,5,,,,,,,,,1,0.9350738679931965,,,032,001,2019_May_14_1612,MusicAffectPsychophysiology2019,3.0.5,59.91328151687972,
To what extent did the music make you feel ,ACTIVE,30MonoWAV/30MonoF3.wav,1,2,2,3,,,,,0,2,2,2,0,10,10,9,,,,,,,,,1,1.8686296310042962,,,032,001,2019_May_14_1612,MusicAffectPsychophysiology2019,3.0.5,59.91328151687972,
To what extent did the music make you feel ,SCARED,30MonoWAV/30MonoF3.wav,1,2,2,3,,,,,0,2,2,2,0,11,11,11,,,,,,,,,1,6.19522948199301,,,032,001,2019_May_14_1612,MusicAffectPsychophysiology2019,3.0.5,59.91328151687972,
,,30MonoWAV/30MonoF3.wav,1,2,2,3,,,,,0,2,2,2,,,,,,,,,,,,,,,,,032,001,2019_May_14_1612,MusicAffectPsychophysiology2019,3.0.5,59.91328151687972,
To what extent did the music make you feel ,GUILTY,30MonoWAV/30MonoF1.wav,1,2,2,1,,,,,0,3,3,0,0,0,0,5,,,2,3.068315291995532,1,3.140913843002636,2,1.8865443050017348,1,1.6029502160090487,,,032,001,2019_May_14_1612,MusicAffectPsychophysiology2019,3.0.5,59.91328151687972,
To what extent did the music make you feel ,ANXIOUS ,30MonoWAV/30MonoF1.wav,1,2,2,1,,,,,0,3,3,0,0,1,1,1,,,,,,,,,2,2.7741357939958107,,,032,001,2019_May_14_1612,MusicAffectPsychophysiology2019,3.0.5,59.91328151687972,
To what extent did the music make you feel ,ANGRY,30MonoWAV/30MonoF1.wav,1,2,2,1,,,,,0,3,3,0,0,2,2,2,,,,,,,,,1,3.3020660409965785,,,032,001,2019_May_14_1612,MusicAffectPsychophysiology2019,3.0.5,59.91328151687972,
To what extent did the music make you feel ,ALERT,30MonoWAV/30MonoF1.wav,1,2,2,1,,,,,0,3,3,0,0,3,3,8,,,,,,,,,2,1.384716782005853,,,032,001,2019_May_14_1612,MusicAffectPsychophysiology2019,3.0.5,59.91328151687972,
To what extent did the music make you feel ,SCARED,30MonoWAV/30MonoF1.wav,1,2,2,1,,,,,0,3,3,0,0,4,4,11,,,,,,,,,1,2.0522804409993114,,,032,001,2019_May_14_1612,MusicAffectPsychophysiology2019,3.0.5,59.91328151687972,
To what extent did the music make you feel ,ACTIVE,30MonoWAV/30MonoF1.wav,1,2,2,1,,,,,0,3,3,0,0,5,5,9,,,,,,,,,2,1.819514489005087,,,032,001,2019_May_14_1612,MusicAffectPsychophysiology2019,3.0.5,59.91328151687972,
To what extent did the music make you feel ,SAD,30MonoWAV/30MonoF1.wav,1,2,2,1,,,,,0,3,3,0,0,6,6,0,,,,,,,,,1,1.517186518991366,,,032,001,2019_May_14_1612,MusicAffectPsychophysiology2019,3.0.5,59.91328151687972,
To what extent did the music make you feel ,HAPPY,30MonoWAV/30MonoF1.wav,1,2,2,1,,,,,0,3,3,0,0,7,7,6,,,,,,,,,1,1.768007332997513,,,032,001,2019_May_14_1612,MusicAffectPsychophysiology2019,3.0.5,59.91328151687972,
To what extent did the music make you feel ,ASHAMED,30MonoWAV/30MonoF1.wav,1,2,2,1,,,,,0,3,3,0,0,8,8,4,,,,,,,,,1,1.4018700720043853,,,032,001,2019_May_14_1612,MusicAffectPsychophysiology2019,3.0.5,59.91328151687972,
To what extent did the music make you feel ,FRUSTRATED,30MonoWAV/30MonoF1.wav,1,2,2,1,,,,,0,3,3,0,0,9,9,3,,,,,,,,,1,1.2169590879930183,,,032,001,2019_May_14_1612,MusicAffectPsychophysiology2019,3.0.5,59.91328151687972,
To what extent did the music make you feel ,TENDER,30MonoWAV/30MonoF1.wav,1,2,2,1,,,,,0,3,3,0,0,10,10,10,,,,,,,,,1,1.870702580010402,,,032,001,2019_May_14_1612,MusicAffectPsychophysiology2019,3.0.5,59.91328151687972,
To what extent did the music make you feel ,EXCITED,30MonoWAV/30MonoF1.wav,1,2,2,1,,,,,0,3,3,0,0,11,11,7,,,,,,,,,2,1.1352595839998685,,,032,001,2019_May_14_1612,MusicAffectPsychophysiology2019,3.0.5,59.91328151687972,
,,30MonoWAV/30MonoF1.wav,1,2,2,1,,,,,0,3,3,0,,,,,,,,,,,,,,,,,032,001,2019_May_14_1612,MusicAffectPsychophysiology2019,3.0.5,59.91328151687972,
To what extent did the music make you feel ,ALERT,30MonoWAV/30MonoS4.wav,1,1,3,12,,,,,0,4,4,11,0,0,0,8,,,1,5.49252714200702,1,1.734040265000658,2,2.952499994004029,1,3.901095966997673,,,032,001,2019_May_14_1612,MusicAffectPsychophysiology2019,3.0.5,59.91328151687972,
To what extent did the music make you feel ,EXCITED,30MonoWAV/30MonoS4.wav,1,1,3,12,,,,,0,4,4,11,0,1,1,7,,,,,,,,,1,0.901514142009546,,,032,001,2019_May_14_1612,MusicAffectPsychophysiology2019,3.0.5,59.91328151687972,
To what extent did the music make you feel ,ASHAMED,30MonoWAV/30MonoS4.wav,1,1,3,12,,,,,0,4,4,11,0,2,2,4,,,,,,,,,1,1.7520349690021249,,,032,001,2019_May_14_1612,MusicAffectPsychophysiology2019,3.0.5,59.91328151687972,
To what extent did the music make you feel ,ACTIVE,30MonoWAV/30MonoS4.wav,1,1,3,12,,,,,0,4,4,11,0,3,3,9,,,,,,,,,1,1.0514942259906093,,,032,001,2019_May_14_1612,MusicAffectPsychophysiology2019,3.0.5,59.91328151687972,
To what extent did the music make you feel ,SCARED,30MonoWAV/30MonoS4.wav,1,1,3,12,,,,,0,4,4,11,0,4,4,11,,,,,,,,,1,1.034989266001503,,,032,001,2019_May_14_1612,MusicAffectPsychophysiology2019,3.0.5,59.91328151687972,
To what extent did the music make you feel ,HAPPY,30MonoWAV/30MonoS4.wav,1,1,3,12,,,,,0,4,4,11,0,5,5,6,,,,,,,,,1,0.952330512998742,,,032,001,2019_May_14_1612,MusicAffectPsychophysiology2019,3.0.5,59.91328151687972,
To what extent did the music make you feel ,SAD,30MonoWAV/30MonoS4.wav,1,1,3,12,,,,,0,4,4,11,0,6,6,0,,,,,,,,,1,2.518269354986842,,,032,001,2019_May_14_1612,MusicAffectPsychophysiology2019,3.0.5,59.91328151687972,
To what extent did the music make you feel ,TENDER,30MonoWAV/30MonoS4.wav,1,1,3,12,,,,,0,4,4,11,0,7,7,10,,,,,,,,,1,0.88552341000468,,,032,001,2019_May_14_1612,MusicAffectPsychophysiology2019,3.0.5,59.91328151687972,
To what extent did the music make you feel ,ANXIOUS ,30MonoWAV/30MonoS4.wav,1,1,3,12,,,,,0,4,4,11,0,8,8,1,,,,,,,,,1,1.4187055329966825,,,032,001,2019_May_14_1612,MusicAffectPsychophysiology2019,3.0.5,59.91328151687972,
To what extent did the music make you feel ,GUILTY,30MonoWAV/30MonoS4.wav,1,1,3,12,,,,,0,4,4,11,0,9,9,5,,,,,,,,,1,0.8023088299960364,,,032,001,2019_May_14_1612,MusicAffectPsychophysiology2019,3.0.5,59.91328151687972,
To what extent did the music make you feel ,FRUSTRATED,30MonoWAV/30MonoS4.wav,1,1,3,12,,,,,0,4,4,11,0,10,10,3,,,,,,,,,2,3.2020935750042554,,,032,001,2019_May_14_1612,MusicAffectPsychophysiology2019,3.0.5,59.91328151687972,
To what extent did the music make you feel ,ANGRY,30MonoWAV/30MonoS4.wav,1,1,3,12,,,,,0,4,4,11,0,11,11,2,,,,,,,,,1,3.8349326489988016,,,032,001,2019_May_14_1612,MusicAffectPsychophysiology2019,3.0.5,59.91328151687972,
,,30MonoWAV/30MonoS4.wav,1,1,3,12,,,,,0,4,4,11,,,,,,,,,,,,,,,,,032,001,2019_May_14_1612,MusicAffectPsychophysiology2019,3.0.5,59.91328151687972,
To what extent did the music make you feel ,SCARED,30MonoWAV/30MonoF2.wav,1,2,2,2,,,,,0,5,5,1,0,0,0,11,,,2,3.3353965100104688,1,1.649329967010999,1,2.968689519999316,2,2.7822097309981473,,,032,001,2019_May_14_1612,MusicAffectPsychophysiology2019,3.0.5,59.91328151687972,
To what extent did the music make you feel ,EXCITED,30MonoWAV/30MonoF2.wav,1,2,2,2,,,,,0,5,5,1,0,1,1,7,,,,,,,,,1,2.4206131550017744,,,032,001,2019_May_14_1612,MusicAffectPsychophysiology2019,3.0.5,59.91328151687972,
To what extent did the music make you feel ,ACTIVE,30MonoWAV/30MonoF2.wav,1,2,2,2,,,,,0,5,5,1,0,2,2,9,,,,,,,,,2,1.2505352299922379,,,032,001,2019_May_14_1612,MusicAffectPsychophysiology2019,3.0.5,59.91328151687972,
To what extent did the music make you feel ,ASHAMED,30MonoWAV/30MonoF2.wav,1,2,2,2,,,,,0,5,5,1,0,3,3,4,,,,,,,,,1,1.1515185909956926,,,032,001,2019_May_14_1612,MusicAffectPsychophysiology2019,3.0.5,59.91328151687972,
To what extent did the music make you feel ,HAPPY,30MonoWAV/30MonoF2.wav,1,2,2,2,,,,,0,5,5,1,0,4,4,6,,,,,,,,,1,1.836084281996591,,,032,001,2019_May_14_1612,MusicAffectPsychophysiology2019,3.0.5,59.91328151687972,
To what extent did the music make you feel ,ALERT,30MonoWAV/30MonoF2.wav,1,2,2,2,,,,,0,5,5,1,0,5,5,8,,,,,,,,,2,2.28425625100499,,,032,001,2019_May_14_1612,MusicAffectPsychophysiology2019,3.0.5,59.91328151687972,
To what extent did the music make you feel ,GUILTY,30MonoWAV/30MonoF2.wav,1,2,2,2,,,,,0,5,5,1,0,6,6,5,,,,,,,,,1,1.185039511998184,,,032,001,2019_May_14_1612,MusicAffectPsychophysiology2019,3.0.5,59.91328151687972,
To what extent did the music make you feel ,TENDER,30MonoWAV/30MonoF2.wav,1,2,2,2,,,,,0,5,5,1,0,7,7,10,,,,,,,,,2,2.4189485109964153,,,032,001,2019_May_14_1612,MusicAffectPsychophysiology2019,3.0.5,59.91328151687972,
To what extent did the music make you feel ,ANXIOUS ,30MonoWAV/30MonoF2.wav,1,2,2,2,,,,,0,5,5,1,0,8,8,1,,,,,,,,,2,4.300288894010009,,,032,001,2019_May_14_1612,MusicAffectPsychophysiology2019,3.0.5,59.91328151687972,
To what extent did the music make you feel ,SAD,30MonoWAV/30MonoF2.wav,1,2,2,2,,,,,0,5,5,1,0,9,9,0,,,,,,,,,1,1.5004691219946835,,,032,001,2019_May_14_1612,MusicAffectPsychophysiology2019,3.0.5,59.91328151687972,
To what extent did the music make you feel ,ANGRY,30MonoWAV/30MonoF2.wav,1,2,2,2,,,,,0,5,5,1,0,10,10,2,,,,,,,,,1,1.4516471870010719,,,032,001,2019_May_14_1612,MusicAffectPsychophysiology2019,3.0.5,59.91328151687972,
To what extent did the music make you feel ,FRUSTRATED,30MonoWAV/30MonoF2.wav,1,2,2,2,,,,,0,5,5,1,0,11,11,3,,,,,,,,,1,6.134946727994247,,,032,001,2019_May_14_1612,MusicAffectPsychophysiology2019,3.0.5,59.91328151687972,
,,30MonoWAV/30MonoF2.wav,1,2,2,2,,,,,0,5,5,1,,,,,,,,,,,,,,,,,032,001,2019_May_14_1612,MusicAffectPsychophysiology2019,3.0.5,59.91328151687972,
To what extent did the music make you feel ,ANGRY,30MonoWAV/30MonoT1.wav,2,1,4,13,,,,,0,6,6,12,0,0,0,2,,,1,5.268293223998626,2,2.2853723709995393,2,2.1345222030067816,1,1.2179996670020046,,,032,001,2019_May_14_1612,MusicAffectPsychophysiology2019,3.0.5,59.91328151687972,
To what extent did the music make you feel ,EXCITED,30MonoWAV/30MonoT1.wav,2,1,4,13,,,,,0,6,6,12,0,1,1,7,,,,,,,,,1,1.2346186680078972,,,032,001,2019_May_14_1612,MusicAffectPsychophysiology2019,3.0.5,59.91328151687972,
To what extent did the music make you feel ,HAPPY,30MonoWAV/30MonoT1.wav,2,1,4,13,,,,,0,6,6,12,0,2,2,6,,,,,,,,,1,0.9345414290000917,,,032,001,2019_May_14_1612,MusicAffectPsychophysiology2019,3.0.5,59.91328151687972,
To what extent did the music make you feel ,SAD,30MonoWAV/30MonoT1.wav,2,1,4,13,,,,,0,6,6,12,0,3,3,0,,,,,,,,,1,1.0018445659952704,,,032,001,2019_May_14_1612,MusicAffectPsychophysiology2019,3.0.5,59.91328151687972,
To what extent did the music make you feel ,GUILTY,30MonoWAV/30MonoT1.wav,2,1,4,13,,,,,0,6,6,12,0,4,4,5,,,,,,,,,1,0.8012502579949796,,,032,001,2019_May_14_1612,MusicAffectPsychophysiology2019,3.0.5,59.91328151687972,
To what extent did the music make you feel ,TENDER,30MonoWAV/30MonoT1.wav,2,1,4,13,,,,,0,6,6,12,0,5,5,10,,,,,,,,,1,1.2016239479999058,,,032,001,2019_May_14_1612,MusicAffectPsychophysiology2019,3.0.5,59.91328151687972,
To what extent did the music make you feel ,ANXIOUS ,30MonoWAV/30MonoT1.wav,2,1,4,13,,,,,0,6,6,12,0,6,6,1,,,,,,,,,1,1.351796994000324,,,032,001,2019_May_14_1612,MusicAffectPsychophysiology2019,3.0.5,59.91328151687972,
To what extent did the music make you feel ,FRUSTRATED,30MonoWAV/30MonoT1.wav,2,1,4,13,,,,,0,6,6,12,0,7,7,3,,,,,,,,,1,0.9518456390069332,,,032,001,2019_May_14_1612,MusicAffectPsychophysiology2019,3.0.5,59.91328151687972,
To what extent did the music make you feel ,SCARED,30MonoWAV/30MonoT1.wav,2,1,4,13,,,,,0,6,6,12,0,8,8,11,,,,,,,,,1,0.9516718959930586,,,032,001,2019_May_14_1612,MusicAffectPsychophysiology2019,3.0.5,59.91328151687972,
To what extent did the music make you feel ,ACTIVE,30MonoWAV/30MonoT1.wav,2,1,4,13,,,,,0,6,6,12,0,9,9,9,,,,,,,,,1,1.8005656449968228,,,032,001,2019_May_14_1612,MusicAffectPsychophysiology2019,3.0.5,59.91328151687972,
To what extent did the music make you feel ,ALERT,30MonoWAV/30MonoT1.wav,2,1,4,13,,,,,0,6,6,12,0,10,10,8,,,,,,,,,1,1.5353918850014452,,,032,001,2019_May_14_1612,MusicAffectPsychophysiology2019,3.0.5,59.91328151687972,
To what extent did the music make you feel ,ASHAMED,30MonoWAV/30MonoT1.wav,2,1,4,13,,,,,0,6,6,12,0,11,11,4,,,,,,,,,1,1.9154048600030364,,,032,001,2019_May_14_1612,MusicAffectPsychophysiology2019,3.0.5,59.91328151687972,
,,30MonoWAV/30MonoT1.wav,2,1,4,13,,,,,0,6,6,12,,,,,,,,,,,,,,,,,032,001,2019_May_14_1612,MusicAffectPsychophysiology2019,3.0.5,59.91328151687972,
To what extent did the music make you feel ,SCARED,30MonoWAV/30MonoT4.wav,2,1,4,16,,,,,0,7,7,15,0,0,0,11,,,2,4.216589360003127,3,4.050990839998121,2,2.434844532996067,1,1.336082327994518,,,032,001,2019_May_14_1612,MusicAffectPsychophysiology2019,3.0.5,59.91328151687972,
To what extent did the music make you feel ,GUILTY,30MonoWAV/30MonoT4.wav,2,1,4,16,,,,,0,7,7,15,0,1,1,5,,,,,,,,,1,1.0015475390100619,,,032,001,2019_May_14_1612,MusicAffectPsychophysiology2019,3.0.5,59.91328151687972,
To what extent did the music make you feel ,TENDER,30MonoWAV/30MonoT4.wav,2,1,4,16,,,,,0,7,7,15,0,2,2,10,,,,,,,,,1,0.6681228050001664,,,032,001,2019_May_14_1612,MusicAffectPsychophysiology2019,3.0.5,59.91328151687972,
To what extent did the music make you feel ,ANXIOUS ,30MonoWAV/30MonoT4.wav,2,1,4,16,,,,,0,7,7,15,0,3,3,1,,,,,,,,,1,0.6023514080006862,,,032,001,2019_May_14_1612,MusicAffectPsychophysiology2019,3.0.5,59.91328151687972,
To what extent did the music make you feel ,SAD,30MonoWAV/30MonoT4.wav,2,1,4,16,,,,,0,7,7,15,0,4,4,0,,,,,,,,,1,1.9362469209881965,,,032,001,2019_May_14_1612,MusicAffectPsychophysiology2019,3.0.5,59.91328151687972,
To what extent did the music make you feel ,ASHAMED,30MonoWAV/30MonoT4.wav,2,1,4,16,,,,,0,7,7,15,0,5,5,4,,,,,,,,,1,3.434516152003198,,,032,001,2019_May_14_1612,MusicAffectPsychophysiology2019,3.0.5,59.91328151687972,
To what extent did the music make you feel ,ANGRY,30MonoWAV/30MonoT4.wav,2,1,4,16,,,,,0,7,7,15,0,6,6,2,,,,,,,,,1,0.8517122290068073,,,032,001,2019_May_14_1612,MusicAffectPsychophysiology2019,3.0.5,59.91328151687972,
To what extent did the music make you feel ,HAPPY,30MonoWAV/30MonoT4.wav,2,1,4,16,,,,,0,7,7,15,0,7,7,6,,,,,,,,,2,2.035703012996237,,,032,001,2019_May_14_1612,MusicAffectPsychophysiology2019,3.0.5,59.91328151687972,
To what extent did the music make you feel ,ALERT,30MonoWAV/30MonoT4.wav,2,1,4,16,,,,,0,7,7,15,0,8,8,8,,,,,,,,,1,1.168384762990172,,,032,001,2019_May_14_1612,MusicAffectPsychophysiology2019,3.0.5,59.91328151687972,
To what extent did the music make you feel ,ACTIVE,30MonoWAV/30MonoT4.wav,2,1,4,16,,,,,0,7,7,15,0,9,9,9,,,,,,,,,1,2.602439713999047,,,032,001,2019_May_14_1612,MusicAffectPsychophysiology2019,3.0.5,59.91328151687972,
To what extent did the music make you feel ,EXCITED,30MonoWAV/30MonoT4.wav,2,1,4,16,,,,,0,7,7,15,0,10,10,7,,,,,,,,,1,1.5348543919972144,,,032,001,2019_May_14_1612,MusicAffectPsychophysiology2019,3.0.5,59.91328151687972,
To what extent did the music make you feel ,FRUSTRATED,30MonoWAV/30MonoT4.wav,2,1,4,16,,,,,0,7,7,15,0,11,11,3,,,,,,,,,1,3.3854654299939284,,,032,001,2019_May_14_1612,MusicAffectPsychophysiology2019,3.0.5,59.91328151687972,
,,30MonoWAV/30MonoT4.wav,2,1,4,16,,,,,0,7,7,15,,,,,,,,,,,,,,,,,032,001,2019_May_14_1612,MusicAffectPsychophysiology2019,3.0.5,59.91328151687972,
To what extent did the music make you feel ,FRUSTRATED,30MonoWAV/30MonoT3.wav,2,1,4,15,,,,,0,8,8,14,0,0,0,3,,,1,3.0337205109972274,2,3.2859800869919127,1,2.284710734995315,1,1.7350726400036365,,,032,001,2019_May_14_1612,MusicAffectPsychophysiology2019,3.0.5,59.91328151687972,
To what extent did the music make you feel ,GUILTY,30MonoWAV/30MonoT3.wav,2,1,4,15,,,,,0,8,8,14,0,1,1,5,,,,,,,,,1,0.7845773820008617,,,032,001,2019_May_14_1612,MusicAffectPsychophysiology2019,3.0.5,59.91328151687972,
To what extent did the music make you feel ,ANXIOUS ,30MonoWAV/30MonoT3.wav,2,1,4,15,,,,,0,8,8,14,0,2,2,1,,,,,,,,,1,0.7190857719979249,,,032,001,2019_May_14_1612,MusicAffectPsychophysiology2019,3.0.5,59.91328151687972,
To what extent did the music make you feel ,TENDER,30MonoWAV/30MonoT3.wav,2,1,4,15,,,,,0,8,8,14,0,3,3,10,,,,,,,,,1,0.6686728700005915,,,032,001,2019_May_14_1612,MusicAffectPsychophysiology2019,3.0.5,59.91328151687972,
To what extent did the music make you feel ,SCARED,30MonoWAV/30MonoT3.wav,2,1,4,15,,,,,0,8,8,14,0,4,4,11,,,,,,,,,1,2.169064915011404,,,032,001,2019_May_14_1612,MusicAffectPsychophysiology2019,3.0.5,59.91328151687972,
To what extent did the music make you feel ,ACTIVE,30MonoWAV/30MonoT3.wav,2,1,4,15,,,,,0,8,8,14,0,5,5,9,,,,,,,,,1,1.1665303469926585,,,032,001,2019_May_14_1612,MusicAffectPsychophysiology2019,3.0.5,59.91328151687972,
To what extent did the music make you feel ,ANGRY,30MonoWAV/30MonoT3.wav,2,1,4,15,,,,,0,8,8,14,0,6,6,2,,,,,,,,,1,0.8015210019948427,,,032,001,2019_May_14_1612,MusicAffectPsychophysiology2019,3.0.5,59.91328151687972,
To what extent did the music make you feel ,ALERT,30MonoWAV/30MonoT3.wav,2,1,4,15,,,,,0,8,8,14,0,7,7,8,,,,,,,,,1,1.0852283089916455,,,032,001,2019_May_14_1612,MusicAffectPsychophysiology2019,3.0.5,59.91328151687972,
To what extent did the music make you feel ,EXCITED,30MonoWAV/30MonoT3.wav,2,1,4,15,,,,,0,8,8,14,0,8,8,7,,,,,,,,,1,1.3182957340031862,,,032,001,2019_May_14_1612,MusicAffectPsychophysiology2019,3.0.5,59.91328151687972,
To what extent did the music make you feel ,HAPPY,30MonoWAV/30MonoT3.wav,2,1,4,15,,,,,0,8,8,14,0,9,9,6,,,,,,,,,1,1.7191918449971126,,,032,001,2019_May_14_1612,MusicAffectPsychophysiology2019,3.0.5,59.91328151687972,
To what extent did the music make you feel ,SAD,30MonoWAV/30MonoT3.wav,2,1,4,15,,,,,0,8,8,14,0,10,10,0,,,,,,,,,1,1.3018757840036415,,,032,001,2019_May_14_1612,MusicAffectPsychophysiology2019,3.0.5,59.91328151687972,
To what extent did the music make you feel ,ASHAMED,30MonoWAV/30MonoT3.wav,2,1,4,15,,,,,0,8,8,14,0,11,11,4,,,,,,,,,1,0.8681691689998843,,,032,001,2019_May_14_1612,MusicAffectPsychophysiology2019,3.0.5,59.91328151687972,
,,30MonoWAV/30MonoT3.wav,2,1,4,15,,,,,0,8,8,14,,,,,,,,,,,,,,,,,032,001,2019_May_14_1612,MusicAffectPsychophysiology2019,3.0.5,59.91328151687972,
To what extent did the music make you feel ,FRUSTRATED,30MonoWAV/30MonoT2.wav,2,1,4,14,,,,,0,9,9,13,0,0,0,3,,,1,2.734768335998524,3,2.6028052780020516,2,2.6186971260030987,1,1.1619587669993052,,,032,001,2019_May_14_1612,MusicAffectPsychophysiology2019,3.0.5,59.91328151687972,
To what extent did the music make you feel ,TENDER,30MonoWAV/30MonoT2.wav,2,1,4,14,,,,,0,9,9,13,0,1,1,10,,,,,,,,,1,0.8517277149949223,,,032,001,2019_May_14_1612,MusicAffectPsychophysiology2019,3.0.5,59.91328151687972,
To what extent did the music make you feel ,HAPPY,30MonoWAV/30MonoT2.wav,2,1,4,14,,,,,0,9,9,13,0,2,2,6,,,,,,,,,2,1.1018755419936497,,,032,001,2019_May_14_1612,MusicAffectPsychophysiology2019,3.0.5,59.91328151687972,
To what extent did the music make you feel ,ALERT,30MonoWAV/30MonoT2.wav,2,1,4,14,,,,,0,9,9,13,0,3,3,8,,,,,,,,,1,0.9676936140022008,,,032,001,2019_May_14_1612,MusicAffectPsychophysiology2019,3.0.5,59.91328151687972,
To what extent did the music make you feel ,ASHAMED,30MonoWAV/30MonoT2.wav,2,1,4,14,,,,,0,9,9,13,0,4,4,4,,,,,,,,,1,0.9680055909993825,,,032,001,2019_May_14_1612,MusicAffectPsychophysiology2019,3.0.5,59.91328151687972,
To what extent did the music make you feel ,EXCITED,30MonoWAV/30MonoT2.wav,2,1,4,14,,,,,0,9,9,13,0,5,5,7,,,,,,,,,1,1.6505333469976904,,,032,001,2019_May_14_1612,MusicAffectPsychophysiology2019,3.0.5,59.91328151687972,
To what extent did the music make you feel ,ANXIOUS ,30MonoWAV/30MonoT2.wav,2,1,4,14,,,,,0,9,9,13,0,6,6,1,,,,,,,,,1,0.8510656970029231,,,032,001,2019_May_14_1612,MusicAffectPsychophysiology2019,3.0.5,59.91328151687972,
To what extent did the music make you feel ,ANGRY,30MonoWAV/30MonoT2.wav,2,1,4,14,,,,,0,9,9,13,0,7,7,2,,,,,,,,,1,5.450901328003965,,,032,001,2019_May_14_1612,MusicAffectPsychophysiology2019,3.0.5,59.91328151687972,
To what extent did the music make you feel ,ACTIVE,30MonoWAV/30MonoT2.wav,2,1,4,14,,,,,0,9,9,13,0,8,8,9,,,,,,,,,1,1.3515895330056082,,,032,001,2019_May_14_1612,MusicAffectPsychophysiology2019,3.0.5,59.91328151687972,
To what extent did the music make you feel ,SCARED,30MonoWAV/30MonoT2.wav,2,1,4,14,,,,,0,9,9,13,0,9,9,11,,,,,,,,,1,1.51848345399776,,,032,001,2019_May_14_1612,MusicAffectPsychophysiology2019,3.0.5,59.91328151687972,
To what extent did the music make you feel ,SAD,30MonoWAV/30MonoT2.wav,2,1,4,14,,,,,0,9,9,13,0,10,10,0,,,,,,,,,1,0.7849168409884442,,,032,001,2019_May_14_1612,MusicAffectPsychophysiology2019,3.0.5,59.91328151687972,
To what extent did the music make you feel ,GUILTY,30MonoWAV/30MonoT2.wav,2,1,4,14,,,,,0,9,9,13,0,11,11,5,,,,,,,,,1,0.7349742179940222,,,032,001,2019_May_14_1612,MusicAffectPsychophysiology2019,3.0.5,59.91328151687972,
,,30MonoWAV/30MonoT2.wav,2,1,4,14,,,,,0,9,9,13,,,,,,,,,,,,,,,,,032,001,2019_May_14_1612,MusicAffectPsychophysiology2019,3.0.5,59.91328151687972,
To what extent did the music make you feel ,FRUSTRATED,30MonoWAV/30MonoS3.wav,1,1,3,11,,,,,0,10,10,10,0,0,0,3,,,1,6.567975853991811,1,1.801087589992676,2,3.2691953210014617,1,6.904569913996966,,,032,001,2019_May_14_1612,MusicAffectPsychophysiology2019,3.0.5,59.91328151687972,
To what extent did the music make you feel ,GUILTY,30MonoWAV/30MonoS3.wav,1,1,3,11,,,,,0,10,10,10,0,1,1,5,,,,,,,,,1,0.934973108000122,,,032,001,2019_May_14_1612,MusicAffectPsychophysiology2019,3.0.5,59.91328151687972,
To what extent did the music make you feel ,HAPPY,30MonoWAV/30MonoS3.wav,1,1,3,11,,,,,0,10,10,10,0,2,2,6,,,,,,,,,1,0.8518296179972822,,,032,001,2019_May_14_1612,MusicAffectPsychophysiology2019,3.0.5,59.91328151687972,
To what extent did the music make you feel ,ALERT,30MonoWAV/30MonoS3.wav,1,1,3,11,,,,,0,10,10,10,0,3,3,8,,,,,,,,,1,1.5857061129936483,,,032,001,2019_May_14_1612,MusicAffectPsychophysiology2019,3.0.5,59.91328151687972,
To what extent did the music make you feel ,SAD,30MonoWAV/30MonoS3.wav,1,1,3,11,,,,,0,10,10,10,0,4,4,0,,,,,,,,,2,2.684849953002413,,,032,001,2019_May_14_1612,MusicAffectPsychophysiology2019,3.0.5,59.91328151687972,
To what extent did the music make you feel ,ANGRY,30MonoWAV/30MonoS3.wav,1,1,3,11,,,,,0,10,10,10,0,5,5,2,,,,,,,,,1,1.386398538001231,,,032,001,2019_May_14_1612,MusicAffectPsychophysiology2019,3.0.5,59.91328151687972,
To what extent did the music make you feel ,EXCITED,30MonoWAV/30MonoS3.wav,1,1,3,11,,,,,0,10,10,10,0,6,6,7,,,,,,,,,1,1.1343389760004357,,,032,001,2019_May_14_1612,MusicAffectPsychophysiology2019,3.0.5,59.91328151687972,
To what extent did the music make you feel ,ANXIOUS ,30MonoWAV/30MonoS3.wav,1,1,3,11,,,,,0,10,10,10,0,7,7,1,,,,,,,,,2,1.2850495379971107,,,032,001,2019_May_14_1612,MusicAffectPsychophysiology2019,3.0.5,59.91328151687972,
To what extent did the music make you feel ,ASHAMED,30MonoWAV/30MonoS3.wav,1,1,3,11,,,,,0,10,10,10,0,8,8,4,,,,,,,,,1,3.018802013990353,,,032,001,2019_May_14_1612,MusicAffectPsychophysiology2019,3.0.5,59.91328151687972,
To what extent did the music make you feel ,SCARED,30MonoWAV/30MonoS3.wav,1,1,3,11,,,,,0,10,10,10,0,9,9,11,,,,,,,,,1,1.6177489010005957,,,032,001,2019_May_14_1612,MusicAffectPsychophysiology2019,3.0.5,59.91328151687972,
To what extent did the music make you feel ,ACTIVE,30MonoWAV/30MonoS3.wav,1,1,3,11,,,,,0,10,10,10,0,10,10,9,,,,,,,,,1,1.7190054789971327,,,032,001,2019_May_14_1612,MusicAffectPsychophysiology2019,3.0.5,59.91328151687972,
To what extent did the music make you feel ,TENDER,30MonoWAV/30MonoS3.wav,1,1,3,11,,,,,0,10,10,10,0,11,11,10,,,,,,,,,1,0.7517234160040971,,,032,001,2019_May_14_1612,MusicAffectPsychophysiology2019,3.0.5,59.91328151687972,
,,30MonoWAV/30MonoS3.wav,1,1,3,11,,,,,0,10,10,10,,,,,,,,,,,,,,,,,032,001,2019_May_14_1612,MusicAffectPsychophysiology2019,3.0.5,59.91328151687972,
To what extent did the music make you feel ,FRUSTRATED,30MonoWAV/30MonoH4.wav,2,2,1,8,,,,,0,11,11,7,0,0,0,3,,,3,4.1181437990017,3,1.7355641600006493,3,1.9188495130074443,1,2.194252850007615,,,032,001,2019_May_14_1612,MusicAffectPsychophysiology2019,3.0.5,59.91328151687972,
To what extent did the music make you feel ,GUILTY,30MonoWAV/30MonoH4.wav,2,2,1,8,,,,,0,11,11,7,0,1,1,5,,,,,,,,,1,0.6850641990022268,,,032,001,2019_May_14_1612,MusicAffectPsychophysiology2019,3.0.5,59.91328151687972,
To what extent did the music make you feel ,SCARED,30MonoWAV/30MonoH4.wav,2,2,1,8,,,,,0,11,11,7,0,2,2,11,,,,,,,,,1,0.6693112429929897,,,032,001,2019_May_14_1612,MusicAffectPsychophysiology2019,3.0.5,59.91328151687972,
To what extent did the music make you feel ,ANXIOUS ,30MonoWAV/30MonoH4.wav,2,2,1,8,,,,,0,11,11,7,0,3,3,1,,,,,,,,,1,0.785194276002585,,,032,001,2019_May_14_1612,MusicAffectPsychophysiology2019,3.0.5,59.91328151687972,
To what extent did the music make you feel ,TENDER,30MonoWAV/30MonoH4.wav,2,2,1,8,,,,,0,11,11,7,0,4,4,10,,,,,,,,,1,0.7675926800002344,,,032,001,2019_May_14_1612,MusicAffectPsychophysiology2019,3.0.5,59.91328151687972,
To what extent did the music make you feel ,ACTIVE,30MonoWAV/30MonoH4.wav,2,2,1,8,,,,,0,11,11,7,0,5,5,9,,,,,,,,,1,0.6191901120037073,,,032,001,2019_May_14_1612,MusicAffectPsychophysiology2019,3.0.5,59.91328151687972,
To what extent did the music make you feel ,ASHAMED,30MonoWAV/30MonoH4.wav,2,2,1,8,,,,,0,11,11,7,0,6,6,4,,,,,,,,,1,2.2675530660053482,,,032,001,2019_May_14_1612,MusicAffectPsychophysiology2019,3.0.5,59.91328151687972,
To what extent did the music make you feel ,ALERT,30MonoWAV/30MonoH4.wav,2,2,1,8,,,,,0,11,11,7,0,7,7,8,,,,,,,,,1,1.7017217670072569,,,032,001,2019_May_14_1612,MusicAffectPsychophysiology2019,3.0.5,59.91328151687972,
To what extent did the music make you feel ,HAPPY,30MonoWAV/30MonoH4.wav,2,2,1,8,,,,,0,11,11,7,0,8,8,6,,,,,,,,,2,1.3352071919944137,,,032,001,2019_May_14_1612,MusicAffectPsychophysiology2019,3.0.5,59.91328151687972,
To what extent did the music make you feel ,SAD,30MonoWAV/30MonoH4.wav,2,2,1,8,,,,,0,11,11,7,0,9,9,0,,,,,,,,,1,0.9191591030103154,,,032,001,2019_May_14_1612,MusicAffectPsychophysiology2019,3.0.5,59.91328151687972,
To what extent did the music make you feel ,EXCITED,30MonoWAV/30MonoH4.wav,2,2,1,8,,,,,0,11,11,7,0,10,10,7,,,,,,,,,3,2.035550300992327,,,032,001,2019_May_14_1612,MusicAffectPsychophysiology2019,3.0.5,59.91328151687972,
To what extent did the music make you feel ,ANGRY,30MonoWAV/30MonoH4.wav,2,2,1,8,,,,,0,11,11,7,0,11,11,2,,,,,,,,,1,1.4840155499987304,,,032,001,2019_May_14_1612,MusicAffectPsychophysiology2019,3.0.5,59.91328151687972,
,,30MonoWAV/30MonoH4.wav,2,2,1,8,,,,,0,11,11,7,,,,,,,,,,,,,,,,,032,001,2019_May_14_1612,MusicAffectPsychophysiology2019,3.0.5,59.91328151687972,
To what extent did the music make you feel ,ANGRY,30MonoWAV/30MonoH1.wav,2,2,1,5,,,,,0,12,12,4,0,0,0,2,,,2,4.218833414997789,2,2.5234492250019684,2,1.7206358480034396,1,2.7377309190051164,,,032,001,2019_May_14_1612,MusicAffectPsychophysiology2019,3.0.5,59.91328151687972,
To what extent did the music make you feel ,ALERT,30MonoWAV/30MonoH1.wav,2,2,1,5,,,,,0,12,12,4,0,1,1,8,,,,,,,,,1,1.3239666200097417,,,032,001,2019_May_14_1612,MusicAffectPsychophysiology2019,3.0.5,59.91328151687972,
To what extent did the music make you feel ,SCARED,30MonoWAV/30MonoH1.wav,2,2,1,5,,,,,0,12,12,4,0,2,2,11,,,,,,,,,1,0.6846164059970761,,,032,001,2019_May_14_1612,MusicAffectPsychophysiology2019,3.0.5,59.91328151687972,
To what extent did the music make you feel ,HAPPY,30MonoWAV/30MonoH1.wav,2,2,1,5,,,,,0,12,12,4,0,3,3,6,,,,,,,,,2,0.9158137280028313,,,032,001,2019_May_14_1612,MusicAffectPsychophysiology2019,3.0.5,59.91328151687972,
To what extent did the music make you feel ,EXCITED,30MonoWAV/30MonoH1.wav,2,2,1,5,,,,,0,12,12,4,0,4,4,7,,,,,,,,,2,1.1517205410054885,,,032,001,2019_May_14_1612,MusicAffectPsychophysiology2019,3.0.5,59.91328151687972,
To what extent did the music make you feel ,ANXIOUS ,30MonoWAV/30MonoH1.wav,2,2,1,5,,,,,0,12,12,4,0,5,5,1,,,,,,,,,1,1.1020710500015412,,,032,001,2019_May_14_1612,MusicAffectPsychophysiology2019,3.0.5,59.91328151687972,
To what extent did the music make you feel ,TENDER,30MonoWAV/30MonoH1.wav,2,2,1,5,,,,,0,12,12,4,0,6,6,10,,,,,,,,,1,1.2521601909975288,,,032,001,2019_May_14_1612,MusicAffectPsychophysiology2019,3.0.5,59.91328151687972,
To what extent did the music make you feel ,ACTIVE,30MonoWAV/30MonoH1.wav,2,2,1,5,,,,,0,12,12,4,0,7,7,9,,,,,,,,,1,1.8356475320033496,,,032,001,2019_May_14_1612,MusicAffectPsychophysiology2019,3.0.5,59.91328151687972,
To what extent did the music make you feel ,GUILTY,30MonoWAV/30MonoH1.wav,2,2,1,5,,,,,0,12,12,4,0,8,8,5,,,,,,,,,1,0.9844922219926957,,,032,001,2019_May_14_1612,MusicAffectPsychophysiology2019,3.0.5,59.91328151687972,
To what extent did the music make you feel ,ASHAMED,30MonoWAV/30MonoH1.wav,2,2,1,5,,,,,0,12,12,4,0,9,9,4,,,,,,,,,1,1.652060969005106,,,032,001,2019_May_14_1612,MusicAffectPsychophysiology2019,3.0.5,59.91328151687972,
To what extent did the music make you feel ,SAD,30MonoWAV/30MonoH1.wav,2,2,1,5,,,,,0,12,12,4,0,10,10,0,,,,,,,,,1,4.402117112011183,,,032,001,2019_May_14_1612,MusicAffectPsychophysiology2019,3.0.5,59.91328151687972,
To what extent did the music make you feel ,FRUSTRATED,30MonoWAV/30MonoH1.wav,2,2,1,5,,,,,0,12,12,4,0,11,11,3,,,,,,,,,1,0.8995624900126131,,,032,001,2019_May_14_1612,MusicAffectPsychophysiology2019,3.0.5,59.91328151687972,
,,30MonoWAV/30MonoH1.wav,2,2,1,5,,,,,0,12,12,4,,,,,,,,,,,,,,,,,032,001,2019_May_14_1612,MusicAffectPsychophysiology2019,3.0.5,59.91328151687972,
To what extent did the music make you feel ,ASHAMED,30MonoWAV/30MonoF4.wav,1,2,2,4,,,,,0,13,13,3,0,0,0,4,,,3,4.885087565999129,1,1.602413405009429,1,1.6184922120010015,2,1.8189801589905983,,,032,001,2019_May_14_1612,MusicAffectPsychophysiology2019,3.0.5,59.91328151687972,
To what extent did the music make you feel ,ALERT,30MonoWAV/30MonoF4.wav,1,2,2,4,,,,,0,13,13,3,0,1,1,8,,,,,,,,,3,1.4352708850055933,,,032,001,2019_May_14_1612,MusicAffectPsychophysiology2019,3.0.5,59.91328151687972,
To what extent did the music make you feel ,SAD,30MonoWAV/30MonoF4.wav,1,2,2,4,,,,,0,13,13,3,0,2,2,0,,,,,,,,,1,1.4522745850117644,,,032,001,2019_May_14_1612,MusicAffectPsychophysiology2019,3.0.5,59.91328151687972,
To what extent did the music make you feel ,SCARED,30MonoWAV/30MonoF4.wav,1,2,2,4,,,,,0,13,13,3,0,3,3,11,,,,,,,,,3,3.1851821890013525,,,032,001,2019_May_14_1612,MusicAffectPsychophysiology2019,3.0.5,59.91328151687972,
To what extent did the music make you feel ,HAPPY,30MonoWAV/30MonoF4.wav,1,2,2,4,,,,,0,13,13,3,0,4,4,6,,,,,,,,,1,2.517878900995129,,,032,001,2019_May_14_1612,MusicAffectPsychophysiology2019,3.0.5,59.91328151687972,
To what extent did the music make you feel ,ANGRY,30MonoWAV/30MonoF4.wav,1,2,2,4,,,,,0,13,13,3,0,5,5,2,,,,,,,,,1,1.218303851012024,,,032,001,2019_May_14_1612,MusicAffectPsychophysiology2019,3.0.5,59.91328151687972,
To what extent did the music make you feel ,ACTIVE,30MonoWAV/30MonoF4.wav,1,2,2,4,,,,,0,13,13,3,0,6,6,9,,,,,,,,,1,2.7511092060012743,,,032,001,2019_May_14_1612,MusicAffectPsychophysiology2019,3.0.5,59.91328151687972,
To what extent did the music make you feel ,GUILTY,30MonoWAV/30MonoF4.wav,1,2,2,4,,,,,0,13,13,3,0,7,7,5,,,,,,,,,1,2.7846071169915376,,,032,001,2019_May_14_1612,MusicAffectPsychophysiology2019,3.0.5,59.91328151687972,
To what extent did the music make you feel ,TENDER,30MonoWAV/30MonoF4.wav,1,2,2,4,,,,,0,13,13,3,0,8,8,10,,,,,,,,,2,1.5183905209996738,,,032,001,2019_May_14_1612,MusicAffectPsychophysiology2019,3.0.5,59.91328151687972,
To what extent did the music make you feel ,FRUSTRATED,30MonoWAV/30MonoF4.wav,1,2,2,4,,,,,0,13,13,3,0,9,9,3,,,,,,,,,1,1.2174892170005478,,,032,001,2019_May_14_1612,MusicAffectPsychophysiology2019,3.0.5,59.91328151687972,
To what extent did the music make you feel ,ANXIOUS ,30MonoWAV/30MonoF4.wav,1,2,2,4,,,,,0,13,13,3,0,10,10,1,,,,,,,,,2,1.5019060089980485,,,032,001,2019_May_14_1612,MusicAffectPsychophysiology2019,3.0.5,59.91328151687972,
To what extent did the music make you feel ,EXCITED,30MonoWAV/30MonoF4.wav,1,2,2,4,,,,,0,13,13,3,0,11,11,7,,,,,,,,,1,0.9848844520020066,,,032,001,2019_May_14_1612,MusicAffectPsychophysiology2019,3.0.5,59.91328151687972,
,,30MonoWAV/30MonoF4.wav,1,2,2,4,,,,,0,13,13,3,,,,,,,,,,,,,,,,,032,001,2019_May_14_1612,MusicAffectPsychophysiology2019,3.0.5,59.91328151687972,
To what extent did the music make you feel ,SAD,30MonoWAV/30MonoS2.wav,1,1,3,10,,,,,0,14,14,9,0,0,0,0,,,2,5.332940135995159,1,5.951637592996121,1,2.0684392809926067,2,1.3523238960042363,,,032,001,2019_May_14_1612,MusicAffectPsychophysiology2019,3.0.5,59.91328151687972,
To what extent did the music make you feel ,EXCITED,30MonoWAV/30MonoS2.wav,1,1,3,10,,,,,0,14,14,9,0,1,1,7,,,,,,,,,1,1.0855002900061663,,,032,001,2019_May_14_1612,MusicAffectPsychophysiology2019,3.0.5,59.91328151687972,
To what extent did the music make you feel ,TENDER,30MonoWAV/30MonoS2.wav,1,1,3,10,,,,,0,14,14,9,0,2,2,10,,,,,,,,,1,2.069027945995913,,,032,001,2019_May_14_1612,MusicAffectPsychophysiology2019,3.0.5,59.91328151687972,
To what extent did the music make you feel ,HAPPY,30MonoWAV/30MonoS2.wav,1,1,3,10,,,,,0,14,14,9,0,3,3,6,,,,,,,,,1,0.8845411109941779,,,032,001,2019_May_14_1612,MusicAffectPsychophysiology2019,3.0.5,59.91328151687972,
To what extent did the music make you feel ,GUILTY,30MonoWAV/30MonoS2.wav,1,1,3,10,,,,,0,14,14,9,0,4,4,5,,,,,,,,,1,0.6850139750022208,,,032,001,2019_May_14_1612,MusicAffectPsychophysiology2019,3.0.5,59.91328151687972,
To what extent did the music make you feel ,ANXIOUS ,30MonoWAV/30MonoS2.wav,1,1,3,10,,,,,0,14,14,9,0,5,5,1,,,,,,,,,1,1.1354263510002056,,,032,001,2019_May_14_1612,MusicAffectPsychophysiology2019,3.0.5,59.91328151687972,
To what extent did the music make you feel ,ANGRY,30MonoWAV/30MonoS2.wav,1,1,3,10,,,,,0,14,14,9,0,6,6,2,,,,,,,,,1,1.0017478149966337,,,032,001,2019_May_14_1612,MusicAffectPsychophysiology2019,3.0.5,59.91328151687972,
To what extent did the music make you feel ,FRUSTRATED,30MonoWAV/30MonoS2.wav,1,1,3,10,,,,,0,14,14,9,0,7,7,3,,,,,,,,,2,2.352707294994616,,,032,001,2019_May_14_1612,MusicAffectPsychophysiology2019,3.0.5,59.91328151687972,
To what extent did the music make you feel ,ALERT,30MonoWAV/30MonoS2.wav,1,1,3,10,,,,,0,14,14,9,0,8,8,8,,,,,,,,,1,1.3169375060097082,,,032,001,2019_May_14_1612,MusicAffectPsychophysiology2019,3.0.5,59.91328151687972,
To what extent did the music make you feel ,ACTIVE,30MonoWAV/30MonoS2.wav,1,1,3,10,,,,,0,14,14,9,0,9,9,9,,,,,,,,,1,2.785348065008293,,,032,001,2019_May_14_1612,MusicAffectPsychophysiology2019,3.0.5,59.91328151687972,
To what extent did the music make you feel ,SCARED,30MonoWAV/30MonoS2.wav,1,1,3,10,,,,,0,14,14,9,0,10,10,11,,,,,,,,,1,0.9838534080045065,,,032,001,2019_May_14_1612,MusicAffectPsychophysiology2019,3.0.5,59.91328151687972,
To what extent did the music make you feel ,ASHAMED,30MonoWAV/30MonoS2.wav,1,1,3,10,,,,,0,14,14,9,0,11,11,4,,,,,,,,,1,0.8022961329988902,,,032,001,2019_May_14_1612,MusicAffectPsychophysiology2019,3.0.5,59.91328151687972,
,,30MonoWAV/30MonoS2.wav,1,1,3,10,,,,,0,14,14,9,,,,,,,,,,,,,,,,,032,001,2019_May_14_1612,MusicAffectPsychophysiology2019,3.0.5,59.91328151687972,
To what extent did the music make you feel ,SAD,30MonoWAV/30MonoS1.wav,1,1,3,9,,,,,0,15,15,8,0,0,0,0,,,1,4.568097654992016,1,2.6509628490020987,1,2.0332004640076775,2,1.2174524080037372,,,032,001,2019_May_14_1612,MusicAffectPsychophysiology2019,3.0.5,59.91328151687972,
To what extent did the music make you feel ,ACTIVE,30MonoWAV/30MonoS1.wav,1,1,3,9,,,,,0,15,15,8,0,1,1,9,,,,,,,,,1,1.1683582950063283,,,032,001,2019_May_14_1612,MusicAffectPsychophysiology2019,3.0.5,59.91328151687972,
To what extent did the music make you feel ,ANGRY,30MonoWAV/30MonoS1.wav,1,1,3,9,,,,,0,15,15,8,0,2,2,2,,,,,,,,,1,1.1021251950005535,,,032,001,2019_May_14_1612,MusicAffectPsychophysiology2019,3.0.5,59.91328151687972,
To what extent did the music make you feel ,TENDER,30MonoWAV/30MonoS1.wav,1,1,3,9,,,,,0,15,15,8,0,3,3,10,,,,,,,,,1,1.4860107589920517,,,032,001,2019_May_14_1612,MusicAffectPsychophysiology2019,3.0.5,59.91328151687972,
To what extent did the music make you feel ,ANXIOUS ,30MonoWAV/30MonoS1.wav,1,1,3,9,,,,,0,15,15,8,0,4,4,1,,,,,,,,,1,0.8017551560042193,,,032,001,2019_May_14_1612,MusicAffectPsychophysiology2019,3.0.5,59.91328151687972,
To what extent did the music make you feel ,FRUSTRATED,30MonoWAV/30MonoS1.wav,1,1,3,9,,,,,0,15,15,8,0,5,5,3,,,,,,,,,2,0.9525143140053842,,,032,001,2019_May_14_1612,MusicAffectPsychophysiology2019,3.0.5,59.91328151687972,
To what extent did the music make you feel ,EXCITED,30MonoWAV/30MonoS1.wav,1,1,3,9,,,,,0,15,15,8,0,6,6,7,,,,,,,,,1,1.1833664279984077,,,032,001,2019_May_14_1612,MusicAffectPsychophysiology2019,3.0.5,59.91328151687972,
To what extent did the music make you feel ,SCARED,30MonoWAV/30MonoS1.wav,1,1,3,9,,,,,0,15,15,8,0,7,7,11,,,,,,,,,1,2.2857734370045364,,,032,001,2019_May_14_1612,MusicAffectPsychophysiology2019,3.0.5,59.91328151687972,
To what extent did the music make you feel ,ASHAMED,30MonoWAV/30MonoS1.wav,1,1,3,9,,,,,0,15,15,8,0,8,8,4,,,,,,,,,1,1.0359104399976786,,,032,001,2019_May_14_1612,MusicAffectPsychophysiology2019,3.0.5,59.91328151687972,
To what extent did the music make you feel ,ALERT,30MonoWAV/30MonoS1.wav,1,1,3,9,,,,,0,15,15,8,0,9,9,8,,,,,,,,,1,1.1341375569900265,,,032,001,2019_May_14_1612,MusicAffectPsychophysiology2019,3.0.5,59.91328151687972,
To what extent did the music make you feel ,GUILTY,30MonoWAV/30MonoS1.wav,1,1,3,9,,,,,0,15,15,8,0,10,10,5,,,,,,,,,1,0.7011214539961657,,,032,001,2019_May_14_1612,MusicAffectPsychophysiology2019,3.0.5,59.91328151687972,
To what extent did the music make you feel ,HAPPY,30MonoWAV/30MonoS1.wav,1,1,3,9,,,,,0,15,15,8,0,11,11,6,,,,,,,,,1,1.2343946680048248,,,032,001,2019_May_14_1612,MusicAffectPsychophysiology2019,3.0.5,59.91328151687972,
,,30MonoWAV/30MonoS1.wav,1,1,3,9,,,,,0,15,15,8,,,,,,,,,,,,,,,,,032,001,2019_May_14_1612,MusicAffectPsychophysiology2019,3.0.5,59.91328151687972,
To what extent did the music make you feel ,TENDER,30MonoWAV/30MonoF1.wav,1,2,2,1,,,,,1,0,16,0,0,0,0,10,,,2,3.167788626989932,1,1.5838582680007676,1,6.551782313006697,1,1.3513381899974775,,,032,001,2019_May_14_1612,MusicAffectPsychophysiology2019,3.0.5,59.91328151687972,
To what extent did the music make you feel ,GUILTY,30MonoWAV/30MonoF1.wav,1,2,2,1,,,,,1,0,16,0,0,1,1,5,,,,,,,,,1,0.768303510005353,,,032,001,2019_May_14_1612,MusicAffectPsychophysiology2019,3.0.5,59.91328151687972,
To what extent did the music make you feel ,ACTIVE,30MonoWAV/30MonoF1.wav,1,2,2,1,,,,,1,0,16,0,0,2,2,9,,,,,,,,,1,0.8025330649979878,,,032,001,2019_May_14_1612,MusicAffectPsychophysiology2019,3.0.5,59.91328151687972,
To what extent did the music make you feel ,SCARED,30MonoWAV/30MonoF1.wav,1,2,2,1,,,,,1,0,16,0,0,3,3,11,,,,,,,,,1,1.870258296999964,,,032,001,2019_May_14_1612,MusicAffectPsychophysiology2019,3.0.5,59.91328151687972,
To what extent did the music make you feel ,ASHAMED,30MonoWAV/30MonoF1.wav,1,2,2,1,,,,,1,0,16,0,0,4,4,4,,,,,,,,,1,1.2663456419977592,,,032,001,2019_May_14_1612,MusicAffectPsychophysiology2019,3.0.5,59.91328151687972,
To what extent did the music make you feel ,ANGRY,30MonoWAV/30MonoF1.wav,1,2,2,1,,,,,1,0,16,0,0,5,5,2,,,,,,,,,1,3.3510308700060705,,,032,001,2019_May_14_1612,MusicAffectPsychophysiology2019,3.0.5,59.91328151687972,
To what extent did the music make you feel ,SAD,30MonoWAV/30MonoF1.wav,1,2,2,1,,,,,1,0,16,0,0,6,6,0,,,,,,,,,1,12.100214947000495,,,032,001,2019_May_14_1612,MusicAffectPsychophysiology2019,3.0.5,59.91328151687972,
To what extent did the music make you feel ,ALERT,30MonoWAV/30MonoF1.wav,1,2,2,1,,,,,1,0,16,0,0,7,7,8,,,,,,,,,2,1.4513595800090116,,,032,001,2019_May_14_1612,MusicAffectPsychophysiology2019,3.0.5,59.91328151687972,
To what extent did the music make you feel ,FRUSTRATED,30MonoWAV/30MonoF1.wav,1,2,2,1,,,,,1,0,16,0,0,8,8,3,,,,,,,,,1,1.301608887995826,,,032,001,2019_May_14_1612,MusicAffectPsychophysiology2019,3.0.5,59.91328151687972,
To what extent did the music make you feel ,EXCITED,30MonoWAV/30MonoF1.wav,1,2,2,1,,,,,1,0,16,0,0,9,9,7,,,,,,,,,1,2.2841451870044693,,,032,001,2019_May_14_1612,MusicAffectPsychophysiology2019,3.0.5,59.91328151687972,
To what extent did the music make you feel ,ANXIOUS ,30MonoWAV/30MonoF1.wav,1,2,2,1,,,,,1,0,16,0,0,10,10,1,,,,,,,,,1,2.317884762000176,,,032,001,2019_May_14_1612,MusicAffectPsychophysiology2019,3.0.5,59.91328151687972,
To what extent did the music make you feel ,HAPPY,30MonoWAV/30MonoF1.wav,1,2,2,1,,,,,1,0,16,0,0,11,11,6,,,,,,,,,1,1.3513328740082216,,,032,001,2019_May_14_1612,MusicAffectPsychophysiology2019,3.0.5,59.91328151687972,
,,30MonoWAV/30MonoF1.wav,1,2,2,1,,,,,1,0,16,0,,,,,,,,,,,,,,,,,032,001,2019_May_14_1612,MusicAffectPsychophysiology2019,3.0.5,59.91328151687972,
To what extent did the music make you feel ,ALERT,30MonoWAV/30MonoF2.wav,1,2,2,2,,,,,1,1,17,1,0,0,0,8,,,2,7.318404300996917,1,3.858473686996149,1,2.738726155992481,1,3.2015639710007235,,,032,001,2019_May_14_1612,MusicAffectPsychophysiology2019,3.0.5,59.91328151687972,
To what extent did the music make you feel ,ANXIOUS ,30MonoWAV/30MonoF2.wav,1,2,2,2,,,,,1,1,17,1,0,1,1,1,,,,,,,,,1,1.7008640169951832,,,032,001,2019_May_14_1612,MusicAffectPsychophysiology2019,3.0.5,59.91328151687972,
To what extent did the music make you feel ,ASHAMED,30MonoWAV/30MonoF2.wav,1,2,2,2,,,,,1,1,17,1,0,2,2,4,,,,,,,,,1,1.0842005360027542,,,032,001,2019_May_14_1612,MusicAffectPsychophysiology2019,3.0.5,59.91328151687972,
To what extent did the music make you feel ,EXCITED,30MonoWAV/30MonoF2.wav,1,2,2,2,,,,,1,1,17,1,0,3,3,7,,,,,,,,,1,1.235261141002411,,,032,001,2019_May_14_1612,MusicAffectPsychophysiology2019,3.0.5,59.91328151687972,
To what extent did the music make you feel ,ANGRY,30MonoWAV/30MonoF2.wav,1,2,2,2,,,,,1,1,17,1,0,4,4,2,,,,,,,,,1,1.5009818349935813,,,032,001,2019_May_14_1612,MusicAffectPsychophysiology2019,3.0.5,59.91328151687972,
To what extent did the music make you feel ,FRUSTRATED,30MonoWAV/30MonoF2.wav,1,2,2,2,,,,,1,1,17,1,0,5,5,3,,,,,,,,,1,0.968348802998662,,,032,001,2019_May_14_1612,MusicAffectPsychophysiology2019,3.0.5,59.91328151687972,
To what extent did the music make you feel ,GUILTY,30MonoWAV/30MonoF2.wav,1,2,2,2,,,,,1,1,17,1,0,6,6,5,,,,,,,,,1,1.435771050004405,,,032,001,2019_May_14_1612,MusicAffectPsychophysiology2019,3.0.5,59.91328151687972,
To what extent did the music make you feel ,TENDER,30MonoWAV/30MonoF2.wav,1,2,2,2,,,,,1,1,17,1,0,7,7,10,,,,,,,,,1,0.9339705900056288,,,032,001,2019_May_14_1612,MusicAffectPsychophysiology2019,3.0.5,59.91328151687972,
To what extent did the music make you feel ,ACTIVE,30MonoWAV/30MonoF2.wav,1,2,2,2,,,,,1,1,17,1,0,8,8,9,,,,,,,,,1,1.8352459660090972,,,032,001,2019_May_14_1612,MusicAffectPsychophysiology2019,3.0.5,59.91328151687972,
To what extent did the music make you feel ,SCARED,30MonoWAV/30MonoF2.wav,1,2,2,2,,,,,1,1,17,1,0,9,9,11,,,,,,,,,1,1.951492143998621,,,032,001,2019_May_14_1612,MusicAffectPsychophysiology2019,3.0.5,59.91328151687972,
To what extent did the music make you feel ,HAPPY,30MonoWAV/30MonoF2.wav,1,2,2,2,,,,,1,1,17,1,0,10,10,6,,,,,,,,,1,1.152318082007696,,,032,001,2019_May_14_1612,MusicAffectPsychophysiology2019,3.0.5,59.91328151687972,
To what extent did the music make you feel ,SAD,30MonoWAV/30MonoF2.wav,1,2,2,2,,,,,1,1,17,1,0,11,11,0,,,,,,,,,1,1.9177645160089014,,,032,001,2019_May_14_1612,MusicAffectPsychophysiology2019,3.0.5,59.91328151687972,
,,30MonoWAV/30MonoF2.wav,1,2,2,2,,,,,1,1,17,1,,,,,,,,,,,,,,,,,032,001,2019_May_14_1612,MusicAffectPsychophysiology2019,3.0.5,59.91328151687972,
To what extent did the music make you feel ,ALERT,30MonoWAV/30MonoS2.wav,1,1,3,10,,,,,1,2,18,9,0,0,0,8,,,1,5.215971178011387,1,0.9681839400000172,1,1.4862753089983016,1,1.5043453459948068,,,032,001,2019_May_14_1612,MusicAffectPsychophysiology2019,3.0.5,59.91328151687972,
To what extent did the music make you feel ,HAPPY,30MonoWAV/30MonoS2.wav,1,1,3,10,,,,,1,2,18,9,0,1,1,6,,,,,,,,,1,0.7191366719926009,,,032,001,2019_May_14_1612,MusicAffectPsychophysiology2019,3.0.5,59.91328151687972,
To what extent did the music make you feel ,EXCITED,30MonoWAV/30MonoS2.wav,1,1,3,10,,,,,1,2,18,9,0,2,2,7,,,,,,,,,1,0.6520032759872265,,,032,001,2019_May_14_1612,MusicAffectPsychophysiology2019,3.0.5,59.91328151687972,
To what extent did the music make you feel ,ACTIVE,30MonoWAV/30MonoS2.wav,1,1,3,10,,,,,1,2,18,9,0,3,3,9,,,,,,,,,1,0.8516118690022267,,,032,001,2019_May_14_1612,MusicAffectPsychophysiology2019,3.0.5,59.91328151687972,
To what extent did the music make you feel ,GUILTY,30MonoWAV/30MonoS2.wav,1,1,3,10,,,,,1,2,18,9,0,4,4,5,,,,,,,,,1,0.7348031379951863,,,032,001,2019_May_14_1612,MusicAffectPsychophysiology2019,3.0.5,59.91328151687972,
To what extent did the music make you feel ,ANGRY,30MonoWAV/30MonoS2.wav,1,1,3,10,,,,,1,2,18,9,0,5,5,2,,,,,,,,,1,0.7858237799955532,,,032,001,2019_May_14_1612,MusicAffectPsychophysiology2019,3.0.5,59.91328151687972,
To what extent did the music make you feel ,SAD,30MonoWAV/30MonoS2.wav,1,1,3,10,,,,,1,2,18,9,0,6,6,0,,,,,,,,,1,1.8171827769983793,,,032,001,2019_May_14_1612,MusicAffectPsychophysiology2019,3.0.5,59.91328151687972,
To what extent did the music make you feel ,ASHAMED,30MonoWAV/30MonoS2.wav,1,1,3,10,,,,,1,2,18,9,0,7,7,4,,,,,,,,,1,0.8349922860070365,,,032,001,2019_May_14_1612,MusicAffectPsychophysiology2019,3.0.5,59.91328151687972,
To what extent did the music make you feel ,TENDER,30MonoWAV/30MonoS2.wav,1,1,3,10,,,,,1,2,18,9,0,8,8,10,,,,,,,,,1,1.034868328992161,,,032,001,2019_May_14_1612,MusicAffectPsychophysiology2019,3.0.5,59.91328151687972,
To what extent did the music make you feel ,SCARED,30MonoWAV/30MonoS2.wav,1,1,3,10,,,,,1,2,18,9,0,9,9,11,,,,,,,,,1,2.867625898012193,,,032,001,2019_May_14_1612,MusicAffectPsychophysiology2019,3.0.5,59.91328151687972,
To what extent did the music make you feel ,FRUSTRATED,30MonoWAV/30MonoS2.wav,1,1,3,10,,,,,1,2,18,9,0,10,10,3,,,,,,,,,1,1.4687615339935292,,,032,001,2019_May_14_1612,MusicAffectPsychophysiology2019,3.0.5,59.91328151687972,
To what extent did the music make you feel ,ANXIOUS ,30MonoWAV/30MonoS2.wav,1,1,3,10,,,,,1,2,18,9,0,11,11,1,,,,,,,,,1,3.251653533996432,,,032,001,2019_May_14_1612,MusicAffectPsychophysiology2019,3.0.5,59.91328151687972,
,,30MonoWAV/30MonoS2.wav,1,1,3,10,,,,,1,2,18,9,,,,,,,,,,,,,,,,,032,001,2019_May_14_1612,MusicAffectPsychophysiology2019,3.0.5,59.91328151687972,
To what extent did the music make you feel ,ACTIVE,30MonoWAV/30MonoS1.wav,1,1,3,9,,,,,1,3,19,8,0,0,0,9,,,1,3.5845849189936416,1,1.6337364830105798,1,1.1177160759980325,1,1.0678269619966159,,,032,001,2019_May_14_1612,MusicAffectPsychophysiology2019,3.0.5,59.91328151687972,
To what extent did the music make you feel ,TENDER,30MonoWAV/30MonoS1.wav,1,1,3,9,,,,,1,3,19,8,0,1,1,10,,,,,,,,,1,1.2679682779998984,,,032,001,2019_May_14_1612,MusicAffectPsychophysiology2019,3.0.5,59.91328151687972,
To what extent did the music make you feel ,ANGRY,30MonoWAV/30MonoS1.wav,1,1,3,9,,,,,1,3,19,8,0,2,2,2,,,,,,,,,1,0.783939258006285,,,032,001,2019_May_14_1612,MusicAffectPsychophysiology2019,3.0.5,59.91328151687972,
To what extent did the music make you feel ,ASHAMED,30MonoWAV/30MonoS1.wav,1,1,3,9,,,,,1,3,19,8,0,3,3,4,,,,,,,,,1,1.5682472460030112,,,032,001,2019_May_14_1612,MusicAffectPsychophysiology2019,3.0.5,59.91328151687972,
To what extent did the music make you feel ,ANXIOUS ,30MonoWAV/30MonoS1.wav,1,1,3,9,,,,,1,3,19,8,0,4,4,1,,,,,,,,,1,1.1012528499995824,,,032,001,2019_May_14_1612,MusicAffectPsychophysiology2019,3.0.5,59.91328151687972,
To what extent did the music make you feel ,FRUSTRATED,30MonoWAV/30MonoS1.wav,1,1,3,9,,,,,1,3,19,8,0,5,5,3,,,,,,,,,1,0.702759966996382,,,032,001,2019_May_14_1612,MusicAffectPsychophysiology2019,3.0.5,59.91328151687972,
To what extent did the music make you feel ,SCARED,30MonoWAV/30MonoS1.wav,1,1,3,9,,,,,1,3,19,8,0,6,6,11,,,,,,,,,1,1.4685986530093942,,,032,001,2019_May_14_1612,MusicAffectPsychophysiology2019,3.0.5,59.91328151687972,
To what extent did the music make you feel ,HAPPY,30MonoWAV/30MonoS1.wav,1,1,3,9,,,,,1,3,19,8,0,7,7,6,,,,,,,,,1,0.8021246749995044,,,032,001,2019_May_14_1612,MusicAffectPsychophysiology2019,3.0.5,59.91328151687972,
To what extent did the music make you feel ,EXCITED,30MonoWAV/30MonoS1.wav,1,1,3,9,,,,,1,3,19,8,0,8,8,7,,,,,,,,,1,0.9188910439988831,,,032,001,2019_May_14_1612,MusicAffectPsychophysiology2019,3.0.5,59.91328151687972,
To what extent did the music make you feel ,ALERT,30MonoWAV/30MonoS1.wav,1,1,3,9,,,,,1,3,19,8,0,9,9,8,,,,,,,,,1,1.1020917470013956,,,032,001,2019_May_14_1612,MusicAffectPsychophysiology2019,3.0.5,59.91328151687972,
To what extent did the music make you feel ,GUILTY,30MonoWAV/30MonoS1.wav,1,1,3,9,,,,,1,3,19,8,0,10,10,5,,,,,,,,,1,0.63418991000799,,,032,001,2019_May_14_1612,MusicAffectPsychophysiology2019,3.0.5,59.91328151687972,
To what extent did the music make you feel ,SAD,30MonoWAV/30MonoS1.wav,1,1,3,9,,,,,1,3,19,8,0,11,11,0,,,,,,,,,1,0.7021258270106046,,,032,001,2019_May_14_1612,MusicAffectPsychophysiology2019,3.0.5,59.91328151687972,
,,30MonoWAV/30MonoS1.wav,1,1,3,9,,,,,1,3,19,8,,,,,,,,,,,,,,,,,032,001,2019_May_14_1612,MusicAffectPsychophysiology2019,3.0.5,59.91328151687972,
To what extent did the music make you feel ,HAPPY,30MonoWAV/30MonoH4.wav,2,2,1,8,,,,,1,4,20,7,0,0,0,6,,,2,2.934730024993769,2,6.801083432001178,3,2.6494351830042433,2,3.2521152029949008,,,032,001,2019_May_14_1612,MusicAffectPsychophysiology2019,3.0.5,59.91328151687972,
To what extent did the music make you feel ,SCARED,30MonoWAV/30MonoH4.wav,2,2,1,8,,,,,1,4,20,7,0,1,1,11,,,,,,,,,1,0.8510717969911639,,,032,001,2019_May_14_1612,MusicAffectPsychophysiology2019,3.0.5,59.91328151687972,
To what extent did the music make you feel ,ANXIOUS ,30MonoWAV/30MonoH4.wav,2,2,1,8,,,,,1,4,20,7,0,2,2,1,,,,,,,,,1,1.084816503993352,,,032,001,2019_May_14_1612,MusicAffectPsychophysiology2019,3.0.5,59.91328151687972,
To what extent did the music make you feel ,ANGRY,30MonoWAV/30MonoH4.wav,2,2,1,8,,,,,1,4,20,7,0,3,3,2,,,,,,,,,1,0.8009969269915018,,,032,001,2019_May_14_1612,MusicAffectPsychophysiology2019,3.0.5,59.91328151687972,
To what extent did the music make you feel ,ASHAMED,30MonoWAV/30MonoH4.wav,2,2,1,8,,,,,1,4,20,7,0,4,4,4,,,,,,,,,1,0.7355242979974719,,,032,001,2019_May_14_1612,MusicAffectPsychophysiology2019,3.0.5,59.91328151687972,
To what extent did the music make you feel ,ALERT,30MonoWAV/30MonoH4.wav,2,2,1,8,,,,,1,4,20,7,0,5,5,8,,,,,,,,,1,0.9352502590045333,,,032,001,2019_May_14_1612,MusicAffectPsychophysiology2019,3.0.5,59.91328151687972,
To what extent did the music make you feel ,FRUSTRATED,30MonoWAV/30MonoH4.wav,2,2,1,8,,,,,1,4,20,7,0,6,6,3,,,,,,,,,1,0.7342396559979534,,,032,001,2019_May_14_1612,MusicAffectPsychophysiology2019,3.0.5,59.91328151687972,
To what extent did the music make you feel ,EXCITED,30MonoWAV/30MonoH4.wav,2,2,1,8,,,,,1,4,20,7,0,7,7,7,,,,,,,,,2,1.3018614129978232,,,032,001,2019_May_14_1612,MusicAffectPsychophysiology2019,3.0.5,59.91328151687972,
To what extent did the music make you feel ,TENDER,30MonoWAV/30MonoH4.wav,2,2,1,8,,,,,1,4,20,7,0,8,8,10,,,,,,,,,1,0.8014257120084949,,,032,001,2019_May_14_1612,MusicAffectPsychophysiology2019,3.0.5,59.91328151687972,
To what extent did the music make you feel ,ACTIVE,30MonoWAV/30MonoH4.wav,2,2,1,8,,,,,1,4,20,7,0,9,9,9,,,,,,,,,2,2.3851490359957097,,,032,001,2019_May_14_1612,MusicAffectPsychophysiology2019,3.0.5,59.91328151687972,
To what extent did the music make you feel ,SAD,30MonoWAV/30MonoH4.wav,2,2,1,8,,,,,1,4,20,7,0,10,10,0,,,,,,,,,1,0.7498964710102882,,,032,001,2019_May_14_1612,MusicAffectPsychophysiology2019,3.0.5,59.91328151687972,
To what extent did the music make you feel ,GUILTY,30MonoWAV/30MonoH4.wav,2,2,1,8,,,,,1,4,20,7,0,11,11,5,,,,,,,,,1,1.2192362090136157,,,032,001,2019_May_14_1612,MusicAffectPsychophysiology2019,3.0.5,59.91328151687972,
,,30MonoWAV/30MonoH4.wav,2,2,1,8,,,,,1,4,20,7,,,,,,,,,,,,,,,,,032,001,2019_May_14_1612,MusicAffectPsychophysiology2019,3.0.5,59.91328151687972,
To what extent did the music make you feel ,ANGRY,30MonoWAV/30MonoF3.wav,1,2,2,3,,,,,1,5,21,2,0,0,0,2,,,2,5.3347870580037124,1,1.1689186510047875,1,1.917214827000862,1,2.5531927090050885,,,032,001,2019_May_14_1612,MusicAffectPsychophysiology2019,3.0.5,59.91328151687972,
To what extent did the music make you feel ,GUILTY,30MonoWAV/30MonoF3.wav,1,2,2,3,,,,,1,5,21,2,0,1,1,5,,,,,,,,,1,0.9018193730007624,,,032,001,2019_May_14_1612,MusicAffectPsychophysiology2019,3.0.5,59.91328151687972,
To what extent did the music make you feel ,HAPPY,30MonoWAV/30MonoF3.wav,1,2,2,3,,,,,1,5,21,2,0,2,2,6,,,,,,,,,1,0.7023165760037955,,,032,001,2019_May_14_1612,MusicAffectPsychophysiology2019,3.0.5,59.91328151687972,
To what extent did the music make you feel ,ACTIVE,30MonoWAV/30MonoF3.wav,1,2,2,3,,,,,1,5,21,2,0,3,3,9,,,,,,,,,1,0.7503621529904194,,,032,001,2019_May_14_1612,MusicAffectPsychophysiology2019,3.0.5,59.91328151687972,
To what extent did the music make you feel ,SAD,30MonoWAV/30MonoF3.wav,1,2,2,3,,,,,1,5,21,2,0,4,4,0,,,,,,,,,1,1.4017551920114784,,,032,001,2019_May_14_1612,MusicAffectPsychophysiology2019,3.0.5,59.91328151687972,
To what extent did the music make you feel ,ANXIOUS ,30MonoWAV/30MonoF3.wav,1,2,2,3,,,,,1,5,21,2,0,5,5,1,,,,,,,,,1,0.8686069120012689,,,032,001,2019_May_14_1612,MusicAffectPsychophysiology2019,3.0.5,59.91328151687972,
To what extent did the music make you feel ,EXCITED,30MonoWAV/30MonoF3.wav,1,2,2,3,,,,,1,5,21,2,0,6,6,7,,,,,,,,,1,1.1022896620124811,,,032,001,2019_May_14_1612,MusicAffectPsychophysiology2019,3.0.5,59.91328151687972,
To what extent did the music make you feel ,SCARED,30MonoWAV/30MonoF3.wav,1,2,2,3,,,,,1,5,21,2,0,7,7,11,,,,,,,,,1,2.0668648190039676,,,032,001,2019_May_14_1612,MusicAffectPsychophysiology2019,3.0.5,59.91328151687972,
To what extent did the music make you feel ,ALERT,30MonoWAV/30MonoF3.wav,1,2,2,3,,,,,1,5,21,2,0,8,8,8,,,,,,,,,1,1.369422270989162,,,032,001,2019_May_14_1612,MusicAffectPsychophysiology2019,3.0.5,59.91328151687972,
To what extent did the music make you feel ,ASHAMED,30MonoWAV/30MonoF3.wav,1,2,2,3,,,,,1,5,21,2,0,9,9,4,,,,,,,,,1,0.8685132380051073,,,032,001,2019_May_14_1612,MusicAffectPsychophysiology2019,3.0.5,59.91328151687972,
To what extent did the music make you feel ,TENDER,30MonoWAV/30MonoF3.wav,1,2,2,3,,,,,1,5,21,2,0,10,10,10,,,,,,,,,1,0.8182697169977473,,,032,001,2019_May_14_1612,MusicAffectPsychophysiology2019,3.0.5,59.91328151687972,
To what extent did the music make you feel ,FRUSTRATED,30MonoWAV/30MonoF3.wav,1,2,2,3,,,,,1,5,21,2,0,11,11,3,,,,,,,,,1,0.8353264469915302,,,032,001,2019_May_14_1612,MusicAffectPsychophysiology2019,3.0.5,59.91328151687972,
,,30MonoWAV/30MonoF3.wav,1,2,2,3,,,,,1,5,21,2,,,,,,,,,,,,,,,,,032,001,2019_May_14_1612,MusicAffectPsychophysiology2019,3.0.5,59.91328151687972,
To what extent did the music make you feel ,HAPPY,30MonoWAV/30MonoH2.wav,2,2,1,6,,,,,1,6,22,5,0,0,0,6,,,1,6.717449767005746,1,5.284312042000238,2,2.2032632659975206,1,2.5018249599961564,,,032,001,2019_May_14_1612,MusicAffectPsychophysiology2019,3.0.5,59.91328151687972,
To what extent did the music make you feel ,GUILTY,30MonoWAV/30MonoH2.wav,2,2,1,6,,,,,1,6,22,5,0,1,1,5,,,,,,,,,1,0.5853594459913438,,,032,001,2019_May_14_1612,MusicAffectPsychophysiology2019,3.0.5,59.91328151687972,
To what extent did the music make you feel ,FRUSTRATED,30MonoWAV/30MonoH2.wav,2,2,1,6,,,,,1,6,22,5,0,2,2,3,,,,,,,,,1,0.9023044829955325,,,032,001,2019_May_14_1612,MusicAffectPsychophysiology2019,3.0.5,59.91328151687972,
To what extent did the music make you feel ,TENDER,30MonoWAV/30MonoH2.wav,2,2,1,6,,,,,1,6,22,5,0,3,3,10,,,,,,,,,1,0.850978568996652,,,032,001,2019_May_14_1612,MusicAffectPsychophysiology2019,3.0.5,59.91328151687972,
To what extent did the music make you feel ,SCARED,30MonoWAV/30MonoH2.wav,2,2,1,6,,,,,1,6,22,5,0,4,4,11,,,,,,,,,1,0.9675455999968108,,,032,001,2019_May_14_1612,MusicAffectPsychophysiology2019,3.0.5,59.91328151687972,
To what extent did the music make you feel ,ALERT,30MonoWAV/30MonoH2.wav,2,2,1,6,,,,,1,6,22,5,0,5,5,8,,,,,,,,,1,0.685035089001758,,,032,001,2019_May_14_1612,MusicAffectPsychophysiology2019,3.0.5,59.91328151687972,
To what extent did the music make you feel ,ACTIVE,30MonoWAV/30MonoH2.wav,2,2,1,6,,,,,1,6,22,5,0,6,6,9,,,,,,,,,1,1.9663067079964094,,,032,001,2019_May_14_1612,MusicAffectPsychophysiology2019,3.0.5,59.91328151687972,
To what extent did the music make you feel ,ASHAMED,30MonoWAV/30MonoH2.wav,2,2,1,6,,,,,1,6,22,5,0,7,7,4,,,,,,,,,1,1.0695412180066342,,,032,001,2019_May_14_1612,MusicAffectPsychophysiology2019,3.0.5,59.91328151687972,
To what extent did the music make you feel ,SAD,30MonoWAV/30MonoH2.wav,2,2,1,6,,,,,1,6,22,5,0,8,8,0,,,,,,,,,1,0.7842364810057916,,,032,001,2019_May_14_1612,MusicAffectPsychophysiology2019,3.0.5,59.91328151687972,
To what extent did the music make you feel ,ANGRY,30MonoWAV/30MonoH2.wav,2,2,1,6,,,,,1,6,22,5,0,9,9,2,,,,,,,,,1,0.7498712060041726,,,032,001,2019_May_14_1612,MusicAffectPsychophysiology2019,3.0.5,59.91328151687972,
To what extent did the music make you feel ,EXCITED,30MonoWAV/30MonoH2.wav,2,2,1,6,,,,,1,6,22,5,0,10,10,7,,,,,,,,,1,1.035001327007194,,,032,001,2019_May_14_1612,MusicAffectPsychophysiology2019,3.0.5,59.91328151687972,
To what extent did the music make you feel ,ANXIOUS ,30MonoWAV/30MonoH2.wav,2,2,1,6,,,,,1,6,22,5,0,11,11,1,,,,,,,,,1,0.7684748900064733,,,032,001,2019_May_14_1612,MusicAffectPsychophysiology2019,3.0.5,59.91328151687972,
,,30MonoWAV/30MonoH2.wav,2,2,1,6,,,,,1,6,22,5,,,,,,,,,,,,,,,,,032,001,2019_May_14_1612,MusicAffectPsychophysiology2019,3.0.5,59.91328151687972,
To what extent did the music make you feel ,ANXIOUS ,30MonoWAV/30MonoH3.wav,2,2,1,7,,,,,1,7,23,6,0,0,0,1,,,2,7.533661269000731,3,2.0688432340102736,2,1.8336350330064306,1,1.8698982970090583,,,032,001,2019_May_14_1612,MusicAffectPsychophysiology2019,3.0.5,59.91328151687972,
To what extent did the music make you feel ,ACTIVE,30MonoWAV/30MonoH3.wav,2,2,1,7,,,,,1,7,23,6,0,1,1,9,,,,,,,,,2,0.9355883109965362,,,032,001,2019_May_14_1612,MusicAffectPsychophysiology2019,3.0.5,59.91328151687972,
To what extent did the music make you feel ,TENDER,30MonoWAV/30MonoH3.wav,2,2,1,7,,,,,1,7,23,6,0,2,2,10,,,,,,,,,1,0.9863362180039985,,,032,001,2019_May_14_1612,MusicAffectPsychophysiology2019,3.0.5,59.91328151687972,
To what extent did the music make you feel ,HAPPY,30MonoWAV/30MonoH3.wav,2,2,1,7,,,,,1,7,23,6,0,3,3,6,,,,,,,,,2,2.468480288007413,,,032,001,2019_May_14_1612,MusicAffectPsychophysiology2019,3.0.5,59.91328151687972,
To what extent did the music make you feel ,ALERT,30MonoWAV/30MonoH3.wav,2,2,1,7,,,,,1,7,23,6,0,4,4,8,,,,,,,,,1,1.0843506419914775,,,032,001,2019_May_14_1612,MusicAffectPsychophysiology2019,3.0.5,59.91328151687972,
To what extent did the music make you feel ,FRUSTRATED,30MonoWAV/30MonoH3.wav,2,2,1,7,,,,,1,7,23,6,0,5,5,3,,,,,,,,,1,0.8018055530119454,,,032,001,2019_May_14_1612,MusicAffectPsychophysiology2019,3.0.5,59.91328151687972,
To what extent did the music make you feel ,EXCITED,30MonoWAV/30MonoH3.wav,2,2,1,7,,,,,1,7,23,6,0,6,6,7,,,,,,,,,1,0.8850094630033709,,,032,001,2019_May_14_1612,MusicAffectPsychophysiology2019,3.0.5,59.91328151687972,
To what extent did the music make you feel ,GUILTY,30MonoWAV/30MonoH3.wav,2,2,1,7,,,,,1,7,23,6,0,7,7,5,,,,,,,,,1,2.3361462670000037,,,032,001,2019_May_14_1612,MusicAffectPsychophysiology2019,3.0.5,59.91328151687972,
To what extent did the music make you feel ,SAD,30MonoWAV/30MonoH3.wav,2,2,1,7,,,,,1,7,23,6,0,8,8,0,,,,,,,,,1,1.4189960270014126,,,032,001,2019_May_14_1612,MusicAffectPsychophysiology2019,3.0.5,59.91328151687972,
To what extent did the music make you feel ,ASHAMED,30MonoWAV/30MonoH3.wav,2,2,1,7,,,,,1,7,23,6,0,9,9,4,,,,,,,,,1,0.7684130479901796,,,032,001,2019_May_14_1612,MusicAffectPsychophysiology2019,3.0.5,59.91328151687972,
To what extent did the music make you feel ,SCARED,30MonoWAV/30MonoH3.wav,2,2,1,7,,,,,1,7,23,6,0,10,10,11,,,,,,,,,1,5.668854256000486,,,032,001,2019_May_14_1612,MusicAffectPsychophysiology2019,3.0.5,59.91328151687972,
To what extent did the music make you feel ,ANGRY,30MonoWAV/30MonoH3.wav,2,2,1,7,,,,,1,7,23,6,0,11,11,2,,,,,,,,,1,0.8519760139897699,,,032,001,2019_May_14_1612,MusicAffectPsychophysiology2019,3.0.5,59.91328151687972,
,,30MonoWAV/30MonoH3.wav,2,2,1,7,,,,,1,7,23,6,,,,,,,,,,,,,,,,,032,001,2019_May_14_1612,MusicAffectPsychophysiology2019,3.0.5,59.91328151687972,
To what extent did the music make you feel ,ASHAMED,30MonoWAV/30MonoT1.wav,2,1,4,13,,,,,1,8,24,12,0,0,0,4,,,1,7.067627343989443,2,1.0513499160006177,2,2.135656551006832,1,2.4521638919977704,,,032,001,2019_May_14_1612,MusicAffectPsychophysiology2019,3.0.5,59.91328151687972,
To what extent did the music make you feel ,SCARED,30MonoWAV/30MonoT1.wav,2,1,4,13,,,,,1,8,24,12,0,1,1,11,,,,,,,,,1,0.7848610150103923,,,032,001,2019_May_14_1612,MusicAffectPsychophysiology2019,3.0.5,59.91328151687972,
To what extent did the music make you feel ,ANXIOUS ,30MonoWAV/30MonoT1.wav,2,1,4,13,,,,,1,8,24,12,0,2,2,1,,,,,,,,,1,0.6227699390001362,,,032,001,2019_May_14_1612,MusicAffectPsychophysiology2019,3.0.5,59.91328151687972,
To what extent did the music make you feel ,FRUSTRATED,30MonoWAV/30MonoT1.wav,2,1,4,13,,,,,1,8,24,12,0,3,3,3,,,,,,,,,1,0.6517323900043266,,,032,001,2019_May_14_1612,MusicAffectPsychophysiology2019,3.0.5,59.91328151687972,
To what extent did the music make you feel ,GUILTY,30MonoWAV/30MonoT1.wav,2,1,4,13,,,,,1,8,24,12,0,4,4,5,,,,,,,,,1,0.7028434399981052,,,032,001,2019_May_14_1612,MusicAffectPsychophysiology2019,3.0.5,59.91328151687972,
To what extent did the music make you feel ,EXCITED,30MonoWAV/30MonoT1.wav,2,1,4,13,,,,,1,8,24,12,0,5,5,7,,,,,,,,,1,1.4546115810080664,,,032,001,2019_May_14_1612,MusicAffectPsychophysiology2019,3.0.5,59.91328151687972,
To what extent did the music make you feel ,TENDER,30MonoWAV/30MonoT1.wav,2,1,4,13,,,,,1,8,24,12,0,6,6,10,,,,,,,,,1,0.9698949050070951,,,032,001,2019_May_14_1612,MusicAffectPsychophysiology2019,3.0.5,59.91328151687972,
To what extent did the music make you feel ,ALERT,30MonoWAV/30MonoT1.wav,2,1,4,13,,,,,1,8,24,12,0,7,7,8,,,,,,,,,1,0.6692575210036011,,,032,001,2019_May_14_1612,MusicAffectPsychophysiology2019,3.0.5,59.91328151687972,
To what extent did the music make you feel ,ACTIVE,30MonoWAV/30MonoT1.wav,2,1,4,13,,,,,1,8,24,12,0,8,8,9,,,,,,,,,1,1.1195055639982456,,,032,001,2019_May_14_1612,MusicAffectPsychophysiology2019,3.0.5,59.91328151687972,
To what extent did the music make you feel ,SAD,30MonoWAV/30MonoT1.wav,2,1,4,13,,,,,1,8,24,12,0,9,9,0,,,,,,,,,1,0.4689360280026449,,,032,001,2019_May_14_1612,MusicAffectPsychophysiology2019,3.0.5,59.91328151687972,
To what extent did the music make you feel ,ANGRY,30MonoWAV/30MonoT1.wav,2,1,4,13,,,,,1,8,24,12,0,10,10,2,,,,,,,,,1,1.187322589001269,,,032,001,2019_May_14_1612,MusicAffectPsychophysiology2019,3.0.5,59.91328151687972,
To what extent did the music make you feel ,HAPPY,30MonoWAV/30MonoT1.wav,2,1,4,13,,,,,1,8,24,12,0,11,11,6,,,,,,,,,1,1.471842867002124,,,032,001,2019_May_14_1612,MusicAffectPsychophysiology2019,3.0.5,59.91328151687972,
,,30MonoWAV/30MonoT1.wav,2,1,4,13,,,,,1,8,24,12,,,,,,,,,,,,,,,,,032,001,2019_May_14_1612,MusicAffectPsychophysiology2019,3.0.5,59.91328151687972,
To what extent did the music make you feel ,ASHAMED,30MonoWAV/30MonoT3.wav,2,1,4,15,,,,,1,9,25,14,0,0,0,4,,,1,5.043678722009645,2,1.7035704919981072,2,2.18948837199423,1,2.0855166480032494,,,032,001,2019_May_14_1612,MusicAffectPsychophysiology2019,3.0.5,59.91328151687972,
To what extent did the music make you feel ,TENDER,30MonoWAV/30MonoT3.wav,2,1,4,15,,,,,1,9,25,14,0,1,1,10,,,,,,,,,1,1.335033868002938,,,032,001,2019_May_14_1612,MusicAffectPsychophysiology2019,3.0.5,59.91328151687972,
To what extent did the music make you feel ,EXCITED,30MonoWAV/30MonoT3.wav,2,1,4,15,,,,,1,9,25,14,0,2,2,7,,,,,,,,,1,1.0685625760088442,,,032,001,2019_May_14_1612,MusicAffectPsychophysiology2019,3.0.5,59.91328151687972,
To what extent did the music make you feel ,SCARED,30MonoWAV/30MonoT3.wav,2,1,4,15,,,,,1,9,25,14,0,3,3,11,,,,,,,,,1,0.83509616900119,,,032,001,2019_May_14_1612,MusicAffectPsychophysiology2019,3.0.5,59.91328151687972,
To what extent did the music make you feel ,HAPPY,30MonoWAV/30MonoT3.wav,2,1,4,15,,,,,1,9,25,14,0,4,4,6,,,,,,,,,1,1.6179688049887773,,,032,001,2019_May_14_1612,MusicAffectPsychophysiology2019,3.0.5,59.91328151687972,
To what extent did the music make you feel ,GUILTY,30MonoWAV/30MonoT3.wav,2,1,4,15,,,,,1,9,25,14,0,5,5,5,,,,,,,,,1,0.7692869210004574,,,032,001,2019_May_14_1612,MusicAffectPsychophysiology2019,3.0.5,59.91328151687972,
To what extent did the music make you feel ,FRUSTRATED,30MonoWAV/30MonoT3.wav,2,1,4,15,,,,,1,9,25,14,0,6,6,3,,,,,,,,,1,0.9348462640045909,,,032,001,2019_May_14_1612,MusicAffectPsychophysiology2019,3.0.5,59.91328151687972,
To what extent did the music make you feel ,ACTIVE,30MonoWAV/30MonoT3.wav,2,1,4,15,,,,,1,9,25,14,0,7,7,9,,,,,,,,,1,3.4344310629967367,,,032,001,2019_May_14_1612,MusicAffectPsychophysiology2019,3.0.5,59.91328151687972,
To what extent did the music make you feel ,ANXIOUS ,30MonoWAV/30MonoT3.wav,2,1,4,15,,,,,1,9,25,14,0,8,8,1,,,,,,,,,1,1.0182427269901382,,,032,001,2019_May_14_1612,MusicAffectPsychophysiology2019,3.0.5,59.91328151687972,
To what extent did the music make you feel ,ANGRY,30MonoWAV/30MonoT3.wav,2,1,4,15,,,,,1,9,25,14,0,9,9,2,,,,,,,,,1,0.9688714660005644,,,032,001,2019_May_14_1612,MusicAffectPsychophysiology2019,3.0.5,59.91328151687972,
To what extent did the music make you feel ,SAD,30MonoWAV/30MonoT3.wav,2,1,4,15,,,,,1,9,25,14,0,10,10,0,,,,,,,,,1,1.6180797639972297,,,032,001,2019_May_14_1612,MusicAffectPsychophysiology2019,3.0.5,59.91328151687972,
To what extent did the music make you feel ,ALERT,30MonoWAV/30MonoT3.wav,2,1,4,15,,,,,1,9,25,14,0,11,11,8,,,,,,,,,1,1.5183603790064808,,,032,001,2019_May_14_1612,MusicAffectPsychophysiology2019,3.0.5,59.91328151687972,
,,30MonoWAV/30MonoT3.wav,2,1,4,15,,,,,1,9,25,14,,,,,,,,,,,,,,,,,032,001,2019_May_14_1612,MusicAffectPsychophysiology2019,3.0.5,59.91328151687972,
To what extent did the music make you feel ,SCARED,30MonoWAV/30MonoT2.wav,2,1,4,14,,,,,1,10,26,13,0,0,0,11,,,1,2.8687098160007736,2,1.801482267997926,2,2.435808109003119,1,3.8345462680008495,,,032,001,2019_May_14_1612,MusicAffectPsychophysiology2019,3.0.5,59.91328151687972,
To what extent did the music make you feel ,SAD,30MonoWAV/30MonoT2.wav,2,1,4,14,,,,,1,10,26,13,0,1,1,0,,,,,,,,,1,1.119586718006758,,,032,001,2019_May_14_1612,MusicAffectPsychophysiology2019,3.0.5,59.91328151687972,
To what extent did the music make you feel ,ANGRY,30MonoWAV/30MonoT2.wav,2,1,4,14,,,,,1,10,26,13,0,2,2,2,,,,,,,,,1,0.8684686659980798,,,032,001,2019_May_14_1612,MusicAffectPsychophysiology2019,3.0.5,59.91328151687972,
To what extent did the music make you feel ,ALERT,30MonoWAV/30MonoT2.wav,2,1,4,14,,,,,1,10,26,13,0,3,3,8,,,,,,,,,1,0.7015780930087203,,,032,001,2019_May_14_1612,MusicAffectPsychophysiology2019,3.0.5,59.91328151687972,
To what extent did the music make you feel ,EXCITED,30MonoWAV/30MonoT2.wav,2,1,4,14,,,,,1,10,26,13,0,4,4,7,,,,,,,,,1,0.8355175870092353,,,032,001,2019_May_14_1612,MusicAffectPsychophysiology2019,3.0.5,59.91328151687972,
To what extent did the music make you feel ,HAPPY,30MonoWAV/30MonoT2.wav,2,1,4,14,,,,,1,10,26,13,0,5,5,6,,,,,,,,,1,1.152217335999012,,,032,001,2019_May_14_1612,MusicAffectPsychophysiology2019,3.0.5,59.91328151687972,
To what extent did the music make you feel ,ASHAMED,30MonoWAV/30MonoT2.wav,2,1,4,14,,,,,1,10,26,13,0,6,6,4,,,,,,,,,1,0.7188806810008828,,,032,001,2019_May_14_1612,MusicAffectPsychophysiology2019,3.0.5,59.91328151687972,
To what extent did the music make you feel ,TENDER,30MonoWAV/30MonoT2.wav,2,1,4,14,,,,,1,10,26,13,0,7,7,10,,,,,,,,,1,0.8529461779835401,,,032,001,2019_May_14_1612,MusicAffectPsychophysiology2019,3.0.5,59.91328151687972,
To what extent did the music make you feel ,ACTIVE,30MonoWAV/30MonoT2.wav,2,1,4,14,,,,,1,10,26,13,0,8,8,9,,,,,,,,,1,0.7167211310006678,,,032,001,2019_May_14_1612,MusicAffectPsychophysiology2019,3.0.5,59.91328151687972,
To what extent did the music make you feel ,ANXIOUS ,30MonoWAV/30MonoT2.wav,2,1,4,14,,,,,1,10,26,13,0,9,9,1,,,,,,,,,1,1.6854553039884195,,,032,001,2019_May_14_1612,MusicAffectPsychophysiology2019,3.0.5,59.91328151687972,
To what extent did the music make you feel ,FRUSTRATED,30MonoWAV/30MonoT2.wav,2,1,4,14,,,,,1,10,26,13,0,10,10,3,,,,,,,,,1,0.8335088449821342,,,032,001,2019_May_14_1612,MusicAffectPsychophysiology2019,3.0.5,59.91328151687972,
To what extent did the music make you feel ,GUILTY,30MonoWAV/30MonoT2.wav,2,1,4,14,,,,,1,10,26,13,0,11,11,5,,,,,,,,,1,0.8025024890084751,,,032,001,2019_May_14_1612,MusicAffectPsychophysiology2019,3.0.5,59.91328151687972,
,,30MonoWAV/30MonoT2.wav,2,1,4,14,,,,,1,10,26,13,,,,,,,,,,,,,,,,,032,001,2019_May_14_1612,MusicAffectPsychophysiology2019,3.0.5,59.91328151687972,
To what extent did the music make you feel ,ACTIVE,30MonoWAV/30MonoS4.wav,1,1,3,12,,,,,1,11,27,11,0,0,0,9,,,1,5.668806787987705,1,1.1511400360031985,1,1.5024956559936982,1,1.1500371500151232,,,032,001,2019_May_14_1612,MusicAffectPsychophysiology2019,3.0.5,59.91328151687972,
To what extent did the music make you feel ,EXCITED,30MonoWAV/30MonoS4.wav,1,1,3,12,,,,,1,11,27,11,0,1,1,7,,,,,,,,,1,0.7027571280195843,,,032,001,2019_May_14_1612,MusicAffectPsychophysiology2019,3.0.5,59.91328151687972,
To what extent did the music make you feel ,SAD,30MonoWAV/30MonoS4.wav,1,1,3,12,,,,,1,11,27,11,0,2,2,0,,,,,,,,,1,1.0185132139886264,,,032,001,2019_May_14_1612,MusicAffectPsychophysiology2019,3.0.5,59.91328151687972,
To what extent did the music make you feel ,ANGRY,30MonoWAV/30MonoS4.wav,1,1,3,12,,,,,1,11,27,11,0,3,3,2,,,,,,,,,1,1.768406943010632,,,032,001,2019_May_14_1612,MusicAffectPsychophysiology2019,3.0.5,59.91328151687972,
To what extent did the music make you feel ,GUILTY,30MonoWAV/30MonoS4.wav,1,1,3,12,,,,,1,11,27,11,0,4,4,5,,,,,,,,,1,2.1846858839853667,,,032,001,2019_May_14_1612,MusicAffectPsychophysiology2019,3.0.5,59.91328151687972,
To what extent did the music make you feel ,SCARED,30MonoWAV/30MonoS4.wav,1,1,3,12,,,,,1,11,27,11,0,5,5,11,,,,,,,,,1,4.535031297011301,,,032,001,2019_May_14_1612,MusicAffectPsychophysiology2019,3.0.5,59.91328151687972,
To what extent did the music make you feel ,ANXIOUS ,30MonoWAV/30MonoS4.wav,1,1,3,12,,,,,1,11,27,11,0,6,6,1,,,,,,,,,1,0.9516797789838165,,,032,001,2019_May_14_1612,MusicAffectPsychophysiology2019,3.0.5,59.91328151687972,
To what extent did the music make you feel ,ASHAMED,30MonoWAV/30MonoS4.wav,1,1,3,12,,,,,1,11,27,11,0,7,7,4,,,,,,,,,1,0.7522760220163036,,,032,001,2019_May_14_1612,MusicAffectPsychophysiology2019,3.0.5,59.91328151687972,
To what extent did the music make you feel ,TENDER,30MonoWAV/30MonoS4.wav,1,1,3,12,,,,,1,11,27,11,0,8,8,10,,,,,,,,,1,0.9154065120092127,,,032,001,2019_May_14_1612,MusicAffectPsychophysiology2019,3.0.5,59.91328151687972,
To what extent did the music make you feel ,FRUSTRATED,30MonoWAV/30MonoS4.wav,1,1,3,12,,,,,1,11,27,11,0,9,9,3,,,,,,,,,2,1.6036633179755881,,,032,001,2019_May_14_1612,MusicAffectPsychophysiology2019,3.0.5,59.91328151687972,
To what extent did the music make you feel ,ALERT,30MonoWAV/30MonoS4.wav,1,1,3,12,,,,,1,11,27,11,0,10,10,8,,,,,,,,,1,1.3851430339855142,,,032,001,2019_May_14_1612,MusicAffectPsychophysiology2019,3.0.5,59.91328151687972,
To what extent did the music make you feel ,HAPPY,30MonoWAV/30MonoS4.wav,1,1,3,12,,,,,1,11,27,11,0,11,11,6,,,,,,,,,1,0.9189189299941063,,,032,001,2019_May_14_1612,MusicAffectPsychophysiology2019,3.0.5,59.91328151687972,
,,30MonoWAV/30MonoS4.wav,1,1,3,12,,,,,1,11,27,11,,,,,,,,,,,,,,,,,032,001,2019_May_14_1612,MusicAffectPsychophysiology2019,3.0.5,59.91328151687972,
To what extent did the music make you feel ,GUILTY,30MonoWAV/30MonoS3.wav,1,1,3,11,,,,,1,12,28,10,0,0,0,5,,,1,7.0931919350114185,1,1.2352476329833735,1,1.6190642720030155,1,0.9178831219905987,,,032,001,2019_May_14_1612,MusicAffectPsychophysiology2019,3.0.5,59.91328151687972,
To what extent did the music make you feel ,ANGRY,30MonoWAV/30MonoS3.wav,1,1,3,11,,,,,1,12,28,10,0,1,1,2,,,,,,,,,1,0.6179067769844551,,,032,001,2019_May_14_1612,MusicAffectPsychophysiology2019,3.0.5,59.91328151687972,
To what extent did the music make you feel ,ANXIOUS ,30MonoWAV/30MonoS3.wav,1,1,3,11,,,,,1,12,28,10,0,2,2,1,,,,,,,,,1,0.9688989610003773,,,032,001,2019_May_14_1612,MusicAffectPsychophysiology2019,3.0.5,59.91328151687972,
To what extent did the music make you feel ,FRUSTRATED,30MonoWAV/30MonoS3.wav,1,1,3,11,,,,,1,12,28,10,0,3,3,3,,,,,,,,,1,0.6193733820109628,,,032,001,2019_May_14_1612,MusicAffectPsychophysiology2019,3.0.5,59.91328151687972,
To what extent did the music make you feel ,EXCITED,30MonoWAV/30MonoS3.wav,1,1,3,11,,,,,1,12,28,10,0,4,4,7,,,,,,,,,1,0.7181330609892029,,,032,001,2019_May_14_1612,MusicAffectPsychophysiology2019,3.0.5,59.91328151687972,
To what extent did the music make you feel ,TENDER,30MonoWAV/30MonoS3.wav,1,1,3,11,,,,,1,12,28,10,0,5,5,10,,,,,,,,,1,0.7691205409937538,,,032,001,2019_May_14_1612,MusicAffectPsychophysiology2019,3.0.5,59.91328151687972,
To what extent did the music make you feel ,ASHAMED,30MonoWAV/30MonoS3.wav,1,1,3,11,,,,,1,12,28,10,0,6,6,4,,,,,,,,,1,0.9019071410002653,,,032,001,2019_May_14_1612,MusicAffectPsychophysiology2019,3.0.5,59.91328151687972,
To what extent did the music make you feel ,SAD,30MonoWAV/30MonoS3.wav,1,1,3,11,,,,,1,12,28,10,0,7,7,0,,,,,,,,,1,1.0521110459812917,,,032,001,2019_May_14_1612,MusicAffectPsychophysiology2019,3.0.5,59.91328151687972,
To what extent did the music make you feel ,ACTIVE,30MonoWAV/30MonoS3.wav,1,1,3,11,,,,,1,12,28,10,0,8,8,9,,,,,,,,,1,0.8685527610068675,,,032,001,2019_May_14_1612,MusicAffectPsychophysiology2019,3.0.5,59.91328151687972,
To what extent did the music make you feel ,ALERT,30MonoWAV/30MonoS3.wav,1,1,3,11,,,,,1,12,28,10,0,9,9,8,,,,,,,,,1,0.9687523930042516,,,032,001,2019_May_14_1612,MusicAffectPsychophysiology2019,3.0.5,59.91328151687972,
To what extent did the music make you feel ,SCARED,30MonoWAV/30MonoS3.wav,1,1,3,11,,,,,1,12,28,10,0,10,10,11,,,,,,,,,1,1.1187310130044352,,,032,001,2019_May_14_1612,MusicAffectPsychophysiology2019,3.0.5,59.91328151687972,
To what extent did the music make you feel ,HAPPY,30MonoWAV/30MonoS3.wav,1,1,3,11,,,,,1,12,28,10,0,11,11,6,,,,,,,,,1,1.602390910993563,,,032,001,2019_May_14_1612,MusicAffectPsychophysiology2019,3.0.5,59.91328151687972,
,,30MonoWAV/30MonoS3.wav,1,1,3,11,,,,,1,12,28,10,,,,,,,,,,,,,,,,,032,001,2019_May_14_1612,MusicAffectPsychophysiology2019,3.0.5,59.91328151687972,
To what extent did the music make you feel ,SAD,30MonoWAV/30MonoT4.wav,2,1,4,16,,,,,1,13,29,15,0,0,0,0,,,2,4.0517966719926335,2,2.3832560009905137,2,2.7176292590156663,1,1.1523090609989595,,,032,001,2019_May_14_1612,MusicAffectPsychophysiology2019,3.0.5,59.91328151687972,
To what extent did the music make you feel ,ANXIOUS ,30MonoWAV/30MonoT4.wav,2,1,4,16,,,,,1,13,29,15,0,1,1,1,,,,,,,,,1,0.635514419991523,,,032,001,2019_May_14_1612,MusicAffectPsychophysiology2019,3.0.5,59.91328151687972,
To what extent did the music make you feel ,GUILTY,30MonoWAV/30MonoT4.wav,2,1,4,16,,,,,1,13,29,15,0,2,2,5,,,,,,,,,1,0.5680707470164634,,,032,001,2019_May_14_1612,MusicAffectPsychophysiology2019,3.0.5,59.91328151687972,
To what extent did the music make you feel ,EXCITED,30MonoWAV/30MonoT4.wav,2,1,4,16,,,,,1,13,29,15,0,3,3,7,,,,,,,,,1,1.0687426140066236,,,032,001,2019_May_14_1612,MusicAffectPsychophysiology2019,3.0.5,59.91328151687972,
To what extent did the music make you feel ,TENDER,30MonoWAV/30MonoT4.wav,2,1,4,16,,,,,1,13,29,15,0,4,4,10,,,,,,,,,1,0.7340346160053741,,,032,001,2019_May_14_1612,MusicAffectPsychophysiology2019,3.0.5,59.91328151687972,
To what extent did the music make you feel ,FRUSTRATED,30MonoWAV/30MonoT4.wav,2,1,4,16,,,,,1,13,29,15,0,5,5,3,,,,,,,,,1,0.7518166509980801,,,032,001,2019_May_14_1612,MusicAffectPsychophysiology2019,3.0.5,59.91328151687972,
To what extent did the music make you feel ,ASHAMED,30MonoWAV/30MonoT4.wav,2,1,4,16,,,,,1,13,29,15,0,6,6,4,,,,,,,,,1,1.2514183189778123,,,032,001,2019_May_14_1612,MusicAffectPsychophysiology2019,3.0.5,59.91328151687972,
To what extent did the music make you feel ,ALERT,30MonoWAV/30MonoT4.wav,2,1,4,16,,,,,1,13,29,15,0,7,7,8,,,,,,,,,1,1.1354808179894462,,,032,001,2019_May_14_1612,MusicAffectPsychophysiology2019,3.0.5,59.91328151687972,
To what extent did the music make you feel ,ACTIVE,30MonoWAV/30MonoT4.wav,2,1,4,16,,,,,1,13,29,15,0,8,8,9,,,,,,,,,1,1.1844099179725163,,,032,001,2019_May_14_1612,MusicAffectPsychophysiology2019,3.0.5,59.91328151687972,
To what extent did the music make you feel ,HAPPY,30MonoWAV/30MonoT4.wav,2,1,4,16,,,,,1,13,29,15,0,9,9,6,,,,,,,,,2,0.8494506709976122,,,032,001,2019_May_14_1612,MusicAffectPsychophysiology2019,3.0.5,59.91328151687972,
To what extent did the music make you feel ,ANGRY,30MonoWAV/30MonoT4.wav,2,1,4,16,,,,,1,13,29,15,0,10,10,2,,,,,,,,,1,0.9839622049767058,,,032,001,2019_May_14_1612,MusicAffectPsychophysiology2019,3.0.5,59.91328151687972,
To what extent did the music make you feel ,SCARED,30MonoWAV/30MonoT4.wav,2,1,4,16,,,,,1,13,29,15,0,11,11,11,,,,,,,,,1,0.8510933569923509,,,032,001,2019_May_14_1612,MusicAffectPsychophysiology2019,3.0.5,59.91328151687972,
,,30MonoWAV/30MonoT4.wav,2,1,4,16,,,,,1,13,29,15,,,,,,,,,,,,,,,,,032,001,2019_May_14_1612,MusicAffectPsychophysiology2019,3.0.5,59.91328151687972,
To what extent did the music make you feel ,SCARED,30MonoWAV/30MonoH1.wav,2,2,1,5,,,,,1,14,30,4,0,0,0,11,,,2,5.252141911012586,2,2.452383802999975,2,1.267989880987443,1,3.384783140005311,,,032,001,2019_May_14_1612,MusicAffectPsychophysiology2019,3.0.5,59.91328151687972,
To what extent did the music make you feel ,ANXIOUS ,30MonoWAV/30MonoH1.wav,2,2,1,5,,,,,1,14,30,4,0,1,1,1,,,,,,,,,1,0.700923190015601,,,032,001,2019_May_14_1612,MusicAffectPsychophysiology2019,3.0.5,59.91328151687972,
To what extent did the music make you feel ,FRUSTRATED,30MonoWAV/30MonoH1.wav,2,2,1,5,,,,,1,14,30,4,0,2,2,3,,,,,,,,,1,0.6191988869977649,,,032,001,2019_May_14_1612,MusicAffectPsychophysiology2019,3.0.5,59.91328151687972,
To what extent did the music make you feel ,ANGRY,30MonoWAV/30MonoH1.wav,2,2,1,5,,,,,1,14,30,4,0,3,3,2,,,,,,,,,1,0.6849806630052626,,,032,001,2019_May_14_1612,MusicAffectPsychophysiology2019,3.0.5,59.91328151687972,
To what extent did the music make you feel ,EXCITED,30MonoWAV/30MonoH1.wav,2,2,1,5,,,,,1,14,30,4,0,4,4,7,,,,,,,,,1,3.3859289049869403,,,032,001,2019_May_14_1612,MusicAffectPsychophysiology2019,3.0.5,59.91328151687972,
To what extent did the music make you feel ,ALERT,30MonoWAV/30MonoH1.wav,2,2,1,5,,,,,1,14,30,4,0,5,5,8,,,,,,,,,1,1.0004960740043316,,,032,001,2019_May_14_1612,MusicAffectPsychophysiology2019,3.0.5,59.91328151687972,
To what extent did the music make you feel ,SAD,30MonoWAV/30MonoH1.wav,2,2,1,5,,,,,1,14,30,4,0,6,6,0,,,,,,,,,1,1.818368627980817,,,032,001,2019_May_14_1612,MusicAffectPsychophysiology2019,3.0.5,59.91328151687972,
To what extent did the music make you feel ,GUILTY,30MonoWAV/30MonoH1.wav,2,2,1,5,,,,,1,14,30,4,0,7,7,5,,,,,,,,,1,0.717729224008508,,,032,001,2019_May_14_1612,MusicAffectPsychophysiology2019,3.0.5,59.91328151687972,
To what extent did the music make you feel ,HAPPY,30MonoWAV/30MonoH1.wav,2,2,1,5,,,,,1,14,30,4,0,8,8,6,,,,,,,,,2,1.0026959419774357,,,032,001,2019_May_14_1612,MusicAffectPsychophysiology2019,3.0.5,59.91328151687972,
To what extent did the music make you feel ,TENDER,30MonoWAV/30MonoH1.wav,2,2,1,5,,,,,1,14,30,4,0,9,9,10,,,,,,,,,1,0.768247973988764,,,032,001,2019_May_14_1612,MusicAffectPsychophysiology2019,3.0.5,59.91328151687972,
To what extent did the music make you feel ,ACTIVE,30MonoWAV/30MonoH1.wav,2,2,1,5,,,,,1,14,30,4,0,10,10,9,,,,,,,,,1,1.0194625470030587,,,032,001,2019_May_14_1612,MusicAffectPsychophysiology2019,3.0.5,59.91328151687972,
To what extent did the music make you feel ,ASHAMED,30MonoWAV/30MonoH1.wav,2,2,1,5,,,,,1,14,30,4,0,11,11,4,,,,,,,,,1,2.8863460139837116,,,032,001,2019_May_14_1612,MusicAffectPsychophysiology2019,3.0.5,59.91328151687972,
,,30MonoWAV/30MonoH1.wav,2,2,1,5,,,,,1,14,30,4,,,,,,,,,,,,,,,,,032,001,2019_May_14_1612,MusicAffectPsychophysiology2019,3.0.5,59.91328151687972,
To what extent did the music make you feel ,SAD,30MonoWAV/30MonoF4.wav,1,2,2,4,,,,,1,15,31,3,0,0,0,0,,,2,7.594247402012115,1,1.2875211240025237,1,2.2692298039910384,1,1.2681402969756164,,,032,001,2019_May_14_1612,MusicAffectPsychophysiology2019,3.0.5,59.91328151687972,
To what extent did the music make you feel ,GUILTY,30MonoWAV/30MonoF4.wav,1,2,2,4,,,,,1,15,31,3,0,1,1,5,,,,,,,,,1,0.6850027659966145,,,032,001,2019_May_14_1612,MusicAffectPsychophysiology2019,3.0.5,59.91328151687972,
To what extent did the music make you feel ,SCARED,30MonoWAV/30MonoF4.wav,1,2,2,4,,,,,1,15,31,3,0,2,2,11,,,,,,,,,1,0.618456078984309,,,032,001,2019_May_14_1612,MusicAffectPsychophysiology2019,3.0.5,59.91328151687972,
To what extent did the music make you feel ,FRUSTRATED,30MonoWAV/30MonoF4.wav,1,2,2,4,,,,,1,15,31,3,0,3,3,3,,,,,,,,,1,1.452203736989759,,,032,001,2019_May_14_1612,MusicAffectPsychophysiology2019,3.0.5,59.91328151687972,
To what extent did the music make you feel ,ALERT,30MonoWAV/30MonoF4.wav,1,2,2,4,,,,,1,15,31,3,0,4,4,8,,,,,,,,,2,1.285630308004329,,,032,001,2019_May_14_1612,MusicAffectPsychophysiology2019,3.0.5,59.91328151687972,
To what extent did the music make you feel ,TENDER,30MonoWAV/30MonoF4.wav,1,2,2,4,,,,,1,15,31,3,0,5,5,10,,,,,,,,,1,0.8186476780101657,,,032,001,2019_May_14_1612,MusicAffectPsychophysiology2019,3.0.5,59.91328151687972,
To what extent did the music make you feel ,ASHAMED,30MonoWAV/30MonoF4.wav,1,2,2,4,,,,,1,15,31,3,0,6,6,4,,,,,,,,,1,2.169000806985423,,,032,001,2019_May_14_1612,MusicAffectPsychophysiology2019,3.0.5,59.91328151687972,
To what extent did the music make you feel ,ACTIVE,30MonoWAV/30MonoF4.wav,1,2,2,4,,,,,1,15,31,3,0,7,7,9,,,,,,,,,1,1.7852369740139693,,,032,001,2019_May_14_1612,MusicAffectPsychophysiology2019,3.0.5,59.91328151687972,
To what extent did the music make you feel ,HAPPY,30MonoWAV/30MonoF4.wav,1,2,2,4,,,,,1,15,31,3,0,8,8,6,,,,,,,,,1,1.3523015600221697,,,032,001,2019_May_14_1612,MusicAffectPsychophysiology2019,3.0.5,59.91328151687972,
To what extent did the music make you feel ,EXCITED,30MonoWAV/30MonoF4.wav,1,2,2,4,,,,,1,15,31,3,0,9,9,7,,,,,,,,,1,0.8687207619950641,,,032,001,2019_May_14_1612,MusicAffectPsychophysiology2019,3.0.5,59.91328151687972,
To what extent did the music make you feel ,ANGRY,30MonoWAV/30MonoF4.wav,1,2,2,4,,,,,1,15,31,3,0,10,10,2,,,,,,,,,1,2.690097163984319,,,032,001,2019_May_14_1612,MusicAffectPsychophysiology2019,3.0.5,59.91328151687972,
To what extent did the music make you feel ,ANXIOUS ,30MonoWAV/30MonoF4.wav,1,2,2,4,,,,,1,15,31,3,0,11,11,1,,,,,,,,,1,1.1529219030053355,,,032,001,2019_May_14_1612,MusicAffectPsychophysiology2019,3.0.5,59.91328151687972,
,,30MonoWAV/30MonoF4.wav,1,2,2,4,,,,,1,15,31,3,,,,,,,,,,,,,,,,,032,001,2019_May_14_1612,MusicAffectPsychophysiology2019,3.0.5,59.91328151687972,
,,,,,,,,,,,,,,,,,,,,,,,,,,,,,space,7.802064910007175,032,001,2019_May_14_1612,MusicAffectPsychophysiology2019,3.0.5,59.91328151687972,
