Instruction,Word,song,valence,arousal,affectcat,songmark,pracwords.thisRepN,pracwords.thisTrialN,pracwords.thisN,pracwords.thisIndex,songtrials.thisRepN,songtrials.thisTrialN,songtrials.thisN,songtrials.thisIndex,words.thisRepN,words.thisTrialN,words.thisN,words.thisIndex,begin.keys,begin.rt,arousalkey.keys,arousalkey.rt,valencekey.keys,valencekey.rt,likekey.keys,likekey.rt,WordResponse.keys,WordResponse.rt,participant,session,date,expName,psychopyVersion,frameRate,
,,,,,,,,,,,,,,,,,,,space,89.36718944099266,,,,,,,,,033,001,2019_May_15_1311,MusicAffectPsychophysiology2019,3.0.5,59.99073887488148,
,,,,,,,,,,,,,,,,,,,,,3,6.833673593006097,,,,,,,033,001,2019_May_15_1311,MusicAffectPsychophysiology2019,3.0.5,59.99073887488148,
,,,,,,,,,,,,,,,,,,,,,,,3,2.518938363005873,,,,,033,001,2019_May_15_1311,MusicAffectPsychophysiology2019,3.0.5,59.99073887488148,
,,,,,,,,,,,,,,,,,,,,,,,,,3,1.8514274289773311,,,033,001,2019_May_15_1311,MusicAffectPsychophysiology2019,3.0.5,59.99073887488148,
To what extent did the music make you feel ,HAPPY,,,,,,0,0,0,6,,,,,,,,,,,,,,,,,3,7.324302719993284,033,001,2019_May_15_1311,MusicAffectPsychophysiology2019,3.0.5,59.99073887488148,
To what extent did the music make you feel ,ANXIOUS ,,,,,,0,1,1,1,,,,,,,,,,,,,,,,,1,2.6524085519777145,033,001,2019_May_15_1311,MusicAffectPsychophysiology2019,3.0.5,59.99073887488148,
To what extent did the music make you feel ,FRUSTRATED,,,,,,0,2,2,3,,,,,,,,,,,,,,,,,1,1.0846044140052982,033,001,2019_May_15_1311,MusicAffectPsychophysiology2019,3.0.5,59.99073887488148,
To what extent did the music make you feel ,ACTIVE,,,,,,0,3,3,9,,,,,,,,,,,,,,,,,1,2.618785405997187,033,001,2019_May_15_1311,MusicAffectPsychophysiology2019,3.0.5,59.99073887488148,
To what extent did the music make you feel ,ALERT,,,,,,0,4,4,8,,,,,,,,,,,,,,,,,2,2.868262266012607,033,001,2019_May_15_1311,MusicAffectPsychophysiology2019,3.0.5,59.99073887488148,
To what extent did the music make you feel ,EXCITED,,,,,,0,5,5,7,,,,,,,,,,,,,,,,,3,1.5331443359900732,033,001,2019_May_15_1311,MusicAffectPsychophysiology2019,3.0.5,59.99073887488148,
To what extent did the music make you feel ,TENDER,,,,,,0,6,6,10,,,,,,,,,,,,,,,,,3,1.3188519869872835,033,001,2019_May_15_1311,MusicAffectPsychophysiology2019,3.0.5,59.99073887488148,
To what extent did the music make you feel ,GUILTY,,,,,,0,7,7,5,,,,,,,,,,,,,,,,,1,1.852378754003439,033,001,2019_May_15_1311,MusicAffectPsychophysiology2019,3.0.5,59.99073887488148,
To what extent did the music make you feel ,SAD,,,,,,0,8,8,0,,,,,,,,,,,,,,,,,2,4.366097174992319,033,001,2019_May_15_1311,MusicAffectPsychophysiology2019,3.0.5,59.99073887488148,
To what extent did the music make you feel ,ASHAMED,,,,,,0,9,9,4,,,,,,,,,,,,,,,,,1,1.9847707619774155,033,001,2019_May_15_1311,MusicAffectPsychophysiology2019,3.0.5,59.99073887488148,
To what extent did the music make you feel ,SCARED,,,,,,0,10,10,11,,,,,,,,,,,,,,,,,1,0.8346454889979213,033,001,2019_May_15_1311,MusicAffectPsychophysiology2019,3.0.5,59.99073887488148,
To what extent did the music make you feel ,ANGRY,,,,,,0,11,11,2,,,,,,,,,,,,,,,,,1,1.8018226209969725,033,001,2019_May_15_1311,MusicAffectPsychophysiology2019,3.0.5,59.99073887488148,
To what extent did the music make you feel ,ANGRY,30MonoWAV/30MonoT1.wav,2,1,4,13,,,,,0,0,0,12,0,0,0,2,,,1,4.191864224005258,2,2.2687367030011956,3,1.8352035520074423,1,1.3186885640025139,033,001,2019_May_15_1311,MusicAffectPsychophysiology2019,3.0.5,59.99073887488148,
To what extent did the music make you feel ,SCARED,30MonoWAV/30MonoT1.wav,2,1,4,13,,,,,0,0,0,12,0,1,1,11,,,,,,,,,1,1.2189618829870597,033,001,2019_May_15_1311,MusicAffectPsychophysiology2019,3.0.5,59.99073887488148,
To what extent did the music make you feel ,FRUSTRATED,30MonoWAV/30MonoT1.wav,2,1,4,13,,,,,0,0,0,12,0,2,2,3,,,,,,,,,1,0.6355404770001769,033,001,2019_May_15_1311,MusicAffectPsychophysiology2019,3.0.5,59.99073887488148,
To what extent did the music make you feel ,GUILTY,30MonoWAV/30MonoT1.wav,2,1,4,13,,,,,0,0,0,12,0,3,3,5,,,,,,,,,1,0.8687205750029534,033,001,2019_May_15_1311,MusicAffectPsychophysiology2019,3.0.5,59.99073887488148,
To what extent did the music make you feel ,ASHAMED,30MonoWAV/30MonoT1.wav,2,1,4,13,,,,,0,0,0,12,0,4,4,4,,,,,,,,,1,0.6350860659731552,033,001,2019_May_15_1311,MusicAffectPsychophysiology2019,3.0.5,59.99073887488148,
To what extent did the music make you feel ,HAPPY,30MonoWAV/30MonoT1.wav,2,1,4,13,,,,,0,0,0,12,0,5,5,6,,,,,,,,,1,2.783979920001002,033,001,2019_May_15_1311,MusicAffectPsychophysiology2019,3.0.5,59.99073887488148,
To what extent did the music make you feel ,TENDER,30MonoWAV/30MonoT1.wav,2,1,4,13,,,,,0,0,0,12,0,6,6,10,,,,,,,,,3,1.4339011539996136,033,001,2019_May_15_1311,MusicAffectPsychophysiology2019,3.0.5,59.99073887488148,
To what extent did the music make you feel ,EXCITED,30MonoWAV/30MonoT1.wav,2,1,4,13,,,,,0,0,0,12,0,7,7,7,,,,,,,,,1,1.9008232620253693,033,001,2019_May_15_1311,MusicAffectPsychophysiology2019,3.0.5,59.99073887488148,
To what extent did the music make you feel ,SAD,30MonoWAV/30MonoT1.wav,2,1,4,13,,,,,0,0,0,12,0,8,8,0,,,,,,,,,3,3.3864525299868546,033,001,2019_May_15_1311,MusicAffectPsychophysiology2019,3.0.5,59.99073887488148,
To what extent did the music make you feel ,ACTIVE,30MonoWAV/30MonoT1.wav,2,1,4,13,,,,,0,0,0,12,0,9,9,9,,,,,,,,,1,2.284621346014319,033,001,2019_May_15_1311,MusicAffectPsychophysiology2019,3.0.5,59.99073887488148,
To what extent did the music make you feel ,ANXIOUS ,30MonoWAV/30MonoT1.wav,2,1,4,13,,,,,0,0,0,12,0,10,10,1,,,,,,,,,1,1.168168522999622,033,001,2019_May_15_1311,MusicAffectPsychophysiology2019,3.0.5,59.99073887488148,
To what extent did the music make you feel ,ALERT,30MonoWAV/30MonoT1.wav,2,1,4,13,,,,,0,0,0,12,0,11,11,8,,,,,,,,,1,0.8677684490103275,033,001,2019_May_15_1311,MusicAffectPsychophysiology2019,3.0.5,59.99073887488148,
,,30MonoWAV/30MonoT1.wav,2,1,4,13,,,,,0,0,0,12,,,,,,,,,,,,,,,033,001,2019_May_15_1311,MusicAffectPsychophysiology2019,3.0.5,59.99073887488148,
To what extent did the music make you feel ,ANXIOUS ,30MonoWAV/30MonoF2.wav,1,2,2,2,,,,,0,1,1,1,0,0,0,1,,,1,3.8019988629966974,1,1.1339865689806174,1,1.8845883480098564,4,2.8854695209884085,033,001,2019_May_15_1311,MusicAffectPsychophysiology2019,3.0.5,59.99073887488148,
To what extent did the music make you feel ,SCARED,30MonoWAV/30MonoF2.wav,1,2,2,2,,,,,0,1,1,1,0,1,1,11,,,,,,,,,4,1.0849900500033982,033,001,2019_May_15_1311,MusicAffectPsychophysiology2019,3.0.5,59.99073887488148,
To what extent did the music make you feel ,HAPPY,30MonoWAV/30MonoF2.wav,1,2,2,2,,,,,0,1,1,1,0,2,2,6,,,,,,,,,1,1.5354108169849496,033,001,2019_May_15_1311,MusicAffectPsychophysiology2019,3.0.5,59.99073887488148,
To what extent did the music make you feel ,TENDER,30MonoWAV/30MonoF2.wav,1,2,2,2,,,,,0,1,1,1,0,3,3,10,,,,,,,,,1,1.1832238200004213,033,001,2019_May_15_1311,MusicAffectPsychophysiology2019,3.0.5,59.99073887488148,
To what extent did the music make you feel ,ANGRY,30MonoWAV/30MonoF2.wav,1,2,2,2,,,,,0,1,1,1,0,4,4,2,,,,,,,,,1,1.0839869719929993,033,001,2019_May_15_1311,MusicAffectPsychophysiology2019,3.0.5,59.99073887488148,
To what extent did the music make you feel ,FRUSTRATED,30MonoWAV/30MonoF2.wav,1,2,2,2,,,,,0,1,1,1,0,5,5,3,,,,,,,,,1,0.6687895040086005,033,001,2019_May_15_1311,MusicAffectPsychophysiology2019,3.0.5,59.99073887488148,
To what extent did the music make you feel ,ALERT,30MonoWAV/30MonoF2.wav,1,2,2,2,,,,,0,1,1,1,0,6,6,8,,,,,,,,,3,2.268198895995738,033,001,2019_May_15_1311,MusicAffectPsychophysiology2019,3.0.5,59.99073887488148,
To what extent did the music make you feel ,SAD,30MonoWAV/30MonoF2.wav,1,2,2,2,,,,,0,1,1,1,0,7,7,0,,,,,,,,,1,1.9850693859916646,033,001,2019_May_15_1311,MusicAffectPsychophysiology2019,3.0.5,59.99073887488148,
To what extent did the music make you feel ,ASHAMED,30MonoWAV/30MonoF2.wav,1,2,2,2,,,,,0,1,1,1,0,8,8,4,,,,,,,,,1,0.7187005680170842,033,001,2019_May_15_1311,MusicAffectPsychophysiology2019,3.0.5,59.99073887488148,
To what extent did the music make you feel ,GUILTY,30MonoWAV/30MonoF2.wav,1,2,2,2,,,,,0,1,1,1,0,9,9,5,,,,,,,,,1,0.6848895639996044,033,001,2019_May_15_1311,MusicAffectPsychophysiology2019,3.0.5,59.99073887488148,
To what extent did the music make you feel ,ACTIVE,30MonoWAV/30MonoF2.wav,1,2,2,2,,,,,0,1,1,1,0,10,10,9,,,,,,,,,1,1.0676305000088178,033,001,2019_May_15_1311,MusicAffectPsychophysiology2019,3.0.5,59.99073887488148,
To what extent did the music make you feel ,EXCITED,30MonoWAV/30MonoF2.wav,1,2,2,2,,,,,0,1,1,1,0,11,11,7,,,,,,,,,1,2.7178866360045504,033,001,2019_May_15_1311,MusicAffectPsychophysiology2019,3.0.5,59.99073887488148,
,,30MonoWAV/30MonoF2.wav,1,2,2,2,,,,,0,1,1,1,,,,,,,,,,,,,,,033,001,2019_May_15_1311,MusicAffectPsychophysiology2019,3.0.5,59.99073887488148,
To what extent did the music make you feel ,ANGRY,30MonoWAV/30MonoS2.wav,1,1,3,10,,,,,0,2,2,9,0,0,0,2,,,1,1.9187244880013168,1,2.452126472024247,2,2.701566644012928,1,2.200504740991164,033,001,2019_May_15_1311,MusicAffectPsychophysiology2019,3.0.5,59.99073887488148,
To what extent did the music make you feel ,SCARED,30MonoWAV/30MonoS2.wav,1,1,3,10,,,,,0,2,2,9,0,1,1,11,,,,,,,,,2,3.184944923996227,033,001,2019_May_15_1311,MusicAffectPsychophysiology2019,3.0.5,59.99073887488148,
To what extent did the music make you feel ,ASHAMED,30MonoWAV/30MonoS2.wav,1,1,3,10,,,,,0,2,2,9,0,2,2,4,,,,,,,,,1,0.7674612219852861,033,001,2019_May_15_1311,MusicAffectPsychophysiology2019,3.0.5,59.99073887488148,
To what extent did the music make you feel ,TENDER,30MonoWAV/30MonoS2.wav,1,1,3,10,,,,,0,2,2,9,0,3,3,10,,,,,,,,,1,1.151813187985681,033,001,2019_May_15_1311,MusicAffectPsychophysiology2019,3.0.5,59.99073887488148,
To what extent did the music make you feel ,HAPPY,30MonoWAV/30MonoS2.wav,1,1,3,10,,,,,0,2,2,9,0,4,4,6,,,,,,,,,1,0.8350705539924093,033,001,2019_May_15_1311,MusicAffectPsychophysiology2019,3.0.5,59.99073887488148,
To what extent did the music make you feel ,EXCITED,30MonoWAV/30MonoS2.wav,1,1,3,10,,,,,0,2,2,9,0,5,5,7,,,,,,,,,1,0.5193483530019876,033,001,2019_May_15_1311,MusicAffectPsychophysiology2019,3.0.5,59.99073887488148,
To what extent did the music make you feel ,FRUSTRATED,30MonoWAV/30MonoS2.wav,1,1,3,10,,,,,0,2,2,9,0,6,6,3,,,,,,,,,1,0.7511102609860245,033,001,2019_May_15_1311,MusicAffectPsychophysiology2019,3.0.5,59.99073887488148,
To what extent did the music make you feel ,GUILTY,30MonoWAV/30MonoS2.wav,1,1,3,10,,,,,0,2,2,9,0,7,7,5,,,,,,,,,1,0.45177388601587154,033,001,2019_May_15_1311,MusicAffectPsychophysiology2019,3.0.5,59.99073887488148,
To what extent did the music make you feel ,ANXIOUS ,30MonoWAV/30MonoS2.wav,1,1,3,10,,,,,0,2,2,9,0,8,8,1,,,,,,,,,1,4.319921735994285,033,001,2019_May_15_1311,MusicAffectPsychophysiology2019,3.0.5,59.99073887488148,
To what extent did the music make you feel ,ACTIVE,30MonoWAV/30MonoS2.wav,1,1,3,10,,,,,0,2,2,9,0,9,9,9,,,,,,,,,1,0.6675325329997577,033,001,2019_May_15_1311,MusicAffectPsychophysiology2019,3.0.5,59.99073887488148,
To what extent did the music make you feel ,ALERT,30MonoWAV/30MonoS2.wav,1,1,3,10,,,,,0,2,2,9,0,10,10,8,,,,,,,,,1,1.6685612409783062,033,001,2019_May_15_1311,MusicAffectPsychophysiology2019,3.0.5,59.99073887488148,
To what extent did the music make you feel ,SAD,30MonoWAV/30MonoS2.wav,1,1,3,10,,,,,0,2,2,9,0,11,11,0,,,,,,,,,3,1.8343496449815575,033,001,2019_May_15_1311,MusicAffectPsychophysiology2019,3.0.5,59.99073887488148,
,,30MonoWAV/30MonoS2.wav,1,1,3,10,,,,,0,2,2,9,,,,,,,,,,,,,,,033,001,2019_May_15_1311,MusicAffectPsychophysiology2019,3.0.5,59.99073887488148,
To what extent did the music make you feel ,ACTIVE,30MonoWAV/30MonoS4.wav,1,1,3,12,,,,,0,3,3,11,0,0,0,9,,,1,2.4355346340162214,1,1.084991996991448,1,2.269039394974243,1,1.918166745977942,033,001,2019_May_15_1311,MusicAffectPsychophysiology2019,3.0.5,59.99073887488148,
To what extent did the music make you feel ,SCARED,30MonoWAV/30MonoS4.wav,1,1,3,12,,,,,0,3,3,11,0,1,1,11,,,,,,,,,1,3.500413820001995,033,001,2019_May_15_1311,MusicAffectPsychophysiology2019,3.0.5,59.99073887488148,
To what extent did the music make you feel ,EXCITED,30MonoWAV/30MonoS4.wav,1,1,3,12,,,,,0,3,3,11,0,2,2,7,,,,,,,,,1,0.8363827769935597,033,001,2019_May_15_1311,MusicAffectPsychophysiology2019,3.0.5,59.99073887488148,
To what extent did the music make you feel ,ALERT,30MonoWAV/30MonoS4.wav,1,1,3,12,,,,,0,3,3,11,0,3,3,8,,,,,,,,,1,1.2504006170202047,033,001,2019_May_15_1311,MusicAffectPsychophysiology2019,3.0.5,59.99073887488148,
To what extent did the music make you feel ,FRUSTRATED,30MonoWAV/30MonoS4.wav,1,1,3,12,,,,,0,3,3,11,0,4,4,3,,,,,,,,,1,0.7188202989927959,033,001,2019_May_15_1311,MusicAffectPsychophysiology2019,3.0.5,59.99073887488148,
To what extent did the music make you feel ,ANXIOUS ,30MonoWAV/30MonoS4.wav,1,1,3,12,,,,,0,3,3,11,0,5,5,1,,,,,,,,,1,0.3510305160016287,033,001,2019_May_15_1311,MusicAffectPsychophysiology2019,3.0.5,59.99073887488148,
To what extent did the music make you feel ,ANGRY,30MonoWAV/30MonoS4.wav,1,1,3,12,,,,,0,3,3,11,0,6,6,2,,,,,,,,,1,1.2346708460245281,033,001,2019_May_15_1311,MusicAffectPsychophysiology2019,3.0.5,59.99073887488148,
To what extent did the music make you feel ,SAD,30MonoWAV/30MonoS4.wav,1,1,3,12,,,,,0,3,3,11,0,7,7,0,,,,,,,,,3,1.8341245040064678,033,001,2019_May_15_1311,MusicAffectPsychophysiology2019,3.0.5,59.99073887488148,
To what extent did the music make you feel ,HAPPY,30MonoWAV/30MonoS4.wav,1,1,3,12,,,,,0,3,3,11,0,8,8,6,,,,,,,,,1,1.1847146929940209,033,001,2019_May_15_1311,MusicAffectPsychophysiology2019,3.0.5,59.99073887488148,
To what extent did the music make you feel ,ASHAMED,30MonoWAV/30MonoS4.wav,1,1,3,12,,,,,0,3,3,11,0,9,9,4,,,,,,,,,1,1.0347947370028123,033,001,2019_May_15_1311,MusicAffectPsychophysiology2019,3.0.5,59.99073887488148,
To what extent did the music make you feel ,GUILTY,30MonoWAV/30MonoS4.wav,1,1,3,12,,,,,0,3,3,11,0,10,10,5,,,,,,,,,1,0.7849446019972675,033,001,2019_May_15_1311,MusicAffectPsychophysiology2019,3.0.5,59.99073887488148,
To what extent did the music make you feel ,TENDER,30MonoWAV/30MonoS4.wav,1,1,3,12,,,,,0,3,3,11,0,11,11,10,,,,,,,,,3,2.0341642000130378,033,001,2019_May_15_1311,MusicAffectPsychophysiology2019,3.0.5,59.99073887488148,
,,30MonoWAV/30MonoS4.wav,1,1,3,12,,,,,0,3,3,11,,,,,,,,,,,,,,,033,001,2019_May_15_1311,MusicAffectPsychophysiology2019,3.0.5,59.99073887488148,
To what extent did the music make you feel ,EXCITED,30MonoWAV/30MonoH1.wav,2,2,1,5,,,,,0,4,4,4,0,0,0,7,,,2,3.1732602860138286,3,1.7689078849798534,2,1.820210246980423,3,1.7707722839841153,033,001,2019_May_15_1311,MusicAffectPsychophysiology2019,3.0.5,59.99073887488148,
To what extent did the music make you feel ,FRUSTRATED,30MonoWAV/30MonoH1.wav,2,2,1,5,,,,,0,4,4,4,0,1,1,3,,,,,,,,,1,1.2239430799963884,033,001,2019_May_15_1311,MusicAffectPsychophysiology2019,3.0.5,59.99073887488148,
To what extent did the music make you feel ,TENDER,30MonoWAV/30MonoH1.wav,2,2,1,5,,,,,0,4,4,4,0,2,2,10,,,,,,,,,1,1.068586793000577,033,001,2019_May_15_1311,MusicAffectPsychophysiology2019,3.0.5,59.99073887488148,
To what extent did the music make you feel ,HAPPY,30MonoWAV/30MonoH1.wav,2,2,1,5,,,,,0,4,4,4,0,3,3,6,,,,,,,,,3,1.2999274070025422,033,001,2019_May_15_1311,MusicAffectPsychophysiology2019,3.0.5,59.99073887488148,
To what extent did the music make you feel ,ANGRY,30MonoWAV/30MonoH1.wav,2,2,1,5,,,,,0,4,4,4,0,4,4,2,,,,,,,,,1,1.8346015620045364,033,001,2019_May_15_1311,MusicAffectPsychophysiology2019,3.0.5,59.99073887488148,
To what extent did the music make you feel ,ACTIVE,30MonoWAV/30MonoH1.wav,2,2,1,5,,,,,0,4,4,4,0,5,5,9,,,,,,,,,3,1.5185941740055569,033,001,2019_May_15_1311,MusicAffectPsychophysiology2019,3.0.5,59.99073887488148,
To what extent did the music make you feel ,ANXIOUS ,30MonoWAV/30MonoH1.wav,2,2,1,5,,,,,0,4,4,4,0,6,6,1,,,,,,,,,1,2.218466723978054,033,001,2019_May_15_1311,MusicAffectPsychophysiology2019,3.0.5,59.99073887488148,
To what extent did the music make you feel ,ALERT,30MonoWAV/30MonoH1.wav,2,2,1,5,,,,,0,4,4,4,0,7,7,8,,,,,,,,,1,2.201990792003926,033,001,2019_May_15_1311,MusicAffectPsychophysiology2019,3.0.5,59.99073887488148,
To what extent did the music make you feel ,SAD,30MonoWAV/30MonoH1.wav,2,2,1,5,,,,,0,4,4,4,0,8,8,0,,,,,,,,,1,0.9517512010061182,033,001,2019_May_15_1311,MusicAffectPsychophysiology2019,3.0.5,59.99073887488148,
To what extent did the music make you feel ,ASHAMED,30MonoWAV/30MonoH1.wav,2,2,1,5,,,,,0,4,4,4,0,9,9,4,,,,,,,,,1,0.7500105059880298,033,001,2019_May_15_1311,MusicAffectPsychophysiology2019,3.0.5,59.99073887488148,
To what extent did the music make you feel ,SCARED,30MonoWAV/30MonoH1.wav,2,2,1,5,,,,,0,4,4,4,0,10,10,11,,,,,,,,,1,1.7183686429925729,033,001,2019_May_15_1311,MusicAffectPsychophysiology2019,3.0.5,59.99073887488148,
To what extent did the music make you feel ,GUILTY,30MonoWAV/30MonoH1.wav,2,2,1,5,,,,,0,4,4,4,0,11,11,5,,,,,,,,,1,0.6685979609901551,033,001,2019_May_15_1311,MusicAffectPsychophysiology2019,3.0.5,59.99073887488148,
,,30MonoWAV/30MonoH1.wav,2,2,1,5,,,,,0,4,4,4,,,,,,,,,,,,,,,033,001,2019_May_15_1311,MusicAffectPsychophysiology2019,3.0.5,59.99073887488148,
To what extent did the music make you feel ,ACTIVE,30MonoWAV/30MonoF1.wav,1,2,2,1,,,,,0,5,5,0,0,0,0,9,,,2,2.4852539359999355,1,1.2348530600138474,1,1.8503867080144119,3,1.385527673002798,033,001,2019_May_15_1311,MusicAffectPsychophysiology2019,3.0.5,59.99073887488148,
To what extent did the music make you feel ,HAPPY,30MonoWAV/30MonoF1.wav,1,2,2,1,,,,,0,5,5,0,0,1,1,6,,,,,,,,,1,2.0024648570106365,033,001,2019_May_15_1311,MusicAffectPsychophysiology2019,3.0.5,59.99073887488148,
To what extent did the music make you feel ,SCARED,30MonoWAV/30MonoF1.wav,1,2,2,1,,,,,0,5,5,0,0,2,2,11,,,,,,,,,2,2.083531148993643,033,001,2019_May_15_1311,MusicAffectPsychophysiology2019,3.0.5,59.99073887488148,
To what extent did the music make you feel ,TENDER,30MonoWAV/30MonoF1.wav,1,2,2,1,,,,,0,5,5,0,0,3,3,10,,,,,,,,,1,2.3693939659860916,033,001,2019_May_15_1311,MusicAffectPsychophysiology2019,3.0.5,59.99073887488148,
To what extent did the music make you feel ,ANGRY,30MonoWAV/30MonoF1.wav,1,2,2,1,,,,,0,5,5,0,0,4,4,2,,,,,,,,,1,1.1677196040109266,033,001,2019_May_15_1311,MusicAffectPsychophysiology2019,3.0.5,59.99073887488148,
To what extent did the music make you feel ,ASHAMED,30MonoWAV/30MonoF1.wav,1,2,2,1,,,,,0,5,5,0,0,5,5,4,,,,,,,,,1,0.9683012460009195,033,001,2019_May_15_1311,MusicAffectPsychophysiology2019,3.0.5,59.99073887488148,
To what extent did the music make you feel ,FRUSTRATED,30MonoWAV/30MonoF1.wav,1,2,2,1,,,,,0,5,5,0,0,6,6,3,,,,,,,,,1,0.7670521610125434,033,001,2019_May_15_1311,MusicAffectPsychophysiology2019,3.0.5,59.99073887488148,
To what extent did the music make you feel ,ALERT,30MonoWAV/30MonoF1.wav,1,2,2,1,,,,,0,5,5,0,0,7,7,8,,,,,,,,,3,2.0858033080003224,033,001,2019_May_15_1311,MusicAffectPsychophysiology2019,3.0.5,59.99073887488148,
To what extent did the music make you feel ,SAD,30MonoWAV/30MonoF1.wav,1,2,2,1,,,,,0,5,5,0,0,8,8,0,,,,,,,,,1,2.2348442089860328,033,001,2019_May_15_1311,MusicAffectPsychophysiology2019,3.0.5,59.99073887488148,
To what extent did the music make you feel ,ANXIOUS ,30MonoWAV/30MonoF1.wav,1,2,2,1,,,,,0,5,5,0,0,9,9,1,,,,,,,,,2,1.535743401007494,033,001,2019_May_15_1311,MusicAffectPsychophysiology2019,3.0.5,59.99073887488148,
To what extent did the music make you feel ,GUILTY,30MonoWAV/30MonoF1.wav,1,2,2,1,,,,,0,5,5,0,0,10,10,5,,,,,,,,,1,0.9188986569934059,033,001,2019_May_15_1311,MusicAffectPsychophysiology2019,3.0.5,59.99073887488148,
To what extent did the music make you feel ,EXCITED,30MonoWAV/30MonoF1.wav,1,2,2,1,,,,,0,5,5,0,0,11,11,7,,,,,,,,,1,1.781258215982234,033,001,2019_May_15_1311,MusicAffectPsychophysiology2019,3.0.5,59.99073887488148,
,,30MonoWAV/30MonoF1.wav,1,2,2,1,,,,,0,5,5,0,,,,,,,,,,,,,,,033,001,2019_May_15_1311,MusicAffectPsychophysiology2019,3.0.5,59.99073887488148,
To what extent did the music make you feel ,SCARED,30MonoWAV/30MonoH4.wav,2,2,1,8,,,,,0,6,6,7,0,0,0,11,,,3,3.2399926990037784,3,1.2528855320124421,3,2.388191986014135,1,1.8231151000072714,033,001,2019_May_15_1311,MusicAffectPsychophysiology2019,3.0.5,59.99073887488148,
To what extent did the music make you feel ,GUILTY,30MonoWAV/30MonoH4.wav,2,2,1,8,,,,,0,6,6,7,0,1,1,5,,,,,,,,,1,0.08508074199198745,033,001,2019_May_15_1311,MusicAffectPsychophysiology2019,3.0.5,59.99073887488148,
To what extent did the music make you feel ,SAD,30MonoWAV/30MonoH4.wav,2,2,1,8,,,,,0,6,6,7,0,2,2,0,,,,,,,,,1,1.0182007759867702,033,001,2019_May_15_1311,MusicAffectPsychophysiology2019,3.0.5,59.99073887488148,
To what extent did the music make you feel ,ANXIOUS ,30MonoWAV/30MonoH4.wav,2,2,1,8,,,,,0,6,6,7,0,3,3,1,,,,,,,,,1,0.9017036180011928,033,001,2019_May_15_1311,MusicAffectPsychophysiology2019,3.0.5,59.99073887488148,
To what extent did the music make you feel ,HAPPY,30MonoWAV/30MonoH4.wav,2,2,1,8,,,,,0,6,6,7,0,4,4,6,,,,,,,,,3,1.2002759439928923,033,001,2019_May_15_1311,MusicAffectPsychophysiology2019,3.0.5,59.99073887488148,
To what extent did the music make you feel ,FRUSTRATED,30MonoWAV/30MonoH4.wav,2,2,1,8,,,,,0,6,6,7,0,5,5,3,,,,,,,,,1,0.9354867690126412,033,001,2019_May_15_1311,MusicAffectPsychophysiology2019,3.0.5,59.99073887488148,
To what extent did the music make you feel ,ACTIVE,30MonoWAV/30MonoH4.wav,2,2,1,8,,,,,0,6,6,7,0,6,6,9,,,,,,,,,3,0.8848878440039698,033,001,2019_May_15_1311,MusicAffectPsychophysiology2019,3.0.5,59.99073887488148,
To what extent did the music make you feel ,TENDER,30MonoWAV/30MonoH4.wav,2,2,1,8,,,,,0,6,6,7,0,7,7,10,,,,,,,,,1,1.0361146250215825,033,001,2019_May_15_1311,MusicAffectPsychophysiology2019,3.0.5,59.99073887488148,
To what extent did the music make you feel ,ASHAMED,30MonoWAV/30MonoH4.wav,2,2,1,8,,,,,0,6,6,7,0,8,8,4,,,,,,,,,1,0.6852389959967695,033,001,2019_May_15_1311,MusicAffectPsychophysiology2019,3.0.5,59.99073887488148,
To what extent did the music make you feel ,ANGRY,30MonoWAV/30MonoH4.wav,2,2,1,8,,,,,0,6,6,7,0,9,9,2,,,,,,,,,1,0.5190704429987818,033,001,2019_May_15_1311,MusicAffectPsychophysiology2019,3.0.5,59.99073887488148,
To what extent did the music make you feel ,ALERT,30MonoWAV/30MonoH4.wav,2,2,1,8,,,,,0,6,6,7,0,10,10,8,,,,,,,,,2,1.7525839910085779,033,001,2019_May_15_1311,MusicAffectPsychophysiology2019,3.0.5,59.99073887488148,
To what extent did the music make you feel ,EXCITED,30MonoWAV/30MonoH4.wav,2,2,1,8,,,,,0,6,6,7,0,11,11,7,,,,,,,,,3,1.0518353960069362,033,001,2019_May_15_1311,MusicAffectPsychophysiology2019,3.0.5,59.99073887488148,
,,30MonoWAV/30MonoH4.wav,2,2,1,8,,,,,0,6,6,7,,,,,,,,,,,,,,,033,001,2019_May_15_1311,MusicAffectPsychophysiology2019,3.0.5,59.99073887488148,
To what extent did the music make you feel ,ACTIVE,30MonoWAV/30MonoF3.wav,1,2,2,3,,,,,0,7,7,2,0,0,0,9,,,1,3.8847041050030384,1,1.7665215099987108,1,1.8857508529908955,1,2.7184847489988897,033,001,2019_May_15_1311,MusicAffectPsychophysiology2019,3.0.5,59.99073887488148,
To what extent did the music make you feel ,ASHAMED,30MonoWAV/30MonoF3.wav,1,2,2,3,,,,,0,7,7,2,0,1,1,4,,,,,,,,,1,4.0836677869956475,033,001,2019_May_15_1311,MusicAffectPsychophysiology2019,3.0.5,59.99073887488148,
To what extent did the music make you feel ,ANGRY,30MonoWAV/30MonoF3.wav,1,2,2,3,,,,,0,7,7,2,0,2,2,2,,,,,,,,,1,1.051694587979,033,001,2019_May_15_1311,MusicAffectPsychophysiology2019,3.0.5,59.99073887488148,
To what extent did the music make you feel ,FRUSTRATED,30MonoWAV/30MonoF3.wav,1,2,2,3,,,,,0,7,7,2,0,3,3,3,,,,,,,,,1,0.8159294749784749,033,001,2019_May_15_1311,MusicAffectPsychophysiology2019,3.0.5,59.99073887488148,
To what extent did the music make you feel ,EXCITED,30MonoWAV/30MonoF3.wav,1,2,2,3,,,,,0,7,7,2,0,4,4,7,,,,,,,,,1,0.7831455979903694,033,001,2019_May_15_1311,MusicAffectPsychophysiology2019,3.0.5,59.99073887488148,
To what extent did the music make you feel ,GUILTY,30MonoWAV/30MonoF3.wav,1,2,2,3,,,,,0,7,7,2,0,5,5,5,,,,,,,,,1,0.6859620960021857,033,001,2019_May_15_1311,MusicAffectPsychophysiology2019,3.0.5,59.99073887488148,
To what extent did the music make you feel ,ALERT,30MonoWAV/30MonoF3.wav,1,2,2,3,,,,,0,7,7,2,0,6,6,8,,,,,,,,,3,3.118452063994482,033,001,2019_May_15_1311,MusicAffectPsychophysiology2019,3.0.5,59.99073887488148,
To what extent did the music make you feel ,ANXIOUS ,30MonoWAV/30MonoF3.wav,1,2,2,3,,,,,0,7,7,2,0,7,7,1,,,,,,,,,2,1.5512031800171826,033,001,2019_May_15_1311,MusicAffectPsychophysiology2019,3.0.5,59.99073887488148,
To what extent did the music make you feel ,HAPPY,30MonoWAV/30MonoF3.wav,1,2,2,3,,,,,0,7,7,2,0,8,8,6,,,,,,,,,1,0.8686460110184271,033,001,2019_May_15_1311,MusicAffectPsychophysiology2019,3.0.5,59.99073887488148,
To what extent did the music make you feel ,SCARED,30MonoWAV/30MonoF3.wav,1,2,2,3,,,,,0,7,7,2,0,9,9,11,,,,,,,,,2,2.8675318689784035,033,001,2019_May_15_1311,MusicAffectPsychophysiology2019,3.0.5,59.99073887488148,
To what extent did the music make you feel ,TENDER,30MonoWAV/30MonoF3.wav,1,2,2,3,,,,,0,7,7,2,0,10,10,10,,,,,,,,,1,0.7829142810078338,033,001,2019_May_15_1311,MusicAffectPsychophysiology2019,3.0.5,59.99073887488148,
To what extent did the music make you feel ,SAD,30MonoWAV/30MonoF3.wav,1,2,2,3,,,,,0,7,7,2,0,11,11,0,,,,,,,,,1,3.570271856006002,033,001,2019_May_15_1311,MusicAffectPsychophysiology2019,3.0.5,59.99073887488148,
,,30MonoWAV/30MonoF3.wav,1,2,2,3,,,,,0,7,7,2,,,,,,,,,,,,,,,033,001,2019_May_15_1311,MusicAffectPsychophysiology2019,3.0.5,59.99073887488148,
To what extent did the music make you feel ,ALERT,30MonoWAV/30MonoT3.wav,2,1,4,15,,,,,0,8,8,14,0,0,0,8,,,1,3.002483543998096,3,1.7024210200179368,2,1.2672050389810465,2,1.3196456079895142,033,001,2019_May_15_1311,MusicAffectPsychophysiology2019,3.0.5,59.99073887488148,
To what extent did the music make you feel ,TENDER,30MonoWAV/30MonoT3.wav,2,1,4,15,,,,,0,8,8,14,0,1,1,10,,,,,,,,,1,1.3017094660026487,033,001,2019_May_15_1311,MusicAffectPsychophysiology2019,3.0.5,59.99073887488148,
To what extent did the music make you feel ,SAD,30MonoWAV/30MonoT3.wav,2,1,4,15,,,,,0,8,8,14,0,2,2,0,,,,,,,,,1,0.9353481029975228,033,001,2019_May_15_1311,MusicAffectPsychophysiology2019,3.0.5,59.99073887488148,
To what extent did the music make you feel ,FRUSTRATED,30MonoWAV/30MonoT3.wav,2,1,4,15,,,,,0,8,8,14,0,3,3,3,,,,,,,,,1,0.7185047899838537,033,001,2019_May_15_1311,MusicAffectPsychophysiology2019,3.0.5,59.99073887488148,
To what extent did the music make you feel ,EXCITED,30MonoWAV/30MonoT3.wav,2,1,4,15,,,,,0,8,8,14,0,4,4,7,,,,,,,,,1,1.5685621029988397,033,001,2019_May_15_1311,MusicAffectPsychophysiology2019,3.0.5,59.99073887488148,
To what extent did the music make you feel ,ANGRY,30MonoWAV/30MonoT3.wav,2,1,4,15,,,,,0,8,8,14,0,5,5,2,,,,,,,,,1,0.7347983660001773,033,001,2019_May_15_1311,MusicAffectPsychophysiology2019,3.0.5,59.99073887488148,
To what extent did the music make you feel ,SCARED,30MonoWAV/30MonoT3.wav,2,1,4,15,,,,,0,8,8,14,0,6,6,11,,,,,,,,,1,1.0340043250180315,033,001,2019_May_15_1311,MusicAffectPsychophysiology2019,3.0.5,59.99073887488148,
To what extent did the music make you feel ,ASHAMED,30MonoWAV/30MonoT3.wav,2,1,4,15,,,,,0,8,8,14,0,7,7,4,,,,,,,,,1,0.601410056988243,033,001,2019_May_15_1311,MusicAffectPsychophysiology2019,3.0.5,59.99073887488148,
To what extent did the music make you feel ,GUILTY,30MonoWAV/30MonoT3.wav,2,1,4,15,,,,,0,8,8,14,0,8,8,5,,,,,,,,,1,0.4855673650163226,033,001,2019_May_15_1311,MusicAffectPsychophysiology2019,3.0.5,59.99073887488148,
To what extent did the music make you feel ,ACTIVE,30MonoWAV/30MonoT3.wav,2,1,4,15,,,,,0,8,8,14,0,9,9,9,,,,,,,,,1,1.0516703600005712,033,001,2019_May_15_1311,MusicAffectPsychophysiology2019,3.0.5,59.99073887488148,
To what extent did the music make you feel ,ANXIOUS ,30MonoWAV/30MonoT3.wav,2,1,4,15,,,,,0,8,8,14,0,10,10,1,,,,,,,,,1,0.7193083310266957,033,001,2019_May_15_1311,MusicAffectPsychophysiology2019,3.0.5,59.99073887488148,
To what extent did the music make you feel ,HAPPY,30MonoWAV/30MonoT3.wav,2,1,4,15,,,,,0,8,8,14,0,11,11,6,,,,,,,,,2,1.2019628470006865,033,001,2019_May_15_1311,MusicAffectPsychophysiology2019,3.0.5,59.99073887488148,
,,30MonoWAV/30MonoT3.wav,2,1,4,15,,,,,0,8,8,14,,,,,,,,,,,,,,,033,001,2019_May_15_1311,MusicAffectPsychophysiology2019,3.0.5,59.99073887488148,
To what extent did the music make you feel ,ANXIOUS ,30MonoWAV/30MonoH2.wav,2,2,1,6,,,,,0,9,9,5,0,0,0,1,,,3,2.5185852579888888,3,1.7526683020114433,2,1.19938586599892,1,1.6024664000142366,033,001,2019_May_15_1311,MusicAffectPsychophysiology2019,3.0.5,59.99073887488148,
To what extent did the music make you feel ,TENDER,30MonoWAV/30MonoH2.wav,2,2,1,6,,,,,0,9,9,5,0,1,1,10,,,,,,,,,1,0.8681612820073497,033,001,2019_May_15_1311,MusicAffectPsychophysiology2019,3.0.5,59.99073887488148,
To what extent did the music make you feel ,ACTIVE,30MonoWAV/30MonoH2.wav,2,2,1,6,,,,,0,9,9,5,0,2,2,9,,,,,,,,,2,1.2845988800108898,033,001,2019_May_15_1311,MusicAffectPsychophysiology2019,3.0.5,59.99073887488148,
To what extent did the music make you feel ,SCARED,30MonoWAV/30MonoH2.wav,2,2,1,6,,,,,0,9,9,5,0,3,3,11,,,,,,,,,1,1.102664438978536,033,001,2019_May_15_1311,MusicAffectPsychophysiology2019,3.0.5,59.99073887488148,
To what extent did the music make you feel ,ALERT,30MonoWAV/30MonoH2.wav,2,2,1,6,,,,,0,9,9,5,0,4,4,8,,,,,,,,,3,2.6859135730192065,033,001,2019_May_15_1311,MusicAffectPsychophysiology2019,3.0.5,59.99073887488148,
To what extent did the music make you feel ,SAD,30MonoWAV/30MonoH2.wav,2,2,1,6,,,,,0,9,9,5,0,5,5,0,,,,,,,,,1,0.7019601940119173,033,001,2019_May_15_1311,MusicAffectPsychophysiology2019,3.0.5,59.99073887488148,
To what extent did the music make you feel ,GUILTY,30MonoWAV/30MonoH2.wav,2,2,1,6,,,,,0,9,9,5,0,6,6,5,,,,,,,,,1,0.7679602779971901,033,001,2019_May_15_1311,MusicAffectPsychophysiology2019,3.0.5,59.99073887488148,
To what extent did the music make you feel ,ASHAMED,30MonoWAV/30MonoH2.wav,2,2,1,6,,,,,0,9,9,5,0,7,7,4,,,,,,,,,1,0.5537408130185213,033,001,2019_May_15_1311,MusicAffectPsychophysiology2019,3.0.5,59.99073887488148,
To what extent did the music make you feel ,ANGRY,30MonoWAV/30MonoH2.wav,2,2,1,6,,,,,0,9,9,5,0,8,8,2,,,,,,,,,1,0.5688834080065135,033,001,2019_May_15_1311,MusicAffectPsychophysiology2019,3.0.5,59.99073887488148,
To what extent did the music make you feel ,EXCITED,30MonoWAV/30MonoH2.wav,2,2,1,6,,,,,0,9,9,5,0,9,9,7,,,,,,,,,2,1.218382927996572,033,001,2019_May_15_1311,MusicAffectPsychophysiology2019,3.0.5,59.99073887488148,
To what extent did the music make you feel ,FRUSTRATED,30MonoWAV/30MonoH2.wav,2,2,1,6,,,,,0,9,9,5,0,10,10,3,,,,,,,,,1,0.6360087149951141,033,001,2019_May_15_1311,MusicAffectPsychophysiology2019,3.0.5,59.99073887488148,
To what extent did the music make you feel ,HAPPY,30MonoWAV/30MonoH2.wav,2,2,1,6,,,,,0,9,9,5,0,11,11,6,,,,,,,,,2,0.8705810929823201,033,001,2019_May_15_1311,MusicAffectPsychophysiology2019,3.0.5,59.99073887488148,
,,30MonoWAV/30MonoH2.wav,2,2,1,6,,,,,0,9,9,5,,,,,,,,,,,,,,,033,001,2019_May_15_1311,MusicAffectPsychophysiology2019,3.0.5,59.99073887488148,
To what extent did the music make you feel ,ANGRY,30MonoWAV/30MonoS3.wav,1,1,3,11,,,,,0,10,10,10,0,0,0,2,,,1,3.3354550569783896,1,1.219034059002297,1,1.0349936590064317,1,1.1996764229843393,033,001,2019_May_15_1311,MusicAffectPsychophysiology2019,3.0.5,59.99073887488148,
To what extent did the music make you feel ,ALERT,30MonoWAV/30MonoS3.wav,1,1,3,11,,,,,0,10,10,10,0,1,1,8,,,,,,,,,1,1.2020045229874086,033,001,2019_May_15_1311,MusicAffectPsychophysiology2019,3.0.5,59.99073887488148,
To what extent did the music make you feel ,FRUSTRATED,30MonoWAV/30MonoS3.wav,1,1,3,11,,,,,0,10,10,10,0,2,2,3,,,,,,,,,1,1.7861406120064203,033,001,2019_May_15_1311,MusicAffectPsychophysiology2019,3.0.5,59.99073887488148,
To what extent did the music make you feel ,TENDER,30MonoWAV/30MonoS3.wav,1,1,3,11,,,,,0,10,10,10,0,3,3,10,,,,,,,,,1,0.6349739220167976,033,001,2019_May_15_1311,MusicAffectPsychophysiology2019,3.0.5,59.99073887488148,
To what extent did the music make you feel ,HAPPY,30MonoWAV/30MonoS3.wav,1,1,3,11,,,,,0,10,10,10,0,4,4,6,,,,,,,,,1,1.0014373899903148,033,001,2019_May_15_1311,MusicAffectPsychophysiology2019,3.0.5,59.99073887488148,
To what extent did the music make you feel ,GUILTY,30MonoWAV/30MonoS3.wav,1,1,3,11,,,,,0,10,10,10,0,5,5,5,,,,,,,,,1,2.0357793380098883,033,001,2019_May_15_1311,MusicAffectPsychophysiology2019,3.0.5,59.99073887488148,
To what extent did the music make you feel ,ANXIOUS ,30MonoWAV/30MonoS3.wav,1,1,3,11,,,,,0,10,10,10,0,6,6,1,,,,,,,,,1,2.5352307019929867,033,001,2019_May_15_1311,MusicAffectPsychophysiology2019,3.0.5,59.99073887488148,
To what extent did the music make you feel ,ACTIVE,30MonoWAV/30MonoS3.wav,1,1,3,11,,,,,0,10,10,10,0,7,7,9,,,,,,,,,1,0.7858617519959807,033,001,2019_May_15_1311,MusicAffectPsychophysiology2019,3.0.5,59.99073887488148,
To what extent did the music make you feel ,EXCITED,30MonoWAV/30MonoS3.wav,1,1,3,11,,,,,0,10,10,10,0,8,8,7,,,,,,,,,1,0.7531850780069362,033,001,2019_May_15_1311,MusicAffectPsychophysiology2019,3.0.5,59.99073887488148,
To what extent did the music make you feel ,SAD,30MonoWAV/30MonoS3.wav,1,1,3,11,,,,,0,10,10,10,0,9,9,0,,,,,,,,,2,0.9512023070128635,033,001,2019_May_15_1311,MusicAffectPsychophysiology2019,3.0.5,59.99073887488148,
To what extent did the music make you feel ,SCARED,30MonoWAV/30MonoS3.wav,1,1,3,11,,,,,0,10,10,10,0,10,10,11,,,,,,,,,1,1.9060374690161552,033,001,2019_May_15_1311,MusicAffectPsychophysiology2019,3.0.5,59.99073887488148,
To what extent did the music make you feel ,ASHAMED,30MonoWAV/30MonoS3.wav,1,1,3,11,,,,,0,10,10,10,0,11,11,4,,,,,,,,,1,0.6865920230047777,033,001,2019_May_15_1311,MusicAffectPsychophysiology2019,3.0.5,59.99073887488148,
,,30MonoWAV/30MonoS3.wav,1,1,3,11,,,,,0,10,10,10,,,,,,,,,,,,,,,033,001,2019_May_15_1311,MusicAffectPsychophysiology2019,3.0.5,59.99073887488148,
To what extent did the music make you feel ,FRUSTRATED,30MonoWAV/30MonoS1.wav,1,1,3,9,,,,,0,11,11,8,0,0,0,3,,,1,2.201538648980204,2,1.1338901680137496,1,2.0512121870124247,1,1.0359778220008593,033,001,2019_May_15_1311,MusicAffectPsychophysiology2019,3.0.5,59.99073887488148,
To what extent did the music make you feel ,ANGRY,30MonoWAV/30MonoS1.wav,1,1,3,9,,,,,0,11,11,8,0,1,1,2,,,,,,,,,1,0.46829505101777613,033,001,2019_May_15_1311,MusicAffectPsychophysiology2019,3.0.5,59.99073887488148,
To what extent did the music make you feel ,ALERT,30MonoWAV/30MonoS1.wav,1,1,3,9,,,,,0,11,11,8,0,2,2,8,,,,,,,,,1,0.8508623430097941,033,001,2019_May_15_1311,MusicAffectPsychophysiology2019,3.0.5,59.99073887488148,
To what extent did the music make you feel ,ACTIVE,30MonoWAV/30MonoS1.wav,1,1,3,9,,,,,0,11,11,8,0,3,3,9,,,,,,,,,1,1.2347767959872726,033,001,2019_May_15_1311,MusicAffectPsychophysiology2019,3.0.5,59.99073887488148,
To what extent did the music make you feel ,ASHAMED,30MonoWAV/30MonoS1.wav,1,1,3,9,,,,,0,11,11,8,0,4,4,4,,,,,,,,,1,4.534351395996055,033,001,2019_May_15_1311,MusicAffectPsychophysiology2019,3.0.5,59.99073887488148,
To what extent did the music make you feel ,SCARED,30MonoWAV/30MonoS1.wav,1,1,3,9,,,,,0,11,11,8,0,5,5,11,,,,,,,,,1,0.8018222319951747,033,001,2019_May_15_1311,MusicAffectPsychophysiology2019,3.0.5,59.99073887488148,
To what extent did the music make you feel ,SAD,30MonoWAV/30MonoS1.wav,1,1,3,9,,,,,0,11,11,8,0,6,6,0,,,,,,,,,2,1.5359278119867668,033,001,2019_May_15_1311,MusicAffectPsychophysiology2019,3.0.5,59.99073887488148,
To what extent did the music make you feel ,EXCITED,30MonoWAV/30MonoS1.wav,1,1,3,9,,,,,0,11,11,8,0,7,7,7,,,,,,,,,1,1.3024096020089928,033,001,2019_May_15_1311,MusicAffectPsychophysiology2019,3.0.5,59.99073887488148,
To what extent did the music make you feel ,TENDER,30MonoWAV/30MonoS1.wav,1,1,3,9,,,,,0,11,11,8,0,8,8,10,,,,,,,,,1,3.634682078001788,033,001,2019_May_15_1311,MusicAffectPsychophysiology2019,3.0.5,59.99073887488148,
To what extent did the music make you feel ,ANXIOUS ,30MonoWAV/30MonoS1.wav,1,1,3,9,,,,,0,11,11,8,0,9,9,1,,,,,,,,,1,4.68308111600345,033,001,2019_May_15_1311,MusicAffectPsychophysiology2019,3.0.5,59.99073887488148,
To what extent did the music make you feel ,GUILTY,30MonoWAV/30MonoS1.wav,1,1,3,9,,,,,0,11,11,8,0,10,10,5,,,,,,,,,1,5.384904884995194,033,001,2019_May_15_1311,MusicAffectPsychophysiology2019,3.0.5,59.99073887488148,
To what extent did the music make you feel ,HAPPY,30MonoWAV/30MonoS1.wav,1,1,3,9,,,,,0,11,11,8,0,11,11,6,,,,,,,,,1,1.0506029600219335,033,001,2019_May_15_1311,MusicAffectPsychophysiology2019,3.0.5,59.99073887488148,
,,30MonoWAV/30MonoS1.wav,1,1,3,9,,,,,0,11,11,8,,,,,,,,,,,,,,,033,001,2019_May_15_1311,MusicAffectPsychophysiology2019,3.0.5,59.99073887488148,
To what extent did the music make you feel ,ALERT,30MonoWAV/30MonoT2.wav,2,1,4,14,,,,,0,12,12,13,0,0,0,8,,,1,5.984017187991412,2,1.4525764930003788,1,2.0848856719967443,1,5.589687288011191,033,001,2019_May_15_1311,MusicAffectPsychophysiology2019,3.0.5,59.99073887488148,
To what extent did the music make you feel ,SCARED,30MonoWAV/30MonoT2.wav,2,1,4,14,,,,,0,12,12,13,0,1,1,11,,,,,,,,,1,0.6521667469933163,033,001,2019_May_15_1311,MusicAffectPsychophysiology2019,3.0.5,59.99073887488148,
To what extent did the music make you feel ,FRUSTRATED,30MonoWAV/30MonoT2.wav,2,1,4,14,,,,,0,12,12,13,0,2,2,3,,,,,,,,,1,0.5695103040197864,033,001,2019_May_15_1311,MusicAffectPsychophysiology2019,3.0.5,59.99073887488148,
To what extent did the music make you feel ,GUILTY,30MonoWAV/30MonoT2.wav,2,1,4,14,,,,,0,12,12,13,0,3,3,5,,,,,,,,,1,0.6023814999789465,033,001,2019_May_15_1311,MusicAffectPsychophysiology2019,3.0.5,59.99073887488148,
To what extent did the music make you feel ,ANGRY,30MonoWAV/30MonoT2.wav,2,1,4,14,,,,,0,12,12,13,0,4,4,2,,,,,,,,,1,0.5862030470161699,033,001,2019_May_15_1311,MusicAffectPsychophysiology2019,3.0.5,59.99073887488148,
To what extent did the music make you feel ,HAPPY,30MonoWAV/30MonoT2.wav,2,1,4,14,,,,,0,12,12,13,0,5,5,6,,,,,,,,,2,0.9531866360048298,033,001,2019_May_15_1311,MusicAffectPsychophysiology2019,3.0.5,59.99073887488148,
To what extent did the music make you feel ,SAD,30MonoWAV/30MonoT2.wav,2,1,4,14,,,,,0,12,12,13,0,6,6,0,,,,,,,,,1,2.94143786400673,033,001,2019_May_15_1311,MusicAffectPsychophysiology2019,3.0.5,59.99073887488148,
To what extent did the music make you feel ,ACTIVE,30MonoWAV/30MonoT2.wav,2,1,4,14,,,,,0,12,12,13,0,7,7,9,,,,,,,,,1,0.6833561829989776,033,001,2019_May_15_1311,MusicAffectPsychophysiology2019,3.0.5,59.99073887488148,
To what extent did the music make you feel ,ANXIOUS ,30MonoWAV/30MonoT2.wav,2,1,4,14,,,,,0,12,12,13,0,8,8,1,,,,,,,,,1,0.5352845310117118,033,001,2019_May_15_1311,MusicAffectPsychophysiology2019,3.0.5,59.99073887488148,
To what extent did the music make you feel ,TENDER,30MonoWAV/30MonoT2.wav,2,1,4,14,,,,,0,12,12,13,0,9,9,10,,,,,,,,,1,0.6508461839985102,033,001,2019_May_15_1311,MusicAffectPsychophysiology2019,3.0.5,59.99073887488148,
To what extent did the music make you feel ,ASHAMED,30MonoWAV/30MonoT2.wav,2,1,4,14,,,,,0,12,12,13,0,10,10,4,,,,,,,,,1,0.6361374419939239,033,001,2019_May_15_1311,MusicAffectPsychophysiology2019,3.0.5,59.99073887488148,
To what extent did the music make you feel ,EXCITED,30MonoWAV/30MonoT2.wav,2,1,4,14,,,,,0,12,12,13,0,11,11,7,,,,,,,,,1,0.6518704000045545,033,001,2019_May_15_1311,MusicAffectPsychophysiology2019,3.0.5,59.99073887488148,
,,30MonoWAV/30MonoT2.wav,2,1,4,14,,,,,0,12,12,13,,,,,,,,,,,,,,,033,001,2019_May_15_1311,MusicAffectPsychophysiology2019,3.0.5,59.99073887488148,
To what extent did the music make you feel ,EXCITED,30MonoWAV/30MonoT4.wav,2,1,4,16,,,,,0,13,13,15,0,0,0,7,,,1,2.822087112988811,2,2.3051220620109234,2,1.3897892279783264,1,4.368086762988241,033,001,2019_May_15_1311,MusicAffectPsychophysiology2019,3.0.5,59.99073887488148,
To what extent did the music make you feel ,GUILTY,30MonoWAV/30MonoT4.wav,2,1,4,16,,,,,0,13,13,15,0,1,1,5,,,,,,,,,1,0.5851705070235766,033,001,2019_May_15_1311,MusicAffectPsychophysiology2019,3.0.5,59.99073887488148,
To what extent did the music make you feel ,SCARED,30MonoWAV/30MonoT4.wav,2,1,4,16,,,,,0,13,13,15,0,2,2,11,,,,,,,,,1,0.6025727139785886,033,001,2019_May_15_1311,MusicAffectPsychophysiology2019,3.0.5,59.99073887488148,
To what extent did the music make you feel ,ANXIOUS ,30MonoWAV/30MonoT4.wav,2,1,4,16,,,,,0,13,13,15,0,3,3,1,,,,,,,,,1,0.6518137320235837,033,001,2019_May_15_1311,MusicAffectPsychophysiology2019,3.0.5,59.99073887488148,
To what extent did the music make you feel ,ALERT,30MonoWAV/30MonoT4.wav,2,1,4,16,,,,,0,13,13,15,0,4,4,8,,,,,,,,,1,0.6184556670195889,033,001,2019_May_15_1311,MusicAffectPsychophysiology2019,3.0.5,59.99073887488148,
To what extent did the music make you feel ,ACTIVE,30MonoWAV/30MonoT4.wav,2,1,4,16,,,,,0,13,13,15,0,5,5,9,,,,,,,,,1,1.5855831170047168,033,001,2019_May_15_1311,MusicAffectPsychophysiology2019,3.0.5,59.99073887488148,
To what extent did the music make you feel ,ASHAMED,30MonoWAV/30MonoT4.wav,2,1,4,16,,,,,0,13,13,15,0,6,6,4,,,,,,,,,1,1.849057860992616,033,001,2019_May_15_1311,MusicAffectPsychophysiology2019,3.0.5,59.99073887488148,
To what extent did the music make you feel ,TENDER,30MonoWAV/30MonoT4.wav,2,1,4,16,,,,,0,13,13,15,0,7,7,10,,,,,,,,,2,1.5514041369897313,033,001,2019_May_15_1311,MusicAffectPsychophysiology2019,3.0.5,59.99073887488148,
To what extent did the music make you feel ,FRUSTRATED,30MonoWAV/30MonoT4.wav,2,1,4,16,,,,,0,13,13,15,0,8,8,3,,,,,,,,,1,0.8027784669829998,033,001,2019_May_15_1311,MusicAffectPsychophysiology2019,3.0.5,59.99073887488148,
To what extent did the music make you feel ,HAPPY,30MonoWAV/30MonoT4.wav,2,1,4,16,,,,,0,13,13,15,0,9,9,6,,,,,,,,,1,0.7028992790146731,033,001,2019_May_15_1311,MusicAffectPsychophysiology2019,3.0.5,59.99073887488148,
To what extent did the music make you feel ,ANGRY,30MonoWAV/30MonoT4.wav,2,1,4,16,,,,,0,13,13,15,0,10,10,2,,,,,,,,,1,0.40128021501004696,033,001,2019_May_15_1311,MusicAffectPsychophysiology2019,3.0.5,59.99073887488148,
To what extent did the music make you feel ,SAD,30MonoWAV/30MonoT4.wav,2,1,4,16,,,,,0,13,13,15,0,11,11,0,,,,,,,,,2,1.2512654050078709,033,001,2019_May_15_1311,MusicAffectPsychophysiology2019,3.0.5,59.99073887488148,
,,30MonoWAV/30MonoT4.wav,2,1,4,16,,,,,0,13,13,15,,,,,,,,,,,,,,,033,001,2019_May_15_1311,MusicAffectPsychophysiology2019,3.0.5,59.99073887488148,
To what extent did the music make you feel ,ACTIVE,30MonoWAV/30MonoH3.wav,2,2,1,7,,,,,0,14,14,6,0,0,0,9,,,3,3.866969976981636,3,2.150693327013869,2,2.269577035011025,3,3.4347890419885516,033,001,2019_May_15_1311,MusicAffectPsychophysiology2019,3.0.5,59.99073887488148,
To what extent did the music make you feel ,SAD,30MonoWAV/30MonoH3.wav,2,2,1,7,,,,,0,14,14,6,0,1,1,0,,,,,,,,,1,0.8349409409856889,033,001,2019_May_15_1311,MusicAffectPsychophysiology2019,3.0.5,59.99073887488148,
To what extent did the music make you feel ,SCARED,30MonoWAV/30MonoH3.wav,2,2,1,7,,,,,0,14,14,6,0,2,2,11,,,,,,,,,1,0.5693712240026798,033,001,2019_May_15_1311,MusicAffectPsychophysiology2019,3.0.5,59.99073887488148,
To what extent did the music make you feel ,FRUSTRATED,30MonoWAV/30MonoH3.wav,2,2,1,7,,,,,0,14,14,6,0,3,3,3,,,,,,,,,1,0.46956105300341733,033,001,2019_May_15_1311,MusicAffectPsychophysiology2019,3.0.5,59.99073887488148,
To what extent did the music make you feel ,ANGRY,30MonoWAV/30MonoH3.wav,2,2,1,7,,,,,0,14,14,6,0,4,4,2,,,,,,,,,1,0.35147721398971044,033,001,2019_May_15_1311,MusicAffectPsychophysiology2019,3.0.5,59.99073887488148,
To what extent did the music make you feel ,TENDER,30MonoWAV/30MonoH3.wav,2,2,1,7,,,,,0,14,14,6,0,5,5,10,,,,,,,,,1,0.8351946999900974,033,001,2019_May_15_1311,MusicAffectPsychophysiology2019,3.0.5,59.99073887488148,
To what extent did the music make you feel ,ASHAMED,30MonoWAV/30MonoH3.wav,2,2,1,7,,,,,0,14,14,6,0,6,6,4,,,,,,,,,1,0.5349951270036399,033,001,2019_May_15_1311,MusicAffectPsychophysiology2019,3.0.5,59.99073887488148,
To what extent did the music make you feel ,ANXIOUS ,30MonoWAV/30MonoH3.wav,2,2,1,7,,,,,0,14,14,6,0,7,7,1,,,,,,,,,1,0.7025251980230678,033,001,2019_May_15_1311,MusicAffectPsychophysiology2019,3.0.5,59.99073887488148,
To what extent did the music make you feel ,GUILTY,30MonoWAV/30MonoH3.wav,2,2,1,7,,,,,0,14,14,6,0,8,8,5,,,,,,,,,1,0.5347643769928254,033,001,2019_May_15_1311,MusicAffectPsychophysiology2019,3.0.5,59.99073887488148,
To what extent did the music make you feel ,HAPPY,30MonoWAV/30MonoH3.wav,2,2,1,7,,,,,0,14,14,6,0,9,9,6,,,,,,,,,3,0.8684568180178758,033,001,2019_May_15_1311,MusicAffectPsychophysiology2019,3.0.5,59.99073887488148,
To what extent did the music make you feel ,EXCITED,30MonoWAV/30MonoH3.wav,2,2,1,7,,,,,0,14,14,6,0,10,10,7,,,,,,,,,3,1.4350986640201882,033,001,2019_May_15_1311,MusicAffectPsychophysiology2019,3.0.5,59.99073887488148,
To what extent did the music make you feel ,ALERT,30MonoWAV/30MonoH3.wav,2,2,1,7,,,,,0,14,14,6,0,11,11,8,,,,,,,,,3,0.7681048719969112,033,001,2019_May_15_1311,MusicAffectPsychophysiology2019,3.0.5,59.99073887488148,
,,30MonoWAV/30MonoH3.wav,2,2,1,7,,,,,0,14,14,6,,,,,,,,,,,,,,,033,001,2019_May_15_1311,MusicAffectPsychophysiology2019,3.0.5,59.99073887488148,
To what extent did the music make you feel ,ASHAMED,30MonoWAV/30MonoF4.wav,1,2,2,4,,,,,0,15,15,3,0,0,0,4,,,2,2.769070677983109,1,3.9763703219941817,2,1.5364788720034994,1,4.340973874001065,033,001,2019_May_15_1311,MusicAffectPsychophysiology2019,3.0.5,59.99073887488148,
To what extent did the music make you feel ,SCARED,30MonoWAV/30MonoF4.wav,1,2,2,4,,,,,0,15,15,3,0,1,1,11,,,,,,,,,2,1.0683019990101457,033,001,2019_May_15_1311,MusicAffectPsychophysiology2019,3.0.5,59.99073887488148,
To what extent did the music make you feel ,SAD,30MonoWAV/30MonoF4.wav,1,2,2,4,,,,,0,15,15,3,0,2,2,0,,,,,,,,,1,0.685471165983472,033,001,2019_May_15_1311,MusicAffectPsychophysiology2019,3.0.5,59.99073887488148,
To what extent did the music make you feel ,HAPPY,30MonoWAV/30MonoF4.wav,1,2,2,4,,,,,0,15,15,3,0,3,3,6,,,,,,,,,1,0.7175896900007501,033,001,2019_May_15_1311,MusicAffectPsychophysiology2019,3.0.5,59.99073887488148,
To what extent did the music make you feel ,ACTIVE,30MonoWAV/30MonoF4.wav,1,2,2,4,,,,,0,15,15,3,0,4,4,9,,,,,,,,,2,1.4995532469765749,033,001,2019_May_15_1311,MusicAffectPsychophysiology2019,3.0.5,59.99073887488148,
To what extent did the music make you feel ,ANGRY,30MonoWAV/30MonoF4.wav,1,2,2,4,,,,,0,15,15,3,0,5,5,2,,,,,,,,,1,0.9723605670151301,033,001,2019_May_15_1311,MusicAffectPsychophysiology2019,3.0.5,59.99073887488148,
To what extent did the music make you feel ,ANXIOUS ,30MonoWAV/30MonoF4.wav,1,2,2,4,,,,,0,15,15,3,0,6,6,1,,,,,,,,,2,1.0517022710118908,033,001,2019_May_15_1311,MusicAffectPsychophysiology2019,3.0.5,59.99073887488148,
To what extent did the music make you feel ,FRUSTRATED,30MonoWAV/30MonoF4.wav,1,2,2,4,,,,,0,15,15,3,0,7,7,3,,,,,,,,,1,1.93739654897945,033,001,2019_May_15_1311,MusicAffectPsychophysiology2019,3.0.5,59.99073887488148,
To what extent did the music make you feel ,TENDER,30MonoWAV/30MonoF4.wav,1,2,2,4,,,,,0,15,15,3,0,8,8,10,,,,,,,,,1,0.9025441329868045,033,001,2019_May_15_1311,MusicAffectPsychophysiology2019,3.0.5,59.99073887488148,
To what extent did the music make you feel ,GUILTY,30MonoWAV/30MonoF4.wav,1,2,2,4,,,,,0,15,15,3,0,9,9,5,,,,,,,,,1,0.5362275909865275,033,001,2019_May_15_1311,MusicAffectPsychophysiology2019,3.0.5,59.99073887488148,
To what extent did the music make you feel ,ALERT,30MonoWAV/30MonoF4.wav,1,2,2,4,,,,,0,15,15,3,0,10,10,8,,,,,,,,,2,0.9862117900047451,033,001,2019_May_15_1311,MusicAffectPsychophysiology2019,3.0.5,59.99073887488148,
To what extent did the music make you feel ,EXCITED,30MonoWAV/30MonoF4.wav,1,2,2,4,,,,,0,15,15,3,0,11,11,7,,,,,,,,,1,0.6173415690136608,033,001,2019_May_15_1311,MusicAffectPsychophysiology2019,3.0.5,59.99073887488148,
,,30MonoWAV/30MonoF4.wav,1,2,2,4,,,,,0,15,15,3,,,,,,,,,,,,,,,033,001,2019_May_15_1311,MusicAffectPsychophysiology2019,3.0.5,59.99073887488148,
To what extent did the music make you feel ,SCARED,30MonoWAV/30MonoH1.wav,2,2,1,5,,,,,1,0,16,4,0,0,0,11,,,2,2.018362661008723,2,1.5221249310125131,2,1.219875378999859,1,0.9189362119941507,033,001,2019_May_15_1311,MusicAffectPsychophysiology2019,3.0.5,59.99073887488148,
To what extent did the music make you feel ,ACTIVE,30MonoWAV/30MonoH1.wav,2,2,1,5,,,,,1,0,16,4,0,1,1,9,,,,,,,,,2,0.7518865640158765,033,001,2019_May_15_1311,MusicAffectPsychophysiology2019,3.0.5,59.99073887488148,
To what extent did the music make you feel ,ASHAMED,30MonoWAV/30MonoH1.wav,2,2,1,5,,,,,1,0,16,4,0,2,2,4,,,,,,,,,1,0.5858859430009034,033,001,2019_May_15_1311,MusicAffectPsychophysiology2019,3.0.5,59.99073887488148,
To what extent did the music make you feel ,SAD,30MonoWAV/30MonoH1.wav,2,2,1,5,,,,,1,0,16,4,0,3,3,0,,,,,,,,,1,0.5849733400100376,033,001,2019_May_15_1311,MusicAffectPsychophysiology2019,3.0.5,59.99073887488148,
To what extent did the music make you feel ,EXCITED,30MonoWAV/30MonoH1.wav,2,2,1,5,,,,,1,0,16,4,0,4,4,7,,,,,,,,,2,1.0524118290049955,033,001,2019_May_15_1311,MusicAffectPsychophysiology2019,3.0.5,59.99073887488148,
To what extent did the music make you feel ,HAPPY,30MonoWAV/30MonoH1.wav,2,2,1,5,,,,,1,0,16,4,0,5,5,6,,,,,,,,,2,1.2206540220067836,033,001,2019_May_15_1311,MusicAffectPsychophysiology2019,3.0.5,59.99073887488148,
To what extent did the music make you feel ,ALERT,30MonoWAV/30MonoH1.wav,2,2,1,5,,,,,1,0,16,4,0,6,6,8,,,,,,,,,2,1.8390184819872957,033,001,2019_May_15_1311,MusicAffectPsychophysiology2019,3.0.5,59.99073887488148,
To what extent did the music make you feel ,FRUSTRATED,30MonoWAV/30MonoH1.wav,2,2,1,5,,,,,1,0,16,4,0,7,7,3,,,,,,,,,1,0.7515821239794604,033,001,2019_May_15_1311,MusicAffectPsychophysiology2019,3.0.5,59.99073887488148,
To what extent did the music make you feel ,TENDER,30MonoWAV/30MonoH1.wav,2,2,1,5,,,,,1,0,16,4,0,8,8,10,,,,,,,,,1,0.8697312799922656,033,001,2019_May_15_1311,MusicAffectPsychophysiology2019,3.0.5,59.99073887488148,
To what extent did the music make you feel ,ANGRY,30MonoWAV/30MonoH1.wav,2,2,1,5,,,,,1,0,16,4,0,9,9,2,,,,,,,,,1,0.6181216739933006,033,001,2019_May_15_1311,MusicAffectPsychophysiology2019,3.0.5,59.99073887488148,
To what extent did the music make you feel ,GUILTY,30MonoWAV/30MonoH1.wav,2,2,1,5,,,,,1,0,16,4,0,10,10,5,,,,,,,,,1,0.5347622919944115,033,001,2019_May_15_1311,MusicAffectPsychophysiology2019,3.0.5,59.99073887488148,
To what extent did the music make you feel ,ANXIOUS ,30MonoWAV/30MonoH1.wav,2,2,1,5,,,,,1,0,16,4,0,11,11,1,,,,,,,,,1,0.7016663399990648,033,001,2019_May_15_1311,MusicAffectPsychophysiology2019,3.0.5,59.99073887488148,
,,30MonoWAV/30MonoH1.wav,2,2,1,5,,,,,1,0,16,4,,,,,,,,,,,,,,,033,001,2019_May_15_1311,MusicAffectPsychophysiology2019,3.0.5,59.99073887488148,
To what extent did the music make you feel ,EXCITED,30MonoWAV/30MonoS1.wav,1,1,3,9,,,,,1,1,17,8,0,0,0,7,,,1,2.1513744439871516,1,1.5847824589873198,1,1.0680545329814777,1,1.300632261991268,033,001,2019_May_15_1311,MusicAffectPsychophysiology2019,3.0.5,59.99073887488148,
To what extent did the music make you feel ,HAPPY,30MonoWAV/30MonoS1.wav,1,1,3,9,,,,,1,1,17,8,0,1,1,6,,,,,,,,,1,0.6678714980080258,033,001,2019_May_15_1311,MusicAffectPsychophysiology2019,3.0.5,59.99073887488148,
To what extent did the music make you feel ,SCARED,30MonoWAV/30MonoS1.wav,1,1,3,9,,,,,1,1,17,8,0,2,2,11,,,,,,,,,1,0.8346462759946007,033,001,2019_May_15_1311,MusicAffectPsychophysiology2019,3.0.5,59.99073887488148,
To what extent did the music make you feel ,ASHAMED,30MonoWAV/30MonoS1.wav,1,1,3,9,,,,,1,1,17,8,0,3,3,4,,,,,,,,,1,1.0348038550000638,033,001,2019_May_15_1311,MusicAffectPsychophysiology2019,3.0.5,59.99073887488148,
To what extent did the music make you feel ,SAD,30MonoWAV/30MonoS1.wav,1,1,3,9,,,,,1,1,17,8,0,4,4,0,,,,,,,,,2,1.2690474610135425,033,001,2019_May_15_1311,MusicAffectPsychophysiology2019,3.0.5,59.99073887488148,
To what extent did the music make you feel ,ACTIVE,30MonoWAV/30MonoS1.wav,1,1,3,9,,,,,1,1,17,8,0,5,5,9,,,,,,,,,1,0.7165102279977873,033,001,2019_May_15_1311,MusicAffectPsychophysiology2019,3.0.5,59.99073887488148,
To what extent did the music make you feel ,ALERT,30MonoWAV/30MonoS1.wav,1,1,3,9,,,,,1,1,17,8,0,6,6,8,,,,,,,,,1,0.9012067450094037,033,001,2019_May_15_1311,MusicAffectPsychophysiology2019,3.0.5,59.99073887488148,
To what extent did the music make you feel ,FRUSTRATED,30MonoWAV/30MonoS1.wav,1,1,3,9,,,,,1,1,17,8,0,7,7,3,,,,,,,,,1,0.7518343949923292,033,001,2019_May_15_1311,MusicAffectPsychophysiology2019,3.0.5,59.99073887488148,
To what extent did the music make you feel ,ANGRY,30MonoWAV/30MonoS1.wav,1,1,3,9,,,,,1,1,17,8,0,8,8,2,,,,,,,,,1,0.4514932259917259,033,001,2019_May_15_1311,MusicAffectPsychophysiology2019,3.0.5,59.99073887488148,
To what extent did the music make you feel ,GUILTY,30MonoWAV/30MonoS1.wav,1,1,3,9,,,,,1,1,17,8,0,9,9,5,,,,,,,,,1,0.6337587630259804,033,001,2019_May_15_1311,MusicAffectPsychophysiology2019,3.0.5,59.99073887488148,
To what extent did the music make you feel ,TENDER,30MonoWAV/30MonoS1.wav,1,1,3,9,,,,,1,1,17,8,0,10,10,10,,,,,,,,,2,0.8857406040187925,033,001,2019_May_15_1311,MusicAffectPsychophysiology2019,3.0.5,59.99073887488148,
To what extent did the music make you feel ,ANXIOUS ,30MonoWAV/30MonoS1.wav,1,1,3,9,,,,,1,1,17,8,0,11,11,1,,,,,,,,,1,0.5360738399904221,033,001,2019_May_15_1311,MusicAffectPsychophysiology2019,3.0.5,59.99073887488148,
,,30MonoWAV/30MonoS1.wav,1,1,3,9,,,,,1,1,17,8,,,,,,,,,,,,,,,033,001,2019_May_15_1311,MusicAffectPsychophysiology2019,3.0.5,59.99073887488148,
To what extent did the music make you feel ,TENDER,30MonoWAV/30MonoH3.wav,2,2,1,7,,,,,1,2,18,6,0,0,0,10,,,2,2.134493282006588,2,1.3687456030165777,2,0.3839368849876337,1,1.2522896330046933,033,001,2019_May_15_1311,MusicAffectPsychophysiology2019,3.0.5,59.99073887488148,
To what extent did the music make you feel ,ANXIOUS ,30MonoWAV/30MonoH3.wav,2,2,1,7,,,,,1,2,18,6,0,1,1,1,,,,,,,,,1,0.584102665015962,033,001,2019_May_15_1311,MusicAffectPsychophysiology2019,3.0.5,59.99073887488148,
To what extent did the music make you feel ,ASHAMED,30MonoWAV/30MonoH3.wav,2,2,1,7,,,,,1,2,18,6,0,2,2,4,,,,,,,,,1,0.4685371220111847,033,001,2019_May_15_1311,MusicAffectPsychophysiology2019,3.0.5,59.99073887488148,
To what extent did the music make you feel ,ANGRY,30MonoWAV/30MonoH3.wav,2,2,1,7,,,,,1,2,18,6,0,3,3,2,,,,,,,,,1,0.45116047299234197,033,001,2019_May_15_1311,MusicAffectPsychophysiology2019,3.0.5,59.99073887488148,
To what extent did the music make you feel ,FRUSTRATED,30MonoWAV/30MonoH3.wav,2,2,1,7,,,,,1,2,18,6,0,4,4,3,,,,,,,,,1,0.5016887179808691,033,001,2019_May_15_1311,MusicAffectPsychophysiology2019,3.0.5,59.99073887488148,
To what extent did the music make you feel ,HAPPY,30MonoWAV/30MonoH3.wav,2,2,1,7,,,,,1,2,18,6,0,5,5,6,,,,,,,,,3,2.1497712880081963,033,001,2019_May_15_1311,MusicAffectPsychophysiology2019,3.0.5,59.99073887488148,
To what extent did the music make you feel ,SAD,30MonoWAV/30MonoH3.wav,2,2,1,7,,,,,1,2,18,6,0,6,6,0,,,,,,,,,1,0.7853304849995766,033,001,2019_May_15_1311,MusicAffectPsychophysiology2019,3.0.5,59.99073887488148,
To what extent did the music make you feel ,EXCITED,30MonoWAV/30MonoH3.wav,2,2,1,7,,,,,1,2,18,6,0,7,7,7,,,,,,,,,3,0.6345582199865021,033,001,2019_May_15_1311,MusicAffectPsychophysiology2019,3.0.5,59.99073887488148,
To what extent did the music make you feel ,ACTIVE,30MonoWAV/30MonoH3.wav,2,2,1,7,,,,,1,2,18,6,0,8,8,9,,,,,,,,,3,0.8014662890054751,033,001,2019_May_15_1311,MusicAffectPsychophysiology2019,3.0.5,59.99073887488148,
To what extent did the music make you feel ,ALERT,30MonoWAV/30MonoH3.wav,2,2,1,7,,,,,1,2,18,6,0,9,9,8,,,,,,,,,3,0.9678064459876623,033,001,2019_May_15_1311,MusicAffectPsychophysiology2019,3.0.5,59.99073887488148,
To what extent did the music make you feel ,SCARED,30MonoWAV/30MonoH3.wav,2,2,1,7,,,,,1,2,18,6,0,10,10,11,,,,,,,,,1,0.6682761429983657,033,001,2019_May_15_1311,MusicAffectPsychophysiology2019,3.0.5,59.99073887488148,
To what extent did the music make you feel ,GUILTY,30MonoWAV/30MonoH3.wav,2,2,1,7,,,,,1,2,18,6,0,11,11,5,,,,,,,,,1,0.5184185840189457,033,001,2019_May_15_1311,MusicAffectPsychophysiology2019,3.0.5,59.99073887488148,
,,30MonoWAV/30MonoH3.wav,2,2,1,7,,,,,1,2,18,6,,,,,,,,,,,,,,,033,001,2019_May_15_1311,MusicAffectPsychophysiology2019,3.0.5,59.99073887488148,
To what extent did the music make you feel ,HAPPY,30MonoWAV/30MonoH2.wav,2,2,1,6,,,,,1,3,19,5,0,0,0,6,,,2,2.136739089008188,2,1.7182315009995364,2,0.9855841840035282,2,2.183942002011463,033,001,2019_May_15_1311,MusicAffectPsychophysiology2019,3.0.5,59.99073887488148,
To what extent did the music make you feel ,GUILTY,30MonoWAV/30MonoH2.wav,2,2,1,6,,,,,1,3,19,5,0,1,1,5,,,,,,,,,1,0.6186483659839723,033,001,2019_May_15_1311,MusicAffectPsychophysiology2019,3.0.5,59.99073887488148,
To what extent did the music make you feel ,FRUSTRATED,30MonoWAV/30MonoH2.wav,2,2,1,6,,,,,1,3,19,5,0,2,2,3,,,,,,,,,1,0.6513091569941025,033,001,2019_May_15_1311,MusicAffectPsychophysiology2019,3.0.5,59.99073887488148,
To what extent did the music make you feel ,ACTIVE,30MonoWAV/30MonoH2.wav,2,2,1,6,,,,,1,3,19,5,0,3,3,9,,,,,,,,,1,1.4509679549955763,033,001,2019_May_15_1311,MusicAffectPsychophysiology2019,3.0.5,59.99073887488148,
To what extent did the music make you feel ,ANGRY,30MonoWAV/30MonoH2.wav,2,2,1,6,,,,,1,3,19,5,0,4,4,2,,,,,,,,,1,0.718292195990216,033,001,2019_May_15_1311,MusicAffectPsychophysiology2019,3.0.5,59.99073887488148,
To what extent did the music make you feel ,ASHAMED,30MonoWAV/30MonoH2.wav,2,2,1,6,,,,,1,3,19,5,0,5,5,4,,,,,,,,,1,0.6022145040042233,033,001,2019_May_15_1311,MusicAffectPsychophysiology2019,3.0.5,59.99073887488148,
To what extent did the music make you feel ,EXCITED,30MonoWAV/30MonoH2.wav,2,2,1,6,,,,,1,3,19,5,0,6,6,7,,,,,,,,,1,1.2858772369800135,033,001,2019_May_15_1311,MusicAffectPsychophysiology2019,3.0.5,59.99073887488148,
To what extent did the music make you feel ,ALERT,30MonoWAV/30MonoH2.wav,2,2,1,6,,,,,1,3,19,5,0,7,7,8,,,,,,,,,1,0.7019963329948951,033,001,2019_May_15_1311,MusicAffectPsychophysiology2019,3.0.5,59.99073887488148,
To what extent did the music make you feel ,SAD,30MonoWAV/30MonoH2.wav,2,2,1,6,,,,,1,3,19,5,0,8,8,0,,,,,,,,,1,0.6513582119951025,033,001,2019_May_15_1311,MusicAffectPsychophysiology2019,3.0.5,59.99073887488148,
To what extent did the music make you feel ,SCARED,30MonoWAV/30MonoH2.wav,2,2,1,6,,,,,1,3,19,5,0,9,9,11,,,,,,,,,1,1.905980034993263,033,001,2019_May_15_1311,MusicAffectPsychophysiology2019,3.0.5,59.99073887488148,
To what extent did the music make you feel ,TENDER,30MonoWAV/30MonoH2.wav,2,2,1,6,,,,,1,3,19,5,0,10,10,10,,,,,,,,,1,0.7025868500059005,033,001,2019_May_15_1311,MusicAffectPsychophysiology2019,3.0.5,59.99073887488148,
To what extent did the music make you feel ,ANXIOUS ,30MonoWAV/30MonoH2.wav,2,2,1,6,,,,,1,3,19,5,0,11,11,1,,,,,,,,,1,0.6181997569801752,033,001,2019_May_15_1311,MusicAffectPsychophysiology2019,3.0.5,59.99073887488148,
,,30MonoWAV/30MonoH2.wav,2,2,1,6,,,,,1,3,19,5,,,,,,,,,,,,,,,033,001,2019_May_15_1311,MusicAffectPsychophysiology2019,3.0.5,59.99073887488148,
To what extent did the music make you feel ,HAPPY,30MonoWAV/30MonoS2.wav,1,1,3,10,,,,,1,4,20,9,0,0,0,6,,,1,3.002258457010612,1,1.5832131759962067,1,0.26873483700910583,1,0.8348126969940495,033,001,2019_May_15_1311,MusicAffectPsychophysiology2019,3.0.5,59.99073887488148,
To what extent did the music make you feel ,ACTIVE,30MonoWAV/30MonoS2.wav,1,1,3,10,,,,,1,4,20,9,0,1,1,9,,,,,,,,,1,0.46803524397546425,033,001,2019_May_15_1311,MusicAffectPsychophysiology2019,3.0.5,59.99073887488148,
To what extent did the music make you feel ,SCARED,30MonoWAV/30MonoS2.wav,1,1,3,10,,,,,1,4,20,9,0,2,2,11,,,,,,,,,1,0.7687823619926348,033,001,2019_May_15_1311,MusicAffectPsychophysiology2019,3.0.5,59.99073887488148,
To what extent did the music make you feel ,ANGRY,30MonoWAV/30MonoS2.wav,1,1,3,10,,,,,1,4,20,9,0,3,3,2,,,,,,,,,1,0.5516995219804812,033,001,2019_May_15_1311,MusicAffectPsychophysiology2019,3.0.5,59.99073887488148,
To what extent did the music make you feel ,ASHAMED,30MonoWAV/30MonoS2.wav,1,1,3,10,,,,,1,4,20,9,0,4,4,4,,,,,,,,,1,0.4181967100012116,033,001,2019_May_15_1311,MusicAffectPsychophysiology2019,3.0.5,59.99073887488148,
To what extent did the music make you feel ,EXCITED,30MonoWAV/30MonoS2.wav,1,1,3,10,,,,,1,4,20,9,0,5,5,7,,,,,,,,,1,0.6188981219893321,033,001,2019_May_15_1311,MusicAffectPsychophysiology2019,3.0.5,59.99073887488148,
To what extent did the music make you feel ,FRUSTRATED,30MonoWAV/30MonoS2.wav,1,1,3,10,,,,,1,4,20,9,0,6,6,3,,,,,,,,,1,0.4183449909905903,033,001,2019_May_15_1311,MusicAffectPsychophysiology2019,3.0.5,59.99073887488148,
To what extent did the music make you feel ,GUILTY,30MonoWAV/30MonoS2.wav,1,1,3,10,,,,,1,4,20,9,0,7,7,5,,,,,,,,,1,0.6023070840165019,033,001,2019_May_15_1311,MusicAffectPsychophysiology2019,3.0.5,59.99073887488148,
To what extent did the music make you feel ,ANXIOUS ,30MonoWAV/30MonoS2.wav,1,1,3,10,,,,,1,4,20,9,0,8,8,1,,,,,,,,,1,0.501285837002797,033,001,2019_May_15_1311,MusicAffectPsychophysiology2019,3.0.5,59.99073887488148,
To what extent did the music make you feel ,SAD,30MonoWAV/30MonoS2.wav,1,1,3,10,,,,,1,4,20,9,0,9,9,0,,,,,,,,,3,1.1018273640074767,033,001,2019_May_15_1311,MusicAffectPsychophysiology2019,3.0.5,59.99073887488148,
To what extent did the music make you feel ,TENDER,30MonoWAV/30MonoS2.wav,1,1,3,10,,,,,1,4,20,9,0,10,10,10,,,,,,,,,2,0.9690473249938805,033,001,2019_May_15_1311,MusicAffectPsychophysiology2019,3.0.5,59.99073887488148,
To what extent did the music make you feel ,ALERT,30MonoWAV/30MonoS2.wav,1,1,3,10,,,,,1,4,20,9,0,11,11,8,,,,,,,,,1,0.9013081770099234,033,001,2019_May_15_1311,MusicAffectPsychophysiology2019,3.0.5,59.99073887488148,
,,30MonoWAV/30MonoS2.wav,1,1,3,10,,,,,1,4,20,9,,,,,,,,,,,,,,,033,001,2019_May_15_1311,MusicAffectPsychophysiology2019,3.0.5,59.99073887488148,
To what extent did the music make you feel ,ANGRY,30MonoWAV/30MonoS3.wav,1,1,3,11,,,,,1,5,21,10,0,0,0,2,,,1,3.0520889860054012,1,0.9212329600122757,1,0.46886665499187075,1,0.9193449330050498,033,001,2019_May_15_1311,MusicAffectPsychophysiology2019,3.0.5,59.99073887488148,
To what extent did the music make you feel ,HAPPY,30MonoWAV/30MonoS3.wav,1,1,3,11,,,,,1,5,21,10,0,1,1,6,,,,,,,,,1,0.3350838140177075,033,001,2019_May_15_1311,MusicAffectPsychophysiology2019,3.0.5,59.99073887488148,
To what extent did the music make you feel ,SCARED,30MonoWAV/30MonoS3.wav,1,1,3,11,,,,,1,5,21,10,0,2,2,11,,,,,,,,,2,0.7682554009952582,033,001,2019_May_15_1311,MusicAffectPsychophysiology2019,3.0.5,59.99073887488148,
To what extent did the music make you feel ,ASHAMED,30MonoWAV/30MonoS3.wav,1,1,3,11,,,,,1,5,21,10,0,3,3,4,,,,,,,,,1,0.46932360201026313,033,001,2019_May_15_1311,MusicAffectPsychophysiology2019,3.0.5,59.99073887488148,
To what extent did the music make you feel ,GUILTY,30MonoWAV/30MonoS3.wav,1,1,3,11,,,,,1,5,21,10,0,4,4,5,,,,,,,,,2,0.5013953210145701,033,001,2019_May_15_1311,MusicAffectPsychophysiology2019,3.0.5,59.99073887488148,
To what extent did the music make you feel ,SAD,30MonoWAV/30MonoS3.wav,1,1,3,11,,,,,1,5,21,10,0,5,5,0,,,,,,,,,1,3.907212869002251,033,001,2019_May_15_1311,MusicAffectPsychophysiology2019,3.0.5,59.99073887488148,
To what extent did the music make you feel ,EXCITED,30MonoWAV/30MonoS3.wav,1,1,3,11,,,,,1,5,21,10,0,6,6,7,,,,,,,,,1,4.084806693019345,033,001,2019_May_15_1311,MusicAffectPsychophysiology2019,3.0.5,59.99073887488148,
To what extent did the music make you feel ,ALERT,30MonoWAV/30MonoS3.wav,1,1,3,11,,,,,1,5,21,10,0,7,7,8,,,,,,,,,2,1.0183986790070776,033,001,2019_May_15_1311,MusicAffectPsychophysiology2019,3.0.5,59.99073887488148,
To what extent did the music make you feel ,TENDER,30MonoWAV/30MonoS3.wav,1,1,3,11,,,,,1,5,21,10,0,8,8,10,,,,,,,,,2,1.751066714990884,033,001,2019_May_15_1311,MusicAffectPsychophysiology2019,3.0.5,59.99073887488148,
To what extent did the music make you feel ,ACTIVE,30MonoWAV/30MonoS3.wav,1,1,3,11,,,,,1,5,21,10,0,9,9,9,,,,,,,,,1,1.7352817509963643,033,001,2019_May_15_1311,MusicAffectPsychophysiology2019,3.0.5,59.99073887488148,
To what extent did the music make you feel ,FRUSTRATED,30MonoWAV/30MonoS3.wav,1,1,3,11,,,,,1,5,21,10,0,10,10,3,,,,,,,,,1,0.6689383490011096,033,001,2019_May_15_1311,MusicAffectPsychophysiology2019,3.0.5,59.99073887488148,
To what extent did the music make you feel ,ANXIOUS ,30MonoWAV/30MonoS3.wav,1,1,3,11,,,,,1,5,21,10,0,11,11,1,,,,,,,,,1,1.43439836599282,033,001,2019_May_15_1311,MusicAffectPsychophysiology2019,3.0.5,59.99073887488148,
,,30MonoWAV/30MonoS3.wav,1,1,3,11,,,,,1,5,21,10,,,,,,,,,,,,,,,033,001,2019_May_15_1311,MusicAffectPsychophysiology2019,3.0.5,59.99073887488148,
To what extent did the music make you feel ,SAD,30MonoWAV/30MonoT2.wav,2,1,4,14,,,,,1,6,22,13,0,0,0,0,,,1,2.735326339985477,1,0.41794996298267506,1,0.3017328669957351,2,1.500388012995245,033,001,2019_May_15_1311,MusicAffectPsychophysiology2019,3.0.5,59.99073887488148,
To what extent did the music make you feel ,ALERT,30MonoWAV/30MonoT2.wav,2,1,4,14,,,,,1,6,22,13,0,1,1,8,,,,,,,,,1,0.7857786330278032,033,001,2019_May_15_1311,MusicAffectPsychophysiology2019,3.0.5,59.99073887488148,
To what extent did the music make you feel ,ANGRY,30MonoWAV/30MonoT2.wav,2,1,4,14,,,,,1,6,22,13,0,2,2,2,,,,,,,,,1,1.3016984290152323,033,001,2019_May_15_1311,MusicAffectPsychophysiology2019,3.0.5,59.99073887488148,
To what extent did the music make you feel ,ASHAMED,30MonoWAV/30MonoT2.wav,2,1,4,14,,,,,1,6,22,13,0,3,3,4,,,,,,,,,1,0.6019252169935498,033,001,2019_May_15_1311,MusicAffectPsychophysiology2019,3.0.5,59.99073887488148,
To what extent did the music make you feel ,SCARED,30MonoWAV/30MonoT2.wav,2,1,4,14,,,,,1,6,22,13,0,4,4,11,,,,,,,,,1,1.0027771170134656,033,001,2019_May_15_1311,MusicAffectPsychophysiology2019,3.0.5,59.99073887488148,
To what extent did the music make you feel ,FRUSTRATED,30MonoWAV/30MonoT2.wav,2,1,4,14,,,,,1,6,22,13,0,5,5,3,,,,,,,,,1,0.552156860998366,033,001,2019_May_15_1311,MusicAffectPsychophysiology2019,3.0.5,59.99073887488148,
To what extent did the music make you feel ,ACTIVE,30MonoWAV/30MonoT2.wav,2,1,4,14,,,,,1,6,22,13,0,6,6,9,,,,,,,,,1,0.4350895639800001,033,001,2019_May_15_1311,MusicAffectPsychophysiology2019,3.0.5,59.99073887488148,
To what extent did the music make you feel ,ANXIOUS ,30MonoWAV/30MonoT2.wav,2,1,4,14,,,,,1,6,22,13,0,7,7,1,,,,,,,,,1,0.717314068984706,033,001,2019_May_15_1311,MusicAffectPsychophysiology2019,3.0.5,59.99073887488148,
To what extent did the music make you feel ,EXCITED,30MonoWAV/30MonoT2.wav,2,1,4,14,,,,,1,6,22,13,0,8,8,7,,,,,,,,,1,0.8844921819982119,033,001,2019_May_15_1311,MusicAffectPsychophysiology2019,3.0.5,59.99073887488148,
To what extent did the music make you feel ,GUILTY,30MonoWAV/30MonoT2.wav,2,1,4,14,,,,,1,6,22,13,0,9,9,5,,,,,,,,,1,0.7345583499991335,033,001,2019_May_15_1311,MusicAffectPsychophysiology2019,3.0.5,59.99073887488148,
To what extent did the music make you feel ,HAPPY,30MonoWAV/30MonoT2.wav,2,1,4,14,,,,,1,6,22,13,0,10,10,6,,,,,,,,,1,0.6523143690137658,033,001,2019_May_15_1311,MusicAffectPsychophysiology2019,3.0.5,59.99073887488148,
To what extent did the music make you feel ,TENDER,30MonoWAV/30MonoT2.wav,2,1,4,14,,,,,1,6,22,13,0,11,11,10,,,,,,,,,2,0.9174817250168417,033,001,2019_May_15_1311,MusicAffectPsychophysiology2019,3.0.5,59.99073887488148,
,,30MonoWAV/30MonoT2.wav,2,1,4,14,,,,,1,6,22,13,,,,,,,,,,,,,,,033,001,2019_May_15_1311,MusicAffectPsychophysiology2019,3.0.5,59.99073887488148,
To what extent did the music make you feel ,GUILTY,30MonoWAV/30MonoS4.wav,1,1,3,12,,,,,1,7,23,11,0,0,0,5,,,1,2.050903911993373,1,0.16858420200878754,1,0.20160823600599542,1,1.250414001988247,033,001,2019_May_15_1311,MusicAffectPsychophysiology2019,3.0.5,59.99073887488148,
To what extent did the music make you feel ,ACTIVE,30MonoWAV/30MonoS4.wav,1,1,3,12,,,,,1,7,23,11,0,1,1,9,,,,,,,,,1,0.4845926080015488,033,001,2019_May_15_1311,MusicAffectPsychophysiology2019,3.0.5,59.99073887488148,
To what extent did the music make you feel ,HAPPY,30MonoWAV/30MonoS4.wav,1,1,3,12,,,,,1,7,23,11,0,2,2,6,,,,,,,,,1,0.5010787420033012,033,001,2019_May_15_1311,MusicAffectPsychophysiology2019,3.0.5,59.99073887488148,
To what extent did the music make you feel ,SCARED,30MonoWAV/30MonoS4.wav,1,1,3,12,,,,,1,7,23,11,0,3,3,11,,,,,,,,,1,0.602012917981483,033,001,2019_May_15_1311,MusicAffectPsychophysiology2019,3.0.5,59.99073887488148,
To what extent did the music make you feel ,EXCITED,30MonoWAV/30MonoS4.wav,1,1,3,12,,,,,1,7,23,11,0,4,4,7,,,,,,,,,1,0.5328996010066476,033,001,2019_May_15_1311,MusicAffectPsychophysiology2019,3.0.5,59.99073887488148,
To what extent did the music make you feel ,ASHAMED,30MonoWAV/30MonoS4.wav,1,1,3,12,,,,,1,7,23,11,0,5,5,4,,,,,,,,,1,0.4836918569926638,033,001,2019_May_15_1311,MusicAffectPsychophysiology2019,3.0.5,59.99073887488148,
To what extent did the music make you feel ,TENDER,30MonoWAV/30MonoS4.wav,1,1,3,12,,,,,1,7,23,11,0,6,6,10,,,,,,,,,1,0.5012629340053536,033,001,2019_May_15_1311,MusicAffectPsychophysiology2019,3.0.5,59.99073887488148,
To what extent did the music make you feel ,ANGRY,30MonoWAV/30MonoS4.wav,1,1,3,12,,,,,1,7,23,11,0,7,7,2,,,,,,,,,1,0.7680746900150552,033,001,2019_May_15_1311,MusicAffectPsychophysiology2019,3.0.5,59.99073887488148,
To what extent did the music make you feel ,ALERT,30MonoWAV/30MonoS4.wav,1,1,3,12,,,,,1,7,23,11,0,8,8,8,,,,,,,,,1,0.5517053880030289,033,001,2019_May_15_1311,MusicAffectPsychophysiology2019,3.0.5,59.99073887488148,
To what extent did the music make you feel ,FRUSTRATED,30MonoWAV/30MonoS4.wav,1,1,3,12,,,,,1,7,23,11,0,9,9,3,,,,,,,,,1,0.5019939969934057,033,001,2019_May_15_1311,MusicAffectPsychophysiology2019,3.0.5,59.99073887488148,
To what extent did the music make you feel ,ANXIOUS ,30MonoWAV/30MonoS4.wav,1,1,3,12,,,,,1,7,23,11,0,10,10,1,,,,,,,,,1,0.4848750020028092,033,001,2019_May_15_1311,MusicAffectPsychophysiology2019,3.0.5,59.99073887488148,
To what extent did the music make you feel ,SAD,30MonoWAV/30MonoS4.wav,1,1,3,12,,,,,1,7,23,11,0,11,11,0,,,,,,,,,2,0.6017596690217033,033,001,2019_May_15_1311,MusicAffectPsychophysiology2019,3.0.5,59.99073887488148,
,,30MonoWAV/30MonoS4.wav,1,1,3,12,,,,,1,7,23,11,,,,,,,,,,,,,,,033,001,2019_May_15_1311,MusicAffectPsychophysiology2019,3.0.5,59.99073887488148,
To what extent did the music make you feel ,TENDER,30MonoWAV/30MonoF3.wav,1,2,2,3,,,,,1,8,24,2,0,0,0,10,,,2,2.31818777899025,1,0.8683504819928203,1,0.2846660299983341,1,0.9518074789957609,033,001,2019_May_15_1311,MusicAffectPsychophysiology2019,3.0.5,59.99073887488148,
To what extent did the music make you feel ,ALERT,30MonoWAV/30MonoF3.wav,1,2,2,3,,,,,1,8,24,2,0,1,1,8,,,,,,,,,2,1.1349689829803538,033,001,2019_May_15_1311,MusicAffectPsychophysiology2019,3.0.5,59.99073887488148,
To what extent did the music make you feel ,HAPPY,30MonoWAV/30MonoF3.wav,1,2,2,3,,,,,1,8,24,2,0,2,2,6,,,,,,,,,1,0.568947529012803,033,001,2019_May_15_1311,MusicAffectPsychophysiology2019,3.0.5,59.99073887488148,
To what extent did the music make you feel ,FRUSTRATED,30MonoWAV/30MonoF3.wav,1,2,2,3,,,,,1,8,24,2,0,3,3,3,,,,,,,,,1,0.7848818099882919,033,001,2019_May_15_1311,MusicAffectPsychophysiology2019,3.0.5,59.99073887488148,
To what extent did the music make you feel ,EXCITED,30MonoWAV/30MonoF3.wav,1,2,2,3,,,,,1,8,24,2,0,4,4,7,,,,,,,,,1,0.9682428480009548,033,001,2019_May_15_1311,MusicAffectPsychophysiology2019,3.0.5,59.99073887488148,
To what extent did the music make you feel ,GUILTY,30MonoWAV/30MonoF3.wav,1,2,2,3,,,,,1,8,24,2,0,5,5,5,,,,,,,,,1,0.535748237016378,033,001,2019_May_15_1311,MusicAffectPsychophysiology2019,3.0.5,59.99073887488148,
To what extent did the music make you feel ,ASHAMED,30MonoWAV/30MonoF3.wav,1,2,2,3,,,,,1,8,24,2,0,6,6,4,,,,,,,,,1,0.7830712769937236,033,001,2019_May_15_1311,MusicAffectPsychophysiology2019,3.0.5,59.99073887488148,
To what extent did the music make you feel ,ANXIOUS ,30MonoWAV/30MonoF3.wav,1,2,2,3,,,,,1,8,24,2,0,7,7,1,,,,,,,,,1,0.468701946985675,033,001,2019_May_15_1311,MusicAffectPsychophysiology2019,3.0.5,59.99073887488148,
To what extent did the music make you feel ,SAD,30MonoWAV/30MonoF3.wav,1,2,2,3,,,,,1,8,24,2,0,8,8,0,,,,,,,,,1,1.0178394660179038,033,001,2019_May_15_1311,MusicAffectPsychophysiology2019,3.0.5,59.99073887488148,
To what extent did the music make you feel ,ANGRY,30MonoWAV/30MonoF3.wav,1,2,2,3,,,,,1,8,24,2,0,9,9,2,,,,,,,,,1,0.5851517300179694,033,001,2019_May_15_1311,MusicAffectPsychophysiology2019,3.0.5,59.99073887488148,
To what extent did the music make you feel ,SCARED,30MonoWAV/30MonoF3.wav,1,2,2,3,,,,,1,8,24,2,0,10,10,11,,,,,,,,,2,0.9524189270159695,033,001,2019_May_15_1311,MusicAffectPsychophysiology2019,3.0.5,59.99073887488148,
To what extent did the music make you feel ,ACTIVE,30MonoWAV/30MonoF3.wav,1,2,2,3,,,,,1,8,24,2,0,11,11,9,,,,,,,,,1,2.9851495129987597,033,001,2019_May_15_1311,MusicAffectPsychophysiology2019,3.0.5,59.99073887488148,
,,30MonoWAV/30MonoF3.wav,1,2,2,3,,,,,1,8,24,2,,,,,,,,,,,,,,,033,001,2019_May_15_1311,MusicAffectPsychophysiology2019,3.0.5,59.99073887488148,
To what extent did the music make you feel ,SAD,30MonoWAV/30MonoT4.wav,2,1,4,16,,,,,1,9,25,15,0,0,0,0,,,1,2.45648781399359,1,0.3504536510154139,1,0.18505812500370666,2,0.968683532992145,033,001,2019_May_15_1311,MusicAffectPsychophysiology2019,3.0.5,59.99073887488148,
To what extent did the music make you feel ,TENDER,30MonoWAV/30MonoT4.wav,2,1,4,16,,,,,1,9,25,15,0,1,1,10,,,,,,,,,2,0.7022804930165876,033,001,2019_May_15_1311,MusicAffectPsychophysiology2019,3.0.5,59.99073887488148,
To what extent did the music make you feel ,SCARED,30MonoWAV/30MonoT4.wav,2,1,4,16,,,,,1,9,25,15,0,2,2,11,,,,,,,,,1,0.9695830169948749,033,001,2019_May_15_1311,MusicAffectPsychophysiology2019,3.0.5,59.99073887488148,
To what extent did the music make you feel ,FRUSTRATED,30MonoWAV/30MonoT4.wav,2,1,4,16,,,,,1,9,25,15,0,3,3,3,,,,,,,,,2,0.5847336839942727,033,001,2019_May_15_1311,MusicAffectPsychophysiology2019,3.0.5,59.99073887488148,
To what extent did the music make you feel ,EXCITED,30MonoWAV/30MonoT4.wav,2,1,4,16,,,,,1,9,25,15,0,4,4,7,,,,,,,,,1,4.585416791989701,033,001,2019_May_15_1311,MusicAffectPsychophysiology2019,3.0.5,59.99073887488148,
To what extent did the music make you feel ,GUILTY,30MonoWAV/30MonoT4.wav,2,1,4,16,,,,,1,9,25,15,0,5,5,5,,,,,,,,,1,0.9000597079866566,033,001,2019_May_15_1311,MusicAffectPsychophysiology2019,3.0.5,59.99073887488148,
To what extent did the music make you feel ,ANGRY,30MonoWAV/30MonoT4.wav,2,1,4,16,,,,,1,9,25,15,0,6,6,2,,,,,,,,,1,0.5358598369930405,033,001,2019_May_15_1311,MusicAffectPsychophysiology2019,3.0.5,59.99073887488148,
To what extent did the music make you feel ,ACTIVE,30MonoWAV/30MonoT4.wav,2,1,4,16,,,,,1,9,25,15,0,7,7,9,,,,,,,,,1,0.7351246360049117,033,001,2019_May_15_1311,MusicAffectPsychophysiology2019,3.0.5,59.99073887488148,
To what extent did the music make you feel ,ALERT,30MonoWAV/30MonoT4.wav,2,1,4,16,,,,,1,9,25,15,0,8,8,8,,,,,,,,,1,0.2176806920033414,033,001,2019_May_15_1311,MusicAffectPsychophysiology2019,3.0.5,59.99073887488148,
To what extent did the music make you feel ,HAPPY,30MonoWAV/30MonoT4.wav,2,1,4,16,,,,,1,9,25,15,0,9,9,6,,,,,,,,,1,0.4667332489916589,033,001,2019_May_15_1311,MusicAffectPsychophysiology2019,3.0.5,59.99073887488148,
To what extent did the music make you feel ,ASHAMED,30MonoWAV/30MonoT4.wav,2,1,4,16,,,,,1,9,25,15,0,10,10,4,,,,,,,,,1,0.3688382779946551,033,001,2019_May_15_1311,MusicAffectPsychophysiology2019,3.0.5,59.99073887488148,
To what extent did the music make you feel ,ANXIOUS ,30MonoWAV/30MonoT4.wav,2,1,4,16,,,,,1,9,25,15,0,11,11,1,,,,,,,,,1,0.719118637003703,033,001,2019_May_15_1311,MusicAffectPsychophysiology2019,3.0.5,59.99073887488148,
,,30MonoWAV/30MonoT4.wav,2,1,4,16,,,,,1,9,25,15,,,,,,,,,,,,,,,033,001,2019_May_15_1311,MusicAffectPsychophysiology2019,3.0.5,59.99073887488148,
To what extent did the music make you feel ,FRUSTRATED,30MonoWAV/30MonoF1.wav,1,2,2,1,,,,,1,10,26,0,0,0,0,3,,,1,6.5679145739995874,1,0.6851429270172957,1,0.1688829180202447,2,1.7694514069880825,033,001,2019_May_15_1311,MusicAffectPsychophysiology2019,3.0.5,59.99073887488148,
To what extent did the music make you feel ,TENDER,30MonoWAV/30MonoF1.wav,1,2,2,1,,,,,1,10,26,0,0,1,1,10,,,,,,,,,1,0.7502273720165249,033,001,2019_May_15_1311,MusicAffectPsychophysiology2019,3.0.5,59.99073887488148,
To what extent did the music make you feel ,GUILTY,30MonoWAV/30MonoF1.wav,1,2,2,1,,,,,1,10,26,0,0,2,2,5,,,,,,,,,1,0.61896881100256,033,001,2019_May_15_1311,MusicAffectPsychophysiology2019,3.0.5,59.99073887488148,
To what extent did the music make you feel ,ANXIOUS ,30MonoWAV/30MonoF1.wav,1,2,2,1,,,,,1,10,26,0,0,3,3,1,,,,,,,,,2,0.7345983159902971,033,001,2019_May_15_1311,MusicAffectPsychophysiology2019,3.0.5,59.99073887488148,
To what extent did the music make you feel ,ASHAMED,30MonoWAV/30MonoF1.wav,1,2,2,1,,,,,1,10,26,0,0,4,4,4,,,,,,,,,1,1.053518256987445,033,001,2019_May_15_1311,MusicAffectPsychophysiology2019,3.0.5,59.99073887488148,
To what extent did the music make you feel ,EXCITED,30MonoWAV/30MonoF1.wav,1,2,2,1,,,,,1,10,26,0,0,5,5,7,,,,,,,,,1,0.5843841430032626,033,001,2019_May_15_1311,MusicAffectPsychophysiology2019,3.0.5,59.99073887488148,
To what extent did the music make you feel ,SAD,30MonoWAV/30MonoF1.wav,1,2,2,1,,,,,1,10,26,0,0,6,6,0,,,,,,,,,1,0.5364871869969647,033,001,2019_May_15_1311,MusicAffectPsychophysiology2019,3.0.5,59.99073887488148,
To what extent did the music make you feel ,ANGRY,30MonoWAV/30MonoF1.wav,1,2,2,1,,,,,1,10,26,0,0,7,7,2,,,,,,,,,1,0.5181616999907419,033,001,2019_May_15_1311,MusicAffectPsychophysiology2019,3.0.5,59.99073887488148,
To what extent did the music make you feel ,HAPPY,30MonoWAV/30MonoF1.wav,1,2,2,1,,,,,1,10,26,0,0,8,8,6,,,,,,,,,1,0.7187673209991772,033,001,2019_May_15_1311,MusicAffectPsychophysiology2019,3.0.5,59.99073887488148,
To what extent did the music make you feel ,ALERT,30MonoWAV/30MonoF1.wav,1,2,2,1,,,,,1,10,26,0,0,9,9,8,,,,,,,,,2,0.7026605630235281,033,001,2019_May_15_1311,MusicAffectPsychophysiology2019,3.0.5,59.99073887488148,
To what extent did the music make you feel ,ACTIVE,30MonoWAV/30MonoF1.wav,1,2,2,1,,,,,1,10,26,0,0,10,10,9,,,,,,,,,1,0.5185278830176685,033,001,2019_May_15_1311,MusicAffectPsychophysiology2019,3.0.5,59.99073887488148,
To what extent did the music make you feel ,SCARED,30MonoWAV/30MonoF1.wav,1,2,2,1,,,,,1,10,26,0,0,11,11,11,,,,,,,,,2,1.552172558993334,033,001,2019_May_15_1311,MusicAffectPsychophysiology2019,3.0.5,59.99073887488148,
,,30MonoWAV/30MonoF1.wav,1,2,2,1,,,,,1,10,26,0,,,,,,,,,,,,,,,033,001,2019_May_15_1311,MusicAffectPsychophysiology2019,3.0.5,59.99073887488148,
To what extent did the music make you feel ,SAD,30MonoWAV/30MonoH4.wav,2,2,1,8,,,,,1,11,27,7,0,0,0,0,,,2,1.7190527700004168,2,0.10286577101214789,2,0.11898152000503615,1,0.8682829219906125,033,001,2019_May_15_1311,MusicAffectPsychophysiology2019,3.0.5,59.99073887488148,
To what extent did the music make you feel ,ALERT,30MonoWAV/30MonoH4.wav,2,2,1,8,,,,,1,11,27,7,0,1,1,8,,,,,,,,,1,1.1504430750210304,033,001,2019_May_15_1311,MusicAffectPsychophysiology2019,3.0.5,59.99073887488148,
To what extent did the music make you feel ,ACTIVE,30MonoWAV/30MonoH4.wav,2,2,1,8,,,,,1,11,27,7,0,2,2,9,,,,,,,,,2,1.016261584998574,033,001,2019_May_15_1311,MusicAffectPsychophysiology2019,3.0.5,59.99073887488148,
To what extent did the music make you feel ,TENDER,30MonoWAV/30MonoH4.wav,2,2,1,8,,,,,1,11,27,7,0,3,3,10,,,,,,,,,1,0.6521743750199676,033,001,2019_May_15_1311,MusicAffectPsychophysiology2019,3.0.5,59.99073887488148,
To what extent did the music make you feel ,EXCITED,30MonoWAV/30MonoH4.wav,2,2,1,8,,,,,1,11,27,7,0,4,4,7,,,,,,,,,2,0.686203356977785,033,001,2019_May_15_1311,MusicAffectPsychophysiology2019,3.0.5,59.99073887488148,
To what extent did the music make you feel ,ANXIOUS ,30MonoWAV/30MonoH4.wav,2,2,1,8,,,,,1,11,27,7,0,5,5,1,,,,,,,,,1,0.6011925270140637,033,001,2019_May_15_1311,MusicAffectPsychophysiology2019,3.0.5,59.99073887488148,
To what extent did the music make you feel ,FRUSTRATED,30MonoWAV/30MonoH4.wav,2,2,1,8,,,,,1,11,27,7,0,6,6,3,,,,,,,,,1,0.6518612790096086,033,001,2019_May_15_1311,MusicAffectPsychophysiology2019,3.0.5,59.99073887488148,
To what extent did the music make you feel ,GUILTY,30MonoWAV/30MonoH4.wav,2,2,1,8,,,,,1,11,27,7,0,7,7,5,,,,,,,,,1,0.6519974529801402,033,001,2019_May_15_1311,MusicAffectPsychophysiology2019,3.0.5,59.99073887488148,
To what extent did the music make you feel ,ANGRY,30MonoWAV/30MonoH4.wav,2,2,1,8,,,,,1,11,27,7,0,8,8,2,,,,,,,,,1,0.6329079509887379,033,001,2019_May_15_1311,MusicAffectPsychophysiology2019,3.0.5,59.99073887488148,
To what extent did the music make you feel ,HAPPY,30MonoWAV/30MonoH4.wav,2,2,1,8,,,,,1,11,27,7,0,9,9,6,,,,,,,,,2,0.617925576021662,033,001,2019_May_15_1311,MusicAffectPsychophysiology2019,3.0.5,59.99073887488148,
To what extent did the music make you feel ,SCARED,30MonoWAV/30MonoH4.wav,2,2,1,8,,,,,1,11,27,7,0,10,10,11,,,,,,,,,1,0.5503841180179734,033,001,2019_May_15_1311,MusicAffectPsychophysiology2019,3.0.5,59.99073887488148,
To what extent did the music make you feel ,ASHAMED,30MonoWAV/30MonoH4.wav,2,2,1,8,,,,,1,11,27,7,0,11,11,4,,,,,,,,,1,0.7663199020025786,033,001,2019_May_15_1311,MusicAffectPsychophysiology2019,3.0.5,59.99073887488148,
,,30MonoWAV/30MonoH4.wav,2,2,1,8,,,,,1,11,27,7,,,,,,,,,,,,,,,033,001,2019_May_15_1311,MusicAffectPsychophysiology2019,3.0.5,59.99073887488148,
To what extent did the music make you feel ,ACTIVE,30MonoWAV/30MonoF2.wav,1,2,2,2,,,,,1,12,28,1,0,0,0,9,,,1,5.60205820799456,1,0.20189034900977276,1,0.11895767200621776,1,1.4690039010019973,033,001,2019_May_15_1311,MusicAffectPsychophysiology2019,3.0.5,59.99073887488148,
To what extent did the music make you feel ,SAD,30MonoWAV/30MonoF2.wav,1,2,2,2,,,,,1,12,28,1,0,1,1,0,,,,,,,,,1,0.7678088450047653,033,001,2019_May_15_1311,MusicAffectPsychophysiology2019,3.0.5,59.99073887488148,
To what extent did the music make you feel ,FRUSTRATED,30MonoWAV/30MonoF2.wav,1,2,2,2,,,,,1,12,28,1,0,2,2,3,,,,,,,,,1,0.6026097190042492,033,001,2019_May_15_1311,MusicAffectPsychophysiology2019,3.0.5,59.99073887488148,
To what extent did the music make you feel ,GUILTY,30MonoWAV/30MonoF2.wav,1,2,2,2,,,,,1,12,28,1,0,3,3,5,,,,,,,,,1,0.5680650860012975,033,001,2019_May_15_1311,MusicAffectPsychophysiology2019,3.0.5,59.99073887488148,
To what extent did the music make you feel ,ASHAMED,30MonoWAV/30MonoF2.wav,1,2,2,2,,,,,1,12,28,1,0,4,4,4,,,,,,,,,1,0.5845831970218569,033,001,2019_May_15_1311,MusicAffectPsychophysiology2019,3.0.5,59.99073887488148,
To what extent did the music make you feel ,EXCITED,30MonoWAV/30MonoF2.wav,1,2,2,2,,,,,1,12,28,1,0,5,5,7,,,,,,,,,1,0.7194306029996369,033,001,2019_May_15_1311,MusicAffectPsychophysiology2019,3.0.5,59.99073887488148,
To what extent did the music make you feel ,ANXIOUS ,30MonoWAV/30MonoF2.wav,1,2,2,2,,,,,1,12,28,1,0,6,6,1,,,,,,,,,2,0.6515559690014925,033,001,2019_May_15_1311,MusicAffectPsychophysiology2019,3.0.5,59.99073887488148,
To what extent did the music make you feel ,HAPPY,30MonoWAV/30MonoF2.wav,1,2,2,2,,,,,1,12,28,1,0,7,7,6,,,,,,,,,1,0.7188375529949553,033,001,2019_May_15_1311,MusicAffectPsychophysiology2019,3.0.5,59.99073887488148,
To what extent did the music make you feel ,ALERT,30MonoWAV/30MonoF2.wav,1,2,2,2,,,,,1,12,28,1,0,8,8,8,,,,,,,,,3,0.9351871279941406,033,001,2019_May_15_1311,MusicAffectPsychophysiology2019,3.0.5,59.99073887488148,
To what extent did the music make you feel ,TENDER,30MonoWAV/30MonoF2.wav,1,2,2,2,,,,,1,12,28,1,0,9,9,10,,,,,,,,,1,2.768622676987434,033,001,2019_May_15_1311,MusicAffectPsychophysiology2019,3.0.5,59.99073887488148,
To what extent did the music make you feel ,ANGRY,30MonoWAV/30MonoF2.wav,1,2,2,2,,,,,1,12,28,1,0,10,10,2,,,,,,,,,1,0.66882201997214,033,001,2019_May_15_1311,MusicAffectPsychophysiology2019,3.0.5,59.99073887488148,
To what extent did the music make you feel ,SCARED,30MonoWAV/30MonoF2.wav,1,2,2,2,,,,,1,12,28,1,0,11,11,11,,,,,,,,,3,0.8194484479899984,033,001,2019_May_15_1311,MusicAffectPsychophysiology2019,3.0.5,59.99073887488148,
,,30MonoWAV/30MonoF2.wav,1,2,2,2,,,,,1,12,28,1,,,,,,,,,,,,,,,033,001,2019_May_15_1311,MusicAffectPsychophysiology2019,3.0.5,59.99073887488148,
To what extent did the music make you feel ,TENDER,30MonoWAV/30MonoT1.wav,2,1,4,13,,,,,1,13,29,12,0,0,0,10,,,1,2.217123107984662,1,0.13530249500763603,1,0.15227402301388793,2,1.018446950998623,033,001,2019_May_15_1311,MusicAffectPsychophysiology2019,3.0.5,59.99073887488148,
To what extent did the music make you feel ,ANXIOUS ,30MonoWAV/30MonoT1.wav,2,1,4,13,,,,,1,13,29,12,0,1,1,1,,,,,,,,,1,0.5516506479762029,033,001,2019_May_15_1311,MusicAffectPsychophysiology2019,3.0.5,59.99073887488148,
To what extent did the music make you feel ,ALERT,30MonoWAV/30MonoT1.wav,2,1,4,13,,,,,1,13,29,12,0,2,2,8,,,,,,,,,1,0.5858343569852877,033,001,2019_May_15_1311,MusicAffectPsychophysiology2019,3.0.5,59.99073887488148,
To what extent did the music make you feel ,HAPPY,30MonoWAV/30MonoT1.wav,2,1,4,13,,,,,1,13,29,12,0,3,3,6,,,,,,,,,1,0.7342847470135894,033,001,2019_May_15_1311,MusicAffectPsychophysiology2019,3.0.5,59.99073887488148,
To what extent did the music make you feel ,SCARED,30MonoWAV/30MonoT1.wav,2,1,4,13,,,,,1,13,29,12,0,4,4,11,,,,,,,,,1,0.6172500510001555,033,001,2019_May_15_1311,MusicAffectPsychophysiology2019,3.0.5,59.99073887488148,
To what extent did the music make you feel ,SAD,30MonoWAV/30MonoT1.wav,2,1,4,13,,,,,1,13,29,12,0,5,5,0,,,,,,,,,2,0.6015896080061793,033,001,2019_May_15_1311,MusicAffectPsychophysiology2019,3.0.5,59.99073887488148,
To what extent did the music make you feel ,ASHAMED,30MonoWAV/30MonoT1.wav,2,1,4,13,,,,,1,13,29,12,0,6,6,4,,,,,,,,,1,0.25231750300736167,033,001,2019_May_15_1311,MusicAffectPsychophysiology2019,3.0.5,59.99073887488148,
To what extent did the music make you feel ,ANGRY,30MonoWAV/30MonoT1.wav,2,1,4,13,,,,,1,13,29,12,0,7,7,2,,,,,,,,,1,0.5193805769958999,033,001,2019_May_15_1311,MusicAffectPsychophysiology2019,3.0.5,59.99073887488148,
To what extent did the music make you feel ,GUILTY,30MonoWAV/30MonoT1.wav,2,1,4,13,,,,,1,13,29,12,0,8,8,5,,,,,,,,,1,0.4845415469899308,033,001,2019_May_15_1311,MusicAffectPsychophysiology2019,3.0.5,59.99073887488148,
To what extent did the music make you feel ,FRUSTRATED,30MonoWAV/30MonoT1.wav,2,1,4,13,,,,,1,13,29,12,0,9,9,3,,,,,,,,,1,0.352417129004607,033,001,2019_May_15_1311,MusicAffectPsychophysiology2019,3.0.5,59.99073887488148,
To what extent did the music make you feel ,ACTIVE,30MonoWAV/30MonoT1.wav,2,1,4,13,,,,,1,13,29,12,0,10,10,9,,,,,,,,,1,0.383272760984255,033,001,2019_May_15_1311,MusicAffectPsychophysiology2019,3.0.5,59.99073887488148,
To what extent did the music make you feel ,EXCITED,30MonoWAV/30MonoT1.wav,2,1,4,13,,,,,1,13,29,12,0,11,11,7,,,,,,,,,1,0.301223371992819,033,001,2019_May_15_1311,MusicAffectPsychophysiology2019,3.0.5,59.99073887488148,
,,30MonoWAV/30MonoT1.wav,2,1,4,13,,,,,1,13,29,12,,,,,,,,,,,,,,,033,001,2019_May_15_1311,MusicAffectPsychophysiology2019,3.0.5,59.99073887488148,
To what extent did the music make you feel ,EXCITED,30MonoWAV/30MonoT3.wav,2,1,4,15,,,,,1,14,30,14,0,0,0,7,,,1,2.5755216580000706,1,0.117745825991733,1,0.13508306900621392,1,0.7849990359973162,033,001,2019_May_15_1311,MusicAffectPsychophysiology2019,3.0.5,59.99073887488148,
To what extent did the music make you feel ,ACTIVE,30MonoWAV/30MonoT3.wav,2,1,4,15,,,,,1,14,30,14,0,1,1,9,,,,,,,,,1,0.5025033240090124,033,001,2019_May_15_1311,MusicAffectPsychophysiology2019,3.0.5,59.99073887488148,
To what extent did the music make you feel ,GUILTY,30MonoWAV/30MonoT3.wav,2,1,4,15,,,,,1,14,30,14,0,2,2,5,,,,,,,,,1,1.1037280089803971,033,001,2019_May_15_1311,MusicAffectPsychophysiology2019,3.0.5,59.99073887488148,
To what extent did the music make you feel ,ALERT,30MonoWAV/30MonoT3.wav,2,1,4,15,,,,,1,14,30,14,0,3,3,8,,,,,,,,,1,0.4853710960014723,033,001,2019_May_15_1311,MusicAffectPsychophysiology2019,3.0.5,59.99073887488148,
To what extent did the music make you feel ,ANXIOUS ,30MonoWAV/30MonoT3.wav,2,1,4,15,,,,,1,14,30,14,0,4,4,1,,,,,,,,,1,0.569020572991576,033,001,2019_May_15_1311,MusicAffectPsychophysiology2019,3.0.5,59.99073887488148,
To what extent did the music make you feel ,SAD,30MonoWAV/30MonoT3.wav,2,1,4,15,,,,,1,14,30,14,0,5,5,0,,,,,,,,,2,0.6186075489968061,033,001,2019_May_15_1311,MusicAffectPsychophysiology2019,3.0.5,59.99073887488148,
To what extent did the music make you feel ,ANGRY,30MonoWAV/30MonoT3.wav,2,1,4,15,,,,,1,14,30,14,0,6,6,2,,,,,,,,,1,0.26904668999486603,033,001,2019_May_15_1311,MusicAffectPsychophysiology2019,3.0.5,59.99073887488148,
To what extent did the music make you feel ,TENDER,30MonoWAV/30MonoT3.wav,2,1,4,15,,,,,1,14,30,14,0,7,7,10,,,,,,,,,2,0.6736239210003987,033,001,2019_May_15_1311,MusicAffectPsychophysiology2019,3.0.5,59.99073887488148,
To what extent did the music make you feel ,ASHAMED,30MonoWAV/30MonoT3.wav,2,1,4,15,,,,,1,14,30,14,0,8,8,4,,,,,,,,,1,0.2024928420141805,033,001,2019_May_15_1311,MusicAffectPsychophysiology2019,3.0.5,59.99073887488148,
To what extent did the music make you feel ,HAPPY,30MonoWAV/30MonoT3.wav,2,1,4,15,,,,,1,14,30,14,0,9,9,6,,,,,,,,,1,0.4347565339994617,033,001,2019_May_15_1311,MusicAffectPsychophysiology2019,3.0.5,59.99073887488148,
To what extent did the music make you feel ,FRUSTRATED,30MonoWAV/30MonoT3.wav,2,1,4,15,,,,,1,14,30,14,0,10,10,3,,,,,,,,,1,0.36891712198848836,033,001,2019_May_15_1311,MusicAffectPsychophysiology2019,3.0.5,59.99073887488148,
To what extent did the music make you feel ,SCARED,30MonoWAV/30MonoT3.wav,2,1,4,15,,,,,1,14,30,14,0,11,11,11,,,,,,,,,1,0.13566121697658673,033,001,2019_May_15_1311,MusicAffectPsychophysiology2019,3.0.5,59.99073887488148,
,,30MonoWAV/30MonoT3.wav,2,1,4,15,,,,,1,14,30,14,,,,,,,,,,,,,,,033,001,2019_May_15_1311,MusicAffectPsychophysiology2019,3.0.5,59.99073887488148,
To what extent did the music make you feel ,EXCITED,30MonoWAV/30MonoF4.wav,1,2,2,4,,,,,1,15,31,3,0,0,0,7,,,1,1.589375804993324,1,0.5526468309981283,1,0.08511658900533803,1,0.7197644640109502,033,001,2019_May_15_1311,MusicAffectPsychophysiology2019,3.0.5,59.99073887488148,
To what extent did the music make you feel ,HAPPY,30MonoWAV/30MonoF4.wav,1,2,2,4,,,,,1,15,31,3,0,1,1,6,,,,,,,,,1,0.4353595929860603,033,001,2019_May_15_1311,MusicAffectPsychophysiology2019,3.0.5,59.99073887488148,
To what extent did the music make you feel ,SCARED,30MonoWAV/30MonoF4.wav,1,2,2,4,,,,,1,15,31,3,0,2,2,11,,,,,,,,,2,0.9860270339995623,033,001,2019_May_15_1311,MusicAffectPsychophysiology2019,3.0.5,59.99073887488148,
To what extent did the music make you feel ,ANXIOUS ,30MonoWAV/30MonoF4.wav,1,2,2,4,,,,,1,15,31,3,0,3,3,1,,,,,,,,,2,0.5358376009971835,033,001,2019_May_15_1311,MusicAffectPsychophysiology2019,3.0.5,59.99073887488148,
To what extent did the music make you feel ,FRUSTRATED,30MonoWAV/30MonoF4.wav,1,2,2,4,,,,,1,15,31,3,0,4,4,3,,,,,,,,,1,0.5523536110122222,033,001,2019_May_15_1311,MusicAffectPsychophysiology2019,3.0.5,59.99073887488148,
To what extent did the music make you feel ,ACTIVE,30MonoWAV/30MonoF4.wav,1,2,2,4,,,,,1,15,31,3,0,5,5,9,,,,,,,,,2,0.3360264970106073,033,001,2019_May_15_1311,MusicAffectPsychophysiology2019,3.0.5,59.99073887488148,
To what extent did the music make you feel ,ASHAMED,30MonoWAV/30MonoF4.wav,1,2,2,4,,,,,1,15,31,3,0,6,6,4,,,,,,,,,1,1.419650524010649,033,001,2019_May_15_1311,MusicAffectPsychophysiology2019,3.0.5,59.99073887488148,
To what extent did the music make you feel ,SAD,30MonoWAV/30MonoF4.wav,1,2,2,4,,,,,1,15,31,3,0,7,7,0,,,,,,,,,1,0.2339703800098505,033,001,2019_May_15_1311,MusicAffectPsychophysiology2019,3.0.5,59.99073887488148,
To what extent did the music make you feel ,GUILTY,30MonoWAV/30MonoF4.wav,1,2,2,4,,,,,1,15,31,3,0,8,8,5,,,,,,,,,1,1.0399770550138783,033,001,2019_May_15_1311,MusicAffectPsychophysiology2019,3.0.5,59.99073887488148,
To what extent did the music make you feel ,TENDER,30MonoWAV/30MonoF4.wav,1,2,2,4,,,,,1,15,31,3,0,9,9,10,,,,,,,,,1,0.4516479700105265,033,001,2019_May_15_1311,MusicAffectPsychophysiology2019,3.0.5,59.99073887488148,
To what extent did the music make you feel ,ALERT,30MonoWAV/30MonoF4.wav,1,2,2,4,,,,,1,15,31,3,0,10,10,8,,,,,,,,,2,0.7527383719861973,033,001,2019_May_15_1311,MusicAffectPsychophysiology2019,3.0.5,59.99073887488148,
To what extent did the music make you feel ,ANGRY,30MonoWAV/30MonoF4.wav,1,2,2,4,,,,,1,15,31,3,0,11,11,2,,,,,,,,,1,0.4186688729969319,033,001,2019_May_15_1311,MusicAffectPsychophysiology2019,3.0.5,59.99073887488148,
,,30MonoWAV/30MonoF4.wav,1,2,2,4,,,,,1,15,31,3,,,,,,,,,,,,,,,033,001,2019_May_15_1311,MusicAffectPsychophysiology2019,3.0.5,59.99073887488148,
