Instruction,Word,song,valence,arousal,affectcat,songmark,pracwords.thisRepN,pracwords.thisTrialN,pracwords.thisN,pracwords.thisIndex,songtrials.thisRepN,songtrials.thisTrialN,songtrials.thisN,songtrials.thisIndex,words.thisRepN,words.thisTrialN,words.thisN,words.thisIndex,begin.keys,begin.rt,arousalkey.keys,arousalkey.rt,valencekey.keys,valencekey.rt,likekey.keys,likekey.rt,WordResponse.keys,WordResponse.rt,key_resp_2.keys,key_resp_2.rt,participant,session,date,expName,psychopyVersion,frameRate,
,,,,,,,,,,,,,,,,,,,space,5.300464287982322,,,,,,,,,,,034,001,2019_May_15_1410,MusicAffectPsychophysiology2019,3.0.5,59.911751299156634,
,,,,,,,,,,,,,,,,,,,,,1,4.635573995998129,,,,,,,,,034,001,2019_May_15_1410,MusicAffectPsychophysiology2019,3.0.5,59.911751299156634,
,,,,,,,,,,,,,,,,,,,,,,,3,4.051623781997478,,,,,,,034,001,2019_May_15_1410,MusicAffectPsychophysiology2019,3.0.5,59.911751299156634,
,,,,,,,,,,,,,,,,,,,,,,,,,2,2.1019220339949243,,,,,034,001,2019_May_15_1410,MusicAffectPsychophysiology2019,3.0.5,59.911751299156634,
To what extent did the music make you feel ,ASHAMED,,,,,,0,0,0,4,,,,,,,,,,,,,,,,,3,3.8685102319868747,,,034,001,2019_May_15_1410,MusicAffectPsychophysiology2019,3.0.5,59.911751299156634,
To what extent did the music make you feel ,SCARED,,,,,,0,1,1,11,,,,,,,,,,,,,,,,,2,1.7186046169954352,,,034,001,2019_May_15_1410,MusicAffectPsychophysiology2019,3.0.5,59.911751299156634,
To what extent did the music make you feel ,HAPPY,,,,,,0,2,2,6,,,,,,,,,,,,,,,,,3,1.2512627999822143,,,034,001,2019_May_15_1410,MusicAffectPsychophysiology2019,3.0.5,59.911751299156634,
To what extent did the music make you feel ,TENDER,,,,,,0,3,3,10,,,,,,,,,,,,,,,,,2,0.7848852250026539,,,034,001,2019_May_15_1410,MusicAffectPsychophysiology2019,3.0.5,59.911751299156634,
To what extent did the music make you feel ,GUILTY,,,,,,0,4,4,5,,,,,,,,,,,,,,,,,3,0.7169917160063051,,,034,001,2019_May_15_1410,MusicAffectPsychophysiology2019,3.0.5,59.911751299156634,
To what extent did the music make you feel ,ANGRY,,,,,,0,5,5,2,,,,,,,,,,,,,,,,,2,0.9669251110171899,,,034,001,2019_May_15_1410,MusicAffectPsychophysiology2019,3.0.5,59.911751299156634,
To what extent did the music make you feel ,ALERT,,,,,,0,6,6,8,,,,,,,,,,,,,,,,,2,1.269481844996335,,,034,001,2019_May_15_1410,MusicAffectPsychophysiology2019,3.0.5,59.911751299156634,
To what extent did the music make you feel ,ANXIOUS ,,,,,,0,7,7,1,,,,,,,,,,,,,,,,,2,0.7178099240118172,,,034,001,2019_May_15_1410,MusicAffectPsychophysiology2019,3.0.5,59.911751299156634,
To what extent did the music make you feel ,ACTIVE,,,,,,0,8,8,9,,,,,,,,,,,,,,,,,2,0.9009484940033872,,,034,001,2019_May_15_1410,MusicAffectPsychophysiology2019,3.0.5,59.911751299156634,
To what extent did the music make you feel ,EXCITED,,,,,,0,9,9,7,,,,,,,,,,,,,,,,,2,0.8851126939989626,,,034,001,2019_May_15_1410,MusicAffectPsychophysiology2019,3.0.5,59.911751299156634,
To what extent did the music make you feel ,FRUSTRATED,,,,,,0,10,10,3,,,,,,,,,,,,,,,,,2,0.6519346889981534,,,034,001,2019_May_15_1410,MusicAffectPsychophysiology2019,3.0.5,59.911751299156634,
To what extent did the music make you feel ,SAD,,,,,,0,11,11,0,,,,,,,,,,,,,,,,,2,0.7842812260205392,,,034,001,2019_May_15_1410,MusicAffectPsychophysiology2019,3.0.5,59.911751299156634,
To what extent did the music make you feel ,ALERT,30MonoWAV/30MonoH4.wav,2,2,1,8,,,,,0,0,0,7,0,0,0,8,,,1,6.645225157000823,2,1.9410849199921358,2,1.6684626379865222,2,1.61941556900274,,,034,001,2019_May_15_1410,MusicAffectPsychophysiology2019,3.0.5,59.911751299156634,
To what extent did the music make you feel ,GUILTY,30MonoWAV/30MonoH4.wav,2,2,1,8,,,,,0,0,0,7,0,1,1,5,,,,,,,,,2,0.8508083280175924,,,034,001,2019_May_15_1410,MusicAffectPsychophysiology2019,3.0.5,59.911751299156634,
To what extent did the music make you feel ,FRUSTRATED,30MonoWAV/30MonoH4.wav,2,2,1,8,,,,,0,0,0,7,0,2,2,3,,,,,,,,,2,0.7513507989933714,,,034,001,2019_May_15_1410,MusicAffectPsychophysiology2019,3.0.5,59.911751299156634,
To what extent did the music make you feel ,SAD,30MonoWAV/30MonoH4.wav,2,2,1,8,,,,,0,0,0,7,0,3,3,0,,,,,,,,,1,1.200815532996785,,,034,001,2019_May_15_1410,MusicAffectPsychophysiology2019,3.0.5,59.911751299156634,
To what extent did the music make you feel ,ASHAMED,30MonoWAV/30MonoH4.wav,2,2,1,8,,,,,0,0,0,7,0,4,4,4,,,,,,,,,1,0.9174569959868677,,,034,001,2019_May_15_1410,MusicAffectPsychophysiology2019,3.0.5,59.911751299156634,
To what extent did the music make you feel ,ANGRY,30MonoWAV/30MonoH4.wav,2,2,1,8,,,,,0,0,0,7,0,5,5,2,,,,,,,,,1,0.5689764790004119,,,034,001,2019_May_15_1410,MusicAffectPsychophysiology2019,3.0.5,59.911751299156634,
To what extent did the music make you feel ,HAPPY,30MonoWAV/30MonoH4.wav,2,2,1,8,,,,,0,0,0,7,0,6,6,6,,,,,,,,,2,0.801284985995153,,,034,001,2019_May_15_1410,MusicAffectPsychophysiology2019,3.0.5,59.911751299156634,
To what extent did the music make you feel ,EXCITED,30MonoWAV/30MonoH4.wav,2,2,1,8,,,,,0,0,0,7,0,7,7,7,,,,,,,,,2,0.8186984439962544,,,034,001,2019_May_15_1410,MusicAffectPsychophysiology2019,3.0.5,59.911751299156634,
To what extent did the music make you feel ,TENDER,30MonoWAV/30MonoH4.wav,2,2,1,8,,,,,0,0,0,7,0,8,8,10,,,,,,,,,2,0.7848784920061007,,,034,001,2019_May_15_1410,MusicAffectPsychophysiology2019,3.0.5,59.911751299156634,
To what extent did the music make you feel ,ACTIVE,30MonoWAV/30MonoH4.wav,2,2,1,8,,,,,0,0,0,7,0,9,9,9,,,,,,,,,1,0.5684376549907029,,,034,001,2019_May_15_1410,MusicAffectPsychophysiology2019,3.0.5,59.911751299156634,
To what extent did the music make you feel ,ANXIOUS ,30MonoWAV/30MonoH4.wav,2,2,1,8,,,,,0,0,0,7,0,10,10,1,,,,,,,,,1,0.5335538329964038,,,034,001,2019_May_15_1410,MusicAffectPsychophysiology2019,3.0.5,59.911751299156634,
To what extent did the music make you feel ,SCARED,30MonoWAV/30MonoH4.wav,2,2,1,8,,,,,0,0,0,7,0,11,11,11,,,,,,,,,1,0.4000079930119682,,,034,001,2019_May_15_1410,MusicAffectPsychophysiology2019,3.0.5,59.911751299156634,
,,30MonoWAV/30MonoH4.wav,2,2,1,8,,,,,0,0,0,7,,,,,,,,,,,,,,,,,034,001,2019_May_15_1410,MusicAffectPsychophysiology2019,3.0.5,59.911751299156634,
To what extent did the music make you feel ,ANGRY,30MonoWAV/30MonoH3.wav,2,2,1,7,,,,,0,1,1,6,0,0,0,2,,,1,2.803256690996932,2,3.4415277410007548,1,1.3373042870080099,1,3.3397565679915715,,,034,001,2019_May_15_1410,MusicAffectPsychophysiology2019,3.0.5,59.911751299156634,
To what extent did the music make you feel ,ACTIVE,30MonoWAV/30MonoH3.wav,2,2,1,7,,,,,0,1,1,6,0,1,1,9,,,,,,,,,1,0.7733873839897569,,,034,001,2019_May_15_1410,MusicAffectPsychophysiology2019,3.0.5,59.911751299156634,
To what extent did the music make you feel ,ASHAMED,30MonoWAV/30MonoH3.wav,2,2,1,7,,,,,0,1,1,6,0,2,2,4,,,,,,,,,1,0.5681624670105521,,,034,001,2019_May_15_1410,MusicAffectPsychophysiology2019,3.0.5,59.911751299156634,
To what extent did the music make you feel ,EXCITED,30MonoWAV/30MonoH3.wav,2,2,1,7,,,,,0,1,1,6,0,3,3,7,,,,,,,,,2,0.6511131720035337,,,034,001,2019_May_15_1410,MusicAffectPsychophysiology2019,3.0.5,59.911751299156634,
To what extent did the music make you feel ,TENDER,30MonoWAV/30MonoH3.wav,2,2,1,7,,,,,0,1,1,6,0,4,4,10,,,,,,,,,2,0.7524693179875612,,,034,001,2019_May_15_1410,MusicAffectPsychophysiology2019,3.0.5,59.911751299156634,
To what extent did the music make you feel ,ALERT,30MonoWAV/30MonoH3.wav,2,2,1,7,,,,,0,1,1,6,0,5,5,8,,,,,,,,,1,0.3360383590043057,,,034,001,2019_May_15_1410,MusicAffectPsychophysiology2019,3.0.5,59.911751299156634,
To what extent did the music make you feel ,ANXIOUS ,30MonoWAV/30MonoH3.wav,2,2,1,7,,,,,0,1,1,6,0,6,6,1,,,,,,,,,1,0.4350610140245408,,,034,001,2019_May_15_1410,MusicAffectPsychophysiology2019,3.0.5,59.911751299156634,
To what extent did the music make you feel ,SCARED,30MonoWAV/30MonoH3.wav,2,2,1,7,,,,,0,1,1,6,0,7,7,11,,,,,,,,,1,0.535198161000153,,,034,001,2019_May_15_1410,MusicAffectPsychophysiology2019,3.0.5,59.911751299156634,
To what extent did the music make you feel ,HAPPY,30MonoWAV/30MonoH3.wav,2,2,1,7,,,,,0,1,1,6,0,8,8,6,,,,,,,,,1,0.5014917390071787,,,034,001,2019_May_15_1410,MusicAffectPsychophysiology2019,3.0.5,59.911751299156634,
To what extent did the music make you feel ,FRUSTRATED,30MonoWAV/30MonoH3.wav,2,2,1,7,,,,,0,1,1,6,0,9,9,3,,,,,,,,,1,0.9025158099830151,,,034,001,2019_May_15_1410,MusicAffectPsychophysiology2019,3.0.5,59.911751299156634,
To what extent did the music make you feel ,GUILTY,30MonoWAV/30MonoH3.wav,2,2,1,7,,,,,0,1,1,6,0,10,10,5,,,,,,,,,1,0.5842760980012827,,,034,001,2019_May_15_1410,MusicAffectPsychophysiology2019,3.0.5,59.911751299156634,
To what extent did the music make you feel ,SAD,30MonoWAV/30MonoH3.wav,2,2,1,7,,,,,0,1,1,6,0,11,11,0,,,,,,,,,1,0.5186247719975654,,,034,001,2019_May_15_1410,MusicAffectPsychophysiology2019,3.0.5,59.911751299156634,
,,30MonoWAV/30MonoH3.wav,2,2,1,7,,,,,0,1,1,6,,,,,,,,,,,,,,,,,034,001,2019_May_15_1410,MusicAffectPsychophysiology2019,3.0.5,59.911751299156634,
To what extent did the music make you feel ,EXCITED,30MonoWAV/30MonoS4.wav,1,1,3,12,,,,,0,2,2,11,0,0,0,7,,,1,2.9175844349956606,2,2.449634505988797,3,2.186342423025053,1,1.7338568000122905,,,034,001,2019_May_15_1410,MusicAffectPsychophysiology2019,3.0.5,59.911751299156634,
To what extent did the music make you feel ,SAD,30MonoWAV/30MonoS4.wav,1,1,3,12,,,,,0,2,2,11,0,1,1,0,,,,,,,,,3,1.38560490499367,,,034,001,2019_May_15_1410,MusicAffectPsychophysiology2019,3.0.5,59.911751299156634,
To what extent did the music make you feel ,ALERT,30MonoWAV/30MonoS4.wav,1,1,3,12,,,,,0,2,2,11,0,2,2,8,,,,,,,,,1,1.352021725004306,,,034,001,2019_May_15_1410,MusicAffectPsychophysiology2019,3.0.5,59.911751299156634,
To what extent did the music make you feel ,ANGRY,30MonoWAV/30MonoS4.wav,1,1,3,12,,,,,0,2,2,11,0,3,3,2,,,,,,,,,1,0.9352556070080027,,,034,001,2019_May_15_1410,MusicAffectPsychophysiology2019,3.0.5,59.911751299156634,
To what extent did the music make you feel ,ASHAMED,30MonoWAV/30MonoS4.wav,1,1,3,12,,,,,0,2,2,11,0,4,4,4,,,,,,,,,1,0.6688330720062368,,,034,001,2019_May_15_1410,MusicAffectPsychophysiology2019,3.0.5,59.911751299156634,
To what extent did the music make you feel ,ACTIVE,30MonoWAV/30MonoS4.wav,1,1,3,12,,,,,0,2,2,11,0,5,5,9,,,,,,,,,1,0.7179284350131638,,,034,001,2019_May_15_1410,MusicAffectPsychophysiology2019,3.0.5,59.911751299156634,
To what extent did the music make you feel ,GUILTY,30MonoWAV/30MonoS4.wav,1,1,3,12,,,,,0,2,2,11,0,6,6,5,,,,,,,,,1,0.6354997199960053,,,034,001,2019_May_15_1410,MusicAffectPsychophysiology2019,3.0.5,59.911751299156634,
To what extent did the music make you feel ,ANXIOUS ,30MonoWAV/30MonoS4.wav,1,1,3,12,,,,,0,2,2,11,0,7,7,1,,,,,,,,,2,1.919227222999325,,,034,001,2019_May_15_1410,MusicAffectPsychophysiology2019,3.0.5,59.911751299156634,
To what extent did the music make you feel ,HAPPY,30MonoWAV/30MonoS4.wav,1,1,3,12,,,,,0,2,2,11,0,8,8,6,,,,,,,,,2,1.1848198390216567,,,034,001,2019_May_15_1410,MusicAffectPsychophysiology2019,3.0.5,59.911751299156634,
To what extent did the music make you feel ,FRUSTRATED,30MonoWAV/30MonoS4.wav,1,1,3,12,,,,,0,2,2,11,0,9,9,3,,,,,,,,,1,1.1163455549976788,,,034,001,2019_May_15_1410,MusicAffectPsychophysiology2019,3.0.5,59.911751299156634,
To what extent did the music make you feel ,TENDER,30MonoWAV/30MonoS4.wav,1,1,3,12,,,,,0,2,2,11,0,10,10,10,,,,,,,,,4,1.5697058869991452,,,034,001,2019_May_15_1410,MusicAffectPsychophysiology2019,3.0.5,59.911751299156634,
To what extent did the music make you feel ,SCARED,30MonoWAV/30MonoS4.wav,1,1,3,12,,,,,0,2,2,11,0,11,11,11,,,,,,,,,1,1.1689199149841443,,,034,001,2019_May_15_1410,MusicAffectPsychophysiology2019,3.0.5,59.911751299156634,
,,30MonoWAV/30MonoS4.wav,1,1,3,12,,,,,0,2,2,11,,,,,,,,,,,,,,,,,034,001,2019_May_15_1410,MusicAffectPsychophysiology2019,3.0.5,59.911751299156634,
To what extent did the music make you feel ,EXCITED,30MonoWAV/30MonoF1.wav,1,2,2,1,,,,,0,3,3,0,0,0,0,7,,,3,2.605001193995122,1,1.3872260710049886,1,1.1063570459955372,2,1.90109301902703,,,034,001,2019_May_15_1410,MusicAffectPsychophysiology2019,3.0.5,59.911751299156634,
To what extent did the music make you feel ,TENDER,30MonoWAV/30MonoF1.wav,1,2,2,1,,,,,0,3,3,0,0,1,1,10,,,,,,,,,1,1.0692021290014964,,,034,001,2019_May_15_1410,MusicAffectPsychophysiology2019,3.0.5,59.911751299156634,
To what extent did the music make you feel ,ANGRY,30MonoWAV/30MonoF1.wav,1,2,2,1,,,,,0,3,3,0,0,2,2,2,,,,,,,,,4,1.402671054995153,,,034,001,2019_May_15_1410,MusicAffectPsychophysiology2019,3.0.5,59.911751299156634,
To what extent did the music make you feel ,SAD,30MonoWAV/30MonoF1.wav,1,2,2,1,,,,,0,3,3,0,0,3,3,0,,,,,,,,,1,1.1181202320149168,,,034,001,2019_May_15_1410,MusicAffectPsychophysiology2019,3.0.5,59.911751299156634,
To what extent did the music make you feel ,ACTIVE,30MonoWAV/30MonoF1.wav,1,2,2,1,,,,,0,3,3,0,0,4,4,9,,,,,,,,,3,1.1847860330017284,,,034,001,2019_May_15_1410,MusicAffectPsychophysiology2019,3.0.5,59.911751299156634,
To what extent did the music make you feel ,SCARED,30MonoWAV/30MonoF1.wav,1,2,2,1,,,,,0,3,3,0,0,5,5,11,,,,,,,,,1,0.8513944610022008,,,034,001,2019_May_15_1410,MusicAffectPsychophysiology2019,3.0.5,59.911751299156634,
To what extent did the music make you feel ,ANXIOUS ,30MonoWAV/30MonoF1.wav,1,2,2,1,,,,,0,3,3,0,0,6,6,1,,,,,,,,,3,1.352623715007212,,,034,001,2019_May_15_1410,MusicAffectPsychophysiology2019,3.0.5,59.911751299156634,
To what extent did the music make you feel ,GUILTY,30MonoWAV/30MonoF1.wav,1,2,2,1,,,,,0,3,3,0,0,7,7,5,,,,,,,,,1,1.100691598985577,,,034,001,2019_May_15_1410,MusicAffectPsychophysiology2019,3.0.5,59.911751299156634,
To what extent did the music make you feel ,HAPPY,30MonoWAV/30MonoF1.wav,1,2,2,1,,,,,0,3,3,0,0,8,8,6,,,,,,,,,2,1.0357723480265122,,,034,001,2019_May_15_1410,MusicAffectPsychophysiology2019,3.0.5,59.911751299156634,
To what extent did the music make you feel ,ALERT,30MonoWAV/30MonoF1.wav,1,2,2,1,,,,,0,3,3,0,0,9,9,8,,,,,,,,,1,0.6686676980170887,,,034,001,2019_May_15_1410,MusicAffectPsychophysiology2019,3.0.5,59.911751299156634,
To what extent did the music make you feel ,FRUSTRATED,30MonoWAV/30MonoF1.wav,1,2,2,1,,,,,0,3,3,0,0,10,10,3,,,,,,,,,3,0.5519534240011126,,,034,001,2019_May_15_1410,MusicAffectPsychophysiology2019,3.0.5,59.911751299156634,
To what extent did the music make you feel ,ASHAMED,30MonoWAV/30MonoF1.wav,1,2,2,1,,,,,0,3,3,0,0,11,11,4,,,,,,,,,2,0.8160997489758302,,,034,001,2019_May_15_1410,MusicAffectPsychophysiology2019,3.0.5,59.911751299156634,
,,30MonoWAV/30MonoF1.wav,1,2,2,1,,,,,0,3,3,0,,,,,,,,,,,,,,,,,034,001,2019_May_15_1410,MusicAffectPsychophysiology2019,3.0.5,59.911751299156634,
To what extent did the music make you feel ,ACTIVE,30MonoWAV/30MonoS2.wav,1,1,3,10,,,,,0,4,4,9,0,0,0,9,,,1,2.2835503300011624,3,2.334212894027587,4,1.617644609999843,1,1.2179102009977214,,,034,001,2019_May_15_1410,MusicAffectPsychophysiology2019,3.0.5,59.911751299156634,
To what extent did the music make you feel ,SCARED,30MonoWAV/30MonoS2.wav,1,1,3,10,,,,,0,4,4,9,0,1,1,11,,,,,,,,,1,1.3691620260069612,,,034,001,2019_May_15_1410,MusicAffectPsychophysiology2019,3.0.5,59.911751299156634,
To what extent did the music make you feel ,ASHAMED,30MonoWAV/30MonoS2.wav,1,1,3,10,,,,,0,4,4,9,0,2,2,4,,,,,,,,,1,0.6848400240123738,,,034,001,2019_May_15_1410,MusicAffectPsychophysiology2019,3.0.5,59.911751299156634,
To what extent did the music make you feel ,TENDER,30MonoWAV/30MonoS2.wav,1,1,3,10,,,,,0,4,4,9,0,3,3,10,,,,,,,,,4,1.1851001089962665,,,034,001,2019_May_15_1410,MusicAffectPsychophysiology2019,3.0.5,59.911751299156634,
To what extent did the music make you feel ,FRUSTRATED,30MonoWAV/30MonoS2.wav,1,1,3,10,,,,,0,4,4,9,0,4,4,3,,,,,,,,,1,0.768602980999276,,,034,001,2019_May_15_1410,MusicAffectPsychophysiology2019,3.0.5,59.911751299156634,
To what extent did the music make you feel ,ANXIOUS ,30MonoWAV/30MonoS2.wav,1,1,3,10,,,,,0,4,4,9,0,5,5,1,,,,,,,,,1,1.420544783002697,,,034,001,2019_May_15_1410,MusicAffectPsychophysiology2019,3.0.5,59.911751299156634,
To what extent did the music make you feel ,ANGRY,30MonoWAV/30MonoS2.wav,1,1,3,10,,,,,0,4,4,9,0,6,6,2,,,,,,,,,1,0.8517322599946056,,,034,001,2019_May_15_1410,MusicAffectPsychophysiology2019,3.0.5,59.911751299156634,
To what extent did the music make you feel ,HAPPY,30MonoWAV/30MonoS2.wav,1,1,3,10,,,,,0,4,4,9,0,7,7,6,,,,,,,,,2,1.3188374509918503,,,034,001,2019_May_15_1410,MusicAffectPsychophysiology2019,3.0.5,59.911751299156634,
To what extent did the music make you feel ,EXCITED,30MonoWAV/30MonoS2.wav,1,1,3,10,,,,,0,4,4,9,0,8,8,7,,,,,,,,,1,1.301775584986899,,,034,001,2019_May_15_1410,MusicAffectPsychophysiology2019,3.0.5,59.911751299156634,
To what extent did the music make you feel ,ALERT,30MonoWAV/30MonoS2.wav,1,1,3,10,,,,,0,4,4,9,0,9,9,8,,,,,,,,,1,1.1177013179985806,,,034,001,2019_May_15_1410,MusicAffectPsychophysiology2019,3.0.5,59.911751299156634,
To what extent did the music make you feel ,SAD,30MonoWAV/30MonoS2.wav,1,1,3,10,,,,,0,4,4,9,0,10,10,0,,,,,,,,,3,1.3526417220127769,,,034,001,2019_May_15_1410,MusicAffectPsychophysiology2019,3.0.5,59.911751299156634,
To what extent did the music make you feel ,GUILTY,30MonoWAV/30MonoS2.wav,1,1,3,10,,,,,0,4,4,9,0,11,11,5,,,,,,,,,1,0.8667440429853741,,,034,001,2019_May_15_1410,MusicAffectPsychophysiology2019,3.0.5,59.911751299156634,
,,30MonoWAV/30MonoS2.wav,1,1,3,10,,,,,0,4,4,9,,,,,,,,,,,,,,,,,034,001,2019_May_15_1410,MusicAffectPsychophysiology2019,3.0.5,59.911751299156634,
To what extent did the music make you feel ,ANGRY,30MonoWAV/30MonoF2.wav,1,2,2,2,,,,,0,5,5,1,0,0,0,2,,,3,2.9687020409910474,1,1.201467684993986,1,1.300946686998941,3,1.2688493960013147,,,034,001,2019_May_15_1410,MusicAffectPsychophysiology2019,3.0.5,59.911751299156634,
To what extent did the music make you feel ,ALERT,30MonoWAV/30MonoF2.wav,1,2,2,2,,,,,0,5,5,1,0,1,1,8,,,,,,,,,3,1.3183754419733305,,,034,001,2019_May_15_1410,MusicAffectPsychophysiology2019,3.0.5,59.911751299156634,
To what extent did the music make you feel ,ANXIOUS ,30MonoWAV/30MonoF2.wav,1,2,2,2,,,,,0,5,5,1,0,2,2,1,,,,,,,,,3,0.7501298839924857,,,034,001,2019_May_15_1410,MusicAffectPsychophysiology2019,3.0.5,59.911751299156634,
To what extent did the music make you feel ,GUILTY,30MonoWAV/30MonoF2.wav,1,2,2,2,,,,,0,5,5,1,0,3,3,5,,,,,,,,,3,0.6503522260172758,,,034,001,2019_May_15_1410,MusicAffectPsychophysiology2019,3.0.5,59.911751299156634,
To what extent did the music make you feel ,EXCITED,30MonoWAV/30MonoF2.wav,1,2,2,2,,,,,0,5,5,1,0,4,4,7,,,,,,,,,1,1.001555464026751,,,034,001,2019_May_15_1410,MusicAffectPsychophysiology2019,3.0.5,59.911751299156634,
To what extent did the music make you feel ,ASHAMED,30MonoWAV/30MonoF2.wav,1,2,2,2,,,,,0,5,5,1,0,5,5,4,,,,,,,,,1,0.9683410960133187,,,034,001,2019_May_15_1410,MusicAffectPsychophysiology2019,3.0.5,59.911751299156634,
To what extent did the music make you feel ,ACTIVE,30MonoWAV/30MonoF2.wav,1,2,2,2,,,,,0,5,5,1,0,6,6,9,,,,,,,,,2,1.235491164989071,,,034,001,2019_May_15_1410,MusicAffectPsychophysiology2019,3.0.5,59.911751299156634,
To what extent did the music make you feel ,HAPPY,30MonoWAV/30MonoF2.wav,1,2,2,2,,,,,0,5,5,1,0,7,7,6,,,,,,,,,1,0.8183904160105158,,,034,001,2019_May_15_1410,MusicAffectPsychophysiology2019,3.0.5,59.911751299156634,
To what extent did the music make you feel ,FRUSTRATED,30MonoWAV/30MonoF2.wav,1,2,2,2,,,,,0,5,5,1,0,8,8,3,,,,,,,,,3,0.7837290879979264,,,034,001,2019_May_15_1410,MusicAffectPsychophysiology2019,3.0.5,59.911751299156634,
To what extent did the music make you feel ,SCARED,30MonoWAV/30MonoF2.wav,1,2,2,2,,,,,0,5,5,1,0,9,9,11,,,,,,,,,3,0.7163827169861179,,,034,001,2019_May_15_1410,MusicAffectPsychophysiology2019,3.0.5,59.911751299156634,
To what extent did the music make you feel ,SAD,30MonoWAV/30MonoF2.wav,1,2,2,2,,,,,0,5,5,1,0,10,10,0,,,,,,,,,3,0.5345235400018282,,,034,001,2019_May_15_1410,MusicAffectPsychophysiology2019,3.0.5,59.911751299156634,
To what extent did the music make you feel ,TENDER,30MonoWAV/30MonoF2.wav,1,2,2,2,,,,,0,5,5,1,0,11,11,10,,,,,,,,,1,0.8012459680030588,,,034,001,2019_May_15_1410,MusicAffectPsychophysiology2019,3.0.5,59.911751299156634,
,,30MonoWAV/30MonoF2.wav,1,2,2,2,,,,,0,5,5,1,,,,,,,,,,,,,,,,,034,001,2019_May_15_1410,MusicAffectPsychophysiology2019,3.0.5,59.911751299156634,
To what extent did the music make you feel ,FRUSTRATED,30MonoWAV/30MonoF4.wav,1,2,2,4,,,,,0,6,6,3,0,0,0,3,,,4,2.469297077972442,1,1.0518440539890435,1,1.001562916993862,3,1.1865029449982103,,,034,001,2019_May_15_1410,MusicAffectPsychophysiology2019,3.0.5,59.911751299156634,
To what extent did the music make you feel ,ANXIOUS ,30MonoWAV/30MonoF4.wav,1,2,2,4,,,,,0,6,6,3,0,1,1,1,,,,,,,,,3,0.9196028070000466,,,034,001,2019_May_15_1410,MusicAffectPsychophysiology2019,3.0.5,59.911751299156634,
To what extent did the music make you feel ,ALERT,30MonoWAV/30MonoF4.wav,1,2,2,4,,,,,0,6,6,3,0,2,2,8,,,,,,,,,3,0.6183023090125062,,,034,001,2019_May_15_1410,MusicAffectPsychophysiology2019,3.0.5,59.911751299156634,
To what extent did the music make you feel ,SAD,30MonoWAV/30MonoF4.wav,1,2,2,4,,,,,0,6,6,3,0,3,3,0,,,,,,,,,3,0.6167832520150114,,,034,001,2019_May_15_1410,MusicAffectPsychophysiology2019,3.0.5,59.911751299156634,
To what extent did the music make you feel ,GUILTY,30MonoWAV/30MonoF4.wav,1,2,2,4,,,,,0,6,6,3,0,4,4,5,,,,,,,,,3,0.6520945969969034,,,034,001,2019_May_15_1410,MusicAffectPsychophysiology2019,3.0.5,59.911751299156634,
To what extent did the music make you feel ,EXCITED,30MonoWAV/30MonoF4.wav,1,2,2,4,,,,,0,6,6,3,0,5,5,7,,,,,,,,,1,1.1021385260100942,,,034,001,2019_May_15_1410,MusicAffectPsychophysiology2019,3.0.5,59.911751299156634,
To what extent did the music make you feel ,SCARED,30MonoWAV/30MonoF4.wav,1,2,2,4,,,,,0,6,6,3,0,6,6,11,,,,,,,,,2,1.2685644029988907,,,034,001,2019_May_15_1410,MusicAffectPsychophysiology2019,3.0.5,59.911751299156634,
To what extent did the music make you feel ,ACTIVE,30MonoWAV/30MonoF4.wav,1,2,2,4,,,,,0,6,6,3,0,7,7,9,,,,,,,,,3,1.1352182000118773,,,034,001,2019_May_15_1410,MusicAffectPsychophysiology2019,3.0.5,59.911751299156634,
To what extent did the music make you feel ,ASHAMED,30MonoWAV/30MonoF4.wav,1,2,2,4,,,,,0,6,6,3,0,8,8,4,,,,,,,,,1,0.8019791389815509,,,034,001,2019_May_15_1410,MusicAffectPsychophysiology2019,3.0.5,59.911751299156634,
To what extent did the music make you feel ,ANGRY,30MonoWAV/30MonoF4.wav,1,2,2,4,,,,,0,6,6,3,0,9,9,2,,,,,,,,,3,1.0527600219938904,,,034,001,2019_May_15_1410,MusicAffectPsychophysiology2019,3.0.5,59.911751299156634,
To what extent did the music make you feel ,TENDER,30MonoWAV/30MonoF4.wav,1,2,2,4,,,,,0,6,6,3,0,10,10,10,,,,,,,,,1,0.849594691011589,,,034,001,2019_May_15_1410,MusicAffectPsychophysiology2019,3.0.5,59.911751299156634,
To what extent did the music make you feel ,HAPPY,30MonoWAV/30MonoF4.wav,1,2,2,4,,,,,0,6,6,3,0,11,11,6,,,,,,,,,1,0.7667774749861564,,,034,001,2019_May_15_1410,MusicAffectPsychophysiology2019,3.0.5,59.911751299156634,
,,30MonoWAV/30MonoF4.wav,1,2,2,4,,,,,0,6,6,3,,,,,,,,,,,,,,,,,034,001,2019_May_15_1410,MusicAffectPsychophysiology2019,3.0.5,59.911751299156634,
To what extent did the music make you feel ,ASHAMED,30MonoWAV/30MonoT2.wav,2,1,4,14,,,,,0,7,7,13,0,0,0,4,,,2,2.4675182749924716,3,1.5020474730117712,4,1.5692395119986031,1,1.219169043994043,,,034,001,2019_May_15_1410,MusicAffectPsychophysiology2019,3.0.5,59.911751299156634,
To what extent did the music make you feel ,EXCITED,30MonoWAV/30MonoT2.wav,2,1,4,14,,,,,0,7,7,13,0,1,1,7,,,,,,,,,1,0.8672368749976158,,,034,001,2019_May_15_1410,MusicAffectPsychophysiology2019,3.0.5,59.911751299156634,
To what extent did the music make you feel ,GUILTY,30MonoWAV/30MonoT2.wav,2,1,4,14,,,,,0,7,7,13,0,2,2,5,,,,,,,,,1,0.8181898060138337,,,034,001,2019_May_15_1410,MusicAffectPsychophysiology2019,3.0.5,59.911751299156634,
To what extent did the music make you feel ,ACTIVE,30MonoWAV/30MonoT2.wav,2,1,4,14,,,,,0,7,7,13,0,3,3,9,,,,,,,,,1,0.8189254770113621,,,034,001,2019_May_15_1410,MusicAffectPsychophysiology2019,3.0.5,59.911751299156634,
To what extent did the music make you feel ,ANGRY,30MonoWAV/30MonoT2.wav,2,1,4,14,,,,,0,7,7,13,0,4,4,2,,,,,,,,,1,0.5685748939868063,,,034,001,2019_May_15_1410,MusicAffectPsychophysiology2019,3.0.5,59.911751299156634,
To what extent did the music make you feel ,TENDER,30MonoWAV/30MonoT2.wav,2,1,4,14,,,,,0,7,7,13,0,5,5,10,,,,,,,,,4,1.485873769997852,,,034,001,2019_May_15_1410,MusicAffectPsychophysiology2019,3.0.5,59.911751299156634,
To what extent did the music make you feel ,ALERT,30MonoWAV/30MonoT2.wav,2,1,4,14,,,,,0,7,7,13,0,6,6,8,,,,,,,,,1,1.0679672620026395,,,034,001,2019_May_15_1410,MusicAffectPsychophysiology2019,3.0.5,59.911751299156634,
To what extent did the music make you feel ,ANXIOUS ,30MonoWAV/30MonoT2.wav,2,1,4,14,,,,,0,7,7,13,0,7,7,1,,,,,,,,,1,1.5516137449885719,,,034,001,2019_May_15_1410,MusicAffectPsychophysiology2019,3.0.5,59.911751299156634,
To what extent did the music make you feel ,HAPPY,30MonoWAV/30MonoT2.wav,2,1,4,14,,,,,0,7,7,13,0,8,8,6,,,,,,,,,2,1.1351910849916749,,,034,001,2019_May_15_1410,MusicAffectPsychophysiology2019,3.0.5,59.911751299156634,
To what extent did the music make you feel ,SAD,30MonoWAV/30MonoT2.wav,2,1,4,14,,,,,0,7,7,13,0,9,9,0,,,,,,,,,3,1.1015209259930998,,,034,001,2019_May_15_1410,MusicAffectPsychophysiology2019,3.0.5,59.911751299156634,
To what extent did the music make you feel ,FRUSTRATED,30MonoWAV/30MonoT2.wav,2,1,4,14,,,,,0,7,7,13,0,10,10,3,,,,,,,,,1,1.1359935119980946,,,034,001,2019_May_15_1410,MusicAffectPsychophysiology2019,3.0.5,59.911751299156634,
To what extent did the music make you feel ,SCARED,30MonoWAV/30MonoT2.wav,2,1,4,14,,,,,0,7,7,13,0,11,11,11,,,,,,,,,1,1.2006517600093503,,,034,001,2019_May_15_1410,MusicAffectPsychophysiology2019,3.0.5,59.911751299156634,
,,30MonoWAV/30MonoT2.wav,2,1,4,14,,,,,0,7,7,13,,,,,,,,,,,,,,,,,034,001,2019_May_15_1410,MusicAffectPsychophysiology2019,3.0.5,59.911751299156634,
To what extent did the music make you feel ,SCARED,30MonoWAV/30MonoT3.wav,2,1,4,15,,,,,0,8,8,14,0,0,0,11,,,2,2.068919129000278,2,1.2351822259952314,3,1.7353673189936671,2,1.3367894059920218,,,034,001,2019_May_15_1410,MusicAffectPsychophysiology2019,3.0.5,59.911751299156634,
To what extent did the music make you feel ,ACTIVE,30MonoWAV/30MonoT3.wav,2,1,4,15,,,,,0,8,8,14,0,1,1,9,,,,,,,,,1,0.7852271659940016,,,034,001,2019_May_15_1410,MusicAffectPsychophysiology2019,3.0.5,59.911751299156634,
To what extent did the music make you feel ,ANGRY,30MonoWAV/30MonoT3.wav,2,1,4,15,,,,,0,8,8,14,0,2,2,2,,,,,,,,,1,0.5526491099735722,,,034,001,2019_May_15_1410,MusicAffectPsychophysiology2019,3.0.5,59.911751299156634,
To what extent did the music make you feel ,ANXIOUS ,30MonoWAV/30MonoT3.wav,2,1,4,15,,,,,0,8,8,14,0,3,3,1,,,,,,,,,2,1.0517257960163988,,,034,001,2019_May_15_1410,MusicAffectPsychophysiology2019,3.0.5,59.911751299156634,
To what extent did the music make you feel ,EXCITED,30MonoWAV/30MonoT3.wav,2,1,4,15,,,,,0,8,8,14,0,4,4,7,,,,,,,,,1,0.584988863003673,,,034,001,2019_May_15_1410,MusicAffectPsychophysiology2019,3.0.5,59.911751299156634,
To what extent did the music make you feel ,GUILTY,30MonoWAV/30MonoT3.wav,2,1,4,15,,,,,0,8,8,14,0,5,5,5,,,,,,,,,1,0.6183637419890147,,,034,001,2019_May_15_1410,MusicAffectPsychophysiology2019,3.0.5,59.911751299156634,
To what extent did the music make you feel ,ALERT,30MonoWAV/30MonoT3.wav,2,1,4,15,,,,,0,8,8,14,0,6,6,8,,,,,,,,,1,0.6849488140142057,,,034,001,2019_May_15_1410,MusicAffectPsychophysiology2019,3.0.5,59.911751299156634,
To what extent did the music make you feel ,SAD,30MonoWAV/30MonoT3.wav,2,1,4,15,,,,,0,8,8,14,0,7,7,0,,,,,,,,,2,0.7184181250049733,,,034,001,2019_May_15_1410,MusicAffectPsychophysiology2019,3.0.5,59.911751299156634,
To what extent did the music make you feel ,ASHAMED,30MonoWAV/30MonoT3.wav,2,1,4,15,,,,,0,8,8,14,0,8,8,4,,,,,,,,,1,0.5844005339895375,,,034,001,2019_May_15_1410,MusicAffectPsychophysiology2019,3.0.5,59.911751299156634,
To what extent did the music make you feel ,TENDER,30MonoWAV/30MonoT3.wav,2,1,4,15,,,,,0,8,8,14,0,9,9,10,,,,,,,,,3,0.9020849879889283,,,034,001,2019_May_15_1410,MusicAffectPsychophysiology2019,3.0.5,59.911751299156634,
To what extent did the music make you feel ,HAPPY,30MonoWAV/30MonoT3.wav,2,1,4,15,,,,,0,8,8,14,0,10,10,6,,,,,,,,,1,0.7675721739942674,,,034,001,2019_May_15_1410,MusicAffectPsychophysiology2019,3.0.5,59.911751299156634,
To what extent did the music make you feel ,FRUSTRATED,30MonoWAV/30MonoT3.wav,2,1,4,15,,,,,0,8,8,14,0,11,11,3,,,,,,,,,1,0.9855441749969032,,,034,001,2019_May_15_1410,MusicAffectPsychophysiology2019,3.0.5,59.911751299156634,
,,30MonoWAV/30MonoT3.wav,2,1,4,15,,,,,0,8,8,14,,,,,,,,,,,,,,,,,034,001,2019_May_15_1410,MusicAffectPsychophysiology2019,3.0.5,59.911751299156634,
To what extent did the music make you feel ,SAD,30MonoWAV/30MonoT4.wav,2,1,4,16,,,,,0,9,9,15,0,0,0,0,,,2,2.1682597269827966,2,0.8003095540043432,2,1.5016631599864922,1,1.285746001987718,,,034,001,2019_May_15_1410,MusicAffectPsychophysiology2019,3.0.5,59.911751299156634,
To what extent did the music make you feel ,ANGRY,30MonoWAV/30MonoT4.wav,2,1,4,16,,,,,0,9,9,15,0,1,1,2,,,,,,,,,1,0.5521641890227329,,,034,001,2019_May_15_1410,MusicAffectPsychophysiology2019,3.0.5,59.911751299156634,
To what extent did the music make you feel ,EXCITED,30MonoWAV/30MonoT4.wav,2,1,4,16,,,,,0,9,9,15,0,2,2,7,,,,,,,,,1,0.2346711810096167,,,034,001,2019_May_15_1410,MusicAffectPsychophysiology2019,3.0.5,59.911751299156634,
To what extent did the music make you feel ,FRUSTRATED,30MonoWAV/30MonoT4.wav,2,1,4,16,,,,,0,9,9,15,0,3,3,3,,,,,,,,,1,0.6695200669928454,,,034,001,2019_May_15_1410,MusicAffectPsychophysiology2019,3.0.5,59.911751299156634,
To what extent did the music make you feel ,SCARED,30MonoWAV/30MonoT4.wav,2,1,4,16,,,,,0,9,9,15,0,4,4,11,,,,,,,,,1,0.9187705640215427,,,034,001,2019_May_15_1410,MusicAffectPsychophysiology2019,3.0.5,59.911751299156634,
To what extent did the music make you feel ,ALERT,30MonoWAV/30MonoT4.wav,2,1,4,16,,,,,0,9,9,15,0,5,5,8,,,,,,,,,1,0.48566340398974717,,,034,001,2019_May_15_1410,MusicAffectPsychophysiology2019,3.0.5,59.911751299156634,
To what extent did the music make you feel ,ACTIVE,30MonoWAV/30MonoT4.wav,2,1,4,16,,,,,0,9,9,15,0,6,6,9,,,,,,,,,1,0.3181082830124069,,,034,001,2019_May_15_1410,MusicAffectPsychophysiology2019,3.0.5,59.911751299156634,
To what extent did the music make you feel ,TENDER,30MonoWAV/30MonoT4.wav,2,1,4,16,,,,,0,9,9,15,0,7,7,10,,,,,,,,,1,0.33470070001203567,,,034,001,2019_May_15_1410,MusicAffectPsychophysiology2019,3.0.5,59.911751299156634,
To what extent did the music make you feel ,ANXIOUS ,30MonoWAV/30MonoT4.wav,2,1,4,16,,,,,0,9,9,15,0,8,8,1,,,,,,,,,1,0.8021806229953654,,,034,001,2019_May_15_1410,MusicAffectPsychophysiology2019,3.0.5,59.911751299156634,
To what extent did the music make you feel ,ASHAMED,30MonoWAV/30MonoT4.wav,2,1,4,16,,,,,0,9,9,15,0,9,9,4,,,,,,,,,1,0.3017329380090814,,,034,001,2019_May_15_1410,MusicAffectPsychophysiology2019,3.0.5,59.911751299156634,
To what extent did the music make you feel ,GUILTY,30MonoWAV/30MonoT4.wav,2,1,4,16,,,,,0,9,9,15,0,10,10,5,,,,,,,,,1,0.3352568690024782,,,034,001,2019_May_15_1410,MusicAffectPsychophysiology2019,3.0.5,59.911751299156634,
To what extent did the music make you feel ,HAPPY,30MonoWAV/30MonoT4.wav,2,1,4,16,,,,,0,9,9,15,0,11,11,6,,,,,,,,,1,0.3181935439934023,,,034,001,2019_May_15_1410,MusicAffectPsychophysiology2019,3.0.5,59.911751299156634,
,,30MonoWAV/30MonoT4.wav,2,1,4,16,,,,,0,9,9,15,,,,,,,,,,,,,,,,,034,001,2019_May_15_1410,MusicAffectPsychophysiology2019,3.0.5,59.911751299156634,
To what extent did the music make you feel ,GUILTY,30MonoWAV/30MonoF3.wav,1,2,2,3,,,,,0,10,10,2,0,0,0,5,,,3,1.9528066019993275,2,0.9019769950245973,2,0.9835928190150298,2,1.285128268005792,,,034,001,2019_May_15_1410,MusicAffectPsychophysiology2019,3.0.5,59.911751299156634,
To what extent did the music make you feel ,EXCITED,30MonoWAV/30MonoF3.wav,1,2,2,3,,,,,0,10,10,2,0,1,1,7,,,,,,,,,1,0.8837611589988228,,,034,001,2019_May_15_1410,MusicAffectPsychophysiology2019,3.0.5,59.911751299156634,
To what extent did the music make you feel ,ASHAMED,30MonoWAV/30MonoF3.wav,1,2,2,3,,,,,0,10,10,2,0,2,2,4,,,,,,,,,1,0.28537403701920994,,,034,001,2019_May_15_1410,MusicAffectPsychophysiology2019,3.0.5,59.911751299156634,
To what extent did the music make you feel ,HAPPY,30MonoWAV/30MonoF3.wav,1,2,2,3,,,,,0,10,10,2,0,3,3,6,,,,,,,,,1,0.36807104700710624,,,034,001,2019_May_15_1410,MusicAffectPsychophysiology2019,3.0.5,59.911751299156634,
To what extent did the music make you feel ,ACTIVE,30MonoWAV/30MonoF3.wav,1,2,2,3,,,,,0,10,10,2,0,4,4,9,,,,,,,,,2,0.6670749410113785,,,034,001,2019_May_15_1410,MusicAffectPsychophysiology2019,3.0.5,59.911751299156634,
To what extent did the music make you feel ,FRUSTRATED,30MonoWAV/30MonoF3.wav,1,2,2,3,,,,,0,10,10,2,0,5,5,3,,,,,,,,,1,0.4687227339891251,,,034,001,2019_May_15_1410,MusicAffectPsychophysiology2019,3.0.5,59.911751299156634,
To what extent did the music make you feel ,SAD,30MonoWAV/30MonoF3.wav,1,2,2,3,,,,,0,10,10,2,0,6,6,0,,,,,,,,,2,0.30096364600467496,,,034,001,2019_May_15_1410,MusicAffectPsychophysiology2019,3.0.5,59.911751299156634,
To what extent did the music make you feel ,ANXIOUS ,30MonoWAV/30MonoF3.wav,1,2,2,3,,,,,0,10,10,2,0,7,7,1,,,,,,,,,1,0.6688742580008693,,,034,001,2019_May_15_1410,MusicAffectPsychophysiology2019,3.0.5,59.911751299156634,
To what extent did the music make you feel ,TENDER,30MonoWAV/30MonoF3.wav,1,2,2,3,,,,,0,10,10,2,0,8,8,10,,,,,,,,,1,0.31690623101894744,,,034,001,2019_May_15_1410,MusicAffectPsychophysiology2019,3.0.5,59.911751299156634,
To what extent did the music make you feel ,SCARED,30MonoWAV/30MonoF3.wav,1,2,2,3,,,,,0,10,10,2,0,9,9,11,,,,,,,,,2,0.5853826670208946,,,034,001,2019_May_15_1410,MusicAffectPsychophysiology2019,3.0.5,59.911751299156634,
To what extent did the music make you feel ,ANGRY,30MonoWAV/30MonoF3.wav,1,2,2,3,,,,,0,10,10,2,0,10,10,2,,,,,,,,,1,0.3686824360047467,,,034,001,2019_May_15_1410,MusicAffectPsychophysiology2019,3.0.5,59.911751299156634,
To what extent did the music make you feel ,ALERT,30MonoWAV/30MonoF3.wav,1,2,2,3,,,,,0,10,10,2,0,11,11,8,,,,,,,,,2,0.8018275599752087,,,034,001,2019_May_15_1410,MusicAffectPsychophysiology2019,3.0.5,59.911751299156634,
,,30MonoWAV/30MonoF3.wav,1,2,2,3,,,,,0,10,10,2,,,,,,,,,,,,,,,,,034,001,2019_May_15_1410,MusicAffectPsychophysiology2019,3.0.5,59.911751299156634,
To what extent did the music make you feel ,ASHAMED,30MonoWAV/30MonoT1.wav,2,1,4,13,,,,,0,11,11,12,0,0,0,4,,,2,2.3723637259972747,2,0.7357761080202181,2,0.553470679995371,2,0.934993631002726,,,034,001,2019_May_15_1410,MusicAffectPsychophysiology2019,3.0.5,59.911751299156634,
To what extent did the music make you feel ,ACTIVE,30MonoWAV/30MonoT1.wav,2,1,4,13,,,,,0,11,11,12,0,1,1,9,,,,,,,,,1,0.8182349629933015,,,034,001,2019_May_15_1410,MusicAffectPsychophysiology2019,3.0.5,59.911751299156634,
To what extent did the music make you feel ,HAPPY,30MonoWAV/30MonoT1.wav,2,1,4,13,,,,,0,11,11,12,0,2,2,6,,,,,,,,,1,2.002363374020206,,,034,001,2019_May_15_1410,MusicAffectPsychophysiology2019,3.0.5,59.911751299156634,
To what extent did the music make you feel ,SAD,30MonoWAV/30MonoT1.wav,2,1,4,13,,,,,0,11,11,12,0,3,3,0,,,,,,,,,1,0.3351687940012198,,,034,001,2019_May_15_1410,MusicAffectPsychophysiology2019,3.0.5,59.911751299156634,
To what extent did the music make you feel ,EXCITED,30MonoWAV/30MonoT1.wav,2,1,4,13,,,,,0,11,11,12,0,4,4,7,,,,,,,,,1,0.26828497101087123,,,034,001,2019_May_15_1410,MusicAffectPsychophysiology2019,3.0.5,59.911751299156634,
To what extent did the music make you feel ,FRUSTRATED,30MonoWAV/30MonoT1.wav,2,1,4,13,,,,,0,11,11,12,0,5,5,3,,,,,,,,,1,0.18461958901025355,,,034,001,2019_May_15_1410,MusicAffectPsychophysiology2019,3.0.5,59.911751299156634,
To what extent did the music make you feel ,SCARED,30MonoWAV/30MonoT1.wav,2,1,4,13,,,,,0,11,11,12,0,6,6,11,,,,,,,,,1,0.6191542620072141,,,034,001,2019_May_15_1410,MusicAffectPsychophysiology2019,3.0.5,59.911751299156634,
To what extent did the music make you feel ,GUILTY,30MonoWAV/30MonoT1.wav,2,1,4,13,,,,,0,11,11,12,0,7,7,5,,,,,,,,,1,0.549887283006683,,,034,001,2019_May_15_1410,MusicAffectPsychophysiology2019,3.0.5,59.911751299156634,
To what extent did the music make you feel ,TENDER,30MonoWAV/30MonoT1.wav,2,1,4,13,,,,,0,11,11,12,0,8,8,10,,,,,,,,,1,0.28472370098461397,,,034,001,2019_May_15_1410,MusicAffectPsychophysiology2019,3.0.5,59.911751299156634,
To what extent did the music make you feel ,ANXIOUS ,30MonoWAV/30MonoT1.wav,2,1,4,13,,,,,0,11,11,12,0,9,9,1,,,,,,,,,1,0.3845981689810287,,,034,001,2019_May_15_1410,MusicAffectPsychophysiology2019,3.0.5,59.911751299156634,
To what extent did the music make you feel ,ALERT,30MonoWAV/30MonoT1.wav,2,1,4,13,,,,,0,11,11,12,0,10,10,8,,,,,,,,,2,0.2657585960114375,,,034,001,2019_May_15_1410,MusicAffectPsychophysiology2019,3.0.5,59.911751299156634,
To what extent did the music make you feel ,ANGRY,30MonoWAV/30MonoT1.wav,2,1,4,13,,,,,0,11,11,12,0,11,11,2,,,,,,,,,1,0.3846196800004691,,,034,001,2019_May_15_1410,MusicAffectPsychophysiology2019,3.0.5,59.911751299156634,
,,30MonoWAV/30MonoT1.wav,2,1,4,13,,,,,0,11,11,12,,,,,,,,,,,,,,,,,034,001,2019_May_15_1410,MusicAffectPsychophysiology2019,3.0.5,59.911751299156634,
To what extent did the music make you feel ,TENDER,30MonoWAV/30MonoH1.wav,2,2,1,5,,,,,0,12,12,4,0,0,0,10,,,2,2.351407778012799,4,1.2518293800239917,4,1.2497104830108583,3,1.0521174739988055,,,034,001,2019_May_15_1410,MusicAffectPsychophysiology2019,3.0.5,59.911751299156634,
To what extent did the music make you feel ,HAPPY,30MonoWAV/30MonoH1.wav,2,2,1,5,,,,,0,12,12,4,0,1,1,6,,,,,,,,,3,0.701141439989442,,,034,001,2019_May_15_1410,MusicAffectPsychophysiology2019,3.0.5,59.911751299156634,
To what extent did the music make you feel ,SAD,30MonoWAV/30MonoH1.wav,2,2,1,5,,,,,0,12,12,4,0,2,2,0,,,,,,,,,1,1.6024490089912433,,,034,001,2019_May_15_1410,MusicAffectPsychophysiology2019,3.0.5,59.911751299156634,
To what extent did the music make you feel ,ACTIVE,30MonoWAV/30MonoH1.wav,2,2,1,5,,,,,0,12,12,4,0,3,3,9,,,,,,,,,3,1.7032644880237058,,,034,001,2019_May_15_1410,MusicAffectPsychophysiology2019,3.0.5,59.911751299156634,
To what extent did the music make you feel ,ASHAMED,30MonoWAV/30MonoH1.wav,2,2,1,5,,,,,0,12,12,4,0,4,4,4,,,,,,,,,1,0.7014543510158546,,,034,001,2019_May_15_1410,MusicAffectPsychophysiology2019,3.0.5,59.911751299156634,
To what extent did the music make you feel ,FRUSTRATED,30MonoWAV/30MonoH1.wav,2,2,1,5,,,,,0,12,12,4,0,5,5,3,,,,,,,,,1,0.5351281010080129,,,034,001,2019_May_15_1410,MusicAffectPsychophysiology2019,3.0.5,59.911751299156634,
To what extent did the music make you feel ,ALERT,30MonoWAV/30MonoH1.wav,2,2,1,5,,,,,0,12,12,4,0,6,6,8,,,,,,,,,1,0.7011372070119251,,,034,001,2019_May_15_1410,MusicAffectPsychophysiology2019,3.0.5,59.911751299156634,
To what extent did the music make you feel ,ANXIOUS ,30MonoWAV/30MonoH1.wav,2,2,1,5,,,,,0,12,12,4,0,7,7,1,,,,,,,,,1,0.518842603021767,,,034,001,2019_May_15_1410,MusicAffectPsychophysiology2019,3.0.5,59.911751299156634,
To what extent did the music make you feel ,EXCITED,30MonoWAV/30MonoH1.wav,2,2,1,5,,,,,0,12,12,4,0,8,8,7,,,,,,,,,3,0.6184423069935292,,,034,001,2019_May_15_1410,MusicAffectPsychophysiology2019,3.0.5,59.911751299156634,
To what extent did the music make you feel ,ANGRY,30MonoWAV/30MonoH1.wav,2,2,1,5,,,,,0,12,12,4,0,9,9,2,,,,,,,,,1,0.5848731850273907,,,034,001,2019_May_15_1410,MusicAffectPsychophysiology2019,3.0.5,59.911751299156634,
To what extent did the music make you feel ,SCARED,30MonoWAV/30MonoH1.wav,2,2,1,5,,,,,0,12,12,4,0,10,10,11,,,,,,,,,1,0.5854699019982945,,,034,001,2019_May_15_1410,MusicAffectPsychophysiology2019,3.0.5,59.911751299156634,
To what extent did the music make you feel ,GUILTY,30MonoWAV/30MonoH1.wav,2,2,1,5,,,,,0,12,12,4,0,11,11,5,,,,,,,,,1,0.6855700460146181,,,034,001,2019_May_15_1410,MusicAffectPsychophysiology2019,3.0.5,59.911751299156634,
,,30MonoWAV/30MonoH1.wav,2,2,1,5,,,,,0,12,12,4,,,,,,,,,,,,,,,,,034,001,2019_May_15_1410,MusicAffectPsychophysiology2019,3.0.5,59.911751299156634,
To what extent did the music make you feel ,ACTIVE,30MonoWAV/30MonoH2.wav,2,2,1,6,,,,,0,13,13,5,0,0,0,9,,,2,5.043150745012099,2,0.7673784600046929,2,1.6535638149944134,2,1.5022742309956811,,,034,001,2019_May_15_1410,MusicAffectPsychophysiology2019,3.0.5,59.911751299156634,
To what extent did the music make you feel ,SAD,30MonoWAV/30MonoH2.wav,2,2,1,6,,,,,0,13,13,5,0,1,1,0,,,,,,,,,1,0.6691272550087888,,,034,001,2019_May_15_1410,MusicAffectPsychophysiology2019,3.0.5,59.911751299156634,
To what extent did the music make you feel ,ANXIOUS ,30MonoWAV/30MonoH2.wav,2,2,1,6,,,,,0,13,13,5,0,2,2,1,,,,,,,,,1,0.4856469020014629,,,034,001,2019_May_15_1410,MusicAffectPsychophysiology2019,3.0.5,59.911751299156634,
To what extent did the music make you feel ,ANGRY,30MonoWAV/30MonoH2.wav,2,2,1,6,,,,,0,13,13,5,0,3,3,2,,,,,,,,,1,0.5014096150116529,,,034,001,2019_May_15_1410,MusicAffectPsychophysiology2019,3.0.5,59.911751299156634,
To what extent did the music make you feel ,EXCITED,30MonoWAV/30MonoH2.wav,2,2,1,6,,,,,0,13,13,5,0,4,4,7,,,,,,,,,1,0.5568409520201385,,,034,001,2019_May_15_1410,MusicAffectPsychophysiology2019,3.0.5,59.911751299156634,
To what extent did the music make you feel ,FRUSTRATED,30MonoWAV/30MonoH2.wav,2,2,1,6,,,,,0,13,13,5,0,5,5,3,,,,,,,,,1,0.5698173239943571,,,034,001,2019_May_15_1410,MusicAffectPsychophysiology2019,3.0.5,59.911751299156634,
To what extent did the music make you feel ,HAPPY,30MonoWAV/30MonoH2.wav,2,2,1,6,,,,,0,13,13,5,0,6,6,6,,,,,,,,,1,0.7366025059891399,,,034,001,2019_May_15_1410,MusicAffectPsychophysiology2019,3.0.5,59.911751299156634,
To what extent did the music make you feel ,TENDER,30MonoWAV/30MonoH2.wav,2,2,1,6,,,,,0,13,13,5,0,7,7,10,,,,,,,,,1,0.5359391309903003,,,034,001,2019_May_15_1410,MusicAffectPsychophysiology2019,3.0.5,59.911751299156634,
To what extent did the music make you feel ,GUILTY,30MonoWAV/30MonoH2.wav,2,2,1,6,,,,,0,13,13,5,0,8,8,5,,,,,,,,,1,0.584948131989222,,,034,001,2019_May_15_1410,MusicAffectPsychophysiology2019,3.0.5,59.911751299156634,
To what extent did the music make you feel ,SCARED,30MonoWAV/30MonoH2.wav,2,2,1,6,,,,,0,13,13,5,0,9,9,11,,,,,,,,,1,0.4530812760058325,,,034,001,2019_May_15_1410,MusicAffectPsychophysiology2019,3.0.5,59.911751299156634,
To what extent did the music make you feel ,ASHAMED,30MonoWAV/30MonoH2.wav,2,2,1,6,,,,,0,13,13,5,0,10,10,4,,,,,,,,,1,0.5027827759913635,,,034,001,2019_May_15_1410,MusicAffectPsychophysiology2019,3.0.5,59.911751299156634,
To what extent did the music make you feel ,ALERT,30MonoWAV/30MonoH2.wav,2,2,1,6,,,,,0,13,13,5,0,11,11,8,,,,,,,,,1,0.9352458989887964,,,034,001,2019_May_15_1410,MusicAffectPsychophysiology2019,3.0.5,59.911751299156634,
,,30MonoWAV/30MonoH2.wav,2,2,1,6,,,,,0,13,13,5,,,,,,,,,,,,,,,,,034,001,2019_May_15_1410,MusicAffectPsychophysiology2019,3.0.5,59.911751299156634,
To what extent did the music make you feel ,SAD,30MonoWAV/30MonoS3.wav,1,1,3,11,,,,,0,14,14,10,0,0,0,0,,,1,3.6857547980034724,1,1.002287687995704,2,0.7518718100036494,2,1.212363055004971,,,034,001,2019_May_15_1410,MusicAffectPsychophysiology2019,3.0.5,59.911751299156634,
To what extent did the music make you feel ,HAPPY,30MonoWAV/30MonoS3.wav,1,1,3,11,,,,,0,14,14,10,0,1,1,6,,,,,,,,,1,0.819560869014822,,,034,001,2019_May_15_1410,MusicAffectPsychophysiology2019,3.0.5,59.911751299156634,
To what extent did the music make you feel ,ANGRY,30MonoWAV/30MonoS3.wav,1,1,3,11,,,,,0,14,14,10,0,2,2,2,,,,,,,,,1,0.518446723028319,,,034,001,2019_May_15_1410,MusicAffectPsychophysiology2019,3.0.5,59.911751299156634,
To what extent did the music make you feel ,ANXIOUS ,30MonoWAV/30MonoS3.wav,1,1,3,11,,,,,0,14,14,10,0,3,3,1,,,,,,,,,1,0.4022113969840575,,,034,001,2019_May_15_1410,MusicAffectPsychophysiology2019,3.0.5,59.911751299156634,
To what extent did the music make you feel ,TENDER,30MonoWAV/30MonoS3.wav,1,1,3,11,,,,,0,14,14,10,0,4,4,10,,,,,,,,,2,0.4352430010039825,,,034,001,2019_May_15_1410,MusicAffectPsychophysiology2019,3.0.5,59.911751299156634,
To what extent did the music make you feel ,EXCITED,30MonoWAV/30MonoS3.wav,1,1,3,11,,,,,0,14,14,10,0,5,5,7,,,,,,,,,1,0.2677261630014982,,,034,001,2019_May_15_1410,MusicAffectPsychophysiology2019,3.0.5,59.911751299156634,
To what extent did the music make you feel ,FRUSTRATED,30MonoWAV/30MonoS3.wav,1,1,3,11,,,,,0,14,14,10,0,6,6,3,,,,,,,,,1,0.4034190330130514,,,034,001,2019_May_15_1410,MusicAffectPsychophysiology2019,3.0.5,59.911751299156634,
To what extent did the music make you feel ,ASHAMED,30MonoWAV/30MonoS3.wav,1,1,3,11,,,,,0,14,14,10,0,7,7,4,,,,,,,,,1,0.35177190200192854,,,034,001,2019_May_15_1410,MusicAffectPsychophysiology2019,3.0.5,59.911751299156634,
To what extent did the music make you feel ,GUILTY,30MonoWAV/30MonoS3.wav,1,1,3,11,,,,,0,14,14,10,0,8,8,5,,,,,,,,,2,0.3353314640116878,,,034,001,2019_May_15_1410,MusicAffectPsychophysiology2019,3.0.5,59.911751299156634,
To what extent did the music make you feel ,ACTIVE,30MonoWAV/30MonoS3.wav,1,1,3,11,,,,,0,14,14,10,0,9,9,9,,,,,,,,,1,0.35227739400579594,,,034,001,2019_May_15_1410,MusicAffectPsychophysiology2019,3.0.5,59.911751299156634,
To what extent did the music make you feel ,SCARED,30MonoWAV/30MonoS3.wav,1,1,3,11,,,,,0,14,14,10,0,10,10,11,,,,,,,,,1,0.268224358005682,,,034,001,2019_May_15_1410,MusicAffectPsychophysiology2019,3.0.5,59.911751299156634,
To what extent did the music make you feel ,ALERT,30MonoWAV/30MonoS3.wav,1,1,3,11,,,,,0,14,14,10,0,11,11,8,,,,,,,,,1,0.23640219401568174,,,034,001,2019_May_15_1410,MusicAffectPsychophysiology2019,3.0.5,59.911751299156634,
,,30MonoWAV/30MonoS3.wav,1,1,3,11,,,,,0,14,14,10,,,,,,,,,,,,,,,,,034,001,2019_May_15_1410,MusicAffectPsychophysiology2019,3.0.5,59.911751299156634,
To what extent did the music make you feel ,FRUSTRATED,30MonoWAV/30MonoS1.wav,1,1,3,9,,,,,0,15,15,8,0,0,0,3,,,1,2.4723271880066022,2,2.7716280670138076,4,1.3032987639890052,1,1.3688620119937696,,,034,001,2019_May_15_1410,MusicAffectPsychophysiology2019,3.0.5,59.911751299156634,
To what extent did the music make you feel ,SCARED,30MonoWAV/30MonoS1.wav,1,1,3,9,,,,,0,15,15,8,0,1,1,11,,,,,,,,,1,0.835882170998957,,,034,001,2019_May_15_1410,MusicAffectPsychophysiology2019,3.0.5,59.911751299156634,
To what extent did the music make you feel ,EXCITED,30MonoWAV/30MonoS1.wav,1,1,3,9,,,,,0,15,15,8,0,2,2,7,,,,,,,,,1,0.6696303809876554,,,034,001,2019_May_15_1410,MusicAffectPsychophysiology2019,3.0.5,59.911751299156634,
To what extent did the music make you feel ,ASHAMED,30MonoWAV/30MonoS1.wav,1,1,3,9,,,,,0,15,15,8,0,3,3,4,,,,,,,,,1,0.5014615849941038,,,034,001,2019_May_15_1410,MusicAffectPsychophysiology2019,3.0.5,59.911751299156634,
To what extent did the music make you feel ,ACTIVE,30MonoWAV/30MonoS1.wav,1,1,3,9,,,,,0,15,15,8,0,4,4,9,,,,,,,,,1,0.6010084610024933,,,034,001,2019_May_15_1410,MusicAffectPsychophysiology2019,3.0.5,59.911751299156634,
To what extent did the music make you feel ,SAD,30MonoWAV/30MonoS1.wav,1,1,3,9,,,,,0,15,15,8,0,5,5,0,,,,,,,,,2,0.8331143189861905,,,034,001,2019_May_15_1410,MusicAffectPsychophysiology2019,3.0.5,59.911751299156634,
To what extent did the music make you feel ,GUILTY,30MonoWAV/30MonoS1.wav,1,1,3,9,,,,,0,15,15,8,0,6,6,5,,,,,,,,,1,0.5163825700001325,,,034,001,2019_May_15_1410,MusicAffectPsychophysiology2019,3.0.5,59.911751299156634,
To what extent did the music make you feel ,HAPPY,30MonoWAV/30MonoS1.wav,1,1,3,9,,,,,0,15,15,8,0,7,7,6,,,,,,,,,1,0.5847307409858331,,,034,001,2019_May_15_1410,MusicAffectPsychophysiology2019,3.0.5,59.911751299156634,
To what extent did the music make you feel ,TENDER,30MonoWAV/30MonoS1.wav,1,1,3,9,,,,,0,15,15,8,0,8,8,10,,,,,,,,,3,1.0867299150268082,,,034,001,2019_May_15_1410,MusicAffectPsychophysiology2019,3.0.5,59.911751299156634,
To what extent did the music make you feel ,ANGRY,30MonoWAV/30MonoS1.wav,1,1,3,9,,,,,0,15,15,8,0,9,9,2,,,,,,,,,1,0.6187221439904533,,,034,001,2019_May_15_1410,MusicAffectPsychophysiology2019,3.0.5,59.911751299156634,
To what extent did the music make you feel ,ANXIOUS ,30MonoWAV/30MonoS1.wav,1,1,3,9,,,,,0,15,15,8,0,10,10,1,,,,,,,,,1,0.535135904996423,,,034,001,2019_May_15_1410,MusicAffectPsychophysiology2019,3.0.5,59.911751299156634,
To what extent did the music make you feel ,ALERT,30MonoWAV/30MonoS1.wav,1,1,3,9,,,,,0,15,15,8,0,11,11,8,,,,,,,,,1,0.535016515001189,,,034,001,2019_May_15_1410,MusicAffectPsychophysiology2019,3.0.5,59.911751299156634,
,,30MonoWAV/30MonoS1.wav,1,1,3,9,,,,,0,15,15,8,,,,,,,,,,,,,,,,,034,001,2019_May_15_1410,MusicAffectPsychophysiology2019,3.0.5,59.911751299156634,
To what extent did the music make you feel ,ANGRY,30MonoWAV/30MonoS4.wav,1,1,3,12,,,,,1,0,16,11,0,0,0,2,,,1,2.218541667010868,1,0.7183083059790079,3,1.0865526640263852,1,1.0558279110118747,,,034,001,2019_May_15_1410,MusicAffectPsychophysiology2019,3.0.5,59.911751299156634,
To what extent did the music make you feel ,ALERT,30MonoWAV/30MonoS4.wav,1,1,3,12,,,,,1,0,16,11,0,1,1,8,,,,,,,,,1,1.8855082799855154,,,034,001,2019_May_15_1410,MusicAffectPsychophysiology2019,3.0.5,59.911751299156634,
To what extent did the music make you feel ,SAD,30MonoWAV/30MonoS4.wav,1,1,3,12,,,,,1,0,16,11,0,2,2,0,,,,,,,,,3,0.8852135560009629,,,034,001,2019_May_15_1410,MusicAffectPsychophysiology2019,3.0.5,59.911751299156634,
To what extent did the music make you feel ,ANXIOUS ,30MonoWAV/30MonoS4.wav,1,1,3,12,,,,,1,0,16,11,0,3,3,1,,,,,,,,,1,1.0196403939917218,,,034,001,2019_May_15_1410,MusicAffectPsychophysiology2019,3.0.5,59.911751299156634,
To what extent did the music make you feel ,FRUSTRATED,30MonoWAV/30MonoS4.wav,1,1,3,12,,,,,1,0,16,11,0,4,4,3,,,,,,,,,1,0.8342415629886091,,,034,001,2019_May_15_1410,MusicAffectPsychophysiology2019,3.0.5,59.911751299156634,
To what extent did the music make you feel ,EXCITED,30MonoWAV/30MonoS4.wav,1,1,3,12,,,,,1,0,16,11,0,5,5,7,,,,,,,,,1,0.6074970230110921,,,034,001,2019_May_15_1410,MusicAffectPsychophysiology2019,3.0.5,59.911751299156634,
To what extent did the music make you feel ,SCARED,30MonoWAV/30MonoS4.wav,1,1,3,12,,,,,1,0,16,11,0,6,6,11,,,,,,,,,3,0.6688059750013053,,,034,001,2019_May_15_1410,MusicAffectPsychophysiology2019,3.0.5,59.911751299156634,
To what extent did the music make you feel ,HAPPY,30MonoWAV/30MonoS4.wav,1,1,3,12,,,,,1,0,16,11,0,7,7,6,,,,,,,,,1,0.3190813869878184,,,034,001,2019_May_15_1410,MusicAffectPsychophysiology2019,3.0.5,59.911751299156634,
To what extent did the music make you feel ,ASHAMED,30MonoWAV/30MonoS4.wav,1,1,3,12,,,,,1,0,16,11,0,8,8,4,,,,,,,,,1,0.5862982529797591,,,034,001,2019_May_15_1410,MusicAffectPsychophysiology2019,3.0.5,59.911751299156634,
To what extent did the music make you feel ,ACTIVE,30MonoWAV/30MonoS4.wav,1,1,3,12,,,,,1,0,16,11,0,9,9,9,,,,,,,,,1,0.535736302001169,,,034,001,2019_May_15_1410,MusicAffectPsychophysiology2019,3.0.5,59.911751299156634,
To what extent did the music make you feel ,GUILTY,30MonoWAV/30MonoS4.wav,1,1,3,12,,,,,1,0,16,11,0,10,10,5,,,,,,,,,1,0.418352379987482,,,034,001,2019_May_15_1410,MusicAffectPsychophysiology2019,3.0.5,59.911751299156634,
To what extent did the music make you feel ,TENDER,30MonoWAV/30MonoS4.wav,1,1,3,12,,,,,1,0,16,11,0,11,11,10,,,,,,,,,3,0.6029278860078193,,,034,001,2019_May_15_1410,MusicAffectPsychophysiology2019,3.0.5,59.911751299156634,
,,30MonoWAV/30MonoS4.wav,1,1,3,12,,,,,1,0,16,11,,,,,,,,,,,,,,,,,034,001,2019_May_15_1410,MusicAffectPsychophysiology2019,3.0.5,59.911751299156634,
To what extent did the music make you feel ,SCARED,30MonoWAV/30MonoF2.wav,1,2,2,2,,,,,1,1,17,1,0,0,0,11,,,2,2.1179027990147006,1,1.1704003420018125,1,1.3189149269892368,2,1.5504666320048273,,,034,001,2019_May_15_1410,MusicAffectPsychophysiology2019,3.0.5,59.911751299156634,
To what extent did the music make you feel ,ANGRY,30MonoWAV/30MonoF2.wav,1,2,2,2,,,,,1,1,17,1,0,1,1,2,,,,,,,,,1,1.1514648019801825,,,034,001,2019_May_15_1410,MusicAffectPsychophysiology2019,3.0.5,59.911751299156634,
To what extent did the music make you feel ,SAD,30MonoWAV/30MonoF2.wav,1,2,2,2,,,,,1,1,17,1,0,2,2,0,,,,,,,,,2,0.5847436139883939,,,034,001,2019_May_15_1410,MusicAffectPsychophysiology2019,3.0.5,59.911751299156634,
To what extent did the music make you feel ,GUILTY,30MonoWAV/30MonoF2.wav,1,2,2,2,,,,,1,1,17,1,0,3,3,5,,,,,,,,,1,0.7183586830215063,,,034,001,2019_May_15_1410,MusicAffectPsychophysiology2019,3.0.5,59.911751299156634,
To what extent did the music make you feel ,ACTIVE,30MonoWAV/30MonoF2.wav,1,2,2,2,,,,,1,1,17,1,0,4,4,9,,,,,,,,,2,0.2685319489974063,,,034,001,2019_May_15_1410,MusicAffectPsychophysiology2019,3.0.5,59.911751299156634,
To what extent did the music make you feel ,HAPPY,30MonoWAV/30MonoF2.wav,1,2,2,2,,,,,1,1,17,1,0,5,5,6,,,,,,,,,1,1.1363277480122633,,,034,001,2019_May_15_1410,MusicAffectPsychophysiology2019,3.0.5,59.911751299156634,
To what extent did the music make you feel ,ASHAMED,30MonoWAV/30MonoF2.wav,1,2,2,2,,,,,1,1,17,1,0,6,6,4,,,,,,,,,2,0.7013035519921687,,,034,001,2019_May_15_1410,MusicAffectPsychophysiology2019,3.0.5,59.911751299156634,
To what extent did the music make you feel ,TENDER,30MonoWAV/30MonoF2.wav,1,2,2,2,,,,,1,1,17,1,0,7,7,10,,,,,,,,,1,0.6022122600115836,,,034,001,2019_May_15_1410,MusicAffectPsychophysiology2019,3.0.5,59.911751299156634,
To what extent did the music make you feel ,FRUSTRATED,30MonoWAV/30MonoF2.wav,1,2,2,2,,,,,1,1,17,1,0,8,8,3,,,,,,,,,2,0.6854500730114523,,,034,001,2019_May_15_1410,MusicAffectPsychophysiology2019,3.0.5,59.911751299156634,
To what extent did the music make you feel ,ALERT,30MonoWAV/30MonoF2.wav,1,2,2,2,,,,,1,1,17,1,0,9,9,8,,,,,,,,,3,1.0861998389882501,,,034,001,2019_May_15_1410,MusicAffectPsychophysiology2019,3.0.5,59.911751299156634,
To what extent did the music make you feel ,ANXIOUS ,30MonoWAV/30MonoF2.wav,1,2,2,2,,,,,1,1,17,1,0,10,10,1,,,,,,,,,3,0.9348908370011486,,,034,001,2019_May_15_1410,MusicAffectPsychophysiology2019,3.0.5,59.911751299156634,
To what extent did the music make you feel ,EXCITED,30MonoWAV/30MonoF2.wav,1,2,2,2,,,,,1,1,17,1,0,11,11,7,,,,,,,,,1,0.8189523479959462,,,034,001,2019_May_15_1410,MusicAffectPsychophysiology2019,3.0.5,59.911751299156634,
,,30MonoWAV/30MonoF2.wav,1,2,2,2,,,,,1,1,17,1,,,,,,,,,,,,,,,,,034,001,2019_May_15_1410,MusicAffectPsychophysiology2019,3.0.5,59.911751299156634,
To what extent did the music make you feel ,ANGRY,30MonoWAV/30MonoT4.wav,2,1,4,16,,,,,1,2,18,15,0,0,0,2,,,2,2.084839486022247,1,0.8359244659950491,2,1.2856324409949593,1,1.5356287689937744,,,034,001,2019_May_15_1410,MusicAffectPsychophysiology2019,3.0.5,59.911751299156634,
To what extent did the music make you feel ,ACTIVE,30MonoWAV/30MonoT4.wav,2,1,4,16,,,,,1,2,18,15,0,1,1,9,,,,,,,,,2,1.000518001994351,,,034,001,2019_May_15_1410,MusicAffectPsychophysiology2019,3.0.5,59.911751299156634,
To what extent did the music make you feel ,ASHAMED,30MonoWAV/30MonoT4.wav,2,1,4,16,,,,,1,2,18,15,0,2,2,4,,,,,,,,,1,0.5516671730147209,,,034,001,2019_May_15_1410,MusicAffectPsychophysiology2019,3.0.5,59.911751299156634,
To what extent did the music make you feel ,SAD,30MonoWAV/30MonoT4.wav,2,1,4,16,,,,,1,2,18,15,0,3,3,0,,,,,,,,,2,0.8355036090069916,,,034,001,2019_May_15_1410,MusicAffectPsychophysiology2019,3.0.5,59.911751299156634,
To what extent did the music make you feel ,GUILTY,30MonoWAV/30MonoT4.wav,2,1,4,16,,,,,1,2,18,15,0,4,4,5,,,,,,,,,1,0.7681997500185389,,,034,001,2019_May_15_1410,MusicAffectPsychophysiology2019,3.0.5,59.911751299156634,
To what extent did the music make you feel ,EXCITED,30MonoWAV/30MonoT4.wav,2,1,4,16,,,,,1,2,18,15,0,5,5,7,,,,,,,,,1,0.736333196022315,,,034,001,2019_May_15_1410,MusicAffectPsychophysiology2019,3.0.5,59.911751299156634,
To what extent did the music make you feel ,ANXIOUS ,30MonoWAV/30MonoT4.wav,2,1,4,16,,,,,1,2,18,15,0,6,6,1,,,,,,,,,2,0.6848519860068336,,,034,001,2019_May_15_1410,MusicAffectPsychophysiology2019,3.0.5,59.911751299156634,
To what extent did the music make you feel ,TENDER,30MonoWAV/30MonoT4.wav,2,1,4,16,,,,,1,2,18,15,0,7,7,10,,,,,,,,,1,0.5352841629937757,,,034,001,2019_May_15_1410,MusicAffectPsychophysiology2019,3.0.5,59.911751299156634,
To what extent did the music make you feel ,SCARED,30MonoWAV/30MonoT4.wav,2,1,4,16,,,,,1,2,18,15,0,8,8,11,,,,,,,,,2,0.2519013650016859,,,034,001,2019_May_15_1410,MusicAffectPsychophysiology2019,3.0.5,59.911751299156634,
To what extent did the music make you feel ,HAPPY,30MonoWAV/30MonoT4.wav,2,1,4,16,,,,,1,2,18,15,0,9,9,6,,,,,,,,,1,0.6513225309900008,,,034,001,2019_May_15_1410,MusicAffectPsychophysiology2019,3.0.5,59.911751299156634,
To what extent did the music make you feel ,ALERT,30MonoWAV/30MonoT4.wav,2,1,4,16,,,,,1,2,18,15,0,10,10,8,,,,,,,,,1,0.7027381719963159,,,034,001,2019_May_15_1410,MusicAffectPsychophysiology2019,3.0.5,59.911751299156634,
To what extent did the music make you feel ,FRUSTRATED,30MonoWAV/30MonoT4.wav,2,1,4,16,,,,,1,2,18,15,0,11,11,3,,,,,,,,,1,0.7017102510144468,,,034,001,2019_May_15_1410,MusicAffectPsychophysiology2019,3.0.5,59.911751299156634,
,,30MonoWAV/30MonoT4.wav,2,1,4,16,,,,,1,2,18,15,,,,,,,,,,,,,,,,,034,001,2019_May_15_1410,MusicAffectPsychophysiology2019,3.0.5,59.911751299156634,
To what extent did the music make you feel ,ASHAMED,30MonoWAV/30MonoS2.wav,1,1,3,10,,,,,1,3,19,9,0,0,0,4,,,1,2.453098213998601,1,1.2533572489919607,3,1.506454009009758,1,1.1189424009935465,,,034,001,2019_May_15_1410,MusicAffectPsychophysiology2019,3.0.5,59.911751299156634,
To what extent did the music make you feel ,SCARED,30MonoWAV/30MonoS2.wav,1,1,3,10,,,,,1,3,19,9,0,1,1,11,,,,,,,,,1,1.0009367600141559,,,034,001,2019_May_15_1410,MusicAffectPsychophysiology2019,3.0.5,59.911751299156634,
To what extent did the music make you feel ,EXCITED,30MonoWAV/30MonoS2.wav,1,1,3,10,,,,,1,3,19,9,0,2,2,7,,,,,,,,,1,0.5189520019921474,,,034,001,2019_May_15_1410,MusicAffectPsychophysiology2019,3.0.5,59.911751299156634,
To what extent did the music make you feel ,TENDER,30MonoWAV/30MonoS2.wav,1,1,3,10,,,,,1,3,19,9,0,3,3,10,,,,,,,,,3,0.7513788700161967,,,034,001,2019_May_15_1410,MusicAffectPsychophysiology2019,3.0.5,59.911751299156634,
To what extent did the music make you feel ,SAD,30MonoWAV/30MonoS2.wav,1,1,3,10,,,,,1,3,19,9,0,4,4,0,,,,,,,,,2,1.2183827649860177,,,034,001,2019_May_15_1410,MusicAffectPsychophysiology2019,3.0.5,59.911751299156634,
To what extent did the music make you feel ,FRUSTRATED,30MonoWAV/30MonoS2.wav,1,1,3,10,,,,,1,3,19,9,0,5,5,3,,,,,,,,,1,0.5187675670022145,,,034,001,2019_May_15_1410,MusicAffectPsychophysiology2019,3.0.5,59.911751299156634,
To what extent did the music make you feel ,ACTIVE,30MonoWAV/30MonoS2.wav,1,1,3,10,,,,,1,3,19,9,0,6,6,9,,,,,,,,,1,0.6190086540009361,,,034,001,2019_May_15_1410,MusicAffectPsychophysiology2019,3.0.5,59.911751299156634,
To what extent did the music make you feel ,GUILTY,30MonoWAV/30MonoS2.wav,1,1,3,10,,,,,1,3,19,9,0,7,7,5,,,,,,,,,1,0.505888296989724,,,034,001,2019_May_15_1410,MusicAffectPsychophysiology2019,3.0.5,59.911751299156634,
To what extent did the music make you feel ,HAPPY,30MonoWAV/30MonoS2.wav,1,1,3,10,,,,,1,3,19,9,0,8,8,6,,,,,,,,,1,0.4691614879993722,,,034,001,2019_May_15_1410,MusicAffectPsychophysiology2019,3.0.5,59.911751299156634,
To what extent did the music make you feel ,ALERT,30MonoWAV/30MonoS2.wav,1,1,3,10,,,,,1,3,19,9,0,9,9,8,,,,,,,,,1,0.435597539995797,,,034,001,2019_May_15_1410,MusicAffectPsychophysiology2019,3.0.5,59.911751299156634,
To what extent did the music make you feel ,ANGRY,30MonoWAV/30MonoS2.wav,1,1,3,10,,,,,1,3,19,9,0,10,10,2,,,,,,,,,1,0.535379587992793,,,034,001,2019_May_15_1410,MusicAffectPsychophysiology2019,3.0.5,59.911751299156634,
To what extent did the music make you feel ,ANXIOUS ,30MonoWAV/30MonoS2.wav,1,1,3,10,,,,,1,3,19,9,0,11,11,1,,,,,,,,,1,0.4362850590259768,,,034,001,2019_May_15_1410,MusicAffectPsychophysiology2019,3.0.5,59.911751299156634,
,,30MonoWAV/30MonoS2.wav,1,1,3,10,,,,,1,3,19,9,,,,,,,,,,,,,,,,,034,001,2019_May_15_1410,MusicAffectPsychophysiology2019,3.0.5,59.911751299156634,
To what extent did the music make you feel ,ANGRY,30MonoWAV/30MonoF4.wav,1,2,2,4,,,,,1,4,20,3,0,0,0,2,,,2,2.185203801986063,1,1.2355147459893487,1,0.3195392480120063,2,1.2184188870014623,,,034,001,2019_May_15_1410,MusicAffectPsychophysiology2019,3.0.5,59.911751299156634,
To what extent did the music make you feel ,EXCITED,30MonoWAV/30MonoF4.wav,1,2,2,4,,,,,1,4,20,3,0,1,1,7,,,,,,,,,3,0.4017964230151847,,,034,001,2019_May_15_1410,MusicAffectPsychophysiology2019,3.0.5,59.911751299156634,
To what extent did the music make you feel ,HAPPY,30MonoWAV/30MonoF4.wav,1,2,2,4,,,,,1,4,20,3,0,2,2,6,,,,,,,,,1,0.8180433539964724,,,034,001,2019_May_15_1410,MusicAffectPsychophysiology2019,3.0.5,59.911751299156634,
To what extent did the music make you feel ,ACTIVE,30MonoWAV/30MonoF4.wav,1,2,2,4,,,,,1,4,20,3,0,3,3,9,,,,,,,,,3,0.9015116250084247,,,034,001,2019_May_15_1410,MusicAffectPsychophysiology2019,3.0.5,59.911751299156634,
To what extent did the music make you feel ,ASHAMED,30MonoWAV/30MonoF4.wav,1,2,2,4,,,,,1,4,20,3,0,4,4,4,,,,,,,,,1,0.6402309990080539,,,034,001,2019_May_15_1410,MusicAffectPsychophysiology2019,3.0.5,59.911751299156634,
To what extent did the music make you feel ,ALERT,30MonoWAV/30MonoF4.wav,1,2,2,4,,,,,1,4,20,3,0,5,5,8,,,,,,,,,3,0.6194803339894861,,,034,001,2019_May_15_1410,MusicAffectPsychophysiology2019,3.0.5,59.911751299156634,
To what extent did the music make you feel ,FRUSTRATED,30MonoWAV/30MonoF4.wav,1,2,2,4,,,,,1,4,20,3,0,6,6,3,,,,,,,,,3,0.736173584999051,,,034,001,2019_May_15_1410,MusicAffectPsychophysiology2019,3.0.5,59.911751299156634,
To what extent did the music make you feel ,GUILTY,30MonoWAV/30MonoF4.wav,1,2,2,4,,,,,1,4,20,3,0,7,7,5,,,,,,,,,1,0.7689815600169823,,,034,001,2019_May_15_1410,MusicAffectPsychophysiology2019,3.0.5,59.911751299156634,
To what extent did the music make you feel ,ANXIOUS ,30MonoWAV/30MonoF4.wav,1,2,2,4,,,,,1,4,20,3,0,8,8,1,,,,,,,,,3,0.6031644439790398,,,034,001,2019_May_15_1410,MusicAffectPsychophysiology2019,3.0.5,59.911751299156634,
To what extent did the music make you feel ,SAD,30MonoWAV/30MonoF4.wav,1,2,2,4,,,,,1,4,20,3,0,9,9,0,,,,,,,,,1,0.7840194969903678,,,034,001,2019_May_15_1410,MusicAffectPsychophysiology2019,3.0.5,59.911751299156634,
To what extent did the music make you feel ,SCARED,30MonoWAV/30MonoF4.wav,1,2,2,4,,,,,1,4,20,3,0,10,10,11,,,,,,,,,3,0.5520476780075114,,,034,001,2019_May_15_1410,MusicAffectPsychophysiology2019,3.0.5,59.911751299156634,
To what extent did the music make you feel ,TENDER,30MonoWAV/30MonoF4.wav,1,2,2,4,,,,,1,4,20,3,0,11,11,10,,,,,,,,,1,0.7522649019956589,,,034,001,2019_May_15_1410,MusicAffectPsychophysiology2019,3.0.5,59.911751299156634,
,,30MonoWAV/30MonoF4.wav,1,2,2,4,,,,,1,4,20,3,,,,,,,,,,,,,,,,,034,001,2019_May_15_1410,MusicAffectPsychophysiology2019,3.0.5,59.911751299156634,
To what extent did the music make you feel ,TENDER,30MonoWAV/30MonoH1.wav,2,2,1,5,,,,,1,5,21,4,0,0,0,10,,,1,2.0000876399863046,3,1.367933809000533,4,1.7022300429816823,2,1.3000643500126898,,,034,001,2019_May_15_1410,MusicAffectPsychophysiology2019,3.0.5,59.911751299156634,
To what extent did the music make you feel ,EXCITED,30MonoWAV/30MonoH1.wav,2,2,1,5,,,,,1,5,21,4,0,1,1,7,,,,,,,,,2,1.0008695620053913,,,034,001,2019_May_15_1410,MusicAffectPsychophysiology2019,3.0.5,59.911751299156634,
To what extent did the music make you feel ,ALERT,30MonoWAV/30MonoH1.wav,2,2,1,5,,,,,1,5,21,4,0,2,2,8,,,,,,,,,1,1.0345528149919119,,,034,001,2019_May_15_1410,MusicAffectPsychophysiology2019,3.0.5,59.911751299156634,
To what extent did the music make you feel ,ASHAMED,30MonoWAV/30MonoH1.wav,2,2,1,5,,,,,1,5,21,4,0,3,3,4,,,,,,,,,1,0.919381137995515,,,034,001,2019_May_15_1410,MusicAffectPsychophysiology2019,3.0.5,59.911751299156634,
To what extent did the music make you feel ,SAD,30MonoWAV/30MonoH1.wav,2,2,1,5,,,,,1,5,21,4,0,4,4,0,,,,,,,,,1,0.6182069309870712,,,034,001,2019_May_15_1410,MusicAffectPsychophysiology2019,3.0.5,59.911751299156634,
To what extent did the music make you feel ,FRUSTRATED,30MonoWAV/30MonoH1.wav,2,2,1,5,,,,,1,5,21,4,0,5,5,3,,,,,,,,,1,0.668871002009837,,,034,001,2019_May_15_1410,MusicAffectPsychophysiology2019,3.0.5,59.911751299156634,
To what extent did the music make you feel ,ANXIOUS ,30MonoWAV/30MonoH1.wav,2,2,1,5,,,,,1,5,21,4,0,6,6,1,,,,,,,,,1,0.6676943770144135,,,034,001,2019_May_15_1410,MusicAffectPsychophysiology2019,3.0.5,59.911751299156634,
To what extent did the music make you feel ,ANGRY,30MonoWAV/30MonoH1.wav,2,2,1,5,,,,,1,5,21,4,0,7,7,2,,,,,,,,,1,0.4849559070135001,,,034,001,2019_May_15_1410,MusicAffectPsychophysiology2019,3.0.5,59.911751299156634,
To what extent did the music make you feel ,GUILTY,30MonoWAV/30MonoH1.wav,2,2,1,5,,,,,1,5,21,4,0,8,8,5,,,,,,,,,1,0.48323901699041016,,,034,001,2019_May_15_1410,MusicAffectPsychophysiology2019,3.0.5,59.911751299156634,
To what extent did the music make you feel ,SCARED,30MonoWAV/30MonoH1.wav,2,2,1,5,,,,,1,5,21,4,0,9,9,11,,,,,,,,,1,0.4677097749954555,,,034,001,2019_May_15_1410,MusicAffectPsychophysiology2019,3.0.5,59.911751299156634,
To what extent did the music make you feel ,HAPPY,30MonoWAV/30MonoH1.wav,2,2,1,5,,,,,1,5,21,4,0,10,10,6,,,,,,,,,3,1.0355836870148778,,,034,001,2019_May_15_1410,MusicAffectPsychophysiology2019,3.0.5,59.911751299156634,
To what extent did the music make you feel ,ACTIVE,30MonoWAV/30MonoH1.wav,2,2,1,5,,,,,1,5,21,4,0,11,11,9,,,,,,,,,1,1.1358838220185135,,,034,001,2019_May_15_1410,MusicAffectPsychophysiology2019,3.0.5,59.911751299156634,
,,30MonoWAV/30MonoH1.wav,2,2,1,5,,,,,1,5,21,4,,,,,,,,,,,,,,,,,034,001,2019_May_15_1410,MusicAffectPsychophysiology2019,3.0.5,59.911751299156634,
To what extent did the music make you feel ,ASHAMED,30MonoWAV/30MonoF3.wav,1,2,2,3,,,,,1,6,22,2,0,0,0,4,,,2,2.221017895004479,1,1.1513704009994399,2,1.2191568540001754,1,1.2409398239979055,,,034,001,2019_May_15_1410,MusicAffectPsychophysiology2019,3.0.5,59.911751299156634,
To what extent did the music make you feel ,SAD,30MonoWAV/30MonoF3.wav,1,2,2,3,,,,,1,6,22,2,0,1,1,0,,,,,,,,,2,0.2853081150096841,,,034,001,2019_May_15_1410,MusicAffectPsychophysiology2019,3.0.5,59.911751299156634,
To what extent did the music make you feel ,ACTIVE,30MonoWAV/30MonoF3.wav,1,2,2,3,,,,,1,6,22,2,0,2,2,9,,,,,,,,,1,0.4330371969845146,,,034,001,2019_May_15_1410,MusicAffectPsychophysiology2019,3.0.5,59.911751299156634,
To what extent did the music make you feel ,ALERT,30MonoWAV/30MonoF3.wav,1,2,2,3,,,,,1,6,22,2,0,3,3,8,,,,,,,,,1,0.319120065018069,,,034,001,2019_May_15_1410,MusicAffectPsychophysiology2019,3.0.5,59.911751299156634,
To what extent did the music make you feel ,TENDER,30MonoWAV/30MonoF3.wav,1,2,2,3,,,,,1,6,22,2,0,4,4,10,,,,,,,,,1,0.43337843398330733,,,034,001,2019_May_15_1410,MusicAffectPsychophysiology2019,3.0.5,59.911751299156634,
To what extent did the music make you feel ,FRUSTRATED,30MonoWAV/30MonoF3.wav,1,2,2,3,,,,,1,6,22,2,0,5,5,3,,,,,,,,,2,0.2844732869998552,,,034,001,2019_May_15_1410,MusicAffectPsychophysiology2019,3.0.5,59.911751299156634,
To what extent did the music make you feel ,EXCITED,30MonoWAV/30MonoF3.wav,1,2,2,3,,,,,1,6,22,2,0,6,6,7,,,,,,,,,1,0.3695758990070317,,,034,001,2019_May_15_1410,MusicAffectPsychophysiology2019,3.0.5,59.911751299156634,
To what extent did the music make you feel ,ANGRY,30MonoWAV/30MonoF3.wav,1,2,2,3,,,,,1,6,22,2,0,7,7,2,,,,,,,,,2,0.46935891901375726,,,034,001,2019_May_15_1410,MusicAffectPsychophysiology2019,3.0.5,59.911751299156634,
To what extent did the music make you feel ,HAPPY,30MonoWAV/30MonoF3.wav,1,2,2,3,,,,,1,6,22,2,0,8,8,6,,,,,,,,,1,0.40246372498222627,,,034,001,2019_May_15_1410,MusicAffectPsychophysiology2019,3.0.5,59.911751299156634,
To what extent did the music make you feel ,ANXIOUS ,30MonoWAV/30MonoF3.wav,1,2,2,3,,,,,1,6,22,2,0,9,9,1,,,,,,,,,2,0.38450892199762166,,,034,001,2019_May_15_1410,MusicAffectPsychophysiology2019,3.0.5,59.911751299156634,
To what extent did the music make you feel ,GUILTY,30MonoWAV/30MonoF3.wav,1,2,2,3,,,,,1,6,22,2,0,10,10,5,,,,,,,,,1,0.384095522982534,,,034,001,2019_May_15_1410,MusicAffectPsychophysiology2019,3.0.5,59.911751299156634,
To what extent did the music make you feel ,SCARED,30MonoWAV/30MonoF3.wav,1,2,2,3,,,,,1,6,22,2,0,11,11,11,,,,,,,,,2,0.3852054760209285,,,034,001,2019_May_15_1410,MusicAffectPsychophysiology2019,3.0.5,59.911751299156634,
,,30MonoWAV/30MonoF3.wav,1,2,2,3,,,,,1,6,22,2,,,,,,,,,,,,,,,,,034,001,2019_May_15_1410,MusicAffectPsychophysiology2019,3.0.5,59.911751299156634,
To what extent did the music make you feel ,ALERT,30MonoWAV/30MonoH4.wav,2,2,1,8,,,,,1,7,23,7,0,0,0,8,,,1,1.9676199970126618,1,1.184756809991086,3,1.4351711930066813,2,1.1355879409820773,,,034,001,2019_May_15_1410,MusicAffectPsychophysiology2019,3.0.5,59.911751299156634,
To what extent did the music make you feel ,TENDER,30MonoWAV/30MonoH4.wav,2,2,1,8,,,,,1,7,23,7,0,1,1,10,,,,,,,,,2,0.8680938179895747,,,034,001,2019_May_15_1410,MusicAffectPsychophysiology2019,3.0.5,59.911751299156634,
To what extent did the music make you feel ,FRUSTRATED,30MonoWAV/30MonoH4.wav,2,2,1,8,,,,,1,7,23,7,0,2,2,3,,,,,,,,,1,0.8847527040052228,,,034,001,2019_May_15_1410,MusicAffectPsychophysiology2019,3.0.5,59.911751299156634,
To what extent did the music make you feel ,ACTIVE,30MonoWAV/30MonoH4.wav,2,2,1,8,,,,,1,7,23,7,0,3,3,9,,,,,,,,,2,0.619410481012892,,,034,001,2019_May_15_1410,MusicAffectPsychophysiology2019,3.0.5,59.911751299156634,
To what extent did the music make you feel ,GUILTY,30MonoWAV/30MonoH4.wav,2,2,1,8,,,,,1,7,23,7,0,4,4,5,,,,,,,,,1,0.6686310780060012,,,034,001,2019_May_15_1410,MusicAffectPsychophysiology2019,3.0.5,59.911751299156634,
To what extent did the music make you feel ,SAD,30MonoWAV/30MonoH4.wav,2,2,1,8,,,,,1,7,23,7,0,5,5,0,,,,,,,,,2,1.2667125390144065,,,034,001,2019_May_15_1410,MusicAffectPsychophysiology2019,3.0.5,59.911751299156634,
To what extent did the music make you feel ,SCARED,30MonoWAV/30MonoH4.wav,2,2,1,8,,,,,1,7,23,7,0,6,6,11,,,,,,,,,1,0.785304726974573,,,034,001,2019_May_15_1410,MusicAffectPsychophysiology2019,3.0.5,59.911751299156634,
To what extent did the music make you feel ,ANGRY,30MonoWAV/30MonoH4.wav,2,2,1,8,,,,,1,7,23,7,0,7,7,2,,,,,,,,,1,0.6184793330030516,,,034,001,2019_May_15_1410,MusicAffectPsychophysiology2019,3.0.5,59.911751299156634,
To what extent did the music make you feel ,ASHAMED,30MonoWAV/30MonoH4.wav,2,2,1,8,,,,,1,7,23,7,0,8,8,4,,,,,,,,,1,0.5669806649966631,,,034,001,2019_May_15_1410,MusicAffectPsychophysiology2019,3.0.5,59.911751299156634,
To what extent did the music make you feel ,HAPPY,30MonoWAV/30MonoH4.wav,2,2,1,8,,,,,1,7,23,7,0,9,9,6,,,,,,,,,3,0.7515308620058931,,,034,001,2019_May_15_1410,MusicAffectPsychophysiology2019,3.0.5,59.911751299156634,
To what extent did the music make you feel ,ANXIOUS ,30MonoWAV/30MonoH4.wav,2,2,1,8,,,,,1,7,23,7,0,10,10,1,,,,,,,,,1,0.6182259620109107,,,034,001,2019_May_15_1410,MusicAffectPsychophysiology2019,3.0.5,59.911751299156634,
To what extent did the music make you feel ,EXCITED,30MonoWAV/30MonoH4.wav,2,2,1,8,,,,,1,7,23,7,0,11,11,7,,,,,,,,,3,0.6524497350037564,,,034,001,2019_May_15_1410,MusicAffectPsychophysiology2019,3.0.5,59.911751299156634,
,,30MonoWAV/30MonoH4.wav,2,2,1,8,,,,,1,7,23,7,,,,,,,,,,,,,,,,,034,001,2019_May_15_1410,MusicAffectPsychophysiology2019,3.0.5,59.911751299156634,
To what extent did the music make you feel ,ANXIOUS ,30MonoWAV/30MonoF1.wav,1,2,2,1,,,,,1,8,24,0,0,0,0,1,,,2,3.500597316015046,2,0.8183354639913887,1,1.4691349779895972,2,1.084555901994463,,,034,001,2019_May_15_1410,MusicAffectPsychophysiology2019,3.0.5,59.911751299156634,
To what extent did the music make you feel ,SCARED,30MonoWAV/30MonoF1.wav,1,2,2,1,,,,,1,8,24,0,0,1,1,11,,,,,,,,,2,0.5529953810037114,,,034,001,2019_May_15_1410,MusicAffectPsychophysiology2019,3.0.5,59.911751299156634,
To what extent did the music make you feel ,EXCITED,30MonoWAV/30MonoF1.wav,1,2,2,1,,,,,1,8,24,0,0,2,2,7,,,,,,,,,1,0.9184191439999267,,,034,001,2019_May_15_1410,MusicAffectPsychophysiology2019,3.0.5,59.911751299156634,
To what extent did the music make you feel ,HAPPY,30MonoWAV/30MonoF1.wav,1,2,2,1,,,,,1,8,24,0,0,3,3,6,,,,,,,,,1,0.9175219280004967,,,034,001,2019_May_15_1410,MusicAffectPsychophysiology2019,3.0.5,59.911751299156634,
To what extent did the music make you feel ,FRUSTRATED,30MonoWAV/30MonoF1.wav,1,2,2,1,,,,,1,8,24,0,0,4,4,3,,,,,,,,,3,1.3680338689882774,,,034,001,2019_May_15_1410,MusicAffectPsychophysiology2019,3.0.5,59.911751299156634,
To what extent did the music make you feel ,ANGRY,30MonoWAV/30MonoF1.wav,1,2,2,1,,,,,1,8,24,0,0,5,5,2,,,,,,,,,3,0.6358206129807513,,,034,001,2019_May_15_1410,MusicAffectPsychophysiology2019,3.0.5,59.911751299156634,
To what extent did the music make you feel ,SAD,30MonoWAV/30MonoF1.wav,1,2,2,1,,,,,1,8,24,0,0,6,6,0,,,,,,,,,3,0.6849294139828999,,,034,001,2019_May_15_1410,MusicAffectPsychophysiology2019,3.0.5,59.911751299156634,
To what extent did the music make you feel ,ACTIVE,30MonoWAV/30MonoF1.wav,1,2,2,1,,,,,1,8,24,0,0,7,7,9,,,,,,,,,1,0.9340720869950019,,,034,001,2019_May_15_1410,MusicAffectPsychophysiology2019,3.0.5,59.911751299156634,
To what extent did the music make you feel ,TENDER,30MonoWAV/30MonoF1.wav,1,2,2,1,,,,,1,8,24,0,0,8,8,10,,,,,,,,,1,0.8513787130068522,,,034,001,2019_May_15_1410,MusicAffectPsychophysiology2019,3.0.5,59.911751299156634,
To what extent did the music make you feel ,GUILTY,30MonoWAV/30MonoF1.wav,1,2,2,1,,,,,1,8,24,0,0,9,9,5,,,,,,,,,2,0.6524182930006646,,,034,001,2019_May_15_1410,MusicAffectPsychophysiology2019,3.0.5,59.911751299156634,
To what extent did the music make you feel ,ASHAMED,30MonoWAV/30MonoF1.wav,1,2,2,1,,,,,1,8,24,0,0,10,10,4,,,,,,,,,2,0.7520619309798349,,,034,001,2019_May_15_1410,MusicAffectPsychophysiology2019,3.0.5,59.911751299156634,
To what extent did the music make you feel ,ALERT,30MonoWAV/30MonoF1.wav,1,2,2,1,,,,,1,8,24,0,0,11,11,8,,,,,,,,,2,0.8190321620204486,,,034,001,2019_May_15_1410,MusicAffectPsychophysiology2019,3.0.5,59.911751299156634,
,,30MonoWAV/30MonoF1.wav,1,2,2,1,,,,,1,8,24,0,,,,,,,,,,,,,,,,,034,001,2019_May_15_1410,MusicAffectPsychophysiology2019,3.0.5,59.911751299156634,
To what extent did the music make you feel ,ALERT,30MonoWAV/30MonoT3.wav,2,1,4,15,,,,,1,9,25,14,0,0,0,8,,,1,2.2022786120069213,1,0.8688478390104137,3,0.7857354639854748,2,0.7352231120166834,,,034,001,2019_May_15_1410,MusicAffectPsychophysiology2019,3.0.5,59.911751299156634,
To what extent did the music make you feel ,ACTIVE,30MonoWAV/30MonoT3.wav,2,1,4,15,,,,,1,9,25,14,0,1,1,9,,,,,,,,,1,2.1511008589877747,,,034,001,2019_May_15_1410,MusicAffectPsychophysiology2019,3.0.5,59.911751299156634,
To what extent did the music make you feel ,SAD,30MonoWAV/30MonoT3.wav,2,1,4,15,,,,,1,9,25,14,0,2,2,0,,,,,,,,,2,0.7514448609726969,,,034,001,2019_May_15_1410,MusicAffectPsychophysiology2019,3.0.5,59.911751299156634,
To what extent did the music make you feel ,FRUSTRATED,30MonoWAV/30MonoT3.wav,2,1,4,15,,,,,1,9,25,14,0,3,3,3,,,,,,,,,1,1.7194666510040406,,,034,001,2019_May_15_1410,MusicAffectPsychophysiology2019,3.0.5,59.911751299156634,
To what extent did the music make you feel ,ASHAMED,30MonoWAV/30MonoT3.wav,2,1,4,15,,,,,1,9,25,14,0,4,4,4,,,,,,,,,1,1.1680130980093963,,,034,001,2019_May_15_1410,MusicAffectPsychophysiology2019,3.0.5,59.911751299156634,
To what extent did the music make you feel ,EXCITED,30MonoWAV/30MonoT3.wav,2,1,4,15,,,,,1,9,25,14,0,5,5,7,,,,,,,,,1,2.085337686992716,,,034,001,2019_May_15_1410,MusicAffectPsychophysiology2019,3.0.5,59.911751299156634,
To what extent did the music make you feel ,TENDER,30MonoWAV/30MonoT3.wav,2,1,4,15,,,,,1,9,25,14,0,6,6,10,,,,,,,,,4,1.318497036001645,,,034,001,2019_May_15_1410,MusicAffectPsychophysiology2019,3.0.5,59.911751299156634,
To what extent did the music make you feel ,ANGRY,30MonoWAV/30MonoT3.wav,2,1,4,15,,,,,1,9,25,14,0,7,7,2,,,,,,,,,1,1.0515376969997305,,,034,001,2019_May_15_1410,MusicAffectPsychophysiology2019,3.0.5,59.911751299156634,
To what extent did the music make you feel ,HAPPY,30MonoWAV/30MonoT3.wav,2,1,4,15,,,,,1,9,25,14,0,8,8,6,,,,,,,,,2,1.3856675779970828,,,034,001,2019_May_15_1410,MusicAffectPsychophysiology2019,3.0.5,59.911751299156634,
To what extent did the music make you feel ,SCARED,30MonoWAV/30MonoT3.wav,2,1,4,15,,,,,1,9,25,14,0,9,9,11,,,,,,,,,2,1.6174483119975775,,,034,001,2019_May_15_1410,MusicAffectPsychophysiology2019,3.0.5,59.911751299156634,
To what extent did the music make you feel ,GUILTY,30MonoWAV/30MonoT3.wav,2,1,4,15,,,,,1,9,25,14,0,10,10,5,,,,,,,,,1,0.8177920280140825,,,034,001,2019_May_15_1410,MusicAffectPsychophysiology2019,3.0.5,59.911751299156634,
To what extent did the music make you feel ,ANXIOUS ,30MonoWAV/30MonoT3.wav,2,1,4,15,,,,,1,9,25,14,0,11,11,1,,,,,,,,,2,0.8690831210114993,,,034,001,2019_May_15_1410,MusicAffectPsychophysiology2019,3.0.5,59.911751299156634,
,,30MonoWAV/30MonoT3.wav,2,1,4,15,,,,,1,9,25,14,,,,,,,,,,,,,,,,,034,001,2019_May_15_1410,MusicAffectPsychophysiology2019,3.0.5,59.911751299156634,
To what extent did the music make you feel ,TENDER,30MonoWAV/30MonoH3.wav,2,2,1,7,,,,,1,10,26,6,0,0,0,10,,,3,1.8690650899952743,3,1.1017267709830776,2,1.1355643789866008,2,1.9674594909884036,,,034,001,2019_May_15_1410,MusicAffectPsychophysiology2019,3.0.5,59.911751299156634,
To what extent did the music make you feel ,SCARED,30MonoWAV/30MonoH3.wav,2,2,1,7,,,,,1,10,26,6,0,1,1,11,,,,,,,,,2,0.21772188899922185,,,034,001,2019_May_15_1410,MusicAffectPsychophysiology2019,3.0.5,59.911751299156634,
To what extent did the music make you feel ,SAD,30MonoWAV/30MonoH3.wav,2,2,1,7,,,,,1,10,26,6,0,2,2,0,,,,,,,,,2,0.18489589198725298,,,034,001,2019_May_15_1410,MusicAffectPsychophysiology2019,3.0.5,59.911751299156634,
To what extent did the music make you feel ,FRUSTRATED,30MonoWAV/30MonoH3.wav,2,2,1,7,,,,,1,10,26,6,0,3,3,3,,,,,,,,,2,0.23559594299877062,,,034,001,2019_May_15_1410,MusicAffectPsychophysiology2019,3.0.5,59.911751299156634,
To what extent did the music make you feel ,EXCITED,30MonoWAV/30MonoH3.wav,2,2,1,7,,,,,1,10,26,6,0,4,4,7,,,,,,,,,2,0.6854170880105812,,,034,001,2019_May_15_1410,MusicAffectPsychophysiology2019,3.0.5,59.911751299156634,
To what extent did the music make you feel ,GUILTY,30MonoWAV/30MonoH3.wav,2,2,1,7,,,,,1,10,26,6,0,5,5,5,,,,,,,,,1,0.0017952880007214844,,,034,001,2019_May_15_1410,MusicAffectPsychophysiology2019,3.0.5,59.911751299156634,
To what extent did the music make you feel ,ANGRY,30MonoWAV/30MonoH3.wav,2,2,1,7,,,,,1,10,26,6,0,6,6,2,,,,,,,,,1,0.20129190798616037,,,034,001,2019_May_15_1410,MusicAffectPsychophysiology2019,3.0.5,59.911751299156634,
To what extent did the music make you feel ,ANXIOUS ,30MonoWAV/30MonoH3.wav,2,2,1,7,,,,,1,10,26,6,0,7,7,1,,,,,,,,,2,0.5026263330073562,,,034,001,2019_May_15_1410,MusicAffectPsychophysiology2019,3.0.5,59.911751299156634,
To what extent did the music make you feel ,ASHAMED,30MonoWAV/30MonoH3.wav,2,2,1,7,,,,,1,10,26,6,0,8,8,4,,,,,,,,,3,0.28537965699797496,,,034,001,2019_May_15_1410,MusicAffectPsychophysiology2019,3.0.5,59.911751299156634,
To what extent did the music make you feel ,ALERT,30MonoWAV/30MonoH3.wav,2,2,1,7,,,,,1,10,26,6,0,9,9,8,,,,,,,,,1,0.33459729002788663,,,034,001,2019_May_15_1410,MusicAffectPsychophysiology2019,3.0.5,59.911751299156634,
To what extent did the music make you feel ,HAPPY,30MonoWAV/30MonoH3.wav,2,2,1,7,,,,,1,10,26,6,0,10,10,6,,,,,,,,,2,0.3849682279978879,,,034,001,2019_May_15_1410,MusicAffectPsychophysiology2019,3.0.5,59.911751299156634,
To what extent did the music make you feel ,ACTIVE,30MonoWAV/30MonoH3.wav,2,2,1,7,,,,,1,10,26,6,0,11,11,9,,,,,,,,,2,0.6019147149927448,,,034,001,2019_May_15_1410,MusicAffectPsychophysiology2019,3.0.5,59.911751299156634,
,,30MonoWAV/30MonoH3.wav,2,2,1,7,,,,,1,10,26,6,,,,,,,,,,,,,,,,,034,001,2019_May_15_1410,MusicAffectPsychophysiology2019,3.0.5,59.911751299156634,
To what extent did the music make you feel ,SCARED,30MonoWAV/30MonoS3.wav,1,1,3,11,,,,,1,11,27,10,0,0,0,11,,,1,2.268776937999064,1,1.0684638129896484,2,1.2345860209898092,3,1.5022985529794823,,,034,001,2019_May_15_1410,MusicAffectPsychophysiology2019,3.0.5,59.911751299156634,
To what extent did the music make you feel ,ANXIOUS ,30MonoWAV/30MonoS3.wav,1,1,3,11,,,,,1,11,27,10,0,1,1,1,,,,,,,,,3,0.7501521880039945,,,034,001,2019_May_15_1410,MusicAffectPsychophysiology2019,3.0.5,59.911751299156634,
To what extent did the music make you feel ,TENDER,30MonoWAV/30MonoS3.wav,1,1,3,11,,,,,1,11,27,10,0,2,2,10,,,,,,,,,3,0.48408045101678,,,034,001,2019_May_15_1410,MusicAffectPsychophysiology2019,3.0.5,59.911751299156634,
To what extent did the music make you feel ,ACTIVE,30MonoWAV/30MonoS3.wav,1,1,3,11,,,,,1,11,27,10,0,3,3,9,,,,,,,,,1,1.1181096349901054,,,034,001,2019_May_15_1410,MusicAffectPsychophysiology2019,3.0.5,59.911751299156634,
To what extent did the music make you feel ,GUILTY,30MonoWAV/30MonoS3.wav,1,1,3,11,,,,,1,11,27,10,0,4,4,5,,,,,,,,,2,0.7190667929826304,,,034,001,2019_May_15_1410,MusicAffectPsychophysiology2019,3.0.5,59.911751299156634,
To what extent did the music make you feel ,SAD,30MonoWAV/30MonoS3.wav,1,1,3,11,,,,,1,11,27,10,0,5,5,0,,,,,,,,,3,0.6854900899925269,,,034,001,2019_May_15_1410,MusicAffectPsychophysiology2019,3.0.5,59.911751299156634,
To what extent did the music make you feel ,ANGRY,30MonoWAV/30MonoS3.wav,1,1,3,11,,,,,1,11,27,10,0,6,6,2,,,,,,,,,1,1.2850000149919651,,,034,001,2019_May_15_1410,MusicAffectPsychophysiology2019,3.0.5,59.911751299156634,
To what extent did the music make you feel ,EXCITED,30MonoWAV/30MonoS3.wav,1,1,3,11,,,,,1,11,27,10,0,7,7,7,,,,,,,,,1,0.1851569330028724,,,034,001,2019_May_15_1410,MusicAffectPsychophysiology2019,3.0.5,59.911751299156634,
To what extent did the music make you feel ,ASHAMED,30MonoWAV/30MonoS3.wav,1,1,3,11,,,,,1,11,27,10,0,8,8,4,,,,,,,,,1,0.7344907210208476,,,034,001,2019_May_15_1410,MusicAffectPsychophysiology2019,3.0.5,59.911751299156634,
To what extent did the music make you feel ,ALERT,30MonoWAV/30MonoS3.wav,1,1,3,11,,,,,1,11,27,10,0,9,9,8,,,,,,,,,1,0.48582610199810006,,,034,001,2019_May_15_1410,MusicAffectPsychophysiology2019,3.0.5,59.911751299156634,
To what extent did the music make you feel ,FRUSTRATED,30MonoWAV/30MonoS3.wav,1,1,3,11,,,,,1,11,27,10,0,10,10,3,,,,,,,,,1,1.1181662669987418,,,034,001,2019_May_15_1410,MusicAffectPsychophysiology2019,3.0.5,59.911751299156634,
To what extent did the music make you feel ,HAPPY,30MonoWAV/30MonoS3.wav,1,1,3,11,,,,,1,11,27,10,0,11,11,6,,,,,,,,,1,0.5172099510091357,,,034,001,2019_May_15_1410,MusicAffectPsychophysiology2019,3.0.5,59.911751299156634,
,,30MonoWAV/30MonoS3.wav,1,1,3,11,,,,,1,11,27,10,,,,,,,,,,,,,,,,,034,001,2019_May_15_1410,MusicAffectPsychophysiology2019,3.0.5,59.911751299156634,
To what extent did the music make you feel ,FRUSTRATED,30MonoWAV/30MonoS1.wav,1,1,3,9,,,,,1,12,28,8,0,0,0,3,,,1,2.0718437820032705,2,0.9871985150093678,3,0.9180255910032429,1,0.9527823050157167,,,034,001,2019_May_15_1410,MusicAffectPsychophysiology2019,3.0.5,59.911751299156634,
To what extent did the music make you feel ,TENDER,30MonoWAV/30MonoS1.wav,1,1,3,9,,,,,1,12,28,8,0,1,1,10,,,,,,,,,3,1.06939222899382,,,034,001,2019_May_15_1410,MusicAffectPsychophysiology2019,3.0.5,59.911751299156634,
To what extent did the music make you feel ,EXCITED,30MonoWAV/30MonoS1.wav,1,1,3,9,,,,,1,12,28,8,0,2,2,7,,,,,,,,,1,0.8895668920013122,,,034,001,2019_May_15_1410,MusicAffectPsychophysiology2019,3.0.5,59.911751299156634,
To what extent did the music make you feel ,ASHAMED,30MonoWAV/30MonoS1.wav,1,1,3,9,,,,,1,12,28,8,0,3,3,4,,,,,,,,,1,0.9012453210016247,,,034,001,2019_May_15_1410,MusicAffectPsychophysiology2019,3.0.5,59.911751299156634,
To what extent did the music make you feel ,HAPPY,30MonoWAV/30MonoS1.wav,1,1,3,9,,,,,1,12,28,8,0,4,4,6,,,,,,,,,1,0.5337674170150422,,,034,001,2019_May_15_1410,MusicAffectPsychophysiology2019,3.0.5,59.911751299156634,
To what extent did the music make you feel ,SCARED,30MonoWAV/30MonoS1.wav,1,1,3,9,,,,,1,12,28,8,0,5,5,11,,,,,,,,,2,0.9695974159985781,,,034,001,2019_May_15_1410,MusicAffectPsychophysiology2019,3.0.5,59.911751299156634,
To what extent did the music make you feel ,GUILTY,30MonoWAV/30MonoS1.wav,1,1,3,9,,,,,1,12,28,8,0,6,6,5,,,,,,,,,1,0.4847530929837376,,,034,001,2019_May_15_1410,MusicAffectPsychophysiology2019,3.0.5,59.911751299156634,
To what extent did the music make you feel ,SAD,30MonoWAV/30MonoS1.wav,1,1,3,9,,,,,1,12,28,8,0,7,7,0,,,,,,,,,1,0.418859658006113,,,034,001,2019_May_15_1410,MusicAffectPsychophysiology2019,3.0.5,59.911751299156634,
To what extent did the music make you feel ,ACTIVE,30MonoWAV/30MonoS1.wav,1,1,3,9,,,,,1,12,28,8,0,8,8,9,,,,,,,,,1,0.8697406610008329,,,034,001,2019_May_15_1410,MusicAffectPsychophysiology2019,3.0.5,59.911751299156634,
To what extent did the music make you feel ,ALERT,30MonoWAV/30MonoS1.wav,1,1,3,9,,,,,1,12,28,8,0,9,9,8,,,,,,,,,1,0.9021402299986221,,,034,001,2019_May_15_1410,MusicAffectPsychophysiology2019,3.0.5,59.911751299156634,
To what extent did the music make you feel ,ANGRY,30MonoWAV/30MonoS1.wav,1,1,3,9,,,,,1,12,28,8,0,10,10,2,,,,,,,,,1,0.5016045390220825,,,034,001,2019_May_15_1410,MusicAffectPsychophysiology2019,3.0.5,59.911751299156634,
To what extent did the music make you feel ,ANXIOUS ,30MonoWAV/30MonoS1.wav,1,1,3,9,,,,,1,12,28,8,0,11,11,1,,,,,,,,,1,0.38343554199673235,,,034,001,2019_May_15_1410,MusicAffectPsychophysiology2019,3.0.5,59.911751299156634,
,,30MonoWAV/30MonoS1.wav,1,1,3,9,,,,,1,12,28,8,,,,,,,,,,,,,,,,,034,001,2019_May_15_1410,MusicAffectPsychophysiology2019,3.0.5,59.911751299156634,
To what extent did the music make you feel ,ANXIOUS ,30MonoWAV/30MonoT2.wav,2,1,4,14,,,,,1,13,29,13,0,0,0,1,,,1,2.335530137992464,2,1.0679897539957892,3,0.5191387899976689,2,1.2681879620067775,,,034,001,2019_May_15_1410,MusicAffectPsychophysiology2019,3.0.5,59.911751299156634,
To what extent did the music make you feel ,EXCITED,30MonoWAV/30MonoT2.wav,2,1,4,14,,,,,1,13,29,13,0,1,1,7,,,,,,,,,1,1.7195502429967746,,,034,001,2019_May_15_1410,MusicAffectPsychophysiology2019,3.0.5,59.911751299156634,
To what extent did the music make you feel ,ALERT,30MonoWAV/30MonoT2.wav,2,1,4,14,,,,,1,13,29,13,0,2,2,8,,,,,,,,,1,0.7171092449862044,,,034,001,2019_May_15_1410,MusicAffectPsychophysiology2019,3.0.5,59.911751299156634,
To what extent did the music make you feel ,GUILTY,30MonoWAV/30MonoT2.wav,2,1,4,14,,,,,1,13,29,13,0,3,3,5,,,,,,,,,1,0.5346897699928377,,,034,001,2019_May_15_1410,MusicAffectPsychophysiology2019,3.0.5,59.911751299156634,
To what extent did the music make you feel ,ANGRY,30MonoWAV/30MonoT2.wav,2,1,4,14,,,,,1,13,29,13,0,4,4,2,,,,,,,,,1,1.151709737983765,,,034,001,2019_May_15_1410,MusicAffectPsychophysiology2019,3.0.5,59.911751299156634,
To what extent did the music make you feel ,TENDER,30MonoWAV/30MonoT2.wav,2,1,4,14,,,,,1,13,29,13,0,5,5,10,,,,,,,,,3,0.6015747179917526,,,034,001,2019_May_15_1410,MusicAffectPsychophysiology2019,3.0.5,59.911751299156634,
To what extent did the music make you feel ,FRUSTRATED,30MonoWAV/30MonoT2.wav,2,1,4,14,,,,,1,13,29,13,0,6,6,3,,,,,,,,,1,0.6335934009985067,,,034,001,2019_May_15_1410,MusicAffectPsychophysiology2019,3.0.5,59.911751299156634,
To what extent did the music make you feel ,ACTIVE,30MonoWAV/30MonoT2.wav,2,1,4,14,,,,,1,13,29,13,0,7,7,9,,,,,,,,,1,1.9690063470043242,,,034,001,2019_May_15_1410,MusicAffectPsychophysiology2019,3.0.5,59.911751299156634,
To what extent did the music make you feel ,HAPPY,30MonoWAV/30MonoT2.wav,2,1,4,14,,,,,1,13,29,13,0,8,8,6,,,,,,,,,1,0.5176263750181533,,,034,001,2019_May_15_1410,MusicAffectPsychophysiology2019,3.0.5,59.911751299156634,
To what extent did the music make you feel ,SCARED,30MonoWAV/30MonoT2.wav,2,1,4,14,,,,,1,13,29,13,0,9,9,11,,,,,,,,,3,0.7852014240052085,,,034,001,2019_May_15_1410,MusicAffectPsychophysiology2019,3.0.5,59.911751299156634,
To what extent did the music make you feel ,ASHAMED,30MonoWAV/30MonoT2.wav,2,1,4,14,,,,,1,13,29,13,0,10,10,4,,,,,,,,,1,1.2343806400022004,,,034,001,2019_May_15_1410,MusicAffectPsychophysiology2019,3.0.5,59.911751299156634,
To what extent did the music make you feel ,SAD,30MonoWAV/30MonoT2.wav,2,1,4,14,,,,,1,13,29,13,0,11,11,0,,,,,,,,,3,0.6685826779867057,,,034,001,2019_May_15_1410,MusicAffectPsychophysiology2019,3.0.5,59.911751299156634,
,,30MonoWAV/30MonoT2.wav,2,1,4,14,,,,,1,13,29,13,,,,,,,,,,,,,,,,,034,001,2019_May_15_1410,MusicAffectPsychophysiology2019,3.0.5,59.911751299156634,
To what extent did the music make you feel ,TENDER,30MonoWAV/30MonoH2.wav,2,2,1,6,,,,,1,14,30,5,0,0,0,10,,,2,2.086649895994924,1,0.6355145540146623,2,0.8529255460016429,3,0.8847381430095993,,,034,001,2019_May_15_1410,MusicAffectPsychophysiology2019,3.0.5,59.911751299156634,
To what extent did the music make you feel ,GUILTY,30MonoWAV/30MonoH2.wav,2,2,1,6,,,,,1,14,30,5,0,1,1,5,,,,,,,,,1,1.151114673994016,,,034,001,2019_May_15_1410,MusicAffectPsychophysiology2019,3.0.5,59.911751299156634,
To what extent did the music make you feel ,ANGRY,30MonoWAV/30MonoH2.wav,2,2,1,6,,,,,1,14,30,5,0,2,2,2,,,,,,,,,1,0.452187226008391,,,034,001,2019_May_15_1410,MusicAffectPsychophysiology2019,3.0.5,59.911751299156634,
To what extent did the music make you feel ,ASHAMED,30MonoWAV/30MonoH2.wav,2,2,1,6,,,,,1,14,30,5,0,3,3,4,,,,,,,,,1,0.48473152398946695,,,034,001,2019_May_15_1410,MusicAffectPsychophysiology2019,3.0.5,59.911751299156634,
To what extent did the music make you feel ,SAD,30MonoWAV/30MonoH2.wav,2,2,1,6,,,,,1,14,30,5,0,4,4,0,,,,,,,,,3,0.7846665969991591,,,034,001,2019_May_15_1410,MusicAffectPsychophysiology2019,3.0.5,59.911751299156634,
To what extent did the music make you feel ,SCARED,30MonoWAV/30MonoH2.wav,2,2,1,6,,,,,1,14,30,5,0,5,5,11,,,,,,,,,1,0.518516879004892,,,034,001,2019_May_15_1410,MusicAffectPsychophysiology2019,3.0.5,59.911751299156634,
To what extent did the music make you feel ,ALERT,30MonoWAV/30MonoH2.wav,2,2,1,6,,,,,1,14,30,5,0,6,6,8,,,,,,,,,1,0.5678350329981185,,,034,001,2019_May_15_1410,MusicAffectPsychophysiology2019,3.0.5,59.911751299156634,
To what extent did the music make you feel ,EXCITED,30MonoWAV/30MonoH2.wav,2,2,1,6,,,,,1,14,30,5,0,7,7,7,,,,,,,,,1,0.5015859400155023,,,034,001,2019_May_15_1410,MusicAffectPsychophysiology2019,3.0.5,59.911751299156634,
To what extent did the music make you feel ,ANXIOUS ,30MonoWAV/30MonoH2.wav,2,2,1,6,,,,,1,14,30,5,0,8,8,1,,,,,,,,,1,0.4340036019857507,,,034,001,2019_May_15_1410,MusicAffectPsychophysiology2019,3.0.5,59.911751299156634,
To what extent did the music make you feel ,ACTIVE,30MonoWAV/30MonoH2.wav,2,2,1,6,,,,,1,14,30,5,0,9,9,9,,,,,,,,,1,0.5189562700106762,,,034,001,2019_May_15_1410,MusicAffectPsychophysiology2019,3.0.5,59.911751299156634,
To what extent did the music make you feel ,FRUSTRATED,30MonoWAV/30MonoH2.wav,2,2,1,6,,,,,1,14,30,5,0,10,10,3,,,,,,,,,1,0.5023503740085289,,,034,001,2019_May_15_1410,MusicAffectPsychophysiology2019,3.0.5,59.911751299156634,
To what extent did the music make you feel ,HAPPY,30MonoWAV/30MonoH2.wav,2,2,1,6,,,,,1,14,30,5,0,11,11,6,,,,,,,,,1,0.5013596699864138,,,034,001,2019_May_15_1410,MusicAffectPsychophysiology2019,3.0.5,59.911751299156634,
,,30MonoWAV/30MonoH2.wav,2,2,1,6,,,,,1,14,30,5,,,,,,,,,,,,,,,,,034,001,2019_May_15_1410,MusicAffectPsychophysiology2019,3.0.5,59.911751299156634,
To what extent did the music make you feel ,SCARED,30MonoWAV/30MonoT1.wav,2,1,4,13,,,,,1,15,31,12,0,0,0,11,,,1,1.9185921589960344,1,0.5845985529886093,3,0.6362553630024195,2,1.0176598060061224,,,034,001,2019_May_15_1410,MusicAffectPsychophysiology2019,3.0.5,59.911751299156634,
To what extent did the music make you feel ,SAD,30MonoWAV/30MonoT1.wav,2,1,4,13,,,,,1,15,31,12,0,1,1,0,,,,,,,,,1,0.5350087970145978,,,034,001,2019_May_15_1410,MusicAffectPsychophysiology2019,3.0.5,59.911751299156634,
To what extent did the music make you feel ,ALERT,30MonoWAV/30MonoT1.wav,2,1,4,13,,,,,1,15,31,12,0,2,2,8,,,,,,,,,1,0.7855108579969965,,,034,001,2019_May_15_1410,MusicAffectPsychophysiology2019,3.0.5,59.911751299156634,
To what extent did the music make you feel ,HAPPY,30MonoWAV/30MonoT1.wav,2,1,4,13,,,,,1,15,31,12,0,3,3,6,,,,,,,,,1,0.5338946690026205,,,034,001,2019_May_15_1410,MusicAffectPsychophysiology2019,3.0.5,59.911751299156634,
To what extent did the music make you feel ,EXCITED,30MonoWAV/30MonoT1.wav,2,1,4,13,,,,,1,15,31,12,0,4,4,7,,,,,,,,,1,0.6180319389968645,,,034,001,2019_May_15_1410,MusicAffectPsychophysiology2019,3.0.5,59.911751299156634,
To what extent did the music make you feel ,ANXIOUS ,30MonoWAV/30MonoT1.wav,2,1,4,13,,,,,1,15,31,12,0,5,5,1,,,,,,,,,1,0.5518037940200884,,,034,001,2019_May_15_1410,MusicAffectPsychophysiology2019,3.0.5,59.911751299156634,
To what extent did the music make you feel ,ACTIVE,30MonoWAV/30MonoT1.wav,2,1,4,13,,,,,1,15,31,12,0,6,6,9,,,,,,,,,1,0.4177512360038236,,,034,001,2019_May_15_1410,MusicAffectPsychophysiology2019,3.0.5,59.911751299156634,
To what extent did the music make you feel ,FRUSTRATED,30MonoWAV/30MonoT1.wav,2,1,4,13,,,,,1,15,31,12,0,7,7,3,,,,,,,,,1,0.5845112699898891,,,034,001,2019_May_15_1410,MusicAffectPsychophysiology2019,3.0.5,59.911751299156634,
To what extent did the music make you feel ,TENDER,30MonoWAV/30MonoT1.wav,2,1,4,13,,,,,1,15,31,12,0,8,8,10,,,,,,,,,4,1.2188425729982555,,,034,001,2019_May_15_1410,MusicAffectPsychophysiology2019,3.0.5,59.911751299156634,
To what extent did the music make you feel ,GUILTY,30MonoWAV/30MonoT1.wav,2,1,4,13,,,,,1,15,31,12,0,9,9,5,,,,,,,,,1,0.8014701119973324,,,034,001,2019_May_15_1410,MusicAffectPsychophysiology2019,3.0.5,59.911751299156634,
To what extent did the music make you feel ,ANGRY,30MonoWAV/30MonoT1.wav,2,1,4,13,,,,,1,15,31,12,0,10,10,2,,,,,,,,,1,0.8001885460107587,,,034,001,2019_May_15_1410,MusicAffectPsychophysiology2019,3.0.5,59.911751299156634,
To what extent did the music make you feel ,ASHAMED,30MonoWAV/30MonoT1.wav,2,1,4,13,,,,,1,15,31,12,0,11,11,4,,,,,,,,,1,0.451010499993572,,,034,001,2019_May_15_1410,MusicAffectPsychophysiology2019,3.0.5,59.911751299156634,
,,30MonoWAV/30MonoT1.wav,2,1,4,13,,,,,1,15,31,12,,,,,,,,,,,,,,,,,034,001,2019_May_15_1410,MusicAffectPsychophysiology2019,3.0.5,59.911751299156634,
,,,,,,,,,,,,,,,,,,,,,,,,,,,,,space,8.242856947996188,034,001,2019_May_15_1410,MusicAffectPsychophysiology2019,3.0.5,59.911751299156634,
