Instruction,Word,song,valence,arousal,affectcat,songmark,pracwords.thisRepN,pracwords.thisTrialN,pracwords.thisN,pracwords.thisIndex,songtrials.thisRepN,songtrials.thisTrialN,songtrials.thisN,songtrials.thisIndex,words.thisRepN,words.thisTrialN,words.thisN,words.thisIndex,begin.keys,begin.rt,arousalkey.keys,arousalkey.rt,valencekey.keys,valencekey.rt,likekey.keys,likekey.rt,WordResponse.keys,WordResponse.rt,participant,session,date,expName,psychopyVersion,frameRate,
,,,,,,,,,,,,,,,,,,,j,16.66133375201025,,,,,,,,,035,001,2019_May_16_0914,MusicAffectPsychophysiology2019,3.0.5,59.820619854882196,
,,,,,,,,,,,,,,,,,,,,,2,5.417995024006814,,,,,,,035,001,2019_May_16_0914,MusicAffectPsychophysiology2019,3.0.5,59.820619854882196,
,,,,,,,,,,,,,,,,,,,,,,,1,2.752619123988552,,,,,035,001,2019_May_16_0914,MusicAffectPsychophysiology2019,3.0.5,59.820619854882196,
,,,,,,,,,,,,,,,,,,,,,,,,,1,2.2853310289792717,,,035,001,2019_May_16_0914,MusicAffectPsychophysiology2019,3.0.5,59.820619854882196,
To what extent did the music make you feel ,ALERT,,,,,,0,0,0,8,,,,,,,,,,,,,,,,,2,5.32477493697661,035,001,2019_May_16_0914,MusicAffectPsychophysiology2019,3.0.5,59.820619854882196,
To what extent did the music make you feel ,ACTIVE,,,,,,0,1,1,9,,,,,,,,,,,,,,,,,1,2.1515562800050247,035,001,2019_May_16_0914,MusicAffectPsychophysiology2019,3.0.5,59.820619854882196,
To what extent did the music make you feel ,GUILTY,,,,,,0,2,2,5,,,,,,,,,,,,,,,,,1,1.2998610640061088,035,001,2019_May_16_0914,MusicAffectPsychophysiology2019,3.0.5,59.820619854882196,
To what extent did the music make you feel ,SAD,,,,,,0,3,3,0,,,,,,,,,,,,,,,,,1,1.7177888389851432,035,001,2019_May_16_0914,MusicAffectPsychophysiology2019,3.0.5,59.820619854882196,
To what extent did the music make you feel ,TENDER,,,,,,0,4,4,10,,,,,,,,,,,,,,,,,2,2.1846481150132604,035,001,2019_May_16_0914,MusicAffectPsychophysiology2019,3.0.5,59.820619854882196,
To what extent did the music make you feel ,HAPPY,,,,,,0,5,5,6,,,,,,,,,,,,,,,,,1,2.518483182997443,035,001,2019_May_16_0914,MusicAffectPsychophysiology2019,3.0.5,59.820619854882196,
To what extent did the music make you feel ,EXCITED,,,,,,0,6,6,7,,,,,,,,,,,,,,,,,1,1.0691064929997083,035,001,2019_May_16_0914,MusicAffectPsychophysiology2019,3.0.5,59.820619854882196,
To what extent did the music make you feel ,SCARED,,,,,,0,7,7,11,,,,,,,,,,,,,,,,,1,0.9842737430008128,035,001,2019_May_16_0914,MusicAffectPsychophysiology2019,3.0.5,59.820619854882196,
To what extent did the music make you feel ,FRUSTRATED,,,,,,0,8,8,3,,,,,,,,,,,,,,,,,3,2.434107740991749,035,001,2019_May_16_0914,MusicAffectPsychophysiology2019,3.0.5,59.820619854882196,
To what extent did the music make you feel ,ANXIOUS ,,,,,,0,9,9,1,,,,,,,,,,,,,,,,,2,2.001575672009494,035,001,2019_May_16_0914,MusicAffectPsychophysiology2019,3.0.5,59.820619854882196,
To what extent did the music make you feel ,ASHAMED,,,,,,0,10,10,4,,,,,,,,,,,,,,,,,1,1.035018010996282,035,001,2019_May_16_0914,MusicAffectPsychophysiology2019,3.0.5,59.820619854882196,
To what extent did the music make you feel ,ANGRY,,,,,,0,11,11,2,,,,,,,,,,,,,,,,,3,2.02399638100178,035,001,2019_May_16_0914,MusicAffectPsychophysiology2019,3.0.5,59.820619854882196,
To what extent did the music make you feel ,HAPPY,30MonoWAV/30MonoS1.wav,1,1,3,9,,,,,0,0,0,8,0,0,0,6,,,2,5.285779778991127,2,3.668124493007781,2,4.384168229997158,2,2.7031415110104717,035,001,2019_May_16_0914,MusicAffectPsychophysiology2019,3.0.5,59.820619854882196,
To what extent did the music make you feel ,EXCITED,30MonoWAV/30MonoS1.wav,1,1,3,9,,,,,0,0,0,8,0,1,1,7,,,,,,,,,1,1.5346417149994522,035,001,2019_May_16_0914,MusicAffectPsychophysiology2019,3.0.5,59.820619854882196,
To what extent did the music make you feel ,SCARED,30MonoWAV/30MonoS1.wav,1,1,3,9,,,,,0,0,0,8,0,2,2,11,,,,,,,,,1,0.7852417289977893,035,001,2019_May_16_0914,MusicAffectPsychophysiology2019,3.0.5,59.820619854882196,
To what extent did the music make you feel ,ALERT,30MonoWAV/30MonoS1.wav,1,1,3,9,,,,,0,0,0,8,0,3,3,8,,,,,,,,,2,1.4181753600132652,035,001,2019_May_16_0914,MusicAffectPsychophysiology2019,3.0.5,59.820619854882196,
To what extent did the music make you feel ,FRUSTRATED,30MonoWAV/30MonoS1.wav,1,1,3,9,,,,,0,0,0,8,0,4,4,3,,,,,,,,,1,1.1855405349924695,035,001,2019_May_16_0914,MusicAffectPsychophysiology2019,3.0.5,59.820619854882196,
To what extent did the music make you feel ,ASHAMED,30MonoWAV/30MonoS1.wav,1,1,3,9,,,,,0,0,0,8,0,5,5,4,,,,,,,,,1,1.1519280879874714,035,001,2019_May_16_0914,MusicAffectPsychophysiology2019,3.0.5,59.820619854882196,
To what extent did the music make you feel ,TENDER,30MonoWAV/30MonoS1.wav,1,1,3,9,,,,,0,0,0,8,0,6,6,10,,,,,,,,,2,1.4183415729785338,035,001,2019_May_16_0914,MusicAffectPsychophysiology2019,3.0.5,59.820619854882196,
To what extent did the music make you feel ,GUILTY,30MonoWAV/30MonoS1.wav,1,1,3,9,,,,,0,0,0,8,0,7,7,5,,,,,,,,,1,0.6507853990187868,035,001,2019_May_16_0914,MusicAffectPsychophysiology2019,3.0.5,59.820619854882196,
To what extent did the music make you feel ,ACTIVE,30MonoWAV/30MonoS1.wav,1,1,3,9,,,,,0,0,0,8,0,8,8,9,,,,,,,,,2,1.119083456986118,035,001,2019_May_16_0914,MusicAffectPsychophysiology2019,3.0.5,59.820619854882196,
To what extent did the music make you feel ,SAD,30MonoWAV/30MonoS1.wav,1,1,3,9,,,,,0,0,0,8,0,9,9,0,,,,,,,,,1,0.5529890449834056,035,001,2019_May_16_0914,MusicAffectPsychophysiology2019,3.0.5,59.820619854882196,
To what extent did the music make you feel ,ANGRY,30MonoWAV/30MonoS1.wav,1,1,3,9,,,,,0,0,0,8,0,10,10,2,,,,,,,,,1,1.2359837499971036,035,001,2019_May_16_0914,MusicAffectPsychophysiology2019,3.0.5,59.820619854882196,
To what extent did the music make you feel ,ANXIOUS ,30MonoWAV/30MonoS1.wav,1,1,3,9,,,,,0,0,0,8,0,11,11,1,,,,,,,,,1,1.1342732520133723,035,001,2019_May_16_0914,MusicAffectPsychophysiology2019,3.0.5,59.820619854882196,
,,30MonoWAV/30MonoS1.wav,1,1,3,9,,,,,0,0,0,8,,,,,,,,,,,,,,,035,001,2019_May_16_0914,MusicAffectPsychophysiology2019,3.0.5,59.820619854882196,
To what extent did the music make you feel ,ASHAMED,30MonoWAV/30MonoH1.wav,2,2,1,5,,,,,0,1,1,4,0,0,0,4,,,3,3.2691674859961495,3,2.2177929050230887,4,2.2021572119847406,1,1.9169012969941832,035,001,2019_May_16_0914,MusicAffectPsychophysiology2019,3.0.5,59.820619854882196,
To what extent did the music make you feel ,SCARED,30MonoWAV/30MonoH1.wav,2,2,1,5,,,,,0,1,1,4,0,1,1,11,,,,,,,,,1,0.533172408991959,035,001,2019_May_16_0914,MusicAffectPsychophysiology2019,3.0.5,59.820619854882196,
To what extent did the music make you feel ,ALERT,30MonoWAV/30MonoH1.wav,2,2,1,5,,,,,0,1,1,4,0,2,2,8,,,,,,,,,3,1.5182371020200662,035,001,2019_May_16_0914,MusicAffectPsychophysiology2019,3.0.5,59.820619854882196,
To what extent did the music make you feel ,FRUSTRATED,30MonoWAV/30MonoH1.wav,2,2,1,5,,,,,0,1,1,4,0,3,3,3,,,,,,,,,1,1.15234674201929,035,001,2019_May_16_0914,MusicAffectPsychophysiology2019,3.0.5,59.820619854882196,
To what extent did the music make you feel ,GUILTY,30MonoWAV/30MonoH1.wav,2,2,1,5,,,,,0,1,1,4,0,4,4,5,,,,,,,,,1,0.550492979993578,035,001,2019_May_16_0914,MusicAffectPsychophysiology2019,3.0.5,59.820619854882196,
To what extent did the music make you feel ,ANXIOUS ,30MonoWAV/30MonoH1.wav,2,2,1,5,,,,,0,1,1,4,0,5,5,1,,,,,,,,,1,0.9186634779907763,035,001,2019_May_16_0914,MusicAffectPsychophysiology2019,3.0.5,59.820619854882196,
To what extent did the music make you feel ,ANGRY,30MonoWAV/30MonoH1.wav,2,2,1,5,,,,,0,1,1,4,0,6,6,2,,,,,,,,,1,0.6187969669990707,035,001,2019_May_16_0914,MusicAffectPsychophysiology2019,3.0.5,59.820619854882196,
To what extent did the music make you feel ,HAPPY,30MonoWAV/30MonoH1.wav,2,2,1,5,,,,,0,1,1,4,0,7,7,6,,,,,,,,,4,3.2684898290026467,035,001,2019_May_16_0914,MusicAffectPsychophysiology2019,3.0.5,59.820619854882196,
To what extent did the music make you feel ,TENDER,30MonoWAV/30MonoH1.wav,2,2,1,5,,,,,0,1,1,4,0,8,8,10,,,,,,,,,2,1.3324671900190879,035,001,2019_May_16_0914,MusicAffectPsychophysiology2019,3.0.5,59.820619854882196,
To what extent did the music make you feel ,ACTIVE,30MonoWAV/30MonoH1.wav,2,2,1,5,,,,,0,1,1,4,0,9,9,9,,,,,,,,,3,1.0863767430128064,035,001,2019_May_16_0914,MusicAffectPsychophysiology2019,3.0.5,59.820619854882196,
To what extent did the music make you feel ,EXCITED,30MonoWAV/30MonoH1.wav,2,2,1,5,,,,,0,1,1,4,0,10,10,7,,,,,,,,,3,1.185247861983953,035,001,2019_May_16_0914,MusicAffectPsychophysiology2019,3.0.5,59.820619854882196,
To what extent did the music make you feel ,SAD,30MonoWAV/30MonoH1.wav,2,2,1,5,,,,,0,1,1,4,0,11,11,0,,,,,,,,,1,1.6048374850070104,035,001,2019_May_16_0914,MusicAffectPsychophysiology2019,3.0.5,59.820619854882196,
,,30MonoWAV/30MonoH1.wav,2,2,1,5,,,,,0,1,1,4,,,,,,,,,,,,,,,035,001,2019_May_16_0914,MusicAffectPsychophysiology2019,3.0.5,59.820619854882196,
To what extent did the music make you feel ,GUILTY,30MonoWAV/30MonoS4.wav,1,1,3,12,,,,,0,2,2,11,0,0,0,5,,,1,2.6519409850006923,1,1.3519820439978503,2,2.0347888600081205,1,0.9686105879954994,035,001,2019_May_16_0914,MusicAffectPsychophysiology2019,3.0.5,59.820619854882196,
To what extent did the music make you feel ,FRUSTRATED,30MonoWAV/30MonoS4.wav,1,1,3,12,,,,,0,2,2,11,0,1,1,3,,,,,,,,,1,0.8363621709868312,035,001,2019_May_16_0914,MusicAffectPsychophysiology2019,3.0.5,59.820619854882196,
To what extent did the music make you feel ,SCARED,30MonoWAV/30MonoS4.wav,1,1,3,12,,,,,0,2,2,11,0,2,2,11,,,,,,,,,2,1.632725396018941,035,001,2019_May_16_0914,MusicAffectPsychophysiology2019,3.0.5,59.820619854882196,
To what extent did the music make you feel ,ANXIOUS ,30MonoWAV/30MonoS4.wav,1,1,3,12,,,,,0,2,2,11,0,3,3,1,,,,,,,,,2,1.4182525660144165,035,001,2019_May_16_0914,MusicAffectPsychophysiology2019,3.0.5,59.820619854882196,
To what extent did the music make you feel ,ANGRY,30MonoWAV/30MonoS4.wav,1,1,3,12,,,,,0,2,2,11,0,4,4,2,,,,,,,,,1,0.9020247689913958,035,001,2019_May_16_0914,MusicAffectPsychophysiology2019,3.0.5,59.820619854882196,
To what extent did the music make you feel ,SAD,30MonoWAV/30MonoS4.wav,1,1,3,12,,,,,0,2,2,11,0,5,5,0,,,,,,,,,4,1.9352893820032477,035,001,2019_May_16_0914,MusicAffectPsychophysiology2019,3.0.5,59.820619854882196,
To what extent did the music make you feel ,ALERT,30MonoWAV/30MonoS4.wav,1,1,3,12,,,,,0,2,2,11,0,6,6,8,,,,,,,,,1,1.7019983140053228,035,001,2019_May_16_0914,MusicAffectPsychophysiology2019,3.0.5,59.820619854882196,
To what extent did the music make you feel ,EXCITED,30MonoWAV/30MonoS4.wav,1,1,3,12,,,,,0,2,2,11,0,7,7,7,,,,,,,,,1,0.8345375610224437,035,001,2019_May_16_0914,MusicAffectPsychophysiology2019,3.0.5,59.820619854882196,
To what extent did the music make you feel ,TENDER,30MonoWAV/30MonoS4.wav,1,1,3,12,,,,,0,2,2,11,0,8,8,10,,,,,,,,,2,1.2185606339771766,035,001,2019_May_16_0914,MusicAffectPsychophysiology2019,3.0.5,59.820619854882196,
To what extent did the music make you feel ,HAPPY,30MonoWAV/30MonoS4.wav,1,1,3,12,,,,,0,2,2,11,0,9,9,6,,,,,,,,,1,0.6678792090096977,035,001,2019_May_16_0914,MusicAffectPsychophysiology2019,3.0.5,59.820619854882196,
To what extent did the music make you feel ,ASHAMED,30MonoWAV/30MonoS4.wav,1,1,3,12,,,,,0,2,2,11,0,10,10,4,,,,,,,,,1,0.7525060469924938,035,001,2019_May_16_0914,MusicAffectPsychophysiology2019,3.0.5,59.820619854882196,
To what extent did the music make you feel ,ACTIVE,30MonoWAV/30MonoS4.wav,1,1,3,12,,,,,0,2,2,11,0,11,11,9,,,,,,,,,1,1.7018224190105684,035,001,2019_May_16_0914,MusicAffectPsychophysiology2019,3.0.5,59.820619854882196,
,,30MonoWAV/30MonoS4.wav,1,1,3,12,,,,,0,2,2,11,,,,,,,,,,,,,,,035,001,2019_May_16_0914,MusicAffectPsychophysiology2019,3.0.5,59.820619854882196,
To what extent did the music make you feel ,HAPPY,30MonoWAV/30MonoF4.wav,1,2,2,4,,,,,0,3,3,3,0,0,0,6,,,3,2.7520847599953413,2,2.3521430210093968,2,1.9194203600054607,1,2.6518840699864086,035,001,2019_May_16_0914,MusicAffectPsychophysiology2019,3.0.5,59.820619854882196,
To what extent did the music make you feel ,SCARED,30MonoWAV/30MonoF4.wav,1,2,2,4,,,,,0,3,3,3,0,1,1,11,,,,,,,,,3,1.8184752170054708,035,001,2019_May_16_0914,MusicAffectPsychophysiology2019,3.0.5,59.820619854882196,
To what extent did the music make you feel ,ALERT,30MonoWAV/30MonoF4.wav,1,2,2,4,,,,,0,3,3,3,0,2,2,8,,,,,,,,,2,3.759411545994226,035,001,2019_May_16_0914,MusicAffectPsychophysiology2019,3.0.5,59.820619854882196,
To what extent did the music make you feel ,ANGRY,30MonoWAV/30MonoF4.wav,1,2,2,4,,,,,0,3,3,3,0,3,3,2,,,,,,,,,2,0.7010195399925578,035,001,2019_May_16_0914,MusicAffectPsychophysiology2019,3.0.5,59.820619854882196,
To what extent did the music make you feel ,ANXIOUS ,30MonoWAV/30MonoF4.wav,1,2,2,4,,,,,0,3,3,3,0,4,4,1,,,,,,,,,3,1.8032469190075062,035,001,2019_May_16_0914,MusicAffectPsychophysiology2019,3.0.5,59.820619854882196,
To what extent did the music make you feel ,ACTIVE,30MonoWAV/30MonoF4.wav,1,2,2,4,,,,,0,3,3,3,0,5,5,9,,,,,,,,,1,1.789156833983725,035,001,2019_May_16_0914,MusicAffectPsychophysiology2019,3.0.5,59.820619854882196,
To what extent did the music make you feel ,FRUSTRATED,30MonoWAV/30MonoF4.wav,1,2,2,4,,,,,0,3,3,3,0,6,6,3,,,,,,,,,1,1.1691360249824356,035,001,2019_May_16_0914,MusicAffectPsychophysiology2019,3.0.5,59.820619854882196,
To what extent did the music make you feel ,EXCITED,30MonoWAV/30MonoF4.wav,1,2,2,4,,,,,0,3,3,3,0,7,7,7,,,,,,,,,1,1.185612953006057,035,001,2019_May_16_0914,MusicAffectPsychophysiology2019,3.0.5,59.820619854882196,
To what extent did the music make you feel ,SAD,30MonoWAV/30MonoF4.wav,1,2,2,4,,,,,0,3,3,3,0,8,8,0,,,,,,,,,2,1.9016556610004045,035,001,2019_May_16_0914,MusicAffectPsychophysiology2019,3.0.5,59.820619854882196,
To what extent did the music make you feel ,TENDER,30MonoWAV/30MonoF4.wav,1,2,2,4,,,,,0,3,3,3,0,9,9,10,,,,,,,,,1,1.33485915500205,035,001,2019_May_16_0914,MusicAffectPsychophysiology2019,3.0.5,59.820619854882196,
To what extent did the music make you feel ,GUILTY,30MonoWAV/30MonoF4.wav,1,2,2,4,,,,,0,3,3,3,0,10,10,5,,,,,,,,,1,0.7666967829864006,035,001,2019_May_16_0914,MusicAffectPsychophysiology2019,3.0.5,59.820619854882196,
To what extent did the music make you feel ,ASHAMED,30MonoWAV/30MonoF4.wav,1,2,2,4,,,,,0,3,3,3,0,11,11,4,,,,,,,,,1,0.68500324501656,035,001,2019_May_16_0914,MusicAffectPsychophysiology2019,3.0.5,59.820619854882196,
,,30MonoWAV/30MonoF4.wav,1,2,2,4,,,,,0,3,3,3,,,,,,,,,,,,,,,035,001,2019_May_16_0914,MusicAffectPsychophysiology2019,3.0.5,59.820619854882196,
To what extent did the music make you feel ,GUILTY,30MonoWAV/30MonoT3.wav,2,1,4,15,,,,,0,4,4,14,0,0,0,5,,,1,2.3022925590048544,1,1.2517246739880648,2,2.966561424022075,1,0.9350816800142638,035,001,2019_May_16_0914,MusicAffectPsychophysiology2019,3.0.5,59.820619854882196,
To what extent did the music make you feel ,FRUSTRATED,30MonoWAV/30MonoT3.wav,2,1,4,15,,,,,0,4,4,14,0,1,1,3,,,,,,,,,1,0.9181968329939991,035,001,2019_May_16_0914,MusicAffectPsychophysiology2019,3.0.5,59.820619854882196,
To what extent did the music make you feel ,ACTIVE,30MonoWAV/30MonoT3.wav,2,1,4,15,,,,,0,4,4,14,0,2,2,9,,,,,,,,,1,1.1348616640025284,035,001,2019_May_16_0914,MusicAffectPsychophysiology2019,3.0.5,59.820619854882196,
To what extent did the music make you feel ,HAPPY,30MonoWAV/30MonoT3.wav,2,1,4,15,,,,,0,4,4,14,0,3,3,6,,,,,,,,,1,0.7676141829870176,035,001,2019_May_16_0914,MusicAffectPsychophysiology2019,3.0.5,59.820619854882196,
To what extent did the music make you feel ,TENDER,30MonoWAV/30MonoT3.wav,2,1,4,15,,,,,0,4,4,14,0,4,4,10,,,,,,,,,2,1.0196552340057679,035,001,2019_May_16_0914,MusicAffectPsychophysiology2019,3.0.5,59.820619854882196,
To what extent did the music make you feel ,ASHAMED,30MonoWAV/30MonoT3.wav,2,1,4,15,,,,,0,4,4,14,0,5,5,4,,,,,,,,,1,0.7520275420101825,035,001,2019_May_16_0914,MusicAffectPsychophysiology2019,3.0.5,59.820619854882196,
To what extent did the music make you feel ,ALERT,30MonoWAV/30MonoT3.wav,2,1,4,15,,,,,0,4,4,14,0,6,6,8,,,,,,,,,1,1.2353669939911924,035,001,2019_May_16_0914,MusicAffectPsychophysiology2019,3.0.5,59.820619854882196,
To what extent did the music make you feel ,SCARED,30MonoWAV/30MonoT3.wav,2,1,4,15,,,,,0,4,4,14,0,7,7,11,,,,,,,,,2,2.2518774829804897,035,001,2019_May_16_0914,MusicAffectPsychophysiology2019,3.0.5,59.820619854882196,
To what extent did the music make you feel ,ANXIOUS ,30MonoWAV/30MonoT3.wav,2,1,4,15,,,,,0,4,4,14,0,8,8,1,,,,,,,,,2,1.4528656009933911,035,001,2019_May_16_0914,MusicAffectPsychophysiology2019,3.0.5,59.820619854882196,
To what extent did the music make you feel ,SAD,30MonoWAV/30MonoT3.wav,2,1,4,15,,,,,0,4,4,14,0,9,9,0,,,,,,,,,3,1.1178548489988316,035,001,2019_May_16_0914,MusicAffectPsychophysiology2019,3.0.5,59.820619854882196,
To what extent did the music make you feel ,EXCITED,30MonoWAV/30MonoT3.wav,2,1,4,15,,,,,0,4,4,14,0,10,10,7,,,,,,,,,1,0.9362660650222097,035,001,2019_May_16_0914,MusicAffectPsychophysiology2019,3.0.5,59.820619854882196,
To what extent did the music make you feel ,ANGRY,30MonoWAV/30MonoT3.wav,2,1,4,15,,,,,0,4,4,14,0,11,11,2,,,,,,,,,1,0.652902174013434,035,001,2019_May_16_0914,MusicAffectPsychophysiology2019,3.0.5,59.820619854882196,
,,30MonoWAV/30MonoT3.wav,2,1,4,15,,,,,0,4,4,14,,,,,,,,,,,,,,,035,001,2019_May_16_0914,MusicAffectPsychophysiology2019,3.0.5,59.820619854882196,
To what extent did the music make you feel ,SAD,30MonoWAV/30MonoH2.wav,2,2,1,6,,,,,0,5,5,5,0,0,0,0,,,2,6.86819616498542,3,1.5180268900003284,3,1.2857987510215025,1,1.5011599419813138,035,001,2019_May_16_0914,MusicAffectPsychophysiology2019,3.0.5,59.820619854882196,
To what extent did the music make you feel ,FRUSTRATED,30MonoWAV/30MonoH2.wav,2,2,1,6,,,,,0,5,5,5,0,1,1,3,,,,,,,,,1,1.0351248419901822,035,001,2019_May_16_0914,MusicAffectPsychophysiology2019,3.0.5,59.820619854882196,
To what extent did the music make you feel ,ALERT,30MonoWAV/30MonoH2.wav,2,2,1,6,,,,,0,5,5,5,0,2,2,8,,,,,,,,,3,1.5892140690120868,035,001,2019_May_16_0914,MusicAffectPsychophysiology2019,3.0.5,59.820619854882196,
To what extent did the music make you feel ,ASHAMED,30MonoWAV/30MonoH2.wav,2,2,1,6,,,,,0,5,5,5,0,3,3,4,,,,,,,,,1,0.9864248769881669,035,001,2019_May_16_0914,MusicAffectPsychophysiology2019,3.0.5,59.820619854882196,
To what extent did the music make you feel ,HAPPY,30MonoWAV/30MonoH2.wav,2,2,1,6,,,,,0,5,5,5,0,4,4,6,,,,,,,,,2,1.4039008679974359,035,001,2019_May_16_0914,MusicAffectPsychophysiology2019,3.0.5,59.820619854882196,
To what extent did the music make you feel ,EXCITED,30MonoWAV/30MonoH2.wav,2,2,1,6,,,,,0,5,5,5,0,5,5,7,,,,,,,,,2,1.387580012989929,035,001,2019_May_16_0914,MusicAffectPsychophysiology2019,3.0.5,59.820619854882196,
To what extent did the music make you feel ,ANGRY,30MonoWAV/30MonoH2.wav,2,2,1,6,,,,,0,5,5,5,0,6,6,2,,,,,,,,,1,0.9706837809935678,035,001,2019_May_16_0914,MusicAffectPsychophysiology2019,3.0.5,59.820619854882196,
To what extent did the music make you feel ,ACTIVE,30MonoWAV/30MonoH2.wav,2,2,1,6,,,,,0,5,5,5,0,7,7,9,,,,,,,,,2,0.9914670140133239,035,001,2019_May_16_0914,MusicAffectPsychophysiology2019,3.0.5,59.820619854882196,
To what extent did the music make you feel ,GUILTY,30MonoWAV/30MonoH2.wav,2,2,1,6,,,,,0,5,5,5,0,8,8,5,,,,,,,,,1,0.9347795940120704,035,001,2019_May_16_0914,MusicAffectPsychophysiology2019,3.0.5,59.820619854882196,
To what extent did the music make you feel ,ANXIOUS ,30MonoWAV/30MonoH2.wav,2,2,1,6,,,,,0,5,5,5,0,9,9,1,,,,,,,,,2,2.5515344190062024,035,001,2019_May_16_0914,MusicAffectPsychophysiology2019,3.0.5,59.820619854882196,
To what extent did the music make you feel ,SCARED,30MonoWAV/30MonoH2.wav,2,2,1,6,,,,,0,5,5,5,0,10,10,11,,,,,,,,,1,1.385471421002876,035,001,2019_May_16_0914,MusicAffectPsychophysiology2019,3.0.5,59.820619854882196,
To what extent did the music make you feel ,TENDER,30MonoWAV/30MonoH2.wav,2,2,1,6,,,,,0,5,5,5,0,11,11,10,,,,,,,,,1,1.2393981770146638,035,001,2019_May_16_0914,MusicAffectPsychophysiology2019,3.0.5,59.820619854882196,
,,30MonoWAV/30MonoH2.wav,2,2,1,6,,,,,0,5,5,5,,,,,,,,,,,,,,,035,001,2019_May_16_0914,MusicAffectPsychophysiology2019,3.0.5,59.820619854882196,
To what extent did the music make you feel ,ANGRY,30MonoWAV/30MonoH4.wav,2,2,1,8,,,,,0,6,6,7,0,0,0,2,,,3,3.134604443999706,4,1.7017704610188957,4,1.3350683219905477,1,1.2581741480098572,035,001,2019_May_16_0914,MusicAffectPsychophysiology2019,3.0.5,59.820619854882196,
To what extent did the music make you feel ,FRUSTRATED,30MonoWAV/30MonoH4.wav,2,2,1,8,,,,,0,6,6,7,0,1,1,3,,,,,,,,,1,0.8349767939944286,035,001,2019_May_16_0914,MusicAffectPsychophysiology2019,3.0.5,59.820619854882196,
To what extent did the music make you feel ,ACTIVE,30MonoWAV/30MonoH4.wav,2,2,1,8,,,,,0,6,6,7,0,2,2,9,,,,,,,,,4,1.8352433099935297,035,001,2019_May_16_0914,MusicAffectPsychophysiology2019,3.0.5,59.820619854882196,
To what extent did the music make you feel ,SAD,30MonoWAV/30MonoH4.wav,2,2,1,8,,,,,0,6,6,7,0,3,3,0,,,,,,,,,1,1.1528049289772753,035,001,2019_May_16_0914,MusicAffectPsychophysiology2019,3.0.5,59.820619854882196,
To what extent did the music make you feel ,ALERT,30MonoWAV/30MonoH4.wav,2,2,1,8,,,,,0,6,6,7,0,4,4,8,,,,,,,,,3,1.2014093979960307,035,001,2019_May_16_0914,MusicAffectPsychophysiology2019,3.0.5,59.820619854882196,
To what extent did the music make you feel ,EXCITED,30MonoWAV/30MonoH4.wav,2,2,1,8,,,,,0,6,6,7,0,5,5,7,,,,,,,,,4,1.1852459649962839,035,001,2019_May_16_0914,MusicAffectPsychophysiology2019,3.0.5,59.820619854882196,
To what extent did the music make you feel ,TENDER,30MonoWAV/30MonoH4.wav,2,2,1,8,,,,,0,6,6,7,0,6,6,10,,,,,,,,,1,1.101858618989354,035,001,2019_May_16_0914,MusicAffectPsychophysiology2019,3.0.5,59.820619854882196,
To what extent did the music make you feel ,SCARED,30MonoWAV/30MonoH4.wav,2,2,1,8,,,,,0,6,6,7,0,7,7,11,,,,,,,,,1,1.1516395139915403,035,001,2019_May_16_0914,MusicAffectPsychophysiology2019,3.0.5,59.820619854882196,
To what extent did the music make you feel ,ASHAMED,30MonoWAV/30MonoH4.wav,2,2,1,8,,,,,0,6,6,7,0,8,8,4,,,,,,,,,1,1.102079006988788,035,001,2019_May_16_0914,MusicAffectPsychophysiology2019,3.0.5,59.820619854882196,
To what extent did the music make you feel ,GUILTY,30MonoWAV/30MonoH4.wav,2,2,1,8,,,,,0,6,6,7,0,9,9,5,,,,,,,,,1,0.5516230429930147,035,001,2019_May_16_0914,MusicAffectPsychophysiology2019,3.0.5,59.820619854882196,
To what extent did the music make you feel ,ANXIOUS ,30MonoWAV/30MonoH4.wav,2,2,1,8,,,,,0,6,6,7,0,10,10,1,,,,,,,,,2,2.068485878990032,035,001,2019_May_16_0914,MusicAffectPsychophysiology2019,3.0.5,59.820619854882196,
To what extent did the music make you feel ,HAPPY,30MonoWAV/30MonoH4.wav,2,2,1,8,,,,,0,6,6,7,0,11,11,6,,,,,,,,,4,1.31866029498633,035,001,2019_May_16_0914,MusicAffectPsychophysiology2019,3.0.5,59.820619854882196,
,,30MonoWAV/30MonoH4.wav,2,2,1,8,,,,,0,6,6,7,,,,,,,,,,,,,,,035,001,2019_May_16_0914,MusicAffectPsychophysiology2019,3.0.5,59.820619854882196,
To what extent did the music make you feel ,HAPPY,30MonoWAV/30MonoT4.wav,2,1,4,16,,,,,0,7,7,15,0,0,0,6,,,2,3.0687309650238603,3,1.2518697190098464,3,1.0519328840018716,3,2.0171582360053435,035,001,2019_May_16_0914,MusicAffectPsychophysiology2019,3.0.5,59.820619854882196,
To what extent did the music make you feel ,SCARED,30MonoWAV/30MonoT4.wav,2,1,4,16,,,,,0,7,7,15,0,1,1,11,,,,,,,,,1,1.0872878200025298,035,001,2019_May_16_0914,MusicAffectPsychophysiology2019,3.0.5,59.820619854882196,
To what extent did the music make you feel ,ASHAMED,30MonoWAV/30MonoT4.wav,2,1,4,16,,,,,0,7,7,15,0,2,2,4,,,,,,,,,1,0.5852762580034323,035,001,2019_May_16_0914,MusicAffectPsychophysiology2019,3.0.5,59.820619854882196,
To what extent did the music make you feel ,GUILTY,30MonoWAV/30MonoT4.wav,2,1,4,16,,,,,0,7,7,15,0,3,3,5,,,,,,,,,1,0.4841029380040709,035,001,2019_May_16_0914,MusicAffectPsychophysiology2019,3.0.5,59.820619854882196,
To what extent did the music make you feel ,ACTIVE,30MonoWAV/30MonoT4.wav,2,1,4,16,,,,,0,7,7,15,0,4,4,9,,,,,,,,,2,1.5191797989828046,035,001,2019_May_16_0914,MusicAffectPsychophysiology2019,3.0.5,59.820619854882196,
To what extent did the music make you feel ,ALERT,30MonoWAV/30MonoT4.wav,2,1,4,16,,,,,0,7,7,15,0,5,5,8,,,,,,,,,2,1.385904983006185,035,001,2019_May_16_0914,MusicAffectPsychophysiology2019,3.0.5,59.820619854882196,
To what extent did the music make you feel ,FRUSTRATED,30MonoWAV/30MonoT4.wav,2,1,4,16,,,,,0,7,7,15,0,6,6,3,,,,,,,,,1,0.6021482799842488,035,001,2019_May_16_0914,MusicAffectPsychophysiology2019,3.0.5,59.820619854882196,
To what extent did the music make you feel ,EXCITED,30MonoWAV/30MonoT4.wav,2,1,4,16,,,,,0,7,7,15,0,7,7,7,,,,,,,,,3,1.2518079160072375,035,001,2019_May_16_0914,MusicAffectPsychophysiology2019,3.0.5,59.820619854882196,
To what extent did the music make you feel ,ANXIOUS ,30MonoWAV/30MonoT4.wav,2,1,4,16,,,,,0,7,7,15,0,8,8,1,,,,,,,,,2,1.7187191010161769,035,001,2019_May_16_0914,MusicAffectPsychophysiology2019,3.0.5,59.820619854882196,
To what extent did the music make you feel ,ANGRY,30MonoWAV/30MonoT4.wav,2,1,4,16,,,,,0,7,7,15,0,9,9,2,,,,,,,,,1,1.4183961770031601,035,001,2019_May_16_0914,MusicAffectPsychophysiology2019,3.0.5,59.820619854882196,
To what extent did the music make you feel ,SAD,30MonoWAV/30MonoT4.wav,2,1,4,16,,,,,0,7,7,15,0,10,10,0,,,,,,,,,1,0.7682800900074653,035,001,2019_May_16_0914,MusicAffectPsychophysiology2019,3.0.5,59.820619854882196,
To what extent did the music make you feel ,TENDER,30MonoWAV/30MonoT4.wav,2,1,4,16,,,,,0,7,7,15,0,11,11,10,,,,,,,,,2,1.40238125398173,035,001,2019_May_16_0914,MusicAffectPsychophysiology2019,3.0.5,59.820619854882196,
,,30MonoWAV/30MonoT4.wav,2,1,4,16,,,,,0,7,7,15,,,,,,,,,,,,,,,035,001,2019_May_16_0914,MusicAffectPsychophysiology2019,3.0.5,59.820619854882196,
To what extent did the music make you feel ,SCARED,30MonoWAV/30MonoS2.wav,1,1,3,10,,,,,0,8,8,9,0,0,0,11,,,1,3.7742289069865365,1,0.8522131780046038,2,1.8701665129920002,2,2.305055414995877,035,001,2019_May_16_0914,MusicAffectPsychophysiology2019,3.0.5,59.820619854882196,
To what extent did the music make you feel ,GUILTY,30MonoWAV/30MonoS2.wav,1,1,3,10,,,,,0,8,8,9,0,1,1,5,,,,,,,,,1,0.9387611800048035,035,001,2019_May_16_0914,MusicAffectPsychophysiology2019,3.0.5,59.820619854882196,
To what extent did the music make you feel ,ASHAMED,30MonoWAV/30MonoS2.wav,1,1,3,10,,,,,0,8,8,9,0,2,2,4,,,,,,,,,1,1.1852651739900466,035,001,2019_May_16_0914,MusicAffectPsychophysiology2019,3.0.5,59.820619854882196,
To what extent did the music make you feel ,ACTIVE,30MonoWAV/30MonoS2.wav,1,1,3,10,,,,,0,8,8,9,0,3,3,9,,,,,,,,,1,1.0347253780055325,035,001,2019_May_16_0914,MusicAffectPsychophysiology2019,3.0.5,59.820619854882196,
To what extent did the music make you feel ,ANXIOUS ,30MonoWAV/30MonoS2.wav,1,1,3,10,,,,,0,8,8,9,0,4,4,1,,,,,,,,,2,1.6187016379844863,035,001,2019_May_16_0914,MusicAffectPsychophysiology2019,3.0.5,59.820619854882196,
To what extent did the music make you feel ,FRUSTRATED,30MonoWAV/30MonoS2.wav,1,1,3,10,,,,,0,8,8,9,0,5,5,3,,,,,,,,,1,1.185791589989094,035,001,2019_May_16_0914,MusicAffectPsychophysiology2019,3.0.5,59.820619854882196,
To what extent did the music make you feel ,EXCITED,30MonoWAV/30MonoS2.wav,1,1,3,10,,,,,0,8,8,9,0,6,6,7,,,,,,,,,1,1.3527038650063332,035,001,2019_May_16_0914,MusicAffectPsychophysiology2019,3.0.5,59.820619854882196,
To what extent did the music make you feel ,ALERT,30MonoWAV/30MonoS2.wav,1,1,3,10,,,,,0,8,8,9,0,7,7,8,,,,,,,,,1,0.8847562840091996,035,001,2019_May_16_0914,MusicAffectPsychophysiology2019,3.0.5,59.820619854882196,
To what extent did the music make you feel ,SAD,30MonoWAV/30MonoS2.wav,1,1,3,10,,,,,0,8,8,9,0,8,8,0,,,,,,,,,4,1.5521519950125366,035,001,2019_May_16_0914,MusicAffectPsychophysiology2019,3.0.5,59.820619854882196,
To what extent did the music make you feel ,TENDER,30MonoWAV/30MonoS2.wav,1,1,3,10,,,,,0,8,8,9,0,9,9,10,,,,,,,,,3,1.734940132999327,035,001,2019_May_16_0914,MusicAffectPsychophysiology2019,3.0.5,59.820619854882196,
To what extent did the music make you feel ,ANGRY,30MonoWAV/30MonoS2.wav,1,1,3,10,,,,,0,8,8,9,0,10,10,2,,,,,,,,,1,1.1502706689934712,035,001,2019_May_16_0914,MusicAffectPsychophysiology2019,3.0.5,59.820619854882196,
To what extent did the music make you feel ,HAPPY,30MonoWAV/30MonoS2.wav,1,1,3,10,,,,,0,8,8,9,0,11,11,6,,,,,,,,,1,1.068668550986331,035,001,2019_May_16_0914,MusicAffectPsychophysiology2019,3.0.5,59.820619854882196,
,,30MonoWAV/30MonoS2.wav,1,1,3,10,,,,,0,8,8,9,,,,,,,,,,,,,,,035,001,2019_May_16_0914,MusicAffectPsychophysiology2019,3.0.5,59.820619854882196,
To what extent did the music make you feel ,GUILTY,30MonoWAV/30MonoH3.wav,2,2,1,7,,,,,0,9,9,6,0,0,0,5,,,3,3.3190896309970412,3,1.851031582977157,3,1.6006461050128564,1,1.3863601189805195,035,001,2019_May_16_0914,MusicAffectPsychophysiology2019,3.0.5,59.820619854882196,
To what extent did the music make you feel ,ACTIVE,30MonoWAV/30MonoH3.wav,2,2,1,7,,,,,0,9,9,6,0,1,1,9,,,,,,,,,3,1.3347755300055724,035,001,2019_May_16_0914,MusicAffectPsychophysiology2019,3.0.5,59.820619854882196,
To what extent did the music make you feel ,SCARED,30MonoWAV/30MonoH3.wav,2,2,1,7,,,,,0,9,9,6,0,2,2,11,,,,,,,,,1,1.0687741139845457,035,001,2019_May_16_0914,MusicAffectPsychophysiology2019,3.0.5,59.820619854882196,
To what extent did the music make you feel ,SAD,30MonoWAV/30MonoH3.wav,2,2,1,7,,,,,0,9,9,6,0,3,3,0,,,,,,,,,1,1.101121559011517,035,001,2019_May_16_0914,MusicAffectPsychophysiology2019,3.0.5,59.820619854882196,
To what extent did the music make you feel ,HAPPY,30MonoWAV/30MonoH3.wav,2,2,1,7,,,,,0,9,9,6,0,4,4,6,,,,,,,,,3,1.37030012201285,035,001,2019_May_16_0914,MusicAffectPsychophysiology2019,3.0.5,59.820619854882196,
To what extent did the music make you feel ,TENDER,30MonoWAV/30MonoH3.wav,2,2,1,7,,,,,0,9,9,6,0,5,5,10,,,,,,,,,2,1.3854603860236239,035,001,2019_May_16_0914,MusicAffectPsychophysiology2019,3.0.5,59.820619854882196,
To what extent did the music make you feel ,FRUSTRATED,30MonoWAV/30MonoH3.wav,2,2,1,7,,,,,0,9,9,6,0,6,6,3,,,,,,,,,1,0.7355588280188385,035,001,2019_May_16_0914,MusicAffectPsychophysiology2019,3.0.5,59.820619854882196,
To what extent did the music make you feel ,EXCITED,30MonoWAV/30MonoH3.wav,2,2,1,7,,,,,0,9,9,6,0,7,7,7,,,,,,,,,3,1.1531986169866286,035,001,2019_May_16_0914,MusicAffectPsychophysiology2019,3.0.5,59.820619854882196,
To what extent did the music make you feel ,ALERT,30MonoWAV/30MonoH3.wav,2,2,1,7,,,,,0,9,9,6,0,8,8,8,,,,,,,,,3,1.3527506520040333,035,001,2019_May_16_0914,MusicAffectPsychophysiology2019,3.0.5,59.820619854882196,
To what extent did the music make you feel ,ANGRY,30MonoWAV/30MonoH3.wav,2,2,1,7,,,,,0,9,9,6,0,9,9,2,,,,,,,,,1,1.1517013239790685,035,001,2019_May_16_0914,MusicAffectPsychophysiology2019,3.0.5,59.820619854882196,
To what extent did the music make you feel ,ASHAMED,30MonoWAV/30MonoH3.wav,2,2,1,7,,,,,0,9,9,6,0,10,10,4,,,,,,,,,1,0.783292245992925,035,001,2019_May_16_0914,MusicAffectPsychophysiology2019,3.0.5,59.820619854882196,
To what extent did the music make you feel ,ANXIOUS ,30MonoWAV/30MonoH3.wav,2,2,1,7,,,,,0,9,9,6,0,11,11,1,,,,,,,,,2,1.568624780018581,035,001,2019_May_16_0914,MusicAffectPsychophysiology2019,3.0.5,59.820619854882196,
,,30MonoWAV/30MonoH3.wav,2,2,1,7,,,,,0,9,9,6,,,,,,,,,,,,,,,035,001,2019_May_16_0914,MusicAffectPsychophysiology2019,3.0.5,59.820619854882196,
To what extent did the music make you feel ,TENDER,30MonoWAV/30MonoF3.wav,1,2,2,3,,,,,0,10,10,2,0,0,0,10,,,4,6.092636777990265,2,1.9884049060055986,3,1.3848592860158533,1,1.3365140389942098,035,001,2019_May_16_0914,MusicAffectPsychophysiology2019,3.0.5,59.820619854882196,
To what extent did the music make you feel ,EXCITED,30MonoWAV/30MonoF3.wav,1,2,2,3,,,,,0,10,10,2,0,1,1,7,,,,,,,,,2,1.5733989969885442,035,001,2019_May_16_0914,MusicAffectPsychophysiology2019,3.0.5,59.820619854882196,
To what extent did the music make you feel ,SCARED,30MonoWAV/30MonoF3.wav,1,2,2,3,,,,,0,10,10,2,0,2,2,11,,,,,,,,,4,2.0505078400019556,035,001,2019_May_16_0914,MusicAffectPsychophysiology2019,3.0.5,59.820619854882196,
To what extent did the music make you feel ,ACTIVE,30MonoWAV/30MonoF3.wav,1,2,2,3,,,,,0,10,10,2,0,3,3,9,,,,,,,,,3,1.5696337380213663,035,001,2019_May_16_0914,MusicAffectPsychophysiology2019,3.0.5,59.820619854882196,
To what extent did the music make you feel ,FRUSTRATED,30MonoWAV/30MonoF3.wav,1,2,2,3,,,,,0,10,10,2,0,4,4,3,,,,,,,,,1,1.286510697013,035,001,2019_May_16_0914,MusicAffectPsychophysiology2019,3.0.5,59.820619854882196,
To what extent did the music make you feel ,ANXIOUS ,30MonoWAV/30MonoF3.wav,1,2,2,3,,,,,0,10,10,2,0,5,5,1,,,,,,,,,3,1.3016160069964826,035,001,2019_May_16_0914,MusicAffectPsychophysiology2019,3.0.5,59.820619854882196,
To what extent did the music make you feel ,ANGRY,30MonoWAV/30MonoF3.wav,1,2,2,3,,,,,0,10,10,2,0,6,6,2,,,,,,,,,1,1.0338262779987417,035,001,2019_May_16_0914,MusicAffectPsychophysiology2019,3.0.5,59.820619854882196,
To what extent did the music make you feel ,SAD,30MonoWAV/30MonoF3.wav,1,2,2,3,,,,,0,10,10,2,0,7,7,0,,,,,,,,,1,1.1358273130026646,035,001,2019_May_16_0914,MusicAffectPsychophysiology2019,3.0.5,59.820619854882196,
To what extent did the music make you feel ,ASHAMED,30MonoWAV/30MonoF3.wav,1,2,2,3,,,,,0,10,10,2,0,8,8,4,,,,,,,,,1,0.8011733220191672,035,001,2019_May_16_0914,MusicAffectPsychophysiology2019,3.0.5,59.820619854882196,
To what extent did the music make you feel ,GUILTY,30MonoWAV/30MonoF3.wav,1,2,2,3,,,,,0,10,10,2,0,9,9,5,,,,,,,,,1,0.45072334600263275,035,001,2019_May_16_0914,MusicAffectPsychophysiology2019,3.0.5,59.820619854882196,
To what extent did the music make you feel ,HAPPY,30MonoWAV/30MonoF3.wav,1,2,2,3,,,,,0,10,10,2,0,10,10,6,,,,,,,,,1,0.9346793940057978,035,001,2019_May_16_0914,MusicAffectPsychophysiology2019,3.0.5,59.820619854882196,
To what extent did the music make you feel ,ALERT,30MonoWAV/30MonoF3.wav,1,2,2,3,,,,,0,10,10,2,0,11,11,8,,,,,,,,,4,1.7681415590050165,035,001,2019_May_16_0914,MusicAffectPsychophysiology2019,3.0.5,59.820619854882196,
,,30MonoWAV/30MonoF3.wav,1,2,2,3,,,,,0,10,10,2,,,,,,,,,,,,,,,035,001,2019_May_16_0914,MusicAffectPsychophysiology2019,3.0.5,59.820619854882196,
To what extent did the music make you feel ,TENDER,30MonoWAV/30MonoT2.wav,2,1,4,14,,,,,0,11,11,13,0,0,0,10,,,2,3.368335412000306,3,1.8184217489906587,3,0.9342168460134417,2,1.5185841100174002,035,001,2019_May_16_0914,MusicAffectPsychophysiology2019,3.0.5,59.820619854882196,
To what extent did the music make you feel ,FRUSTRATED,30MonoWAV/30MonoT2.wav,2,1,4,14,,,,,0,11,11,13,0,1,1,3,,,,,,,,,1,0.9003075429936871,035,001,2019_May_16_0914,MusicAffectPsychophysiology2019,3.0.5,59.820619854882196,
To what extent did the music make you feel ,ALERT,30MonoWAV/30MonoT2.wav,2,1,4,14,,,,,0,11,11,13,0,2,2,8,,,,,,,,,2,1.3847317909821868,035,001,2019_May_16_0914,MusicAffectPsychophysiology2019,3.0.5,59.820619854882196,
To what extent did the music make you feel ,ANGRY,30MonoWAV/30MonoT2.wav,2,1,4,14,,,,,0,11,11,13,0,3,3,2,,,,,,,,,1,0.8521119189972524,035,001,2019_May_16_0914,MusicAffectPsychophysiology2019,3.0.5,59.820619854882196,
To what extent did the music make you feel ,HAPPY,30MonoWAV/30MonoT2.wav,2,1,4,14,,,,,0,11,11,13,0,4,4,6,,,,,,,,,3,1.6366435670061037,035,001,2019_May_16_0914,MusicAffectPsychophysiology2019,3.0.5,59.820619854882196,
To what extent did the music make you feel ,GUILTY,30MonoWAV/30MonoT2.wav,2,1,4,14,,,,,0,11,11,13,0,5,5,5,,,,,,,,,1,0.968753597990144,035,001,2019_May_16_0914,MusicAffectPsychophysiology2019,3.0.5,59.820619854882196,
To what extent did the music make you feel ,SAD,30MonoWAV/30MonoT2.wav,2,1,4,14,,,,,0,11,11,13,0,6,6,0,,,,,,,,,2,1.2857320030161645,035,001,2019_May_16_0914,MusicAffectPsychophysiology2019,3.0.5,59.820619854882196,
To what extent did the music make you feel ,EXCITED,30MonoWAV/30MonoT2.wav,2,1,4,14,,,,,0,11,11,13,0,7,7,7,,,,,,,,,2,1.5665264840063173,035,001,2019_May_16_0914,MusicAffectPsychophysiology2019,3.0.5,59.820619854882196,
To what extent did the music make you feel ,ACTIVE,30MonoWAV/30MonoT2.wav,2,1,4,14,,,,,0,11,11,13,0,8,8,9,,,,,,,,,2,1.5007677400135435,035,001,2019_May_16_0914,MusicAffectPsychophysiology2019,3.0.5,59.820619854882196,
To what extent did the music make you feel ,SCARED,30MonoWAV/30MonoT2.wav,2,1,4,14,,,,,0,11,11,13,0,9,9,11,,,,,,,,,1,0.8513491199992131,035,001,2019_May_16_0914,MusicAffectPsychophysiology2019,3.0.5,59.820619854882196,
To what extent did the music make you feel ,ANXIOUS ,30MonoWAV/30MonoT2.wav,2,1,4,14,,,,,0,11,11,13,0,10,10,1,,,,,,,,,2,1.2683827569999266,035,001,2019_May_16_0914,MusicAffectPsychophysiology2019,3.0.5,59.820619854882196,
To what extent did the music make you feel ,ASHAMED,30MonoWAV/30MonoT2.wav,2,1,4,14,,,,,0,11,11,13,0,11,11,4,,,,,,,,,1,0.5849751140049193,035,001,2019_May_16_0914,MusicAffectPsychophysiology2019,3.0.5,59.820619854882196,
,,30MonoWAV/30MonoT2.wav,2,1,4,14,,,,,0,11,11,13,,,,,,,,,,,,,,,035,001,2019_May_16_0914,MusicAffectPsychophysiology2019,3.0.5,59.820619854882196,
To what extent did the music make you feel ,ANGRY,30MonoWAV/30MonoS3.wav,1,1,3,11,,,,,0,12,12,10,0,0,0,2,,,2,3.934664222993888,1,2.1185462469875347,2,1.483529894001549,1,1.417683532985393,035,001,2019_May_16_0914,MusicAffectPsychophysiology2019,3.0.5,59.820619854882196,
To what extent did the music make you feel ,GUILTY,30MonoWAV/30MonoS3.wav,1,1,3,11,,,,,0,12,12,10,0,1,1,5,,,,,,,,,1,1.2014397109742276,035,001,2019_May_16_0914,MusicAffectPsychophysiology2019,3.0.5,59.820619854882196,
To what extent did the music make you feel ,ALERT,30MonoWAV/30MonoS3.wav,1,1,3,11,,,,,0,12,12,10,0,2,2,8,,,,,,,,,2,2.019727168022655,035,001,2019_May_16_0914,MusicAffectPsychophysiology2019,3.0.5,59.820619854882196,
To what extent did the music make you feel ,EXCITED,30MonoWAV/30MonoS3.wav,1,1,3,11,,,,,0,12,12,10,0,3,3,7,,,,,,,,,2,1.9349214329849929,035,001,2019_May_16_0914,MusicAffectPsychophysiology2019,3.0.5,59.820619854882196,
To what extent did the music make you feel ,ANXIOUS ,30MonoWAV/30MonoS3.wav,1,1,3,11,,,,,0,12,12,10,0,4,4,1,,,,,,,,,3,1.401129354024306,035,001,2019_May_16_0914,MusicAffectPsychophysiology2019,3.0.5,59.820619854882196,
To what extent did the music make you feel ,ASHAMED,30MonoWAV/30MonoS3.wav,1,1,3,11,,,,,0,12,12,10,0,5,5,4,,,,,,,,,1,1.6854403229954187,035,001,2019_May_16_0914,MusicAffectPsychophysiology2019,3.0.5,59.820619854882196,
To what extent did the music make you feel ,SCARED,30MonoWAV/30MonoS3.wav,1,1,3,11,,,,,0,12,12,10,0,6,6,11,,,,,,,,,3,2.268474190001143,035,001,2019_May_16_0914,MusicAffectPsychophysiology2019,3.0.5,59.820619854882196,
To what extent did the music make you feel ,SAD,30MonoWAV/30MonoS3.wav,1,1,3,11,,,,,0,12,12,10,0,7,7,0,,,,,,,,,4,1.5182901649968699,035,001,2019_May_16_0914,MusicAffectPsychophysiology2019,3.0.5,59.820619854882196,
To what extent did the music make you feel ,ACTIVE,30MonoWAV/30MonoS3.wav,1,1,3,11,,,,,0,12,12,10,0,8,8,9,,,,,,,,,2,1.2683037990063895,035,001,2019_May_16_0914,MusicAffectPsychophysiology2019,3.0.5,59.820619854882196,
To what extent did the music make you feel ,TENDER,30MonoWAV/30MonoS3.wav,1,1,3,11,,,,,0,12,12,10,0,9,9,10,,,,,,,,,3,1.4670418319874443,035,001,2019_May_16_0914,MusicAffectPsychophysiology2019,3.0.5,59.820619854882196,
To what extent did the music make you feel ,HAPPY,30MonoWAV/30MonoS3.wav,1,1,3,11,,,,,0,12,12,10,0,10,10,6,,,,,,,,,1,1.0843183039978612,035,001,2019_May_16_0914,MusicAffectPsychophysiology2019,3.0.5,59.820619854882196,
To what extent did the music make you feel ,FRUSTRATED,30MonoWAV/30MonoS3.wav,1,1,3,11,,,,,0,12,12,10,0,11,11,3,,,,,,,,,1,0.8660656400024891,035,001,2019_May_16_0914,MusicAffectPsychophysiology2019,3.0.5,59.820619854882196,
,,30MonoWAV/30MonoS3.wav,1,1,3,11,,,,,0,12,12,10,,,,,,,,,,,,,,,035,001,2019_May_16_0914,MusicAffectPsychophysiology2019,3.0.5,59.820619854882196,
To what extent did the music make you feel ,SAD,30MonoWAV/30MonoF2.wav,1,2,2,2,,,,,0,13,13,1,0,0,0,0,,,4,4.023749194020638,1,1.1529144159867428,2,1.2365249040012714,3,3.022856337018311,035,001,2019_May_16_0914,MusicAffectPsychophysiology2019,3.0.5,59.820619854882196,
To what extent did the music make you feel ,SCARED,30MonoWAV/30MonoF2.wav,1,2,2,2,,,,,0,13,13,1,0,1,1,11,,,,,,,,,4,1.2406963469984476,035,001,2019_May_16_0914,MusicAffectPsychophysiology2019,3.0.5,59.820619854882196,
To what extent did the music make you feel ,EXCITED,30MonoWAV/30MonoF2.wav,1,2,2,2,,,,,0,13,13,1,0,2,2,7,,,,,,,,,1,2.902261181996437,035,001,2019_May_16_0914,MusicAffectPsychophysiology2019,3.0.5,59.820619854882196,
To what extent did the music make you feel ,HAPPY,30MonoWAV/30MonoF2.wav,1,2,2,2,,,,,0,13,13,1,0,3,3,6,,,,,,,,,1,0.9846932910149917,035,001,2019_May_16_0914,MusicAffectPsychophysiology2019,3.0.5,59.820619854882196,
To what extent did the music make you feel ,ASHAMED,30MonoWAV/30MonoF2.wav,1,2,2,2,,,,,0,13,13,1,0,4,4,4,,,,,,,,,1,0.8199267940071877,035,001,2019_May_16_0914,MusicAffectPsychophysiology2019,3.0.5,59.820619854882196,
To what extent did the music make you feel ,GUILTY,30MonoWAV/30MonoF2.wav,1,2,2,2,,,,,0,13,13,1,0,5,5,5,,,,,,,,,1,0.8347952399926726,035,001,2019_May_16_0914,MusicAffectPsychophysiology2019,3.0.5,59.820619854882196,
To what extent did the music make you feel ,TENDER,30MonoWAV/30MonoF2.wav,1,2,2,2,,,,,0,13,13,1,0,6,6,10,,,,,,,,,1,0.9183211250056047,035,001,2019_May_16_0914,MusicAffectPsychophysiology2019,3.0.5,59.820619854882196,
To what extent did the music make you feel ,ANGRY,30MonoWAV/30MonoF2.wav,1,2,2,2,,,,,0,13,13,1,0,7,7,2,,,,,,,,,2,1.518213820992969,035,001,2019_May_16_0914,MusicAffectPsychophysiology2019,3.0.5,59.820619854882196,
To what extent did the music make you feel ,FRUSTRATED,30MonoWAV/30MonoF2.wav,1,2,2,2,,,,,0,13,13,1,0,8,8,3,,,,,,,,,2,1.5857621699979063,035,001,2019_May_16_0914,MusicAffectPsychophysiology2019,3.0.5,59.820619854882196,
To what extent did the music make you feel ,ACTIVE,30MonoWAV/30MonoF2.wav,1,2,2,2,,,,,0,13,13,1,0,9,9,9,,,,,,,,,3,1.901420974987559,035,001,2019_May_16_0914,MusicAffectPsychophysiology2019,3.0.5,59.820619854882196,
To what extent did the music make you feel ,ANXIOUS ,30MonoWAV/30MonoF2.wav,1,2,2,2,,,,,0,13,13,1,0,10,10,1,,,,,,,,,4,1.6192332390055526,035,001,2019_May_16_0914,MusicAffectPsychophysiology2019,3.0.5,59.820619854882196,
To what extent did the music make you feel ,ALERT,30MonoWAV/30MonoF2.wav,1,2,2,2,,,,,0,13,13,1,0,11,11,8,,,,,,,,,4,1.2687943459895905,035,001,2019_May_16_0914,MusicAffectPsychophysiology2019,3.0.5,59.820619854882196,
,,30MonoWAV/30MonoF2.wav,1,2,2,2,,,,,0,13,13,1,,,,,,,,,,,,,,,035,001,2019_May_16_0914,MusicAffectPsychophysiology2019,3.0.5,59.820619854882196,
To what extent did the music make you feel ,TENDER,30MonoWAV/30MonoT1.wav,2,1,4,13,,,,,0,14,14,12,0,0,0,10,,,2,3.768729841976892,4,1.3023684179934207,3,1.3002187100064475,2,1.5516188839974348,035,001,2019_May_16_0914,MusicAffectPsychophysiology2019,3.0.5,59.820619854882196,
To what extent did the music make you feel ,ANGRY,30MonoWAV/30MonoT1.wav,2,1,4,13,,,,,0,14,14,12,0,1,1,2,,,,,,,,,1,1.0518214360054117,035,001,2019_May_16_0914,MusicAffectPsychophysiology2019,3.0.5,59.820619854882196,
To what extent did the music make you feel ,ALERT,30MonoWAV/30MonoT1.wav,2,1,4,13,,,,,0,14,14,12,0,2,2,8,,,,,,,,,2,1.3186321489920374,035,001,2019_May_16_0914,MusicAffectPsychophysiology2019,3.0.5,59.820619854882196,
To what extent did the music make you feel ,HAPPY,30MonoWAV/30MonoT1.wav,2,1,4,13,,,,,0,14,14,12,0,3,3,6,,,,,,,,,4,1.5177678820036817,035,001,2019_May_16_0914,MusicAffectPsychophysiology2019,3.0.5,59.820619854882196,
To what extent did the music make you feel ,ANXIOUS ,30MonoWAV/30MonoT1.wav,2,1,4,13,,,,,0,14,14,12,0,4,4,1,,,,,,,,,1,1.7354784260096494,035,001,2019_May_16_0914,MusicAffectPsychophysiology2019,3.0.5,59.820619854882196,
To what extent did the music make you feel ,EXCITED,30MonoWAV/30MonoT1.wav,2,1,4,13,,,,,0,14,14,12,0,5,5,7,,,,,,,,,3,1.452805887995055,035,001,2019_May_16_0914,MusicAffectPsychophysiology2019,3.0.5,59.820619854882196,
To what extent did the music make you feel ,SAD,30MonoWAV/30MonoT1.wav,2,1,4,13,,,,,0,14,14,12,0,6,6,0,,,,,,,,,1,0.9012741969781928,035,001,2019_May_16_0914,MusicAffectPsychophysiology2019,3.0.5,59.820619854882196,
To what extent did the music make you feel ,ACTIVE,30MonoWAV/30MonoT1.wav,2,1,4,13,,,,,0,14,14,12,0,7,7,9,,,,,,,,,2,1.052128654991975,035,001,2019_May_16_0914,MusicAffectPsychophysiology2019,3.0.5,59.820619854882196,
To what extent did the music make you feel ,GUILTY,30MonoWAV/30MonoT1.wav,2,1,4,13,,,,,0,14,14,12,0,8,8,5,,,,,,,,,1,0.7498991029860917,035,001,2019_May_16_0914,MusicAffectPsychophysiology2019,3.0.5,59.820619854882196,
To what extent did the music make you feel ,FRUSTRATED,30MonoWAV/30MonoT1.wav,2,1,4,13,,,,,0,14,14,12,0,9,9,3,,,,,,,,,1,0.9187731550191529,035,001,2019_May_16_0914,MusicAffectPsychophysiology2019,3.0.5,59.820619854882196,
To what extent did the music make you feel ,SCARED,30MonoWAV/30MonoT1.wav,2,1,4,13,,,,,0,14,14,12,0,10,10,11,,,,,,,,,1,0.9517532720055897,035,001,2019_May_16_0914,MusicAffectPsychophysiology2019,3.0.5,59.820619854882196,
To what extent did the music make you feel ,ASHAMED,30MonoWAV/30MonoT1.wav,2,1,4,13,,,,,0,14,14,12,0,11,11,4,,,,,,,,,1,0.8018293220084161,035,001,2019_May_16_0914,MusicAffectPsychophysiology2019,3.0.5,59.820619854882196,
,,30MonoWAV/30MonoT1.wav,2,1,4,13,,,,,0,14,14,12,,,,,,,,,,,,,,,035,001,2019_May_16_0914,MusicAffectPsychophysiology2019,3.0.5,59.820619854882196,
To what extent did the music make you feel ,HAPPY,30MonoWAV/30MonoF1.wav,1,2,2,1,,,,,0,15,15,0,0,0,0,6,,,2,3.3851522379845846,2,1.7177150119969156,2,2.3684703029866796,2,2.233482652984094,035,001,2019_May_16_0914,MusicAffectPsychophysiology2019,3.0.5,59.820619854882196,
To what extent did the music make you feel ,ALERT,30MonoWAV/30MonoF1.wav,1,2,2,1,,,,,0,15,15,0,0,1,1,8,,,,,,,,,3,1.6353520569973625,035,001,2019_May_16_0914,MusicAffectPsychophysiology2019,3.0.5,59.820619854882196,
To what extent did the music make you feel ,TENDER,30MonoWAV/30MonoF1.wav,1,2,2,1,,,,,0,15,15,0,0,2,2,10,,,,,,,,,2,0.7359127169765998,035,001,2019_May_16_0914,MusicAffectPsychophysiology2019,3.0.5,59.820619854882196,
To what extent did the music make you feel ,ANXIOUS ,30MonoWAV/30MonoF1.wav,1,2,2,1,,,,,0,15,15,0,0,3,3,1,,,,,,,,,3,2.084294203988975,035,001,2019_May_16_0914,MusicAffectPsychophysiology2019,3.0.5,59.820619854882196,
To what extent did the music make you feel ,GUILTY,30MonoWAV/30MonoF1.wav,1,2,2,1,,,,,0,15,15,0,0,4,4,5,,,,,,,,,1,1.1511185569979716,035,001,2019_May_16_0914,MusicAffectPsychophysiology2019,3.0.5,59.820619854882196,
To what extent did the music make you feel ,ASHAMED,30MonoWAV/30MonoF1.wav,1,2,2,1,,,,,0,15,15,0,0,5,5,4,,,,,,,,,1,1.000623204978183,035,001,2019_May_16_0914,MusicAffectPsychophysiology2019,3.0.5,59.820619854882196,
To what extent did the music make you feel ,SCARED,30MonoWAV/30MonoF1.wav,1,2,2,1,,,,,0,15,15,0,0,6,6,11,,,,,,,,,2,1.134766440023668,035,001,2019_May_16_0914,MusicAffectPsychophysiology2019,3.0.5,59.820619854882196,
To what extent did the music make you feel ,FRUSTRATED,30MonoWAV/30MonoF1.wav,1,2,2,1,,,,,0,15,15,0,0,7,7,3,,,,,,,,,1,0.6181912489992101,035,001,2019_May_16_0914,MusicAffectPsychophysiology2019,3.0.5,59.820619854882196,
To what extent did the music make you feel ,EXCITED,30MonoWAV/30MonoF1.wav,1,2,2,1,,,,,0,15,15,0,0,8,8,7,,,,,,,,,1,1.5186489530024119,035,001,2019_May_16_0914,MusicAffectPsychophysiology2019,3.0.5,59.820619854882196,
To what extent did the music make you feel ,SAD,30MonoWAV/30MonoF1.wav,1,2,2,1,,,,,0,15,15,0,0,9,9,0,,,,,,,,,1,0.9843035860103555,035,001,2019_May_16_0914,MusicAffectPsychophysiology2019,3.0.5,59.820619854882196,
To what extent did the music make you feel ,ACTIVE,30MonoWAV/30MonoF1.wav,1,2,2,1,,,,,0,15,15,0,0,10,10,9,,,,,,,,,2,1.600972053973237,035,001,2019_May_16_0914,MusicAffectPsychophysiology2019,3.0.5,59.820619854882196,
To what extent did the music make you feel ,ANGRY,30MonoWAV/30MonoF1.wav,1,2,2,1,,,,,0,15,15,0,0,11,11,2,,,,,,,,,1,0.7012080739950761,035,001,2019_May_16_0914,MusicAffectPsychophysiology2019,3.0.5,59.820619854882196,
,,30MonoWAV/30MonoF1.wav,1,2,2,1,,,,,0,15,15,0,,,,,,,,,,,,,,,035,001,2019_May_16_0914,MusicAffectPsychophysiology2019,3.0.5,59.820619854882196,
To what extent did the music make you feel ,ANGRY,30MonoWAV/30MonoH2.wav,2,2,1,6,,,,,1,0,16,5,0,0,0,2,,,2,3.553771730978042,1,5.118558813992422,1,1.1522334320179652,1,1.2351723790052347,035,001,2019_May_16_0914,MusicAffectPsychophysiology2019,3.0.5,59.820619854882196,
To what extent did the music make you feel ,FRUSTRATED,30MonoWAV/30MonoH2.wav,2,2,1,6,,,,,1,0,16,5,0,1,1,3,,,,,,,,,1,1.0519234929815866,035,001,2019_May_16_0914,MusicAffectPsychophysiology2019,3.0.5,59.820619854882196,
To what extent did the music make you feel ,SCARED,30MonoWAV/30MonoH2.wav,2,2,1,6,,,,,1,0,16,5,0,2,2,11,,,,,,,,,2,1.9853424050088506,035,001,2019_May_16_0914,MusicAffectPsychophysiology2019,3.0.5,59.820619854882196,
To what extent did the music make you feel ,ACTIVE,30MonoWAV/30MonoH2.wav,2,2,1,6,,,,,1,0,16,5,0,3,3,9,,,,,,,,,1,1.2352360499789938,035,001,2019_May_16_0914,MusicAffectPsychophysiology2019,3.0.5,59.820619854882196,
To what extent did the music make you feel ,ASHAMED,30MonoWAV/30MonoH2.wav,2,2,1,6,,,,,1,0,16,5,0,4,4,4,,,,,,,,,1,0.884978443995351,035,001,2019_May_16_0914,MusicAffectPsychophysiology2019,3.0.5,59.820619854882196,
To what extent did the music make you feel ,ALERT,30MonoWAV/30MonoH2.wav,2,2,1,6,,,,,1,0,16,5,0,5,5,8,,,,,,,,,2,0.9517414220026694,035,001,2019_May_16_0914,MusicAffectPsychophysiology2019,3.0.5,59.820619854882196,
To what extent did the music make you feel ,SAD,30MonoWAV/30MonoH2.wav,2,2,1,6,,,,,1,0,16,5,0,6,6,0,,,,,,,,,2,1.3336378160165623,035,001,2019_May_16_0914,MusicAffectPsychophysiology2019,3.0.5,59.820619854882196,
To what extent did the music make you feel ,TENDER,30MonoWAV/30MonoH2.wav,2,2,1,6,,,,,1,0,16,5,0,7,7,10,,,,,,,,,2,0.8336474359966815,035,001,2019_May_16_0914,MusicAffectPsychophysiology2019,3.0.5,59.820619854882196,
To what extent did the music make you feel ,HAPPY,30MonoWAV/30MonoH2.wav,2,2,1,6,,,,,1,0,16,5,0,8,8,6,,,,,,,,,1,0.8016647050098982,035,001,2019_May_16_0914,MusicAffectPsychophysiology2019,3.0.5,59.820619854882196,
To what extent did the music make you feel ,EXCITED,30MonoWAV/30MonoH2.wav,2,2,1,6,,,,,1,0,16,5,0,9,9,7,,,,,,,,,1,0.8180401680001523,035,001,2019_May_16_0914,MusicAffectPsychophysiology2019,3.0.5,59.820619854882196,
To what extent did the music make you feel ,GUILTY,30MonoWAV/30MonoH2.wav,2,2,1,6,,,,,1,0,16,5,0,10,10,5,,,,,,,,,1,1.1853810150059871,035,001,2019_May_16_0914,MusicAffectPsychophysiology2019,3.0.5,59.820619854882196,
To what extent did the music make you feel ,ANXIOUS ,30MonoWAV/30MonoH2.wav,2,2,1,6,,,,,1,0,16,5,0,11,11,1,,,,,,,,,3,1.2350087399827316,035,001,2019_May_16_0914,MusicAffectPsychophysiology2019,3.0.5,59.820619854882196,
,,30MonoWAV/30MonoH2.wav,2,2,1,6,,,,,1,0,16,5,,,,,,,,,,,,,,,035,001,2019_May_16_0914,MusicAffectPsychophysiology2019,3.0.5,59.820619854882196,
To what extent did the music make you feel ,ANGRY,30MonoWAV/30MonoS3.wav,1,1,3,11,,,,,1,1,17,10,0,0,0,2,,,1,2.802430709998589,1,0.6684830820013303,1,2.1409945559862535,1,1.3035569640051108,035,001,2019_May_16_0914,MusicAffectPsychophysiology2019,3.0.5,59.820619854882196,
To what extent did the music make you feel ,SCARED,30MonoWAV/30MonoS3.wav,1,1,3,11,,,,,1,1,17,10,0,1,1,11,,,,,,,,,4,1.704334745008964,035,001,2019_May_16_0914,MusicAffectPsychophysiology2019,3.0.5,59.820619854882196,
To what extent did the music make you feel ,HAPPY,30MonoWAV/30MonoS3.wav,1,1,3,11,,,,,1,1,17,10,0,2,2,6,,,,,,,,,1,1.5037152500008233,035,001,2019_May_16_0914,MusicAffectPsychophysiology2019,3.0.5,59.820619854882196,
To what extent did the music make you feel ,ASHAMED,30MonoWAV/30MonoS3.wav,1,1,3,11,,,,,1,1,17,10,0,3,3,4,,,,,,,,,3,3.773995002004085,035,001,2019_May_16_0914,MusicAffectPsychophysiology2019,3.0.5,59.820619854882196,
To what extent did the music make you feel ,TENDER,30MonoWAV/30MonoS3.wav,1,1,3,11,,,,,1,1,17,10,0,4,4,10,,,,,,,,,1,1.1687153950042557,035,001,2019_May_16_0914,MusicAffectPsychophysiology2019,3.0.5,59.820619854882196,
To what extent did the music make you feel ,ACTIVE,30MonoWAV/30MonoS3.wav,1,1,3,11,,,,,1,1,17,10,0,5,5,9,,,,,,,,,1,1.5024609139945824,035,001,2019_May_16_0914,MusicAffectPsychophysiology2019,3.0.5,59.820619854882196,
To what extent did the music make you feel ,SAD,30MonoWAV/30MonoS3.wav,1,1,3,11,,,,,1,1,17,10,0,6,6,0,,,,,,,,,4,1.1333009719965048,035,001,2019_May_16_0914,MusicAffectPsychophysiology2019,3.0.5,59.820619854882196,
To what extent did the music make you feel ,ANXIOUS ,30MonoWAV/30MonoS3.wav,1,1,3,11,,,,,1,1,17,10,0,7,7,1,,,,,,,,,4,1.4019183990021702,035,001,2019_May_16_0914,MusicAffectPsychophysiology2019,3.0.5,59.820619854882196,
To what extent did the music make you feel ,ALERT,30MonoWAV/30MonoS3.wav,1,1,3,11,,,,,1,1,17,10,0,8,8,8,,,,,,,,,1,2.8687432750011794,035,001,2019_May_16_0914,MusicAffectPsychophysiology2019,3.0.5,59.820619854882196,
To what extent did the music make you feel ,FRUSTRATED,30MonoWAV/30MonoS3.wav,1,1,3,11,,,,,1,1,17,10,0,9,9,3,,,,,,,,,1,0.7514578619739041,035,001,2019_May_16_0914,MusicAffectPsychophysiology2019,3.0.5,59.820619854882196,
To what extent did the music make you feel ,EXCITED,30MonoWAV/30MonoS3.wav,1,1,3,11,,,,,1,1,17,10,0,10,10,7,,,,,,,,,1,0.8023872890044004,035,001,2019_May_16_0914,MusicAffectPsychophysiology2019,3.0.5,59.820619854882196,
To what extent did the music make you feel ,GUILTY,30MonoWAV/30MonoS3.wav,1,1,3,11,,,,,1,1,17,10,0,11,11,5,,,,,,,,,3,1.9160251120047178,035,001,2019_May_16_0914,MusicAffectPsychophysiology2019,3.0.5,59.820619854882196,
,,30MonoWAV/30MonoS3.wav,1,1,3,11,,,,,1,1,17,10,,,,,,,,,,,,,,,035,001,2019_May_16_0914,MusicAffectPsychophysiology2019,3.0.5,59.820619854882196,
To what extent did the music make you feel ,ALERT,30MonoWAV/30MonoS1.wav,1,1,3,9,,,,,1,2,18,8,0,0,0,8,,,1,4.418092343985336,2,4.602725522010587,1,0.38481007699738257,2,6.701276628009509,035,001,2019_May_16_0914,MusicAffectPsychophysiology2019,3.0.5,59.820619854882196,
To what extent did the music make you feel ,SCARED,30MonoWAV/30MonoS1.wav,1,1,3,9,,,,,1,2,18,8,0,1,1,11,,,,,,,,,3,2.118495509988861,035,001,2019_May_16_0914,MusicAffectPsychophysiology2019,3.0.5,59.820619854882196,
To what extent did the music make you feel ,ANGRY,30MonoWAV/30MonoS1.wav,1,1,3,9,,,,,1,2,18,8,0,2,2,2,,,,,,,,,1,1.3340586470148992,035,001,2019_May_16_0914,MusicAffectPsychophysiology2019,3.0.5,59.820619854882196,
To what extent did the music make you feel ,HAPPY,30MonoWAV/30MonoS1.wav,1,1,3,9,,,,,1,2,18,8,0,3,3,6,,,,,,,,,1,0.6025997220131103,035,001,2019_May_16_0914,MusicAffectPsychophysiology2019,3.0.5,59.820619854882196,
To what extent did the music make you feel ,ACTIVE,30MonoWAV/30MonoS1.wav,1,1,3,9,,,,,1,2,18,8,0,4,4,9,,,,,,,,,1,1.0008585969917476,035,001,2019_May_16_0914,MusicAffectPsychophysiology2019,3.0.5,59.820619854882196,
To what extent did the music make you feel ,SAD,30MonoWAV/30MonoS1.wav,1,1,3,9,,,,,1,2,18,8,0,5,5,0,,,,,,,,,3,2.0669207939936314,035,001,2019_May_16_0914,MusicAffectPsychophysiology2019,3.0.5,59.820619854882196,
To what extent did the music make you feel ,EXCITED,30MonoWAV/30MonoS1.wav,1,1,3,9,,,,,1,2,18,8,0,6,6,7,,,,,,,,,1,1.0509982359944843,035,001,2019_May_16_0914,MusicAffectPsychophysiology2019,3.0.5,59.820619854882196,
To what extent did the music make you feel ,FRUSTRATED,30MonoWAV/30MonoS1.wav,1,1,3,9,,,,,1,2,18,8,0,7,7,3,,,,,,,,,1,4.406411381991347,035,001,2019_May_16_0914,MusicAffectPsychophysiology2019,3.0.5,59.820619854882196,
To what extent did the music make you feel ,GUILTY,30MonoWAV/30MonoS1.wav,1,1,3,9,,,,,1,2,18,8,0,8,8,5,,,,,,,,,1,1.3036012220254634,035,001,2019_May_16_0914,MusicAffectPsychophysiology2019,3.0.5,59.820619854882196,
To what extent did the music make you feel ,ASHAMED,30MonoWAV/30MonoS1.wav,1,1,3,9,,,,,1,2,18,8,0,9,9,4,,,,,,,,,1,0.7365828409965616,035,001,2019_May_16_0914,MusicAffectPsychophysiology2019,3.0.5,59.820619854882196,
To what extent did the music make you feel ,ANXIOUS ,30MonoWAV/30MonoS1.wav,1,1,3,9,,,,,1,2,18,8,0,10,10,1,,,,,,,,,3,1.6352585919958074,035,001,2019_May_16_0914,MusicAffectPsychophysiology2019,3.0.5,59.820619854882196,
To what extent did the music make you feel ,TENDER,30MonoWAV/30MonoS1.wav,1,1,3,9,,,,,1,2,18,8,0,11,11,10,,,,,,,,,1,1.4028335770126432,035,001,2019_May_16_0914,MusicAffectPsychophysiology2019,3.0.5,59.820619854882196,
,,30MonoWAV/30MonoS1.wav,1,1,3,9,,,,,1,2,18,8,,,,,,,,,,,,,,,035,001,2019_May_16_0914,MusicAffectPsychophysiology2019,3.0.5,59.820619854882196,
To what extent did the music make you feel ,SCARED,30MonoWAV/30MonoT1.wav,2,1,4,13,,,,,1,3,19,12,0,0,0,11,,,2,3.219035846006591,3,0.9188293589977548,3,2.7513465299853124,1,1.2027203089965042,035,001,2019_May_16_0914,MusicAffectPsychophysiology2019,3.0.5,59.820619854882196,
To what extent did the music make you feel ,ALERT,30MonoWAV/30MonoT1.wav,2,1,4,13,,,,,1,3,19,12,0,1,1,8,,,,,,,,,2,1.133869960991433,035,001,2019_May_16_0914,MusicAffectPsychophysiology2019,3.0.5,59.820619854882196,
To what extent did the music make you feel ,ANXIOUS ,30MonoWAV/30MonoT1.wav,2,1,4,13,,,,,1,3,19,12,0,2,2,1,,,,,,,,,2,1.251889745995868,035,001,2019_May_16_0914,MusicAffectPsychophysiology2019,3.0.5,59.820619854882196,
To what extent did the music make you feel ,ACTIVE,30MonoWAV/30MonoT1.wav,2,1,4,13,,,,,1,3,19,12,0,3,3,9,,,,,,,,,1,3.3488004070241004,035,001,2019_May_16_0914,MusicAffectPsychophysiology2019,3.0.5,59.820619854882196,
To what extent did the music make you feel ,SAD,30MonoWAV/30MonoT1.wav,2,1,4,13,,,,,1,3,19,12,0,4,4,0,,,,,,,,,1,1.1681830709858332,035,001,2019_May_16_0914,MusicAffectPsychophysiology2019,3.0.5,59.820619854882196,
To what extent did the music make you feel ,EXCITED,30MonoWAV/30MonoT1.wav,2,1,4,13,,,,,1,3,19,12,0,5,5,7,,,,,,,,,2,1.3521402350161225,035,001,2019_May_16_0914,MusicAffectPsychophysiology2019,3.0.5,59.820619854882196,
To what extent did the music make you feel ,TENDER,30MonoWAV/30MonoT1.wav,2,1,4,13,,,,,1,3,19,12,0,6,6,10,,,,,,,,,2,1.0864649820141494,035,001,2019_May_16_0914,MusicAffectPsychophysiology2019,3.0.5,59.820619854882196,
To what extent did the music make you feel ,HAPPY,30MonoWAV/30MonoT1.wav,2,1,4,13,,,,,1,3,19,12,0,7,7,6,,,,,,,,,3,1.0389787390013225,035,001,2019_May_16_0914,MusicAffectPsychophysiology2019,3.0.5,59.820619854882196,
To what extent did the music make you feel ,ANGRY,30MonoWAV/30MonoT1.wav,2,1,4,13,,,,,1,3,19,12,0,8,8,2,,,,,,,,,3,0.11953611101489514,035,001,2019_May_16_0914,MusicAffectPsychophysiology2019,3.0.5,59.820619854882196,
To what extent did the music make you feel ,GUILTY,30MonoWAV/30MonoT1.wav,2,1,4,13,,,,,1,3,19,12,0,9,9,5,,,,,,,,,1,3.4220719499862753,035,001,2019_May_16_0914,MusicAffectPsychophysiology2019,3.0.5,59.820619854882196,
To what extent did the music make you feel ,FRUSTRATED,30MonoWAV/30MonoT1.wav,2,1,4,13,,,,,1,3,19,12,0,10,10,3,,,,,,,,,1,0.6527306299831253,035,001,2019_May_16_0914,MusicAffectPsychophysiology2019,3.0.5,59.820619854882196,
To what extent did the music make you feel ,ASHAMED,30MonoWAV/30MonoT1.wav,2,1,4,13,,,,,1,3,19,12,0,11,11,4,,,,,,,,,1,0.7192646240000613,035,001,2019_May_16_0914,MusicAffectPsychophysiology2019,3.0.5,59.820619854882196,
,,30MonoWAV/30MonoT1.wav,2,1,4,13,,,,,1,3,19,12,,,,,,,,,,,,,,,035,001,2019_May_16_0914,MusicAffectPsychophysiology2019,3.0.5,59.820619854882196,
To what extent did the music make you feel ,SAD,30MonoWAV/30MonoH4.wav,2,2,1,8,,,,,1,4,20,7,0,0,0,0,,,3,2.8680049010145012,4,0.9522720969980583,4,2.4029842210002244,1,1.200215543009108,035,001,2019_May_16_0914,MusicAffectPsychophysiology2019,3.0.5,59.820619854882196,
To what extent did the music make you feel ,FRUSTRATED,30MonoWAV/30MonoH4.wav,2,2,1,8,,,,,1,4,20,7,0,1,1,3,,,,,,,,,1,0.5688342389767058,035,001,2019_May_16_0914,MusicAffectPsychophysiology2019,3.0.5,59.820619854882196,
To what extent did the music make you feel ,ANXIOUS ,30MonoWAV/30MonoH4.wav,2,2,1,8,,,,,1,4,20,7,0,2,2,1,,,,,,,,,1,1.6850675469904672,035,001,2019_May_16_0914,MusicAffectPsychophysiology2019,3.0.5,59.820619854882196,
To what extent did the music make you feel ,ASHAMED,30MonoWAV/30MonoH4.wav,2,2,1,8,,,,,1,4,20,7,0,3,3,4,,,,,,,,,1,0.7191637519863434,035,001,2019_May_16_0914,MusicAffectPsychophysiology2019,3.0.5,59.820619854882196,
To what extent did the music make you feel ,ACTIVE,30MonoWAV/30MonoH4.wav,2,2,1,8,,,,,1,4,20,7,0,4,4,9,,,,,,,,,3,1.3524522469961084,035,001,2019_May_16_0914,MusicAffectPsychophysiology2019,3.0.5,59.820619854882196,
To what extent did the music make you feel ,GUILTY,30MonoWAV/30MonoH4.wav,2,2,1,8,,,,,1,4,20,7,0,5,5,5,,,,,,,,,1,0.884435414976906,035,001,2019_May_16_0914,MusicAffectPsychophysiology2019,3.0.5,59.820619854882196,
To what extent did the music make you feel ,TENDER,30MonoWAV/30MonoH4.wav,2,2,1,8,,,,,1,4,20,7,0,6,6,10,,,,,,,,,2,1.218167690007249,035,001,2019_May_16_0914,MusicAffectPsychophysiology2019,3.0.5,59.820619854882196,
To what extent did the music make you feel ,HAPPY,30MonoWAV/30MonoH4.wav,2,2,1,8,,,,,1,4,20,7,0,7,7,6,,,,,,,,,4,1.1528698560141493,035,001,2019_May_16_0914,MusicAffectPsychophysiology2019,3.0.5,59.820619854882196,
To what extent did the music make you feel ,EXCITED,30MonoWAV/30MonoH4.wav,2,2,1,8,,,,,1,4,20,7,0,8,8,7,,,,,,,,,4,1.1015022569918074,035,001,2019_May_16_0914,MusicAffectPsychophysiology2019,3.0.5,59.820619854882196,
To what extent did the music make you feel ,ANGRY,30MonoWAV/30MonoH4.wav,2,2,1,8,,,,,1,4,20,7,0,9,9,2,,,,,,,,,1,0.9515143020253163,035,001,2019_May_16_0914,MusicAffectPsychophysiology2019,3.0.5,59.820619854882196,
To what extent did the music make you feel ,ALERT,30MonoWAV/30MonoH4.wav,2,2,1,8,,,,,1,4,20,7,0,10,10,8,,,,,,,,,3,1.3348355480120517,035,001,2019_May_16_0914,MusicAffectPsychophysiology2019,3.0.5,59.820619854882196,
To what extent did the music make you feel ,SCARED,30MonoWAV/30MonoH4.wav,2,2,1,8,,,,,1,4,20,7,0,11,11,11,,,,,,,,,1,0.919146043015644,035,001,2019_May_16_0914,MusicAffectPsychophysiology2019,3.0.5,59.820619854882196,
,,30MonoWAV/30MonoH4.wav,2,2,1,8,,,,,1,4,20,7,,,,,,,,,,,,,,,035,001,2019_May_16_0914,MusicAffectPsychophysiology2019,3.0.5,59.820619854882196,
To what extent did the music make you feel ,GUILTY,30MonoWAV/30MonoS4.wav,1,1,3,12,,,,,1,5,21,11,0,0,0,5,,,2,4.440496104012709,1,2.034962739009643,2,1.2690417899866588,2,2.3017853640194517,035,001,2019_May_16_0914,MusicAffectPsychophysiology2019,3.0.5,59.820619854882196,
To what extent did the music make you feel ,SAD,30MonoWAV/30MonoS4.wav,1,1,3,12,,,,,1,5,21,11,0,1,1,0,,,,,,,,,3,0.9852899440156762,035,001,2019_May_16_0914,MusicAffectPsychophysiology2019,3.0.5,59.820619854882196,
To what extent did the music make you feel ,SCARED,30MonoWAV/30MonoS4.wav,1,1,3,12,,,,,1,5,21,11,0,2,2,11,,,,,,,,,2,1.7355275970185176,035,001,2019_May_16_0914,MusicAffectPsychophysiology2019,3.0.5,59.820619854882196,
To what extent did the music make you feel ,ACTIVE,30MonoWAV/30MonoS4.wav,1,1,3,12,,,,,1,5,21,11,0,3,3,9,,,,,,,,,1,1.1183447270013858,035,001,2019_May_16_0914,MusicAffectPsychophysiology2019,3.0.5,59.820619854882196,
To what extent did the music make you feel ,EXCITED,30MonoWAV/30MonoS4.wav,1,1,3,12,,,,,1,5,21,11,0,4,4,7,,,,,,,,,1,1.0179577629896812,035,001,2019_May_16_0914,MusicAffectPsychophysiology2019,3.0.5,59.820619854882196,
To what extent did the music make you feel ,ANGRY,30MonoWAV/30MonoS4.wav,1,1,3,12,,,,,1,5,21,11,0,5,5,2,,,,,,,,,2,1.4343957740056794,035,001,2019_May_16_0914,MusicAffectPsychophysiology2019,3.0.5,59.820619854882196,
To what extent did the music make you feel ,ANXIOUS ,30MonoWAV/30MonoS4.wav,1,1,3,12,,,,,1,5,21,11,0,6,6,1,,,,,,,,,3,1.7512346020084806,035,001,2019_May_16_0914,MusicAffectPsychophysiology2019,3.0.5,59.820619854882196,
To what extent did the music make you feel ,ASHAMED,30MonoWAV/30MonoS4.wav,1,1,3,12,,,,,1,5,21,11,0,7,7,4,,,,,,,,,2,1.3847600810113363,035,001,2019_May_16_0914,MusicAffectPsychophysiology2019,3.0.5,59.820619854882196,
To what extent did the music make you feel ,TENDER,30MonoWAV/30MonoS4.wav,1,1,3,12,,,,,1,5,21,11,0,8,8,10,,,,,,,,,1,1.135502433986403,035,001,2019_May_16_0914,MusicAffectPsychophysiology2019,3.0.5,59.820619854882196,
To what extent did the music make you feel ,HAPPY,30MonoWAV/30MonoS4.wav,1,1,3,12,,,,,1,5,21,11,0,9,9,6,,,,,,,,,1,1.3355587889964227,035,001,2019_May_16_0914,MusicAffectPsychophysiology2019,3.0.5,59.820619854882196,
To what extent did the music make you feel ,FRUSTRATED,30MonoWAV/30MonoS4.wav,1,1,3,12,,,,,1,5,21,11,0,10,10,3,,,,,,,,,1,1.1184281129972078,035,001,2019_May_16_0914,MusicAffectPsychophysiology2019,3.0.5,59.820619854882196,
To what extent did the music make you feel ,ALERT,30MonoWAV/30MonoS4.wav,1,1,3,12,,,,,1,5,21,11,0,11,11,8,,,,,,,,,2,1.6858717489812989,035,001,2019_May_16_0914,MusicAffectPsychophysiology2019,3.0.5,59.820619854882196,
,,30MonoWAV/30MonoS4.wav,1,1,3,12,,,,,1,5,21,11,,,,,,,,,,,,,,,035,001,2019_May_16_0914,MusicAffectPsychophysiology2019,3.0.5,59.820619854882196,
To what extent did the music make you feel ,SCARED,30MonoWAV/30MonoT4.wav,2,1,4,16,,,,,1,6,22,15,0,0,0,11,,,2,3.4512402999971528,3,0.385361317981733,2,0.6019097120151855,1,1.468622903979849,035,001,2019_May_16_0914,MusicAffectPsychophysiology2019,3.0.5,59.820619854882196,
To what extent did the music make you feel ,ACTIVE,30MonoWAV/30MonoT4.wav,2,1,4,16,,,,,1,6,22,15,0,1,1,9,,,,,,,,,2,3.283505794010125,035,001,2019_May_16_0914,MusicAffectPsychophysiology2019,3.0.5,59.820619854882196,
To what extent did the music make you feel ,SAD,30MonoWAV/30MonoT4.wav,2,1,4,16,,,,,1,6,22,15,0,2,2,0,,,,,,,,,2,1.6019065349828452,035,001,2019_May_16_0914,MusicAffectPsychophysiology2019,3.0.5,59.820619854882196,
To what extent did the music make you feel ,ALERT,30MonoWAV/30MonoT4.wav,2,1,4,16,,,,,1,6,22,15,0,3,3,8,,,,,,,,,2,1.468285738985287,035,001,2019_May_16_0914,MusicAffectPsychophysiology2019,3.0.5,59.820619854882196,
To what extent did the music make you feel ,FRUSTRATED,30MonoWAV/30MonoT4.wav,2,1,4,16,,,,,1,6,22,15,0,4,4,3,,,,,,,,,1,1.017466314980993,035,001,2019_May_16_0914,MusicAffectPsychophysiology2019,3.0.5,59.820619854882196,
To what extent did the music make you feel ,ANGRY,30MonoWAV/30MonoT4.wav,2,1,4,16,,,,,1,6,22,15,0,5,5,2,,,,,,,,,1,0.6353179860161617,035,001,2019_May_16_0914,MusicAffectPsychophysiology2019,3.0.5,59.820619854882196,
To what extent did the music make you feel ,HAPPY,30MonoWAV/30MonoT4.wav,2,1,4,16,,,,,1,6,22,15,0,6,6,6,,,,,,,,,3,1.0515441360184923,035,001,2019_May_16_0914,MusicAffectPsychophysiology2019,3.0.5,59.820619854882196,
To what extent did the music make you feel ,TENDER,30MonoWAV/30MonoT4.wav,2,1,4,16,,,,,1,6,22,15,0,7,7,10,,,,,,,,,2,1.3344384740048554,035,001,2019_May_16_0914,MusicAffectPsychophysiology2019,3.0.5,59.820619854882196,
To what extent did the music make you feel ,ASHAMED,30MonoWAV/30MonoT4.wav,2,1,4,16,,,,,1,6,22,15,0,8,8,4,,,,,,,,,1,0.6693888680019882,035,001,2019_May_16_0914,MusicAffectPsychophysiology2019,3.0.5,59.820619854882196,
To what extent did the music make you feel ,ANXIOUS ,30MonoWAV/30MonoT4.wav,2,1,4,16,,,,,1,6,22,15,0,9,9,1,,,,,,,,,2,1.5499008409969974,035,001,2019_May_16_0914,MusicAffectPsychophysiology2019,3.0.5,59.820619854882196,
To what extent did the music make you feel ,EXCITED,30MonoWAV/30MonoT4.wav,2,1,4,16,,,,,1,6,22,15,0,10,10,7,,,,,,,,,2,2.567094833997544,035,001,2019_May_16_0914,MusicAffectPsychophysiology2019,3.0.5,59.820619854882196,
To what extent did the music make you feel ,GUILTY,30MonoWAV/30MonoT4.wav,2,1,4,16,,,,,1,6,22,15,0,11,11,5,,,,,,,,,1,1.4357905180077069,035,001,2019_May_16_0914,MusicAffectPsychophysiology2019,3.0.5,59.820619854882196,
,,30MonoWAV/30MonoT4.wav,2,1,4,16,,,,,1,6,22,15,,,,,,,,,,,,,,,035,001,2019_May_16_0914,MusicAffectPsychophysiology2019,3.0.5,59.820619854882196,
To what extent did the music make you feel ,EXCITED,30MonoWAV/30MonoF4.wav,1,2,2,4,,,,,1,7,23,3,0,0,0,7,,,3,2.7392915959935635,1,1.9191075019771233,2,1.635423717991216,2,2.457157291006297,035,001,2019_May_16_0914,MusicAffectPsychophysiology2019,3.0.5,59.820619854882196,
To what extent did the music make you feel ,ACTIVE,30MonoWAV/30MonoF4.wav,1,2,2,4,,,,,1,7,23,3,0,1,1,9,,,,,,,,,3,1.1363498480059206,035,001,2019_May_16_0914,MusicAffectPsychophysiology2019,3.0.5,59.820619854882196,
To what extent did the music make you feel ,ASHAMED,30MonoWAV/30MonoF4.wav,1,2,2,4,,,,,1,7,23,3,0,2,2,4,,,,,,,,,1,1.2029382990149315,035,001,2019_May_16_0914,MusicAffectPsychophysiology2019,3.0.5,59.820619854882196,
To what extent did the music make you feel ,SAD,30MonoWAV/30MonoF4.wav,1,2,2,4,,,,,1,7,23,3,0,3,3,0,,,,,,,,,1,1.4870338389882818,035,001,2019_May_16_0914,MusicAffectPsychophysiology2019,3.0.5,59.820619854882196,
To what extent did the music make you feel ,ANGRY,30MonoWAV/30MonoF4.wav,1,2,2,4,,,,,1,7,23,3,0,4,4,2,,,,,,,,,1,1.2535402869980317,035,001,2019_May_16_0914,MusicAffectPsychophysiology2019,3.0.5,59.820619854882196,
To what extent did the music make you feel ,SCARED,30MonoWAV/30MonoF4.wav,1,2,2,4,,,,,1,7,23,3,0,5,5,11,,,,,,,,,3,1.37267608998809,035,001,2019_May_16_0914,MusicAffectPsychophysiology2019,3.0.5,59.820619854882196,
To what extent did the music make you feel ,ALERT,30MonoWAV/30MonoF4.wav,1,2,2,4,,,,,1,7,23,3,0,6,6,8,,,,,,,,,3,1.5507766060181893,035,001,2019_May_16_0914,MusicAffectPsychophysiology2019,3.0.5,59.820619854882196,
To what extent did the music make you feel ,TENDER,30MonoWAV/30MonoF4.wav,1,2,2,4,,,,,1,7,23,3,0,7,7,10,,,,,,,,,1,1.1861741500033531,035,001,2019_May_16_0914,MusicAffectPsychophysiology2019,3.0.5,59.820619854882196,
To what extent did the music make you feel ,ANXIOUS ,30MonoWAV/30MonoF4.wav,1,2,2,4,,,,,1,7,23,3,0,8,8,1,,,,,,,,,2,1.9856840829888824,035,001,2019_May_16_0914,MusicAffectPsychophysiology2019,3.0.5,59.820619854882196,
To what extent did the music make you feel ,GUILTY,30MonoWAV/30MonoF4.wav,1,2,2,4,,,,,1,7,23,3,0,9,9,5,,,,,,,,,1,0.9683634789835196,035,001,2019_May_16_0914,MusicAffectPsychophysiology2019,3.0.5,59.820619854882196,
To what extent did the music make you feel ,HAPPY,30MonoWAV/30MonoF4.wav,1,2,2,4,,,,,1,7,23,3,0,10,10,6,,,,,,,,,1,1.2338751810020767,035,001,2019_May_16_0914,MusicAffectPsychophysiology2019,3.0.5,59.820619854882196,
To what extent did the music make you feel ,FRUSTRATED,30MonoWAV/30MonoF4.wav,1,2,2,4,,,,,1,7,23,3,0,11,11,3,,,,,,,,,1,1.635612552985549,035,001,2019_May_16_0914,MusicAffectPsychophysiology2019,3.0.5,59.820619854882196,
,,30MonoWAV/30MonoF4.wav,1,2,2,4,,,,,1,7,23,3,,,,,,,,,,,,,,,035,001,2019_May_16_0914,MusicAffectPsychophysiology2019,3.0.5,59.820619854882196,
To what extent did the music make you feel ,TENDER,30MonoWAV/30MonoF3.wav,1,2,2,3,,,,,1,8,24,2,0,0,0,10,,,3,3.422782798006665,1,1.8690142529958393,2,0.9025228590180632,1,1.3015924950013869,035,001,2019_May_16_0914,MusicAffectPsychophysiology2019,3.0.5,59.820619854882196,
To what extent did the music make you feel ,ANGRY,30MonoWAV/30MonoF3.wav,1,2,2,3,,,,,1,8,24,2,0,1,1,2,,,,,,,,,2,1.3022783320047893,035,001,2019_May_16_0914,MusicAffectPsychophysiology2019,3.0.5,59.820619854882196,
To what extent did the music make you feel ,ASHAMED,30MonoWAV/30MonoF3.wav,1,2,2,3,,,,,1,8,24,2,0,2,2,4,,,,,,,,,2,1.5514476299867965,035,001,2019_May_16_0914,MusicAffectPsychophysiology2019,3.0.5,59.820619854882196,
To what extent did the music make you feel ,ALERT,30MonoWAV/30MonoF3.wav,1,2,2,3,,,,,1,8,24,2,0,3,3,8,,,,,,,,,3,1.268610263010487,035,001,2019_May_16_0914,MusicAffectPsychophysiology2019,3.0.5,59.820619854882196,
To what extent did the music make you feel ,EXCITED,30MonoWAV/30MonoF3.wav,1,2,2,3,,,,,1,8,24,2,0,4,4,7,,,,,,,,,1,1.2013876239943784,035,001,2019_May_16_0914,MusicAffectPsychophysiology2019,3.0.5,59.820619854882196,
To what extent did the music make you feel ,FRUSTRATED,30MonoWAV/30MonoF3.wav,1,2,2,3,,,,,1,8,24,2,0,5,5,3,,,,,,,,,2,1.217693585989764,035,001,2019_May_16_0914,MusicAffectPsychophysiology2019,3.0.5,59.820619854882196,
To what extent did the music make you feel ,ACTIVE,30MonoWAV/30MonoF3.wav,1,2,2,3,,,,,1,8,24,2,0,6,6,9,,,,,,,,,3,2.450803857995197,035,001,2019_May_16_0914,MusicAffectPsychophysiology2019,3.0.5,59.820619854882196,
To what extent did the music make you feel ,SAD,30MonoWAV/30MonoF3.wav,1,2,2,3,,,,,1,8,24,2,0,7,7,0,,,,,,,,,2,1.4854336340213194,035,001,2019_May_16_0914,MusicAffectPsychophysiology2019,3.0.5,59.820619854882196,
To what extent did the music make you feel ,SCARED,30MonoWAV/30MonoF3.wav,1,2,2,3,,,,,1,8,24,2,0,8,8,11,,,,,,,,,3,1.1681427150033414,035,001,2019_May_16_0914,MusicAffectPsychophysiology2019,3.0.5,59.820619854882196,
To what extent did the music make you feel ,HAPPY,30MonoWAV/30MonoF3.wav,1,2,2,3,,,,,1,8,24,2,0,9,9,6,,,,,,,,,1,1.3677177389909048,035,001,2019_May_16_0914,MusicAffectPsychophysiology2019,3.0.5,59.820619854882196,
To what extent did the music make you feel ,ANXIOUS ,30MonoWAV/30MonoF3.wav,1,2,2,3,,,,,1,8,24,2,0,10,10,1,,,,,,,,,3,1.6015122749959119,035,001,2019_May_16_0914,MusicAffectPsychophysiology2019,3.0.5,59.820619854882196,
To what extent did the music make you feel ,GUILTY,30MonoWAV/30MonoF3.wav,1,2,2,3,,,,,1,8,24,2,0,11,11,5,,,,,,,,,2,1.218290329008596,035,001,2019_May_16_0914,MusicAffectPsychophysiology2019,3.0.5,59.820619854882196,
,,30MonoWAV/30MonoF3.wav,1,2,2,3,,,,,1,8,24,2,,,,,,,,,,,,,,,035,001,2019_May_16_0914,MusicAffectPsychophysiology2019,3.0.5,59.820619854882196,
To what extent did the music make you feel ,SCARED,30MonoWAV/30MonoF2.wav,1,2,2,2,,,,,1,9,25,1,0,0,0,11,,,3,3.718411131994799,1,0.5516502849932294,2,0.501538573007565,3,1.5859027639962733,035,001,2019_May_16_0914,MusicAffectPsychophysiology2019,3.0.5,59.820619854882196,
To what extent did the music make you feel ,SAD,30MonoWAV/30MonoF2.wav,1,2,2,2,,,,,1,9,25,1,0,1,1,0,,,,,,,,,2,1.7568112520093564,035,001,2019_May_16_0914,MusicAffectPsychophysiology2019,3.0.5,59.820619854882196,
To what extent did the music make you feel ,ACTIVE,30MonoWAV/30MonoF2.wav,1,2,2,2,,,,,1,9,25,1,0,2,2,9,,,,,,,,,3,1.1193279400176834,035,001,2019_May_16_0914,MusicAffectPsychophysiology2019,3.0.5,59.820619854882196,
To what extent did the music make you feel ,ALERT,30MonoWAV/30MonoF2.wav,1,2,2,2,,,,,1,9,25,1,0,3,3,8,,,,,,,,,3,1.1194095569953788,035,001,2019_May_16_0914,MusicAffectPsychophysiology2019,3.0.5,59.820619854882196,
To what extent did the music make you feel ,ASHAMED,30MonoWAV/30MonoF2.wav,1,2,2,2,,,,,1,9,25,1,0,4,4,4,,,,,,,,,1,2.1720821789931506,035,001,2019_May_16_0914,MusicAffectPsychophysiology2019,3.0.5,59.820619854882196,
To what extent did the music make you feel ,FRUSTRATED,30MonoWAV/30MonoF2.wav,1,2,2,2,,,,,1,9,25,1,0,5,5,3,,,,,,,,,1,0.9911943979968783,035,001,2019_May_16_0914,MusicAffectPsychophysiology2019,3.0.5,59.820619854882196,
To what extent did the music make you feel ,HAPPY,30MonoWAV/30MonoF2.wav,1,2,2,2,,,,,1,9,25,1,0,6,6,6,,,,,,,,,1,0.6514067010139115,035,001,2019_May_16_0914,MusicAffectPsychophysiology2019,3.0.5,59.820619854882196,
To what extent did the music make you feel ,EXCITED,30MonoWAV/30MonoF2.wav,1,2,2,2,,,,,1,9,25,1,0,7,7,7,,,,,,,,,1,1.0017026040004566,035,001,2019_May_16_0914,MusicAffectPsychophysiology2019,3.0.5,59.820619854882196,
To what extent did the music make you feel ,TENDER,30MonoWAV/30MonoF2.wav,1,2,2,2,,,,,1,9,25,1,0,8,8,10,,,,,,,,,1,1.149470067000948,035,001,2019_May_16_0914,MusicAffectPsychophysiology2019,3.0.5,59.820619854882196,
To what extent did the music make you feel ,ANGRY,30MonoWAV/30MonoF2.wav,1,2,2,2,,,,,1,9,25,1,0,9,9,2,,,,,,,,,2,1.251935506996233,035,001,2019_May_16_0914,MusicAffectPsychophysiology2019,3.0.5,59.820619854882196,
To what extent did the music make you feel ,GUILTY,30MonoWAV/30MonoF2.wav,1,2,2,2,,,,,1,9,25,1,0,10,10,5,,,,,,,,,1,0.9188410209899303,035,001,2019_May_16_0914,MusicAffectPsychophysiology2019,3.0.5,59.820619854882196,
To what extent did the music make you feel ,ANXIOUS ,30MonoWAV/30MonoF2.wav,1,2,2,2,,,,,1,9,25,1,0,11,11,1,,,,,,,,,4,1.3670475969847757,035,001,2019_May_16_0914,MusicAffectPsychophysiology2019,3.0.5,59.820619854882196,
,,30MonoWAV/30MonoF2.wav,1,2,2,2,,,,,1,9,25,1,,,,,,,,,,,,,,,035,001,2019_May_16_0914,MusicAffectPsychophysiology2019,3.0.5,59.820619854882196,
To what extent did the music make you feel ,ACTIVE,30MonoWAV/30MonoH1.wav,2,2,1,5,,,,,1,10,26,4,0,0,0,9,,,2,3.8852730139915366,3,0.30185605501173995,1,0.9850531490228605,3,3.333281736995559,035,001,2019_May_16_0914,MusicAffectPsychophysiology2019,3.0.5,59.820619854882196,
To what extent did the music make you feel ,SCARED,30MonoWAV/30MonoH1.wav,2,2,1,5,,,,,1,10,26,4,0,1,1,11,,,,,,,,,1,2.9179903080221266,035,001,2019_May_16_0914,MusicAffectPsychophysiology2019,3.0.5,59.820619854882196,
To what extent did the music make you feel ,FRUSTRATED,30MonoWAV/30MonoH1.wav,2,2,1,5,,,,,1,10,26,4,0,2,2,3,,,,,,,,,1,0.9354492499842308,035,001,2019_May_16_0914,MusicAffectPsychophysiology2019,3.0.5,59.820619854882196,
To what extent did the music make you feel ,ALERT,30MonoWAV/30MonoH1.wav,2,2,1,5,,,,,1,10,26,4,0,3,3,8,,,,,,,,,2,1.5007060670177452,035,001,2019_May_16_0914,MusicAffectPsychophysiology2019,3.0.5,59.820619854882196,
To what extent did the music make you feel ,HAPPY,30MonoWAV/30MonoH1.wav,2,2,1,5,,,,,1,10,26,4,0,4,4,6,,,,,,,,,3,1.2687915260030422,035,001,2019_May_16_0914,MusicAffectPsychophysiology2019,3.0.5,59.820619854882196,
To what extent did the music make you feel ,TENDER,30MonoWAV/30MonoH1.wav,2,2,1,5,,,,,1,10,26,4,0,5,5,10,,,,,,,,,1,3.2346746519906446,035,001,2019_May_16_0914,MusicAffectPsychophysiology2019,3.0.5,59.820619854882196,
To what extent did the music make you feel ,ASHAMED,30MonoWAV/30MonoH1.wav,2,2,1,5,,,,,1,10,26,4,0,6,6,4,,,,,,,,,1,0.6842478050093632,035,001,2019_May_16_0914,MusicAffectPsychophysiology2019,3.0.5,59.820619854882196,
To what extent did the music make you feel ,ANGRY,30MonoWAV/30MonoH1.wav,2,2,1,5,,,,,1,10,26,4,0,7,7,2,,,,,,,,,1,0.6361583519901615,035,001,2019_May_16_0914,MusicAffectPsychophysiology2019,3.0.5,59.820619854882196,
To what extent did the music make you feel ,SAD,30MonoWAV/30MonoH1.wav,2,2,1,5,,,,,1,10,26,4,0,8,8,0,,,,,,,,,1,1.051408296014415,035,001,2019_May_16_0914,MusicAffectPsychophysiology2019,3.0.5,59.820619854882196,
To what extent did the music make you feel ,GUILTY,30MonoWAV/30MonoH1.wav,2,2,1,5,,,,,1,10,26,4,0,9,9,5,,,,,,,,,1,0.6858293029945344,035,001,2019_May_16_0914,MusicAffectPsychophysiology2019,3.0.5,59.820619854882196,
To what extent did the music make you feel ,EXCITED,30MonoWAV/30MonoH1.wav,2,2,1,5,,,,,1,10,26,4,0,10,10,7,,,,,,,,,3,1.1518736319849268,035,001,2019_May_16_0914,MusicAffectPsychophysiology2019,3.0.5,59.820619854882196,
To what extent did the music make you feel ,ANXIOUS ,30MonoWAV/30MonoH1.wav,2,2,1,5,,,,,1,10,26,4,0,11,11,1,,,,,,,,,2,1.4508300650049932,035,001,2019_May_16_0914,MusicAffectPsychophysiology2019,3.0.5,59.820619854882196,
,,30MonoWAV/30MonoH1.wav,2,2,1,5,,,,,1,10,26,4,,,,,,,,,,,,,,,035,001,2019_May_16_0914,MusicAffectPsychophysiology2019,3.0.5,59.820619854882196,
To what extent did the music make you feel ,TENDER,30MonoWAV/30MonoT3.wav,2,1,4,15,,,,,1,11,27,14,0,0,0,10,,,1,5.124387129995739,3,0.6518989549949765,2,0.617936651018681,2,1.8190738700213842,035,001,2019_May_16_0914,MusicAffectPsychophysiology2019,3.0.5,59.820619854882196,
To what extent did the music make you feel ,ACTIVE,30MonoWAV/30MonoT3.wav,2,1,4,15,,,,,1,11,27,14,0,1,1,9,,,,,,,,,1,2.467591769993305,035,001,2019_May_16_0914,MusicAffectPsychophysiology2019,3.0.5,59.820619854882196,
To what extent did the music make you feel ,HAPPY,30MonoWAV/30MonoT3.wav,2,1,4,15,,,,,1,11,27,14,0,2,2,6,,,,,,,,,3,1.5182278630090877,035,001,2019_May_16_0914,MusicAffectPsychophysiology2019,3.0.5,59.820619854882196,
To what extent did the music make you feel ,ANXIOUS ,30MonoWAV/30MonoT3.wav,2,1,4,15,,,,,1,11,27,14,0,3,3,1,,,,,,,,,1,1.319113694014959,035,001,2019_May_16_0914,MusicAffectPsychophysiology2019,3.0.5,59.820619854882196,
To what extent did the music make you feel ,SAD,30MonoWAV/30MonoT3.wav,2,1,4,15,,,,,1,11,27,14,0,4,4,0,,,,,,,,,1,1.1671756709984038,035,001,2019_May_16_0914,MusicAffectPsychophysiology2019,3.0.5,59.820619854882196,
To what extent did the music make you feel ,ALERT,30MonoWAV/30MonoT3.wav,2,1,4,15,,,,,1,11,27,14,0,5,5,8,,,,,,,,,2,1.4348866750078741,035,001,2019_May_16_0914,MusicAffectPsychophysiology2019,3.0.5,59.820619854882196,
To what extent did the music make you feel ,ANGRY,30MonoWAV/30MonoT3.wav,2,1,4,15,,,,,1,11,27,14,0,6,6,2,,,,,,,,,1,0.9690061309956945,035,001,2019_May_16_0914,MusicAffectPsychophysiology2019,3.0.5,59.820619854882196,
To what extent did the music make you feel ,ASHAMED,30MonoWAV/30MonoT3.wav,2,1,4,15,,,,,1,11,27,14,0,7,7,4,,,,,,,,,1,0.6517537570034619,035,001,2019_May_16_0914,MusicAffectPsychophysiology2019,3.0.5,59.820619854882196,
To what extent did the music make you feel ,EXCITED,30MonoWAV/30MonoT3.wav,2,1,4,15,,,,,1,11,27,14,0,8,8,7,,,,,,,,,2,1.4354651480098255,035,001,2019_May_16_0914,MusicAffectPsychophysiology2019,3.0.5,59.820619854882196,
To what extent did the music make you feel ,SCARED,30MonoWAV/30MonoT3.wav,2,1,4,15,,,,,1,11,27,14,0,9,9,11,,,,,,,,,1,0.6680869270057883,035,001,2019_May_16_0914,MusicAffectPsychophysiology2019,3.0.5,59.820619854882196,
To what extent did the music make you feel ,GUILTY,30MonoWAV/30MonoT3.wav,2,1,4,15,,,,,1,11,27,14,0,10,10,5,,,,,,,,,1,0.6020677849883214,035,001,2019_May_16_0914,MusicAffectPsychophysiology2019,3.0.5,59.820619854882196,
To what extent did the music make you feel ,FRUSTRATED,30MonoWAV/30MonoT3.wav,2,1,4,15,,,,,1,11,27,14,0,11,11,3,,,,,,,,,1,0.6017140180047136,035,001,2019_May_16_0914,MusicAffectPsychophysiology2019,3.0.5,59.820619854882196,
,,30MonoWAV/30MonoT3.wav,2,1,4,15,,,,,1,11,27,14,,,,,,,,,,,,,,,035,001,2019_May_16_0914,MusicAffectPsychophysiology2019,3.0.5,59.820619854882196,
To what extent did the music make you feel ,HAPPY,30MonoWAV/30MonoS2.wav,1,1,3,10,,,,,1,12,28,9,0,0,0,6,,,1,5.028285328997299,1,0.3863328500010539,1,1.085679732990684,1,1.2176623709965497,035,001,2019_May_16_0914,MusicAffectPsychophysiology2019,3.0.5,59.820619854882196,
To what extent did the music make you feel ,ANGRY,30MonoWAV/30MonoS2.wav,1,1,3,10,,,,,1,12,28,9,0,1,1,2,,,,,,,,,2,1.8680717459938023,035,001,2019_May_16_0914,MusicAffectPsychophysiology2019,3.0.5,59.820619854882196,
To what extent did the music make you feel ,FRUSTRATED,30MonoWAV/30MonoS2.wav,1,1,3,10,,,,,1,12,28,9,0,2,2,3,,,,,,,,,2,1.0383961189945694,035,001,2019_May_16_0914,MusicAffectPsychophysiology2019,3.0.5,59.820619854882196,
To what extent did the music make you feel ,ANXIOUS ,30MonoWAV/30MonoS2.wav,1,1,3,10,,,,,1,12,28,9,0,3,3,1,,,,,,,,,3,1.7036117730021942,035,001,2019_May_16_0914,MusicAffectPsychophysiology2019,3.0.5,59.820619854882196,
To what extent did the music make you feel ,ASHAMED,30MonoWAV/30MonoS2.wav,1,1,3,10,,,,,1,12,28,9,0,4,4,4,,,,,,,,,3,2.5215217089862563,035,001,2019_May_16_0914,MusicAffectPsychophysiology2019,3.0.5,59.820619854882196,
To what extent did the music make you feel ,SAD,30MonoWAV/30MonoS2.wav,1,1,3,10,,,,,1,12,28,9,0,5,5,0,,,,,,,,,4,1.28644223997253,035,001,2019_May_16_0914,MusicAffectPsychophysiology2019,3.0.5,59.820619854882196,
To what extent did the music make you feel ,EXCITED,30MonoWAV/30MonoS2.wav,1,1,3,10,,,,,1,12,28,9,0,6,6,7,,,,,,,,,1,1.1034298449812923,035,001,2019_May_16_0914,MusicAffectPsychophysiology2019,3.0.5,59.820619854882196,
To what extent did the music make you feel ,ACTIVE,30MonoWAV/30MonoS2.wav,1,1,3,10,,,,,1,12,28,9,0,7,7,9,,,,,,,,,1,1.089715342008276,035,001,2019_May_16_0914,MusicAffectPsychophysiology2019,3.0.5,59.820619854882196,
To what extent did the music make you feel ,SCARED,30MonoWAV/30MonoS2.wav,1,1,3,10,,,,,1,12,28,9,0,8,8,11,,,,,,,,,2,1.168259161990136,035,001,2019_May_16_0914,MusicAffectPsychophysiology2019,3.0.5,59.820619854882196,
To what extent did the music make you feel ,GUILTY,30MonoWAV/30MonoS2.wav,1,1,3,10,,,,,1,12,28,9,0,9,9,5,,,,,,,,,1,0.5853696440171916,035,001,2019_May_16_0914,MusicAffectPsychophysiology2019,3.0.5,59.820619854882196,
To what extent did the music make you feel ,ALERT,30MonoWAV/30MonoS2.wav,1,1,3,10,,,,,1,12,28,9,0,10,10,8,,,,,,,,,1,1.1197261689812876,035,001,2019_May_16_0914,MusicAffectPsychophysiology2019,3.0.5,59.820619854882196,
To what extent did the music make you feel ,TENDER,30MonoWAV/30MonoS2.wav,1,1,3,10,,,,,1,12,28,9,0,11,11,10,,,,,,,,,2,1.8028211649798322,035,001,2019_May_16_0914,MusicAffectPsychophysiology2019,3.0.5,59.820619854882196,
,,30MonoWAV/30MonoS2.wav,1,1,3,10,,,,,1,12,28,9,,,,,,,,,,,,,,,035,001,2019_May_16_0914,MusicAffectPsychophysiology2019,3.0.5,59.820619854882196,
To what extent did the music make you feel ,SAD,30MonoWAV/30MonoF1.wav,1,2,2,1,,,,,1,13,29,0,0,0,0,0,,,3,2.519459953997284,1,1.4020555409952067,2,0.41925216000527143,1,1.5185118329827674,035,001,2019_May_16_0914,MusicAffectPsychophysiology2019,3.0.5,59.820619854882196,
To what extent did the music make you feel ,ASHAMED,30MonoWAV/30MonoF1.wav,1,2,2,1,,,,,1,13,29,0,0,1,1,4,,,,,,,,,1,0.8160087380092591,035,001,2019_May_16_0914,MusicAffectPsychophysiology2019,3.0.5,59.820619854882196,
To what extent did the music make you feel ,ALERT,30MonoWAV/30MonoF1.wav,1,2,2,1,,,,,1,13,29,0,0,2,2,8,,,,,,,,,3,1.2537707640149165,035,001,2019_May_16_0914,MusicAffectPsychophysiology2019,3.0.5,59.820619854882196,
To what extent did the music make you feel ,SCARED,30MonoWAV/30MonoF1.wav,1,2,2,1,,,,,1,13,29,0,0,3,3,11,,,,,,,,,2,1.1846997539978474,035,001,2019_May_16_0914,MusicAffectPsychophysiology2019,3.0.5,59.820619854882196,
To what extent did the music make you feel ,EXCITED,30MonoWAV/30MonoF1.wav,1,2,2,1,,,,,1,13,29,0,0,4,4,7,,,,,,,,,1,1.1182422129786573,035,001,2019_May_16_0914,MusicAffectPsychophysiology2019,3.0.5,59.820619854882196,
To what extent did the music make you feel ,ANXIOUS ,30MonoWAV/30MonoF1.wav,1,2,2,1,,,,,1,13,29,0,0,5,5,1,,,,,,,,,2,1.1522831250040326,035,001,2019_May_16_0914,MusicAffectPsychophysiology2019,3.0.5,59.820619854882196,
To what extent did the music make you feel ,GUILTY,30MonoWAV/30MonoF1.wav,1,2,2,1,,,,,1,13,29,0,0,6,6,5,,,,,,,,,1,1.3682315160112921,035,001,2019_May_16_0914,MusicAffectPsychophysiology2019,3.0.5,59.820619854882196,
To what extent did the music make you feel ,HAPPY,30MonoWAV/30MonoF1.wav,1,2,2,1,,,,,1,13,29,0,0,7,7,6,,,,,,,,,1,1.368597740016412,035,001,2019_May_16_0914,MusicAffectPsychophysiology2019,3.0.5,59.820619854882196,
To what extent did the music make you feel ,ACTIVE,30MonoWAV/30MonoF1.wav,1,2,2,1,,,,,1,13,29,0,0,8,8,9,,,,,,,,,3,1.2836184339830652,035,001,2019_May_16_0914,MusicAffectPsychophysiology2019,3.0.5,59.820619854882196,
To what extent did the music make you feel ,ANGRY,30MonoWAV/30MonoF1.wav,1,2,2,1,,,,,1,13,29,0,0,9,9,2,,,,,,,,,2,1.5014900300011504,035,001,2019_May_16_0914,MusicAffectPsychophysiology2019,3.0.5,59.820619854882196,
To what extent did the music make you feel ,TENDER,30MonoWAV/30MonoF1.wav,1,2,2,1,,,,,1,13,29,0,0,10,10,10,,,,,,,,,1,1.2849132929986808,035,001,2019_May_16_0914,MusicAffectPsychophysiology2019,3.0.5,59.820619854882196,
To what extent did the music make you feel ,FRUSTRATED,30MonoWAV/30MonoF1.wav,1,2,2,1,,,,,1,13,29,0,0,11,11,3,,,,,,,,,1,0.634281058999477,035,001,2019_May_16_0914,MusicAffectPsychophysiology2019,3.0.5,59.820619854882196,
,,30MonoWAV/30MonoF1.wav,1,2,2,1,,,,,1,13,29,0,,,,,,,,,,,,,,,035,001,2019_May_16_0914,MusicAffectPsychophysiology2019,3.0.5,59.820619854882196,
To what extent did the music make you feel ,ANXIOUS ,30MonoWAV/30MonoT2.wav,2,1,4,14,,,,,1,14,30,13,0,0,0,1,,,1,2.7183847639826126,3,1.3522625589976087,2,0.834749807982007,1,0.9692135540244635,035,001,2019_May_16_0914,MusicAffectPsychophysiology2019,3.0.5,59.820619854882196,
To what extent did the music make you feel ,ALERT,30MonoWAV/30MonoT2.wav,2,1,4,14,,,,,1,14,30,13,0,1,1,8,,,,,,,,,1,1.418786998023279,035,001,2019_May_16_0914,MusicAffectPsychophysiology2019,3.0.5,59.820619854882196,
To what extent did the music make you feel ,SCARED,30MonoWAV/30MonoT2.wav,2,1,4,14,,,,,1,14,30,13,0,2,2,11,,,,,,,,,1,0.8519346929970197,035,001,2019_May_16_0914,MusicAffectPsychophysiology2019,3.0.5,59.820619854882196,
To what extent did the music make you feel ,HAPPY,30MonoWAV/30MonoT2.wav,2,1,4,14,,,,,1,14,30,13,0,3,3,6,,,,,,,,,3,2.952110239013564,035,001,2019_May_16_0914,MusicAffectPsychophysiology2019,3.0.5,59.820619854882196,
To what extent did the music make you feel ,FRUSTRATED,30MonoWAV/30MonoT2.wav,2,1,4,14,,,,,1,14,30,13,0,4,4,3,,,,,,,,,1,0.6016053379862569,035,001,2019_May_16_0914,MusicAffectPsychophysiology2019,3.0.5,59.820619854882196,
To what extent did the music make you feel ,SAD,30MonoWAV/30MonoT2.wav,2,1,4,14,,,,,1,14,30,13,0,5,5,0,,,,,,,,,1,0.7350874860130716,035,001,2019_May_16_0914,MusicAffectPsychophysiology2019,3.0.5,59.820619854882196,
To what extent did the music make you feel ,EXCITED,30MonoWAV/30MonoT2.wav,2,1,4,14,,,,,1,14,30,13,0,6,6,7,,,,,,,,,1,0.8684241989976726,035,001,2019_May_16_0914,MusicAffectPsychophysiology2019,3.0.5,59.820619854882196,
To what extent did the music make you feel ,ASHAMED,30MonoWAV/30MonoT2.wav,2,1,4,14,,,,,1,14,30,13,0,7,7,4,,,,,,,,,1,1.0529748539847787,035,001,2019_May_16_0914,MusicAffectPsychophysiology2019,3.0.5,59.820619854882196,
To what extent did the music make you feel ,ANGRY,30MonoWAV/30MonoT2.wav,2,1,4,14,,,,,1,14,30,13,0,8,8,2,,,,,,,,,1,0.5353234680078458,035,001,2019_May_16_0914,MusicAffectPsychophysiology2019,3.0.5,59.820619854882196,
To what extent did the music make you feel ,GUILTY,30MonoWAV/30MonoT2.wav,2,1,4,14,,,,,1,14,30,13,0,9,9,5,,,,,,,,,1,0.6061027750256471,035,001,2019_May_16_0914,MusicAffectPsychophysiology2019,3.0.5,59.820619854882196,
To what extent did the music make you feel ,TENDER,30MonoWAV/30MonoT2.wav,2,1,4,14,,,,,1,14,30,13,0,10,10,10,,,,,,,,,2,1.18650216399692,035,001,2019_May_16_0914,MusicAffectPsychophysiology2019,3.0.5,59.820619854882196,
To what extent did the music make you feel ,ACTIVE,30MonoWAV/30MonoT2.wav,2,1,4,14,,,,,1,14,30,13,0,11,11,9,,,,,,,,,1,0.7695322239887901,035,001,2019_May_16_0914,MusicAffectPsychophysiology2019,3.0.5,59.820619854882196,
,,30MonoWAV/30MonoT2.wav,2,1,4,14,,,,,1,14,30,13,,,,,,,,,,,,,,,035,001,2019_May_16_0914,MusicAffectPsychophysiology2019,3.0.5,59.820619854882196,
To what extent did the music make you feel ,ALERT,30MonoWAV/30MonoH3.wav,2,2,1,7,,,,,1,15,31,6,0,0,0,8,,,2,4.590084981988184,3,0.38373155798763037,2,1.118706460983958,2,2.6336890509992372,035,001,2019_May_16_0914,MusicAffectPsychophysiology2019,3.0.5,59.820619854882196,
To what extent did the music make you feel ,TENDER,30MonoWAV/30MonoH3.wav,2,2,1,7,,,,,1,15,31,6,0,1,1,10,,,,,,,,,1,1.234617428999627,035,001,2019_May_16_0914,MusicAffectPsychophysiology2019,3.0.5,59.820619854882196,
To what extent did the music make you feel ,FRUSTRATED,30MonoWAV/30MonoH3.wav,2,2,1,7,,,,,1,15,31,6,0,2,2,3,,,,,,,,,1,0.7502193720138166,035,001,2019_May_16_0914,MusicAffectPsychophysiology2019,3.0.5,59.820619854882196,
To what extent did the music make you feel ,ANXIOUS ,30MonoWAV/30MonoH3.wav,2,2,1,7,,,,,1,15,31,6,0,3,3,1,,,,,,,,,1,1.368885179021163,035,001,2019_May_16_0914,MusicAffectPsychophysiology2019,3.0.5,59.820619854882196,
To what extent did the music make you feel ,SCARED,30MonoWAV/30MonoH3.wav,2,2,1,7,,,,,1,15,31,6,0,4,4,11,,,,,,,,,1,0.7193711890140548,035,001,2019_May_16_0914,MusicAffectPsychophysiology2019,3.0.5,59.820619854882196,
To what extent did the music make you feel ,SAD,30MonoWAV/30MonoH3.wav,2,2,1,7,,,,,1,15,31,6,0,5,5,0,,,,,,,,,1,0.6192332019854803,035,001,2019_May_16_0914,MusicAffectPsychophysiology2019,3.0.5,59.820619854882196,
To what extent did the music make you feel ,HAPPY,30MonoWAV/30MonoH3.wav,2,2,1,7,,,,,1,15,31,6,0,6,6,6,,,,,,,,,3,2.1007907550083473,035,001,2019_May_16_0914,MusicAffectPsychophysiology2019,3.0.5,59.820619854882196,
To what extent did the music make you feel ,GUILTY,30MonoWAV/30MonoH3.wav,2,2,1,7,,,,,1,15,31,6,0,7,7,5,,,,,,,,,1,0.8187149419973139,035,001,2019_May_16_0914,MusicAffectPsychophysiology2019,3.0.5,59.820619854882196,
To what extent did the music make you feel ,ANGRY,30MonoWAV/30MonoH3.wav,2,2,1,7,,,,,1,15,31,6,0,8,8,2,,,,,,,,,1,0.06801019699196331,035,001,2019_May_16_0914,MusicAffectPsychophysiology2019,3.0.5,59.820619854882196,
To what extent did the music make you feel ,EXCITED,30MonoWAV/30MonoH3.wav,2,2,1,7,,,,,1,15,31,6,0,9,9,7,,,,,,,,,3,3.18529320001835,035,001,2019_May_16_0914,MusicAffectPsychophysiology2019,3.0.5,59.820619854882196,
To what extent did the music make you feel ,ACTIVE,30MonoWAV/30MonoH3.wav,2,2,1,7,,,,,1,15,31,6,0,10,10,9,,,,,,,,,2,2.5900259769987315,035,001,2019_May_16_0914,MusicAffectPsychophysiology2019,3.0.5,59.820619854882196,
To what extent did the music make you feel ,ASHAMED,30MonoWAV/30MonoH3.wav,2,2,1,7,,,,,1,15,31,6,0,11,11,4,,,,,,,,,1,0.9193518869869877,035,001,2019_May_16_0914,MusicAffectPsychophysiology2019,3.0.5,59.820619854882196,
,,30MonoWAV/30MonoH3.wav,2,2,1,7,,,,,1,15,31,6,,,,,,,,,,,,,,,035,001,2019_May_16_0914,MusicAffectPsychophysiology2019,3.0.5,59.820619854882196,
