Instruction,Word,song,valence,arousal,affectcat,songmark,pracwords.thisRepN,pracwords.thisTrialN,pracwords.thisN,pracwords.thisIndex,songtrials.thisRepN,songtrials.thisTrialN,songtrials.thisN,songtrials.thisIndex,words.thisRepN,words.thisTrialN,words.thisN,words.thisIndex,begin.keys,begin.rt,arousalkey.keys,arousalkey.rt,valencekey.keys,valencekey.rt,likekey.keys,likekey.rt,WordResponse.keys,WordResponse.rt,key_resp_2.keys,key_resp_2.rt,participant,session,date,expName,psychopyVersion,frameRate,
,,,,,,,,,,,,,,,,,,,space,11.35368741399725,,,,,,,,,,,036,001,2019_May_16_1110,MusicAffectPsychophysiology2019,3.0.5,60.06314834732476,
,,,,,,,,,,,,,,,,,,,,,4,6.125097665004432,,,,,,,,,036,001,2019_May_16_1110,MusicAffectPsychophysiology2019,3.0.5,60.06314834732476,
,,,,,,,,,,,,,,,,,,,,,,,4,3.5220879729895387,,,,,,,036,001,2019_May_16_1110,MusicAffectPsychophysiology2019,3.0.5,60.06314834732476,
,,,,,,,,,,,,,,,,,,,,,,,,,4,1.9730007459875196,,,,,036,001,2019_May_16_1110,MusicAffectPsychophysiology2019,3.0.5,60.06314834732476,
To what extent did the music make you feel ,ANGRY,,,,,,0,0,0,2,,,,,,,,,,,,,,,,,1,3.422261680010706,,,036,001,2019_May_16_1110,MusicAffectPsychophysiology2019,3.0.5,60.06314834732476,
To what extent did the music make you feel ,TENDER,,,,,,0,1,1,10,,,,,,,,,,,,,,,,,3,2.9848747620126233,,,036,001,2019_May_16_1110,MusicAffectPsychophysiology2019,3.0.5,60.06314834732476,
To what extent did the music make you feel ,ASHAMED,,,,,,0,2,2,4,,,,,,,,,,,,,,,,,1,2.302185800013831,,,036,001,2019_May_16_1110,MusicAffectPsychophysiology2019,3.0.5,60.06314834732476,
To what extent did the music make you feel ,ALERT,,,,,,0,3,3,8,,,,,,,,,,,,,,,,,2,2.6700317329959944,,,036,001,2019_May_16_1110,MusicAffectPsychophysiology2019,3.0.5,60.06314834732476,
To what extent did the music make you feel ,EXCITED,,,,,,0,4,4,7,,,,,,,,,,,,,,,,,3,2.133887560979929,,,036,001,2019_May_16_1110,MusicAffectPsychophysiology2019,3.0.5,60.06314834732476,
To what extent did the music make you feel ,GUILTY,,,,,,0,5,5,5,,,,,,,,,,,,,,,,,1,1.4668175150000025,,,036,001,2019_May_16_1110,MusicAffectPsychophysiology2019,3.0.5,60.06314834732476,
To what extent did the music make you feel ,SAD,,,,,,0,6,6,0,,,,,,,,,,,,,,,,,2,2.7192066940187942,,,036,001,2019_May_16_1110,MusicAffectPsychophysiology2019,3.0.5,60.06314834732476,
To what extent did the music make you feel ,ACTIVE,,,,,,0,7,7,9,,,,,,,,,,,,,,,,,3,2.701108834997285,,,036,001,2019_May_16_1110,MusicAffectPsychophysiology2019,3.0.5,60.06314834732476,
To what extent did the music make you feel ,HAPPY,,,,,,0,8,8,6,,,,,,,,,,,,,,,,,4,1.268548741005361,,,036,001,2019_May_16_1110,MusicAffectPsychophysiology2019,3.0.5,60.06314834732476,
To what extent did the music make you feel ,ANXIOUS ,,,,,,0,9,9,1,,,,,,,,,,,,,,,,,1,3.718172631022753,,,036,001,2019_May_16_1110,MusicAffectPsychophysiology2019,3.0.5,60.06314834732476,
To what extent did the music make you feel ,FRUSTRATED,,,,,,0,10,10,3,,,,,,,,,,,,,,,,,1,1.1523581670189742,,,036,001,2019_May_16_1110,MusicAffectPsychophysiology2019,3.0.5,60.06314834732476,
To what extent did the music make you feel ,SCARED,,,,,,0,11,11,11,,,,,,,,,,,,,,,,,1,1.117995509004686,,,036,001,2019_May_16_1110,MusicAffectPsychophysiology2019,3.0.5,60.06314834732476,
To what extent did the music make you feel ,FRUSTRATED,30MonoWAV/30MonoS2.wav,1,1,3,10,,,,,0,0,0,9,0,0,0,3,,,1,6.2955335050064605,2,2.9178405219863635,3,2.4361620669951662,2,2.915587847994175,,,036,001,2019_May_16_1110,MusicAffectPsychophysiology2019,3.0.5,60.06314834732476,
To what extent did the music make you feel ,ASHAMED,30MonoWAV/30MonoS2.wav,1,1,3,10,,,,,0,0,0,9,0,1,1,4,,,,,,,,,1,1.7011964299890678,,,036,001,2019_May_16_1110,MusicAffectPsychophysiology2019,3.0.5,60.06314834732476,
To what extent did the music make you feel ,EXCITED,30MonoWAV/30MonoS2.wav,1,1,3,10,,,,,0,0,0,9,0,2,2,7,,,,,,,,,2,3.667275868006982,,,036,001,2019_May_16_1110,MusicAffectPsychophysiology2019,3.0.5,60.06314834732476,
To what extent did the music make you feel ,GUILTY,30MonoWAV/30MonoS2.wav,1,1,3,10,,,,,0,0,0,9,0,3,3,5,,,,,,,,,1,3.869369327003369,,,036,001,2019_May_16_1110,MusicAffectPsychophysiology2019,3.0.5,60.06314834732476,
To what extent did the music make you feel ,SCARED,30MonoWAV/30MonoS2.wav,1,1,3,10,,,,,0,0,0,9,0,4,4,11,,,,,,,,,2,1.670902030018624,,,036,001,2019_May_16_1110,MusicAffectPsychophysiology2019,3.0.5,60.06314834732476,
To what extent did the music make you feel ,ACTIVE,30MonoWAV/30MonoS2.wav,1,1,3,10,,,,,0,0,0,9,0,5,5,9,,,,,,,,,1,1.0860149090003688,,,036,001,2019_May_16_1110,MusicAffectPsychophysiology2019,3.0.5,60.06314834732476,
To what extent did the music make you feel ,ALERT,30MonoWAV/30MonoS2.wav,1,1,3,10,,,,,0,0,0,9,0,6,6,8,,,,,,,,,1,3.7225603370170575,,,036,001,2019_May_16_1110,MusicAffectPsychophysiology2019,3.0.5,60.06314834732476,
To what extent did the music make you feel ,ANXIOUS ,30MonoWAV/30MonoS2.wav,1,1,3,10,,,,,0,0,0,9,0,7,7,1,,,,,,,,,2,1.4197929329820909,,,036,001,2019_May_16_1110,MusicAffectPsychophysiology2019,3.0.5,60.06314834732476,
To what extent did the music make you feel ,ANGRY,30MonoWAV/30MonoS2.wav,1,1,3,10,,,,,0,0,0,9,0,8,8,2,,,,,,,,,1,1.2742352419882081,,,036,001,2019_May_16_1110,MusicAffectPsychophysiology2019,3.0.5,60.06314834732476,
To what extent did the music make you feel ,SAD,30MonoWAV/30MonoS2.wav,1,1,3,10,,,,,0,0,0,9,0,9,9,0,,,,,,,,,3,1.4351562059891876,,,036,001,2019_May_16_1110,MusicAffectPsychophysiology2019,3.0.5,60.06314834732476,
To what extent did the music make you feel ,HAPPY,30MonoWAV/30MonoS2.wav,1,1,3,10,,,,,0,0,0,9,0,10,10,6,,,,,,,,,2,3.335102774988627,,,036,001,2019_May_16_1110,MusicAffectPsychophysiology2019,3.0.5,60.06314834732476,
To what extent did the music make you feel ,TENDER,30MonoWAV/30MonoS2.wav,1,1,3,10,,,,,0,0,0,9,0,11,11,10,,,,,,,,,4,2.652578506997088,,,036,001,2019_May_16_1110,MusicAffectPsychophysiology2019,3.0.5,60.06314834732476,
,,30MonoWAV/30MonoS2.wav,1,1,3,10,,,,,0,0,0,9,,,,,,,,,,,,,,,,,036,001,2019_May_16_1110,MusicAffectPsychophysiology2019,3.0.5,60.06314834732476,
To what extent did the music make you feel ,FRUSTRATED,30MonoWAV/30MonoT3.wav,2,1,4,15,,,,,0,1,1,14,0,0,0,3,,,2,4.950133675010875,2,2.018268077983521,2,1.9852995979890693,2,1.8636604269850068,,,036,001,2019_May_16_1110,MusicAffectPsychophysiology2019,3.0.5,60.06314834732476,
To what extent did the music make you feel ,ACTIVE,30MonoWAV/30MonoT3.wav,2,1,4,15,,,,,0,1,1,14,0,1,1,9,,,,,,,,,1,3.8171643569949083,,,036,001,2019_May_16_1110,MusicAffectPsychophysiology2019,3.0.5,60.06314834732476,
To what extent did the music make you feel ,HAPPY,30MonoWAV/30MonoT3.wav,2,1,4,15,,,,,0,1,1,14,0,2,2,6,,,,,,,,,1,1.401521023013629,,,036,001,2019_May_16_1110,MusicAffectPsychophysiology2019,3.0.5,60.06314834732476,
To what extent did the music make you feel ,TENDER,30MonoWAV/30MonoT3.wav,2,1,4,15,,,,,0,1,1,14,0,3,3,10,,,,,,,,,3,1.3681132289930247,,,036,001,2019_May_16_1110,MusicAffectPsychophysiology2019,3.0.5,60.06314834732476,
To what extent did the music make you feel ,ANXIOUS ,30MonoWAV/30MonoT3.wav,2,1,4,15,,,,,0,1,1,14,0,4,4,1,,,,,,,,,1,2.8862935949873645,,,036,001,2019_May_16_1110,MusicAffectPsychophysiology2019,3.0.5,60.06314834732476,
To what extent did the music make you feel ,ALERT,30MonoWAV/30MonoT3.wav,2,1,4,15,,,,,0,1,1,14,0,5,5,8,,,,,,,,,1,1.4513283130072523,,,036,001,2019_May_16_1110,MusicAffectPsychophysiology2019,3.0.5,60.06314834732476,
To what extent did the music make you feel ,SCARED,30MonoWAV/30MonoT3.wav,2,1,4,15,,,,,0,1,1,14,0,6,6,11,,,,,,,,,1,1.5858905630011577,,,036,001,2019_May_16_1110,MusicAffectPsychophysiology2019,3.0.5,60.06314834732476,
To what extent did the music make you feel ,EXCITED,30MonoWAV/30MonoT3.wav,2,1,4,15,,,,,0,1,1,14,0,7,7,7,,,,,,,,,1,1.2683290549903177,,,036,001,2019_May_16_1110,MusicAffectPsychophysiology2019,3.0.5,60.06314834732476,
To what extent did the music make you feel ,ASHAMED,30MonoWAV/30MonoT3.wav,2,1,4,15,,,,,0,1,1,14,0,8,8,4,,,,,,,,,2,3.368354123987956,,,036,001,2019_May_16_1110,MusicAffectPsychophysiology2019,3.0.5,60.06314834732476,
To what extent did the music make you feel ,GUILTY,30MonoWAV/30MonoT3.wav,2,1,4,15,,,,,0,1,1,14,0,9,9,5,,,,,,,,,2,0.8684369109978434,,,036,001,2019_May_16_1110,MusicAffectPsychophysiology2019,3.0.5,60.06314834732476,
To what extent did the music make you feel ,SAD,30MonoWAV/30MonoT3.wav,2,1,4,15,,,,,0,1,1,14,0,10,10,0,,,,,,,,,2,1.0689514400146436,,,036,001,2019_May_16_1110,MusicAffectPsychophysiology2019,3.0.5,60.06314834732476,
To what extent did the music make you feel ,ANGRY,30MonoWAV/30MonoT3.wav,2,1,4,15,,,,,0,1,1,14,0,11,11,2,,,,,,,,,1,1.283947880991036,,,036,001,2019_May_16_1110,MusicAffectPsychophysiology2019,3.0.5,60.06314834732476,
,,30MonoWAV/30MonoT3.wav,2,1,4,15,,,,,0,1,1,14,,,,,,,,,,,,,,,,,036,001,2019_May_16_1110,MusicAffectPsychophysiology2019,3.0.5,60.06314834732476,
To what extent did the music make you feel ,SCARED,30MonoWAV/30MonoF1.wav,1,2,2,1,,,,,0,2,2,0,0,0,0,11,,,5,4.356286077992991,3,3.106020870996872,4,3.338717519014608,4,4.15604336099932,,,036,001,2019_May_16_1110,MusicAffectPsychophysiology2019,3.0.5,60.06314834732476,
To what extent did the music make you feel ,TENDER,30MonoWAV/30MonoF1.wav,1,2,2,1,,,,,0,2,2,0,0,1,1,10,,,,,,,,,2,1.7030879619996995,,,036,001,2019_May_16_1110,MusicAffectPsychophysiology2019,3.0.5,60.06314834732476,
To what extent did the music make you feel ,EXCITED,30MonoWAV/30MonoF1.wav,1,2,2,1,,,,,0,2,2,0,0,2,2,7,,,,,,,,,4,1.8710406190075446,,,036,001,2019_May_16_1110,MusicAffectPsychophysiology2019,3.0.5,60.06314834732476,
To what extent did the music make you feel ,ASHAMED,30MonoWAV/30MonoF1.wav,1,2,2,1,,,,,0,2,2,0,0,3,3,4,,,,,,,,,1,2.104058033990441,,,036,001,2019_May_16_1110,MusicAffectPsychophysiology2019,3.0.5,60.06314834732476,
To what extent did the music make you feel ,SAD,30MonoWAV/30MonoF1.wav,1,2,2,1,,,,,0,2,2,0,0,4,4,0,,,,,,,,,1,1.3056126720039174,,,036,001,2019_May_16_1110,MusicAffectPsychophysiology2019,3.0.5,60.06314834732476,
To what extent did the music make you feel ,ANGRY,30MonoWAV/30MonoF1.wav,1,2,2,1,,,,,0,2,2,0,0,5,5,2,,,,,,,,,3,1.9852625260245986,,,036,001,2019_May_16_1110,MusicAffectPsychophysiology2019,3.0.5,60.06314834732476,
To what extent did the music make you feel ,ALERT,30MonoWAV/30MonoF1.wav,1,2,2,1,,,,,0,2,2,0,0,6,6,8,,,,,,,,,5,2.4521686020016205,,,036,001,2019_May_16_1110,MusicAffectPsychophysiology2019,3.0.5,60.06314834732476,
To what extent did the music make you feel ,GUILTY,30MonoWAV/30MonoF1.wav,1,2,2,1,,,,,0,2,2,0,0,7,7,5,,,,,,,,,2,1.5358949259971268,,,036,001,2019_May_16_1110,MusicAffectPsychophysiology2019,3.0.5,60.06314834732476,
To what extent did the music make you feel ,HAPPY,30MonoWAV/30MonoF1.wav,1,2,2,1,,,,,0,2,2,0,0,8,8,6,,,,,,,,,3,1.817032840976026,,,036,001,2019_May_16_1110,MusicAffectPsychophysiology2019,3.0.5,60.06314834732476,
To what extent did the music make you feel ,ANXIOUS ,30MonoWAV/30MonoF1.wav,1,2,2,1,,,,,0,2,2,0,0,9,9,1,,,,,,,,,1,1.3507761179935187,,,036,001,2019_May_16_1110,MusicAffectPsychophysiology2019,3.0.5,60.06314834732476,
To what extent did the music make you feel ,ACTIVE,30MonoWAV/30MonoF1.wav,1,2,2,1,,,,,0,2,2,0,0,10,10,9,,,,,,,,,4,1.7683838889934123,,,036,001,2019_May_16_1110,MusicAffectPsychophysiology2019,3.0.5,60.06314834732476,
To what extent did the music make you feel ,FRUSTRATED,30MonoWAV/30MonoF1.wav,1,2,2,1,,,,,0,2,2,0,0,11,11,3,,,,,,,,,1,2.3684201260039117,,,036,001,2019_May_16_1110,MusicAffectPsychophysiology2019,3.0.5,60.06314834732476,
,,30MonoWAV/30MonoF1.wav,1,2,2,1,,,,,0,2,2,0,,,,,,,,,,,,,,,,,036,001,2019_May_16_1110,MusicAffectPsychophysiology2019,3.0.5,60.06314834732476,
To what extent did the music make you feel ,HAPPY,30MonoWAV/30MonoF3.wav,1,2,2,3,,,,,0,3,3,2,0,0,0,6,,,3,4.518069215992,1,3.5187270220194478,2,2.7188070970005356,1,2.4520151339820586,,,036,001,2019_May_16_1110,MusicAffectPsychophysiology2019,3.0.5,60.06314834732476,
To what extent did the music make you feel ,ALERT,30MonoWAV/30MonoF3.wav,1,2,2,3,,,,,0,3,3,2,0,1,1,8,,,,,,,,,4,2.499319636990549,,,036,001,2019_May_16_1110,MusicAffectPsychophysiology2019,3.0.5,60.06314834732476,
To what extent did the music make you feel ,GUILTY,30MonoWAV/30MonoF3.wav,1,2,2,3,,,,,0,3,3,2,0,2,2,5,,,,,,,,,1,1.551834482990671,,,036,001,2019_May_16_1110,MusicAffectPsychophysiology2019,3.0.5,60.06314834732476,
To what extent did the music make you feel ,ANGRY,30MonoWAV/30MonoF3.wav,1,2,2,3,,,,,0,3,3,2,0,3,3,2,,,,,,,,,2,2.168778874009149,,,036,001,2019_May_16_1110,MusicAffectPsychophysiology2019,3.0.5,60.06314834732476,
To what extent did the music make you feel ,SAD,30MonoWAV/30MonoF3.wav,1,2,2,3,,,,,0,3,3,2,0,4,4,0,,,,,,,,,1,1.0844195380050223,,,036,001,2019_May_16_1110,MusicAffectPsychophysiology2019,3.0.5,60.06314834732476,
To what extent did the music make you feel ,FRUSTRATED,30MonoWAV/30MonoF3.wav,1,2,2,3,,,,,0,3,3,2,0,5,5,3,,,,,,,,,4,1.350065682985587,,,036,001,2019_May_16_1110,MusicAffectPsychophysiology2019,3.0.5,60.06314834732476,
To what extent did the music make you feel ,EXCITED,30MonoWAV/30MonoF3.wav,1,2,2,3,,,,,0,3,3,2,0,6,6,7,,,,,,,,,2,2.1190672790107783,,,036,001,2019_May_16_1110,MusicAffectPsychophysiology2019,3.0.5,60.06314834732476,
To what extent did the music make you feel ,SCARED,30MonoWAV/30MonoF3.wav,1,2,2,3,,,,,0,3,3,2,0,7,7,11,,,,,,,,,3,2.4518419980013277,,,036,001,2019_May_16_1110,MusicAffectPsychophysiology2019,3.0.5,60.06314834732476,
To what extent did the music make you feel ,ASHAMED,30MonoWAV/30MonoF3.wav,1,2,2,3,,,,,0,3,3,2,0,8,8,4,,,,,,,,,1,1.7857660499867052,,,036,001,2019_May_16_1110,MusicAffectPsychophysiology2019,3.0.5,60.06314834732476,
To what extent did the music make you feel ,TENDER,30MonoWAV/30MonoF3.wav,1,2,2,3,,,,,0,3,3,2,0,9,9,10,,,,,,,,,1,1.118401551997522,,,036,001,2019_May_16_1110,MusicAffectPsychophysiology2019,3.0.5,60.06314834732476,
To what extent did the music make you feel ,ANXIOUS ,30MonoWAV/30MonoF3.wav,1,2,2,3,,,,,0,3,3,2,0,10,10,1,,,,,,,,,1,0.9016487619956024,,,036,001,2019_May_16_1110,MusicAffectPsychophysiology2019,3.0.5,60.06314834732476,
To what extent did the music make you feel ,ACTIVE,30MonoWAV/30MonoF3.wav,1,2,2,3,,,,,0,3,3,2,0,11,11,9,,,,,,,,,2,1.234504031977849,,,036,001,2019_May_16_1110,MusicAffectPsychophysiology2019,3.0.5,60.06314834732476,
,,30MonoWAV/30MonoF3.wav,1,2,2,3,,,,,0,3,3,2,,,,,,,,,,,,,,,,,036,001,2019_May_16_1110,MusicAffectPsychophysiology2019,3.0.5,60.06314834732476,
To what extent did the music make you feel ,ASHAMED,30MonoWAV/30MonoT1.wav,2,1,4,13,,,,,0,4,4,12,0,0,0,4,,,3,4.185302177997073,4,3.135338566004066,4,1.8677347420016304,1,1.5363568800094072,,,036,001,2019_May_16_1110,MusicAffectPsychophysiology2019,3.0.5,60.06314834732476,
To what extent did the music make you feel ,ANGRY,30MonoWAV/30MonoT1.wav,2,1,4,13,,,,,0,4,4,12,0,1,1,2,,,,,,,,,1,0.9180987470026594,,,036,001,2019_May_16_1110,MusicAffectPsychophysiology2019,3.0.5,60.06314834732476,
To what extent did the music make you feel ,GUILTY,30MonoWAV/30MonoT1.wav,2,1,4,13,,,,,0,4,4,12,0,2,2,5,,,,,,,,,2,2.852492734004045,,,036,001,2019_May_16_1110,MusicAffectPsychophysiology2019,3.0.5,60.06314834732476,
To what extent did the music make you feel ,FRUSTRATED,30MonoWAV/30MonoT1.wav,2,1,4,13,,,,,0,4,4,12,0,3,3,3,,,,,,,,,1,1.1515385560051072,,,036,001,2019_May_16_1110,MusicAffectPsychophysiology2019,3.0.5,60.06314834732476,
To what extent did the music make you feel ,TENDER,30MonoWAV/30MonoT1.wav,2,1,4,13,,,,,0,4,4,12,0,4,4,10,,,,,,,,,4,1.7515038060082588,,,036,001,2019_May_16_1110,MusicAffectPsychophysiology2019,3.0.5,60.06314834732476,
To what extent did the music make you feel ,ANXIOUS ,30MonoWAV/30MonoT1.wav,2,1,4,13,,,,,0,4,4,12,0,5,5,1,,,,,,,,,2,1.1691299760132097,,,036,001,2019_May_16_1110,MusicAffectPsychophysiology2019,3.0.5,60.06314834732476,
To what extent did the music make you feel ,HAPPY,30MonoWAV/30MonoT1.wav,2,1,4,13,,,,,0,4,4,12,0,6,6,6,,,,,,,,,3,1.2009238750033546,,,036,001,2019_May_16_1110,MusicAffectPsychophysiology2019,3.0.5,60.06314834732476,
To what extent did the music make you feel ,SAD,30MonoWAV/30MonoT1.wav,2,1,4,13,,,,,0,4,4,12,0,7,7,0,,,,,,,,,2,1.755407706979895,,,036,001,2019_May_16_1110,MusicAffectPsychophysiology2019,3.0.5,60.06314834732476,
To what extent did the music make you feel ,SCARED,30MonoWAV/30MonoT1.wav,2,1,4,13,,,,,0,4,4,12,0,8,8,11,,,,,,,,,1,1.4519376370008104,,,036,001,2019_May_16_1110,MusicAffectPsychophysiology2019,3.0.5,60.06314834732476,
To what extent did the music make you feel ,EXCITED,30MonoWAV/30MonoT1.wav,2,1,4,13,,,,,0,4,4,12,0,9,9,7,,,,,,,,,3,3.2560898269875906,,,036,001,2019_May_16_1110,MusicAffectPsychophysiology2019,3.0.5,60.06314834732476,
To what extent did the music make you feel ,ACTIVE,30MonoWAV/30MonoT1.wav,2,1,4,13,,,,,0,4,4,12,0,10,10,9,,,,,,,,,3,1.5712907570123207,,,036,001,2019_May_16_1110,MusicAffectPsychophysiology2019,3.0.5,60.06314834732476,
To what extent did the music make you feel ,ALERT,30MonoWAV/30MonoT1.wav,2,1,4,13,,,,,0,4,4,12,0,11,11,8,,,,,,,,,3,1.506386041000951,,,036,001,2019_May_16_1110,MusicAffectPsychophysiology2019,3.0.5,60.06314834732476,
,,30MonoWAV/30MonoT1.wav,2,1,4,13,,,,,0,4,4,12,,,,,,,,,,,,,,,,,036,001,2019_May_16_1110,MusicAffectPsychophysiology2019,3.0.5,60.06314834732476,
To what extent did the music make you feel ,HAPPY,30MonoWAV/30MonoH4.wav,2,2,1,8,,,,,0,5,5,7,0,0,0,6,,,4,6.384890585002722,4,1.3355495409923606,3,2.1023907539783977,4,2.368798986019101,,,036,001,2019_May_16_1110,MusicAffectPsychophysiology2019,3.0.5,60.06314834732476,
To what extent did the music make you feel ,ANGRY,30MonoWAV/30MonoH4.wav,2,2,1,8,,,,,0,5,5,7,0,1,1,2,,,,,,,,,1,1.7854260510066524,,,036,001,2019_May_16_1110,MusicAffectPsychophysiology2019,3.0.5,60.06314834732476,
To what extent did the music make you feel ,ANXIOUS ,30MonoWAV/30MonoH4.wav,2,2,1,8,,,,,0,5,5,7,0,2,2,1,,,,,,,,,1,0.9683708980155643,,,036,001,2019_May_16_1110,MusicAffectPsychophysiology2019,3.0.5,60.06314834732476,
To what extent did the music make you feel ,ASHAMED,30MonoWAV/30MonoH4.wav,2,2,1,8,,,,,0,5,5,7,0,3,3,4,,,,,,,,,1,0.8854170569975395,,,036,001,2019_May_16_1110,MusicAffectPsychophysiology2019,3.0.5,60.06314834732476,
To what extent did the music make you feel ,ALERT,30MonoWAV/30MonoH4.wav,2,2,1,8,,,,,0,5,5,7,0,4,4,8,,,,,,,,,5,3.034906128013972,,,036,001,2019_May_16_1110,MusicAffectPsychophysiology2019,3.0.5,60.06314834732476,
To what extent did the music make you feel ,FRUSTRATED,30MonoWAV/30MonoH4.wav,2,2,1,8,,,,,0,5,5,7,0,5,5,3,,,,,,,,,2,1.2852476639964152,,,036,001,2019_May_16_1110,MusicAffectPsychophysiology2019,3.0.5,60.06314834732476,
To what extent did the music make you feel ,TENDER,30MonoWAV/30MonoH4.wav,2,2,1,8,,,,,0,5,5,7,0,6,6,10,,,,,,,,,1,1.5849854199914262,,,036,001,2019_May_16_1110,MusicAffectPsychophysiology2019,3.0.5,60.06314834732476,
To what extent did the music make you feel ,GUILTY,30MonoWAV/30MonoH4.wav,2,2,1,8,,,,,0,5,5,7,0,7,7,5,,,,,,,,,1,1.1198734439967666,,,036,001,2019_May_16_1110,MusicAffectPsychophysiology2019,3.0.5,60.06314834732476,
To what extent did the music make you feel ,SAD,30MonoWAV/30MonoH4.wav,2,2,1,8,,,,,0,5,5,7,0,8,8,0,,,,,,,,,2,2.3003466470108833,,,036,001,2019_May_16_1110,MusicAffectPsychophysiology2019,3.0.5,60.06314834732476,
To what extent did the music make you feel ,SCARED,30MonoWAV/30MonoH4.wav,2,2,1,8,,,,,0,5,5,7,0,9,9,11,,,,,,,,,2,2.2004746540042106,,,036,001,2019_May_16_1110,MusicAffectPsychophysiology2019,3.0.5,60.06314834732476,
To what extent did the music make you feel ,EXCITED,30MonoWAV/30MonoH4.wav,2,2,1,8,,,,,0,5,5,7,0,10,10,7,,,,,,,,,4,2.200588901003357,,,036,001,2019_May_16_1110,MusicAffectPsychophysiology2019,3.0.5,60.06314834732476,
To what extent did the music make you feel ,ACTIVE,30MonoWAV/30MonoH4.wav,2,2,1,8,,,,,0,5,5,7,0,11,11,9,,,,,,,,,5,3.502550492004957,,,036,001,2019_May_16_1110,MusicAffectPsychophysiology2019,3.0.5,60.06314834732476,
,,30MonoWAV/30MonoH4.wav,2,2,1,8,,,,,0,5,5,7,,,,,,,,,,,,,,,,,036,001,2019_May_16_1110,MusicAffectPsychophysiology2019,3.0.5,60.06314834732476,
To what extent did the music make you feel ,ACTIVE,30MonoWAV/30MonoS1.wav,1,1,3,9,,,,,0,6,6,8,0,0,0,9,,,3,4.48480774401105,2,2.2828069520182908,4,2.135660396015737,3,2.317935955012217,,,036,001,2019_May_16_1110,MusicAffectPsychophysiology2019,3.0.5,60.06314834732476,
To what extent did the music make you feel ,TENDER,30MonoWAV/30MonoS1.wav,1,1,3,9,,,,,0,6,6,8,0,1,1,10,,,,,,,,,4,1.4180991839966737,,,036,001,2019_May_16_1110,MusicAffectPsychophysiology2019,3.0.5,60.06314834732476,
To what extent did the music make you feel ,ANGRY,30MonoWAV/30MonoS1.wav,1,1,3,9,,,,,0,6,6,8,0,2,2,2,,,,,,,,,1,2.2512598909961525,,,036,001,2019_May_16_1110,MusicAffectPsychophysiology2019,3.0.5,60.06314834732476,
To what extent did the music make you feel ,HAPPY,30MonoWAV/30MonoS1.wav,1,1,3,9,,,,,0,6,6,8,0,3,3,6,,,,,,,,,3,1.7684298509848304,,,036,001,2019_May_16_1110,MusicAffectPsychophysiology2019,3.0.5,60.06314834732476,
To what extent did the music make you feel ,ASHAMED,30MonoWAV/30MonoS1.wav,1,1,3,9,,,,,0,6,6,8,0,4,4,4,,,,,,,,,2,1.485651573020732,,,036,001,2019_May_16_1110,MusicAffectPsychophysiology2019,3.0.5,60.06314834732476,
To what extent did the music make you feel ,ANXIOUS ,30MonoWAV/30MonoS1.wav,1,1,3,9,,,,,0,6,6,8,0,5,5,1,,,,,,,,,3,2.803131658001803,,,036,001,2019_May_16_1110,MusicAffectPsychophysiology2019,3.0.5,60.06314834732476,
To what extent did the music make you feel ,SCARED,30MonoWAV/30MonoS1.wav,1,1,3,9,,,,,0,6,6,8,0,6,6,11,,,,,,,,,3,1.301907503977418,,,036,001,2019_May_16_1110,MusicAffectPsychophysiology2019,3.0.5,60.06314834732476,
To what extent did the music make you feel ,EXCITED,30MonoWAV/30MonoS1.wav,1,1,3,9,,,,,0,6,6,8,0,7,7,7,,,,,,,,,4,1.968326417991193,,,036,001,2019_May_16_1110,MusicAffectPsychophysiology2019,3.0.5,60.06314834732476,
To what extent did the music make you feel ,FRUSTRATED,30MonoWAV/30MonoS1.wav,1,1,3,9,,,,,0,6,6,8,0,8,8,3,,,,,,,,,1,1.8517992749984842,,,036,001,2019_May_16_1110,MusicAffectPsychophysiology2019,3.0.5,60.06314834732476,
To what extent did the music make you feel ,ALERT,30MonoWAV/30MonoS1.wav,1,1,3,9,,,,,0,6,6,8,0,9,9,8,,,,,,,,,3,2.014749667025171,,,036,001,2019_May_16_1110,MusicAffectPsychophysiology2019,3.0.5,60.06314834732476,
To what extent did the music make you feel ,SAD,30MonoWAV/30MonoS1.wav,1,1,3,9,,,,,0,6,6,8,0,10,10,0,,,,,,,,,3,1.6372182029881515,,,036,001,2019_May_16_1110,MusicAffectPsychophysiology2019,3.0.5,60.06314834732476,
To what extent did the music make you feel ,GUILTY,30MonoWAV/30MonoS1.wav,1,1,3,9,,,,,0,6,6,8,0,11,11,5,,,,,,,,,3,1.201753246015869,,,036,001,2019_May_16_1110,MusicAffectPsychophysiology2019,3.0.5,60.06314834732476,
,,30MonoWAV/30MonoS1.wav,1,1,3,9,,,,,0,6,6,8,,,,,,,,,,,,,,,,,036,001,2019_May_16_1110,MusicAffectPsychophysiology2019,3.0.5,60.06314834732476,
To what extent did the music make you feel ,ACTIVE,30MonoWAV/30MonoT4.wav,2,1,4,16,,,,,0,7,7,15,0,0,0,9,,,3,6.749455030017998,3,2.1696436170022935,4,2.0352988770173397,3,2.052408182004001,,,036,001,2019_May_16_1110,MusicAffectPsychophysiology2019,3.0.5,60.06314834732476,
To what extent did the music make you feel ,FRUSTRATED,30MonoWAV/30MonoT4.wav,2,1,4,16,,,,,0,7,7,15,0,1,1,3,,,,,,,,,1,1.2515976499998942,,,036,001,2019_May_16_1110,MusicAffectPsychophysiology2019,3.0.5,60.06314834732476,
To what extent did the music make you feel ,HAPPY,30MonoWAV/30MonoT4.wav,2,1,4,16,,,,,0,7,7,15,0,2,2,6,,,,,,,,,3,4.218915639008628,,,036,001,2019_May_16_1110,MusicAffectPsychophysiology2019,3.0.5,60.06314834732476,
To what extent did the music make you feel ,ASHAMED,30MonoWAV/30MonoT4.wav,2,1,4,16,,,,,0,7,7,15,0,3,3,4,,,,,,,,,1,1.3182253069826402,,,036,001,2019_May_16_1110,MusicAffectPsychophysiology2019,3.0.5,60.06314834732476,
To what extent did the music make you feel ,GUILTY,30MonoWAV/30MonoT4.wav,2,1,4,16,,,,,0,7,7,15,0,4,4,5,,,,,,,,,2,3.967601841985015,,,036,001,2019_May_16_1110,MusicAffectPsychophysiology2019,3.0.5,60.06314834732476,
To what extent did the music make you feel ,SCARED,30MonoWAV/30MonoT4.wav,2,1,4,16,,,,,0,7,7,15,0,5,5,11,,,,,,,,,2,1.8189221979991999,,,036,001,2019_May_16_1110,MusicAffectPsychophysiology2019,3.0.5,60.06314834732476,
To what extent did the music make you feel ,SAD,30MonoWAV/30MonoT4.wav,2,1,4,16,,,,,0,7,7,15,0,6,6,0,,,,,,,,,3,1.6516595550056081,,,036,001,2019_May_16_1110,MusicAffectPsychophysiology2019,3.0.5,60.06314834732476,
To what extent did the music make you feel ,EXCITED,30MonoWAV/30MonoT4.wav,2,1,4,16,,,,,0,7,7,15,0,7,7,7,,,,,,,,,3,1.0187627579725813,,,036,001,2019_May_16_1110,MusicAffectPsychophysiology2019,3.0.5,60.06314834732476,
To what extent did the music make you feel ,TENDER,30MonoWAV/30MonoT4.wav,2,1,4,16,,,,,0,7,7,15,0,8,8,10,,,,,,,,,4,1.2524227350077126,,,036,001,2019_May_16_1110,MusicAffectPsychophysiology2019,3.0.5,60.06314834732476,
To what extent did the music make you feel ,ALERT,30MonoWAV/30MonoT4.wav,2,1,4,16,,,,,0,7,7,15,0,9,9,8,,,,,,,,,2,5.033954860002268,,,036,001,2019_May_16_1110,MusicAffectPsychophysiology2019,3.0.5,60.06314834732476,
To what extent did the music make you feel ,ANGRY,30MonoWAV/30MonoT4.wav,2,1,4,16,,,,,0,7,7,15,0,10,10,2,,,,,,,,,1,1.1682806120079476,,,036,001,2019_May_16_1110,MusicAffectPsychophysiology2019,3.0.5,60.06314834732476,
To what extent did the music make you feel ,ANXIOUS ,30MonoWAV/30MonoT4.wav,2,1,4,16,,,,,0,7,7,15,0,11,11,1,,,,,,,,,2,1.1184589150070678,,,036,001,2019_May_16_1110,MusicAffectPsychophysiology2019,3.0.5,60.06314834732476,
,,30MonoWAV/30MonoT4.wav,2,1,4,16,,,,,0,7,7,15,,,,,,,,,,,,,,,,,036,001,2019_May_16_1110,MusicAffectPsychophysiology2019,3.0.5,60.06314834732476,
To what extent did the music make you feel ,SAD,30MonoWAV/30MonoH3.wav,2,2,1,7,,,,,0,8,8,6,0,0,0,0,,,3,7.576177609997103,4,1.868151394999586,4,1.551725247001741,2,4.585139635019004,,,036,001,2019_May_16_1110,MusicAffectPsychophysiology2019,3.0.5,60.06314834732476,
To what extent did the music make you feel ,ANXIOUS ,30MonoWAV/30MonoH3.wav,2,2,1,7,,,,,0,8,8,6,0,1,1,1,,,,,,,,,2,1.7019850429787766,,,036,001,2019_May_16_1110,MusicAffectPsychophysiology2019,3.0.5,60.06314834732476,
To what extent did the music make you feel ,TENDER,30MonoWAV/30MonoH3.wav,2,2,1,7,,,,,0,8,8,6,0,2,2,10,,,,,,,,,4,2.7515881510043982,,,036,001,2019_May_16_1110,MusicAffectPsychophysiology2019,3.0.5,60.06314834732476,
To what extent did the music make you feel ,FRUSTRATED,30MonoWAV/30MonoH3.wav,2,2,1,7,,,,,0,8,8,6,0,3,3,3,,,,,,,,,1,1.1700828300090507,,,036,001,2019_May_16_1110,MusicAffectPsychophysiology2019,3.0.5,60.06314834732476,
To what extent did the music make you feel ,EXCITED,30MonoWAV/30MonoH3.wav,2,2,1,7,,,,,0,8,8,6,0,4,4,7,,,,,,,,,3,1.8850147720077075,,,036,001,2019_May_16_1110,MusicAffectPsychophysiology2019,3.0.5,60.06314834732476,
To what extent did the music make you feel ,HAPPY,30MonoWAV/30MonoH3.wav,2,2,1,7,,,,,0,8,8,6,0,5,5,6,,,,,,,,,3,1.6507885460159741,,,036,001,2019_May_16_1110,MusicAffectPsychophysiology2019,3.0.5,60.06314834732476,
To what extent did the music make you feel ,ALERT,30MonoWAV/30MonoH3.wav,2,2,1,7,,,,,0,8,8,6,0,6,6,8,,,,,,,,,3,1.252066034998279,,,036,001,2019_May_16_1110,MusicAffectPsychophysiology2019,3.0.5,60.06314834732476,
To what extent did the music make you feel ,ASHAMED,30MonoWAV/30MonoH3.wav,2,2,1,7,,,,,0,8,8,6,0,7,7,4,,,,,,,,,1,2.8180650329741184,,,036,001,2019_May_16_1110,MusicAffectPsychophysiology2019,3.0.5,60.06314834732476,
To what extent did the music make you feel ,SCARED,30MonoWAV/30MonoH3.wav,2,2,1,7,,,,,0,8,8,6,0,8,8,11,,,,,,,,,1,2.56822751800064,,,036,001,2019_May_16_1110,MusicAffectPsychophysiology2019,3.0.5,60.06314834732476,
To what extent did the music make you feel ,ANGRY,30MonoWAV/30MonoH3.wav,2,2,1,7,,,,,0,8,8,6,0,9,9,2,,,,,,,,,1,1.1519808410084806,,,036,001,2019_May_16_1110,MusicAffectPsychophysiology2019,3.0.5,60.06314834732476,
To what extent did the music make you feel ,GUILTY,30MonoWAV/30MonoH3.wav,2,2,1,7,,,,,0,8,8,6,0,10,10,5,,,,,,,,,1,1.7174734639993403,,,036,001,2019_May_16_1110,MusicAffectPsychophysiology2019,3.0.5,60.06314834732476,
To what extent did the music make you feel ,ACTIVE,30MonoWAV/30MonoH3.wav,2,2,1,7,,,,,0,8,8,6,0,11,11,9,,,,,,,,,4,2.353077801002655,,,036,001,2019_May_16_1110,MusicAffectPsychophysiology2019,3.0.5,60.06314834732476,
,,30MonoWAV/30MonoH3.wav,2,2,1,7,,,,,0,8,8,6,,,,,,,,,,,,,,,,,036,001,2019_May_16_1110,MusicAffectPsychophysiology2019,3.0.5,60.06314834732476,
To what extent did the music make you feel ,TENDER,30MonoWAV/30MonoS4.wav,1,1,3,12,,,,,0,9,9,11,0,0,0,10,,,2,4.384886448999168,2,2.052466038003331,5,2.219304172991542,5,2.4668834730109666,,,036,001,2019_May_16_1110,MusicAffectPsychophysiology2019,3.0.5,60.06314834732476,
To what extent did the music make you feel ,ACTIVE,30MonoWAV/30MonoS4.wav,1,1,3,12,,,,,0,9,9,11,0,1,1,9,,,,,,,,,2,1.6358310119831003,,,036,001,2019_May_16_1110,MusicAffectPsychophysiology2019,3.0.5,60.06314834732476,
To what extent did the music make you feel ,ASHAMED,30MonoWAV/30MonoS4.wav,1,1,3,12,,,,,0,9,9,11,0,2,2,4,,,,,,,,,3,1.4024108339799568,,,036,001,2019_May_16_1110,MusicAffectPsychophysiology2019,3.0.5,60.06314834732476,
To what extent did the music make you feel ,ANGRY,30MonoWAV/30MonoS4.wav,1,1,3,12,,,,,0,9,9,11,0,3,3,2,,,,,,,,,3,1.5349315339990426,,,036,001,2019_May_16_1110,MusicAffectPsychophysiology2019,3.0.5,60.06314834732476,
To what extent did the music make you feel ,GUILTY,30MonoWAV/30MonoS4.wav,1,1,3,12,,,,,0,9,9,11,0,4,4,5,,,,,,,,,3,1.2847397439763881,,,036,001,2019_May_16_1110,MusicAffectPsychophysiology2019,3.0.5,60.06314834732476,
To what extent did the music make you feel ,ANXIOUS ,30MonoWAV/30MonoS4.wav,1,1,3,12,,,,,0,9,9,11,0,5,5,1,,,,,,,,,3,3.95128094102256,,,036,001,2019_May_16_1110,MusicAffectPsychophysiology2019,3.0.5,60.06314834732476,
To what extent did the music make you feel ,ALERT,30MonoWAV/30MonoS4.wav,1,1,3,12,,,,,0,9,9,11,0,6,6,8,,,,,,,,,3,1.552448172995355,,,036,001,2019_May_16_1110,MusicAffectPsychophysiology2019,3.0.5,60.06314834732476,
To what extent did the music make you feel ,SCARED,30MonoWAV/30MonoS4.wav,1,1,3,12,,,,,0,9,9,11,0,7,7,11,,,,,,,,,3,3.3847064140136354,,,036,001,2019_May_16_1110,MusicAffectPsychophysiology2019,3.0.5,60.06314834732476,
To what extent did the music make you feel ,HAPPY,30MonoWAV/30MonoS4.wav,1,1,3,12,,,,,0,9,9,11,0,8,8,6,,,,,,,,,2,1.3002462729928084,,,036,001,2019_May_16_1110,MusicAffectPsychophysiology2019,3.0.5,60.06314834732476,
To what extent did the music make you feel ,EXCITED,30MonoWAV/30MonoS4.wav,1,1,3,12,,,,,0,9,9,11,0,9,9,7,,,,,,,,,2,1.3186105719942134,,,036,001,2019_May_16_1110,MusicAffectPsychophysiology2019,3.0.5,60.06314834732476,
To what extent did the music make you feel ,SAD,30MonoWAV/30MonoS4.wav,1,1,3,12,,,,,0,9,9,11,0,10,10,0,,,,,,,,,4,1.483642464998411,,,036,001,2019_May_16_1110,MusicAffectPsychophysiology2019,3.0.5,60.06314834732476,
To what extent did the music make you feel ,FRUSTRATED,30MonoWAV/30MonoS4.wav,1,1,3,12,,,,,0,9,9,11,0,11,11,3,,,,,,,,,2,1.3699319139996078,,,036,001,2019_May_16_1110,MusicAffectPsychophysiology2019,3.0.5,60.06314834732476,
,,30MonoWAV/30MonoS4.wav,1,1,3,12,,,,,0,9,9,11,,,,,,,,,,,,,,,,,036,001,2019_May_16_1110,MusicAffectPsychophysiology2019,3.0.5,60.06314834732476,
To what extent did the music make you feel ,GUILTY,30MonoWAV/30MonoS3.wav,1,1,3,11,,,,,0,10,10,10,0,0,0,5,,,1,5.717655743006617,2,1.6184612429933622,2,2.403120694012614,2,1.4514118719962426,,,036,001,2019_May_16_1110,MusicAffectPsychophysiology2019,3.0.5,60.06314834732476,
To what extent did the music make you feel ,ALERT,30MonoWAV/30MonoS3.wav,1,1,3,11,,,,,0,10,10,10,0,1,1,8,,,,,,,,,2,4.201652688003378,,,036,001,2019_May_16_1110,MusicAffectPsychophysiology2019,3.0.5,60.06314834732476,
To what extent did the music make you feel ,ANXIOUS ,30MonoWAV/30MonoS3.wav,1,1,3,11,,,,,0,10,10,10,0,2,2,1,,,,,,,,,2,2.573359840986086,,,036,001,2019_May_16_1110,MusicAffectPsychophysiology2019,3.0.5,60.06314834732476,
To what extent did the music make you feel ,HAPPY,30MonoWAV/30MonoS3.wav,1,1,3,11,,,,,0,10,10,10,0,3,3,6,,,,,,,,,2,1.4532016460143495,,,036,001,2019_May_16_1110,MusicAffectPsychophysiology2019,3.0.5,60.06314834732476,
To what extent did the music make you feel ,SCARED,30MonoWAV/30MonoS3.wav,1,1,3,11,,,,,0,10,10,10,0,4,4,11,,,,,,,,,3,1.385592197009828,,,036,001,2019_May_16_1110,MusicAffectPsychophysiology2019,3.0.5,60.06314834732476,
To what extent did the music make you feel ,TENDER,30MonoWAV/30MonoS3.wav,1,1,3,11,,,,,0,10,10,10,0,5,5,10,,,,,,,,,3,1.369887345994357,,,036,001,2019_May_16_1110,MusicAffectPsychophysiology2019,3.0.5,60.06314834732476,
To what extent did the music make you feel ,EXCITED,30MonoWAV/30MonoS3.wav,1,1,3,11,,,,,0,10,10,10,0,6,6,7,,,,,,,,,2,1.3538047830224968,,,036,001,2019_May_16_1110,MusicAffectPsychophysiology2019,3.0.5,60.06314834732476,
To what extent did the music make you feel ,ACTIVE,30MonoWAV/30MonoS3.wav,1,1,3,11,,,,,0,10,10,10,0,7,7,9,,,,,,,,,2,1.8569293809996452,,,036,001,2019_May_16_1110,MusicAffectPsychophysiology2019,3.0.5,60.06314834732476,
To what extent did the music make you feel ,SAD,30MonoWAV/30MonoS3.wav,1,1,3,11,,,,,0,10,10,10,0,8,8,0,,,,,,,,,2,0.766605201002676,,,036,001,2019_May_16_1110,MusicAffectPsychophysiology2019,3.0.5,60.06314834732476,
To what extent did the music make you feel ,ASHAMED,30MonoWAV/30MonoS3.wav,1,1,3,11,,,,,0,10,10,10,0,9,9,4,,,,,,,,,2,3.655491451994749,,,036,001,2019_May_16_1110,MusicAffectPsychophysiology2019,3.0.5,60.06314834732476,
To what extent did the music make you feel ,ANGRY,30MonoWAV/30MonoS3.wav,1,1,3,11,,,,,0,10,10,10,0,10,10,2,,,,,,,,,1,2.3549158580135554,,,036,001,2019_May_16_1110,MusicAffectPsychophysiology2019,3.0.5,60.06314834732476,
To what extent did the music make you feel ,FRUSTRATED,30MonoWAV/30MonoS3.wav,1,1,3,11,,,,,0,10,10,10,0,11,11,3,,,,,,,,,1,0.9527159210119862,,,036,001,2019_May_16_1110,MusicAffectPsychophysiology2019,3.0.5,60.06314834732476,
,,30MonoWAV/30MonoS3.wav,1,1,3,11,,,,,0,10,10,10,,,,,,,,,,,,,,,,,036,001,2019_May_16_1110,MusicAffectPsychophysiology2019,3.0.5,60.06314834732476,
To what extent did the music make you feel ,GUILTY,30MonoWAV/30MonoT2.wav,2,1,4,14,,,,,0,11,11,13,0,0,0,5,,,3,3.6011757510132156,3,1.4359874019864947,3,1.969097363005858,1,1.934020104992669,,,036,001,2019_May_16_1110,MusicAffectPsychophysiology2019,3.0.5,60.06314834732476,
To what extent did the music make you feel ,EXCITED,30MonoWAV/30MonoT2.wav,2,1,4,14,,,,,0,11,11,13,0,1,1,7,,,,,,,,,3,2.1862724899838213,,,036,001,2019_May_16_1110,MusicAffectPsychophysiology2019,3.0.5,60.06314834732476,
To what extent did the music make you feel ,ALERT,30MonoWAV/30MonoT2.wav,2,1,4,14,,,,,0,11,11,13,0,2,2,8,,,,,,,,,3,1.085182512004394,,,036,001,2019_May_16_1110,MusicAffectPsychophysiology2019,3.0.5,60.06314834732476,
To what extent did the music make you feel ,ANGRY,30MonoWAV/30MonoT2.wav,2,1,4,14,,,,,0,11,11,13,0,3,3,2,,,,,,,,,2,1.8680019270104822,,,036,001,2019_May_16_1110,MusicAffectPsychophysiology2019,3.0.5,60.06314834732476,
To what extent did the music make you feel ,ASHAMED,30MonoWAV/30MonoT2.wav,2,1,4,14,,,,,0,11,11,13,0,4,4,4,,,,,,,,,2,1.4519538360182196,,,036,001,2019_May_16_1110,MusicAffectPsychophysiology2019,3.0.5,60.06314834732476,
To what extent did the music make you feel ,SCARED,30MonoWAV/30MonoT2.wav,2,1,4,14,,,,,0,11,11,13,0,5,5,11,,,,,,,,,1,1.7355813089816365,,,036,001,2019_May_16_1110,MusicAffectPsychophysiology2019,3.0.5,60.06314834732476,
To what extent did the music make you feel ,HAPPY,30MonoWAV/30MonoT2.wav,2,1,4,14,,,,,0,11,11,13,0,6,6,6,,,,,,,,,2,1.2846148230019026,,,036,001,2019_May_16_1110,MusicAffectPsychophysiology2019,3.0.5,60.06314834732476,
To what extent did the music make you feel ,ACTIVE,30MonoWAV/30MonoT2.wav,2,1,4,14,,,,,0,11,11,13,0,7,7,9,,,,,,,,,3,1.2852566679939628,,,036,001,2019_May_16_1110,MusicAffectPsychophysiology2019,3.0.5,60.06314834732476,
To what extent did the music make you feel ,ANXIOUS ,30MonoWAV/30MonoT2.wav,2,1,4,14,,,,,0,11,11,13,0,8,8,1,,,,,,,,,2,1.4737445000209846,,,036,001,2019_May_16_1110,MusicAffectPsychophysiology2019,3.0.5,60.06314834732476,
To what extent did the music make you feel ,FRUSTRATED,30MonoWAV/30MonoT2.wav,2,1,4,14,,,,,0,11,11,13,0,9,9,3,,,,,,,,,4,1.2862391489907168,,,036,001,2019_May_16_1110,MusicAffectPsychophysiology2019,3.0.5,60.06314834732476,
To what extent did the music make you feel ,SAD,30MonoWAV/30MonoT2.wav,2,1,4,14,,,,,0,11,11,13,0,10,10,0,,,,,,,,,1,1.3202392079983838,,,036,001,2019_May_16_1110,MusicAffectPsychophysiology2019,3.0.5,60.06314834732476,
To what extent did the music make you feel ,TENDER,30MonoWAV/30MonoT2.wav,2,1,4,14,,,,,0,11,11,13,0,11,11,10,,,,,,,,,3,2.569960846012691,,,036,001,2019_May_16_1110,MusicAffectPsychophysiology2019,3.0.5,60.06314834732476,
,,30MonoWAV/30MonoT2.wav,2,1,4,14,,,,,0,11,11,13,,,,,,,,,,,,,,,,,036,001,2019_May_16_1110,MusicAffectPsychophysiology2019,3.0.5,60.06314834732476,
To what extent did the music make you feel ,ANXIOUS ,30MonoWAV/30MonoH2.wav,2,2,1,6,,,,,0,12,12,5,0,0,0,1,,,3,5.391263397003058,3,1.4523883650253993,3,1.586817193980096,1,1.4867354170128237,,,036,001,2019_May_16_1110,MusicAffectPsychophysiology2019,3.0.5,60.06314834732476,
To what extent did the music make you feel ,ACTIVE,30MonoWAV/30MonoH2.wav,2,2,1,6,,,,,0,12,12,5,0,1,1,9,,,,,,,,,4,1.1519443450088147,,,036,001,2019_May_16_1110,MusicAffectPsychophysiology2019,3.0.5,60.06314834732476,
To what extent did the music make you feel ,TENDER,30MonoWAV/30MonoH2.wav,2,2,1,6,,,,,0,12,12,5,0,2,2,10,,,,,,,,,3,1.7846488860086538,,,036,001,2019_May_16_1110,MusicAffectPsychophysiology2019,3.0.5,60.06314834732476,
To what extent did the music make you feel ,EXCITED,30MonoWAV/30MonoH2.wav,2,2,1,6,,,,,0,12,12,5,0,3,3,7,,,,,,,,,4,1.2191065050137695,,,036,001,2019_May_16_1110,MusicAffectPsychophysiology2019,3.0.5,60.06314834732476,
To what extent did the music make you feel ,ASHAMED,30MonoWAV/30MonoH2.wav,2,2,1,6,,,,,0,12,12,5,0,4,4,4,,,,,,,,,1,1.7353275589994155,,,036,001,2019_May_16_1110,MusicAffectPsychophysiology2019,3.0.5,60.06314834732476,
To what extent did the music make you feel ,ANGRY,30MonoWAV/30MonoH2.wav,2,2,1,6,,,,,0,12,12,5,0,5,5,2,,,,,,,,,1,1.1007880900288,,,036,001,2019_May_16_1110,MusicAffectPsychophysiology2019,3.0.5,60.06314834732476,
To what extent did the music make you feel ,SAD,30MonoWAV/30MonoH2.wav,2,2,1,6,,,,,0,12,12,5,0,6,6,0,,,,,,,,,2,1.3517450439976528,,,036,001,2019_May_16_1110,MusicAffectPsychophysiology2019,3.0.5,60.06314834732476,
To what extent did the music make you feel ,ALERT,30MonoWAV/30MonoH2.wav,2,2,1,6,,,,,0,12,12,5,0,7,7,8,,,,,,,,,4,1.5182090110029094,,,036,001,2019_May_16_1110,MusicAffectPsychophysiology2019,3.0.5,60.06314834732476,
To what extent did the music make you feel ,HAPPY,30MonoWAV/30MonoH2.wav,2,2,1,6,,,,,0,12,12,5,0,8,8,6,,,,,,,,,3,1.6824561270186678,,,036,001,2019_May_16_1110,MusicAffectPsychophysiology2019,3.0.5,60.06314834732476,
To what extent did the music make you feel ,FRUSTRATED,30MonoWAV/30MonoH2.wav,2,2,1,6,,,,,0,12,12,5,0,9,9,3,,,,,,,,,2,2.966210382001009,,,036,001,2019_May_16_1110,MusicAffectPsychophysiology2019,3.0.5,60.06314834732476,
To what extent did the music make you feel ,GUILTY,30MonoWAV/30MonoH2.wav,2,2,1,6,,,,,0,12,12,5,0,10,10,5,,,,,,,,,1,1.2164886590035167,,,036,001,2019_May_16_1110,MusicAffectPsychophysiology2019,3.0.5,60.06314834732476,
To what extent did the music make you feel ,SCARED,30MonoWAV/30MonoH2.wav,2,2,1,6,,,,,0,12,12,5,0,11,11,11,,,,,,,,,1,2.5658851629996207,,,036,001,2019_May_16_1110,MusicAffectPsychophysiology2019,3.0.5,60.06314834732476,
,,30MonoWAV/30MonoH2.wav,2,2,1,6,,,,,0,12,12,5,,,,,,,,,,,,,,,,,036,001,2019_May_16_1110,MusicAffectPsychophysiology2019,3.0.5,60.06314834732476,
To what extent did the music make you feel ,TENDER,30MonoWAV/30MonoF2.wav,1,2,2,2,,,,,0,13,13,1,0,0,0,10,,,3,3.9346337220049463,1,2.352539253013674,2,2.001616674999241,2,1.8696004829835147,,,036,001,2019_May_16_1110,MusicAffectPsychophysiology2019,3.0.5,60.06314834732476,
To what extent did the music make you feel ,SCARED,30MonoWAV/30MonoF2.wav,1,2,2,2,,,,,0,13,13,1,0,1,1,11,,,,,,,,,4,1.9518714690057095,,,036,001,2019_May_16_1110,MusicAffectPsychophysiology2019,3.0.5,60.06314834732476,
To what extent did the music make you feel ,ASHAMED,30MonoWAV/30MonoF2.wav,1,2,2,2,,,,,0,13,13,1,0,2,2,4,,,,,,,,,2,2.1519363799889106,,,036,001,2019_May_16_1110,MusicAffectPsychophysiology2019,3.0.5,60.06314834732476,
To what extent did the music make you feel ,EXCITED,30MonoWAV/30MonoF2.wav,1,2,2,2,,,,,0,13,13,1,0,3,3,7,,,,,,,,,2,2.95192594800028,,,036,001,2019_May_16_1110,MusicAffectPsychophysiology2019,3.0.5,60.06314834732476,
To what extent did the music make you feel ,ANGRY,30MonoWAV/30MonoF2.wav,1,2,2,2,,,,,0,13,13,1,0,4,4,2,,,,,,,,,1,1.6186891499964986,,,036,001,2019_May_16_1110,MusicAffectPsychophysiology2019,3.0.5,60.06314834732476,
To what extent did the music make you feel ,SAD,30MonoWAV/30MonoF2.wav,1,2,2,2,,,,,0,13,13,1,0,5,5,0,,,,,,,,,1,1.5014120469859336,,,036,001,2019_May_16_1110,MusicAffectPsychophysiology2019,3.0.5,60.06314834732476,
To what extent did the music make you feel ,ANXIOUS ,30MonoWAV/30MonoF2.wav,1,2,2,2,,,,,0,13,13,1,0,6,6,1,,,,,,,,,4,2.9697741990094073,,,036,001,2019_May_16_1110,MusicAffectPsychophysiology2019,3.0.5,60.06314834732476,
To what extent did the music make you feel ,ACTIVE,30MonoWAV/30MonoF2.wav,1,2,2,2,,,,,0,13,13,1,0,7,7,9,,,,,,,,,4,2.0022522019862663,,,036,001,2019_May_16_1110,MusicAffectPsychophysiology2019,3.0.5,60.06314834732476,
To what extent did the music make you feel ,FRUSTRATED,30MonoWAV/30MonoF2.wav,1,2,2,2,,,,,0,13,13,1,0,8,8,3,,,,,,,,,2,4.734625477984082,,,036,001,2019_May_16_1110,MusicAffectPsychophysiology2019,3.0.5,60.06314834732476,
To what extent did the music make you feel ,ALERT,30MonoWAV/30MonoF2.wav,1,2,2,2,,,,,0,13,13,1,0,9,9,8,,,,,,,,,4,2.5188111450115684,,,036,001,2019_May_16_1110,MusicAffectPsychophysiology2019,3.0.5,60.06314834732476,
To what extent did the music make you feel ,HAPPY,30MonoWAV/30MonoF2.wav,1,2,2,2,,,,,0,13,13,1,0,10,10,6,,,,,,,,,2,1.5685134769883007,,,036,001,2019_May_16_1110,MusicAffectPsychophysiology2019,3.0.5,60.06314834732476,
To what extent did the music make you feel ,GUILTY,30MonoWAV/30MonoF2.wav,1,2,2,2,,,,,0,13,13,1,0,11,11,5,,,,,,,,,1,1.2525721099809743,,,036,001,2019_May_16_1110,MusicAffectPsychophysiology2019,3.0.5,60.06314834732476,
,,30MonoWAV/30MonoF2.wav,1,2,2,2,,,,,0,13,13,1,,,,,,,,,,,,,,,,,036,001,2019_May_16_1110,MusicAffectPsychophysiology2019,3.0.5,60.06314834732476,
To what extent did the music make you feel ,SAD,30MonoWAV/30MonoF4.wav,1,2,2,4,,,,,0,14,14,3,0,0,0,0,,,3,3.6014547489758115,2,2.2017022380023263,2,1.202300955017563,1,1.5516935930063482,,,036,001,2019_May_16_1110,MusicAffectPsychophysiology2019,3.0.5,60.06314834732476,
To what extent did the music make you feel ,GUILTY,30MonoWAV/30MonoF4.wav,1,2,2,4,,,,,0,14,14,3,0,1,1,5,,,,,,,,,1,0.9023406929918565,,,036,001,2019_May_16_1110,MusicAffectPsychophysiology2019,3.0.5,60.06314834732476,
To what extent did the music make you feel ,ANGRY,30MonoWAV/30MonoF4.wav,1,2,2,4,,,,,0,14,14,3,0,2,2,2,,,,,,,,,2,3.1858378880133387,,,036,001,2019_May_16_1110,MusicAffectPsychophysiology2019,3.0.5,60.06314834732476,
To what extent did the music make you feel ,EXCITED,30MonoWAV/30MonoF4.wav,1,2,2,4,,,,,0,14,14,3,0,3,3,7,,,,,,,,,3,1.3022904149838723,,,036,001,2019_May_16_1110,MusicAffectPsychophysiology2019,3.0.5,60.06314834732476,
To what extent did the music make you feel ,FRUSTRATED,30MonoWAV/30MonoF4.wav,1,2,2,4,,,,,0,14,14,3,0,4,4,3,,,,,,,,,4,1.9853968789975625,,,036,001,2019_May_16_1110,MusicAffectPsychophysiology2019,3.0.5,60.06314834732476,
To what extent did the music make you feel ,SCARED,30MonoWAV/30MonoF4.wav,1,2,2,4,,,,,0,14,14,3,0,5,5,11,,,,,,,,,1,1.3028994759952184,,,036,001,2019_May_16_1110,MusicAffectPsychophysiology2019,3.0.5,60.06314834732476,
To what extent did the music make you feel ,ACTIVE,30MonoWAV/30MonoF4.wav,1,2,2,4,,,,,0,14,14,3,0,6,6,9,,,,,,,,,3,8.368273600994144,,,036,001,2019_May_16_1110,MusicAffectPsychophysiology2019,3.0.5,60.06314834732476,
To what extent did the music make you feel ,HAPPY,30MonoWAV/30MonoF4.wav,1,2,2,4,,,,,0,14,14,3,0,7,7,6,,,,,,,,,2,4.284751197992591,,,036,001,2019_May_16_1110,MusicAffectPsychophysiology2019,3.0.5,60.06314834732476,
To what extent did the music make you feel ,TENDER,30MonoWAV/30MonoF4.wav,1,2,2,4,,,,,0,14,14,3,0,8,8,10,,,,,,,,,3,1.3865760060143657,,,036,001,2019_May_16_1110,MusicAffectPsychophysiology2019,3.0.5,60.06314834732476,
To what extent did the music make you feel ,ANXIOUS ,30MonoWAV/30MonoF4.wav,1,2,2,4,,,,,0,14,14,3,0,9,9,1,,,,,,,,,2,1.6340753589756787,,,036,001,2019_May_16_1110,MusicAffectPsychophysiology2019,3.0.5,60.06314834732476,
To what extent did the music make you feel ,ASHAMED,30MonoWAV/30MonoF4.wav,1,2,2,4,,,,,0,14,14,3,0,10,10,4,,,,,,,,,2,1.4843360519735143,,,036,001,2019_May_16_1110,MusicAffectPsychophysiology2019,3.0.5,60.06314834732476,
To what extent did the music make you feel ,ALERT,30MonoWAV/30MonoF4.wav,1,2,2,4,,,,,0,14,14,3,0,11,11,8,,,,,,,,,3,1.4521967280015815,,,036,001,2019_May_16_1110,MusicAffectPsychophysiology2019,3.0.5,60.06314834732476,
,,30MonoWAV/30MonoF4.wav,1,2,2,4,,,,,0,14,14,3,,,,,,,,,,,,,,,,,036,001,2019_May_16_1110,MusicAffectPsychophysiology2019,3.0.5,60.06314834732476,
To what extent did the music make you feel ,ASHAMED,30MonoWAV/30MonoH1.wav,2,2,1,5,,,,,0,15,15,4,0,0,0,4,,,3,4.202355175977573,4,1.3521461780183017,4,1.3180090579844546,1,2.002490099024726,,,036,001,2019_May_16_1110,MusicAffectPsychophysiology2019,3.0.5,60.06314834732476,
To what extent did the music make you feel ,TENDER,30MonoWAV/30MonoH1.wav,2,2,1,5,,,,,0,15,15,4,0,1,1,10,,,,,,,,,3,1.249024702992756,,,036,001,2019_May_16_1110,MusicAffectPsychophysiology2019,3.0.5,60.06314834732476,
To what extent did the music make you feel ,SAD,30MonoWAV/30MonoH1.wav,2,2,1,5,,,,,0,15,15,4,0,2,2,0,,,,,,,,,2,1.5691711110121105,,,036,001,2019_May_16_1110,MusicAffectPsychophysiology2019,3.0.5,60.06314834732476,
To what extent did the music make you feel ,ALERT,30MonoWAV/30MonoH1.wav,2,2,1,5,,,,,0,15,15,4,0,3,3,8,,,,,,,,,3,1.616716329997871,,,036,001,2019_May_16_1110,MusicAffectPsychophysiology2019,3.0.5,60.06314834732476,
To what extent did the music make you feel ,ACTIVE,30MonoWAV/30MonoH1.wav,2,2,1,5,,,,,0,15,15,4,0,4,4,9,,,,,,,,,3,1.0851661549822893,,,036,001,2019_May_16_1110,MusicAffectPsychophysiology2019,3.0.5,60.06314834732476,
To what extent did the music make you feel ,GUILTY,30MonoWAV/30MonoH1.wav,2,2,1,5,,,,,0,15,15,4,0,5,5,5,,,,,,,,,1,1.2346455359947868,,,036,001,2019_May_16_1110,MusicAffectPsychophysiology2019,3.0.5,60.06314834732476,
To what extent did the music make you feel ,FRUSTRATED,30MonoWAV/30MonoH1.wav,2,2,1,5,,,,,0,15,15,4,0,6,6,3,,,,,,,,,1,1.067412845994113,,,036,001,2019_May_16_1110,MusicAffectPsychophysiology2019,3.0.5,60.06314834732476,
To what extent did the music make you feel ,HAPPY,30MonoWAV/30MonoH1.wav,2,2,1,5,,,,,0,15,15,4,0,7,7,6,,,,,,,,,4,1.4186895310122054,,,036,001,2019_May_16_1110,MusicAffectPsychophysiology2019,3.0.5,60.06314834732476,
To what extent did the music make you feel ,ANGRY,30MonoWAV/30MonoH1.wav,2,2,1,5,,,,,0,15,15,4,0,8,8,2,,,,,,,,,1,2.3690862090152223,,,036,001,2019_May_16_1110,MusicAffectPsychophysiology2019,3.0.5,60.06314834732476,
To what extent did the music make you feel ,SCARED,30MonoWAV/30MonoH1.wav,2,2,1,5,,,,,0,15,15,4,0,9,9,11,,,,,,,,,1,1.2009088120248634,,,036,001,2019_May_16_1110,MusicAffectPsychophysiology2019,3.0.5,60.06314834732476,
To what extent did the music make you feel ,EXCITED,30MonoWAV/30MonoH1.wav,2,2,1,5,,,,,0,15,15,4,0,10,10,7,,,,,,,,,3,1.435605837003095,,,036,001,2019_May_16_1110,MusicAffectPsychophysiology2019,3.0.5,60.06314834732476,
To what extent did the music make you feel ,ANXIOUS ,30MonoWAV/30MonoH1.wav,2,2,1,5,,,,,0,15,15,4,0,11,11,1,,,,,,,,,2,1.3848836419929285,,,036,001,2019_May_16_1110,MusicAffectPsychophysiology2019,3.0.5,60.06314834732476,
,,30MonoWAV/30MonoH1.wav,2,2,1,5,,,,,0,15,15,4,,,,,,,,,,,,,,,,,036,001,2019_May_16_1110,MusicAffectPsychophysiology2019,3.0.5,60.06314834732476,
To what extent did the music make you feel ,ACTIVE,30MonoWAV/30MonoF4.wav,1,2,2,4,,,,,1,0,16,3,0,0,0,9,,,2,9.717375480016926,2,4.550638696004171,2,2.9013309460133314,2,1.2524019749835134,,,036,001,2019_May_16_1110,MusicAffectPsychophysiology2019,3.0.5,60.06314834732476,
To what extent did the music make you feel ,ANGRY,30MonoWAV/30MonoF4.wav,1,2,2,4,,,,,1,0,16,3,0,1,1,2,,,,,,,,,3,1.5183549280045554,,,036,001,2019_May_16_1110,MusicAffectPsychophysiology2019,3.0.5,60.06314834732476,
To what extent did the music make you feel ,HAPPY,30MonoWAV/30MonoF4.wav,1,2,2,4,,,,,1,0,16,3,0,2,2,6,,,,,,,,,2,1.0020824400126003,,,036,001,2019_May_16_1110,MusicAffectPsychophysiology2019,3.0.5,60.06314834732476,
To what extent did the music make you feel ,ALERT,30MonoWAV/30MonoF4.wav,1,2,2,4,,,,,1,0,16,3,0,3,3,8,,,,,,,,,3,1.2672258549719118,,,036,001,2019_May_16_1110,MusicAffectPsychophysiology2019,3.0.5,60.06314834732476,
To what extent did the music make you feel ,ANXIOUS ,30MonoWAV/30MonoF4.wav,1,2,2,4,,,,,1,0,16,3,0,4,4,1,,,,,,,,,1,2.4195361890015192,,,036,001,2019_May_16_1110,MusicAffectPsychophysiology2019,3.0.5,60.06314834732476,
To what extent did the music make you feel ,SAD,30MonoWAV/30MonoF4.wav,1,2,2,4,,,,,1,0,16,3,0,5,5,0,,,,,,,,,1,1.2027889440068975,,,036,001,2019_May_16_1110,MusicAffectPsychophysiology2019,3.0.5,60.06314834732476,
To what extent did the music make you feel ,SCARED,30MonoWAV/30MonoF4.wav,1,2,2,4,,,,,1,0,16,3,0,6,6,11,,,,,,,,,2,1.5675241759745404,,,036,001,2019_May_16_1110,MusicAffectPsychophysiology2019,3.0.5,60.06314834732476,
To what extent did the music make you feel ,EXCITED,30MonoWAV/30MonoF4.wav,1,2,2,4,,,,,1,0,16,3,0,7,7,7,,,,,,,,,1,1.834846779005602,,,036,001,2019_May_16_1110,MusicAffectPsychophysiology2019,3.0.5,60.06314834732476,
To what extent did the music make you feel ,ASHAMED,30MonoWAV/30MonoF4.wav,1,2,2,4,,,,,1,0,16,3,0,8,8,4,,,,,,,,,1,1.2348284140171017,,,036,001,2019_May_16_1110,MusicAffectPsychophysiology2019,3.0.5,60.06314834732476,
To what extent did the music make you feel ,GUILTY,30MonoWAV/30MonoF4.wav,1,2,2,4,,,,,1,0,16,3,0,9,9,5,,,,,,,,,1,0.8677074839943089,,,036,001,2019_May_16_1110,MusicAffectPsychophysiology2019,3.0.5,60.06314834732476,
To what extent did the music make you feel ,TENDER,30MonoWAV/30MonoF4.wav,1,2,2,4,,,,,1,0,16,3,0,10,10,10,,,,,,,,,1,0.884772329009138,,,036,001,2019_May_16_1110,MusicAffectPsychophysiology2019,3.0.5,60.06314834732476,
To what extent did the music make you feel ,FRUSTRATED,30MonoWAV/30MonoF4.wav,1,2,2,4,,,,,1,0,16,3,0,11,11,3,,,,,,,,,4,1.934861012006877,,,036,001,2019_May_16_1110,MusicAffectPsychophysiology2019,3.0.5,60.06314834732476,
,,30MonoWAV/30MonoF4.wav,1,2,2,4,,,,,1,0,16,3,,,,,,,,,,,,,,,,,036,001,2019_May_16_1110,MusicAffectPsychophysiology2019,3.0.5,60.06314834732476,
To what extent did the music make you feel ,ALERT,30MonoWAV/30MonoS4.wav,1,1,3,12,,,,,1,1,17,11,0,0,0,8,,,1,4.375835398997879,2,1.5369931259774603,3,2.1538808810000774,2,2.123926678992575,,,036,001,2019_May_16_1110,MusicAffectPsychophysiology2019,3.0.5,60.06314834732476,
To what extent did the music make you feel ,HAPPY,30MonoWAV/30MonoS4.wav,1,1,3,12,,,,,1,1,17,11,0,1,1,6,,,,,,,,,2,1.300464733998524,,,036,001,2019_May_16_1110,MusicAffectPsychophysiology2019,3.0.5,60.06314834732476,
To what extent did the music make you feel ,FRUSTRATED,30MonoWAV/30MonoS4.wav,1,1,3,12,,,,,1,1,17,11,0,2,2,3,,,,,,,,,2,1.2523936509969644,,,036,001,2019_May_16_1110,MusicAffectPsychophysiology2019,3.0.5,60.06314834732476,
To what extent did the music make you feel ,ANGRY,30MonoWAV/30MonoS4.wav,1,1,3,12,,,,,1,1,17,11,0,3,3,2,,,,,,,,,1,1.6852209859935101,,,036,001,2019_May_16_1110,MusicAffectPsychophysiology2019,3.0.5,60.06314834732476,
To what extent did the music make you feel ,SCARED,30MonoWAV/30MonoS4.wav,1,1,3,12,,,,,1,1,17,11,0,4,4,11,,,,,,,,,1,1.0516588960017543,,,036,001,2019_May_16_1110,MusicAffectPsychophysiology2019,3.0.5,60.06314834732476,
To what extent did the music make you feel ,SAD,30MonoWAV/30MonoS4.wav,1,1,3,12,,,,,1,1,17,11,0,5,5,0,,,,,,,,,3,1.1677702820161358,,,036,001,2019_May_16_1110,MusicAffectPsychophysiology2019,3.0.5,60.06314834732476,
To what extent did the music make you feel ,GUILTY,30MonoWAV/30MonoS4.wav,1,1,3,12,,,,,1,1,17,11,0,6,6,5,,,,,,,,,1,2.3353137759841047,,,036,001,2019_May_16_1110,MusicAffectPsychophysiology2019,3.0.5,60.06314834732476,
To what extent did the music make you feel ,ACTIVE,30MonoWAV/30MonoS4.wav,1,1,3,12,,,,,1,1,17,11,0,7,7,9,,,,,,,,,1,1.0351422490202822,,,036,001,2019_May_16_1110,MusicAffectPsychophysiology2019,3.0.5,60.06314834732476,
To what extent did the music make you feel ,TENDER,30MonoWAV/30MonoS4.wav,1,1,3,12,,,,,1,1,17,11,0,8,8,10,,,,,,,,,3,1.1844365360157099,,,036,001,2019_May_16_1110,MusicAffectPsychophysiology2019,3.0.5,60.06314834732476,
To what extent did the music make you feel ,ANXIOUS ,30MonoWAV/30MonoS4.wav,1,1,3,12,,,,,1,1,17,11,0,9,9,1,,,,,,,,,2,1.269998059986392,,,036,001,2019_May_16_1110,MusicAffectPsychophysiology2019,3.0.5,60.06314834732476,
To what extent did the music make you feel ,ASHAMED,30MonoWAV/30MonoS4.wav,1,1,3,12,,,,,1,1,17,11,0,10,10,4,,,,,,,,,1,1.452264371997444,,,036,001,2019_May_16_1110,MusicAffectPsychophysiology2019,3.0.5,60.06314834732476,
To what extent did the music make you feel ,EXCITED,30MonoWAV/30MonoS4.wav,1,1,3,12,,,,,1,1,17,11,0,11,11,7,,,,,,,,,1,1.1509263979969546,,,036,001,2019_May_16_1110,MusicAffectPsychophysiology2019,3.0.5,60.06314834732476,
,,30MonoWAV/30MonoS4.wav,1,1,3,12,,,,,1,1,17,11,,,,,,,,,,,,,,,,,036,001,2019_May_16_1110,MusicAffectPsychophysiology2019,3.0.5,60.06314834732476,
To what extent did the music make you feel ,SAD,30MonoWAV/30MonoS1.wav,1,1,3,9,,,,,1,2,18,8,0,0,0,0,,,3,4.423172795999562,3,1.5539572720008437,3,2.407514247985091,3,5.951244409981882,,,036,001,2019_May_16_1110,MusicAffectPsychophysiology2019,3.0.5,60.06314834732476,
To what extent did the music make you feel ,ALERT,30MonoWAV/30MonoS1.wav,1,1,3,9,,,,,1,2,18,8,0,1,1,8,,,,,,,,,3,1.2682116279902402,,,036,001,2019_May_16_1110,MusicAffectPsychophysiology2019,3.0.5,60.06314834732476,
To what extent did the music make you feel ,GUILTY,30MonoWAV/30MonoS1.wav,1,1,3,9,,,,,1,2,18,8,0,2,2,5,,,,,,,,,1,2.3346349880157504,,,036,001,2019_May_16_1110,MusicAffectPsychophysiology2019,3.0.5,60.06314834732476,
To what extent did the music make you feel ,ASHAMED,30MonoWAV/30MonoS1.wav,1,1,3,9,,,,,1,2,18,8,0,3,3,4,,,,,,,,,1,1.0185242909938097,,,036,001,2019_May_16_1110,MusicAffectPsychophysiology2019,3.0.5,60.06314834732476,
To what extent did the music make you feel ,ANGRY,30MonoWAV/30MonoS1.wav,1,1,3,9,,,,,1,2,18,8,0,4,4,2,,,,,,,,,1,0.969422491005389,,,036,001,2019_May_16_1110,MusicAffectPsychophysiology2019,3.0.5,60.06314834732476,
To what extent did the music make you feel ,HAPPY,30MonoWAV/30MonoS1.wav,1,1,3,9,,,,,1,2,18,8,0,5,5,6,,,,,,,,,1,1.1181943799892906,,,036,001,2019_May_16_1110,MusicAffectPsychophysiology2019,3.0.5,60.06314834732476,
To what extent did the music make you feel ,FRUSTRATED,30MonoWAV/30MonoS1.wav,1,1,3,9,,,,,1,2,18,8,0,6,6,3,,,,,,,,,2,2.383883013011655,,,036,001,2019_May_16_1110,MusicAffectPsychophysiology2019,3.0.5,60.06314834732476,
To what extent did the music make you feel ,ANXIOUS ,30MonoWAV/30MonoS1.wav,1,1,3,9,,,,,1,2,18,8,0,7,7,1,,,,,,,,,2,1.0682467620063107,,,036,001,2019_May_16_1110,MusicAffectPsychophysiology2019,3.0.5,60.06314834732476,
To what extent did the music make you feel ,SCARED,30MonoWAV/30MonoS1.wav,1,1,3,9,,,,,1,2,18,8,0,8,8,11,,,,,,,,,2,1.218185966979945,,,036,001,2019_May_16_1110,MusicAffectPsychophysiology2019,3.0.5,60.06314834732476,
To what extent did the music make you feel ,TENDER,30MonoWAV/30MonoS1.wav,1,1,3,9,,,,,1,2,18,8,0,9,9,10,,,,,,,,,3,1.1346744149923325,,,036,001,2019_May_16_1110,MusicAffectPsychophysiology2019,3.0.5,60.06314834732476,
To what extent did the music make you feel ,EXCITED,30MonoWAV/30MonoS1.wav,1,1,3,9,,,,,1,2,18,8,0,10,10,7,,,,,,,,,2,2.483214555977611,,,036,001,2019_May_16_1110,MusicAffectPsychophysiology2019,3.0.5,60.06314834732476,
To what extent did the music make you feel ,ACTIVE,30MonoWAV/30MonoS1.wav,1,1,3,9,,,,,1,2,18,8,0,11,11,9,,,,,,,,,2,1.1512978420068976,,,036,001,2019_May_16_1110,MusicAffectPsychophysiology2019,3.0.5,60.06314834732476,
,,30MonoWAV/30MonoS1.wav,1,1,3,9,,,,,1,2,18,8,,,,,,,,,,,,,,,,,036,001,2019_May_16_1110,MusicAffectPsychophysiology2019,3.0.5,60.06314834732476,
To what extent did the music make you feel ,ACTIVE,30MonoWAV/30MonoT4.wav,2,1,4,16,,,,,1,3,19,15,0,0,0,9,,,3,4.301580707979156,3,3.4348784500034526,4,2.7859086460084654,3,1.200369545025751,,,036,001,2019_May_16_1110,MusicAffectPsychophysiology2019,3.0.5,60.06314834732476,
To what extent did the music make you feel ,TENDER,30MonoWAV/30MonoT4.wav,2,1,4,16,,,,,1,3,19,15,0,1,1,10,,,,,,,,,4,1.0514969509968068,,,036,001,2019_May_16_1110,MusicAffectPsychophysiology2019,3.0.5,60.06314834732476,
To what extent did the music make you feel ,SCARED,30MonoWAV/30MonoT4.wav,2,1,4,16,,,,,1,3,19,15,0,2,2,11,,,,,,,,,2,2.16935041200486,,,036,001,2019_May_16_1110,MusicAffectPsychophysiology2019,3.0.5,60.06314834732476,
To what extent did the music make you feel ,EXCITED,30MonoWAV/30MonoT4.wav,2,1,4,16,,,,,1,3,19,15,0,3,3,7,,,,,,,,,3,1.5839810589968693,,,036,001,2019_May_16_1110,MusicAffectPsychophysiology2019,3.0.5,60.06314834732476,
To what extent did the music make you feel ,ALERT,30MonoWAV/30MonoT4.wav,2,1,4,16,,,,,1,3,19,15,0,4,4,8,,,,,,,,,3,1.916535374999512,,,036,001,2019_May_16_1110,MusicAffectPsychophysiology2019,3.0.5,60.06314834732476,
To what extent did the music make you feel ,HAPPY,30MonoWAV/30MonoT4.wav,2,1,4,16,,,,,1,3,19,15,0,5,5,6,,,,,,,,,2,3.252188615006162,,,036,001,2019_May_16_1110,MusicAffectPsychophysiology2019,3.0.5,60.06314834732476,
To what extent did the music make you feel ,FRUSTRATED,30MonoWAV/30MonoT4.wav,2,1,4,16,,,,,1,3,19,15,0,6,6,3,,,,,,,,,2,0.9335878410201985,,,036,001,2019_May_16_1110,MusicAffectPsychophysiology2019,3.0.5,60.06314834732476,
To what extent did the music make you feel ,ASHAMED,30MonoWAV/30MonoT4.wav,2,1,4,16,,,,,1,3,19,15,0,7,7,4,,,,,,,,,1,1.0512998559861444,,,036,001,2019_May_16_1110,MusicAffectPsychophysiology2019,3.0.5,60.06314834732476,
To what extent did the music make you feel ,ANXIOUS ,30MonoWAV/30MonoT4.wav,2,1,4,16,,,,,1,3,19,15,0,8,8,1,,,,,,,,,2,0.85200093901949,,,036,001,2019_May_16_1110,MusicAffectPsychophysiology2019,3.0.5,60.06314834732476,
To what extent did the music make you feel ,ANGRY,30MonoWAV/30MonoT4.wav,2,1,4,16,,,,,1,3,19,15,0,9,9,2,,,,,,,,,1,0.8856356029864401,,,036,001,2019_May_16_1110,MusicAffectPsychophysiology2019,3.0.5,60.06314834732476,
To what extent did the music make you feel ,SAD,30MonoWAV/30MonoT4.wav,2,1,4,16,,,,,1,3,19,15,0,10,10,0,,,,,,,,,2,1.1690288089739624,,,036,001,2019_May_16_1110,MusicAffectPsychophysiology2019,3.0.5,60.06314834732476,
To what extent did the music make you feel ,GUILTY,30MonoWAV/30MonoT4.wav,2,1,4,16,,,,,1,3,19,15,0,11,11,5,,,,,,,,,2,1.182700992008904,,,036,001,2019_May_16_1110,MusicAffectPsychophysiology2019,3.0.5,60.06314834732476,
,,30MonoWAV/30MonoT4.wav,2,1,4,16,,,,,1,3,19,15,,,,,,,,,,,,,,,,,036,001,2019_May_16_1110,MusicAffectPsychophysiology2019,3.0.5,60.06314834732476,
To what extent did the music make you feel ,ANXIOUS ,30MonoWAV/30MonoT2.wav,2,1,4,14,,,,,1,4,20,13,0,0,0,1,,,2,7.184823872987181,2,3.433985064009903,2,1.7531982169894036,1,1.6358514309977181,,,036,001,2019_May_16_1110,MusicAffectPsychophysiology2019,3.0.5,60.06314834732476,
To what extent did the music make you feel ,SCARED,30MonoWAV/30MonoT2.wav,2,1,4,14,,,,,1,4,20,13,0,1,1,11,,,,,,,,,1,1.5399557980126701,,,036,001,2019_May_16_1110,MusicAffectPsychophysiology2019,3.0.5,60.06314834732476,
To what extent did the music make you feel ,EXCITED,30MonoWAV/30MonoT2.wav,2,1,4,14,,,,,1,4,20,13,0,2,2,7,,,,,,,,,2,1.1699515870132018,,,036,001,2019_May_16_1110,MusicAffectPsychophysiology2019,3.0.5,60.06314834732476,
To what extent did the music make you feel ,SAD,30MonoWAV/30MonoT2.wav,2,1,4,14,,,,,1,4,20,13,0,3,3,0,,,,,,,,,2,2.8215060319926124,,,036,001,2019_May_16_1110,MusicAffectPsychophysiology2019,3.0.5,60.06314834732476,
To what extent did the music make you feel ,ALERT,30MonoWAV/30MonoT2.wav,2,1,4,14,,,,,1,4,20,13,0,4,4,8,,,,,,,,,1,1.386740053014364,,,036,001,2019_May_16_1110,MusicAffectPsychophysiology2019,3.0.5,60.06314834732476,
To what extent did the music make you feel ,HAPPY,30MonoWAV/30MonoT2.wav,2,1,4,14,,,,,1,4,20,13,0,5,5,6,,,,,,,,,1,1.9246776300133206,,,036,001,2019_May_16_1110,MusicAffectPsychophysiology2019,3.0.5,60.06314834732476,
To what extent did the music make you feel ,FRUSTRATED,30MonoWAV/30MonoT2.wav,2,1,4,14,,,,,1,4,20,13,0,6,6,3,,,,,,,,,2,1.0673019099922385,,,036,001,2019_May_16_1110,MusicAffectPsychophysiology2019,3.0.5,60.06314834732476,
To what extent did the music make you feel ,ASHAMED,30MonoWAV/30MonoT2.wav,2,1,4,14,,,,,1,4,20,13,0,7,7,4,,,,,,,,,1,2.7510911360150203,,,036,001,2019_May_16_1110,MusicAffectPsychophysiology2019,3.0.5,60.06314834732476,
To what extent did the music make you feel ,TENDER,30MonoWAV/30MonoT2.wav,2,1,4,14,,,,,1,4,20,13,0,8,8,10,,,,,,,,,3,1.5188988059817348,,,036,001,2019_May_16_1110,MusicAffectPsychophysiology2019,3.0.5,60.06314834732476,
To what extent did the music make you feel ,GUILTY,30MonoWAV/30MonoT2.wav,2,1,4,14,,,,,1,4,20,13,0,9,9,5,,,,,,,,,1,1.434941572981188,,,036,001,2019_May_16_1110,MusicAffectPsychophysiology2019,3.0.5,60.06314834732476,
To what extent did the music make you feel ,ACTIVE,30MonoWAV/30MonoT2.wav,2,1,4,14,,,,,1,4,20,13,0,10,10,9,,,,,,,,,1,1.5690652199846227,,,036,001,2019_May_16_1110,MusicAffectPsychophysiology2019,3.0.5,60.06314834732476,
To what extent did the music make you feel ,ANGRY,30MonoWAV/30MonoT2.wav,2,1,4,14,,,,,1,4,20,13,0,11,11,2,,,,,,,,,1,1.2023781850002706,,,036,001,2019_May_16_1110,MusicAffectPsychophysiology2019,3.0.5,60.06314834732476,
,,30MonoWAV/30MonoT2.wav,2,1,4,14,,,,,1,4,20,13,,,,,,,,,,,,,,,,,036,001,2019_May_16_1110,MusicAffectPsychophysiology2019,3.0.5,60.06314834732476,
To what extent did the music make you feel ,TENDER,30MonoWAV/30MonoS3.wav,1,1,3,11,,,,,1,5,21,10,0,0,0,10,,,3,3.600654918991495,2,1.7692680250038393,3,1.7503908450016752,3,1.2690284099953715,,,036,001,2019_May_16_1110,MusicAffectPsychophysiology2019,3.0.5,60.06314834732476,
To what extent did the music make you feel ,ACTIVE,30MonoWAV/30MonoS3.wav,1,1,3,11,,,,,1,5,21,10,0,1,1,9,,,,,,,,,2,1.453151349996915,,,036,001,2019_May_16_1110,MusicAffectPsychophysiology2019,3.0.5,60.06314834732476,
To what extent did the music make you feel ,SCARED,30MonoWAV/30MonoS3.wav,1,1,3,11,,,,,1,5,21,10,0,2,2,11,,,,,,,,,3,1.3355087759846356,,,036,001,2019_May_16_1110,MusicAffectPsychophysiology2019,3.0.5,60.06314834732476,
To what extent did the music make you feel ,ALERT,30MonoWAV/30MonoS3.wav,1,1,3,11,,,,,1,5,21,10,0,3,3,8,,,,,,,,,2,3.615544995001983,,,036,001,2019_May_16_1110,MusicAffectPsychophysiology2019,3.0.5,60.06314834732476,
To what extent did the music make you feel ,ASHAMED,30MonoWAV/30MonoS3.wav,1,1,3,11,,,,,1,5,21,10,0,4,4,4,,,,,,,,,1,1.3859467029978987,,,036,001,2019_May_16_1110,MusicAffectPsychophysiology2019,3.0.5,60.06314834732476,
To what extent did the music make you feel ,HAPPY,30MonoWAV/30MonoS3.wav,1,1,3,11,,,,,1,5,21,10,0,5,5,6,,,,,,,,,2,0.9352222800080199,,,036,001,2019_May_16_1110,MusicAffectPsychophysiology2019,3.0.5,60.06314834732476,
To what extent did the music make you feel ,FRUSTRATED,30MonoWAV/30MonoS3.wav,1,1,3,11,,,,,1,5,21,10,0,6,6,3,,,,,,,,,1,1.0856514959887136,,,036,001,2019_May_16_1110,MusicAffectPsychophysiology2019,3.0.5,60.06314834732476,
To what extent did the music make you feel ,GUILTY,30MonoWAV/30MonoS3.wav,1,1,3,11,,,,,1,5,21,10,0,7,7,5,,,,,,,,,1,1.2557978380064014,,,036,001,2019_May_16_1110,MusicAffectPsychophysiology2019,3.0.5,60.06314834732476,
To what extent did the music make you feel ,EXCITED,30MonoWAV/30MonoS3.wav,1,1,3,11,,,,,1,5,21,10,0,8,8,7,,,,,,,,,3,2.171020612004213,,,036,001,2019_May_16_1110,MusicAffectPsychophysiology2019,3.0.5,60.06314834732476,
To what extent did the music make you feel ,ANXIOUS ,30MonoWAV/30MonoS3.wav,1,1,3,11,,,,,1,5,21,10,0,9,9,1,,,,,,,,,2,3.08830136700999,,,036,001,2019_May_16_1110,MusicAffectPsychophysiology2019,3.0.5,60.06314834732476,
To what extent did the music make you feel ,ANGRY,30MonoWAV/30MonoS3.wav,1,1,3,11,,,,,1,5,21,10,0,10,10,2,,,,,,,,,1,1.2198698490101378,,,036,001,2019_May_16_1110,MusicAffectPsychophysiology2019,3.0.5,60.06314834732476,
To what extent did the music make you feel ,SAD,30MonoWAV/30MonoS3.wav,1,1,3,11,,,,,1,5,21,10,0,11,11,0,,,,,,,,,3,1.2225410389946774,,,036,001,2019_May_16_1110,MusicAffectPsychophysiology2019,3.0.5,60.06314834732476,
,,30MonoWAV/30MonoS3.wav,1,1,3,11,,,,,1,5,21,10,,,,,,,,,,,,,,,,,036,001,2019_May_16_1110,MusicAffectPsychophysiology2019,3.0.5,60.06314834732476,
To what extent did the music make you feel ,HAPPY,30MonoWAV/30MonoH4.wav,2,2,1,8,,,,,1,6,22,7,0,0,0,6,,,3,3.6187933049804997,3,1.0183512850198895,3,1.717246687010629,4,1.6687428209988866,,,036,001,2019_May_16_1110,MusicAffectPsychophysiology2019,3.0.5,60.06314834732476,
To what extent did the music make you feel ,TENDER,30MonoWAV/30MonoH4.wav,2,2,1,8,,,,,1,6,22,7,0,1,1,10,,,,,,,,,2,1.6678430800093338,,,036,001,2019_May_16_1110,MusicAffectPsychophysiology2019,3.0.5,60.06314834732476,
To what extent did the music make you feel ,SCARED,30MonoWAV/30MonoH4.wav,2,2,1,8,,,,,1,6,22,7,0,2,2,11,,,,,,,,,1,0.952330414991593,,,036,001,2019_May_16_1110,MusicAffectPsychophysiology2019,3.0.5,60.06314834732476,
To what extent did the music make you feel ,SAD,30MonoWAV/30MonoH4.wav,2,2,1,8,,,,,1,6,22,7,0,3,3,0,,,,,,,,,1,1.3850317830219865,,,036,001,2019_May_16_1110,MusicAffectPsychophysiology2019,3.0.5,60.06314834732476,
To what extent did the music make you feel ,FRUSTRATED,30MonoWAV/30MonoH4.wav,2,2,1,8,,,,,1,6,22,7,0,4,4,3,,,,,,,,,2,0.8858296099933796,,,036,001,2019_May_16_1110,MusicAffectPsychophysiology2019,3.0.5,60.06314834732476,
To what extent did the music make you feel ,EXCITED,30MonoWAV/30MonoH4.wav,2,2,1,8,,,,,1,6,22,7,0,5,5,7,,,,,,,,,2,1.2189793459838256,,,036,001,2019_May_16_1110,MusicAffectPsychophysiology2019,3.0.5,60.06314834732476,
To what extent did the music make you feel ,ASHAMED,30MonoWAV/30MonoH4.wav,2,2,1,8,,,,,1,6,22,7,0,6,6,4,,,,,,,,,1,1.934476022986928,,,036,001,2019_May_16_1110,MusicAffectPsychophysiology2019,3.0.5,60.06314834732476,
To what extent did the music make you feel ,ANXIOUS ,30MonoWAV/30MonoH4.wav,2,2,1,8,,,,,1,6,22,7,0,7,7,1,,,,,,,,,2,1.768687989009777,,,036,001,2019_May_16_1110,MusicAffectPsychophysiology2019,3.0.5,60.06314834732476,
To what extent did the music make you feel ,GUILTY,30MonoWAV/30MonoH4.wav,2,2,1,8,,,,,1,6,22,7,0,8,8,5,,,,,,,,,1,0.9686849229910877,,,036,001,2019_May_16_1110,MusicAffectPsychophysiology2019,3.0.5,60.06314834732476,
To what extent did the music make you feel ,ALERT,30MonoWAV/30MonoH4.wav,2,2,1,8,,,,,1,6,22,7,0,9,9,8,,,,,,,,,3,1.4676470989943482,,,036,001,2019_May_16_1110,MusicAffectPsychophysiology2019,3.0.5,60.06314834732476,
To what extent did the music make you feel ,ANGRY,30MonoWAV/30MonoH4.wav,2,2,1,8,,,,,1,6,22,7,0,10,10,2,,,,,,,,,2,1.6354274089972023,,,036,001,2019_May_16_1110,MusicAffectPsychophysiology2019,3.0.5,60.06314834732476,
To what extent did the music make you feel ,ACTIVE,30MonoWAV/30MonoH4.wav,2,2,1,8,,,,,1,6,22,7,0,11,11,9,,,,,,,,,1,2.552219426986994,,,036,001,2019_May_16_1110,MusicAffectPsychophysiology2019,3.0.5,60.06314834732476,
,,30MonoWAV/30MonoH4.wav,2,2,1,8,,,,,1,6,22,7,,,,,,,,,,,,,,,,,036,001,2019_May_16_1110,MusicAffectPsychophysiology2019,3.0.5,60.06314834732476,
To what extent did the music make you feel ,ANXIOUS ,30MonoWAV/30MonoH1.wav,2,2,1,5,,,,,1,7,23,4,0,0,0,1,,,2,3.2010138840123545,3,2.2851623599999584,4,1.134468410979025,1,3.2336449409776833,,,036,001,2019_May_16_1110,MusicAffectPsychophysiology2019,3.0.5,60.06314834732476,
To what extent did the music make you feel ,ACTIVE,30MonoWAV/30MonoH1.wav,2,2,1,5,,,,,1,7,23,4,0,1,1,9,,,,,,,,,2,1.452059258997906,,,036,001,2019_May_16_1110,MusicAffectPsychophysiology2019,3.0.5,60.06314834732476,
To what extent did the music make you feel ,ANGRY,30MonoWAV/30MonoH1.wav,2,2,1,5,,,,,1,7,23,4,0,2,2,2,,,,,,,,,1,1.0350924340018537,,,036,001,2019_May_16_1110,MusicAffectPsychophysiology2019,3.0.5,60.06314834732476,
To what extent did the music make you feel ,ALERT,30MonoWAV/30MonoH1.wav,2,2,1,5,,,,,1,7,23,4,0,3,3,8,,,,,,,,,3,0.9190908460004721,,,036,001,2019_May_16_1110,MusicAffectPsychophysiology2019,3.0.5,60.06314834732476,
To what extent did the music make you feel ,SAD,30MonoWAV/30MonoH1.wav,2,2,1,5,,,,,1,7,23,4,0,4,4,0,,,,,,,,,2,1.1193496710038744,,,036,001,2019_May_16_1110,MusicAffectPsychophysiology2019,3.0.5,60.06314834732476,
To what extent did the music make you feel ,GUILTY,30MonoWAV/30MonoH1.wav,2,2,1,5,,,,,1,7,23,4,0,5,5,5,,,,,,,,,2,1.5845443150028586,,,036,001,2019_May_16_1110,MusicAffectPsychophysiology2019,3.0.5,60.06314834732476,
To what extent did the music make you feel ,EXCITED,30MonoWAV/30MonoH1.wav,2,2,1,5,,,,,1,7,23,4,0,6,6,7,,,,,,,,,4,1.0860350969887804,,,036,001,2019_May_16_1110,MusicAffectPsychophysiology2019,3.0.5,60.06314834732476,
To what extent did the music make you feel ,SCARED,30MonoWAV/30MonoH1.wav,2,2,1,5,,,,,1,7,23,4,0,7,7,11,,,,,,,,,1,1.6192957980092615,,,036,001,2019_May_16_1110,MusicAffectPsychophysiology2019,3.0.5,60.06314834732476,
To what extent did the music make you feel ,TENDER,30MonoWAV/30MonoH1.wav,2,2,1,5,,,,,1,7,23,4,0,8,8,10,,,,,,,,,3,0.9014244499849156,,,036,001,2019_May_16_1110,MusicAffectPsychophysiology2019,3.0.5,60.06314834732476,
To what extent did the music make you feel ,HAPPY,30MonoWAV/30MonoH1.wav,2,2,1,5,,,,,1,7,23,4,0,9,9,6,,,,,,,,,3,2.68517406200408,,,036,001,2019_May_16_1110,MusicAffectPsychophysiology2019,3.0.5,60.06314834732476,
To what extent did the music make you feel ,FRUSTRATED,30MonoWAV/30MonoH1.wav,2,2,1,5,,,,,1,7,23,4,0,10,10,3,,,,,,,,,2,6.834601212001871,,,036,001,2019_May_16_1110,MusicAffectPsychophysiology2019,3.0.5,60.06314834732476,
To what extent did the music make you feel ,ASHAMED,30MonoWAV/30MonoH1.wav,2,2,1,5,,,,,1,7,23,4,0,11,11,4,,,,,,,,,1,1.2335122489894275,,,036,001,2019_May_16_1110,MusicAffectPsychophysiology2019,3.0.5,60.06314834732476,
,,30MonoWAV/30MonoH1.wav,2,2,1,5,,,,,1,7,23,4,,,,,,,,,,,,,,,,,036,001,2019_May_16_1110,MusicAffectPsychophysiology2019,3.0.5,60.06314834732476,
To what extent did the music make you feel ,ANXIOUS ,30MonoWAV/30MonoT1.wav,2,1,4,13,,,,,1,8,24,12,0,0,0,1,,,2,3.302373044018168,2,1.5523980419966392,2,1.6189570589922369,1,2.185664733988233,,,036,001,2019_May_16_1110,MusicAffectPsychophysiology2019,3.0.5,60.06314834732476,
To what extent did the music make you feel ,SCARED,30MonoWAV/30MonoT1.wav,2,1,4,13,,,,,1,8,24,12,0,1,1,11,,,,,,,,,1,0.9178829139855225,,,036,001,2019_May_16_1110,MusicAffectPsychophysiology2019,3.0.5,60.06314834732476,
To what extent did the music make you feel ,EXCITED,30MonoWAV/30MonoT1.wav,2,1,4,13,,,,,1,8,24,12,0,2,2,7,,,,,,,,,1,1.052625391021138,,,036,001,2019_May_16_1110,MusicAffectPsychophysiology2019,3.0.5,60.06314834732476,
To what extent did the music make you feel ,SAD,30MonoWAV/30MonoT1.wav,2,1,4,13,,,,,1,8,24,12,0,3,3,0,,,,,,,,,3,2.55157249601325,,,036,001,2019_May_16_1110,MusicAffectPsychophysiology2019,3.0.5,60.06314834732476,
To what extent did the music make you feel ,FRUSTRATED,30MonoWAV/30MonoT1.wav,2,1,4,13,,,,,1,8,24,12,0,4,4,3,,,,,,,,,2,1.616430747002596,,,036,001,2019_May_16_1110,MusicAffectPsychophysiology2019,3.0.5,60.06314834732476,
To what extent did the music make you feel ,TENDER,30MonoWAV/30MonoT1.wav,2,1,4,13,,,,,1,8,24,12,0,5,5,10,,,,,,,,,3,0.9512065430171788,,,036,001,2019_May_16_1110,MusicAffectPsychophysiology2019,3.0.5,60.06314834732476,
To what extent did the music make you feel ,ASHAMED,30MonoWAV/30MonoT1.wav,2,1,4,13,,,,,1,8,24,12,0,6,6,4,,,,,,,,,1,1.0681349750084337,,,036,001,2019_May_16_1110,MusicAffectPsychophysiology2019,3.0.5,60.06314834732476,
To what extent did the music make you feel ,GUILTY,30MonoWAV/30MonoT1.wav,2,1,4,13,,,,,1,8,24,12,0,7,7,5,,,,,,,,,2,1.386049210006604,,,036,001,2019_May_16_1110,MusicAffectPsychophysiology2019,3.0.5,60.06314834732476,
To what extent did the music make you feel ,ALERT,30MonoWAV/30MonoT1.wav,2,1,4,13,,,,,1,8,24,12,0,8,8,8,,,,,,,,,1,1.5013692719803657,,,036,001,2019_May_16_1110,MusicAffectPsychophysiology2019,3.0.5,60.06314834732476,
To what extent did the music make you feel ,HAPPY,30MonoWAV/30MonoT1.wav,2,1,4,13,,,,,1,8,24,12,0,9,9,6,,,,,,,,,1,1.7404423980042338,,,036,001,2019_May_16_1110,MusicAffectPsychophysiology2019,3.0.5,60.06314834732476,
To what extent did the music make you feel ,ANGRY,30MonoWAV/30MonoT1.wav,2,1,4,13,,,,,1,8,24,12,0,10,10,2,,,,,,,,,2,4.454998021014035,,,036,001,2019_May_16_1110,MusicAffectPsychophysiology2019,3.0.5,60.06314834732476,
To what extent did the music make you feel ,ACTIVE,30MonoWAV/30MonoT1.wav,2,1,4,13,,,,,1,8,24,12,0,11,11,9,,,,,,,,,2,1.787318413000321,,,036,001,2019_May_16_1110,MusicAffectPsychophysiology2019,3.0.5,60.06314834732476,
,,30MonoWAV/30MonoT1.wav,2,1,4,13,,,,,1,8,24,12,,,,,,,,,,,,,,,,,036,001,2019_May_16_1110,MusicAffectPsychophysiology2019,3.0.5,60.06314834732476,
To what extent did the music make you feel ,FRUSTRATED,30MonoWAV/30MonoF3.wav,1,2,2,3,,,,,1,9,25,2,0,0,0,3,,,2,10.902123545005452,2,2.201908196992008,2,2.1513076670235023,3,1.4867273640120402,,,036,001,2019_May_16_1110,MusicAffectPsychophysiology2019,3.0.5,60.06314834732476,
To what extent did the music make you feel ,ACTIVE,30MonoWAV/30MonoF3.wav,1,2,2,3,,,,,1,9,25,2,0,1,1,9,,,,,,,,,1,1.119756853004219,,,036,001,2019_May_16_1110,MusicAffectPsychophysiology2019,3.0.5,60.06314834732476,
To what extent did the music make you feel ,SCARED,30MonoWAV/30MonoF3.wav,1,2,2,3,,,,,1,9,25,2,0,2,2,11,,,,,,,,,3,2.17070999200223,,,036,001,2019_May_16_1110,MusicAffectPsychophysiology2019,3.0.5,60.06314834732476,
To what extent did the music make you feel ,ANXIOUS ,30MonoWAV/30MonoF3.wav,1,2,2,3,,,,,1,9,25,2,0,3,3,1,,,,,,,,,2,1.602423294010805,,,036,001,2019_May_16_1110,MusicAffectPsychophysiology2019,3.0.5,60.06314834732476,
To what extent did the music make you feel ,HAPPY,30MonoWAV/30MonoF3.wav,1,2,2,3,,,,,1,9,25,2,0,4,4,6,,,,,,,,,1,1.3032184170151595,,,036,001,2019_May_16_1110,MusicAffectPsychophysiology2019,3.0.5,60.06314834732476,
To what extent did the music make you feel ,SAD,30MonoWAV/30MonoF3.wav,1,2,2,3,,,,,1,9,25,2,0,5,5,0,,,,,,,,,1,1.1710623480030335,,,036,001,2019_May_16_1110,MusicAffectPsychophysiology2019,3.0.5,60.06314834732476,
To what extent did the music make you feel ,ANGRY,30MonoWAV/30MonoF3.wav,1,2,2,3,,,,,1,9,25,2,0,6,6,2,,,,,,,,,3,1.1017903379979543,,,036,001,2019_May_16_1110,MusicAffectPsychophysiology2019,3.0.5,60.06314834732476,
To what extent did the music make you feel ,EXCITED,30MonoWAV/30MonoF3.wav,1,2,2,3,,,,,1,9,25,2,0,7,7,7,,,,,,,,,1,2.3676236589963082,,,036,001,2019_May_16_1110,MusicAffectPsychophysiology2019,3.0.5,60.06314834732476,
To what extent did the music make you feel ,GUILTY,30MonoWAV/30MonoF3.wav,1,2,2,3,,,,,1,9,25,2,0,8,8,5,,,,,,,,,2,2.7192395550082438,,,036,001,2019_May_16_1110,MusicAffectPsychophysiology2019,3.0.5,60.06314834732476,
To what extent did the music make you feel ,TENDER,30MonoWAV/30MonoF3.wav,1,2,2,3,,,,,1,9,25,2,0,9,9,10,,,,,,,,,3,1.5185713850078173,,,036,001,2019_May_16_1110,MusicAffectPsychophysiology2019,3.0.5,60.06314834732476,
To what extent did the music make you feel ,ALERT,30MonoWAV/30MonoF3.wav,1,2,2,3,,,,,1,9,25,2,0,10,10,8,,,,,,,,,3,1.0507277050055563,,,036,001,2019_May_16_1110,MusicAffectPsychophysiology2019,3.0.5,60.06314834732476,
To what extent did the music make you feel ,ASHAMED,30MonoWAV/30MonoF3.wav,1,2,2,3,,,,,1,9,25,2,0,11,11,4,,,,,,,,,2,1.6688812749926,,,036,001,2019_May_16_1110,MusicAffectPsychophysiology2019,3.0.5,60.06314834732476,
,,30MonoWAV/30MonoF3.wav,1,2,2,3,,,,,1,9,25,2,,,,,,,,,,,,,,,,,036,001,2019_May_16_1110,MusicAffectPsychophysiology2019,3.0.5,60.06314834732476,
To what extent did the music make you feel ,ALERT,30MonoWAV/30MonoT3.wav,2,1,4,15,,,,,1,10,26,14,0,0,0,8,,,2,4.285624819021905,2,1.43497077000211,2,1.2347356179961935,2,1.7352499469998293,,,036,001,2019_May_16_1110,MusicAffectPsychophysiology2019,3.0.5,60.06314834732476,
To what extent did the music make you feel ,HAPPY,30MonoWAV/30MonoT3.wav,2,1,4,15,,,,,1,10,26,14,0,1,1,6,,,,,,,,,2,1.0350393620028626,,,036,001,2019_May_16_1110,MusicAffectPsychophysiology2019,3.0.5,60.06314834732476,
To what extent did the music make you feel ,SAD,30MonoWAV/30MonoT3.wav,2,1,4,15,,,,,1,10,26,14,0,2,2,0,,,,,,,,,3,0.9351722470019013,,,036,001,2019_May_16_1110,MusicAffectPsychophysiology2019,3.0.5,60.06314834732476,
To what extent did the music make you feel ,SCARED,30MonoWAV/30MonoT3.wav,2,1,4,15,,,,,1,10,26,14,0,3,3,11,,,,,,,,,3,1.0522877099865582,,,036,001,2019_May_16_1110,MusicAffectPsychophysiology2019,3.0.5,60.06314834732476,
To what extent did the music make you feel ,FRUSTRATED,30MonoWAV/30MonoT3.wav,2,1,4,15,,,,,1,10,26,14,0,4,4,3,,,,,,,,,3,1.2350217950006481,,,036,001,2019_May_16_1110,MusicAffectPsychophysiology2019,3.0.5,60.06314834732476,
To what extent did the music make you feel ,ANXIOUS ,30MonoWAV/30MonoT3.wav,2,1,4,15,,,,,1,10,26,14,0,5,5,1,,,,,,,,,1,1.4518323749944102,,,036,001,2019_May_16_1110,MusicAffectPsychophysiology2019,3.0.5,60.06314834732476,
To what extent did the music make you feel ,EXCITED,30MonoWAV/30MonoT3.wav,2,1,4,15,,,,,1,10,26,14,0,6,6,7,,,,,,,,,1,1.1862408149754629,,,036,001,2019_May_16_1110,MusicAffectPsychophysiology2019,3.0.5,60.06314834732476,
To what extent did the music make you feel ,TENDER,30MonoWAV/30MonoT3.wav,2,1,4,15,,,,,1,10,26,14,0,7,7,10,,,,,,,,,3,1.1017687610001303,,,036,001,2019_May_16_1110,MusicAffectPsychophysiology2019,3.0.5,60.06314834732476,
To what extent did the music make you feel ,ANGRY,30MonoWAV/30MonoT3.wav,2,1,4,15,,,,,1,10,26,14,0,8,8,2,,,,,,,,,1,1.6183046250080224,,,036,001,2019_May_16_1110,MusicAffectPsychophysiology2019,3.0.5,60.06314834732476,
To what extent did the music make you feel ,ACTIVE,30MonoWAV/30MonoT3.wav,2,1,4,15,,,,,1,10,26,14,0,9,9,9,,,,,,,,,2,1.1071291599946562,,,036,001,2019_May_16_1110,MusicAffectPsychophysiology2019,3.0.5,60.06314834732476,
To what extent did the music make you feel ,GUILTY,30MonoWAV/30MonoT3.wav,2,1,4,15,,,,,1,10,26,14,0,10,10,5,,,,,,,,,3,2.13740395399509,,,036,001,2019_May_16_1110,MusicAffectPsychophysiology2019,3.0.5,60.06314834732476,
To what extent did the music make you feel ,ASHAMED,30MonoWAV/30MonoT3.wav,2,1,4,15,,,,,1,10,26,14,0,11,11,4,,,,,,,,,3,1.8709898800007068,,,036,001,2019_May_16_1110,MusicAffectPsychophysiology2019,3.0.5,60.06314834732476,
,,30MonoWAV/30MonoT3.wav,2,1,4,15,,,,,1,10,26,14,,,,,,,,,,,,,,,,,036,001,2019_May_16_1110,MusicAffectPsychophysiology2019,3.0.5,60.06314834732476,
To what extent did the music make you feel ,ANXIOUS ,30MonoWAV/30MonoS2.wav,1,1,3,10,,,,,1,11,27,9,0,0,0,1,,,2,3.1196512609894853,2,1.5007387299847323,2,1.2016878069844097,2,1.1023210829880554,,,036,001,2019_May_16_1110,MusicAffectPsychophysiology2019,3.0.5,60.06314834732476,
To what extent did the music make you feel ,FRUSTRATED,30MonoWAV/30MonoS2.wav,1,1,3,10,,,,,1,11,27,9,0,1,1,3,,,,,,,,,2,0.8521169010200538,,,036,001,2019_May_16_1110,MusicAffectPsychophysiology2019,3.0.5,60.06314834732476,
To what extent did the music make you feel ,EXCITED,30MonoWAV/30MonoS2.wav,1,1,3,10,,,,,1,11,27,9,0,2,2,7,,,,,,,,,1,2.384520805993816,,,036,001,2019_May_16_1110,MusicAffectPsychophysiology2019,3.0.5,60.06314834732476,
To what extent did the music make you feel ,ALERT,30MonoWAV/30MonoS2.wav,1,1,3,10,,,,,1,11,27,9,0,3,3,8,,,,,,,,,1,1.2851029390003532,,,036,001,2019_May_16_1110,MusicAffectPsychophysiology2019,3.0.5,60.06314834732476,
To what extent did the music make you feel ,ASHAMED,30MonoWAV/30MonoS2.wav,1,1,3,10,,,,,1,11,27,9,0,4,4,4,,,,,,,,,2,1.218928201997187,,,036,001,2019_May_16_1110,MusicAffectPsychophysiology2019,3.0.5,60.06314834732476,
To what extent did the music make you feel ,GUILTY,30MonoWAV/30MonoS2.wav,1,1,3,10,,,,,1,11,27,9,0,5,5,5,,,,,,,,,2,1.2341725929873064,,,036,001,2019_May_16_1110,MusicAffectPsychophysiology2019,3.0.5,60.06314834732476,
To what extent did the music make you feel ,ACTIVE,30MonoWAV/30MonoS2.wav,1,1,3,10,,,,,1,11,27,9,0,6,6,9,,,,,,,,,1,1.634294832998421,,,036,001,2019_May_16_1110,MusicAffectPsychophysiology2019,3.0.5,60.06314834732476,
To what extent did the music make you feel ,ANGRY,30MonoWAV/30MonoS2.wav,1,1,3,10,,,,,1,11,27,9,0,7,7,2,,,,,,,,,2,1.4690761480014771,,,036,001,2019_May_16_1110,MusicAffectPsychophysiology2019,3.0.5,60.06314834732476,
To what extent did the music make you feel ,SAD,30MonoWAV/30MonoS2.wav,1,1,3,10,,,,,1,11,27,9,0,8,8,0,,,,,,,,,2,1.150628964009229,,,036,001,2019_May_16_1110,MusicAffectPsychophysiology2019,3.0.5,60.06314834732476,
To what extent did the music make you feel ,HAPPY,30MonoWAV/30MonoS2.wav,1,1,3,10,,,,,1,11,27,9,0,9,9,6,,,,,,,,,2,7.798704269982409,,,036,001,2019_May_16_1110,MusicAffectPsychophysiology2019,3.0.5,60.06314834732476,
To what extent did the music make you feel ,SCARED,30MonoWAV/30MonoS2.wav,1,1,3,10,,,,,1,11,27,9,0,10,10,11,,,,,,,,,2,1.102648300002329,,,036,001,2019_May_16_1110,MusicAffectPsychophysiology2019,3.0.5,60.06314834732476,
To what extent did the music make you feel ,TENDER,30MonoWAV/30MonoS2.wav,1,1,3,10,,,,,1,11,27,9,0,11,11,10,,,,,,,,,3,1.000586321024457,,,036,001,2019_May_16_1110,MusicAffectPsychophysiology2019,3.0.5,60.06314834732476,
,,30MonoWAV/30MonoS2.wav,1,1,3,10,,,,,1,11,27,9,,,,,,,,,,,,,,,,,036,001,2019_May_16_1110,MusicAffectPsychophysiology2019,3.0.5,60.06314834732476,
To what extent did the music make you feel ,EXCITED,30MonoWAV/30MonoF2.wav,1,2,2,2,,,,,1,12,28,1,0,0,0,7,,,2,3.8844111780053936,2,1.3360760869982187,3,1.1684144149767235,3,1.9364085310080554,,,036,001,2019_May_16_1110,MusicAffectPsychophysiology2019,3.0.5,60.06314834732476,
To what extent did the music make you feel ,FRUSTRATED,30MonoWAV/30MonoF2.wav,1,2,2,2,,,,,1,12,28,1,0,1,1,3,,,,,,,,,2,1.485051477997331,,,036,001,2019_May_16_1110,MusicAffectPsychophysiology2019,3.0.5,60.06314834732476,
To what extent did the music make you feel ,TENDER,30MonoWAV/30MonoF2.wav,1,2,2,2,,,,,1,12,28,1,0,2,2,10,,,,,,,,,2,1.185234227014007,,,036,001,2019_May_16_1110,MusicAffectPsychophysiology2019,3.0.5,60.06314834732476,
To what extent did the music make you feel ,SCARED,30MonoWAV/30MonoF2.wav,1,2,2,2,,,,,1,12,28,1,0,3,3,11,,,,,,,,,3,1.250228396995226,,,036,001,2019_May_16_1110,MusicAffectPsychophysiology2019,3.0.5,60.06314834732476,
To what extent did the music make you feel ,GUILTY,30MonoWAV/30MonoF2.wav,1,2,2,2,,,,,1,12,28,1,0,4,4,5,,,,,,,,,3,1.6402561150025576,,,036,001,2019_May_16_1110,MusicAffectPsychophysiology2019,3.0.5,60.06314834732476,
To what extent did the music make you feel ,ANGRY,30MonoWAV/30MonoF2.wav,1,2,2,2,,,,,1,12,28,1,0,5,5,2,,,,,,,,,3,1.1536848219984677,,,036,001,2019_May_16_1110,MusicAffectPsychophysiology2019,3.0.5,60.06314834732476,
To what extent did the music make you feel ,HAPPY,30MonoWAV/30MonoF2.wav,1,2,2,2,,,,,1,12,28,1,0,6,6,6,,,,,,,,,2,1.2355134950194042,,,036,001,2019_May_16_1110,MusicAffectPsychophysiology2019,3.0.5,60.06314834732476,
To what extent did the music make you feel ,ANXIOUS ,30MonoWAV/30MonoF2.wav,1,2,2,2,,,,,1,12,28,1,0,7,7,1,,,,,,,,,2,3.2057092940085568,,,036,001,2019_May_16_1110,MusicAffectPsychophysiology2019,3.0.5,60.06314834732476,
To what extent did the music make you feel ,ALERT,30MonoWAV/30MonoF2.wav,1,2,2,2,,,,,1,12,28,1,0,8,8,8,,,,,,,,,3,1.240181636007037,,,036,001,2019_May_16_1110,MusicAffectPsychophysiology2019,3.0.5,60.06314834732476,
To what extent did the music make you feel ,ASHAMED,30MonoWAV/30MonoF2.wav,1,2,2,2,,,,,1,12,28,1,0,9,9,4,,,,,,,,,3,1.4513263890112285,,,036,001,2019_May_16_1110,MusicAffectPsychophysiology2019,3.0.5,60.06314834732476,
To what extent did the music make you feel ,SAD,30MonoWAV/30MonoF2.wav,1,2,2,2,,,,,1,12,28,1,0,10,10,0,,,,,,,,,1,2.335690756997792,,,036,001,2019_May_16_1110,MusicAffectPsychophysiology2019,3.0.5,60.06314834732476,
To what extent did the music make you feel ,ACTIVE,30MonoWAV/30MonoF2.wav,1,2,2,2,,,,,1,12,28,1,0,11,11,9,,,,,,,,,2,2.001584757003002,,,036,001,2019_May_16_1110,MusicAffectPsychophysiology2019,3.0.5,60.06314834732476,
,,30MonoWAV/30MonoF2.wav,1,2,2,2,,,,,1,12,28,1,,,,,,,,,,,,,,,,,036,001,2019_May_16_1110,MusicAffectPsychophysiology2019,3.0.5,60.06314834732476,
To what extent did the music make you feel ,ACTIVE,30MonoWAV/30MonoH3.wav,2,2,1,7,,,,,1,13,29,6,0,0,0,9,,,4,3.8684598820109386,4,1.1177594070031773,4,0.9838011169922538,4,0.9356465419987217,,,036,001,2019_May_16_1110,MusicAffectPsychophysiology2019,3.0.5,60.06314834732476,
To what extent did the music make you feel ,SCARED,30MonoWAV/30MonoH3.wav,2,2,1,7,,,,,1,13,29,6,0,1,1,11,,,,,,,,,2,1.0024448159965687,,,036,001,2019_May_16_1110,MusicAffectPsychophysiology2019,3.0.5,60.06314834732476,
To what extent did the music make you feel ,ASHAMED,30MonoWAV/30MonoH3.wav,2,2,1,7,,,,,1,13,29,6,0,2,2,4,,,,,,,,,2,1.2358204860065598,,,036,001,2019_May_16_1110,MusicAffectPsychophysiology2019,3.0.5,60.06314834732476,
To what extent did the music make you feel ,ALERT,30MonoWAV/30MonoH3.wav,2,2,1,7,,,,,1,13,29,6,0,3,3,8,,,,,,,,,4,2.985259920009412,,,036,001,2019_May_16_1110,MusicAffectPsychophysiology2019,3.0.5,60.06314834732476,
To what extent did the music make you feel ,ANGRY,30MonoWAV/30MonoH3.wav,2,2,1,7,,,,,1,13,29,6,0,4,4,2,,,,,,,,,1,1.484533921990078,,,036,001,2019_May_16_1110,MusicAffectPsychophysiology2019,3.0.5,60.06314834732476,
To what extent did the music make you feel ,ANXIOUS ,30MonoWAV/30MonoH3.wav,2,2,1,7,,,,,1,13,29,6,0,5,5,1,,,,,,,,,2,1.2508237910224125,,,036,001,2019_May_16_1110,MusicAffectPsychophysiology2019,3.0.5,60.06314834732476,
To what extent did the music make you feel ,EXCITED,30MonoWAV/30MonoH3.wav,2,2,1,7,,,,,1,13,29,6,0,6,6,7,,,,,,,,,3,1.151720497990027,,,036,001,2019_May_16_1110,MusicAffectPsychophysiology2019,3.0.5,60.06314834732476,
To what extent did the music make you feel ,GUILTY,30MonoWAV/30MonoH3.wav,2,2,1,7,,,,,1,13,29,6,0,7,7,5,,,,,,,,,2,1.0854007260059007,,,036,001,2019_May_16_1110,MusicAffectPsychophysiology2019,3.0.5,60.06314834732476,
To what extent did the music make you feel ,FRUSTRATED,30MonoWAV/30MonoH3.wav,2,2,1,7,,,,,1,13,29,6,0,8,8,3,,,,,,,,,2,2.950703312002588,,,036,001,2019_May_16_1110,MusicAffectPsychophysiology2019,3.0.5,60.06314834732476,
To what extent did the music make you feel ,TENDER,30MonoWAV/30MonoH3.wav,2,2,1,7,,,,,1,13,29,6,0,9,9,10,,,,,,,,,3,2.318695622001542,,,036,001,2019_May_16_1110,MusicAffectPsychophysiology2019,3.0.5,60.06314834732476,
To what extent did the music make you feel ,SAD,30MonoWAV/30MonoH3.wav,2,2,1,7,,,,,1,13,29,6,0,10,10,0,,,,,,,,,2,3.884351429005619,,,036,001,2019_May_16_1110,MusicAffectPsychophysiology2019,3.0.5,60.06314834732476,
To what extent did the music make you feel ,HAPPY,30MonoWAV/30MonoH3.wav,2,2,1,7,,,,,1,13,29,6,0,11,11,6,,,,,,,,,2,1.6346908190171234,,,036,001,2019_May_16_1110,MusicAffectPsychophysiology2019,3.0.5,60.06314834732476,
,,30MonoWAV/30MonoH3.wav,2,2,1,7,,,,,1,13,29,6,,,,,,,,,,,,,,,,,036,001,2019_May_16_1110,MusicAffectPsychophysiology2019,3.0.5,60.06314834732476,
To what extent did the music make you feel ,ANXIOUS ,30MonoWAV/30MonoF1.wav,1,2,2,1,,,,,1,14,30,0,0,0,0,1,,,3,2.6334140980034135,2,1.9687649440020323,2,1.867894276016159,2,1.217939001013292,,,036,001,2019_May_16_1110,MusicAffectPsychophysiology2019,3.0.5,60.06314834732476,
To what extent did the music make you feel ,ACTIVE,30MonoWAV/30MonoF1.wav,1,2,2,1,,,,,1,14,30,0,0,1,1,9,,,,,,,,,3,0.9513905159838032,,,036,001,2019_May_16_1110,MusicAffectPsychophysiology2019,3.0.5,60.06314834732476,
To what extent did the music make you feel ,HAPPY,30MonoWAV/30MonoF1.wav,1,2,2,1,,,,,1,14,30,0,0,2,2,6,,,,,,,,,1,1.551729147991864,,,036,001,2019_May_16_1110,MusicAffectPsychophysiology2019,3.0.5,60.06314834732476,
To what extent did the music make you feel ,ASHAMED,30MonoWAV/30MonoF1.wav,1,2,2,1,,,,,1,14,30,0,0,3,3,4,,,,,,,,,1,1.2352297579927836,,,036,001,2019_May_16_1110,MusicAffectPsychophysiology2019,3.0.5,60.06314834732476,
To what extent did the music make you feel ,FRUSTRATED,30MonoWAV/30MonoF1.wav,1,2,2,1,,,,,1,14,30,0,0,4,4,3,,,,,,,,,2,0.8016105389979202,,,036,001,2019_May_16_1110,MusicAffectPsychophysiology2019,3.0.5,60.06314834732476,
To what extent did the music make you feel ,GUILTY,30MonoWAV/30MonoF1.wav,1,2,2,1,,,,,1,14,30,0,0,5,5,5,,,,,,,,,2,1.0353164139960427,,,036,001,2019_May_16_1110,MusicAffectPsychophysiology2019,3.0.5,60.06314834732476,
To what extent did the music make you feel ,TENDER,30MonoWAV/30MonoF1.wav,1,2,2,1,,,,,1,14,30,0,0,6,6,10,,,,,,,,,2,1.1844554650015198,,,036,001,2019_May_16_1110,MusicAffectPsychophysiology2019,3.0.5,60.06314834732476,
To what extent did the music make you feel ,ALERT,30MonoWAV/30MonoF1.wav,1,2,2,1,,,,,1,14,30,0,0,7,7,8,,,,,,,,,4,1.601891900994815,,,036,001,2019_May_16_1110,MusicAffectPsychophysiology2019,3.0.5,60.06314834732476,
To what extent did the music make you feel ,SAD,30MonoWAV/30MonoF1.wav,1,2,2,1,,,,,1,14,30,0,0,8,8,0,,,,,,,,,2,3.967928331985604,,,036,001,2019_May_16_1110,MusicAffectPsychophysiology2019,3.0.5,60.06314834732476,
To what extent did the music make you feel ,EXCITED,30MonoWAV/30MonoF1.wav,1,2,2,1,,,,,1,14,30,0,0,9,9,7,,,,,,,,,2,0.985455512010958,,,036,001,2019_May_16_1110,MusicAffectPsychophysiology2019,3.0.5,60.06314834732476,
To what extent did the music make you feel ,SCARED,30MonoWAV/30MonoF1.wav,1,2,2,1,,,,,1,14,30,0,0,10,10,11,,,,,,,,,2,0.8182005909911823,,,036,001,2019_May_16_1110,MusicAffectPsychophysiology2019,3.0.5,60.06314834732476,
To what extent did the music make you feel ,ANGRY,30MonoWAV/30MonoF1.wav,1,2,2,1,,,,,1,14,30,0,0,11,11,2,,,,,,,,,2,0.8683426239877008,,,036,001,2019_May_16_1110,MusicAffectPsychophysiology2019,3.0.5,60.06314834732476,
,,30MonoWAV/30MonoF1.wav,1,2,2,1,,,,,1,14,30,0,,,,,,,,,,,,,,,,,036,001,2019_May_16_1110,MusicAffectPsychophysiology2019,3.0.5,60.06314834732476,
To what extent did the music make you feel ,ASHAMED,30MonoWAV/30MonoH2.wav,2,2,1,6,,,,,1,15,31,5,0,0,0,4,,,2,4.184604588983348,2,0.6503754869918339,2,2.485190801002318,2,1.2516930180136114,,,036,001,2019_May_16_1110,MusicAffectPsychophysiology2019,3.0.5,60.06314834732476,
To what extent did the music make you feel ,SAD,30MonoWAV/30MonoH2.wav,2,2,1,6,,,,,1,15,31,5,0,1,1,0,,,,,,,,,2,2.467805016989587,,,036,001,2019_May_16_1110,MusicAffectPsychophysiology2019,3.0.5,60.06314834732476,
To what extent did the music make you feel ,HAPPY,30MonoWAV/30MonoH2.wav,2,2,1,6,,,,,1,15,31,5,0,2,2,6,,,,,,,,,1,1.385860733978916,,,036,001,2019_May_16_1110,MusicAffectPsychophysiology2019,3.0.5,60.06314834732476,
To what extent did the music make you feel ,TENDER,30MonoWAV/30MonoH2.wav,2,2,1,6,,,,,1,15,31,5,0,3,3,10,,,,,,,,,2,0.9017543429799844,,,036,001,2019_May_16_1110,MusicAffectPsychophysiology2019,3.0.5,60.06314834732476,
To what extent did the music make you feel ,EXCITED,30MonoWAV/30MonoH2.wav,2,2,1,6,,,,,1,15,31,5,0,4,4,7,,,,,,,,,2,1.299393635999877,,,036,001,2019_May_16_1110,MusicAffectPsychophysiology2019,3.0.5,60.06314834732476,
To what extent did the music make you feel ,FRUSTRATED,30MonoWAV/30MonoH2.wav,2,2,1,6,,,,,1,15,31,5,0,5,5,3,,,,,,,,,3,1.4353595409775153,,,036,001,2019_May_16_1110,MusicAffectPsychophysiology2019,3.0.5,60.06314834732476,
To what extent did the music make you feel ,ACTIVE,30MonoWAV/30MonoH2.wav,2,2,1,6,,,,,1,15,31,5,0,6,6,9,,,,,,,,,3,1.201855252002133,,,036,001,2019_May_16_1110,MusicAffectPsychophysiology2019,3.0.5,60.06314834732476,
To what extent did the music make you feel ,ANXIOUS ,30MonoWAV/30MonoH2.wav,2,2,1,6,,,,,1,15,31,5,0,7,7,1,,,,,,,,,2,1.6349135049968027,,,036,001,2019_May_16_1110,MusicAffectPsychophysiology2019,3.0.5,60.06314834732476,
To what extent did the music make you feel ,ALERT,30MonoWAV/30MonoH2.wav,2,2,1,6,,,,,1,15,31,5,0,8,8,8,,,,,,,,,3,1.2163356349919923,,,036,001,2019_May_16_1110,MusicAffectPsychophysiology2019,3.0.5,60.06314834732476,
To what extent did the music make you feel ,GUILTY,30MonoWAV/30MonoH2.wav,2,2,1,6,,,,,1,15,31,5,0,9,9,5,,,,,,,,,3,1.336324498988688,,,036,001,2019_May_16_1110,MusicAffectPsychophysiology2019,3.0.5,60.06314834732476,
To what extent did the music make you feel ,ANGRY,30MonoWAV/30MonoH2.wav,2,2,1,6,,,,,1,15,31,5,0,10,10,2,,,,,,,,,2,2.818513931008056,,,036,001,2019_May_16_1110,MusicAffectPsychophysiology2019,3.0.5,60.06314834732476,
To what extent did the music make you feel ,SCARED,30MonoWAV/30MonoH2.wav,2,2,1,6,,,,,1,15,31,5,0,11,11,11,,,,,,,,,2,1.7356278210063465,,,036,001,2019_May_16_1110,MusicAffectPsychophysiology2019,3.0.5,60.06314834732476,
,,30MonoWAV/30MonoH2.wav,2,2,1,6,,,,,1,15,31,5,,,,,,,,,,,,,,,,,036,001,2019_May_16_1110,MusicAffectPsychophysiology2019,3.0.5,60.06314834732476,
,,,,,,,,,,,,,,,,,,,,,,,,,,,,,space,6.83565196901327,036,001,2019_May_16_1110,MusicAffectPsychophysiology2019,3.0.5,60.06314834732476,
