Instruction,Word,song,valence,arousal,affectcat,songmark,pracwords.thisRepN,pracwords.thisTrialN,pracwords.thisN,pracwords.thisIndex,songtrials.thisRepN,songtrials.thisTrialN,songtrials.thisN,songtrials.thisIndex,words.thisRepN,words.thisTrialN,words.thisN,words.thisIndex,begin.keys,begin.rt,arousalkey.keys,arousalkey.rt,valencekey.keys,valencekey.rt,likekey.keys,likekey.rt,WordResponse.keys,WordResponse.rt,key_resp_2.keys,key_resp_2.rt,participant,session,date,expName,psychopyVersion,frameRate,
,,,,,,,,,,,,,,,,,,,space,82.79611853900133,,,,,,,,,,,037,001,2019_May_16_1310,MusicAffectPsychophysiology2019,3.0.5,59.62231054356885,
,,,,,,,,,,,,,,,,,,,,,3,4.6683932739833836,,,,,,,,,037,001,2019_May_16_1310,MusicAffectPsychophysiology2019,3.0.5,59.62231054356885,
,,,,,,,,,,,,,,,,,,,,,,,3,5.501146394002717,,,,,,,037,001,2019_May_16_1310,MusicAffectPsychophysiology2019,3.0.5,59.62231054356885,
,,,,,,,,,,,,,,,,,,,,,,,,,2,3.2351852470019367,,,,,037,001,2019_May_16_1310,MusicAffectPsychophysiology2019,3.0.5,59.62231054356885,
To what extent did the music make you feel ,SCARED,,,,,,0,0,0,11,,,,,,,,,,,,,,,,,1,2.352637625008356,,,037,001,2019_May_16_1310,MusicAffectPsychophysiology2019,3.0.5,59.62231054356885,
To what extent did the music make you feel ,TENDER,,,,,,0,1,1,10,,,,,,,,,,,,,,,,,1,1.5023021629895084,,,037,001,2019_May_16_1310,MusicAffectPsychophysiology2019,3.0.5,59.62231054356885,
To what extent did the music make you feel ,FRUSTRATED,,,,,,0,2,2,3,,,,,,,,,,,,,,,,,1,0.6437221819942351,,,037,001,2019_May_16_1310,MusicAffectPsychophysiology2019,3.0.5,59.62231054356885,
To what extent did the music make you feel ,EXCITED,,,,,,0,3,3,7,,,,,,,,,,,,,,,,,1,2.5858372680086177,,,037,001,2019_May_16_1310,MusicAffectPsychophysiology2019,3.0.5,59.62231054356885,
To what extent did the music make you feel ,ALERT,,,,,,0,4,4,8,,,,,,,,,,,,,,,,,1,0.9183034349989612,,,037,001,2019_May_16_1310,MusicAffectPsychophysiology2019,3.0.5,59.62231054356885,
To what extent did the music make you feel ,HAPPY,,,,,,0,5,5,6,,,,,,,,,,,,,,,,,2,2.2015991270018276,,,037,001,2019_May_16_1310,MusicAffectPsychophysiology2019,3.0.5,59.62231054356885,
To what extent did the music make you feel ,ASHAMED,,,,,,0,6,6,4,,,,,,,,,,,,,,,,,1,0.8184804749907926,,,037,001,2019_May_16_1310,MusicAffectPsychophysiology2019,3.0.5,59.62231054356885,
To what extent did the music make you feel ,ACTIVE,,,,,,0,7,7,9,,,,,,,,,,,,,,,,,1,1.0363330599793699,,,037,001,2019_May_16_1310,MusicAffectPsychophysiology2019,3.0.5,59.62231054356885,
To what extent did the music make you feel ,ANGRY,,,,,,0,8,8,2,,,,,,,,,,,,,,,,,1,0.6833903070073575,,,037,001,2019_May_16_1310,MusicAffectPsychophysiology2019,3.0.5,59.62231054356885,
To what extent did the music make you feel ,GUILTY,,,,,,0,9,9,5,,,,,,,,,,,,,,,,,1,0.6187696070119273,,,037,001,2019_May_16_1310,MusicAffectPsychophysiology2019,3.0.5,59.62231054356885,
To what extent did the music make you feel ,ANXIOUS ,,,,,,0,10,10,1,,,,,,,,,,,,,,,,,1,0.7019637069897726,,,037,001,2019_May_16_1310,MusicAffectPsychophysiology2019,3.0.5,59.62231054356885,
To what extent did the music make you feel ,SAD,,,,,,0,11,11,0,,,,,,,,,,,,,,,,,1,1.0019824469927698,,,037,001,2019_May_16_1310,MusicAffectPsychophysiology2019,3.0.5,59.62231054356885,
To what extent did the music make you feel ,HAPPY,30MonoWAV/30MonoS2.wav,1,1,3,10,,,,,0,0,0,9,0,0,0,6,,,1,2.818284340988612,1,2.5685284589999355,2,2.4521377960045356,1,1.835723533993587,,,037,001,2019_May_16_1310,MusicAffectPsychophysiology2019,3.0.5,59.62231054356885,
To what extent did the music make you feel ,ALERT,30MonoWAV/30MonoS2.wav,1,1,3,10,,,,,0,0,0,9,0,1,1,8,,,,,,,,,1,1.051466184988385,,,037,001,2019_May_16_1310,MusicAffectPsychophysiology2019,3.0.5,59.62231054356885,
To what extent did the music make you feel ,EXCITED,30MonoWAV/30MonoS2.wav,1,1,3,10,,,,,0,0,0,9,0,2,2,7,,,,,,,,,1,0.6331458989880048,,,037,001,2019_May_16_1310,MusicAffectPsychophysiology2019,3.0.5,59.62231054356885,
To what extent did the music make you feel ,SAD,30MonoWAV/30MonoS2.wav,1,1,3,10,,,,,0,0,0,9,0,3,3,0,,,,,,,,,3,2.2516004829958547,,,037,001,2019_May_16_1310,MusicAffectPsychophysiology2019,3.0.5,59.62231054356885,
To what extent did the music make you feel ,GUILTY,30MonoWAV/30MonoS2.wav,1,1,3,10,,,,,0,0,0,9,0,4,4,5,,,,,,,,,1,1.2327816220058594,,,037,001,2019_May_16_1310,MusicAffectPsychophysiology2019,3.0.5,59.62231054356885,
To what extent did the music make you feel ,ACTIVE,30MonoWAV/30MonoS2.wav,1,1,3,10,,,,,0,0,0,9,0,5,5,9,,,,,,,,,1,0.7845751759887207,,,037,001,2019_May_16_1310,MusicAffectPsychophysiology2019,3.0.5,59.62231054356885,
To what extent did the music make you feel ,ANGRY,30MonoWAV/30MonoS2.wav,1,1,3,10,,,,,0,0,0,9,0,6,6,2,,,,,,,,,1,0.6685509200033266,,,037,001,2019_May_16_1310,MusicAffectPsychophysiology2019,3.0.5,59.62231054356885,
To what extent did the music make you feel ,ANXIOUS ,30MonoWAV/30MonoS2.wav,1,1,3,10,,,,,0,0,0,9,0,7,7,1,,,,,,,,,1,2.068409605999477,,,037,001,2019_May_16_1310,MusicAffectPsychophysiology2019,3.0.5,59.62231054356885,
To what extent did the music make you feel ,FRUSTRATED,30MonoWAV/30MonoS2.wav,1,1,3,10,,,,,0,0,0,9,0,8,8,3,,,,,,,,,1,0.8191970690095332,,,037,001,2019_May_16_1310,MusicAffectPsychophysiology2019,3.0.5,59.62231054356885,
To what extent did the music make you feel ,ASHAMED,30MonoWAV/30MonoS2.wav,1,1,3,10,,,,,0,0,0,9,0,9,9,4,,,,,,,,,1,0.7018194949778263,,,037,001,2019_May_16_1310,MusicAffectPsychophysiology2019,3.0.5,59.62231054356885,
To what extent did the music make you feel ,SCARED,30MonoWAV/30MonoS2.wav,1,1,3,10,,,,,0,0,0,9,0,10,10,11,,,,,,,,,1,1.1352260540006682,,,037,001,2019_May_16_1310,MusicAffectPsychophysiology2019,3.0.5,59.62231054356885,
To what extent did the music make you feel ,TENDER,30MonoWAV/30MonoS2.wav,1,1,3,10,,,,,0,0,0,9,0,11,11,10,,,,,,,,,1,0.9019986549974419,,,037,001,2019_May_16_1310,MusicAffectPsychophysiology2019,3.0.5,59.62231054356885,
,,30MonoWAV/30MonoS2.wav,1,1,3,10,,,,,0,0,0,9,,,,,,,,,,,,,,,,,037,001,2019_May_16_1310,MusicAffectPsychophysiology2019,3.0.5,59.62231054356885,
To what extent did the music make you feel ,ALERT,30MonoWAV/30MonoT2.wav,2,1,4,14,,,,,0,1,1,13,0,0,0,8,,,3,3.622927702992456,4,3.9010637370229233,4,2.9524040129908826,1,1.9010586719959974,,,037,001,2019_May_16_1310,MusicAffectPsychophysiology2019,3.0.5,59.62231054356885,
To what extent did the music make you feel ,TENDER,30MonoWAV/30MonoT2.wav,2,1,4,14,,,,,0,1,1,13,0,1,1,10,,,,,,,,,1,0.8347887379932217,,,037,001,2019_May_16_1310,MusicAffectPsychophysiology2019,3.0.5,59.62231054356885,
To what extent did the music make you feel ,GUILTY,30MonoWAV/30MonoT2.wav,2,1,4,14,,,,,0,1,1,13,0,2,2,5,,,,,,,,,1,0.5682447179860901,,,037,001,2019_May_16_1310,MusicAffectPsychophysiology2019,3.0.5,59.62231054356885,
To what extent did the music make you feel ,SCARED,30MonoWAV/30MonoT2.wav,2,1,4,14,,,,,0,1,1,13,0,3,3,11,,,,,,,,,1,0.43581338902004063,,,037,001,2019_May_16_1310,MusicAffectPsychophysiology2019,3.0.5,59.62231054356885,
To what extent did the music make you feel ,HAPPY,30MonoWAV/30MonoT2.wav,2,1,4,14,,,,,0,1,1,13,0,4,4,6,,,,,,,,,4,1.801503999013221,,,037,001,2019_May_16_1310,MusicAffectPsychophysiology2019,3.0.5,59.62231054356885,
To what extent did the music make you feel ,FRUSTRATED,30MonoWAV/30MonoT2.wav,2,1,4,14,,,,,0,1,1,13,0,5,5,3,,,,,,,,,1,0.9844077779853251,,,037,001,2019_May_16_1310,MusicAffectPsychophysiology2019,3.0.5,59.62231054356885,
To what extent did the music make you feel ,ACTIVE,30MonoWAV/30MonoT2.wav,2,1,4,14,,,,,0,1,1,13,0,6,6,9,,,,,,,,,1,0.9187303259968758,,,037,001,2019_May_16_1310,MusicAffectPsychophysiology2019,3.0.5,59.62231054356885,
To what extent did the music make you feel ,SAD,30MonoWAV/30MonoT2.wav,2,1,4,14,,,,,0,1,1,13,0,7,7,0,,,,,,,,,1,0.6680887610127684,,,037,001,2019_May_16_1310,MusicAffectPsychophysiology2019,3.0.5,59.62231054356885,
To what extent did the music make you feel ,ANXIOUS ,30MonoWAV/30MonoT2.wav,2,1,4,14,,,,,0,1,1,13,0,8,8,1,,,,,,,,,1,1.1515340830083005,,,037,001,2019_May_16_1310,MusicAffectPsychophysiology2019,3.0.5,59.62231054356885,
To what extent did the music make you feel ,EXCITED,30MonoWAV/30MonoT2.wav,2,1,4,14,,,,,0,1,1,13,0,9,9,7,,,,,,,,,3,2.484601814998314,,,037,001,2019_May_16_1310,MusicAffectPsychophysiology2019,3.0.5,59.62231054356885,
To what extent did the music make you feel ,ASHAMED,30MonoWAV/30MonoT2.wav,2,1,4,14,,,,,0,1,1,13,0,10,10,4,,,,,,,,,1,1.2333534880017396,,,037,001,2019_May_16_1310,MusicAffectPsychophysiology2019,3.0.5,59.62231054356885,
To what extent did the music make you feel ,ANGRY,30MonoWAV/30MonoT2.wav,2,1,4,14,,,,,0,1,1,13,0,11,11,2,,,,,,,,,1,0.9340896149806213,,,037,001,2019_May_16_1310,MusicAffectPsychophysiology2019,3.0.5,59.62231054356885,
,,30MonoWAV/30MonoT2.wav,2,1,4,14,,,,,0,1,1,13,,,,,,,,,,,,,,,,,037,001,2019_May_16_1310,MusicAffectPsychophysiology2019,3.0.5,59.62231054356885,
To what extent did the music make you feel ,ALERT,30MonoWAV/30MonoT4.wav,2,1,4,16,,,,,0,2,2,15,0,0,0,8,,,4,4.734855023998534,4,2.685523390013259,4,3.45270977698965,1,1.307961547980085,,,037,001,2019_May_16_1310,MusicAffectPsychophysiology2019,3.0.5,59.62231054356885,
To what extent did the music make you feel ,HAPPY,30MonoWAV/30MonoT4.wav,2,1,4,16,,,,,0,2,2,15,0,1,1,6,,,,,,,,,4,1.503362051997101,,,037,001,2019_May_16_1310,MusicAffectPsychophysiology2019,3.0.5,59.62231054356885,
To what extent did the music make you feel ,SCARED,30MonoWAV/30MonoT4.wav,2,1,4,16,,,,,0,2,2,15,0,2,2,11,,,,,,,,,1,0.7681656640197616,,,037,001,2019_May_16_1310,MusicAffectPsychophysiology2019,3.0.5,59.62231054356885,
To what extent did the music make you feel ,TENDER,30MonoWAV/30MonoT4.wav,2,1,4,16,,,,,0,2,2,15,0,3,3,10,,,,,,,,,1,0.5845933480013628,,,037,001,2019_May_16_1310,MusicAffectPsychophysiology2019,3.0.5,59.62231054356885,
To what extent did the music make you feel ,EXCITED,30MonoWAV/30MonoT4.wav,2,1,4,16,,,,,0,2,2,15,0,4,4,7,,,,,,,,,3,1.6855842510121875,,,037,001,2019_May_16_1310,MusicAffectPsychophysiology2019,3.0.5,59.62231054356885,
To what extent did the music make you feel ,ASHAMED,30MonoWAV/30MonoT4.wav,2,1,4,16,,,,,0,2,2,15,0,5,5,4,,,,,,,,,1,0.9015073470072821,,,037,001,2019_May_16_1310,MusicAffectPsychophysiology2019,3.0.5,59.62231054356885,
To what extent did the music make you feel ,ANXIOUS ,30MonoWAV/30MonoT4.wav,2,1,4,16,,,,,0,2,2,15,0,6,6,1,,,,,,,,,1,0.7843587840034161,,,037,001,2019_May_16_1310,MusicAffectPsychophysiology2019,3.0.5,59.62231054356885,
To what extent did the music make you feel ,ACTIVE,30MonoWAV/30MonoT4.wav,2,1,4,16,,,,,0,2,2,15,0,7,7,9,,,,,,,,,1,1.2863675880071241,,,037,001,2019_May_16_1310,MusicAffectPsychophysiology2019,3.0.5,59.62231054356885,
To what extent did the music make you feel ,SAD,30MonoWAV/30MonoT4.wav,2,1,4,16,,,,,0,2,2,15,0,8,8,0,,,,,,,,,1,1.2697166579891928,,,037,001,2019_May_16_1310,MusicAffectPsychophysiology2019,3.0.5,59.62231054356885,
To what extent did the music make you feel ,ANGRY,30MonoWAV/30MonoT4.wav,2,1,4,16,,,,,0,2,2,15,0,9,9,2,,,,,,,,,1,0.5679356319888029,,,037,001,2019_May_16_1310,MusicAffectPsychophysiology2019,3.0.5,59.62231054356885,
To what extent did the music make you feel ,FRUSTRATED,30MonoWAV/30MonoT4.wav,2,1,4,16,,,,,0,2,2,15,0,10,10,3,,,,,,,,,1,1.4697429790103342,,,037,001,2019_May_16_1310,MusicAffectPsychophysiology2019,3.0.5,59.62231054356885,
To what extent did the music make you feel ,GUILTY,30MonoWAV/30MonoT4.wav,2,1,4,16,,,,,0,2,2,15,0,11,11,5,,,,,,,,,1,0.5023993080249056,,,037,001,2019_May_16_1310,MusicAffectPsychophysiology2019,3.0.5,59.62231054356885,
,,30MonoWAV/30MonoT4.wav,2,1,4,16,,,,,0,2,2,15,,,,,,,,,,,,,,,,,037,001,2019_May_16_1310,MusicAffectPsychophysiology2019,3.0.5,59.62231054356885,
To what extent did the music make you feel ,ALERT,30MonoWAV/30MonoH1.wav,2,2,1,5,,,,,0,3,3,4,0,0,0,8,,,3,4.887940960994456,3,1.5880449679971207,3,1.7367565049789846,3,1.9038119340257253,,,037,001,2019_May_16_1310,MusicAffectPsychophysiology2019,3.0.5,59.62231054356885,
To what extent did the music make you feel ,TENDER,30MonoWAV/30MonoH1.wav,2,2,1,5,,,,,0,3,3,4,0,1,1,10,,,,,,,,,1,1.0530106720107142,,,037,001,2019_May_16_1310,MusicAffectPsychophysiology2019,3.0.5,59.62231054356885,
To what extent did the music make you feel ,ACTIVE,30MonoWAV/30MonoH1.wav,2,2,1,5,,,,,0,3,3,4,0,2,2,9,,,,,,,,,3,1.002258794993395,,,037,001,2019_May_16_1310,MusicAffectPsychophysiology2019,3.0.5,59.62231054356885,
To what extent did the music make you feel ,ANXIOUS ,30MonoWAV/30MonoH1.wav,2,2,1,5,,,,,0,3,3,4,0,3,3,1,,,,,,,,,2,1.3565184579929337,,,037,001,2019_May_16_1310,MusicAffectPsychophysiology2019,3.0.5,59.62231054356885,
To what extent did the music make you feel ,HAPPY,30MonoWAV/30MonoH1.wav,2,2,1,5,,,,,0,3,3,4,0,4,4,6,,,,,,,,,2,1.634017873002449,,,037,001,2019_May_16_1310,MusicAffectPsychophysiology2019,3.0.5,59.62231054356885,
To what extent did the music make you feel ,SAD,30MonoWAV/30MonoH1.wav,2,2,1,5,,,,,0,3,3,4,0,5,5,0,,,,,,,,,1,1.0364598019805271,,,037,001,2019_May_16_1310,MusicAffectPsychophysiology2019,3.0.5,59.62231054356885,
To what extent did the music make you feel ,FRUSTRATED,30MonoWAV/30MonoH1.wav,2,2,1,5,,,,,0,3,3,4,0,6,6,3,,,,,,,,,1,0.7352134330139961,,,037,001,2019_May_16_1310,MusicAffectPsychophysiology2019,3.0.5,59.62231054356885,
To what extent did the music make you feel ,SCARED,30MonoWAV/30MonoH1.wav,2,2,1,5,,,,,0,3,3,4,0,7,7,11,,,,,,,,,1,0.8020403109840117,,,037,001,2019_May_16_1310,MusicAffectPsychophysiology2019,3.0.5,59.62231054356885,
To what extent did the music make you feel ,ASHAMED,30MonoWAV/30MonoH1.wav,2,2,1,5,,,,,0,3,3,4,0,8,8,4,,,,,,,,,1,0.6020022949960548,,,037,001,2019_May_16_1310,MusicAffectPsychophysiology2019,3.0.5,59.62231054356885,
To what extent did the music make you feel ,EXCITED,30MonoWAV/30MonoH1.wav,2,2,1,5,,,,,0,3,3,4,0,9,9,7,,,,,,,,,3,1.451631025003735,,,037,001,2019_May_16_1310,MusicAffectPsychophysiology2019,3.0.5,59.62231054356885,
To what extent did the music make you feel ,GUILTY,30MonoWAV/30MonoH1.wav,2,2,1,5,,,,,0,3,3,4,0,10,10,5,,,,,,,,,1,0.7514699150051456,,,037,001,2019_May_16_1310,MusicAffectPsychophysiology2019,3.0.5,59.62231054356885,
To what extent did the music make you feel ,ANGRY,30MonoWAV/30MonoH1.wav,2,2,1,5,,,,,0,3,3,4,0,11,11,2,,,,,,,,,1,0.7020360149908811,,,037,001,2019_May_16_1310,MusicAffectPsychophysiology2019,3.0.5,59.62231054356885,
,,30MonoWAV/30MonoH1.wav,2,2,1,5,,,,,0,3,3,4,,,,,,,,,,,,,,,,,037,001,2019_May_16_1310,MusicAffectPsychophysiology2019,3.0.5,59.62231054356885,
To what extent did the music make you feel ,ACTIVE,30MonoWAV/30MonoS4.wav,1,1,3,12,,,,,0,4,4,11,0,0,0,9,,,1,3.4398485939891543,1,2.0024342859978788,2,1.7346517010009848,1,1.3187418319866993,,,037,001,2019_May_16_1310,MusicAffectPsychophysiology2019,3.0.5,59.62231054356885,
To what extent did the music make you feel ,TENDER,30MonoWAV/30MonoS4.wav,1,1,3,12,,,,,0,4,4,11,0,1,1,10,,,,,,,,,2,1.63507831399329,,,037,001,2019_May_16_1310,MusicAffectPsychophysiology2019,3.0.5,59.62231054356885,
To what extent did the music make you feel ,ANGRY,30MonoWAV/30MonoS4.wav,1,1,3,12,,,,,0,4,4,11,0,2,2,2,,,,,,,,,1,0.7684572760190349,,,037,001,2019_May_16_1310,MusicAffectPsychophysiology2019,3.0.5,59.62231054356885,
To what extent did the music make you feel ,SAD,30MonoWAV/30MonoS4.wav,1,1,3,12,,,,,0,4,4,11,0,3,3,0,,,,,,,,,4,1.8495690409909002,,,037,001,2019_May_16_1310,MusicAffectPsychophysiology2019,3.0.5,59.62231054356885,
To what extent did the music make you feel ,SCARED,30MonoWAV/30MonoS4.wav,1,1,3,12,,,,,0,4,4,11,0,4,4,11,,,,,,,,,1,1.6524365299846977,,,037,001,2019_May_16_1310,MusicAffectPsychophysiology2019,3.0.5,59.62231054356885,
To what extent did the music make you feel ,ALERT,30MonoWAV/30MonoS4.wav,1,1,3,12,,,,,0,4,4,11,0,5,5,8,,,,,,,,,1,0.9348547159752343,,,037,001,2019_May_16_1310,MusicAffectPsychophysiology2019,3.0.5,59.62231054356885,
To what extent did the music make you feel ,ASHAMED,30MonoWAV/30MonoS4.wav,1,1,3,12,,,,,0,4,4,11,0,6,6,4,,,,,,,,,1,1.118752295995364,,,037,001,2019_May_16_1310,MusicAffectPsychophysiology2019,3.0.5,59.62231054356885,
To what extent did the music make you feel ,GUILTY,30MonoWAV/30MonoS4.wav,1,1,3,12,,,,,0,4,4,11,0,7,7,5,,,,,,,,,2,1.7183555980154779,,,037,001,2019_May_16_1310,MusicAffectPsychophysiology2019,3.0.5,59.62231054356885,
To what extent did the music make you feel ,EXCITED,30MonoWAV/30MonoS4.wav,1,1,3,12,,,,,0,4,4,11,0,8,8,7,,,,,,,,,1,0.7515263330133166,,,037,001,2019_May_16_1310,MusicAffectPsychophysiology2019,3.0.5,59.62231054356885,
To what extent did the music make you feel ,ANXIOUS ,30MonoWAV/30MonoS4.wav,1,1,3,12,,,,,0,4,4,11,0,9,9,1,,,,,,,,,2,1.26835198700428,,,037,001,2019_May_16_1310,MusicAffectPsychophysiology2019,3.0.5,59.62231054356885,
To what extent did the music make you feel ,HAPPY,30MonoWAV/30MonoS4.wav,1,1,3,12,,,,,0,4,4,11,0,10,10,6,,,,,,,,,1,0.7015562079905067,,,037,001,2019_May_16_1310,MusicAffectPsychophysiology2019,3.0.5,59.62231054356885,
To what extent did the music make you feel ,FRUSTRATED,30MonoWAV/30MonoS4.wav,1,1,3,12,,,,,0,4,4,11,0,11,11,3,,,,,,,,,1,0.9355511369940359,,,037,001,2019_May_16_1310,MusicAffectPsychophysiology2019,3.0.5,59.62231054356885,
,,30MonoWAV/30MonoS4.wav,1,1,3,12,,,,,0,4,4,11,,,,,,,,,,,,,,,,,037,001,2019_May_16_1310,MusicAffectPsychophysiology2019,3.0.5,59.62231054356885,
To what extent did the music make you feel ,ANXIOUS ,30MonoWAV/30MonoF2.wav,1,2,2,2,,,,,0,5,5,1,0,0,0,1,,,2,2.751377323991619,1,1.1857799860008527,1,2.3684704799961764,3,1.752334176999284,,,037,001,2019_May_16_1310,MusicAffectPsychophysiology2019,3.0.5,59.62231054356885,
To what extent did the music make you feel ,TENDER,30MonoWAV/30MonoF2.wav,1,2,2,2,,,,,0,5,5,1,0,1,1,10,,,,,,,,,1,1.1511935600137804,,,037,001,2019_May_16_1310,MusicAffectPsychophysiology2019,3.0.5,59.62231054356885,
To what extent did the music make you feel ,GUILTY,30MonoWAV/30MonoF2.wav,1,2,2,2,,,,,0,5,5,1,0,2,2,5,,,,,,,,,1,0.9683643919997849,,,037,001,2019_May_16_1310,MusicAffectPsychophysiology2019,3.0.5,59.62231054356885,
To what extent did the music make you feel ,ANGRY,30MonoWAV/30MonoF2.wav,1,2,2,2,,,,,0,5,5,1,0,3,3,2,,,,,,,,,1,0.7020296660193708,,,037,001,2019_May_16_1310,MusicAffectPsychophysiology2019,3.0.5,59.62231054356885,
To what extent did the music make you feel ,FRUSTRATED,30MonoWAV/30MonoF2.wav,1,2,2,2,,,,,0,5,5,1,0,4,4,3,,,,,,,,,1,0.668410023994511,,,037,001,2019_May_16_1310,MusicAffectPsychophysiology2019,3.0.5,59.62231054356885,
To what extent did the music make you feel ,HAPPY,30MonoWAV/30MonoF2.wav,1,2,2,2,,,,,0,5,5,1,0,5,5,6,,,,,,,,,1,0.9349608790071215,,,037,001,2019_May_16_1310,MusicAffectPsychophysiology2019,3.0.5,59.62231054356885,
To what extent did the music make you feel ,SAD,30MonoWAV/30MonoF2.wav,1,2,2,2,,,,,0,5,5,1,0,6,6,0,,,,,,,,,1,0.5683811279886868,,,037,001,2019_May_16_1310,MusicAffectPsychophysiology2019,3.0.5,59.62231054356885,
To what extent did the music make you feel ,SCARED,30MonoWAV/30MonoF2.wav,1,2,2,2,,,,,0,5,5,1,0,7,7,11,,,,,,,,,3,1.23543495501508,,,037,001,2019_May_16_1310,MusicAffectPsychophysiology2019,3.0.5,59.62231054356885,
To what extent did the music make you feel ,ASHAMED,30MonoWAV/30MonoF2.wav,1,2,2,2,,,,,0,5,5,1,0,8,8,4,,,,,,,,,1,1.051144058990758,,,037,001,2019_May_16_1310,MusicAffectPsychophysiology2019,3.0.5,59.62231054356885,
To what extent did the music make you feel ,ALERT,30MonoWAV/30MonoF2.wav,1,2,2,2,,,,,0,5,5,1,0,9,9,8,,,,,,,,,3,1.451794812019216,,,037,001,2019_May_16_1310,MusicAffectPsychophysiology2019,3.0.5,59.62231054356885,
To what extent did the music make you feel ,EXCITED,30MonoWAV/30MonoF2.wav,1,2,2,2,,,,,0,5,5,1,0,10,10,7,,,,,,,,,1,0.7186199309944641,,,037,001,2019_May_16_1310,MusicAffectPsychophysiology2019,3.0.5,59.62231054356885,
To what extent did the music make you feel ,ACTIVE,30MonoWAV/30MonoF2.wav,1,2,2,2,,,,,0,5,5,1,0,11,11,9,,,,,,,,,2,1.4668925009900704,,,037,001,2019_May_16_1310,MusicAffectPsychophysiology2019,3.0.5,59.62231054356885,
,,30MonoWAV/30MonoF2.wav,1,2,2,2,,,,,0,5,5,1,,,,,,,,,,,,,,,,,037,001,2019_May_16_1310,MusicAffectPsychophysiology2019,3.0.5,59.62231054356885,
To what extent did the music make you feel ,SCARED,30MonoWAV/30MonoF3.wav,1,2,2,3,,,,,0,6,6,2,0,0,0,11,,,2,4.273812113009626,1,1.940993547992548,1,0.8679906460165512,1,1.5502509590005502,,,037,001,2019_May_16_1310,MusicAffectPsychophysiology2019,3.0.5,59.62231054356885,
To what extent did the music make you feel ,FRUSTRATED,30MonoWAV/30MonoF3.wav,1,2,2,3,,,,,0,6,6,2,0,1,1,3,,,,,,,,,2,3.6693462420080323,,,037,001,2019_May_16_1310,MusicAffectPsychophysiology2019,3.0.5,59.62231054356885,
To what extent did the music make you feel ,ANXIOUS ,30MonoWAV/30MonoF3.wav,1,2,2,3,,,,,0,6,6,2,0,2,2,1,,,,,,,,,2,0.9684647679969203,,,037,001,2019_May_16_1310,MusicAffectPsychophysiology2019,3.0.5,59.62231054356885,
To what extent did the music make you feel ,ASHAMED,30MonoWAV/30MonoF3.wav,1,2,2,3,,,,,0,6,6,2,0,3,3,4,,,,,,,,,1,0.9331111329956912,,,037,001,2019_May_16_1310,MusicAffectPsychophysiology2019,3.0.5,59.62231054356885,
To what extent did the music make you feel ,SAD,30MonoWAV/30MonoF3.wav,1,2,2,3,,,,,0,6,6,2,0,4,4,0,,,,,,,,,1,0.7522461570042651,,,037,001,2019_May_16_1310,MusicAffectPsychophysiology2019,3.0.5,59.62231054356885,
To what extent did the music make you feel ,HAPPY,30MonoWAV/30MonoF3.wav,1,2,2,3,,,,,0,6,6,2,0,5,5,6,,,,,,,,,1,0.6687201570020989,,,037,001,2019_May_16_1310,MusicAffectPsychophysiology2019,3.0.5,59.62231054356885,
To what extent did the music make you feel ,GUILTY,30MonoWAV/30MonoF3.wav,1,2,2,3,,,,,0,6,6,2,0,6,6,5,,,,,,,,,1,0.5852505319926422,,,037,001,2019_May_16_1310,MusicAffectPsychophysiology2019,3.0.5,59.62231054356885,
To what extent did the music make you feel ,ALERT,30MonoWAV/30MonoF3.wav,1,2,2,3,,,,,0,6,6,2,0,7,7,8,,,,,,,,,2,0.885803315002704,,,037,001,2019_May_16_1310,MusicAffectPsychophysiology2019,3.0.5,59.62231054356885,
To what extent did the music make you feel ,EXCITED,30MonoWAV/30MonoF3.wav,1,2,2,3,,,,,0,6,6,2,0,8,8,7,,,,,,,,,1,0.568154971988406,,,037,001,2019_May_16_1310,MusicAffectPsychophysiology2019,3.0.5,59.62231054356885,
To what extent did the music make you feel ,ACTIVE,30MonoWAV/30MonoF3.wav,1,2,2,3,,,,,0,6,6,2,0,9,9,9,,,,,,,,,1,0.8690359129977878,,,037,001,2019_May_16_1310,MusicAffectPsychophysiology2019,3.0.5,59.62231054356885,
To what extent did the music make you feel ,ANGRY,30MonoWAV/30MonoF3.wav,1,2,2,3,,,,,0,6,6,2,0,10,10,2,,,,,,,,,1,1.2514507969899569,,,037,001,2019_May_16_1310,MusicAffectPsychophysiology2019,3.0.5,59.62231054356885,
To what extent did the music make you feel ,TENDER,30MonoWAV/30MonoF3.wav,1,2,2,3,,,,,0,6,6,2,0,11,11,10,,,,,,,,,1,0.7170629299944267,,,037,001,2019_May_16_1310,MusicAffectPsychophysiology2019,3.0.5,59.62231054356885,
,,30MonoWAV/30MonoF3.wav,1,2,2,3,,,,,0,6,6,2,,,,,,,,,,,,,,,,,037,001,2019_May_16_1310,MusicAffectPsychophysiology2019,3.0.5,59.62231054356885,
To what extent did the music make you feel ,SCARED,30MonoWAV/30MonoS1.wav,1,1,3,9,,,,,0,7,7,8,0,0,0,11,,,1,3.18527649200405,1,0.9682628320006188,2,1.1178863469976932,2,3.9852595179982018,,,037,001,2019_May_16_1310,MusicAffectPsychophysiology2019,3.0.5,59.62231054356885,
To what extent did the music make you feel ,GUILTY,30MonoWAV/30MonoS1.wav,1,1,3,9,,,,,0,7,7,8,0,1,1,5,,,,,,,,,3,1.5834132329910062,,,037,001,2019_May_16_1310,MusicAffectPsychophysiology2019,3.0.5,59.62231054356885,
To what extent did the music make you feel ,ANGRY,30MonoWAV/30MonoS1.wav,1,1,3,9,,,,,0,7,7,8,0,2,2,2,,,,,,,,,1,1.235350014991127,,,037,001,2019_May_16_1310,MusicAffectPsychophysiology2019,3.0.5,59.62231054356885,
To what extent did the music make you feel ,SAD,30MonoWAV/30MonoS1.wav,1,1,3,9,,,,,0,7,7,8,0,3,3,0,,,,,,,,,4,1.7499351489823312,,,037,001,2019_May_16_1310,MusicAffectPsychophysiology2019,3.0.5,59.62231054356885,
To what extent did the music make you feel ,FRUSTRATED,30MonoWAV/30MonoS1.wav,1,1,3,9,,,,,0,7,7,8,0,4,4,3,,,,,,,,,1,1.2359657119959593,,,037,001,2019_May_16_1310,MusicAffectPsychophysiology2019,3.0.5,59.62231054356885,
To what extent did the music make you feel ,ALERT,30MonoWAV/30MonoS1.wav,1,1,3,9,,,,,0,7,7,8,0,5,5,8,,,,,,,,,1,0.8007492699834984,,,037,001,2019_May_16_1310,MusicAffectPsychophysiology2019,3.0.5,59.62231054356885,
To what extent did the music make you feel ,HAPPY,30MonoWAV/30MonoS1.wav,1,1,3,9,,,,,0,7,7,8,0,6,6,6,,,,,,,,,1,0.9345748859923333,,,037,001,2019_May_16_1310,MusicAffectPsychophysiology2019,3.0.5,59.62231054356885,
To what extent did the music make you feel ,ACTIVE,30MonoWAV/30MonoS1.wav,1,1,3,9,,,,,0,7,7,8,0,7,7,9,,,,,,,,,1,0.7189574910153169,,,037,001,2019_May_16_1310,MusicAffectPsychophysiology2019,3.0.5,59.62231054356885,
To what extent did the music make you feel ,EXCITED,30MonoWAV/30MonoS1.wav,1,1,3,9,,,,,0,7,7,8,0,8,8,7,,,,,,,,,1,0.7855958779982757,,,037,001,2019_May_16_1310,MusicAffectPsychophysiology2019,3.0.5,59.62231054356885,
To what extent did the music make you feel ,ANXIOUS ,30MonoWAV/30MonoS1.wav,1,1,3,9,,,,,0,7,7,8,0,9,9,1,,,,,,,,,2,0.8843895430036355,,,037,001,2019_May_16_1310,MusicAffectPsychophysiology2019,3.0.5,59.62231054356885,
To what extent did the music make you feel ,TENDER,30MonoWAV/30MonoS1.wav,1,1,3,9,,,,,0,7,7,8,0,10,10,10,,,,,,,,,1,0.7846479369909503,,,037,001,2019_May_16_1310,MusicAffectPsychophysiology2019,3.0.5,59.62231054356885,
To what extent did the music make you feel ,ASHAMED,30MonoWAV/30MonoS1.wav,1,1,3,9,,,,,0,7,7,8,0,11,11,4,,,,,,,,,1,0.9853687559952959,,,037,001,2019_May_16_1310,MusicAffectPsychophysiology2019,3.0.5,59.62231054356885,
,,30MonoWAV/30MonoS1.wav,1,1,3,9,,,,,0,7,7,8,,,,,,,,,,,,,,,,,037,001,2019_May_16_1310,MusicAffectPsychophysiology2019,3.0.5,59.62231054356885,
To what extent did the music make you feel ,GUILTY,30MonoWAV/30MonoS3.wav,1,1,3,11,,,,,0,8,8,10,0,0,0,5,,,1,2.553886897978373,1,0.7339824220107403,2,1.4507442960166372,2,1.7514017189969309,,,037,001,2019_May_16_1310,MusicAffectPsychophysiology2019,3.0.5,59.62231054356885,
To what extent did the music make you feel ,SCARED,30MonoWAV/30MonoS3.wav,1,1,3,11,,,,,0,8,8,10,0,1,1,11,,,,,,,,,1,1.2192183660226874,,,037,001,2019_May_16_1310,MusicAffectPsychophysiology2019,3.0.5,59.62231054356885,
To what extent did the music make you feel ,TENDER,30MonoWAV/30MonoS3.wav,1,1,3,11,,,,,0,8,8,10,0,2,2,10,,,,,,,,,1,1.1181399390043225,,,037,001,2019_May_16_1310,MusicAffectPsychophysiology2019,3.0.5,59.62231054356885,
To what extent did the music make you feel ,ANGRY,30MonoWAV/30MonoS3.wav,1,1,3,11,,,,,0,8,8,10,0,3,3,2,,,,,,,,,2,2.1352066569961607,,,037,001,2019_May_16_1310,MusicAffectPsychophysiology2019,3.0.5,59.62231054356885,
To what extent did the music make you feel ,FRUSTRATED,30MonoWAV/30MonoS3.wav,1,1,3,11,,,,,0,8,8,10,0,4,4,3,,,,,,,,,1,0.902272114995867,,,037,001,2019_May_16_1310,MusicAffectPsychophysiology2019,3.0.5,59.62231054356885,
To what extent did the music make you feel ,ANXIOUS ,30MonoWAV/30MonoS3.wav,1,1,3,11,,,,,0,8,8,10,0,5,5,1,,,,,,,,,1,1.1859747559938114,,,037,001,2019_May_16_1310,MusicAffectPsychophysiology2019,3.0.5,59.62231054356885,
To what extent did the music make you feel ,ALERT,30MonoWAV/30MonoS3.wav,1,1,3,11,,,,,0,8,8,10,0,6,6,8,,,,,,,,,1,1.2515349780151155,,,037,001,2019_May_16_1310,MusicAffectPsychophysiology2019,3.0.5,59.62231054356885,
To what extent did the music make you feel ,SAD,30MonoWAV/30MonoS3.wav,1,1,3,11,,,,,0,8,8,10,0,7,7,0,,,,,,,,,3,1.2353150699927937,,,037,001,2019_May_16_1310,MusicAffectPsychophysiology2019,3.0.5,59.62231054356885,
To what extent did the music make you feel ,ASHAMED,30MonoWAV/30MonoS3.wav,1,1,3,11,,,,,0,8,8,10,0,8,8,4,,,,,,,,,3,1.5188258790003601,,,037,001,2019_May_16_1310,MusicAffectPsychophysiology2019,3.0.5,59.62231054356885,
To what extent did the music make you feel ,ACTIVE,30MonoWAV/30MonoS3.wav,1,1,3,11,,,,,0,8,8,10,0,9,9,9,,,,,,,,,1,1.3351292549923528,,,037,001,2019_May_16_1310,MusicAffectPsychophysiology2019,3.0.5,59.62231054356885,
To what extent did the music make you feel ,HAPPY,30MonoWAV/30MonoS3.wav,1,1,3,11,,,,,0,8,8,10,0,10,10,6,,,,,,,,,1,1.0004533500177786,,,037,001,2019_May_16_1310,MusicAffectPsychophysiology2019,3.0.5,59.62231054356885,
To what extent did the music make you feel ,EXCITED,30MonoWAV/30MonoS3.wav,1,1,3,11,,,,,0,8,8,10,0,11,11,7,,,,,,,,,1,0.7348939749936108,,,037,001,2019_May_16_1310,MusicAffectPsychophysiology2019,3.0.5,59.62231054356885,
,,30MonoWAV/30MonoS3.wav,1,1,3,11,,,,,0,8,8,10,,,,,,,,,,,,,,,,,037,001,2019_May_16_1310,MusicAffectPsychophysiology2019,3.0.5,59.62231054356885,
To what extent did the music make you feel ,SCARED,30MonoWAV/30MonoH4.wav,2,2,1,8,,,,,0,9,9,7,0,0,0,11,,,4,3.5551398870011326,4,1.2857390420103911,3,1.455118338984903,1,1.2366875690058805,,,037,001,2019_May_16_1310,MusicAffectPsychophysiology2019,3.0.5,59.62231054356885,
To what extent did the music make you feel ,GUILTY,30MonoWAV/30MonoH4.wav,2,2,1,8,,,,,0,9,9,7,0,1,1,5,,,,,,,,,1,0.5852766149910167,,,037,001,2019_May_16_1310,MusicAffectPsychophysiology2019,3.0.5,59.62231054356885,
To what extent did the music make you feel ,ANXIOUS ,30MonoWAV/30MonoH4.wav,2,2,1,8,,,,,0,9,9,7,0,2,2,1,,,,,,,,,1,0.6021871810080484,,,037,001,2019_May_16_1310,MusicAffectPsychophysiology2019,3.0.5,59.62231054356885,
To what extent did the music make you feel ,TENDER,30MonoWAV/30MonoH4.wav,2,2,1,8,,,,,0,9,9,7,0,3,3,10,,,,,,,,,1,0.7863115539948922,,,037,001,2019_May_16_1310,MusicAffectPsychophysiology2019,3.0.5,59.62231054356885,
To what extent did the music make you feel ,ANGRY,30MonoWAV/30MonoH4.wav,2,2,1,8,,,,,0,9,9,7,0,4,4,2,,,,,,,,,1,0.5522338580049109,,,037,001,2019_May_16_1310,MusicAffectPsychophysiology2019,3.0.5,59.62231054356885,
To what extent did the music make you feel ,FRUSTRATED,30MonoWAV/30MonoH4.wav,2,2,1,8,,,,,0,9,9,7,0,5,5,3,,,,,,,,,1,0.5694516350049525,,,037,001,2019_May_16_1310,MusicAffectPsychophysiology2019,3.0.5,59.62231054356885,
To what extent did the music make you feel ,ASHAMED,30MonoWAV/30MonoH4.wav,2,2,1,8,,,,,0,9,9,7,0,6,6,4,,,,,,,,,1,0.6192102119966876,,,037,001,2019_May_16_1310,MusicAffectPsychophysiology2019,3.0.5,59.62231054356885,
To what extent did the music make you feel ,ACTIVE,30MonoWAV/30MonoH4.wav,2,2,1,8,,,,,0,9,9,7,0,7,7,9,,,,,,,,,4,1.2371267570124473,,,037,001,2019_May_16_1310,MusicAffectPsychophysiology2019,3.0.5,59.62231054356885,
To what extent did the music make you feel ,EXCITED,30MonoWAV/30MonoH4.wav,2,2,1,8,,,,,0,9,9,7,0,8,8,7,,,,,,,,,4,0.819174985983409,,,037,001,2019_May_16_1310,MusicAffectPsychophysiology2019,3.0.5,59.62231054356885,
To what extent did the music make you feel ,ALERT,30MonoWAV/30MonoH4.wav,2,2,1,8,,,,,0,9,9,7,0,9,9,8,,,,,,,,,2,1.1234511669899803,,,037,001,2019_May_16_1310,MusicAffectPsychophysiology2019,3.0.5,59.62231054356885,
To what extent did the music make you feel ,HAPPY,30MonoWAV/30MonoH4.wav,2,2,1,8,,,,,0,9,9,7,0,10,10,6,,,,,,,,,4,1.0837910200061742,,,037,001,2019_May_16_1310,MusicAffectPsychophysiology2019,3.0.5,59.62231054356885,
To what extent did the music make you feel ,SAD,30MonoWAV/30MonoH4.wav,2,2,1,8,,,,,0,9,9,7,0,11,11,0,,,,,,,,,1,0.835383756988449,,,037,001,2019_May_16_1310,MusicAffectPsychophysiology2019,3.0.5,59.62231054356885,
,,30MonoWAV/30MonoH4.wav,2,2,1,8,,,,,0,9,9,7,,,,,,,,,,,,,,,,,037,001,2019_May_16_1310,MusicAffectPsychophysiology2019,3.0.5,59.62231054356885,
To what extent did the music make you feel ,TENDER,30MonoWAV/30MonoH2.wav,2,2,1,6,,,,,0,10,10,5,0,0,0,10,,,2,4.390563806984574,2,1.1701457099989057,2,1.8697622789768502,2,1.4516150709823705,,,037,001,2019_May_16_1310,MusicAffectPsychophysiology2019,3.0.5,59.62231054356885,
To what extent did the music make you feel ,SCARED,30MonoWAV/30MonoH2.wav,2,2,1,6,,,,,0,10,10,5,0,1,1,11,,,,,,,,,1,0.7345216520188842,,,037,001,2019_May_16_1310,MusicAffectPsychophysiology2019,3.0.5,59.62231054356885,
To what extent did the music make you feel ,GUILTY,30MonoWAV/30MonoH2.wav,2,2,1,6,,,,,0,10,10,5,0,2,2,5,,,,,,,,,1,1.0526998740097042,,,037,001,2019_May_16_1310,MusicAffectPsychophysiology2019,3.0.5,59.62231054356885,
To what extent did the music make you feel ,ALERT,30MonoWAV/30MonoH2.wav,2,2,1,6,,,,,0,10,10,5,0,3,3,8,,,,,,,,,2,1.135137236007722,,,037,001,2019_May_16_1310,MusicAffectPsychophysiology2019,3.0.5,59.62231054356885,
To what extent did the music make you feel ,ANXIOUS ,30MonoWAV/30MonoH2.wav,2,2,1,6,,,,,0,10,10,5,0,4,4,1,,,,,,,,,1,1.1518976280058268,,,037,001,2019_May_16_1310,MusicAffectPsychophysiology2019,3.0.5,59.62231054356885,
To what extent did the music make you feel ,EXCITED,30MonoWAV/30MonoH2.wav,2,2,1,6,,,,,0,10,10,5,0,5,5,7,,,,,,,,,3,1.4350509289943147,,,037,001,2019_May_16_1310,MusicAffectPsychophysiology2019,3.0.5,59.62231054356885,
To what extent did the music make you feel ,ANGRY,30MonoWAV/30MonoH2.wav,2,2,1,6,,,,,0,10,10,5,0,6,6,2,,,,,,,,,1,0.6858134169888217,,,037,001,2019_May_16_1310,MusicAffectPsychophysiology2019,3.0.5,59.62231054356885,
To what extent did the music make you feel ,ACTIVE,30MonoWAV/30MonoH2.wav,2,2,1,6,,,,,0,10,10,5,0,7,7,9,,,,,,,,,2,1.2165403440012597,,,037,001,2019_May_16_1310,MusicAffectPsychophysiology2019,3.0.5,59.62231054356885,
To what extent did the music make you feel ,SAD,30MonoWAV/30MonoH2.wav,2,2,1,6,,,,,0,10,10,5,0,8,8,0,,,,,,,,,1,0.6018398870073725,,,037,001,2019_May_16_1310,MusicAffectPsychophysiology2019,3.0.5,59.62231054356885,
To what extent did the music make you feel ,FRUSTRATED,30MonoWAV/30MonoH2.wav,2,2,1,6,,,,,0,10,10,5,0,9,9,3,,,,,,,,,1,1.0345610789954662,,,037,001,2019_May_16_1310,MusicAffectPsychophysiology2019,3.0.5,59.62231054356885,
To what extent did the music make you feel ,ASHAMED,30MonoWAV/30MonoH2.wav,2,2,1,6,,,,,0,10,10,5,0,10,10,4,,,,,,,,,1,0.8516396789927967,,,037,001,2019_May_16_1310,MusicAffectPsychophysiology2019,3.0.5,59.62231054356885,
To what extent did the music make you feel ,HAPPY,30MonoWAV/30MonoH2.wav,2,2,1,6,,,,,0,10,10,5,0,11,11,6,,,,,,,,,3,1.4518673160055187,,,037,001,2019_May_16_1310,MusicAffectPsychophysiology2019,3.0.5,59.62231054356885,
,,30MonoWAV/30MonoH2.wav,2,2,1,6,,,,,0,10,10,5,,,,,,,,,,,,,,,,,037,001,2019_May_16_1310,MusicAffectPsychophysiology2019,3.0.5,59.62231054356885,
To what extent did the music make you feel ,HAPPY,30MonoWAV/30MonoH3.wav,2,2,1,7,,,,,0,11,11,6,0,0,0,6,,,2,3.069125904003158,2,0.9185665419790894,1,1.5169317960098851,2,1.4864133610099088,,,037,001,2019_May_16_1310,MusicAffectPsychophysiology2019,3.0.5,59.62231054356885,
To what extent did the music make you feel ,TENDER,30MonoWAV/30MonoH3.wav,2,2,1,7,,,,,0,11,11,6,0,1,1,10,,,,,,,,,1,0.9014051299891435,,,037,001,2019_May_16_1310,MusicAffectPsychophysiology2019,3.0.5,59.62231054356885,
To what extent did the music make you feel ,FRUSTRATED,30MonoWAV/30MonoH3.wav,2,2,1,7,,,,,0,11,11,6,0,2,2,3,,,,,,,,,1,0.635351711011026,,,037,001,2019_May_16_1310,MusicAffectPsychophysiology2019,3.0.5,59.62231054356885,
To what extent did the music make you feel ,EXCITED,30MonoWAV/30MonoH3.wav,2,2,1,7,,,,,0,11,11,6,0,3,3,7,,,,,,,,,2,0.8359245609899517,,,037,001,2019_May_16_1310,MusicAffectPsychophysiology2019,3.0.5,59.62231054356885,
To what extent did the music make you feel ,ANXIOUS ,30MonoWAV/30MonoH3.wav,2,2,1,7,,,,,0,11,11,6,0,4,4,1,,,,,,,,,1,0.6526279789977707,,,037,001,2019_May_16_1310,MusicAffectPsychophysiology2019,3.0.5,59.62231054356885,
To what extent did the music make you feel ,GUILTY,30MonoWAV/30MonoH3.wav,2,2,1,7,,,,,0,11,11,6,0,5,5,5,,,,,,,,,1,0.5693660830147564,,,037,001,2019_May_16_1310,MusicAffectPsychophysiology2019,3.0.5,59.62231054356885,
To what extent did the music make you feel ,ANGRY,30MonoWAV/30MonoH3.wav,2,2,1,7,,,,,0,11,11,6,0,6,6,2,,,,,,,,,1,0.5358732869790401,,,037,001,2019_May_16_1310,MusicAffectPsychophysiology2019,3.0.5,59.62231054356885,
To what extent did the music make you feel ,SAD,30MonoWAV/30MonoH3.wav,2,2,1,7,,,,,0,11,11,6,0,7,7,0,,,,,,,,,1,0.735106223000912,,,037,001,2019_May_16_1310,MusicAffectPsychophysiology2019,3.0.5,59.62231054356885,
To what extent did the music make you feel ,ASHAMED,30MonoWAV/30MonoH3.wav,2,2,1,7,,,,,0,11,11,6,0,8,8,4,,,,,,,,,1,0.617817731021205,,,037,001,2019_May_16_1310,MusicAffectPsychophysiology2019,3.0.5,59.62231054356885,
To what extent did the music make you feel ,SCARED,30MonoWAV/30MonoH3.wav,2,2,1,7,,,,,0,11,11,6,0,9,9,11,,,,,,,,,1,0.5516381920024287,,,037,001,2019_May_16_1310,MusicAffectPsychophysiology2019,3.0.5,59.62231054356885,
To what extent did the music make you feel ,ALERT,30MonoWAV/30MonoH3.wav,2,2,1,7,,,,,0,11,11,6,0,10,10,8,,,,,,,,,1,0.7689320539939217,,,037,001,2019_May_16_1310,MusicAffectPsychophysiology2019,3.0.5,59.62231054356885,
To what extent did the music make you feel ,ACTIVE,30MonoWAV/30MonoH3.wav,2,2,1,7,,,,,0,11,11,6,0,11,11,9,,,,,,,,,2,1.3854846410104074,,,037,001,2019_May_16_1310,MusicAffectPsychophysiology2019,3.0.5,59.62231054356885,
,,30MonoWAV/30MonoH3.wav,2,2,1,7,,,,,0,11,11,6,,,,,,,,,,,,,,,,,037,001,2019_May_16_1310,MusicAffectPsychophysiology2019,3.0.5,59.62231054356885,
To what extent did the music make you feel ,ASHAMED,30MonoWAV/30MonoT1.wav,2,1,4,13,,,,,0,12,12,12,0,0,0,4,,,2,4.951353195996489,2,1.6688645399990492,2,2.8506995600182563,1,1.5180470710038207,,,037,001,2019_May_16_1310,MusicAffectPsychophysiology2019,3.0.5,59.62231054356885,
To what extent did the music make you feel ,SAD,30MonoWAV/30MonoT1.wav,2,1,4,13,,,,,0,12,12,12,0,1,1,0,,,,,,,,,2,0.9520151129981969,,,037,001,2019_May_16_1310,MusicAffectPsychophysiology2019,3.0.5,59.62231054356885,
To what extent did the music make you feel ,EXCITED,30MonoWAV/30MonoT1.wav,2,1,4,13,,,,,0,12,12,12,0,2,2,7,,,,,,,,,1,1.5343854899983853,,,037,001,2019_May_16_1310,MusicAffectPsychophysiology2019,3.0.5,59.62231054356885,
To what extent did the music make you feel ,ALERT,30MonoWAV/30MonoT1.wav,2,1,4,13,,,,,0,12,12,12,0,3,3,8,,,,,,,,,1,0.9164644429984037,,,037,001,2019_May_16_1310,MusicAffectPsychophysiology2019,3.0.5,59.62231054356885,
To what extent did the music make you feel ,ANXIOUS ,30MonoWAV/30MonoT1.wav,2,1,4,13,,,,,0,12,12,12,0,4,4,1,,,,,,,,,1,1.3683984139934182,,,037,001,2019_May_16_1310,MusicAffectPsychophysiology2019,3.0.5,59.62231054356885,
To what extent did the music make you feel ,TENDER,30MonoWAV/30MonoT1.wav,2,1,4,13,,,,,0,12,12,12,0,5,5,10,,,,,,,,,2,1.2184200049960054,,,037,001,2019_May_16_1310,MusicAffectPsychophysiology2019,3.0.5,59.62231054356885,
To what extent did the music make you feel ,HAPPY,30MonoWAV/30MonoT1.wav,2,1,4,13,,,,,0,12,12,12,0,6,6,6,,,,,,,,,2,1.4848641010175925,,,037,001,2019_May_16_1310,MusicAffectPsychophysiology2019,3.0.5,59.62231054356885,
To what extent did the music make you feel ,ACTIVE,30MonoWAV/30MonoT1.wav,2,1,4,13,,,,,0,12,12,12,0,7,7,9,,,,,,,,,1,1.0840662289992906,,,037,001,2019_May_16_1310,MusicAffectPsychophysiology2019,3.0.5,59.62231054356885,
To what extent did the music make you feel ,FRUSTRATED,30MonoWAV/30MonoT1.wav,2,1,4,13,,,,,0,12,12,12,0,8,8,3,,,,,,,,,1,0.8174195289902855,,,037,001,2019_May_16_1310,MusicAffectPsychophysiology2019,3.0.5,59.62231054356885,
To what extent did the music make you feel ,SCARED,30MonoWAV/30MonoT1.wav,2,1,4,13,,,,,0,12,12,12,0,9,9,11,,,,,,,,,1,1.436192683991976,,,037,001,2019_May_16_1310,MusicAffectPsychophysiology2019,3.0.5,59.62231054356885,
To what extent did the music make you feel ,ANGRY,30MonoWAV/30MonoT1.wav,2,1,4,13,,,,,0,12,12,12,0,10,10,2,,,,,,,,,1,1.268612107989611,,,037,001,2019_May_16_1310,MusicAffectPsychophysiology2019,3.0.5,59.62231054356885,
To what extent did the music make you feel ,GUILTY,30MonoWAV/30MonoT1.wav,2,1,4,13,,,,,0,12,12,12,0,11,11,5,,,,,,,,,1,0.9015988390019629,,,037,001,2019_May_16_1310,MusicAffectPsychophysiology2019,3.0.5,59.62231054356885,
,,30MonoWAV/30MonoT1.wav,2,1,4,13,,,,,0,12,12,12,,,,,,,,,,,,,,,,,037,001,2019_May_16_1310,MusicAffectPsychophysiology2019,3.0.5,59.62231054356885,
To what extent did the music make you feel ,ANXIOUS ,30MonoWAV/30MonoF1.wav,1,2,2,1,,,,,0,13,13,0,0,0,0,1,,,3,4.815630316006718,1,2.852368428983027,1,0.8510892539925408,4,2.433334435976576,,,037,001,2019_May_16_1310,MusicAffectPsychophysiology2019,3.0.5,59.62231054356885,
To what extent did the music make you feel ,ANGRY,30MonoWAV/30MonoF1.wav,1,2,2,1,,,,,0,13,13,0,0,1,1,2,,,,,,,,,2,1.6335147100035101,,,037,001,2019_May_16_1310,MusicAffectPsychophysiology2019,3.0.5,59.62231054356885,
To what extent did the music make you feel ,ACTIVE,30MonoWAV/30MonoF1.wav,1,2,2,1,,,,,0,13,13,0,0,2,2,9,,,,,,,,,3,1.4014405830239411,,,037,001,2019_May_16_1310,MusicAffectPsychophysiology2019,3.0.5,59.62231054356885,
To what extent did the music make you feel ,EXCITED,30MonoWAV/30MonoF1.wav,1,2,2,1,,,,,0,13,13,0,0,3,3,7,,,,,,,,,1,1.3520620860217605,,,037,001,2019_May_16_1310,MusicAffectPsychophysiology2019,3.0.5,59.62231054356885,
To what extent did the music make you feel ,GUILTY,30MonoWAV/30MonoF1.wav,1,2,2,1,,,,,0,13,13,0,0,4,4,5,,,,,,,,,1,1.0686340279935393,,,037,001,2019_May_16_1310,MusicAffectPsychophysiology2019,3.0.5,59.62231054356885,
To what extent did the music make you feel ,FRUSTRATED,30MonoWAV/30MonoF1.wav,1,2,2,1,,,,,0,13,13,0,0,5,5,3,,,,,,,,,1,0.8849761929886881,,,037,001,2019_May_16_1310,MusicAffectPsychophysiology2019,3.0.5,59.62231054356885,
To what extent did the music make you feel ,ASHAMED,30MonoWAV/30MonoF1.wav,1,2,2,1,,,,,0,13,13,0,0,6,6,4,,,,,,,,,1,2.251069497986464,,,037,001,2019_May_16_1310,MusicAffectPsychophysiology2019,3.0.5,59.62231054356885,
To what extent did the music make you feel ,ALERT,30MonoWAV/30MonoF1.wav,1,2,2,1,,,,,0,13,13,0,0,7,7,8,,,,,,,,,4,1.4037947469914798,,,037,001,2019_May_16_1310,MusicAffectPsychophysiology2019,3.0.5,59.62231054356885,
To what extent did the music make you feel ,TENDER,30MonoWAV/30MonoF1.wav,1,2,2,1,,,,,0,13,13,0,0,8,8,10,,,,,,,,,1,1.0509836109995376,,,037,001,2019_May_16_1310,MusicAffectPsychophysiology2019,3.0.5,59.62231054356885,
To what extent did the music make you feel ,SAD,30MonoWAV/30MonoF1.wav,1,2,2,1,,,,,0,13,13,0,0,9,9,0,,,,,,,,,1,1.268285907979589,,,037,001,2019_May_16_1310,MusicAffectPsychophysiology2019,3.0.5,59.62231054356885,
To what extent did the music make you feel ,SCARED,30MonoWAV/30MonoF1.wav,1,2,2,1,,,,,0,13,13,0,0,10,10,11,,,,,,,,,3,1.235504000011133,,,037,001,2019_May_16_1310,MusicAffectPsychophysiology2019,3.0.5,59.62231054356885,
To what extent did the music make you feel ,HAPPY,30MonoWAV/30MonoF1.wav,1,2,2,1,,,,,0,13,13,0,0,11,11,6,,,,,,,,,1,1.1018842399935238,,,037,001,2019_May_16_1310,MusicAffectPsychophysiology2019,3.0.5,59.62231054356885,
,,30MonoWAV/30MonoF1.wav,1,2,2,1,,,,,0,13,13,0,,,,,,,,,,,,,,,,,037,001,2019_May_16_1310,MusicAffectPsychophysiology2019,3.0.5,59.62231054356885,
To what extent did the music make you feel ,HAPPY,30MonoWAV/30MonoF4.wav,1,2,2,4,,,,,0,14,14,3,0,0,0,6,,,3,2.317123469983926,2,2.6848723519942723,1,1.2178452659863979,2,1.068543811008567,,,037,001,2019_May_16_1310,MusicAffectPsychophysiology2019,3.0.5,59.62231054356885,
To what extent did the music make you feel ,SAD,30MonoWAV/30MonoF4.wav,1,2,2,4,,,,,0,14,14,3,0,1,1,0,,,,,,,,,1,0.851767950982321,,,037,001,2019_May_16_1310,MusicAffectPsychophysiology2019,3.0.5,59.62231054356885,
To what extent did the music make you feel ,SCARED,30MonoWAV/30MonoF4.wav,1,2,2,4,,,,,0,14,14,3,0,2,2,11,,,,,,,,,2,1.002343368018046,,,037,001,2019_May_16_1310,MusicAffectPsychophysiology2019,3.0.5,59.62231054356885,
To what extent did the music make you feel ,ANGRY,30MonoWAV/30MonoF4.wav,1,2,2,4,,,,,0,14,14,3,0,3,3,2,,,,,,,,,1,1.502403931983281,,,037,001,2019_May_16_1310,MusicAffectPsychophysiology2019,3.0.5,59.62231054356885,
To what extent did the music make you feel ,ANXIOUS ,30MonoWAV/30MonoF4.wav,1,2,2,4,,,,,0,14,14,3,0,4,4,1,,,,,,,,,2,0.9185775560035836,,,037,001,2019_May_16_1310,MusicAffectPsychophysiology2019,3.0.5,59.62231054356885,
To what extent did the music make you feel ,ALERT,30MonoWAV/30MonoF4.wav,1,2,2,4,,,,,0,14,14,3,0,5,5,8,,,,,,,,,3,1.4846834710042458,,,037,001,2019_May_16_1310,MusicAffectPsychophysiology2019,3.0.5,59.62231054356885,
To what extent did the music make you feel ,FRUSTRATED,30MonoWAV/30MonoF4.wav,1,2,2,4,,,,,0,14,14,3,0,6,6,3,,,,,,,,,1,1.2187420330010355,,,037,001,2019_May_16_1310,MusicAffectPsychophysiology2019,3.0.5,59.62231054356885,
To what extent did the music make you feel ,TENDER,30MonoWAV/30MonoF4.wav,1,2,2,4,,,,,0,14,14,3,0,7,7,10,,,,,,,,,1,0.8010841019859072,,,037,001,2019_May_16_1310,MusicAffectPsychophysiology2019,3.0.5,59.62231054356885,
To what extent did the music make you feel ,ASHAMED,30MonoWAV/30MonoF4.wav,1,2,2,4,,,,,0,14,14,3,0,8,8,4,,,,,,,,,1,0.6690526939928532,,,037,001,2019_May_16_1310,MusicAffectPsychophysiology2019,3.0.5,59.62231054356885,
To what extent did the music make you feel ,ACTIVE,30MonoWAV/30MonoF4.wav,1,2,2,4,,,,,0,14,14,3,0,9,9,9,,,,,,,,,2,0.8354202790069394,,,037,001,2019_May_16_1310,MusicAffectPsychophysiology2019,3.0.5,59.62231054356885,
To what extent did the music make you feel ,EXCITED,30MonoWAV/30MonoF4.wav,1,2,2,4,,,,,0,14,14,3,0,10,10,7,,,,,,,,,2,1.2525820190203376,,,037,001,2019_May_16_1310,MusicAffectPsychophysiology2019,3.0.5,59.62231054356885,
To what extent did the music make you feel ,GUILTY,30MonoWAV/30MonoF4.wav,1,2,2,4,,,,,0,14,14,3,0,11,11,5,,,,,,,,,1,1.1179101330053527,,,037,001,2019_May_16_1310,MusicAffectPsychophysiology2019,3.0.5,59.62231054356885,
,,30MonoWAV/30MonoF4.wav,1,2,2,4,,,,,0,14,14,3,,,,,,,,,,,,,,,,,037,001,2019_May_16_1310,MusicAffectPsychophysiology2019,3.0.5,59.62231054356885,
To what extent did the music make you feel ,TENDER,30MonoWAV/30MonoT3.wav,2,1,4,15,,,,,0,15,15,14,0,0,0,10,,,1,3.7012952019867953,3,1.91907241899753,2,1.3851748180168215,3,1.7856508179975208,,,037,001,2019_May_16_1310,MusicAffectPsychophysiology2019,3.0.5,59.62231054356885,
To what extent did the music make you feel ,SAD,30MonoWAV/30MonoT3.wav,2,1,4,15,,,,,0,15,15,14,0,1,1,0,,,,,,,,,2,1.0014720069884788,,,037,001,2019_May_16_1310,MusicAffectPsychophysiology2019,3.0.5,59.62231054356885,
To what extent did the music make you feel ,HAPPY,30MonoWAV/30MonoT3.wav,2,1,4,15,,,,,0,15,15,14,0,2,2,6,,,,,,,,,3,0.9017728829931002,,,037,001,2019_May_16_1310,MusicAffectPsychophysiology2019,3.0.5,59.62231054356885,
To what extent did the music make you feel ,ANXIOUS ,30MonoWAV/30MonoT3.wav,2,1,4,15,,,,,0,15,15,14,0,3,3,1,,,,,,,,,1,0.9692332609847654,,,037,001,2019_May_16_1310,MusicAffectPsychophysiology2019,3.0.5,59.62231054356885,
To what extent did the music make you feel ,ASHAMED,30MonoWAV/30MonoT3.wav,2,1,4,15,,,,,0,15,15,14,0,4,4,4,,,,,,,,,1,0.6351425469911192,,,037,001,2019_May_16_1310,MusicAffectPsychophysiology2019,3.0.5,59.62231054356885,
To what extent did the music make you feel ,ANGRY,30MonoWAV/30MonoT3.wav,2,1,4,15,,,,,0,15,15,14,0,5,5,2,,,,,,,,,1,0.4688424570194911,,,037,001,2019_May_16_1310,MusicAffectPsychophysiology2019,3.0.5,59.62231054356885,
To what extent did the music make you feel ,GUILTY,30MonoWAV/30MonoT3.wav,2,1,4,15,,,,,0,15,15,14,0,6,6,5,,,,,,,,,1,0.7010108899849001,,,037,001,2019_May_16_1310,MusicAffectPsychophysiology2019,3.0.5,59.62231054356885,
To what extent did the music make you feel ,SCARED,30MonoWAV/30MonoT3.wav,2,1,4,15,,,,,0,15,15,14,0,7,7,11,,,,,,,,,1,0.8348314560134895,,,037,001,2019_May_16_1310,MusicAffectPsychophysiology2019,3.0.5,59.62231054356885,
To what extent did the music make you feel ,ALERT,30MonoWAV/30MonoT3.wav,2,1,4,15,,,,,0,15,15,14,0,8,8,8,,,,,,,,,1,0.8181001489865594,,,037,001,2019_May_16_1310,MusicAffectPsychophysiology2019,3.0.5,59.62231054356885,
To what extent did the music make you feel ,EXCITED,30MonoWAV/30MonoT3.wav,2,1,4,15,,,,,0,15,15,14,0,9,9,7,,,,,,,,,1,1.0514611560211051,,,037,001,2019_May_16_1310,MusicAffectPsychophysiology2019,3.0.5,59.62231054356885,
To what extent did the music make you feel ,FRUSTRATED,30MonoWAV/30MonoT3.wav,2,1,4,15,,,,,0,15,15,14,0,10,10,3,,,,,,,,,1,0.933310452994192,,,037,001,2019_May_16_1310,MusicAffectPsychophysiology2019,3.0.5,59.62231054356885,
To what extent did the music make you feel ,ACTIVE,30MonoWAV/30MonoT3.wav,2,1,4,15,,,,,0,15,15,14,0,11,11,9,,,,,,,,,1,0.7857224339968525,,,037,001,2019_May_16_1310,MusicAffectPsychophysiology2019,3.0.5,59.62231054356885,
,,30MonoWAV/30MonoT3.wav,2,1,4,15,,,,,0,15,15,14,,,,,,,,,,,,,,,,,037,001,2019_May_16_1310,MusicAffectPsychophysiology2019,3.0.5,59.62231054356885,
To what extent did the music make you feel ,SAD,30MonoWAV/30MonoT3.wav,2,1,4,15,,,,,1,0,16,14,0,0,0,0,,,2,2.550610969978152,3,1.9354036150034517,2,1.6012470929999836,2,1.469100450980477,,,037,001,2019_May_16_1310,MusicAffectPsychophysiology2019,3.0.5,59.62231054356885,
To what extent did the music make you feel ,FRUSTRATED,30MonoWAV/30MonoT3.wav,2,1,4,15,,,,,1,0,16,14,0,1,1,3,,,,,,,,,1,1.03521888400428,,,037,001,2019_May_16_1310,MusicAffectPsychophysiology2019,3.0.5,59.62231054356885,
To what extent did the music make you feel ,ACTIVE,30MonoWAV/30MonoT3.wav,2,1,4,15,,,,,1,0,16,14,0,2,2,9,,,,,,,,,1,0.8332769139960874,,,037,001,2019_May_16_1310,MusicAffectPsychophysiology2019,3.0.5,59.62231054356885,
To what extent did the music make you feel ,ANXIOUS ,30MonoWAV/30MonoT3.wav,2,1,4,15,,,,,1,0,16,14,0,3,3,1,,,,,,,,,1,0.6521580719854683,,,037,001,2019_May_16_1310,MusicAffectPsychophysiology2019,3.0.5,59.62231054356885,
To what extent did the music make you feel ,EXCITED,30MonoWAV/30MonoT3.wav,2,1,4,15,,,,,1,0,16,14,0,4,4,7,,,,,,,,,1,0.9848958410148043,,,037,001,2019_May_16_1310,MusicAffectPsychophysiology2019,3.0.5,59.62231054356885,
To what extent did the music make you feel ,ALERT,30MonoWAV/30MonoT3.wav,2,1,4,15,,,,,1,0,16,14,0,5,5,8,,,,,,,,,1,0.7682570079923607,,,037,001,2019_May_16_1310,MusicAffectPsychophysiology2019,3.0.5,59.62231054356885,
To what extent did the music make you feel ,SCARED,30MonoWAV/30MonoT3.wav,2,1,4,15,,,,,1,0,16,14,0,6,6,11,,,,,,,,,1,0.8017675910086837,,,037,001,2019_May_16_1310,MusicAffectPsychophysiology2019,3.0.5,59.62231054356885,
To what extent did the music make you feel ,ASHAMED,30MonoWAV/30MonoT3.wav,2,1,4,15,,,,,1,0,16,14,0,7,7,4,,,,,,,,,1,0.7190680930216331,,,037,001,2019_May_16_1310,MusicAffectPsychophysiology2019,3.0.5,59.62231054356885,
To what extent did the music make you feel ,ANGRY,30MonoWAV/30MonoT3.wav,2,1,4,15,,,,,1,0,16,14,0,8,8,2,,,,,,,,,1,0.7191382579912897,,,037,001,2019_May_16_1310,MusicAffectPsychophysiology2019,3.0.5,59.62231054356885,
To what extent did the music make you feel ,HAPPY,30MonoWAV/30MonoT3.wav,2,1,4,15,,,,,1,0,16,14,0,9,9,6,,,,,,,,,3,0.8826610439864453,,,037,001,2019_May_16_1310,MusicAffectPsychophysiology2019,3.0.5,59.62231054356885,
To what extent did the music make you feel ,GUILTY,30MonoWAV/30MonoT3.wav,2,1,4,15,,,,,1,0,16,14,0,10,10,5,,,,,,,,,1,1.185349564999342,,,037,001,2019_May_16_1310,MusicAffectPsychophysiology2019,3.0.5,59.62231054356885,
To what extent did the music make you feel ,TENDER,30MonoWAV/30MonoT3.wav,2,1,4,15,,,,,1,0,16,14,0,11,11,10,,,,,,,,,2,0.7182795839908067,,,037,001,2019_May_16_1310,MusicAffectPsychophysiology2019,3.0.5,59.62231054356885,
,,30MonoWAV/30MonoT3.wav,2,1,4,15,,,,,1,0,16,14,,,,,,,,,,,,,,,,,037,001,2019_May_16_1310,MusicAffectPsychophysiology2019,3.0.5,59.62231054356885,
To what extent did the music make you feel ,TENDER,30MonoWAV/30MonoT2.wav,2,1,4,14,,,,,1,1,17,13,0,0,0,10,,,2,2.4548630079953,4,1.23869909599307,4,0.9683815549942665,2,1.2183172719960567,,,037,001,2019_May_16_1310,MusicAffectPsychophysiology2019,3.0.5,59.62231054356885,
To what extent did the music make you feel ,SAD,30MonoWAV/30MonoT2.wav,2,1,4,14,,,,,1,1,17,13,0,1,1,0,,,,,,,,,3,0.6858026159752626,,,037,001,2019_May_16_1310,MusicAffectPsychophysiology2019,3.0.5,59.62231054356885,
To what extent did the music make you feel ,ASHAMED,30MonoWAV/30MonoT2.wav,2,1,4,14,,,,,1,1,17,13,0,2,2,4,,,,,,,,,1,0.9518508710025344,,,037,001,2019_May_16_1310,MusicAffectPsychophysiology2019,3.0.5,59.62231054356885,
To what extent did the music make you feel ,HAPPY,30MonoWAV/30MonoT2.wav,2,1,4,14,,,,,1,1,17,13,0,3,3,6,,,,,,,,,3,0.68512589999591,,,037,001,2019_May_16_1310,MusicAffectPsychophysiology2019,3.0.5,59.62231054356885,
To what extent did the music make you feel ,ANGRY,30MonoWAV/30MonoT2.wav,2,1,4,14,,,,,1,1,17,13,0,4,4,2,,,,,,,,,1,0.7511958249961026,,,037,001,2019_May_16_1310,MusicAffectPsychophysiology2019,3.0.5,59.62231054356885,
To what extent did the music make you feel ,GUILTY,30MonoWAV/30MonoT2.wav,2,1,4,14,,,,,1,1,17,13,0,5,5,5,,,,,,,,,1,0.7000810309837107,,,037,001,2019_May_16_1310,MusicAffectPsychophysiology2019,3.0.5,59.62231054356885,
To what extent did the music make you feel ,FRUSTRATED,30MonoWAV/30MonoT2.wav,2,1,4,14,,,,,1,1,17,13,0,6,6,3,,,,,,,,,1,0.5853890939906705,,,037,001,2019_May_16_1310,MusicAffectPsychophysiology2019,3.0.5,59.62231054356885,
To what extent did the music make you feel ,ANXIOUS ,30MonoWAV/30MonoT2.wav,2,1,4,14,,,,,1,1,17,13,0,7,7,1,,,,,,,,,1,0.7186349890253041,,,037,001,2019_May_16_1310,MusicAffectPsychophysiology2019,3.0.5,59.62231054356885,
To what extent did the music make you feel ,EXCITED,30MonoWAV/30MonoT2.wav,2,1,4,14,,,,,1,1,17,13,0,8,8,7,,,,,,,,,1,1.068152532010572,,,037,001,2019_May_16_1310,MusicAffectPsychophysiology2019,3.0.5,59.62231054356885,
To what extent did the music make you feel ,ALERT,30MonoWAV/30MonoT2.wav,2,1,4,14,,,,,1,1,17,13,0,9,9,8,,,,,,,,,1,0.7352442079863977,,,037,001,2019_May_16_1310,MusicAffectPsychophysiology2019,3.0.5,59.62231054356885,
To what extent did the music make you feel ,ACTIVE,30MonoWAV/30MonoT2.wav,2,1,4,14,,,,,1,1,17,13,0,10,10,9,,,,,,,,,1,0.7181556790019386,,,037,001,2019_May_16_1310,MusicAffectPsychophysiology2019,3.0.5,59.62231054356885,
To what extent did the music make you feel ,SCARED,30MonoWAV/30MonoT2.wav,2,1,4,14,,,,,1,1,17,13,0,11,11,11,,,,,,,,,1,0.5009622699872125,,,037,001,2019_May_16_1310,MusicAffectPsychophysiology2019,3.0.5,59.62231054356885,
,,30MonoWAV/30MonoT2.wav,2,1,4,14,,,,,1,1,17,13,,,,,,,,,,,,,,,,,037,001,2019_May_16_1310,MusicAffectPsychophysiology2019,3.0.5,59.62231054356885,
To what extent did the music make you feel ,GUILTY,30MonoWAV/30MonoF1.wav,1,2,2,1,,,,,1,2,18,0,0,0,0,5,,,3,6.007580603996757,2,1.1204896300041582,2,2.287539775017649,1,1.5040426250197925,,,037,001,2019_May_16_1310,MusicAffectPsychophysiology2019,3.0.5,59.62231054356885,
To what extent did the music make you feel ,FRUSTRATED,30MonoWAV/30MonoF1.wav,1,2,2,1,,,,,1,2,18,0,0,1,1,3,,,,,,,,,2,0.8191969800100196,,,037,001,2019_May_16_1310,MusicAffectPsychophysiology2019,3.0.5,59.62231054356885,
To what extent did the music make you feel ,ASHAMED,30MonoWAV/30MonoF1.wav,1,2,2,1,,,,,1,2,18,0,0,2,2,4,,,,,,,,,1,1.0879679700010456,,,037,001,2019_May_16_1310,MusicAffectPsychophysiology2019,3.0.5,59.62231054356885,
To what extent did the music make you feel ,ACTIVE,30MonoWAV/30MonoF1.wav,1,2,2,1,,,,,1,2,18,0,0,3,3,9,,,,,,,,,3,1.2182884140056558,,,037,001,2019_May_16_1310,MusicAffectPsychophysiology2019,3.0.5,59.62231054356885,
To what extent did the music make you feel ,EXCITED,30MonoWAV/30MonoF1.wav,1,2,2,1,,,,,1,2,18,0,0,4,4,7,,,,,,,,,1,1.0330572169914376,,,037,001,2019_May_16_1310,MusicAffectPsychophysiology2019,3.0.5,59.62231054356885,
To what extent did the music make you feel ,ALERT,30MonoWAV/30MonoF1.wav,1,2,2,1,,,,,1,2,18,0,0,5,5,8,,,,,,,,,3,0.985660006001126,,,037,001,2019_May_16_1310,MusicAffectPsychophysiology2019,3.0.5,59.62231054356885,
To what extent did the music make you feel ,ANXIOUS ,30MonoWAV/30MonoF1.wav,1,2,2,1,,,,,1,2,18,0,0,6,6,1,,,,,,,,,2,1.1172086939914152,,,037,001,2019_May_16_1310,MusicAffectPsychophysiology2019,3.0.5,59.62231054356885,
To what extent did the music make you feel ,ANGRY,30MonoWAV/30MonoF1.wav,1,2,2,1,,,,,1,2,18,0,0,7,7,2,,,,,,,,,2,1.5694889169826638,,,037,001,2019_May_16_1310,MusicAffectPsychophysiology2019,3.0.5,59.62231054356885,
To what extent did the music make you feel ,SCARED,30MonoWAV/30MonoF1.wav,1,2,2,1,,,,,1,2,18,0,0,8,8,11,,,,,,,,,2,1.5078647299960721,,,037,001,2019_May_16_1310,MusicAffectPsychophysiology2019,3.0.5,59.62231054356885,
To what extent did the music make you feel ,TENDER,30MonoWAV/30MonoF1.wav,1,2,2,1,,,,,1,2,18,0,0,9,9,10,,,,,,,,,1,0.8026930080086458,,,037,001,2019_May_16_1310,MusicAffectPsychophysiology2019,3.0.5,59.62231054356885,
To what extent did the music make you feel ,HAPPY,30MonoWAV/30MonoF1.wav,1,2,2,1,,,,,1,2,18,0,0,10,10,6,,,,,,,,,1,0.6024358399736229,,,037,001,2019_May_16_1310,MusicAffectPsychophysiology2019,3.0.5,59.62231054356885,
To what extent did the music make you feel ,SAD,30MonoWAV/30MonoF1.wav,1,2,2,1,,,,,1,2,18,0,0,11,11,0,,,,,,,,,1,0.6357841000135522,,,037,001,2019_May_16_1310,MusicAffectPsychophysiology2019,3.0.5,59.62231054356885,
,,30MonoWAV/30MonoF1.wav,1,2,2,1,,,,,1,2,18,0,,,,,,,,,,,,,,,,,037,001,2019_May_16_1310,MusicAffectPsychophysiology2019,3.0.5,59.62231054356885,
To what extent did the music make you feel ,SAD,30MonoWAV/30MonoS3.wav,1,1,3,11,,,,,1,3,19,10,0,0,0,0,,,1,2.53404102899367,1,0.6344360829971265,1,0.7022477370046545,2,1.0184788139886223,,,037,001,2019_May_16_1310,MusicAffectPsychophysiology2019,3.0.5,59.62231054356885,
To what extent did the music make you feel ,SCARED,30MonoWAV/30MonoS3.wav,1,1,3,11,,,,,1,3,19,10,0,1,1,11,,,,,,,,,2,0.8521527230041102,,,037,001,2019_May_16_1310,MusicAffectPsychophysiology2019,3.0.5,59.62231054356885,
To what extent did the music make you feel ,TENDER,30MonoWAV/30MonoS3.wav,1,1,3,11,,,,,1,3,19,10,0,2,2,10,,,,,,,,,1,0.7516584250261076,,,037,001,2019_May_16_1310,MusicAffectPsychophysiology2019,3.0.5,59.62231054356885,
To what extent did the music make you feel ,ANXIOUS ,30MonoWAV/30MonoS3.wav,1,1,3,11,,,,,1,3,19,10,0,3,3,1,,,,,,,,,2,0.8018371229991317,,,037,001,2019_May_16_1310,MusicAffectPsychophysiology2019,3.0.5,59.62231054356885,
To what extent did the music make you feel ,FRUSTRATED,30MonoWAV/30MonoS3.wav,1,1,3,11,,,,,1,3,19,10,0,4,4,3,,,,,,,,,1,0.868726908985991,,,037,001,2019_May_16_1310,MusicAffectPsychophysiology2019,3.0.5,59.62231054356885,
To what extent did the music make you feel ,GUILTY,30MonoWAV/30MonoS3.wav,1,1,3,11,,,,,1,3,19,10,0,5,5,5,,,,,,,,,2,1.0849677859805524,,,037,001,2019_May_16_1310,MusicAffectPsychophysiology2019,3.0.5,59.62231054356885,
To what extent did the music make you feel ,HAPPY,30MonoWAV/30MonoS3.wav,1,1,3,11,,,,,1,3,19,10,0,6,6,6,,,,,,,,,1,0.8688460449920967,,,037,001,2019_May_16_1310,MusicAffectPsychophysiology2019,3.0.5,59.62231054356885,
To what extent did the music make you feel ,EXCITED,30MonoWAV/30MonoS3.wav,1,1,3,11,,,,,1,3,19,10,0,7,7,7,,,,,,,,,1,1.3528157379769254,,,037,001,2019_May_16_1310,MusicAffectPsychophysiology2019,3.0.5,59.62231054356885,
To what extent did the music make you feel ,ASHAMED,30MonoWAV/30MonoS3.wav,1,1,3,11,,,,,1,3,19,10,0,8,8,4,,,,,,,,,2,1.0512089410040062,,,037,001,2019_May_16_1310,MusicAffectPsychophysiology2019,3.0.5,59.62231054356885,
To what extent did the music make you feel ,ANGRY,30MonoWAV/30MonoS3.wav,1,1,3,11,,,,,1,3,19,10,0,9,9,2,,,,,,,,,1,0.9512162760074716,,,037,001,2019_May_16_1310,MusicAffectPsychophysiology2019,3.0.5,59.62231054356885,
To what extent did the music make you feel ,ACTIVE,30MonoWAV/30MonoS3.wav,1,1,3,11,,,,,1,3,19,10,0,10,10,9,,,,,,,,,1,0.7684686540160328,,,037,001,2019_May_16_1310,MusicAffectPsychophysiology2019,3.0.5,59.62231054356885,
To what extent did the music make you feel ,ALERT,30MonoWAV/30MonoS3.wav,1,1,3,11,,,,,1,3,19,10,0,11,11,8,,,,,,,,,1,0.9191277840000112,,,037,001,2019_May_16_1310,MusicAffectPsychophysiology2019,3.0.5,59.62231054356885,
,,30MonoWAV/30MonoS3.wav,1,1,3,11,,,,,1,3,19,10,,,,,,,,,,,,,,,,,037,001,2019_May_16_1310,MusicAffectPsychophysiology2019,3.0.5,59.62231054356885,
To what extent did the music make you feel ,ANXIOUS ,30MonoWAV/30MonoS2.wav,1,1,3,10,,,,,1,4,20,9,0,0,0,1,,,1,10.46758461598074,1,1.0357631059887353,1,0.7506257069762796,2,1.1185524820175488,,,037,001,2019_May_16_1310,MusicAffectPsychophysiology2019,3.0.5,59.62231054356885,
To what extent did the music make you feel ,FRUSTRATED,30MonoWAV/30MonoS2.wav,1,1,3,10,,,,,1,4,20,9,0,1,1,3,,,,,,,,,1,0.6853152630210388,,,037,001,2019_May_16_1310,MusicAffectPsychophysiology2019,3.0.5,59.62231054356885,
To what extent did the music make you feel ,HAPPY,30MonoWAV/30MonoS2.wav,1,1,3,10,,,,,1,4,20,9,0,2,2,6,,,,,,,,,1,0.851881942973705,,,037,001,2019_May_16_1310,MusicAffectPsychophysiology2019,3.0.5,59.62231054356885,
To what extent did the music make you feel ,ASHAMED,30MonoWAV/30MonoS2.wav,1,1,3,10,,,,,1,4,20,9,0,3,3,4,,,,,,,,,2,0.9352608140034135,,,037,001,2019_May_16_1310,MusicAffectPsychophysiology2019,3.0.5,59.62231054356885,
To what extent did the music make you feel ,ACTIVE,30MonoWAV/30MonoS2.wav,1,1,3,10,,,,,1,4,20,9,0,4,4,9,,,,,,,,,1,0.4024948770238552,,,037,001,2019_May_16_1310,MusicAffectPsychophysiology2019,3.0.5,59.62231054356885,
To what extent did the music make you feel ,SAD,30MonoWAV/30MonoS2.wav,1,1,3,10,,,,,1,4,20,9,0,5,5,0,,,,,,,,,2,0.8684961819963064,,,037,001,2019_May_16_1310,MusicAffectPsychophysiology2019,3.0.5,59.62231054356885,
To what extent did the music make you feel ,ANGRY,30MonoWAV/30MonoS2.wav,1,1,3,10,,,,,1,4,20,9,0,6,6,2,,,,,,,,,1,1.2854491919861175,,,037,001,2019_May_16_1310,MusicAffectPsychophysiology2019,3.0.5,59.62231054356885,
To what extent did the music make you feel ,EXCITED,30MonoWAV/30MonoS2.wav,1,1,3,10,,,,,1,4,20,9,0,7,7,7,,,,,,,,,1,0.636027650005417,,,037,001,2019_May_16_1310,MusicAffectPsychophysiology2019,3.0.5,59.62231054356885,
To what extent did the music make you feel ,ALERT,30MonoWAV/30MonoS2.wav,1,1,3,10,,,,,1,4,20,9,0,8,8,8,,,,,,,,,1,0.5354953680071048,,,037,001,2019_May_16_1310,MusicAffectPsychophysiology2019,3.0.5,59.62231054356885,
To what extent did the music make you feel ,TENDER,30MonoWAV/30MonoS2.wav,1,1,3,10,,,,,1,4,20,9,0,9,9,10,,,,,,,,,1,1.0024579250020906,,,037,001,2019_May_16_1310,MusicAffectPsychophysiology2019,3.0.5,59.62231054356885,
To what extent did the music make you feel ,SCARED,30MonoWAV/30MonoS2.wav,1,1,3,10,,,,,1,4,20,9,0,10,10,11,,,,,,,,,1,0.6688696650089696,,,037,001,2019_May_16_1310,MusicAffectPsychophysiology2019,3.0.5,59.62231054356885,
To what extent did the music make you feel ,GUILTY,30MonoWAV/30MonoS2.wav,1,1,3,10,,,,,1,4,20,9,0,11,11,5,,,,,,,,,2,0.9186743159953039,,,037,001,2019_May_16_1310,MusicAffectPsychophysiology2019,3.0.5,59.62231054356885,
,,30MonoWAV/30MonoS2.wav,1,1,3,10,,,,,1,4,20,9,,,,,,,,,,,,,,,,,037,001,2019_May_16_1310,MusicAffectPsychophysiology2019,3.0.5,59.62231054356885,
To what extent did the music make you feel ,GUILTY,30MonoWAV/30MonoH1.wav,2,2,1,5,,,,,1,5,21,4,0,0,0,5,,,3,2.4566463750088587,3,1.1531466669985093,3,1.1025021410023328,1,1.1701327429909725,,,037,001,2019_May_16_1310,MusicAffectPsychophysiology2019,3.0.5,59.62231054356885,
To what extent did the music make you feel ,FRUSTRATED,30MonoWAV/30MonoH1.wav,2,2,1,5,,,,,1,5,21,4,0,1,1,3,,,,,,,,,1,0.6694433390221093,,,037,001,2019_May_16_1310,MusicAffectPsychophysiology2019,3.0.5,59.62231054356885,
To what extent did the music make you feel ,HAPPY,30MonoWAV/30MonoH1.wav,2,2,1,5,,,,,1,5,21,4,0,2,2,6,,,,,,,,,3,1.1870869629783556,,,037,001,2019_May_16_1310,MusicAffectPsychophysiology2019,3.0.5,59.62231054356885,
To what extent did the music make you feel ,ACTIVE,30MonoWAV/30MonoH1.wav,2,2,1,5,,,,,1,5,21,4,0,3,3,9,,,,,,,,,3,0.773569940996822,,,037,001,2019_May_16_1310,MusicAffectPsychophysiology2019,3.0.5,59.62231054356885,
To what extent did the music make you feel ,SCARED,30MonoWAV/30MonoH1.wav,2,2,1,5,,,,,1,5,21,4,0,4,4,11,,,,,,,,,1,1.2358794650062919,,,037,001,2019_May_16_1310,MusicAffectPsychophysiology2019,3.0.5,59.62231054356885,
To what extent did the music make you feel ,TENDER,30MonoWAV/30MonoH1.wav,2,2,1,5,,,,,1,5,21,4,0,5,5,10,,,,,,,,,1,0.9005473330034874,,,037,001,2019_May_16_1310,MusicAffectPsychophysiology2019,3.0.5,59.62231054356885,
To what extent did the music make you feel ,ANGRY,30MonoWAV/30MonoH1.wav,2,2,1,5,,,,,1,5,21,4,0,6,6,2,,,,,,,,,1,0.5859681170259137,,,037,001,2019_May_16_1310,MusicAffectPsychophysiology2019,3.0.5,59.62231054356885,
To what extent did the music make you feel ,ANXIOUS ,30MonoWAV/30MonoH1.wav,2,2,1,5,,,,,1,5,21,4,0,7,7,1,,,,,,,,,1,0.6689518440107349,,,037,001,2019_May_16_1310,MusicAffectPsychophysiology2019,3.0.5,59.62231054356885,
To what extent did the music make you feel ,EXCITED,30MonoWAV/30MonoH1.wav,2,2,1,5,,,,,1,5,21,4,0,8,8,7,,,,,,,,,3,1.1361016989976633,,,037,001,2019_May_16_1310,MusicAffectPsychophysiology2019,3.0.5,59.62231054356885,
To what extent did the music make you feel ,SAD,30MonoWAV/30MonoH1.wav,2,2,1,5,,,,,1,5,21,4,0,9,9,0,,,,,,,,,1,0.8519845019909553,,,037,001,2019_May_16_1310,MusicAffectPsychophysiology2019,3.0.5,59.62231054356885,
To what extent did the music make you feel ,ALERT,30MonoWAV/30MonoH1.wav,2,2,1,5,,,,,1,5,21,4,0,10,10,8,,,,,,,,,2,0.9014240660180803,,,037,001,2019_May_16_1310,MusicAffectPsychophysiology2019,3.0.5,59.62231054356885,
To what extent did the music make you feel ,ASHAMED,30MonoWAV/30MonoH1.wav,2,2,1,5,,,,,1,5,21,4,0,11,11,4,,,,,,,,,1,0.7684983809886035,,,037,001,2019_May_16_1310,MusicAffectPsychophysiology2019,3.0.5,59.62231054356885,
,,30MonoWAV/30MonoH1.wav,2,2,1,5,,,,,1,5,21,4,,,,,,,,,,,,,,,,,037,001,2019_May_16_1310,MusicAffectPsychophysiology2019,3.0.5,59.62231054356885,
To what extent did the music make you feel ,SAD,30MonoWAV/30MonoF3.wav,1,2,2,3,,,,,1,6,22,2,0,0,0,0,,,2,2.151623127021594,1,1.2846232909942046,1,0.5851082560257055,1,0.832990825001616,,,037,001,2019_May_16_1310,MusicAffectPsychophysiology2019,3.0.5,59.62231054356885,
To what extent did the music make you feel ,TENDER,30MonoWAV/30MonoF3.wav,1,2,2,3,,,,,1,6,22,2,0,1,1,10,,,,,,,,,1,0.6686682339932304,,,037,001,2019_May_16_1310,MusicAffectPsychophysiology2019,3.0.5,59.62231054356885,
To what extent did the music make you feel ,FRUSTRATED,30MonoWAV/30MonoF3.wav,1,2,2,3,,,,,1,6,22,2,0,2,2,3,,,,,,,,,2,0.8852721010043751,,,037,001,2019_May_16_1310,MusicAffectPsychophysiology2019,3.0.5,59.62231054356885,
To what extent did the music make you feel ,ANXIOUS ,30MonoWAV/30MonoF3.wav,1,2,2,3,,,,,1,6,22,2,0,3,3,1,,,,,,,,,2,2.10222656300175,,,037,001,2019_May_16_1310,MusicAffectPsychophysiology2019,3.0.5,59.62231054356885,
To what extent did the music make you feel ,ANGRY,30MonoWAV/30MonoF3.wav,1,2,2,3,,,,,1,6,22,2,0,4,4,2,,,,,,,,,2,0.6686723089951556,,,037,001,2019_May_16_1310,MusicAffectPsychophysiology2019,3.0.5,59.62231054356885,
To what extent did the music make you feel ,SCARED,30MonoWAV/30MonoF3.wav,1,2,2,3,,,,,1,6,22,2,0,5,5,11,,,,,,,,,1,1.2681358300033025,,,037,001,2019_May_16_1310,MusicAffectPsychophysiology2019,3.0.5,59.62231054356885,
To what extent did the music make you feel ,ACTIVE,30MonoWAV/30MonoF3.wav,1,2,2,3,,,,,1,6,22,2,0,6,6,9,,,,,,,,,2,1.452561934973346,,,037,001,2019_May_16_1310,MusicAffectPsychophysiology2019,3.0.5,59.62231054356885,
To what extent did the music make you feel ,HAPPY,30MonoWAV/30MonoF3.wav,1,2,2,3,,,,,1,6,22,2,0,7,7,6,,,,,,,,,1,0.6012389170064125,,,037,001,2019_May_16_1310,MusicAffectPsychophysiology2019,3.0.5,59.62231054356885,
To what extent did the music make you feel ,EXCITED,30MonoWAV/30MonoF3.wav,1,2,2,3,,,,,1,6,22,2,0,8,8,7,,,,,,,,,1,0.800687263981672,,,037,001,2019_May_16_1310,MusicAffectPsychophysiology2019,3.0.5,59.62231054356885,
To what extent did the music make you feel ,GUILTY,30MonoWAV/30MonoF3.wav,1,2,2,3,,,,,1,6,22,2,0,9,9,5,,,,,,,,,1,0.652085100999102,,,037,001,2019_May_16_1310,MusicAffectPsychophysiology2019,3.0.5,59.62231054356885,
To what extent did the music make you feel ,ASHAMED,30MonoWAV/30MonoF3.wav,1,2,2,3,,,,,1,6,22,2,0,10,10,4,,,,,,,,,1,0.5846874450217001,,,037,001,2019_May_16_1310,MusicAffectPsychophysiology2019,3.0.5,59.62231054356885,
To what extent did the music make you feel ,ALERT,30MonoWAV/30MonoF3.wav,1,2,2,3,,,,,1,6,22,2,0,11,11,8,,,,,,,,,2,0.8665586879942566,,,037,001,2019_May_16_1310,MusicAffectPsychophysiology2019,3.0.5,59.62231054356885,
,,30MonoWAV/30MonoF3.wav,1,2,2,3,,,,,1,6,22,2,,,,,,,,,,,,,,,,,037,001,2019_May_16_1310,MusicAffectPsychophysiology2019,3.0.5,59.62231054356885,
To what extent did the music make you feel ,SCARED,30MonoWAV/30MonoH4.wav,2,2,1,8,,,,,1,7,23,7,0,0,0,11,,,3,6.893002861004788,3,1.3372376729967073,3,1.5369225139729679,1,1.3849436189921107,,,037,001,2019_May_16_1310,MusicAffectPsychophysiology2019,3.0.5,59.62231054356885,
To what extent did the music make you feel ,ANGRY,30MonoWAV/30MonoH4.wav,2,2,1,8,,,,,1,7,23,7,0,1,1,2,,,,,,,,,1,0.4510871150123421,,,037,001,2019_May_16_1310,MusicAffectPsychophysiology2019,3.0.5,59.62231054356885,
To what extent did the music make you feel ,EXCITED,30MonoWAV/30MonoH4.wav,2,2,1,8,,,,,1,7,23,7,0,2,2,7,,,,,,,,,3,1.0190708120062482,,,037,001,2019_May_16_1310,MusicAffectPsychophysiology2019,3.0.5,59.62231054356885,
To what extent did the music make you feel ,HAPPY,30MonoWAV/30MonoH4.wav,2,2,1,8,,,,,1,7,23,7,0,3,3,6,,,,,,,,,3,0.7848546100140084,,,037,001,2019_May_16_1310,MusicAffectPsychophysiology2019,3.0.5,59.62231054356885,
To what extent did the music make you feel ,ALERT,30MonoWAV/30MonoH4.wav,2,2,1,8,,,,,1,7,23,7,0,4,4,8,,,,,,,,,2,1.5008219970040955,,,037,001,2019_May_16_1310,MusicAffectPsychophysiology2019,3.0.5,59.62231054356885,
To what extent did the music make you feel ,FRUSTRATED,30MonoWAV/30MonoH4.wav,2,2,1,8,,,,,1,7,23,7,0,5,5,3,,,,,,,,,1,0.6518491850001737,,,037,001,2019_May_16_1310,MusicAffectPsychophysiology2019,3.0.5,59.62231054356885,
To what extent did the music make you feel ,TENDER,30MonoWAV/30MonoH4.wav,2,2,1,8,,,,,1,7,23,7,0,6,6,10,,,,,,,,,1,0.8359896689944435,,,037,001,2019_May_16_1310,MusicAffectPsychophysiology2019,3.0.5,59.62231054356885,
To what extent did the music make you feel ,ASHAMED,30MonoWAV/30MonoH4.wav,2,2,1,8,,,,,1,7,23,7,0,7,7,4,,,,,,,,,1,0.5857421940017957,,,037,001,2019_May_16_1310,MusicAffectPsychophysiology2019,3.0.5,59.62231054356885,
To what extent did the music make you feel ,SAD,30MonoWAV/30MonoH4.wav,2,2,1,8,,,,,1,7,23,7,0,8,8,0,,,,,,,,,1,0.6349980439990759,,,037,001,2019_May_16_1310,MusicAffectPsychophysiology2019,3.0.5,59.62231054356885,
To what extent did the music make you feel ,ANXIOUS ,30MonoWAV/30MonoH4.wav,2,2,1,8,,,,,1,7,23,7,0,9,9,1,,,,,,,,,1,0.5840317149995826,,,037,001,2019_May_16_1310,MusicAffectPsychophysiology2019,3.0.5,59.62231054356885,
To what extent did the music make you feel ,ACTIVE,30MonoWAV/30MonoH4.wav,2,2,1,8,,,,,1,7,23,7,0,10,10,9,,,,,,,,,2,1.2020243329752702,,,037,001,2019_May_16_1310,MusicAffectPsychophysiology2019,3.0.5,59.62231054356885,
To what extent did the music make you feel ,GUILTY,30MonoWAV/30MonoH4.wav,2,2,1,8,,,,,1,7,23,7,0,11,11,5,,,,,,,,,1,0.5683526410139166,,,037,001,2019_May_16_1310,MusicAffectPsychophysiology2019,3.0.5,59.62231054356885,
,,30MonoWAV/30MonoH4.wav,2,2,1,8,,,,,1,7,23,7,,,,,,,,,,,,,,,,,037,001,2019_May_16_1310,MusicAffectPsychophysiology2019,3.0.5,59.62231054356885,
To what extent did the music make you feel ,FRUSTRATED,30MonoWAV/30MonoF2.wav,1,2,2,2,,,,,1,8,24,1,0,0,0,3,,,2,3.6355989940057043,1,4.218825506977737,1,0.8506438129988965,1,2.277485988015542,,,037,001,2019_May_16_1310,MusicAffectPsychophysiology2019,3.0.5,59.62231054356885,
To what extent did the music make you feel ,GUILTY,30MonoWAV/30MonoF2.wav,1,2,2,2,,,,,1,8,24,1,0,1,1,5,,,,,,,,,1,1.1523227869765833,,,037,001,2019_May_16_1310,MusicAffectPsychophysiology2019,3.0.5,59.62231054356885,
To what extent did the music make you feel ,SCARED,30MonoWAV/30MonoF2.wav,1,2,2,2,,,,,1,8,24,1,0,2,2,11,,,,,,,,,2,1.7513828160008416,,,037,001,2019_May_16_1310,MusicAffectPsychophysiology2019,3.0.5,59.62231054356885,
To what extent did the music make you feel ,ASHAMED,30MonoWAV/30MonoF2.wav,1,2,2,2,,,,,1,8,24,1,0,3,3,4,,,,,,,,,1,0.8697692679997999,,,037,001,2019_May_16_1310,MusicAffectPsychophysiology2019,3.0.5,59.62231054356885,
To what extent did the music make you feel ,EXCITED,30MonoWAV/30MonoF2.wav,1,2,2,2,,,,,1,8,24,1,0,4,4,7,,,,,,,,,1,0.8851380860141944,,,037,001,2019_May_16_1310,MusicAffectPsychophysiology2019,3.0.5,59.62231054356885,
To what extent did the music make you feel ,ACTIVE,30MonoWAV/30MonoF2.wav,1,2,2,2,,,,,1,8,24,1,0,5,5,9,,,,,,,,,2,1.1872356430103537,,,037,001,2019_May_16_1310,MusicAffectPsychophysiology2019,3.0.5,59.62231054356885,
To what extent did the music make you feel ,SAD,30MonoWAV/30MonoF2.wav,1,2,2,2,,,,,1,8,24,1,0,6,6,0,,,,,,,,,1,0.64932742799283,,,037,001,2019_May_16_1310,MusicAffectPsychophysiology2019,3.0.5,59.62231054356885,
To what extent did the music make you feel ,HAPPY,30MonoWAV/30MonoF2.wav,1,2,2,2,,,,,1,8,24,1,0,7,7,6,,,,,,,,,1,0.9354707630118355,,,037,001,2019_May_16_1310,MusicAffectPsychophysiology2019,3.0.5,59.62231054356885,
To what extent did the music make you feel ,ANXIOUS ,30MonoWAV/30MonoF2.wav,1,2,2,2,,,,,1,8,24,1,0,8,8,1,,,,,,,,,2,0.9354731010098476,,,037,001,2019_May_16_1310,MusicAffectPsychophysiology2019,3.0.5,59.62231054356885,
To what extent did the music make you feel ,ANGRY,30MonoWAV/30MonoF2.wav,1,2,2,2,,,,,1,8,24,1,0,9,9,2,,,,,,,,,2,0.9512446969747543,,,037,001,2019_May_16_1310,MusicAffectPsychophysiology2019,3.0.5,59.62231054356885,
To what extent did the music make you feel ,TENDER,30MonoWAV/30MonoF2.wav,1,2,2,2,,,,,1,8,24,1,0,10,10,10,,,,,,,,,1,0.5527287439908832,,,037,001,2019_May_16_1310,MusicAffectPsychophysiology2019,3.0.5,59.62231054356885,
To what extent did the music make you feel ,ALERT,30MonoWAV/30MonoF2.wav,1,2,2,2,,,,,1,8,24,1,0,11,11,8,,,,,,,,,2,0.9522441090084612,,,037,001,2019_May_16_1310,MusicAffectPsychophysiology2019,3.0.5,59.62231054356885,
,,30MonoWAV/30MonoF2.wav,1,2,2,2,,,,,1,8,24,1,,,,,,,,,,,,,,,,,037,001,2019_May_16_1310,MusicAffectPsychophysiology2019,3.0.5,59.62231054356885,
To what extent did the music make you feel ,FRUSTRATED,30MonoWAV/30MonoS1.wav,1,1,3,9,,,,,1,9,25,8,0,0,0,3,,,1,2.1347919960098807,1,0.6015572239994071,1,0.5327796520141419,1,0.6850959699950181,,,037,001,2019_May_16_1310,MusicAffectPsychophysiology2019,3.0.5,59.62231054356885,
To what extent did the music make you feel ,SCARED,30MonoWAV/30MonoS1.wav,1,1,3,9,,,,,1,9,25,8,0,1,1,11,,,,,,,,,1,1.1694570280087646,,,037,001,2019_May_16_1310,MusicAffectPsychophysiology2019,3.0.5,59.62231054356885,
To what extent did the music make you feel ,ALERT,30MonoWAV/30MonoS1.wav,1,1,3,9,,,,,1,9,25,8,0,2,2,8,,,,,,,,,1,0.5353077570034657,,,037,001,2019_May_16_1310,MusicAffectPsychophysiology2019,3.0.5,59.62231054356885,
To what extent did the music make you feel ,ASHAMED,30MonoWAV/30MonoS1.wav,1,1,3,9,,,,,1,9,25,8,0,3,3,4,,,,,,,,,1,0.5167379259946756,,,037,001,2019_May_16_1310,MusicAffectPsychophysiology2019,3.0.5,59.62231054356885,
To what extent did the music make you feel ,ACTIVE,30MonoWAV/30MonoS1.wav,1,1,3,9,,,,,1,9,25,8,0,4,4,9,,,,,,,,,1,1.3510893570201006,,,037,001,2019_May_16_1310,MusicAffectPsychophysiology2019,3.0.5,59.62231054356885,
To what extent did the music make you feel ,ANGRY,30MonoWAV/30MonoS1.wav,1,1,3,9,,,,,1,9,25,8,0,5,5,2,,,,,,,,,1,0.6518104709975887,,,037,001,2019_May_16_1310,MusicAffectPsychophysiology2019,3.0.5,59.62231054356885,
To what extent did the music make you feel ,EXCITED,30MonoWAV/30MonoS1.wav,1,1,3,9,,,,,1,9,25,8,0,6,6,7,,,,,,,,,1,0.7023709100030828,,,037,001,2019_May_16_1310,MusicAffectPsychophysiology2019,3.0.5,59.62231054356885,
To what extent did the music make you feel ,ANXIOUS ,30MonoWAV/30MonoS1.wav,1,1,3,9,,,,,1,9,25,8,0,7,7,1,,,,,,,,,1,0.8850057649833616,,,037,001,2019_May_16_1310,MusicAffectPsychophysiology2019,3.0.5,59.62231054356885,
To what extent did the music make you feel ,HAPPY,30MonoWAV/30MonoS1.wav,1,1,3,9,,,,,1,9,25,8,0,8,8,6,,,,,,,,,1,0.5677199820056558,,,037,001,2019_May_16_1310,MusicAffectPsychophysiology2019,3.0.5,59.62231054356885,
To what extent did the music make you feel ,SAD,30MonoWAV/30MonoS1.wav,1,1,3,9,,,,,1,9,25,8,0,9,9,0,,,,,,,,,4,1.167027453018818,,,037,001,2019_May_16_1310,MusicAffectPsychophysiology2019,3.0.5,59.62231054356885,
To what extent did the music make you feel ,GUILTY,30MonoWAV/30MonoS1.wav,1,1,3,9,,,,,1,9,25,8,0,10,10,5,,,,,,,,,3,1.7352200690074824,,,037,001,2019_May_16_1310,MusicAffectPsychophysiology2019,3.0.5,59.62231054356885,
To what extent did the music make you feel ,TENDER,30MonoWAV/30MonoS1.wav,1,1,3,9,,,,,1,9,25,8,0,11,11,10,,,,,,,,,2,1.418542687984882,,,037,001,2019_May_16_1310,MusicAffectPsychophysiology2019,3.0.5,59.62231054356885,
,,30MonoWAV/30MonoS1.wav,1,1,3,9,,,,,1,9,25,8,,,,,,,,,,,,,,,,,037,001,2019_May_16_1310,MusicAffectPsychophysiology2019,3.0.5,59.62231054356885,
To what extent did the music make you feel ,ANXIOUS ,30MonoWAV/30MonoH2.wav,2,2,1,6,,,,,1,10,26,5,0,0,0,1,,,2,4.118590911006322,3,1.4516496949945576,3,0.9009624449827243,1,1.201634439988993,,,037,001,2019_May_16_1310,MusicAffectPsychophysiology2019,3.0.5,59.62231054356885,
To what extent did the music make you feel ,ASHAMED,30MonoWAV/30MonoH2.wav,2,2,1,6,,,,,1,10,26,5,0,1,1,4,,,,,,,,,1,0.5516461560036987,,,037,001,2019_May_16_1310,MusicAffectPsychophysiology2019,3.0.5,59.62231054356885,
To what extent did the music make you feel ,SAD,30MonoWAV/30MonoH2.wav,2,2,1,6,,,,,1,10,26,5,0,2,2,0,,,,,,,,,1,0.5513972750050016,,,037,001,2019_May_16_1310,MusicAffectPsychophysiology2019,3.0.5,59.62231054356885,
To what extent did the music make you feel ,GUILTY,30MonoWAV/30MonoH2.wav,2,2,1,6,,,,,1,10,26,5,0,3,3,5,,,,,,,,,1,0.6183852860121988,,,037,001,2019_May_16_1310,MusicAffectPsychophysiology2019,3.0.5,59.62231054356885,
To what extent did the music make you feel ,ACTIVE,30MonoWAV/30MonoH2.wav,2,2,1,6,,,,,1,10,26,5,0,4,4,9,,,,,,,,,3,1.0173205430037342,,,037,001,2019_May_16_1310,MusicAffectPsychophysiology2019,3.0.5,59.62231054356885,
To what extent did the music make you feel ,HAPPY,30MonoWAV/30MonoH2.wav,2,2,1,6,,,,,1,10,26,5,0,5,5,6,,,,,,,,,3,1.0845405170111917,,,037,001,2019_May_16_1310,MusicAffectPsychophysiology2019,3.0.5,59.62231054356885,
To what extent did the music make you feel ,ANGRY,30MonoWAV/30MonoH2.wav,2,2,1,6,,,,,1,10,26,5,0,6,6,2,,,,,,,,,3,1.000769099977333,,,037,001,2019_May_16_1310,MusicAffectPsychophysiology2019,3.0.5,59.62231054356885,
To what extent did the music make you feel ,ALERT,30MonoWAV/30MonoH2.wav,2,2,1,6,,,,,1,10,26,5,0,7,7,8,,,,,,,,,3,2.735923847008962,,,037,001,2019_May_16_1310,MusicAffectPsychophysiology2019,3.0.5,59.62231054356885,
To what extent did the music make you feel ,FRUSTRATED,30MonoWAV/30MonoH2.wav,2,2,1,6,,,,,1,10,26,5,0,8,8,3,,,,,,,,,1,0.681877512979554,,,037,001,2019_May_16_1310,MusicAffectPsychophysiology2019,3.0.5,59.62231054356885,
To what extent did the music make you feel ,TENDER,30MonoWAV/30MonoH2.wav,2,2,1,6,,,,,1,10,26,5,0,9,9,10,,,,,,,,,1,0.867608027998358,,,037,001,2019_May_16_1310,MusicAffectPsychophysiology2019,3.0.5,59.62231054356885,
To what extent did the music make you feel ,EXCITED,30MonoWAV/30MonoH2.wav,2,2,1,6,,,,,1,10,26,5,0,10,10,7,,,,,,,,,3,1.1180074460280593,,,037,001,2019_May_16_1310,MusicAffectPsychophysiology2019,3.0.5,59.62231054356885,
To what extent did the music make you feel ,SCARED,30MonoWAV/30MonoH2.wav,2,2,1,6,,,,,1,10,26,5,0,11,11,11,,,,,,,,,1,2.2835259529820178,,,037,001,2019_May_16_1310,MusicAffectPsychophysiology2019,3.0.5,59.62231054356885,
,,30MonoWAV/30MonoH2.wav,2,2,1,6,,,,,1,10,26,5,,,,,,,,,,,,,,,,,037,001,2019_May_16_1310,MusicAffectPsychophysiology2019,3.0.5,59.62231054356885,
To what extent did the music make you feel ,ASHAMED,30MonoWAV/30MonoT1.wav,2,1,4,13,,,,,1,11,27,12,0,0,0,4,,,1,2.752921375009464,2,0.8996096090122592,2,0.9689737269945908,1,0.8355645549891051,,,037,001,2019_May_16_1310,MusicAffectPsychophysiology2019,3.0.5,59.62231054356885,
To what extent did the music make you feel ,FRUSTRATED,30MonoWAV/30MonoT1.wav,2,1,4,13,,,,,1,11,27,12,0,1,1,3,,,,,,,,,1,0.5525590110046323,,,037,001,2019_May_16_1310,MusicAffectPsychophysiology2019,3.0.5,59.62231054356885,
To what extent did the music make you feel ,ALERT,30MonoWAV/30MonoT1.wav,2,1,4,13,,,,,1,11,27,12,0,2,2,8,,,,,,,,,1,0.8846439500048291,,,037,001,2019_May_16_1310,MusicAffectPsychophysiology2019,3.0.5,59.62231054356885,
To what extent did the music make you feel ,SCARED,30MonoWAV/30MonoT1.wav,2,1,4,13,,,,,1,11,27,12,0,3,3,11,,,,,,,,,1,1.7853575379995164,,,037,001,2019_May_16_1310,MusicAffectPsychophysiology2019,3.0.5,59.62231054356885,
To what extent did the music make you feel ,GUILTY,30MonoWAV/30MonoT1.wav,2,1,4,13,,,,,1,11,27,12,0,4,4,5,,,,,,,,,1,0.6519038209808059,,,037,001,2019_May_16_1310,MusicAffectPsychophysiology2019,3.0.5,59.62231054356885,
To what extent did the music make you feel ,TENDER,30MonoWAV/30MonoT1.wav,2,1,4,13,,,,,1,11,27,12,0,5,5,10,,,,,,,,,2,0.8188633779936936,,,037,001,2019_May_16_1310,MusicAffectPsychophysiology2019,3.0.5,59.62231054356885,
To what extent did the music make you feel ,HAPPY,30MonoWAV/30MonoT1.wav,2,1,4,13,,,,,1,11,27,12,0,6,6,6,,,,,,,,,2,0.7359543070197105,,,037,001,2019_May_16_1310,MusicAffectPsychophysiology2019,3.0.5,59.62231054356885,
To what extent did the music make you feel ,ANXIOUS ,30MonoWAV/30MonoT1.wav,2,1,4,13,,,,,1,11,27,12,0,7,7,1,,,,,,,,,1,0.8851008010096848,,,037,001,2019_May_16_1310,MusicAffectPsychophysiology2019,3.0.5,59.62231054356885,
To what extent did the music make you feel ,ANGRY,30MonoWAV/30MonoT1.wav,2,1,4,13,,,,,1,11,27,12,0,8,8,2,,,,,,,,,1,0.8010471659945324,,,037,001,2019_May_16_1310,MusicAffectPsychophysiology2019,3.0.5,59.62231054356885,
To what extent did the music make you feel ,ACTIVE,30MonoWAV/30MonoT1.wav,2,1,4,13,,,,,1,11,27,12,0,9,9,9,,,,,,,,,1,1.1020453370001633,,,037,001,2019_May_16_1310,MusicAffectPsychophysiology2019,3.0.5,59.62231054356885,
To what extent did the music make you feel ,EXCITED,30MonoWAV/30MonoT1.wav,2,1,4,13,,,,,1,11,27,12,0,10,10,7,,,,,,,,,1,0.767650333000347,,,037,001,2019_May_16_1310,MusicAffectPsychophysiology2019,3.0.5,59.62231054356885,
To what extent did the music make you feel ,SAD,30MonoWAV/30MonoT1.wav,2,1,4,13,,,,,1,11,27,12,0,11,11,0,,,,,,,,,2,0.5021161820041016,,,037,001,2019_May_16_1310,MusicAffectPsychophysiology2019,3.0.5,59.62231054356885,
,,30MonoWAV/30MonoT1.wav,2,1,4,13,,,,,1,11,27,12,,,,,,,,,,,,,,,,,037,001,2019_May_16_1310,MusicAffectPsychophysiology2019,3.0.5,59.62231054356885,
To what extent did the music make you feel ,ANXIOUS ,30MonoWAV/30MonoH3.wav,2,2,1,7,,,,,1,12,28,6,0,0,0,1,,,4,3.6213517080177553,3,1.4533646250201855,2,1.2529131280025467,1,0.9900376790028531,,,037,001,2019_May_16_1310,MusicAffectPsychophysiology2019,3.0.5,59.62231054356885,
To what extent did the music make you feel ,SCARED,30MonoWAV/30MonoH3.wav,2,2,1,7,,,,,1,12,28,6,0,1,1,11,,,,,,,,,1,0.5526300639903639,,,037,001,2019_May_16_1310,MusicAffectPsychophysiology2019,3.0.5,59.62231054356885,
To what extent did the music make you feel ,ACTIVE,30MonoWAV/30MonoH3.wav,2,2,1,7,,,,,1,12,28,6,0,2,2,9,,,,,,,,,3,1.2847207580052782,,,037,001,2019_May_16_1310,MusicAffectPsychophysiology2019,3.0.5,59.62231054356885,
To what extent did the music make you feel ,HAPPY,30MonoWAV/30MonoH3.wav,2,2,1,7,,,,,1,12,28,6,0,3,3,6,,,,,,,,,3,0.669641945976764,,,037,001,2019_May_16_1310,MusicAffectPsychophysiology2019,3.0.5,59.62231054356885,
To what extent did the music make you feel ,SAD,30MonoWAV/30MonoH3.wav,2,2,1,7,,,,,1,12,28,6,0,4,4,0,,,,,,,,,1,0.9354590610018931,,,037,001,2019_May_16_1310,MusicAffectPsychophysiology2019,3.0.5,59.62231054356885,
To what extent did the music make you feel ,ASHAMED,30MonoWAV/30MonoH3.wav,2,2,1,7,,,,,1,12,28,6,0,5,5,4,,,,,,,,,1,0.7526019520009868,,,037,001,2019_May_16_1310,MusicAffectPsychophysiology2019,3.0.5,59.62231054356885,
To what extent did the music make you feel ,ALERT,30MonoWAV/30MonoH3.wav,2,2,1,7,,,,,1,12,28,6,0,6,6,8,,,,,,,,,3,1.1191808230069,,,037,001,2019_May_16_1310,MusicAffectPsychophysiology2019,3.0.5,59.62231054356885,
To what extent did the music make you feel ,FRUSTRATED,30MonoWAV/30MonoH3.wav,2,2,1,7,,,,,1,12,28,6,0,7,7,3,,,,,,,,,1,1.168706028984161,,,037,001,2019_May_16_1310,MusicAffectPsychophysiology2019,3.0.5,59.62231054356885,
To what extent did the music make you feel ,EXCITED,30MonoWAV/30MonoH3.wav,2,2,1,7,,,,,1,12,28,6,0,8,8,7,,,,,,,,,3,0.9858231510152109,,,037,001,2019_May_16_1310,MusicAffectPsychophysiology2019,3.0.5,59.62231054356885,
To what extent did the music make you feel ,GUILTY,30MonoWAV/30MonoH3.wav,2,2,1,7,,,,,1,12,28,6,0,9,9,5,,,,,,,,,1,0.8691730609862134,,,037,001,2019_May_16_1310,MusicAffectPsychophysiology2019,3.0.5,59.62231054356885,
To what extent did the music make you feel ,TENDER,30MonoWAV/30MonoH3.wav,2,2,1,7,,,,,1,12,28,6,0,10,10,10,,,,,,,,,1,0.6519520930014551,,,037,001,2019_May_16_1310,MusicAffectPsychophysiology2019,3.0.5,59.62231054356885,
To what extent did the music make you feel ,ANGRY,30MonoWAV/30MonoH3.wav,2,2,1,7,,,,,1,12,28,6,0,11,11,2,,,,,,,,,1,0.5351794610032812,,,037,001,2019_May_16_1310,MusicAffectPsychophysiology2019,3.0.5,59.62231054356885,
,,30MonoWAV/30MonoH3.wav,2,2,1,7,,,,,1,12,28,6,,,,,,,,,,,,,,,,,037,001,2019_May_16_1310,MusicAffectPsychophysiology2019,3.0.5,59.62231054356885,
To what extent did the music make you feel ,HAPPY,30MonoWAV/30MonoF4.wav,1,2,2,4,,,,,1,13,29,3,0,0,0,6,,,3,3.134710290003568,2,1.017933590017492,1,1.6355982950190082,1,1.1003088039869908,,,037,001,2019_May_16_1310,MusicAffectPsychophysiology2019,3.0.5,59.62231054356885,
To what extent did the music make you feel ,TENDER,30MonoWAV/30MonoF4.wav,1,2,2,4,,,,,1,13,29,3,0,1,1,10,,,,,,,,,1,0.7671133110125083,,,037,001,2019_May_16_1310,MusicAffectPsychophysiology2019,3.0.5,59.62231054356885,
To what extent did the music make you feel ,ACTIVE,30MonoWAV/30MonoF4.wav,1,2,2,4,,,,,1,13,29,3,0,2,2,9,,,,,,,,,2,1.2849673930031713,,,037,001,2019_May_16_1310,MusicAffectPsychophysiology2019,3.0.5,59.62231054356885,
To what extent did the music make you feel ,SCARED,30MonoWAV/30MonoF4.wav,1,2,2,4,,,,,1,13,29,3,0,3,3,11,,,,,,,,,2,0.95214989798842,,,037,001,2019_May_16_1310,MusicAffectPsychophysiology2019,3.0.5,59.62231054356885,
To what extent did the music make you feel ,ALERT,30MonoWAV/30MonoF4.wav,1,2,2,4,,,,,1,13,29,3,0,4,4,8,,,,,,,,,3,1.3677444589848164,,,037,001,2019_May_16_1310,MusicAffectPsychophysiology2019,3.0.5,59.62231054356885,
To what extent did the music make you feel ,ANGRY,30MonoWAV/30MonoF4.wav,1,2,2,4,,,,,1,13,29,3,0,5,5,2,,,,,,,,,2,0.8859763040090911,,,037,001,2019_May_16_1310,MusicAffectPsychophysiology2019,3.0.5,59.62231054356885,
To what extent did the music make you feel ,EXCITED,30MonoWAV/30MonoF4.wav,1,2,2,4,,,,,1,13,29,3,0,6,6,7,,,,,,,,,1,0.8730019470094703,,,037,001,2019_May_16_1310,MusicAffectPsychophysiology2019,3.0.5,59.62231054356885,
To what extent did the music make you feel ,FRUSTRATED,30MonoWAV/30MonoF4.wav,1,2,2,4,,,,,1,13,29,3,0,7,7,3,,,,,,,,,1,0.8889181549893692,,,037,001,2019_May_16_1310,MusicAffectPsychophysiology2019,3.0.5,59.62231054356885,
To what extent did the music make you feel ,ANXIOUS ,30MonoWAV/30MonoF4.wav,1,2,2,4,,,,,1,13,29,3,0,8,8,1,,,,,,,,,1,0.7512931429955643,,,037,001,2019_May_16_1310,MusicAffectPsychophysiology2019,3.0.5,59.62231054356885,
To what extent did the music make you feel ,ASHAMED,30MonoWAV/30MonoF4.wav,1,2,2,4,,,,,1,13,29,3,0,9,9,4,,,,,,,,,1,0.5833645679813344,,,037,001,2019_May_16_1310,MusicAffectPsychophysiology2019,3.0.5,59.62231054356885,
To what extent did the music make you feel ,SAD,30MonoWAV/30MonoF4.wav,1,2,2,4,,,,,1,13,29,3,0,10,10,0,,,,,,,,,1,0.534251695004059,,,037,001,2019_May_16_1310,MusicAffectPsychophysiology2019,3.0.5,59.62231054356885,
To what extent did the music make you feel ,GUILTY,30MonoWAV/30MonoF4.wav,1,2,2,4,,,,,1,13,29,3,0,11,11,5,,,,,,,,,1,0.7187652300053742,,,037,001,2019_May_16_1310,MusicAffectPsychophysiology2019,3.0.5,59.62231054356885,
,,30MonoWAV/30MonoF4.wav,1,2,2,4,,,,,1,13,29,3,,,,,,,,,,,,,,,,,037,001,2019_May_16_1310,MusicAffectPsychophysiology2019,3.0.5,59.62231054356885,
To what extent did the music make you feel ,ALERT,30MonoWAV/30MonoS4.wav,1,1,3,12,,,,,1,14,30,11,0,0,0,8,,,1,3.5178782519942615,1,2.486373885010835,1,0.9846225679793861,1,0.9853035520063713,,,037,001,2019_May_16_1310,MusicAffectPsychophysiology2019,3.0.5,59.62231054356885,
To what extent did the music make you feel ,SAD,30MonoWAV/30MonoS4.wav,1,1,3,12,,,,,1,14,30,11,0,1,1,0,,,,,,,,,3,2.2513931300200056,,,037,001,2019_May_16_1310,MusicAffectPsychophysiology2019,3.0.5,59.62231054356885,
To what extent did the music make you feel ,SCARED,30MonoWAV/30MonoS4.wav,1,1,3,12,,,,,1,14,30,11,0,2,2,11,,,,,,,,,2,0.9186181199911516,,,037,001,2019_May_16_1310,MusicAffectPsychophysiology2019,3.0.5,59.62231054356885,
To what extent did the music make you feel ,FRUSTRATED,30MonoWAV/30MonoS4.wav,1,1,3,12,,,,,1,14,30,11,0,3,3,3,,,,,,,,,1,0.6697172390122432,,,037,001,2019_May_16_1310,MusicAffectPsychophysiology2019,3.0.5,59.62231054356885,
To what extent did the music make you feel ,ASHAMED,30MonoWAV/30MonoS4.wav,1,1,3,12,,,,,1,14,30,11,0,4,4,4,,,,,,,,,2,1.0224311029887758,,,037,001,2019_May_16_1310,MusicAffectPsychophysiology2019,3.0.5,59.62231054356885,
To what extent did the music make you feel ,ANGRY,30MonoWAV/30MonoS4.wav,1,1,3,12,,,,,1,14,30,11,0,5,5,2,,,,,,,,,1,0.7020542440004647,,,037,001,2019_May_16_1310,MusicAffectPsychophysiology2019,3.0.5,59.62231054356885,
To what extent did the music make you feel ,ANXIOUS ,30MonoWAV/30MonoS4.wav,1,1,3,12,,,,,1,14,30,11,0,6,6,1,,,,,,,,,1,1.1030952949950006,,,037,001,2019_May_16_1310,MusicAffectPsychophysiology2019,3.0.5,59.62231054356885,
To what extent did the music make you feel ,EXCITED,30MonoWAV/30MonoS4.wav,1,1,3,12,,,,,1,14,30,11,0,7,7,7,,,,,,,,,1,1.1534700549964327,,,037,001,2019_May_16_1310,MusicAffectPsychophysiology2019,3.0.5,59.62231054356885,
To what extent did the music make you feel ,GUILTY,30MonoWAV/30MonoS4.wav,1,1,3,12,,,,,1,14,30,11,0,8,8,5,,,,,,,,,2,1.5681577349896543,,,037,001,2019_May_16_1310,MusicAffectPsychophysiology2019,3.0.5,59.62231054356885,
To what extent did the music make you feel ,HAPPY,30MonoWAV/30MonoS4.wav,1,1,3,12,,,,,1,14,30,11,0,9,9,6,,,,,,,,,1,1.2202626049984246,,,037,001,2019_May_16_1310,MusicAffectPsychophysiology2019,3.0.5,59.62231054356885,
To what extent did the music make you feel ,TENDER,30MonoWAV/30MonoS4.wav,1,1,3,12,,,,,1,14,30,11,0,10,10,10,,,,,,,,,1,0.8891683899855707,,,037,001,2019_May_16_1310,MusicAffectPsychophysiology2019,3.0.5,59.62231054356885,
To what extent did the music make you feel ,ACTIVE,30MonoWAV/30MonoS4.wav,1,1,3,12,,,,,1,14,30,11,0,11,11,9,,,,,,,,,1,2.535464740009047,,,037,001,2019_May_16_1310,MusicAffectPsychophysiology2019,3.0.5,59.62231054356885,
,,30MonoWAV/30MonoS4.wav,1,1,3,12,,,,,1,14,30,11,,,,,,,,,,,,,,,,,037,001,2019_May_16_1310,MusicAffectPsychophysiology2019,3.0.5,59.62231054356885,
To what extent did the music make you feel ,ALERT,30MonoWAV/30MonoT4.wav,2,1,4,16,,,,,1,15,31,15,0,0,0,8,,,3,3.069768839981407,3,0.6858188729966059,3,1.6374540909891948,1,1.437487543997122,,,037,001,2019_May_16_1310,MusicAffectPsychophysiology2019,3.0.5,59.62231054356885,
To what extent did the music make you feel ,ACTIVE,30MonoWAV/30MonoT4.wav,2,1,4,16,,,,,1,15,31,15,0,1,1,9,,,,,,,,,2,1.172536238009343,,,037,001,2019_May_16_1310,MusicAffectPsychophysiology2019,3.0.5,59.62231054356885,
To what extent did the music make you feel ,ANXIOUS ,30MonoWAV/30MonoT4.wav,2,1,4,16,,,,,1,15,31,15,0,2,2,1,,,,,,,,,1,0.6012303559982684,,,037,001,2019_May_16_1310,MusicAffectPsychophysiology2019,3.0.5,59.62231054356885,
To what extent did the music make you feel ,FRUSTRATED,30MonoWAV/30MonoT4.wav,2,1,4,16,,,,,1,15,31,15,0,3,3,3,,,,,,,,,1,0.651762969995616,,,037,001,2019_May_16_1310,MusicAffectPsychophysiology2019,3.0.5,59.62231054356885,
To what extent did the music make you feel ,HAPPY,30MonoWAV/30MonoT4.wav,2,1,4,16,,,,,1,15,31,15,0,4,4,6,,,,,,,,,4,1.3703210070088971,,,037,001,2019_May_16_1310,MusicAffectPsychophysiology2019,3.0.5,59.62231054356885,
To what extent did the music make you feel ,TENDER,30MonoWAV/30MonoT4.wav,2,1,4,16,,,,,1,15,31,15,0,5,5,10,,,,,,,,,2,1.2350229650037363,,,037,001,2019_May_16_1310,MusicAffectPsychophysiology2019,3.0.5,59.62231054356885,
To what extent did the music make you feel ,EXCITED,30MonoWAV/30MonoT4.wav,2,1,4,16,,,,,1,15,31,15,0,6,6,7,,,,,,,,,3,1.0015582689957228,,,037,001,2019_May_16_1310,MusicAffectPsychophysiology2019,3.0.5,59.62231054356885,
To what extent did the music make you feel ,GUILTY,30MonoWAV/30MonoT4.wav,2,1,4,16,,,,,1,15,31,15,0,7,7,5,,,,,,,,,1,0.8223652560263872,,,037,001,2019_May_16_1310,MusicAffectPsychophysiology2019,3.0.5,59.62231054356885,
To what extent did the music make you feel ,SAD,30MonoWAV/30MonoT4.wav,2,1,4,16,,,,,1,15,31,15,0,8,8,0,,,,,,,,,2,1.0189117599802557,,,037,001,2019_May_16_1310,MusicAffectPsychophysiology2019,3.0.5,59.62231054356885,
To what extent did the music make you feel ,ASHAMED,30MonoWAV/30MonoT4.wav,2,1,4,16,,,,,1,15,31,15,0,9,9,4,,,,,,,,,1,1.4546502199955285,,,037,001,2019_May_16_1310,MusicAffectPsychophysiology2019,3.0.5,59.62231054356885,
To what extent did the music make you feel ,ANGRY,30MonoWAV/30MonoT4.wav,2,1,4,16,,,,,1,15,31,15,0,10,10,2,,,,,,,,,1,0.4853463329782244,,,037,001,2019_May_16_1310,MusicAffectPsychophysiology2019,3.0.5,59.62231054356885,
To what extent did the music make you feel ,SCARED,30MonoWAV/30MonoT4.wav,2,1,4,16,,,,,1,15,31,15,0,11,11,11,,,,,,,,,1,0.5855506600055378,,,037,001,2019_May_16_1310,MusicAffectPsychophysiology2019,3.0.5,59.62231054356885,
,,30MonoWAV/30MonoT4.wav,2,1,4,16,,,,,1,15,31,15,,,,,,,,,,,,,,,,,037,001,2019_May_16_1310,MusicAffectPsychophysiology2019,3.0.5,59.62231054356885,
,,,,,,,,,,,,,,,,,,,,,,,,,,,,,space,4.833925332990475,037,001,2019_May_16_1310,MusicAffectPsychophysiology2019,3.0.5,59.62231054356885,
