Instruction,Word,song,valence,arousal,affectcat,songmark,pracwords.thisRepN,pracwords.thisTrialN,pracwords.thisN,pracwords.thisIndex,songtrials.thisRepN,songtrials.thisTrialN,songtrials.thisN,songtrials.thisIndex,words.thisRepN,words.thisTrialN,words.thisN,words.thisIndex,begin.keys,begin.rt,arousalkey.keys,arousalkey.rt,valencekey.keys,valencekey.rt,likekey.keys,likekey.rt,WordResponse.keys,WordResponse.rt,key_resp_2.keys,key_resp_2.rt,participant,session,date,expName,psychopyVersion,frameRate,
,,,,,,,,,,,,,,,,,,,space,629.5761720709852,,,,,,,,,,,038,001,2019_May_16_1359,MusicAffectPsychophysiology2019,3.0.5,60.193373733152505,
,,,,,,,,,,,,,,,,,,,,,4,6.293038667994551,,,,,,,,,038,001,2019_May_16_1359,MusicAffectPsychophysiology2019,3.0.5,60.193373733152505,
,,,,,,,,,,,,,,,,,,,,,,,4,4.236419026972726,,,,,,,038,001,2019_May_16_1359,MusicAffectPsychophysiology2019,3.0.5,60.193373733152505,
,,,,,,,,,,,,,,,,,,,,,,,,,4,3.901458148000529,,,,,038,001,2019_May_16_1359,MusicAffectPsychophysiology2019,3.0.5,60.193373733152505,
To what extent did the music make you feel ,ASHAMED,,,,,,0,0,0,4,,,,,,,,,,,,,,,,,2,9.234924185002455,,,038,001,2019_May_16_1359,MusicAffectPsychophysiology2019,3.0.5,60.193373733152505,
To what extent did the music make you feel ,EXCITED,,,,,,0,1,1,7,,,,,,,,,,,,,,,,,4,2.724583874020027,,,038,001,2019_May_16_1359,MusicAffectPsychophysiology2019,3.0.5,60.193373733152505,
To what extent did the music make you feel ,TENDER,,,,,,0,2,2,10,,,,,,,,,,,,,,,,,2,4.223086448007962,,,038,001,2019_May_16_1359,MusicAffectPsychophysiology2019,3.0.5,60.193373733152505,
To what extent did the music make you feel ,HAPPY,,,,,,0,3,3,6,,,,,,,,,,,,,,,,,4,3.4057980380021036,,,038,001,2019_May_16_1359,MusicAffectPsychophysiology2019,3.0.5,60.193373733152505,
To what extent did the music make you feel ,SAD,,,,,,0,4,4,0,,,,,,,,,,,,,,,,,1,2.0194141069951,,,038,001,2019_May_16_1359,MusicAffectPsychophysiology2019,3.0.5,60.193373733152505,
To what extent did the music make you feel ,FRUSTRATED,,,,,,0,5,5,3,,,,,,,,,,,,,,,,,1,9.701415035000537,,,038,001,2019_May_16_1359,MusicAffectPsychophysiology2019,3.0.5,60.193373733152505,
To what extent did the music make you feel ,GUILTY,,,,,,0,6,6,5,,,,,,,,,,,,,,,,,1,2.318620705016656,,,038,001,2019_May_16_1359,MusicAffectPsychophysiology2019,3.0.5,60.193373733152505,
To what extent did the music make you feel ,ACTIVE,,,,,,0,7,7,9,,,,,,,,,,,,,,,,,3,3.9164214260235894,,,038,001,2019_May_16_1359,MusicAffectPsychophysiology2019,3.0.5,60.193373733152505,
To what extent did the music make you feel ,SCARED,,,,,,0,8,8,11,,,,,,,,,,,,,,,,,1,1.9683385980024468,,,038,001,2019_May_16_1359,MusicAffectPsychophysiology2019,3.0.5,60.193373733152505,
To what extent did the music make you feel ,ALERT,,,,,,0,9,9,8,,,,,,,,,,,,,,,,,2,6.051895632001106,,,038,001,2019_May_16_1359,MusicAffectPsychophysiology2019,3.0.5,60.193373733152505,
To what extent did the music make you feel ,ANXIOUS ,,,,,,0,10,10,1,,,,,,,,,,,,,,,,,1,1.484617726993747,,,038,001,2019_May_16_1359,MusicAffectPsychophysiology2019,3.0.5,60.193373733152505,
To what extent did the music make you feel ,ANGRY,,,,,,0,11,11,2,,,,,,,,,,,,,,,,,1,1.9361915290064644,,,038,001,2019_May_16_1359,MusicAffectPsychophysiology2019,3.0.5,60.193373733152505,
To what extent did the music make you feel ,ANGRY,30MonoWAV/30MonoS3.wav,1,1,3,11,,,,,0,0,0,10,0,0,0,2,,,3,8.518559407995781,3,14.817603239993332,3,2.818079251999734,1,2.268402743007755,,,038,001,2019_May_16_1359,MusicAffectPsychophysiology2019,3.0.5,60.193373733152505,
To what extent did the music make you feel ,SCARED,30MonoWAV/30MonoS3.wav,1,1,3,11,,,,,0,0,0,10,0,1,1,11,,,,,,,,,1,1.6177420199965127,,,038,001,2019_May_16_1359,MusicAffectPsychophysiology2019,3.0.5,60.193373733152505,
To what extent did the music make you feel ,GUILTY,30MonoWAV/30MonoS3.wav,1,1,3,11,,,,,0,0,0,10,0,2,2,5,,,,,,,,,1,0.9012179069977719,,,038,001,2019_May_16_1359,MusicAffectPsychophysiology2019,3.0.5,60.193373733152505,
To what extent did the music make you feel ,FRUSTRATED,30MonoWAV/30MonoS3.wav,1,1,3,11,,,,,0,0,0,10,0,3,3,3,,,,,,,,,1,2.585273206990678,,,038,001,2019_May_16_1359,MusicAffectPsychophysiology2019,3.0.5,60.193373733152505,
To what extent did the music make you feel ,HAPPY,30MonoWAV/30MonoS3.wav,1,1,3,11,,,,,0,0,0,10,0,4,4,6,,,,,,,,,3,3.133942839980591,,,038,001,2019_May_16_1359,MusicAffectPsychophysiology2019,3.0.5,60.193373733152505,
To what extent did the music make you feel ,EXCITED,30MonoWAV/30MonoS3.wav,1,1,3,11,,,,,0,0,0,10,0,5,5,7,,,,,,,,,4,1.8015411469968967,,,038,001,2019_May_16_1359,MusicAffectPsychophysiology2019,3.0.5,60.193373733152505,
To what extent did the music make you feel ,ACTIVE,30MonoWAV/30MonoS3.wav,1,1,3,11,,,,,0,0,0,10,0,6,6,9,,,,,,,,,3,1.9181706009840127,,,038,001,2019_May_16_1359,MusicAffectPsychophysiology2019,3.0.5,60.193373733152505,
To what extent did the music make you feel ,TENDER,30MonoWAV/30MonoS3.wav,1,1,3,11,,,,,0,0,0,10,0,7,7,10,,,,,,,,,3,3.552434136014199,,,038,001,2019_May_16_1359,MusicAffectPsychophysiology2019,3.0.5,60.193373733152505,
To what extent did the music make you feel ,ANXIOUS ,30MonoWAV/30MonoS3.wav,1,1,3,11,,,,,0,0,0,10,0,8,8,1,,,,,,,,,3,8.20131736001349,,,038,001,2019_May_16_1359,MusicAffectPsychophysiology2019,3.0.5,60.193373733152505,
To what extent did the music make you feel ,ALERT,30MonoWAV/30MonoS3.wav,1,1,3,11,,,,,0,0,0,10,0,9,9,8,,,,,,,,,2,6.593290863005677,,,038,001,2019_May_16_1359,MusicAffectPsychophysiology2019,3.0.5,60.193373733152505,
To what extent did the music make you feel ,ASHAMED,30MonoWAV/30MonoS3.wav,1,1,3,11,,,,,0,0,0,10,0,10,10,4,,,,,,,,,1,1.9048845439974684,,,038,001,2019_May_16_1359,MusicAffectPsychophysiology2019,3.0.5,60.193373733152505,
To what extent did the music make you feel ,SAD,30MonoWAV/30MonoS3.wav,1,1,3,11,,,,,0,0,0,10,0,11,11,0,,,,,,,,,2,2.238478565996047,,,038,001,2019_May_16_1359,MusicAffectPsychophysiology2019,3.0.5,60.193373733152505,
,,30MonoWAV/30MonoS3.wav,1,1,3,11,,,,,0,0,0,10,,,,,,,,,,,,,,,,,038,001,2019_May_16_1359,MusicAffectPsychophysiology2019,3.0.5,60.193373733152505,
To what extent did the music make you feel ,FRUSTRATED,30MonoWAV/30MonoS4.wav,1,1,3,12,,,,,0,1,1,11,0,0,0,3,,,2,10.717068681988167,2,4.967978508997476,3,2.6243658599851187,1,2.019019176979782,,,038,001,2019_May_16_1359,MusicAffectPsychophysiology2019,3.0.5,60.193373733152505,
To what extent did the music make you feel ,TENDER,30MonoWAV/30MonoS4.wav,1,1,3,12,,,,,0,1,1,11,0,1,1,10,,,,,,,,,3,2.6995515459857415,,,038,001,2019_May_16_1359,MusicAffectPsychophysiology2019,3.0.5,60.193373733152505,
To what extent did the music make you feel ,SAD,30MonoWAV/30MonoS4.wav,1,1,3,12,,,,,0,1,1,11,0,2,2,0,,,,,,,,,3,1.6856269080017228,,,038,001,2019_May_16_1359,MusicAffectPsychophysiology2019,3.0.5,60.193373733152505,
To what extent did the music make you feel ,ACTIVE,30MonoWAV/30MonoS4.wav,1,1,3,12,,,,,0,1,1,11,0,3,3,9,,,,,,,,,2,1.118377489008708,,,038,001,2019_May_16_1359,MusicAffectPsychophysiology2019,3.0.5,60.193373733152505,
To what extent did the music make you feel ,ALERT,30MonoWAV/30MonoS4.wav,1,1,3,12,,,,,0,1,1,11,0,4,4,8,,,,,,,,,2,2.185588243009988,,,038,001,2019_May_16_1359,MusicAffectPsychophysiology2019,3.0.5,60.193373733152505,
To what extent did the music make you feel ,HAPPY,30MonoWAV/30MonoS4.wav,1,1,3,12,,,,,0,1,1,11,0,5,5,6,,,,,,,,,2,2.7019766429730225,,,038,001,2019_May_16_1359,MusicAffectPsychophysiology2019,3.0.5,60.193373733152505,
To what extent did the music make you feel ,ANXIOUS ,30MonoWAV/30MonoS4.wav,1,1,3,12,,,,,0,1,1,11,0,6,6,1,,,,,,,,,2,1.6185777829959989,,,038,001,2019_May_16_1359,MusicAffectPsychophysiology2019,3.0.5,60.193373733152505,
To what extent did the music make you feel ,SCARED,30MonoWAV/30MonoS4.wav,1,1,3,12,,,,,0,1,1,11,0,7,7,11,,,,,,,,,2,2.585274043987738,,,038,001,2019_May_16_1359,MusicAffectPsychophysiology2019,3.0.5,60.193373733152505,
To what extent did the music make you feel ,ANGRY,30MonoWAV/30MonoS4.wav,1,1,3,12,,,,,0,1,1,11,0,8,8,2,,,,,,,,,1,1.1683594920032192,,,038,001,2019_May_16_1359,MusicAffectPsychophysiology2019,3.0.5,60.193373733152505,
To what extent did the music make you feel ,ASHAMED,30MonoWAV/30MonoS4.wav,1,1,3,12,,,,,0,1,1,11,0,9,9,4,,,,,,,,,1,9.368114703014726,,,038,001,2019_May_16_1359,MusicAffectPsychophysiology2019,3.0.5,60.193373733152505,
To what extent did the music make you feel ,GUILTY,30MonoWAV/30MonoS4.wav,1,1,3,12,,,,,0,1,1,11,0,10,10,5,,,,,,,,,1,2.5337230779987294,,,038,001,2019_May_16_1359,MusicAffectPsychophysiology2019,3.0.5,60.193373733152505,
To what extent did the music make you feel ,EXCITED,30MonoWAV/30MonoS4.wav,1,1,3,12,,,,,0,1,1,11,0,11,11,7,,,,,,,,,1,1.4857539669901598,,,038,001,2019_May_16_1359,MusicAffectPsychophysiology2019,3.0.5,60.193373733152505,
,,30MonoWAV/30MonoS4.wav,1,1,3,12,,,,,0,1,1,11,,,,,,,,,,,,,,,,,038,001,2019_May_16_1359,MusicAffectPsychophysiology2019,3.0.5,60.193373733152505,
To what extent did the music make you feel ,GUILTY,30MonoWAV/30MonoF4.wav,1,2,2,4,,,,,0,2,2,3,0,0,0,5,,,5,3.9695897749916185,3,3.1354228389973287,2,2.1345058220031206,1,2.7689195109996945,,,038,001,2019_May_16_1359,MusicAffectPsychophysiology2019,3.0.5,60.193373733152505,
To what extent did the music make you feel ,ALERT,30MonoWAV/30MonoF4.wav,1,2,2,4,,,,,0,2,2,3,0,1,1,8,,,,,,,,,4,2.1008273829938844,,,038,001,2019_May_16_1359,MusicAffectPsychophysiology2019,3.0.5,60.193373733152505,
To what extent did the music make you feel ,ANXIOUS ,30MonoWAV/30MonoF4.wav,1,2,2,4,,,,,0,2,2,3,0,2,2,1,,,,,,,,,3,1.6528030810004566,,,038,001,2019_May_16_1359,MusicAffectPsychophysiology2019,3.0.5,60.193373733152505,
To what extent did the music make you feel ,ASHAMED,30MonoWAV/30MonoF4.wav,1,2,2,4,,,,,0,2,2,3,0,3,3,4,,,,,,,,,1,1.4363945160002913,,,038,001,2019_May_16_1359,MusicAffectPsychophysiology2019,3.0.5,60.193373733152505,
To what extent did the music make you feel ,TENDER,30MonoWAV/30MonoF4.wav,1,2,2,4,,,,,0,2,2,3,0,4,4,10,,,,,,,,,2,2.3351587840006687,,,038,001,2019_May_16_1359,MusicAffectPsychophysiology2019,3.0.5,60.193373733152505,
To what extent did the music make you feel ,SCARED,30MonoWAV/30MonoF4.wav,1,2,2,4,,,,,0,2,2,3,0,5,5,11,,,,,,,,,2,2.7020621029951144,,,038,001,2019_May_16_1359,MusicAffectPsychophysiology2019,3.0.5,60.193373733152505,
To what extent did the music make you feel ,HAPPY,30MonoWAV/30MonoF4.wav,1,2,2,4,,,,,0,2,2,3,0,6,6,6,,,,,,,,,2,3.0525417960016057,,,038,001,2019_May_16_1359,MusicAffectPsychophysiology2019,3.0.5,60.193373733152505,
To what extent did the music make you feel ,FRUSTRATED,30MonoWAV/30MonoF4.wav,1,2,2,4,,,,,0,2,2,3,0,7,7,3,,,,,,,,,1,3.501130317017669,,,038,001,2019_May_16_1359,MusicAffectPsychophysiology2019,3.0.5,60.193373733152505,
To what extent did the music make you feel ,EXCITED,30MonoWAV/30MonoF4.wav,1,2,2,4,,,,,0,2,2,3,0,8,8,7,,,,,,,,,3,12.349254100001417,,,038,001,2019_May_16_1359,MusicAffectPsychophysiology2019,3.0.5,60.193373733152505,
To what extent did the music make you feel ,ACTIVE,30MonoWAV/30MonoF4.wav,1,2,2,4,,,,,0,2,2,3,0,9,9,9,,,,,,,,,4,0.9850618820055388,,,038,001,2019_May_16_1359,MusicAffectPsychophysiology2019,3.0.5,60.193373733152505,
To what extent did the music make you feel ,SAD,30MonoWAV/30MonoF4.wav,1,2,2,4,,,,,0,2,2,3,0,10,10,0,,,,,,,,,1,2.20144190400606,,,038,001,2019_May_16_1359,MusicAffectPsychophysiology2019,3.0.5,60.193373733152505,
To what extent did the music make you feel ,ANGRY,30MonoWAV/30MonoF4.wav,1,2,2,4,,,,,0,2,2,3,0,11,11,2,,,,,,,,,1,0.7684722509875428,,,038,001,2019_May_16_1359,MusicAffectPsychophysiology2019,3.0.5,60.193373733152505,
,,30MonoWAV/30MonoF4.wav,1,2,2,4,,,,,0,2,2,3,,,,,,,,,,,,,,,,,038,001,2019_May_16_1359,MusicAffectPsychophysiology2019,3.0.5,60.193373733152505,
To what extent did the music make you feel ,EXCITED,30MonoWAV/30MonoT3.wav,2,1,4,15,,,,,0,3,3,14,0,0,0,7,,,2,5.900630055984948,4,1.852590088994475,3,2.068800670997007,2,8.882493442011764,,,038,001,2019_May_16_1359,MusicAffectPsychophysiology2019,3.0.5,60.193373733152505,
To what extent did the music make you feel ,ASHAMED,30MonoWAV/30MonoT3.wav,2,1,4,15,,,,,0,3,3,14,0,1,1,4,,,,,,,,,1,1.569199369987473,,,038,001,2019_May_16_1359,MusicAffectPsychophysiology2019,3.0.5,60.193373733152505,
To what extent did the music make you feel ,TENDER,30MonoWAV/30MonoT3.wav,2,1,4,15,,,,,0,3,3,14,0,2,2,10,,,,,,,,,2,1.8518437370075844,,,038,001,2019_May_16_1359,MusicAffectPsychophysiology2019,3.0.5,60.193373733152505,
To what extent did the music make you feel ,ANGRY,30MonoWAV/30MonoT3.wav,2,1,4,15,,,,,0,3,3,14,0,3,3,2,,,,,,,,,1,0.7842435619968455,,,038,001,2019_May_16_1359,MusicAffectPsychophysiology2019,3.0.5,60.193373733152505,
To what extent did the music make you feel ,SAD,30MonoWAV/30MonoT3.wav,2,1,4,15,,,,,0,3,3,14,0,4,4,0,,,,,,,,,2,2.135503808996873,,,038,001,2019_May_16_1359,MusicAffectPsychophysiology2019,3.0.5,60.193373733152505,
To what extent did the music make you feel ,ALERT,30MonoWAV/30MonoT3.wav,2,1,4,15,,,,,0,3,3,14,0,5,5,8,,,,,,,,,2,1.7836870570026804,,,038,001,2019_May_16_1359,MusicAffectPsychophysiology2019,3.0.5,60.193373733152505,
To what extent did the music make you feel ,SCARED,30MonoWAV/30MonoT3.wav,2,1,4,15,,,,,0,3,3,14,0,6,6,11,,,,,,,,,1,2.4526875430019572,,,038,001,2019_May_16_1359,MusicAffectPsychophysiology2019,3.0.5,60.193373733152505,
To what extent did the music make you feel ,HAPPY,30MonoWAV/30MonoT3.wav,2,1,4,15,,,,,0,3,3,14,0,7,7,6,,,,,,,,,3,2.4688935829908587,,,038,001,2019_May_16_1359,MusicAffectPsychophysiology2019,3.0.5,60.193373733152505,
To what extent did the music make you feel ,ACTIVE,30MonoWAV/30MonoT3.wav,2,1,4,15,,,,,0,3,3,14,0,8,8,9,,,,,,,,,2,9.584627573000034,,,038,001,2019_May_16_1359,MusicAffectPsychophysiology2019,3.0.5,60.193373733152505,
To what extent did the music make you feel ,FRUSTRATED,30MonoWAV/30MonoT3.wav,2,1,4,15,,,,,0,3,3,14,0,9,9,3,,,,,,,,,1,1.0509837149875239,,,038,001,2019_May_16_1359,MusicAffectPsychophysiology2019,3.0.5,60.193373733152505,
To what extent did the music make you feel ,ANXIOUS ,30MonoWAV/30MonoT3.wav,2,1,4,15,,,,,0,3,3,14,0,10,10,1,,,,,,,,,1,1.5349002990114968,,,038,001,2019_May_16_1359,MusicAffectPsychophysiology2019,3.0.5,60.193373733152505,
To what extent did the music make you feel ,GUILTY,30MonoWAV/30MonoT3.wav,2,1,4,15,,,,,0,3,3,14,0,11,11,5,,,,,,,,,1,0.735511464998126,,,038,001,2019_May_16_1359,MusicAffectPsychophysiology2019,3.0.5,60.193373733152505,
,,30MonoWAV/30MonoT3.wav,2,1,4,15,,,,,0,3,3,14,,,,,,,,,,,,,,,,,038,001,2019_May_16_1359,MusicAffectPsychophysiology2019,3.0.5,60.193373733152505,
To what extent did the music make you feel ,ALERT,30MonoWAV/30MonoS2.wav,1,1,3,10,,,,,0,4,4,9,0,0,0,8,,,2,4.634491526987404,2,2.0856750890088733,3,5.050496304000262,2,1.269246584008215,,,038,001,2019_May_16_1359,MusicAffectPsychophysiology2019,3.0.5,60.193373733152505,
To what extent did the music make you feel ,ACTIVE,30MonoWAV/30MonoS2.wav,1,1,3,10,,,,,0,4,4,9,0,1,1,9,,,,,,,,,2,0.9017370450019371,,,038,001,2019_May_16_1359,MusicAffectPsychophysiology2019,3.0.5,60.193373733152505,
To what extent did the music make you feel ,TENDER,30MonoWAV/30MonoS2.wav,1,1,3,10,,,,,0,4,4,9,0,2,2,10,,,,,,,,,3,1.2525233960186597,,,038,001,2019_May_16_1359,MusicAffectPsychophysiology2019,3.0.5,60.193373733152505,
To what extent did the music make you feel ,FRUSTRATED,30MonoWAV/30MonoS2.wav,1,1,3,10,,,,,0,4,4,9,0,3,3,3,,,,,,,,,1,1.1853605929936748,,,038,001,2019_May_16_1359,MusicAffectPsychophysiology2019,3.0.5,60.193373733152505,
To what extent did the music make you feel ,ANGRY,30MonoWAV/30MonoS2.wav,1,1,3,10,,,,,0,4,4,9,0,4,4,2,,,,,,,,,1,1.3825897620117757,,,038,001,2019_May_16_1359,MusicAffectPsychophysiology2019,3.0.5,60.193373733152505,
To what extent did the music make you feel ,SCARED,30MonoWAV/30MonoS2.wav,1,1,3,10,,,,,0,4,4,9,0,5,5,11,,,,,,,,,1,1.7175739950034767,,,038,001,2019_May_16_1359,MusicAffectPsychophysiology2019,3.0.5,60.193373733152505,
To what extent did the music make you feel ,HAPPY,30MonoWAV/30MonoS2.wav,1,1,3,10,,,,,0,4,4,9,0,6,6,6,,,,,,,,,2,1.5011373689922038,,,038,001,2019_May_16_1359,MusicAffectPsychophysiology2019,3.0.5,60.193373733152505,
To what extent did the music make you feel ,ASHAMED,30MonoWAV/30MonoS2.wav,1,1,3,10,,,,,0,4,4,9,0,7,7,4,,,,,,,,,2,3.4518694279831834,,,038,001,2019_May_16_1359,MusicAffectPsychophysiology2019,3.0.5,60.193373733152505,
To what extent did the music make you feel ,ANXIOUS ,30MonoWAV/30MonoS2.wav,1,1,3,10,,,,,0,4,4,9,0,8,8,1,,,,,,,,,3,2.219830478017684,,,038,001,2019_May_16_1359,MusicAffectPsychophysiology2019,3.0.5,60.193373733152505,
To what extent did the music make you feel ,SAD,30MonoWAV/30MonoS2.wav,1,1,3,10,,,,,0,4,4,9,0,9,9,0,,,,,,,,,3,0.7521501590090338,,,038,001,2019_May_16_1359,MusicAffectPsychophysiology2019,3.0.5,60.193373733152505,
To what extent did the music make you feel ,EXCITED,30MonoWAV/30MonoS2.wav,1,1,3,10,,,,,0,4,4,9,0,10,10,7,,,,,,,,,1,2.066806857998017,,,038,001,2019_May_16_1359,MusicAffectPsychophysiology2019,3.0.5,60.193373733152505,
To what extent did the music make you feel ,GUILTY,30MonoWAV/30MonoS2.wav,1,1,3,10,,,,,0,4,4,9,0,11,11,5,,,,,,,,,2,6.902100462000817,,,038,001,2019_May_16_1359,MusicAffectPsychophysiology2019,3.0.5,60.193373733152505,
,,30MonoWAV/30MonoS2.wav,1,1,3,10,,,,,0,4,4,9,,,,,,,,,,,,,,,,,038,001,2019_May_16_1359,MusicAffectPsychophysiology2019,3.0.5,60.193373733152505,
To what extent did the music make you feel ,HAPPY,30MonoWAV/30MonoH3.wav,2,2,1,7,,,,,0,5,5,6,0,0,0,6,,,4,3.684779036004329,4,1.6191780920198653,3,1.2850162310060114,4,1.2016901830211282,,,038,001,2019_May_16_1359,MusicAffectPsychophysiology2019,3.0.5,60.193373733152505,
To what extent did the music make you feel ,EXCITED,30MonoWAV/30MonoH3.wav,2,2,1,7,,,,,0,5,5,6,0,1,1,7,,,,,,,,,4,2.5523058990074787,,,038,001,2019_May_16_1359,MusicAffectPsychophysiology2019,3.0.5,60.193373733152505,
To what extent did the music make you feel ,SAD,30MonoWAV/30MonoH3.wav,2,2,1,7,,,,,0,5,5,6,0,2,2,0,,,,,,,,,1,1.2520803709921893,,,038,001,2019_May_16_1359,MusicAffectPsychophysiology2019,3.0.5,60.193373733152505,
To what extent did the music make you feel ,SCARED,30MonoWAV/30MonoH3.wav,2,2,1,7,,,,,0,5,5,6,0,3,3,11,,,,,,,,,1,0.8024031929962803,,,038,001,2019_May_16_1359,MusicAffectPsychophysiology2019,3.0.5,60.193373733152505,
To what extent did the music make you feel ,ANGRY,30MonoWAV/30MonoH3.wav,2,2,1,7,,,,,0,5,5,6,0,4,4,2,,,,,,,,,1,0.6688760910183191,,,038,001,2019_May_16_1359,MusicAffectPsychophysiology2019,3.0.5,60.193373733152505,
To what extent did the music make you feel ,TENDER,30MonoWAV/30MonoH3.wav,2,2,1,7,,,,,0,5,5,6,0,5,5,10,,,,,,,,,2,2.20235842699185,,,038,001,2019_May_16_1359,MusicAffectPsychophysiology2019,3.0.5,60.193373733152505,
To what extent did the music make you feel ,ANXIOUS ,30MonoWAV/30MonoH3.wav,2,2,1,7,,,,,0,5,5,6,0,6,6,1,,,,,,,,,1,0.8355872289976105,,,038,001,2019_May_16_1359,MusicAffectPsychophysiology2019,3.0.5,60.193373733152505,
To what extent did the music make you feel ,FRUSTRATED,30MonoWAV/30MonoH3.wav,2,2,1,7,,,,,0,5,5,6,0,7,7,3,,,,,,,,,1,0.9345489690022077,,,038,001,2019_May_16_1359,MusicAffectPsychophysiology2019,3.0.5,60.193373733152505,
To what extent did the music make you feel ,ALERT,30MonoWAV/30MonoH3.wav,2,2,1,7,,,,,0,5,5,6,0,8,8,8,,,,,,,,,4,2.851485542982118,,,038,001,2019_May_16_1359,MusicAffectPsychophysiology2019,3.0.5,60.193373733152505,
To what extent did the music make you feel ,GUILTY,30MonoWAV/30MonoH3.wav,2,2,1,7,,,,,0,5,5,6,0,9,9,5,,,,,,,,,1,7.599021620000713,,,038,001,2019_May_16_1359,MusicAffectPsychophysiology2019,3.0.5,60.193373733152505,
To what extent did the music make you feel ,ASHAMED,30MonoWAV/30MonoH3.wav,2,2,1,7,,,,,0,5,5,6,0,10,10,4,,,,,,,,,1,1.2011631939967629,,,038,001,2019_May_16_1359,MusicAffectPsychophysiology2019,3.0.5,60.193373733152505,
To what extent did the music make you feel ,ACTIVE,30MonoWAV/30MonoH3.wav,2,2,1,7,,,,,0,5,5,6,0,11,11,9,,,,,,,,,4,3.318783060007263,,,038,001,2019_May_16_1359,MusicAffectPsychophysiology2019,3.0.5,60.193373733152505,
,,30MonoWAV/30MonoH3.wav,2,2,1,7,,,,,0,5,5,6,,,,,,,,,,,,,,,,,038,001,2019_May_16_1359,MusicAffectPsychophysiology2019,3.0.5,60.193373733152505,
To what extent did the music make you feel ,TENDER,30MonoWAV/30MonoH4.wav,2,2,1,8,,,,,0,6,6,7,0,0,0,10,,,4,4.856532723992132,4,2.11949804899632,3,2.9679604140110314,2,1.9523886530078016,,,038,001,2019_May_16_1359,MusicAffectPsychophysiology2019,3.0.5,60.193373733152505,
To what extent did the music make you feel ,ANGRY,30MonoWAV/30MonoH4.wav,2,2,1,8,,,,,0,6,6,7,0,1,1,2,,,,,,,,,1,0.8019603430002462,,,038,001,2019_May_16_1359,MusicAffectPsychophysiology2019,3.0.5,60.193373733152505,
To what extent did the music make you feel ,FRUSTRATED,30MonoWAV/30MonoH4.wav,2,2,1,8,,,,,0,6,6,7,0,2,2,3,,,,,,,,,1,0.5674402219883632,,,038,001,2019_May_16_1359,MusicAffectPsychophysiology2019,3.0.5,60.193373733152505,
To what extent did the music make you feel ,SAD,30MonoWAV/30MonoH4.wav,2,2,1,8,,,,,0,6,6,7,0,3,3,0,,,,,,,,,1,0.9684166509832721,,,038,001,2019_May_16_1359,MusicAffectPsychophysiology2019,3.0.5,60.193373733152505,
To what extent did the music make you feel ,ALERT,30MonoWAV/30MonoH4.wav,2,2,1,8,,,,,0,6,6,7,0,4,4,8,,,,,,,,,2,1.8830250719911419,,,038,001,2019_May_16_1359,MusicAffectPsychophysiology2019,3.0.5,60.193373733152505,
To what extent did the music make you feel ,HAPPY,30MonoWAV/30MonoH4.wav,2,2,1,8,,,,,0,6,6,7,0,5,5,6,,,,,,,,,4,1.8690152269846294,,,038,001,2019_May_16_1359,MusicAffectPsychophysiology2019,3.0.5,60.193373733152505,
To what extent did the music make you feel ,ASHAMED,30MonoWAV/30MonoH4.wav,2,2,1,8,,,,,0,6,6,7,0,6,6,4,,,,,,,,,1,1.2509993870044127,,,038,001,2019_May_16_1359,MusicAffectPsychophysiology2019,3.0.5,60.193373733152505,
To what extent did the music make you feel ,ACTIVE,30MonoWAV/30MonoH4.wav,2,2,1,8,,,,,0,6,6,7,0,7,7,9,,,,,,,,,4,3.80037431200617,,,038,001,2019_May_16_1359,MusicAffectPsychophysiology2019,3.0.5,60.193373733152505,
To what extent did the music make you feel ,GUILTY,30MonoWAV/30MonoH4.wav,2,2,1,8,,,,,0,6,6,7,0,8,8,5,,,,,,,,,1,0.9844799600250553,,,038,001,2019_May_16_1359,MusicAffectPsychophysiology2019,3.0.5,60.193373733152505,
To what extent did the music make you feel ,ANXIOUS ,30MonoWAV/30MonoH4.wav,2,2,1,8,,,,,0,6,6,7,0,9,9,1,,,,,,,,,1,1.6513324689876754,,,038,001,2019_May_16_1359,MusicAffectPsychophysiology2019,3.0.5,60.193373733152505,
To what extent did the music make you feel ,SCARED,30MonoWAV/30MonoH4.wav,2,2,1,8,,,,,0,6,6,7,0,10,10,11,,,,,,,,,1,0.5849655139900278,,,038,001,2019_May_16_1359,MusicAffectPsychophysiology2019,3.0.5,60.193373733152505,
To what extent did the music make you feel ,EXCITED,30MonoWAV/30MonoH4.wav,2,2,1,8,,,,,0,6,6,7,0,11,11,7,,,,,,,,,4,2.0689106119971257,,,038,001,2019_May_16_1359,MusicAffectPsychophysiology2019,3.0.5,60.193373733152505,
,,30MonoWAV/30MonoH4.wav,2,2,1,8,,,,,0,6,6,7,,,,,,,,,,,,,,,,,038,001,2019_May_16_1359,MusicAffectPsychophysiology2019,3.0.5,60.193373733152505,
To what extent did the music make you feel ,SAD,30MonoWAV/30MonoF2.wav,1,2,2,2,,,,,0,7,7,1,0,0,0,0,,,2,7.400674417993287,1,2.9029688170121517,2,3.3011162689945195,1,3.601814170979196,,,038,001,2019_May_16_1359,MusicAffectPsychophysiology2019,3.0.5,60.193373733152505,
To what extent did the music make you feel ,ALERT,30MonoWAV/30MonoF2.wav,1,2,2,2,,,,,0,7,7,1,0,1,1,8,,,,,,,,,3,1.6028094330104068,,,038,001,2019_May_16_1359,MusicAffectPsychophysiology2019,3.0.5,60.193373733152505,
To what extent did the music make you feel ,ASHAMED,30MonoWAV/30MonoF2.wav,1,2,2,2,,,,,0,7,7,1,0,2,2,4,,,,,,,,,1,1.36851984198438,,,038,001,2019_May_16_1359,MusicAffectPsychophysiology2019,3.0.5,60.193373733152505,
To what extent did the music make you feel ,ANXIOUS ,30MonoWAV/30MonoF2.wav,1,2,2,2,,,,,0,7,7,1,0,3,3,1,,,,,,,,,5,2.8850212630059104,,,038,001,2019_May_16_1359,MusicAffectPsychophysiology2019,3.0.5,60.193373733152505,
To what extent did the music make you feel ,FRUSTRATED,30MonoWAV/30MonoF2.wav,1,2,2,2,,,,,0,7,7,1,0,4,4,3,,,,,,,,,1,1.219615606998559,,,038,001,2019_May_16_1359,MusicAffectPsychophysiology2019,3.0.5,60.193373733152505,
To what extent did the music make you feel ,GUILTY,30MonoWAV/30MonoF2.wav,1,2,2,2,,,,,0,7,7,1,0,5,5,5,,,,,,,,,1,1.235498580004787,,,038,001,2019_May_16_1359,MusicAffectPsychophysiology2019,3.0.5,60.193373733152505,
To what extent did the music make you feel ,HAPPY,30MonoWAV/30MonoF2.wav,1,2,2,2,,,,,0,7,7,1,0,6,6,6,,,,,,,,,1,1.0854982750024647,,,038,001,2019_May_16_1359,MusicAffectPsychophysiology2019,3.0.5,60.193373733152505,
To what extent did the music make you feel ,ACTIVE,30MonoWAV/30MonoF2.wav,1,2,2,2,,,,,0,7,7,1,0,7,7,9,,,,,,,,,3,2.6689207169984,,,038,001,2019_May_16_1359,MusicAffectPsychophysiology2019,3.0.5,60.193373733152505,
To what extent did the music make you feel ,SCARED,30MonoWAV/30MonoF2.wav,1,2,2,2,,,,,0,7,7,1,0,8,8,11,,,,,,,,,5,2.418954461987596,,,038,001,2019_May_16_1359,MusicAffectPsychophysiology2019,3.0.5,60.193373733152505,
To what extent did the music make you feel ,EXCITED,30MonoWAV/30MonoF2.wav,1,2,2,2,,,,,0,7,7,1,0,9,9,7,,,,,,,,,1,1.1848564429965336,,,038,001,2019_May_16_1359,MusicAffectPsychophysiology2019,3.0.5,60.193373733152505,
To what extent did the music make you feel ,TENDER,30MonoWAV/30MonoF2.wav,1,2,2,2,,,,,0,7,7,1,0,10,10,10,,,,,,,,,3,1.4193119510018732,,,038,001,2019_May_16_1359,MusicAffectPsychophysiology2019,3.0.5,60.193373733152505,
To what extent did the music make you feel ,ANGRY,30MonoWAV/30MonoF2.wav,1,2,2,2,,,,,0,7,7,1,0,11,11,2,,,,,,,,,1,1.1187490919837728,,,038,001,2019_May_16_1359,MusicAffectPsychophysiology2019,3.0.5,60.193373733152505,
,,30MonoWAV/30MonoF2.wav,1,2,2,2,,,,,0,7,7,1,,,,,,,,,,,,,,,,,038,001,2019_May_16_1359,MusicAffectPsychophysiology2019,3.0.5,60.193373733152505,
To what extent did the music make you feel ,EXCITED,30MonoWAV/30MonoH2.wav,2,2,1,6,,,,,0,8,8,5,0,0,0,7,,,4,11.95112255398999,4,1.3186248159909155,3,1.5029560900002252,4,1.4348772169905715,,,038,001,2019_May_16_1359,MusicAffectPsychophysiology2019,3.0.5,60.193373733152505,
To what extent did the music make you feel ,ACTIVE,30MonoWAV/30MonoH2.wav,2,2,1,6,,,,,0,8,8,5,0,1,1,9,,,,,,,,,4,0.7018231420079246,,,038,001,2019_May_16_1359,MusicAffectPsychophysiology2019,3.0.5,60.193373733152505,
To what extent did the music make you feel ,ANXIOUS ,30MonoWAV/30MonoH2.wav,2,2,1,6,,,,,0,8,8,5,0,2,2,1,,,,,,,,,1,1.8518892879947089,,,038,001,2019_May_16_1359,MusicAffectPsychophysiology2019,3.0.5,60.193373733152505,
To what extent did the music make you feel ,HAPPY,30MonoWAV/30MonoH2.wav,2,2,1,6,,,,,0,8,8,5,0,3,3,6,,,,,,,,,4,1.584892071026843,,,038,001,2019_May_16_1359,MusicAffectPsychophysiology2019,3.0.5,60.193373733152505,
To what extent did the music make you feel ,FRUSTRATED,30MonoWAV/30MonoH2.wav,2,2,1,6,,,,,0,8,8,5,0,4,4,3,,,,,,,,,1,0.8340269130130764,,,038,001,2019_May_16_1359,MusicAffectPsychophysiology2019,3.0.5,60.193373733152505,
To what extent did the music make you feel ,ASHAMED,30MonoWAV/30MonoH2.wav,2,2,1,6,,,,,0,8,8,5,0,5,5,4,,,,,,,,,1,0.6854033679992426,,,038,001,2019_May_16_1359,MusicAffectPsychophysiology2019,3.0.5,60.193373733152505,
To what extent did the music make you feel ,ALERT,30MonoWAV/30MonoH2.wav,2,2,1,6,,,,,0,8,8,5,0,6,6,8,,,,,,,,,3,1.2685236879915465,,,038,001,2019_May_16_1359,MusicAffectPsychophysiology2019,3.0.5,60.193373733152505,
To what extent did the music make you feel ,GUILTY,30MonoWAV/30MonoH2.wav,2,2,1,6,,,,,0,8,8,5,0,7,7,5,,,,,,,,,1,1.1518621929863002,,,038,001,2019_May_16_1359,MusicAffectPsychophysiology2019,3.0.5,60.193373733152505,
To what extent did the music make you feel ,SCARED,30MonoWAV/30MonoH2.wav,2,2,1,6,,,,,0,8,8,5,0,8,8,11,,,,,,,,,1,1.0017365670064464,,,038,001,2019_May_16_1359,MusicAffectPsychophysiology2019,3.0.5,60.193373733152505,
To what extent did the music make you feel ,SAD,30MonoWAV/30MonoH2.wav,2,2,1,6,,,,,0,8,8,5,0,9,9,0,,,,,,,,,2,2.8849481320066843,,,038,001,2019_May_16_1359,MusicAffectPsychophysiology2019,3.0.5,60.193373733152505,
To what extent did the music make you feel ,ANGRY,30MonoWAV/30MonoH2.wav,2,2,1,6,,,,,0,8,8,5,0,10,10,2,,,,,,,,,1,1.3846363449993078,,,038,001,2019_May_16_1359,MusicAffectPsychophysiology2019,3.0.5,60.193373733152505,
To what extent did the music make you feel ,TENDER,30MonoWAV/30MonoH2.wav,2,2,1,6,,,,,0,8,8,5,0,11,11,10,,,,,,,,,2,2.2848350440035574,,,038,001,2019_May_16_1359,MusicAffectPsychophysiology2019,3.0.5,60.193373733152505,
,,30MonoWAV/30MonoH2.wav,2,2,1,6,,,,,0,8,8,5,,,,,,,,,,,,,,,,,038,001,2019_May_16_1359,MusicAffectPsychophysiology2019,3.0.5,60.193373733152505,
To what extent did the music make you feel ,ALERT,30MonoWAV/30MonoT2.wav,2,1,4,14,,,,,0,9,9,13,0,0,0,8,,,2,9.167952995980158,3,5.235233535990119,2,2.1520420020096935,2,1.9011643050180282,,,038,001,2019_May_16_1359,MusicAffectPsychophysiology2019,3.0.5,60.193373733152505,
To what extent did the music make you feel ,ASHAMED,30MonoWAV/30MonoT2.wav,2,1,4,14,,,,,0,9,9,13,0,1,1,4,,,,,,,,,2,1.902369608025765,,,038,001,2019_May_16_1359,MusicAffectPsychophysiology2019,3.0.5,60.193373733152505,
To what extent did the music make you feel ,HAPPY,30MonoWAV/30MonoT2.wav,2,1,4,14,,,,,0,9,9,13,0,2,2,6,,,,,,,,,3,2.8354050089837983,,,038,001,2019_May_16_1359,MusicAffectPsychophysiology2019,3.0.5,60.193373733152505,
To what extent did the music make you feel ,SCARED,30MonoWAV/30MonoT2.wav,2,1,4,14,,,,,0,9,9,13,0,3,3,11,,,,,,,,,1,1.7833309530105907,,,038,001,2019_May_16_1359,MusicAffectPsychophysiology2019,3.0.5,60.193373733152505,
To what extent did the music make you feel ,FRUSTRATED,30MonoWAV/30MonoT2.wav,2,1,4,14,,,,,0,9,9,13,0,4,4,3,,,,,,,,,1,1.167674447002355,,,038,001,2019_May_16_1359,MusicAffectPsychophysiology2019,3.0.5,60.193373733152505,
To what extent did the music make you feel ,ANXIOUS ,30MonoWAV/30MonoT2.wav,2,1,4,14,,,,,0,9,9,13,0,5,5,1,,,,,,,,,2,1.2518851830100175,,,038,001,2019_May_16_1359,MusicAffectPsychophysiology2019,3.0.5,60.193373733152505,
To what extent did the music make you feel ,SAD,30MonoWAV/30MonoT2.wav,2,1,4,14,,,,,0,9,9,13,0,6,6,0,,,,,,,,,2,1.8021871100063436,,,038,001,2019_May_16_1359,MusicAffectPsychophysiology2019,3.0.5,60.193373733152505,
To what extent did the music make you feel ,EXCITED,30MonoWAV/30MonoT2.wav,2,1,4,14,,,,,0,9,9,13,0,7,7,7,,,,,,,,,1,5.535281728982227,,,038,001,2019_May_16_1359,MusicAffectPsychophysiology2019,3.0.5,60.193373733152505,
To what extent did the music make you feel ,ACTIVE,30MonoWAV/30MonoT2.wav,2,1,4,14,,,,,0,9,9,13,0,8,8,9,,,,,,,,,2,1.4899865509942174,,,038,001,2019_May_16_1359,MusicAffectPsychophysiology2019,3.0.5,60.193373733152505,
To what extent did the music make you feel ,TENDER,30MonoWAV/30MonoT2.wav,2,1,4,14,,,,,0,9,9,13,0,9,9,10,,,,,,,,,2,0.9201824220072012,,,038,001,2019_May_16_1359,MusicAffectPsychophysiology2019,3.0.5,60.193373733152505,
To what extent did the music make you feel ,ANGRY,30MonoWAV/30MonoT2.wav,2,1,4,14,,,,,0,9,9,13,0,10,10,2,,,,,,,,,1,1.3039796800003387,,,038,001,2019_May_16_1359,MusicAffectPsychophysiology2019,3.0.5,60.193373733152505,
To what extent did the music make you feel ,GUILTY,30MonoWAV/30MonoT2.wav,2,1,4,14,,,,,0,9,9,13,0,11,11,5,,,,,,,,,1,5.928408086008858,,,038,001,2019_May_16_1359,MusicAffectPsychophysiology2019,3.0.5,60.193373733152505,
,,30MonoWAV/30MonoT2.wav,2,1,4,14,,,,,0,9,9,13,,,,,,,,,,,,,,,,,038,001,2019_May_16_1359,MusicAffectPsychophysiology2019,3.0.5,60.193373733152505,
To what extent did the music make you feel ,ASHAMED,30MonoWAV/30MonoS1.wav,1,1,3,9,,,,,0,10,10,8,0,0,0,4,,,2,6.993973546981579,2,1.490373698004987,2,1.2009629019885324,2,1.4858021140098572,,,038,001,2019_May_16_1359,MusicAffectPsychophysiology2019,3.0.5,60.193373733152505,
To what extent did the music make you feel ,ANXIOUS ,30MonoWAV/30MonoS1.wav,1,1,3,9,,,,,0,10,10,8,0,1,1,1,,,,,,,,,2,1.3689064929785673,,,038,001,2019_May_16_1359,MusicAffectPsychophysiology2019,3.0.5,60.193373733152505,
To what extent did the music make you feel ,TENDER,30MonoWAV/30MonoS1.wav,1,1,3,9,,,,,0,10,10,8,0,2,2,10,,,,,,,,,2,0.7522248790191952,,,038,001,2019_May_16_1359,MusicAffectPsychophysiology2019,3.0.5,60.193373733152505,
To what extent did the music make you feel ,FRUSTRATED,30MonoWAV/30MonoS1.wav,1,1,3,9,,,,,0,10,10,8,0,3,3,3,,,,,,,,,1,1.1690008290170226,,,038,001,2019_May_16_1359,MusicAffectPsychophysiology2019,3.0.5,60.193373733152505,
To what extent did the music make you feel ,ALERT,30MonoWAV/30MonoS1.wav,1,1,3,9,,,,,0,10,10,8,0,4,4,8,,,,,,,,,2,1.1859910069906618,,,038,001,2019_May_16_1359,MusicAffectPsychophysiology2019,3.0.5,60.193373733152505,
To what extent did the music make you feel ,HAPPY,30MonoWAV/30MonoS1.wav,1,1,3,9,,,,,0,10,10,8,0,5,5,6,,,,,,,,,1,3.8850367570121307,,,038,001,2019_May_16_1359,MusicAffectPsychophysiology2019,3.0.5,60.193373733152505,
To what extent did the music make you feel ,GUILTY,30MonoWAV/30MonoS1.wav,1,1,3,9,,,,,0,10,10,8,0,6,6,5,,,,,,,,,2,1.0512447509972844,,,038,001,2019_May_16_1359,MusicAffectPsychophysiology2019,3.0.5,60.193373733152505,
To what extent did the music make you feel ,SCARED,30MonoWAV/30MonoS1.wav,1,1,3,9,,,,,0,10,10,8,0,7,7,11,,,,,,,,,1,1.4363988770055585,,,038,001,2019_May_16_1359,MusicAffectPsychophysiology2019,3.0.5,60.193373733152505,
To what extent did the music make you feel ,EXCITED,30MonoWAV/30MonoS1.wav,1,1,3,9,,,,,0,10,10,8,0,8,8,7,,,,,,,,,1,1.3851029989891686,,,038,001,2019_May_16_1359,MusicAffectPsychophysiology2019,3.0.5,60.193373733152505,
To what extent did the music make you feel ,ACTIVE,30MonoWAV/30MonoS1.wav,1,1,3,9,,,,,0,10,10,8,0,9,9,9,,,,,,,,,1,0.801081077021081,,,038,001,2019_May_16_1359,MusicAffectPsychophysiology2019,3.0.5,60.193373733152505,
To what extent did the music make you feel ,SAD,30MonoWAV/30MonoS1.wav,1,1,3,9,,,,,0,10,10,8,0,10,10,0,,,,,,,,,2,2.5692883410083596,,,038,001,2019_May_16_1359,MusicAffectPsychophysiology2019,3.0.5,60.193373733152505,
To what extent did the music make you feel ,ANGRY,30MonoWAV/30MonoS1.wav,1,1,3,9,,,,,0,10,10,8,0,11,11,2,,,,,,,,,1,1.7697280899737962,,,038,001,2019_May_16_1359,MusicAffectPsychophysiology2019,3.0.5,60.193373733152505,
,,30MonoWAV/30MonoS1.wav,1,1,3,9,,,,,0,10,10,8,,,,,,,,,,,,,,,,,038,001,2019_May_16_1359,MusicAffectPsychophysiology2019,3.0.5,60.193373733152505,
To what extent did the music make you feel ,ANGRY,30MonoWAV/30MonoF3.wav,1,2,2,3,,,,,0,11,11,2,0,0,0,2,,,4,3.992946195008699,2,2.252156710019335,2,1.385821833013324,1,4.901896837021923,,,038,001,2019_May_16_1359,MusicAffectPsychophysiology2019,3.0.5,60.193373733152505,
To what extent did the music make you feel ,HAPPY,30MonoWAV/30MonoF3.wav,1,2,2,3,,,,,0,11,11,2,0,1,1,6,,,,,,,,,1,2.1352741440059617,,,038,001,2019_May_16_1359,MusicAffectPsychophysiology2019,3.0.5,60.193373733152505,
To what extent did the music make you feel ,ASHAMED,30MonoWAV/30MonoF3.wav,1,2,2,3,,,,,0,11,11,2,0,2,2,4,,,,,,,,,1,0.9521133459929843,,,038,001,2019_May_16_1359,MusicAffectPsychophysiology2019,3.0.5,60.193373733152505,
To what extent did the music make you feel ,TENDER,30MonoWAV/30MonoF3.wav,1,2,2,3,,,,,0,11,11,2,0,3,3,10,,,,,,,,,1,1.0187975940061733,,,038,001,2019_May_16_1359,MusicAffectPsychophysiology2019,3.0.5,60.193373733152505,
To what extent did the music make you feel ,ALERT,30MonoWAV/30MonoF3.wav,1,2,2,3,,,,,0,11,11,2,0,4,4,8,,,,,,,,,3,2.0356018360180315,,,038,001,2019_May_16_1359,MusicAffectPsychophysiology2019,3.0.5,60.193373733152505,
To what extent did the music make you feel ,SCARED,30MonoWAV/30MonoF3.wav,1,2,2,3,,,,,0,11,11,2,0,5,5,11,,,,,,,,,3,2.036736898997333,,,038,001,2019_May_16_1359,MusicAffectPsychophysiology2019,3.0.5,60.193373733152505,
To what extent did the music make you feel ,GUILTY,30MonoWAV/30MonoF3.wav,1,2,2,3,,,,,0,11,11,2,0,6,6,5,,,,,,,,,1,1.8019720810116269,,,038,001,2019_May_16_1359,MusicAffectPsychophysiology2019,3.0.5,60.193373733152505,
To what extent did the music make you feel ,SAD,30MonoWAV/30MonoF3.wav,1,2,2,3,,,,,0,11,11,2,0,7,7,0,,,,,,,,,1,1.085449102014536,,,038,001,2019_May_16_1359,MusicAffectPsychophysiology2019,3.0.5,60.193373733152505,
To what extent did the music make you feel ,FRUSTRATED,30MonoWAV/30MonoF3.wav,1,2,2,3,,,,,0,11,11,2,0,8,8,3,,,,,,,,,2,1.1351955159916542,,,038,001,2019_May_16_1359,MusicAffectPsychophysiology2019,3.0.5,60.193373733152505,
To what extent did the music make you feel ,ANXIOUS ,30MonoWAV/30MonoF3.wav,1,2,2,3,,,,,0,11,11,2,0,9,9,1,,,,,,,,,3,1.4027964469860308,,,038,001,2019_May_16_1359,MusicAffectPsychophysiology2019,3.0.5,60.193373733152505,
To what extent did the music make you feel ,ACTIVE,30MonoWAV/30MonoF3.wav,1,2,2,3,,,,,0,11,11,2,0,10,10,9,,,,,,,,,3,1.6368158149998635,,,038,001,2019_May_16_1359,MusicAffectPsychophysiology2019,3.0.5,60.193373733152505,
To what extent did the music make you feel ,EXCITED,30MonoWAV/30MonoF3.wav,1,2,2,3,,,,,0,11,11,2,0,11,11,7,,,,,,,,,1,1.7853030459955335,,,038,001,2019_May_16_1359,MusicAffectPsychophysiology2019,3.0.5,60.193373733152505,
,,30MonoWAV/30MonoF3.wav,1,2,2,3,,,,,0,11,11,2,,,,,,,,,,,,,,,,,038,001,2019_May_16_1359,MusicAffectPsychophysiology2019,3.0.5,60.193373733152505,
To what extent did the music make you feel ,ANXIOUS ,30MonoWAV/30MonoH1.wav,2,2,1,5,,,,,0,12,12,4,0,0,0,1,,,4,5.36841705700499,4,1.0179532909824047,4,2.035794725001324,1,3.4557931069866754,,,038,001,2019_May_16_1359,MusicAffectPsychophysiology2019,3.0.5,60.193373733152505,
To what extent did the music make you feel ,SCARED,30MonoWAV/30MonoH1.wav,2,2,1,5,,,,,0,12,12,4,0,1,1,11,,,,,,,,,1,0.7003872689965647,,,038,001,2019_May_16_1359,MusicAffectPsychophysiology2019,3.0.5,60.193373733152505,
To what extent did the music make you feel ,ASHAMED,30MonoWAV/30MonoH1.wav,2,2,1,5,,,,,0,12,12,4,0,2,2,4,,,,,,,,,1,0.6365960869879927,,,038,001,2019_May_16_1359,MusicAffectPsychophysiology2019,3.0.5,60.193373733152505,
To what extent did the music make you feel ,ANGRY,30MonoWAV/30MonoH1.wav,2,2,1,5,,,,,0,12,12,4,0,3,3,2,,,,,,,,,1,0.7346099949791096,,,038,001,2019_May_16_1359,MusicAffectPsychophysiology2019,3.0.5,60.193373733152505,
To what extent did the music make you feel ,ALERT,30MonoWAV/30MonoH1.wav,2,2,1,5,,,,,0,12,12,4,0,4,4,8,,,,,,,,,2,1.4853516129951458,,,038,001,2019_May_16_1359,MusicAffectPsychophysiology2019,3.0.5,60.193373733152505,
To what extent did the music make you feel ,ACTIVE,30MonoWAV/30MonoH1.wav,2,2,1,5,,,,,0,12,12,4,0,5,5,9,,,,,,,,,3,1.2899594430055004,,,038,001,2019_May_16_1359,MusicAffectPsychophysiology2019,3.0.5,60.193373733152505,
To what extent did the music make you feel ,TENDER,30MonoWAV/30MonoH1.wav,2,2,1,5,,,,,0,12,12,4,0,6,6,10,,,,,,,,,1,0.9201890449912753,,,038,001,2019_May_16_1359,MusicAffectPsychophysiology2019,3.0.5,60.193373733152505,
To what extent did the music make you feel ,HAPPY,30MonoWAV/30MonoH1.wav,2,2,1,5,,,,,0,12,12,4,0,7,7,6,,,,,,,,,4,3.0730243680009153,,,038,001,2019_May_16_1359,MusicAffectPsychophysiology2019,3.0.5,60.193373733152505,
To what extent did the music make you feel ,GUILTY,30MonoWAV/30MonoH1.wav,2,2,1,5,,,,,0,12,12,4,0,8,8,5,,,,,,,,,1,0.9861460159881972,,,038,001,2019_May_16_1359,MusicAffectPsychophysiology2019,3.0.5,60.193373733152505,
To what extent did the music make you feel ,EXCITED,30MonoWAV/30MonoH1.wav,2,2,1,5,,,,,0,12,12,4,0,9,9,7,,,,,,,,,4,1.1535470310191158,,,038,001,2019_May_16_1359,MusicAffectPsychophysiology2019,3.0.5,60.193373733152505,
To what extent did the music make you feel ,FRUSTRATED,30MonoWAV/30MonoH1.wav,2,2,1,5,,,,,0,12,12,4,0,10,10,3,,,,,,,,,1,1.1731899720034562,,,038,001,2019_May_16_1359,MusicAffectPsychophysiology2019,3.0.5,60.193373733152505,
To what extent did the music make you feel ,SAD,30MonoWAV/30MonoH1.wav,2,2,1,5,,,,,0,12,12,4,0,11,11,0,,,,,,,,,1,1.6849592909857165,,,038,001,2019_May_16_1359,MusicAffectPsychophysiology2019,3.0.5,60.193373733152505,
,,30MonoWAV/30MonoH1.wav,2,2,1,5,,,,,0,12,12,4,,,,,,,,,,,,,,,,,038,001,2019_May_16_1359,MusicAffectPsychophysiology2019,3.0.5,60.193373733152505,
To what extent did the music make you feel ,ASHAMED,30MonoWAV/30MonoF1.wav,1,2,2,1,,,,,0,13,13,0,0,0,0,4,,,4,4.9851187790045515,3,1.0513282179890666,2,1.7351843999931589,1,1.418659557995852,,,038,001,2019_May_16_1359,MusicAffectPsychophysiology2019,3.0.5,60.193373733152505,
To what extent did the music make you feel ,ANGRY,30MonoWAV/30MonoF1.wav,1,2,2,1,,,,,0,13,13,0,0,1,1,2,,,,,,,,,1,0.885567137011094,,,038,001,2019_May_16_1359,MusicAffectPsychophysiology2019,3.0.5,60.193373733152505,
To what extent did the music make you feel ,EXCITED,30MonoWAV/30MonoF1.wav,1,2,2,1,,,,,0,13,13,0,0,2,2,7,,,,,,,,,2,1.419100660015829,,,038,001,2019_May_16_1359,MusicAffectPsychophysiology2019,3.0.5,60.193373733152505,
To what extent did the music make you feel ,ANXIOUS ,30MonoWAV/30MonoF1.wav,1,2,2,1,,,,,0,13,13,0,0,3,3,1,,,,,,,,,4,2.5569277229951695,,,038,001,2019_May_16_1359,MusicAffectPsychophysiology2019,3.0.5,60.193373733152505,
To what extent did the music make you feel ,FRUSTRATED,30MonoWAV/30MonoF1.wav,1,2,2,1,,,,,0,13,13,0,0,4,4,3,,,,,,,,,1,1.1195109209802467,,,038,001,2019_May_16_1359,MusicAffectPsychophysiology2019,3.0.5,60.193373733152505,
To what extent did the music make you feel ,ALERT,30MonoWAV/30MonoF1.wav,1,2,2,1,,,,,0,13,13,0,0,5,5,8,,,,,,,,,3,1.1858342409832403,,,038,001,2019_May_16_1359,MusicAffectPsychophysiology2019,3.0.5,60.193373733152505,
To what extent did the music make you feel ,ACTIVE,30MonoWAV/30MonoF1.wav,1,2,2,1,,,,,0,13,13,0,0,6,6,9,,,,,,,,,4,1.003151760000037,,,038,001,2019_May_16_1359,MusicAffectPsychophysiology2019,3.0.5,60.193373733152505,
To what extent did the music make you feel ,HAPPY,30MonoWAV/30MonoF1.wav,1,2,2,1,,,,,0,13,13,0,0,7,7,6,,,,,,,,,1,1.7872700069856364,,,038,001,2019_May_16_1359,MusicAffectPsychophysiology2019,3.0.5,60.193373733152505,
To what extent did the music make you feel ,GUILTY,30MonoWAV/30MonoF1.wav,1,2,2,1,,,,,0,13,13,0,0,8,8,5,,,,,,,,,1,1.4397449199750554,,,038,001,2019_May_16_1359,MusicAffectPsychophysiology2019,3.0.5,60.193373733152505,
To what extent did the music make you feel ,SCARED,30MonoWAV/30MonoF1.wav,1,2,2,1,,,,,0,13,13,0,0,9,9,11,,,,,,,,,3,1.184857665997697,,,038,001,2019_May_16_1359,MusicAffectPsychophysiology2019,3.0.5,60.193373733152505,
To what extent did the music make you feel ,SAD,30MonoWAV/30MonoF1.wav,1,2,2,1,,,,,0,13,13,0,0,10,10,0,,,,,,,,,1,1.1506939259998035,,,038,001,2019_May_16_1359,MusicAffectPsychophysiology2019,3.0.5,60.193373733152505,
To what extent did the music make you feel ,TENDER,30MonoWAV/30MonoF1.wav,1,2,2,1,,,,,0,13,13,0,0,11,11,10,,,,,,,,,2,1.2517669830122031,,,038,001,2019_May_16_1359,MusicAffectPsychophysiology2019,3.0.5,60.193373733152505,
,,30MonoWAV/30MonoF1.wav,1,2,2,1,,,,,0,13,13,0,,,,,,,,,,,,,,,,,038,001,2019_May_16_1359,MusicAffectPsychophysiology2019,3.0.5,60.193373733152505,
To what extent did the music make you feel ,ALERT,30MonoWAV/30MonoT4.wav,2,1,4,16,,,,,0,14,14,15,0,0,0,8,,,3,3.500581136002438,3,2.300992114993278,1,2.0688081630214583,2,6.93583340497571,,,038,001,2019_May_16_1359,MusicAffectPsychophysiology2019,3.0.5,60.193373733152505,
To what extent did the music make you feel ,ACTIVE,30MonoWAV/30MonoT4.wav,2,1,4,16,,,,,0,14,14,15,0,1,1,9,,,,,,,,,3,2.3849283970193937,,,038,001,2019_May_16_1359,MusicAffectPsychophysiology2019,3.0.5,60.193373733152505,
To what extent did the music make you feel ,ANGRY,30MonoWAV/30MonoT4.wav,2,1,4,16,,,,,0,14,14,15,0,2,2,2,,,,,,,,,1,1.4170279090176336,,,038,001,2019_May_16_1359,MusicAffectPsychophysiology2019,3.0.5,60.193373733152505,
To what extent did the music make you feel ,FRUSTRATED,30MonoWAV/30MonoT4.wav,2,1,4,16,,,,,0,14,14,15,0,3,3,3,,,,,,,,,1,0.7999185280059464,,,038,001,2019_May_16_1359,MusicAffectPsychophysiology2019,3.0.5,60.193373733152505,
To what extent did the music make you feel ,GUILTY,30MonoWAV/30MonoT4.wav,2,1,4,16,,,,,0,14,14,15,0,4,4,5,,,,,,,,,1,0.6859305459947791,,,038,001,2019_May_16_1359,MusicAffectPsychophysiology2019,3.0.5,60.193373733152505,
To what extent did the music make you feel ,ANXIOUS ,30MonoWAV/30MonoT4.wav,2,1,4,16,,,,,0,14,14,15,0,5,5,1,,,,,,,,,3,1.6351170580019243,,,038,001,2019_May_16_1359,MusicAffectPsychophysiology2019,3.0.5,60.193373733152505,
To what extent did the music make you feel ,SCARED,30MonoWAV/30MonoT4.wav,2,1,4,16,,,,,0,14,14,15,0,6,6,11,,,,,,,,,2,1.3189479779975954,,,038,001,2019_May_16_1359,MusicAffectPsychophysiology2019,3.0.5,60.193373733152505,
To what extent did the music make you feel ,HAPPY,30MonoWAV/30MonoT4.wav,2,1,4,16,,,,,0,14,14,15,0,7,7,6,,,,,,,,,2,1.6028672709944658,,,038,001,2019_May_16_1359,MusicAffectPsychophysiology2019,3.0.5,60.193373733152505,
To what extent did the music make you feel ,ASHAMED,30MonoWAV/30MonoT4.wav,2,1,4,16,,,,,0,14,14,15,0,8,8,4,,,,,,,,,1,3.101799017022131,,,038,001,2019_May_16_1359,MusicAffectPsychophysiology2019,3.0.5,60.193373733152505,
To what extent did the music make you feel ,TENDER,30MonoWAV/30MonoT4.wav,2,1,4,16,,,,,0,14,14,15,0,9,9,10,,,,,,,,,2,1.0676182819879614,,,038,001,2019_May_16_1359,MusicAffectPsychophysiology2019,3.0.5,60.193373733152505,
To what extent did the music make you feel ,SAD,30MonoWAV/30MonoT4.wav,2,1,4,16,,,,,0,14,14,15,0,10,10,0,,,,,,,,,3,1.518314579006983,,,038,001,2019_May_16_1359,MusicAffectPsychophysiology2019,3.0.5,60.193373733152505,
To what extent did the music make you feel ,EXCITED,30MonoWAV/30MonoT4.wav,2,1,4,16,,,,,0,14,14,15,0,11,11,7,,,,,,,,,1,5.334437221026747,,,038,001,2019_May_16_1359,MusicAffectPsychophysiology2019,3.0.5,60.193373733152505,
,,30MonoWAV/30MonoT4.wav,2,1,4,16,,,,,0,14,14,15,,,,,,,,,,,,,,,,,038,001,2019_May_16_1359,MusicAffectPsychophysiology2019,3.0.5,60.193373733152505,
To what extent did the music make you feel ,EXCITED,30MonoWAV/30MonoT1.wav,2,1,4,13,,,,,0,15,15,12,0,0,0,7,,,3,11.317724129999988,4,2.8521472350112163,3,1.6691712940228172,3,2.4186151070171036,,,038,001,2019_May_16_1359,MusicAffectPsychophysiology2019,3.0.5,60.193373733152505,
To what extent did the music make you feel ,GUILTY,30MonoWAV/30MonoT1.wav,2,1,4,13,,,,,0,15,15,12,0,1,1,5,,,,,,,,,1,2.0187226939888205,,,038,001,2019_May_16_1359,MusicAffectPsychophysiology2019,3.0.5,60.193373733152505,
To what extent did the music make you feel ,ASHAMED,30MonoWAV/30MonoT1.wav,2,1,4,13,,,,,0,15,15,12,0,2,2,4,,,,,,,,,1,0.6845901499909814,,,038,001,2019_May_16_1359,MusicAffectPsychophysiology2019,3.0.5,60.193373733152505,
To what extent did the music make you feel ,TENDER,30MonoWAV/30MonoT1.wav,2,1,4,13,,,,,0,15,15,12,0,3,3,10,,,,,,,,,2,0.8517813799844589,,,038,001,2019_May_16_1359,MusicAffectPsychophysiology2019,3.0.5,60.193373733152505,
To what extent did the music make you feel ,ANGRY,30MonoWAV/30MonoT1.wav,2,1,4,13,,,,,0,15,15,12,0,4,4,2,,,,,,,,,1,1.484967485012021,,,038,001,2019_May_16_1359,MusicAffectPsychophysiology2019,3.0.5,60.193373733152505,
To what extent did the music make you feel ,ALERT,30MonoWAV/30MonoT1.wav,2,1,4,13,,,,,0,15,15,12,0,5,5,8,,,,,,,,,2,1.4690603269846179,,,038,001,2019_May_16_1359,MusicAffectPsychophysiology2019,3.0.5,60.193373733152505,
To what extent did the music make you feel ,SCARED,30MonoWAV/30MonoT1.wav,2,1,4,13,,,,,0,15,15,12,0,6,6,11,,,,,,,,,1,2.0729935319977812,,,038,001,2019_May_16_1359,MusicAffectPsychophysiology2019,3.0.5,60.193373733152505,
To what extent did the music make you feel ,ACTIVE,30MonoWAV/30MonoT1.wav,2,1,4,13,,,,,0,15,15,12,0,7,7,9,,,,,,,,,2,8.245110881980509,,,038,001,2019_May_16_1359,MusicAffectPsychophysiology2019,3.0.5,60.193373733152505,
To what extent did the music make you feel ,HAPPY,30MonoWAV/30MonoT1.wav,2,1,4,13,,,,,0,15,15,12,0,8,8,6,,,,,,,,,3,3.3668695780215785,,,038,001,2019_May_16_1359,MusicAffectPsychophysiology2019,3.0.5,60.193373733152505,
To what extent did the music make you feel ,FRUSTRATED,30MonoWAV/30MonoT1.wav,2,1,4,13,,,,,0,15,15,12,0,9,9,3,,,,,,,,,1,1.302043864998268,,,038,001,2019_May_16_1359,MusicAffectPsychophysiology2019,3.0.5,60.193373733152505,
To what extent did the music make you feel ,ANXIOUS ,30MonoWAV/30MonoT1.wav,2,1,4,13,,,,,0,15,15,12,0,10,10,1,,,,,,,,,1,3.0349884430179372,,,038,001,2019_May_16_1359,MusicAffectPsychophysiology2019,3.0.5,60.193373733152505,
To what extent did the music make you feel ,SAD,30MonoWAV/30MonoT1.wav,2,1,4,13,,,,,0,15,15,12,0,11,11,0,,,,,,,,,2,1.1355882589996327,,,038,001,2019_May_16_1359,MusicAffectPsychophysiology2019,3.0.5,60.193373733152505,
,,30MonoWAV/30MonoT1.wav,2,1,4,13,,,,,0,15,15,12,,,,,,,,,,,,,,,,,038,001,2019_May_16_1359,MusicAffectPsychophysiology2019,3.0.5,60.193373733152505,
To what extent did the music make you feel ,EXCITED,30MonoWAV/30MonoS2.wav,1,1,3,10,,,,,1,0,16,9,0,0,0,7,,,2,7.172579514008248,2,1.1031357710016891,2,1.519973086018581,2,1.8371809270174708,,,038,001,2019_May_16_1359,MusicAffectPsychophysiology2019,3.0.5,60.193373733152505,
To what extent did the music make you feel ,ALERT,30MonoWAV/30MonoS2.wav,1,1,3,10,,,,,1,0,16,9,0,1,1,8,,,,,,,,,2,1.085828039998887,,,038,001,2019_May_16_1359,MusicAffectPsychophysiology2019,3.0.5,60.193373733152505,
To what extent did the music make you feel ,ANXIOUS ,30MonoWAV/30MonoS2.wav,1,1,3,10,,,,,1,0,16,9,0,2,2,1,,,,,,,,,3,0.8561925769899972,,,038,001,2019_May_16_1359,MusicAffectPsychophysiology2019,3.0.5,60.193373733152505,
To what extent did the music make you feel ,HAPPY,30MonoWAV/30MonoS2.wav,1,1,3,10,,,,,1,0,16,9,0,3,3,6,,,,,,,,,1,1.1527798819879536,,,038,001,2019_May_16_1359,MusicAffectPsychophysiology2019,3.0.5,60.193373733152505,
To what extent did the music make you feel ,SAD,30MonoWAV/30MonoS2.wav,1,1,3,10,,,,,1,0,16,9,0,4,4,0,,,,,,,,,3,1.3844478319806512,,,038,001,2019_May_16_1359,MusicAffectPsychophysiology2019,3.0.5,60.193373733152505,
To what extent did the music make you feel ,ACTIVE,30MonoWAV/30MonoS2.wav,1,1,3,10,,,,,1,0,16,9,0,5,5,9,,,,,,,,,1,3.5016290250059683,,,038,001,2019_May_16_1359,MusicAffectPsychophysiology2019,3.0.5,60.193373733152505,
To what extent did the music make you feel ,TENDER,30MonoWAV/30MonoS2.wav,1,1,3,10,,,,,1,0,16,9,0,6,6,10,,,,,,,,,3,3.2358788269921206,,,038,001,2019_May_16_1359,MusicAffectPsychophysiology2019,3.0.5,60.193373733152505,
To what extent did the music make you feel ,ASHAMED,30MonoWAV/30MonoS2.wav,1,1,3,10,,,,,1,0,16,9,0,7,7,4,,,,,,,,,2,1.585233062010957,,,038,001,2019_May_16_1359,MusicAffectPsychophysiology2019,3.0.5,60.193373733152505,
To what extent did the music make you feel ,GUILTY,30MonoWAV/30MonoS2.wav,1,1,3,10,,,,,1,0,16,9,0,8,8,5,,,,,,,,,2,1.0857254980073776,,,038,001,2019_May_16_1359,MusicAffectPsychophysiology2019,3.0.5,60.193373733152505,
To what extent did the music make you feel ,ANGRY,30MonoWAV/30MonoS2.wav,1,1,3,10,,,,,1,0,16,9,0,9,9,2,,,,,,,,,1,1.4853917340224143,,,038,001,2019_May_16_1359,MusicAffectPsychophysiology2019,3.0.5,60.193373733152505,
To what extent did the music make you feel ,SCARED,30MonoWAV/30MonoS2.wav,1,1,3,10,,,,,1,0,16,9,0,10,10,11,,,,,,,,,1,1.4849387970170937,,,038,001,2019_May_16_1359,MusicAffectPsychophysiology2019,3.0.5,60.193373733152505,
To what extent did the music make you feel ,FRUSTRATED,30MonoWAV/30MonoS2.wav,1,1,3,10,,,,,1,0,16,9,0,11,11,3,,,,,,,,,1,1.0844993439968675,,,038,001,2019_May_16_1359,MusicAffectPsychophysiology2019,3.0.5,60.193373733152505,
,,30MonoWAV/30MonoS2.wav,1,1,3,10,,,,,1,0,16,9,,,,,,,,,,,,,,,,,038,001,2019_May_16_1359,MusicAffectPsychophysiology2019,3.0.5,60.193373733152505,
To what extent did the music make you feel ,SAD,30MonoWAV/30MonoH4.wav,2,2,1,8,,,,,1,1,17,7,0,0,0,0,,,4,7.534533558005933,4,1.7023026090173516,3,1.2511208310024813,1,1.2687831459916197,,,038,001,2019_May_16_1359,MusicAffectPsychophysiology2019,3.0.5,60.193373733152505,
To what extent did the music make you feel ,TENDER,30MonoWAV/30MonoH4.wav,2,2,1,8,,,,,1,1,17,7,0,1,1,10,,,,,,,,,1,1.819528663996607,,,038,001,2019_May_16_1359,MusicAffectPsychophysiology2019,3.0.5,60.193373733152505,
To what extent did the music make you feel ,ASHAMED,30MonoWAV/30MonoH4.wav,2,2,1,8,,,,,1,1,17,7,0,2,2,4,,,,,,,,,1,0.6515638990094885,,,038,001,2019_May_16_1359,MusicAffectPsychophysiology2019,3.0.5,60.193373733152505,
To what extent did the music make you feel ,ACTIVE,30MonoWAV/30MonoH4.wav,2,2,1,8,,,,,1,1,17,7,0,3,3,9,,,,,,,,,4,1.2689665860089008,,,038,001,2019_May_16_1359,MusicAffectPsychophysiology2019,3.0.5,60.193373733152505,
To what extent did the music make you feel ,EXCITED,30MonoWAV/30MonoH4.wav,2,2,1,8,,,,,1,1,17,7,0,4,4,7,,,,,,,,,5,2.850702053983696,,,038,001,2019_May_16_1359,MusicAffectPsychophysiology2019,3.0.5,60.193373733152505,
To what extent did the music make you feel ,GUILTY,30MonoWAV/30MonoH4.wav,2,2,1,8,,,,,1,1,17,7,0,5,5,5,,,,,,,,,1,4.78377704997547,,,038,001,2019_May_16_1359,MusicAffectPsychophysiology2019,3.0.5,60.193373733152505,
To what extent did the music make you feel ,ALERT,30MonoWAV/30MonoH4.wav,2,2,1,8,,,,,1,1,17,7,0,6,6,8,,,,,,,,,3,1.4855506870080717,,,038,001,2019_May_16_1359,MusicAffectPsychophysiology2019,3.0.5,60.193373733152505,
To what extent did the music make you feel ,ANGRY,30MonoWAV/30MonoH4.wav,2,2,1,8,,,,,1,1,17,7,0,7,7,2,,,,,,,,,1,1.0509672090120148,,,038,001,2019_May_16_1359,MusicAffectPsychophysiology2019,3.0.5,60.193373733152505,
To what extent did the music make you feel ,FRUSTRATED,30MonoWAV/30MonoH4.wav,2,2,1,8,,,,,1,1,17,7,0,8,8,3,,,,,,,,,1,0.7039784450025763,,,038,001,2019_May_16_1359,MusicAffectPsychophysiology2019,3.0.5,60.193373733152505,
To what extent did the music make you feel ,HAPPY,30MonoWAV/30MonoH4.wav,2,2,1,8,,,,,1,1,17,7,0,9,9,6,,,,,,,,,4,1.2866993559873663,,,038,001,2019_May_16_1359,MusicAffectPsychophysiology2019,3.0.5,60.193373733152505,
To what extent did the music make you feel ,SCARED,30MonoWAV/30MonoH4.wav,2,2,1,8,,,,,1,1,17,7,0,10,10,11,,,,,,,,,1,0.9358261259912979,,,038,001,2019_May_16_1359,MusicAffectPsychophysiology2019,3.0.5,60.193373733152505,
To what extent did the music make you feel ,ANXIOUS ,30MonoWAV/30MonoH4.wav,2,2,1,8,,,,,1,1,17,7,0,11,11,1,,,,,,,,,1,1.303868904011324,,,038,001,2019_May_16_1359,MusicAffectPsychophysiology2019,3.0.5,60.193373733152505,
,,30MonoWAV/30MonoH4.wav,2,2,1,8,,,,,1,1,17,7,,,,,,,,,,,,,,,,,038,001,2019_May_16_1359,MusicAffectPsychophysiology2019,3.0.5,60.193373733152505,
To what extent did the music make you feel ,ANGRY,30MonoWAV/30MonoS4.wav,1,1,3,12,,,,,1,2,18,11,0,0,0,2,,,1,15.551438767026411,1,2.5512565539975185,2,3.624471771006938,1,1.3550009700120427,,,038,001,2019_May_16_1359,MusicAffectPsychophysiology2019,3.0.5,60.193373733152505,
To what extent did the music make you feel ,GUILTY,30MonoWAV/30MonoS4.wav,1,1,3,12,,,,,1,2,18,11,0,1,1,5,,,,,,,,,3,2.220392035000259,,,038,001,2019_May_16_1359,MusicAffectPsychophysiology2019,3.0.5,60.193373733152505,
To what extent did the music make you feel ,SCARED,30MonoWAV/30MonoS4.wav,1,1,3,12,,,,,1,2,18,11,0,2,2,11,,,,,,,,,2,2.290645951987244,,,038,001,2019_May_16_1359,MusicAffectPsychophysiology2019,3.0.5,60.193373733152505,
To what extent did the music make you feel ,SAD,30MonoWAV/30MonoS4.wav,1,1,3,12,,,,,1,2,18,11,0,3,3,0,,,,,,,,,4,1.3015160350187216,,,038,001,2019_May_16_1359,MusicAffectPsychophysiology2019,3.0.5,60.193373733152505,
To what extent did the music make you feel ,ASHAMED,30MonoWAV/30MonoS4.wav,1,1,3,12,,,,,1,2,18,11,0,4,4,4,,,,,,,,,2,1.234352363011567,,,038,001,2019_May_16_1359,MusicAffectPsychophysiology2019,3.0.5,60.193373733152505,
To what extent did the music make you feel ,ALERT,30MonoWAV/30MonoS4.wav,1,1,3,12,,,,,1,2,18,11,0,5,5,8,,,,,,,,,2,6.318751082988456,,,038,001,2019_May_16_1359,MusicAffectPsychophysiology2019,3.0.5,60.193373733152505,
To what extent did the music make you feel ,HAPPY,30MonoWAV/30MonoS4.wav,1,1,3,12,,,,,1,2,18,11,0,6,6,6,,,,,,,,,1,0.8180245019902941,,,038,001,2019_May_16_1359,MusicAffectPsychophysiology2019,3.0.5,60.193373733152505,
To what extent did the music make you feel ,ANXIOUS ,30MonoWAV/30MonoS4.wav,1,1,3,12,,,,,1,2,18,11,0,7,7,1,,,,,,,,,2,1.2687904839986004,,,038,001,2019_May_16_1359,MusicAffectPsychophysiology2019,3.0.5,60.193373733152505,
To what extent did the music make you feel ,ACTIVE,30MonoWAV/30MonoS4.wav,1,1,3,12,,,,,1,2,18,11,0,8,8,9,,,,,,,,,1,2.5848947250051424,,,038,001,2019_May_16_1359,MusicAffectPsychophysiology2019,3.0.5,60.193373733152505,
To what extent did the music make you feel ,EXCITED,30MonoWAV/30MonoS4.wav,1,1,3,12,,,,,1,2,18,11,0,9,9,7,,,,,,,,,1,1.9173658459912986,,,038,001,2019_May_16_1359,MusicAffectPsychophysiology2019,3.0.5,60.193373733152505,
To what extent did the music make you feel ,TENDER,30MonoWAV/30MonoS4.wav,1,1,3,12,,,,,1,2,18,11,0,10,10,10,,,,,,,,,3,1.702672692015767,,,038,001,2019_May_16_1359,MusicAffectPsychophysiology2019,3.0.5,60.193373733152505,
To what extent did the music make you feel ,FRUSTRATED,30MonoWAV/30MonoS4.wav,1,1,3,12,,,,,1,2,18,11,0,11,11,3,,,,,,,,,1,1.9878645330027211,,,038,001,2019_May_16_1359,MusicAffectPsychophysiology2019,3.0.5,60.193373733152505,
,,30MonoWAV/30MonoS4.wav,1,1,3,12,,,,,1,2,18,11,,,,,,,,,,,,,,,,,038,001,2019_May_16_1359,MusicAffectPsychophysiology2019,3.0.5,60.193373733152505,
To what extent did the music make you feel ,SCARED,30MonoWAV/30MonoS1.wav,1,1,3,9,,,,,1,3,19,8,0,0,0,11,,,2,5.317910836980445,2,1.384598956006812,2,1.1524388029938564,2,2.6188735809992068,,,038,001,2019_May_16_1359,MusicAffectPsychophysiology2019,3.0.5,60.193373733152505,
To what extent did the music make you feel ,EXCITED,30MonoWAV/30MonoS1.wav,1,1,3,9,,,,,1,3,19,8,0,1,1,7,,,,,,,,,2,2.4359154060075525,,,038,001,2019_May_16_1359,MusicAffectPsychophysiology2019,3.0.5,60.193373733152505,
To what extent did the music make you feel ,SAD,30MonoWAV/30MonoS1.wav,1,1,3,9,,,,,1,3,19,8,0,2,2,0,,,,,,,,,4,2.7678282799897715,,,038,001,2019_May_16_1359,MusicAffectPsychophysiology2019,3.0.5,60.193373733152505,
To what extent did the music make you feel ,ANGRY,30MonoWAV/30MonoS1.wav,1,1,3,9,,,,,1,3,19,8,0,3,3,2,,,,,,,,,1,1.7517277720035054,,,038,001,2019_May_16_1359,MusicAffectPsychophysiology2019,3.0.5,60.193373733152505,
To what extent did the music make you feel ,HAPPY,30MonoWAV/30MonoS1.wav,1,1,3,9,,,,,1,3,19,8,0,4,4,6,,,,,,,,,1,1.001132449018769,,,038,001,2019_May_16_1359,MusicAffectPsychophysiology2019,3.0.5,60.193373733152505,
To what extent did the music make you feel ,FRUSTRATED,30MonoWAV/30MonoS1.wav,1,1,3,9,,,,,1,3,19,8,0,5,5,3,,,,,,,,,1,1.8013879310165066,,,038,001,2019_May_16_1359,MusicAffectPsychophysiology2019,3.0.5,60.193373733152505,
To what extent did the music make you feel ,ALERT,30MonoWAV/30MonoS1.wav,1,1,3,9,,,,,1,3,19,8,0,6,6,8,,,,,,,,,2,1.1020242089871317,,,038,001,2019_May_16_1359,MusicAffectPsychophysiology2019,3.0.5,60.193373733152505,
To what extent did the music make you feel ,TENDER,30MonoWAV/30MonoS1.wav,1,1,3,9,,,,,1,3,19,8,0,7,7,10,,,,,,,,,3,1.052125493006315,,,038,001,2019_May_16_1359,MusicAffectPsychophysiology2019,3.0.5,60.193373733152505,
To what extent did the music make you feel ,ACTIVE,30MonoWAV/30MonoS1.wav,1,1,3,9,,,,,1,3,19,8,0,8,8,9,,,,,,,,,1,1.6562488630006555,,,038,001,2019_May_16_1359,MusicAffectPsychophysiology2019,3.0.5,60.193373733152505,
To what extent did the music make you feel ,GUILTY,30MonoWAV/30MonoS1.wav,1,1,3,9,,,,,1,3,19,8,0,9,9,5,,,,,,,,,3,1.6036684240098111,,,038,001,2019_May_16_1359,MusicAffectPsychophysiology2019,3.0.5,60.193373733152505,
To what extent did the music make you feel ,ASHAMED,30MonoWAV/30MonoS1.wav,1,1,3,9,,,,,1,3,19,8,0,10,10,4,,,,,,,,,3,1.3024398480192758,,,038,001,2019_May_16_1359,MusicAffectPsychophysiology2019,3.0.5,60.193373733152505,
To what extent did the music make you feel ,ANXIOUS ,30MonoWAV/30MonoS1.wav,1,1,3,9,,,,,1,3,19,8,0,11,11,1,,,,,,,,,3,3.6891761060105637,,,038,001,2019_May_16_1359,MusicAffectPsychophysiology2019,3.0.5,60.193373733152505,
,,30MonoWAV/30MonoS1.wav,1,1,3,9,,,,,1,3,19,8,,,,,,,,,,,,,,,,,038,001,2019_May_16_1359,MusicAffectPsychophysiology2019,3.0.5,60.193373733152505,
To what extent did the music make you feel ,FRUSTRATED,30MonoWAV/30MonoT3.wav,2,1,4,15,,,,,1,4,20,14,0,0,0,3,,,2,5.3913636559736915,3,2.9559714260103647,2,4.291122966009425,1,1.3688789150037337,,,038,001,2019_May_16_1359,MusicAffectPsychophysiology2019,3.0.5,60.193373733152505,
To what extent did the music make you feel ,ANGRY,30MonoWAV/30MonoT3.wav,2,1,4,15,,,,,1,4,20,14,0,1,1,2,,,,,,,,,1,2.036027797003044,,,038,001,2019_May_16_1359,MusicAffectPsychophysiology2019,3.0.5,60.193373733152505,
To what extent did the music make you feel ,GUILTY,30MonoWAV/30MonoT3.wav,2,1,4,15,,,,,1,4,20,14,0,2,2,5,,,,,,,,,2,1.2006506990001071,,,038,001,2019_May_16_1359,MusicAffectPsychophysiology2019,3.0.5,60.193373733152505,
To what extent did the music make you feel ,SAD,30MonoWAV/30MonoT3.wav,2,1,4,15,,,,,1,4,20,14,0,3,3,0,,,,,,,,,3,0.8524237929959781,,,038,001,2019_May_16_1359,MusicAffectPsychophysiology2019,3.0.5,60.193373733152505,
To what extent did the music make you feel ,ANXIOUS ,30MonoWAV/30MonoT3.wav,2,1,4,15,,,,,1,4,20,14,0,4,4,1,,,,,,,,,2,1.217825083003845,,,038,001,2019_May_16_1359,MusicAffectPsychophysiology2019,3.0.5,60.193373733152505,
To what extent did the music make you feel ,TENDER,30MonoWAV/30MonoT3.wav,2,1,4,15,,,,,1,4,20,14,0,5,5,10,,,,,,,,,3,0.7850118479982484,,,038,001,2019_May_16_1359,MusicAffectPsychophysiology2019,3.0.5,60.193373733152505,
To what extent did the music make you feel ,ACTIVE,30MonoWAV/30MonoT3.wav,2,1,4,15,,,,,1,4,20,14,0,6,6,9,,,,,,,,,1,1.10174249499687,,,038,001,2019_May_16_1359,MusicAffectPsychophysiology2019,3.0.5,60.193373733152505,
To what extent did the music make you feel ,EXCITED,30MonoWAV/30MonoT3.wav,2,1,4,15,,,,,1,4,20,14,0,7,7,7,,,,,,,,,1,0.9678033830132335,,,038,001,2019_May_16_1359,MusicAffectPsychophysiology2019,3.0.5,60.193373733152505,
To what extent did the music make you feel ,SCARED,30MonoWAV/30MonoT3.wav,2,1,4,15,,,,,1,4,20,14,0,8,8,11,,,,,,,,,2,2.101038783992408,,,038,001,2019_May_16_1359,MusicAffectPsychophysiology2019,3.0.5,60.193373733152505,
To what extent did the music make you feel ,ASHAMED,30MonoWAV/30MonoT3.wav,2,1,4,15,,,,,1,4,20,14,0,9,9,4,,,,,,,,,2,2.267494989995612,,,038,001,2019_May_16_1359,MusicAffectPsychophysiology2019,3.0.5,60.193373733152505,
To what extent did the music make you feel ,ALERT,30MonoWAV/30MonoT3.wav,2,1,4,15,,,,,1,4,20,14,0,10,10,8,,,,,,,,,2,1.5861650989972986,,,038,001,2019_May_16_1359,MusicAffectPsychophysiology2019,3.0.5,60.193373733152505,
To what extent did the music make you feel ,HAPPY,30MonoWAV/30MonoT3.wav,2,1,4,15,,,,,1,4,20,14,0,11,11,6,,,,,,,,,1,1.1182421300036367,,,038,001,2019_May_16_1359,MusicAffectPsychophysiology2019,3.0.5,60.193373733152505,
,,30MonoWAV/30MonoT3.wav,2,1,4,15,,,,,1,4,20,14,,,,,,,,,,,,,,,,,038,001,2019_May_16_1359,MusicAffectPsychophysiology2019,3.0.5,60.193373733152505,
To what extent did the music make you feel ,HAPPY,30MonoWAV/30MonoS3.wav,1,1,3,11,,,,,1,5,21,10,0,0,0,6,,,1,12.150912095006788,2,1.3032813589961734,2,1.0187308039749041,1,1.3847102870058734,,,038,001,2019_May_16_1359,MusicAffectPsychophysiology2019,3.0.5,60.193373733152505,
To what extent did the music make you feel ,SAD,30MonoWAV/30MonoS3.wav,1,1,3,11,,,,,1,5,21,10,0,1,1,0,,,,,,,,,3,1.2017813890124671,,,038,001,2019_May_16_1359,MusicAffectPsychophysiology2019,3.0.5,60.193373733152505,
To what extent did the music make you feel ,SCARED,30MonoWAV/30MonoS3.wav,1,1,3,11,,,,,1,5,21,10,0,2,2,11,,,,,,,,,3,1.6194197369914036,,,038,001,2019_May_16_1359,MusicAffectPsychophysiology2019,3.0.5,60.193373733152505,
To what extent did the music make you feel ,ACTIVE,30MonoWAV/30MonoS3.wav,1,1,3,11,,,,,1,5,21,10,0,3,3,9,,,,,,,,,1,3.367993774008937,,,038,001,2019_May_16_1359,MusicAffectPsychophysiology2019,3.0.5,60.193373733152505,
To what extent did the music make you feel ,TENDER,30MonoWAV/30MonoS3.wav,1,1,3,11,,,,,1,5,21,10,0,4,4,10,,,,,,,,,3,1.0181718730018474,,,038,001,2019_May_16_1359,MusicAffectPsychophysiology2019,3.0.5,60.193373733152505,
To what extent did the music make you feel ,ANGRY,30MonoWAV/30MonoS3.wav,1,1,3,11,,,,,1,5,21,10,0,5,5,2,,,,,,,,,2,2.8519315699813887,,,038,001,2019_May_16_1359,MusicAffectPsychophysiology2019,3.0.5,60.193373733152505,
To what extent did the music make you feel ,ALERT,30MonoWAV/30MonoS3.wav,1,1,3,11,,,,,1,5,21,10,0,6,6,8,,,,,,,,,2,1.1519497799745295,,,038,001,2019_May_16_1359,MusicAffectPsychophysiology2019,3.0.5,60.193373733152505,
To what extent did the music make you feel ,FRUSTRATED,30MonoWAV/30MonoS3.wav,1,1,3,11,,,,,1,5,21,10,0,7,7,3,,,,,,,,,2,2.418422699003713,,,038,001,2019_May_16_1359,MusicAffectPsychophysiology2019,3.0.5,60.193373733152505,
To what extent did the music make you feel ,GUILTY,30MonoWAV/30MonoS3.wav,1,1,3,11,,,,,1,5,21,10,0,8,8,5,,,,,,,,,2,2.1169963059946895,,,038,001,2019_May_16_1359,MusicAffectPsychophysiology2019,3.0.5,60.193373733152505,
To what extent did the music make you feel ,ASHAMED,30MonoWAV/30MonoS3.wav,1,1,3,11,,,,,1,5,21,10,0,9,9,4,,,,,,,,,3,1.7495214259834029,,,038,001,2019_May_16_1359,MusicAffectPsychophysiology2019,3.0.5,60.193373733152505,
To what extent did the music make you feel ,ANXIOUS ,30MonoWAV/30MonoS3.wav,1,1,3,11,,,,,1,5,21,10,0,10,10,1,,,,,,,,,3,0.7173223219870124,,,038,001,2019_May_16_1359,MusicAffectPsychophysiology2019,3.0.5,60.193373733152505,
To what extent did the music make you feel ,EXCITED,30MonoWAV/30MonoS3.wav,1,1,3,11,,,,,1,5,21,10,0,11,11,7,,,,,,,,,1,0.7832218419935089,,,038,001,2019_May_16_1359,MusicAffectPsychophysiology2019,3.0.5,60.193373733152505,
,,30MonoWAV/30MonoS3.wav,1,1,3,11,,,,,1,5,21,10,,,,,,,,,,,,,,,,,038,001,2019_May_16_1359,MusicAffectPsychophysiology2019,3.0.5,60.193373733152505,
To what extent did the music make you feel ,FRUSTRATED,30MonoWAV/30MonoF3.wav,1,2,2,3,,,,,1,6,22,2,0,0,0,3,,,3,4.624374592007371,2,1.455048000003444,2,1.9345142820093315,2,1.7028890549845528,,,038,001,2019_May_16_1359,MusicAffectPsychophysiology2019,3.0.5,60.193373733152505,
To what extent did the music make you feel ,ANGRY,30MonoWAV/30MonoF3.wav,1,2,2,3,,,,,1,6,22,2,0,1,1,2,,,,,,,,,2,1.5358818439999595,,,038,001,2019_May_16_1359,MusicAffectPsychophysiology2019,3.0.5,60.193373733152505,
To what extent did the music make you feel ,TENDER,30MonoWAV/30MonoF3.wav,1,2,2,3,,,,,1,6,22,2,0,2,2,10,,,,,,,,,2,1.1187392159772571,,,038,001,2019_May_16_1359,MusicAffectPsychophysiology2019,3.0.5,60.193373733152505,
To what extent did the music make you feel ,EXCITED,30MonoWAV/30MonoF3.wav,1,2,2,3,,,,,1,6,22,2,0,3,3,7,,,,,,,,,3,1.3017341369995847,,,038,001,2019_May_16_1359,MusicAffectPsychophysiology2019,3.0.5,60.193373733152505,
To what extent did the music make you feel ,ASHAMED,30MonoWAV/30MonoF3.wav,1,2,2,3,,,,,1,6,22,2,0,4,4,4,,,,,,,,,1,1.1677968639996834,,,038,001,2019_May_16_1359,MusicAffectPsychophysiology2019,3.0.5,60.193373733152505,
To what extent did the music make you feel ,SCARED,30MonoWAV/30MonoF3.wav,1,2,2,3,,,,,1,6,22,2,0,5,5,11,,,,,,,,,2,1.55036602698965,,,038,001,2019_May_16_1359,MusicAffectPsychophysiology2019,3.0.5,60.193373733152505,
To what extent did the music make you feel ,ANXIOUS ,30MonoWAV/30MonoF3.wav,1,2,2,3,,,,,1,6,22,2,0,6,6,1,,,,,,,,,3,1.051802265981678,,,038,001,2019_May_16_1359,MusicAffectPsychophysiology2019,3.0.5,60.193373733152505,
To what extent did the music make you feel ,GUILTY,30MonoWAV/30MonoF3.wav,1,2,2,3,,,,,1,6,22,2,0,7,7,5,,,,,,,,,1,2.0185328270017635,,,038,001,2019_May_16_1359,MusicAffectPsychophysiology2019,3.0.5,60.193373733152505,
To what extent did the music make you feel ,ALERT,30MonoWAV/30MonoF3.wav,1,2,2,3,,,,,1,6,22,2,0,8,8,8,,,,,,,,,3,3.46914862000267,,,038,001,2019_May_16_1359,MusicAffectPsychophysiology2019,3.0.5,60.193373733152505,
To what extent did the music make you feel ,SAD,30MonoWAV/30MonoF3.wav,1,2,2,3,,,,,1,6,22,2,0,9,9,0,,,,,,,,,1,1.7849700359802227,,,038,001,2019_May_16_1359,MusicAffectPsychophysiology2019,3.0.5,60.193373733152505,
To what extent did the music make you feel ,HAPPY,30MonoWAV/30MonoF3.wav,1,2,2,3,,,,,1,6,22,2,0,10,10,6,,,,,,,,,1,0.9177380269975401,,,038,001,2019_May_16_1359,MusicAffectPsychophysiology2019,3.0.5,60.193373733152505,
To what extent did the music make you feel ,ACTIVE,30MonoWAV/30MonoF3.wav,1,2,2,3,,,,,1,6,22,2,0,11,11,9,,,,,,,,,3,3.1006128300214186,,,038,001,2019_May_16_1359,MusicAffectPsychophysiology2019,3.0.5,60.193373733152505,
,,30MonoWAV/30MonoF3.wav,1,2,2,3,,,,,1,6,22,2,,,,,,,,,,,,,,,,,038,001,2019_May_16_1359,MusicAffectPsychophysiology2019,3.0.5,60.193373733152505,
To what extent did the music make you feel ,ANGRY,30MonoWAV/30MonoH3.wav,2,2,1,7,,,,,1,7,23,6,0,0,0,2,,,4,6.351606022013584,4,1.768307279999135,3,2.135555935004959,1,1.6513429749757051,,,038,001,2019_May_16_1359,MusicAffectPsychophysiology2019,3.0.5,60.193373733152505,
To what extent did the music make you feel ,FRUSTRATED,30MonoWAV/30MonoH3.wav,2,2,1,7,,,,,1,7,23,6,0,1,1,3,,,,,,,,,1,0.5517460890114307,,,038,001,2019_May_16_1359,MusicAffectPsychophysiology2019,3.0.5,60.193373733152505,
To what extent did the music make you feel ,SCARED,30MonoWAV/30MonoH3.wav,2,2,1,7,,,,,1,7,23,6,0,2,2,11,,,,,,,,,1,0.5524640750081744,,,038,001,2019_May_16_1359,MusicAffectPsychophysiology2019,3.0.5,60.193373733152505,
To what extent did the music make you feel ,HAPPY,30MonoWAV/30MonoH3.wav,2,2,1,7,,,,,1,7,23,6,0,3,3,6,,,,,,,,,4,1.0512598829809576,,,038,001,2019_May_16_1359,MusicAffectPsychophysiology2019,3.0.5,60.193373733152505,
To what extent did the music make you feel ,EXCITED,30MonoWAV/30MonoH3.wav,2,2,1,7,,,,,1,7,23,6,0,4,4,7,,,,,,,,,4,0.9685039579926524,,,038,001,2019_May_16_1359,MusicAffectPsychophysiology2019,3.0.5,60.193373733152505,
To what extent did the music make you feel ,TENDER,30MonoWAV/30MonoH3.wav,2,2,1,7,,,,,1,7,23,6,0,5,5,10,,,,,,,,,3,1.1337007510010153,,,038,001,2019_May_16_1359,MusicAffectPsychophysiology2019,3.0.5,60.193373733152505,
To what extent did the music make you feel ,ACTIVE,30MonoWAV/30MonoH3.wav,2,2,1,7,,,,,1,7,23,6,0,6,6,9,,,,,,,,,4,1.2362507220241241,,,038,001,2019_May_16_1359,MusicAffectPsychophysiology2019,3.0.5,60.193373733152505,
To what extent did the music make you feel ,SAD,30MonoWAV/30MonoH3.wav,2,2,1,7,,,,,1,7,23,6,0,7,7,0,,,,,,,,,1,0.8525099599792156,,,038,001,2019_May_16_1359,MusicAffectPsychophysiology2019,3.0.5,60.193373733152505,
To what extent did the music make you feel ,GUILTY,30MonoWAV/30MonoH3.wav,2,2,1,7,,,,,1,7,23,6,0,8,8,5,,,,,,,,,1,0.6359199290163815,,,038,001,2019_May_16_1359,MusicAffectPsychophysiology2019,3.0.5,60.193373733152505,
To what extent did the music make you feel ,ALERT,30MonoWAV/30MonoH3.wav,2,2,1,7,,,,,1,7,23,6,0,9,9,8,,,,,,,,,3,1.1518368519900832,,,038,001,2019_May_16_1359,MusicAffectPsychophysiology2019,3.0.5,60.193373733152505,
To what extent did the music make you feel ,ANXIOUS ,30MonoWAV/30MonoH3.wav,2,2,1,7,,,,,1,7,23,6,0,10,10,1,,,,,,,,,1,1.4176194400060922,,,038,001,2019_May_16_1359,MusicAffectPsychophysiology2019,3.0.5,60.193373733152505,
To what extent did the music make you feel ,ASHAMED,30MonoWAV/30MonoH3.wav,2,2,1,7,,,,,1,7,23,6,0,11,11,4,,,,,,,,,1,0.5852363060112111,,,038,001,2019_May_16_1359,MusicAffectPsychophysiology2019,3.0.5,60.193373733152505,
,,30MonoWAV/30MonoH3.wav,2,2,1,7,,,,,1,7,23,6,,,,,,,,,,,,,,,,,038,001,2019_May_16_1359,MusicAffectPsychophysiology2019,3.0.5,60.193373733152505,
To what extent did the music make you feel ,TENDER,30MonoWAV/30MonoT1.wav,2,1,4,13,,,,,1,8,24,12,0,0,0,10,,,2,3.48499699801323,3,1.717607238999335,2,1.4852568310161587,3,1.0692639169865288,,,038,001,2019_May_16_1359,MusicAffectPsychophysiology2019,3.0.5,60.193373733152505,
To what extent did the music make you feel ,GUILTY,30MonoWAV/30MonoT1.wav,2,1,4,13,,,,,1,8,24,12,0,1,1,5,,,,,,,,,1,1.1732242979924195,,,038,001,2019_May_16_1359,MusicAffectPsychophysiology2019,3.0.5,60.193373733152505,
To what extent did the music make you feel ,SAD,30MonoWAV/30MonoT1.wav,2,1,4,13,,,,,1,8,24,12,0,2,2,0,,,,,,,,,2,0.9865280959929805,,,038,001,2019_May_16_1359,MusicAffectPsychophysiology2019,3.0.5,60.193373733152505,
To what extent did the music make you feel ,HAPPY,30MonoWAV/30MonoT1.wav,2,1,4,13,,,,,1,8,24,12,0,3,3,6,,,,,,,,,1,1.6538027780188713,,,038,001,2019_May_16_1359,MusicAffectPsychophysiology2019,3.0.5,60.193373733152505,
To what extent did the music make you feel ,ANXIOUS ,30MonoWAV/30MonoT1.wav,2,1,4,13,,,,,1,8,24,12,0,4,4,1,,,,,,,,,1,1.422064896003576,,,038,001,2019_May_16_1359,MusicAffectPsychophysiology2019,3.0.5,60.193373733152505,
To what extent did the music make you feel ,EXCITED,30MonoWAV/30MonoT1.wav,2,1,4,13,,,,,1,8,24,12,0,5,5,7,,,,,,,,,3,2.0919603079964872,,,038,001,2019_May_16_1359,MusicAffectPsychophysiology2019,3.0.5,60.193373733152505,
To what extent did the music make you feel ,ASHAMED,30MonoWAV/30MonoT1.wav,2,1,4,13,,,,,1,8,24,12,0,6,6,4,,,,,,,,,1,1.467928361002123,,,038,001,2019_May_16_1359,MusicAffectPsychophysiology2019,3.0.5,60.193373733152505,
To what extent did the music make you feel ,ALERT,30MonoWAV/30MonoT1.wav,2,1,4,13,,,,,1,8,24,12,0,7,7,8,,,,,,,,,2,1.853105026006233,,,038,001,2019_May_16_1359,MusicAffectPsychophysiology2019,3.0.5,60.193373733152505,
To what extent did the music make you feel ,ACTIVE,30MonoWAV/30MonoT1.wav,2,1,4,13,,,,,1,8,24,12,0,8,8,9,,,,,,,,,2,0.9671679619932547,,,038,001,2019_May_16_1359,MusicAffectPsychophysiology2019,3.0.5,60.193373733152505,
To what extent did the music make you feel ,FRUSTRATED,30MonoWAV/30MonoT1.wav,2,1,4,13,,,,,1,8,24,12,0,9,9,3,,,,,,,,,1,3.0029551589977928,,,038,001,2019_May_16_1359,MusicAffectPsychophysiology2019,3.0.5,60.193373733152505,
To what extent did the music make you feel ,SCARED,30MonoWAV/30MonoT1.wav,2,1,4,13,,,,,1,8,24,12,0,10,10,11,,,,,,,,,1,1.2522779850114603,,,038,001,2019_May_16_1359,MusicAffectPsychophysiology2019,3.0.5,60.193373733152505,
To what extent did the music make you feel ,ANGRY,30MonoWAV/30MonoT1.wav,2,1,4,13,,,,,1,8,24,12,0,11,11,2,,,,,,,,,1,0.6843967999739107,,,038,001,2019_May_16_1359,MusicAffectPsychophysiology2019,3.0.5,60.193373733152505,
,,30MonoWAV/30MonoT1.wav,2,1,4,13,,,,,1,8,24,12,,,,,,,,,,,,,,,,,038,001,2019_May_16_1359,MusicAffectPsychophysiology2019,3.0.5,60.193373733152505,
To what extent did the music make you feel ,HAPPY,30MonoWAV/30MonoT4.wav,2,1,4,16,,,,,1,9,25,15,0,0,0,6,,,4,6.887678024999332,4,1.03533626900753,3,1.002657075994648,3,2.187705382995773,,,038,001,2019_May_16_1359,MusicAffectPsychophysiology2019,3.0.5,60.193373733152505,
To what extent did the music make you feel ,ACTIVE,30MonoWAV/30MonoT4.wav,2,1,4,16,,,,,1,9,25,15,0,1,1,9,,,,,,,,,3,0.6026164749928284,,,038,001,2019_May_16_1359,MusicAffectPsychophysiology2019,3.0.5,60.193373733152505,
To what extent did the music make you feel ,SAD,30MonoWAV/30MonoT4.wav,2,1,4,16,,,,,1,9,25,15,0,2,2,0,,,,,,,,,1,0.9855681420012843,,,038,001,2019_May_16_1359,MusicAffectPsychophysiology2019,3.0.5,60.193373733152505,
To what extent did the music make you feel ,ALERT,30MonoWAV/30MonoT4.wav,2,1,4,16,,,,,1,9,25,15,0,3,3,8,,,,,,,,,1,0.5682168130006175,,,038,001,2019_May_16_1359,MusicAffectPsychophysiology2019,3.0.5,60.193373733152505,
To what extent did the music make you feel ,GUILTY,30MonoWAV/30MonoT4.wav,2,1,4,16,,,,,1,9,25,15,0,4,4,5,,,,,,,,,1,5.206571455986705,,,038,001,2019_May_16_1359,MusicAffectPsychophysiology2019,3.0.5,60.193373733152505,
To what extent did the music make you feel ,TENDER,30MonoWAV/30MonoT4.wav,2,1,4,16,,,,,1,9,25,15,0,5,5,10,,,,,,,,,2,0.9693819590029307,,,038,001,2019_May_16_1359,MusicAffectPsychophysiology2019,3.0.5,60.193373733152505,
To what extent did the music make you feel ,ANXIOUS ,30MonoWAV/30MonoT4.wav,2,1,4,16,,,,,1,9,25,15,0,6,6,1,,,,,,,,,2,2.13395207101712,,,038,001,2019_May_16_1359,MusicAffectPsychophysiology2019,3.0.5,60.193373733152505,
To what extent did the music make you feel ,ANGRY,30MonoWAV/30MonoT4.wav,2,1,4,16,,,,,1,9,25,15,0,7,7,2,,,,,,,,,1,1.1185577669821214,,,038,001,2019_May_16_1359,MusicAffectPsychophysiology2019,3.0.5,60.193373733152505,
To what extent did the music make you feel ,SCARED,30MonoWAV/30MonoT4.wav,2,1,4,16,,,,,1,9,25,15,0,8,8,11,,,,,,,,,1,1.2353684200206771,,,038,001,2019_May_16_1359,MusicAffectPsychophysiology2019,3.0.5,60.193373733152505,
To what extent did the music make you feel ,ASHAMED,30MonoWAV/30MonoT4.wav,2,1,4,16,,,,,1,9,25,15,0,9,9,4,,,,,,,,,1,0.6345642560045235,,,038,001,2019_May_16_1359,MusicAffectPsychophysiology2019,3.0.5,60.193373733152505,
To what extent did the music make you feel ,FRUSTRATED,30MonoWAV/30MonoT4.wav,2,1,4,16,,,,,1,9,25,15,0,10,10,3,,,,,,,,,1,1.8192400229745544,,,038,001,2019_May_16_1359,MusicAffectPsychophysiology2019,3.0.5,60.193373733152505,
To what extent did the music make you feel ,EXCITED,30MonoWAV/30MonoT4.wav,2,1,4,16,,,,,1,9,25,15,0,11,11,7,,,,,,,,,4,1.3192804039863404,,,038,001,2019_May_16_1359,MusicAffectPsychophysiology2019,3.0.5,60.193373733152505,
,,30MonoWAV/30MonoT4.wav,2,1,4,16,,,,,1,9,25,15,,,,,,,,,,,,,,,,,038,001,2019_May_16_1359,MusicAffectPsychophysiology2019,3.0.5,60.193373733152505,
To what extent did the music make you feel ,SCARED,30MonoWAV/30MonoF1.wav,1,2,2,1,,,,,1,10,26,0,0,0,0,11,,,4,4.635570229002042,3,1.6523519839975052,3,1.0681338639988098,3,1.7686851549951825,,,038,001,2019_May_16_1359,MusicAffectPsychophysiology2019,3.0.5,60.193373733152505,
To what extent did the music make you feel ,TENDER,30MonoWAV/30MonoF1.wav,1,2,2,1,,,,,1,10,26,0,0,1,1,10,,,,,,,,,2,1.0690429940004833,,,038,001,2019_May_16_1359,MusicAffectPsychophysiology2019,3.0.5,60.193373733152505,
To what extent did the music make you feel ,ANGRY,30MonoWAV/30MonoF1.wav,1,2,2,1,,,,,1,10,26,0,0,2,2,2,,,,,,,,,1,1.0017313949938398,,,038,001,2019_May_16_1359,MusicAffectPsychophysiology2019,3.0.5,60.193373733152505,
To what extent did the music make you feel ,GUILTY,30MonoWAV/30MonoF1.wav,1,2,2,1,,,,,1,10,26,0,0,3,3,5,,,,,,,,,1,1.0344923659868073,,,038,001,2019_May_16_1359,MusicAffectPsychophysiology2019,3.0.5,60.193373733152505,
To what extent did the music make you feel ,SAD,30MonoWAV/30MonoF1.wav,1,2,2,1,,,,,1,10,26,0,0,4,4,0,,,,,,,,,1,1.067835630994523,,,038,001,2019_May_16_1359,MusicAffectPsychophysiology2019,3.0.5,60.193373733152505,
To what extent did the music make you feel ,ALERT,30MonoWAV/30MonoF1.wav,1,2,2,1,,,,,1,10,26,0,0,5,5,8,,,,,,,,,4,1.2676946430001408,,,038,001,2019_May_16_1359,MusicAffectPsychophysiology2019,3.0.5,60.193373733152505,
To what extent did the music make you feel ,ANXIOUS ,30MonoWAV/30MonoF1.wav,1,2,2,1,,,,,1,10,26,0,0,6,6,1,,,,,,,,,3,1.6019857240025885,,,038,001,2019_May_16_1359,MusicAffectPsychophysiology2019,3.0.5,60.193373733152505,
To what extent did the music make you feel ,EXCITED,30MonoWAV/30MonoF1.wav,1,2,2,1,,,,,1,10,26,0,0,7,7,7,,,,,,,,,3,1.6682765530131292,,,038,001,2019_May_16_1359,MusicAffectPsychophysiology2019,3.0.5,60.193373733152505,
To what extent did the music make you feel ,HAPPY,30MonoWAV/30MonoF1.wav,1,2,2,1,,,,,1,10,26,0,0,8,8,6,,,,,,,,,1,3.0188235380046535,,,038,001,2019_May_16_1359,MusicAffectPsychophysiology2019,3.0.5,60.193373733152505,
To what extent did the music make you feel ,ASHAMED,30MonoWAV/30MonoF1.wav,1,2,2,1,,,,,1,10,26,0,0,9,9,4,,,,,,,,,1,1.4007433960214257,,,038,001,2019_May_16_1359,MusicAffectPsychophysiology2019,3.0.5,60.193373733152505,
To what extent did the music make you feel ,ACTIVE,30MonoWAV/30MonoF1.wav,1,2,2,1,,,,,1,10,26,0,0,10,10,9,,,,,,,,,4,1.5179436590115074,,,038,001,2019_May_16_1359,MusicAffectPsychophysiology2019,3.0.5,60.193373733152505,
To what extent did the music make you feel ,FRUSTRATED,30MonoWAV/30MonoF1.wav,1,2,2,1,,,,,1,10,26,0,0,11,11,3,,,,,,,,,1,1.3506052999873646,,,038,001,2019_May_16_1359,MusicAffectPsychophysiology2019,3.0.5,60.193373733152505,
,,30MonoWAV/30MonoF1.wav,1,2,2,1,,,,,1,10,26,0,,,,,,,,,,,,,,,,,038,001,2019_May_16_1359,MusicAffectPsychophysiology2019,3.0.5,60.193373733152505,
To what extent did the music make you feel ,SCARED,30MonoWAV/30MonoH1.wav,2,2,1,5,,,,,1,11,27,4,0,0,0,11,,,3,5.0574957779899705,4,0.8696107900177594,4,0.853032784012612,1,2.2713852580054663,,,038,001,2019_May_16_1359,MusicAffectPsychophysiology2019,3.0.5,60.193373733152505,
To what extent did the music make you feel ,TENDER,30MonoWAV/30MonoH1.wav,2,2,1,5,,,,,1,11,27,4,0,1,1,10,,,,,,,,,3,1.452344382996671,,,038,001,2019_May_16_1359,MusicAffectPsychophysiology2019,3.0.5,60.193373733152505,
To what extent did the music make you feel ,ANGRY,30MonoWAV/30MonoH1.wav,2,2,1,5,,,,,1,11,27,4,0,2,2,2,,,,,,,,,1,0.6005406209733337,,,038,001,2019_May_16_1359,MusicAffectPsychophysiology2019,3.0.5,60.193373733152505,
To what extent did the music make you feel ,SAD,30MonoWAV/30MonoH1.wav,2,2,1,5,,,,,1,11,27,4,0,3,3,0,,,,,,,,,1,0.8683671439939644,,,038,001,2019_May_16_1359,MusicAffectPsychophysiology2019,3.0.5,60.193373733152505,
To what extent did the music make you feel ,ALERT,30MonoWAV/30MonoH1.wav,2,2,1,5,,,,,1,11,27,4,0,4,4,8,,,,,,,,,2,2.189868765010033,,,038,001,2019_May_16_1359,MusicAffectPsychophysiology2019,3.0.5,60.193373733152505,
To what extent did the music make you feel ,EXCITED,30MonoWAV/30MonoH1.wav,2,2,1,5,,,,,1,11,27,4,0,5,5,7,,,,,,,,,4,1.6382057449955028,,,038,001,2019_May_16_1359,MusicAffectPsychophysiology2019,3.0.5,60.193373733152505,
To what extent did the music make you feel ,ANXIOUS ,30MonoWAV/30MonoH1.wav,2,2,1,5,,,,,1,11,27,4,0,6,6,1,,,,,,,,,1,1.1197429589810781,,,038,001,2019_May_16_1359,MusicAffectPsychophysiology2019,3.0.5,60.193373733152505,
To what extent did the music make you feel ,HAPPY,30MonoWAV/30MonoH1.wav,2,2,1,5,,,,,1,11,27,4,0,7,7,6,,,,,,,,,4,1.3032162270101253,,,038,001,2019_May_16_1359,MusicAffectPsychophysiology2019,3.0.5,60.193373733152505,
To what extent did the music make you feel ,FRUSTRATED,30MonoWAV/30MonoH1.wav,2,2,1,5,,,,,1,11,27,4,0,8,8,3,,,,,,,,,1,2.2044845760101452,,,038,001,2019_May_16_1359,MusicAffectPsychophysiology2019,3.0.5,60.193373733152505,
To what extent did the music make you feel ,GUILTY,30MonoWAV/30MonoH1.wav,2,2,1,5,,,,,1,11,27,4,0,9,9,5,,,,,,,,,1,0.6549454540072475,,,038,001,2019_May_16_1359,MusicAffectPsychophysiology2019,3.0.5,60.193373733152505,
To what extent did the music make you feel ,ASHAMED,30MonoWAV/30MonoH1.wav,2,2,1,5,,,,,1,11,27,4,0,10,10,4,,,,,,,,,1,0.7013278700178489,,,038,001,2019_May_16_1359,MusicAffectPsychophysiology2019,3.0.5,60.193373733152505,
To what extent did the music make you feel ,ACTIVE,30MonoWAV/30MonoH1.wav,2,2,1,5,,,,,1,11,27,4,0,11,11,9,,,,,,,,,3,1.3679133499972522,,,038,001,2019_May_16_1359,MusicAffectPsychophysiology2019,3.0.5,60.193373733152505,
,,30MonoWAV/30MonoH1.wav,2,2,1,5,,,,,1,11,27,4,,,,,,,,,,,,,,,,,038,001,2019_May_16_1359,MusicAffectPsychophysiology2019,3.0.5,60.193373733152505,
To what extent did the music make you feel ,ACTIVE,30MonoWAV/30MonoF4.wav,1,2,2,4,,,,,1,12,28,3,0,0,0,9,,,4,3.2179199829988647,3,2.366905945003964,2,0.9017649570014328,4,1.5528167260054033,,,038,001,2019_May_16_1359,MusicAffectPsychophysiology2019,3.0.5,60.193373733152505,
To what extent did the music make you feel ,TENDER,30MonoWAV/30MonoF4.wav,1,2,2,4,,,,,1,12,28,3,0,1,1,10,,,,,,,,,2,1.267730308987666,,,038,001,2019_May_16_1359,MusicAffectPsychophysiology2019,3.0.5,60.193373733152505,
To what extent did the music make you feel ,ALERT,30MonoWAV/30MonoF4.wav,1,2,2,4,,,,,1,12,28,3,0,2,2,8,,,,,,,,,4,1.2183065270073712,,,038,001,2019_May_16_1359,MusicAffectPsychophysiology2019,3.0.5,60.193373733152505,
To what extent did the music make you feel ,SAD,30MonoWAV/30MonoF4.wav,1,2,2,4,,,,,1,12,28,3,0,3,3,0,,,,,,,,,1,0.8520200499915518,,,038,001,2019_May_16_1359,MusicAffectPsychophysiology2019,3.0.5,60.193373733152505,
To what extent did the music make you feel ,HAPPY,30MonoWAV/30MonoF4.wav,1,2,2,4,,,,,1,12,28,3,0,4,4,6,,,,,,,,,2,1.2356768700119574,,,038,001,2019_May_16_1359,MusicAffectPsychophysiology2019,3.0.5,60.193373733152505,
To what extent did the music make you feel ,ANXIOUS ,30MonoWAV/30MonoF4.wav,1,2,2,4,,,,,1,12,28,3,0,5,5,1,,,,,,,,,3,1.184479477989953,,,038,001,2019_May_16_1359,MusicAffectPsychophysiology2019,3.0.5,60.193373733152505,
To what extent did the music make you feel ,SCARED,30MonoWAV/30MonoF4.wav,1,2,2,4,,,,,1,12,28,3,0,6,6,11,,,,,,,,,2,1.369177437009057,,,038,001,2019_May_16_1359,MusicAffectPsychophysiology2019,3.0.5,60.193373733152505,
To what extent did the music make you feel ,FRUSTRATED,30MonoWAV/30MonoF4.wav,1,2,2,4,,,,,1,12,28,3,0,7,7,3,,,,,,,,,1,1.1190517009817995,,,038,001,2019_May_16_1359,MusicAffectPsychophysiology2019,3.0.5,60.193373733152505,
To what extent did the music make you feel ,EXCITED,30MonoWAV/30MonoF4.wav,1,2,2,4,,,,,1,12,28,3,0,8,8,7,,,,,,,,,2,1.8191351249988656,,,038,001,2019_May_16_1359,MusicAffectPsychophysiology2019,3.0.5,60.193373733152505,
To what extent did the music make you feel ,ASHAMED,30MonoWAV/30MonoF4.wav,1,2,2,4,,,,,1,12,28,3,0,9,9,4,,,,,,,,,1,0.667107966990443,,,038,001,2019_May_16_1359,MusicAffectPsychophysiology2019,3.0.5,60.193373733152505,
To what extent did the music make you feel ,GUILTY,30MonoWAV/30MonoF4.wav,1,2,2,4,,,,,1,12,28,3,0,10,10,5,,,,,,,,,1,1.2683983000169974,,,038,001,2019_May_16_1359,MusicAffectPsychophysiology2019,3.0.5,60.193373733152505,
To what extent did the music make you feel ,ANGRY,30MonoWAV/30MonoF4.wav,1,2,2,4,,,,,1,12,28,3,0,11,11,2,,,,,,,,,1,0.8687742040201556,,,038,001,2019_May_16_1359,MusicAffectPsychophysiology2019,3.0.5,60.193373733152505,
,,30MonoWAV/30MonoF4.wav,1,2,2,4,,,,,1,12,28,3,,,,,,,,,,,,,,,,,038,001,2019_May_16_1359,MusicAffectPsychophysiology2019,3.0.5,60.193373733152505,
To what extent did the music make you feel ,TENDER,30MonoWAV/30MonoF2.wav,1,2,2,2,,,,,1,13,29,1,0,0,0,10,,,3,4.786225905991159,2,1.2339623589941766,1,1.7512281959934626,2,3.0020624739991035,,,038,001,2019_May_16_1359,MusicAffectPsychophysiology2019,3.0.5,60.193373733152505,
To what extent did the music make you feel ,ACTIVE,30MonoWAV/30MonoF2.wav,1,2,2,2,,,,,1,13,29,1,0,1,1,9,,,,,,,,,2,2.0006845720054116,,,038,001,2019_May_16_1359,MusicAffectPsychophysiology2019,3.0.5,60.193373733152505,
To what extent did the music make you feel ,SAD,30MonoWAV/30MonoF2.wav,1,2,2,2,,,,,1,13,29,1,0,2,2,0,,,,,,,,,2,1.5844749710231554,,,038,001,2019_May_16_1359,MusicAffectPsychophysiology2019,3.0.5,60.193373733152505,
To what extent did the music make you feel ,ASHAMED,30MonoWAV/30MonoF2.wav,1,2,2,2,,,,,1,13,29,1,0,3,3,4,,,,,,,,,1,1.0351715550059453,,,038,001,2019_May_16_1359,MusicAffectPsychophysiology2019,3.0.5,60.193373733152505,
To what extent did the music make you feel ,ANXIOUS ,30MonoWAV/30MonoF2.wav,1,2,2,2,,,,,1,13,29,1,0,4,4,1,,,,,,,,,4,1.400923609995516,,,038,001,2019_May_16_1359,MusicAffectPsychophysiology2019,3.0.5,60.193373733152505,
To what extent did the music make you feel ,ANGRY,30MonoWAV/30MonoF2.wav,1,2,2,2,,,,,1,13,29,1,0,5,5,2,,,,,,,,,1,1.9690183920029085,,,038,001,2019_May_16_1359,MusicAffectPsychophysiology2019,3.0.5,60.193373733152505,
To what extent did the music make you feel ,ALERT,30MonoWAV/30MonoF2.wav,1,2,2,2,,,,,1,13,29,1,0,6,6,8,,,,,,,,,3,0.9526236810197588,,,038,001,2019_May_16_1359,MusicAffectPsychophysiology2019,3.0.5,60.193373733152505,
To what extent did the music make you feel ,EXCITED,30MonoWAV/30MonoF2.wav,1,2,2,2,,,,,1,13,29,1,0,7,7,7,,,,,,,,,1,1.8859558299882337,,,038,001,2019_May_16_1359,MusicAffectPsychophysiology2019,3.0.5,60.193373733152505,
To what extent did the music make you feel ,HAPPY,30MonoWAV/30MonoF2.wav,1,2,2,2,,,,,1,13,29,1,0,8,8,6,,,,,,,,,1,1.7848437690117862,,,038,001,2019_May_16_1359,MusicAffectPsychophysiology2019,3.0.5,60.193373733152505,
To what extent did the music make you feel ,SCARED,30MonoWAV/30MonoF2.wav,1,2,2,2,,,,,1,13,29,1,0,9,9,11,,,,,,,,,4,1.4358176499954425,,,038,001,2019_May_16_1359,MusicAffectPsychophysiology2019,3.0.5,60.193373733152505,
To what extent did the music make you feel ,GUILTY,30MonoWAV/30MonoF2.wav,1,2,2,2,,,,,1,13,29,1,0,10,10,5,,,,,,,,,1,0.8014939699787647,,,038,001,2019_May_16_1359,MusicAffectPsychophysiology2019,3.0.5,60.193373733152505,
To what extent did the music make you feel ,FRUSTRATED,30MonoWAV/30MonoF2.wav,1,2,2,2,,,,,1,13,29,1,0,11,11,3,,,,,,,,,1,0.9367157130036503,,,038,001,2019_May_16_1359,MusicAffectPsychophysiology2019,3.0.5,60.193373733152505,
,,30MonoWAV/30MonoF2.wav,1,2,2,2,,,,,1,13,29,1,,,,,,,,,,,,,,,,,038,001,2019_May_16_1359,MusicAffectPsychophysiology2019,3.0.5,60.193373733152505,
To what extent did the music make you feel ,TENDER,30MonoWAV/30MonoT2.wav,2,1,4,14,,,,,1,14,30,13,0,0,0,10,,,2,3.8355082440248225,3,3.4182751110056415,3,1.185004494007444,3,1.0688596900145058,,,038,001,2019_May_16_1359,MusicAffectPsychophysiology2019,3.0.5,60.193373733152505,
To what extent did the music make you feel ,ACTIVE,30MonoWAV/30MonoT2.wav,2,1,4,14,,,,,1,14,30,13,0,1,1,9,,,,,,,,,2,1.0664351820014417,,,038,001,2019_May_16_1359,MusicAffectPsychophysiology2019,3.0.5,60.193373733152505,
To what extent did the music make you feel ,SCARED,30MonoWAV/30MonoT2.wav,2,1,4,14,,,,,1,14,30,13,0,2,2,11,,,,,,,,,1,1.0852632770256605,,,038,001,2019_May_16_1359,MusicAffectPsychophysiology2019,3.0.5,60.193373733152505,
To what extent did the music make you feel ,ANGRY,30MonoWAV/30MonoT2.wav,2,1,4,14,,,,,1,14,30,13,0,3,3,2,,,,,,,,,1,1.7680565940099768,,,038,001,2019_May_16_1359,MusicAffectPsychophysiology2019,3.0.5,60.193373733152505,
To what extent did the music make you feel ,HAPPY,30MonoWAV/30MonoT2.wav,2,1,4,14,,,,,1,14,30,13,0,4,4,6,,,,,,,,,3,1.3369111340143718,,,038,001,2019_May_16_1359,MusicAffectPsychophysiology2019,3.0.5,60.193373733152505,
To what extent did the music make you feel ,EXCITED,30MonoWAV/30MonoT2.wav,2,1,4,14,,,,,1,14,30,13,0,5,5,7,,,,,,,,,3,0.8684089470189065,,,038,001,2019_May_16_1359,MusicAffectPsychophysiology2019,3.0.5,60.193373733152505,
To what extent did the music make you feel ,FRUSTRATED,30MonoWAV/30MonoT2.wav,2,1,4,14,,,,,1,14,30,13,0,6,6,3,,,,,,,,,1,0.9514987879956607,,,038,001,2019_May_16_1359,MusicAffectPsychophysiology2019,3.0.5,60.193373733152505,
To what extent did the music make you feel ,ANXIOUS ,30MonoWAV/30MonoT2.wav,2,1,4,14,,,,,1,14,30,13,0,7,7,1,,,,,,,,,2,1.9350030570058152,,,038,001,2019_May_16_1359,MusicAffectPsychophysiology2019,3.0.5,60.193373733152505,
To what extent did the music make you feel ,ASHAMED,30MonoWAV/30MonoT2.wav,2,1,4,14,,,,,1,14,30,13,0,8,8,4,,,,,,,,,1,0.5494627250009216,,,038,001,2019_May_16_1359,MusicAffectPsychophysiology2019,3.0.5,60.193373733152505,
To what extent did the music make you feel ,ALERT,30MonoWAV/30MonoT2.wav,2,1,4,14,,,,,1,14,30,13,0,9,9,8,,,,,,,,,2,1.9007830359914806,,,038,001,2019_May_16_1359,MusicAffectPsychophysiology2019,3.0.5,60.193373733152505,
To what extent did the music make you feel ,SAD,30MonoWAV/30MonoT2.wav,2,1,4,14,,,,,1,14,30,13,0,10,10,0,,,,,,,,,2,1.8189680759969633,,,038,001,2019_May_16_1359,MusicAffectPsychophysiology2019,3.0.5,60.193373733152505,
To what extent did the music make you feel ,GUILTY,30MonoWAV/30MonoT2.wav,2,1,4,14,,,,,1,14,30,13,0,11,11,5,,,,,,,,,1,0.668783100991277,,,038,001,2019_May_16_1359,MusicAffectPsychophysiology2019,3.0.5,60.193373733152505,
,,30MonoWAV/30MonoT2.wav,2,1,4,14,,,,,1,14,30,13,,,,,,,,,,,,,,,,,038,001,2019_May_16_1359,MusicAffectPsychophysiology2019,3.0.5,60.193373733152505,
To what extent did the music make you feel ,GUILTY,30MonoWAV/30MonoH2.wav,2,2,1,6,,,,,1,15,31,5,0,0,0,5,,,3,4.6681519920239225,3,0.6850102359894663,3,0.7847901130153332,1,1.4849114919779822,,,038,001,2019_May_16_1359,MusicAffectPsychophysiology2019,3.0.5,60.193373733152505,
To what extent did the music make you feel ,SCARED,30MonoWAV/30MonoH2.wav,2,2,1,6,,,,,1,15,31,5,0,1,1,11,,,,,,,,,1,0.7519412409747019,,,038,001,2019_May_16_1359,MusicAffectPsychophysiology2019,3.0.5,60.193373733152505,
To what extent did the music make you feel ,TENDER,30MonoWAV/30MonoH2.wav,2,2,1,6,,,,,1,15,31,5,0,2,2,10,,,,,,,,,2,0.9031748230045196,,,038,001,2019_May_16_1359,MusicAffectPsychophysiology2019,3.0.5,60.193373733152505,
To what extent did the music make you feel ,ACTIVE,30MonoWAV/30MonoH2.wav,2,2,1,6,,,,,1,15,31,5,0,3,3,9,,,,,,,,,3,1.1343667810142506,,,038,001,2019_May_16_1359,MusicAffectPsychophysiology2019,3.0.5,60.193373733152505,
To what extent did the music make you feel ,ANXIOUS ,30MonoWAV/30MonoH2.wav,2,2,1,6,,,,,1,15,31,5,0,4,4,1,,,,,,,,,2,2.3687546539877076,,,038,001,2019_May_16_1359,MusicAffectPsychophysiology2019,3.0.5,60.193373733152505,
To what extent did the music make you feel ,SAD,30MonoWAV/30MonoH2.wav,2,2,1,6,,,,,1,15,31,5,0,5,5,0,,,,,,,,,1,0.9516016729758121,,,038,001,2019_May_16_1359,MusicAffectPsychophysiology2019,3.0.5,60.193373733152505,
To what extent did the music make you feel ,EXCITED,30MonoWAV/30MonoH2.wav,2,2,1,6,,,,,1,15,31,5,0,6,6,7,,,,,,,,,4,1.485280587017769,,,038,001,2019_May_16_1359,MusicAffectPsychophysiology2019,3.0.5,60.193373733152505,
To what extent did the music make you feel ,ALERT,30MonoWAV/30MonoH2.wav,2,2,1,6,,,,,1,15,31,5,0,7,7,8,,,,,,,,,3,1.035401055996772,,,038,001,2019_May_16_1359,MusicAffectPsychophysiology2019,3.0.5,60.193373733152505,
To what extent did the music make you feel ,ANGRY,30MonoWAV/30MonoH2.wav,2,2,1,6,,,,,1,15,31,5,0,8,8,2,,,,,,,,,1,1.0688915200007614,,,038,001,2019_May_16_1359,MusicAffectPsychophysiology2019,3.0.5,60.193373733152505,
To what extent did the music make you feel ,FRUSTRATED,30MonoWAV/30MonoH2.wav,2,2,1,6,,,,,1,15,31,5,0,9,9,3,,,,,,,,,1,1.1357118769956287,,,038,001,2019_May_16_1359,MusicAffectPsychophysiology2019,3.0.5,60.193373733152505,
To what extent did the music make you feel ,HAPPY,30MonoWAV/30MonoH2.wav,2,2,1,6,,,,,1,15,31,5,0,10,10,6,,,,,,,,,3,1.0685004779952578,,,038,001,2019_May_16_1359,MusicAffectPsychophysiology2019,3.0.5,60.193373733152505,
To what extent did the music make you feel ,ASHAMED,30MonoWAV/30MonoH2.wav,2,2,1,6,,,,,1,15,31,5,0,11,11,4,,,,,,,,,1,1.618338052998297,,,038,001,2019_May_16_1359,MusicAffectPsychophysiology2019,3.0.5,60.193373733152505,
,,30MonoWAV/30MonoH2.wav,2,2,1,6,,,,,1,15,31,5,,,,,,,,,,,,,,,,,038,001,2019_May_16_1359,MusicAffectPsychophysiology2019,3.0.5,60.193373733152505,
,,,,,,,,,,,,,,,,,,,,,,,,,,,,,space,5.686121688020648,038,001,2019_May_16_1359,MusicAffectPsychophysiology2019,3.0.5,60.193373733152505,
