Instruction,Word,song,valence,arousal,affectcat,songmark,pracwords.thisRepN,pracwords.thisTrialN,pracwords.thisN,pracwords.thisIndex,songtrials.thisRepN,songtrials.thisTrialN,songtrials.thisN,songtrials.thisIndex,words.thisRepN,words.thisTrialN,words.thisN,words.thisIndex,begin.keys,begin.rt,arousalkey.keys,arousalkey.rt,valencekey.keys,valencekey.rt,likekey.keys,likekey.rt,WordResponse.keys,WordResponse.rt,participant,session,date,expName,psychopyVersion,frameRate,
,,,,,,,,,,,,,,,,,,,space,5.835432762018172,,,,,,,,,039,001,2019_May_16_1518,MusicAffectPsychophysiology2019,3.0.5,59.822100317209234,
,,,,,,,,,,,,,,,,,,,,,2,11.718330307019642,,,,,,,039,001,2019_May_16_1518,MusicAffectPsychophysiology2019,3.0.5,59.822100317209234,
,,,,,,,,,,,,,,,,,,,,,,,2,4.6340008710103575,,,,,039,001,2019_May_16_1518,MusicAffectPsychophysiology2019,3.0.5,59.822100317209234,
,,,,,,,,,,,,,,,,,,,,,,,,,3,3.285193794989027,,,039,001,2019_May_16_1518,MusicAffectPsychophysiology2019,3.0.5,59.822100317209234,
To what extent did the music make you feel ,ACTIVE,,,,,,0,0,0,9,,,,,,,,,,,,,,,,,2,5.66754454097827,039,001,2019_May_16_1518,MusicAffectPsychophysiology2019,3.0.5,59.822100317209234,
To what extent did the music make you feel ,ANGRY,,,,,,0,1,1,2,,,,,,,,,,,,,,,,,1,3.8352067850064486,039,001,2019_May_16_1518,MusicAffectPsychophysiology2019,3.0.5,59.822100317209234,
To what extent did the music make you feel ,FRUSTRATED,,,,,,0,2,2,3,,,,,,,,,,,,,,,,,1,2.001493195013609,039,001,2019_May_16_1518,MusicAffectPsychophysiology2019,3.0.5,59.822100317209234,
To what extent did the music make you feel ,HAPPY,,,,,,0,3,3,6,,,,,,,,,,,,,,,,,2,4.402067782008089,039,001,2019_May_16_1518,MusicAffectPsychophysiology2019,3.0.5,59.822100317209234,
To what extent did the music make you feel ,SAD,,,,,,0,4,4,0,,,,,,,,,,,,,,,,,2,5.550968921015738,039,001,2019_May_16_1518,MusicAffectPsychophysiology2019,3.0.5,59.822100317209234,
To what extent did the music make you feel ,TENDER,,,,,,0,5,5,10,,,,,,,,,,,,,,,,,3,2.6852593180083204,039,001,2019_May_16_1518,MusicAffectPsychophysiology2019,3.0.5,59.822100317209234,
To what extent did the music make you feel ,SCARED,,,,,,0,6,6,11,,,,,,,,,,,,,,,,,1,3.901383349992102,039,001,2019_May_16_1518,MusicAffectPsychophysiology2019,3.0.5,59.822100317209234,
To what extent did the music make you feel ,EXCITED,,,,,,0,7,7,7,,,,,,,,,,,,,,,,,1,2.006593341997359,039,001,2019_May_16_1518,MusicAffectPsychophysiology2019,3.0.5,59.822100317209234,
To what extent did the music make you feel ,GUILTY,,,,,,0,8,8,5,,,,,,,,,,,,,,,,,1,0.986324806988705,039,001,2019_May_16_1518,MusicAffectPsychophysiology2019,3.0.5,59.822100317209234,
To what extent did the music make you feel ,ALERT,,,,,,0,9,9,8,,,,,,,,,,,,,,,,,1,2.687541217979742,039,001,2019_May_16_1518,MusicAffectPsychophysiology2019,3.0.5,59.822100317209234,
To what extent did the music make you feel ,ANXIOUS ,,,,,,0,10,10,1,,,,,,,,,,,,,,,,,1,0.9195792270184029,039,001,2019_May_16_1518,MusicAffectPsychophysiology2019,3.0.5,59.822100317209234,
To what extent did the music make you feel ,ASHAMED,,,,,,0,11,11,4,,,,,,,,,,,,,,,,,1,0.7364832520252094,039,001,2019_May_16_1518,MusicAffectPsychophysiology2019,3.0.5,59.822100317209234,
To what extent did the music make you feel ,GUILTY,30MonoWAV/30MonoT2.wav,2,1,4,14,,,,,0,0,0,13,0,0,0,5,,,2,12.691057911986718,2,1.6173497269919608,2,3.267478575988207,1,1.951745207014028,039,001,2019_May_16_1518,MusicAffectPsychophysiology2019,3.0.5,59.822100317209234,
To what extent did the music make you feel ,ALERT,30MonoWAV/30MonoT2.wav,2,1,4,14,,,,,0,0,0,13,0,1,1,8,,,,,,,,,1,1.8183694709732663,039,001,2019_May_16_1518,MusicAffectPsychophysiology2019,3.0.5,59.822100317209234,
To what extent did the music make you feel ,ACTIVE,30MonoWAV/30MonoT2.wav,2,1,4,14,,,,,0,0,0,13,0,2,2,9,,,,,,,,,1,1.1356626960041467,039,001,2019_May_16_1518,MusicAffectPsychophysiology2019,3.0.5,59.822100317209234,
To what extent did the music make you feel ,ANGRY,30MonoWAV/30MonoT2.wav,2,1,4,14,,,,,0,0,0,13,0,3,3,2,,,,,,,,,1,0.7175393590005115,039,001,2019_May_16_1518,MusicAffectPsychophysiology2019,3.0.5,59.822100317209234,
To what extent did the music make you feel ,EXCITED,30MonoWAV/30MonoT2.wav,2,1,4,14,,,,,0,0,0,13,0,4,4,7,,,,,,,,,1,0.9358952210168354,039,001,2019_May_16_1518,MusicAffectPsychophysiology2019,3.0.5,59.822100317209234,
To what extent did the music make you feel ,SAD,30MonoWAV/30MonoT2.wav,2,1,4,14,,,,,0,0,0,13,0,5,5,0,,,,,,,,,1,4.851868068013573,039,001,2019_May_16_1518,MusicAffectPsychophysiology2019,3.0.5,59.822100317209234,
To what extent did the music make you feel ,SCARED,30MonoWAV/30MonoT2.wav,2,1,4,14,,,,,0,0,0,13,0,6,6,11,,,,,,,,,1,1.0511368320148904,039,001,2019_May_16_1518,MusicAffectPsychophysiology2019,3.0.5,59.822100317209234,
To what extent did the music make you feel ,TENDER,30MonoWAV/30MonoT2.wav,2,1,4,14,,,,,0,0,0,13,0,7,7,10,,,,,,,,,2,3.9347606190131046,039,001,2019_May_16_1518,MusicAffectPsychophysiology2019,3.0.5,59.822100317209234,
To what extent did the music make you feel ,HAPPY,30MonoWAV/30MonoT2.wav,2,1,4,14,,,,,0,0,0,13,0,8,8,6,,,,,,,,,1,1.0013363159960136,039,001,2019_May_16_1518,MusicAffectPsychophysiology2019,3.0.5,59.822100317209234,
To what extent did the music make you feel ,FRUSTRATED,30MonoWAV/30MonoT2.wav,2,1,4,14,,,,,0,0,0,13,0,9,9,3,,,,,,,,,1,3.868309320008848,039,001,2019_May_16_1518,MusicAffectPsychophysiology2019,3.0.5,59.822100317209234,
To what extent did the music make you feel ,ASHAMED,30MonoWAV/30MonoT2.wav,2,1,4,14,,,,,0,0,0,13,0,10,10,4,,,,,,,,,1,0.9848330279928632,039,001,2019_May_16_1518,MusicAffectPsychophysiology2019,3.0.5,59.822100317209234,
To what extent did the music make you feel ,ANXIOUS ,30MonoWAV/30MonoT2.wav,2,1,4,14,,,,,0,0,0,13,0,11,11,1,,,,,,,,,1,3.567910539015429,039,001,2019_May_16_1518,MusicAffectPsychophysiology2019,3.0.5,59.822100317209234,
,,30MonoWAV/30MonoT2.wav,2,1,4,14,,,,,0,0,0,13,,,,,,,,,,,,,,,039,001,2019_May_16_1518,MusicAffectPsychophysiology2019,3.0.5,59.822100317209234,
To what extent did the music make you feel ,TENDER,30MonoWAV/30MonoT4.wav,2,1,4,16,,,,,0,1,1,15,0,0,0,10,,,2,5.241677223006263,2,1.9707257809932344,2,2.0376502760045696,2,1.4735131339984946,039,001,2019_May_16_1518,MusicAffectPsychophysiology2019,3.0.5,59.822100317209234,
To what extent did the music make you feel ,SCARED,30MonoWAV/30MonoT4.wav,2,1,4,16,,,,,0,1,1,15,0,1,1,11,,,,,,,,,1,1.8020048909820616,039,001,2019_May_16_1518,MusicAffectPsychophysiology2019,3.0.5,59.822100317209234,
To what extent did the music make you feel ,ANGRY,30MonoWAV/30MonoT4.wav,2,1,4,16,,,,,0,1,1,15,0,2,2,2,,,,,,,,,1,5.8011948369967286,039,001,2019_May_16_1518,MusicAffectPsychophysiology2019,3.0.5,59.822100317209234,
To what extent did the music make you feel ,FRUSTRATED,30MonoWAV/30MonoT4.wav,2,1,4,16,,,,,0,1,1,15,0,3,3,3,,,,,,,,,1,6.06851012801053,039,001,2019_May_16_1518,MusicAffectPsychophysiology2019,3.0.5,59.822100317209234,
To what extent did the music make you feel ,GUILTY,30MonoWAV/30MonoT4.wav,2,1,4,16,,,,,0,1,1,15,0,4,4,5,,,,,,,,,1,0.9185028159990907,039,001,2019_May_16_1518,MusicAffectPsychophysiology2019,3.0.5,59.822100317209234,
To what extent did the music make you feel ,ANXIOUS ,30MonoWAV/30MonoT4.wav,2,1,4,16,,,,,0,1,1,15,0,5,5,1,,,,,,,,,1,0.7517672240210231,039,001,2019_May_16_1518,MusicAffectPsychophysiology2019,3.0.5,59.822100317209234,
To what extent did the music make you feel ,ASHAMED,30MonoWAV/30MonoT4.wav,2,1,4,16,,,,,0,1,1,15,0,6,6,4,,,,,,,,,1,0.5692820789990947,039,001,2019_May_16_1518,MusicAffectPsychophysiology2019,3.0.5,59.822100317209234,
To what extent did the music make you feel ,EXCITED,30MonoWAV/30MonoT4.wav,2,1,4,16,,,,,0,1,1,15,0,7,7,7,,,,,,,,,1,3.7858259250060655,039,001,2019_May_16_1518,MusicAffectPsychophysiology2019,3.0.5,59.822100317209234,
To what extent did the music make you feel ,SAD,30MonoWAV/30MonoT4.wav,2,1,4,16,,,,,0,1,1,15,0,8,8,0,,,,,,,,,1,2.668336344999261,039,001,2019_May_16_1518,MusicAffectPsychophysiology2019,3.0.5,59.822100317209234,
To what extent did the music make you feel ,HAPPY,30MonoWAV/30MonoT4.wav,2,1,4,16,,,,,0,1,1,15,0,9,9,6,,,,,,,,,1,0.7184369800088461,039,001,2019_May_16_1518,MusicAffectPsychophysiology2019,3.0.5,59.822100317209234,
To what extent did the music make you feel ,ACTIVE,30MonoWAV/30MonoT4.wav,2,1,4,16,,,,,0,1,1,15,0,10,10,9,,,,,,,,,1,0.9683634610264562,039,001,2019_May_16_1518,MusicAffectPsychophysiology2019,3.0.5,59.822100317209234,
To what extent did the music make you feel ,ALERT,30MonoWAV/30MonoT4.wav,2,1,4,16,,,,,0,1,1,15,0,11,11,8,,,,,,,,,1,0.502203862008173,039,001,2019_May_16_1518,MusicAffectPsychophysiology2019,3.0.5,59.822100317209234,
,,30MonoWAV/30MonoT4.wav,2,1,4,16,,,,,0,1,1,15,,,,,,,,,,,,,,,039,001,2019_May_16_1518,MusicAffectPsychophysiology2019,3.0.5,59.822100317209234,
To what extent did the music make you feel ,GUILTY,30MonoWAV/30MonoF4.wav,1,2,2,4,,,,,0,2,2,3,0,0,0,5,,,2,5.424044490995584,2,2.2041298959811684,1,3.8054952370002866,1,1.9035413379897363,039,001,2019_May_16_1518,MusicAffectPsychophysiology2019,3.0.5,59.822100317209234,
To what extent did the music make you feel ,FRUSTRATED,30MonoWAV/30MonoF4.wav,1,2,2,4,,,,,0,2,2,3,0,1,1,3,,,,,,,,,1,1.1831077300012112,039,001,2019_May_16_1518,MusicAffectPsychophysiology2019,3.0.5,59.822100317209234,
To what extent did the music make you feel ,ASHAMED,30MonoWAV/30MonoF4.wav,1,2,2,4,,,,,0,2,2,3,0,2,2,4,,,,,,,,,1,0.5687077079783194,039,001,2019_May_16_1518,MusicAffectPsychophysiology2019,3.0.5,59.822100317209234,
To what extent did the music make you feel ,ACTIVE,30MonoWAV/30MonoF4.wav,1,2,2,4,,,,,0,2,2,3,0,3,3,9,,,,,,,,,1,0.9996854059863836,039,001,2019_May_16_1518,MusicAffectPsychophysiology2019,3.0.5,59.822100317209234,
To what extent did the music make you feel ,SCARED,30MonoWAV/30MonoF4.wav,1,2,2,4,,,,,0,2,2,3,0,4,4,11,,,,,,,,,1,0.8349451620015316,039,001,2019_May_16_1518,MusicAffectPsychophysiology2019,3.0.5,59.822100317209234,
To what extent did the music make you feel ,HAPPY,30MonoWAV/30MonoF4.wav,1,2,2,4,,,,,0,2,2,3,0,5,5,6,,,,,,,,,1,0.9505674570100382,039,001,2019_May_16_1518,MusicAffectPsychophysiology2019,3.0.5,59.822100317209234,
To what extent did the music make you feel ,ANXIOUS ,30MonoWAV/30MonoF4.wav,1,2,2,4,,,,,0,2,2,3,0,6,6,1,,,,,,,,,1,2.8512563290132675,039,001,2019_May_16_1518,MusicAffectPsychophysiology2019,3.0.5,59.822100317209234,
To what extent did the music make you feel ,SAD,30MonoWAV/30MonoF4.wav,1,2,2,4,,,,,0,2,2,3,0,7,7,0,,,,,,,,,1,0.5511902490106877,039,001,2019_May_16_1518,MusicAffectPsychophysiology2019,3.0.5,59.822100317209234,
To what extent did the music make you feel ,ANGRY,30MonoWAV/30MonoF4.wav,1,2,2,4,,,,,0,2,2,3,0,8,8,2,,,,,,,,,1,1.4025068919872865,039,001,2019_May_16_1518,MusicAffectPsychophysiology2019,3.0.5,59.822100317209234,
To what extent did the music make you feel ,TENDER,30MonoWAV/30MonoF4.wav,1,2,2,4,,,,,0,2,2,3,0,9,9,10,,,,,,,,,1,0.9191687259881292,039,001,2019_May_16_1518,MusicAffectPsychophysiology2019,3.0.5,59.822100317209234,
To what extent did the music make you feel ,ALERT,30MonoWAV/30MonoF4.wav,1,2,2,4,,,,,0,2,2,3,0,10,10,8,,,,,,,,,1,0.9518219159799628,039,001,2019_May_16_1518,MusicAffectPsychophysiology2019,3.0.5,59.822100317209234,
To what extent did the music make you feel ,EXCITED,30MonoWAV/30MonoF4.wav,1,2,2,4,,,,,0,2,2,3,0,11,11,7,,,,,,,,,1,3.718997991993092,039,001,2019_May_16_1518,MusicAffectPsychophysiology2019,3.0.5,59.822100317209234,
,,30MonoWAV/30MonoF4.wav,1,2,2,4,,,,,0,2,2,3,,,,,,,,,,,,,,,039,001,2019_May_16_1518,MusicAffectPsychophysiology2019,3.0.5,59.822100317209234,
To what extent did the music make you feel ,ALERT,30MonoWAV/30MonoF1.wav,1,2,2,1,,,,,0,3,3,0,0,0,0,8,,,3,13.583002780011157,2,5.07435314898612,2,2.5084928649885114,3,2.2175722279935144,039,001,2019_May_16_1518,MusicAffectPsychophysiology2019,3.0.5,59.822100317209234,
To what extent did the music make you feel ,SCARED,30MonoWAV/30MonoF1.wav,1,2,2,1,,,,,0,3,3,0,0,1,1,11,,,,,,,,,1,0.7862623849941883,039,001,2019_May_16_1518,MusicAffectPsychophysiology2019,3.0.5,59.822100317209234,
To what extent did the music make you feel ,ASHAMED,30MonoWAV/30MonoF1.wav,1,2,2,1,,,,,0,3,3,0,0,2,2,4,,,,,,,,,1,0.5844931659812573,039,001,2019_May_16_1518,MusicAffectPsychophysiology2019,3.0.5,59.822100317209234,
To what extent did the music make you feel ,SAD,30MonoWAV/30MonoF1.wav,1,2,2,1,,,,,0,3,3,0,0,3,3,0,,,,,,,,,1,0.5347822830080986,039,001,2019_May_16_1518,MusicAffectPsychophysiology2019,3.0.5,59.822100317209234,
To what extent did the music make you feel ,HAPPY,30MonoWAV/30MonoF1.wav,1,2,2,1,,,,,0,3,3,0,0,4,4,6,,,,,,,,,1,0.5017033930053003,039,001,2019_May_16_1518,MusicAffectPsychophysiology2019,3.0.5,59.822100317209234,
To what extent did the music make you feel ,FRUSTRATED,30MonoWAV/30MonoF1.wav,1,2,2,1,,,,,0,3,3,0,0,5,5,3,,,,,,,,,1,0.5020853920141235,039,001,2019_May_16_1518,MusicAffectPsychophysiology2019,3.0.5,59.822100317209234,
To what extent did the music make you feel ,EXCITED,30MonoWAV/30MonoF1.wav,1,2,2,1,,,,,0,3,3,0,0,6,6,7,,,,,,,,,1,0.5009011910005938,039,001,2019_May_16_1518,MusicAffectPsychophysiology2019,3.0.5,59.822100317209234,
To what extent did the music make you feel ,TENDER,30MonoWAV/30MonoF1.wav,1,2,2,1,,,,,0,3,3,0,0,7,7,10,,,,,,,,,1,0.5517134350084234,039,001,2019_May_16_1518,MusicAffectPsychophysiology2019,3.0.5,59.822100317209234,
To what extent did the music make you feel ,ANGRY,30MonoWAV/30MonoF1.wav,1,2,2,1,,,,,0,3,3,0,0,8,8,2,,,,,,,,,1,1.0854455600201618,039,001,2019_May_16_1518,MusicAffectPsychophysiology2019,3.0.5,59.822100317209234,
To what extent did the music make you feel ,GUILTY,30MonoWAV/30MonoF1.wav,1,2,2,1,,,,,0,3,3,0,0,9,9,5,,,,,,,,,1,0.5519072969909757,039,001,2019_May_16_1518,MusicAffectPsychophysiology2019,3.0.5,59.822100317209234,
To what extent did the music make you feel ,ANXIOUS ,30MonoWAV/30MonoF1.wav,1,2,2,1,,,,,0,3,3,0,0,10,10,1,,,,,,,,,1,0.8019756930007134,039,001,2019_May_16_1518,MusicAffectPsychophysiology2019,3.0.5,59.822100317209234,
To what extent did the music make you feel ,ACTIVE,30MonoWAV/30MonoF1.wav,1,2,2,1,,,,,0,3,3,0,0,11,11,9,,,,,,,,,2,1.9183874239970464,039,001,2019_May_16_1518,MusicAffectPsychophysiology2019,3.0.5,59.822100317209234,
,,30MonoWAV/30MonoF1.wav,1,2,2,1,,,,,0,3,3,0,,,,,,,,,,,,,,,039,001,2019_May_16_1518,MusicAffectPsychophysiology2019,3.0.5,59.822100317209234,
To what extent did the music make you feel ,ASHAMED,30MonoWAV/30MonoH3.wav,2,2,1,7,,,,,0,4,4,6,0,0,0,4,,,2,3.3516215840063524,2,1.5018913969979621,2,1.7019533239945304,1,2.7287883149983827,039,001,2019_May_16_1518,MusicAffectPsychophysiology2019,3.0.5,59.822100317209234,
To what extent did the music make you feel ,ALERT,30MonoWAV/30MonoH3.wav,2,2,1,7,,,,,0,4,4,6,0,1,1,8,,,,,,,,,1,1.368560544011416,039,001,2019_May_16_1518,MusicAffectPsychophysiology2019,3.0.5,59.822100317209234,
To what extent did the music make you feel ,EXCITED,30MonoWAV/30MonoH3.wav,2,2,1,7,,,,,0,4,4,6,0,2,2,7,,,,,,,,,1,1.0346661130024586,039,001,2019_May_16_1518,MusicAffectPsychophysiology2019,3.0.5,59.822100317209234,
To what extent did the music make you feel ,SAD,30MonoWAV/30MonoH3.wav,2,2,1,7,,,,,0,4,4,6,0,3,3,0,,,,,,,,,1,0.5690746899927035,039,001,2019_May_16_1518,MusicAffectPsychophysiology2019,3.0.5,59.822100317209234,
To what extent did the music make you feel ,ACTIVE,30MonoWAV/30MonoH3.wav,2,2,1,7,,,,,0,4,4,6,0,4,4,9,,,,,,,,,2,1.9174958539952058,039,001,2019_May_16_1518,MusicAffectPsychophysiology2019,3.0.5,59.822100317209234,
To what extent did the music make you feel ,FRUSTRATED,30MonoWAV/30MonoH3.wav,2,2,1,7,,,,,0,4,4,6,0,5,5,3,,,,,,,,,1,0.8033871130028274,039,001,2019_May_16_1518,MusicAffectPsychophysiology2019,3.0.5,59.822100317209234,
To what extent did the music make you feel ,GUILTY,30MonoWAV/30MonoH3.wav,2,2,1,7,,,,,0,4,4,6,0,6,6,5,,,,,,,,,1,0.8679127010109369,039,001,2019_May_16_1518,MusicAffectPsychophysiology2019,3.0.5,59.822100317209234,
To what extent did the music make you feel ,TENDER,30MonoWAV/30MonoH3.wav,2,2,1,7,,,,,0,4,4,6,0,7,7,10,,,,,,,,,1,0.6353184669860639,039,001,2019_May_16_1518,MusicAffectPsychophysiology2019,3.0.5,59.822100317209234,
To what extent did the music make you feel ,ANGRY,30MonoWAV/30MonoH3.wav,2,2,1,7,,,,,0,4,4,6,0,8,8,2,,,,,,,,,1,0.4669693289906718,039,001,2019_May_16_1518,MusicAffectPsychophysiology2019,3.0.5,59.822100317209234,
To what extent did the music make you feel ,SCARED,30MonoWAV/30MonoH3.wav,2,2,1,7,,,,,0,4,4,6,0,9,9,11,,,,,,,,,1,0.5337784019939136,039,001,2019_May_16_1518,MusicAffectPsychophysiology2019,3.0.5,59.822100317209234,
To what extent did the music make you feel ,HAPPY,30MonoWAV/30MonoH3.wav,2,2,1,7,,,,,0,4,4,6,0,10,10,6,,,,,,,,,1,1.0355908190249465,039,001,2019_May_16_1518,MusicAffectPsychophysiology2019,3.0.5,59.822100317209234,
To what extent did the music make you feel ,ANXIOUS ,30MonoWAV/30MonoH3.wav,2,2,1,7,,,,,0,4,4,6,0,11,11,1,,,,,,,,,1,0.535892979009077,039,001,2019_May_16_1518,MusicAffectPsychophysiology2019,3.0.5,59.822100317209234,
,,30MonoWAV/30MonoH3.wav,2,2,1,7,,,,,0,4,4,6,,,,,,,,,,,,,,,039,001,2019_May_16_1518,MusicAffectPsychophysiology2019,3.0.5,59.822100317209234,
To what extent did the music make you feel ,ASHAMED,30MonoWAV/30MonoS1.wav,1,1,3,9,,,,,0,5,5,8,0,0,0,4,,,2,4.501716391008813,3,4.052232076006476,4,5.317260793002788,1,4.96674358000746,039,001,2019_May_16_1518,MusicAffectPsychophysiology2019,3.0.5,59.822100317209234,
To what extent did the music make you feel ,ACTIVE,30MonoWAV/30MonoS1.wav,1,1,3,9,,,,,0,5,5,8,0,1,1,9,,,,,,,,,1,0.8013606769964099,039,001,2019_May_16_1518,MusicAffectPsychophysiology2019,3.0.5,59.822100317209234,
To what extent did the music make you feel ,ANGRY,30MonoWAV/30MonoS1.wav,1,1,3,9,,,,,0,5,5,8,0,2,2,2,,,,,,,,,1,0.7184998819720931,039,001,2019_May_16_1518,MusicAffectPsychophysiology2019,3.0.5,59.822100317209234,
To what extent did the music make you feel ,SAD,30MonoWAV/30MonoS1.wav,1,1,3,9,,,,,0,5,5,8,0,3,3,0,,,,,,,,,3,2.734977798012551,039,001,2019_May_16_1518,MusicAffectPsychophysiology2019,3.0.5,59.822100317209234,
To what extent did the music make you feel ,FRUSTRATED,30MonoWAV/30MonoS1.wav,1,1,3,9,,,,,0,5,5,8,0,4,4,3,,,,,,,,,1,3.2004437439900357,039,001,2019_May_16_1518,MusicAffectPsychophysiology2019,3.0.5,59.822100317209234,
To what extent did the music make you feel ,TENDER,30MonoWAV/30MonoS1.wav,1,1,3,9,,,,,0,5,5,8,0,5,5,10,,,,,,,,,3,1.8022811730043031,039,001,2019_May_16_1518,MusicAffectPsychophysiology2019,3.0.5,59.822100317209234,
To what extent did the music make you feel ,EXCITED,30MonoWAV/30MonoS1.wav,1,1,3,9,,,,,0,5,5,8,0,6,6,7,,,,,,,,,1,1.517381209996529,039,001,2019_May_16_1518,MusicAffectPsychophysiology2019,3.0.5,59.822100317209234,
To what extent did the music make you feel ,ALERT,30MonoWAV/30MonoS1.wav,1,1,3,9,,,,,0,5,5,8,0,7,7,8,,,,,,,,,1,1.2005005560058635,039,001,2019_May_16_1518,MusicAffectPsychophysiology2019,3.0.5,59.822100317209234,
To what extent did the music make you feel ,SCARED,30MonoWAV/30MonoS1.wav,1,1,3,9,,,,,0,5,5,8,0,8,8,11,,,,,,,,,1,0.668797138001537,039,001,2019_May_16_1518,MusicAffectPsychophysiology2019,3.0.5,59.822100317209234,
To what extent did the music make you feel ,HAPPY,30MonoWAV/30MonoS1.wav,1,1,3,9,,,,,0,5,5,8,0,9,9,6,,,,,,,,,2,1.9361262450111099,039,001,2019_May_16_1518,MusicAffectPsychophysiology2019,3.0.5,59.822100317209234,
To what extent did the music make you feel ,GUILTY,30MonoWAV/30MonoS1.wav,1,1,3,9,,,,,0,5,5,8,0,10,10,5,,,,,,,,,1,1.0335312050010543,039,001,2019_May_16_1518,MusicAffectPsychophysiology2019,3.0.5,59.822100317209234,
To what extent did the music make you feel ,ANXIOUS ,30MonoWAV/30MonoS1.wav,1,1,3,9,,,,,0,5,5,8,0,11,11,1,,,,,,,,,1,0.7017620039987378,039,001,2019_May_16_1518,MusicAffectPsychophysiology2019,3.0.5,59.822100317209234,
,,30MonoWAV/30MonoS1.wav,1,1,3,9,,,,,0,5,5,8,,,,,,,,,,,,,,,039,001,2019_May_16_1518,MusicAffectPsychophysiology2019,3.0.5,59.822100317209234,
To what extent did the music make you feel ,ANGRY,30MonoWAV/30MonoS3.wav,1,1,3,11,,,,,0,6,6,10,0,0,0,2,,,1,4.294677505997242,1,2.6853422290005255,2,2.201690714020515,1,2.569332459999714,039,001,2019_May_16_1518,MusicAffectPsychophysiology2019,3.0.5,59.822100317209234,
To what extent did the music make you feel ,TENDER,30MonoWAV/30MonoS3.wav,1,1,3,11,,,,,0,6,6,10,0,1,1,10,,,,,,,,,2,1.685661222989438,039,001,2019_May_16_1518,MusicAffectPsychophysiology2019,3.0.5,59.822100317209234,
To what extent did the music make you feel ,HAPPY,30MonoWAV/30MonoS3.wav,1,1,3,11,,,,,0,6,6,10,0,2,2,6,,,,,,,,,1,1.0678945690160617,039,001,2019_May_16_1518,MusicAffectPsychophysiology2019,3.0.5,59.822100317209234,
To what extent did the music make you feel ,SAD,30MonoWAV/30MonoS3.wav,1,1,3,11,,,,,0,6,6,10,0,3,3,0,,,,,,,,,1,1.3693881619838066,039,001,2019_May_16_1518,MusicAffectPsychophysiology2019,3.0.5,59.822100317209234,
To what extent did the music make you feel ,SCARED,30MonoWAV/30MonoS3.wav,1,1,3,11,,,,,0,6,6,10,0,4,4,11,,,,,,,,,1,0.518323271011468,039,001,2019_May_16_1518,MusicAffectPsychophysiology2019,3.0.5,59.822100317209234,
To what extent did the music make you feel ,EXCITED,30MonoWAV/30MonoS3.wav,1,1,3,11,,,,,0,6,6,10,0,5,5,7,,,,,,,,,1,0.4512001439870801,039,001,2019_May_16_1518,MusicAffectPsychophysiology2019,3.0.5,59.822100317209234,
To what extent did the music make you feel ,ALERT,30MonoWAV/30MonoS3.wav,1,1,3,11,,,,,0,6,6,10,0,6,6,8,,,,,,,,,1,0.9851527609862387,039,001,2019_May_16_1518,MusicAffectPsychophysiology2019,3.0.5,59.822100317209234,
To what extent did the music make you feel ,ASHAMED,30MonoWAV/30MonoS3.wav,1,1,3,11,,,,,0,6,6,10,0,7,7,4,,,,,,,,,1,0.48431227399851196,039,001,2019_May_16_1518,MusicAffectPsychophysiology2019,3.0.5,59.822100317209234,
To what extent did the music make you feel ,ACTIVE,30MonoWAV/30MonoS3.wav,1,1,3,11,,,,,0,6,6,10,0,8,8,9,,,,,,,,,1,0.7521020690037403,039,001,2019_May_16_1518,MusicAffectPsychophysiology2019,3.0.5,59.822100317209234,
To what extent did the music make you feel ,FRUSTRATED,30MonoWAV/30MonoS3.wav,1,1,3,11,,,,,0,6,6,10,0,9,9,3,,,,,,,,,1,0.4687360789976083,039,001,2019_May_16_1518,MusicAffectPsychophysiology2019,3.0.5,59.822100317209234,
To what extent did the music make you feel ,GUILTY,30MonoWAV/30MonoS3.wav,1,1,3,11,,,,,0,6,6,10,0,10,10,5,,,,,,,,,1,0.41931762400781736,039,001,2019_May_16_1518,MusicAffectPsychophysiology2019,3.0.5,59.822100317209234,
To what extent did the music make you feel ,ANXIOUS ,30MonoWAV/30MonoS3.wav,1,1,3,11,,,,,0,6,6,10,0,11,11,1,,,,,,,,,1,0.4697413750109263,039,001,2019_May_16_1518,MusicAffectPsychophysiology2019,3.0.5,59.822100317209234,
,,30MonoWAV/30MonoS3.wav,1,1,3,11,,,,,0,6,6,10,,,,,,,,,,,,,,,039,001,2019_May_16_1518,MusicAffectPsychophysiology2019,3.0.5,59.822100317209234,
To what extent did the music make you feel ,ALERT,30MonoWAV/30MonoT3.wav,2,1,4,15,,,,,0,7,7,14,0,0,0,8,,,1,4.483152033993974,1,2.1494553240190726,2,2.534139088995289,1,2.2023731999797747,039,001,2019_May_16_1518,MusicAffectPsychophysiology2019,3.0.5,59.822100317209234,
To what extent did the music make you feel ,SCARED,30MonoWAV/30MonoT3.wav,2,1,4,15,,,,,0,7,7,14,0,1,1,11,,,,,,,,,1,0.051725603989325464,039,001,2019_May_16_1518,MusicAffectPsychophysiology2019,3.0.5,59.822100317209234,
To what extent did the music make you feel ,GUILTY,30MonoWAV/30MonoT3.wav,2,1,4,15,,,,,0,7,7,14,0,2,2,5,,,,,,,,,1,1.3187685490120202,039,001,2019_May_16_1518,MusicAffectPsychophysiology2019,3.0.5,59.822100317209234,
To what extent did the music make you feel ,ANGRY,30MonoWAV/30MonoT3.wav,2,1,4,15,,,,,0,7,7,14,0,3,3,2,,,,,,,,,1,0.7004854400001932,039,001,2019_May_16_1518,MusicAffectPsychophysiology2019,3.0.5,59.822100317209234,
To what extent did the music make you feel ,TENDER,30MonoWAV/30MonoT3.wav,2,1,4,15,,,,,0,7,7,14,0,4,4,10,,,,,,,,,2,1.5169763459998649,039,001,2019_May_16_1518,MusicAffectPsychophysiology2019,3.0.5,59.822100317209234,
To what extent did the music make you feel ,HAPPY,30MonoWAV/30MonoT3.wav,2,1,4,15,,,,,0,7,7,14,0,5,5,6,,,,,,,,,1,1.2862407299980987,039,001,2019_May_16_1518,MusicAffectPsychophysiology2019,3.0.5,59.822100317209234,
To what extent did the music make you feel ,EXCITED,30MonoWAV/30MonoT3.wav,2,1,4,15,,,,,0,7,7,14,0,6,6,7,,,,,,,,,1,0.7356878739956301,039,001,2019_May_16_1518,MusicAffectPsychophysiology2019,3.0.5,59.822100317209234,
To what extent did the music make you feel ,ACTIVE,30MonoWAV/30MonoT3.wav,2,1,4,15,,,,,0,7,7,14,0,7,7,9,,,,,,,,,1,0.6018428079842124,039,001,2019_May_16_1518,MusicAffectPsychophysiology2019,3.0.5,59.822100317209234,
To what extent did the music make you feel ,ASHAMED,30MonoWAV/30MonoT3.wav,2,1,4,15,,,,,0,7,7,14,0,8,8,4,,,,,,,,,1,0.5682622199819889,039,001,2019_May_16_1518,MusicAffectPsychophysiology2019,3.0.5,59.822100317209234,
To what extent did the music make you feel ,FRUSTRATED,30MonoWAV/30MonoT3.wav,2,1,4,15,,,,,0,7,7,14,0,9,9,3,,,,,,,,,1,0.6514736439858098,039,001,2019_May_16_1518,MusicAffectPsychophysiology2019,3.0.5,59.822100317209234,
To what extent did the music make you feel ,ANXIOUS ,30MonoWAV/30MonoT3.wav,2,1,4,15,,,,,0,7,7,14,0,10,10,1,,,,,,,,,1,0.7681075160217006,039,001,2019_May_16_1518,MusicAffectPsychophysiology2019,3.0.5,59.822100317209234,
To what extent did the music make you feel ,SAD,30MonoWAV/30MonoT3.wav,2,1,4,15,,,,,0,7,7,14,0,11,11,0,,,,,,,,,1,1.4695324419881217,039,001,2019_May_16_1518,MusicAffectPsychophysiology2019,3.0.5,59.822100317209234,
,,30MonoWAV/30MonoT3.wav,2,1,4,15,,,,,0,7,7,14,,,,,,,,,,,,,,,039,001,2019_May_16_1518,MusicAffectPsychophysiology2019,3.0.5,59.822100317209234,
To what extent did the music make you feel ,FRUSTRATED,30MonoWAV/30MonoF3.wav,1,2,2,3,,,,,0,8,8,2,0,0,0,3,,,1,4.159258486004546,1,2.8890767250268254,2,3.5907668359868694,1,4.503668716002721,039,001,2019_May_16_1518,MusicAffectPsychophysiology2019,3.0.5,59.822100317209234,
To what extent did the music make you feel ,ALERT,30MonoWAV/30MonoF3.wav,1,2,2,3,,,,,0,8,8,2,0,1,1,8,,,,,,,,,2,2.051620379992528,039,001,2019_May_16_1518,MusicAffectPsychophysiology2019,3.0.5,59.822100317209234,
To what extent did the music make you feel ,GUILTY,30MonoWAV/30MonoF3.wav,1,2,2,3,,,,,0,8,8,2,0,2,2,5,,,,,,,,,1,0.7679639830021188,039,001,2019_May_16_1518,MusicAffectPsychophysiology2019,3.0.5,59.822100317209234,
To what extent did the music make you feel ,ANGRY,30MonoWAV/30MonoF3.wav,1,2,2,3,,,,,0,8,8,2,0,3,3,2,,,,,,,,,1,1.0863390509912279,039,001,2019_May_16_1518,MusicAffectPsychophysiology2019,3.0.5,59.822100317209234,
To what extent did the music make you feel ,TENDER,30MonoWAV/30MonoF3.wav,1,2,2,3,,,,,0,8,8,2,0,4,4,10,,,,,,,,,1,0.9025145109917503,039,001,2019_May_16_1518,MusicAffectPsychophysiology2019,3.0.5,59.822100317209234,
To what extent did the music make you feel ,SAD,30MonoWAV/30MonoF3.wav,1,2,2,3,,,,,0,8,8,2,0,5,5,0,,,,,,,,,1,1.3684706019994337,039,001,2019_May_16_1518,MusicAffectPsychophysiology2019,3.0.5,59.822100317209234,
To what extent did the music make you feel ,HAPPY,30MonoWAV/30MonoF3.wav,1,2,2,3,,,,,0,8,8,2,0,6,6,6,,,,,,,,,1,0.8510857700021006,039,001,2019_May_16_1518,MusicAffectPsychophysiology2019,3.0.5,59.822100317209234,
To what extent did the music make you feel ,ANXIOUS ,30MonoWAV/30MonoF3.wav,1,2,2,3,,,,,0,8,8,2,0,7,7,1,,,,,,,,,1,0.5355892380175646,039,001,2019_May_16_1518,MusicAffectPsychophysiology2019,3.0.5,59.822100317209234,
To what extent did the music make you feel ,ASHAMED,30MonoWAV/30MonoF3.wav,1,2,2,3,,,,,0,8,8,2,0,8,8,4,,,,,,,,,1,1.552272800996434,039,001,2019_May_16_1518,MusicAffectPsychophysiology2019,3.0.5,59.822100317209234,
To what extent did the music make you feel ,SCARED,30MonoWAV/30MonoF3.wav,1,2,2,3,,,,,0,8,8,2,0,9,9,11,,,,,,,,,1,0.4856950420071371,039,001,2019_May_16_1518,MusicAffectPsychophysiology2019,3.0.5,59.822100317209234,
To what extent did the music make you feel ,ACTIVE,30MonoWAV/30MonoF3.wav,1,2,2,3,,,,,0,8,8,2,0,10,10,9,,,,,,,,,1,0.6689249679911882,039,001,2019_May_16_1518,MusicAffectPsychophysiology2019,3.0.5,59.822100317209234,
To what extent did the music make you feel ,EXCITED,30MonoWAV/30MonoF3.wav,1,2,2,3,,,,,0,8,8,2,0,11,11,7,,,,,,,,,1,1.0179299210140016,039,001,2019_May_16_1518,MusicAffectPsychophysiology2019,3.0.5,59.822100317209234,
,,30MonoWAV/30MonoF3.wav,1,2,2,3,,,,,0,8,8,2,,,,,,,,,,,,,,,039,001,2019_May_16_1518,MusicAffectPsychophysiology2019,3.0.5,59.822100317209234,
To what extent did the music make you feel ,SCARED,30MonoWAV/30MonoT1.wav,2,1,4,13,,,,,0,9,9,12,0,0,0,11,,,1,3.939725486008683,1,2.7740670290077105,2,2.0349228550039697,1,1.2354023539810441,039,001,2019_May_16_1518,MusicAffectPsychophysiology2019,3.0.5,59.822100317209234,
To what extent did the music make you feel ,HAPPY,30MonoWAV/30MonoT1.wav,2,1,4,13,,,,,0,9,9,12,0,1,1,6,,,,,,,,,1,1.1344810579903424,039,001,2019_May_16_1518,MusicAffectPsychophysiology2019,3.0.5,59.822100317209234,
To what extent did the music make you feel ,GUILTY,30MonoWAV/30MonoT1.wav,2,1,4,13,,,,,0,9,9,12,0,2,2,5,,,,,,,,,1,0.8396964879939333,039,001,2019_May_16_1518,MusicAffectPsychophysiology2019,3.0.5,59.822100317209234,
To what extent did the music make you feel ,ASHAMED,30MonoWAV/30MonoT1.wav,2,1,4,13,,,,,0,9,9,12,0,3,3,4,,,,,,,,,1,0.7707045639981516,039,001,2019_May_16_1518,MusicAffectPsychophysiology2019,3.0.5,59.822100317209234,
To what extent did the music make you feel ,ACTIVE,30MonoWAV/30MonoT1.wav,2,1,4,13,,,,,0,9,9,12,0,4,4,9,,,,,,,,,1,0.7864159079908859,039,001,2019_May_16_1518,MusicAffectPsychophysiology2019,3.0.5,59.822100317209234,
To what extent did the music make you feel ,SAD,30MonoWAV/30MonoT1.wav,2,1,4,13,,,,,0,9,9,12,0,5,5,0,,,,,,,,,2,1.418917536007939,039,001,2019_May_16_1518,MusicAffectPsychophysiology2019,3.0.5,59.822100317209234,
To what extent did the music make you feel ,ALERT,30MonoWAV/30MonoT1.wav,2,1,4,13,,,,,0,9,9,12,0,6,6,8,,,,,,,,,1,1.386726273020031,039,001,2019_May_16_1518,MusicAffectPsychophysiology2019,3.0.5,59.822100317209234,
To what extent did the music make you feel ,ANGRY,30MonoWAV/30MonoT1.wav,2,1,4,13,,,,,0,9,9,12,0,7,7,2,,,,,,,,,1,0.5694361250207294,039,001,2019_May_16_1518,MusicAffectPsychophysiology2019,3.0.5,59.822100317209234,
To what extent did the music make you feel ,FRUSTRATED,30MonoWAV/30MonoT1.wav,2,1,4,13,,,,,0,9,9,12,0,8,8,3,,,,,,,,,1,0.8531627069751266,039,001,2019_May_16_1518,MusicAffectPsychophysiology2019,3.0.5,59.822100317209234,
To what extent did the music make you feel ,TENDER,30MonoWAV/30MonoT1.wav,2,1,4,13,,,,,0,9,9,12,0,9,9,10,,,,,,,,,2,1.6400728679727763,039,001,2019_May_16_1518,MusicAffectPsychophysiology2019,3.0.5,59.822100317209234,
To what extent did the music make you feel ,ANXIOUS ,30MonoWAV/30MonoT1.wav,2,1,4,13,,,,,0,9,9,12,0,10,10,1,,,,,,,,,1,0.8669648429786321,039,001,2019_May_16_1518,MusicAffectPsychophysiology2019,3.0.5,59.822100317209234,
To what extent did the music make you feel ,EXCITED,30MonoWAV/30MonoT1.wav,2,1,4,13,,,,,0,9,9,12,0,11,11,7,,,,,,,,,1,1.3689949929830618,039,001,2019_May_16_1518,MusicAffectPsychophysiology2019,3.0.5,59.822100317209234,
,,30MonoWAV/30MonoT1.wav,2,1,4,13,,,,,0,9,9,12,,,,,,,,,,,,,,,039,001,2019_May_16_1518,MusicAffectPsychophysiology2019,3.0.5,59.822100317209234,
To what extent did the music make you feel ,HAPPY,30MonoWAV/30MonoH2.wav,2,2,1,6,,,,,0,10,10,5,0,0,0,6,,,2,3.8683662620023824,1,1.4184160790173337,2,2.252489709004294,1,2.3340189710143022,039,001,2019_May_16_1518,MusicAffectPsychophysiology2019,3.0.5,59.822100317209234,
To what extent did the music make you feel ,TENDER,30MonoWAV/30MonoH2.wav,2,2,1,6,,,,,0,10,10,5,0,1,1,10,,,,,,,,,1,0.818529990996467,039,001,2019_May_16_1518,MusicAffectPsychophysiology2019,3.0.5,59.822100317209234,
To what extent did the music make you feel ,SCARED,30MonoWAV/30MonoH2.wav,2,2,1,6,,,,,0,10,10,5,0,2,2,11,,,,,,,,,1,0.6856372600013856,039,001,2019_May_16_1518,MusicAffectPsychophysiology2019,3.0.5,59.822100317209234,
To what extent did the music make you feel ,SAD,30MonoWAV/30MonoH2.wav,2,2,1,6,,,,,0,10,10,5,0,3,3,0,,,,,,,,,1,1.0686507239879575,039,001,2019_May_16_1518,MusicAffectPsychophysiology2019,3.0.5,59.822100317209234,
To what extent did the music make you feel ,EXCITED,30MonoWAV/30MonoH2.wav,2,2,1,6,,,,,0,10,10,5,0,4,4,7,,,,,,,,,1,0.9229006090026814,039,001,2019_May_16_1518,MusicAffectPsychophysiology2019,3.0.5,59.822100317209234,
To what extent did the music make you feel ,ANXIOUS ,30MonoWAV/30MonoH2.wav,2,2,1,6,,,,,0,10,10,5,0,5,5,1,,,,,,,,,1,0.5693528339907061,039,001,2019_May_16_1518,MusicAffectPsychophysiology2019,3.0.5,59.822100317209234,
To what extent did the music make you feel ,ACTIVE,30MonoWAV/30MonoH2.wav,2,2,1,6,,,,,0,10,10,5,0,6,6,9,,,,,,,,,1,0.6019636850105599,039,001,2019_May_16_1518,MusicAffectPsychophysiology2019,3.0.5,59.822100317209234,
To what extent did the music make you feel ,GUILTY,30MonoWAV/30MonoH2.wav,2,2,1,6,,,,,0,10,10,5,0,7,7,5,,,,,,,,,1,0.819372341997223,039,001,2019_May_16_1518,MusicAffectPsychophysiology2019,3.0.5,59.822100317209234,
To what extent did the music make you feel ,ALERT,30MonoWAV/30MonoH2.wav,2,2,1,6,,,,,0,10,10,5,0,8,8,8,,,,,,,,,2,1.1198332170024514,039,001,2019_May_16_1518,MusicAffectPsychophysiology2019,3.0.5,59.822100317209234,
To what extent did the music make you feel ,ASHAMED,30MonoWAV/30MonoH2.wav,2,2,1,6,,,,,0,10,10,5,0,9,9,4,,,,,,,,,1,0.6520345369935967,039,001,2019_May_16_1518,MusicAffectPsychophysiology2019,3.0.5,59.822100317209234,
To what extent did the music make you feel ,FRUSTRATED,30MonoWAV/30MonoH2.wav,2,2,1,6,,,,,0,10,10,5,0,10,10,3,,,,,,,,,1,1.1027363289904315,039,001,2019_May_16_1518,MusicAffectPsychophysiology2019,3.0.5,59.822100317209234,
To what extent did the music make you feel ,ANGRY,30MonoWAV/30MonoH2.wav,2,2,1,6,,,,,0,10,10,5,0,11,11,2,,,,,,,,,1,0.8691820350068156,039,001,2019_May_16_1518,MusicAffectPsychophysiology2019,3.0.5,59.822100317209234,
,,30MonoWAV/30MonoH2.wav,2,2,1,6,,,,,0,10,10,5,,,,,,,,,,,,,,,039,001,2019_May_16_1518,MusicAffectPsychophysiology2019,3.0.5,59.822100317209234,
To what extent did the music make you feel ,TENDER,30MonoWAV/30MonoH1.wav,2,2,1,5,,,,,0,11,11,4,0,0,0,10,,,1,30.332042750000255,1,1.8688528559869155,2,3.018121703003999,1,1.4853678850049619,039,001,2019_May_16_1518,MusicAffectPsychophysiology2019,3.0.5,59.822100317209234,
To what extent did the music make you feel ,SAD,30MonoWAV/30MonoH1.wav,2,2,1,5,,,,,0,11,11,4,0,1,1,0,,,,,,,,,1,0.45018028499907814,039,001,2019_May_16_1518,MusicAffectPsychophysiology2019,3.0.5,59.822100317209234,
To what extent did the music make you feel ,ALERT,30MonoWAV/30MonoH1.wav,2,2,1,5,,,,,0,11,11,4,0,2,2,8,,,,,,,,,1,0.3691150599916,039,001,2019_May_16_1518,MusicAffectPsychophysiology2019,3.0.5,59.822100317209234,
To what extent did the music make you feel ,ANXIOUS ,30MonoWAV/30MonoH1.wav,2,2,1,5,,,,,0,11,11,4,0,3,3,1,,,,,,,,,1,0.3683064749930054,039,001,2019_May_16_1518,MusicAffectPsychophysiology2019,3.0.5,59.822100317209234,
To what extent did the music make you feel ,EXCITED,30MonoWAV/30MonoH1.wav,2,2,1,5,,,,,0,11,11,4,0,4,4,7,,,,,,,,,1,0.435614870977588,039,001,2019_May_16_1518,MusicAffectPsychophysiology2019,3.0.5,59.822100317209234,
To what extent did the music make you feel ,GUILTY,30MonoWAV/30MonoH1.wav,2,2,1,5,,,,,0,11,11,4,0,5,5,5,,,,,,,,,1,0.5182868650008459,039,001,2019_May_16_1518,MusicAffectPsychophysiology2019,3.0.5,59.822100317209234,
To what extent did the music make you feel ,FRUSTRATED,30MonoWAV/30MonoH1.wav,2,2,1,5,,,,,0,11,11,4,0,6,6,3,,,,,,,,,1,0.4692505119892303,039,001,2019_May_16_1518,MusicAffectPsychophysiology2019,3.0.5,59.822100317209234,
To what extent did the music make you feel ,ASHAMED,30MonoWAV/30MonoH1.wav,2,2,1,5,,,,,0,11,11,4,0,7,7,4,,,,,,,,,1,0.3840434259909671,039,001,2019_May_16_1518,MusicAffectPsychophysiology2019,3.0.5,59.822100317209234,
To what extent did the music make you feel ,HAPPY,30MonoWAV/30MonoH1.wav,2,2,1,5,,,,,0,11,11,4,0,8,8,6,,,,,,,,,1,0.31789440600550734,039,001,2019_May_16_1518,MusicAffectPsychophysiology2019,3.0.5,59.822100317209234,
To what extent did the music make you feel ,SCARED,30MonoWAV/30MonoH1.wav,2,2,1,5,,,,,0,11,11,4,0,9,9,11,,,,,,,,,1,0.5181741149863228,039,001,2019_May_16_1518,MusicAffectPsychophysiology2019,3.0.5,59.822100317209234,
To what extent did the music make you feel ,ANGRY,30MonoWAV/30MonoH1.wav,2,2,1,5,,,,,0,11,11,4,0,10,10,2,,,,,,,,,1,0.6028293310082518,039,001,2019_May_16_1518,MusicAffectPsychophysiology2019,3.0.5,59.822100317209234,
To what extent did the music make you feel ,ACTIVE,30MonoWAV/30MonoH1.wav,2,2,1,5,,,,,0,11,11,4,0,11,11,9,,,,,,,,,1,0.6348868480126839,039,001,2019_May_16_1518,MusicAffectPsychophysiology2019,3.0.5,59.822100317209234,
,,30MonoWAV/30MonoH1.wav,2,2,1,5,,,,,0,11,11,4,,,,,,,,,,,,,,,039,001,2019_May_16_1518,MusicAffectPsychophysiology2019,3.0.5,59.822100317209234,
To what extent did the music make you feel ,TENDER,30MonoWAV/30MonoH4.wav,2,2,1,8,,,,,0,12,12,7,0,0,0,10,,,1,6.7799749659898225,1,1.5342522349965293,3,2.6034289550152607,1,4.29994942698977,039,001,2019_May_16_1518,MusicAffectPsychophysiology2019,3.0.5,59.822100317209234,
To what extent did the music make you feel ,ACTIVE,30MonoWAV/30MonoH4.wav,2,2,1,8,,,,,0,12,12,7,0,1,1,9,,,,,,,,,2,1.18555500000366,039,001,2019_May_16_1518,MusicAffectPsychophysiology2019,3.0.5,59.822100317209234,
To what extent did the music make you feel ,SAD,30MonoWAV/30MonoH4.wav,2,2,1,8,,,,,0,12,12,7,0,2,2,0,,,,,,,,,1,1.8024402479932178,039,001,2019_May_16_1518,MusicAffectPsychophysiology2019,3.0.5,59.822100317209234,
To what extent did the music make you feel ,SCARED,30MonoWAV/30MonoH4.wav,2,2,1,8,,,,,0,12,12,7,0,3,3,11,,,,,,,,,1,1.001078889996279,039,001,2019_May_16_1518,MusicAffectPsychophysiology2019,3.0.5,59.822100317209234,
To what extent did the music make you feel ,ANGRY,30MonoWAV/30MonoH4.wav,2,2,1,8,,,,,0,12,12,7,0,4,4,2,,,,,,,,,1,0.9182391659996938,039,001,2019_May_16_1518,MusicAffectPsychophysiology2019,3.0.5,59.822100317209234,
To what extent did the music make you feel ,GUILTY,30MonoWAV/30MonoH4.wav,2,2,1,8,,,,,0,12,12,7,0,5,5,5,,,,,,,,,1,0.4683981179841794,039,001,2019_May_16_1518,MusicAffectPsychophysiology2019,3.0.5,59.822100317209234,
To what extent did the music make you feel ,ASHAMED,30MonoWAV/30MonoH4.wav,2,2,1,8,,,,,0,12,12,7,0,6,6,4,,,,,,,,,1,0.5183229889953509,039,001,2019_May_16_1518,MusicAffectPsychophysiology2019,3.0.5,59.822100317209234,
To what extent did the music make you feel ,HAPPY,30MonoWAV/30MonoH4.wav,2,2,1,8,,,,,0,12,12,7,0,7,7,6,,,,,,,,,2,1.2849510459927842,039,001,2019_May_16_1518,MusicAffectPsychophysiology2019,3.0.5,59.822100317209234,
To what extent did the music make you feel ,ALERT,30MonoWAV/30MonoH4.wav,2,2,1,8,,,,,0,12,12,7,0,8,8,8,,,,,,,,,1,1.2180843820096925,039,001,2019_May_16_1518,MusicAffectPsychophysiology2019,3.0.5,59.822100317209234,
To what extent did the music make you feel ,ANXIOUS ,30MonoWAV/30MonoH4.wav,2,2,1,8,,,,,0,12,12,7,0,9,9,1,,,,,,,,,1,0.5185580129909795,039,001,2019_May_16_1518,MusicAffectPsychophysiology2019,3.0.5,59.822100317209234,
To what extent did the music make you feel ,FRUSTRATED,30MonoWAV/30MonoH4.wav,2,2,1,8,,,,,0,12,12,7,0,10,10,3,,,,,,,,,1,0.518402234010864,039,001,2019_May_16_1518,MusicAffectPsychophysiology2019,3.0.5,59.822100317209234,
To what extent did the music make you feel ,EXCITED,30MonoWAV/30MonoH4.wav,2,2,1,8,,,,,0,12,12,7,0,11,11,7,,,,,,,,,2,1.9029476210125722,039,001,2019_May_16_1518,MusicAffectPsychophysiology2019,3.0.5,59.822100317209234,
,,30MonoWAV/30MonoH4.wav,2,2,1,8,,,,,0,12,12,7,,,,,,,,,,,,,,,039,001,2019_May_16_1518,MusicAffectPsychophysiology2019,3.0.5,59.822100317209234,
To what extent did the music make you feel ,ALERT,30MonoWAV/30MonoF2.wav,1,2,2,2,,,,,0,13,13,1,0,0,0,8,,,1,4.251629183010664,1,1.836077319981996,2,3.805772980005713,3,4.490416588989319,039,001,2019_May_16_1518,MusicAffectPsychophysiology2019,3.0.5,59.822100317209234,
To what extent did the music make you feel ,FRUSTRATED,30MonoWAV/30MonoF2.wav,1,2,2,2,,,,,0,13,13,1,0,1,1,3,,,,,,,,,1,1.5360730179818347,039,001,2019_May_16_1518,MusicAffectPsychophysiology2019,3.0.5,59.822100317209234,
To what extent did the music make you feel ,ANXIOUS ,30MonoWAV/30MonoF2.wav,1,2,2,2,,,,,0,13,13,1,0,2,2,1,,,,,,,,,2,1.7563123170111794,039,001,2019_May_16_1518,MusicAffectPsychophysiology2019,3.0.5,59.822100317209234,
To what extent did the music make you feel ,ASHAMED,30MonoWAV/30MonoF2.wav,1,2,2,2,,,,,0,13,13,1,0,3,3,4,,,,,,,,,1,1.199440002994379,039,001,2019_May_16_1518,MusicAffectPsychophysiology2019,3.0.5,59.822100317209234,
To what extent did the music make you feel ,ACTIVE,30MonoWAV/30MonoF2.wav,1,2,2,2,,,,,0,13,13,1,0,4,4,9,,,,,,,,,3,1.2688173399947118,039,001,2019_May_16_1518,MusicAffectPsychophysiology2019,3.0.5,59.822100317209234,
To what extent did the music make you feel ,SAD,30MonoWAV/30MonoF2.wav,1,2,2,2,,,,,0,13,13,1,0,5,5,0,,,,,,,,,1,1.5525424210063647,039,001,2019_May_16_1518,MusicAffectPsychophysiology2019,3.0.5,59.822100317209234,
To what extent did the music make you feel ,GUILTY,30MonoWAV/30MonoF2.wav,1,2,2,2,,,,,0,13,13,1,0,6,6,5,,,,,,,,,1,1.6187434339954052,039,001,2019_May_16_1518,MusicAffectPsychophysiology2019,3.0.5,59.822100317209234,
To what extent did the music make you feel ,SCARED,30MonoWAV/30MonoF2.wav,1,2,2,2,,,,,0,13,13,1,0,7,7,11,,,,,,,,,1,1.4673230680054985,039,001,2019_May_16_1518,MusicAffectPsychophysiology2019,3.0.5,59.822100317209234,
To what extent did the music make you feel ,EXCITED,30MonoWAV/30MonoF2.wav,1,2,2,2,,,,,0,13,13,1,0,8,8,7,,,,,,,,,1,3.3516511940106284,039,001,2019_May_16_1518,MusicAffectPsychophysiology2019,3.0.5,59.822100317209234,
To what extent did the music make you feel ,ANGRY,30MonoWAV/30MonoF2.wav,1,2,2,2,,,,,0,13,13,1,0,9,9,2,,,,,,,,,1,0.9014651470060926,039,001,2019_May_16_1518,MusicAffectPsychophysiology2019,3.0.5,59.822100317209234,
To what extent did the music make you feel ,TENDER,30MonoWAV/30MonoF2.wav,1,2,2,2,,,,,0,13,13,1,0,10,10,10,,,,,,,,,1,1.0025831600069068,039,001,2019_May_16_1518,MusicAffectPsychophysiology2019,3.0.5,59.822100317209234,
To what extent did the music make you feel ,HAPPY,30MonoWAV/30MonoF2.wav,1,2,2,2,,,,,0,13,13,1,0,11,11,6,,,,,,,,,1,0.68539962900104,039,001,2019_May_16_1518,MusicAffectPsychophysiology2019,3.0.5,59.822100317209234,
,,30MonoWAV/30MonoF2.wav,1,2,2,2,,,,,0,13,13,1,,,,,,,,,,,,,,,039,001,2019_May_16_1518,MusicAffectPsychophysiology2019,3.0.5,59.822100317209234,
To what extent did the music make you feel ,HAPPY,30MonoWAV/30MonoS4.wav,1,1,3,12,,,,,0,14,14,11,0,0,0,6,,,1,5.801291925017722,1,2.01760887898854,2,1.8514639560016803,1,1.1839022710046265,039,001,2019_May_16_1518,MusicAffectPsychophysiology2019,3.0.5,59.822100317209234,
To what extent did the music make you feel ,ALERT,30MonoWAV/30MonoS4.wav,1,1,3,12,,,,,0,14,14,11,0,1,1,8,,,,,,,,,1,1.0365125819807872,039,001,2019_May_16_1518,MusicAffectPsychophysiology2019,3.0.5,59.822100317209234,
To what extent did the music make you feel ,ANGRY,30MonoWAV/30MonoS4.wav,1,1,3,12,,,,,0,14,14,11,0,2,2,2,,,,,,,,,1,0.5689341370016336,039,001,2019_May_16_1518,MusicAffectPsychophysiology2019,3.0.5,59.822100317209234,
To what extent did the music make you feel ,SAD,30MonoWAV/30MonoS4.wav,1,1,3,12,,,,,0,14,14,11,0,3,3,0,,,,,,,,,1,0.6684288599935826,039,001,2019_May_16_1518,MusicAffectPsychophysiology2019,3.0.5,59.822100317209234,
To what extent did the music make you feel ,ACTIVE,30MonoWAV/30MonoS4.wav,1,1,3,12,,,,,0,14,14,11,0,4,4,9,,,,,,,,,1,0.9690846430021338,039,001,2019_May_16_1518,MusicAffectPsychophysiology2019,3.0.5,59.822100317209234,
To what extent did the music make you feel ,SCARED,30MonoWAV/30MonoS4.wav,1,1,3,12,,,,,0,14,14,11,0,5,5,11,,,,,,,,,1,0.7016395780083258,039,001,2019_May_16_1518,MusicAffectPsychophysiology2019,3.0.5,59.822100317209234,
To what extent did the music make you feel ,TENDER,30MonoWAV/30MonoS4.wav,1,1,3,12,,,,,0,14,14,11,0,6,6,10,,,,,,,,,1,0.7172686909907497,039,001,2019_May_16_1518,MusicAffectPsychophysiology2019,3.0.5,59.822100317209234,
To what extent did the music make you feel ,GUILTY,30MonoWAV/30MonoS4.wav,1,1,3,12,,,,,0,14,14,11,0,7,7,5,,,,,,,,,1,0.7683426649891771,039,001,2019_May_16_1518,MusicAffectPsychophysiology2019,3.0.5,59.822100317209234,
To what extent did the music make you feel ,ANXIOUS ,30MonoWAV/30MonoS4.wav,1,1,3,12,,,,,0,14,14,11,0,8,8,1,,,,,,,,,1,0.8514566509984434,039,001,2019_May_16_1518,MusicAffectPsychophysiology2019,3.0.5,59.822100317209234,
To what extent did the music make you feel ,EXCITED,30MonoWAV/30MonoS4.wav,1,1,3,12,,,,,0,14,14,11,0,9,9,7,,,,,,,,,1,0.7192911469901446,039,001,2019_May_16_1518,MusicAffectPsychophysiology2019,3.0.5,59.822100317209234,
To what extent did the music make you feel ,FRUSTRATED,30MonoWAV/30MonoS4.wav,1,1,3,12,,,,,0,14,14,11,0,10,10,3,,,,,,,,,1,0.5000568079994991,039,001,2019_May_16_1518,MusicAffectPsychophysiology2019,3.0.5,59.822100317209234,
To what extent did the music make you feel ,ASHAMED,30MonoWAV/30MonoS4.wav,1,1,3,12,,,,,0,14,14,11,0,11,11,4,,,,,,,,,1,0.45146072600618936,039,001,2019_May_16_1518,MusicAffectPsychophysiology2019,3.0.5,59.822100317209234,
,,30MonoWAV/30MonoS4.wav,1,1,3,12,,,,,0,14,14,11,,,,,,,,,,,,,,,039,001,2019_May_16_1518,MusicAffectPsychophysiology2019,3.0.5,59.822100317209234,
To what extent did the music make you feel ,SAD,30MonoWAV/30MonoS2.wav,1,1,3,10,,,,,0,15,15,9,0,0,0,0,,,1,7.350476419000188,1,2.552215701987734,2,1.7167517520138063,2,1.2679526129795704,039,001,2019_May_16_1518,MusicAffectPsychophysiology2019,3.0.5,59.822100317209234,
To what extent did the music make you feel ,ANXIOUS ,30MonoWAV/30MonoS2.wav,1,1,3,10,,,,,0,15,15,9,0,1,1,1,,,,,,,,,1,1.0017650439986028,039,001,2019_May_16_1518,MusicAffectPsychophysiology2019,3.0.5,59.822100317209234,
To what extent did the music make you feel ,SCARED,30MonoWAV/30MonoS2.wav,1,1,3,10,,,,,0,15,15,9,0,2,2,11,,,,,,,,,1,0.7691756619897205,039,001,2019_May_16_1518,MusicAffectPsychophysiology2019,3.0.5,59.822100317209234,
To what extent did the music make you feel ,ASHAMED,30MonoWAV/30MonoS2.wav,1,1,3,10,,,,,0,15,15,9,0,3,3,4,,,,,,,,,1,0.7693821779976133,039,001,2019_May_16_1518,MusicAffectPsychophysiology2019,3.0.5,59.822100317209234,
To what extent did the music make you feel ,FRUSTRATED,30MonoWAV/30MonoS2.wav,1,1,3,10,,,,,0,15,15,9,0,4,4,3,,,,,,,,,1,0.0852568690024782,039,001,2019_May_16_1518,MusicAffectPsychophysiology2019,3.0.5,59.822100317209234,
To what extent did the music make you feel ,HAPPY,30MonoWAV/30MonoS2.wav,1,1,3,10,,,,,0,15,15,9,0,5,5,6,,,,,,,,,1,1.3028479679778684,039,001,2019_May_16_1518,MusicAffectPsychophysiology2019,3.0.5,59.822100317209234,
To what extent did the music make you feel ,EXCITED,30MonoWAV/30MonoS2.wav,1,1,3,10,,,,,0,15,15,9,0,6,6,7,,,,,,,,,1,0.9171584599826019,039,001,2019_May_16_1518,MusicAffectPsychophysiology2019,3.0.5,59.822100317209234,
To what extent did the music make you feel ,TENDER,30MonoWAV/30MonoS2.wav,1,1,3,10,,,,,0,15,15,9,0,7,7,10,,,,,,,,,2,0.9019750919833314,039,001,2019_May_16_1518,MusicAffectPsychophysiology2019,3.0.5,59.822100317209234,
To what extent did the music make you feel ,ACTIVE,30MonoWAV/30MonoS2.wav,1,1,3,10,,,,,0,15,15,9,0,8,8,9,,,,,,,,,1,1.6017918870202266,039,001,2019_May_16_1518,MusicAffectPsychophysiology2019,3.0.5,59.822100317209234,
To what extent did the music make you feel ,ALERT,30MonoWAV/30MonoS2.wav,1,1,3,10,,,,,0,15,15,9,0,9,9,8,,,,,,,,,1,1.7357643409923185,039,001,2019_May_16_1518,MusicAffectPsychophysiology2019,3.0.5,59.822100317209234,
To what extent did the music make you feel ,ANGRY,30MonoWAV/30MonoS2.wav,1,1,3,10,,,,,0,15,15,9,0,10,10,2,,,,,,,,,1,1.7330417690100148,039,001,2019_May_16_1518,MusicAffectPsychophysiology2019,3.0.5,59.822100317209234,
To what extent did the music make you feel ,GUILTY,30MonoWAV/30MonoS2.wav,1,1,3,10,,,,,0,15,15,9,0,11,11,5,,,,,,,,,1,0.5013483100046869,039,001,2019_May_16_1518,MusicAffectPsychophysiology2019,3.0.5,59.822100317209234,
,,30MonoWAV/30MonoS2.wav,1,1,3,10,,,,,0,15,15,9,,,,,,,,,,,,,,,039,001,2019_May_16_1518,MusicAffectPsychophysiology2019,3.0.5,59.822100317209234,
To what extent did the music make you feel ,TENDER,30MonoWAV/30MonoF3.wav,1,2,2,3,,,,,1,0,16,2,0,0,0,10,,,1,4.201691790978657,1,1.68533016499714,1,1.268249047017889,1,1.7350114019936882,039,001,2019_May_16_1518,MusicAffectPsychophysiology2019,3.0.5,59.822100317209234,
To what extent did the music make you feel ,ANGRY,30MonoWAV/30MonoF3.wav,1,2,2,3,,,,,1,0,16,2,0,1,1,2,,,,,,,,,1,1.5191405189980287,039,001,2019_May_16_1518,MusicAffectPsychophysiology2019,3.0.5,59.822100317209234,
To what extent did the music make you feel ,ASHAMED,30MonoWAV/30MonoF3.wav,1,2,2,3,,,,,1,0,16,2,0,2,2,4,,,,,,,,,1,0.8184812649851665,039,001,2019_May_16_1518,MusicAffectPsychophysiology2019,3.0.5,59.822100317209234,
To what extent did the music make you feel ,SCARED,30MonoWAV/30MonoF3.wav,1,2,2,3,,,,,1,0,16,2,0,3,3,11,,,,,,,,,1,0.5852707360172644,039,001,2019_May_16_1518,MusicAffectPsychophysiology2019,3.0.5,59.822100317209234,
To what extent did the music make you feel ,HAPPY,30MonoWAV/30MonoF3.wav,1,2,2,3,,,,,1,0,16,2,0,4,4,6,,,,,,,,,1,0.6343999980017543,039,001,2019_May_16_1518,MusicAffectPsychophysiology2019,3.0.5,59.822100317209234,
To what extent did the music make you feel ,ACTIVE,30MonoWAV/30MonoF3.wav,1,2,2,3,,,,,1,0,16,2,0,5,5,9,,,,,,,,,2,1.1346754159894772,039,001,2019_May_16_1518,MusicAffectPsychophysiology2019,3.0.5,59.822100317209234,
To what extent did the music make you feel ,GUILTY,30MonoWAV/30MonoF3.wav,1,2,2,3,,,,,1,0,16,2,0,6,6,5,,,,,,,,,1,0.9015130480111111,039,001,2019_May_16_1518,MusicAffectPsychophysiology2019,3.0.5,59.822100317209234,
To what extent did the music make you feel ,ALERT,30MonoWAV/30MonoF3.wav,1,2,2,3,,,,,1,0,16,2,0,7,7,8,,,,,,,,,2,1.4532528550189454,039,001,2019_May_16_1518,MusicAffectPsychophysiology2019,3.0.5,59.822100317209234,
To what extent did the music make you feel ,FRUSTRATED,30MonoWAV/30MonoF3.wav,1,2,2,3,,,,,1,0,16,2,0,8,8,3,,,,,,,,,1,0.668774844991276,039,001,2019_May_16_1518,MusicAffectPsychophysiology2019,3.0.5,59.822100317209234,
To what extent did the music make you feel ,ANXIOUS ,30MonoWAV/30MonoF3.wav,1,2,2,3,,,,,1,0,16,2,0,9,9,1,,,,,,,,,1,0.6516806419822387,039,001,2019_May_16_1518,MusicAffectPsychophysiology2019,3.0.5,59.822100317209234,
To what extent did the music make you feel ,EXCITED,30MonoWAV/30MonoF3.wav,1,2,2,3,,,,,1,0,16,2,0,10,10,7,,,,,,,,,1,0.7684409139910713,039,001,2019_May_16_1518,MusicAffectPsychophysiology2019,3.0.5,59.822100317209234,
To what extent did the music make you feel ,SAD,30MonoWAV/30MonoF3.wav,1,2,2,3,,,,,1,0,16,2,0,11,11,0,,,,,,,,,1,1.0523082269937731,039,001,2019_May_16_1518,MusicAffectPsychophysiology2019,3.0.5,59.822100317209234,
,,30MonoWAV/30MonoF3.wav,1,2,2,3,,,,,1,0,16,2,,,,,,,,,,,,,,,039,001,2019_May_16_1518,MusicAffectPsychophysiology2019,3.0.5,59.822100317209234,
To what extent did the music make you feel ,TENDER,30MonoWAV/30MonoS1.wav,1,1,3,9,,,,,1,1,17,8,0,0,0,10,,,3,7.535050147998845,2,2.986081644980004,3,2.469089571008226,3,2.033169953007018,039,001,2019_May_16_1518,MusicAffectPsychophysiology2019,3.0.5,59.822100317209234,
To what extent did the music make you feel ,ANGRY,30MonoWAV/30MonoS1.wav,1,1,3,9,,,,,1,1,17,8,0,1,1,2,,,,,,,,,1,1.0351224670012016,039,001,2019_May_16_1518,MusicAffectPsychophysiology2019,3.0.5,59.822100317209234,
To what extent did the music make you feel ,FRUSTRATED,30MonoWAV/30MonoS1.wav,1,1,3,9,,,,,1,1,17,8,0,2,2,3,,,,,,,,,1,0.7855988859955687,039,001,2019_May_16_1518,MusicAffectPsychophysiology2019,3.0.5,59.822100317209234,
To what extent did the music make you feel ,EXCITED,30MonoWAV/30MonoS1.wav,1,1,3,9,,,,,1,1,17,8,0,3,3,7,,,,,,,,,1,0.9000654359988403,039,001,2019_May_16_1518,MusicAffectPsychophysiology2019,3.0.5,59.822100317209234,
To what extent did the music make you feel ,SAD,30MonoWAV/30MonoS1.wav,1,1,3,9,,,,,1,1,17,8,0,4,4,0,,,,,,,,,2,1.3839768249890767,039,001,2019_May_16_1518,MusicAffectPsychophysiology2019,3.0.5,59.822100317209234,
To what extent did the music make you feel ,SCARED,30MonoWAV/30MonoS1.wav,1,1,3,9,,,,,1,1,17,8,0,5,5,11,,,,,,,,,1,0.9849372479948215,039,001,2019_May_16_1518,MusicAffectPsychophysiology2019,3.0.5,59.822100317209234,
To what extent did the music make you feel ,GUILTY,30MonoWAV/30MonoS1.wav,1,1,3,9,,,,,1,1,17,8,0,6,6,5,,,,,,,,,1,0.9693136419809889,039,001,2019_May_16_1518,MusicAffectPsychophysiology2019,3.0.5,59.822100317209234,
To what extent did the music make you feel ,ANXIOUS ,30MonoWAV/30MonoS1.wav,1,1,3,9,,,,,1,1,17,8,0,7,7,1,,,,,,,,,1,0.6174458239984233,039,001,2019_May_16_1518,MusicAffectPsychophysiology2019,3.0.5,59.822100317209234,
To what extent did the music make you feel ,ACTIVE,30MonoWAV/30MonoS1.wav,1,1,3,9,,,,,1,1,17,8,0,8,8,9,,,,,,,,,1,0.8349031360121444,039,001,2019_May_16_1518,MusicAffectPsychophysiology2019,3.0.5,59.822100317209234,
To what extent did the music make you feel ,ALERT,30MonoWAV/30MonoS1.wav,1,1,3,9,,,,,1,1,17,8,0,9,9,8,,,,,,,,,1,0.9827793180011213,039,001,2019_May_16_1518,MusicAffectPsychophysiology2019,3.0.5,59.822100317209234,
To what extent did the music make you feel ,HAPPY,30MonoWAV/30MonoS1.wav,1,1,3,9,,,,,1,1,17,8,0,10,10,6,,,,,,,,,1,0.5529084279842209,039,001,2019_May_16_1518,MusicAffectPsychophysiology2019,3.0.5,59.822100317209234,
To what extent did the music make you feel ,ASHAMED,30MonoWAV/30MonoS1.wav,1,1,3,9,,,,,1,1,17,8,0,11,11,4,,,,,,,,,1,0.6344452810008079,039,001,2019_May_16_1518,MusicAffectPsychophysiology2019,3.0.5,59.822100317209234,
,,30MonoWAV/30MonoS1.wav,1,1,3,9,,,,,1,1,17,8,,,,,,,,,,,,,,,039,001,2019_May_16_1518,MusicAffectPsychophysiology2019,3.0.5,59.822100317209234,
To what extent did the music make you feel ,FRUSTRATED,30MonoWAV/30MonoH3.wav,2,2,1,7,,,,,1,2,18,6,0,0,0,3,,,3,7.318008751986781,1,2.4853116949961986,2,1.5682974490046035,1,1.4243346189905424,039,001,2019_May_16_1518,MusicAffectPsychophysiology2019,3.0.5,59.822100317209234,
To what extent did the music make you feel ,EXCITED,30MonoWAV/30MonoH3.wav,2,2,1,7,,,,,1,2,18,6,0,1,1,7,,,,,,,,,2,0.9014014069980476,039,001,2019_May_16_1518,MusicAffectPsychophysiology2019,3.0.5,59.822100317209234,
To what extent did the music make you feel ,SAD,30MonoWAV/30MonoH3.wav,2,2,1,7,,,,,1,2,18,6,0,2,2,0,,,,,,,,,1,0.7848152329970617,039,001,2019_May_16_1518,MusicAffectPsychophysiology2019,3.0.5,59.822100317209234,
To what extent did the music make you feel ,ASHAMED,30MonoWAV/30MonoH3.wav,2,2,1,7,,,,,1,2,18,6,0,3,3,4,,,,,,,,,1,0.6353642580215819,039,001,2019_May_16_1518,MusicAffectPsychophysiology2019,3.0.5,59.822100317209234,
To what extent did the music make you feel ,SCARED,30MonoWAV/30MonoH3.wav,2,2,1,7,,,,,1,2,18,6,0,4,4,11,,,,,,,,,1,1.1010662910121027,039,001,2019_May_16_1518,MusicAffectPsychophysiology2019,3.0.5,59.822100317209234,
To what extent did the music make you feel ,ACTIVE,30MonoWAV/30MonoH3.wav,2,2,1,7,,,,,1,2,18,6,0,5,5,9,,,,,,,,,1,0.7510693509830162,039,001,2019_May_16_1518,MusicAffectPsychophysiology2019,3.0.5,59.822100317209234,
To what extent did the music make you feel ,ANXIOUS ,30MonoWAV/30MonoH3.wav,2,2,1,7,,,,,1,2,18,6,0,6,6,1,,,,,,,,,1,0.7334802859986667,039,001,2019_May_16_1518,MusicAffectPsychophysiology2019,3.0.5,59.822100317209234,
To what extent did the music make you feel ,TENDER,30MonoWAV/30MonoH3.wav,2,2,1,7,,,,,1,2,18,6,0,7,7,10,,,,,,,,,1,1.0345252539846115,039,001,2019_May_16_1518,MusicAffectPsychophysiology2019,3.0.5,59.822100317209234,
To what extent did the music make you feel ,HAPPY,30MonoWAV/30MonoH3.wav,2,2,1,7,,,,,1,2,18,6,0,8,8,6,,,,,,,,,1,0.7519235600193497,039,001,2019_May_16_1518,MusicAffectPsychophysiology2019,3.0.5,59.822100317209234,
To what extent did the music make you feel ,GUILTY,30MonoWAV/30MonoH3.wav,2,2,1,7,,,,,1,2,18,6,0,9,9,5,,,,,,,,,1,0.6025027200230397,039,001,2019_May_16_1518,MusicAffectPsychophysiology2019,3.0.5,59.822100317209234,
To what extent did the music make you feel ,ALERT,30MonoWAV/30MonoH3.wav,2,2,1,7,,,,,1,2,18,6,0,10,10,8,,,,,,,,,1,0.8190805850026663,039,001,2019_May_16_1518,MusicAffectPsychophysiology2019,3.0.5,59.822100317209234,
To what extent did the music make you feel ,ANGRY,30MonoWAV/30MonoH3.wav,2,2,1,7,,,,,1,2,18,6,0,11,11,2,,,,,,,,,1,0.4858602579915896,039,001,2019_May_16_1518,MusicAffectPsychophysiology2019,3.0.5,59.822100317209234,
,,30MonoWAV/30MonoH3.wav,2,2,1,7,,,,,1,2,18,6,,,,,,,,,,,,,,,039,001,2019_May_16_1518,MusicAffectPsychophysiology2019,3.0.5,59.822100317209234,
To what extent did the music make you feel ,SAD,30MonoWAV/30MonoT3.wav,2,1,4,15,,,,,1,3,19,14,0,0,0,0,,,1,11.101462599006481,3,4.78498578700237,4,3.3522687849763315,2,3.100968265993288,039,001,2019_May_16_1518,MusicAffectPsychophysiology2019,3.0.5,59.822100317209234,
To what extent did the music make you feel ,ASHAMED,30MonoWAV/30MonoT3.wav,2,1,4,15,,,,,1,3,19,14,0,1,1,4,,,,,,,,,1,0.9515838820079807,039,001,2019_May_16_1518,MusicAffectPsychophysiology2019,3.0.5,59.822100317209234,
To what extent did the music make you feel ,SCARED,30MonoWAV/30MonoT3.wav,2,1,4,15,,,,,1,3,19,14,0,2,2,11,,,,,,,,,1,1.0690911920100916,039,001,2019_May_16_1518,MusicAffectPsychophysiology2019,3.0.5,59.822100317209234,
To what extent did the music make you feel ,ANXIOUS ,30MonoWAV/30MonoT3.wav,2,1,4,15,,,,,1,3,19,14,0,3,3,1,,,,,,,,,1,0.7017577210208401,039,001,2019_May_16_1518,MusicAffectPsychophysiology2019,3.0.5,59.822100317209234,
To what extent did the music make you feel ,ANGRY,30MonoWAV/30MonoT3.wav,2,1,4,15,,,,,1,3,19,14,0,4,4,2,,,,,,,,,1,0.601506352017168,039,001,2019_May_16_1518,MusicAffectPsychophysiology2019,3.0.5,59.822100317209234,
To what extent did the music make you feel ,ACTIVE,30MonoWAV/30MonoT3.wav,2,1,4,15,,,,,1,3,19,14,0,5,5,9,,,,,,,,,1,0.8686294950020965,039,001,2019_May_16_1518,MusicAffectPsychophysiology2019,3.0.5,59.822100317209234,
To what extent did the music make you feel ,GUILTY,30MonoWAV/30MonoT3.wav,2,1,4,15,,,,,1,3,19,14,0,6,6,5,,,,,,,,,1,0.6353615719999652,039,001,2019_May_16_1518,MusicAffectPsychophysiology2019,3.0.5,59.822100317209234,
To what extent did the music make you feel ,EXCITED,30MonoWAV/30MonoT3.wav,2,1,4,15,,,,,1,3,19,14,0,7,7,7,,,,,,,,,1,0.8681071210012306,039,001,2019_May_16_1518,MusicAffectPsychophysiology2019,3.0.5,59.822100317209234,
To what extent did the music make you feel ,HAPPY,30MonoWAV/30MonoT3.wav,2,1,4,15,,,,,1,3,19,14,0,8,8,6,,,,,,,,,1,1.4682180850068107,039,001,2019_May_16_1518,MusicAffectPsychophysiology2019,3.0.5,59.822100317209234,
To what extent did the music make you feel ,TENDER,30MonoWAV/30MonoT3.wav,2,1,4,15,,,,,1,3,19,14,0,9,9,10,,,,,,,,,2,0.9526462180074304,039,001,2019_May_16_1518,MusicAffectPsychophysiology2019,3.0.5,59.822100317209234,
To what extent did the music make you feel ,FRUSTRATED,30MonoWAV/30MonoT3.wav,2,1,4,15,,,,,1,3,19,14,0,10,10,3,,,,,,,,,1,1.0859495759941638,039,001,2019_May_16_1518,MusicAffectPsychophysiology2019,3.0.5,59.822100317209234,
To what extent did the music make you feel ,ALERT,30MonoWAV/30MonoT3.wav,2,1,4,15,,,,,1,3,19,14,0,11,11,8,,,,,,,,,1,0.5501061539980583,039,001,2019_May_16_1518,MusicAffectPsychophysiology2019,3.0.5,59.822100317209234,
,,30MonoWAV/30MonoT3.wav,2,1,4,15,,,,,1,3,19,14,,,,,,,,,,,,,,,039,001,2019_May_16_1518,MusicAffectPsychophysiology2019,3.0.5,59.822100317209234,
To what extent did the music make you feel ,SCARED,30MonoWAV/30MonoH4.wav,2,2,1,8,,,,,1,4,20,7,0,0,0,11,,,1,4.5523588610230945,1,2.350249559007352,2,1.936750659981044,1,1.1695318699930795,039,001,2019_May_16_1518,MusicAffectPsychophysiology2019,3.0.5,59.822100317209234,
To what extent did the music make you feel ,ANGRY,30MonoWAV/30MonoH4.wav,2,2,1,8,,,,,1,4,20,7,0,1,1,2,,,,,,,,,1,0.7181724059919361,039,001,2019_May_16_1518,MusicAffectPsychophysiology2019,3.0.5,59.822100317209234,
To what extent did the music make you feel ,ANXIOUS ,30MonoWAV/30MonoH4.wav,2,2,1,8,,,,,1,4,20,7,0,2,2,1,,,,,,,,,1,1.0524246519780718,039,001,2019_May_16_1518,MusicAffectPsychophysiology2019,3.0.5,59.822100317209234,
To what extent did the music make you feel ,GUILTY,30MonoWAV/30MonoH4.wav,2,2,1,8,,,,,1,4,20,7,0,3,3,5,,,,,,,,,1,0.7018808799912222,039,001,2019_May_16_1518,MusicAffectPsychophysiology2019,3.0.5,59.822100317209234,
To what extent did the music make you feel ,ACTIVE,30MonoWAV/30MonoH4.wav,2,2,1,8,,,,,1,4,20,7,0,4,4,9,,,,,,,,,2,1.1849241179879755,039,001,2019_May_16_1518,MusicAffectPsychophysiology2019,3.0.5,59.822100317209234,
To what extent did the music make you feel ,SAD,30MonoWAV/30MonoH4.wav,2,2,1,8,,,,,1,4,20,7,0,5,5,0,,,,,,,,,1,0.551715345995035,039,001,2019_May_16_1518,MusicAffectPsychophysiology2019,3.0.5,59.822100317209234,
To what extent did the music make you feel ,FRUSTRATED,30MonoWAV/30MonoH4.wav,2,2,1,8,,,,,1,4,20,7,0,6,6,3,,,,,,,,,1,0.4841493059939239,039,001,2019_May_16_1518,MusicAffectPsychophysiology2019,3.0.5,59.822100317209234,
To what extent did the music make you feel ,HAPPY,30MonoWAV/30MonoH4.wav,2,2,1,8,,,,,1,4,20,7,0,7,7,6,,,,,,,,,1,1.001326853001956,039,001,2019_May_16_1518,MusicAffectPsychophysiology2019,3.0.5,59.822100317209234,
To what extent did the music make you feel ,ASHAMED,30MonoWAV/30MonoH4.wav,2,2,1,8,,,,,1,4,20,7,0,8,8,4,,,,,,,,,1,0.5852974049921613,039,001,2019_May_16_1518,MusicAffectPsychophysiology2019,3.0.5,59.822100317209234,
To what extent did the music make you feel ,EXCITED,30MonoWAV/30MonoH4.wav,2,2,1,8,,,,,1,4,20,7,0,9,9,7,,,,,,,,,1,1.118311297002947,039,001,2019_May_16_1518,MusicAffectPsychophysiology2019,3.0.5,59.822100317209234,
To what extent did the music make you feel ,TENDER,30MonoWAV/30MonoH4.wav,2,2,1,8,,,,,1,4,20,7,0,10,10,10,,,,,,,,,1,0.8684995699732099,039,001,2019_May_16_1518,MusicAffectPsychophysiology2019,3.0.5,59.822100317209234,
To what extent did the music make you feel ,ALERT,30MonoWAV/30MonoH4.wav,2,2,1,8,,,,,1,4,20,7,0,11,11,8,,,,,,,,,1,1.2028709040023386,039,001,2019_May_16_1518,MusicAffectPsychophysiology2019,3.0.5,59.822100317209234,
,,30MonoWAV/30MonoH4.wav,2,2,1,8,,,,,1,4,20,7,,,,,,,,,,,,,,,039,001,2019_May_16_1518,MusicAffectPsychophysiology2019,3.0.5,59.822100317209234,
To what extent did the music make you feel ,SCARED,30MonoWAV/30MonoT1.wav,2,1,4,13,,,,,1,5,21,12,0,0,0,11,,,1,4.584959771018475,1,4.101133502990706,2,2.051307955989614,1,1.251473990996601,039,001,2019_May_16_1518,MusicAffectPsychophysiology2019,3.0.5,59.822100317209234,
To what extent did the music make you feel ,ACTIVE,30MonoWAV/30MonoT1.wav,2,1,4,13,,,,,1,5,21,12,0,1,1,9,,,,,,,,,1,0.785271016007755,039,001,2019_May_16_1518,MusicAffectPsychophysiology2019,3.0.5,59.822100317209234,
To what extent did the music make you feel ,GUILTY,30MonoWAV/30MonoT1.wav,2,1,4,13,,,,,1,5,21,12,0,2,2,5,,,,,,,,,1,1.1518147120077629,039,001,2019_May_16_1518,MusicAffectPsychophysiology2019,3.0.5,59.822100317209234,
To what extent did the music make you feel ,HAPPY,30MonoWAV/30MonoT1.wav,2,1,4,13,,,,,1,5,21,12,0,3,3,6,,,,,,,,,1,0.6865165320050437,039,001,2019_May_16_1518,MusicAffectPsychophysiology2019,3.0.5,59.822100317209234,
To what extent did the music make you feel ,ASHAMED,30MonoWAV/30MonoT1.wav,2,1,4,13,,,,,1,5,21,12,0,4,4,4,,,,,,,,,1,0.5186151179950684,039,001,2019_May_16_1518,MusicAffectPsychophysiology2019,3.0.5,59.822100317209234,
To what extent did the music make you feel ,SAD,30MonoWAV/30MonoT1.wav,2,1,4,13,,,,,1,5,21,12,0,5,5,0,,,,,,,,,1,0.5344452979916241,039,001,2019_May_16_1518,MusicAffectPsychophysiology2019,3.0.5,59.822100317209234,
To what extent did the music make you feel ,ANXIOUS ,30MonoWAV/30MonoT1.wav,2,1,4,13,,,,,1,5,21,12,0,6,6,1,,,,,,,,,1,0.45178258800297044,039,001,2019_May_16_1518,MusicAffectPsychophysiology2019,3.0.5,59.822100317209234,
To what extent did the music make you feel ,ANGRY,30MonoWAV/30MonoT1.wav,2,1,4,13,,,,,1,5,21,12,0,7,7,2,,,,,,,,,1,0.3353188780019991,039,001,2019_May_16_1518,MusicAffectPsychophysiology2019,3.0.5,59.822100317209234,
To what extent did the music make you feel ,FRUSTRATED,30MonoWAV/30MonoT1.wav,2,1,4,13,,,,,1,5,21,12,0,8,8,3,,,,,,,,,1,0.33568307300447486,039,001,2019_May_16_1518,MusicAffectPsychophysiology2019,3.0.5,59.822100317209234,
To what extent did the music make you feel ,TENDER,30MonoWAV/30MonoT1.wav,2,1,4,13,,,,,1,5,21,12,0,9,9,10,,,,,,,,,1,0.31883755201124586,039,001,2019_May_16_1518,MusicAffectPsychophysiology2019,3.0.5,59.822100317209234,
To what extent did the music make you feel ,ALERT,30MonoWAV/30MonoT1.wav,2,1,4,13,,,,,1,5,21,12,0,10,10,8,,,,,,,,,1,0.38358507899101824,039,001,2019_May_16_1518,MusicAffectPsychophysiology2019,3.0.5,59.822100317209234,
To what extent did the music make you feel ,EXCITED,30MonoWAV/30MonoT1.wav,2,1,4,13,,,,,1,5,21,12,0,11,11,7,,,,,,,,,1,0.4847462849866133,039,001,2019_May_16_1518,MusicAffectPsychophysiology2019,3.0.5,59.822100317209234,
,,30MonoWAV/30MonoT1.wav,2,1,4,13,,,,,1,5,21,12,,,,,,,,,,,,,,,039,001,2019_May_16_1518,MusicAffectPsychophysiology2019,3.0.5,59.822100317209234,
To what extent did the music make you feel ,EXCITED,30MonoWAV/30MonoF1.wav,1,2,2,1,,,,,1,6,22,0,0,0,0,7,,,2,15.40646441001445,1,2.2487223579955753,2,2.052480631013168,1,1.7680169739760458,039,001,2019_May_16_1518,MusicAffectPsychophysiology2019,3.0.5,59.822100317209234,
To what extent did the music make you feel ,ANXIOUS ,30MonoWAV/30MonoF1.wav,1,2,2,1,,,,,1,6,22,0,0,1,1,1,,,,,,,,,1,0.3684605769813061,039,001,2019_May_16_1518,MusicAffectPsychophysiology2019,3.0.5,59.822100317209234,
To what extent did the music make you feel ,SAD,30MonoWAV/30MonoF1.wav,1,2,2,1,,,,,1,6,22,0,0,2,2,0,,,,,,,,,1,0.5516931840102188,039,001,2019_May_16_1518,MusicAffectPsychophysiology2019,3.0.5,59.822100317209234,
To what extent did the music make you feel ,ASHAMED,30MonoWAV/30MonoF1.wav,1,2,2,1,,,,,1,6,22,0,0,3,3,4,,,,,,,,,1,0.5503919640032109,039,001,2019_May_16_1518,MusicAffectPsychophysiology2019,3.0.5,59.822100317209234,
To what extent did the music make you feel ,GUILTY,30MonoWAV/30MonoF1.wav,1,2,2,1,,,,,1,6,22,0,0,4,4,5,,,,,,,,,1,0.3683876770082861,039,001,2019_May_16_1518,MusicAffectPsychophysiology2019,3.0.5,59.822100317209234,
To what extent did the music make you feel ,ACTIVE,30MonoWAV/30MonoF1.wav,1,2,2,1,,,,,1,6,22,0,0,5,5,9,,,,,,,,,1,0.16816306600230746,039,001,2019_May_16_1518,MusicAffectPsychophysiology2019,3.0.5,59.822100317209234,
To what extent did the music make you feel ,SCARED,30MonoWAV/30MonoF1.wav,1,2,2,1,,,,,1,6,22,0,0,6,6,11,,,,,,,,,1,0.11862149101216346,039,001,2019_May_16_1518,MusicAffectPsychophysiology2019,3.0.5,59.822100317209234,
To what extent did the music make you feel ,FRUSTRATED,30MonoWAV/30MonoF1.wav,1,2,2,1,,,,,1,6,22,0,0,7,7,3,,,,,,,,,1,0.10203776799608022,039,001,2019_May_16_1518,MusicAffectPsychophysiology2019,3.0.5,59.822100317209234,
To what extent did the music make you feel ,ALERT,30MonoWAV/30MonoF1.wav,1,2,2,1,,,,,1,6,22,0,0,8,8,8,,,,,,,,,1,0.08505730598699301,039,001,2019_May_16_1518,MusicAffectPsychophysiology2019,3.0.5,59.822100317209234,
To what extent did the music make you feel ,ANGRY,30MonoWAV/30MonoF1.wav,1,2,2,1,,,,,1,6,22,0,0,9,9,2,,,,,,,,,1,0.38460974901681766,039,001,2019_May_16_1518,MusicAffectPsychophysiology2019,3.0.5,59.822100317209234,
To what extent did the music make you feel ,HAPPY,30MonoWAV/30MonoF1.wav,1,2,2,1,,,,,1,6,22,0,0,10,10,6,,,,,,,,,1,0.3517302660038695,039,001,2019_May_16_1518,MusicAffectPsychophysiology2019,3.0.5,59.822100317209234,
To what extent did the music make you feel ,TENDER,30MonoWAV/30MonoF1.wav,1,2,2,1,,,,,1,6,22,0,0,11,11,10,,,,,,,,,1,0.3683191649906803,039,001,2019_May_16_1518,MusicAffectPsychophysiology2019,3.0.5,59.822100317209234,
,,30MonoWAV/30MonoF1.wav,1,2,2,1,,,,,1,6,22,0,,,,,,,,,,,,,,,039,001,2019_May_16_1518,MusicAffectPsychophysiology2019,3.0.5,59.822100317209234,
To what extent did the music make you feel ,EXCITED,30MonoWAV/30MonoH1.wav,2,2,1,5,,,,,1,7,23,4,0,0,0,7,,,1,3.635095603996888,2,1.434785863995785,2,1.535561280004913,1,1.671461420977721,039,001,2019_May_16_1518,MusicAffectPsychophysiology2019,3.0.5,59.822100317209234,
To what extent did the music make you feel ,HAPPY,30MonoWAV/30MonoH1.wav,2,2,1,5,,,,,1,7,23,4,0,1,1,6,,,,,,,,,2,1.1699466590071097,039,001,2019_May_16_1518,MusicAffectPsychophysiology2019,3.0.5,59.822100317209234,
To what extent did the music make you feel ,ACTIVE,30MonoWAV/30MonoH1.wav,2,2,1,5,,,,,1,7,23,4,0,2,2,9,,,,,,,,,1,0.9862515369895846,039,001,2019_May_16_1518,MusicAffectPsychophysiology2019,3.0.5,59.822100317209234,
To what extent did the music make you feel ,ANGRY,30MonoWAV/30MonoH1.wav,2,2,1,5,,,,,1,7,23,4,0,3,3,2,,,,,,,,,1,0.43606618701596744,039,001,2019_May_16_1518,MusicAffectPsychophysiology2019,3.0.5,59.822100317209234,
To what extent did the music make you feel ,ANXIOUS ,30MonoWAV/30MonoH1.wav,2,2,1,5,,,,,1,7,23,4,0,4,4,1,,,,,,,,,1,0.35169268399477005,039,001,2019_May_16_1518,MusicAffectPsychophysiology2019,3.0.5,59.822100317209234,
To what extent did the music make you feel ,FRUSTRATED,30MonoWAV/30MonoH1.wav,2,2,1,5,,,,,1,7,23,4,0,5,5,3,,,,,,,,,1,0.3681584990117699,039,001,2019_May_16_1518,MusicAffectPsychophysiology2019,3.0.5,59.822100317209234,
To what extent did the music make you feel ,ASHAMED,30MonoWAV/30MonoH1.wav,2,2,1,5,,,,,1,7,23,4,0,6,6,4,,,,,,,,,1,0.3849074220051989,039,001,2019_May_16_1518,MusicAffectPsychophysiology2019,3.0.5,59.822100317209234,
To what extent did the music make you feel ,ALERT,30MonoWAV/30MonoH1.wav,2,2,1,5,,,,,1,7,23,4,0,7,7,8,,,,,,,,,1,0.4020276800147258,039,001,2019_May_16_1518,MusicAffectPsychophysiology2019,3.0.5,59.822100317209234,
To what extent did the music make you feel ,GUILTY,30MonoWAV/30MonoH1.wav,2,2,1,5,,,,,1,7,23,4,0,8,8,5,,,,,,,,,1,0.3351568350044545,039,001,2019_May_16_1518,MusicAffectPsychophysiology2019,3.0.5,59.822100317209234,
To what extent did the music make you feel ,SCARED,30MonoWAV/30MonoH1.wav,2,2,1,5,,,,,1,7,23,4,0,9,9,11,,,,,,,,,1,0.6026697390188929,039,001,2019_May_16_1518,MusicAffectPsychophysiology2019,3.0.5,59.822100317209234,
To what extent did the music make you feel ,TENDER,30MonoWAV/30MonoH1.wav,2,2,1,5,,,,,1,7,23,4,0,10,10,10,,,,,,,,,1,0.3517381919955369,039,001,2019_May_16_1518,MusicAffectPsychophysiology2019,3.0.5,59.822100317209234,
To what extent did the music make you feel ,SAD,30MonoWAV/30MonoH1.wav,2,2,1,5,,,,,1,7,23,4,0,11,11,0,,,,,,,,,1,0.4895069859921932,039,001,2019_May_16_1518,MusicAffectPsychophysiology2019,3.0.5,59.822100317209234,
,,30MonoWAV/30MonoH1.wav,2,2,1,5,,,,,1,7,23,4,,,,,,,,,,,,,,,039,001,2019_May_16_1518,MusicAffectPsychophysiology2019,3.0.5,59.822100317209234,
To what extent did the music make you feel ,SCARED,30MonoWAV/30MonoF4.wav,1,2,2,4,,,,,1,8,24,3,0,0,0,11,,,1,20.966214307001792,1,1.482921410992276,2,1.6183290559856687,1,1.1985818379907869,039,001,2019_May_16_1518,MusicAffectPsychophysiology2019,3.0.5,59.822100317209234,
To what extent did the music make you feel ,FRUSTRATED,30MonoWAV/30MonoF4.wav,1,2,2,4,,,,,1,8,24,3,0,1,1,3,,,,,,,,,1,0.6368348799878731,039,001,2019_May_16_1518,MusicAffectPsychophysiology2019,3.0.5,59.822100317209234,
To what extent did the music make you feel ,EXCITED,30MonoWAV/30MonoF4.wav,1,2,2,4,,,,,1,8,24,3,0,2,2,7,,,,,,,,,1,1.7525717679818626,039,001,2019_May_16_1518,MusicAffectPsychophysiology2019,3.0.5,59.822100317209234,
To what extent did the music make you feel ,HAPPY,30MonoWAV/30MonoF4.wav,1,2,2,4,,,,,1,8,24,3,0,3,3,6,,,,,,,,,1,0.9517253919912037,039,001,2019_May_16_1518,MusicAffectPsychophysiology2019,3.0.5,59.822100317209234,
To what extent did the music make you feel ,SAD,30MonoWAV/30MonoF4.wav,1,2,2,4,,,,,1,8,24,3,0,4,4,0,,,,,,,,,1,0.7018222539918497,039,001,2019_May_16_1518,MusicAffectPsychophysiology2019,3.0.5,59.822100317209234,
To what extent did the music make you feel ,ASHAMED,30MonoWAV/30MonoF4.wav,1,2,2,4,,,,,1,8,24,3,0,5,5,4,,,,,,,,,1,0.6188283269875683,039,001,2019_May_16_1518,MusicAffectPsychophysiology2019,3.0.5,59.822100317209234,
To what extent did the music make you feel ,GUILTY,30MonoWAV/30MonoF4.wav,1,2,2,4,,,,,1,8,24,3,0,6,6,5,,,,,,,,,1,0.952094087988371,039,001,2019_May_16_1518,MusicAffectPsychophysiology2019,3.0.5,59.822100317209234,
To what extent did the music make you feel ,ANGRY,30MonoWAV/30MonoF4.wav,1,2,2,4,,,,,1,8,24,3,0,7,7,2,,,,,,,,,1,1.0676939919940196,039,001,2019_May_16_1518,MusicAffectPsychophysiology2019,3.0.5,59.822100317209234,
To what extent did the music make you feel ,ACTIVE,30MonoWAV/30MonoF4.wav,1,2,2,4,,,,,1,8,24,3,0,8,8,9,,,,,,,,,2,1.7162820630182978,039,001,2019_May_16_1518,MusicAffectPsychophysiology2019,3.0.5,59.822100317209234,
To what extent did the music make you feel ,ANXIOUS ,30MonoWAV/30MonoF4.wav,1,2,2,4,,,,,1,8,24,3,0,9,9,1,,,,,,,,,1,1.6182073749951087,039,001,2019_May_16_1518,MusicAffectPsychophysiology2019,3.0.5,59.822100317209234,
To what extent did the music make you feel ,TENDER,30MonoWAV/30MonoF4.wav,1,2,2,4,,,,,1,8,24,3,0,10,10,10,,,,,,,,,1,1.085752647020854,039,001,2019_May_16_1518,MusicAffectPsychophysiology2019,3.0.5,59.822100317209234,
To what extent did the music make you feel ,ALERT,30MonoWAV/30MonoF4.wav,1,2,2,4,,,,,1,8,24,3,0,11,11,8,,,,,,,,,3,1.3351948249910492,039,001,2019_May_16_1518,MusicAffectPsychophysiology2019,3.0.5,59.822100317209234,
,,30MonoWAV/30MonoF4.wav,1,2,2,4,,,,,1,8,24,3,,,,,,,,,,,,,,,039,001,2019_May_16_1518,MusicAffectPsychophysiology2019,3.0.5,59.822100317209234,
To what extent did the music make you feel ,EXCITED,30MonoWAV/30MonoF2.wav,1,2,2,2,,,,,1,9,25,1,0,0,0,7,,,1,3.151964828983182,1,2.4187453000049572,1,1.735965680971276,1,2.734649398975307,039,001,2019_May_16_1518,MusicAffectPsychophysiology2019,3.0.5,59.822100317209234,
To what extent did the music make you feel ,ALERT,30MonoWAV/30MonoF2.wav,1,2,2,2,,,,,1,9,25,1,0,1,1,8,,,,,,,,,2,1.318172978993971,039,001,2019_May_16_1518,MusicAffectPsychophysiology2019,3.0.5,59.822100317209234,
To what extent did the music make you feel ,GUILTY,30MonoWAV/30MonoF2.wav,1,2,2,2,,,,,1,9,25,1,0,2,2,5,,,,,,,,,1,1.6522092420200352,039,001,2019_May_16_1518,MusicAffectPsychophysiology2019,3.0.5,59.822100317209234,
To what extent did the music make you feel ,ANGRY,30MonoWAV/30MonoF2.wav,1,2,2,2,,,,,1,9,25,1,0,3,3,2,,,,,,,,,1,1.051397953007836,039,001,2019_May_16_1518,MusicAffectPsychophysiology2019,3.0.5,59.822100317209234,
To what extent did the music make you feel ,SAD,30MonoWAV/30MonoF2.wav,1,2,2,2,,,,,1,9,25,1,0,4,4,0,,,,,,,,,1,0.9681067460041959,039,001,2019_May_16_1518,MusicAffectPsychophysiology2019,3.0.5,59.822100317209234,
To what extent did the music make you feel ,TENDER,30MonoWAV/30MonoF2.wav,1,2,2,2,,,,,1,9,25,1,0,5,5,10,,,,,,,,,1,0.7347720469988417,039,001,2019_May_16_1518,MusicAffectPsychophysiology2019,3.0.5,59.822100317209234,
To what extent did the music make you feel ,HAPPY,30MonoWAV/30MonoF2.wav,1,2,2,2,,,,,1,9,25,1,0,6,6,6,,,,,,,,,1,0.6689257410180289,039,001,2019_May_16_1518,MusicAffectPsychophysiology2019,3.0.5,59.822100317209234,
To what extent did the music make you feel ,FRUSTRATED,30MonoWAV/30MonoF2.wav,1,2,2,2,,,,,1,9,25,1,0,7,7,3,,,,,,,,,1,0.7012953239900526,039,001,2019_May_16_1518,MusicAffectPsychophysiology2019,3.0.5,59.822100317209234,
To what extent did the music make you feel ,ASHAMED,30MonoWAV/30MonoF2.wav,1,2,2,2,,,,,1,9,25,1,0,8,8,4,,,,,,,,,1,0.5852205889823381,039,001,2019_May_16_1518,MusicAffectPsychophysiology2019,3.0.5,59.822100317209234,
To what extent did the music make you feel ,ANXIOUS ,30MonoWAV/30MonoF2.wav,1,2,2,2,,,,,1,9,25,1,0,9,9,1,,,,,,,,,1,0.9032037550059613,039,001,2019_May_16_1518,MusicAffectPsychophysiology2019,3.0.5,59.822100317209234,
To what extent did the music make you feel ,ACTIVE,30MonoWAV/30MonoF2.wav,1,2,2,2,,,,,1,9,25,1,0,10,10,9,,,,,,,,,2,1.3186271149897948,039,001,2019_May_16_1518,MusicAffectPsychophysiology2019,3.0.5,59.822100317209234,
To what extent did the music make you feel ,SCARED,30MonoWAV/30MonoF2.wav,1,2,2,2,,,,,1,9,25,1,0,11,11,11,,,,,,,,,1,1.2351864590018522,039,001,2019_May_16_1518,MusicAffectPsychophysiology2019,3.0.5,59.822100317209234,
,,30MonoWAV/30MonoF2.wav,1,2,2,2,,,,,1,9,25,1,,,,,,,,,,,,,,,039,001,2019_May_16_1518,MusicAffectPsychophysiology2019,3.0.5,59.822100317209234,
To what extent did the music make you feel ,SCARED,30MonoWAV/30MonoS2.wav,1,1,3,10,,,,,1,10,26,9,0,0,0,11,,,1,12.9982189059956,1,2.334505627019098,2,2.1512582289869897,1,1.8522483209962957,039,001,2019_May_16_1518,MusicAffectPsychophysiology2019,3.0.5,59.822100317209234,
To what extent did the music make you feel ,ANGRY,30MonoWAV/30MonoS2.wav,1,1,3,10,,,,,1,10,26,9,0,1,1,2,,,,,,,,,1,1.4183921549993102,039,001,2019_May_16_1518,MusicAffectPsychophysiology2019,3.0.5,59.822100317209234,
To what extent did the music make you feel ,TENDER,30MonoWAV/30MonoS2.wav,1,1,3,10,,,,,1,10,26,9,0,2,2,10,,,,,,,,,2,1.7026818250014912,039,001,2019_May_16_1518,MusicAffectPsychophysiology2019,3.0.5,59.822100317209234,
To what extent did the music make you feel ,ASHAMED,30MonoWAV/30MonoS2.wav,1,1,3,10,,,,,1,10,26,9,0,3,3,4,,,,,,,,,1,1.118963265005732,039,001,2019_May_16_1518,MusicAffectPsychophysiology2019,3.0.5,59.822100317209234,
To what extent did the music make you feel ,SAD,30MonoWAV/30MonoS2.wav,1,1,3,10,,,,,1,10,26,9,0,4,4,0,,,,,,,,,2,1.749862956989091,039,001,2019_May_16_1518,MusicAffectPsychophysiology2019,3.0.5,59.822100317209234,
To what extent did the music make you feel ,GUILTY,30MonoWAV/30MonoS2.wav,1,1,3,10,,,,,1,10,26,9,0,5,5,5,,,,,,,,,1,0.7840119650063571,039,001,2019_May_16_1518,MusicAffectPsychophysiology2019,3.0.5,59.822100317209234,
To what extent did the music make you feel ,ACTIVE,30MonoWAV/30MonoS2.wav,1,1,3,10,,,,,1,10,26,9,0,6,6,9,,,,,,,,,1,0.9197088979999535,039,001,2019_May_16_1518,MusicAffectPsychophysiology2019,3.0.5,59.822100317209234,
To what extent did the music make you feel ,ANXIOUS ,30MonoWAV/30MonoS2.wav,1,1,3,10,,,,,1,10,26,9,0,7,7,1,,,,,,,,,1,0.485611581010744,039,001,2019_May_16_1518,MusicAffectPsychophysiology2019,3.0.5,59.822100317209234,
To what extent did the music make you feel ,FRUSTRATED,30MonoWAV/30MonoS2.wav,1,1,3,10,,,,,1,10,26,9,0,8,8,3,,,,,,,,,1,0.4515852330077905,039,001,2019_May_16_1518,MusicAffectPsychophysiology2019,3.0.5,59.822100317209234,
To what extent did the music make you feel ,ALERT,30MonoWAV/30MonoS2.wav,1,1,3,10,,,,,1,10,26,9,0,9,9,8,,,,,,,,,1,0.9521666110085789,039,001,2019_May_16_1518,MusicAffectPsychophysiology2019,3.0.5,59.822100317209234,
To what extent did the music make you feel ,EXCITED,30MonoWAV/30MonoS2.wav,1,1,3,10,,,,,1,10,26,9,0,10,10,7,,,,,,,,,1,0.7347636729828082,039,001,2019_May_16_1518,MusicAffectPsychophysiology2019,3.0.5,59.822100317209234,
To what extent did the music make you feel ,HAPPY,30MonoWAV/30MonoS2.wav,1,1,3,10,,,,,1,10,26,9,0,11,11,6,,,,,,,,,1,0.601881679991493,039,001,2019_May_16_1518,MusicAffectPsychophysiology2019,3.0.5,59.822100317209234,
,,30MonoWAV/30MonoS2.wav,1,1,3,10,,,,,1,10,26,9,,,,,,,,,,,,,,,039,001,2019_May_16_1518,MusicAffectPsychophysiology2019,3.0.5,59.822100317209234,
To what extent did the music make you feel ,SCARED,30MonoWAV/30MonoS3.wav,1,1,3,11,,,,,1,11,27,10,0,0,0,11,,,2,9.685983895004028,1,3.0933638910064474,2,1.3370200609788299,1,1.0846902609919198,039,001,2019_May_16_1518,MusicAffectPsychophysiology2019,3.0.5,59.822100317209234,
To what extent did the music make you feel ,ALERT,30MonoWAV/30MonoS3.wav,1,1,3,11,,,,,1,11,27,10,0,1,1,8,,,,,,,,,2,0.8849585610150825,039,001,2019_May_16_1518,MusicAffectPsychophysiology2019,3.0.5,59.822100317209234,
To what extent did the music make you feel ,HAPPY,30MonoWAV/30MonoS3.wav,1,1,3,11,,,,,1,11,27,10,0,2,2,6,,,,,,,,,1,0.8856695029826369,039,001,2019_May_16_1518,MusicAffectPsychophysiology2019,3.0.5,59.822100317209234,
To what extent did the music make you feel ,SAD,30MonoWAV/30MonoS3.wav,1,1,3,11,,,,,1,11,27,10,0,3,3,0,,,,,,,,,1,0.7173377030121628,039,001,2019_May_16_1518,MusicAffectPsychophysiology2019,3.0.5,59.822100317209234,
To what extent did the music make you feel ,ASHAMED,30MonoWAV/30MonoS3.wav,1,1,3,11,,,,,1,11,27,10,0,4,4,4,,,,,,,,,1,0.8692783169972245,039,001,2019_May_16_1518,MusicAffectPsychophysiology2019,3.0.5,59.822100317209234,
To what extent did the music make you feel ,ANXIOUS ,30MonoWAV/30MonoS3.wav,1,1,3,11,,,,,1,11,27,10,0,5,5,1,,,,,,,,,1,0.8668199439998716,039,001,2019_May_16_1518,MusicAffectPsychophysiology2019,3.0.5,59.822100317209234,
To what extent did the music make you feel ,FRUSTRATED,30MonoWAV/30MonoS3.wav,1,1,3,11,,,,,1,11,27,10,0,6,6,3,,,,,,,,,1,0.6521618510014378,039,001,2019_May_16_1518,MusicAffectPsychophysiology2019,3.0.5,59.822100317209234,
To what extent did the music make you feel ,GUILTY,30MonoWAV/30MonoS3.wav,1,1,3,11,,,,,1,11,27,10,0,7,7,5,,,,,,,,,1,0.6026312670146581,039,001,2019_May_16_1518,MusicAffectPsychophysiology2019,3.0.5,59.822100317209234,
To what extent did the music make you feel ,ANGRY,30MonoWAV/30MonoS3.wav,1,1,3,11,,,,,1,11,27,10,0,8,8,2,,,,,,,,,1,0.5520968869968783,039,001,2019_May_16_1518,MusicAffectPsychophysiology2019,3.0.5,59.822100317209234,
To what extent did the music make you feel ,TENDER,30MonoWAV/30MonoS3.wav,1,1,3,11,,,,,1,11,27,10,0,9,9,10,,,,,,,,,1,0.6858041009982117,039,001,2019_May_16_1518,MusicAffectPsychophysiology2019,3.0.5,59.822100317209234,
To what extent did the music make you feel ,EXCITED,30MonoWAV/30MonoS3.wav,1,1,3,11,,,,,1,11,27,10,0,10,10,7,,,,,,,,,1,0.8856732709973585,039,001,2019_May_16_1518,MusicAffectPsychophysiology2019,3.0.5,59.822100317209234,
To what extent did the music make you feel ,ACTIVE,30MonoWAV/30MonoS3.wav,1,1,3,11,,,,,1,11,27,10,0,11,11,9,,,,,,,,,1,0.718340717983665,039,001,2019_May_16_1518,MusicAffectPsychophysiology2019,3.0.5,59.822100317209234,
,,30MonoWAV/30MonoS3.wav,1,1,3,11,,,,,1,11,27,10,,,,,,,,,,,,,,,039,001,2019_May_16_1518,MusicAffectPsychophysiology2019,3.0.5,59.822100317209234,
To what extent did the music make you feel ,SAD,30MonoWAV/30MonoH2.wav,2,2,1,6,,,,,1,12,28,5,0,0,0,0,,,1,20.714708555984544,1,1.2850121530063916,1,2.6179871409840416,1,2.685038823983632,039,001,2019_May_16_1518,MusicAffectPsychophysiology2019,3.0.5,59.822100317209234,
To what extent did the music make you feel ,ACTIVE,30MonoWAV/30MonoH2.wav,2,2,1,6,,,,,1,12,28,5,0,1,1,9,,,,,,,,,1,0.5355607160017826,039,001,2019_May_16_1518,MusicAffectPsychophysiology2019,3.0.5,59.822100317209234,
To what extent did the music make you feel ,SCARED,30MonoWAV/30MonoH2.wav,2,2,1,6,,,,,1,12,28,5,0,2,2,11,,,,,,,,,1,0.23547998600406572,039,001,2019_May_16_1518,MusicAffectPsychophysiology2019,3.0.5,59.822100317209234,
To what extent did the music make you feel ,FRUSTRATED,30MonoWAV/30MonoH2.wav,2,2,1,6,,,,,1,12,28,5,0,3,3,3,,,,,,,,,1,0.16676864298642613,039,001,2019_May_16_1518,MusicAffectPsychophysiology2019,3.0.5,59.822100317209234,
To what extent did the music make you feel ,HAPPY,30MonoWAV/30MonoH2.wav,2,2,1,6,,,,,1,12,28,5,0,4,4,6,,,,,,,,,1,0.11809966099099256,039,001,2019_May_16_1518,MusicAffectPsychophysiology2019,3.0.5,59.822100317209234,
To what extent did the music make you feel ,EXCITED,30MonoWAV/30MonoH2.wav,2,2,1,6,,,,,1,12,28,5,0,5,5,7,,,,,,,,,1,0.11789302300894633,039,001,2019_May_16_1518,MusicAffectPsychophysiology2019,3.0.5,59.822100317209234,
To what extent did the music make you feel ,GUILTY,30MonoWAV/30MonoH2.wav,2,2,1,6,,,,,1,12,28,5,0,6,6,5,,,,,,,,,1,0.08541894200607203,039,001,2019_May_16_1518,MusicAffectPsychophysiology2019,3.0.5,59.822100317209234,
To what extent did the music make you feel ,ALERT,30MonoWAV/30MonoH2.wav,2,2,1,6,,,,,1,12,28,5,0,7,7,8,,,,,,,,,1,0.11826979200122878,039,001,2019_May_16_1518,MusicAffectPsychophysiology2019,3.0.5,59.822100317209234,
To what extent did the music make you feel ,ANXIOUS ,30MonoWAV/30MonoH2.wav,2,2,1,6,,,,,1,12,28,5,0,8,8,1,,,,,,,,,1,0.40192429200396873,039,001,2019_May_16_1518,MusicAffectPsychophysiology2019,3.0.5,59.822100317209234,
To what extent did the music make you feel ,TENDER,30MonoWAV/30MonoH2.wav,2,2,1,6,,,,,1,12,28,5,0,9,9,10,,,,,,,,,1,0.31797165001626126,039,001,2019_May_16_1518,MusicAffectPsychophysiology2019,3.0.5,59.822100317209234,
To what extent did the music make you feel ,ANGRY,30MonoWAV/30MonoH2.wav,2,2,1,6,,,,,1,12,28,5,0,10,10,2,,,,,,,,,1,0.535898766014725,039,001,2019_May_16_1518,MusicAffectPsychophysiology2019,3.0.5,59.822100317209234,
To what extent did the music make you feel ,ASHAMED,30MonoWAV/30MonoH2.wav,2,2,1,6,,,,,1,12,28,5,0,11,11,4,,,,,,,,,1,0.45195653301198035,039,001,2019_May_16_1518,MusicAffectPsychophysiology2019,3.0.5,59.822100317209234,
,,30MonoWAV/30MonoH2.wav,2,2,1,6,,,,,1,12,28,5,,,,,,,,,,,,,,,039,001,2019_May_16_1518,MusicAffectPsychophysiology2019,3.0.5,59.822100317209234,
To what extent did the music make you feel ,HAPPY,30MonoWAV/30MonoT4.wav,2,1,4,16,,,,,1,13,29,15,0,0,0,6,,,1,4.225538858998334,1,1.3366160820005462,2,1.5363409009878524,2,1.0699489539838396,039,001,2019_May_16_1518,MusicAffectPsychophysiology2019,3.0.5,59.822100317209234,
To what extent did the music make you feel ,SAD,30MonoWAV/30MonoT4.wav,2,1,4,16,,,,,1,13,29,15,0,1,1,0,,,,,,,,,1,0.7861983009788673,039,001,2019_May_16_1518,MusicAffectPsychophysiology2019,3.0.5,59.822100317209234,
To what extent did the music make you feel ,ALERT,30MonoWAV/30MonoT4.wav,2,1,4,16,,,,,1,13,29,15,0,2,2,8,,,,,,,,,1,0.8413352060015313,039,001,2019_May_16_1518,MusicAffectPsychophysiology2019,3.0.5,59.822100317209234,
To what extent did the music make you feel ,EXCITED,30MonoWAV/30MonoT4.wav,2,1,4,16,,,,,1,13,29,15,0,3,3,7,,,,,,,,,1,0.9684812510095071,039,001,2019_May_16_1518,MusicAffectPsychophysiology2019,3.0.5,59.822100317209234,
To what extent did the music make you feel ,GUILTY,30MonoWAV/30MonoT4.wav,2,1,4,16,,,,,1,13,29,15,0,4,4,5,,,,,,,,,1,0.6013285779918078,039,001,2019_May_16_1518,MusicAffectPsychophysiology2019,3.0.5,59.822100317209234,
To what extent did the music make you feel ,ASHAMED,30MonoWAV/30MonoT4.wav,2,1,4,16,,,,,1,13,29,15,0,5,5,4,,,,,,,,,1,0.4347852320061065,039,001,2019_May_16_1518,MusicAffectPsychophysiology2019,3.0.5,59.822100317209234,
To what extent did the music make you feel ,ANXIOUS ,30MonoWAV/30MonoT4.wav,2,1,4,16,,,,,1,13,29,15,0,6,6,1,,,,,,,,,1,0.5698361719842069,039,001,2019_May_16_1518,MusicAffectPsychophysiology2019,3.0.5,59.822100317209234,
To what extent did the music make you feel ,ACTIVE,30MonoWAV/30MonoT4.wav,2,1,4,16,,,,,1,13,29,15,0,7,7,9,,,,,,,,,1,1.385455176990945,039,001,2019_May_16_1518,MusicAffectPsychophysiology2019,3.0.5,59.822100317209234,
To what extent did the music make you feel ,TENDER,30MonoWAV/30MonoT4.wav,2,1,4,16,,,,,1,13,29,15,0,8,8,10,,,,,,,,,2,0.8682660210179165,039,001,2019_May_16_1518,MusicAffectPsychophysiology2019,3.0.5,59.822100317209234,
To what extent did the music make you feel ,FRUSTRATED,30MonoWAV/30MonoT4.wav,2,1,4,16,,,,,1,13,29,15,0,9,9,3,,,,,,,,,1,0.5515228240110446,039,001,2019_May_16_1518,MusicAffectPsychophysiology2019,3.0.5,59.822100317209234,
To what extent did the music make you feel ,ANGRY,30MonoWAV/30MonoT4.wav,2,1,4,16,,,,,1,13,29,15,0,10,10,2,,,,,,,,,1,0.6350940529955551,039,001,2019_May_16_1518,MusicAffectPsychophysiology2019,3.0.5,59.822100317209234,
To what extent did the music make you feel ,SCARED,30MonoWAV/30MonoT4.wav,2,1,4,16,,,,,1,13,29,15,0,11,11,11,,,,,,,,,1,0.7018629609956406,039,001,2019_May_16_1518,MusicAffectPsychophysiology2019,3.0.5,59.822100317209234,
,,30MonoWAV/30MonoT4.wav,2,1,4,16,,,,,1,13,29,15,,,,,,,,,,,,,,,039,001,2019_May_16_1518,MusicAffectPsychophysiology2019,3.0.5,59.822100317209234,
To what extent did the music make you feel ,SAD,30MonoWAV/30MonoS4.wav,1,1,3,12,,,,,1,14,30,11,0,0,0,0,,,1,3.975353611022001,1,2.4353352279867977,2,1.8356120740063488,1,3.12525282902061,039,001,2019_May_16_1518,MusicAffectPsychophysiology2019,3.0.5,59.822100317209234,
To what extent did the music make you feel ,ASHAMED,30MonoWAV/30MonoS4.wav,1,1,3,12,,,,,1,14,30,11,0,1,1,4,,,,,,,,,1,0.5687181240064092,039,001,2019_May_16_1518,MusicAffectPsychophysiology2019,3.0.5,59.822100317209234,
To what extent did the music make you feel ,TENDER,30MonoWAV/30MonoS4.wav,1,1,3,12,,,,,1,14,30,11,0,2,2,10,,,,,,,,,1,0.385351831006119,039,001,2019_May_16_1518,MusicAffectPsychophysiology2019,3.0.5,59.822100317209234,
To what extent did the music make you feel ,ALERT,30MonoWAV/30MonoS4.wav,1,1,3,12,,,,,1,14,30,11,0,3,3,8,,,,,,,,,1,0.7524302450183313,039,001,2019_May_16_1518,MusicAffectPsychophysiology2019,3.0.5,59.822100317209234,
To what extent did the music make you feel ,SCARED,30MonoWAV/30MonoS4.wav,1,1,3,12,,,,,1,14,30,11,0,4,4,11,,,,,,,,,1,0.5023935539938975,039,001,2019_May_16_1518,MusicAffectPsychophysiology2019,3.0.5,59.822100317209234,
To what extent did the music make you feel ,ACTIVE,30MonoWAV/30MonoS4.wav,1,1,3,12,,,,,1,14,30,11,0,5,5,9,,,,,,,,,1,0.7526797399914358,039,001,2019_May_16_1518,MusicAffectPsychophysiology2019,3.0.5,59.822100317209234,
To what extent did the music make you feel ,ANGRY,30MonoWAV/30MonoS4.wav,1,1,3,12,,,,,1,14,30,11,0,6,6,2,,,,,,,,,1,0.3855198140081484,039,001,2019_May_16_1518,MusicAffectPsychophysiology2019,3.0.5,59.822100317209234,
To what extent did the music make you feel ,HAPPY,30MonoWAV/30MonoS4.wav,1,1,3,12,,,,,1,14,30,11,0,7,7,6,,,,,,,,,1,0.4016794879862573,039,001,2019_May_16_1518,MusicAffectPsychophysiology2019,3.0.5,59.822100317209234,
To what extent did the music make you feel ,GUILTY,30MonoWAV/30MonoS4.wav,1,1,3,12,,,,,1,14,30,11,0,8,8,5,,,,,,,,,1,0.3030429490027018,039,001,2019_May_16_1518,MusicAffectPsychophysiology2019,3.0.5,59.822100317209234,
To what extent did the music make you feel ,ANXIOUS ,30MonoWAV/30MonoS4.wav,1,1,3,12,,,,,1,14,30,11,0,9,9,1,,,,,,,,,1,0.3025875870080199,039,001,2019_May_16_1518,MusicAffectPsychophysiology2019,3.0.5,59.822100317209234,
To what extent did the music make you feel ,EXCITED,30MonoWAV/30MonoS4.wav,1,1,3,12,,,,,1,14,30,11,0,10,10,7,,,,,,,,,1,0.2890270750212949,039,001,2019_May_16_1518,MusicAffectPsychophysiology2019,3.0.5,59.822100317209234,
To what extent did the music make you feel ,FRUSTRATED,30MonoWAV/30MonoS4.wav,1,1,3,12,,,,,1,14,30,11,0,11,11,3,,,,,,,,,1,0.3185258209996391,039,001,2019_May_16_1518,MusicAffectPsychophysiology2019,3.0.5,59.822100317209234,
,,30MonoWAV/30MonoS4.wav,1,1,3,12,,,,,1,14,30,11,,,,,,,,,,,,,,,039,001,2019_May_16_1518,MusicAffectPsychophysiology2019,3.0.5,59.822100317209234,
To what extent did the music make you feel ,FRUSTRATED,30MonoWAV/30MonoT2.wav,2,1,4,14,,,,,1,15,31,13,0,0,0,3,,,1,11.733256200008327,1,3.252447615028359,2,2.8179090679914225,1,0.6852709930099081,039,001,2019_May_16_1518,MusicAffectPsychophysiology2019,3.0.5,59.822100317209234,
To what extent did the music make you feel ,SCARED,30MonoWAV/30MonoT2.wav,2,1,4,14,,,,,1,15,31,13,0,1,1,11,,,,,,,,,1,0.3352777550171595,039,001,2019_May_16_1518,MusicAffectPsychophysiology2019,3.0.5,59.822100317209234,
To what extent did the music make you feel ,ACTIVE,30MonoWAV/30MonoT2.wav,2,1,4,14,,,,,1,15,31,13,0,2,2,9,,,,,,,,,1,0.36838156200246885,039,001,2019_May_16_1518,MusicAffectPsychophysiology2019,3.0.5,59.822100317209234,
To what extent did the music make you feel ,HAPPY,30MonoWAV/30MonoT2.wav,2,1,4,14,,,,,1,15,31,13,0,3,3,6,,,,,,,,,1,0.5011080830008723,039,001,2019_May_16_1518,MusicAffectPsychophysiology2019,3.0.5,59.822100317209234,
To what extent did the music make you feel ,EXCITED,30MonoWAV/30MonoT2.wav,2,1,4,14,,,,,1,15,31,13,0,4,4,7,,,,,,,,,1,0.3187250059854705,039,001,2019_May_16_1518,MusicAffectPsychophysiology2019,3.0.5,59.822100317209234,
To what extent did the music make you feel ,GUILTY,30MonoWAV/30MonoT2.wav,2,1,4,14,,,,,1,15,31,13,0,5,5,5,,,,,,,,,1,0.5518514910072554,039,001,2019_May_16_1518,MusicAffectPsychophysiology2019,3.0.5,59.822100317209234,
To what extent did the music make you feel ,ALERT,30MonoWAV/30MonoT2.wav,2,1,4,14,,,,,1,15,31,13,0,6,6,8,,,,,,,,,1,0.43602353101596236,039,001,2019_May_16_1518,MusicAffectPsychophysiology2019,3.0.5,59.822100317209234,
To what extent did the music make you feel ,TENDER,30MonoWAV/30MonoT2.wav,2,1,4,14,,,,,1,15,31,13,0,7,7,10,,,,,,,,,1,0.4021576209925115,039,001,2019_May_16_1518,MusicAffectPsychophysiology2019,3.0.5,59.822100317209234,
To what extent did the music make you feel ,ASHAMED,30MonoWAV/30MonoT2.wav,2,1,4,14,,,,,1,15,31,13,0,8,8,4,,,,,,,,,1,0.3689139969937969,039,001,2019_May_16_1518,MusicAffectPsychophysiology2019,3.0.5,59.822100317209234,
To what extent did the music make you feel ,SAD,30MonoWAV/30MonoT2.wav,2,1,4,14,,,,,1,15,31,13,0,9,9,0,,,,,,,,,1,0.33465505798812956,039,001,2019_May_16_1518,MusicAffectPsychophysiology2019,3.0.5,59.822100317209234,
To what extent did the music make you feel ,ANXIOUS ,30MonoWAV/30MonoT2.wav,2,1,4,14,,,,,1,15,31,13,0,10,10,1,,,,,,,,,1,0.33440403500571847,039,001,2019_May_16_1518,MusicAffectPsychophysiology2019,3.0.5,59.822100317209234,
To what extent did the music make you feel ,ANGRY,30MonoWAV/30MonoT2.wav,2,1,4,14,,,,,1,15,31,13,0,11,11,2,,,,,,,,,1,0.4522117309970781,039,001,2019_May_16_1518,MusicAffectPsychophysiology2019,3.0.5,59.822100317209234,
,,30MonoWAV/30MonoT2.wav,2,1,4,14,,,,,1,15,31,13,,,,,,,,,,,,,,,039,001,2019_May_16_1518,MusicAffectPsychophysiology2019,3.0.5,59.822100317209234,
