Instruction,Word,song,valence,arousal,affectcat,songmark,pracwords.thisRepN,pracwords.thisTrialN,pracwords.thisN,pracwords.thisIndex,songtrials.thisRepN,songtrials.thisTrialN,songtrials.thisN,songtrials.thisIndex,words.thisRepN,words.thisTrialN,words.thisN,words.thisIndex,begin.keys,begin.rt,arousalkey.keys,arousalkey.rt,valencekey.keys,valencekey.rt,likekey.keys,likekey.rt,WordResponse.keys,WordResponse.rt,key_resp_2.keys,key_resp_2.rt,participant,session,date,expName,psychopyVersion,frameRate,
,,,,,,,,,,,,,,,,,,,space,9.858577795996098,,,,,,,,,,,040,001,2019_May_17_0911,MusicAffectPsychophysiology2019,3.0.5,59.93484734205069,
,,,,,,,,,,,,,,,,,,,,,1,5.767931448004674,,,,,,,,,040,001,2019_May_17_0911,MusicAffectPsychophysiology2019,3.0.5,59.93484734205069,
,,,,,,,,,,,,,,,,,,,,,,,2,6.023817590001272,,,,,,,040,001,2019_May_17_0911,MusicAffectPsychophysiology2019,3.0.5,59.93484734205069,
,,,,,,,,,,,,,,,,,,,,,,,,,2,2.3715203900064807,,,,,040,001,2019_May_17_0911,MusicAffectPsychophysiology2019,3.0.5,59.93484734205069,
To what extent did the music make you feel ,SAD,,,,,,0,0,0,0,,,,,,,,,,,,,,,,,4,6.330751016008435,,,040,001,2019_May_17_0911,MusicAffectPsychophysiology2019,3.0.5,59.93484734205069,
To what extent did the music make you feel ,FRUSTRATED,,,,,,0,1,1,3,,,,,,,,,,,,,,,,,1,2.052963805006584,,,040,001,2019_May_17_0911,MusicAffectPsychophysiology2019,3.0.5,59.93484734205069,
To what extent did the music make you feel ,EXCITED,,,,,,0,2,2,7,,,,,,,,,,,,,,,,,2,1.2838795110001229,,,040,001,2019_May_17_0911,MusicAffectPsychophysiology2019,3.0.5,59.93484734205069,
To what extent did the music make you feel ,ANGRY,,,,,,0,3,3,2,,,,,,,,,,,,,,,,,1,1.1849778130126651,,,040,001,2019_May_17_0911,MusicAffectPsychophysiology2019,3.0.5,59.93484734205069,
To what extent did the music make you feel ,SCARED,,,,,,0,4,4,11,,,,,,,,,,,,,,,,,1,1.0505677280016243,,,040,001,2019_May_17_0911,MusicAffectPsychophysiology2019,3.0.5,59.93484734205069,
To what extent did the music make you feel ,ASHAMED,,,,,,0,5,5,4,,,,,,,,,,,,,,,,,1,1.2354158929956611,,,040,001,2019_May_17_0911,MusicAffectPsychophysiology2019,3.0.5,59.93484734205069,
To what extent did the music make you feel ,ACTIVE,,,,,,0,6,6,9,,,,,,,,,,,,,,,,,3,2.985651048977161,,,040,001,2019_May_17_0911,MusicAffectPsychophysiology2019,3.0.5,59.93484734205069,
To what extent did the music make you feel ,ALERT,,,,,,0,7,7,8,,,,,,,,,,,,,,,,,1,1.217243253980996,,,040,001,2019_May_17_0911,MusicAffectPsychophysiology2019,3.0.5,59.93484734205069,
To what extent did the music make you feel ,TENDER,,,,,,0,8,8,10,,,,,,,,,,,,,,,,,2,3.618081822001841,,,040,001,2019_May_17_0911,MusicAffectPsychophysiology2019,3.0.5,59.93484734205069,
To what extent did the music make you feel ,ANXIOUS ,,,,,,0,9,9,1,,,,,,,,,,,,,,,,,1,0.9850265980057884,,,040,001,2019_May_17_0911,MusicAffectPsychophysiology2019,3.0.5,59.93484734205069,
To what extent did the music make you feel ,HAPPY,,,,,,0,10,10,6,,,,,,,,,,,,,,,,,3,1.4354099830088671,,,040,001,2019_May_17_0911,MusicAffectPsychophysiology2019,3.0.5,59.93484734205069,
To what extent did the music make you feel ,GUILTY,,,,,,0,11,11,5,,,,,,,,,,,,,,,,,1,1.051878027006751,,,040,001,2019_May_17_0911,MusicAffectPsychophysiology2019,3.0.5,59.93484734205069,
To what extent did the music make you feel ,SCARED,30MonoWAV/30MonoS1.wav,1,1,3,9,,,,,0,0,0,8,0,0,0,11,,,3,3.7853556699992623,3,2.56863923399942,4,3.367862167011481,1,1.2393809130007867,,,040,001,2019_May_17_0911,MusicAffectPsychophysiology2019,3.0.5,59.93484734205069,
To what extent did the music make you feel ,ANGRY,30MonoWAV/30MonoS1.wav,1,1,3,9,,,,,0,0,0,8,0,1,1,2,,,,,,,,,1,1.1021164540143218,,,040,001,2019_May_17_0911,MusicAffectPsychophysiology2019,3.0.5,59.93484734205069,
To what extent did the music make you feel ,ASHAMED,30MonoWAV/30MonoS1.wav,1,1,3,9,,,,,0,0,0,8,0,2,2,4,,,,,,,,,1,0.7670938100200146,,,040,001,2019_May_17_0911,MusicAffectPsychophysiology2019,3.0.5,59.93484734205069,
To what extent did the music make you feel ,HAPPY,30MonoWAV/30MonoS1.wav,1,1,3,9,,,,,0,0,0,8,0,3,3,6,,,,,,,,,4,2.2866207739862148,,,040,001,2019_May_17_0911,MusicAffectPsychophysiology2019,3.0.5,59.93484734205069,
To what extent did the music make you feel ,SAD,30MonoWAV/30MonoS1.wav,1,1,3,9,,,,,0,0,0,8,0,4,4,0,,,,,,,,,1,1.051293086988153,,,040,001,2019_May_17_0911,MusicAffectPsychophysiology2019,3.0.5,59.93484734205069,
To what extent did the music make you feel ,ANXIOUS ,30MonoWAV/30MonoS1.wav,1,1,3,9,,,,,0,0,0,8,0,5,5,1,,,,,,,,,1,1.322819323017029,,,040,001,2019_May_17_0911,MusicAffectPsychophysiology2019,3.0.5,59.93484734205069,
To what extent did the music make you feel ,EXCITED,30MonoWAV/30MonoS1.wav,1,1,3,9,,,,,0,0,0,8,0,6,6,7,,,,,,,,,3,1.1850135950080585,,,040,001,2019_May_17_0911,MusicAffectPsychophysiology2019,3.0.5,59.93484734205069,
To what extent did the music make you feel ,TENDER,30MonoWAV/30MonoS1.wav,1,1,3,9,,,,,0,0,0,8,0,7,7,10,,,,,,,,,1,1.0534903990046587,,,040,001,2019_May_17_0911,MusicAffectPsychophysiology2019,3.0.5,59.93484734205069,
To what extent did the music make you feel ,GUILTY,30MonoWAV/30MonoS1.wav,1,1,3,9,,,,,0,0,0,8,0,8,8,5,,,,,,,,,1,0.952919645991642,,,040,001,2019_May_17_0911,MusicAffectPsychophysiology2019,3.0.5,59.93484734205069,
To what extent did the music make you feel ,FRUSTRATED,30MonoWAV/30MonoS1.wav,1,1,3,9,,,,,0,0,0,8,0,9,9,3,,,,,,,,,1,0.8867115259927232,,,040,001,2019_May_17_0911,MusicAffectPsychophysiology2019,3.0.5,59.93484734205069,
To what extent did the music make you feel ,ACTIVE,30MonoWAV/30MonoS1.wav,1,1,3,9,,,,,0,0,0,8,0,10,10,9,,,,,,,,,3,2.676123565994203,,,040,001,2019_May_17_0911,MusicAffectPsychophysiology2019,3.0.5,59.93484734205069,
To what extent did the music make you feel ,ALERT,30MonoWAV/30MonoS1.wav,1,1,3,9,,,,,0,0,0,8,0,11,11,8,,,,,,,,,4,2.101568596001016,,,040,001,2019_May_17_0911,MusicAffectPsychophysiology2019,3.0.5,59.93484734205069,
,,30MonoWAV/30MonoS1.wav,1,1,3,9,,,,,0,0,0,8,,,,,,,,,,,,,,,,,040,001,2019_May_17_0911,MusicAffectPsychophysiology2019,3.0.5,59.93484734205069,
To what extent did the music make you feel ,ACTIVE,30MonoWAV/30MonoT2.wav,2,1,4,14,,,,,0,1,1,13,0,0,0,9,,,4,7.7159041310078464,4,1.9676723669981584,4,1.5029221030126791,4,1.5524573239963502,,,040,001,2019_May_17_0911,MusicAffectPsychophysiology2019,3.0.5,59.93484734205069,
To what extent did the music make you feel ,ANGRY,30MonoWAV/30MonoT2.wav,2,1,4,14,,,,,0,1,1,13,0,1,1,2,,,,,,,,,1,1.2347034339909442,,,040,001,2019_May_17_0911,MusicAffectPsychophysiology2019,3.0.5,59.93484734205069,
To what extent did the music make you feel ,ALERT,30MonoWAV/30MonoT2.wav,2,1,4,14,,,,,0,1,1,13,0,2,2,8,,,,,,,,,4,1.9181712860008702,,,040,001,2019_May_17_0911,MusicAffectPsychophysiology2019,3.0.5,59.93484734205069,
To what extent did the music make you feel ,TENDER,30MonoWAV/30MonoT2.wav,2,1,4,14,,,,,0,1,1,13,0,3,3,10,,,,,,,,,2,1.1014759929967113,,,040,001,2019_May_17_0911,MusicAffectPsychophysiology2019,3.0.5,59.93484734205069,
To what extent did the music make you feel ,FRUSTRATED,30MonoWAV/30MonoT2.wav,2,1,4,14,,,,,0,1,1,13,0,4,4,3,,,,,,,,,1,0.9351840690069366,,,040,001,2019_May_17_0911,MusicAffectPsychophysiology2019,3.0.5,59.93484734205069,
To what extent did the music make you feel ,SAD,30MonoWAV/30MonoT2.wav,2,1,4,14,,,,,0,1,1,13,0,5,5,0,,,,,,,,,1,0.9178388649888802,,,040,001,2019_May_17_0911,MusicAffectPsychophysiology2019,3.0.5,59.93484734205069,
To what extent did the music make you feel ,SCARED,30MonoWAV/30MonoT2.wav,2,1,4,14,,,,,0,1,1,13,0,6,6,11,,,,,,,,,1,0.7693007909983862,,,040,001,2019_May_17_0911,MusicAffectPsychophysiology2019,3.0.5,59.93484734205069,
To what extent did the music make you feel ,GUILTY,30MonoWAV/30MonoT2.wav,2,1,4,14,,,,,0,1,1,13,0,7,7,5,,,,,,,,,1,0.6518759760074317,,,040,001,2019_May_17_0911,MusicAffectPsychophysiology2019,3.0.5,59.93484734205069,
To what extent did the music make you feel ,ASHAMED,30MonoWAV/30MonoT2.wav,2,1,4,14,,,,,0,1,1,13,0,8,8,4,,,,,,,,,1,1.5357286809885409,,,040,001,2019_May_17_0911,MusicAffectPsychophysiology2019,3.0.5,59.93484734205069,
To what extent did the music make you feel ,ANXIOUS ,30MonoWAV/30MonoT2.wav,2,1,4,14,,,,,0,1,1,13,0,9,9,1,,,,,,,,,1,1.46795049298089,,,040,001,2019_May_17_0911,MusicAffectPsychophysiology2019,3.0.5,59.93484734205069,
To what extent did the music make you feel ,EXCITED,30MonoWAV/30MonoT2.wav,2,1,4,14,,,,,0,1,1,13,0,10,10,7,,,,,,,,,4,1.3028220790147316,,,040,001,2019_May_17_0911,MusicAffectPsychophysiology2019,3.0.5,59.93484734205069,
To what extent did the music make you feel ,HAPPY,30MonoWAV/30MonoT2.wav,2,1,4,14,,,,,0,1,1,13,0,11,11,6,,,,,,,,,4,0.9178841190005187,,,040,001,2019_May_17_0911,MusicAffectPsychophysiology2019,3.0.5,59.93484734205069,
,,30MonoWAV/30MonoT2.wav,2,1,4,14,,,,,0,1,1,13,,,,,,,,,,,,,,,,,040,001,2019_May_17_0911,MusicAffectPsychophysiology2019,3.0.5,59.93484734205069,
To what extent did the music make you feel ,FRUSTRATED,30MonoWAV/30MonoT1.wav,2,1,4,13,,,,,0,2,2,12,0,0,0,3,,,3,3.184663599997293,4,1.8020445139845833,3,1.7357825060025789,1,1.1028509499737993,,,040,001,2019_May_17_0911,MusicAffectPsychophysiology2019,3.0.5,59.93484734205069,
To what extent did the music make you feel ,HAPPY,30MonoWAV/30MonoT1.wav,2,1,4,13,,,,,0,2,2,12,0,1,1,6,,,,,,,,,4,1.7028060300217476,,,040,001,2019_May_17_0911,MusicAffectPsychophysiology2019,3.0.5,59.93484734205069,
To what extent did the music make you feel ,ACTIVE,30MonoWAV/30MonoT1.wav,2,1,4,13,,,,,0,2,2,12,0,2,2,9,,,,,,,,,3,1.9334868149890099,,,040,001,2019_May_17_0911,MusicAffectPsychophysiology2019,3.0.5,59.93484734205069,
To what extent did the music make you feel ,ALERT,30MonoWAV/30MonoT1.wav,2,1,4,13,,,,,0,2,2,12,0,3,3,8,,,,,,,,,4,1.283816618990386,,,040,001,2019_May_17_0911,MusicAffectPsychophysiology2019,3.0.5,59.93484734205069,
To what extent did the music make you feel ,SCARED,30MonoWAV/30MonoT1.wav,2,1,4,13,,,,,0,2,2,12,0,4,4,11,,,,,,,,,1,1.1004063190193847,,,040,001,2019_May_17_0911,MusicAffectPsychophysiology2019,3.0.5,59.93484734205069,
To what extent did the music make you feel ,EXCITED,30MonoWAV/30MonoT1.wav,2,1,4,13,,,,,0,2,2,12,0,5,5,7,,,,,,,,,5,1.4699133519898169,,,040,001,2019_May_17_0911,MusicAffectPsychophysiology2019,3.0.5,59.93484734205069,
To what extent did the music make you feel ,TENDER,30MonoWAV/30MonoT1.wav,2,1,4,13,,,,,0,2,2,12,0,6,6,10,,,,,,,,,1,0.9684089770016726,,,040,001,2019_May_17_0911,MusicAffectPsychophysiology2019,3.0.5,59.93484734205069,
To what extent did the music make you feel ,GUILTY,30MonoWAV/30MonoT1.wav,2,1,4,13,,,,,0,2,2,12,0,7,7,5,,,,,,,,,1,0.8523811250051949,,,040,001,2019_May_17_0911,MusicAffectPsychophysiology2019,3.0.5,59.93484734205069,
To what extent did the music make you feel ,ANGRY,30MonoWAV/30MonoT1.wav,2,1,4,13,,,,,0,2,2,12,0,8,8,2,,,,,,,,,1,0.819190686015645,,,040,001,2019_May_17_0911,MusicAffectPsychophysiology2019,3.0.5,59.93484734205069,
To what extent did the music make you feel ,SAD,30MonoWAV/30MonoT1.wav,2,1,4,13,,,,,0,2,2,12,0,9,9,0,,,,,,,,,1,0.8675344660005067,,,040,001,2019_May_17_0911,MusicAffectPsychophysiology2019,3.0.5,59.93484734205069,
To what extent did the music make you feel ,ASHAMED,30MonoWAV/30MonoT1.wav,2,1,4,13,,,,,0,2,2,12,0,10,10,4,,,,,,,,,1,0.8353766719810665,,,040,001,2019_May_17_0911,MusicAffectPsychophysiology2019,3.0.5,59.93484734205069,
To what extent did the music make you feel ,ANXIOUS ,30MonoWAV/30MonoT1.wav,2,1,4,13,,,,,0,2,2,12,0,11,11,1,,,,,,,,,1,0.734847504994832,,,040,001,2019_May_17_0911,MusicAffectPsychophysiology2019,3.0.5,59.93484734205069,
,,30MonoWAV/30MonoT1.wav,2,1,4,13,,,,,0,2,2,12,,,,,,,,,,,,,,,,,040,001,2019_May_17_0911,MusicAffectPsychophysiology2019,3.0.5,59.93484734205069,
To what extent did the music make you feel ,SCARED,30MonoWAV/30MonoF2.wav,1,2,2,2,,,,,0,3,3,1,0,0,0,11,,,3,3.882275268988451,2,2.0514363549882546,2,1.635502364981221,4,2.1225286289991345,,,040,001,2019_May_17_0911,MusicAffectPsychophysiology2019,3.0.5,59.93484734205069,
To what extent did the music make you feel ,TENDER,30MonoWAV/30MonoF2.wav,1,2,2,2,,,,,0,3,3,1,0,1,1,10,,,,,,,,,3,1.3874202689912636,,,040,001,2019_May_17_0911,MusicAffectPsychophysiology2019,3.0.5,59.93484734205069,
To what extent did the music make you feel ,ASHAMED,30MonoWAV/30MonoF2.wav,1,2,2,2,,,,,0,3,3,1,0,2,2,4,,,,,,,,,2,1.2173333749815356,,,040,001,2019_May_17_0911,MusicAffectPsychophysiology2019,3.0.5,59.93484734205069,
To what extent did the music make you feel ,ANXIOUS ,30MonoWAV/30MonoF2.wav,1,2,2,2,,,,,0,3,3,1,0,3,3,1,,,,,,,,,1,0.8516295470180921,,,040,001,2019_May_17_0911,MusicAffectPsychophysiology2019,3.0.5,59.93484734205069,
To what extent did the music make you feel ,EXCITED,30MonoWAV/30MonoF2.wav,1,2,2,2,,,,,0,3,3,1,0,4,4,7,,,,,,,,,2,1.4230171619856264,,,040,001,2019_May_17_0911,MusicAffectPsychophysiology2019,3.0.5,59.93484734205069,
To what extent did the music make you feel ,GUILTY,30MonoWAV/30MonoF2.wav,1,2,2,2,,,,,0,3,3,1,0,5,5,5,,,,,,,,,3,1.303546801005723,,,040,001,2019_May_17_0911,MusicAffectPsychophysiology2019,3.0.5,59.93484734205069,
To what extent did the music make you feel ,HAPPY,30MonoWAV/30MonoF2.wav,1,2,2,2,,,,,0,3,3,1,0,6,6,6,,,,,,,,,3,1.403456637985073,,,040,001,2019_May_17_0911,MusicAffectPsychophysiology2019,3.0.5,59.93484734205069,
To what extent did the music make you feel ,SAD,30MonoWAV/30MonoF2.wav,1,2,2,2,,,,,0,3,3,1,0,7,7,0,,,,,,,,,1,1.1197855260106735,,,040,001,2019_May_17_0911,MusicAffectPsychophysiology2019,3.0.5,59.93484734205069,
To what extent did the music make you feel ,ALERT,30MonoWAV/30MonoF2.wav,1,2,2,2,,,,,0,3,3,1,0,8,8,8,,,,,,,,,4,1.2026966599805746,,,040,001,2019_May_17_0911,MusicAffectPsychophysiology2019,3.0.5,59.93484734205069,
To what extent did the music make you feel ,ACTIVE,30MonoWAV/30MonoF2.wav,1,2,2,2,,,,,0,3,3,1,0,9,9,9,,,,,,,,,4,1.3871665250044316,,,040,001,2019_May_17_0911,MusicAffectPsychophysiology2019,3.0.5,59.93484734205069,
To what extent did the music make you feel ,FRUSTRATED,30MonoWAV/30MonoF2.wav,1,2,2,2,,,,,0,3,3,1,0,10,10,3,,,,,,,,,1,1.1556343499978539,,,040,001,2019_May_17_0911,MusicAffectPsychophysiology2019,3.0.5,59.93484734205069,
To what extent did the music make you feel ,ANGRY,30MonoWAV/30MonoF2.wav,1,2,2,2,,,,,0,3,3,1,0,11,11,2,,,,,,,,,1,1.0338098700158298,,,040,001,2019_May_17_0911,MusicAffectPsychophysiology2019,3.0.5,59.93484734205069,
,,30MonoWAV/30MonoF2.wav,1,2,2,2,,,,,0,3,3,1,,,,,,,,,,,,,,,,,040,001,2019_May_17_0911,MusicAffectPsychophysiology2019,3.0.5,59.93484734205069,
To what extent did the music make you feel ,SAD,30MonoWAV/30MonoT4.wav,2,1,4,16,,,,,0,4,4,15,0,0,0,0,,,5,2.671927199990023,5,0.969335081987083,5,0.8847665500070434,1,1.1363067670026794,,,040,001,2019_May_17_0911,MusicAffectPsychophysiology2019,3.0.5,59.93484734205069,
To what extent did the music make you feel ,ACTIVE,30MonoWAV/30MonoT4.wav,2,1,4,16,,,,,0,4,4,15,0,1,1,9,,,,,,,,,2,0.8196506249951199,,,040,001,2019_May_17_0911,MusicAffectPsychophysiology2019,3.0.5,59.93484734205069,
To what extent did the music make you feel ,FRUSTRATED,30MonoWAV/30MonoT4.wav,2,1,4,16,,,,,0,4,4,15,0,2,2,3,,,,,,,,,1,0.7878961969981901,,,040,001,2019_May_17_0911,MusicAffectPsychophysiology2019,3.0.5,59.93484734205069,
To what extent did the music make you feel ,SCARED,30MonoWAV/30MonoT4.wav,2,1,4,16,,,,,0,4,4,15,0,3,3,11,,,,,,,,,1,1.3235230600112118,,,040,001,2019_May_17_0911,MusicAffectPsychophysiology2019,3.0.5,59.93484734205069,
To what extent did the music make you feel ,TENDER,30MonoWAV/30MonoT4.wav,2,1,4,16,,,,,0,4,4,15,0,4,4,10,,,,,,,,,2,1.2338575379981194,,,040,001,2019_May_17_0911,MusicAffectPsychophysiology2019,3.0.5,59.93484734205069,
To what extent did the music make you feel ,ALERT,30MonoWAV/30MonoT4.wav,2,1,4,16,,,,,0,4,4,15,0,5,5,8,,,,,,,,,1,0.6349704019958153,,,040,001,2019_May_17_0911,MusicAffectPsychophysiology2019,3.0.5,59.93484734205069,
To what extent did the music make you feel ,HAPPY,30MonoWAV/30MonoT4.wav,2,1,4,16,,,,,0,4,4,15,0,6,6,6,,,,,,,,,5,1.2358676659932826,,,040,001,2019_May_17_0911,MusicAffectPsychophysiology2019,3.0.5,59.93484734205069,
To what extent did the music make you feel ,GUILTY,30MonoWAV/30MonoT4.wav,2,1,4,16,,,,,0,4,4,15,0,7,7,5,,,,,,,,,1,0.9180223319854122,,,040,001,2019_May_17_0911,MusicAffectPsychophysiology2019,3.0.5,59.93484734205069,
To what extent did the music make you feel ,EXCITED,30MonoWAV/30MonoT4.wav,2,1,4,16,,,,,0,4,4,15,0,8,8,7,,,,,,,,,5,0.8021519279864151,,,040,001,2019_May_17_0911,MusicAffectPsychophysiology2019,3.0.5,59.93484734205069,
To what extent did the music make you feel ,ANGRY,30MonoWAV/30MonoT4.wav,2,1,4,16,,,,,0,4,4,15,0,9,9,2,,,,,,,,,1,1.6521220879803877,,,040,001,2019_May_17_0911,MusicAffectPsychophysiology2019,3.0.5,59.93484734205069,
To what extent did the music make you feel ,ANXIOUS ,30MonoWAV/30MonoT4.wav,2,1,4,16,,,,,0,4,4,15,0,10,10,1,,,,,,,,,1,0.9356471979990602,,,040,001,2019_May_17_0911,MusicAffectPsychophysiology2019,3.0.5,59.93484734205069,
To what extent did the music make you feel ,ASHAMED,30MonoWAV/30MonoT4.wav,2,1,4,16,,,,,0,4,4,15,0,11,11,4,,,,,,,,,1,1.0192799379874486,,,040,001,2019_May_17_0911,MusicAffectPsychophysiology2019,3.0.5,59.93484734205069,
,,30MonoWAV/30MonoT4.wav,2,1,4,16,,,,,0,4,4,15,,,,,,,,,,,,,,,,,040,001,2019_May_17_0911,MusicAffectPsychophysiology2019,3.0.5,59.93484734205069,
To what extent did the music make you feel ,HAPPY,30MonoWAV/30MonoH4.wav,2,2,1,8,,,,,0,5,5,7,0,0,0,6,,,5,3.838653934013564,5,1.1841601110063493,5,1.2355191710230429,5,1.0841838550113607,,,040,001,2019_May_17_0911,MusicAffectPsychophysiology2019,3.0.5,59.93484734205069,
To what extent did the music make you feel ,ASHAMED,30MonoWAV/30MonoH4.wav,2,2,1,8,,,,,0,5,5,7,0,1,1,4,,,,,,,,,1,1.5517599479935598,,,040,001,2019_May_17_0911,MusicAffectPsychophysiology2019,3.0.5,59.93484734205069,
To what extent did the music make you feel ,ACTIVE,30MonoWAV/30MonoH4.wav,2,2,1,8,,,,,0,5,5,7,0,2,2,9,,,,,,,,,5,1.7351370209944434,,,040,001,2019_May_17_0911,MusicAffectPsychophysiology2019,3.0.5,59.93484734205069,
To what extent did the music make you feel ,ANGRY,30MonoWAV/30MonoH4.wav,2,2,1,8,,,,,0,5,5,7,0,3,3,2,,,,,,,,,1,0.8676437879912555,,,040,001,2019_May_17_0911,MusicAffectPsychophysiology2019,3.0.5,59.93484734205069,
To what extent did the music make you feel ,ALERT,30MonoWAV/30MonoH4.wav,2,2,1,8,,,,,0,5,5,7,0,4,4,8,,,,,,,,,5,1.1344875229988247,,,040,001,2019_May_17_0911,MusicAffectPsychophysiology2019,3.0.5,59.93484734205069,
To what extent did the music make you feel ,FRUSTRATED,30MonoWAV/30MonoH4.wav,2,2,1,8,,,,,0,5,5,7,0,5,5,3,,,,,,,,,1,0.8847489719919395,,,040,001,2019_May_17_0911,MusicAffectPsychophysiology2019,3.0.5,59.93484734205069,
To what extent did the music make you feel ,TENDER,30MonoWAV/30MonoH4.wav,2,2,1,8,,,,,0,5,5,7,0,6,6,10,,,,,,,,,1,1.267456912988564,,,040,001,2019_May_17_0911,MusicAffectPsychophysiology2019,3.0.5,59.93484734205069,
To what extent did the music make you feel ,EXCITED,30MonoWAV/30MonoH4.wav,2,2,1,8,,,,,0,5,5,7,0,7,7,7,,,,,,,,,5,0.9517000709893182,,,040,001,2019_May_17_0911,MusicAffectPsychophysiology2019,3.0.5,59.93484734205069,
To what extent did the music make you feel ,SAD,30MonoWAV/30MonoH4.wav,2,2,1,8,,,,,0,5,5,7,0,8,8,0,,,,,,,,,1,0.8513001270184759,,,040,001,2019_May_17_0911,MusicAffectPsychophysiology2019,3.0.5,59.93484734205069,
To what extent did the music make you feel ,ANXIOUS ,30MonoWAV/30MonoH4.wav,2,2,1,8,,,,,0,5,5,7,0,9,9,1,,,,,,,,,1,0.8681130530021619,,,040,001,2019_May_17_0911,MusicAffectPsychophysiology2019,3.0.5,59.93484734205069,
To what extent did the music make you feel ,SCARED,30MonoWAV/30MonoH4.wav,2,2,1,8,,,,,0,5,5,7,0,10,10,11,,,,,,,,,1,0.6337067139975261,,,040,001,2019_May_17_0911,MusicAffectPsychophysiology2019,3.0.5,59.93484734205069,
To what extent did the music make you feel ,GUILTY,30MonoWAV/30MonoH4.wav,2,2,1,8,,,,,0,5,5,7,0,11,11,5,,,,,,,,,1,0.8690717139979824,,,040,001,2019_May_17_0911,MusicAffectPsychophysiology2019,3.0.5,59.93484734205069,
,,30MonoWAV/30MonoH4.wav,2,2,1,8,,,,,0,5,5,7,,,,,,,,,,,,,,,,,040,001,2019_May_17_0911,MusicAffectPsychophysiology2019,3.0.5,59.93484734205069,
To what extent did the music make you feel ,HAPPY,30MonoWAV/30MonoF4.wav,1,2,2,4,,,,,0,6,6,3,0,0,0,6,,,4,6.0120366160117555,4,1.918138513021404,3,1.0518521560006775,3,1.3356010479910765,,,040,001,2019_May_17_0911,MusicAffectPsychophysiology2019,3.0.5,59.93484734205069,
To what extent did the music make you feel ,ANGRY,30MonoWAV/30MonoF4.wav,1,2,2,4,,,,,0,6,6,3,0,1,1,2,,,,,,,,,3,2.0688241829921026,,,040,001,2019_May_17_0911,MusicAffectPsychophysiology2019,3.0.5,59.93484734205069,
To what extent did the music make you feel ,GUILTY,30MonoWAV/30MonoF4.wav,1,2,2,4,,,,,0,6,6,3,0,2,2,5,,,,,,,,,2,1.3665270490164403,,,040,001,2019_May_17_0911,MusicAffectPsychophysiology2019,3.0.5,59.93484734205069,
To what extent did the music make you feel ,TENDER,30MonoWAV/30MonoF4.wav,1,2,2,4,,,,,0,6,6,3,0,3,3,10,,,,,,,,,2,0.8174561669875402,,,040,001,2019_May_17_0911,MusicAffectPsychophysiology2019,3.0.5,59.93484734205069,
To what extent did the music make you feel ,ASHAMED,30MonoWAV/30MonoF4.wav,1,2,2,4,,,,,0,6,6,3,0,4,4,4,,,,,,,,,2,0.952144632989075,,,040,001,2019_May_17_0911,MusicAffectPsychophysiology2019,3.0.5,59.93484734205069,
To what extent did the music make you feel ,FRUSTRATED,30MonoWAV/30MonoF4.wav,1,2,2,4,,,,,0,6,6,3,0,5,5,3,,,,,,,,,2,0.8845852590166032,,,040,001,2019_May_17_0911,MusicAffectPsychophysiology2019,3.0.5,59.93484734205069,
To what extent did the music make you feel ,ALERT,30MonoWAV/30MonoF4.wav,1,2,2,4,,,,,0,6,6,3,0,6,6,8,,,,,,,,,3,1.266317269008141,,,040,001,2019_May_17_0911,MusicAffectPsychophysiology2019,3.0.5,59.93484734205069,
To what extent did the music make you feel ,SCARED,30MonoWAV/30MonoF4.wav,1,2,2,4,,,,,0,6,6,3,0,7,7,11,,,,,,,,,2,0.7351598649984226,,,040,001,2019_May_17_0911,MusicAffectPsychophysiology2019,3.0.5,59.93484734205069,
To what extent did the music make you feel ,ANXIOUS ,30MonoWAV/30MonoF4.wav,1,2,2,4,,,,,0,6,6,3,0,8,8,1,,,,,,,,,1,1.1007327270053793,,,040,001,2019_May_17_0911,MusicAffectPsychophysiology2019,3.0.5,59.93484734205069,
To what extent did the music make you feel ,SAD,30MonoWAV/30MonoF4.wav,1,2,2,4,,,,,0,6,6,3,0,9,9,0,,,,,,,,,1,0.7179110459983349,,,040,001,2019_May_17_0911,MusicAffectPsychophysiology2019,3.0.5,59.93484734205069,
To what extent did the music make you feel ,ACTIVE,30MonoWAV/30MonoF4.wav,1,2,2,4,,,,,0,6,6,3,0,10,10,9,,,,,,,,,3,1.3366857250221074,,,040,001,2019_May_17_0911,MusicAffectPsychophysiology2019,3.0.5,59.93484734205069,
To what extent did the music make you feel ,EXCITED,30MonoWAV/30MonoF4.wav,1,2,2,4,,,,,0,6,6,3,0,11,11,7,,,,,,,,,2,1.4511749240045901,,,040,001,2019_May_17_0911,MusicAffectPsychophysiology2019,3.0.5,59.93484734205069,
,,30MonoWAV/30MonoF4.wav,1,2,2,4,,,,,0,6,6,3,,,,,,,,,,,,,,,,,040,001,2019_May_17_0911,MusicAffectPsychophysiology2019,3.0.5,59.93484734205069,
To what extent did the music make you feel ,ANXIOUS ,30MonoWAV/30MonoS2.wav,1,1,3,10,,,,,0,7,7,9,0,0,0,1,,,2,6.72569570899941,2,2.0698873899818864,3,1.8056301610195078,2,1.3682913630036637,,,040,001,2019_May_17_0911,MusicAffectPsychophysiology2019,3.0.5,59.93484734205069,
To what extent did the music make you feel ,ALERT,30MonoWAV/30MonoS2.wav,1,1,3,10,,,,,0,7,7,9,0,1,1,8,,,,,,,,,3,1.1028636980045121,,,040,001,2019_May_17_0911,MusicAffectPsychophysiology2019,3.0.5,59.93484734205069,
To what extent did the music make you feel ,SCARED,30MonoWAV/30MonoS2.wav,1,1,3,10,,,,,0,7,7,9,0,2,2,11,,,,,,,,,2,0.9692560870025773,,,040,001,2019_May_17_0911,MusicAffectPsychophysiology2019,3.0.5,59.93484734205069,
To what extent did the music make you feel ,SAD,30MonoWAV/30MonoS2.wav,1,1,3,10,,,,,0,7,7,9,0,3,3,0,,,,,,,,,2,0.8688039600092452,,,040,001,2019_May_17_0911,MusicAffectPsychophysiology2019,3.0.5,59.93484734205069,
To what extent did the music make you feel ,EXCITED,30MonoWAV/30MonoS2.wav,1,1,3,10,,,,,0,7,7,9,0,4,4,7,,,,,,,,,1,1.8544887689931784,,,040,001,2019_May_17_0911,MusicAffectPsychophysiology2019,3.0.5,59.93484734205069,
To what extent did the music make you feel ,ASHAMED,30MonoWAV/30MonoS2.wav,1,1,3,10,,,,,0,7,7,9,0,5,5,4,,,,,,,,,2,0.9516957460145932,,,040,001,2019_May_17_0911,MusicAffectPsychophysiology2019,3.0.5,59.93484734205069,
To what extent did the music make you feel ,GUILTY,30MonoWAV/30MonoS2.wav,1,1,3,10,,,,,0,7,7,9,0,6,6,5,,,,,,,,,2,0.82263157502166,,,040,001,2019_May_17_0911,MusicAffectPsychophysiology2019,3.0.5,59.93484734205069,
To what extent did the music make you feel ,TENDER,30MonoWAV/30MonoS2.wav,1,1,3,10,,,,,0,7,7,9,0,7,7,10,,,,,,,,,2,1.6666889759944752,,,040,001,2019_May_17_0911,MusicAffectPsychophysiology2019,3.0.5,59.93484734205069,
To what extent did the music make you feel ,HAPPY,30MonoWAV/30MonoS2.wav,1,1,3,10,,,,,0,7,7,9,0,8,8,6,,,,,,,,,3,1.2199945060128812,,,040,001,2019_May_17_0911,MusicAffectPsychophysiology2019,3.0.5,59.93484734205069,
To what extent did the music make you feel ,ACTIVE,30MonoWAV/30MonoS2.wav,1,1,3,10,,,,,0,7,7,9,0,9,9,9,,,,,,,,,1,1.6525119509897195,,,040,001,2019_May_17_0911,MusicAffectPsychophysiology2019,3.0.5,59.93484734205069,
To what extent did the music make you feel ,ANGRY,30MonoWAV/30MonoS2.wav,1,1,3,10,,,,,0,7,7,9,0,10,10,2,,,,,,,,,1,1.2180118190008216,,,040,001,2019_May_17_0911,MusicAffectPsychophysiology2019,3.0.5,59.93484734205069,
To what extent did the music make you feel ,FRUSTRATED,30MonoWAV/30MonoS2.wav,1,1,3,10,,,,,0,7,7,9,0,11,11,3,,,,,,,,,1,0.5351329180120956,,,040,001,2019_May_17_0911,MusicAffectPsychophysiology2019,3.0.5,59.93484734205069,
,,30MonoWAV/30MonoS2.wav,1,1,3,10,,,,,0,7,7,9,,,,,,,,,,,,,,,,,040,001,2019_May_17_0911,MusicAffectPsychophysiology2019,3.0.5,59.93484734205069,
To what extent did the music make you feel ,ACTIVE,30MonoWAV/30MonoT3.wav,2,1,4,15,,,,,0,8,8,14,0,0,0,9,,,1,2.388076714007184,1,1.1397745260037482,2,1.018052445986541,1,1.2678204560070299,,,040,001,2019_May_17_0911,MusicAffectPsychophysiology2019,3.0.5,59.93484734205069,
To what extent did the music make you feel ,FRUSTRATED,30MonoWAV/30MonoT3.wav,2,1,4,15,,,,,0,8,8,14,0,1,1,3,,,,,,,,,2,1.0350603550032247,,,040,001,2019_May_17_0911,MusicAffectPsychophysiology2019,3.0.5,59.93484734205069,
To what extent did the music make you feel ,GUILTY,30MonoWAV/30MonoT3.wav,2,1,4,15,,,,,0,8,8,14,0,2,2,5,,,,,,,,,2,1.152102153020678,,,040,001,2019_May_17_0911,MusicAffectPsychophysiology2019,3.0.5,59.93484734205069,
To what extent did the music make you feel ,ALERT,30MonoWAV/30MonoT3.wav,2,1,4,15,,,,,0,8,8,14,0,3,3,8,,,,,,,,,1,1.0185760099848267,,,040,001,2019_May_17_0911,MusicAffectPsychophysiology2019,3.0.5,59.93484734205069,
To what extent did the music make you feel ,SCARED,30MonoWAV/30MonoT3.wav,2,1,4,15,,,,,0,8,8,14,0,4,4,11,,,,,,,,,1,0.9845531719911378,,,040,001,2019_May_17_0911,MusicAffectPsychophysiology2019,3.0.5,59.93484734205069,
To what extent did the music make you feel ,ANXIOUS ,30MonoWAV/30MonoT3.wav,2,1,4,15,,,,,0,8,8,14,0,5,5,1,,,,,,,,,1,1.0350970379950013,,,040,001,2019_May_17_0911,MusicAffectPsychophysiology2019,3.0.5,59.93484734205069,
To what extent did the music make you feel ,EXCITED,30MonoWAV/30MonoT3.wav,2,1,4,15,,,,,0,8,8,14,0,6,6,7,,,,,,,,,1,0.8350809740077239,,,040,001,2019_May_17_0911,MusicAffectPsychophysiology2019,3.0.5,59.93484734205069,
To what extent did the music make you feel ,HAPPY,30MonoWAV/30MonoT3.wav,2,1,4,15,,,,,0,8,8,14,0,7,7,6,,,,,,,,,1,0.7025768819730729,,,040,001,2019_May_17_0911,MusicAffectPsychophysiology2019,3.0.5,59.93484734205069,
To what extent did the music make you feel ,ANGRY,30MonoWAV/30MonoT3.wav,2,1,4,15,,,,,0,8,8,14,0,8,8,2,,,,,,,,,1,0.9187163059832528,,,040,001,2019_May_17_0911,MusicAffectPsychophysiology2019,3.0.5,59.93484734205069,
To what extent did the music make you feel ,ASHAMED,30MonoWAV/30MonoT3.wav,2,1,4,15,,,,,0,8,8,14,0,9,9,4,,,,,,,,,1,0.8684417050099,,,040,001,2019_May_17_0911,MusicAffectPsychophysiology2019,3.0.5,59.93484734205069,
To what extent did the music make you feel ,TENDER,30MonoWAV/30MonoT3.wav,2,1,4,15,,,,,0,8,8,14,0,10,10,10,,,,,,,,,1,0.8179560669814236,,,040,001,2019_May_17_0911,MusicAffectPsychophysiology2019,3.0.5,59.93484734205069,
To what extent did the music make you feel ,SAD,30MonoWAV/30MonoT3.wav,2,1,4,15,,,,,0,8,8,14,0,11,11,0,,,,,,,,,4,1.218365812994307,,,040,001,2019_May_17_0911,MusicAffectPsychophysiology2019,3.0.5,59.93484734205069,
,,30MonoWAV/30MonoT3.wav,2,1,4,15,,,,,0,8,8,14,,,,,,,,,,,,,,,,,040,001,2019_May_17_0911,MusicAffectPsychophysiology2019,3.0.5,59.93484734205069,
To what extent did the music make you feel ,FRUSTRATED,30MonoWAV/30MonoF1.wav,1,2,2,1,,,,,0,9,9,0,0,0,0,3,,,4,3.3513210619858,4,0.619158570014406,3,0.9020107109972741,2,1.3195705880061723,,,040,001,2019_May_17_0911,MusicAffectPsychophysiology2019,3.0.5,59.93484734205069,
To what extent did the music make you feel ,ANGRY,30MonoWAV/30MonoF1.wav,1,2,2,1,,,,,0,9,9,0,0,1,1,2,,,,,,,,,2,0.7515494379913434,,,040,001,2019_May_17_0911,MusicAffectPsychophysiology2019,3.0.5,59.93484734205069,
To what extent did the music make you feel ,ACTIVE,30MonoWAV/30MonoF1.wav,1,2,2,1,,,,,0,9,9,0,0,2,2,9,,,,,,,,,4,1.3005873759975657,,,040,001,2019_May_17_0911,MusicAffectPsychophysiology2019,3.0.5,59.93484734205069,
To what extent did the music make you feel ,TENDER,30MonoWAV/30MonoF1.wav,1,2,2,1,,,,,0,9,9,0,0,3,3,10,,,,,,,,,2,0.7016091030091047,,,040,001,2019_May_17_0911,MusicAffectPsychophysiology2019,3.0.5,59.93484734205069,
To what extent did the music make you feel ,SAD,30MonoWAV/30MonoF1.wav,1,2,2,1,,,,,0,9,9,0,0,4,4,0,,,,,,,,,1,0.8519126960018184,,,040,001,2019_May_17_0911,MusicAffectPsychophysiology2019,3.0.5,59.93484734205069,
To what extent did the music make you feel ,EXCITED,30MonoWAV/30MonoF1.wav,1,2,2,1,,,,,0,9,9,0,0,5,5,7,,,,,,,,,4,0.7852261190128047,,,040,001,2019_May_17_0911,MusicAffectPsychophysiology2019,3.0.5,59.93484734205069,
To what extent did the music make you feel ,ANXIOUS ,30MonoWAV/30MonoF1.wav,1,2,2,1,,,,,0,9,9,0,0,6,6,1,,,,,,,,,2,1.100619224976981,,,040,001,2019_May_17_0911,MusicAffectPsychophysiology2019,3.0.5,59.93484734205069,
To what extent did the music make you feel ,ALERT,30MonoWAV/30MonoF1.wav,1,2,2,1,,,,,0,9,9,0,0,7,7,8,,,,,,,,,4,0.7679352199775167,,,040,001,2019_May_17_0911,MusicAffectPsychophysiology2019,3.0.5,59.93484734205069,
To what extent did the music make you feel ,ASHAMED,30MonoWAV/30MonoF1.wav,1,2,2,1,,,,,0,9,9,0,0,8,8,4,,,,,,,,,2,1.8510906340088695,,,040,001,2019_May_17_0911,MusicAffectPsychophysiology2019,3.0.5,59.93484734205069,
To what extent did the music make you feel ,HAPPY,30MonoWAV/30MonoF1.wav,1,2,2,1,,,,,0,9,9,0,0,9,9,6,,,,,,,,,4,0.9844577449839562,,,040,001,2019_May_17_0911,MusicAffectPsychophysiology2019,3.0.5,59.93484734205069,
To what extent did the music make you feel ,SCARED,30MonoWAV/30MonoF1.wav,1,2,2,1,,,,,0,9,9,0,0,10,10,11,,,,,,,,,2,1.185113174986327,,,040,001,2019_May_17_0911,MusicAffectPsychophysiology2019,3.0.5,59.93484734205069,
To what extent did the music make you feel ,GUILTY,30MonoWAV/30MonoF1.wav,1,2,2,1,,,,,0,9,9,0,0,11,11,5,,,,,,,,,2,1.0849749729968607,,,040,001,2019_May_17_0911,MusicAffectPsychophysiology2019,3.0.5,59.93484734205069,
,,30MonoWAV/30MonoF1.wav,1,2,2,1,,,,,0,9,9,0,,,,,,,,,,,,,,,,,040,001,2019_May_17_0911,MusicAffectPsychophysiology2019,3.0.5,59.93484734205069,
To what extent did the music make you feel ,HAPPY,30MonoWAV/30MonoS3.wav,1,1,3,11,,,,,0,10,10,10,0,0,0,6,,,4,2.607362256007036,3,1.3511628760024905,2,1.1020751850155648,3,1.2013347710017115,,,040,001,2019_May_17_0911,MusicAffectPsychophysiology2019,3.0.5,59.93484734205069,
To what extent did the music make you feel ,EXCITED,30MonoWAV/30MonoS3.wav,1,1,3,11,,,,,0,10,10,10,0,1,1,7,,,,,,,,,3,0.8682385729916859,,,040,001,2019_May_17_0911,MusicAffectPsychophysiology2019,3.0.5,59.93484734205069,
To what extent did the music make you feel ,SCARED,30MonoWAV/30MonoS3.wav,1,1,3,11,,,,,0,10,10,10,0,2,2,11,,,,,,,,,2,0.5527809830091428,,,040,001,2019_May_17_0911,MusicAffectPsychophysiology2019,3.0.5,59.93484734205069,
To what extent did the music make you feel ,ALERT,30MonoWAV/30MonoS3.wav,1,1,3,11,,,,,0,10,10,10,0,3,3,8,,,,,,,,,1,1.123966974002542,,,040,001,2019_May_17_0911,MusicAffectPsychophysiology2019,3.0.5,59.93484734205069,
To what extent did the music make you feel ,ANXIOUS ,30MonoWAV/30MonoS3.wav,1,1,3,11,,,,,0,10,10,10,0,4,4,1,,,,,,,,,1,0.9202954189968295,,,040,001,2019_May_17_0911,MusicAffectPsychophysiology2019,3.0.5,59.93484734205069,
To what extent did the music make you feel ,FRUSTRATED,30MonoWAV/30MonoS3.wav,1,1,3,11,,,,,0,10,10,10,0,5,5,3,,,,,,,,,1,0.9859500259917695,,,040,001,2019_May_17_0911,MusicAffectPsychophysiology2019,3.0.5,59.93484734205069,
To what extent did the music make you feel ,SAD,30MonoWAV/30MonoS3.wav,1,1,3,11,,,,,0,10,10,10,0,6,6,0,,,,,,,,,2,2.5043713449849747,,,040,001,2019_May_17_0911,MusicAffectPsychophysiology2019,3.0.5,59.93484734205069,
To what extent did the music make you feel ,ASHAMED,30MonoWAV/30MonoS3.wav,1,1,3,11,,,,,0,10,10,10,0,7,7,4,,,,,,,,,1,0.7360205189906992,,,040,001,2019_May_17_0911,MusicAffectPsychophysiology2019,3.0.5,59.93484734205069,
To what extent did the music make you feel ,ACTIVE,30MonoWAV/30MonoS3.wav,1,1,3,11,,,,,0,10,10,10,0,8,8,9,,,,,,,,,2,1.324288573989179,,,040,001,2019_May_17_0911,MusicAffectPsychophysiology2019,3.0.5,59.93484734205069,
To what extent did the music make you feel ,TENDER,30MonoWAV/30MonoS3.wav,1,1,3,11,,,,,0,10,10,10,0,9,9,10,,,,,,,,,2,1.2342952819890343,,,040,001,2019_May_17_0911,MusicAffectPsychophysiology2019,3.0.5,59.93484734205069,
To what extent did the music make you feel ,GUILTY,30MonoWAV/30MonoS3.wav,1,1,3,11,,,,,0,10,10,10,0,10,10,5,,,,,,,,,1,0.9015240089793224,,,040,001,2019_May_17_0911,MusicAffectPsychophysiology2019,3.0.5,59.93484734205069,
To what extent did the music make you feel ,ANGRY,30MonoWAV/30MonoS3.wav,1,1,3,11,,,,,0,10,10,10,0,11,11,2,,,,,,,,,2,1.6030930890119635,,,040,001,2019_May_17_0911,MusicAffectPsychophysiology2019,3.0.5,59.93484734205069,
,,30MonoWAV/30MonoS3.wav,1,1,3,11,,,,,0,10,10,10,,,,,,,,,,,,,,,,,040,001,2019_May_17_0911,MusicAffectPsychophysiology2019,3.0.5,59.93484734205069,
To what extent did the music make you feel ,GUILTY,30MonoWAV/30MonoH1.wav,2,2,1,5,,,,,0,11,11,4,0,0,0,5,,,5,2.187871180998627,5,0.7532066580024548,5,0.5693022719933651,1,1.0195846310234629,,,040,001,2019_May_17_0911,MusicAffectPsychophysiology2019,3.0.5,59.93484734205069,
To what extent did the music make you feel ,SAD,30MonoWAV/30MonoH1.wav,2,2,1,5,,,,,0,11,11,4,0,1,1,0,,,,,,,,,1,0.6678667049854994,,,040,001,2019_May_17_0911,MusicAffectPsychophysiology2019,3.0.5,59.93484734205069,
To what extent did the music make you feel ,EXCITED,30MonoWAV/30MonoH1.wav,2,2,1,5,,,,,0,11,11,4,0,2,2,7,,,,,,,,,5,1.1900037039886229,,,040,001,2019_May_17_0911,MusicAffectPsychophysiology2019,3.0.5,59.93484734205069,
To what extent did the music make you feel ,SCARED,30MonoWAV/30MonoH1.wav,2,2,1,5,,,,,0,11,11,4,0,3,3,11,,,,,,,,,2,0.9665497069945559,,,040,001,2019_May_17_0911,MusicAffectPsychophysiology2019,3.0.5,59.93484734205069,
To what extent did the music make you feel ,ALERT,30MonoWAV/30MonoH1.wav,2,2,1,5,,,,,0,11,11,4,0,4,4,8,,,,,,,,,5,0.8702512769959867,,,040,001,2019_May_17_0911,MusicAffectPsychophysiology2019,3.0.5,59.93484734205069,
To what extent did the music make you feel ,ACTIVE,30MonoWAV/30MonoH1.wav,2,2,1,5,,,,,0,11,11,4,0,5,5,9,,,,,,,,,5,0.7188061380002182,,,040,001,2019_May_17_0911,MusicAffectPsychophysiology2019,3.0.5,59.93484734205069,
To what extent did the music make you feel ,HAPPY,30MonoWAV/30MonoH1.wav,2,2,1,5,,,,,0,11,11,4,0,6,6,6,,,,,,,,,5,0.7000349230074789,,,040,001,2019_May_17_0911,MusicAffectPsychophysiology2019,3.0.5,59.93484734205069,
To what extent did the music make you feel ,ASHAMED,30MonoWAV/30MonoH1.wav,2,2,1,5,,,,,0,11,11,4,0,7,7,4,,,,,,,,,2,1.0518479459860828,,,040,001,2019_May_17_0911,MusicAffectPsychophysiology2019,3.0.5,59.93484734205069,
To what extent did the music make you feel ,TENDER,30MonoWAV/30MonoH1.wav,2,2,1,5,,,,,0,11,11,4,0,8,8,10,,,,,,,,,3,0.9677274459972978,,,040,001,2019_May_17_0911,MusicAffectPsychophysiology2019,3.0.5,59.93484734205069,
To what extent did the music make you feel ,ANXIOUS ,30MonoWAV/30MonoH1.wav,2,2,1,5,,,,,0,11,11,4,0,9,9,1,,,,,,,,,2,0.7851866279961541,,,040,001,2019_May_17_0911,MusicAffectPsychophysiology2019,3.0.5,59.93484734205069,
To what extent did the music make you feel ,FRUSTRATED,30MonoWAV/30MonoH1.wav,2,2,1,5,,,,,0,11,11,4,0,10,10,3,,,,,,,,,2,0.8360484360018745,,,040,001,2019_May_17_0911,MusicAffectPsychophysiology2019,3.0.5,59.93484734205069,
To what extent did the music make you feel ,ANGRY,30MonoWAV/30MonoH1.wav,2,2,1,5,,,,,0,11,11,4,0,11,11,2,,,,,,,,,2,1.0191412049753126,,,040,001,2019_May_17_0911,MusicAffectPsychophysiology2019,3.0.5,59.93484734205069,
,,30MonoWAV/30MonoH1.wav,2,2,1,5,,,,,0,11,11,4,,,,,,,,,,,,,,,,,040,001,2019_May_17_0911,MusicAffectPsychophysiology2019,3.0.5,59.93484734205069,
To what extent did the music make you feel ,ALERT,30MonoWAV/30MonoF3.wav,1,2,2,3,,,,,0,12,12,2,0,0,0,8,,,4,2.0517566290218383,4,0.700282606005203,3,0.38580983100109734,4,0.8024390820064582,,,040,001,2019_May_17_0911,MusicAffectPsychophysiology2019,3.0.5,59.93484734205069,
To what extent did the music make you feel ,ACTIVE,30MonoWAV/30MonoF3.wav,1,2,2,3,,,,,0,12,12,2,0,1,1,9,,,,,,,,,4,0.6189202379900962,,,040,001,2019_May_17_0911,MusicAffectPsychophysiology2019,3.0.5,59.93484734205069,
To what extent did the music make you feel ,ANGRY,30MonoWAV/30MonoF3.wav,1,2,2,3,,,,,0,12,12,2,0,2,2,2,,,,,,,,,3,0.7519760339928325,,,040,001,2019_May_17_0911,MusicAffectPsychophysiology2019,3.0.5,59.93484734205069,
To what extent did the music make you feel ,GUILTY,30MonoWAV/30MonoF3.wav,1,2,2,3,,,,,0,12,12,2,0,3,3,5,,,,,,,,,2,1.01916936901398,,,040,001,2019_May_17_0911,MusicAffectPsychophysiology2019,3.0.5,59.93484734205069,
To what extent did the music make you feel ,TENDER,30MonoWAV/30MonoF3.wav,1,2,2,3,,,,,0,12,12,2,0,4,4,10,,,,,,,,,2,1.0019707040046342,,,040,001,2019_May_17_0911,MusicAffectPsychophysiology2019,3.0.5,59.93484734205069,
To what extent did the music make you feel ,ASHAMED,30MonoWAV/30MonoF3.wav,1,2,2,3,,,,,0,12,12,2,0,5,5,4,,,,,,,,,2,1.018054725980619,,,040,001,2019_May_17_0911,MusicAffectPsychophysiology2019,3.0.5,59.93484734205069,
To what extent did the music make you feel ,HAPPY,30MonoWAV/30MonoF3.wav,1,2,2,3,,,,,0,12,12,2,0,6,6,6,,,,,,,,,2,0.7160955959989224,,,040,001,2019_May_17_0911,MusicAffectPsychophysiology2019,3.0.5,59.93484734205069,
To what extent did the music make you feel ,EXCITED,30MonoWAV/30MonoF3.wav,1,2,2,3,,,,,0,12,12,2,0,7,7,7,,,,,,,,,3,1.4017385590123013,,,040,001,2019_May_17_0911,MusicAffectPsychophysiology2019,3.0.5,59.93484734205069,
To what extent did the music make you feel ,SCARED,30MonoWAV/30MonoF3.wav,1,2,2,3,,,,,0,12,12,2,0,8,8,11,,,,,,,,,4,0.7515190079866443,,,040,001,2019_May_17_0911,MusicAffectPsychophysiology2019,3.0.5,59.93484734205069,
To what extent did the music make you feel ,SAD,30MonoWAV/30MonoF3.wav,1,2,2,3,,,,,0,12,12,2,0,9,9,0,,,,,,,,,2,1.1196107160067186,,,040,001,2019_May_17_0911,MusicAffectPsychophysiology2019,3.0.5,59.93484734205069,
To what extent did the music make you feel ,ANXIOUS ,30MonoWAV/30MonoF3.wav,1,2,2,3,,,,,0,12,12,2,0,10,10,1,,,,,,,,,2,0.8016642149887048,,,040,001,2019_May_17_0911,MusicAffectPsychophysiology2019,3.0.5,59.93484734205069,
To what extent did the music make you feel ,FRUSTRATED,30MonoWAV/30MonoF3.wav,1,2,2,3,,,,,0,12,12,2,0,11,11,3,,,,,,,,,2,0.9859964280040003,,,040,001,2019_May_17_0911,MusicAffectPsychophysiology2019,3.0.5,59.93484734205069,
,,30MonoWAV/30MonoF3.wav,1,2,2,3,,,,,0,12,12,2,,,,,,,,,,,,,,,,,040,001,2019_May_17_0911,MusicAffectPsychophysiology2019,3.0.5,59.93484734205069,
To what extent did the music make you feel ,ANXIOUS ,30MonoWAV/30MonoH3.wav,2,2,1,7,,,,,0,13,13,6,0,0,0,1,,,5,2.404769957996905,5,0.5835177130065858,5,0.653797211998608,1,1.0695323499967344,,,040,001,2019_May_17_0911,MusicAffectPsychophysiology2019,3.0.5,59.93484734205069,
To what extent did the music make you feel ,SCARED,30MonoWAV/30MonoH3.wav,2,2,1,7,,,,,0,13,13,6,0,1,1,11,,,,,,,,,2,0.9352191579819191,,,040,001,2019_May_17_0911,MusicAffectPsychophysiology2019,3.0.5,59.93484734205069,
To what extent did the music make you feel ,ALERT,30MonoWAV/30MonoH3.wav,2,2,1,7,,,,,0,13,13,6,0,2,2,8,,,,,,,,,5,1.4026946489757393,,,040,001,2019_May_17_0911,MusicAffectPsychophysiology2019,3.0.5,59.93484734205069,
To what extent did the music make you feel ,ACTIVE,30MonoWAV/30MonoH3.wav,2,2,1,7,,,,,0,13,13,6,0,3,3,9,,,,,,,,,5,0.668830677983351,,,040,001,2019_May_17_0911,MusicAffectPsychophysiology2019,3.0.5,59.93484734205069,
To what extent did the music make you feel ,HAPPY,30MonoWAV/30MonoH3.wav,2,2,1,7,,,,,0,13,13,6,0,4,4,6,,,,,,,,,5,0.3851870129874442,,,040,001,2019_May_17_0911,MusicAffectPsychophysiology2019,3.0.5,59.93484734205069,
To what extent did the music make you feel ,FRUSTRATED,30MonoWAV/30MonoH3.wav,2,2,1,7,,,,,0,13,13,6,0,5,5,3,,,,,,,,,1,0.9015545629954431,,,040,001,2019_May_17_0911,MusicAffectPsychophysiology2019,3.0.5,59.93484734205069,
To what extent did the music make you feel ,ASHAMED,30MonoWAV/30MonoH3.wav,2,2,1,7,,,,,0,13,13,6,0,6,6,4,,,,,,,,,1,0.7839843340043444,,,040,001,2019_May_17_0911,MusicAffectPsychophysiology2019,3.0.5,59.93484734205069,
To what extent did the music make you feel ,GUILTY,30MonoWAV/30MonoH3.wav,2,2,1,7,,,,,0,13,13,6,0,7,7,5,,,,,,,,,1,0.752621884981636,,,040,001,2019_May_17_0911,MusicAffectPsychophysiology2019,3.0.5,59.93484734205069,
To what extent did the music make you feel ,TENDER,30MonoWAV/30MonoH3.wav,2,2,1,7,,,,,0,13,13,6,0,8,8,10,,,,,,,,,1,0.6847307739953976,,,040,001,2019_May_17_0911,MusicAffectPsychophysiology2019,3.0.5,59.93484734205069,
To what extent did the music make you feel ,ANGRY,30MonoWAV/30MonoH3.wav,2,2,1,7,,,,,0,13,13,6,0,9,9,2,,,,,,,,,1,0.7504268269985914,,,040,001,2019_May_17_0911,MusicAffectPsychophysiology2019,3.0.5,59.93484734205069,
To what extent did the music make you feel ,SAD,30MonoWAV/30MonoH3.wav,2,2,1,7,,,,,0,13,13,6,0,10,10,0,,,,,,,,,1,1.0195485890144482,,,040,001,2019_May_17_0911,MusicAffectPsychophysiology2019,3.0.5,59.93484734205069,
To what extent did the music make you feel ,EXCITED,30MonoWAV/30MonoH3.wav,2,2,1,7,,,,,0,13,13,6,0,11,11,7,,,,,,,,,5,1.3525154939852655,,,040,001,2019_May_17_0911,MusicAffectPsychophysiology2019,3.0.5,59.93484734205069,
,,30MonoWAV/30MonoH3.wav,2,2,1,7,,,,,0,13,13,6,,,,,,,,,,,,,,,,,040,001,2019_May_17_0911,MusicAffectPsychophysiology2019,3.0.5,59.93484734205069,
To what extent did the music make you feel ,ACTIVE,30MonoWAV/30MonoS4.wav,1,1,3,12,,,,,0,14,14,11,0,0,0,9,,,3,3.2847524890094064,3,1.5844502440013457,3,1.5330290849960875,3,0.9185803790169302,,,040,001,2019_May_17_0911,MusicAffectPsychophysiology2019,3.0.5,59.93484734205069,
To what extent did the music make you feel ,ANXIOUS ,30MonoWAV/30MonoS4.wav,1,1,3,12,,,,,0,14,14,11,0,1,1,1,,,,,,,,,4,2.1341000619868282,,,040,001,2019_May_17_0911,MusicAffectPsychophysiology2019,3.0.5,59.93484734205069,
To what extent did the music make you feel ,ASHAMED,30MonoWAV/30MonoS4.wav,1,1,3,12,,,,,0,14,14,11,0,2,2,4,,,,,,,,,3,1.552121251996141,,,040,001,2019_May_17_0911,MusicAffectPsychophysiology2019,3.0.5,59.93484734205069,
To what extent did the music make you feel ,TENDER,30MonoWAV/30MonoS4.wav,1,1,3,12,,,,,0,14,14,11,0,3,3,10,,,,,,,,,4,1.1018687209871132,,,040,001,2019_May_17_0911,MusicAffectPsychophysiology2019,3.0.5,59.93484734205069,
To what extent did the music make you feel ,FRUSTRATED,30MonoWAV/30MonoS4.wav,1,1,3,12,,,,,0,14,14,11,0,4,4,3,,,,,,,,,4,1.0515502910129726,,,040,001,2019_May_17_0911,MusicAffectPsychophysiology2019,3.0.5,59.93484734205069,
To what extent did the music make you feel ,EXCITED,30MonoWAV/30MonoS4.wav,1,1,3,12,,,,,0,14,14,11,0,5,5,7,,,,,,,,,2,0.9514360470057,,,040,001,2019_May_17_0911,MusicAffectPsychophysiology2019,3.0.5,59.93484734205069,
To what extent did the music make you feel ,GUILTY,30MonoWAV/30MonoS4.wav,1,1,3,12,,,,,0,14,14,11,0,6,6,5,,,,,,,,,4,0.701861812005518,,,040,001,2019_May_17_0911,MusicAffectPsychophysiology2019,3.0.5,59.93484734205069,
To what extent did the music make you feel ,SAD,30MonoWAV/30MonoS4.wav,1,1,3,12,,,,,0,14,14,11,0,7,7,0,,,,,,,,,4,0.7333581559942104,,,040,001,2019_May_17_0911,MusicAffectPsychophysiology2019,3.0.5,59.93484734205069,
To what extent did the music make you feel ,ALERT,30MonoWAV/30MonoS4.wav,1,1,3,12,,,,,0,14,14,11,0,8,8,8,,,,,,,,,2,0.7671982029860374,,,040,001,2019_May_17_0911,MusicAffectPsychophysiology2019,3.0.5,59.93484734205069,
To what extent did the music make you feel ,HAPPY,30MonoWAV/30MonoS4.wav,1,1,3,12,,,,,0,14,14,11,0,9,9,6,,,,,,,,,2,0.6848172489844728,,,040,001,2019_May_17_0911,MusicAffectPsychophysiology2019,3.0.5,59.93484734205069,
To what extent did the music make you feel ,SCARED,30MonoWAV/30MonoS4.wav,1,1,3,12,,,,,0,14,14,11,0,10,10,11,,,,,,,,,3,2.134350677981274,,,040,001,2019_May_17_0911,MusicAffectPsychophysiology2019,3.0.5,59.93484734205069,
To what extent did the music make you feel ,ANGRY,30MonoWAV/30MonoS4.wav,1,1,3,12,,,,,0,14,14,11,0,11,11,2,,,,,,,,,3,0.9015412629814819,,,040,001,2019_May_17_0911,MusicAffectPsychophysiology2019,3.0.5,59.93484734205069,
,,30MonoWAV/30MonoS4.wav,1,1,3,12,,,,,0,14,14,11,,,,,,,,,,,,,,,,,040,001,2019_May_17_0911,MusicAffectPsychophysiology2019,3.0.5,59.93484734205069,
To what extent did the music make you feel ,GUILTY,30MonoWAV/30MonoH2.wav,2,2,1,6,,,,,0,15,15,5,0,0,0,5,,,4,2.53552420498454,4,0.9848863350052852,4,2.818076914991252,2,1.3023274590086658,,,040,001,2019_May_17_0911,MusicAffectPsychophysiology2019,3.0.5,59.93484734205069,
To what extent did the music make you feel ,SAD,30MonoWAV/30MonoH2.wav,2,2,1,6,,,,,0,15,15,5,0,1,1,0,,,,,,,,,4,1.8016441149811726,,,040,001,2019_May_17_0911,MusicAffectPsychophysiology2019,3.0.5,59.93484734205069,
To what extent did the music make you feel ,FRUSTRATED,30MonoWAV/30MonoH2.wav,2,2,1,6,,,,,0,15,15,5,0,2,2,3,,,,,,,,,4,0.885317380016204,,,040,001,2019_May_17_0911,MusicAffectPsychophysiology2019,3.0.5,59.93484734205069,
To what extent did the music make you feel ,ACTIVE,30MonoWAV/30MonoH2.wav,2,2,1,6,,,,,0,15,15,5,0,3,3,9,,,,,,,,,2,0.8032913870119955,,,040,001,2019_May_17_0911,MusicAffectPsychophysiology2019,3.0.5,59.93484734205069,
To what extent did the music make you feel ,TENDER,30MonoWAV/30MonoH2.wav,2,2,1,6,,,,,0,15,15,5,0,4,4,10,,,,,,,,,4,0.718431655986933,,,040,001,2019_May_17_0911,MusicAffectPsychophysiology2019,3.0.5,59.93484734205069,
To what extent did the music make you feel ,ANGRY,30MonoWAV/30MonoH2.wav,2,2,1,6,,,,,0,15,15,5,0,5,5,2,,,,,,,,,2,0.836571385996649,,,040,001,2019_May_17_0911,MusicAffectPsychophysiology2019,3.0.5,59.93484734205069,
To what extent did the music make you feel ,ANXIOUS ,30MonoWAV/30MonoH2.wav,2,2,1,6,,,,,0,15,15,5,0,6,6,1,,,,,,,,,4,1.0348114729858935,,,040,001,2019_May_17_0911,MusicAffectPsychophysiology2019,3.0.5,59.93484734205069,
To what extent did the music make you feel ,SCARED,30MonoWAV/30MonoH2.wav,2,2,1,6,,,,,0,15,15,5,0,7,7,11,,,,,,,,,3,1.23494927099091,,,040,001,2019_May_17_0911,MusicAffectPsychophysiology2019,3.0.5,59.93484734205069,
To what extent did the music make you feel ,ASHAMED,30MonoWAV/30MonoH2.wav,2,2,1,6,,,,,0,15,15,5,0,8,8,4,,,,,,,,,2,0.7017983580008149,,,040,001,2019_May_17_0911,MusicAffectPsychophysiology2019,3.0.5,59.93484734205069,
To what extent did the music make you feel ,HAPPY,30MonoWAV/30MonoH2.wav,2,2,1,6,,,,,0,15,15,5,0,9,9,6,,,,,,,,,2,0.7025419610145036,,,040,001,2019_May_17_0911,MusicAffectPsychophysiology2019,3.0.5,59.93484734205069,
To what extent did the music make you feel ,ALERT,30MonoWAV/30MonoH2.wav,2,2,1,6,,,,,0,15,15,5,0,10,10,8,,,,,,,,,2,0.6189982120122295,,,040,001,2019_May_17_0911,MusicAffectPsychophysiology2019,3.0.5,59.93484734205069,
To what extent did the music make you feel ,EXCITED,30MonoWAV/30MonoH2.wav,2,2,1,6,,,,,0,15,15,5,0,11,11,7,,,,,,,,,2,0.6692833679844625,,,040,001,2019_May_17_0911,MusicAffectPsychophysiology2019,3.0.5,59.93484734205069,
,,30MonoWAV/30MonoH2.wav,2,2,1,6,,,,,0,15,15,5,,,,,,,,,,,,,,,,,040,001,2019_May_17_0911,MusicAffectPsychophysiology2019,3.0.5,59.93484734205069,
To what extent did the music make you feel ,ALERT,30MonoWAV/30MonoT1.wav,2,1,4,13,,,,,1,0,16,12,0,0,0,8,,,3,2.0168253229930997,3,0.6854985980025958,3,0.5676151700026821,1,1.2842139869753737,,,040,001,2019_May_17_0911,MusicAffectPsychophysiology2019,3.0.5,59.93484734205069,
To what extent did the music make you feel ,SAD,30MonoWAV/30MonoT1.wav,2,1,4,13,,,,,1,0,16,12,0,1,1,0,,,,,,,,,4,1.4857030390121508,,,040,001,2019_May_17_0911,MusicAffectPsychophysiology2019,3.0.5,59.93484734205069,
To what extent did the music make you feel ,TENDER,30MonoWAV/30MonoT1.wav,2,1,4,13,,,,,1,0,16,12,0,2,2,10,,,,,,,,,3,1.674802980007371,,,040,001,2019_May_17_0911,MusicAffectPsychophysiology2019,3.0.5,59.93484734205069,
To what extent did the music make you feel ,EXCITED,30MonoWAV/30MonoT1.wav,2,1,4,13,,,,,1,0,16,12,0,3,3,7,,,,,,,,,1,1.086130576004507,,,040,001,2019_May_17_0911,MusicAffectPsychophysiology2019,3.0.5,59.93484734205069,
To what extent did the music make you feel ,SCARED,30MonoWAV/30MonoT1.wav,2,1,4,13,,,,,1,0,16,12,0,4,4,11,,,,,,,,,2,1.1013162290037144,,,040,001,2019_May_17_0911,MusicAffectPsychophysiology2019,3.0.5,59.93484734205069,
To what extent did the music make you feel ,HAPPY,30MonoWAV/30MonoT1.wav,2,1,4,13,,,,,1,0,16,12,0,5,5,6,,,,,,,,,1,0.8694634839775972,,,040,001,2019_May_17_0911,MusicAffectPsychophysiology2019,3.0.5,59.93484734205069,
To what extent did the music make you feel ,GUILTY,30MonoWAV/30MonoT1.wav,2,1,4,13,,,,,1,0,16,12,0,6,6,5,,,,,,,,,2,1.036737982998602,,,040,001,2019_May_17_0911,MusicAffectPsychophysiology2019,3.0.5,59.93484734205069,
To what extent did the music make you feel ,FRUSTRATED,30MonoWAV/30MonoT1.wav,2,1,4,13,,,,,1,0,16,12,0,7,7,3,,,,,,,,,1,1.1706166030198801,,,040,001,2019_May_17_0911,MusicAffectPsychophysiology2019,3.0.5,59.93484734205069,
To what extent did the music make you feel ,ANGRY,30MonoWAV/30MonoT1.wav,2,1,4,13,,,,,1,0,16,12,0,8,8,2,,,,,,,,,2,0.8681145839800593,,,040,001,2019_May_17_0911,MusicAffectPsychophysiology2019,3.0.5,59.93484734205069,
To what extent did the music make you feel ,ACTIVE,30MonoWAV/30MonoT1.wav,2,1,4,13,,,,,1,0,16,12,0,9,9,9,,,,,,,,,3,1.3834714489930775,,,040,001,2019_May_17_0911,MusicAffectPsychophysiology2019,3.0.5,59.93484734205069,
To what extent did the music make you feel ,ANXIOUS ,30MonoWAV/30MonoT1.wav,2,1,4,13,,,,,1,0,16,12,0,10,10,1,,,,,,,,,4,1.7350745709845796,,,040,001,2019_May_17_0911,MusicAffectPsychophysiology2019,3.0.5,59.93484734205069,
To what extent did the music make you feel ,ASHAMED,30MonoWAV/30MonoT1.wav,2,1,4,13,,,,,1,0,16,12,0,11,11,4,,,,,,,,,4,2.484876169997733,,,040,001,2019_May_17_0911,MusicAffectPsychophysiology2019,3.0.5,59.93484734205069,
,,30MonoWAV/30MonoT1.wav,2,1,4,13,,,,,1,0,16,12,,,,,,,,,,,,,,,,,040,001,2019_May_17_0911,MusicAffectPsychophysiology2019,3.0.5,59.93484734205069,
To what extent did the music make you feel ,HAPPY,30MonoWAV/30MonoS4.wav,1,1,3,12,,,,,1,1,17,11,0,0,0,6,,,3,3.2854326050146483,3,1.4861016889917664,4,2.8344437970081344,4,0.9017349110217765,,,040,001,2019_May_17_0911,MusicAffectPsychophysiology2019,3.0.5,59.93484734205069,
To what extent did the music make you feel ,ALERT,30MonoWAV/30MonoS4.wav,1,1,3,12,,,,,1,1,17,11,0,1,1,8,,,,,,,,,2,0.8855684659793042,,,040,001,2019_May_17_0911,MusicAffectPsychophysiology2019,3.0.5,59.93484734205069,
To what extent did the music make you feel ,SCARED,30MonoWAV/30MonoS4.wav,1,1,3,12,,,,,1,1,17,11,0,2,2,11,,,,,,,,,2,0.9516655479965266,,,040,001,2019_May_17_0911,MusicAffectPsychophysiology2019,3.0.5,59.93484734205069,
To what extent did the music make you feel ,ANXIOUS ,30MonoWAV/30MonoS4.wav,1,1,3,12,,,,,1,1,17,11,0,3,3,1,,,,,,,,,3,1.300323766976362,,,040,001,2019_May_17_0911,MusicAffectPsychophysiology2019,3.0.5,59.93484734205069,
To what extent did the music make you feel ,TENDER,30MonoWAV/30MonoS4.wav,1,1,3,12,,,,,1,1,17,11,0,4,4,10,,,,,,,,,2,0.5519149930041749,,,040,001,2019_May_17_0911,MusicAffectPsychophysiology2019,3.0.5,59.93484734205069,
To what extent did the music make you feel ,ANGRY,30MonoWAV/30MonoS4.wav,1,1,3,12,,,,,1,1,17,11,0,5,5,2,,,,,,,,,2,0.8186796990048606,,,040,001,2019_May_17_0911,MusicAffectPsychophysiology2019,3.0.5,59.93484734205069,
To what extent did the music make you feel ,EXCITED,30MonoWAV/30MonoS4.wav,1,1,3,12,,,,,1,1,17,11,0,6,6,7,,,,,,,,,4,1.0852549799892586,,,040,001,2019_May_17_0911,MusicAffectPsychophysiology2019,3.0.5,59.93484734205069,
To what extent did the music make you feel ,GUILTY,30MonoWAV/30MonoS4.wav,1,1,3,12,,,,,1,1,17,11,0,7,7,5,,,,,,,,,2,0.5853606630116701,,,040,001,2019_May_17_0911,MusicAffectPsychophysiology2019,3.0.5,59.93484734205069,
To what extent did the music make you feel ,SAD,30MonoWAV/30MonoS4.wav,1,1,3,12,,,,,1,1,17,11,0,8,8,0,,,,,,,,,4,1.0192384220135864,,,040,001,2019_May_17_0911,MusicAffectPsychophysiology2019,3.0.5,59.93484734205069,
To what extent did the music make you feel ,ACTIVE,30MonoWAV/30MonoS4.wav,1,1,3,12,,,,,1,1,17,11,0,9,9,9,,,,,,,,,3,1.1181217929988634,,,040,001,2019_May_17_0911,MusicAffectPsychophysiology2019,3.0.5,59.93484734205069,
To what extent did the music make you feel ,ASHAMED,30MonoWAV/30MonoS4.wav,1,1,3,12,,,,,1,1,17,11,0,10,10,4,,,,,,,,,2,1.0682653219846543,,,040,001,2019_May_17_0911,MusicAffectPsychophysiology2019,3.0.5,59.93484734205069,
To what extent did the music make you feel ,FRUSTRATED,30MonoWAV/30MonoS4.wav,1,1,3,12,,,,,1,1,17,11,0,11,11,3,,,,,,,,,2,0.935083404998295,,,040,001,2019_May_17_0911,MusicAffectPsychophysiology2019,3.0.5,59.93484734205069,
,,30MonoWAV/30MonoS4.wav,1,1,3,12,,,,,1,1,17,11,,,,,,,,,,,,,,,,,040,001,2019_May_17_0911,MusicAffectPsychophysiology2019,3.0.5,59.93484734205069,
To what extent did the music make you feel ,HAPPY,30MonoWAV/30MonoF2.wav,1,2,2,2,,,,,1,2,18,1,0,0,0,6,,,4,3.205559428984998,4,0.6693814879981801,3,0.6187247629859485,3,1.5687176389910746,,,040,001,2019_May_17_0911,MusicAffectPsychophysiology2019,3.0.5,59.93484734205069,
To what extent did the music make you feel ,ALERT,30MonoWAV/30MonoF2.wav,1,2,2,2,,,,,1,2,18,1,0,1,1,8,,,,,,,,,4,0.8533426509820856,,,040,001,2019_May_17_0911,MusicAffectPsychophysiology2019,3.0.5,59.93484734205069,
To what extent did the music make you feel ,GUILTY,30MonoWAV/30MonoF2.wav,1,2,2,2,,,,,1,2,18,1,0,2,2,5,,,,,,,,,3,0.7563140759884845,,,040,001,2019_May_17_0911,MusicAffectPsychophysiology2019,3.0.5,59.93484734205069,
To what extent did the music make you feel ,ANXIOUS ,30MonoWAV/30MonoF2.wav,1,2,2,2,,,,,1,2,18,1,0,3,3,1,,,,,,,,,4,0.8517609999980778,,,040,001,2019_May_17_0911,MusicAffectPsychophysiology2019,3.0.5,59.93484734205069,
To what extent did the music make you feel ,SCARED,30MonoWAV/30MonoF2.wav,1,2,2,2,,,,,1,2,18,1,0,4,4,11,,,,,,,,,4,0.6856383160047699,,,040,001,2019_May_17_0911,MusicAffectPsychophysiology2019,3.0.5,59.93484734205069,
To what extent did the music make you feel ,TENDER,30MonoWAV/30MonoF2.wav,1,2,2,2,,,,,1,2,18,1,0,5,5,10,,,,,,,,,4,0.7675326500029769,,,040,001,2019_May_17_0911,MusicAffectPsychophysiology2019,3.0.5,59.93484734205069,
To what extent did the music make you feel ,FRUSTRATED,30MonoWAV/30MonoF2.wav,1,2,2,2,,,,,1,2,18,1,0,6,6,3,,,,,,,,,4,0.5856559709936846,,,040,001,2019_May_17_0911,MusicAffectPsychophysiology2019,3.0.5,59.93484734205069,
To what extent did the music make you feel ,SAD,30MonoWAV/30MonoF2.wav,1,2,2,2,,,,,1,2,18,1,0,7,7,0,,,,,,,,,3,0.6185755329788662,,,040,001,2019_May_17_0911,MusicAffectPsychophysiology2019,3.0.5,59.93484734205069,
To what extent did the music make you feel ,ANGRY,30MonoWAV/30MonoF2.wav,1,2,2,2,,,,,1,2,18,1,0,8,8,2,,,,,,,,,3,0.6329366629943252,,,040,001,2019_May_17_0911,MusicAffectPsychophysiology2019,3.0.5,59.93484734205069,
To what extent did the music make you feel ,EXCITED,30MonoWAV/30MonoF2.wav,1,2,2,2,,,,,1,2,18,1,0,9,9,7,,,,,,,,,3,1.251123976020608,,,040,001,2019_May_17_0911,MusicAffectPsychophysiology2019,3.0.5,59.93484734205069,
To what extent did the music make you feel ,ASHAMED,30MonoWAV/30MonoF2.wav,1,2,2,2,,,,,1,2,18,1,0,10,10,4,,,,,,,,,4,0.9681239000055939,,,040,001,2019_May_17_0911,MusicAffectPsychophysiology2019,3.0.5,59.93484734205069,
To what extent did the music make you feel ,ACTIVE,30MonoWAV/30MonoF2.wav,1,2,2,2,,,,,1,2,18,1,0,11,11,9,,,,,,,,,3,0.6694186319946311,,,040,001,2019_May_17_0911,MusicAffectPsychophysiology2019,3.0.5,59.93484734205069,
,,30MonoWAV/30MonoF2.wav,1,2,2,2,,,,,1,2,18,1,,,,,,,,,,,,,,,,,040,001,2019_May_17_0911,MusicAffectPsychophysiology2019,3.0.5,59.93484734205069,
To what extent did the music make you feel ,ACTIVE,30MonoWAV/30MonoF3.wav,1,2,2,3,,,,,1,3,19,2,0,0,0,9,,,4,3.350949198997114,4,1.7845551109930966,4,1.1024268949986435,4,0.8030191889847629,,,040,001,2019_May_17_0911,MusicAffectPsychophysiology2019,3.0.5,59.93484734205069,
To what extent did the music make you feel ,EXCITED,30MonoWAV/30MonoF3.wav,1,2,2,3,,,,,1,3,19,2,0,1,1,7,,,,,,,,,4,0.5022647610167041,,,040,001,2019_May_17_0911,MusicAffectPsychophysiology2019,3.0.5,59.93484734205069,
To what extent did the music make you feel ,ANXIOUS ,30MonoWAV/30MonoF3.wav,1,2,2,3,,,,,1,3,19,2,0,2,2,1,,,,,,,,,2,1.184859114990104,,,040,001,2019_May_17_0911,MusicAffectPsychophysiology2019,3.0.5,59.93484734205069,
To what extent did the music make you feel ,TENDER,30MonoWAV/30MonoF3.wav,1,2,2,3,,,,,1,3,19,2,0,3,3,10,,,,,,,,,3,1.0011380389914848,,,040,001,2019_May_17_0911,MusicAffectPsychophysiology2019,3.0.5,59.93484734205069,
To what extent did the music make you feel ,HAPPY,30MonoWAV/30MonoF3.wav,1,2,2,3,,,,,1,3,19,2,0,4,4,6,,,,,,,,,3,1.2347854359832127,,,040,001,2019_May_17_0911,MusicAffectPsychophysiology2019,3.0.5,59.93484734205069,
To what extent did the music make you feel ,GUILTY,30MonoWAV/30MonoF3.wav,1,2,2,3,,,,,1,3,19,2,0,5,5,5,,,,,,,,,2,0.8180928210204002,,,040,001,2019_May_17_0911,MusicAffectPsychophysiology2019,3.0.5,59.93484734205069,
To what extent did the music make you feel ,FRUSTRATED,30MonoWAV/30MonoF3.wav,1,2,2,3,,,,,1,3,19,2,0,6,6,3,,,,,,,,,3,0.8354402009863406,,,040,001,2019_May_17_0911,MusicAffectPsychophysiology2019,3.0.5,59.93484734205069,
To what extent did the music make you feel ,SAD,30MonoWAV/30MonoF3.wav,1,2,2,3,,,,,1,3,19,2,0,7,7,0,,,,,,,,,2,1.0496609790134244,,,040,001,2019_May_17_0911,MusicAffectPsychophysiology2019,3.0.5,59.93484734205069,
To what extent did the music make you feel ,ALERT,30MonoWAV/30MonoF3.wav,1,2,2,3,,,,,1,3,19,2,0,8,8,8,,,,,,,,,2,1.1344234129937831,,,040,001,2019_May_17_0911,MusicAffectPsychophysiology2019,3.0.5,59.93484734205069,
To what extent did the music make you feel ,ANGRY,30MonoWAV/30MonoF3.wav,1,2,2,3,,,,,1,3,19,2,0,9,9,2,,,,,,,,,3,1.1019351969880518,,,040,001,2019_May_17_0911,MusicAffectPsychophysiology2019,3.0.5,59.93484734205069,
To what extent did the music make you feel ,SCARED,30MonoWAV/30MonoF3.wav,1,2,2,3,,,,,1,3,19,2,0,10,10,11,,,,,,,,,3,0.8359577340015676,,,040,001,2019_May_17_0911,MusicAffectPsychophysiology2019,3.0.5,59.93484734205069,
To what extent did the music make you feel ,ASHAMED,30MonoWAV/30MonoF3.wav,1,2,2,3,,,,,1,3,19,2,0,11,11,4,,,,,,,,,3,0.9513388230116107,,,040,001,2019_May_17_0911,MusicAffectPsychophysiology2019,3.0.5,59.93484734205069,
,,30MonoWAV/30MonoF3.wav,1,2,2,3,,,,,1,3,19,2,,,,,,,,,,,,,,,,,040,001,2019_May_17_0911,MusicAffectPsychophysiology2019,3.0.5,59.93484734205069,
To what extent did the music make you feel ,ANGRY,30MonoWAV/30MonoH1.wav,2,2,1,5,,,,,1,4,20,4,0,0,0,2,,,5,3.3922114729939494,4,2.154151798982639,4,0.920041517005302,1,1.202038020011969,,,040,001,2019_May_17_0911,MusicAffectPsychophysiology2019,3.0.5,59.93484734205069,
To what extent did the music make you feel ,EXCITED,30MonoWAV/30MonoH1.wav,2,2,1,5,,,,,1,4,20,4,0,1,1,7,,,,,,,,,5,1.1391442450112663,,,040,001,2019_May_17_0911,MusicAffectPsychophysiology2019,3.0.5,59.93484734205069,
To what extent did the music make you feel ,ASHAMED,30MonoWAV/30MonoH1.wav,2,2,1,5,,,,,1,4,20,4,0,2,2,4,,,,,,,,,1,1.2170484070084058,,,040,001,2019_May_17_0911,MusicAffectPsychophysiology2019,3.0.5,59.93484734205069,
To what extent did the music make you feel ,HAPPY,30MonoWAV/30MonoH1.wav,2,2,1,5,,,,,1,4,20,4,0,3,3,6,,,,,,,,,5,0.9871433989901561,,,040,001,2019_May_17_0911,MusicAffectPsychophysiology2019,3.0.5,59.93484734205069,
To what extent did the music make you feel ,ANXIOUS ,30MonoWAV/30MonoH1.wav,2,2,1,5,,,,,1,4,20,4,0,4,4,1,,,,,,,,,2,1.0351900719979312,,,040,001,2019_May_17_0911,MusicAffectPsychophysiology2019,3.0.5,59.93484734205069,
To what extent did the music make you feel ,TENDER,30MonoWAV/30MonoH1.wav,2,2,1,5,,,,,1,4,20,4,0,5,5,10,,,,,,,,,2,0.9681490869843401,,,040,001,2019_May_17_0911,MusicAffectPsychophysiology2019,3.0.5,59.93484734205069,
To what extent did the music make you feel ,SAD,30MonoWAV/30MonoH1.wav,2,2,1,5,,,,,1,4,20,4,0,6,6,0,,,,,,,,,2,0.7525969689886551,,,040,001,2019_May_17_0911,MusicAffectPsychophysiology2019,3.0.5,59.93484734205069,
To what extent did the music make you feel ,ALERT,30MonoWAV/30MonoH1.wav,2,2,1,5,,,,,1,4,20,4,0,7,7,8,,,,,,,,,5,0.6832331570039969,,,040,001,2019_May_17_0911,MusicAffectPsychophysiology2019,3.0.5,59.93484734205069,
To what extent did the music make you feel ,GUILTY,30MonoWAV/30MonoH1.wav,2,2,1,5,,,,,1,4,20,4,0,8,8,5,,,,,,,,,2,1.084131197014358,,,040,001,2019_May_17_0911,MusicAffectPsychophysiology2019,3.0.5,59.93484734205069,
To what extent did the music make you feel ,ACTIVE,30MonoWAV/30MonoH1.wav,2,2,1,5,,,,,1,4,20,4,0,9,9,9,,,,,,,,,5,0.6017166870005894,,,040,001,2019_May_17_0911,MusicAffectPsychophysiology2019,3.0.5,59.93484734205069,
To what extent did the music make you feel ,FRUSTRATED,30MonoWAV/30MonoH1.wav,2,2,1,5,,,,,1,4,20,4,0,10,10,3,,,,,,,,,2,0.7003174780111294,,,040,001,2019_May_17_0911,MusicAffectPsychophysiology2019,3.0.5,59.93484734205069,
To what extent did the music make you feel ,SCARED,30MonoWAV/30MonoH1.wav,2,2,1,5,,,,,1,4,20,4,0,11,11,11,,,,,,,,,3,1.502455112989992,,,040,001,2019_May_17_0911,MusicAffectPsychophysiology2019,3.0.5,59.93484734205069,
,,30MonoWAV/30MonoH1.wav,2,2,1,5,,,,,1,4,20,4,,,,,,,,,,,,,,,,,040,001,2019_May_17_0911,MusicAffectPsychophysiology2019,3.0.5,59.93484734205069,
To what extent did the music make you feel ,ALERT,30MonoWAV/30MonoS2.wav,1,1,3,10,,,,,1,5,21,9,0,0,0,8,,,5,5.972453060996486,4,0.919885773997521,4,0.7194264290155843,3,1.6196897430054378,,,040,001,2019_May_17_0911,MusicAffectPsychophysiology2019,3.0.5,59.93484734205069,
To what extent did the music make you feel ,EXCITED,30MonoWAV/30MonoS2.wav,1,1,3,10,,,,,1,5,21,9,0,1,1,7,,,,,,,,,3,1.1021750759973656,,,040,001,2019_May_17_0911,MusicAffectPsychophysiology2019,3.0.5,59.93484734205069,
To what extent did the music make you feel ,FRUSTRATED,30MonoWAV/30MonoS2.wav,1,1,3,10,,,,,1,5,21,9,0,2,2,3,,,,,,,,,4,1.1194912870123517,,,040,001,2019_May_17_0911,MusicAffectPsychophysiology2019,3.0.5,59.93484734205069,
To what extent did the music make you feel ,TENDER,30MonoWAV/30MonoS2.wav,1,1,3,10,,,,,1,5,21,9,0,3,3,10,,,,,,,,,4,0.585892139992211,,,040,001,2019_May_17_0911,MusicAffectPsychophysiology2019,3.0.5,59.93484734205069,
To what extent did the music make you feel ,GUILTY,30MonoWAV/30MonoS2.wav,1,1,3,10,,,,,1,5,21,9,0,4,4,5,,,,,,,,,4,0.556060917006107,,,040,001,2019_May_17_0911,MusicAffectPsychophysiology2019,3.0.5,59.93484734205069,
To what extent did the music make you feel ,ASHAMED,30MonoWAV/30MonoS2.wav,1,1,3,10,,,,,1,5,21,9,0,5,5,4,,,,,,,,,4,0.634545602981234,,,040,001,2019_May_17_0911,MusicAffectPsychophysiology2019,3.0.5,59.93484734205069,
To what extent did the music make you feel ,ANXIOUS ,30MonoWAV/30MonoS2.wav,1,1,3,10,,,,,1,5,21,9,0,6,6,1,,,,,,,,,4,0.8692192310118116,,,040,001,2019_May_17_0911,MusicAffectPsychophysiology2019,3.0.5,59.93484734205069,
To what extent did the music make you feel ,HAPPY,30MonoWAV/30MonoS2.wav,1,1,3,10,,,,,1,5,21,9,0,7,7,6,,,,,,,,,3,0.9185054849949665,,,040,001,2019_May_17_0911,MusicAffectPsychophysiology2019,3.0.5,59.93484734205069,
To what extent did the music make you feel ,SCARED,30MonoWAV/30MonoS2.wav,1,1,3,10,,,,,1,5,21,9,0,8,8,11,,,,,,,,,4,1.6360416779934894,,,040,001,2019_May_17_0911,MusicAffectPsychophysiology2019,3.0.5,59.93484734205069,
To what extent did the music make you feel ,ACTIVE,30MonoWAV/30MonoS2.wav,1,1,3,10,,,,,1,5,21,9,0,9,9,9,,,,,,,,,3,0.5851776720082853,,,040,001,2019_May_17_0911,MusicAffectPsychophysiology2019,3.0.5,59.93484734205069,
To what extent did the music make you feel ,ANGRY,30MonoWAV/30MonoS2.wav,1,1,3,10,,,,,1,5,21,9,0,10,10,2,,,,,,,,,4,0.8352800850116182,,,040,001,2019_May_17_0911,MusicAffectPsychophysiology2019,3.0.5,59.93484734205069,
To what extent did the music make you feel ,SAD,30MonoWAV/30MonoS2.wav,1,1,3,10,,,,,1,5,21,9,0,11,11,0,,,,,,,,,4,1.2018713320139796,,,040,001,2019_May_17_0911,MusicAffectPsychophysiology2019,3.0.5,59.93484734205069,
,,30MonoWAV/30MonoS2.wav,1,1,3,10,,,,,1,5,21,9,,,,,,,,,,,,,,,,,040,001,2019_May_17_0911,MusicAffectPsychophysiology2019,3.0.5,59.93484734205069,
To what extent did the music make you feel ,ACTIVE,30MonoWAV/30MonoS1.wav,1,1,3,9,,,,,1,6,22,8,0,0,0,9,,,4,2.26858246998745,5,0.5580175629875157,4,0.6352474169980269,3,1.58378229799564,,,040,001,2019_May_17_0911,MusicAffectPsychophysiology2019,3.0.5,59.93484734205069,
To what extent did the music make you feel ,EXCITED,30MonoWAV/30MonoS1.wav,1,1,3,9,,,,,1,6,22,8,0,1,1,7,,,,,,,,,3,1.136381781019736,,,040,001,2019_May_17_0911,MusicAffectPsychophysiology2019,3.0.5,59.93484734205069,
To what extent did the music make you feel ,SAD,30MonoWAV/30MonoS1.wav,1,1,3,9,,,,,1,6,22,8,0,2,2,0,,,,,,,,,4,1.5011859509977512,,,040,001,2019_May_17_0911,MusicAffectPsychophysiology2019,3.0.5,59.93484734205069,
To what extent did the music make you feel ,ASHAMED,30MonoWAV/30MonoS1.wav,1,1,3,9,,,,,1,6,22,8,0,3,3,4,,,,,,,,,4,0.8016882740193978,,,040,001,2019_May_17_0911,MusicAffectPsychophysiology2019,3.0.5,59.93484734205069,
To what extent did the music make you feel ,ANXIOUS ,30MonoWAV/30MonoS1.wav,1,1,3,9,,,,,1,6,22,8,0,4,4,1,,,,,,,,,4,1.135649956006091,,,040,001,2019_May_17_0911,MusicAffectPsychophysiology2019,3.0.5,59.93484734205069,
To what extent did the music make you feel ,ALERT,30MonoWAV/30MonoS1.wav,1,1,3,9,,,,,1,6,22,8,0,5,5,8,,,,,,,,,3,0.7517727170197759,,,040,001,2019_May_17_0911,MusicAffectPsychophysiology2019,3.0.5,59.93484734205069,
To what extent did the music make you feel ,GUILTY,30MonoWAV/30MonoS1.wav,1,1,3,9,,,,,1,6,22,8,0,6,6,5,,,,,,,,,4,1.068828413990559,,,040,001,2019_May_17_0911,MusicAffectPsychophysiology2019,3.0.5,59.93484734205069,
To what extent did the music make you feel ,SCARED,30MonoWAV/30MonoS1.wav,1,1,3,9,,,,,1,6,22,8,0,7,7,11,,,,,,,,,4,1.0677279780211393,,,040,001,2019_May_17_0911,MusicAffectPsychophysiology2019,3.0.5,59.93484734205069,
To what extent did the music make you feel ,HAPPY,30MonoWAV/30MonoS1.wav,1,1,3,9,,,,,1,6,22,8,0,8,8,6,,,,,,,,,3,0.6181685320043471,,,040,001,2019_May_17_0911,MusicAffectPsychophysiology2019,3.0.5,59.93484734205069,
To what extent did the music make you feel ,FRUSTRATED,30MonoWAV/30MonoS1.wav,1,1,3,9,,,,,1,6,22,8,0,9,9,3,,,,,,,,,4,0.8698780199920293,,,040,001,2019_May_17_0911,MusicAffectPsychophysiology2019,3.0.5,59.93484734205069,
To what extent did the music make you feel ,ANGRY,30MonoWAV/30MonoS1.wav,1,1,3,9,,,,,1,6,22,8,0,10,10,2,,,,,,,,,4,0.7350279070087709,,,040,001,2019_May_17_0911,MusicAffectPsychophysiology2019,3.0.5,59.93484734205069,
To what extent did the music make you feel ,TENDER,30MonoWAV/30MonoS1.wav,1,1,3,9,,,,,1,6,22,8,0,11,11,10,,,,,,,,,4,1.9345683739811648,,,040,001,2019_May_17_0911,MusicAffectPsychophysiology2019,3.0.5,59.93484734205069,
,,30MonoWAV/30MonoS1.wav,1,1,3,9,,,,,1,6,22,8,,,,,,,,,,,,,,,,,040,001,2019_May_17_0911,MusicAffectPsychophysiology2019,3.0.5,59.93484734205069,
To what extent did the music make you feel ,ASHAMED,30MonoWAV/30MonoS3.wav,1,1,3,11,,,,,1,7,23,10,0,0,0,4,,,4,2.9005193689954467,4,0.5517307120026089,4,0.4344656729954295,3,0.8351765970000997,,,040,001,2019_May_17_0911,MusicAffectPsychophysiology2019,3.0.5,59.93484734205069,
To what extent did the music make you feel ,GUILTY,30MonoWAV/30MonoS3.wav,1,1,3,11,,,,,1,7,23,10,0,1,1,5,,,,,,,,,3,0.7023234139778651,,,040,001,2019_May_17_0911,MusicAffectPsychophysiology2019,3.0.5,59.93484734205069,
To what extent did the music make you feel ,ANGRY,30MonoWAV/30MonoS3.wav,1,1,3,11,,,,,1,7,23,10,0,2,2,2,,,,,,,,,3,0.6842440800101031,,,040,001,2019_May_17_0911,MusicAffectPsychophysiology2019,3.0.5,59.93484734205069,
To what extent did the music make you feel ,TENDER,30MonoWAV/30MonoS3.wav,1,1,3,11,,,,,1,7,23,10,0,3,3,10,,,,,,,,,3,0.6024821729806717,,,040,001,2019_May_17_0911,MusicAffectPsychophysiology2019,3.0.5,59.93484734205069,
To what extent did the music make you feel ,ANXIOUS ,30MonoWAV/30MonoS3.wav,1,1,3,11,,,,,1,7,23,10,0,4,4,1,,,,,,,,,3,0.6341294030135032,,,040,001,2019_May_17_0911,MusicAffectPsychophysiology2019,3.0.5,59.93484734205069,
To what extent did the music make you feel ,SAD,30MonoWAV/30MonoS3.wav,1,1,3,11,,,,,1,7,23,10,0,5,5,0,,,,,,,,,3,0.7356115589791443,,,040,001,2019_May_17_0911,MusicAffectPsychophysiology2019,3.0.5,59.93484734205069,
To what extent did the music make you feel ,ALERT,30MonoWAV/30MonoS3.wav,1,1,3,11,,,,,1,7,23,10,0,6,6,8,,,,,,,,,5,1.3193385180202313,,,040,001,2019_May_17_0911,MusicAffectPsychophysiology2019,3.0.5,59.93484734205069,
To what extent did the music make you feel ,FRUSTRATED,30MonoWAV/30MonoS3.wav,1,1,3,11,,,,,1,7,23,10,0,7,7,3,,,,,,,,,3,1.5492939699906856,,,040,001,2019_May_17_0911,MusicAffectPsychophysiology2019,3.0.5,59.93484734205069,
To what extent did the music make you feel ,ACTIVE,30MonoWAV/30MonoS3.wav,1,1,3,11,,,,,1,7,23,10,0,8,8,9,,,,,,,,,4,2.0527951170224696,,,040,001,2019_May_17_0911,MusicAffectPsychophysiology2019,3.0.5,59.93484734205069,
To what extent did the music make you feel ,HAPPY,30MonoWAV/30MonoS3.wav,1,1,3,11,,,,,1,7,23,10,0,9,9,6,,,,,,,,,3,1.485960932011949,,,040,001,2019_May_17_0911,MusicAffectPsychophysiology2019,3.0.5,59.93484734205069,
To what extent did the music make you feel ,SCARED,30MonoWAV/30MonoS3.wav,1,1,3,11,,,,,1,7,23,10,0,10,10,11,,,,,,,,,4,0.8682642689964268,,,040,001,2019_May_17_0911,MusicAffectPsychophysiology2019,3.0.5,59.93484734205069,
To what extent did the music make you feel ,EXCITED,30MonoWAV/30MonoS3.wav,1,1,3,11,,,,,1,7,23,10,0,11,11,7,,,,,,,,,3,1.169180660013808,,,040,001,2019_May_17_0911,MusicAffectPsychophysiology2019,3.0.5,59.93484734205069,
,,30MonoWAV/30MonoS3.wav,1,1,3,11,,,,,1,7,23,10,,,,,,,,,,,,,,,,,040,001,2019_May_17_0911,MusicAffectPsychophysiology2019,3.0.5,59.93484734205069,
To what extent did the music make you feel ,ALERT,30MonoWAV/30MonoH4.wav,2,2,1,8,,,,,1,8,24,7,0,0,0,8,,,5,1.8703088290058076,4,0.001883479009848088,5,0.23885080000036396,5,0.30200401300680824,,,040,001,2019_May_17_0911,MusicAffectPsychophysiology2019,3.0.5,59.93484734205069,
To what extent did the music make you feel ,FRUSTRATED,30MonoWAV/30MonoH4.wav,2,2,1,8,,,,,1,8,24,7,0,1,1,3,,,,,,,,,1,1.6675028020108584,,,040,001,2019_May_17_0911,MusicAffectPsychophysiology2019,3.0.5,59.93484734205069,
To what extent did the music make you feel ,SAD,30MonoWAV/30MonoH4.wav,2,2,1,8,,,,,1,8,24,7,0,2,2,0,,,,,,,,,1,0.718661951017566,,,040,001,2019_May_17_0911,MusicAffectPsychophysiology2019,3.0.5,59.93484734205069,
To what extent did the music make you feel ,SCARED,30MonoWAV/30MonoH4.wav,2,2,1,8,,,,,1,8,24,7,0,3,3,11,,,,,,,,,1,0.7004636859928723,,,040,001,2019_May_17_0911,MusicAffectPsychophysiology2019,3.0.5,59.93484734205069,
To what extent did the music make you feel ,HAPPY,30MonoWAV/30MonoH4.wav,2,2,1,8,,,,,1,8,24,7,0,4,4,6,,,,,,,,,5,1.0847672669915482,,,040,001,2019_May_17_0911,MusicAffectPsychophysiology2019,3.0.5,59.93484734205069,
To what extent did the music make you feel ,TENDER,30MonoWAV/30MonoH4.wav,2,2,1,8,,,,,1,8,24,7,0,5,5,10,,,,,,,,,5,1.0020578079856932,,,040,001,2019_May_17_0911,MusicAffectPsychophysiology2019,3.0.5,59.93484734205069,
To what extent did the music make you feel ,ACTIVE,30MonoWAV/30MonoH4.wav,2,2,1,8,,,,,1,8,24,7,0,6,6,9,,,,,,,,,5,1.5847052070021164,,,040,001,2019_May_17_0911,MusicAffectPsychophysiology2019,3.0.5,59.93484734205069,
To what extent did the music make you feel ,GUILTY,30MonoWAV/30MonoH4.wav,2,2,1,8,,,,,1,8,24,7,0,7,7,5,,,,,,,,,1,0.801319671998499,,,040,001,2019_May_17_0911,MusicAffectPsychophysiology2019,3.0.5,59.93484734205069,
To what extent did the music make you feel ,ASHAMED,30MonoWAV/30MonoH4.wav,2,2,1,8,,,,,1,8,24,7,0,8,8,4,,,,,,,,,1,0.6683555739873555,,,040,001,2019_May_17_0911,MusicAffectPsychophysiology2019,3.0.5,59.93484734205069,
To what extent did the music make you feel ,ANGRY,30MonoWAV/30MonoH4.wav,2,2,1,8,,,,,1,8,24,7,0,9,9,2,,,,,,,,,1,0.9183374569984153,,,040,001,2019_May_17_0911,MusicAffectPsychophysiology2019,3.0.5,59.93484734205069,
To what extent did the music make you feel ,ANXIOUS ,30MonoWAV/30MonoH4.wav,2,2,1,8,,,,,1,8,24,7,0,10,10,1,,,,,,,,,1,0.5854679640033282,,,040,001,2019_May_17_0911,MusicAffectPsychophysiology2019,3.0.5,59.93484734205069,
To what extent did the music make you feel ,EXCITED,30MonoWAV/30MonoH4.wav,2,2,1,8,,,,,1,8,24,7,0,11,11,7,,,,,,,,,5,0.6668417509936262,,,040,001,2019_May_17_0911,MusicAffectPsychophysiology2019,3.0.5,59.93484734205069,
,,30MonoWAV/30MonoH4.wav,2,2,1,8,,,,,1,8,24,7,,,,,,,,,,,,,,,,,040,001,2019_May_17_0911,MusicAffectPsychophysiology2019,3.0.5,59.93484734205069,
To what extent did the music make you feel ,ANXIOUS ,30MonoWAV/30MonoT4.wav,2,1,4,16,,,,,1,9,25,15,0,0,0,1,,,4,2.0999131909920834,4,0.6849763720238116,4,0.7183741979824845,1,1.2517990120104514,,,040,001,2019_May_17_0911,MusicAffectPsychophysiology2019,3.0.5,59.93484734205069,
To what extent did the music make you feel ,SCARED,30MonoWAV/30MonoT4.wav,2,1,4,16,,,,,1,9,25,15,0,1,1,11,,,,,,,,,1,0.5015203200164251,,,040,001,2019_May_17_0911,MusicAffectPsychophysiology2019,3.0.5,59.93484734205069,
To what extent did the music make you feel ,GUILTY,30MonoWAV/30MonoT4.wav,2,1,4,16,,,,,1,9,25,15,0,2,2,5,,,,,,,,,1,0.46778834698488936,,,040,001,2019_May_17_0911,MusicAffectPsychophysiology2019,3.0.5,59.93484734205069,
To what extent did the music make you feel ,ASHAMED,30MonoWAV/30MonoT4.wav,2,1,4,16,,,,,1,9,25,15,0,3,3,4,,,,,,,,,1,0.9183150909957476,,,040,001,2019_May_17_0911,MusicAffectPsychophysiology2019,3.0.5,59.93484734205069,
To what extent did the music make you feel ,TENDER,30MonoWAV/30MonoT4.wav,2,1,4,16,,,,,1,9,25,15,0,4,4,10,,,,,,,,,1,0.569216193020111,,,040,001,2019_May_17_0911,MusicAffectPsychophysiology2019,3.0.5,59.93484734205069,
To what extent did the music make you feel ,ACTIVE,30MonoWAV/30MonoT4.wav,2,1,4,16,,,,,1,9,25,15,0,5,5,9,,,,,,,,,4,2.0683105069911107,,,040,001,2019_May_17_0911,MusicAffectPsychophysiology2019,3.0.5,59.93484734205069,
To what extent did the music make you feel ,SAD,30MonoWAV/30MonoT4.wav,2,1,4,16,,,,,1,9,25,15,0,6,6,0,,,,,,,,,1,0.8508183490193915,,,040,001,2019_May_17_0911,MusicAffectPsychophysiology2019,3.0.5,59.93484734205069,
To what extent did the music make you feel ,FRUSTRATED,30MonoWAV/30MonoT4.wav,2,1,4,16,,,,,1,9,25,15,0,7,7,3,,,,,,,,,1,0.6518429410061799,,,040,001,2019_May_17_0911,MusicAffectPsychophysiology2019,3.0.5,59.93484734205069,
To what extent did the music make you feel ,ALERT,30MonoWAV/30MonoT4.wav,2,1,4,16,,,,,1,9,25,15,0,8,8,8,,,,,,,,,3,1.1838794430077542,,,040,001,2019_May_17_0911,MusicAffectPsychophysiology2019,3.0.5,59.93484734205069,
To what extent did the music make you feel ,ANGRY,30MonoWAV/30MonoT4.wav,2,1,4,16,,,,,1,9,25,15,0,9,9,2,,,,,,,,,1,0.9015349950059317,,,040,001,2019_May_17_0911,MusicAffectPsychophysiology2019,3.0.5,59.93484734205069,
To what extent did the music make you feel ,EXCITED,30MonoWAV/30MonoT4.wav,2,1,4,16,,,,,1,9,25,15,0,10,10,7,,,,,,,,,3,0.5529626589850523,,,040,001,2019_May_17_0911,MusicAffectPsychophysiology2019,3.0.5,59.93484734205069,
To what extent did the music make you feel ,HAPPY,30MonoWAV/30MonoT4.wav,2,1,4,16,,,,,1,9,25,15,0,11,11,6,,,,,,,,,3,0.8348675160086714,,,040,001,2019_May_17_0911,MusicAffectPsychophysiology2019,3.0.5,59.93484734205069,
,,30MonoWAV/30MonoT4.wav,2,1,4,16,,,,,1,9,25,15,,,,,,,,,,,,,,,,,040,001,2019_May_17_0911,MusicAffectPsychophysiology2019,3.0.5,59.93484734205069,
To what extent did the music make you feel ,ASHAMED,30MonoWAV/30MonoH2.wav,2,2,1,6,,,,,1,10,26,5,0,0,0,4,,,4,2.371439676004229,4,1.10278522700537,3,0.8028683570155408,1,1.5855433509859722,,,040,001,2019_May_17_0911,MusicAffectPsychophysiology2019,3.0.5,59.93484734205069,
To what extent did the music make you feel ,ALERT,30MonoWAV/30MonoH2.wav,2,2,1,6,,,,,1,10,26,5,0,1,1,8,,,,,,,,,1,0.4860435580194462,,,040,001,2019_May_17_0911,MusicAffectPsychophysiology2019,3.0.5,59.93484734205069,
To what extent did the music make you feel ,EXCITED,30MonoWAV/30MonoH2.wav,2,2,1,6,,,,,1,10,26,5,0,2,2,7,,,,,,,,,5,1.256006156996591,,,040,001,2019_May_17_0911,MusicAffectPsychophysiology2019,3.0.5,59.93484734205069,
To what extent did the music make you feel ,TENDER,30MonoWAV/30MonoH2.wav,2,2,1,6,,,,,1,10,26,5,0,3,3,10,,,,,,,,,1,1.3360080929996911,,,040,001,2019_May_17_0911,MusicAffectPsychophysiology2019,3.0.5,59.93484734205069,
To what extent did the music make you feel ,GUILTY,30MonoWAV/30MonoH2.wav,2,2,1,6,,,,,1,10,26,5,0,4,4,5,,,,,,,,,1,0.9165327779774088,,,040,001,2019_May_17_0911,MusicAffectPsychophysiology2019,3.0.5,59.93484734205069,
To what extent did the music make you feel ,ACTIVE,30MonoWAV/30MonoH2.wav,2,2,1,6,,,,,1,10,26,5,0,5,5,9,,,,,,,,,5,0.6195792100043036,,,040,001,2019_May_17_0911,MusicAffectPsychophysiology2019,3.0.5,59.93484734205069,
To what extent did the music make you feel ,ANGRY,30MonoWAV/30MonoH2.wav,2,2,1,6,,,,,1,10,26,5,0,6,6,2,,,,,,,,,1,0.6693490979960188,,,040,001,2019_May_17_0911,MusicAffectPsychophysiology2019,3.0.5,59.93484734205069,
To what extent did the music make you feel ,FRUSTRATED,30MonoWAV/30MonoH2.wav,2,2,1,6,,,,,1,10,26,5,0,7,7,3,,,,,,,,,1,0.685321135999402,,,040,001,2019_May_17_0911,MusicAffectPsychophysiology2019,3.0.5,59.93484734205069,
To what extent did the music make you feel ,SAD,30MonoWAV/30MonoH2.wav,2,2,1,6,,,,,1,10,26,5,0,8,8,0,,,,,,,,,1,0.7184395420190413,,,040,001,2019_May_17_0911,MusicAffectPsychophysiology2019,3.0.5,59.93484734205069,
To what extent did the music make you feel ,HAPPY,30MonoWAV/30MonoH2.wav,2,2,1,6,,,,,1,10,26,5,0,9,9,6,,,,,,,,,5,0.5356742189906072,,,040,001,2019_May_17_0911,MusicAffectPsychophysiology2019,3.0.5,59.93484734205069,
To what extent did the music make you feel ,SCARED,30MonoWAV/30MonoH2.wav,2,2,1,6,,,,,1,10,26,5,0,10,10,11,,,,,,,,,1,0.9028680360061117,,,040,001,2019_May_17_0911,MusicAffectPsychophysiology2019,3.0.5,59.93484734205069,
To what extent did the music make you feel ,ANXIOUS ,30MonoWAV/30MonoH2.wav,2,2,1,6,,,,,1,10,26,5,0,11,11,1,,,,,,,,,2,1.6413302319997456,,,040,001,2019_May_17_0911,MusicAffectPsychophysiology2019,3.0.5,59.93484734205069,
,,30MonoWAV/30MonoH2.wav,2,2,1,6,,,,,1,10,26,5,,,,,,,,,,,,,,,,,040,001,2019_May_17_0911,MusicAffectPsychophysiology2019,3.0.5,59.93484734205069,
To what extent did the music make you feel ,SCARED,30MonoWAV/30MonoF1.wav,1,2,2,1,,,,,1,11,27,0,0,0,0,11,,,4,1.940643732988974,4,0.551998311013449,4,0.9526734719984233,1,1.2025646439869888,,,040,001,2019_May_17_0911,MusicAffectPsychophysiology2019,3.0.5,59.93484734205069,
To what extent did the music make you feel ,ASHAMED,30MonoWAV/30MonoF1.wav,1,2,2,1,,,,,1,11,27,0,0,1,1,4,,,,,,,,,1,0.6515511960024014,,,040,001,2019_May_17_0911,MusicAffectPsychophysiology2019,3.0.5,59.93484734205069,
To what extent did the music make you feel ,ANXIOUS ,30MonoWAV/30MonoF1.wav,1,2,2,1,,,,,1,11,27,0,0,2,2,1,,,,,,,,,1,0.6673483809863683,,,040,001,2019_May_17_0911,MusicAffectPsychophysiology2019,3.0.5,59.93484734205069,
To what extent did the music make you feel ,HAPPY,30MonoWAV/30MonoF1.wav,1,2,2,1,,,,,1,11,27,0,0,3,3,6,,,,,,,,,4,1.2756469970045146,,,040,001,2019_May_17_0911,MusicAffectPsychophysiology2019,3.0.5,59.93484734205069,
To what extent did the music make you feel ,ALERT,30MonoWAV/30MonoF1.wav,1,2,2,1,,,,,1,11,27,0,0,4,4,8,,,,,,,,,1,1.386888684995938,,,040,001,2019_May_17_0911,MusicAffectPsychophysiology2019,3.0.5,59.93484734205069,
To what extent did the music make you feel ,FRUSTRATED,30MonoWAV/30MonoF1.wav,1,2,2,1,,,,,1,11,27,0,0,5,5,3,,,,,,,,,1,0.7523568219912704,,,040,001,2019_May_17_0911,MusicAffectPsychophysiology2019,3.0.5,59.93484734205069,
To what extent did the music make you feel ,SAD,30MonoWAV/30MonoF1.wav,1,2,2,1,,,,,1,11,27,0,0,6,6,0,,,,,,,,,1,1.57019489799859,,,040,001,2019_May_17_0911,MusicAffectPsychophysiology2019,3.0.5,59.93484734205069,
To what extent did the music make you feel ,GUILTY,30MonoWAV/30MonoF1.wav,1,2,2,1,,,,,1,11,27,0,0,7,7,5,,,,,,,,,1,0.7006273870065343,,,040,001,2019_May_17_0911,MusicAffectPsychophysiology2019,3.0.5,59.93484734205069,
To what extent did the music make you feel ,EXCITED,30MonoWAV/30MonoF1.wav,1,2,2,1,,,,,1,11,27,0,0,8,8,7,,,,,,,,,4,0.6006092889874708,,,040,001,2019_May_17_0911,MusicAffectPsychophysiology2019,3.0.5,59.93484734205069,
To what extent did the music make you feel ,ANGRY,30MonoWAV/30MonoF1.wav,1,2,2,1,,,,,1,11,27,0,0,9,9,2,,,,,,,,,1,1.1360104950144887,,,040,001,2019_May_17_0911,MusicAffectPsychophysiology2019,3.0.5,59.93484734205069,
To what extent did the music make you feel ,ACTIVE,30MonoWAV/30MonoF1.wav,1,2,2,1,,,,,1,11,27,0,0,10,10,9,,,,,,,,,4,0.6184863910020795,,,040,001,2019_May_17_0911,MusicAffectPsychophysiology2019,3.0.5,59.93484734205069,
To what extent did the music make you feel ,TENDER,30MonoWAV/30MonoF1.wav,1,2,2,1,,,,,1,11,27,0,0,11,11,10,,,,,,,,,1,0.8874443920212798,,,040,001,2019_May_17_0911,MusicAffectPsychophysiology2019,3.0.5,59.93484734205069,
,,30MonoWAV/30MonoF1.wav,1,2,2,1,,,,,1,11,27,0,,,,,,,,,,,,,,,,,040,001,2019_May_17_0911,MusicAffectPsychophysiology2019,3.0.5,59.93484734205069,
To what extent did the music make you feel ,ASHAMED,30MonoWAV/30MonoH3.wav,2,2,1,7,,,,,1,12,28,6,0,0,0,4,,,4,2.4851640809793025,4,0.5016156450146809,4,0.4357884129858576,1,1.3366429099987727,,,040,001,2019_May_17_0911,MusicAffectPsychophysiology2019,3.0.5,59.93484734205069,
To what extent did the music make you feel ,ANGRY,30MonoWAV/30MonoH3.wav,2,2,1,7,,,,,1,12,28,6,0,1,1,2,,,,,,,,,1,0.6688460760051385,,,040,001,2019_May_17_0911,MusicAffectPsychophysiology2019,3.0.5,59.93484734205069,
To what extent did the music make you feel ,TENDER,30MonoWAV/30MonoH3.wav,2,2,1,7,,,,,1,12,28,6,0,2,2,10,,,,,,,,,1,0.7168887830048334,,,040,001,2019_May_17_0911,MusicAffectPsychophysiology2019,3.0.5,59.93484734205069,
To what extent did the music make you feel ,ACTIVE,30MonoWAV/30MonoH3.wav,2,2,1,7,,,,,1,12,28,6,0,3,3,9,,,,,,,,,4,1.1349140249949414,,,040,001,2019_May_17_0911,MusicAffectPsychophysiology2019,3.0.5,59.93484734205069,
To what extent did the music make you feel ,FRUSTRATED,30MonoWAV/30MonoH3.wav,2,2,1,7,,,,,1,12,28,6,0,4,4,3,,,,,,,,,1,0.719261304999236,,,040,001,2019_May_17_0911,MusicAffectPsychophysiology2019,3.0.5,59.93484734205069,
To what extent did the music make you feel ,EXCITED,30MonoWAV/30MonoH3.wav,2,2,1,7,,,,,1,12,28,6,0,5,5,7,,,,,,,,,4,0.6846336580056231,,,040,001,2019_May_17_0911,MusicAffectPsychophysiology2019,3.0.5,59.93484734205069,
To what extent did the music make you feel ,ANXIOUS ,30MonoWAV/30MonoH3.wav,2,2,1,7,,,,,1,12,28,6,0,6,6,1,,,,,,,,,1,0.9850661350064911,,,040,001,2019_May_17_0911,MusicAffectPsychophysiology2019,3.0.5,59.93484734205069,
To what extent did the music make you feel ,SAD,30MonoWAV/30MonoH3.wav,2,2,1,7,,,,,1,12,28,6,0,7,7,0,,,,,,,,,1,0.75160380199668,,,040,001,2019_May_17_0911,MusicAffectPsychophysiology2019,3.0.5,59.93484734205069,
To what extent did the music make you feel ,HAPPY,30MonoWAV/30MonoH3.wav,2,2,1,7,,,,,1,12,28,6,0,8,8,6,,,,,,,,,4,0.5512717849924229,,,040,001,2019_May_17_0911,MusicAffectPsychophysiology2019,3.0.5,59.93484734205069,
To what extent did the music make you feel ,ALERT,30MonoWAV/30MonoH3.wav,2,2,1,7,,,,,1,12,28,6,0,9,9,8,,,,,,,,,4,0.7170951279986184,,,040,001,2019_May_17_0911,MusicAffectPsychophysiology2019,3.0.5,59.93484734205069,
To what extent did the music make you feel ,GUILTY,30MonoWAV/30MonoH3.wav,2,2,1,7,,,,,1,12,28,6,0,10,10,5,,,,,,,,,1,0.6515181650174782,,,040,001,2019_May_17_0911,MusicAffectPsychophysiology2019,3.0.5,59.93484734205069,
To what extent did the music make you feel ,SCARED,30MonoWAV/30MonoH3.wav,2,2,1,7,,,,,1,12,28,6,0,11,11,11,,,,,,,,,1,1.4351180460071191,,,040,001,2019_May_17_0911,MusicAffectPsychophysiology2019,3.0.5,59.93484734205069,
,,30MonoWAV/30MonoH3.wav,2,2,1,7,,,,,1,12,28,6,,,,,,,,,,,,,,,,,040,001,2019_May_17_0911,MusicAffectPsychophysiology2019,3.0.5,59.93484734205069,
To what extent did the music make you feel ,GUILTY,30MonoWAV/30MonoF4.wav,1,2,2,4,,,,,1,13,29,3,0,0,0,5,,,4,2.6392796819854993,4,0.45198818601784296,4,0.38625384599436074,1,1.3360983809980098,,,040,001,2019_May_17_0911,MusicAffectPsychophysiology2019,3.0.5,59.93484734205069,
To what extent did the music make you feel ,SCARED,30MonoWAV/30MonoF4.wav,1,2,2,4,,,,,1,13,29,3,0,1,1,11,,,,,,,,,4,1.0887942609842867,,,040,001,2019_May_17_0911,MusicAffectPsychophysiology2019,3.0.5,59.93484734205069,
To what extent did the music make you feel ,EXCITED,30MonoWAV/30MonoF4.wav,1,2,2,4,,,,,1,13,29,3,0,2,2,7,,,,,,,,,3,1.1192617529886775,,,040,001,2019_May_17_0911,MusicAffectPsychophysiology2019,3.0.5,59.93484734205069,
To what extent did the music make you feel ,ACTIVE,30MonoWAV/30MonoF4.wav,1,2,2,4,,,,,1,13,29,3,0,3,3,9,,,,,,,,,4,1.0169982300139964,,,040,001,2019_May_17_0911,MusicAffectPsychophysiology2019,3.0.5,59.93484734205069,
To what extent did the music make you feel ,SAD,30MonoWAV/30MonoF4.wav,1,2,2,4,,,,,1,13,29,3,0,4,4,0,,,,,,,,,2,1.0525012459838763,,,040,001,2019_May_17_0911,MusicAffectPsychophysiology2019,3.0.5,59.93484734205069,
To what extent did the music make you feel ,ALERT,30MonoWAV/30MonoF4.wav,1,2,2,4,,,,,1,13,29,3,0,5,5,8,,,,,,,,,4,0.9350871260103304,,,040,001,2019_May_17_0911,MusicAffectPsychophysiology2019,3.0.5,59.93484734205069,
To what extent did the music make you feel ,ANGRY,30MonoWAV/30MonoF4.wav,1,2,2,4,,,,,1,13,29,3,0,6,6,2,,,,,,,,,3,1.6682563019858208,,,040,001,2019_May_17_0911,MusicAffectPsychophysiology2019,3.0.5,59.93484734205069,
To what extent did the music make you feel ,ASHAMED,30MonoWAV/30MonoF4.wav,1,2,2,4,,,,,1,13,29,3,0,7,7,4,,,,,,,,,2,0.7329421510221437,,,040,001,2019_May_17_0911,MusicAffectPsychophysiology2019,3.0.5,59.93484734205069,
To what extent did the music make you feel ,FRUSTRATED,30MonoWAV/30MonoF4.wav,1,2,2,4,,,,,1,13,29,3,0,8,8,3,,,,,,,,,3,0.9685701330017764,,,040,001,2019_May_17_0911,MusicAffectPsychophysiology2019,3.0.5,59.93484734205069,
To what extent did the music make you feel ,HAPPY,30MonoWAV/30MonoF4.wav,1,2,2,4,,,,,1,13,29,3,0,9,9,6,,,,,,,,,3,1.4517391480039805,,,040,001,2019_May_17_0911,MusicAffectPsychophysiology2019,3.0.5,59.93484734205069,
To what extent did the music make you feel ,TENDER,30MonoWAV/30MonoF4.wav,1,2,2,4,,,,,1,13,29,3,0,10,10,10,,,,,,,,,2,0.8024538760073483,,,040,001,2019_May_17_0911,MusicAffectPsychophysiology2019,3.0.5,59.93484734205069,
To what extent did the music make you feel ,ANXIOUS ,30MonoWAV/30MonoF4.wav,1,2,2,4,,,,,1,13,29,3,0,11,11,1,,,,,,,,,4,1.202507740992587,,,040,001,2019_May_17_0911,MusicAffectPsychophysiology2019,3.0.5,59.93484734205069,
,,30MonoWAV/30MonoF4.wav,1,2,2,4,,,,,1,13,29,3,,,,,,,,,,,,,,,,,040,001,2019_May_17_0911,MusicAffectPsychophysiology2019,3.0.5,59.93484734205069,
To what extent did the music make you feel ,ASHAMED,30MonoWAV/30MonoT2.wav,2,1,4,14,,,,,1,14,30,13,0,0,0,4,,,4,2.1362890650052577,4,0.5682150880165864,4,0.4829992040176876,2,1.569191428978229,,,040,001,2019_May_17_0911,MusicAffectPsychophysiology2019,3.0.5,59.93484734205069,
To what extent did the music make you feel ,ACTIVE,30MonoWAV/30MonoT2.wav,2,1,4,14,,,,,1,14,30,13,0,1,1,9,,,,,,,,,4,1.3513555789832026,,,040,001,2019_May_17_0911,MusicAffectPsychophysiology2019,3.0.5,59.93484734205069,
To what extent did the music make you feel ,SCARED,30MonoWAV/30MonoT2.wav,2,1,4,14,,,,,1,14,30,13,0,2,2,11,,,,,,,,,2,0.8013302350009326,,,040,001,2019_May_17_0911,MusicAffectPsychophysiology2019,3.0.5,59.93484734205069,
To what extent did the music make you feel ,ANXIOUS ,30MonoWAV/30MonoT2.wav,2,1,4,14,,,,,1,14,30,13,0,3,3,1,,,,,,,,,3,0.9524625400081277,,,040,001,2019_May_17_0911,MusicAffectPsychophysiology2019,3.0.5,59.93484734205069,
To what extent did the music make you feel ,FRUSTRATED,30MonoWAV/30MonoT2.wav,2,1,4,14,,,,,1,14,30,13,0,4,4,3,,,,,,,,,3,1.0521398939890787,,,040,001,2019_May_17_0911,MusicAffectPsychophysiology2019,3.0.5,59.93484734205069,
To what extent did the music make you feel ,ANGRY,30MonoWAV/30MonoT2.wav,2,1,4,14,,,,,1,14,30,13,0,5,5,2,,,,,,,,,2,0.9850839159917086,,,040,001,2019_May_17_0911,MusicAffectPsychophysiology2019,3.0.5,59.93484734205069,
To what extent did the music make you feel ,ALERT,30MonoWAV/30MonoT2.wav,2,1,4,14,,,,,1,14,30,13,0,6,6,8,,,,,,,,,3,1.4184984550229274,,,040,001,2019_May_17_0911,MusicAffectPsychophysiology2019,3.0.5,59.93484734205069,
To what extent did the music make you feel ,EXCITED,30MonoWAV/30MonoT2.wav,2,1,4,14,,,,,1,14,30,13,0,7,7,7,,,,,,,,,3,1.2183111530030146,,,040,001,2019_May_17_0911,MusicAffectPsychophysiology2019,3.0.5,59.93484734205069,
To what extent did the music make you feel ,SAD,30MonoWAV/30MonoT2.wav,2,1,4,14,,,,,1,14,30,13,0,8,8,0,,,,,,,,,2,1.5346536150027532,,,040,001,2019_May_17_0911,MusicAffectPsychophysiology2019,3.0.5,59.93484734205069,
To what extent did the music make you feel ,HAPPY,30MonoWAV/30MonoT2.wav,2,1,4,14,,,,,1,14,30,13,0,9,9,6,,,,,,,,,3,0.8522156120161526,,,040,001,2019_May_17_0911,MusicAffectPsychophysiology2019,3.0.5,59.93484734205069,
To what extent did the music make you feel ,GUILTY,30MonoWAV/30MonoT2.wav,2,1,4,14,,,,,1,14,30,13,0,10,10,5,,,,,,,,,1,1.7512909669894725,,,040,001,2019_May_17_0911,MusicAffectPsychophysiology2019,3.0.5,59.93484734205069,
To what extent did the music make you feel ,TENDER,30MonoWAV/30MonoT2.wav,2,1,4,14,,,,,1,14,30,13,0,11,11,10,,,,,,,,,1,0.6854434509878047,,,040,001,2019_May_17_0911,MusicAffectPsychophysiology2019,3.0.5,59.93484734205069,
,,30MonoWAV/30MonoT2.wav,2,1,4,14,,,,,1,14,30,13,,,,,,,,,,,,,,,,,040,001,2019_May_17_0911,MusicAffectPsychophysiology2019,3.0.5,59.93484734205069,
To what extent did the music make you feel ,ASHAMED,30MonoWAV/30MonoT3.wav,2,1,4,15,,,,,1,15,31,14,0,0,0,4,,,2,2.99979127800907,3,3.2186402720108163,2,1.1852607289911248,4,1.668326203012839,,,040,001,2019_May_17_0911,MusicAffectPsychophysiology2019,3.0.5,59.93484734205069,
To what extent did the music make you feel ,EXCITED,30MonoWAV/30MonoT3.wav,2,1,4,15,,,,,1,15,31,14,0,1,1,7,,,,,,,,,2,1.4530508139869198,,,040,001,2019_May_17_0911,MusicAffectPsychophysiology2019,3.0.5,59.93484734205069,
To what extent did the music make you feel ,TENDER,30MonoWAV/30MonoT3.wav,2,1,4,15,,,,,1,15,31,14,0,2,2,10,,,,,,,,,4,1.3515130819869228,,,040,001,2019_May_17_0911,MusicAffectPsychophysiology2019,3.0.5,59.93484734205069,
To what extent did the music make you feel ,ANXIOUS ,30MonoWAV/30MonoT3.wav,2,1,4,15,,,,,1,15,31,14,0,3,3,1,,,,,,,,,4,0.6175589769845828,,,040,001,2019_May_17_0911,MusicAffectPsychophysiology2019,3.0.5,59.93484734205069,
To what extent did the music make you feel ,ACTIVE,30MonoWAV/30MonoT3.wav,2,1,4,15,,,,,1,15,31,14,0,4,4,9,,,,,,,,,2,0.8682475110108498,,,040,001,2019_May_17_0911,MusicAffectPsychophysiology2019,3.0.5,59.93484734205069,
To what extent did the music make you feel ,HAPPY,30MonoWAV/30MonoT3.wav,2,1,4,15,,,,,1,15,31,14,0,5,5,6,,,,,,,,,3,1.018360398011282,,,040,001,2019_May_17_0911,MusicAffectPsychophysiology2019,3.0.5,59.93484734205069,
To what extent did the music make you feel ,FRUSTRATED,30MonoWAV/30MonoT3.wav,2,1,4,15,,,,,1,15,31,14,0,6,6,3,,,,,,,,,4,0.8179893820197321,,,040,001,2019_May_17_0911,MusicAffectPsychophysiology2019,3.0.5,59.93484734205069,
To what extent did the music make you feel ,SCARED,30MonoWAV/30MonoT3.wav,2,1,4,15,,,,,1,15,31,14,0,7,7,11,,,,,,,,,2,1.3354266870010179,,,040,001,2019_May_17_0911,MusicAffectPsychophysiology2019,3.0.5,59.93484734205069,
To what extent did the music make you feel ,ANGRY,30MonoWAV/30MonoT3.wav,2,1,4,15,,,,,1,15,31,14,0,8,8,2,,,,,,,,,2,1.2184419950062875,,,040,001,2019_May_17_0911,MusicAffectPsychophysiology2019,3.0.5,59.93484734205069,
To what extent did the music make you feel ,SAD,30MonoWAV/30MonoT3.wav,2,1,4,15,,,,,1,15,31,14,0,9,9,0,,,,,,,,,4,1.3364957770099863,,,040,001,2019_May_17_0911,MusicAffectPsychophysiology2019,3.0.5,59.93484734205069,
To what extent did the music make you feel ,ALERT,30MonoWAV/30MonoT3.wav,2,1,4,15,,,,,1,15,31,14,0,10,10,8,,,,,,,,,2,0.7840994060097728,,,040,001,2019_May_17_0911,MusicAffectPsychophysiology2019,3.0.5,59.93484734205069,
To what extent did the music make you feel ,GUILTY,30MonoWAV/30MonoT3.wav,2,1,4,15,,,,,1,15,31,14,0,11,11,5,,,,,,,,,4,1.5700612750079017,,,040,001,2019_May_17_0911,MusicAffectPsychophysiology2019,3.0.5,59.93484734205069,
,,30MonoWAV/30MonoT3.wav,2,1,4,15,,,,,1,15,31,14,,,,,,,,,,,,,,,,,040,001,2019_May_17_0911,MusicAffectPsychophysiology2019,3.0.5,59.93484734205069,
,,,,,,,,,,,,,,,,,,,,,,,,,,,,,space,5.632873446011217,040,001,2019_May_17_0911,MusicAffectPsychophysiology2019,3.0.5,59.93484734205069,
