Instruction,Word,song,valence,arousal,affectcat,songmark,pracwords.thisRepN,pracwords.thisTrialN,pracwords.thisN,pracwords.thisIndex,songtrials.thisRepN,songtrials.thisTrialN,songtrials.thisN,songtrials.thisIndex,words.thisRepN,words.thisTrialN,words.thisN,words.thisIndex,begin.keys,begin.rt,arousalkey.keys,arousalkey.rt,valencekey.keys,valencekey.rt,likekey.keys,likekey.rt,WordResponse.keys,WordResponse.rt,key_resp_2.keys,key_resp_2.rt,participant,session,date,expName,psychopyVersion,frameRate,
,,,,,,,,,,,,,,,,,,,space,10.47105430800002,,,,,,,,,,,041,001,2019_May_17_1011,MusicAffectPsychophysiology2019,3.0.5,59.92639217640552,
,,,,,,,,,,,,,,,,,,,,,3,8.683894925983623,,,,,,,,,041,001,2019_May_17_1011,MusicAffectPsychophysiology2019,3.0.5,59.92639217640552,
,,,,,,,,,,,,,,,,,,,,,,,2,7.2501387300144415,,,,,,,041,001,2019_May_17_1011,MusicAffectPsychophysiology2019,3.0.5,59.92639217640552,
,,,,,,,,,,,,,,,,,,,,,,,,,2,3.753321172989672,,,,,041,001,2019_May_17_1011,MusicAffectPsychophysiology2019,3.0.5,59.92639217640552,
To what extent did the music make you feel ,SAD,,,,,,0,0,0,0,,,,,,,,,,,,,,,,,2,16.45012369498727,,,041,001,2019_May_17_1011,MusicAffectPsychophysiology2019,3.0.5,59.92639217640552,
To what extent did the music make you feel ,SCARED,,,,,,0,1,1,11,,,,,,,,,,,,,,,,,1,1.8350821189815179,,,041,001,2019_May_17_1011,MusicAffectPsychophysiology2019,3.0.5,59.92639217640552,
To what extent did the music make you feel ,ALERT,,,,,,0,2,2,8,,,,,,,,,,,,,,,,,1,2.8347710910020396,,,041,001,2019_May_17_1011,MusicAffectPsychophysiology2019,3.0.5,59.92639217640552,
To what extent did the music make you feel ,ASHAMED,,,,,,0,3,3,4,,,,,,,,,,,,,,,,,1,1.3517968360101804,,,041,001,2019_May_17_1011,MusicAffectPsychophysiology2019,3.0.5,59.92639217640552,
To what extent did the music make you feel ,TENDER,,,,,,0,4,4,10,,,,,,,,,,,,,,,,,1,4.867866521992255,,,041,001,2019_May_17_1011,MusicAffectPsychophysiology2019,3.0.5,59.92639217640552,
To what extent did the music make you feel ,FRUSTRATED,,,,,,0,5,5,3,,,,,,,,,,,,,,,,,1,1.36894683301216,,,041,001,2019_May_17_1011,MusicAffectPsychophysiology2019,3.0.5,59.92639217640552,
To what extent did the music make you feel ,HAPPY,,,,,,0,6,6,6,,,,,,,,,,,,,,,,,2,3.882646881014807,,,041,001,2019_May_17_1011,MusicAffectPsychophysiology2019,3.0.5,59.92639217640552,
To what extent did the music make you feel ,ACTIVE,,,,,,0,7,7,9,,,,,,,,,,,,,,,,,1,4.249981001019478,,,041,001,2019_May_17_1011,MusicAffectPsychophysiology2019,3.0.5,59.92639217640552,
To what extent did the music make you feel ,EXCITED,,,,,,0,8,8,7,,,,,,,,,,,,,,,,,1,1.8687232039810624,,,041,001,2019_May_17_1011,MusicAffectPsychophysiology2019,3.0.5,59.92639217640552,
To what extent did the music make you feel ,ANGRY,,,,,,0,9,9,2,,,,,,,,,,,,,,,,,1,0.835536422993755,,,041,001,2019_May_17_1011,MusicAffectPsychophysiology2019,3.0.5,59.92639217640552,
To what extent did the music make you feel ,ANXIOUS ,,,,,,0,10,10,1,,,,,,,,,,,,,,,,,2,2.9222806690086145,,,041,001,2019_May_17_1011,MusicAffectPsychophysiology2019,3.0.5,59.92639217640552,
To what extent did the music make you feel ,GUILTY,,,,,,0,11,11,5,,,,,,,,,,,,,,,,,1,1.2201629699848127,,,041,001,2019_May_17_1011,MusicAffectPsychophysiology2019,3.0.5,59.92639217640552,
To what extent did the music make you feel ,ALERT,30MonoWAV/30MonoH4.wav,2,2,1,8,,,,,0,0,0,7,0,0,0,8,,,2,9.467352207982913,4,4.617533946991898,3,1.9523018990003038,1,2.4059824959840626,,,041,001,2019_May_17_1011,MusicAffectPsychophysiology2019,3.0.5,59.92639217640552,
To what extent did the music make you feel ,ACTIVE,30MonoWAV/30MonoH4.wav,2,2,1,8,,,,,0,0,0,7,0,1,1,9,,,,,,,,,3,3.9296290700149257,,,041,001,2019_May_17_1011,MusicAffectPsychophysiology2019,3.0.5,59.92639217640552,
To what extent did the music make you feel ,HAPPY,30MonoWAV/30MonoH4.wav,2,2,1,8,,,,,0,0,0,7,0,2,2,6,,,,,,,,,4,1.318358560994966,,,041,001,2019_May_17_1011,MusicAffectPsychophysiology2019,3.0.5,59.92639217640552,
To what extent did the music make you feel ,ANGRY,30MonoWAV/30MonoH4.wav,2,2,1,8,,,,,0,0,0,7,0,3,3,2,,,,,,,,,1,1.6013303009967785,,,041,001,2019_May_17_1011,MusicAffectPsychophysiology2019,3.0.5,59.92639217640552,
To what extent did the music make you feel ,ASHAMED,30MonoWAV/30MonoH4.wav,2,2,1,8,,,,,0,0,0,7,0,4,4,4,,,,,,,,,1,1.0014778309850954,,,041,001,2019_May_17_1011,MusicAffectPsychophysiology2019,3.0.5,59.92639217640552,
To what extent did the music make you feel ,EXCITED,30MonoWAV/30MonoH4.wav,2,2,1,8,,,,,0,0,0,7,0,5,5,7,,,,,,,,,2,3.9048568730067927,,,041,001,2019_May_17_1011,MusicAffectPsychophysiology2019,3.0.5,59.92639217640552,
To what extent did the music make you feel ,SAD,30MonoWAV/30MonoH4.wav,2,2,1,8,,,,,0,0,0,7,0,6,6,0,,,,,,,,,1,0.751472565025324,,,041,001,2019_May_17_1011,MusicAffectPsychophysiology2019,3.0.5,59.92639217640552,
To what extent did the music make you feel ,FRUSTRATED,30MonoWAV/30MonoH4.wav,2,2,1,8,,,,,0,0,0,7,0,7,7,3,,,,,,,,,1,0.8700819759978913,,,041,001,2019_May_17_1011,MusicAffectPsychophysiology2019,3.0.5,59.92639217640552,
To what extent did the music make you feel ,GUILTY,30MonoWAV/30MonoH4.wav,2,2,1,8,,,,,0,0,0,7,0,8,8,5,,,,,,,,,1,1.3370853019878268,,,041,001,2019_May_17_1011,MusicAffectPsychophysiology2019,3.0.5,59.92639217640552,
To what extent did the music make you feel ,TENDER,30MonoWAV/30MonoH4.wav,2,2,1,8,,,,,0,0,0,7,0,9,9,10,,,,,,,,,1,1.4540665580134373,,,041,001,2019_May_17_1011,MusicAffectPsychophysiology2019,3.0.5,59.92639217640552,
To what extent did the music make you feel ,ANXIOUS ,30MonoWAV/30MonoH4.wav,2,2,1,8,,,,,0,0,0,7,0,10,10,1,,,,,,,,,1,0.803183556010481,,,041,001,2019_May_17_1011,MusicAffectPsychophysiology2019,3.0.5,59.92639217640552,
To what extent did the music make you feel ,SCARED,30MonoWAV/30MonoH4.wav,2,2,1,8,,,,,0,0,0,7,0,11,11,11,,,,,,,,,1,1.1696276720031165,,,041,001,2019_May_17_1011,MusicAffectPsychophysiology2019,3.0.5,59.92639217640552,
,,30MonoWAV/30MonoH4.wav,2,2,1,8,,,,,0,0,0,7,,,,,,,,,,,,,,,,,041,001,2019_May_17_1011,MusicAffectPsychophysiology2019,3.0.5,59.92639217640552,
To what extent did the music make you feel ,ASHAMED,30MonoWAV/30MonoS4.wav,1,1,3,12,,,,,0,1,1,11,0,0,0,4,,,1,2.8853523950092494,1,6.334975988982478,3,4.58399887001724,1,1.8502013580000494,,,041,001,2019_May_17_1011,MusicAffectPsychophysiology2019,3.0.5,59.92639217640552,
To what extent did the music make you feel ,ACTIVE,30MonoWAV/30MonoS4.wav,1,1,3,12,,,,,0,1,1,11,0,1,1,9,,,,,,,,,1,0.7016363470174838,,,041,001,2019_May_17_1011,MusicAffectPsychophysiology2019,3.0.5,59.92639217640552,
To what extent did the music make you feel ,GUILTY,30MonoWAV/30MonoS4.wav,1,1,3,12,,,,,0,1,1,11,0,2,2,5,,,,,,,,,1,0.7195461770170368,,,041,001,2019_May_17_1011,MusicAffectPsychophysiology2019,3.0.5,59.92639217640552,
To what extent did the music make you feel ,ALERT,30MonoWAV/30MonoS4.wav,1,1,3,12,,,,,0,1,1,11,0,3,3,8,,,,,,,,,1,4.268316522007808,,,041,001,2019_May_17_1011,MusicAffectPsychophysiology2019,3.0.5,59.92639217640552,
To what extent did the music make you feel ,SCARED,30MonoWAV/30MonoS4.wav,1,1,3,12,,,,,0,1,1,11,0,4,4,11,,,,,,,,,1,3.0187553220021073,,,041,001,2019_May_17_1011,MusicAffectPsychophysiology2019,3.0.5,59.92639217640552,
To what extent did the music make you feel ,ANGRY,30MonoWAV/30MonoS4.wav,1,1,3,12,,,,,0,1,1,11,0,5,5,2,,,,,,,,,1,1.135322998976335,,,041,001,2019_May_17_1011,MusicAffectPsychophysiology2019,3.0.5,59.92639217640552,
To what extent did the music make you feel ,SAD,30MonoWAV/30MonoS4.wav,1,1,3,12,,,,,0,1,1,11,0,6,6,0,,,,,,,,,4,3.7197532260033768,,,041,001,2019_May_17_1011,MusicAffectPsychophysiology2019,3.0.5,59.92639217640552,
To what extent did the music make you feel ,HAPPY,30MonoWAV/30MonoS4.wav,1,1,3,12,,,,,0,1,1,11,0,7,7,6,,,,,,,,,1,1.7183986809977796,,,041,001,2019_May_17_1011,MusicAffectPsychophysiology2019,3.0.5,59.92639217640552,
To what extent did the music make you feel ,FRUSTRATED,30MonoWAV/30MonoS4.wav,1,1,3,12,,,,,0,1,1,11,0,8,8,3,,,,,,,,,1,1.417874649981968,,,041,001,2019_May_17_1011,MusicAffectPsychophysiology2019,3.0.5,59.92639217640552,
To what extent did the music make you feel ,ANXIOUS ,30MonoWAV/30MonoS4.wav,1,1,3,12,,,,,0,1,1,11,0,9,9,1,,,,,,,,,3,2.769057844998315,,,041,001,2019_May_17_1011,MusicAffectPsychophysiology2019,3.0.5,59.92639217640552,
To what extent did the music make you feel ,TENDER,30MonoWAV/30MonoS4.wav,1,1,3,12,,,,,0,1,1,11,0,10,10,10,,,,,,,,,2,1.6683140379900578,,,041,001,2019_May_17_1011,MusicAffectPsychophysiology2019,3.0.5,59.92639217640552,
To what extent did the music make you feel ,EXCITED,30MonoWAV/30MonoS4.wav,1,1,3,12,,,,,0,1,1,11,0,11,11,7,,,,,,,,,1,0.8513065860024653,,,041,001,2019_May_17_1011,MusicAffectPsychophysiology2019,3.0.5,59.92639217640552,
,,30MonoWAV/30MonoS4.wav,1,1,3,12,,,,,0,1,1,11,,,,,,,,,,,,,,,,,041,001,2019_May_17_1011,MusicAffectPsychophysiology2019,3.0.5,59.92639217640552,
To what extent did the music make you feel ,SCARED,30MonoWAV/30MonoF4.wav,1,2,2,4,,,,,0,2,2,3,0,0,0,11,,,2,3.8699395939765964,1,1.2184467560146004,1,1.534817921987269,4,3.9176443759934045,,,041,001,2019_May_17_1011,MusicAffectPsychophysiology2019,3.0.5,59.92639217640552,
To what extent did the music make you feel ,ACTIVE,30MonoWAV/30MonoF4.wav,1,2,2,4,,,,,0,2,2,3,0,1,1,9,,,,,,,,,2,2.0507277230208274,,,041,001,2019_May_17_1011,MusicAffectPsychophysiology2019,3.0.5,59.92639217640552,
To what extent did the music make you feel ,ASHAMED,30MonoWAV/30MonoF4.wav,1,2,2,4,,,,,0,2,2,3,0,2,2,4,,,,,,,,,1,2.4352184680174105,,,041,001,2019_May_17_1011,MusicAffectPsychophysiology2019,3.0.5,59.92639217640552,
To what extent did the music make you feel ,TENDER,30MonoWAV/30MonoF4.wav,1,2,2,4,,,,,0,2,2,3,0,3,3,10,,,,,,,,,1,1.585026549990289,,,041,001,2019_May_17_1011,MusicAffectPsychophysiology2019,3.0.5,59.92639217640552,
To what extent did the music make you feel ,ANGRY,30MonoWAV/30MonoF4.wav,1,2,2,4,,,,,0,2,2,3,0,4,4,2,,,,,,,,,4,2.4339360969897825,,,041,001,2019_May_17_1011,MusicAffectPsychophysiology2019,3.0.5,59.92639217640552,
To what extent did the music make you feel ,EXCITED,30MonoWAV/30MonoF4.wav,1,2,2,4,,,,,0,2,2,3,0,5,5,7,,,,,,,,,1,3.018372566992184,,,041,001,2019_May_17_1011,MusicAffectPsychophysiology2019,3.0.5,59.92639217640552,
To what extent did the music make you feel ,ANXIOUS ,30MonoWAV/30MonoF4.wav,1,2,2,4,,,,,0,2,2,3,0,6,6,1,,,,,,,,,5,1.3346112549770623,,,041,001,2019_May_17_1011,MusicAffectPsychophysiology2019,3.0.5,59.92639217640552,
To what extent did the music make you feel ,GUILTY,30MonoWAV/30MonoF4.wav,1,2,2,4,,,,,0,2,2,3,0,7,7,5,,,,,,,,,1,5.13276800600579,,,041,001,2019_May_17_1011,MusicAffectPsychophysiology2019,3.0.5,59.92639217640552,
To what extent did the music make you feel ,FRUSTRATED,30MonoWAV/30MonoF4.wav,1,2,2,4,,,,,0,2,2,3,0,8,8,3,,,,,,,,,4,2.4236151700024493,,,041,001,2019_May_17_1011,MusicAffectPsychophysiology2019,3.0.5,59.92639217640552,
To what extent did the music make you feel ,HAPPY,30MonoWAV/30MonoF4.wav,1,2,2,4,,,,,0,2,2,3,0,9,9,6,,,,,,,,,1,1.9204231070179958,,,041,001,2019_May_17_1011,MusicAffectPsychophysiology2019,3.0.5,59.92639217640552,
To what extent did the music make you feel ,SAD,30MonoWAV/30MonoF4.wav,1,2,2,4,,,,,0,2,2,3,0,10,10,0,,,,,,,,,1,2.972197713999776,,,041,001,2019_May_17_1011,MusicAffectPsychophysiology2019,3.0.5,59.92639217640552,
To what extent did the music make you feel ,ALERT,30MonoWAV/30MonoF4.wav,1,2,2,4,,,,,0,2,2,3,0,11,11,8,,,,,,,,,4,2.1560361130104866,,,041,001,2019_May_17_1011,MusicAffectPsychophysiology2019,3.0.5,59.92639217640552,
,,30MonoWAV/30MonoF4.wav,1,2,2,4,,,,,0,2,2,3,,,,,,,,,,,,,,,,,041,001,2019_May_17_1011,MusicAffectPsychophysiology2019,3.0.5,59.92639217640552,
To what extent did the music make you feel ,GUILTY,30MonoWAV/30MonoH3.wav,2,2,1,7,,,,,0,3,3,6,0,0,0,5,,,3,5.952088863996323,5,3.1862567460048012,4,1.7667141620186158,1,1.8013581950217485,,,041,001,2019_May_17_1011,MusicAffectPsychophysiology2019,3.0.5,59.92639217640552,
To what extent did the music make you feel ,FRUSTRATED,30MonoWAV/30MonoH3.wav,2,2,1,7,,,,,0,3,3,6,0,1,1,3,,,,,,,,,1,0.9023710739857052,,,041,001,2019_May_17_1011,MusicAffectPsychophysiology2019,3.0.5,59.92639217640552,
To what extent did the music make you feel ,SCARED,30MonoWAV/30MonoH3.wav,2,2,1,7,,,,,0,3,3,6,0,2,2,11,,,,,,,,,1,0.7180905240238644,,,041,001,2019_May_17_1011,MusicAffectPsychophysiology2019,3.0.5,59.92639217640552,
To what extent did the music make you feel ,ANXIOUS ,30MonoWAV/30MonoH3.wav,2,2,1,7,,,,,0,3,3,6,0,3,3,1,,,,,,,,,1,0.7347169810091145,,,041,001,2019_May_17_1011,MusicAffectPsychophysiology2019,3.0.5,59.92639217640552,
To what extent did the music make you feel ,ALERT,30MonoWAV/30MonoH3.wav,2,2,1,7,,,,,0,3,3,6,0,4,4,8,,,,,,,,,1,1.918997478991514,,,041,001,2019_May_17_1011,MusicAffectPsychophysiology2019,3.0.5,59.92639217640552,
To what extent did the music make you feel ,ASHAMED,30MonoWAV/30MonoH3.wav,2,2,1,7,,,,,0,3,3,6,0,5,5,4,,,,,,,,,1,0.668292021000525,,,041,001,2019_May_17_1011,MusicAffectPsychophysiology2019,3.0.5,59.92639217640552,
To what extent did the music make you feel ,ACTIVE,30MonoWAV/30MonoH3.wav,2,2,1,7,,,,,0,3,3,6,0,6,6,9,,,,,,,,,3,3.251536144001875,,,041,001,2019_May_17_1011,MusicAffectPsychophysiology2019,3.0.5,59.92639217640552,
To what extent did the music make you feel ,ANGRY,30MonoWAV/30MonoH3.wav,2,2,1,7,,,,,0,3,3,6,0,7,7,2,,,,,,,,,1,1.0847360210027546,,,041,001,2019_May_17_1011,MusicAffectPsychophysiology2019,3.0.5,59.92639217640552,
To what extent did the music make you feel ,HAPPY,30MonoWAV/30MonoH3.wav,2,2,1,7,,,,,0,3,3,6,0,8,8,6,,,,,,,,,4,1.2684946189983748,,,041,001,2019_May_17_1011,MusicAffectPsychophysiology2019,3.0.5,59.92639217640552,
To what extent did the music make you feel ,TENDER,30MonoWAV/30MonoH3.wav,2,2,1,7,,,,,0,3,3,6,0,9,9,10,,,,,,,,,1,1.0006096810102463,,,041,001,2019_May_17_1011,MusicAffectPsychophysiology2019,3.0.5,59.92639217640552,
To what extent did the music make you feel ,EXCITED,30MonoWAV/30MonoH3.wav,2,2,1,7,,,,,0,3,3,6,0,10,10,7,,,,,,,,,3,7.117297587014036,,,041,001,2019_May_17_1011,MusicAffectPsychophysiology2019,3.0.5,59.92639217640552,
To what extent did the music make you feel ,SAD,30MonoWAV/30MonoH3.wav,2,2,1,7,,,,,0,3,3,6,0,11,11,0,,,,,,,,,1,0.9184644360211678,,,041,001,2019_May_17_1011,MusicAffectPsychophysiology2019,3.0.5,59.92639217640552,
,,30MonoWAV/30MonoH3.wav,2,2,1,7,,,,,0,3,3,6,,,,,,,,,,,,,,,,,041,001,2019_May_17_1011,MusicAffectPsychophysiology2019,3.0.5,59.92639217640552,
To what extent did the music make you feel ,GUILTY,30MonoWAV/30MonoS3.wav,1,1,3,11,,,,,0,4,4,10,0,0,0,5,,,1,4.884565293992637,1,1.1688186760002282,1,2.0846019580203574,2,1.8523150969995186,,,041,001,2019_May_17_1011,MusicAffectPsychophysiology2019,3.0.5,59.92639217640552,
To what extent did the music make you feel ,TENDER,30MonoWAV/30MonoS3.wav,1,1,3,11,,,,,0,4,4,10,0,1,1,10,,,,,,,,,1,3.8178952560119797,,,041,001,2019_May_17_1011,MusicAffectPsychophysiology2019,3.0.5,59.92639217640552,
To what extent did the music make you feel ,ACTIVE,30MonoWAV/30MonoS3.wav,1,1,3,11,,,,,0,4,4,10,0,2,2,9,,,,,,,,,1,1.1186678889789619,,,041,001,2019_May_17_1011,MusicAffectPsychophysiology2019,3.0.5,59.92639217640552,
To what extent did the music make you feel ,ANXIOUS ,30MonoWAV/30MonoS3.wav,1,1,3,11,,,,,0,4,4,10,0,3,3,1,,,,,,,,,5,2.6019550150085706,,,041,001,2019_May_17_1011,MusicAffectPsychophysiology2019,3.0.5,59.92639217640552,
To what extent did the music make you feel ,ALERT,30MonoWAV/30MonoS3.wav,1,1,3,11,,,,,0,4,4,10,0,4,4,8,,,,,,,,,3,1.5506818710127845,,,041,001,2019_May_17_1011,MusicAffectPsychophysiology2019,3.0.5,59.92639217640552,
To what extent did the music make you feel ,SAD,30MonoWAV/30MonoS3.wav,1,1,3,11,,,,,0,4,4,10,0,5,5,0,,,,,,,,,4,3.042004994000308,,,041,001,2019_May_17_1011,MusicAffectPsychophysiology2019,3.0.5,59.92639217640552,
To what extent did the music make you feel ,FRUSTRATED,30MonoWAV/30MonoS3.wav,1,1,3,11,,,,,0,4,4,10,0,6,6,3,,,,,,,,,3,2.0190368219919037,,,041,001,2019_May_17_1011,MusicAffectPsychophysiology2019,3.0.5,59.92639217640552,
To what extent did the music make you feel ,ASHAMED,30MonoWAV/30MonoS3.wav,1,1,3,11,,,,,0,4,4,10,0,7,7,4,,,,,,,,,1,1.7187630069965962,,,041,001,2019_May_17_1011,MusicAffectPsychophysiology2019,3.0.5,59.92639217640552,
To what extent did the music make you feel ,ANGRY,30MonoWAV/30MonoS3.wav,1,1,3,11,,,,,0,4,4,10,0,8,8,2,,,,,,,,,1,1.3899622619792353,,,041,001,2019_May_17_1011,MusicAffectPsychophysiology2019,3.0.5,59.92639217640552,
To what extent did the music make you feel ,EXCITED,30MonoWAV/30MonoS3.wav,1,1,3,11,,,,,0,4,4,10,0,9,9,7,,,,,,,,,1,1.0343140560144093,,,041,001,2019_May_17_1011,MusicAffectPsychophysiology2019,3.0.5,59.92639217640552,
To what extent did the music make you feel ,SCARED,30MonoWAV/30MonoS3.wav,1,1,3,11,,,,,0,4,4,10,0,10,10,11,,,,,,,,,2,1.4847214949841145,,,041,001,2019_May_17_1011,MusicAffectPsychophysiology2019,3.0.5,59.92639217640552,
To what extent did the music make you feel ,HAPPY,30MonoWAV/30MonoS3.wav,1,1,3,11,,,,,0,4,4,10,0,11,11,6,,,,,,,,,1,0.9517484389944002,,,041,001,2019_May_17_1011,MusicAffectPsychophysiology2019,3.0.5,59.92639217640552,
,,30MonoWAV/30MonoS3.wav,1,1,3,11,,,,,0,4,4,10,,,,,,,,,,,,,,,,,041,001,2019_May_17_1011,MusicAffectPsychophysiology2019,3.0.5,59.92639217640552,
To what extent did the music make you feel ,EXCITED,30MonoWAV/30MonoT3.wav,2,1,4,15,,,,,0,5,5,14,0,0,0,7,,,1,3.8065897290071007,4,3.873826981987804,5,2.036817230982706,1,1.4527013800106943,,,041,001,2019_May_17_1011,MusicAffectPsychophysiology2019,3.0.5,59.92639217640552,
To what extent did the music make you feel ,SCARED,30MonoWAV/30MonoT3.wav,2,1,4,15,,,,,0,5,5,14,0,1,1,11,,,,,,,,,1,1.1018676180101465,,,041,001,2019_May_17_1011,MusicAffectPsychophysiology2019,3.0.5,59.92639217640552,
To what extent did the music make you feel ,ANXIOUS ,30MonoWAV/30MonoT3.wav,2,1,4,15,,,,,0,5,5,14,0,2,2,1,,,,,,,,,1,1.2689638409938198,,,041,001,2019_May_17_1011,MusicAffectPsychophysiology2019,3.0.5,59.92639217640552,
To what extent did the music make you feel ,ASHAMED,30MonoWAV/30MonoT3.wav,2,1,4,15,,,,,0,5,5,14,0,3,3,4,,,,,,,,,1,1.3012439089943655,,,041,001,2019_May_17_1011,MusicAffectPsychophysiology2019,3.0.5,59.92639217640552,
To what extent did the music make you feel ,GUILTY,30MonoWAV/30MonoT3.wav,2,1,4,15,,,,,0,5,5,14,0,4,4,5,,,,,,,,,1,1.1354897030105349,,,041,001,2019_May_17_1011,MusicAffectPsychophysiology2019,3.0.5,59.92639217640552,
To what extent did the music make you feel ,TENDER,30MonoWAV/30MonoT3.wav,2,1,4,15,,,,,0,5,5,14,0,5,5,10,,,,,,,,,2,1.2841230400081258,,,041,001,2019_May_17_1011,MusicAffectPsychophysiology2019,3.0.5,59.92639217640552,
To what extent did the music make you feel ,HAPPY,30MonoWAV/30MonoT3.wav,2,1,4,15,,,,,0,5,5,14,0,6,6,6,,,,,,,,,4,1.968936654011486,,,041,001,2019_May_17_1011,MusicAffectPsychophysiology2019,3.0.5,59.92639217640552,
To what extent did the music make you feel ,ANGRY,30MonoWAV/30MonoT3.wav,2,1,4,15,,,,,0,5,5,14,0,7,7,2,,,,,,,,,1,0.9854010990238748,,,041,001,2019_May_17_1011,MusicAffectPsychophysiology2019,3.0.5,59.92639217640552,
To what extent did the music make you feel ,SAD,30MonoWAV/30MonoT3.wav,2,1,4,15,,,,,0,5,5,14,0,8,8,0,,,,,,,,,1,1.0687580929952674,,,041,001,2019_May_17_1011,MusicAffectPsychophysiology2019,3.0.5,59.92639217640552,
To what extent did the music make you feel ,ACTIVE,30MonoWAV/30MonoT3.wav,2,1,4,15,,,,,0,5,5,14,0,9,9,9,,,,,,,,,1,1.6181042980169877,,,041,001,2019_May_17_1011,MusicAffectPsychophysiology2019,3.0.5,59.92639217640552,
To what extent did the music make you feel ,FRUSTRATED,30MonoWAV/30MonoT3.wav,2,1,4,15,,,,,0,5,5,14,0,10,10,3,,,,,,,,,1,1.152208576007979,,,041,001,2019_May_17_1011,MusicAffectPsychophysiology2019,3.0.5,59.92639217640552,
To what extent did the music make you feel ,ALERT,30MonoWAV/30MonoT3.wav,2,1,4,15,,,,,0,5,5,14,0,11,11,8,,,,,,,,,1,1.3184382520266809,,,041,001,2019_May_17_1011,MusicAffectPsychophysiology2019,3.0.5,59.92639217640552,
,,30MonoWAV/30MonoT3.wav,2,1,4,15,,,,,0,5,5,14,,,,,,,,,,,,,,,,,041,001,2019_May_17_1011,MusicAffectPsychophysiology2019,3.0.5,59.92639217640552,
To what extent did the music make you feel ,ASHAMED,30MonoWAV/30MonoT1.wav,2,1,4,13,,,,,0,6,6,12,0,0,0,4,,,1,3.018995961989276,2,3.7180752609856427,2,2.852417576999869,1,1.2189830139977857,,,041,001,2019_May_17_1011,MusicAffectPsychophysiology2019,3.0.5,59.92639217640552,
To what extent did the music make you feel ,SAD,30MonoWAV/30MonoT1.wav,2,1,4,13,,,,,0,6,6,12,0,1,1,0,,,,,,,,,1,3.5687074240122456,,,041,001,2019_May_17_1011,MusicAffectPsychophysiology2019,3.0.5,59.92639217640552,
To what extent did the music make you feel ,ALERT,30MonoWAV/30MonoT1.wav,2,1,4,13,,,,,0,6,6,12,0,2,2,8,,,,,,,,,1,0.7851184169994667,,,041,001,2019_May_17_1011,MusicAffectPsychophysiology2019,3.0.5,59.92639217640552,
To what extent did the music make you feel ,SCARED,30MonoWAV/30MonoT1.wav,2,1,4,13,,,,,0,6,6,12,0,3,3,11,,,,,,,,,1,0.8019714169786312,,,041,001,2019_May_17_1011,MusicAffectPsychophysiology2019,3.0.5,59.92639217640552,
To what extent did the music make you feel ,ANXIOUS ,30MonoWAV/30MonoT1.wav,2,1,4,13,,,,,0,6,6,12,0,4,4,1,,,,,,,,,2,2.602082822006196,,,041,001,2019_May_17_1011,MusicAffectPsychophysiology2019,3.0.5,59.92639217640552,
To what extent did the music make you feel ,GUILTY,30MonoWAV/30MonoT1.wav,2,1,4,13,,,,,0,6,6,12,0,5,5,5,,,,,,,,,1,1.167718128010165,,,041,001,2019_May_17_1011,MusicAffectPsychophysiology2019,3.0.5,59.92639217640552,
To what extent did the music make you feel ,HAPPY,30MonoWAV/30MonoT1.wav,2,1,4,13,,,,,0,6,6,12,0,6,6,6,,,,,,,,,1,4.218419748998713,,,041,001,2019_May_17_1011,MusicAffectPsychophysiology2019,3.0.5,59.92639217640552,
To what extent did the music make you feel ,ANGRY,30MonoWAV/30MonoT1.wav,2,1,4,13,,,,,0,6,6,12,0,7,7,2,,,,,,,,,1,0.7836270770058036,,,041,001,2019_May_17_1011,MusicAffectPsychophysiology2019,3.0.5,59.92639217640552,
To what extent did the music make you feel ,FRUSTRATED,30MonoWAV/30MonoT1.wav,2,1,4,13,,,,,0,6,6,12,0,8,8,3,,,,,,,,,1,1.435507943999255,,,041,001,2019_May_17_1011,MusicAffectPsychophysiology2019,3.0.5,59.92639217640552,
To what extent did the music make you feel ,ACTIVE,30MonoWAV/30MonoT1.wav,2,1,4,13,,,,,0,6,6,12,0,9,9,9,,,,,,,,,1,2.5678141099924687,,,041,001,2019_May_17_1011,MusicAffectPsychophysiology2019,3.0.5,59.92639217640552,
To what extent did the music make you feel ,EXCITED,30MonoWAV/30MonoT1.wav,2,1,4,13,,,,,0,6,6,12,0,10,10,7,,,,,,,,,1,1.0177775339980144,,,041,001,2019_May_17_1011,MusicAffectPsychophysiology2019,3.0.5,59.92639217640552,
To what extent did the music make you feel ,TENDER,30MonoWAV/30MonoT1.wav,2,1,4,13,,,,,0,6,6,12,0,11,11,10,,,,,,,,,1,1.5694618459965568,,,041,001,2019_May_17_1011,MusicAffectPsychophysiology2019,3.0.5,59.92639217640552,
,,30MonoWAV/30MonoT1.wav,2,1,4,13,,,,,0,6,6,12,,,,,,,,,,,,,,,,,041,001,2019_May_17_1011,MusicAffectPsychophysiology2019,3.0.5,59.92639217640552,
To what extent did the music make you feel ,SAD,30MonoWAV/30MonoT4.wav,2,1,4,16,,,,,0,7,7,15,0,0,0,0,,,2,3.7513220400142018,4,5.0847927819995675,4,2.500857527978951,2,4.420107593992725,,,041,001,2019_May_17_1011,MusicAffectPsychophysiology2019,3.0.5,59.92639217640552,
To what extent did the music make you feel ,HAPPY,30MonoWAV/30MonoT4.wav,2,1,4,16,,,,,0,7,7,15,0,1,1,6,,,,,,,,,4,3.1011328939930536,,,041,001,2019_May_17_1011,MusicAffectPsychophysiology2019,3.0.5,59.92639217640552,
To what extent did the music make you feel ,ALERT,30MonoWAV/30MonoT4.wav,2,1,4,16,,,,,0,7,7,15,0,2,2,8,,,,,,,,,1,2.5347153350012377,,,041,001,2019_May_17_1011,MusicAffectPsychophysiology2019,3.0.5,59.92639217640552,
To what extent did the music make you feel ,EXCITED,30MonoWAV/30MonoT4.wav,2,1,4,16,,,,,0,7,7,15,0,3,3,7,,,,,,,,,1,1.6187235130055342,,,041,001,2019_May_17_1011,MusicAffectPsychophysiology2019,3.0.5,59.92639217640552,
To what extent did the music make you feel ,ANXIOUS ,30MonoWAV/30MonoT4.wav,2,1,4,16,,,,,0,7,7,15,0,4,4,1,,,,,,,,,1,3.3358545509981923,,,041,001,2019_May_17_1011,MusicAffectPsychophysiology2019,3.0.5,59.92639217640552,
To what extent did the music make you feel ,FRUSTRATED,30MonoWAV/30MonoT4.wav,2,1,4,16,,,,,0,7,7,15,0,5,5,3,,,,,,,,,1,0.984109023003839,,,041,001,2019_May_17_1011,MusicAffectPsychophysiology2019,3.0.5,59.92639217640552,
To what extent did the music make you feel ,GUILTY,30MonoWAV/30MonoT4.wav,2,1,4,16,,,,,0,7,7,15,0,6,6,5,,,,,,,,,1,0.7850513930025045,,,041,001,2019_May_17_1011,MusicAffectPsychophysiology2019,3.0.5,59.92639217640552,
To what extent did the music make you feel ,TENDER,30MonoWAV/30MonoT4.wav,2,1,4,16,,,,,0,7,7,15,0,7,7,10,,,,,,,,,1,4.394201112998417,,,041,001,2019_May_17_1011,MusicAffectPsychophysiology2019,3.0.5,59.92639217640552,
To what extent did the music make you feel ,SCARED,30MonoWAV/30MonoT4.wav,2,1,4,16,,,,,0,7,7,15,0,8,8,11,,,,,,,,,1,0.6358881429769099,,,041,001,2019_May_17_1011,MusicAffectPsychophysiology2019,3.0.5,59.92639217640552,
To what extent did the music make you feel ,ASHAMED,30MonoWAV/30MonoT4.wav,2,1,4,16,,,,,0,7,7,15,0,9,9,4,,,,,,,,,1,0.8015895150019787,,,041,001,2019_May_17_1011,MusicAffectPsychophysiology2019,3.0.5,59.92639217640552,
To what extent did the music make you feel ,ANGRY,30MonoWAV/30MonoT4.wav,2,1,4,16,,,,,0,7,7,15,0,10,10,2,,,,,,,,,1,0.8522957859968301,,,041,001,2019_May_17_1011,MusicAffectPsychophysiology2019,3.0.5,59.92639217640552,
To what extent did the music make you feel ,ACTIVE,30MonoWAV/30MonoT4.wav,2,1,4,16,,,,,0,7,7,15,0,11,11,9,,,,,,,,,2,3.189796232007211,,,041,001,2019_May_17_1011,MusicAffectPsychophysiology2019,3.0.5,59.92639217640552,
,,30MonoWAV/30MonoT4.wav,2,1,4,16,,,,,0,7,7,15,,,,,,,,,,,,,,,,,041,001,2019_May_17_1011,MusicAffectPsychophysiology2019,3.0.5,59.92639217640552,
To what extent did the music make you feel ,ASHAMED,30MonoWAV/30MonoF3.wav,1,2,2,3,,,,,0,8,8,2,0,0,0,4,,,2,4.707491042994661,1,3.8754020750056952,2,2.584953804005636,1,2.0542915330152027,,,041,001,2019_May_17_1011,MusicAffectPsychophysiology2019,3.0.5,59.92639217640552,
To what extent did the music make you feel ,EXCITED,30MonoWAV/30MonoF3.wav,1,2,2,3,,,,,0,8,8,2,0,1,1,7,,,,,,,,,3,2.8539081509807147,,,041,001,2019_May_17_1011,MusicAffectPsychophysiology2019,3.0.5,59.92639217640552,
To what extent did the music make you feel ,GUILTY,30MonoWAV/30MonoF3.wav,1,2,2,3,,,,,0,8,8,2,0,2,2,5,,,,,,,,,1,1.5534836639999412,,,041,001,2019_May_17_1011,MusicAffectPsychophysiology2019,3.0.5,59.92639217640552,
To what extent did the music make you feel ,HAPPY,30MonoWAV/30MonoF3.wav,1,2,2,3,,,,,0,8,8,2,0,3,3,6,,,,,,,,,1,3.5561944619985297,,,041,001,2019_May_17_1011,MusicAffectPsychophysiology2019,3.0.5,59.92639217640552,
To what extent did the music make you feel ,TENDER,30MonoWAV/30MonoF3.wav,1,2,2,3,,,,,0,8,8,2,0,4,4,10,,,,,,,,,1,0.972493923996808,,,041,001,2019_May_17_1011,MusicAffectPsychophysiology2019,3.0.5,59.92639217640552,
To what extent did the music make you feel ,ANGRY,30MonoWAV/30MonoF3.wav,1,2,2,3,,,,,0,8,8,2,0,5,5,2,,,,,,,,,1,2.085067562002223,,,041,001,2019_May_17_1011,MusicAffectPsychophysiology2019,3.0.5,59.92639217640552,
To what extent did the music make you feel ,SCARED,30MonoWAV/30MonoF3.wav,1,2,2,3,,,,,0,8,8,2,0,6,6,11,,,,,,,,,3,2.7176470150006935,,,041,001,2019_May_17_1011,MusicAffectPsychophysiology2019,3.0.5,59.92639217640552,
To what extent did the music make you feel ,ACTIVE,30MonoWAV/30MonoF3.wav,1,2,2,3,,,,,0,8,8,2,0,7,7,9,,,,,,,,,4,1.6856517840060405,,,041,001,2019_May_17_1011,MusicAffectPsychophysiology2019,3.0.5,59.92639217640552,
To what extent did the music make you feel ,FRUSTRATED,30MonoWAV/30MonoF3.wav,1,2,2,3,,,,,0,8,8,2,0,8,8,3,,,,,,,,,1,6.884998144989368,,,041,001,2019_May_17_1011,MusicAffectPsychophysiology2019,3.0.5,59.92639217640552,
To what extent did the music make you feel ,ALERT,30MonoWAV/30MonoF3.wav,1,2,2,3,,,,,0,8,8,2,0,9,9,8,,,,,,,,,3,2.5185375009896234,,,041,001,2019_May_17_1011,MusicAffectPsychophysiology2019,3.0.5,59.92639217640552,
To what extent did the music make you feel ,ANXIOUS ,30MonoWAV/30MonoF3.wav,1,2,2,3,,,,,0,8,8,2,0,10,10,1,,,,,,,,,4,1.535203083010856,,,041,001,2019_May_17_1011,MusicAffectPsychophysiology2019,3.0.5,59.92639217640552,
To what extent did the music make you feel ,SAD,30MonoWAV/30MonoF3.wav,1,2,2,3,,,,,0,8,8,2,0,11,11,0,,,,,,,,,1,1.3193749269994441,,,041,001,2019_May_17_1011,MusicAffectPsychophysiology2019,3.0.5,59.92639217640552,
,,30MonoWAV/30MonoF3.wav,1,2,2,3,,,,,0,8,8,2,,,,,,,,,,,,,,,,,041,001,2019_May_17_1011,MusicAffectPsychophysiology2019,3.0.5,59.92639217640552,
To what extent did the music make you feel ,GUILTY,30MonoWAV/30MonoS2.wav,1,1,3,10,,,,,0,9,9,9,0,0,0,5,,,1,3.8181326820049435,2,5.234170253999764,3,2.1689147129945923,1,1.734872392989928,,,041,001,2019_May_17_1011,MusicAffectPsychophysiology2019,3.0.5,59.92639217640552,
To what extent did the music make you feel ,EXCITED,30MonoWAV/30MonoS2.wav,1,1,3,10,,,,,0,9,9,9,0,1,1,7,,,,,,,,,1,0.9511847120011225,,,041,001,2019_May_17_1011,MusicAffectPsychophysiology2019,3.0.5,59.92639217640552,
To what extent did the music make you feel ,ANXIOUS ,30MonoWAV/30MonoS2.wav,1,1,3,10,,,,,0,9,9,9,0,2,2,1,,,,,,,,,3,1.902315567014739,,,041,001,2019_May_17_1011,MusicAffectPsychophysiology2019,3.0.5,59.92639217640552,
To what extent did the music make you feel ,ASHAMED,30MonoWAV/30MonoS2.wav,1,1,3,10,,,,,0,9,9,9,0,3,3,4,,,,,,,,,1,1.2016094270220492,,,041,001,2019_May_17_1011,MusicAffectPsychophysiology2019,3.0.5,59.92639217640552,
To what extent did the music make you feel ,ACTIVE,30MonoWAV/30MonoS2.wav,1,1,3,10,,,,,0,9,9,9,0,4,4,9,,,,,,,,,1,1.0515312619972974,,,041,001,2019_May_17_1011,MusicAffectPsychophysiology2019,3.0.5,59.92639217640552,
To what extent did the music make you feel ,ANGRY,30MonoWAV/30MonoS2.wav,1,1,3,10,,,,,0,9,9,9,0,5,5,2,,,,,,,,,1,1.3841956120159011,,,041,001,2019_May_17_1011,MusicAffectPsychophysiology2019,3.0.5,59.92639217640552,
To what extent did the music make you feel ,ALERT,30MonoWAV/30MonoS2.wav,1,1,3,10,,,,,0,9,9,9,0,6,6,8,,,,,,,,,1,1.9038086389773525,,,041,001,2019_May_17_1011,MusicAffectPsychophysiology2019,3.0.5,59.92639217640552,
To what extent did the music make you feel ,FRUSTRATED,30MonoWAV/30MonoS2.wav,1,1,3,10,,,,,0,9,9,9,0,7,7,3,,,,,,,,,1,1.269253734004451,,,041,001,2019_May_17_1011,MusicAffectPsychophysiology2019,3.0.5,59.92639217640552,
To what extent did the music make you feel ,SCARED,30MonoWAV/30MonoS2.wav,1,1,3,10,,,,,0,9,9,9,0,8,8,11,,,,,,,,,1,1.2847616449871566,,,041,001,2019_May_17_1011,MusicAffectPsychophysiology2019,3.0.5,59.92639217640552,
To what extent did the music make you feel ,TENDER,30MonoWAV/30MonoS2.wav,1,1,3,10,,,,,0,9,9,9,0,9,9,10,,,,,,,,,3,2.2508676029974595,,,041,001,2019_May_17_1011,MusicAffectPsychophysiology2019,3.0.5,59.92639217640552,
To what extent did the music make you feel ,SAD,30MonoWAV/30MonoS2.wav,1,1,3,10,,,,,0,9,9,9,0,10,10,0,,,,,,,,,3,1.8017035899974871,,,041,001,2019_May_17_1011,MusicAffectPsychophysiology2019,3.0.5,59.92639217640552,
To what extent did the music make you feel ,HAPPY,30MonoWAV/30MonoS2.wav,1,1,3,10,,,,,0,9,9,9,0,11,11,6,,,,,,,,,1,0.9519692030153237,,,041,001,2019_May_17_1011,MusicAffectPsychophysiology2019,3.0.5,59.92639217640552,
,,30MonoWAV/30MonoS2.wav,1,1,3,10,,,,,0,9,9,9,,,,,,,,,,,,,,,,,041,001,2019_May_17_1011,MusicAffectPsychophysiology2019,3.0.5,59.92639217640552,
To what extent did the music make you feel ,ANGRY,30MonoWAV/30MonoH1.wav,2,2,1,5,,,,,0,10,10,4,0,0,0,2,,,4,6.36912137499894,4,1.8511482229805551,4,2.035598682006821,1,1.4499927420110907,,,041,001,2019_May_17_1011,MusicAffectPsychophysiology2019,3.0.5,59.92639217640552,
To what extent did the music make you feel ,SAD,30MonoWAV/30MonoH1.wav,2,2,1,5,,,,,0,10,10,4,0,1,1,0,,,,,,,,,1,0.7999488149944227,,,041,001,2019_May_17_1011,MusicAffectPsychophysiology2019,3.0.5,59.92639217640552,
To what extent did the music make you feel ,ASHAMED,30MonoWAV/30MonoH1.wav,2,2,1,5,,,,,0,10,10,4,0,2,2,4,,,,,,,,,1,0.7020337779831607,,,041,001,2019_May_17_1011,MusicAffectPsychophysiology2019,3.0.5,59.92639217640552,
To what extent did the music make you feel ,ANXIOUS ,30MonoWAV/30MonoH1.wav,2,2,1,5,,,,,0,10,10,4,0,3,3,1,,,,,,,,,1,0.8831447389966343,,,041,001,2019_May_17_1011,MusicAffectPsychophysiology2019,3.0.5,59.92639217640552,
To what extent did the music make you feel ,EXCITED,30MonoWAV/30MonoH1.wav,2,2,1,5,,,,,0,10,10,4,0,4,4,7,,,,,,,,,4,2.4858350119902752,,,041,001,2019_May_17_1011,MusicAffectPsychophysiology2019,3.0.5,59.92639217640552,
To what extent did the music make you feel ,SCARED,30MonoWAV/30MonoH1.wav,2,2,1,5,,,,,0,10,10,4,0,5,5,11,,,,,,,,,1,1.0842816039803438,,,041,001,2019_May_17_1011,MusicAffectPsychophysiology2019,3.0.5,59.92639217640552,
To what extent did the music make you feel ,FRUSTRATED,30MonoWAV/30MonoH1.wav,2,2,1,5,,,,,0,10,10,4,0,6,6,3,,,,,,,,,1,0.8686046650109347,,,041,001,2019_May_17_1011,MusicAffectPsychophysiology2019,3.0.5,59.92639217640552,
To what extent did the music make you feel ,TENDER,30MonoWAV/30MonoH1.wav,2,2,1,5,,,,,0,10,10,4,0,7,7,10,,,,,,,,,1,0.8848913330002688,,,041,001,2019_May_17_1011,MusicAffectPsychophysiology2019,3.0.5,59.92639217640552,
To what extent did the music make you feel ,GUILTY,30MonoWAV/30MonoH1.wav,2,2,1,5,,,,,0,10,10,4,0,8,8,5,,,,,,,,,1,0.7350981069903355,,,041,001,2019_May_17_1011,MusicAffectPsychophysiology2019,3.0.5,59.92639217640552,
To what extent did the music make you feel ,HAPPY,30MonoWAV/30MonoH1.wav,2,2,1,5,,,,,0,10,10,4,0,9,9,6,,,,,,,,,5,2.9016564400226343,,,041,001,2019_May_17_1011,MusicAffectPsychophysiology2019,3.0.5,59.92639217640552,
To what extent did the music make you feel ,ALERT,30MonoWAV/30MonoH1.wav,2,2,1,5,,,,,0,10,10,4,0,10,10,8,,,,,,,,,1,1.0354927519802004,,,041,001,2019_May_17_1011,MusicAffectPsychophysiology2019,3.0.5,59.92639217640552,
To what extent did the music make you feel ,ACTIVE,30MonoWAV/30MonoH1.wav,2,2,1,5,,,,,0,10,10,4,0,11,11,9,,,,,,,,,3,3.934794586006319,,,041,001,2019_May_17_1011,MusicAffectPsychophysiology2019,3.0.5,59.92639217640552,
,,30MonoWAV/30MonoH1.wav,2,2,1,5,,,,,0,10,10,4,,,,,,,,,,,,,,,,,041,001,2019_May_17_1011,MusicAffectPsychophysiology2019,3.0.5,59.92639217640552,
To what extent did the music make you feel ,ASHAMED,30MonoWAV/30MonoF1.wav,1,2,2,1,,,,,0,11,11,0,0,0,0,4,,,3,4.301545517984778,1,1.0013362850004341,1,1.269219694979256,3,2.7841566010029055,,,041,001,2019_May_17_1011,MusicAffectPsychophysiology2019,3.0.5,59.92639217640552,
To what extent did the music make you feel ,SAD,30MonoWAV/30MonoF1.wav,1,2,2,1,,,,,0,11,11,0,0,1,1,0,,,,,,,,,1,0.9353810040047392,,,041,001,2019_May_17_1011,MusicAffectPsychophysiology2019,3.0.5,59.92639217640552,
To what extent did the music make you feel ,GUILTY,30MonoWAV/30MonoF1.wav,1,2,2,1,,,,,0,11,11,0,0,2,2,5,,,,,,,,,3,1.736203876993386,,,041,001,2019_May_17_1011,MusicAffectPsychophysiology2019,3.0.5,59.92639217640552,
To what extent did the music make you feel ,HAPPY,30MonoWAV/30MonoF1.wav,1,2,2,1,,,,,0,11,11,0,0,3,3,6,,,,,,,,,1,1.3669675720157102,,,041,001,2019_May_17_1011,MusicAffectPsychophysiology2019,3.0.5,59.92639217640552,
To what extent did the music make you feel ,SCARED,30MonoWAV/30MonoF1.wav,1,2,2,1,,,,,0,11,11,0,0,4,4,11,,,,,,,,,5,1.4682419419987127,,,041,001,2019_May_17_1011,MusicAffectPsychophysiology2019,3.0.5,59.92639217640552,
To what extent did the music make you feel ,ACTIVE,30MonoWAV/30MonoF1.wav,1,2,2,1,,,,,0,11,11,0,0,5,5,9,,,,,,,,,3,2.018959461012855,,,041,001,2019_May_17_1011,MusicAffectPsychophysiology2019,3.0.5,59.92639217640552,
To what extent did the music make you feel ,ALERT,30MonoWAV/30MonoF1.wav,1,2,2,1,,,,,0,11,11,0,0,6,6,8,,,,,,,,,5,1.3020931529754307,,,041,001,2019_May_17_1011,MusicAffectPsychophysiology2019,3.0.5,59.92639217640552,
To what extent did the music make you feel ,FRUSTRATED,30MonoWAV/30MonoF1.wav,1,2,2,1,,,,,0,11,11,0,0,7,7,3,,,,,,,,,5,1.4337544500012882,,,041,001,2019_May_17_1011,MusicAffectPsychophysiology2019,3.0.5,59.92639217640552,
To what extent did the music make you feel ,ANXIOUS ,30MonoWAV/30MonoF1.wav,1,2,2,1,,,,,0,11,11,0,0,8,8,1,,,,,,,,,5,0.8018455480050761,,,041,001,2019_May_17_1011,MusicAffectPsychophysiology2019,3.0.5,59.92639217640552,
To what extent did the music make you feel ,EXCITED,30MonoWAV/30MonoF1.wav,1,2,2,1,,,,,0,11,11,0,0,9,9,7,,,,,,,,,1,1.1355653759965207,,,041,001,2019_May_17_1011,MusicAffectPsychophysiology2019,3.0.5,59.92639217640552,
To what extent did the music make you feel ,ANGRY,30MonoWAV/30MonoF1.wav,1,2,2,1,,,,,0,11,11,0,0,10,10,2,,,,,,,,,3,2.1691911260131747,,,041,001,2019_May_17_1011,MusicAffectPsychophysiology2019,3.0.5,59.92639217640552,
To what extent did the music make you feel ,TENDER,30MonoWAV/30MonoF1.wav,1,2,2,1,,,,,0,11,11,0,0,11,11,10,,,,,,,,,1,1.3348180289904121,,,041,001,2019_May_17_1011,MusicAffectPsychophysiology2019,3.0.5,59.92639217640552,
,,30MonoWAV/30MonoF1.wav,1,2,2,1,,,,,0,11,11,0,,,,,,,,,,,,,,,,,041,001,2019_May_17_1011,MusicAffectPsychophysiology2019,3.0.5,59.92639217640552,
To what extent did the music make you feel ,ASHAMED,30MonoWAV/30MonoT2.wav,2,1,4,14,,,,,0,12,12,13,0,0,0,4,,,3,3.4524349409912247,5,3.6992502940120175,5,1.7581694929976948,1,1.1670645289996173,,,041,001,2019_May_17_1011,MusicAffectPsychophysiology2019,3.0.5,59.92639217640552,
To what extent did the music make you feel ,HAPPY,30MonoWAV/30MonoT2.wav,2,1,4,14,,,,,0,12,12,13,0,1,1,6,,,,,,,,,3,1.4857113439938985,,,041,001,2019_May_17_1011,MusicAffectPsychophysiology2019,3.0.5,59.92639217640552,
To what extent did the music make you feel ,EXCITED,30MonoWAV/30MonoT2.wav,2,1,4,14,,,,,0,12,12,13,0,2,2,7,,,,,,,,,3,3.160481131024426,,,041,001,2019_May_17_1011,MusicAffectPsychophysiology2019,3.0.5,59.92639217640552,
To what extent did the music make you feel ,SCARED,30MonoWAV/30MonoT2.wav,2,1,4,14,,,,,0,12,12,13,0,3,3,11,,,,,,,,,1,0.8682013649959117,,,041,001,2019_May_17_1011,MusicAffectPsychophysiology2019,3.0.5,59.92639217640552,
To what extent did the music make you feel ,ALERT,30MonoWAV/30MonoT2.wav,2,1,4,14,,,,,0,12,12,13,0,4,4,8,,,,,,,,,1,0.886688973987475,,,041,001,2019_May_17_1011,MusicAffectPsychophysiology2019,3.0.5,59.92639217640552,
To what extent did the music make you feel ,ACTIVE,30MonoWAV/30MonoT2.wav,2,1,4,14,,,,,0,12,12,13,0,5,5,9,,,,,,,,,3,1.1742104009899776,,,041,001,2019_May_17_1011,MusicAffectPsychophysiology2019,3.0.5,59.92639217640552,
To what extent did the music make you feel ,SAD,30MonoWAV/30MonoT2.wav,2,1,4,14,,,,,0,12,12,13,0,6,6,0,,,,,,,,,1,0.8523863080190495,,,041,001,2019_May_17_1011,MusicAffectPsychophysiology2019,3.0.5,59.92639217640552,
To what extent did the music make you feel ,ANXIOUS ,30MonoWAV/30MonoT2.wav,2,1,4,14,,,,,0,12,12,13,0,7,7,1,,,,,,,,,1,1.0184960949991364,,,041,001,2019_May_17_1011,MusicAffectPsychophysiology2019,3.0.5,59.92639217640552,
To what extent did the music make you feel ,FRUSTRATED,30MonoWAV/30MonoT2.wav,2,1,4,14,,,,,0,12,12,13,0,8,8,3,,,,,,,,,1,1.3350835950113833,,,041,001,2019_May_17_1011,MusicAffectPsychophysiology2019,3.0.5,59.92639217640552,
To what extent did the music make you feel ,TENDER,30MonoWAV/30MonoT2.wav,2,1,4,14,,,,,0,12,12,13,0,9,9,10,,,,,,,,,1,2.6543359750066884,,,041,001,2019_May_17_1011,MusicAffectPsychophysiology2019,3.0.5,59.92639217640552,
To what extent did the music make you feel ,ANGRY,30MonoWAV/30MonoT2.wav,2,1,4,14,,,,,0,12,12,13,0,10,10,2,,,,,,,,,1,1.0354816729959566,,,041,001,2019_May_17_1011,MusicAffectPsychophysiology2019,3.0.5,59.92639217640552,
To what extent did the music make you feel ,GUILTY,30MonoWAV/30MonoT2.wav,2,1,4,14,,,,,0,12,12,13,0,11,11,5,,,,,,,,,1,0.5690832399995998,,,041,001,2019_May_17_1011,MusicAffectPsychophysiology2019,3.0.5,59.92639217640552,
,,30MonoWAV/30MonoT2.wav,2,1,4,14,,,,,0,12,12,13,,,,,,,,,,,,,,,,,041,001,2019_May_17_1011,MusicAffectPsychophysiology2019,3.0.5,59.92639217640552,
To what extent did the music make you feel ,ACTIVE,30MonoWAV/30MonoF2.wav,1,2,2,2,,,,,0,13,13,1,0,0,0,9,,,1,3.582629445998464,1,0.9345378209836781,1,1.069225567014655,2,2.752675696014194,,,041,001,2019_May_17_1011,MusicAffectPsychophysiology2019,3.0.5,59.92639217640552,
To what extent did the music make you feel ,HAPPY,30MonoWAV/30MonoF2.wav,1,2,2,2,,,,,0,13,13,1,0,1,1,6,,,,,,,,,1,0.737169932021061,,,041,001,2019_May_17_1011,MusicAffectPsychophysiology2019,3.0.5,59.92639217640552,
To what extent did the music make you feel ,TENDER,30MonoWAV/30MonoF2.wav,1,2,2,2,,,,,0,13,13,1,0,2,2,10,,,,,,,,,1,1.3194110170006752,,,041,001,2019_May_17_1011,MusicAffectPsychophysiology2019,3.0.5,59.92639217640552,
To what extent did the music make you feel ,ALERT,30MonoWAV/30MonoF2.wav,1,2,2,2,,,,,0,13,13,1,0,3,3,8,,,,,,,,,5,1.6373798249987885,,,041,001,2019_May_17_1011,MusicAffectPsychophysiology2019,3.0.5,59.92639217640552,
To what extent did the music make you feel ,ASHAMED,30MonoWAV/30MonoF2.wav,1,2,2,2,,,,,0,13,13,1,0,4,4,4,,,,,,,,,1,1.8706404299882706,,,041,001,2019_May_17_1011,MusicAffectPsychophysiology2019,3.0.5,59.92639217640552,
To what extent did the music make you feel ,ANGRY,30MonoWAV/30MonoF2.wav,1,2,2,2,,,,,0,13,13,1,0,5,5,2,,,,,,,,,2,3.108310857001925,,,041,001,2019_May_17_1011,MusicAffectPsychophysiology2019,3.0.5,59.92639217640552,
To what extent did the music make you feel ,EXCITED,30MonoWAV/30MonoF2.wav,1,2,2,2,,,,,0,13,13,1,0,6,6,7,,,,,,,,,2,2.768986410985235,,,041,001,2019_May_17_1011,MusicAffectPsychophysiology2019,3.0.5,59.92639217640552,
To what extent did the music make you feel ,SCARED,30MonoWAV/30MonoF2.wav,1,2,2,2,,,,,0,13,13,1,0,7,7,11,,,,,,,,,5,1.335084279999137,,,041,001,2019_May_17_1011,MusicAffectPsychophysiology2019,3.0.5,59.92639217640552,
To what extent did the music make you feel ,FRUSTRATED,30MonoWAV/30MonoF2.wav,1,2,2,2,,,,,0,13,13,1,0,8,8,3,,,,,,,,,3,2.1003917139896657,,,041,001,2019_May_17_1011,MusicAffectPsychophysiology2019,3.0.5,59.92639217640552,
To what extent did the music make you feel ,ANXIOUS ,30MonoWAV/30MonoF2.wav,1,2,2,2,,,,,0,13,13,1,0,9,9,1,,,,,,,,,5,1.018189132999396,,,041,001,2019_May_17_1011,MusicAffectPsychophysiology2019,3.0.5,59.92639217640552,
To what extent did the music make you feel ,GUILTY,30MonoWAV/30MonoF2.wav,1,2,2,2,,,,,0,13,13,1,0,10,10,5,,,,,,,,,2,2.149999735003803,,,041,001,2019_May_17_1011,MusicAffectPsychophysiology2019,3.0.5,59.92639217640552,
To what extent did the music make you feel ,SAD,30MonoWAV/30MonoF2.wav,1,2,2,2,,,,,0,13,13,1,0,11,11,0,,,,,,,,,1,1.433254889008822,,,041,001,2019_May_17_1011,MusicAffectPsychophysiology2019,3.0.5,59.92639217640552,
,,30MonoWAV/30MonoF2.wav,1,2,2,2,,,,,0,13,13,1,,,,,,,,,,,,,,,,,041,001,2019_May_17_1011,MusicAffectPsychophysiology2019,3.0.5,59.92639217640552,
To what extent did the music make you feel ,HAPPY,30MonoWAV/30MonoS1.wav,1,1,3,9,,,,,0,14,14,8,0,0,0,6,,,2,2.950796253979206,3,2.8355424030160066,5,1.7187988030200358,3,3.834843180986354,,,041,001,2019_May_17_1011,MusicAffectPsychophysiology2019,3.0.5,59.92639217640552,
To what extent did the music make you feel ,ASHAMED,30MonoWAV/30MonoS1.wav,1,1,3,9,,,,,0,14,14,8,0,1,1,4,,,,,,,,,1,0.9344747959985398,,,041,001,2019_May_17_1011,MusicAffectPsychophysiology2019,3.0.5,59.92639217640552,
To what extent did the music make you feel ,TENDER,30MonoWAV/30MonoS1.wav,1,1,3,9,,,,,0,14,14,8,0,2,2,10,,,,,,,,,2,1.1496639650140423,,,041,001,2019_May_17_1011,MusicAffectPsychophysiology2019,3.0.5,59.92639217640552,
To what extent did the music make you feel ,SCARED,30MonoWAV/30MonoS1.wav,1,1,3,9,,,,,0,14,14,8,0,3,3,11,,,,,,,,,1,1.0849307269963901,,,041,001,2019_May_17_1011,MusicAffectPsychophysiology2019,3.0.5,59.92639217640552,
To what extent did the music make you feel ,ANXIOUS ,30MonoWAV/30MonoS1.wav,1,1,3,9,,,,,0,14,14,8,0,4,4,1,,,,,,,,,2,1.6849353520083241,,,041,001,2019_May_17_1011,MusicAffectPsychophysiology2019,3.0.5,59.92639217640552,
To what extent did the music make you feel ,GUILTY,30MonoWAV/30MonoS1.wav,1,1,3,9,,,,,0,14,14,8,0,5,5,5,,,,,,,,,1,1.0686860059795436,,,041,001,2019_May_17_1011,MusicAffectPsychophysiology2019,3.0.5,59.92639217640552,
To what extent did the music make you feel ,EXCITED,30MonoWAV/30MonoS1.wav,1,1,3,9,,,,,0,14,14,8,0,6,6,7,,,,,,,,,1,3.36954931600485,,,041,001,2019_May_17_1011,MusicAffectPsychophysiology2019,3.0.5,59.92639217640552,
To what extent did the music make you feel ,ALERT,30MonoWAV/30MonoS1.wav,1,1,3,9,,,,,0,14,14,8,0,7,7,8,,,,,,,,,1,0.917039408988785,,,041,001,2019_May_17_1011,MusicAffectPsychophysiology2019,3.0.5,59.92639217640552,
To what extent did the music make you feel ,ACTIVE,30MonoWAV/30MonoS1.wav,1,1,3,9,,,,,0,14,14,8,0,8,8,9,,,,,,,,,1,2.0021910080104135,,,041,001,2019_May_17_1011,MusicAffectPsychophysiology2019,3.0.5,59.92639217640552,
To what extent did the music make you feel ,ANGRY,30MonoWAV/30MonoS1.wav,1,1,3,9,,,,,0,14,14,8,0,9,9,2,,,,,,,,,1,0.668386912002461,,,041,001,2019_May_17_1011,MusicAffectPsychophysiology2019,3.0.5,59.92639217640552,
To what extent did the music make you feel ,FRUSTRATED,30MonoWAV/30MonoS1.wav,1,1,3,9,,,,,0,14,14,8,0,10,10,3,,,,,,,,,1,1.0192770599969663,,,041,001,2019_May_17_1011,MusicAffectPsychophysiology2019,3.0.5,59.92639217640552,
To what extent did the music make you feel ,SAD,30MonoWAV/30MonoS1.wav,1,1,3,9,,,,,0,14,14,8,0,11,11,0,,,,,,,,,2,1.7679428870033007,,,041,001,2019_May_17_1011,MusicAffectPsychophysiology2019,3.0.5,59.92639217640552,
,,30MonoWAV/30MonoS1.wav,1,1,3,9,,,,,0,14,14,8,,,,,,,,,,,,,,,,,041,001,2019_May_17_1011,MusicAffectPsychophysiology2019,3.0.5,59.92639217640552,
To what extent did the music make you feel ,ANGRY,30MonoWAV/30MonoH2.wav,2,2,1,6,,,,,0,15,15,5,0,0,0,2,,,4,2.538248695025686,4,1.7534342560102232,3,3.105484736006474,1,1.2734540159872267,,,041,001,2019_May_17_1011,MusicAffectPsychophysiology2019,3.0.5,59.92639217640552,
To what extent did the music make you feel ,ANXIOUS ,30MonoWAV/30MonoH2.wav,2,2,1,6,,,,,0,15,15,5,0,1,1,1,,,,,,,,,2,1.1329652770073153,,,041,001,2019_May_17_1011,MusicAffectPsychophysiology2019,3.0.5,59.92639217640552,
To what extent did the music make you feel ,GUILTY,30MonoWAV/30MonoH2.wav,2,2,1,6,,,,,0,15,15,5,0,2,2,5,,,,,,,,,1,0.7857073129853234,,,041,001,2019_May_17_1011,MusicAffectPsychophysiology2019,3.0.5,59.92639217640552,
To what extent did the music make you feel ,ASHAMED,30MonoWAV/30MonoH2.wav,2,2,1,6,,,,,0,15,15,5,0,3,3,4,,,,,,,,,1,0.8685209550021682,,,041,001,2019_May_17_1011,MusicAffectPsychophysiology2019,3.0.5,59.92639217640552,
To what extent did the music make you feel ,ALERT,30MonoWAV/30MonoH2.wav,2,2,1,6,,,,,0,15,15,5,0,4,4,8,,,,,,,,,2,5.084622446011053,,,041,001,2019_May_17_1011,MusicAffectPsychophysiology2019,3.0.5,59.92639217640552,
To what extent did the music make you feel ,EXCITED,30MonoWAV/30MonoH2.wav,2,2,1,6,,,,,0,15,15,5,0,5,5,7,,,,,,,,,4,1.6681525130115915,,,041,001,2019_May_17_1011,MusicAffectPsychophysiology2019,3.0.5,59.92639217640552,
To what extent did the music make you feel ,SAD,30MonoWAV/30MonoH2.wav,2,2,1,6,,,,,0,15,15,5,0,6,6,0,,,,,,,,,1,1.002049672009889,,,041,001,2019_May_17_1011,MusicAffectPsychophysiology2019,3.0.5,59.92639217640552,
To what extent did the music make you feel ,TENDER,30MonoWAV/30MonoH2.wav,2,2,1,6,,,,,0,15,15,5,0,7,7,10,,,,,,,,,1,0.9526006980158854,,,041,001,2019_May_17_1011,MusicAffectPsychophysiology2019,3.0.5,59.92639217640552,
To what extent did the music make you feel ,SCARED,30MonoWAV/30MonoH2.wav,2,2,1,6,,,,,0,15,15,5,0,8,8,11,,,,,,,,,1,1.0346448399941437,,,041,001,2019_May_17_1011,MusicAffectPsychophysiology2019,3.0.5,59.92639217640552,
To what extent did the music make you feel ,FRUSTRATED,30MonoWAV/30MonoH2.wav,2,2,1,6,,,,,0,15,15,5,0,9,9,3,,,,,,,,,1,0.96845718100667,,,041,001,2019_May_17_1011,MusicAffectPsychophysiology2019,3.0.5,59.92639217640552,
To what extent did the music make you feel ,ACTIVE,30MonoWAV/30MonoH2.wav,2,2,1,6,,,,,0,15,15,5,0,10,10,9,,,,,,,,,4,1.2848451149766333,,,041,001,2019_May_17_1011,MusicAffectPsychophysiology2019,3.0.5,59.92639217640552,
To what extent did the music make you feel ,HAPPY,30MonoWAV/30MonoH2.wav,2,2,1,6,,,,,0,15,15,5,0,11,11,6,,,,,,,,,2,3.9844956890156027,,,041,001,2019_May_17_1011,MusicAffectPsychophysiology2019,3.0.5,59.92639217640552,
,,30MonoWAV/30MonoH2.wav,2,2,1,6,,,,,0,15,15,5,,,,,,,,,,,,,,,,,041,001,2019_May_17_1011,MusicAffectPsychophysiology2019,3.0.5,59.92639217640552,
To what extent did the music make you feel ,SCARED,30MonoWAV/30MonoT4.wav,2,1,4,16,,,,,1,0,16,15,0,0,0,11,,,2,4.768782030994771,4,2.7679929489968345,5,2.5354247450013645,1,1.2182711380010005,,,041,001,2019_May_17_1011,MusicAffectPsychophysiology2019,3.0.5,59.92639217640552,
To what extent did the music make you feel ,TENDER,30MonoWAV/30MonoT4.wav,2,1,4,16,,,,,1,0,16,15,0,1,1,10,,,,,,,,,1,1.218108996981755,,,041,001,2019_May_17_1011,MusicAffectPsychophysiology2019,3.0.5,59.92639217640552,
To what extent did the music make you feel ,EXCITED,30MonoWAV/30MonoT4.wav,2,1,4,16,,,,,1,0,16,15,0,2,2,7,,,,,,,,,2,1.2347428470093291,,,041,001,2019_May_17_1011,MusicAffectPsychophysiology2019,3.0.5,59.92639217640552,
To what extent did the music make you feel ,FRUSTRATED,30MonoWAV/30MonoT4.wav,2,1,4,16,,,,,1,0,16,15,0,3,3,3,,,,,,,,,1,0.6349878949986305,,,041,001,2019_May_17_1011,MusicAffectPsychophysiology2019,3.0.5,59.92639217640552,
To what extent did the music make you feel ,ALERT,30MonoWAV/30MonoT4.wav,2,1,4,16,,,,,1,0,16,15,0,4,4,8,,,,,,,,,1,0.8024944110075012,,,041,001,2019_May_17_1011,MusicAffectPsychophysiology2019,3.0.5,59.92639217640552,
To what extent did the music make you feel ,ACTIVE,30MonoWAV/30MonoT4.wav,2,1,4,16,,,,,1,0,16,15,0,5,5,9,,,,,,,,,1,1.3863405919983052,,,041,001,2019_May_17_1011,MusicAffectPsychophysiology2019,3.0.5,59.92639217640552,
To what extent did the music make you feel ,HAPPY,30MonoWAV/30MonoT4.wav,2,1,4,16,,,,,1,0,16,15,0,6,6,6,,,,,,,,,3,4.3527795859845355,,,041,001,2019_May_17_1011,MusicAffectPsychophysiology2019,3.0.5,59.92639217640552,
To what extent did the music make you feel ,ANXIOUS ,30MonoWAV/30MonoT4.wav,2,1,4,16,,,,,1,0,16,15,0,7,7,1,,,,,,,,,2,2.8176791000005323,,,041,001,2019_May_17_1011,MusicAffectPsychophysiology2019,3.0.5,59.92639217640552,
To what extent did the music make you feel ,SAD,30MonoWAV/30MonoT4.wav,2,1,4,16,,,,,1,0,16,15,0,8,8,0,,,,,,,,,1,0.6685605719976593,,,041,001,2019_May_17_1011,MusicAffectPsychophysiology2019,3.0.5,59.92639217640552,
To what extent did the music make you feel ,ASHAMED,30MonoWAV/30MonoT4.wav,2,1,4,16,,,,,1,0,16,15,0,9,9,4,,,,,,,,,1,0.7528466820076574,,,041,001,2019_May_17_1011,MusicAffectPsychophysiology2019,3.0.5,59.92639217640552,
To what extent did the music make you feel ,GUILTY,30MonoWAV/30MonoT4.wav,2,1,4,16,,,,,1,0,16,15,0,10,10,5,,,,,,,,,1,0.6686620599939488,,,041,001,2019_May_17_1011,MusicAffectPsychophysiology2019,3.0.5,59.92639217640552,
To what extent did the music make you feel ,ANGRY,30MonoWAV/30MonoT4.wav,2,1,4,16,,,,,1,0,16,15,0,11,11,2,,,,,,,,,1,2.752005571994232,,,041,001,2019_May_17_1011,MusicAffectPsychophysiology2019,3.0.5,59.92639217640552,
,,30MonoWAV/30MonoT4.wav,2,1,4,16,,,,,1,0,16,15,,,,,,,,,,,,,,,,,041,001,2019_May_17_1011,MusicAffectPsychophysiology2019,3.0.5,59.92639217640552,
To what extent did the music make you feel ,SAD,30MonoWAV/30MonoT1.wav,2,1,4,13,,,,,1,1,17,12,0,0,0,0,,,1,4.418174828984775,3,1.8511223929817788,3,2.135113608004758,1,2.019596094993176,,,041,001,2019_May_17_1011,MusicAffectPsychophysiology2019,3.0.5,59.92639217640552,
To what extent did the music make you feel ,ALERT,30MonoWAV/30MonoT1.wav,2,1,4,13,,,,,1,1,17,12,0,1,1,8,,,,,,,,,1,1.5857043180149049,,,041,001,2019_May_17_1011,MusicAffectPsychophysiology2019,3.0.5,59.92639217640552,
To what extent did the music make you feel ,ANGRY,30MonoWAV/30MonoT1.wav,2,1,4,13,,,,,1,1,17,12,0,2,2,2,,,,,,,,,1,0.8172317760181613,,,041,001,2019_May_17_1011,MusicAffectPsychophysiology2019,3.0.5,59.92639217640552,
To what extent did the music make you feel ,GUILTY,30MonoWAV/30MonoT1.wav,2,1,4,13,,,,,1,1,17,12,0,3,3,5,,,,,,,,,1,1.7517160919960588,,,041,001,2019_May_17_1011,MusicAffectPsychophysiology2019,3.0.5,59.92639217640552,
To what extent did the music make you feel ,HAPPY,30MonoWAV/30MonoT1.wav,2,1,4,13,,,,,1,1,17,12,0,4,4,6,,,,,,,,,2,2.5030501459841616,,,041,001,2019_May_17_1011,MusicAffectPsychophysiology2019,3.0.5,59.92639217640552,
To what extent did the music make you feel ,SCARED,30MonoWAV/30MonoT1.wav,2,1,4,13,,,,,1,1,17,12,0,5,5,11,,,,,,,,,1,2.0192809469881468,,,041,001,2019_May_17_1011,MusicAffectPsychophysiology2019,3.0.5,59.92639217640552,
To what extent did the music make you feel ,ACTIVE,30MonoWAV/30MonoT1.wav,2,1,4,13,,,,,1,1,17,12,0,6,6,9,,,,,,,,,1,1.80167881998932,,,041,001,2019_May_17_1011,MusicAffectPsychophysiology2019,3.0.5,59.92639217640552,
To what extent did the music make you feel ,ASHAMED,30MonoWAV/30MonoT1.wav,2,1,4,13,,,,,1,1,17,12,0,7,7,4,,,,,,,,,1,4.00120630901074,,,041,001,2019_May_17_1011,MusicAffectPsychophysiology2019,3.0.5,59.92639217640552,
To what extent did the music make you feel ,TENDER,30MonoWAV/30MonoT1.wav,2,1,4,13,,,,,1,1,17,12,0,8,8,10,,,,,,,,,1,1.5361118419968989,,,041,001,2019_May_17_1011,MusicAffectPsychophysiology2019,3.0.5,59.92639217640552,
To what extent did the music make you feel ,FRUSTRATED,30MonoWAV/30MonoT1.wav,2,1,4,13,,,,,1,1,17,12,0,9,9,3,,,,,,,,,2,4.166889513988281,,,041,001,2019_May_17_1011,MusicAffectPsychophysiology2019,3.0.5,59.92639217640552,
To what extent did the music make you feel ,EXCITED,30MonoWAV/30MonoT1.wav,2,1,4,13,,,,,1,1,17,12,0,10,10,7,,,,,,,,,1,1.7061499569972511,,,041,001,2019_May_17_1011,MusicAffectPsychophysiology2019,3.0.5,59.92639217640552,
To what extent did the music make you feel ,ANXIOUS ,30MonoWAV/30MonoT1.wav,2,1,4,13,,,,,1,1,17,12,0,11,11,1,,,,,,,,,2,6.612728084990522,,,041,001,2019_May_17_1011,MusicAffectPsychophysiology2019,3.0.5,59.92639217640552,
,,30MonoWAV/30MonoT1.wav,2,1,4,13,,,,,1,1,17,12,,,,,,,,,,,,,,,,,041,001,2019_May_17_1011,MusicAffectPsychophysiology2019,3.0.5,59.92639217640552,
To what extent did the music make you feel ,FRUSTRATED,30MonoWAV/30MonoT3.wav,2,1,4,15,,,,,1,2,18,14,0,0,0,3,,,1,2.469689538993407,5,3.667896072991425,5,1.0354411360167433,1,1.4759067999839317,,,041,001,2019_May_17_1011,MusicAffectPsychophysiology2019,3.0.5,59.92639217640552,
To what extent did the music make you feel ,SAD,30MonoWAV/30MonoT3.wav,2,1,4,15,,,,,1,2,18,14,0,1,1,0,,,,,,,,,2,1.2511641920136753,,,041,001,2019_May_17_1011,MusicAffectPsychophysiology2019,3.0.5,59.92639217640552,
To what extent did the music make you feel ,ANXIOUS ,30MonoWAV/30MonoT3.wav,2,1,4,15,,,,,1,2,18,14,0,2,2,1,,,,,,,,,2,1.351764669001568,,,041,001,2019_May_17_1011,MusicAffectPsychophysiology2019,3.0.5,59.92639217640552,
To what extent did the music make you feel ,ALERT,30MonoWAV/30MonoT3.wav,2,1,4,15,,,,,1,2,18,14,0,3,3,8,,,,,,,,,1,0.9679995280166622,,,041,001,2019_May_17_1011,MusicAffectPsychophysiology2019,3.0.5,59.92639217640552,
To what extent did the music make you feel ,HAPPY,30MonoWAV/30MonoT3.wav,2,1,4,15,,,,,1,2,18,14,0,4,4,6,,,,,,,,,3,1.2348200319975149,,,041,001,2019_May_17_1011,MusicAffectPsychophysiology2019,3.0.5,59.92639217640552,
To what extent did the music make you feel ,SCARED,30MonoWAV/30MonoT3.wav,2,1,4,15,,,,,1,2,18,14,0,5,5,11,,,,,,,,,1,0.9661873950099107,,,041,001,2019_May_17_1011,MusicAffectPsychophysiology2019,3.0.5,59.92639217640552,
To what extent did the music make you feel ,TENDER,30MonoWAV/30MonoT3.wav,2,1,4,15,,,,,1,2,18,14,0,6,6,10,,,,,,,,,4,2.419069974013837,,,041,001,2019_May_17_1011,MusicAffectPsychophysiology2019,3.0.5,59.92639217640552,
To what extent did the music make you feel ,ANGRY,30MonoWAV/30MonoT3.wav,2,1,4,15,,,,,1,2,18,14,0,7,7,2,,,,,,,,,1,0.8684493290202226,,,041,001,2019_May_17_1011,MusicAffectPsychophysiology2019,3.0.5,59.92639217640552,
To what extent did the music make you feel ,GUILTY,30MonoWAV/30MonoT3.wav,2,1,4,15,,,,,1,2,18,14,0,8,8,5,,,,,,,,,1,1.4666294660128187,,,041,001,2019_May_17_1011,MusicAffectPsychophysiology2019,3.0.5,59.92639217640552,
To what extent did the music make you feel ,ACTIVE,30MonoWAV/30MonoT3.wav,2,1,4,15,,,,,1,2,18,14,0,9,9,9,,,,,,,,,1,0.8019024000095669,,,041,001,2019_May_17_1011,MusicAffectPsychophysiology2019,3.0.5,59.92639217640552,
To what extent did the music make you feel ,EXCITED,30MonoWAV/30MonoT3.wav,2,1,4,15,,,,,1,2,18,14,0,10,10,7,,,,,,,,,1,1.1185717930202372,,,041,001,2019_May_17_1011,MusicAffectPsychophysiology2019,3.0.5,59.92639217640552,
To what extent did the music make you feel ,ASHAMED,30MonoWAV/30MonoT3.wav,2,1,4,15,,,,,1,2,18,14,0,11,11,4,,,,,,,,,1,0.8495743729872629,,,041,001,2019_May_17_1011,MusicAffectPsychophysiology2019,3.0.5,59.92639217640552,
,,30MonoWAV/30MonoT3.wav,2,1,4,15,,,,,1,2,18,14,,,,,,,,,,,,,,,,,041,001,2019_May_17_1011,MusicAffectPsychophysiology2019,3.0.5,59.92639217640552,
To what extent did the music make you feel ,EXCITED,30MonoWAV/30MonoH3.wav,2,2,1,7,,,,,1,3,19,6,0,0,0,7,,,5,2.2684537780005485,4,1.5846304770093411,4,1.4168742320034653,5,1.95110689199646,,,041,001,2019_May_17_1011,MusicAffectPsychophysiology2019,3.0.5,59.92639217640552,
To what extent did the music make you feel ,ANXIOUS ,30MonoWAV/30MonoH3.wav,2,2,1,7,,,,,1,3,19,6,0,1,1,1,,,,,,,,,1,1.5193398619885556,,,041,001,2019_May_17_1011,MusicAffectPsychophysiology2019,3.0.5,59.92639217640552,
To what extent did the music make you feel ,HAPPY,30MonoWAV/30MonoH3.wav,2,2,1,7,,,,,1,3,19,6,0,2,2,6,,,,,,,,,4,1.4511598020035308,,,041,001,2019_May_17_1011,MusicAffectPsychophysiology2019,3.0.5,59.92639217640552,
To what extent did the music make you feel ,SAD,30MonoWAV/30MonoH3.wav,2,2,1,7,,,,,1,3,19,6,0,3,3,0,,,,,,,,,1,1.0677213320159353,,,041,001,2019_May_17_1011,MusicAffectPsychophysiology2019,3.0.5,59.92639217640552,
To what extent did the music make you feel ,ALERT,30MonoWAV/30MonoH3.wav,2,2,1,7,,,,,1,3,19,6,0,4,4,8,,,,,,,,,2,1.266077984997537,,,041,001,2019_May_17_1011,MusicAffectPsychophysiology2019,3.0.5,59.92639217640552,
To what extent did the music make you feel ,TENDER,30MonoWAV/30MonoH3.wav,2,2,1,7,,,,,1,3,19,6,0,5,5,10,,,,,,,,,1,0.783819042990217,,,041,001,2019_May_17_1011,MusicAffectPsychophysiology2019,3.0.5,59.92639217640552,
To what extent did the music make you feel ,ACTIVE,30MonoWAV/30MonoH3.wav,2,2,1,7,,,,,1,3,19,6,0,6,6,9,,,,,,,,,5,1.435587520012632,,,041,001,2019_May_17_1011,MusicAffectPsychophysiology2019,3.0.5,59.92639217640552,
To what extent did the music make you feel ,GUILTY,30MonoWAV/30MonoH3.wav,2,2,1,7,,,,,1,3,19,6,0,7,7,5,,,,,,,,,1,1.0856850520067383,,,041,001,2019_May_17_1011,MusicAffectPsychophysiology2019,3.0.5,59.92639217640552,
To what extent did the music make you feel ,SCARED,30MonoWAV/30MonoH3.wav,2,2,1,7,,,,,1,3,19,6,0,8,8,11,,,,,,,,,1,0.9852666579827201,,,041,001,2019_May_17_1011,MusicAffectPsychophysiology2019,3.0.5,59.92639217640552,
To what extent did the music make you feel ,FRUSTRATED,30MonoWAV/30MonoH3.wav,2,2,1,7,,,,,1,3,19,6,0,9,9,3,,,,,,,,,1,1.0181814690004103,,,041,001,2019_May_17_1011,MusicAffectPsychophysiology2019,3.0.5,59.92639217640552,
To what extent did the music make you feel ,ASHAMED,30MonoWAV/30MonoH3.wav,2,2,1,7,,,,,1,3,19,6,0,10,10,4,,,,,,,,,1,1.2183518600068055,,,041,001,2019_May_17_1011,MusicAffectPsychophysiology2019,3.0.5,59.92639217640552,
To what extent did the music make you feel ,ANGRY,30MonoWAV/30MonoH3.wav,2,2,1,7,,,,,1,3,19,6,0,11,11,2,,,,,,,,,1,1.0512959620100446,,,041,001,2019_May_17_1011,MusicAffectPsychophysiology2019,3.0.5,59.92639217640552,
,,30MonoWAV/30MonoH3.wav,2,2,1,7,,,,,1,3,19,6,,,,,,,,,,,,,,,,,041,001,2019_May_17_1011,MusicAffectPsychophysiology2019,3.0.5,59.92639217640552,
To what extent did the music make you feel ,ACTIVE,30MonoWAV/30MonoF3.wav,1,2,2,3,,,,,1,4,20,2,0,0,0,9,,,3,4.38511541497428,1,1.118428877001861,1,2.718573726975592,4,2.619097746995976,,,041,001,2019_May_17_1011,MusicAffectPsychophysiology2019,3.0.5,59.92639217640552,
To what extent did the music make you feel ,FRUSTRATED,30MonoWAV/30MonoF3.wav,1,2,2,3,,,,,1,4,20,2,0,1,1,3,,,,,,,,,4,1.3511869159992784,,,041,001,2019_May_17_1011,MusicAffectPsychophysiology2019,3.0.5,59.92639217640552,
To what extent did the music make you feel ,TENDER,30MonoWAV/30MonoF3.wav,1,2,2,3,,,,,1,4,20,2,0,2,2,10,,,,,,,,,1,1.1849585019808728,,,041,001,2019_May_17_1011,MusicAffectPsychophysiology2019,3.0.5,59.92639217640552,
To what extent did the music make you feel ,ASHAMED,30MonoWAV/30MonoF3.wav,1,2,2,3,,,,,1,4,20,2,0,3,3,4,,,,,,,,,2,1.5861666199925821,,,041,001,2019_May_17_1011,MusicAffectPsychophysiology2019,3.0.5,59.92639217640552,
To what extent did the music make you feel ,GUILTY,30MonoWAV/30MonoF3.wav,1,2,2,3,,,,,1,4,20,2,0,4,4,5,,,,,,,,,2,1.1355123749817722,,,041,001,2019_May_17_1011,MusicAffectPsychophysiology2019,3.0.5,59.92639217640552,
To what extent did the music make you feel ,HAPPY,30MonoWAV/30MonoF3.wav,1,2,2,3,,,,,1,4,20,2,0,5,5,6,,,,,,,,,1,1.034568578004837,,,041,001,2019_May_17_1011,MusicAffectPsychophysiology2019,3.0.5,59.92639217640552,
To what extent did the music make you feel ,ANGRY,30MonoWAV/30MonoF3.wav,1,2,2,3,,,,,1,4,20,2,0,6,6,2,,,,,,,,,5,2.1519089569919743,,,041,001,2019_May_17_1011,MusicAffectPsychophysiology2019,3.0.5,59.92639217640552,
To what extent did the music make you feel ,SCARED,30MonoWAV/30MonoF3.wav,1,2,2,3,,,,,1,4,20,2,0,7,7,11,,,,,,,,,5,0.9354051050031558,,,041,001,2019_May_17_1011,MusicAffectPsychophysiology2019,3.0.5,59.92639217640552,
To what extent did the music make you feel ,ANXIOUS ,30MonoWAV/30MonoF3.wav,1,2,2,3,,,,,1,4,20,2,0,8,8,1,,,,,,,,,5,1.636609605018748,,,041,001,2019_May_17_1011,MusicAffectPsychophysiology2019,3.0.5,59.92639217640552,
To what extent did the music make you feel ,EXCITED,30MonoWAV/30MonoF3.wav,1,2,2,3,,,,,1,4,20,2,0,9,9,7,,,,,,,,,2,1.9508203869918361,,,041,001,2019_May_17_1011,MusicAffectPsychophysiology2019,3.0.5,59.92639217640552,
To what extent did the music make you feel ,ALERT,30MonoWAV/30MonoF3.wav,1,2,2,3,,,,,1,4,20,2,0,10,10,8,,,,,,,,,3,1.6684529679769184,,,041,001,2019_May_17_1011,MusicAffectPsychophysiology2019,3.0.5,59.92639217640552,
To what extent did the music make you feel ,SAD,30MonoWAV/30MonoF3.wav,1,2,2,3,,,,,1,4,20,2,0,11,11,0,,,,,,,,,1,0.7359659310022835,,,041,001,2019_May_17_1011,MusicAffectPsychophysiology2019,3.0.5,59.92639217640552,
,,30MonoWAV/30MonoF3.wav,1,2,2,3,,,,,1,4,20,2,,,,,,,,,,,,,,,,,041,001,2019_May_17_1011,MusicAffectPsychophysiology2019,3.0.5,59.92639217640552,
To what extent did the music make you feel ,ANGRY,30MonoWAV/30MonoH2.wav,2,2,1,6,,,,,1,5,21,5,0,0,0,2,,,2,5.768581564014312,2,1.6347403210238554,2,2.035322198003996,1,1.2851365189999342,,,041,001,2019_May_17_1011,MusicAffectPsychophysiology2019,3.0.5,59.92639217640552,
To what extent did the music make you feel ,EXCITED,30MonoWAV/30MonoH2.wav,2,2,1,6,,,,,1,5,21,5,0,1,1,7,,,,,,,,,3,1.6691342990088742,,,041,001,2019_May_17_1011,MusicAffectPsychophysiology2019,3.0.5,59.92639217640552,
To what extent did the music make you feel ,FRUSTRATED,30MonoWAV/30MonoH2.wav,2,2,1,6,,,,,1,5,21,5,0,2,2,3,,,,,,,,,2,1.6349116140045226,,,041,001,2019_May_17_1011,MusicAffectPsychophysiology2019,3.0.5,59.92639217640552,
To what extent did the music make you feel ,GUILTY,30MonoWAV/30MonoH2.wav,2,2,1,6,,,,,1,5,21,5,0,3,3,5,,,,,,,,,1,1.018006163998507,,,041,001,2019_May_17_1011,MusicAffectPsychophysiology2019,3.0.5,59.92639217640552,
To what extent did the music make you feel ,ASHAMED,30MonoWAV/30MonoH2.wav,2,2,1,6,,,,,1,5,21,5,0,4,4,4,,,,,,,,,1,0.8847215510031674,,,041,001,2019_May_17_1011,MusicAffectPsychophysiology2019,3.0.5,59.92639217640552,
To what extent did the music make you feel ,ANXIOUS ,30MonoWAV/30MonoH2.wav,2,2,1,6,,,,,1,5,21,5,0,5,5,1,,,,,,,,,2,1.9676457309979014,,,041,001,2019_May_17_1011,MusicAffectPsychophysiology2019,3.0.5,59.92639217640552,
To what extent did the music make you feel ,SAD,30MonoWAV/30MonoH2.wav,2,2,1,6,,,,,1,5,21,5,0,6,6,0,,,,,,,,,1,0.7848279259924311,,,041,001,2019_May_17_1011,MusicAffectPsychophysiology2019,3.0.5,59.92639217640552,
To what extent did the music make you feel ,SCARED,30MonoWAV/30MonoH2.wav,2,2,1,6,,,,,1,5,21,5,0,7,7,11,,,,,,,,,1,0.9201348370115738,,,041,001,2019_May_17_1011,MusicAffectPsychophysiology2019,3.0.5,59.92639217640552,
To what extent did the music make you feel ,HAPPY,30MonoWAV/30MonoH2.wav,2,2,1,6,,,,,1,5,21,5,0,8,8,6,,,,,,,,,2,1.7349762489902787,,,041,001,2019_May_17_1011,MusicAffectPsychophysiology2019,3.0.5,59.92639217640552,
To what extent did the music make you feel ,ACTIVE,30MonoWAV/30MonoH2.wav,2,2,1,6,,,,,1,5,21,5,0,9,9,9,,,,,,,,,4,1.6693447369907517,,,041,001,2019_May_17_1011,MusicAffectPsychophysiology2019,3.0.5,59.92639217640552,
To what extent did the music make you feel ,ALERT,30MonoWAV/30MonoH2.wav,2,2,1,6,,,,,1,5,21,5,0,10,10,8,,,,,,,,,2,3.4667565200070385,,,041,001,2019_May_17_1011,MusicAffectPsychophysiology2019,3.0.5,59.92639217640552,
To what extent did the music make you feel ,TENDER,30MonoWAV/30MonoH2.wav,2,2,1,6,,,,,1,5,21,5,0,11,11,10,,,,,,,,,1,0.718797136010835,,,041,001,2019_May_17_1011,MusicAffectPsychophysiology2019,3.0.5,59.92639217640552,
,,30MonoWAV/30MonoH2.wav,2,2,1,6,,,,,1,5,21,5,,,,,,,,,,,,,,,,,041,001,2019_May_17_1011,MusicAffectPsychophysiology2019,3.0.5,59.92639217640552,
To what extent did the music make you feel ,ACTIVE,30MonoWAV/30MonoS1.wav,1,1,3,9,,,,,1,6,22,8,0,0,0,9,,,1,3.5522830190020613,4,2.834829550003633,5,1.3685924540041015,1,1.300121381005738,,,041,001,2019_May_17_1011,MusicAffectPsychophysiology2019,3.0.5,59.92639217640552,
To what extent did the music make you feel ,EXCITED,30MonoWAV/30MonoS1.wav,1,1,3,9,,,,,1,6,22,8,0,1,1,7,,,,,,,,,1,3.2867543009924702,,,041,001,2019_May_17_1011,MusicAffectPsychophysiology2019,3.0.5,59.92639217640552,
To what extent did the music make you feel ,SAD,30MonoWAV/30MonoS1.wav,1,1,3,9,,,,,1,6,22,8,0,2,2,0,,,,,,,,,2,1.7734787469962612,,,041,001,2019_May_17_1011,MusicAffectPsychophysiology2019,3.0.5,59.92639217640552,
To what extent did the music make you feel ,TENDER,30MonoWAV/30MonoS1.wav,1,1,3,9,,,,,1,6,22,8,0,3,3,10,,,,,,,,,2,1.970790154999122,,,041,001,2019_May_17_1011,MusicAffectPsychophysiology2019,3.0.5,59.92639217640552,
To what extent did the music make you feel ,SCARED,30MonoWAV/30MonoS1.wav,1,1,3,9,,,,,1,6,22,8,0,4,4,11,,,,,,,,,1,0.8190889820107259,,,041,001,2019_May_17_1011,MusicAffectPsychophysiology2019,3.0.5,59.92639217640552,
To what extent did the music make you feel ,HAPPY,30MonoWAV/30MonoS1.wav,1,1,3,9,,,,,1,6,22,8,0,5,5,6,,,,,,,,,2,2.437557083001593,,,041,001,2019_May_17_1011,MusicAffectPsychophysiology2019,3.0.5,59.92639217640552,
To what extent did the music make you feel ,GUILTY,30MonoWAV/30MonoS1.wav,1,1,3,9,,,,,1,6,22,8,0,6,6,5,,,,,,,,,1,0.9859468890062999,,,041,001,2019_May_17_1011,MusicAffectPsychophysiology2019,3.0.5,59.92639217640552,
To what extent did the music make you feel ,ANXIOUS ,30MonoWAV/30MonoS1.wav,1,1,3,9,,,,,1,6,22,8,0,7,7,1,,,,,,,,,2,1.6012255520035978,,,041,001,2019_May_17_1011,MusicAffectPsychophysiology2019,3.0.5,59.92639217640552,
To what extent did the music make you feel ,ANGRY,30MonoWAV/30MonoS1.wav,1,1,3,9,,,,,1,6,22,8,0,8,8,2,,,,,,,,,1,0.6179089480137918,,,041,001,2019_May_17_1011,MusicAffectPsychophysiology2019,3.0.5,59.92639217640552,
To what extent did the music make you feel ,ASHAMED,30MonoWAV/30MonoS1.wav,1,1,3,9,,,,,1,6,22,8,0,9,9,4,,,,,,,,,1,0.8188029569864739,,,041,001,2019_May_17_1011,MusicAffectPsychophysiology2019,3.0.5,59.92639217640552,
To what extent did the music make you feel ,ALERT,30MonoWAV/30MonoS1.wav,1,1,3,9,,,,,1,6,22,8,0,10,10,8,,,,,,,,,1,0.7337878989928868,,,041,001,2019_May_17_1011,MusicAffectPsychophysiology2019,3.0.5,59.92639217640552,
To what extent did the music make you feel ,FRUSTRATED,30MonoWAV/30MonoS1.wav,1,1,3,9,,,,,1,6,22,8,0,11,11,3,,,,,,,,,1,0.9185033679823391,,,041,001,2019_May_17_1011,MusicAffectPsychophysiology2019,3.0.5,59.92639217640552,
,,30MonoWAV/30MonoS1.wav,1,1,3,9,,,,,1,6,22,8,,,,,,,,,,,,,,,,,041,001,2019_May_17_1011,MusicAffectPsychophysiology2019,3.0.5,59.92639217640552,
To what extent did the music make you feel ,ASHAMED,30MonoWAV/30MonoT2.wav,2,1,4,14,,,,,1,7,23,13,0,0,0,4,,,4,3.285680847009644,4,1.5186870739853475,3,2.2360002229979727,1,1.551055498974165,,,041,001,2019_May_17_1011,MusicAffectPsychophysiology2019,3.0.5,59.92639217640552,
To what extent did the music make you feel ,ANGRY,30MonoWAV/30MonoT2.wav,2,1,4,14,,,,,1,7,23,13,0,1,1,2,,,,,,,,,1,0.6670865490159485,,,041,001,2019_May_17_1011,MusicAffectPsychophysiology2019,3.0.5,59.92639217640552,
To what extent did the music make you feel ,SCARED,30MonoWAV/30MonoT2.wav,2,1,4,14,,,,,1,7,23,13,0,2,2,11,,,,,,,,,1,0.8525945840228815,,,041,001,2019_May_17_1011,MusicAffectPsychophysiology2019,3.0.5,59.92639217640552,
To what extent did the music make you feel ,GUILTY,30MonoWAV/30MonoT2.wav,2,1,4,14,,,,,1,7,23,13,0,3,3,5,,,,,,,,,1,0.9891267129860353,,,041,001,2019_May_17_1011,MusicAffectPsychophysiology2019,3.0.5,59.92639217640552,
To what extent did the music make you feel ,TENDER,30MonoWAV/30MonoT2.wav,2,1,4,14,,,,,1,7,23,13,0,4,4,10,,,,,,,,,1,0.9026782349974383,,,041,001,2019_May_17_1011,MusicAffectPsychophysiology2019,3.0.5,59.92639217640552,
To what extent did the music make you feel ,ALERT,30MonoWAV/30MonoT2.wav,2,1,4,14,,,,,1,7,23,13,0,5,5,8,,,,,,,,,1,1.3024483779736329,,,041,001,2019_May_17_1011,MusicAffectPsychophysiology2019,3.0.5,59.92639217640552,
To what extent did the music make you feel ,HAPPY,30MonoWAV/30MonoT2.wav,2,1,4,14,,,,,1,7,23,13,0,6,6,6,,,,,,,,,3,1.8713754059863277,,,041,001,2019_May_17_1011,MusicAffectPsychophysiology2019,3.0.5,59.92639217640552,
To what extent did the music make you feel ,SAD,30MonoWAV/30MonoT2.wav,2,1,4,14,,,,,1,7,23,13,0,7,7,0,,,,,,,,,2,2.554799556004582,,,041,001,2019_May_17_1011,MusicAffectPsychophysiology2019,3.0.5,59.92639217640552,
To what extent did the music make you feel ,FRUSTRATED,30MonoWAV/30MonoT2.wav,2,1,4,14,,,,,1,7,23,13,0,8,8,3,,,,,,,,,1,1.0231221459980588,,,041,001,2019_May_17_1011,MusicAffectPsychophysiology2019,3.0.5,59.92639217640552,
To what extent did the music make you feel ,ACTIVE,30MonoWAV/30MonoT2.wav,2,1,4,14,,,,,1,7,23,13,0,9,9,9,,,,,,,,,3,2.267886018002173,,,041,001,2019_May_17_1011,MusicAffectPsychophysiology2019,3.0.5,59.92639217640552,
To what extent did the music make you feel ,ANXIOUS ,30MonoWAV/30MonoT2.wav,2,1,4,14,,,,,1,7,23,13,0,10,10,1,,,,,,,,,1,1.218786003999412,,,041,001,2019_May_17_1011,MusicAffectPsychophysiology2019,3.0.5,59.92639217640552,
To what extent did the music make you feel ,EXCITED,30MonoWAV/30MonoT2.wav,2,1,4,14,,,,,1,7,23,13,0,11,11,7,,,,,,,,,3,1.800448066991521,,,041,001,2019_May_17_1011,MusicAffectPsychophysiology2019,3.0.5,59.92639217640552,
,,30MonoWAV/30MonoT2.wav,2,1,4,14,,,,,1,7,23,13,,,,,,,,,,,,,,,,,041,001,2019_May_17_1011,MusicAffectPsychophysiology2019,3.0.5,59.92639217640552,
To what extent did the music make you feel ,SCARED,30MonoWAV/30MonoH1.wav,2,2,1,5,,,,,1,8,24,4,0,0,0,11,,,4,2.635430233000079,4,1.2693374610098545,3,2.2003373659972567,1,1.6193636180250905,,,041,001,2019_May_17_1011,MusicAffectPsychophysiology2019,3.0.5,59.92639217640552,
To what extent did the music make you feel ,FRUSTRATED,30MonoWAV/30MonoH1.wav,2,2,1,5,,,,,1,8,24,4,0,1,1,3,,,,,,,,,1,1.6516731840092689,,,041,001,2019_May_17_1011,MusicAffectPsychophysiology2019,3.0.5,59.92639217640552,
To what extent did the music make you feel ,HAPPY,30MonoWAV/30MonoH1.wav,2,2,1,5,,,,,1,8,24,4,0,2,2,6,,,,,,,,,3,2.4841705779836047,,,041,001,2019_May_17_1011,MusicAffectPsychophysiology2019,3.0.5,59.92639217640552,
To what extent did the music make you feel ,SAD,30MonoWAV/30MonoH1.wav,2,2,1,5,,,,,1,8,24,4,0,3,3,0,,,,,,,,,1,1.1674743960029446,,,041,001,2019_May_17_1011,MusicAffectPsychophysiology2019,3.0.5,59.92639217640552,
To what extent did the music make you feel ,TENDER,30MonoWAV/30MonoH1.wav,2,2,1,5,,,,,1,8,24,4,0,4,4,10,,,,,,,,,1,1.1178444370161742,,,041,001,2019_May_17_1011,MusicAffectPsychophysiology2019,3.0.5,59.92639217640552,
To what extent did the music make you feel ,EXCITED,30MonoWAV/30MonoH1.wav,2,2,1,5,,,,,1,8,24,4,0,5,5,7,,,,,,,,,4,2.602193046011962,,,041,001,2019_May_17_1011,MusicAffectPsychophysiology2019,3.0.5,59.92639217640552,
To what extent did the music make you feel ,ACTIVE,30MonoWAV/30MonoH1.wav,2,2,1,5,,,,,1,8,24,4,0,6,6,9,,,,,,,,,5,1.5847494620247744,,,041,001,2019_May_17_1011,MusicAffectPsychophysiology2019,3.0.5,59.92639217640552,
To what extent did the music make you feel ,ASHAMED,30MonoWAV/30MonoH1.wav,2,2,1,5,,,,,1,8,24,4,0,7,7,4,,,,,,,,,1,1.250374364986783,,,041,001,2019_May_17_1011,MusicAffectPsychophysiology2019,3.0.5,59.92639217640552,
To what extent did the music make you feel ,ANGRY,30MonoWAV/30MonoH1.wav,2,2,1,5,,,,,1,8,24,4,0,8,8,2,,,,,,,,,1,0.6691547769878525,,,041,001,2019_May_17_1011,MusicAffectPsychophysiology2019,3.0.5,59.92639217640552,
To what extent did the music make you feel ,ALERT,30MonoWAV/30MonoH1.wav,2,2,1,5,,,,,1,8,24,4,0,9,9,8,,,,,,,,,1,0.6529446479980834,,,041,001,2019_May_17_1011,MusicAffectPsychophysiology2019,3.0.5,59.92639217640552,
To what extent did the music make you feel ,GUILTY,30MonoWAV/30MonoH1.wav,2,2,1,5,,,,,1,8,24,4,0,10,10,5,,,,,,,,,1,0.6514849590021186,,,041,001,2019_May_17_1011,MusicAffectPsychophysiology2019,3.0.5,59.92639217640552,
To what extent did the music make you feel ,ANXIOUS ,30MonoWAV/30MonoH1.wav,2,2,1,5,,,,,1,8,24,4,0,11,11,1,,,,,,,,,1,1.0192894439969677,,,041,001,2019_May_17_1011,MusicAffectPsychophysiology2019,3.0.5,59.92639217640552,
,,30MonoWAV/30MonoH1.wav,2,2,1,5,,,,,1,8,24,4,,,,,,,,,,,,,,,,,041,001,2019_May_17_1011,MusicAffectPsychophysiology2019,3.0.5,59.92639217640552,
To what extent did the music make you feel ,GUILTY,30MonoWAV/30MonoF2.wav,1,2,2,2,,,,,1,9,25,1,0,0,0,5,,,2,3.034871176001616,1,0.9349800230120309,1,0.969201483996585,3,2.1843933219788596,,,041,001,2019_May_17_1011,MusicAffectPsychophysiology2019,3.0.5,59.92639217640552,
To what extent did the music make you feel ,SCARED,30MonoWAV/30MonoF2.wav,1,2,2,2,,,,,1,9,25,1,0,1,1,11,,,,,,,,,5,1.5859510919835884,,,041,001,2019_May_17_1011,MusicAffectPsychophysiology2019,3.0.5,59.92639217640552,
To what extent did the music make you feel ,FRUSTRATED,30MonoWAV/30MonoF2.wav,1,2,2,2,,,,,1,9,25,1,0,2,2,3,,,,,,,,,4,1.1845795990084298,,,041,001,2019_May_17_1011,MusicAffectPsychophysiology2019,3.0.5,59.92639217640552,
To what extent did the music make you feel ,EXCITED,30MonoWAV/30MonoF2.wav,1,2,2,2,,,,,1,9,25,1,0,3,3,7,,,,,,,,,2,1.435142578004161,,,041,001,2019_May_17_1011,MusicAffectPsychophysiology2019,3.0.5,59.92639217640552,
To what extent did the music make you feel ,SAD,30MonoWAV/30MonoF2.wav,1,2,2,2,,,,,1,9,25,1,0,4,4,0,,,,,,,,,1,1.41893508497742,,,041,001,2019_May_17_1011,MusicAffectPsychophysiology2019,3.0.5,59.92639217640552,
To what extent did the music make you feel ,ACTIVE,30MonoWAV/30MonoF2.wav,1,2,2,2,,,,,1,9,25,1,0,5,5,9,,,,,,,,,3,1.1499634069914464,,,041,001,2019_May_17_1011,MusicAffectPsychophysiology2019,3.0.5,59.92639217640552,
To what extent did the music make you feel ,ASHAMED,30MonoWAV/30MonoF2.wav,1,2,2,2,,,,,1,9,25,1,0,6,6,4,,,,,,,,,2,1.634901113982778,,,041,001,2019_May_17_1011,MusicAffectPsychophysiology2019,3.0.5,59.92639217640552,
To what extent did the music make you feel ,ALERT,30MonoWAV/30MonoF2.wav,1,2,2,2,,,,,1,9,25,1,0,7,7,8,,,,,,,,,5,1.2184255740139633,,,041,001,2019_May_17_1011,MusicAffectPsychophysiology2019,3.0.5,59.92639217640552,
To what extent did the music make you feel ,HAPPY,30MonoWAV/30MonoF2.wav,1,2,2,2,,,,,1,9,25,1,0,8,8,6,,,,,,,,,1,1.0019878489838447,,,041,001,2019_May_17_1011,MusicAffectPsychophysiology2019,3.0.5,59.92639217640552,
To what extent did the music make you feel ,ANXIOUS ,30MonoWAV/30MonoF2.wav,1,2,2,2,,,,,1,9,25,1,0,9,9,1,,,,,,,,,5,1.285669725999469,,,041,001,2019_May_17_1011,MusicAffectPsychophysiology2019,3.0.5,59.92639217640552,
To what extent did the music make you feel ,TENDER,30MonoWAV/30MonoF2.wav,1,2,2,2,,,,,1,9,25,1,0,10,10,10,,,,,,,,,1,1.1510891670186538,,,041,001,2019_May_17_1011,MusicAffectPsychophysiology2019,3.0.5,59.92639217640552,
To what extent did the music make you feel ,ANGRY,30MonoWAV/30MonoF2.wav,1,2,2,2,,,,,1,9,25,1,0,11,11,2,,,,,,,,,3,1.368146857013926,,,041,001,2019_May_17_1011,MusicAffectPsychophysiology2019,3.0.5,59.92639217640552,
,,30MonoWAV/30MonoF2.wav,1,2,2,2,,,,,1,9,25,1,,,,,,,,,,,,,,,,,041,001,2019_May_17_1011,MusicAffectPsychophysiology2019,3.0.5,59.92639217640552,
To what extent did the music make you feel ,GUILTY,30MonoWAV/30MonoS3.wav,1,1,3,11,,,,,1,10,26,10,0,0,0,5,,,1,2.5829618440184277,2,2.6348649929859675,2,1.4187994149979204,1,2.5344902490032837,,,041,001,2019_May_17_1011,MusicAffectPsychophysiology2019,3.0.5,59.92639217640552,
To what extent did the music make you feel ,SAD,30MonoWAV/30MonoS3.wav,1,1,3,11,,,,,1,10,26,10,0,1,1,0,,,,,,,,,3,2.3856749340193346,,,041,001,2019_May_17_1011,MusicAffectPsychophysiology2019,3.0.5,59.92639217640552,
To what extent did the music make you feel ,FRUSTRATED,30MonoWAV/30MonoS3.wav,1,1,3,11,,,,,1,10,26,10,0,2,2,3,,,,,,,,,2,1.2187278280034661,,,041,001,2019_May_17_1011,MusicAffectPsychophysiology2019,3.0.5,59.92639217640552,
To what extent did the music make you feel ,SCARED,30MonoWAV/30MonoS3.wav,1,1,3,11,,,,,1,10,26,10,0,3,3,11,,,,,,,,,2,1.4521675260039046,,,041,001,2019_May_17_1011,MusicAffectPsychophysiology2019,3.0.5,59.92639217640552,
To what extent did the music make you feel ,ALERT,30MonoWAV/30MonoS3.wav,1,1,3,11,,,,,1,10,26,10,0,4,4,8,,,,,,,,,2,1.651524701010203,,,041,001,2019_May_17_1011,MusicAffectPsychophysiology2019,3.0.5,59.92639217640552,
To what extent did the music make you feel ,TENDER,30MonoWAV/30MonoS3.wav,1,1,3,11,,,,,1,10,26,10,0,5,5,10,,,,,,,,,2,2.9859692069876473,,,041,001,2019_May_17_1011,MusicAffectPsychophysiology2019,3.0.5,59.92639217640552,
To what extent did the music make you feel ,HAPPY,30MonoWAV/30MonoS3.wav,1,1,3,11,,,,,1,10,26,10,0,6,6,6,,,,,,,,,1,0.6527176969975699,,,041,001,2019_May_17_1011,MusicAffectPsychophysiology2019,3.0.5,59.92639217640552,
To what extent did the music make you feel ,ASHAMED,30MonoWAV/30MonoS3.wav,1,1,3,11,,,,,1,10,26,10,0,7,7,4,,,,,,,,,1,1.3696498879871797,,,041,001,2019_May_17_1011,MusicAffectPsychophysiology2019,3.0.5,59.92639217640552,
To what extent did the music make you feel ,ACTIVE,30MonoWAV/30MonoS3.wav,1,1,3,11,,,,,1,10,26,10,0,8,8,9,,,,,,,,,1,1.3341755000001285,,,041,001,2019_May_17_1011,MusicAffectPsychophysiology2019,3.0.5,59.92639217640552,
To what extent did the music make you feel ,ANXIOUS ,30MonoWAV/30MonoS3.wav,1,1,3,11,,,,,1,10,26,10,0,9,9,1,,,,,,,,,4,1.5534812140103895,,,041,001,2019_May_17_1011,MusicAffectPsychophysiology2019,3.0.5,59.92639217640552,
To what extent did the music make you feel ,EXCITED,30MonoWAV/30MonoS3.wav,1,1,3,11,,,,,1,10,26,10,0,10,10,7,,,,,,,,,1,3.068568963004509,,,041,001,2019_May_17_1011,MusicAffectPsychophysiology2019,3.0.5,59.92639217640552,
To what extent did the music make you feel ,ANGRY,30MonoWAV/30MonoS3.wav,1,1,3,11,,,,,1,10,26,10,0,11,11,2,,,,,,,,,1,1.5504012710007373,,,041,001,2019_May_17_1011,MusicAffectPsychophysiology2019,3.0.5,59.92639217640552,
,,30MonoWAV/30MonoS3.wav,1,1,3,11,,,,,1,10,26,10,,,,,,,,,,,,,,,,,041,001,2019_May_17_1011,MusicAffectPsychophysiology2019,3.0.5,59.92639217640552,
To what extent did the music make you feel ,GUILTY,30MonoWAV/30MonoF1.wav,1,2,2,1,,,,,1,11,27,0,0,0,0,5,,,3,3.4188723039987963,1,1.0182493969914503,1,1.0187031340028625,3,2.006271360005485,,,041,001,2019_May_17_1011,MusicAffectPsychophysiology2019,3.0.5,59.92639217640552,
To what extent did the music make you feel ,ANXIOUS ,30MonoWAV/30MonoF1.wav,1,2,2,1,,,,,1,11,27,0,0,1,1,1,,,,,,,,,5,1.3363504350127187,,,041,001,2019_May_17_1011,MusicAffectPsychophysiology2019,3.0.5,59.92639217640552,
To what extent did the music make you feel ,ACTIVE,30MonoWAV/30MonoF1.wav,1,2,2,1,,,,,1,11,27,0,0,2,2,9,,,,,,,,,3,1.2518248349952046,,,041,001,2019_May_17_1011,MusicAffectPsychophysiology2019,3.0.5,59.92639217640552,
To what extent did the music make you feel ,ASHAMED,30MonoWAV/30MonoF1.wav,1,2,2,1,,,,,1,11,27,0,0,3,3,4,,,,,,,,,3,1.3206089759769384,,,041,001,2019_May_17_1011,MusicAffectPsychophysiology2019,3.0.5,59.92639217640552,
To what extent did the music make you feel ,TENDER,30MonoWAV/30MonoF1.wav,1,2,2,1,,,,,1,11,27,0,0,4,4,10,,,,,,,,,1,1.0699444010097068,,,041,001,2019_May_17_1011,MusicAffectPsychophysiology2019,3.0.5,59.92639217640552,
To what extent did the music make you feel ,SCARED,30MonoWAV/30MonoF1.wav,1,2,2,1,,,,,1,11,27,0,0,5,5,11,,,,,,,,,5,1.1864798559981864,,,041,001,2019_May_17_1011,MusicAffectPsychophysiology2019,3.0.5,59.92639217640552,
To what extent did the music make you feel ,ALERT,30MonoWAV/30MonoF1.wav,1,2,2,1,,,,,1,11,27,0,0,6,6,8,,,,,,,,,5,1.0559001689834986,,,041,001,2019_May_17_1011,MusicAffectPsychophysiology2019,3.0.5,59.92639217640552,
To what extent did the music make you feel ,SAD,30MonoWAV/30MonoF1.wav,1,2,2,1,,,,,1,11,27,0,0,7,7,0,,,,,,,,,1,2.667964585009031,,,041,001,2019_May_17_1011,MusicAffectPsychophysiology2019,3.0.5,59.92639217640552,
To what extent did the music make you feel ,HAPPY,30MonoWAV/30MonoF1.wav,1,2,2,1,,,,,1,11,27,0,0,8,8,6,,,,,,,,,1,1.235851465986343,,,041,001,2019_May_17_1011,MusicAffectPsychophysiology2019,3.0.5,59.92639217640552,
To what extent did the music make you feel ,FRUSTRATED,30MonoWAV/30MonoF1.wav,1,2,2,1,,,,,1,11,27,0,0,9,9,3,,,,,,,,,5,1.1521426970139146,,,041,001,2019_May_17_1011,MusicAffectPsychophysiology2019,3.0.5,59.92639217640552,
To what extent did the music make you feel ,EXCITED,30MonoWAV/30MonoF1.wav,1,2,2,1,,,,,1,11,27,0,0,10,10,7,,,,,,,,,3,3.25223390100291,,,041,001,2019_May_17_1011,MusicAffectPsychophysiology2019,3.0.5,59.92639217640552,
To what extent did the music make you feel ,ANGRY,30MonoWAV/30MonoF1.wav,1,2,2,1,,,,,1,11,27,0,0,11,11,2,,,,,,,,,4,1.9176588299742434,,,041,001,2019_May_17_1011,MusicAffectPsychophysiology2019,3.0.5,59.92639217640552,
,,30MonoWAV/30MonoF1.wav,1,2,2,1,,,,,1,11,27,0,,,,,,,,,,,,,,,,,041,001,2019_May_17_1011,MusicAffectPsychophysiology2019,3.0.5,59.92639217640552,
To what extent did the music make you feel ,ANXIOUS ,30MonoWAV/30MonoS2.wav,1,1,3,10,,,,,1,12,28,9,0,0,0,1,,,1,2.284766494994983,2,1.6016293089778628,2,1.6683695089886896,2,3.1920698790054303,,,041,001,2019_May_17_1011,MusicAffectPsychophysiology2019,3.0.5,59.92639217640552,
To what extent did the music make you feel ,ACTIVE,30MonoWAV/30MonoS2.wav,1,1,3,10,,,,,1,12,28,9,0,1,1,9,,,,,,,,,1,1.035968236014014,,,041,001,2019_May_17_1011,MusicAffectPsychophysiology2019,3.0.5,59.92639217640552,
To what extent did the music make you feel ,SCARED,30MonoWAV/30MonoS2.wav,1,1,3,10,,,,,1,12,28,9,0,2,2,11,,,,,,,,,1,1.0532481230038684,,,041,001,2019_May_17_1011,MusicAffectPsychophysiology2019,3.0.5,59.92639217640552,
To what extent did the music make you feel ,HAPPY,30MonoWAV/30MonoS2.wav,1,1,3,10,,,,,1,12,28,9,0,3,3,6,,,,,,,,,1,1.1192387769988272,,,041,001,2019_May_17_1011,MusicAffectPsychophysiology2019,3.0.5,59.92639217640552,
To what extent did the music make you feel ,ALERT,30MonoWAV/30MonoS2.wav,1,1,3,10,,,,,1,12,28,9,0,4,4,8,,,,,,,,,1,0.8710838620027062,,,041,001,2019_May_17_1011,MusicAffectPsychophysiology2019,3.0.5,59.92639217640552,
To what extent did the music make you feel ,EXCITED,30MonoWAV/30MonoS2.wav,1,1,3,10,,,,,1,12,28,9,0,5,5,7,,,,,,,,,1,2.1682323639979586,,,041,001,2019_May_17_1011,MusicAffectPsychophysiology2019,3.0.5,59.92639217640552,
To what extent did the music make you feel ,GUILTY,30MonoWAV/30MonoS2.wav,1,1,3,10,,,,,1,12,28,9,0,6,6,5,,,,,,,,,1,1.1705462780082598,,,041,001,2019_May_17_1011,MusicAffectPsychophysiology2019,3.0.5,59.92639217640552,
To what extent did the music make you feel ,SAD,30MonoWAV/30MonoS2.wav,1,1,3,10,,,,,1,12,28,9,0,7,7,0,,,,,,,,,2,3.3504010959877633,,,041,001,2019_May_17_1011,MusicAffectPsychophysiology2019,3.0.5,59.92639217640552,
To what extent did the music make you feel ,FRUSTRATED,30MonoWAV/30MonoS2.wav,1,1,3,10,,,,,1,12,28,9,0,8,8,3,,,,,,,,,1,1.0501512509945314,,,041,001,2019_May_17_1011,MusicAffectPsychophysiology2019,3.0.5,59.92639217640552,
To what extent did the music make you feel ,TENDER,30MonoWAV/30MonoS2.wav,1,1,3,10,,,,,1,12,28,9,0,9,9,10,,,,,,,,,2,2.251730002986733,,,041,001,2019_May_17_1011,MusicAffectPsychophysiology2019,3.0.5,59.92639217640552,
To what extent did the music make you feel ,ASHAMED,30MonoWAV/30MonoS2.wav,1,1,3,10,,,,,1,12,28,9,0,10,10,4,,,,,,,,,1,0.8678377239848487,,,041,001,2019_May_17_1011,MusicAffectPsychophysiology2019,3.0.5,59.92639217640552,
To what extent did the music make you feel ,ANGRY,30MonoWAV/30MonoS2.wav,1,1,3,10,,,,,1,12,28,9,0,11,11,2,,,,,,,,,1,0.6856828890158795,,,041,001,2019_May_17_1011,MusicAffectPsychophysiology2019,3.0.5,59.92639217640552,
,,30MonoWAV/30MonoS2.wav,1,1,3,10,,,,,1,12,28,9,,,,,,,,,,,,,,,,,041,001,2019_May_17_1011,MusicAffectPsychophysiology2019,3.0.5,59.92639217640552,
To what extent did the music make you feel ,ACTIVE,30MonoWAV/30MonoH4.wav,2,2,1,8,,,,,1,13,29,7,0,0,0,9,,,4,2.3868662329914514,4,1.2843474440160207,3,2.251657175977016,5,1.3681641269940883,,,041,001,2019_May_17_1011,MusicAffectPsychophysiology2019,3.0.5,59.92639217640552,
To what extent did the music make you feel ,FRUSTRATED,30MonoWAV/30MonoH4.wav,2,2,1,8,,,,,1,13,29,7,0,1,1,3,,,,,,,,,1,1.084486530016875,,,041,001,2019_May_17_1011,MusicAffectPsychophysiology2019,3.0.5,59.92639217640552,
To what extent did the music make you feel ,ASHAMED,30MonoWAV/30MonoH4.wav,2,2,1,8,,,,,1,13,29,7,0,2,2,4,,,,,,,,,1,1.018095937994076,,,041,001,2019_May_17_1011,MusicAffectPsychophysiology2019,3.0.5,59.92639217640552,
To what extent did the music make you feel ,ANXIOUS ,30MonoWAV/30MonoH4.wav,2,2,1,8,,,,,1,13,29,7,0,3,3,1,,,,,,,,,1,1.2029933869780507,,,041,001,2019_May_17_1011,MusicAffectPsychophysiology2019,3.0.5,59.92639217640552,
To what extent did the music make you feel ,GUILTY,30MonoWAV/30MonoH4.wav,2,2,1,8,,,,,1,13,29,7,0,4,4,5,,,,,,,,,1,0.9017115850001574,,,041,001,2019_May_17_1011,MusicAffectPsychophysiology2019,3.0.5,59.92639217640552,
To what extent did the music make you feel ,TENDER,30MonoWAV/30MonoH4.wav,2,2,1,8,,,,,1,13,29,7,0,5,5,10,,,,,,,,,1,0.8854094439884648,,,041,001,2019_May_17_1011,MusicAffectPsychophysiology2019,3.0.5,59.92639217640552,
To what extent did the music make you feel ,ANGRY,30MonoWAV/30MonoH4.wav,2,2,1,8,,,,,1,13,29,7,0,6,6,2,,,,,,,,,1,1.0014404179819394,,,041,001,2019_May_17_1011,MusicAffectPsychophysiology2019,3.0.5,59.92639217640552,
To what extent did the music make you feel ,ALERT,30MonoWAV/30MonoH4.wav,2,2,1,8,,,,,1,13,29,7,0,7,7,8,,,,,,,,,1,1.0198569319909438,,,041,001,2019_May_17_1011,MusicAffectPsychophysiology2019,3.0.5,59.92639217640552,
To what extent did the music make you feel ,SAD,30MonoWAV/30MonoH4.wav,2,2,1,8,,,,,1,13,29,7,0,8,8,0,,,,,,,,,1,0.9349655969999731,,,041,001,2019_May_17_1011,MusicAffectPsychophysiology2019,3.0.5,59.92639217640552,
To what extent did the music make you feel ,EXCITED,30MonoWAV/30MonoH4.wav,2,2,1,8,,,,,1,13,29,7,0,9,9,7,,,,,,,,,5,1.9033521169913001,,,041,001,2019_May_17_1011,MusicAffectPsychophysiology2019,3.0.5,59.92639217640552,
To what extent did the music make you feel ,HAPPY,30MonoWAV/30MonoH4.wav,2,2,1,8,,,,,1,13,29,7,0,10,10,6,,,,,,,,,4,1.0844338859897107,,,041,001,2019_May_17_1011,MusicAffectPsychophysiology2019,3.0.5,59.92639217640552,
To what extent did the music make you feel ,SCARED,30MonoWAV/30MonoH4.wav,2,2,1,8,,,,,1,13,29,7,0,11,11,11,,,,,,,,,1,1.0514871779887471,,,041,001,2019_May_17_1011,MusicAffectPsychophysiology2019,3.0.5,59.92639217640552,
,,30MonoWAV/30MonoH4.wav,2,2,1,8,,,,,1,13,29,7,,,,,,,,,,,,,,,,,041,001,2019_May_17_1011,MusicAffectPsychophysiology2019,3.0.5,59.92639217640552,
To what extent did the music make you feel ,SAD,30MonoWAV/30MonoS4.wav,1,1,3,12,,,,,1,14,30,11,0,0,0,0,,,1,2.451876750012161,1,1.967928574013058,2,1.403024439001456,5,1.6523606329865288,,,041,001,2019_May_17_1011,MusicAffectPsychophysiology2019,3.0.5,59.92639217640552,
To what extent did the music make you feel ,ALERT,30MonoWAV/30MonoS4.wav,1,1,3,12,,,,,1,14,30,11,0,1,1,8,,,,,,,,,1,1.624102926987689,,,041,001,2019_May_17_1011,MusicAffectPsychophysiology2019,3.0.5,59.92639217640552,
To what extent did the music make you feel ,HAPPY,30MonoWAV/30MonoS4.wav,1,1,3,12,,,,,1,14,30,11,0,2,2,6,,,,,,,,,1,1.0533953139965888,,,041,001,2019_May_17_1011,MusicAffectPsychophysiology2019,3.0.5,59.92639217640552,
To what extent did the music make you feel ,ACTIVE,30MonoWAV/30MonoS4.wav,1,1,3,12,,,,,1,14,30,11,0,3,3,9,,,,,,,,,1,0.8011929750209674,,,041,001,2019_May_17_1011,MusicAffectPsychophysiology2019,3.0.5,59.92639217640552,
To what extent did the music make you feel ,FRUSTRATED,30MonoWAV/30MonoS4.wav,1,1,3,12,,,,,1,14,30,11,0,4,4,3,,,,,,,,,2,1.470121856982587,,,041,001,2019_May_17_1011,MusicAffectPsychophysiology2019,3.0.5,59.92639217640552,
To what extent did the music make you feel ,GUILTY,30MonoWAV/30MonoS4.wav,1,1,3,12,,,,,1,14,30,11,0,5,5,5,,,,,,,,,2,2.204730697994819,,,041,001,2019_May_17_1011,MusicAffectPsychophysiology2019,3.0.5,59.92639217640552,
To what extent did the music make you feel ,ANGRY,30MonoWAV/30MonoS4.wav,1,1,3,12,,,,,1,14,30,11,0,6,6,2,,,,,,,,,1,0.7894938900135458,,,041,001,2019_May_17_1011,MusicAffectPsychophysiology2019,3.0.5,59.92639217640552,
To what extent did the music make you feel ,SCARED,30MonoWAV/30MonoS4.wav,1,1,3,12,,,,,1,14,30,11,0,7,7,11,,,,,,,,,1,2.851329213997815,,,041,001,2019_May_17_1011,MusicAffectPsychophysiology2019,3.0.5,59.92639217640552,
To what extent did the music make you feel ,ANXIOUS ,30MonoWAV/30MonoS4.wav,1,1,3,12,,,,,1,14,30,11,0,8,8,1,,,,,,,,,4,1.6355935030151159,,,041,001,2019_May_17_1011,MusicAffectPsychophysiology2019,3.0.5,59.92639217640552,
To what extent did the music make you feel ,ASHAMED,30MonoWAV/30MonoS4.wav,1,1,3,12,,,,,1,14,30,11,0,9,9,4,,,,,,,,,2,2.185508638009196,,,041,001,2019_May_17_1011,MusicAffectPsychophysiology2019,3.0.5,59.92639217640552,
To what extent did the music make you feel ,EXCITED,30MonoWAV/30MonoS4.wav,1,1,3,12,,,,,1,14,30,11,0,10,10,7,,,,,,,,,1,0.9503384970012121,,,041,001,2019_May_17_1011,MusicAffectPsychophysiology2019,3.0.5,59.92639217640552,
To what extent did the music make you feel ,TENDER,30MonoWAV/30MonoS4.wav,1,1,3,12,,,,,1,14,30,11,0,11,11,10,,,,,,,,,2,1.2027704670035746,,,041,001,2019_May_17_1011,MusicAffectPsychophysiology2019,3.0.5,59.92639217640552,
,,30MonoWAV/30MonoS4.wav,1,1,3,12,,,,,1,14,30,11,,,,,,,,,,,,,,,,,041,001,2019_May_17_1011,MusicAffectPsychophysiology2019,3.0.5,59.92639217640552,
To what extent did the music make you feel ,FRUSTRATED,30MonoWAV/30MonoF4.wav,1,2,2,4,,,,,1,15,31,3,0,0,0,3,,,3,2.457910280005308,1,0.9353835909860209,1,1.0022091080027167,4,1.501304303004872,,,041,001,2019_May_17_1011,MusicAffectPsychophysiology2019,3.0.5,59.92639217640552,
To what extent did the music make you feel ,TENDER,30MonoWAV/30MonoF4.wav,1,2,2,4,,,,,1,15,31,3,0,1,1,10,,,,,,,,,1,1.0854946519830264,,,041,001,2019_May_17_1011,MusicAffectPsychophysiology2019,3.0.5,59.92639217640552,
To what extent did the music make you feel ,ALERT,30MonoWAV/30MonoF4.wav,1,2,2,4,,,,,1,15,31,3,0,2,2,8,,,,,,,,,5,1.2333262860192917,,,041,001,2019_May_17_1011,MusicAffectPsychophysiology2019,3.0.5,59.92639217640552,
To what extent did the music make you feel ,SAD,30MonoWAV/30MonoF4.wav,1,2,2,4,,,,,1,15,31,3,0,3,3,0,,,,,,,,,1,0.9513567909889389,,,041,001,2019_May_17_1011,MusicAffectPsychophysiology2019,3.0.5,59.92639217640552,
To what extent did the music make you feel ,ASHAMED,30MonoWAV/30MonoF4.wav,1,2,2,4,,,,,1,15,31,3,0,4,4,4,,,,,,,,,1,1.0179948919976596,,,041,001,2019_May_17_1011,MusicAffectPsychophysiology2019,3.0.5,59.92639217640552,
To what extent did the music make you feel ,SCARED,30MonoWAV/30MonoF4.wav,1,2,2,4,,,,,1,15,31,3,0,5,5,11,,,,,,,,,4,2.602675174974138,,,041,001,2019_May_17_1011,MusicAffectPsychophysiology2019,3.0.5,59.92639217640552,
To what extent did the music make you feel ,ACTIVE,30MonoWAV/30MonoF4.wav,1,2,2,4,,,,,1,15,31,3,0,6,6,9,,,,,,,,,3,1.0853023250238039,,,041,001,2019_May_17_1011,MusicAffectPsychophysiology2019,3.0.5,59.92639217640552,
To what extent did the music make you feel ,GUILTY,30MonoWAV/30MonoF4.wav,1,2,2,4,,,,,1,15,31,3,0,7,7,5,,,,,,,,,2,1.0859353709965944,,,041,001,2019_May_17_1011,MusicAffectPsychophysiology2019,3.0.5,59.92639217640552,
To what extent did the music make you feel ,HAPPY,30MonoWAV/30MonoF4.wav,1,2,2,4,,,,,1,15,31,3,0,8,8,6,,,,,,,,,1,0.985363280022284,,,041,001,2019_May_17_1011,MusicAffectPsychophysiology2019,3.0.5,59.92639217640552,
To what extent did the music make you feel ,EXCITED,30MonoWAV/30MonoF4.wav,1,2,2,4,,,,,1,15,31,3,0,9,9,7,,,,,,,,,2,1.1012781469908077,,,041,001,2019_May_17_1011,MusicAffectPsychophysiology2019,3.0.5,59.92639217640552,
To what extent did the music make you feel ,ANXIOUS ,30MonoWAV/30MonoF4.wav,1,2,2,4,,,,,1,15,31,3,0,10,10,1,,,,,,,,,5,1.102340109006036,,,041,001,2019_May_17_1011,MusicAffectPsychophysiology2019,3.0.5,59.92639217640552,
To what extent did the music make you feel ,ANGRY,30MonoWAV/30MonoF4.wav,1,2,2,4,,,,,1,15,31,3,0,11,11,2,,,,,,,,,3,1.1677159460086841,,,041,001,2019_May_17_1011,MusicAffectPsychophysiology2019,3.0.5,59.92639217640552,
,,30MonoWAV/30MonoF4.wav,1,2,2,4,,,,,1,15,31,3,,,,,,,,,,,,,,,,,041,001,2019_May_17_1011,MusicAffectPsychophysiology2019,3.0.5,59.92639217640552,
,,,,,,,,,,,,,,,,,,,,,,,,,,,,,space,8.467185184999835,041,001,2019_May_17_1011,MusicAffectPsychophysiology2019,3.0.5,59.92639217640552,
