Instruction,Word,song,valence,arousal,affectcat,songmark,pracwords.thisRepN,pracwords.thisTrialN,pracwords.thisN,pracwords.thisIndex,songtrials.thisRepN,songtrials.thisTrialN,songtrials.thisN,songtrials.thisIndex,words.thisRepN,words.thisTrialN,words.thisN,words.thisIndex,begin.keys,begin.rt,arousalkey.keys,arousalkey.rt,valencekey.keys,valencekey.rt,likekey.keys,likekey.rt,WordResponse.keys,WordResponse.rt,key_resp_2.keys,key_resp_2.rt,participant,session,date,expName,psychopyVersion,frameRate,
,,,,,,,,,,,,,,,,,,,space,11.532054209004855,,,,,,,,,,,042,001,2019_May_17_1110,MusicAffectPsychophysiology2019,3.0.5,59.68346100778089,
,,,,,,,,,,,,,,,,,,,,,3,5.525019772001542,,,,,,,,,042,001,2019_May_17_1110,MusicAffectPsychophysiology2019,3.0.5,59.68346100778089,
,,,,,,,,,,,,,,,,,,,,,,,4,4.5757644809782505,,,,,,,042,001,2019_May_17_1110,MusicAffectPsychophysiology2019,3.0.5,59.68346100778089,
,,,,,,,,,,,,,,,,,,,,,,,,,2,2.5854976550035644,,,,,042,001,2019_May_17_1110,MusicAffectPsychophysiology2019,3.0.5,59.68346100778089,
To what extent did the music make you feel ,SAD,,,,,,0,0,0,0,,,,,,,,,,,,,,,,,2,5.819066255993675,,,042,001,2019_May_17_1110,MusicAffectPsychophysiology2019,3.0.5,59.68346100778089,
To what extent did the music make you feel ,TENDER,,,,,,0,1,1,10,,,,,,,,,,,,,,,,,4,2.6682365130109247,,,042,001,2019_May_17_1110,MusicAffectPsychophysiology2019,3.0.5,59.68346100778089,
To what extent did the music make you feel ,ASHAMED,,,,,,0,2,2,4,,,,,,,,,,,,,,,,,1,1.8340392239915673,,,042,001,2019_May_17_1110,MusicAffectPsychophysiology2019,3.0.5,59.68346100778089,
To what extent did the music make you feel ,SCARED,,,,,,0,3,3,11,,,,,,,,,,,,,,,,,2,1.5515331710048486,,,042,001,2019_May_17_1110,MusicAffectPsychophysiology2019,3.0.5,59.68346100778089,
To what extent did the music make you feel ,GUILTY,,,,,,0,4,4,5,,,,,,,,,,,,,,,,,2,1.9864318929903675,,,042,001,2019_May_17_1110,MusicAffectPsychophysiology2019,3.0.5,59.68346100778089,
To what extent did the music make you feel ,ANGRY,,,,,,0,5,5,2,,,,,,,,,,,,,,,,,1,1.2018632419931237,,,042,001,2019_May_17_1110,MusicAffectPsychophysiology2019,3.0.5,59.68346100778089,
To what extent did the music make you feel ,ACTIVE,,,,,,0,6,6,9,,,,,,,,,,,,,,,,,1,1.5080416910059284,,,042,001,2019_May_17_1110,MusicAffectPsychophysiology2019,3.0.5,59.68346100778089,
To what extent did the music make you feel ,ALERT,,,,,,0,7,7,8,,,,,,,,,,,,,,,,,2,2.1880812860035803,,,042,001,2019_May_17_1110,MusicAffectPsychophysiology2019,3.0.5,59.68346100778089,
To what extent did the music make you feel ,EXCITED,,,,,,0,8,8,7,,,,,,,,,,,,,,,,,2,2.471346156002255,,,042,001,2019_May_17_1110,MusicAffectPsychophysiology2019,3.0.5,59.68346100778089,
To what extent did the music make you feel ,ANXIOUS ,,,,,,0,9,9,1,,,,,,,,,,,,,,,,,3,2.4738016610208433,,,042,001,2019_May_17_1110,MusicAffectPsychophysiology2019,3.0.5,59.68346100778089,
To what extent did the music make you feel ,HAPPY,,,,,,0,10,10,6,,,,,,,,,,,,,,,,,2,4.884295560012106,,,042,001,2019_May_17_1110,MusicAffectPsychophysiology2019,3.0.5,59.68346100778089,
To what extent did the music make you feel ,FRUSTRATED,,,,,,0,11,11,3,,,,,,,,,,,,,,,,,1,1.0514404970163014,,,042,001,2019_May_17_1110,MusicAffectPsychophysiology2019,3.0.5,59.68346100778089,
To what extent did the music make you feel ,ANGRY,30MonoWAV/30MonoS1.wav,1,1,3,9,,,,,0,0,0,8,0,0,0,2,,,3,5.517383274011081,5,2.3181021040072665,4,2.001590447005583,1,2.0353869709942956,,,042,001,2019_May_17_1110,MusicAffectPsychophysiology2019,3.0.5,59.68346100778089,
To what extent did the music make you feel ,ANXIOUS ,30MonoWAV/30MonoS1.wav,1,1,3,9,,,,,0,0,0,8,0,1,1,1,,,,,,,,,1,1.2355775979813188,,,042,001,2019_May_17_1110,MusicAffectPsychophysiology2019,3.0.5,59.68346100778089,
To what extent did the music make you feel ,GUILTY,30MonoWAV/30MonoS1.wav,1,1,3,9,,,,,0,0,0,8,0,2,2,5,,,,,,,,,1,0.9187739499902818,,,042,001,2019_May_17_1110,MusicAffectPsychophysiology2019,3.0.5,59.68346100778089,
To what extent did the music make you feel ,EXCITED,30MonoWAV/30MonoS1.wav,1,1,3,9,,,,,0,0,0,8,0,3,3,7,,,,,,,,,4,2.00164232699899,,,042,001,2019_May_17_1110,MusicAffectPsychophysiology2019,3.0.5,59.68346100778089,
To what extent did the music make you feel ,TENDER,30MonoWAV/30MonoS1.wav,1,1,3,9,,,,,0,0,0,8,0,4,4,10,,,,,,,,,5,2.068783187016379,,,042,001,2019_May_17_1110,MusicAffectPsychophysiology2019,3.0.5,59.68346100778089,
To what extent did the music make you feel ,FRUSTRATED,30MonoWAV/30MonoS1.wav,1,1,3,9,,,,,0,0,0,8,0,5,5,3,,,,,,,,,1,1.1523966739769094,,,042,001,2019_May_17_1110,MusicAffectPsychophysiology2019,3.0.5,59.68346100778089,
To what extent did the music make you feel ,ACTIVE,30MonoWAV/30MonoS1.wav,1,1,3,9,,,,,0,0,0,8,0,6,6,9,,,,,,,,,2,1.836379027023213,,,042,001,2019_May_17_1110,MusicAffectPsychophysiology2019,3.0.5,59.68346100778089,
To what extent did the music make you feel ,ASHAMED,30MonoWAV/30MonoS1.wav,1,1,3,9,,,,,0,0,0,8,0,7,7,4,,,,,,,,,1,0.9013857640093192,,,042,001,2019_May_17_1110,MusicAffectPsychophysiology2019,3.0.5,59.68346100778089,
To what extent did the music make you feel ,SCARED,30MonoWAV/30MonoS1.wav,1,1,3,9,,,,,0,0,0,8,0,8,8,11,,,,,,,,,1,2.4182639630162157,,,042,001,2019_May_17_1110,MusicAffectPsychophysiology2019,3.0.5,59.68346100778089,
To what extent did the music make you feel ,SAD,30MonoWAV/30MonoS1.wav,1,1,3,9,,,,,0,0,0,8,0,9,9,0,,,,,,,,,2,1.866981864994159,,,042,001,2019_May_17_1110,MusicAffectPsychophysiology2019,3.0.5,59.68346100778089,
To what extent did the music make you feel ,ALERT,30MonoWAV/30MonoS1.wav,1,1,3,9,,,,,0,0,0,8,0,10,10,8,,,,,,,,,3,1.3666171620134264,,,042,001,2019_May_17_1110,MusicAffectPsychophysiology2019,3.0.5,59.68346100778089,
To what extent did the music make you feel ,HAPPY,30MonoWAV/30MonoS1.wav,1,1,3,9,,,,,0,0,0,8,0,11,11,6,,,,,,,,,5,1.4011717929970473,,,042,001,2019_May_17_1110,MusicAffectPsychophysiology2019,3.0.5,59.68346100778089,
,,30MonoWAV/30MonoS1.wav,1,1,3,9,,,,,0,0,0,8,,,,,,,,,,,,,,,,,042,001,2019_May_17_1110,MusicAffectPsychophysiology2019,3.0.5,59.68346100778089,
To what extent did the music make you feel ,TENDER,30MonoWAV/30MonoH2.wav,2,2,1,6,,,,,0,1,1,5,0,0,0,10,,,4,3.301287936978042,3,2.902294895000523,3,2.6495386680180673,1,2.9530126929748803,,,042,001,2019_May_17_1110,MusicAffectPsychophysiology2019,3.0.5,59.68346100778089,
To what extent did the music make you feel ,EXCITED,30MonoWAV/30MonoH2.wav,2,2,1,6,,,,,0,1,1,5,0,1,1,7,,,,,,,,,4,1.4850133080035448,,,042,001,2019_May_17_1110,MusicAffectPsychophysiology2019,3.0.5,59.68346100778089,
To what extent did the music make you feel ,FRUSTRATED,30MonoWAV/30MonoH2.wav,2,2,1,6,,,,,0,1,1,5,0,2,2,3,,,,,,,,,1,0.9519307180016767,,,042,001,2019_May_17_1110,MusicAffectPsychophysiology2019,3.0.5,59.68346100778089,
To what extent did the music make you feel ,ANXIOUS ,30MonoWAV/30MonoH2.wav,2,2,1,6,,,,,0,1,1,5,0,3,3,1,,,,,,,,,2,1.7682766460056882,,,042,001,2019_May_17_1110,MusicAffectPsychophysiology2019,3.0.5,59.68346100778089,
To what extent did the music make you feel ,SCARED,30MonoWAV/30MonoH2.wav,2,2,1,6,,,,,0,1,1,5,0,4,4,11,,,,,,,,,2,1.885733474016888,,,042,001,2019_May_17_1110,MusicAffectPsychophysiology2019,3.0.5,59.68346100778089,
To what extent did the music make you feel ,ACTIVE,30MonoWAV/30MonoH2.wav,2,2,1,6,,,,,0,1,1,5,0,5,5,9,,,,,,,,,4,1.634481461980613,,,042,001,2019_May_17_1110,MusicAffectPsychophysiology2019,3.0.5,59.68346100778089,
To what extent did the music make you feel ,SAD,30MonoWAV/30MonoH2.wav,2,2,1,6,,,,,0,1,1,5,0,6,6,0,,,,,,,,,1,3.816736648004735,,,042,001,2019_May_17_1110,MusicAffectPsychophysiology2019,3.0.5,59.68346100778089,
To what extent did the music make you feel ,ASHAMED,30MonoWAV/30MonoH2.wav,2,2,1,6,,,,,0,1,1,5,0,7,7,4,,,,,,,,,1,0.63522464298876,,,042,001,2019_May_17_1110,MusicAffectPsychophysiology2019,3.0.5,59.68346100778089,
To what extent did the music make you feel ,ALERT,30MonoWAV/30MonoH2.wav,2,2,1,6,,,,,0,1,1,5,0,8,8,8,,,,,,,,,3,2.0518057020090055,,,042,001,2019_May_17_1110,MusicAffectPsychophysiology2019,3.0.5,59.68346100778089,
To what extent did the music make you feel ,HAPPY,30MonoWAV/30MonoH2.wav,2,2,1,6,,,,,0,1,1,5,0,9,9,6,,,,,,,,,2,2.68515813400154,,,042,001,2019_May_17_1110,MusicAffectPsychophysiology2019,3.0.5,59.68346100778089,
To what extent did the music make you feel ,GUILTY,30MonoWAV/30MonoH2.wav,2,2,1,6,,,,,0,1,1,5,0,10,10,5,,,,,,,,,1,1.1018858349998482,,,042,001,2019_May_17_1110,MusicAffectPsychophysiology2019,3.0.5,59.68346100778089,
To what extent did the music make you feel ,ANGRY,30MonoWAV/30MonoH2.wav,2,2,1,6,,,,,0,1,1,5,0,11,11,2,,,,,,,,,1,0.8849856159940828,,,042,001,2019_May_17_1110,MusicAffectPsychophysiology2019,3.0.5,59.68346100778089,
,,30MonoWAV/30MonoH2.wav,2,2,1,6,,,,,0,1,1,5,,,,,,,,,,,,,,,,,042,001,2019_May_17_1110,MusicAffectPsychophysiology2019,3.0.5,59.68346100778089,
To what extent did the music make you feel ,ASHAMED,30MonoWAV/30MonoS2.wav,1,1,3,10,,,,,0,2,2,9,0,0,0,4,,,3,3.835289049980929,4,2.618739343015477,5,2.2019100390025415,1,1.6352386869839393,,,042,001,2019_May_17_1110,MusicAffectPsychophysiology2019,3.0.5,59.68346100778089,
To what extent did the music make you feel ,SAD,30MonoWAV/30MonoS2.wav,1,1,3,10,,,,,0,2,2,9,0,1,1,0,,,,,,,,,3,1.3172837420133874,,,042,001,2019_May_17_1110,MusicAffectPsychophysiology2019,3.0.5,59.68346100778089,
To what extent did the music make you feel ,EXCITED,30MonoWAV/30MonoS2.wav,1,1,3,10,,,,,0,2,2,9,0,2,2,7,,,,,,,,,2,2.535025821009185,,,042,001,2019_May_17_1110,MusicAffectPsychophysiology2019,3.0.5,59.68346100778089,
To what extent did the music make you feel ,FRUSTRATED,30MonoWAV/30MonoS2.wav,1,1,3,10,,,,,0,2,2,9,0,3,3,3,,,,,,,,,1,1.0017100389814004,,,042,001,2019_May_17_1110,MusicAffectPsychophysiology2019,3.0.5,59.68346100778089,
To what extent did the music make you feel ,SCARED,30MonoWAV/30MonoS2.wav,1,1,3,10,,,,,0,2,2,9,0,4,4,11,,,,,,,,,1,2.468205573008163,,,042,001,2019_May_17_1110,MusicAffectPsychophysiology2019,3.0.5,59.68346100778089,
To what extent did the music make you feel ,ALERT,30MonoWAV/30MonoS2.wav,1,1,3,10,,,,,0,2,2,9,0,5,5,8,,,,,,,,,4,1.4353014019725379,,,042,001,2019_May_17_1110,MusicAffectPsychophysiology2019,3.0.5,59.68346100778089,
To what extent did the music make you feel ,TENDER,30MonoWAV/30MonoS2.wav,1,1,3,10,,,,,0,2,2,9,0,6,6,10,,,,,,,,,5,1.751482029008912,,,042,001,2019_May_17_1110,MusicAffectPsychophysiology2019,3.0.5,59.68346100778089,
To what extent did the music make you feel ,GUILTY,30MonoWAV/30MonoS2.wav,1,1,3,10,,,,,0,2,2,9,0,7,7,5,,,,,,,,,1,1.050282182986848,,,042,001,2019_May_17_1110,MusicAffectPsychophysiology2019,3.0.5,59.68346100778089,
To what extent did the music make you feel ,HAPPY,30MonoWAV/30MonoS2.wav,1,1,3,10,,,,,0,2,2,9,0,8,8,6,,,,,,,,,3,1.30144790300983,,,042,001,2019_May_17_1110,MusicAffectPsychophysiology2019,3.0.5,59.68346100778089,
To what extent did the music make you feel ,ACTIVE,30MonoWAV/30MonoS2.wav,1,1,3,10,,,,,0,2,2,9,0,9,9,9,,,,,,,,,4,1.6018557559873443,,,042,001,2019_May_17_1110,MusicAffectPsychophysiology2019,3.0.5,59.68346100778089,
To what extent did the music make you feel ,ANXIOUS ,30MonoWAV/30MonoS2.wav,1,1,3,10,,,,,0,2,2,9,0,10,10,1,,,,,,,,,1,1.2178753440093715,,,042,001,2019_May_17_1110,MusicAffectPsychophysiology2019,3.0.5,59.68346100778089,
To what extent did the music make you feel ,ANGRY,30MonoWAV/30MonoS2.wav,1,1,3,10,,,,,0,2,2,9,0,11,11,2,,,,,,,,,1,1.6692255660018418,,,042,001,2019_May_17_1110,MusicAffectPsychophysiology2019,3.0.5,59.68346100778089,
,,30MonoWAV/30MonoS2.wav,1,1,3,10,,,,,0,2,2,9,,,,,,,,,,,,,,,,,042,001,2019_May_17_1110,MusicAffectPsychophysiology2019,3.0.5,59.68346100778089,
To what extent did the music make you feel ,FRUSTRATED,30MonoWAV/30MonoH3.wav,2,2,1,7,,,,,0,3,3,6,0,0,0,3,,,4,3.2690219020005316,3,1.7518375030194875,3,1.6677372569974978,3,2.3421058419917244,,,042,001,2019_May_17_1110,MusicAffectPsychophysiology2019,3.0.5,59.68346100778089,
To what extent did the music make you feel ,ACTIVE,30MonoWAV/30MonoH3.wav,2,2,1,7,,,,,0,3,3,6,0,1,1,9,,,,,,,,,4,1.0856622610008344,,,042,001,2019_May_17_1110,MusicAffectPsychophysiology2019,3.0.5,59.68346100778089,
To what extent did the music make you feel ,EXCITED,30MonoWAV/30MonoH3.wav,2,2,1,7,,,,,0,3,3,6,0,2,2,7,,,,,,,,,2,1.3347424320236314,,,042,001,2019_May_17_1110,MusicAffectPsychophysiology2019,3.0.5,59.68346100778089,
To what extent did the music make you feel ,ANXIOUS ,30MonoWAV/30MonoH3.wav,2,2,1,7,,,,,0,3,3,6,0,3,3,1,,,,,,,,,1,2.0195306180103216,,,042,001,2019_May_17_1110,MusicAffectPsychophysiology2019,3.0.5,59.68346100778089,
To what extent did the music make you feel ,TENDER,30MonoWAV/30MonoH3.wav,2,2,1,7,,,,,0,3,3,6,0,4,4,10,,,,,,,,,1,0.7170684699958656,,,042,001,2019_May_17_1110,MusicAffectPsychophysiology2019,3.0.5,59.68346100778089,
To what extent did the music make you feel ,ALERT,30MonoWAV/30MonoH3.wav,2,2,1,7,,,,,0,3,3,6,0,5,5,8,,,,,,,,,3,1.353240939002717,,,042,001,2019_May_17_1110,MusicAffectPsychophysiology2019,3.0.5,59.68346100778089,
To what extent did the music make you feel ,ASHAMED,30MonoWAV/30MonoH3.wav,2,2,1,7,,,,,0,3,3,6,0,6,6,4,,,,,,,,,1,0.9856941170000937,,,042,001,2019_May_17_1110,MusicAffectPsychophysiology2019,3.0.5,59.68346100778089,
To what extent did the music make you feel ,SCARED,30MonoWAV/30MonoH3.wav,2,2,1,7,,,,,0,3,3,6,0,7,7,11,,,,,,,,,1,1.7014785619976465,,,042,001,2019_May_17_1110,MusicAffectPsychophysiology2019,3.0.5,59.68346100778089,
To what extent did the music make you feel ,SAD,30MonoWAV/30MonoH3.wav,2,2,1,7,,,,,0,3,3,6,0,8,8,0,,,,,,,,,1,0.751358198991511,,,042,001,2019_May_17_1110,MusicAffectPsychophysiology2019,3.0.5,59.68346100778089,
To what extent did the music make you feel ,HAPPY,30MonoWAV/30MonoH3.wav,2,2,1,7,,,,,0,3,3,6,0,9,9,6,,,,,,,,,2,1.1515291160030756,,,042,001,2019_May_17_1110,MusicAffectPsychophysiology2019,3.0.5,59.68346100778089,
To what extent did the music make you feel ,GUILTY,30MonoWAV/30MonoH3.wav,2,2,1,7,,,,,0,3,3,6,0,10,10,5,,,,,,,,,1,1.0853404970257543,,,042,001,2019_May_17_1110,MusicAffectPsychophysiology2019,3.0.5,59.68346100778089,
To what extent did the music make you feel ,ANGRY,30MonoWAV/30MonoH3.wav,2,2,1,7,,,,,0,3,3,6,0,11,11,2,,,,,,,,,2,2.0857815660128836,,,042,001,2019_May_17_1110,MusicAffectPsychophysiology2019,3.0.5,59.68346100778089,
,,30MonoWAV/30MonoH3.wav,2,2,1,7,,,,,0,3,3,6,,,,,,,,,,,,,,,,,042,001,2019_May_17_1110,MusicAffectPsychophysiology2019,3.0.5,59.68346100778089,
To what extent did the music make you feel ,TENDER,30MonoWAV/30MonoT1.wav,2,1,4,13,,,,,0,4,4,12,0,0,0,10,,,3,3.7021794919855893,5,1.1532628090062644,5,1.5854364259866998,4,2.291466446011327,,,042,001,2019_May_17_1110,MusicAffectPsychophysiology2019,3.0.5,59.68346100778089,
To what extent did the music make you feel ,GUILTY,30MonoWAV/30MonoT1.wav,2,1,4,13,,,,,0,4,4,12,0,1,1,5,,,,,,,,,1,1.0678214759973343,,,042,001,2019_May_17_1110,MusicAffectPsychophysiology2019,3.0.5,59.68346100778089,
To what extent did the music make you feel ,ANXIOUS ,30MonoWAV/30MonoT1.wav,2,1,4,13,,,,,0,4,4,12,0,2,2,1,,,,,,,,,1,1.2490272740251385,,,042,001,2019_May_17_1110,MusicAffectPsychophysiology2019,3.0.5,59.68346100778089,
To what extent did the music make you feel ,FRUSTRATED,30MonoWAV/30MonoT1.wav,2,1,4,13,,,,,0,4,4,12,0,3,3,3,,,,,,,,,1,0.9687835320073646,,,042,001,2019_May_17_1110,MusicAffectPsychophysiology2019,3.0.5,59.68346100778089,
To what extent did the music make you feel ,SAD,30MonoWAV/30MonoT1.wav,2,1,4,13,,,,,0,4,4,12,0,4,4,0,,,,,,,,,2,2.353098741994472,,,042,001,2019_May_17_1110,MusicAffectPsychophysiology2019,3.0.5,59.68346100778089,
To what extent did the music make you feel ,ANGRY,30MonoWAV/30MonoT1.wav,2,1,4,13,,,,,0,4,4,12,0,5,5,2,,,,,,,,,1,1.2396357049874496,,,042,001,2019_May_17_1110,MusicAffectPsychophysiology2019,3.0.5,59.68346100778089,
To what extent did the music make you feel ,ASHAMED,30MonoWAV/30MonoT1.wav,2,1,4,13,,,,,0,4,4,12,0,6,6,4,,,,,,,,,1,0.9864777689799666,,,042,001,2019_May_17_1110,MusicAffectPsychophysiology2019,3.0.5,59.68346100778089,
To what extent did the music make you feel ,EXCITED,30MonoWAV/30MonoT1.wav,2,1,4,13,,,,,0,4,4,12,0,7,7,7,,,,,,,,,3,1.4373650540073868,,,042,001,2019_May_17_1110,MusicAffectPsychophysiology2019,3.0.5,59.68346100778089,
To what extent did the music make you feel ,ACTIVE,30MonoWAV/30MonoT1.wav,2,1,4,13,,,,,0,4,4,12,0,8,8,9,,,,,,,,,3,1.2201865759852808,,,042,001,2019_May_17_1110,MusicAffectPsychophysiology2019,3.0.5,59.68346100778089,
To what extent did the music make you feel ,ALERT,30MonoWAV/30MonoT1.wav,2,1,4,13,,,,,0,4,4,12,0,9,9,8,,,,,,,,,4,1.2364974129886832,,,042,001,2019_May_17_1110,MusicAffectPsychophysiology2019,3.0.5,59.68346100778089,
To what extent did the music make you feel ,HAPPY,30MonoWAV/30MonoT1.wav,2,1,4,13,,,,,0,4,4,12,0,10,10,6,,,,,,,,,5,1.0864764570142142,,,042,001,2019_May_17_1110,MusicAffectPsychophysiology2019,3.0.5,59.68346100778089,
To what extent did the music make you feel ,SCARED,30MonoWAV/30MonoT1.wav,2,1,4,13,,,,,0,4,4,12,0,11,11,11,,,,,,,,,1,1.2069669170014095,,,042,001,2019_May_17_1110,MusicAffectPsychophysiology2019,3.0.5,59.68346100778089,
,,30MonoWAV/30MonoT1.wav,2,1,4,13,,,,,0,4,4,12,,,,,,,,,,,,,,,,,042,001,2019_May_17_1110,MusicAffectPsychophysiology2019,3.0.5,59.68346100778089,
To what extent did the music make you feel ,ACTIVE,30MonoWAV/30MonoF4.wav,1,2,2,4,,,,,0,5,5,3,0,0,0,9,,,5,2.4851666600152384,4,1.9180640870181378,4,1.2178822919959202,5,1.6192371629877016,,,042,001,2019_May_17_1110,MusicAffectPsychophysiology2019,3.0.5,59.68346100778089,
To what extent did the music make you feel ,EXCITED,30MonoWAV/30MonoF4.wav,1,2,2,4,,,,,0,5,5,3,0,1,1,7,,,,,,,,,3,2.5508268809935544,,,042,001,2019_May_17_1110,MusicAffectPsychophysiology2019,3.0.5,59.68346100778089,
To what extent did the music make you feel ,ANXIOUS ,30MonoWAV/30MonoF4.wav,1,2,2,4,,,,,0,5,5,3,0,2,2,1,,,,,,,,,4,1.3841731729917228,,,042,001,2019_May_17_1110,MusicAffectPsychophysiology2019,3.0.5,59.68346100778089,
To what extent did the music make you feel ,HAPPY,30MonoWAV/30MonoF4.wav,1,2,2,4,,,,,0,5,5,3,0,3,3,6,,,,,,,,,2,1.4361966449941974,,,042,001,2019_May_17_1110,MusicAffectPsychophysiology2019,3.0.5,59.68346100778089,
To what extent did the music make you feel ,GUILTY,30MonoWAV/30MonoF4.wav,1,2,2,4,,,,,0,5,5,3,0,4,4,5,,,,,,,,,1,0.9008393090043683,,,042,001,2019_May_17_1110,MusicAffectPsychophysiology2019,3.0.5,59.68346100778089,
To what extent did the music make you feel ,SCARED,30MonoWAV/30MonoF4.wav,1,2,2,4,,,,,0,5,5,3,0,5,5,11,,,,,,,,,4,1.701858111016918,,,042,001,2019_May_17_1110,MusicAffectPsychophysiology2019,3.0.5,59.68346100778089,
To what extent did the music make you feel ,ALERT,30MonoWAV/30MonoF4.wav,1,2,2,4,,,,,0,5,5,3,0,6,6,8,,,,,,,,,4,1.7688948329887353,,,042,001,2019_May_17_1110,MusicAffectPsychophysiology2019,3.0.5,59.68346100778089,
To what extent did the music make you feel ,ASHAMED,30MonoWAV/30MonoF4.wav,1,2,2,4,,,,,0,5,5,3,0,7,7,4,,,,,,,,,1,1.0015159079921432,,,042,001,2019_May_17_1110,MusicAffectPsychophysiology2019,3.0.5,59.68346100778089,
To what extent did the music make you feel ,FRUSTRATED,30MonoWAV/30MonoF4.wav,1,2,2,4,,,,,0,5,5,3,0,8,8,3,,,,,,,,,1,1.3182271329860669,,,042,001,2019_May_17_1110,MusicAffectPsychophysiology2019,3.0.5,59.68346100778089,
To what extent did the music make you feel ,SAD,30MonoWAV/30MonoF4.wav,1,2,2,4,,,,,0,5,5,3,0,9,9,0,,,,,,,,,1,1.1685514469863847,,,042,001,2019_May_17_1110,MusicAffectPsychophysiology2019,3.0.5,59.68346100778089,
To what extent did the music make you feel ,ANGRY,30MonoWAV/30MonoF4.wav,1,2,2,4,,,,,0,5,5,3,0,10,10,2,,,,,,,,,1,1.485925359011162,,,042,001,2019_May_17_1110,MusicAffectPsychophysiology2019,3.0.5,59.68346100778089,
To what extent did the music make you feel ,TENDER,30MonoWAV/30MonoF4.wav,1,2,2,4,,,,,0,5,5,3,0,11,11,10,,,,,,,,,1,0.9849713630101178,,,042,001,2019_May_17_1110,MusicAffectPsychophysiology2019,3.0.5,59.68346100778089,
,,30MonoWAV/30MonoF4.wav,1,2,2,4,,,,,0,5,5,3,,,,,,,,,,,,,,,,,042,001,2019_May_17_1110,MusicAffectPsychophysiology2019,3.0.5,59.68346100778089,
To what extent did the music make you feel ,ASHAMED,30MonoWAV/30MonoS4.wav,1,1,3,12,,,,,0,6,6,11,0,0,0,4,,,2,4.535702848021174,4,1.4845481379888952,4,1.034655918017961,1,1.4360871009994298,,,042,001,2019_May_17_1110,MusicAffectPsychophysiology2019,3.0.5,59.68346100778089,
To what extent did the music make you feel ,FRUSTRATED,30MonoWAV/30MonoS4.wav,1,1,3,12,,,,,0,6,6,11,0,1,1,3,,,,,,,,,1,0.6692876289889682,,,042,001,2019_May_17_1110,MusicAffectPsychophysiology2019,3.0.5,59.68346100778089,
To what extent did the music make you feel ,SCARED,30MonoWAV/30MonoS4.wav,1,1,3,12,,,,,0,6,6,11,0,2,2,11,,,,,,,,,1,1.3850459530076478,,,042,001,2019_May_17_1110,MusicAffectPsychophysiology2019,3.0.5,59.68346100778089,
To what extent did the music make you feel ,ACTIVE,30MonoWAV/30MonoS4.wav,1,1,3,12,,,,,0,6,6,11,0,3,3,9,,,,,,,,,2,1.619180703011807,,,042,001,2019_May_17_1110,MusicAffectPsychophysiology2019,3.0.5,59.68346100778089,
To what extent did the music make you feel ,HAPPY,30MonoWAV/30MonoS4.wav,1,1,3,12,,,,,0,6,6,11,0,4,4,6,,,,,,,,,3,1.751803333987482,,,042,001,2019_May_17_1110,MusicAffectPsychophysiology2019,3.0.5,59.68346100778089,
To what extent did the music make you feel ,EXCITED,30MonoWAV/30MonoS4.wav,1,1,3,12,,,,,0,6,6,11,0,5,5,7,,,,,,,,,1,3.318424726021476,,,042,001,2019_May_17_1110,MusicAffectPsychophysiology2019,3.0.5,59.68346100778089,
To what extent did the music make you feel ,SAD,30MonoWAV/30MonoS4.wav,1,1,3,12,,,,,0,6,6,11,0,6,6,0,,,,,,,,,3,1.768920928996522,,,042,001,2019_May_17_1110,MusicAffectPsychophysiology2019,3.0.5,59.68346100778089,
To what extent did the music make you feel ,TENDER,30MonoWAV/30MonoS4.wav,1,1,3,12,,,,,0,6,6,11,0,7,7,10,,,,,,,,,4,1.4509553560055792,,,042,001,2019_May_17_1110,MusicAffectPsychophysiology2019,3.0.5,59.68346100778089,
To what extent did the music make you feel ,ANGRY,30MonoWAV/30MonoS4.wav,1,1,3,12,,,,,0,6,6,11,0,8,8,2,,,,,,,,,1,0.9181489850161597,,,042,001,2019_May_17_1110,MusicAffectPsychophysiology2019,3.0.5,59.68346100778089,
To what extent did the music make you feel ,ALERT,30MonoWAV/30MonoS4.wav,1,1,3,12,,,,,0,6,6,11,0,9,9,8,,,,,,,,,2,1.8360357219935395,,,042,001,2019_May_17_1110,MusicAffectPsychophysiology2019,3.0.5,59.68346100778089,
To what extent did the music make you feel ,ANXIOUS ,30MonoWAV/30MonoS4.wav,1,1,3,12,,,,,0,6,6,11,0,10,10,1,,,,,,,,,1,1.3865209100185893,,,042,001,2019_May_17_1110,MusicAffectPsychophysiology2019,3.0.5,59.68346100778089,
To what extent did the music make you feel ,GUILTY,30MonoWAV/30MonoS4.wav,1,1,3,12,,,,,0,6,6,11,0,11,11,5,,,,,,,,,2,1.6339354189985897,,,042,001,2019_May_17_1110,MusicAffectPsychophysiology2019,3.0.5,59.68346100778089,
,,30MonoWAV/30MonoS4.wav,1,1,3,12,,,,,0,6,6,11,,,,,,,,,,,,,,,,,042,001,2019_May_17_1110,MusicAffectPsychophysiology2019,3.0.5,59.68346100778089,
To what extent did the music make you feel ,EXCITED,30MonoWAV/30MonoS3.wav,1,1,3,11,,,,,0,7,7,10,0,0,0,7,,,2,3.405610620015068,3,2.1536825069924816,4,1.1394985929946415,1,2.1012518189963885,,,042,001,2019_May_17_1110,MusicAffectPsychophysiology2019,3.0.5,59.68346100778089,
To what extent did the music make you feel ,HAPPY,30MonoWAV/30MonoS3.wav,1,1,3,11,,,,,0,7,7,10,0,1,1,6,,,,,,,,,2,2.7026112870080397,,,042,001,2019_May_17_1110,MusicAffectPsychophysiology2019,3.0.5,59.68346100778089,
To what extent did the music make you feel ,GUILTY,30MonoWAV/30MonoS3.wav,1,1,3,11,,,,,0,7,7,10,0,2,2,5,,,,,,,,,3,1.285201082995627,,,042,001,2019_May_17_1110,MusicAffectPsychophysiology2019,3.0.5,59.68346100778089,
To what extent did the music make you feel ,TENDER,30MonoWAV/30MonoS3.wav,1,1,3,11,,,,,0,7,7,10,0,3,3,10,,,,,,,,,4,1.5020268799853511,,,042,001,2019_May_17_1110,MusicAffectPsychophysiology2019,3.0.5,59.68346100778089,
To what extent did the music make you feel ,FRUSTRATED,30MonoWAV/30MonoS3.wav,1,1,3,11,,,,,0,7,7,10,0,4,4,3,,,,,,,,,3,2.151854716008529,,,042,001,2019_May_17_1110,MusicAffectPsychophysiology2019,3.0.5,59.68346100778089,
To what extent did the music make you feel ,ANGRY,30MonoWAV/30MonoS3.wav,1,1,3,11,,,,,0,7,7,10,0,5,5,2,,,,,,,,,2,1.6852292560215574,,,042,001,2019_May_17_1110,MusicAffectPsychophysiology2019,3.0.5,59.68346100778089,
To what extent did the music make you feel ,ANXIOUS ,30MonoWAV/30MonoS3.wav,1,1,3,11,,,,,0,7,7,10,0,6,6,1,,,,,,,,,5,1.334783130994765,,,042,001,2019_May_17_1110,MusicAffectPsychophysiology2019,3.0.5,59.68346100778089,
To what extent did the music make you feel ,SAD,30MonoWAV/30MonoS3.wav,1,1,3,11,,,,,0,7,7,10,0,7,7,0,,,,,,,,,5,1.1504508529906161,,,042,001,2019_May_17_1110,MusicAffectPsychophysiology2019,3.0.5,59.68346100778089,
To what extent did the music make you feel ,ACTIVE,30MonoWAV/30MonoS3.wav,1,1,3,11,,,,,0,7,7,10,0,8,8,9,,,,,,,,,2,1.9849456529773306,,,042,001,2019_May_17_1110,MusicAffectPsychophysiology2019,3.0.5,59.68346100778089,
To what extent did the music make you feel ,ASHAMED,30MonoWAV/30MonoS3.wav,1,1,3,11,,,,,0,7,7,10,0,9,9,4,,,,,,,,,1,1.2675547859980725,,,042,001,2019_May_17_1110,MusicAffectPsychophysiology2019,3.0.5,59.68346100778089,
To what extent did the music make you feel ,ALERT,30MonoWAV/30MonoS3.wav,1,1,3,11,,,,,0,7,7,10,0,10,10,8,,,,,,,,,2,3.402164694009116,,,042,001,2019_May_17_1110,MusicAffectPsychophysiology2019,3.0.5,59.68346100778089,
To what extent did the music make you feel ,SCARED,30MonoWAV/30MonoS3.wav,1,1,3,11,,,,,0,7,7,10,0,11,11,11,,,,,,,,,3,1.184995251998771,,,042,001,2019_May_17_1110,MusicAffectPsychophysiology2019,3.0.5,59.68346100778089,
,,30MonoWAV/30MonoS3.wav,1,1,3,11,,,,,0,7,7,10,,,,,,,,,,,,,,,,,042,001,2019_May_17_1110,MusicAffectPsychophysiology2019,3.0.5,59.68346100778089,
To what extent did the music make you feel ,ANXIOUS ,30MonoWAV/30MonoF1.wav,1,2,2,1,,,,,0,8,8,0,0,0,0,1,,,4,3.8680676270159893,2,1.8686834499821998,3,1.5534050629939884,3,1.9190601120062638,,,042,001,2019_May_17_1110,MusicAffectPsychophysiology2019,3.0.5,59.68346100778089,
To what extent did the music make you feel ,ANGRY,30MonoWAV/30MonoF1.wav,1,2,2,1,,,,,0,8,8,0,0,1,1,2,,,,,,,,,2,7.950720023014583,,,042,001,2019_May_17_1110,MusicAffectPsychophysiology2019,3.0.5,59.68346100778089,
To what extent did the music make you feel ,FRUSTRATED,30MonoWAV/30MonoF1.wav,1,2,2,1,,,,,0,8,8,0,0,2,2,3,,,,,,,,,3,1.3365413429855835,,,042,001,2019_May_17_1110,MusicAffectPsychophysiology2019,3.0.5,59.68346100778089,
To what extent did the music make you feel ,EXCITED,30MonoWAV/30MonoF1.wav,1,2,2,1,,,,,0,8,8,0,0,3,3,7,,,,,,,,,4,1.1855646400072146,,,042,001,2019_May_17_1110,MusicAffectPsychophysiology2019,3.0.5,59.68346100778089,
To what extent did the music make you feel ,SCARED,30MonoWAV/30MonoF1.wav,1,2,2,1,,,,,0,8,8,0,0,4,4,11,,,,,,,,,4,1.318465580989141,,,042,001,2019_May_17_1110,MusicAffectPsychophysiology2019,3.0.5,59.68346100778089,
To what extent did the music make you feel ,HAPPY,30MonoWAV/30MonoF1.wav,1,2,2,1,,,,,0,8,8,0,0,5,5,6,,,,,,,,,2,1.73581967400969,,,042,001,2019_May_17_1110,MusicAffectPsychophysiology2019,3.0.5,59.68346100778089,
To what extent did the music make you feel ,ACTIVE,30MonoWAV/30MonoF1.wav,1,2,2,1,,,,,0,8,8,0,0,6,6,9,,,,,,,,,3,1.2689249879913405,,,042,001,2019_May_17_1110,MusicAffectPsychophysiology2019,3.0.5,59.68346100778089,
To what extent did the music make you feel ,ASHAMED,30MonoWAV/30MonoF1.wav,1,2,2,1,,,,,0,8,8,0,0,7,7,4,,,,,,,,,1,0.9857816399889998,,,042,001,2019_May_17_1110,MusicAffectPsychophysiology2019,3.0.5,59.68346100778089,
To what extent did the music make you feel ,GUILTY,30MonoWAV/30MonoF1.wav,1,2,2,1,,,,,0,8,8,0,0,8,8,5,,,,,,,,,1,3.7014345830248203,,,042,001,2019_May_17_1110,MusicAffectPsychophysiology2019,3.0.5,59.68346100778089,
To what extent did the music make you feel ,ALERT,30MonoWAV/30MonoF1.wav,1,2,2,1,,,,,0,8,8,0,0,9,9,8,,,,,,,,,5,1.3006584949907847,,,042,001,2019_May_17_1110,MusicAffectPsychophysiology2019,3.0.5,59.68346100778089,
To what extent did the music make you feel ,TENDER,30MonoWAV/30MonoF1.wav,1,2,2,1,,,,,0,8,8,0,0,10,10,10,,,,,,,,,1,1.13638583701686,,,042,001,2019_May_17_1110,MusicAffectPsychophysiology2019,3.0.5,59.68346100778089,
To what extent did the music make you feel ,SAD,30MonoWAV/30MonoF1.wav,1,2,2,1,,,,,0,8,8,0,0,11,11,0,,,,,,,,,1,2.0694811140128877,,,042,001,2019_May_17_1110,MusicAffectPsychophysiology2019,3.0.5,59.68346100778089,
,,30MonoWAV/30MonoF1.wav,1,2,2,1,,,,,0,8,8,0,,,,,,,,,,,,,,,,,042,001,2019_May_17_1110,MusicAffectPsychophysiology2019,3.0.5,59.68346100778089,
To what extent did the music make you feel ,EXCITED,30MonoWAV/30MonoF3.wav,1,2,2,3,,,,,0,9,9,2,0,0,0,7,,,3,3.5189064480073284,3,2.567549933999544,3,1.7849657439801376,4,1.468343813001411,,,042,001,2019_May_17_1110,MusicAffectPsychophysiology2019,3.0.5,59.68346100778089,
To what extent did the music make you feel ,GUILTY,30MonoWAV/30MonoF3.wav,1,2,2,3,,,,,0,9,9,2,0,1,1,5,,,,,,,,,2,1.6171662260021549,,,042,001,2019_May_17_1110,MusicAffectPsychophysiology2019,3.0.5,59.68346100778089,
To what extent did the music make you feel ,HAPPY,30MonoWAV/30MonoF3.wav,1,2,2,3,,,,,0,9,9,2,0,2,2,6,,,,,,,,,4,1.869069637003122,,,042,001,2019_May_17_1110,MusicAffectPsychophysiology2019,3.0.5,59.68346100778089,
To what extent did the music make you feel ,SCARED,30MonoWAV/30MonoF3.wav,1,2,2,3,,,,,0,9,9,2,0,3,3,11,,,,,,,,,2,1.2354101930104662,,,042,001,2019_May_17_1110,MusicAffectPsychophysiology2019,3.0.5,59.68346100778089,
To what extent did the music make you feel ,ANGRY,30MonoWAV/30MonoF3.wav,1,2,2,3,,,,,0,9,9,2,0,4,4,2,,,,,,,,,1,1.8192935039987788,,,042,001,2019_May_17_1110,MusicAffectPsychophysiology2019,3.0.5,59.68346100778089,
To what extent did the music make you feel ,SAD,30MonoWAV/30MonoF3.wav,1,2,2,3,,,,,0,9,9,2,0,5,5,0,,,,,,,,,1,2.234834883012809,,,042,001,2019_May_17_1110,MusicAffectPsychophysiology2019,3.0.5,59.68346100778089,
To what extent did the music make you feel ,FRUSTRATED,30MonoWAV/30MonoF3.wav,1,2,2,3,,,,,0,9,9,2,0,6,6,3,,,,,,,,,2,1.3351798609946854,,,042,001,2019_May_17_1110,MusicAffectPsychophysiology2019,3.0.5,59.68346100778089,
To what extent did the music make you feel ,ACTIVE,30MonoWAV/30MonoF3.wav,1,2,2,3,,,,,0,9,9,2,0,7,7,9,,,,,,,,,4,1.418531225004699,,,042,001,2019_May_17_1110,MusicAffectPsychophysiology2019,3.0.5,59.68346100778089,
To what extent did the music make you feel ,ANXIOUS ,30MonoWAV/30MonoF3.wav,1,2,2,3,,,,,0,9,9,2,0,8,8,1,,,,,,,,,3,2.868716652999865,,,042,001,2019_May_17_1110,MusicAffectPsychophysiology2019,3.0.5,59.68346100778089,
To what extent did the music make you feel ,ALERT,30MonoWAV/30MonoF3.wav,1,2,2,3,,,,,0,9,9,2,0,9,9,8,,,,,,,,,5,2.6694979630119633,,,042,001,2019_May_17_1110,MusicAffectPsychophysiology2019,3.0.5,59.68346100778089,
To what extent did the music make you feel ,ASHAMED,30MonoWAV/30MonoF3.wav,1,2,2,3,,,,,0,9,9,2,0,10,10,4,,,,,,,,,1,1.133896791987354,,,042,001,2019_May_17_1110,MusicAffectPsychophysiology2019,3.0.5,59.68346100778089,
To what extent did the music make you feel ,TENDER,30MonoWAV/30MonoF3.wav,1,2,2,3,,,,,0,9,9,2,0,11,11,10,,,,,,,,,1,3.5350319989956915,,,042,001,2019_May_17_1110,MusicAffectPsychophysiology2019,3.0.5,59.68346100778089,
,,30MonoWAV/30MonoF3.wav,1,2,2,3,,,,,0,9,9,2,,,,,,,,,,,,,,,,,042,001,2019_May_17_1110,MusicAffectPsychophysiology2019,3.0.5,59.68346100778089,
To what extent did the music make you feel ,ANXIOUS ,30MonoWAV/30MonoT3.wav,2,1,4,15,,,,,0,10,10,14,0,0,0,1,,,2,3.283346154988976,3,1.4691416090063285,4,0.3019419139891397,1,2.13475965501857,,,042,001,2019_May_17_1110,MusicAffectPsychophysiology2019,3.0.5,59.68346100778089,
To what extent did the music make you feel ,GUILTY,30MonoWAV/30MonoT3.wav,2,1,4,15,,,,,0,10,10,14,0,1,1,5,,,,,,,,,1,0.8518474879965652,,,042,001,2019_May_17_1110,MusicAffectPsychophysiology2019,3.0.5,59.68346100778089,
To what extent did the music make you feel ,EXCITED,30MonoWAV/30MonoT3.wav,2,1,4,15,,,,,0,10,10,14,0,2,2,7,,,,,,,,,2,1.3027899370063096,,,042,001,2019_May_17_1110,MusicAffectPsychophysiology2019,3.0.5,59.68346100778089,
To what extent did the music make you feel ,FRUSTRATED,30MonoWAV/30MonoT3.wav,2,1,4,15,,,,,0,10,10,14,0,3,3,3,,,,,,,,,1,1.2512828930048272,,,042,001,2019_May_17_1110,MusicAffectPsychophysiology2019,3.0.5,59.68346100778089,
To what extent did the music make you feel ,ACTIVE,30MonoWAV/30MonoT3.wav,2,1,4,15,,,,,0,10,10,14,0,4,4,9,,,,,,,,,2,1.1665620939747896,,,042,001,2019_May_17_1110,MusicAffectPsychophysiology2019,3.0.5,59.68346100778089,
To what extent did the music make you feel ,SAD,30MonoWAV/30MonoT3.wav,2,1,4,15,,,,,0,10,10,14,0,5,5,0,,,,,,,,,3,1.4184375850018114,,,042,001,2019_May_17_1110,MusicAffectPsychophysiology2019,3.0.5,59.68346100778089,
To what extent did the music make you feel ,ANGRY,30MonoWAV/30MonoT3.wav,2,1,4,15,,,,,0,10,10,14,0,6,6,2,,,,,,,,,1,2.7668127520009875,,,042,001,2019_May_17_1110,MusicAffectPsychophysiology2019,3.0.5,59.68346100778089,
To what extent did the music make you feel ,SCARED,30MonoWAV/30MonoT3.wav,2,1,4,15,,,,,0,10,10,14,0,7,7,11,,,,,,,,,2,1.0854196869768202,,,042,001,2019_May_17_1110,MusicAffectPsychophysiology2019,3.0.5,59.68346100778089,
To what extent did the music make you feel ,ALERT,30MonoWAV/30MonoT3.wav,2,1,4,15,,,,,0,10,10,14,0,8,8,8,,,,,,,,,2,1.8847711580165196,,,042,001,2019_May_17_1110,MusicAffectPsychophysiology2019,3.0.5,59.68346100778089,
To what extent did the music make you feel ,TENDER,30MonoWAV/30MonoT3.wav,2,1,4,15,,,,,0,10,10,14,0,9,9,10,,,,,,,,,2,1.4351099880004767,,,042,001,2019_May_17_1110,MusicAffectPsychophysiology2019,3.0.5,59.68346100778089,
To what extent did the music make you feel ,HAPPY,30MonoWAV/30MonoT3.wav,2,1,4,15,,,,,0,10,10,14,0,10,10,6,,,,,,,,,3,2.166244894004194,,,042,001,2019_May_17_1110,MusicAffectPsychophysiology2019,3.0.5,59.68346100778089,
To what extent did the music make you feel ,ASHAMED,30MonoWAV/30MonoT3.wav,2,1,4,15,,,,,0,10,10,14,0,11,11,4,,,,,,,,,1,0.9186758430150803,,,042,001,2019_May_17_1110,MusicAffectPsychophysiology2019,3.0.5,59.68346100778089,
,,30MonoWAV/30MonoT3.wav,2,1,4,15,,,,,0,10,10,14,,,,,,,,,,,,,,,,,042,001,2019_May_17_1110,MusicAffectPsychophysiology2019,3.0.5,59.68346100778089,
To what extent did the music make you feel ,ACTIVE,30MonoWAV/30MonoH4.wav,2,2,1,8,,,,,0,11,11,7,0,0,0,9,,,4,3.1017328280140646,3,1.4354179470101371,3,1.2523013459867798,4,1.617919365002308,,,042,001,2019_May_17_1110,MusicAffectPsychophysiology2019,3.0.5,59.68346100778089,
To what extent did the music make you feel ,ALERT,30MonoWAV/30MonoH4.wav,2,2,1,8,,,,,0,11,11,7,0,1,1,8,,,,,,,,,5,1.134014783980092,,,042,001,2019_May_17_1110,MusicAffectPsychophysiology2019,3.0.5,59.68346100778089,
To what extent did the music make you feel ,HAPPY,30MonoWAV/30MonoH4.wav,2,2,1,8,,,,,0,11,11,7,0,2,2,6,,,,,,,,,2,1.4679636420041788,,,042,001,2019_May_17_1110,MusicAffectPsychophysiology2019,3.0.5,59.68346100778089,
To what extent did the music make you feel ,TENDER,30MonoWAV/30MonoH4.wav,2,2,1,8,,,,,0,11,11,7,0,3,3,10,,,,,,,,,1,0.9349659929866903,,,042,001,2019_May_17_1110,MusicAffectPsychophysiology2019,3.0.5,59.68346100778089,
To what extent did the music make you feel ,SCARED,30MonoWAV/30MonoH4.wav,2,2,1,8,,,,,0,11,11,7,0,4,4,11,,,,,,,,,1,0.8027480019954965,,,042,001,2019_May_17_1110,MusicAffectPsychophysiology2019,3.0.5,59.68346100778089,
To what extent did the music make you feel ,ANGRY,30MonoWAV/30MonoH4.wav,2,2,1,8,,,,,0,11,11,7,0,5,5,2,,,,,,,,,1,0.8675428929855116,,,042,001,2019_May_17_1110,MusicAffectPsychophysiology2019,3.0.5,59.68346100778089,
To what extent did the music make you feel ,FRUSTRATED,30MonoWAV/30MonoH4.wav,2,2,1,8,,,,,0,11,11,7,0,6,6,3,,,,,,,,,1,1.0513213050144259,,,042,001,2019_May_17_1110,MusicAffectPsychophysiology2019,3.0.5,59.68346100778089,
To what extent did the music make you feel ,EXCITED,30MonoWAV/30MonoH4.wav,2,2,1,8,,,,,0,11,11,7,0,7,7,7,,,,,,,,,4,1.2853195840143599,,,042,001,2019_May_17_1110,MusicAffectPsychophysiology2019,3.0.5,59.68346100778089,
To what extent did the music make you feel ,SAD,30MonoWAV/30MonoH4.wav,2,2,1,8,,,,,0,11,11,7,0,8,8,0,,,,,,,,,1,0.985017330996925,,,042,001,2019_May_17_1110,MusicAffectPsychophysiology2019,3.0.5,59.68346100778089,
To what extent did the music make you feel ,ASHAMED,30MonoWAV/30MonoH4.wav,2,2,1,8,,,,,0,11,11,7,0,9,9,4,,,,,,,,,1,0.8867350969812833,,,042,001,2019_May_17_1110,MusicAffectPsychophysiology2019,3.0.5,59.68346100778089,
To what extent did the music make you feel ,ANXIOUS ,30MonoWAV/30MonoH4.wav,2,2,1,8,,,,,0,11,11,7,0,10,10,1,,,,,,,,,2,1.0857521219877526,,,042,001,2019_May_17_1110,MusicAffectPsychophysiology2019,3.0.5,59.68346100778089,
To what extent did the music make you feel ,GUILTY,30MonoWAV/30MonoH4.wav,2,2,1,8,,,,,0,11,11,7,0,11,11,5,,,,,,,,,1,1.019001145992661,,,042,001,2019_May_17_1110,MusicAffectPsychophysiology2019,3.0.5,59.68346100778089,
,,30MonoWAV/30MonoH4.wav,2,2,1,8,,,,,0,11,11,7,,,,,,,,,,,,,,,,,042,001,2019_May_17_1110,MusicAffectPsychophysiology2019,3.0.5,59.68346100778089,
To what extent did the music make you feel ,ALERT,30MonoWAV/30MonoT2.wav,2,1,4,14,,,,,0,12,12,13,0,0,0,8,,,4,2.5866648739902303,4,2.0861024569894653,4,2.185156554012792,4,1.83413424398168,,,042,001,2019_May_17_1110,MusicAffectPsychophysiology2019,3.0.5,59.68346100778089,
To what extent did the music make you feel ,GUILTY,30MonoWAV/30MonoT2.wav,2,1,4,14,,,,,0,12,12,13,0,1,1,5,,,,,,,,,2,2.1188527180056553,,,042,001,2019_May_17_1110,MusicAffectPsychophysiology2019,3.0.5,59.68346100778089,
To what extent did the music make you feel ,ANGRY,30MonoWAV/30MonoT2.wav,2,1,4,14,,,,,0,12,12,13,0,2,2,2,,,,,,,,,1,1.2514650100201834,,,042,001,2019_May_17_1110,MusicAffectPsychophysiology2019,3.0.5,59.68346100778089,
To what extent did the music make you feel ,TENDER,30MonoWAV/30MonoT2.wav,2,1,4,14,,,,,0,12,12,13,0,3,3,10,,,,,,,,,3,1.001866306993179,,,042,001,2019_May_17_1110,MusicAffectPsychophysiology2019,3.0.5,59.68346100778089,
To what extent did the music make you feel ,ANXIOUS ,30MonoWAV/30MonoT2.wav,2,1,4,14,,,,,0,12,12,13,0,4,4,1,,,,,,,,,2,1.1858272599929478,,,042,001,2019_May_17_1110,MusicAffectPsychophysiology2019,3.0.5,59.68346100778089,
To what extent did the music make you feel ,SCARED,30MonoWAV/30MonoT2.wav,2,1,4,14,,,,,0,12,12,13,0,5,5,11,,,,,,,,,1,2.2495193580107298,,,042,001,2019_May_17_1110,MusicAffectPsychophysiology2019,3.0.5,59.68346100778089,
To what extent did the music make you feel ,EXCITED,30MonoWAV/30MonoT2.wav,2,1,4,14,,,,,0,12,12,13,0,6,6,7,,,,,,,,,4,1.1026937700225972,,,042,001,2019_May_17_1110,MusicAffectPsychophysiology2019,3.0.5,59.68346100778089,
To what extent did the music make you feel ,ACTIVE,30MonoWAV/30MonoT2.wav,2,1,4,14,,,,,0,12,12,13,0,7,7,9,,,,,,,,,4,1.5176506169955246,,,042,001,2019_May_17_1110,MusicAffectPsychophysiology2019,3.0.5,59.68346100778089,
To what extent did the music make you feel ,ASHAMED,30MonoWAV/30MonoT2.wav,2,1,4,14,,,,,0,12,12,13,0,8,8,4,,,,,,,,,1,1.052794693998294,,,042,001,2019_May_17_1110,MusicAffectPsychophysiology2019,3.0.5,59.68346100778089,
To what extent did the music make you feel ,HAPPY,30MonoWAV/30MonoT2.wav,2,1,4,14,,,,,0,12,12,13,0,9,9,6,,,,,,,,,4,1.452413859020453,,,042,001,2019_May_17_1110,MusicAffectPsychophysiology2019,3.0.5,59.68346100778089,
To what extent did the music make you feel ,FRUSTRATED,30MonoWAV/30MonoT2.wav,2,1,4,14,,,,,0,12,12,13,0,10,10,3,,,,,,,,,1,1.8851602060021833,,,042,001,2019_May_17_1110,MusicAffectPsychophysiology2019,3.0.5,59.68346100778089,
To what extent did the music make you feel ,SAD,30MonoWAV/30MonoT2.wav,2,1,4,14,,,,,0,12,12,13,0,11,11,0,,,,,,,,,2,1.0826459570089355,,,042,001,2019_May_17_1110,MusicAffectPsychophysiology2019,3.0.5,59.68346100778089,
,,30MonoWAV/30MonoT2.wav,2,1,4,14,,,,,0,12,12,13,,,,,,,,,,,,,,,,,042,001,2019_May_17_1110,MusicAffectPsychophysiology2019,3.0.5,59.68346100778089,
To what extent did the music make you feel ,HAPPY,30MonoWAV/30MonoT4.wav,2,1,4,16,,,,,0,13,13,15,0,0,0,6,,,5,3.10327888399479,4,2.4722169309970923,5,0.6851981359941419,4,1.9035487239889335,,,042,001,2019_May_17_1110,MusicAffectPsychophysiology2019,3.0.5,59.68346100778089,
To what extent did the music make you feel ,SCARED,30MonoWAV/30MonoT4.wav,2,1,4,16,,,,,0,13,13,15,0,1,1,11,,,,,,,,,1,2.4561464239959605,,,042,001,2019_May_17_1110,MusicAffectPsychophysiology2019,3.0.5,59.68346100778089,
To what extent did the music make you feel ,ANXIOUS ,30MonoWAV/30MonoT4.wav,2,1,4,16,,,,,0,13,13,15,0,2,2,1,,,,,,,,,2,0.8697958219854627,,,042,001,2019_May_17_1110,MusicAffectPsychophysiology2019,3.0.5,59.68346100778089,
To what extent did the music make you feel ,ANGRY,30MonoWAV/30MonoT4.wav,2,1,4,16,,,,,0,13,13,15,0,3,3,2,,,,,,,,,1,0.9193036200013012,,,042,001,2019_May_17_1110,MusicAffectPsychophysiology2019,3.0.5,59.68346100778089,
To what extent did the music make you feel ,TENDER,30MonoWAV/30MonoT4.wav,2,1,4,16,,,,,0,13,13,15,0,4,4,10,,,,,,,,,3,1.1229638410150073,,,042,001,2019_May_17_1110,MusicAffectPsychophysiology2019,3.0.5,59.68346100778089,
To what extent did the music make you feel ,GUILTY,30MonoWAV/30MonoT4.wav,2,1,4,16,,,,,0,13,13,15,0,5,5,5,,,,,,,,,2,2.9182620469946414,,,042,001,2019_May_17_1110,MusicAffectPsychophysiology2019,3.0.5,59.68346100778089,
To what extent did the music make you feel ,ACTIVE,30MonoWAV/30MonoT4.wav,2,1,4,16,,,,,0,13,13,15,0,6,6,9,,,,,,,,,4,1.235738005983876,,,042,001,2019_May_17_1110,MusicAffectPsychophysiology2019,3.0.5,59.68346100778089,
To what extent did the music make you feel ,FRUSTRATED,30MonoWAV/30MonoT4.wav,2,1,4,16,,,,,0,13,13,15,0,7,7,3,,,,,,,,,1,1.1348423739837017,,,042,001,2019_May_17_1110,MusicAffectPsychophysiology2019,3.0.5,59.68346100778089,
To what extent did the music make you feel ,ALERT,30MonoWAV/30MonoT4.wav,2,1,4,16,,,,,0,13,13,15,0,8,8,8,,,,,,,,,5,1.151862856990192,,,042,001,2019_May_17_1110,MusicAffectPsychophysiology2019,3.0.5,59.68346100778089,
To what extent did the music make you feel ,ASHAMED,30MonoWAV/30MonoT4.wav,2,1,4,16,,,,,0,13,13,15,0,9,9,4,,,,,,,,,1,0.9020102149806917,,,042,001,2019_May_17_1110,MusicAffectPsychophysiology2019,3.0.5,59.68346100778089,
To what extent did the music make you feel ,SAD,30MonoWAV/30MonoT4.wav,2,1,4,16,,,,,0,13,13,15,0,10,10,0,,,,,,,,,3,1.501277981995372,,,042,001,2019_May_17_1110,MusicAffectPsychophysiology2019,3.0.5,59.68346100778089,
To what extent did the music make you feel ,EXCITED,30MonoWAV/30MonoT4.wav,2,1,4,16,,,,,0,13,13,15,0,11,11,7,,,,,,,,,5,1.2024160450091586,,,042,001,2019_May_17_1110,MusicAffectPsychophysiology2019,3.0.5,59.68346100778089,
,,30MonoWAV/30MonoT4.wav,2,1,4,16,,,,,0,13,13,15,,,,,,,,,,,,,,,,,042,001,2019_May_17_1110,MusicAffectPsychophysiology2019,3.0.5,59.68346100778089,
To what extent did the music make you feel ,HAPPY,30MonoWAV/30MonoH1.wav,2,2,1,5,,,,,0,14,14,4,0,0,0,6,,,5,2.719626745005371,5,3.0848316320043523,5,1.4343995249946602,5,1.3353437129990198,,,042,001,2019_May_17_1110,MusicAffectPsychophysiology2019,3.0.5,59.68346100778089,
To what extent did the music make you feel ,EXCITED,30MonoWAV/30MonoH1.wav,2,2,1,5,,,,,0,14,14,4,0,1,1,7,,,,,,,,,5,1.152849028003402,,,042,001,2019_May_17_1110,MusicAffectPsychophysiology2019,3.0.5,59.68346100778089,
To what extent did the music make you feel ,ALERT,30MonoWAV/30MonoH1.wav,2,2,1,5,,,,,0,14,14,4,0,2,2,8,,,,,,,,,4,1.0183526829932816,,,042,001,2019_May_17_1110,MusicAffectPsychophysiology2019,3.0.5,59.68346100778089,
To what extent did the music make you feel ,ACTIVE,30MonoWAV/30MonoH1.wav,2,2,1,5,,,,,0,14,14,4,0,3,3,9,,,,,,,,,4,1.0683175929880235,,,042,001,2019_May_17_1110,MusicAffectPsychophysiology2019,3.0.5,59.68346100778089,
To what extent did the music make you feel ,FRUSTRATED,30MonoWAV/30MonoH1.wav,2,2,1,5,,,,,0,14,14,4,0,4,4,3,,,,,,,,,1,1.8525070690084249,,,042,001,2019_May_17_1110,MusicAffectPsychophysiology2019,3.0.5,59.68346100778089,
To what extent did the music make you feel ,ANGRY,30MonoWAV/30MonoH1.wav,2,2,1,5,,,,,0,14,14,4,0,5,5,2,,,,,,,,,1,1.3354553199897055,,,042,001,2019_May_17_1110,MusicAffectPsychophysiology2019,3.0.5,59.68346100778089,
To what extent did the music make you feel ,TENDER,30MonoWAV/30MonoH1.wav,2,2,1,5,,,,,0,14,14,4,0,6,6,10,,,,,,,,,1,1.9850439699948765,,,042,001,2019_May_17_1110,MusicAffectPsychophysiology2019,3.0.5,59.68346100778089,
To what extent did the music make you feel ,GUILTY,30MonoWAV/30MonoH1.wav,2,2,1,5,,,,,0,14,14,4,0,7,7,5,,,,,,,,,1,1.4358324400091078,,,042,001,2019_May_17_1110,MusicAffectPsychophysiology2019,3.0.5,59.68346100778089,
To what extent did the music make you feel ,ANXIOUS ,30MonoWAV/30MonoH1.wav,2,2,1,5,,,,,0,14,14,4,0,8,8,1,,,,,,,,,1,0.635024330986198,,,042,001,2019_May_17_1110,MusicAffectPsychophysiology2019,3.0.5,59.68346100778089,
To what extent did the music make you feel ,SAD,30MonoWAV/30MonoH1.wav,2,2,1,5,,,,,0,14,14,4,0,9,9,0,,,,,,,,,1,0.5356688220053911,,,042,001,2019_May_17_1110,MusicAffectPsychophysiology2019,3.0.5,59.68346100778089,
To what extent did the music make you feel ,ASHAMED,30MonoWAV/30MonoH1.wav,2,2,1,5,,,,,0,14,14,4,0,10,10,4,,,,,,,,,1,0.7511780189815909,,,042,001,2019_May_17_1110,MusicAffectPsychophysiology2019,3.0.5,59.68346100778089,
To what extent did the music make you feel ,SCARED,30MonoWAV/30MonoH1.wav,2,2,1,5,,,,,0,14,14,4,0,11,11,11,,,,,,,,,1,1.1187587320164312,,,042,001,2019_May_17_1110,MusicAffectPsychophysiology2019,3.0.5,59.68346100778089,
,,30MonoWAV/30MonoH1.wav,2,2,1,5,,,,,0,14,14,4,,,,,,,,,,,,,,,,,042,001,2019_May_17_1110,MusicAffectPsychophysiology2019,3.0.5,59.68346100778089,
To what extent did the music make you feel ,FRUSTRATED,30MonoWAV/30MonoF2.wav,1,2,2,2,,,,,0,15,15,1,0,0,0,3,,,5,2.435865740000736,4,1.9006608780182432,5,0.9189415219880175,1,3.6465448750241194,,,042,001,2019_May_17_1110,MusicAffectPsychophysiology2019,3.0.5,59.68346100778089,
To what extent did the music make you feel ,GUILTY,30MonoWAV/30MonoF2.wav,1,2,2,2,,,,,0,15,15,1,0,1,1,5,,,,,,,,,1,0.9189705249737017,,,042,001,2019_May_17_1110,MusicAffectPsychophysiology2019,3.0.5,59.68346100778089,
To what extent did the music make you feel ,ANGRY,30MonoWAV/30MonoF2.wav,1,2,2,2,,,,,0,15,15,1,0,2,2,2,,,,,,,,,1,1.3181495610042475,,,042,001,2019_May_17_1110,MusicAffectPsychophysiology2019,3.0.5,59.68346100778089,
To what extent did the music make you feel ,TENDER,30MonoWAV/30MonoF2.wav,1,2,2,2,,,,,0,15,15,1,0,3,3,10,,,,,,,,,1,1.1518032979802229,,,042,001,2019_May_17_1110,MusicAffectPsychophysiology2019,3.0.5,59.68346100778089,
To what extent did the music make you feel ,EXCITED,30MonoWAV/30MonoF2.wav,1,2,2,2,,,,,0,15,15,1,0,4,4,7,,,,,,,,,4,1.318533492012648,,,042,001,2019_May_17_1110,MusicAffectPsychophysiology2019,3.0.5,59.68346100778089,
To what extent did the music make you feel ,ANXIOUS ,30MonoWAV/30MonoF2.wav,1,2,2,2,,,,,0,15,15,1,0,5,5,1,,,,,,,,,2,1.0853925650008023,,,042,001,2019_May_17_1110,MusicAffectPsychophysiology2019,3.0.5,59.68346100778089,
To what extent did the music make you feel ,ASHAMED,30MonoWAV/30MonoF2.wav,1,2,2,2,,,,,0,15,15,1,0,6,6,4,,,,,,,,,1,1.819234596012393,,,042,001,2019_May_17_1110,MusicAffectPsychophysiology2019,3.0.5,59.68346100778089,
To what extent did the music make you feel ,ALERT,30MonoWAV/30MonoF2.wav,1,2,2,2,,,,,0,15,15,1,0,7,7,8,,,,,,,,,5,1.1696784099913202,,,042,001,2019_May_17_1110,MusicAffectPsychophysiology2019,3.0.5,59.68346100778089,
To what extent did the music make you feel ,HAPPY,30MonoWAV/30MonoF2.wav,1,2,2,2,,,,,0,15,15,1,0,8,8,6,,,,,,,,,2,1.468265823990805,,,042,001,2019_May_17_1110,MusicAffectPsychophysiology2019,3.0.5,59.68346100778089,
To what extent did the music make you feel ,SCARED,30MonoWAV/30MonoF2.wav,1,2,2,2,,,,,0,15,15,1,0,9,9,11,,,,,,,,,4,1.2517241280002054,,,042,001,2019_May_17_1110,MusicAffectPsychophysiology2019,3.0.5,59.68346100778089,
To what extent did the music make you feel ,ACTIVE,30MonoWAV/30MonoF2.wav,1,2,2,2,,,,,0,15,15,1,0,10,10,9,,,,,,,,,5,1.4525192790024448,,,042,001,2019_May_17_1110,MusicAffectPsychophysiology2019,3.0.5,59.68346100778089,
To what extent did the music make you feel ,SAD,30MonoWAV/30MonoF2.wav,1,2,2,2,,,,,0,15,15,1,0,11,11,0,,,,,,,,,1,1.0853427849942818,,,042,001,2019_May_17_1110,MusicAffectPsychophysiology2019,3.0.5,59.68346100778089,
,,30MonoWAV/30MonoF2.wav,1,2,2,2,,,,,0,15,15,1,,,,,,,,,,,,,,,,,042,001,2019_May_17_1110,MusicAffectPsychophysiology2019,3.0.5,59.68346100778089,
To what extent did the music make you feel ,SCARED,30MonoWAV/30MonoH2.wav,2,2,1,6,,,,,1,0,16,5,0,0,0,11,,,4,2.67068197298795,4,1.7692326190008316,4,3.369125940022059,1,3.1798450509959366,,,042,001,2019_May_17_1110,MusicAffectPsychophysiology2019,3.0.5,59.68346100778089,
To what extent did the music make you feel ,HAPPY,30MonoWAV/30MonoH2.wav,2,2,1,6,,,,,1,0,16,5,0,1,1,6,,,,,,,,,4,1.1849500200187322,,,042,001,2019_May_17_1110,MusicAffectPsychophysiology2019,3.0.5,59.68346100778089,
To what extent did the music make you feel ,TENDER,30MonoWAV/30MonoH2.wav,2,2,1,6,,,,,1,0,16,5,0,2,2,10,,,,,,,,,2,1.185093615000369,,,042,001,2019_May_17_1110,MusicAffectPsychophysiology2019,3.0.5,59.68346100778089,
To what extent did the music make you feel ,ANXIOUS ,30MonoWAV/30MonoH2.wav,2,2,1,6,,,,,1,0,16,5,0,3,3,1,,,,,,,,,2,1.435791986004915,,,042,001,2019_May_17_1110,MusicAffectPsychophysiology2019,3.0.5,59.68346100778089,
To what extent did the music make you feel ,ANGRY,30MonoWAV/30MonoH2.wav,2,2,1,6,,,,,1,0,16,5,0,4,4,2,,,,,,,,,2,1.3843838949978817,,,042,001,2019_May_17_1110,MusicAffectPsychophysiology2019,3.0.5,59.68346100778089,
To what extent did the music make you feel ,FRUSTRATED,30MonoWAV/30MonoH2.wav,2,2,1,6,,,,,1,0,16,5,0,5,5,3,,,,,,,,,1,1.0862178099923767,,,042,001,2019_May_17_1110,MusicAffectPsychophysiology2019,3.0.5,59.68346100778089,
To what extent did the music make you feel ,ACTIVE,30MonoWAV/30MonoH2.wav,2,2,1,6,,,,,1,0,16,5,0,6,6,9,,,,,,,,,5,1.251981404988328,,,042,001,2019_May_17_1110,MusicAffectPsychophysiology2019,3.0.5,59.68346100778089,
To what extent did the music make you feel ,ALERT,30MonoWAV/30MonoH2.wav,2,2,1,6,,,,,1,0,16,5,0,7,7,8,,,,,,,,,4,0.9353960079897661,,,042,001,2019_May_17_1110,MusicAffectPsychophysiology2019,3.0.5,59.68346100778089,
To what extent did the music make you feel ,ASHAMED,30MonoWAV/30MonoH2.wav,2,2,1,6,,,,,1,0,16,5,0,8,8,4,,,,,,,,,1,1.0022119809873402,,,042,001,2019_May_17_1110,MusicAffectPsychophysiology2019,3.0.5,59.68346100778089,
To what extent did the music make you feel ,GUILTY,30MonoWAV/30MonoH2.wav,2,2,1,6,,,,,1,0,16,5,0,9,9,5,,,,,,,,,1,2.2349056449893396,,,042,001,2019_May_17_1110,MusicAffectPsychophysiology2019,3.0.5,59.68346100778089,
To what extent did the music make you feel ,EXCITED,30MonoWAV/30MonoH2.wav,2,2,1,6,,,,,1,0,16,5,0,10,10,7,,,,,,,,,4,2.1529163039813284,,,042,001,2019_May_17_1110,MusicAffectPsychophysiology2019,3.0.5,59.68346100778089,
To what extent did the music make you feel ,SAD,30MonoWAV/30MonoH2.wav,2,2,1,6,,,,,1,0,16,5,0,11,11,0,,,,,,,,,1,1.4511178310203832,,,042,001,2019_May_17_1110,MusicAffectPsychophysiology2019,3.0.5,59.68346100778089,
,,30MonoWAV/30MonoH2.wav,2,2,1,6,,,,,1,0,16,5,,,,,,,,,,,,,,,,,042,001,2019_May_17_1110,MusicAffectPsychophysiology2019,3.0.5,59.68346100778089,
To what extent did the music make you feel ,TENDER,30MonoWAV/30MonoS4.wav,1,1,3,12,,,,,1,1,17,11,0,0,0,10,,,3,4.03987445202074,4,1.1533921910158824,5,0.8687909879954532,3,1.6198504499916453,,,042,001,2019_May_17_1110,MusicAffectPsychophysiology2019,3.0.5,59.68346100778089,
To what extent did the music make you feel ,ASHAMED,30MonoWAV/30MonoS4.wav,1,1,3,12,,,,,1,1,17,11,0,1,1,4,,,,,,,,,1,1.2027795169851743,,,042,001,2019_May_17_1110,MusicAffectPsychophysiology2019,3.0.5,59.68346100778089,
To what extent did the music make you feel ,HAPPY,30MonoWAV/30MonoS4.wav,1,1,3,12,,,,,1,1,17,11,0,2,2,6,,,,,,,,,4,1.6410188710142393,,,042,001,2019_May_17_1110,MusicAffectPsychophysiology2019,3.0.5,59.68346100778089,
To what extent did the music make you feel ,SAD,30MonoWAV/30MonoS4.wav,1,1,3,12,,,,,1,1,17,11,0,3,3,0,,,,,,,,,2,1.0360479980008677,,,042,001,2019_May_17_1110,MusicAffectPsychophysiology2019,3.0.5,59.68346100778089,
To what extent did the music make you feel ,ALERT,30MonoWAV/30MonoS4.wav,1,1,3,12,,,,,1,1,17,11,0,4,4,8,,,,,,,,,4,1.4355284530029166,,,042,001,2019_May_17_1110,MusicAffectPsychophysiology2019,3.0.5,59.68346100778089,
To what extent did the music make you feel ,ANGRY,30MonoWAV/30MonoS4.wav,1,1,3,12,,,,,1,1,17,11,0,5,5,2,,,,,,,,,1,1.101225341000827,,,042,001,2019_May_17_1110,MusicAffectPsychophysiology2019,3.0.5,59.68346100778089,
To what extent did the music make you feel ,SCARED,30MonoWAV/30MonoS4.wav,1,1,3,12,,,,,1,1,17,11,0,6,6,11,,,,,,,,,1,2.5330689050024375,,,042,001,2019_May_17_1110,MusicAffectPsychophysiology2019,3.0.5,59.68346100778089,
To what extent did the music make you feel ,FRUSTRATED,30MonoWAV/30MonoS4.wav,1,1,3,12,,,,,1,1,17,11,0,7,7,3,,,,,,,,,1,0.9349947479786351,,,042,001,2019_May_17_1110,MusicAffectPsychophysiology2019,3.0.5,59.68346100778089,
To what extent did the music make you feel ,ANXIOUS ,30MonoWAV/30MonoS4.wav,1,1,3,12,,,,,1,1,17,11,0,8,8,1,,,,,,,,,2,1.4344697320193518,,,042,001,2019_May_17_1110,MusicAffectPsychophysiology2019,3.0.5,59.68346100778089,
To what extent did the music make you feel ,EXCITED,30MonoWAV/30MonoS4.wav,1,1,3,12,,,,,1,1,17,11,0,9,9,7,,,,,,,,,4,1.70147702502436,,,042,001,2019_May_17_1110,MusicAffectPsychophysiology2019,3.0.5,59.68346100778089,
To what extent did the music make you feel ,GUILTY,30MonoWAV/30MonoS4.wav,1,1,3,12,,,,,1,1,17,11,0,10,10,5,,,,,,,,,1,1.302169174014125,,,042,001,2019_May_17_1110,MusicAffectPsychophysiology2019,3.0.5,59.68346100778089,
To what extent did the music make you feel ,ACTIVE,30MonoWAV/30MonoS4.wav,1,1,3,12,,,,,1,1,17,11,0,11,11,9,,,,,,,,,4,1.4520527310087346,,,042,001,2019_May_17_1110,MusicAffectPsychophysiology2019,3.0.5,59.68346100778089,
,,30MonoWAV/30MonoS4.wav,1,1,3,12,,,,,1,1,17,11,,,,,,,,,,,,,,,,,042,001,2019_May_17_1110,MusicAffectPsychophysiology2019,3.0.5,59.68346100778089,
To what extent did the music make you feel ,EXCITED,30MonoWAV/30MonoF3.wav,1,2,2,3,,,,,1,2,18,2,0,0,0,7,,,4,2.5856969130109064,3,2.2520849549910054,3,1.5006615380116273,4,1.2856097210024018,,,042,001,2019_May_17_1110,MusicAffectPsychophysiology2019,3.0.5,59.68346100778089,
To what extent did the music make you feel ,SCARED,30MonoWAV/30MonoF3.wav,1,2,2,3,,,,,1,2,18,2,0,1,1,11,,,,,,,,,4,2.084686503978446,,,042,001,2019_May_17_1110,MusicAffectPsychophysiology2019,3.0.5,59.68346100778089,
To what extent did the music make you feel ,ANXIOUS ,30MonoWAV/30MonoF3.wav,1,2,2,3,,,,,1,2,18,2,0,2,2,1,,,,,,,,,2,1.0022870000102557,,,042,001,2019_May_17_1110,MusicAffectPsychophysiology2019,3.0.5,59.68346100778089,
To what extent did the music make you feel ,GUILTY,30MonoWAV/30MonoF3.wav,1,2,2,3,,,,,1,2,18,2,0,3,3,5,,,,,,,,,1,0.9520851440029219,,,042,001,2019_May_17_1110,MusicAffectPsychophysiology2019,3.0.5,59.68346100778089,
To what extent did the music make you feel ,ASHAMED,30MonoWAV/30MonoF3.wav,1,2,2,3,,,,,1,2,18,2,0,4,4,4,,,,,,,,,1,0.6009993430052418,,,042,001,2019_May_17_1110,MusicAffectPsychophysiology2019,3.0.5,59.68346100778089,
To what extent did the music make you feel ,ANGRY,30MonoWAV/30MonoF3.wav,1,2,2,3,,,,,1,2,18,2,0,5,5,2,,,,,,,,,1,0.9525663240056019,,,042,001,2019_May_17_1110,MusicAffectPsychophysiology2019,3.0.5,59.68346100778089,
To what extent did the music make you feel ,ALERT,30MonoWAV/30MonoF3.wav,1,2,2,3,,,,,1,2,18,2,0,6,6,8,,,,,,,,,4,1.2191490970144514,,,042,001,2019_May_17_1110,MusicAffectPsychophysiology2019,3.0.5,59.68346100778089,
To what extent did the music make you feel ,SAD,30MonoWAV/30MonoF3.wav,1,2,2,3,,,,,1,2,18,2,0,7,7,0,,,,,,,,,1,1.4857909280108288,,,042,001,2019_May_17_1110,MusicAffectPsychophysiology2019,3.0.5,59.68346100778089,
To what extent did the music make you feel ,TENDER,30MonoWAV/30MonoF3.wav,1,2,2,3,,,,,1,2,18,2,0,8,8,10,,,,,,,,,1,1.1362136399839073,,,042,001,2019_May_17_1110,MusicAffectPsychophysiology2019,3.0.5,59.68346100778089,
To what extent did the music make you feel ,ACTIVE,30MonoWAV/30MonoF3.wav,1,2,2,3,,,,,1,2,18,2,0,9,9,9,,,,,,,,,4,1.9845779439783655,,,042,001,2019_May_17_1110,MusicAffectPsychophysiology2019,3.0.5,59.68346100778089,
To what extent did the music make you feel ,FRUSTRATED,30MonoWAV/30MonoF3.wav,1,2,2,3,,,,,1,2,18,2,0,10,10,3,,,,,,,,,1,1.435864978004247,,,042,001,2019_May_17_1110,MusicAffectPsychophysiology2019,3.0.5,59.68346100778089,
To what extent did the music make you feel ,HAPPY,30MonoWAV/30MonoF3.wav,1,2,2,3,,,,,1,2,18,2,0,11,11,6,,,,,,,,,3,1.6684019929962233,,,042,001,2019_May_17_1110,MusicAffectPsychophysiology2019,3.0.5,59.68346100778089,
,,30MonoWAV/30MonoF3.wav,1,2,2,3,,,,,1,2,18,2,,,,,,,,,,,,,,,,,042,001,2019_May_17_1110,MusicAffectPsychophysiology2019,3.0.5,59.68346100778089,
To what extent did the music make you feel ,FRUSTRATED,30MonoWAV/30MonoS2.wav,1,1,3,10,,,,,1,3,19,9,0,0,0,3,,,3,3.4205916579812765,2,2.01871480801492,5,2.1350745869858656,1,2.2776643380057067,,,042,001,2019_May_17_1110,MusicAffectPsychophysiology2019,3.0.5,59.68346100778089,
To what extent did the music make you feel ,HAPPY,30MonoWAV/30MonoS2.wav,1,1,3,10,,,,,1,3,19,9,0,1,1,6,,,,,,,,,1,1.768419747997541,,,042,001,2019_May_17_1110,MusicAffectPsychophysiology2019,3.0.5,59.68346100778089,
To what extent did the music make you feel ,SAD,30MonoWAV/30MonoS2.wav,1,1,3,10,,,,,1,3,19,9,0,2,2,0,,,,,,,,,5,1.234711539989803,,,042,001,2019_May_17_1110,MusicAffectPsychophysiology2019,3.0.5,59.68346100778089,
To what extent did the music make you feel ,ANXIOUS ,30MonoWAV/30MonoS2.wav,1,1,3,10,,,,,1,3,19,9,0,3,3,1,,,,,,,,,2,1.2682572359917685,,,042,001,2019_May_17_1110,MusicAffectPsychophysiology2019,3.0.5,59.68346100778089,
To what extent did the music make you feel ,ALERT,30MonoWAV/30MonoS2.wav,1,1,3,10,,,,,1,3,19,9,0,4,4,8,,,,,,,,,3,1.4520047160040122,,,042,001,2019_May_17_1110,MusicAffectPsychophysiology2019,3.0.5,59.68346100778089,
To what extent did the music make you feel ,ASHAMED,30MonoWAV/30MonoS2.wav,1,1,3,10,,,,,1,3,19,9,0,5,5,4,,,,,,,,,2,1.6862930329807568,,,042,001,2019_May_17_1110,MusicAffectPsychophysiology2019,3.0.5,59.68346100778089,
To what extent did the music make you feel ,GUILTY,30MonoWAV/30MonoS2.wav,1,1,3,10,,,,,1,3,19,9,0,6,6,5,,,,,,,,,4,1.6505175710190088,,,042,001,2019_May_17_1110,MusicAffectPsychophysiology2019,3.0.5,59.68346100778089,
To what extent did the music make you feel ,TENDER,30MonoWAV/30MonoS2.wav,1,1,3,10,,,,,1,3,19,9,0,7,7,10,,,,,,,,,5,2.0002573060046416,,,042,001,2019_May_17_1110,MusicAffectPsychophysiology2019,3.0.5,59.68346100778089,
To what extent did the music make you feel ,ACTIVE,30MonoWAV/30MonoS2.wav,1,1,3,10,,,,,1,3,19,9,0,8,8,9,,,,,,,,,2,2.28562644100748,,,042,001,2019_May_17_1110,MusicAffectPsychophysiology2019,3.0.5,59.68346100778089,
To what extent did the music make you feel ,EXCITED,30MonoWAV/30MonoS2.wav,1,1,3,10,,,,,1,3,19,9,0,9,9,7,,,,,,,,,1,1.1511600429948885,,,042,001,2019_May_17_1110,MusicAffectPsychophysiology2019,3.0.5,59.68346100778089,
To what extent did the music make you feel ,SCARED,30MonoWAV/30MonoS2.wav,1,1,3,10,,,,,1,3,19,9,0,10,10,11,,,,,,,,,3,1.2013532250130083,,,042,001,2019_May_17_1110,MusicAffectPsychophysiology2019,3.0.5,59.68346100778089,
To what extent did the music make you feel ,ANGRY,30MonoWAV/30MonoS2.wav,1,1,3,10,,,,,1,3,19,9,0,11,11,2,,,,,,,,,1,0.9179134419828188,,,042,001,2019_May_17_1110,MusicAffectPsychophysiology2019,3.0.5,59.68346100778089,
,,30MonoWAV/30MonoS2.wav,1,1,3,10,,,,,1,3,19,9,,,,,,,,,,,,,,,,,042,001,2019_May_17_1110,MusicAffectPsychophysiology2019,3.0.5,59.68346100778089,
To what extent did the music make you feel ,ASHAMED,30MonoWAV/30MonoH3.wav,2,2,1,7,,,,,1,4,20,6,0,0,0,4,,,4,4.001494633004768,3,1.785586988000432,3,1.3185389599821065,1,1.9017728539765812,,,042,001,2019_May_17_1110,MusicAffectPsychophysiology2019,3.0.5,59.68346100778089,
To what extent did the music make you feel ,SAD,30MonoWAV/30MonoH3.wav,2,2,1,7,,,,,1,4,20,6,0,1,1,0,,,,,,,,,1,1.217467423004564,,,042,001,2019_May_17_1110,MusicAffectPsychophysiology2019,3.0.5,59.68346100778089,
To what extent did the music make you feel ,FRUSTRATED,30MonoWAV/30MonoH3.wav,2,2,1,7,,,,,1,4,20,6,0,2,2,3,,,,,,,,,3,1.4689630210050382,,,042,001,2019_May_17_1110,MusicAffectPsychophysiology2019,3.0.5,59.68346100778089,
To what extent did the music make you feel ,EXCITED,30MonoWAV/30MonoH3.wav,2,2,1,7,,,,,1,4,20,6,0,3,3,7,,,,,,,,,4,1.0172968370025046,,,042,001,2019_May_17_1110,MusicAffectPsychophysiology2019,3.0.5,59.68346100778089,
To what extent did the music make you feel ,SCARED,30MonoWAV/30MonoH3.wav,2,2,1,7,,,,,1,4,20,6,0,4,4,11,,,,,,,,,1,1.1021837290027179,,,042,001,2019_May_17_1110,MusicAffectPsychophysiology2019,3.0.5,59.68346100778089,
To what extent did the music make you feel ,HAPPY,30MonoWAV/30MonoH3.wav,2,2,1,7,,,,,1,4,20,6,0,5,5,6,,,,,,,,,4,1.0677392540092114,,,042,001,2019_May_17_1110,MusicAffectPsychophysiology2019,3.0.5,59.68346100778089,
To what extent did the music make you feel ,ANXIOUS ,30MonoWAV/30MonoH3.wav,2,2,1,7,,,,,1,4,20,6,0,6,6,1,,,,,,,,,2,1.0530981270130724,,,042,001,2019_May_17_1110,MusicAffectPsychophysiology2019,3.0.5,59.68346100778089,
To what extent did the music make you feel ,ALERT,30MonoWAV/30MonoH3.wav,2,2,1,7,,,,,1,4,20,6,0,7,7,8,,,,,,,,,4,1.8683507069945335,,,042,001,2019_May_17_1110,MusicAffectPsychophysiology2019,3.0.5,59.68346100778089,
To what extent did the music make you feel ,GUILTY,30MonoWAV/30MonoH3.wav,2,2,1,7,,,,,1,4,20,6,0,8,8,5,,,,,,,,,1,1.3519606130139437,,,042,001,2019_May_17_1110,MusicAffectPsychophysiology2019,3.0.5,59.68346100778089,
To what extent did the music make you feel ,ACTIVE,30MonoWAV/30MonoH3.wav,2,2,1,7,,,,,1,4,20,6,0,9,9,9,,,,,,,,,4,1.4693404990248382,,,042,001,2019_May_17_1110,MusicAffectPsychophysiology2019,3.0.5,59.68346100778089,
To what extent did the music make you feel ,TENDER,30MonoWAV/30MonoH3.wav,2,2,1,7,,,,,1,4,20,6,0,10,10,10,,,,,,,,,1,1.0516241599980276,,,042,001,2019_May_17_1110,MusicAffectPsychophysiology2019,3.0.5,59.68346100778089,
To what extent did the music make you feel ,ANGRY,30MonoWAV/30MonoH3.wav,2,2,1,7,,,,,1,4,20,6,0,11,11,2,,,,,,,,,2,1.5516240329889115,,,042,001,2019_May_17_1110,MusicAffectPsychophysiology2019,3.0.5,59.68346100778089,
,,30MonoWAV/30MonoH3.wav,2,2,1,7,,,,,1,4,20,6,,,,,,,,,,,,,,,,,042,001,2019_May_17_1110,MusicAffectPsychophysiology2019,3.0.5,59.68346100778089,
To what extent did the music make you feel ,FRUSTRATED,30MonoWAV/30MonoT2.wav,2,1,4,14,,,,,1,5,21,13,0,0,0,3,,,4,3.652576568973018,4,1.3335040509991813,4,0.8519625750195701,1,2.4692561510019004,,,042,001,2019_May_17_1110,MusicAffectPsychophysiology2019,3.0.5,59.68346100778089,
To what extent did the music make you feel ,HAPPY,30MonoWAV/30MonoT2.wav,2,1,4,14,,,,,1,5,21,13,0,1,1,6,,,,,,,,,3,1.2679529160086531,,,042,001,2019_May_17_1110,MusicAffectPsychophysiology2019,3.0.5,59.68346100778089,
To what extent did the music make you feel ,ACTIVE,30MonoWAV/30MonoT2.wav,2,1,4,14,,,,,1,5,21,13,0,2,2,9,,,,,,,,,3,1.6692820680036675,,,042,001,2019_May_17_1110,MusicAffectPsychophysiology2019,3.0.5,59.68346100778089,
To what extent did the music make you feel ,EXCITED,30MonoWAV/30MonoT2.wav,2,1,4,14,,,,,1,5,21,13,0,3,3,7,,,,,,,,,4,0.9684244219970424,,,042,001,2019_May_17_1110,MusicAffectPsychophysiology2019,3.0.5,59.68346100778089,
To what extent did the music make you feel ,ASHAMED,30MonoWAV/30MonoT2.wav,2,1,4,14,,,,,1,5,21,13,0,4,4,4,,,,,,,,,1,0.9182428930071183,,,042,001,2019_May_17_1110,MusicAffectPsychophysiology2019,3.0.5,59.68346100778089,
To what extent did the music make you feel ,TENDER,30MonoWAV/30MonoT2.wav,2,1,4,14,,,,,1,5,21,13,0,5,5,10,,,,,,,,,4,1.7525304110022262,,,042,001,2019_May_17_1110,MusicAffectPsychophysiology2019,3.0.5,59.68346100778089,
To what extent did the music make you feel ,ALERT,30MonoWAV/30MonoT2.wav,2,1,4,14,,,,,1,5,21,13,0,6,6,8,,,,,,,,,4,1.1019392930029426,,,042,001,2019_May_17_1110,MusicAffectPsychophysiology2019,3.0.5,59.68346100778089,
To what extent did the music make you feel ,SCARED,30MonoWAV/30MonoT2.wav,2,1,4,14,,,,,1,5,21,13,0,7,7,11,,,,,,,,,1,2.7677829210006166,,,042,001,2019_May_17_1110,MusicAffectPsychophysiology2019,3.0.5,59.68346100778089,
To what extent did the music make you feel ,SAD,30MonoWAV/30MonoT2.wav,2,1,4,14,,,,,1,5,21,13,0,8,8,0,,,,,,,,,2,1.4665730280103162,,,042,001,2019_May_17_1110,MusicAffectPsychophysiology2019,3.0.5,59.68346100778089,
To what extent did the music make you feel ,GUILTY,30MonoWAV/30MonoT2.wav,2,1,4,14,,,,,1,5,21,13,0,9,9,5,,,,,,,,,1,1.9184656880097464,,,042,001,2019_May_17_1110,MusicAffectPsychophysiology2019,3.0.5,59.68346100778089,
To what extent did the music make you feel ,ANGRY,30MonoWAV/30MonoT2.wav,2,1,4,14,,,,,1,5,21,13,0,10,10,2,,,,,,,,,1,0.8188659400038887,,,042,001,2019_May_17_1110,MusicAffectPsychophysiology2019,3.0.5,59.68346100778089,
To what extent did the music make you feel ,ANXIOUS ,30MonoWAV/30MonoT2.wav,2,1,4,14,,,,,1,5,21,13,0,11,11,1,,,,,,,,,2,0.7995512380148284,,,042,001,2019_May_17_1110,MusicAffectPsychophysiology2019,3.0.5,59.68346100778089,
,,30MonoWAV/30MonoT2.wav,2,1,4,14,,,,,1,5,21,13,,,,,,,,,,,,,,,,,042,001,2019_May_17_1110,MusicAffectPsychophysiology2019,3.0.5,59.68346100778089,
To what extent did the music make you feel ,SCARED,30MonoWAV/30MonoF1.wav,1,2,2,1,,,,,1,6,22,0,0,0,0,11,,,5,2.4022303300153,4,1.5514495090174023,5,0.2850711009814404,4,1.2353038209839724,,,042,001,2019_May_17_1110,MusicAffectPsychophysiology2019,3.0.5,59.68346100778089,
To what extent did the music make you feel ,ANXIOUS ,30MonoWAV/30MonoF1.wav,1,2,2,1,,,,,1,6,22,0,0,1,1,1,,,,,,,,,3,1.0351631919911597,,,042,001,2019_May_17_1110,MusicAffectPsychophysiology2019,3.0.5,59.68346100778089,
To what extent did the music make you feel ,SAD,30MonoWAV/30MonoF1.wav,1,2,2,1,,,,,1,6,22,0,0,2,2,0,,,,,,,,,1,0.9184228960075416,,,042,001,2019_May_17_1110,MusicAffectPsychophysiology2019,3.0.5,59.68346100778089,
To what extent did the music make you feel ,GUILTY,30MonoWAV/30MonoF1.wav,1,2,2,1,,,,,1,6,22,0,0,3,3,5,,,,,,,,,2,1.118682625994552,,,042,001,2019_May_17_1110,MusicAffectPsychophysiology2019,3.0.5,59.68346100778089,
To what extent did the music make you feel ,ALERT,30MonoWAV/30MonoF1.wav,1,2,2,1,,,,,1,6,22,0,0,4,4,8,,,,,,,,,5,1.1018173769989517,,,042,001,2019_May_17_1110,MusicAffectPsychophysiology2019,3.0.5,59.68346100778089,
To what extent did the music make you feel ,EXCITED,30MonoWAV/30MonoF1.wav,1,2,2,1,,,,,1,6,22,0,0,5,5,7,,,,,,,,,4,0.9685221629915759,,,042,001,2019_May_17_1110,MusicAffectPsychophysiology2019,3.0.5,59.68346100778089,
To what extent did the music make you feel ,FRUSTRATED,30MonoWAV/30MonoF1.wav,1,2,2,1,,,,,1,6,22,0,0,6,6,3,,,,,,,,,1,0.9998495100007858,,,042,001,2019_May_17_1110,MusicAffectPsychophysiology2019,3.0.5,59.68346100778089,
To what extent did the music make you feel ,ANGRY,30MonoWAV/30MonoF1.wav,1,2,2,1,,,,,1,6,22,0,0,7,7,2,,,,,,,,,2,3.2080338489904534,,,042,001,2019_May_17_1110,MusicAffectPsychophysiology2019,3.0.5,59.68346100778089,
To what extent did the music make you feel ,TENDER,30MonoWAV/30MonoF1.wav,1,2,2,1,,,,,1,6,22,0,0,8,8,10,,,,,,,,,1,0.9371439820097294,,,042,001,2019_May_17_1110,MusicAffectPsychophysiology2019,3.0.5,59.68346100778089,
To what extent did the music make you feel ,ASHAMED,30MonoWAV/30MonoF1.wav,1,2,2,1,,,,,1,6,22,0,0,9,9,4,,,,,,,,,1,1.153382315998897,,,042,001,2019_May_17_1110,MusicAffectPsychophysiology2019,3.0.5,59.68346100778089,
To what extent did the music make you feel ,HAPPY,30MonoWAV/30MonoF1.wav,1,2,2,1,,,,,1,6,22,0,0,10,10,6,,,,,,,,,1,1.4701427450054325,,,042,001,2019_May_17_1110,MusicAffectPsychophysiology2019,3.0.5,59.68346100778089,
To what extent did the music make you feel ,ACTIVE,30MonoWAV/30MonoF1.wav,1,2,2,1,,,,,1,6,22,0,0,11,11,9,,,,,,,,,5,1.084256069996627,,,042,001,2019_May_17_1110,MusicAffectPsychophysiology2019,3.0.5,59.68346100778089,
,,30MonoWAV/30MonoF1.wav,1,2,2,1,,,,,1,6,22,0,,,,,,,,,,,,,,,,,042,001,2019_May_17_1110,MusicAffectPsychophysiology2019,3.0.5,59.68346100778089,
To what extent did the music make you feel ,TENDER,30MonoWAV/30MonoH4.wav,2,2,1,8,,,,,1,7,23,7,0,0,0,10,,,5,4.736086334974971,4,1.0183155859995168,3,0.918736199993873,1,1.2346416260115802,,,042,001,2019_May_17_1110,MusicAffectPsychophysiology2019,3.0.5,59.68346100778089,
To what extent did the music make you feel ,ANXIOUS ,30MonoWAV/30MonoH4.wav,2,2,1,8,,,,,1,7,23,7,0,1,1,1,,,,,,,,,2,1.0352793399943039,,,042,001,2019_May_17_1110,MusicAffectPsychophysiology2019,3.0.5,59.68346100778089,
To what extent did the music make you feel ,SAD,30MonoWAV/30MonoH4.wav,2,2,1,8,,,,,1,7,23,7,0,2,2,0,,,,,,,,,1,0.7850474499864504,,,042,001,2019_May_17_1110,MusicAffectPsychophysiology2019,3.0.5,59.68346100778089,
To what extent did the music make you feel ,SCARED,30MonoWAV/30MonoH4.wav,2,2,1,8,,,,,1,7,23,7,0,3,3,11,,,,,,,,,1,0.7009963089949451,,,042,001,2019_May_17_1110,MusicAffectPsychophysiology2019,3.0.5,59.68346100778089,
To what extent did the music make you feel ,ANGRY,30MonoWAV/30MonoH4.wav,2,2,1,8,,,,,1,7,23,7,0,4,4,2,,,,,,,,,1,0.5851427110028453,,,042,001,2019_May_17_1110,MusicAffectPsychophysiology2019,3.0.5,59.68346100778089,
To what extent did the music make you feel ,ASHAMED,30MonoWAV/30MonoH4.wav,2,2,1,8,,,,,1,7,23,7,0,5,5,4,,,,,,,,,1,0.5517189399979543,,,042,001,2019_May_17_1110,MusicAffectPsychophysiology2019,3.0.5,59.68346100778089,
To what extent did the music make you feel ,FRUSTRATED,30MonoWAV/30MonoH4.wav,2,2,1,8,,,,,1,7,23,7,0,6,6,3,,,,,,,,,1,0.6358525750110857,,,042,001,2019_May_17_1110,MusicAffectPsychophysiology2019,3.0.5,59.68346100778089,
To what extent did the music make you feel ,ACTIVE,30MonoWAV/30MonoH4.wav,2,2,1,8,,,,,1,7,23,7,0,7,7,9,,,,,,,,,5,1.551888677990064,,,042,001,2019_May_17_1110,MusicAffectPsychophysiology2019,3.0.5,59.68346100778089,
To what extent did the music make you feel ,HAPPY,30MonoWAV/30MonoH4.wav,2,2,1,8,,,,,1,7,23,7,0,8,8,6,,,,,,,,,4,0.4852109380008187,,,042,001,2019_May_17_1110,MusicAffectPsychophysiology2019,3.0.5,59.68346100778089,
To what extent did the music make you feel ,ALERT,30MonoWAV/30MonoH4.wav,2,2,1,8,,,,,1,7,23,7,0,9,9,8,,,,,,,,,5,0.5863850210153032,,,042,001,2019_May_17_1110,MusicAffectPsychophysiology2019,3.0.5,59.68346100778089,
To what extent did the music make you feel ,GUILTY,30MonoWAV/30MonoH4.wav,2,2,1,8,,,,,1,7,23,7,0,10,10,5,,,,,,,,,2,1.667995304975193,,,042,001,2019_May_17_1110,MusicAffectPsychophysiology2019,3.0.5,59.68346100778089,
To what extent did the music make you feel ,EXCITED,30MonoWAV/30MonoH4.wav,2,2,1,8,,,,,1,7,23,7,0,11,11,7,,,,,,,,,5,1.2694278240087442,,,042,001,2019_May_17_1110,MusicAffectPsychophysiology2019,3.0.5,59.68346100778089,
,,30MonoWAV/30MonoH4.wav,2,2,1,8,,,,,1,7,23,7,,,,,,,,,,,,,,,,,042,001,2019_May_17_1110,MusicAffectPsychophysiology2019,3.0.5,59.68346100778089,
To what extent did the music make you feel ,SCARED,30MonoWAV/30MonoT3.wav,2,1,4,15,,,,,1,8,24,14,0,0,0,11,,,4,2.486067441990599,4,1.1357334540225565,3,1.133988435001811,1,2.268794822972268,,,042,001,2019_May_17_1110,MusicAffectPsychophysiology2019,3.0.5,59.68346100778089,
To what extent did the music make you feel ,ANGRY,30MonoWAV/30MonoT3.wav,2,1,4,15,,,,,1,8,24,14,0,1,1,2,,,,,,,,,1,1.0840932079881895,,,042,001,2019_May_17_1110,MusicAffectPsychophysiology2019,3.0.5,59.68346100778089,
To what extent did the music make you feel ,GUILTY,30MonoWAV/30MonoT3.wav,2,1,4,15,,,,,1,8,24,14,0,2,2,5,,,,,,,,,2,1.1665741440083366,,,042,001,2019_May_17_1110,MusicAffectPsychophysiology2019,3.0.5,59.68346100778089,
To what extent did the music make you feel ,HAPPY,30MonoWAV/30MonoT3.wav,2,1,4,15,,,,,1,8,24,14,0,3,3,6,,,,,,,,,3,1.2017526919953525,,,042,001,2019_May_17_1110,MusicAffectPsychophysiology2019,3.0.5,59.68346100778089,
To what extent did the music make you feel ,EXCITED,30MonoWAV/30MonoT3.wav,2,1,4,15,,,,,1,8,24,14,0,4,4,7,,,,,,,,,1,1.8678170339844655,,,042,001,2019_May_17_1110,MusicAffectPsychophysiology2019,3.0.5,59.68346100778089,
To what extent did the music make you feel ,ACTIVE,30MonoWAV/30MonoT3.wav,2,1,4,15,,,,,1,8,24,14,0,5,5,9,,,,,,,,,1,2.8352129200065974,,,042,001,2019_May_17_1110,MusicAffectPsychophysiology2019,3.0.5,59.68346100778089,
To what extent did the music make you feel ,ALERT,30MonoWAV/30MonoT3.wav,2,1,4,15,,,,,1,8,24,14,0,6,6,8,,,,,,,,,2,1.2691275240213145,,,042,001,2019_May_17_1110,MusicAffectPsychophysiology2019,3.0.5,59.68346100778089,
To what extent did the music make you feel ,SAD,30MonoWAV/30MonoT3.wav,2,1,4,15,,,,,1,8,24,14,0,7,7,0,,,,,,,,,4,1.7187535479897633,,,042,001,2019_May_17_1110,MusicAffectPsychophysiology2019,3.0.5,59.68346100778089,
To what extent did the music make you feel ,ASHAMED,30MonoWAV/30MonoT3.wav,2,1,4,15,,,,,1,8,24,14,0,8,8,4,,,,,,,,,1,1.5527253769978415,,,042,001,2019_May_17_1110,MusicAffectPsychophysiology2019,3.0.5,59.68346100778089,
To what extent did the music make you feel ,TENDER,30MonoWAV/30MonoT3.wav,2,1,4,15,,,,,1,8,24,14,0,9,9,10,,,,,,,,,3,1.2187806040165015,,,042,001,2019_May_17_1110,MusicAffectPsychophysiology2019,3.0.5,59.68346100778089,
To what extent did the music make you feel ,ANXIOUS ,30MonoWAV/30MonoT3.wav,2,1,4,15,,,,,1,8,24,14,0,10,10,1,,,,,,,,,4,3.934712310991017,,,042,001,2019_May_17_1110,MusicAffectPsychophysiology2019,3.0.5,59.68346100778089,
To what extent did the music make you feel ,FRUSTRATED,30MonoWAV/30MonoT3.wav,2,1,4,15,,,,,1,8,24,14,0,11,11,3,,,,,,,,,1,1.2018545830214862,,,042,001,2019_May_17_1110,MusicAffectPsychophysiology2019,3.0.5,59.68346100778089,
,,30MonoWAV/30MonoT3.wav,2,1,4,15,,,,,1,8,24,14,,,,,,,,,,,,,,,,,042,001,2019_May_17_1110,MusicAffectPsychophysiology2019,3.0.5,59.68346100778089,
To what extent did the music make you feel ,GUILTY,30MonoWAV/30MonoH1.wav,2,2,1,5,,,,,1,9,25,4,0,0,0,5,,,4,3.7349599119916093,5,3.4018479789956473,5,1.0677468990033958,1,1.9690913910162635,,,042,001,2019_May_17_1110,MusicAffectPsychophysiology2019,3.0.5,59.68346100778089,
To what extent did the music make you feel ,SCARED,30MonoWAV/30MonoH1.wav,2,2,1,5,,,,,1,9,25,4,0,1,1,11,,,,,,,,,2,1.3009252510091756,,,042,001,2019_May_17_1110,MusicAffectPsychophysiology2019,3.0.5,59.68346100778089,
To what extent did the music make you feel ,ASHAMED,30MonoWAV/30MonoH1.wav,2,2,1,5,,,,,1,9,25,4,0,2,2,4,,,,,,,,,1,0.7357520819932688,,,042,001,2019_May_17_1110,MusicAffectPsychophysiology2019,3.0.5,59.68346100778089,
To what extent did the music make you feel ,FRUSTRATED,30MonoWAV/30MonoH1.wav,2,2,1,5,,,,,1,9,25,4,0,3,3,3,,,,,,,,,1,0.9194096970022656,,,042,001,2019_May_17_1110,MusicAffectPsychophysiology2019,3.0.5,59.68346100778089,
To what extent did the music make you feel ,ALERT,30MonoWAV/30MonoH1.wav,2,2,1,5,,,,,1,9,25,4,0,4,4,8,,,,,,,,,4,1.268216652009869,,,042,001,2019_May_17_1110,MusicAffectPsychophysiology2019,3.0.5,59.68346100778089,
To what extent did the music make you feel ,EXCITED,30MonoWAV/30MonoH1.wav,2,2,1,5,,,,,1,9,25,4,0,5,5,7,,,,,,,,,5,0.9694549079868011,,,042,001,2019_May_17_1110,MusicAffectPsychophysiology2019,3.0.5,59.68346100778089,
To what extent did the music make you feel ,ACTIVE,30MonoWAV/30MonoH1.wav,2,2,1,5,,,,,1,9,25,4,0,6,6,9,,,,,,,,,4,0.950076873996295,,,042,001,2019_May_17_1110,MusicAffectPsychophysiology2019,3.0.5,59.68346100778089,
To what extent did the music make you feel ,ANGRY,30MonoWAV/30MonoH1.wav,2,2,1,5,,,,,1,9,25,4,0,7,7,2,,,,,,,,,1,1.2514279220195021,,,042,001,2019_May_17_1110,MusicAffectPsychophysiology2019,3.0.5,59.68346100778089,
To what extent did the music make you feel ,ANXIOUS ,30MonoWAV/30MonoH1.wav,2,2,1,5,,,,,1,9,25,4,0,8,8,1,,,,,,,,,3,1.03465816899552,,,042,001,2019_May_17_1110,MusicAffectPsychophysiology2019,3.0.5,59.68346100778089,
To what extent did the music make you feel ,HAPPY,30MonoWAV/30MonoH1.wav,2,2,1,5,,,,,1,9,25,4,0,9,9,6,,,,,,,,,5,1.252364296989981,,,042,001,2019_May_17_1110,MusicAffectPsychophysiology2019,3.0.5,59.68346100778089,
To what extent did the music make you feel ,TENDER,30MonoWAV/30MonoH1.wav,2,2,1,5,,,,,1,9,25,4,0,10,10,10,,,,,,,,,2,1.2854324489890132,,,042,001,2019_May_17_1110,MusicAffectPsychophysiology2019,3.0.5,59.68346100778089,
To what extent did the music make you feel ,SAD,30MonoWAV/30MonoH1.wav,2,2,1,5,,,,,1,9,25,4,0,11,11,0,,,,,,,,,1,1.8180296450154856,,,042,001,2019_May_17_1110,MusicAffectPsychophysiology2019,3.0.5,59.68346100778089,
,,30MonoWAV/30MonoH1.wav,2,2,1,5,,,,,1,9,25,4,,,,,,,,,,,,,,,,,042,001,2019_May_17_1110,MusicAffectPsychophysiology2019,3.0.5,59.68346100778089,
To what extent did the music make you feel ,EXCITED,30MonoWAV/30MonoS1.wav,1,1,3,9,,,,,1,10,26,8,0,0,0,7,,,4,5.234991225996055,5,1.118637445004424,5,0.28645160698215477,3,2.0510890359873883,,,042,001,2019_May_17_1110,MusicAffectPsychophysiology2019,3.0.5,59.68346100778089,
To what extent did the music make you feel ,FRUSTRATED,30MonoWAV/30MonoS1.wav,1,1,3,9,,,,,1,10,26,8,0,1,1,3,,,,,,,,,1,0.9352448889985681,,,042,001,2019_May_17_1110,MusicAffectPsychophysiology2019,3.0.5,59.68346100778089,
To what extent did the music make you feel ,ACTIVE,30MonoWAV/30MonoS1.wav,1,1,3,9,,,,,1,10,26,8,0,2,2,9,,,,,,,,,4,1.2349437729862984,,,042,001,2019_May_17_1110,MusicAffectPsychophysiology2019,3.0.5,59.68346100778089,
To what extent did the music make you feel ,ALERT,30MonoWAV/30MonoS1.wav,1,1,3,9,,,,,1,10,26,8,0,3,3,8,,,,,,,,,4,1.3183154540020041,,,042,001,2019_May_17_1110,MusicAffectPsychophysiology2019,3.0.5,59.68346100778089,
To what extent did the music make you feel ,ANXIOUS ,30MonoWAV/30MonoS1.wav,1,1,3,9,,,,,1,10,26,8,0,4,4,1,,,,,,,,,3,1.8679054700187407,,,042,001,2019_May_17_1110,MusicAffectPsychophysiology2019,3.0.5,59.68346100778089,
To what extent did the music make you feel ,HAPPY,30MonoWAV/30MonoS1.wav,1,1,3,9,,,,,1,10,26,8,0,5,5,6,,,,,,,,,1,1.4499228459899314,,,042,001,2019_May_17_1110,MusicAffectPsychophysiology2019,3.0.5,59.68346100778089,
To what extent did the music make you feel ,SAD,30MonoWAV/30MonoS1.wav,1,1,3,9,,,,,1,10,26,8,0,6,6,0,,,,,,,,,5,1.0853702950116713,,,042,001,2019_May_17_1110,MusicAffectPsychophysiology2019,3.0.5,59.68346100778089,
To what extent did the music make you feel ,TENDER,30MonoWAV/30MonoS1.wav,1,1,3,9,,,,,1,10,26,8,0,7,7,10,,,,,,,,,4,1.4847049599920865,,,042,001,2019_May_17_1110,MusicAffectPsychophysiology2019,3.0.5,59.68346100778089,
To what extent did the music make you feel ,ANGRY,30MonoWAV/30MonoS1.wav,1,1,3,9,,,,,1,10,26,8,0,8,8,2,,,,,,,,,1,1.7844348739890847,,,042,001,2019_May_17_1110,MusicAffectPsychophysiology2019,3.0.5,59.68346100778089,
To what extent did the music make you feel ,GUILTY,30MonoWAV/30MonoS1.wav,1,1,3,9,,,,,1,10,26,8,0,9,9,5,,,,,,,,,2,0.9671365600079298,,,042,001,2019_May_17_1110,MusicAffectPsychophysiology2019,3.0.5,59.68346100778089,
To what extent did the music make you feel ,ASHAMED,30MonoWAV/30MonoS1.wav,1,1,3,9,,,,,1,10,26,8,0,10,10,4,,,,,,,,,2,1.435562454018509,,,042,001,2019_May_17_1110,MusicAffectPsychophysiology2019,3.0.5,59.68346100778089,
To what extent did the music make you feel ,SCARED,30MonoWAV/30MonoS1.wav,1,1,3,9,,,,,1,10,26,8,0,11,11,11,,,,,,,,,3,1.3342612749838736,,,042,001,2019_May_17_1110,MusicAffectPsychophysiology2019,3.0.5,59.68346100778089,
,,30MonoWAV/30MonoS1.wav,1,1,3,9,,,,,1,10,26,8,,,,,,,,,,,,,,,,,042,001,2019_May_17_1110,MusicAffectPsychophysiology2019,3.0.5,59.68346100778089,
To what extent did the music make you feel ,ASHAMED,30MonoWAV/30MonoT1.wav,2,1,4,13,,,,,1,11,27,12,0,0,0,4,,,4,2.7180972210189793,5,1.1850960720039438,5,1.1184547540033236,1,1.5184179810166825,,,042,001,2019_May_17_1110,MusicAffectPsychophysiology2019,3.0.5,59.68346100778089,
To what extent did the music make you feel ,SCARED,30MonoWAV/30MonoT1.wav,2,1,4,13,,,,,1,11,27,12,0,1,1,11,,,,,,,,,1,1.819461250997847,,,042,001,2019_May_17_1110,MusicAffectPsychophysiology2019,3.0.5,59.68346100778089,
To what extent did the music make you feel ,ANGRY,30MonoWAV/30MonoT1.wav,2,1,4,13,,,,,1,11,27,12,0,2,2,2,,,,,,,,,1,1.9016327299759723,,,042,001,2019_May_17_1110,MusicAffectPsychophysiology2019,3.0.5,59.68346100778089,
To what extent did the music make you feel ,ANXIOUS ,30MonoWAV/30MonoT1.wav,2,1,4,13,,,,,1,11,27,12,0,3,3,1,,,,,,,,,1,1.6512752839771565,,,042,001,2019_May_17_1110,MusicAffectPsychophysiology2019,3.0.5,59.68346100778089,
To what extent did the music make you feel ,EXCITED,30MonoWAV/30MonoT1.wav,2,1,4,13,,,,,1,11,27,12,0,4,4,7,,,,,,,,,4,2.302017601992702,,,042,001,2019_May_17_1110,MusicAffectPsychophysiology2019,3.0.5,59.68346100778089,
To what extent did the music make you feel ,ACTIVE,30MonoWAV/30MonoT1.wav,2,1,4,13,,,,,1,11,27,12,0,5,5,9,,,,,,,,,5,1.10158029498416,,,042,001,2019_May_17_1110,MusicAffectPsychophysiology2019,3.0.5,59.68346100778089,
To what extent did the music make you feel ,FRUSTRATED,30MonoWAV/30MonoT1.wav,2,1,4,13,,,,,1,11,27,12,0,6,6,3,,,,,,,,,1,1.2191685709985904,,,042,001,2019_May_17_1110,MusicAffectPsychophysiology2019,3.0.5,59.68346100778089,
To what extent did the music make you feel ,GUILTY,30MonoWAV/30MonoT1.wav,2,1,4,13,,,,,1,11,27,12,0,7,7,5,,,,,,,,,1,2.268612592975842,,,042,001,2019_May_17_1110,MusicAffectPsychophysiology2019,3.0.5,59.68346100778089,
To what extent did the music make you feel ,HAPPY,30MonoWAV/30MonoT1.wav,2,1,4,13,,,,,1,11,27,12,0,8,8,6,,,,,,,,,5,1.634693274012534,,,042,001,2019_May_17_1110,MusicAffectPsychophysiology2019,3.0.5,59.68346100778089,
To what extent did the music make you feel ,TENDER,30MonoWAV/30MonoT1.wav,2,1,4,13,,,,,1,11,27,12,0,9,9,10,,,,,,,,,4,1.334571129991673,,,042,001,2019_May_17_1110,MusicAffectPsychophysiology2019,3.0.5,59.68346100778089,
To what extent did the music make you feel ,SAD,30MonoWAV/30MonoT1.wav,2,1,4,13,,,,,1,11,27,12,0,10,10,0,,,,,,,,,2,3.218400392011972,,,042,001,2019_May_17_1110,MusicAffectPsychophysiology2019,3.0.5,59.68346100778089,
To what extent did the music make you feel ,ALERT,30MonoWAV/30MonoT1.wav,2,1,4,13,,,,,1,11,27,12,0,11,11,8,,,,,,,,,4,1.5355686899856664,,,042,001,2019_May_17_1110,MusicAffectPsychophysiology2019,3.0.5,59.68346100778089,
,,30MonoWAV/30MonoT1.wav,2,1,4,13,,,,,1,11,27,12,,,,,,,,,,,,,,,,,042,001,2019_May_17_1110,MusicAffectPsychophysiology2019,3.0.5,59.68346100778089,
To what extent did the music make you feel ,SAD,30MonoWAV/30MonoF4.wav,1,2,2,4,,,,,1,12,28,3,0,0,0,0,,,5,2.419624272006331,3,1.6845552019949537,5,0.9515634110139217,1,1.535386005998589,,,042,001,2019_May_17_1110,MusicAffectPsychophysiology2019,3.0.5,59.68346100778089,
To what extent did the music make you feel ,SCARED,30MonoWAV/30MonoF4.wav,1,2,2,4,,,,,1,12,28,3,0,1,1,11,,,,,,,,,5,1.084079891006695,,,042,001,2019_May_17_1110,MusicAffectPsychophysiology2019,3.0.5,59.68346100778089,
To what extent did the music make you feel ,EXCITED,30MonoWAV/30MonoF4.wav,1,2,2,4,,,,,1,12,28,3,0,2,2,7,,,,,,,,,4,1.2846451439836528,,,042,001,2019_May_17_1110,MusicAffectPsychophysiology2019,3.0.5,59.68346100778089,
To what extent did the music make you feel ,FRUSTRATED,30MonoWAV/30MonoF4.wav,1,2,2,4,,,,,1,12,28,3,0,3,3,3,,,,,,,,,2,2.351682288979646,,,042,001,2019_May_17_1110,MusicAffectPsychophysiology2019,3.0.5,59.68346100778089,
To what extent did the music make you feel ,ANGRY,30MonoWAV/30MonoF4.wav,1,2,2,4,,,,,1,12,28,3,0,4,4,2,,,,,,,,,1,1.9020126800169237,,,042,001,2019_May_17_1110,MusicAffectPsychophysiology2019,3.0.5,59.68346100778089,
To what extent did the music make you feel ,ACTIVE,30MonoWAV/30MonoF4.wav,1,2,2,4,,,,,1,12,28,3,0,5,5,9,,,,,,,,,5,1.034805014001904,,,042,001,2019_May_17_1110,MusicAffectPsychophysiology2019,3.0.5,59.68346100778089,
To what extent did the music make you feel ,ASHAMED,30MonoWAV/30MonoF4.wav,1,2,2,4,,,,,1,12,28,3,0,6,6,4,,,,,,,,,1,0.9521497850073501,,,042,001,2019_May_17_1110,MusicAffectPsychophysiology2019,3.0.5,59.68346100778089,
To what extent did the music make you feel ,ALERT,30MonoWAV/30MonoF4.wav,1,2,2,4,,,,,1,12,28,3,0,7,7,8,,,,,,,,,5,0.9683305759972427,,,042,001,2019_May_17_1110,MusicAffectPsychophysiology2019,3.0.5,59.68346100778089,
To what extent did the music make you feel ,ANXIOUS ,30MonoWAV/30MonoF4.wav,1,2,2,4,,,,,1,12,28,3,0,8,8,1,,,,,,,,,4,1.3853746609820519,,,042,001,2019_May_17_1110,MusicAffectPsychophysiology2019,3.0.5,59.68346100778089,
To what extent did the music make you feel ,HAPPY,30MonoWAV/30MonoF4.wav,1,2,2,4,,,,,1,12,28,3,0,9,9,6,,,,,,,,,1,1.5176639700075611,,,042,001,2019_May_17_1110,MusicAffectPsychophysiology2019,3.0.5,59.68346100778089,
To what extent did the music make you feel ,GUILTY,30MonoWAV/30MonoF4.wav,1,2,2,4,,,,,1,12,28,3,0,10,10,5,,,,,,,,,1,1.0183100389840547,,,042,001,2019_May_17_1110,MusicAffectPsychophysiology2019,3.0.5,59.68346100778089,
To what extent did the music make you feel ,TENDER,30MonoWAV/30MonoF4.wav,1,2,2,4,,,,,1,12,28,3,0,11,11,10,,,,,,,,,1,0.9017726230085827,,,042,001,2019_May_17_1110,MusicAffectPsychophysiology2019,3.0.5,59.68346100778089,
,,30MonoWAV/30MonoF4.wav,1,2,2,4,,,,,1,12,28,3,,,,,,,,,,,,,,,,,042,001,2019_May_17_1110,MusicAffectPsychophysiology2019,3.0.5,59.68346100778089,
To what extent did the music make you feel ,SCARED,30MonoWAV/30MonoS3.wav,1,1,3,11,,,,,1,13,29,10,0,0,0,11,,,3,4.4684203029901255,2,1.8349862630129792,4,0.6511657279916108,2,1.6849514190107584,,,042,001,2019_May_17_1110,MusicAffectPsychophysiology2019,3.0.5,59.68346100778089,
To what extent did the music make you feel ,ASHAMED,30MonoWAV/30MonoS3.wav,1,1,3,11,,,,,1,13,29,10,0,1,1,4,,,,,,,,,1,0.9511957909853663,,,042,001,2019_May_17_1110,MusicAffectPsychophysiology2019,3.0.5,59.68346100778089,
To what extent did the music make you feel ,FRUSTRATED,30MonoWAV/30MonoS3.wav,1,1,3,11,,,,,1,13,29,10,0,2,2,3,,,,,,,,,1,1.3179377259803005,,,042,001,2019_May_17_1110,MusicAffectPsychophysiology2019,3.0.5,59.68346100778089,
To what extent did the music make you feel ,ANGRY,30MonoWAV/30MonoS3.wav,1,1,3,11,,,,,1,13,29,10,0,3,3,2,,,,,,,,,1,1.0683765140129253,,,042,001,2019_May_17_1110,MusicAffectPsychophysiology2019,3.0.5,59.68346100778089,
To what extent did the music make you feel ,ANXIOUS ,30MonoWAV/30MonoS3.wav,1,1,3,11,,,,,1,13,29,10,0,4,4,1,,,,,,,,,4,1.1348136359883938,,,042,001,2019_May_17_1110,MusicAffectPsychophysiology2019,3.0.5,59.68346100778089,
To what extent did the music make you feel ,GUILTY,30MonoWAV/30MonoS3.wav,1,1,3,11,,,,,1,13,29,10,0,5,5,5,,,,,,,,,3,1.0172406119818334,,,042,001,2019_May_17_1110,MusicAffectPsychophysiology2019,3.0.5,59.68346100778089,
To what extent did the music make you feel ,HAPPY,30MonoWAV/30MonoS3.wav,1,1,3,11,,,,,1,13,29,10,0,6,6,6,,,,,,,,,2,1.0535938419925515,,,042,001,2019_May_17_1110,MusicAffectPsychophysiology2019,3.0.5,59.68346100778089,
To what extent did the music make you feel ,ALERT,30MonoWAV/30MonoS3.wav,1,1,3,11,,,,,1,13,29,10,0,7,7,8,,,,,,,,,4,1.2844739069987554,,,042,001,2019_May_17_1110,MusicAffectPsychophysiology2019,3.0.5,59.68346100778089,
To what extent did the music make you feel ,TENDER,30MonoWAV/30MonoS3.wav,1,1,3,11,,,,,1,13,29,10,0,8,8,10,,,,,,,,,1,1.9847719070094172,,,042,001,2019_May_17_1110,MusicAffectPsychophysiology2019,3.0.5,59.68346100778089,
To what extent did the music make you feel ,ACTIVE,30MonoWAV/30MonoS3.wav,1,1,3,11,,,,,1,13,29,10,0,9,9,9,,,,,,,,,4,1.418862802995136,,,042,001,2019_May_17_1110,MusicAffectPsychophysiology2019,3.0.5,59.68346100778089,
To what extent did the music make you feel ,EXCITED,30MonoWAV/30MonoS3.wav,1,1,3,11,,,,,1,13,29,10,0,10,10,7,,,,,,,,,1,1.8347388920083176,,,042,001,2019_May_17_1110,MusicAffectPsychophysiology2019,3.0.5,59.68346100778089,
To what extent did the music make you feel ,SAD,30MonoWAV/30MonoS3.wav,1,1,3,11,,,,,1,13,29,10,0,11,11,0,,,,,,,,,3,1.1011073740082793,,,042,001,2019_May_17_1110,MusicAffectPsychophysiology2019,3.0.5,59.68346100778089,
,,30MonoWAV/30MonoS3.wav,1,1,3,11,,,,,1,13,29,10,,,,,,,,,,,,,,,,,042,001,2019_May_17_1110,MusicAffectPsychophysiology2019,3.0.5,59.68346100778089,
To what extent did the music make you feel ,ASHAMED,30MonoWAV/30MonoT4.wav,2,1,4,16,,,,,1,14,30,15,0,0,0,4,,,4,2.0358529389777686,4,3.1499812160036527,5,0.3849517719936557,1,1.5695399089890998,,,042,001,2019_May_17_1110,MusicAffectPsychophysiology2019,3.0.5,59.68346100778089,
To what extent did the music make you feel ,SAD,30MonoWAV/30MonoT4.wav,2,1,4,16,,,,,1,14,30,15,0,1,1,0,,,,,,,,,2,2.934031882992713,,,042,001,2019_May_17_1110,MusicAffectPsychophysiology2019,3.0.5,59.68346100778089,
To what extent did the music make you feel ,ANGRY,30MonoWAV/30MonoT4.wav,2,1,4,16,,,,,1,14,30,15,0,2,2,2,,,,,,,,,1,1.5183760530198924,,,042,001,2019_May_17_1110,MusicAffectPsychophysiology2019,3.0.5,59.68346100778089,
To what extent did the music make you feel ,ALERT,30MonoWAV/30MonoT4.wav,2,1,4,16,,,,,1,14,30,15,0,3,3,8,,,,,,,,,3,1.0353242179844528,,,042,001,2019_May_17_1110,MusicAffectPsychophysiology2019,3.0.5,59.68346100778089,
To what extent did the music make you feel ,GUILTY,30MonoWAV/30MonoT4.wav,2,1,4,16,,,,,1,14,30,15,0,4,4,5,,,,,,,,,4,1.6351065530034248,,,042,001,2019_May_17_1110,MusicAffectPsychophysiology2019,3.0.5,59.68346100778089,
To what extent did the music make you feel ,EXCITED,30MonoWAV/30MonoT4.wav,2,1,4,16,,,,,1,14,30,15,0,5,5,7,,,,,,,,,1,1.6011301060207188,,,042,001,2019_May_17_1110,MusicAffectPsychophysiology2019,3.0.5,59.68346100778089,
To what extent did the music make you feel ,HAPPY,30MonoWAV/30MonoT4.wav,2,1,4,16,,,,,1,14,30,15,0,6,6,6,,,,,,,,,1,0.9524805879918858,,,042,001,2019_May_17_1110,MusicAffectPsychophysiology2019,3.0.5,59.68346100778089,
To what extent did the music make you feel ,FRUSTRATED,30MonoWAV/30MonoT4.wav,2,1,4,16,,,,,1,14,30,15,0,7,7,3,,,,,,,,,2,1.0534100069780834,,,042,001,2019_May_17_1110,MusicAffectPsychophysiology2019,3.0.5,59.68346100778089,
To what extent did the music make you feel ,ANXIOUS ,30MonoWAV/30MonoT4.wav,2,1,4,16,,,,,1,14,30,15,0,8,8,1,,,,,,,,,5,1.1014228540007025,,,042,001,2019_May_17_1110,MusicAffectPsychophysiology2019,3.0.5,59.68346100778089,
To what extent did the music make you feel ,SCARED,30MonoWAV/30MonoT4.wav,2,1,4,16,,,,,1,14,30,15,0,9,9,11,,,,,,,,,2,1.4017382970196195,,,042,001,2019_May_17_1110,MusicAffectPsychophysiology2019,3.0.5,59.68346100778089,
To what extent did the music make you feel ,TENDER,30MonoWAV/30MonoT4.wav,2,1,4,16,,,,,1,14,30,15,0,10,10,10,,,,,,,,,4,1.085220486012986,,,042,001,2019_May_17_1110,MusicAffectPsychophysiology2019,3.0.5,59.68346100778089,
To what extent did the music make you feel ,ACTIVE,30MonoWAV/30MonoT4.wav,2,1,4,16,,,,,1,14,30,15,0,11,11,9,,,,,,,,,1,1.1682810540078208,,,042,001,2019_May_17_1110,MusicAffectPsychophysiology2019,3.0.5,59.68346100778089,
,,30MonoWAV/30MonoT4.wav,2,1,4,16,,,,,1,14,30,15,,,,,,,,,,,,,,,,,042,001,2019_May_17_1110,MusicAffectPsychophysiology2019,3.0.5,59.68346100778089,
To what extent did the music make you feel ,GUILTY,30MonoWAV/30MonoF2.wav,1,2,2,2,,,,,1,15,31,1,0,0,0,5,,,5,2.899210937990574,2,2.6685983480128925,5,0.9512297039909754,1,1.4188088469963986,,,042,001,2019_May_17_1110,MusicAffectPsychophysiology2019,3.0.5,59.68346100778089,
To what extent did the music make you feel ,EXCITED,30MonoWAV/30MonoF2.wav,1,2,2,2,,,,,1,15,31,1,0,1,1,7,,,,,,,,,4,0.9519137919996865,,,042,001,2019_May_17_1110,MusicAffectPsychophysiology2019,3.0.5,59.68346100778089,
To what extent did the music make you feel ,FRUSTRATED,30MonoWAV/30MonoF2.wav,1,2,2,2,,,,,1,15,31,1,0,2,2,3,,,,,,,,,1,1.135200976015767,,,042,001,2019_May_17_1110,MusicAffectPsychophysiology2019,3.0.5,59.68346100778089,
To what extent did the music make you feel ,SCARED,30MonoWAV/30MonoF2.wav,1,2,2,2,,,,,1,15,31,1,0,3,3,11,,,,,,,,,5,0.9998797700100113,,,042,001,2019_May_17_1110,MusicAffectPsychophysiology2019,3.0.5,59.68346100778089,
To what extent did the music make you feel ,SAD,30MonoWAV/30MonoF2.wav,1,2,2,2,,,,,1,15,31,1,0,4,4,0,,,,,,,,,1,1.0846900610195007,,,042,001,2019_May_17_1110,MusicAffectPsychophysiology2019,3.0.5,59.68346100778089,
To what extent did the music make you feel ,ALERT,30MonoWAV/30MonoF2.wav,1,2,2,2,,,,,1,15,31,1,0,5,5,8,,,,,,,,,5,0.9351965269888751,,,042,001,2019_May_17_1110,MusicAffectPsychophysiology2019,3.0.5,59.68346100778089,
To what extent did the music make you feel ,HAPPY,30MonoWAV/30MonoF2.wav,1,2,2,2,,,,,1,15,31,1,0,6,6,6,,,,,,,,,2,1.7338644769915845,,,042,001,2019_May_17_1110,MusicAffectPsychophysiology2019,3.0.5,59.68346100778089,
To what extent did the music make you feel ,ANXIOUS ,30MonoWAV/30MonoF2.wav,1,2,2,2,,,,,1,15,31,1,0,7,7,1,,,,,,,,,5,1.001696149003692,,,042,001,2019_May_17_1110,MusicAffectPsychophysiology2019,3.0.5,59.68346100778089,
To what extent did the music make you feel ,ANGRY,30MonoWAV/30MonoF2.wav,1,2,2,2,,,,,1,15,31,1,0,8,8,2,,,,,,,,,1,1.6020849360211287,,,042,001,2019_May_17_1110,MusicAffectPsychophysiology2019,3.0.5,59.68346100778089,
To what extent did the music make you feel ,ACTIVE,30MonoWAV/30MonoF2.wav,1,2,2,2,,,,,1,15,31,1,0,9,9,9,,,,,,,,,5,0.9019054049858823,,,042,001,2019_May_17_1110,MusicAffectPsychophysiology2019,3.0.5,59.68346100778089,
To what extent did the music make you feel ,TENDER,30MonoWAV/30MonoF2.wav,1,2,2,2,,,,,1,15,31,1,0,10,10,10,,,,,,,,,1,1.135833616979653,,,042,001,2019_May_17_1110,MusicAffectPsychophysiology2019,3.0.5,59.68346100778089,
To what extent did the music make you feel ,ASHAMED,30MonoWAV/30MonoF2.wav,1,2,2,2,,,,,1,15,31,1,0,11,11,4,,,,,,,,,1,1.2516248339961749,,,042,001,2019_May_17_1110,MusicAffectPsychophysiology2019,3.0.5,59.68346100778089,
,,30MonoWAV/30MonoF2.wav,1,2,2,2,,,,,1,15,31,1,,,,,,,,,,,,,,,,,042,001,2019_May_17_1110,MusicAffectPsychophysiology2019,3.0.5,59.68346100778089,
,,,,,,,,,,,,,,,,,,,,,,,,,,,,,space,4.384331982990261,042,001,2019_May_17_1110,MusicAffectPsychophysiology2019,3.0.5,59.68346100778089,
