Instruction,Word,song,valence,arousal,affectcat,songmark,pracwords.thisRepN,pracwords.thisTrialN,pracwords.thisN,pracwords.thisIndex,songtrials.thisRepN,songtrials.thisTrialN,songtrials.thisN,songtrials.thisIndex,words.thisRepN,words.thisTrialN,words.thisN,words.thisIndex,begin.keys,begin.rt,arousalkey.keys,arousalkey.rt,valencekey.keys,valencekey.rt,likekey.keys,likekey.rt,WordResponse.keys,WordResponse.rt,participant,session,date,expName,psychopyVersion,frameRate,
,,,,,,,,,,,,,,,,,,,space,19.484742600999994,,,,,,,,,043,001,2019_May_17_1415,MusicAffectPsychophysiology2019,3.0.5,60.069594710203845,
,,,,,,,,,,,,,,,,,,,,,3,8.362807918000016,,,,,,,043,001,2019_May_17_1415,MusicAffectPsychophysiology2019,3.0.5,60.069594710203845,
,,,,,,,,,,,,,,,,,,,,,,,4,3.3527835529999948,,,,,043,001,2019_May_17_1415,MusicAffectPsychophysiology2019,3.0.5,60.069594710203845,
,,,,,,,,,,,,,,,,,,,,,,,,,4,2.9027822109999875,,,043,001,2019_May_17_1415,MusicAffectPsychophysiology2019,3.0.5,60.069594710203845,
To what extent did the music make you feel ,ASHAMED,,,,,,0,0,0,4,,,,,,,,,,,,,,,,,1,5.376726109000003,043,001,2019_May_17_1415,MusicAffectPsychophysiology2019,3.0.5,60.069594710203845,
To what extent did the music make you feel ,HAPPY,,,,,,0,1,1,6,,,,,,,,,,,,,,,,,5,3.1352594759999874,043,001,2019_May_17_1415,MusicAffectPsychophysiology2019,3.0.5,60.069594710203845,
To what extent did the music make you feel ,ACTIVE,,,,,,0,2,2,9,,,,,,,,,,,,,,,,,1,3.0659460979999835,043,001,2019_May_17_1415,MusicAffectPsychophysiology2019,3.0.5,60.069594710203845,
To what extent did the music make you feel ,ALERT,,,,,,0,3,3,8,,,,,,,,,,,,,,,,,4,3.527244849999988,043,001,2019_May_17_1415,MusicAffectPsychophysiology2019,3.0.5,60.069594710203845,
To what extent did the music make you feel ,FRUSTRATED,,,,,,0,4,4,3,,,,,,,,,,,,,,,,,1,1.8190475810000066,043,001,2019_May_17_1415,MusicAffectPsychophysiology2019,3.0.5,60.069594710203845,
To what extent did the music make you feel ,SAD,,,,,,0,5,5,0,,,,,,,,,,,,,,,,,1,3.8724354010000184,043,001,2019_May_17_1415,MusicAffectPsychophysiology2019,3.0.5,60.069594710203845,
To what extent did the music make you feel ,ANXIOUS ,,,,,,0,6,6,1,,,,,,,,,,,,,,,,,1,1.3527798939999798,043,001,2019_May_17_1415,MusicAffectPsychophysiology2019,3.0.5,60.069594710203845,
To what extent did the music make you feel ,EXCITED,,,,,,0,7,7,7,,,,,,,,,,,,,,,,,2,2.418507011999992,043,001,2019_May_17_1415,MusicAffectPsychophysiology2019,3.0.5,60.069594710203845,
To what extent did the music make you feel ,ANGRY,,,,,,0,8,8,2,,,,,,,,,,,,,,,,,1,1.5072303999999974,043,001,2019_May_17_1415,MusicAffectPsychophysiology2019,3.0.5,60.069594710203845,
To what extent did the music make you feel ,TENDER,,,,,,0,9,9,10,,,,,,,,,,,,,,,,,4,2.154375625999961,043,001,2019_May_17_1415,MusicAffectPsychophysiology2019,3.0.5,60.069594710203845,
To what extent did the music make you feel ,SCARED,,,,,,0,10,10,11,,,,,,,,,,,,,,,,,1,2.587959180999974,043,001,2019_May_17_1415,MusicAffectPsychophysiology2019,3.0.5,60.069594710203845,
To what extent did the music make you feel ,GUILTY,,,,,,0,11,11,5,,,,,,,,,,,,,,,,,1,1.9050082730000213,043,001,2019_May_17_1415,MusicAffectPsychophysiology2019,3.0.5,60.069594710203845,
To what extent did the music make you feel ,ALERT,30MonoWAV/30MonoS3.wav,1,1,3,11,,,,,0,0,0,10,0,0,0,8,,,1,4.526002381000012,2,3.435432205999973,4,3.5514624379999873,3,6.483182598000042,043,001,2019_May_17_1415,MusicAffectPsychophysiology2019,3.0.5,60.069594710203845,
To what extent did the music make you feel ,ANXIOUS ,30MonoWAV/30MonoS3.wav,1,1,3,11,,,,,0,0,0,10,0,1,1,1,,,,,,,,,3,2.8017642400000113,043,001,2019_May_17_1415,MusicAffectPsychophysiology2019,3.0.5,60.069594710203845,
To what extent did the music make you feel ,ACTIVE,30MonoWAV/30MonoS3.wav,1,1,3,11,,,,,0,0,0,10,0,2,2,9,,,,,,,,,1,1.9725430919999667,043,001,2019_May_17_1415,MusicAffectPsychophysiology2019,3.0.5,60.069594710203845,
To what extent did the music make you feel ,SCARED,30MonoWAV/30MonoS3.wav,1,1,3,11,,,,,0,0,0,10,0,3,3,11,,,,,,,,,3,2.1378503619999947,043,001,2019_May_17_1415,MusicAffectPsychophysiology2019,3.0.5,60.069594710203845,
To what extent did the music make you feel ,TENDER,30MonoWAV/30MonoS3.wav,1,1,3,11,,,,,0,0,0,10,0,4,4,10,,,,,,,,,1,1.7367396359999816,043,001,2019_May_17_1415,MusicAffectPsychophysiology2019,3.0.5,60.069594710203845,
To what extent did the music make you feel ,EXCITED,30MonoWAV/30MonoS3.wav,1,1,3,11,,,,,0,0,0,10,0,5,5,7,,,,,,,,,3,3.072234886999979,043,001,2019_May_17_1415,MusicAffectPsychophysiology2019,3.0.5,60.069594710203845,
To what extent did the music make you feel ,FRUSTRATED,30MonoWAV/30MonoS3.wav,1,1,3,11,,,,,0,0,0,10,0,6,6,3,,,,,,,,,1,2.272326210000017,043,001,2019_May_17_1415,MusicAffectPsychophysiology2019,3.0.5,60.069594710203845,
To what extent did the music make you feel ,ASHAMED,30MonoWAV/30MonoS3.wav,1,1,3,11,,,,,0,0,0,10,0,7,7,4,,,,,,,,,2,2.418102551000004,043,001,2019_May_17_1415,MusicAffectPsychophysiology2019,3.0.5,60.069594710203845,
To what extent did the music make you feel ,SAD,30MonoWAV/30MonoS3.wav,1,1,3,11,,,,,0,0,0,10,0,8,8,0,,,,,,,,,4,3.7075230430000374,043,001,2019_May_17_1415,MusicAffectPsychophysiology2019,3.0.5,60.069594710203845,
To what extent did the music make you feel ,ANGRY,30MonoWAV/30MonoS3.wav,1,1,3,11,,,,,0,0,0,10,0,9,9,2,,,,,,,,,1,1.8031372179999607,043,001,2019_May_17_1415,MusicAffectPsychophysiology2019,3.0.5,60.069594710203845,
To what extent did the music make you feel ,HAPPY,30MonoWAV/30MonoS3.wav,1,1,3,11,,,,,0,0,0,10,0,10,10,6,,,,,,,,,1,0.9520440040000153,043,001,2019_May_17_1415,MusicAffectPsychophysiology2019,3.0.5,60.069594710203845,
To what extent did the music make you feel ,GUILTY,30MonoWAV/30MonoS3.wav,1,1,3,11,,,,,0,0,0,10,0,11,11,5,,,,,,,,,1,1.0198641759999987,043,001,2019_May_17_1415,MusicAffectPsychophysiology2019,3.0.5,60.069594710203845,
,,30MonoWAV/30MonoS3.wav,1,1,3,11,,,,,0,0,0,10,,,,,,,,,,,,,,,043,001,2019_May_17_1415,MusicAffectPsychophysiology2019,3.0.5,60.069594710203845,
To what extent did the music make you feel ,SCARED,30MonoWAV/30MonoS1.wav,1,1,3,9,,,,,0,1,1,8,0,0,0,11,,,2,3.8730536229999757,2,2.1870067330000325,4,2.406139063000012,2,2.641893094000011,043,001,2019_May_17_1415,MusicAffectPsychophysiology2019,3.0.5,60.069594710203845,
To what extent did the music make you feel ,SAD,30MonoWAV/30MonoS1.wav,1,1,3,9,,,,,0,1,1,8,0,1,1,0,,,,,,,,,5,2.200889361999998,043,001,2019_May_17_1415,MusicAffectPsychophysiology2019,3.0.5,60.069594710203845,
To what extent did the music make you feel ,ANXIOUS ,30MonoWAV/30MonoS1.wav,1,1,3,9,,,,,0,1,1,8,0,2,2,1,,,,,,,,,3,2.0026471470000047,043,001,2019_May_17_1415,MusicAffectPsychophysiology2019,3.0.5,60.069594710203845,
To what extent did the music make you feel ,GUILTY,30MonoWAV/30MonoS1.wav,1,1,3,9,,,,,0,1,1,8,0,3,3,5,,,,,,,,,1,1.234682141999997,043,001,2019_May_17_1415,MusicAffectPsychophysiology2019,3.0.5,60.069594710203845,
To what extent did the music make you feel ,TENDER,30MonoWAV/30MonoS1.wav,1,1,3,9,,,,,0,1,1,8,0,4,4,10,,,,,,,,,3,2.3080601690000435,043,001,2019_May_17_1415,MusicAffectPsychophysiology2019,3.0.5,60.069594710203845,
To what extent did the music make you feel ,ALERT,30MonoWAV/30MonoS1.wav,1,1,3,9,,,,,0,1,1,8,0,5,5,8,,,,,,,,,2,6.579663641000025,043,001,2019_May_17_1415,MusicAffectPsychophysiology2019,3.0.5,60.069594710203845,
To what extent did the music make you feel ,ASHAMED,30MonoWAV/30MonoS1.wav,1,1,3,9,,,,,0,1,1,8,0,6,6,4,,,,,,,,,2,1.8683488249999982,043,001,2019_May_17_1415,MusicAffectPsychophysiology2019,3.0.5,60.069594710203845,
To what extent did the music make you feel ,EXCITED,30MonoWAV/30MonoS1.wav,1,1,3,9,,,,,0,1,1,8,0,7,7,7,,,,,,,,,1,3.701483450000012,043,001,2019_May_17_1415,MusicAffectPsychophysiology2019,3.0.5,60.069594710203845,
To what extent did the music make you feel ,ACTIVE,30MonoWAV/30MonoS1.wav,1,1,3,9,,,,,0,1,1,8,0,8,8,9,,,,,,,,,1,0.9513328940000179,043,001,2019_May_17_1415,MusicAffectPsychophysiology2019,3.0.5,60.069594710203845,
To what extent did the music make you feel ,ANGRY,30MonoWAV/30MonoS1.wav,1,1,3,9,,,,,0,1,1,8,0,9,9,2,,,,,,,,,1,1.0924044730000446,043,001,2019_May_17_1415,MusicAffectPsychophysiology2019,3.0.5,60.069594710203845,
To what extent did the music make you feel ,HAPPY,30MonoWAV/30MonoS1.wav,1,1,3,9,,,,,0,1,1,8,0,10,10,6,,,,,,,,,1,0.7029963489999886,043,001,2019_May_17_1415,MusicAffectPsychophysiology2019,3.0.5,60.069594710203845,
To what extent did the music make you feel ,FRUSTRATED,30MonoWAV/30MonoS1.wav,1,1,3,9,,,,,0,1,1,8,0,11,11,3,,,,,,,,,1,2.2717358369999943,043,001,2019_May_17_1415,MusicAffectPsychophysiology2019,3.0.5,60.069594710203845,
,,30MonoWAV/30MonoS1.wav,1,1,3,9,,,,,0,1,1,8,,,,,,,,,,,,,,,043,001,2019_May_17_1415,MusicAffectPsychophysiology2019,3.0.5,60.069594710203845,
To what extent did the music make you feel ,SCARED,30MonoWAV/30MonoH2.wav,2,2,1,6,,,,,0,2,2,5,0,0,0,11,,,5,4.706162649000021,4,3.288334404000011,5,3.2055338060000054,1,3.38929176299996,043,001,2019_May_17_1415,MusicAffectPsychophysiology2019,3.0.5,60.069594710203845,
To what extent did the music make you feel ,ACTIVE,30MonoWAV/30MonoH2.wav,2,2,1,6,,,,,0,2,2,5,0,1,1,9,,,,,,,,,4,1.651998276000029,043,001,2019_May_17_1415,MusicAffectPsychophysiology2019,3.0.5,60.069594710203845,
To what extent did the music make you feel ,TENDER,30MonoWAV/30MonoH2.wav,2,2,1,6,,,,,0,2,2,5,0,2,2,10,,,,,,,,,2,1.284090837000008,043,001,2019_May_17_1415,MusicAffectPsychophysiology2019,3.0.5,60.069594710203845,
To what extent did the music make you feel ,GUILTY,30MonoWAV/30MonoH2.wav,2,2,1,6,,,,,0,2,2,5,0,3,3,5,,,,,,,,,1,1.0899702290000164,043,001,2019_May_17_1415,MusicAffectPsychophysiology2019,3.0.5,60.069594710203845,
To what extent did the music make you feel ,ALERT,30MonoWAV/30MonoH2.wav,2,2,1,6,,,,,0,2,2,5,0,4,4,8,,,,,,,,,4,1.6365566349999767,043,001,2019_May_17_1415,MusicAffectPsychophysiology2019,3.0.5,60.069594710203845,
To what extent did the music make you feel ,ASHAMED,30MonoWAV/30MonoH2.wav,2,2,1,6,,,,,0,2,2,5,0,5,5,4,,,,,,,,,1,0.9527698339999802,043,001,2019_May_17_1415,MusicAffectPsychophysiology2019,3.0.5,60.069594710203845,
To what extent did the music make you feel ,EXCITED,30MonoWAV/30MonoH2.wav,2,2,1,6,,,,,0,2,2,5,0,6,6,7,,,,,,,,,5,1.469849210999996,043,001,2019_May_17_1415,MusicAffectPsychophysiology2019,3.0.5,60.069594710203845,
To what extent did the music make you feel ,HAPPY,30MonoWAV/30MonoH2.wav,2,2,1,6,,,,,0,2,2,5,0,7,7,6,,,,,,,,,4,1.8876409929999909,043,001,2019_May_17_1415,MusicAffectPsychophysiology2019,3.0.5,60.069594710203845,
To what extent did the music make you feel ,ANGRY,30MonoWAV/30MonoH2.wav,2,2,1,6,,,,,0,2,2,5,0,8,8,2,,,,,,,,,1,1.3025281810000138,043,001,2019_May_17_1415,MusicAffectPsychophysiology2019,3.0.5,60.069594710203845,
To what extent did the music make you feel ,SAD,30MonoWAV/30MonoH2.wav,2,2,1,6,,,,,0,2,2,5,0,9,9,0,,,,,,,,,1,1.7875545349999697,043,001,2019_May_17_1415,MusicAffectPsychophysiology2019,3.0.5,60.069594710203845,
To what extent did the music make you feel ,FRUSTRATED,30MonoWAV/30MonoH2.wav,2,2,1,6,,,,,0,2,2,5,0,10,10,3,,,,,,,,,1,0.8192134739999801,043,001,2019_May_17_1415,MusicAffectPsychophysiology2019,3.0.5,60.069594710203845,
To what extent did the music make you feel ,ANXIOUS ,30MonoWAV/30MonoH2.wav,2,2,1,6,,,,,0,2,2,5,0,11,11,1,,,,,,,,,1,0.9187020830000279,043,001,2019_May_17_1415,MusicAffectPsychophysiology2019,3.0.5,60.069594710203845,
,,30MonoWAV/30MonoH2.wav,2,2,1,6,,,,,0,2,2,5,,,,,,,,,,,,,,,043,001,2019_May_17_1415,MusicAffectPsychophysiology2019,3.0.5,60.069594710203845,
To what extent did the music make you feel ,SCARED,30MonoWAV/30MonoF4.wav,1,2,2,4,,,,,0,3,3,3,0,0,0,11,,,3,5.10148102200003,1,2.9676668600000085,5,4.169494334999968,5,4.683885095000051,043,001,2019_May_17_1415,MusicAffectPsychophysiology2019,3.0.5,60.069594710203845,
To what extent did the music make you feel ,ANXIOUS ,30MonoWAV/30MonoF4.wav,1,2,2,4,,,,,0,3,3,3,0,1,1,1,,,,,,,,,5,0.6513705479999317,043,001,2019_May_17_1415,MusicAffectPsychophysiology2019,3.0.5,60.069594710203845,
To what extent did the music make you feel ,ANGRY,30MonoWAV/30MonoF4.wav,1,2,2,4,,,,,0,3,3,3,0,2,2,2,,,,,,,,,2,1.8348105970000006,043,001,2019_May_17_1415,MusicAffectPsychophysiology2019,3.0.5,60.069594710203845,
To what extent did the music make you feel ,ASHAMED,30MonoWAV/30MonoF4.wav,1,2,2,4,,,,,0,3,3,3,0,3,3,4,,,,,,,,,1,2.3337903089999372,043,001,2019_May_17_1415,MusicAffectPsychophysiology2019,3.0.5,60.069594710203845,
To what extent did the music make you feel ,HAPPY,30MonoWAV/30MonoF4.wav,1,2,2,4,,,,,0,3,3,3,0,4,4,6,,,,,,,,,1,1.1850605849999738,043,001,2019_May_17_1415,MusicAffectPsychophysiology2019,3.0.5,60.069594710203845,
To what extent did the music make you feel ,ALERT,30MonoWAV/30MonoF4.wav,1,2,2,4,,,,,0,3,3,3,0,5,5,8,,,,,,,,,5,1.2684347739999566,043,001,2019_May_17_1415,MusicAffectPsychophysiology2019,3.0.5,60.069594710203845,
To what extent did the music make you feel ,EXCITED,30MonoWAV/30MonoF4.wav,1,2,2,4,,,,,0,3,3,3,0,6,6,7,,,,,,,,,4,3.5007780509999975,043,001,2019_May_17_1415,MusicAffectPsychophysiology2019,3.0.5,60.069594710203845,
To what extent did the music make you feel ,ACTIVE,30MonoWAV/30MonoF4.wav,1,2,2,4,,,,,0,3,3,3,0,7,7,9,,,,,,,,,3,2.501688650999995,043,001,2019_May_17_1415,MusicAffectPsychophysiology2019,3.0.5,60.069594710203845,
To what extent did the music make you feel ,SAD,30MonoWAV/30MonoF4.wav,1,2,2,4,,,,,0,3,3,3,0,8,8,0,,,,,,,,,1,1.4682571710000047,043,001,2019_May_17_1415,MusicAffectPsychophysiology2019,3.0.5,60.069594710203845,
To what extent did the music make you feel ,TENDER,30MonoWAV/30MonoF4.wav,1,2,2,4,,,,,0,3,3,3,0,9,9,10,,,,,,,,,1,1.0498805700000275,043,001,2019_May_17_1415,MusicAffectPsychophysiology2019,3.0.5,60.069594710203845,
To what extent did the music make you feel ,GUILTY,30MonoWAV/30MonoF4.wav,1,2,2,4,,,,,0,3,3,3,0,10,10,5,,,,,,,,,1,0.8852774850000742,043,001,2019_May_17_1415,MusicAffectPsychophysiology2019,3.0.5,60.069594710203845,
To what extent did the music make you feel ,FRUSTRATED,30MonoWAV/30MonoF4.wav,1,2,2,4,,,,,0,3,3,3,0,11,11,3,,,,,,,,,1,0.8004632359999277,043,001,2019_May_17_1415,MusicAffectPsychophysiology2019,3.0.5,60.069594710203845,
,,30MonoWAV/30MonoF4.wav,1,2,2,4,,,,,0,3,3,3,,,,,,,,,,,,,,,043,001,2019_May_17_1415,MusicAffectPsychophysiology2019,3.0.5,60.069594710203845,
To what extent did the music make you feel ,ANGRY,30MonoWAV/30MonoS2.wav,1,1,3,10,,,,,0,4,4,9,0,0,0,2,,,1,3.856588944000009,1,1.770226847999993,4,3.6740528999999924,1,1.4684158219999972,043,001,2019_May_17_1415,MusicAffectPsychophysiology2019,3.0.5,60.069594710203845,
To what extent did the music make you feel ,FRUSTRATED,30MonoWAV/30MonoS2.wav,1,1,3,10,,,,,0,4,4,9,0,1,1,3,,,,,,,,,1,1.9354546170000049,043,001,2019_May_17_1415,MusicAffectPsychophysiology2019,3.0.5,60.069594710203845,
To what extent did the music make you feel ,ALERT,30MonoWAV/30MonoS2.wav,1,1,3,10,,,,,0,4,4,9,0,2,2,8,,,,,,,,,1,1.7179065259999788,043,001,2019_May_17_1415,MusicAffectPsychophysiology2019,3.0.5,60.069594710203845,
To what extent did the music make you feel ,ACTIVE,30MonoWAV/30MonoS2.wav,1,1,3,10,,,,,0,4,4,9,0,3,3,9,,,,,,,,,1,0.8853341530000307,043,001,2019_May_17_1415,MusicAffectPsychophysiology2019,3.0.5,60.069594710203845,
To what extent did the music make you feel ,EXCITED,30MonoWAV/30MonoS2.wav,1,1,3,10,,,,,0,4,4,9,0,4,4,7,,,,,,,,,1,0.9504133699999784,043,001,2019_May_17_1415,MusicAffectPsychophysiology2019,3.0.5,60.069594710203845,
To what extent did the music make you feel ,SAD,30MonoWAV/30MonoS2.wav,1,1,3,10,,,,,0,4,4,9,0,5,5,0,,,,,,,,,5,3.001089284000045,043,001,2019_May_17_1415,MusicAffectPsychophysiology2019,3.0.5,60.069594710203845,
To what extent did the music make you feel ,SCARED,30MonoWAV/30MonoS2.wav,1,1,3,10,,,,,0,4,4,9,0,6,6,11,,,,,,,,,3,1.7852792219999856,043,001,2019_May_17_1415,MusicAffectPsychophysiology2019,3.0.5,60.069594710203845,
To what extent did the music make you feel ,ASHAMED,30MonoWAV/30MonoS2.wav,1,1,3,10,,,,,0,4,4,9,0,7,7,4,,,,,,,,,4,1.2688010649999342,043,001,2019_May_17_1415,MusicAffectPsychophysiology2019,3.0.5,60.069594710203845,
To what extent did the music make you feel ,HAPPY,30MonoWAV/30MonoS2.wav,1,1,3,10,,,,,0,4,4,9,0,8,8,6,,,,,,,,,1,0.9499693879999995,043,001,2019_May_17_1415,MusicAffectPsychophysiology2019,3.0.5,60.069594710203845,
To what extent did the music make you feel ,TENDER,30MonoWAV/30MonoS2.wav,1,1,3,10,,,,,0,4,4,9,0,9,9,10,,,,,,,,,4,4.285800901000016,043,001,2019_May_17_1415,MusicAffectPsychophysiology2019,3.0.5,60.069594710203845,
To what extent did the music make you feel ,GUILTY,30MonoWAV/30MonoS2.wav,1,1,3,10,,,,,0,4,4,9,0,10,10,5,,,,,,,,,4,2.899987710000005,043,001,2019_May_17_1415,MusicAffectPsychophysiology2019,3.0.5,60.069594710203845,
To what extent did the music make you feel ,ANXIOUS ,30MonoWAV/30MonoS2.wav,1,1,3,10,,,,,0,4,4,9,0,11,11,1,,,,,,,,,2,2.202281568000103,043,001,2019_May_17_1415,MusicAffectPsychophysiology2019,3.0.5,60.069594710203845,
,,30MonoWAV/30MonoS2.wav,1,1,3,10,,,,,0,4,4,9,,,,,,,,,,,,,,,043,001,2019_May_17_1415,MusicAffectPsychophysiology2019,3.0.5,60.069594710203845,
To what extent did the music make you feel ,SAD,30MonoWAV/30MonoH1.wav,2,2,1,5,,,,,0,5,5,4,0,0,0,0,,,5,2.80178032099991,5,1.4680141140000842,5,1.0849114540000073,1,2.918172152000011,043,001,2019_May_17_1415,MusicAffectPsychophysiology2019,3.0.5,60.069594710203845,
To what extent did the music make you feel ,HAPPY,30MonoWAV/30MonoH1.wav,2,2,1,5,,,,,0,5,5,4,0,1,1,6,,,,,,,,,5,1.4015138710000201,043,001,2019_May_17_1415,MusicAffectPsychophysiology2019,3.0.5,60.069594710203845,
To what extent did the music make you feel ,ACTIVE,30MonoWAV/30MonoH1.wav,2,2,1,5,,,,,0,5,5,4,0,2,2,9,,,,,,,,,5,1.201245053999969,043,001,2019_May_17_1415,MusicAffectPsychophysiology2019,3.0.5,60.069594710203845,
To what extent did the music make you feel ,ALERT,30MonoWAV/30MonoH1.wav,2,2,1,5,,,,,0,5,5,4,0,3,3,8,,,,,,,,,5,2.6997318420000056,043,001,2019_May_17_1415,MusicAffectPsychophysiology2019,3.0.5,60.069594710203845,
To what extent did the music make you feel ,ANGRY,30MonoWAV/30MonoH1.wav,2,2,1,5,,,,,0,5,5,4,0,4,4,2,,,,,,,,,1,1.2185438149999754,043,001,2019_May_17_1415,MusicAffectPsychophysiology2019,3.0.5,60.069594710203845,
To what extent did the music make you feel ,ANXIOUS ,30MonoWAV/30MonoH1.wav,2,2,1,5,,,,,0,5,5,4,0,5,5,1,,,,,,,,,1,1.3513822319999917,043,001,2019_May_17_1415,MusicAffectPsychophysiology2019,3.0.5,60.069594710203845,
To what extent did the music make you feel ,EXCITED,30MonoWAV/30MonoH1.wav,2,2,1,5,,,,,0,5,5,4,0,6,6,7,,,,,,,,,5,1.8027821140000242,043,001,2019_May_17_1415,MusicAffectPsychophysiology2019,3.0.5,60.069594710203845,
To what extent did the music make you feel ,ASHAMED,30MonoWAV/30MonoH1.wav,2,2,1,5,,,,,0,5,5,4,0,7,7,4,,,,,,,,,1,1.1675859250000258,043,001,2019_May_17_1415,MusicAffectPsychophysiology2019,3.0.5,60.069594710203845,
To what extent did the music make you feel ,SCARED,30MonoWAV/30MonoH1.wav,2,2,1,5,,,,,0,5,5,4,0,8,8,11,,,,,,,,,1,1.667174712000019,043,001,2019_May_17_1415,MusicAffectPsychophysiology2019,3.0.5,60.069594710203845,
To what extent did the music make you feel ,GUILTY,30MonoWAV/30MonoH1.wav,2,2,1,5,,,,,0,5,5,4,0,9,9,5,,,,,,,,,1,0.6845993650000537,043,001,2019_May_17_1415,MusicAffectPsychophysiology2019,3.0.5,60.069594710203845,
To what extent did the music make you feel ,FRUSTRATED,30MonoWAV/30MonoH1.wav,2,2,1,5,,,,,0,5,5,4,0,10,10,3,,,,,,,,,1,1.434848802999909,043,001,2019_May_17_1415,MusicAffectPsychophysiology2019,3.0.5,60.069594710203845,
To what extent did the music make you feel ,TENDER,30MonoWAV/30MonoH1.wav,2,2,1,5,,,,,0,5,5,4,0,11,11,10,,,,,,,,,2,3.5680278399998997,043,001,2019_May_17_1415,MusicAffectPsychophysiology2019,3.0.5,60.069594710203845,
,,30MonoWAV/30MonoH1.wav,2,2,1,5,,,,,0,5,5,4,,,,,,,,,,,,,,,043,001,2019_May_17_1415,MusicAffectPsychophysiology2019,3.0.5,60.069594710203845,
To what extent did the music make you feel ,SAD,30MonoWAV/30MonoF3.wav,1,2,2,3,,,,,0,6,6,2,0,0,0,0,,,2,2.6357996760000333,1,1.9186478169999646,1,1.0689020080000091,1,6.351045235000015,043,001,2019_May_17_1415,MusicAffectPsychophysiology2019,3.0.5,60.069594710203845,
To what extent did the music make you feel ,HAPPY,30MonoWAV/30MonoF3.wav,1,2,2,3,,,,,0,6,6,2,0,1,1,6,,,,,,,,,1,1.3189301219999834,043,001,2019_May_17_1415,MusicAffectPsychophysiology2019,3.0.5,60.069594710203845,
To what extent did the music make you feel ,ASHAMED,30MonoWAV/30MonoF3.wav,1,2,2,3,,,,,0,6,6,2,0,2,2,4,,,,,,,,,2,1.5355188949999956,043,001,2019_May_17_1415,MusicAffectPsychophysiology2019,3.0.5,60.069594710203845,
To what extent did the music make you feel ,EXCITED,30MonoWAV/30MonoF3.wav,1,2,2,3,,,,,0,6,6,2,0,3,3,7,,,,,,,,,1,1.8521912100000009,043,001,2019_May_17_1415,MusicAffectPsychophysiology2019,3.0.5,60.069594710203845,
To what extent did the music make you feel ,FRUSTRATED,30MonoWAV/30MonoF3.wav,1,2,2,3,,,,,0,6,6,2,0,4,4,3,,,,,,,,,2,3.527937049000002,043,001,2019_May_17_1415,MusicAffectPsychophysiology2019,3.0.5,60.069594710203845,
To what extent did the music make you feel ,ANGRY,30MonoWAV/30MonoF3.wav,1,2,2,3,,,,,0,6,6,2,0,5,5,2,,,,,,,,,2,2.1583895029999667,043,001,2019_May_17_1415,MusicAffectPsychophysiology2019,3.0.5,60.069594710203845,
To what extent did the music make you feel ,GUILTY,30MonoWAV/30MonoF3.wav,1,2,2,3,,,,,0,6,6,2,0,6,6,5,,,,,,,,,1,3.0353898070000014,043,001,2019_May_17_1415,MusicAffectPsychophysiology2019,3.0.5,60.069594710203845,
To what extent did the music make you feel ,SCARED,30MonoWAV/30MonoF3.wav,1,2,2,3,,,,,0,6,6,2,0,7,7,11,,,,,,,,,2,0.7683293950000234,043,001,2019_May_17_1415,MusicAffectPsychophysiology2019,3.0.5,60.069594710203845,
To what extent did the music make you feel ,TENDER,30MonoWAV/30MonoF3.wav,1,2,2,3,,,,,0,6,6,2,0,8,8,10,,,,,,,,,1,1.6684848559999637,043,001,2019_May_17_1415,MusicAffectPsychophysiology2019,3.0.5,60.069594710203845,
To what extent did the music make you feel ,ACTIVE,30MonoWAV/30MonoF3.wav,1,2,2,3,,,,,0,6,6,2,0,9,9,9,,,,,,,,,1,1.3180354209999905,043,001,2019_May_17_1415,MusicAffectPsychophysiology2019,3.0.5,60.069594710203845,
To what extent did the music make you feel ,ALERT,30MonoWAV/30MonoF3.wav,1,2,2,3,,,,,0,6,6,2,0,10,10,8,,,,,,,,,1,0.9838844659999495,043,001,2019_May_17_1415,MusicAffectPsychophysiology2019,3.0.5,60.069594710203845,
To what extent did the music make you feel ,ANXIOUS ,30MonoWAV/30MonoF3.wav,1,2,2,3,,,,,0,6,6,2,0,11,11,1,,,,,,,,,3,1.78490208300002,043,001,2019_May_17_1415,MusicAffectPsychophysiology2019,3.0.5,60.069594710203845,
,,30MonoWAV/30MonoF3.wav,1,2,2,3,,,,,0,6,6,2,,,,,,,,,,,,,,,043,001,2019_May_17_1415,MusicAffectPsychophysiology2019,3.0.5,60.069594710203845,
To what extent did the music make you feel ,ANGRY,30MonoWAV/30MonoH4.wav,2,2,1,8,,,,,0,7,7,7,0,0,0,2,,,5,2.268119028000001,5,1.585872084000016,5,0.9188445839999986,1,1.8859856729999365,043,001,2019_May_17_1415,MusicAffectPsychophysiology2019,3.0.5,60.069594710203845,
To what extent did the music make you feel ,ACTIVE,30MonoWAV/30MonoH4.wav,2,2,1,8,,,,,0,7,7,7,0,1,1,9,,,,,,,,,5,1.4341811430000462,043,001,2019_May_17_1415,MusicAffectPsychophysiology2019,3.0.5,60.069594710203845,
To what extent did the music make you feel ,ALERT,30MonoWAV/30MonoH4.wav,2,2,1,8,,,,,0,7,7,7,0,2,2,8,,,,,,,,,5,0.8692337969999926,043,001,2019_May_17_1415,MusicAffectPsychophysiology2019,3.0.5,60.069594710203845,
To what extent did the music make you feel ,FRUSTRATED,30MonoWAV/30MonoH4.wav,2,2,1,8,,,,,0,7,7,7,0,3,3,3,,,,,,,,,1,1.1359906000000137,043,001,2019_May_17_1415,MusicAffectPsychophysiology2019,3.0.5,60.069594710203845,
To what extent did the music make you feel ,GUILTY,30MonoWAV/30MonoH4.wav,2,2,1,8,,,,,0,7,7,7,0,4,4,5,,,,,,,,,1,3.8008614850000413,043,001,2019_May_17_1415,MusicAffectPsychophysiology2019,3.0.5,60.069594710203845,
To what extent did the music make you feel ,TENDER,30MonoWAV/30MonoH4.wav,2,2,1,8,,,,,0,7,7,7,0,5,5,10,,,,,,,,,3,2.3018106029999217,043,001,2019_May_17_1415,MusicAffectPsychophysiology2019,3.0.5,60.069594710203845,
To what extent did the music make you feel ,ANXIOUS ,30MonoWAV/30MonoH4.wav,2,2,1,8,,,,,0,7,7,7,0,6,6,1,,,,,,,,,1,1.2524090639999486,043,001,2019_May_17_1415,MusicAffectPsychophysiology2019,3.0.5,60.069594710203845,
To what extent did the music make you feel ,HAPPY,30MonoWAV/30MonoH4.wav,2,2,1,8,,,,,0,7,7,7,0,7,7,6,,,,,,,,,5,1.3347426000000269,043,001,2019_May_17_1415,MusicAffectPsychophysiology2019,3.0.5,60.069594710203845,
To what extent did the music make you feel ,EXCITED,30MonoWAV/30MonoH4.wav,2,2,1,8,,,,,0,7,7,7,0,8,8,7,,,,,,,,,5,2.1860897870000144,043,001,2019_May_17_1415,MusicAffectPsychophysiology2019,3.0.5,60.069594710203845,
To what extent did the music make you feel ,ASHAMED,30MonoWAV/30MonoH4.wav,2,2,1,8,,,,,0,7,7,7,0,9,9,4,,,,,,,,,1,1.3687456540000085,043,001,2019_May_17_1415,MusicAffectPsychophysiology2019,3.0.5,60.069594710203845,
To what extent did the music make you feel ,SAD,30MonoWAV/30MonoH4.wav,2,2,1,8,,,,,0,7,7,7,0,10,10,0,,,,,,,,,1,1.9680882369999608,043,001,2019_May_17_1415,MusicAffectPsychophysiology2019,3.0.5,60.069594710203845,
To what extent did the music make you feel ,SCARED,30MonoWAV/30MonoH4.wav,2,2,1,8,,,,,0,7,7,7,0,11,11,11,,,,,,,,,1,1.0857950029999301,043,001,2019_May_17_1415,MusicAffectPsychophysiology2019,3.0.5,60.069594710203845,
,,30MonoWAV/30MonoH4.wav,2,2,1,8,,,,,0,7,7,7,,,,,,,,,,,,,,,043,001,2019_May_17_1415,MusicAffectPsychophysiology2019,3.0.5,60.069594710203845,
To what extent did the music make you feel ,ALERT,30MonoWAV/30MonoT1.wav,2,1,4,13,,,,,0,8,8,12,0,0,0,8,,,1,3.0029435919999514,4,2.0860650309999755,3,1.7005796600000167,2,3.960982715,043,001,2019_May_17_1415,MusicAffectPsychophysiology2019,3.0.5,60.069594710203845,
To what extent did the music make you feel ,ASHAMED,30MonoWAV/30MonoT1.wav,2,1,4,13,,,,,0,8,8,12,0,1,1,4,,,,,,,,,1,1.017150034999986,043,001,2019_May_17_1415,MusicAffectPsychophysiology2019,3.0.5,60.069594710203845,
To what extent did the music make you feel ,SCARED,30MonoWAV/30MonoT1.wav,2,1,4,13,,,,,0,8,8,12,0,2,2,11,,,,,,,,,1,1.6675483710000663,043,001,2019_May_17_1415,MusicAffectPsychophysiology2019,3.0.5,60.069594710203845,
To what extent did the music make you feel ,EXCITED,30MonoWAV/30MonoT1.wav,2,1,4,13,,,,,0,8,8,12,0,3,3,7,,,,,,,,,2,1.1858867930000088,043,001,2019_May_17_1415,MusicAffectPsychophysiology2019,3.0.5,60.069594710203845,
To what extent did the music make you feel ,FRUSTRATED,30MonoWAV/30MonoT1.wav,2,1,4,13,,,,,0,8,8,12,0,4,4,3,,,,,,,,,1,2.5677342370000815,043,001,2019_May_17_1415,MusicAffectPsychophysiology2019,3.0.5,60.069594710203845,
To what extent did the music make you feel ,HAPPY,30MonoWAV/30MonoT1.wav,2,1,4,13,,,,,0,8,8,12,0,5,5,6,,,,,,,,,3,1.352178110000068,043,001,2019_May_17_1415,MusicAffectPsychophysiology2019,3.0.5,60.069594710203845,
To what extent did the music make you feel ,ANGRY,30MonoWAV/30MonoT1.wav,2,1,4,13,,,,,0,8,8,12,0,6,6,2,,,,,,,,,1,0.8682793420000507,043,001,2019_May_17_1415,MusicAffectPsychophysiology2019,3.0.5,60.069594710203845,
To what extent did the music make you feel ,ACTIVE,30MonoWAV/30MonoT1.wav,2,1,4,13,,,,,0,8,8,12,0,7,7,9,,,,,,,,,1,2.551671678000048,043,001,2019_May_17_1415,MusicAffectPsychophysiology2019,3.0.5,60.069594710203845,
To what extent did the music make you feel ,SAD,30MonoWAV/30MonoT1.wav,2,1,4,13,,,,,0,8,8,12,0,8,8,0,,,,,,,,,4,2.318819042999962,043,001,2019_May_17_1415,MusicAffectPsychophysiology2019,3.0.5,60.069594710203845,
To what extent did the music make you feel ,ANXIOUS ,30MonoWAV/30MonoT1.wav,2,1,4,13,,,,,0,8,8,12,0,9,9,1,,,,,,,,,3,2.066829826000003,043,001,2019_May_17_1415,MusicAffectPsychophysiology2019,3.0.5,60.069594710203845,
To what extent did the music make you feel ,TENDER,30MonoWAV/30MonoT1.wav,2,1,4,13,,,,,0,8,8,12,0,10,10,10,,,,,,,,,5,2.7180423809999184,043,001,2019_May_17_1415,MusicAffectPsychophysiology2019,3.0.5,60.069594710203845,
To what extent did the music make you feel ,GUILTY,30MonoWAV/30MonoT1.wav,2,1,4,13,,,,,0,8,8,12,0,11,11,5,,,,,,,,,2,2.4681118510000033,043,001,2019_May_17_1415,MusicAffectPsychophysiology2019,3.0.5,60.069594710203845,
,,30MonoWAV/30MonoT1.wav,2,1,4,13,,,,,0,8,8,12,,,,,,,,,,,,,,,043,001,2019_May_17_1415,MusicAffectPsychophysiology2019,3.0.5,60.069594710203845,
To what extent did the music make you feel ,ALERT,30MonoWAV/30MonoT2.wav,2,1,4,14,,,,,0,9,9,13,0,0,0,8,,,1,2.788202735000027,2,2.871093528000074,2,1.9517954489999738,2,4.867463642999951,043,001,2019_May_17_1415,MusicAffectPsychophysiology2019,3.0.5,60.069594710203845,
To what extent did the music make you feel ,SCARED,30MonoWAV/30MonoT2.wav,2,1,4,14,,,,,0,9,9,13,0,1,1,11,,,,,,,,,2,1.535264851000079,043,001,2019_May_17_1415,MusicAffectPsychophysiology2019,3.0.5,60.069594710203845,
To what extent did the music make you feel ,ACTIVE,30MonoWAV/30MonoT2.wav,2,1,4,14,,,,,0,9,9,13,0,2,2,9,,,,,,,,,2,2.0515344980000236,043,001,2019_May_17_1415,MusicAffectPsychophysiology2019,3.0.5,60.069594710203845,
To what extent did the music make you feel ,ANXIOUS ,30MonoWAV/30MonoT2.wav,2,1,4,14,,,,,0,9,9,13,0,3,3,1,,,,,,,,,3,3.56816604800008,043,001,2019_May_17_1415,MusicAffectPsychophysiology2019,3.0.5,60.069594710203845,
To what extent did the music make you feel ,EXCITED,30MonoWAV/30MonoT2.wav,2,1,4,14,,,,,0,9,9,13,0,4,4,7,,,,,,,,,1,1.218967885999973,043,001,2019_May_17_1415,MusicAffectPsychophysiology2019,3.0.5,60.069594710203845,
To what extent did the music make you feel ,HAPPY,30MonoWAV/30MonoT2.wav,2,1,4,14,,,,,0,9,9,13,0,5,5,6,,,,,,,,,2,1.8681893289999607,043,001,2019_May_17_1415,MusicAffectPsychophysiology2019,3.0.5,60.069594710203845,
To what extent did the music make you feel ,SAD,30MonoWAV/30MonoT2.wav,2,1,4,14,,,,,0,9,9,13,0,6,6,0,,,,,,,,,3,1.4520079410000335,043,001,2019_May_17_1415,MusicAffectPsychophysiology2019,3.0.5,60.069594710203845,
To what extent did the music make you feel ,GUILTY,30MonoWAV/30MonoT2.wav,2,1,4,14,,,,,0,9,9,13,0,7,7,5,,,,,,,,,2,1.7018711279999934,043,001,2019_May_17_1415,MusicAffectPsychophysiology2019,3.0.5,60.069594710203845,
To what extent did the music make you feel ,ASHAMED,30MonoWAV/30MonoT2.wav,2,1,4,14,,,,,0,9,9,13,0,8,8,4,,,,,,,,,1,2.485442785000032,043,001,2019_May_17_1415,MusicAffectPsychophysiology2019,3.0.5,60.069594710203845,
To what extent did the music make you feel ,TENDER,30MonoWAV/30MonoT2.wav,2,1,4,14,,,,,0,9,9,13,0,9,9,10,,,,,,,,,4,2.384957199999917,043,001,2019_May_17_1415,MusicAffectPsychophysiology2019,3.0.5,60.069594710203845,
To what extent did the music make you feel ,FRUSTRATED,30MonoWAV/30MonoT2.wav,2,1,4,14,,,,,0,9,9,13,0,10,10,3,,,,,,,,,1,1.4182171330000983,043,001,2019_May_17_1415,MusicAffectPsychophysiology2019,3.0.5,60.069594710203845,
To what extent did the music make you feel ,ANGRY,30MonoWAV/30MonoT2.wav,2,1,4,14,,,,,0,9,9,13,0,11,11,2,,,,,,,,,1,1.0357239539998773,043,001,2019_May_17_1415,MusicAffectPsychophysiology2019,3.0.5,60.069594710203845,
,,30MonoWAV/30MonoT2.wav,2,1,4,14,,,,,0,9,9,13,,,,,,,,,,,,,,,043,001,2019_May_17_1415,MusicAffectPsychophysiology2019,3.0.5,60.069594710203845,
To what extent did the music make you feel ,TENDER,30MonoWAV/30MonoS4.wav,1,1,3,12,,,,,0,10,10,11,0,0,0,10,,,1,3.1835386699999617,1,1.7677355230000558,4,2.0848326640000323,3,2.134191355999974,043,001,2019_May_17_1415,MusicAffectPsychophysiology2019,3.0.5,60.069594710203845,
To what extent did the music make you feel ,EXCITED,30MonoWAV/30MonoS4.wav,1,1,3,12,,,,,0,10,10,11,0,1,1,7,,,,,,,,,1,0.9847635609999088,043,001,2019_May_17_1415,MusicAffectPsychophysiology2019,3.0.5,60.069594710203845,
To what extent did the music make you feel ,SCARED,30MonoWAV/30MonoS4.wav,1,1,3,12,,,,,0,10,10,11,0,2,2,11,,,,,,,,,2,1.5353953409999122,043,001,2019_May_17_1415,MusicAffectPsychophysiology2019,3.0.5,60.069594710203845,
To what extent did the music make you feel ,SAD,30MonoWAV/30MonoS4.wav,1,1,3,12,,,,,0,10,10,11,0,3,3,0,,,,,,,,,5,1.968436727000153,043,001,2019_May_17_1415,MusicAffectPsychophysiology2019,3.0.5,60.069594710203845,
To what extent did the music make you feel ,ALERT,30MonoWAV/30MonoS4.wav,1,1,3,12,,,,,0,10,10,11,0,4,4,8,,,,,,,,,2,2.519105588000002,043,001,2019_May_17_1415,MusicAffectPsychophysiology2019,3.0.5,60.069594710203845,
To what extent did the music make you feel ,GUILTY,30MonoWAV/30MonoS4.wav,1,1,3,12,,,,,0,10,10,11,0,5,5,5,,,,,,,,,2,1.3176275929999974,043,001,2019_May_17_1415,MusicAffectPsychophysiology2019,3.0.5,60.069594710203845,
To what extent did the music make you feel ,ASHAMED,30MonoWAV/30MonoS4.wav,1,1,3,12,,,,,0,10,10,11,0,6,6,4,,,,,,,,,2,1.1185795389999384,043,001,2019_May_17_1415,MusicAffectPsychophysiology2019,3.0.5,60.069594710203845,
To what extent did the music make you feel ,HAPPY,30MonoWAV/30MonoS4.wav,1,1,3,12,,,,,0,10,10,11,0,7,7,6,,,,,,,,,1,1.0019692329999543,043,001,2019_May_17_1415,MusicAffectPsychophysiology2019,3.0.5,60.069594710203845,
To what extent did the music make you feel ,FRUSTRATED,30MonoWAV/30MonoS4.wav,1,1,3,12,,,,,0,10,10,11,0,8,8,3,,,,,,,,,1,1.0681417329999476,043,001,2019_May_17_1415,MusicAffectPsychophysiology2019,3.0.5,60.069594710203845,
To what extent did the music make you feel ,ANGRY,30MonoWAV/30MonoS4.wav,1,1,3,12,,,,,0,10,10,11,0,9,9,2,,,,,,,,,1,1.4506962899999962,043,001,2019_May_17_1415,MusicAffectPsychophysiology2019,3.0.5,60.069594710203845,
To what extent did the music make you feel ,ANXIOUS ,30MonoWAV/30MonoS4.wav,1,1,3,12,,,,,0,10,10,11,0,10,10,1,,,,,,,,,2,1.2346542450000015,043,001,2019_May_17_1415,MusicAffectPsychophysiology2019,3.0.5,60.069594710203845,
To what extent did the music make you feel ,ACTIVE,30MonoWAV/30MonoS4.wav,1,1,3,12,,,,,0,10,10,11,0,11,11,9,,,,,,,,,1,1.1029783000001316,043,001,2019_May_17_1415,MusicAffectPsychophysiology2019,3.0.5,60.069594710203845,
,,30MonoWAV/30MonoS4.wav,1,1,3,12,,,,,0,10,10,11,,,,,,,,,,,,,,,043,001,2019_May_17_1415,MusicAffectPsychophysiology2019,3.0.5,60.069594710203845,
To what extent did the music make you feel ,ANGRY,30MonoWAV/30MonoT3.wav,2,1,4,15,,,,,0,11,11,14,0,0,0,2,,,1,2.603907052000068,3,2.3209590339999977,1,2.254258072000084,1,3.9026570899998205,043,001,2019_May_17_1415,MusicAffectPsychophysiology2019,3.0.5,60.069594710203845,
To what extent did the music make you feel ,ASHAMED,30MonoWAV/30MonoT3.wav,2,1,4,15,,,,,0,11,11,14,0,1,1,4,,,,,,,,,1,0.7675607369999398,043,001,2019_May_17_1415,MusicAffectPsychophysiology2019,3.0.5,60.069594710203845,
To what extent did the music make you feel ,SAD,30MonoWAV/30MonoT3.wav,2,1,4,15,,,,,0,11,11,14,0,2,2,0,,,,,,,,,2,1.250429535999956,043,001,2019_May_17_1415,MusicAffectPsychophysiology2019,3.0.5,60.069594710203845,
To what extent did the music make you feel ,ALERT,30MonoWAV/30MonoT3.wav,2,1,4,15,,,,,0,11,11,14,0,3,3,8,,,,,,,,,2,2.3513912199998686,043,001,2019_May_17_1415,MusicAffectPsychophysiology2019,3.0.5,60.069594710203845,
To what extent did the music make you feel ,ACTIVE,30MonoWAV/30MonoT3.wav,2,1,4,15,,,,,0,11,11,14,0,4,4,9,,,,,,,,,1,0.9688592759998755,043,001,2019_May_17_1415,MusicAffectPsychophysiology2019,3.0.5,60.069594710203845,
To what extent did the music make you feel ,FRUSTRATED,30MonoWAV/30MonoT3.wav,2,1,4,15,,,,,0,11,11,14,0,5,5,3,,,,,,,,,1,1.2175978200000372,043,001,2019_May_17_1415,MusicAffectPsychophysiology2019,3.0.5,60.069594710203845,
To what extent did the music make you feel ,ANXIOUS ,30MonoWAV/30MonoT3.wav,2,1,4,15,,,,,0,11,11,14,0,6,6,1,,,,,,,,,2,1.5841088970000783,043,001,2019_May_17_1415,MusicAffectPsychophysiology2019,3.0.5,60.069594710203845,
To what extent did the music make you feel ,GUILTY,30MonoWAV/30MonoT3.wav,2,1,4,15,,,,,0,11,11,14,0,7,7,5,,,,,,,,,1,1.5678533980001248,043,001,2019_May_17_1415,MusicAffectPsychophysiology2019,3.0.5,60.069594710203845,
To what extent did the music make you feel ,HAPPY,30MonoWAV/30MonoT3.wav,2,1,4,15,,,,,0,11,11,14,0,8,8,6,,,,,,,,,2,1.684403303999943,043,001,2019_May_17_1415,MusicAffectPsychophysiology2019,3.0.5,60.069594710203845,
To what extent did the music make you feel ,TENDER,30MonoWAV/30MonoT3.wav,2,1,4,15,,,,,0,11,11,14,0,9,9,10,,,,,,,,,3,1.0016666599999553,043,001,2019_May_17_1415,MusicAffectPsychophysiology2019,3.0.5,60.069594710203845,
To what extent did the music make you feel ,SCARED,30MonoWAV/30MonoT3.wav,2,1,4,15,,,,,0,11,11,14,0,10,10,11,,,,,,,,,1,3.1334517140001026,043,001,2019_May_17_1415,MusicAffectPsychophysiology2019,3.0.5,60.069594710203845,
To what extent did the music make you feel ,EXCITED,30MonoWAV/30MonoT3.wav,2,1,4,15,,,,,0,11,11,14,0,11,11,7,,,,,,,,,1,3.016559756000106,043,001,2019_May_17_1415,MusicAffectPsychophysiology2019,3.0.5,60.069594710203845,
,,30MonoWAV/30MonoT3.wav,2,1,4,15,,,,,0,11,11,14,,,,,,,,,,,,,,,043,001,2019_May_17_1415,MusicAffectPsychophysiology2019,3.0.5,60.069594710203845,
To what extent did the music make you feel ,ANGRY,30MonoWAV/30MonoF1.wav,1,2,2,1,,,,,0,12,12,0,0,0,0,2,,,2,5.3724553730000935,1,2.6717830669999785,1,1.6201452289999452,4,6.025057165999897,043,001,2019_May_17_1415,MusicAffectPsychophysiology2019,3.0.5,60.069594710203845,
To what extent did the music make you feel ,ANXIOUS ,30MonoWAV/30MonoF1.wav,1,2,2,1,,,,,0,12,12,0,0,1,1,1,,,,,,,,,4,2.551128949000031,043,001,2019_May_17_1415,MusicAffectPsychophysiology2019,3.0.5,60.069594710203845,
To what extent did the music make you feel ,SCARED,30MonoWAV/30MonoF1.wav,1,2,2,1,,,,,0,12,12,0,0,2,2,11,,,,,,,,,3,1.8190077029998974,043,001,2019_May_17_1415,MusicAffectPsychophysiology2019,3.0.5,60.069594710203845,
To what extent did the music make you feel ,SAD,30MonoWAV/30MonoF1.wav,1,2,2,1,,,,,0,12,12,0,0,3,3,0,,,,,,,,,2,1.7022403210000903,043,001,2019_May_17_1415,MusicAffectPsychophysiology2019,3.0.5,60.069594710203845,
To what extent did the music make you feel ,GUILTY,30MonoWAV/30MonoF1.wav,1,2,2,1,,,,,0,12,12,0,0,4,4,5,,,,,,,,,1,2.251312581999855,043,001,2019_May_17_1415,MusicAffectPsychophysiology2019,3.0.5,60.069594710203845,
To what extent did the music make you feel ,EXCITED,30MonoWAV/30MonoF1.wav,1,2,2,1,,,,,0,12,12,0,0,5,5,7,,,,,,,,,2,1.8351257340000302,043,001,2019_May_17_1415,MusicAffectPsychophysiology2019,3.0.5,60.069594710203845,
To what extent did the music make you feel ,TENDER,30MonoWAV/30MonoF1.wav,1,2,2,1,,,,,0,12,12,0,0,6,6,10,,,,,,,,,1,1.2855532359999415,043,001,2019_May_17_1415,MusicAffectPsychophysiology2019,3.0.5,60.069594710203845,
To what extent did the music make you feel ,FRUSTRATED,30MonoWAV/30MonoF1.wav,1,2,2,1,,,,,0,12,12,0,0,7,7,3,,,,,,,,,1,2.6010839350001334,043,001,2019_May_17_1415,MusicAffectPsychophysiology2019,3.0.5,60.069594710203845,
To what extent did the music make you feel ,ACTIVE,30MonoWAV/30MonoF1.wav,1,2,2,1,,,,,0,12,12,0,0,8,8,9,,,,,,,,,2,2.402689539999983,043,001,2019_May_17_1415,MusicAffectPsychophysiology2019,3.0.5,60.069594710203845,
To what extent did the music make you feel ,ASHAMED,30MonoWAV/30MonoF1.wav,1,2,2,1,,,,,0,12,12,0,0,9,9,4,,,,,,,,,1,0.8511951220000356,043,001,2019_May_17_1415,MusicAffectPsychophysiology2019,3.0.5,60.069594710203845,
To what extent did the music make you feel ,HAPPY,30MonoWAV/30MonoF1.wav,1,2,2,1,,,,,0,12,12,0,0,10,10,6,,,,,,,,,1,1.1682956749998539,043,001,2019_May_17_1415,MusicAffectPsychophysiology2019,3.0.5,60.069594710203845,
To what extent did the music make you feel ,ALERT,30MonoWAV/30MonoF1.wav,1,2,2,1,,,,,0,12,12,0,0,11,11,8,,,,,,,,,1,2.4846865990000424,043,001,2019_May_17_1415,MusicAffectPsychophysiology2019,3.0.5,60.069594710203845,
,,30MonoWAV/30MonoF1.wav,1,2,2,1,,,,,0,12,12,0,,,,,,,,,,,,,,,043,001,2019_May_17_1415,MusicAffectPsychophysiology2019,3.0.5,60.069594710203845,
To what extent did the music make you feel ,ASHAMED,30MonoWAV/30MonoT4.wav,2,1,4,16,,,,,0,13,13,15,0,0,0,4,,,4,2.6681134810000913,5,1.30144248900001,5,2.067473919999884,1,5.651425717999928,043,001,2019_May_17_1415,MusicAffectPsychophysiology2019,3.0.5,60.069594710203845,
To what extent did the music make you feel ,ANGRY,30MonoWAV/30MonoT4.wav,2,1,4,16,,,,,0,13,13,15,0,1,1,2,,,,,,,,,1,0.7848696439998548,043,001,2019_May_17_1415,MusicAffectPsychophysiology2019,3.0.5,60.069594710203845,
To what extent did the music make you feel ,SCARED,30MonoWAV/30MonoT4.wav,2,1,4,16,,,,,0,13,13,15,0,2,2,11,,,,,,,,,1,1.102445378000084,043,001,2019_May_17_1415,MusicAffectPsychophysiology2019,3.0.5,60.069594710203845,
To what extent did the music make you feel ,GUILTY,30MonoWAV/30MonoT4.wav,2,1,4,16,,,,,0,13,13,15,0,3,3,5,,,,,,,,,1,0.618829198999947,043,001,2019_May_17_1415,MusicAffectPsychophysiology2019,3.0.5,60.069594710203845,
To what extent did the music make you feel ,SAD,30MonoWAV/30MonoT4.wav,2,1,4,16,,,,,0,13,13,15,0,4,4,0,,,,,,,,,1,0.7510209770000529,043,001,2019_May_17_1415,MusicAffectPsychophysiology2019,3.0.5,60.069594710203845,
To what extent did the music make you feel ,EXCITED,30MonoWAV/30MonoT4.wav,2,1,4,16,,,,,0,13,13,15,0,5,5,7,,,,,,,,,3,1.719157107000001,043,001,2019_May_17_1415,MusicAffectPsychophysiology2019,3.0.5,60.069594710203845,
To what extent did the music make you feel ,ACTIVE,30MonoWAV/30MonoT4.wav,2,1,4,16,,,,,0,13,13,15,0,6,6,9,,,,,,,,,4,1.318659185999877,043,001,2019_May_17_1415,MusicAffectPsychophysiology2019,3.0.5,60.069594710203845,
To what extent did the music make you feel ,FRUSTRATED,30MonoWAV/30MonoT4.wav,2,1,4,16,,,,,0,13,13,15,0,7,7,3,,,,,,,,,1,1.134778408999864,043,001,2019_May_17_1415,MusicAffectPsychophysiology2019,3.0.5,60.069594710203845,
To what extent did the music make you feel ,TENDER,30MonoWAV/30MonoT4.wav,2,1,4,16,,,,,0,13,13,15,0,8,8,10,,,,,,,,,5,2.1844081829999595,043,001,2019_May_17_1415,MusicAffectPsychophysiology2019,3.0.5,60.069594710203845,
To what extent did the music make you feel ,ALERT,30MonoWAV/30MonoT4.wav,2,1,4,16,,,,,0,13,13,15,0,9,9,8,,,,,,,,,4,1.601793841000017,043,001,2019_May_17_1415,MusicAffectPsychophysiology2019,3.0.5,60.069594710203845,
To what extent did the music make you feel ,ANXIOUS ,30MonoWAV/30MonoT4.wav,2,1,4,16,,,,,0,13,13,15,0,10,10,1,,,,,,,,,1,1.617955868000081,043,001,2019_May_17_1415,MusicAffectPsychophysiology2019,3.0.5,60.069594710203845,
To what extent did the music make you feel ,HAPPY,30MonoWAV/30MonoT4.wav,2,1,4,16,,,,,0,13,13,15,0,11,11,6,,,,,,,,,5,1.3180348040000354,043,001,2019_May_17_1415,MusicAffectPsychophysiology2019,3.0.5,60.069594710203845,
,,30MonoWAV/30MonoT4.wav,2,1,4,16,,,,,0,13,13,15,,,,,,,,,,,,,,,043,001,2019_May_17_1415,MusicAffectPsychophysiology2019,3.0.5,60.069594710203845,
To what extent did the music make you feel ,EXCITED,30MonoWAV/30MonoF2.wav,1,2,2,2,,,,,0,14,14,1,0,0,0,7,,,2,2.819134071999997,1,1.0508918890000132,1,2.3848463240001365,1,3.2857736230000683,043,001,2019_May_17_1415,MusicAffectPsychophysiology2019,3.0.5,60.069594710203845,
To what extent did the music make you feel ,FRUSTRATED,30MonoWAV/30MonoF2.wav,1,2,2,2,,,,,0,14,14,1,0,1,1,3,,,,,,,,,1,0.9514158850001877,043,001,2019_May_17_1415,MusicAffectPsychophysiology2019,3.0.5,60.069594710203845,
To what extent did the music make you feel ,TENDER,30MonoWAV/30MonoF2.wav,1,2,2,2,,,,,0,14,14,1,0,2,2,10,,,,,,,,,1,0.8021482539998033,043,001,2019_May_17_1415,MusicAffectPsychophysiology2019,3.0.5,60.069594710203845,
To what extent did the music make you feel ,GUILTY,30MonoWAV/30MonoF2.wav,1,2,2,2,,,,,0,14,14,1,0,3,3,5,,,,,,,,,1,0.6673968180000429,043,001,2019_May_17_1415,MusicAffectPsychophysiology2019,3.0.5,60.069594710203845,
To what extent did the music make you feel ,ANGRY,30MonoWAV/30MonoF2.wav,1,2,2,2,,,,,0,14,14,1,0,4,4,2,,,,,,,,,1,1.0192165920000207,043,001,2019_May_17_1415,MusicAffectPsychophysiology2019,3.0.5,60.069594710203845,
To what extent did the music make you feel ,ACTIVE,30MonoWAV/30MonoF2.wav,1,2,2,2,,,,,0,14,14,1,0,5,5,9,,,,,,,,,1,0.9352358049998202,043,001,2019_May_17_1415,MusicAffectPsychophysiology2019,3.0.5,60.069594710203845,
To what extent did the music make you feel ,SAD,30MonoWAV/30MonoF2.wav,1,2,2,2,,,,,0,14,14,1,0,6,6,0,,,,,,,,,2,1.8849745569998504,043,001,2019_May_17_1415,MusicAffectPsychophysiology2019,3.0.5,60.069594710203845,
To what extent did the music make you feel ,SCARED,30MonoWAV/30MonoF2.wav,1,2,2,2,,,,,0,14,14,1,0,7,7,11,,,,,,,,,4,1.3682750189998387,043,001,2019_May_17_1415,MusicAffectPsychophysiology2019,3.0.5,60.069594710203845,
To what extent did the music make you feel ,HAPPY,30MonoWAV/30MonoF2.wav,1,2,2,2,,,,,0,14,14,1,0,8,8,6,,,,,,,,,1,1.5353152409998074,043,001,2019_May_17_1415,MusicAffectPsychophysiology2019,3.0.5,60.069594710203845,
To what extent did the music make you feel ,ASHAMED,30MonoWAV/30MonoF2.wav,1,2,2,2,,,,,0,14,14,1,0,9,9,4,,,,,,,,,1,1.1189482150000458,043,001,2019_May_17_1415,MusicAffectPsychophysiology2019,3.0.5,60.069594710203845,
To what extent did the music make you feel ,ANXIOUS ,30MonoWAV/30MonoF2.wav,1,2,2,2,,,,,0,14,14,1,0,10,10,1,,,,,,,,,4,1.5178751949999878,043,001,2019_May_17_1415,MusicAffectPsychophysiology2019,3.0.5,60.069594710203845,
To what extent did the music make you feel ,ALERT,30MonoWAV/30MonoF2.wav,1,2,2,2,,,,,0,14,14,1,0,11,11,8,,,,,,,,,4,3.26901877399996,043,001,2019_May_17_1415,MusicAffectPsychophysiology2019,3.0.5,60.069594710203845,
,,30MonoWAV/30MonoF2.wav,1,2,2,2,,,,,0,14,14,1,,,,,,,,,,,,,,,043,001,2019_May_17_1415,MusicAffectPsychophysiology2019,3.0.5,60.069594710203845,
To what extent did the music make you feel ,ANXIOUS ,30MonoWAV/30MonoH3.wav,2,2,1,7,,,,,0,15,15,6,0,0,0,1,,,4,2.8015600270000505,4,1.2524048440000115,2,1.401409195000042,1,5.0668019189999995,043,001,2019_May_17_1415,MusicAffectPsychophysiology2019,3.0.5,60.069594710203845,
To what extent did the music make you feel ,ACTIVE,30MonoWAV/30MonoH3.wav,2,2,1,7,,,,,0,15,15,6,0,1,1,9,,,,,,,,,2,2.1191397410000263,043,001,2019_May_17_1415,MusicAffectPsychophysiology2019,3.0.5,60.069594710203845,
To what extent did the music make you feel ,ASHAMED,30MonoWAV/30MonoH3.wav,2,2,1,7,,,,,0,15,15,6,0,2,2,4,,,,,,,,,1,0.8182558179998978,043,001,2019_May_17_1415,MusicAffectPsychophysiology2019,3.0.5,60.069594710203845,
To what extent did the music make you feel ,TENDER,30MonoWAV/30MonoH3.wav,2,2,1,7,,,,,0,15,15,6,0,3,3,10,,,,,,,,,1,1.0999853989999338,043,001,2019_May_17_1415,MusicAffectPsychophysiology2019,3.0.5,60.069594710203845,
To what extent did the music make you feel ,ALERT,30MonoWAV/30MonoH3.wav,2,2,1,7,,,,,0,15,15,6,0,4,4,8,,,,,,,,,3,1.3511237380000694,043,001,2019_May_17_1415,MusicAffectPsychophysiology2019,3.0.5,60.069594710203845,
To what extent did the music make you feel ,GUILTY,30MonoWAV/30MonoH3.wav,2,2,1,7,,,,,0,15,15,6,0,5,5,5,,,,,,,,,1,1.9020473909999964,043,001,2019_May_17_1415,MusicAffectPsychophysiology2019,3.0.5,60.069594710203845,
To what extent did the music make you feel ,EXCITED,30MonoWAV/30MonoH3.wav,2,2,1,7,,,,,0,15,15,6,0,6,6,7,,,,,,,,,2,2.8183359599997857,043,001,2019_May_17_1415,MusicAffectPsychophysiology2019,3.0.5,60.069594710203845,
To what extent did the music make you feel ,HAPPY,30MonoWAV/30MonoH3.wav,2,2,1,7,,,,,0,15,15,6,0,7,7,6,,,,,,,,,3,1.3019582280001032,043,001,2019_May_17_1415,MusicAffectPsychophysiology2019,3.0.5,60.069594710203845,
To what extent did the music make you feel ,SAD,30MonoWAV/30MonoH3.wav,2,2,1,7,,,,,0,15,15,6,0,8,8,0,,,,,,,,,1,2.267480803999888,043,001,2019_May_17_1415,MusicAffectPsychophysiology2019,3.0.5,60.069594710203845,
To what extent did the music make you feel ,ANGRY,30MonoWAV/30MonoH3.wav,2,2,1,7,,,,,0,15,15,6,0,9,9,2,,,,,,,,,1,0.9342843990000347,043,001,2019_May_17_1415,MusicAffectPsychophysiology2019,3.0.5,60.069594710203845,
To what extent did the music make you feel ,FRUSTRATED,30MonoWAV/30MonoH3.wav,2,2,1,7,,,,,0,15,15,6,0,10,10,3,,,,,,,,,1,3.751098749999983,043,001,2019_May_17_1415,MusicAffectPsychophysiology2019,3.0.5,60.069594710203845,
To what extent did the music make you feel ,SCARED,30MonoWAV/30MonoH3.wav,2,2,1,7,,,,,0,15,15,6,0,11,11,11,,,,,,,,,1,1.052429075999953,043,001,2019_May_17_1415,MusicAffectPsychophysiology2019,3.0.5,60.069594710203845,
,,30MonoWAV/30MonoH3.wav,2,2,1,7,,,,,0,15,15,6,,,,,,,,,,,,,,,043,001,2019_May_17_1415,MusicAffectPsychophysiology2019,3.0.5,60.069594710203845,
To what extent did the music make you feel ,EXCITED,30MonoWAV/30MonoS2.wav,1,1,3,10,,,,,1,0,16,9,0,0,0,7,,,1,2.106590524000012,1,1.2837852350000958,1,2.1347997830000622,1,3.7850408139997853,043,001,2019_May_17_1415,MusicAffectPsychophysiology2019,3.0.5,60.069594710203845,
To what extent did the music make you feel ,TENDER,30MonoWAV/30MonoS2.wav,1,1,3,10,,,,,1,0,16,9,0,1,1,10,,,,,,,,,3,1.234706282000161,043,001,2019_May_17_1415,MusicAffectPsychophysiology2019,3.0.5,60.069594710203845,
To what extent did the music make you feel ,GUILTY,30MonoWAV/30MonoS2.wav,1,1,3,10,,,,,1,0,16,9,0,2,2,5,,,,,,,,,2,1.2350798889999623,043,001,2019_May_17_1415,MusicAffectPsychophysiology2019,3.0.5,60.069594710203845,
To what extent did the music make you feel ,SCARED,30MonoWAV/30MonoS2.wav,1,1,3,10,,,,,1,0,16,9,0,3,3,11,,,,,,,,,1,1.7183951950000846,043,001,2019_May_17_1415,MusicAffectPsychophysiology2019,3.0.5,60.069594710203845,
To what extent did the music make you feel ,ALERT,30MonoWAV/30MonoS2.wav,1,1,3,10,,,,,1,0,16,9,0,4,4,8,,,,,,,,,1,1.2350685640001302,043,001,2019_May_17_1415,MusicAffectPsychophysiology2019,3.0.5,60.069594710203845,
To what extent did the music make you feel ,ANXIOUS ,30MonoWAV/30MonoS2.wav,1,1,3,10,,,,,1,0,16,9,0,5,5,1,,,,,,,,,2,1.2681692430001021,043,001,2019_May_17_1415,MusicAffectPsychophysiology2019,3.0.5,60.069594710203845,
To what extent did the music make you feel ,HAPPY,30MonoWAV/30MonoS2.wav,1,1,3,10,,,,,1,0,16,9,0,6,6,6,,,,,,,,,1,1.1671619869998722,043,001,2019_May_17_1415,MusicAffectPsychophysiology2019,3.0.5,60.069594710203845,
To what extent did the music make you feel ,FRUSTRATED,30MonoWAV/30MonoS2.wav,1,1,3,10,,,,,1,0,16,9,0,7,7,3,,,,,,,,,1,0.8359993970000232,043,001,2019_May_17_1415,MusicAffectPsychophysiology2019,3.0.5,60.069594710203845,
To what extent did the music make you feel ,ANGRY,30MonoWAV/30MonoS2.wav,1,1,3,10,,,,,1,0,16,9,0,8,8,2,,,,,,,,,1,0.73490839100009,043,001,2019_May_17_1415,MusicAffectPsychophysiology2019,3.0.5,60.069594710203845,
To what extent did the music make you feel ,SAD,30MonoWAV/30MonoS2.wav,1,1,3,10,,,,,1,0,16,9,0,9,9,0,,,,,,,,,4,2.8705425170001035,043,001,2019_May_17_1415,MusicAffectPsychophysiology2019,3.0.5,60.069594710203845,
To what extent did the music make you feel ,ASHAMED,30MonoWAV/30MonoS2.wav,1,1,3,10,,,,,1,0,16,9,0,10,10,4,,,,,,,,,3,1.6700045919999411,043,001,2019_May_17_1415,MusicAffectPsychophysiology2019,3.0.5,60.069594710203845,
To what extent did the music make you feel ,ACTIVE,30MonoWAV/30MonoS2.wav,1,1,3,10,,,,,1,0,16,9,0,11,11,9,,,,,,,,,1,1.9030978000000687,043,001,2019_May_17_1415,MusicAffectPsychophysiology2019,3.0.5,60.069594710203845,
,,30MonoWAV/30MonoS2.wav,1,1,3,10,,,,,1,0,16,9,,,,,,,,,,,,,,,043,001,2019_May_17_1415,MusicAffectPsychophysiology2019,3.0.5,60.069594710203845,
To what extent did the music make you feel ,ASHAMED,30MonoWAV/30MonoT2.wav,2,1,4,14,,,,,1,1,17,13,0,0,0,4,,,3,3.319042495000076,3,1.5693907859999854,3,3.3682022239997877,1,1.7024388879999606,043,001,2019_May_17_1415,MusicAffectPsychophysiology2019,3.0.5,60.069594710203845,
To what extent did the music make you feel ,SAD,30MonoWAV/30MonoT2.wav,2,1,4,14,,,,,1,1,17,13,0,1,1,0,,,,,,,,,2,1.2850050330000613,043,001,2019_May_17_1415,MusicAffectPsychophysiology2019,3.0.5,60.069594710203845,
To what extent did the music make you feel ,GUILTY,30MonoWAV/30MonoT2.wav,2,1,4,14,,,,,1,1,17,13,0,2,2,5,,,,,,,,,1,1.6350090809999074,043,001,2019_May_17_1415,MusicAffectPsychophysiology2019,3.0.5,60.069594710203845,
To what extent did the music make you feel ,FRUSTRATED,30MonoWAV/30MonoT2.wav,2,1,4,14,,,,,1,1,17,13,0,3,3,3,,,,,,,,,1,1.6167243729998972,043,001,2019_May_17_1415,MusicAffectPsychophysiology2019,3.0.5,60.069594710203845,
To what extent did the music make you feel ,EXCITED,30MonoWAV/30MonoT2.wav,2,1,4,14,,,,,1,1,17,13,0,4,4,7,,,,,,,,,1,2.1687638490000154,043,001,2019_May_17_1415,MusicAffectPsychophysiology2019,3.0.5,60.069594710203845,
To what extent did the music make you feel ,SCARED,30MonoWAV/30MonoT2.wav,2,1,4,14,,,,,1,1,17,13,0,5,5,11,,,,,,,,,1,1.2018966089999594,043,001,2019_May_17_1415,MusicAffectPsychophysiology2019,3.0.5,60.069594710203845,
To what extent did the music make you feel ,TENDER,30MonoWAV/30MonoT2.wav,2,1,4,14,,,,,1,1,17,13,0,6,6,10,,,,,,,,,3,1.2190839919999235,043,001,2019_May_17_1415,MusicAffectPsychophysiology2019,3.0.5,60.069594710203845,
To what extent did the music make you feel ,ACTIVE,30MonoWAV/30MonoT2.wav,2,1,4,14,,,,,1,1,17,13,0,7,7,9,,,,,,,,,1,3.4838658690000557,043,001,2019_May_17_1415,MusicAffectPsychophysiology2019,3.0.5,60.069594710203845,
To what extent did the music make you feel ,HAPPY,30MonoWAV/30MonoT2.wav,2,1,4,14,,,,,1,1,17,13,0,8,8,6,,,,,,,,,1,1.3004418739999437,043,001,2019_May_17_1415,MusicAffectPsychophysiology2019,3.0.5,60.069594710203845,
To what extent did the music make you feel ,ANGRY,30MonoWAV/30MonoT2.wav,2,1,4,14,,,,,1,1,17,13,0,9,9,2,,,,,,,,,1,3.217450437000025,043,001,2019_May_17_1415,MusicAffectPsychophysiology2019,3.0.5,60.069594710203845,
To what extent did the music make you feel ,ALERT,30MonoWAV/30MonoT2.wav,2,1,4,14,,,,,1,1,17,13,0,10,10,8,,,,,,,,,2,2.0023296100000607,043,001,2019_May_17_1415,MusicAffectPsychophysiology2019,3.0.5,60.069594710203845,
To what extent did the music make you feel ,ANXIOUS ,30MonoWAV/30MonoT2.wav,2,1,4,14,,,,,1,1,17,13,0,11,11,1,,,,,,,,,1,2.986081000000013,043,001,2019_May_17_1415,MusicAffectPsychophysiology2019,3.0.5,60.069594710203845,
,,30MonoWAV/30MonoT2.wav,2,1,4,14,,,,,1,1,17,13,,,,,,,,,,,,,,,043,001,2019_May_17_1415,MusicAffectPsychophysiology2019,3.0.5,60.069594710203845,
To what extent did the music make you feel ,ANXIOUS ,30MonoWAV/30MonoT3.wav,2,1,4,15,,,,,1,2,18,14,0,0,0,1,,,3,6.928025254999966,5,2.834747062999895,3,1.8347876010000164,1,2.9176571989999047,043,001,2019_May_17_1415,MusicAffectPsychophysiology2019,3.0.5,60.069594710203845,
To what extent did the music make you feel ,SAD,30MonoWAV/30MonoT3.wav,2,1,4,15,,,,,1,2,18,14,0,1,1,0,,,,,,,,,2,1.5349985199998173,043,001,2019_May_17_1415,MusicAffectPsychophysiology2019,3.0.5,60.069594710203845,
To what extent did the music make you feel ,EXCITED,30MonoWAV/30MonoT3.wav,2,1,4,15,,,,,1,2,18,14,0,2,2,7,,,,,,,,,3,2.4005023059999075,043,001,2019_May_17_1415,MusicAffectPsychophysiology2019,3.0.5,60.069594710203845,
To what extent did the music make you feel ,ACTIVE,30MonoWAV/30MonoT3.wav,2,1,4,15,,,,,1,2,18,14,0,3,3,9,,,,,,,,,1,1.2356194610001694,043,001,2019_May_17_1415,MusicAffectPsychophysiology2019,3.0.5,60.069594710203845,
To what extent did the music make you feel ,ALERT,30MonoWAV/30MonoT3.wav,2,1,4,15,,,,,1,2,18,14,0,4,4,8,,,,,,,,,4,1.435599196999874,043,001,2019_May_17_1415,MusicAffectPsychophysiology2019,3.0.5,60.069594710203845,
To what extent did the music make you feel ,SCARED,30MonoWAV/30MonoT3.wav,2,1,4,15,,,,,1,2,18,14,0,5,5,11,,,,,,,,,1,1.8348698639999839,043,001,2019_May_17_1415,MusicAffectPsychophysiology2019,3.0.5,60.069594710203845,
To what extent did the music make you feel ,TENDER,30MonoWAV/30MonoT3.wav,2,1,4,15,,,,,1,2,18,14,0,6,6,10,,,,,,,,,5,1.522950332999926,043,001,2019_May_17_1415,MusicAffectPsychophysiology2019,3.0.5,60.069594710203845,
To what extent did the music make you feel ,ANGRY,30MonoWAV/30MonoT3.wav,2,1,4,15,,,,,1,2,18,14,0,7,7,2,,,,,,,,,1,2.254261836000069,043,001,2019_May_17_1415,MusicAffectPsychophysiology2019,3.0.5,60.069594710203845,
To what extent did the music make you feel ,ASHAMED,30MonoWAV/30MonoT3.wav,2,1,4,15,,,,,1,2,18,14,0,8,8,4,,,,,,,,,1,1.0698516909999398,043,001,2019_May_17_1415,MusicAffectPsychophysiology2019,3.0.5,60.069594710203845,
To what extent did the music make you feel ,FRUSTRATED,30MonoWAV/30MonoT3.wav,2,1,4,15,,,,,1,2,18,14,0,9,9,3,,,,,,,,,1,0.7354618669999127,043,001,2019_May_17_1415,MusicAffectPsychophysiology2019,3.0.5,60.069594710203845,
To what extent did the music make you feel ,GUILTY,30MonoWAV/30MonoT3.wav,2,1,4,15,,,,,1,2,18,14,0,10,10,5,,,,,,,,,1,0.6696465319998879,043,001,2019_May_17_1415,MusicAffectPsychophysiology2019,3.0.5,60.069594710203845,
To what extent did the music make you feel ,HAPPY,30MonoWAV/30MonoT3.wav,2,1,4,15,,,,,1,2,18,14,0,11,11,6,,,,,,,,,5,1.587192160999848,043,001,2019_May_17_1415,MusicAffectPsychophysiology2019,3.0.5,60.069594710203845,
,,30MonoWAV/30MonoT3.wav,2,1,4,15,,,,,1,2,18,14,,,,,,,,,,,,,,,043,001,2019_May_17_1415,MusicAffectPsychophysiology2019,3.0.5,60.069594710203845,
To what extent did the music make you feel ,EXCITED,30MonoWAV/30MonoH4.wav,2,2,1,8,,,,,1,3,19,7,0,0,0,7,,,5,2.318465233000097,5,1.0347691710001072,4,1.2839423000000352,5,3.250632771000028,043,001,2019_May_17_1415,MusicAffectPsychophysiology2019,3.0.5,60.069594710203845,
To what extent did the music make you feel ,ASHAMED,30MonoWAV/30MonoH4.wav,2,2,1,8,,,,,1,3,19,7,0,1,1,4,,,,,,,,,1,1.0855530060000547,043,001,2019_May_17_1415,MusicAffectPsychophysiology2019,3.0.5,60.069594710203845,
To what extent did the music make you feel ,SCARED,30MonoWAV/30MonoH4.wav,2,2,1,8,,,,,1,3,19,7,0,2,2,11,,,,,,,,,1,1.016440811999928,043,001,2019_May_17_1415,MusicAffectPsychophysiology2019,3.0.5,60.069594710203845,
To what extent did the music make you feel ,FRUSTRATED,30MonoWAV/30MonoH4.wav,2,2,1,8,,,,,1,3,19,7,0,3,3,3,,,,,,,,,1,1.2188341400001264,043,001,2019_May_17_1415,MusicAffectPsychophysiology2019,3.0.5,60.069594710203845,
To what extent did the music make you feel ,HAPPY,30MonoWAV/30MonoH4.wav,2,2,1,8,,,,,1,3,19,7,0,4,4,6,,,,,,,,,5,1.2837248449998242,043,001,2019_May_17_1415,MusicAffectPsychophysiology2019,3.0.5,60.069594710203845,
To what extent did the music make you feel ,SAD,30MonoWAV/30MonoH4.wav,2,2,1,8,,,,,1,3,19,7,0,5,5,0,,,,,,,,,1,1.202808675000142,043,001,2019_May_17_1415,MusicAffectPsychophysiology2019,3.0.5,60.069594710203845,
To what extent did the music make you feel ,ACTIVE,30MonoWAV/30MonoH4.wav,2,2,1,8,,,,,1,3,19,7,0,6,6,9,,,,,,,,,4,1.6182448879999356,043,001,2019_May_17_1415,MusicAffectPsychophysiology2019,3.0.5,60.069594710203845,
To what extent did the music make you feel ,ANGRY,30MonoWAV/30MonoH4.wav,2,2,1,8,,,,,1,3,19,7,0,7,7,2,,,,,,,,,1,1.2686386719999518,043,001,2019_May_17_1415,MusicAffectPsychophysiology2019,3.0.5,60.069594710203845,
To what extent did the music make you feel ,GUILTY,30MonoWAV/30MonoH4.wav,2,2,1,8,,,,,1,3,19,7,0,8,8,5,,,,,,,,,1,0.6512351879998732,043,001,2019_May_17_1415,MusicAffectPsychophysiology2019,3.0.5,60.069594710203845,
To what extent did the music make you feel ,ANXIOUS ,30MonoWAV/30MonoH4.wav,2,2,1,8,,,,,1,3,19,7,0,9,9,1,,,,,,,,,1,0.6848300890001155,043,001,2019_May_17_1415,MusicAffectPsychophysiology2019,3.0.5,60.069594710203845,
To what extent did the music make you feel ,ALERT,30MonoWAV/30MonoH4.wav,2,2,1,8,,,,,1,3,19,7,0,10,10,8,,,,,,,,,4,2.4684628679999605,043,001,2019_May_17_1415,MusicAffectPsychophysiology2019,3.0.5,60.069594710203845,
To what extent did the music make you feel ,TENDER,30MonoWAV/30MonoH4.wav,2,2,1,8,,,,,1,3,19,7,0,11,11,10,,,,,,,,,3,1.6836802959999204,043,001,2019_May_17_1415,MusicAffectPsychophysiology2019,3.0.5,60.069594710203845,
,,30MonoWAV/30MonoH4.wav,2,2,1,8,,,,,1,3,19,7,,,,,,,,,,,,,,,043,001,2019_May_17_1415,MusicAffectPsychophysiology2019,3.0.5,60.069594710203845,
To what extent did the music make you feel ,ALERT,30MonoWAV/30MonoS1.wav,1,1,3,9,,,,,1,4,20,8,0,0,0,8,,,1,3.6513326159999906,1,1.8510239390000152,1,1.9350907959999404,1,3.1677150489999804,043,001,2019_May_17_1415,MusicAffectPsychophysiology2019,3.0.5,60.069594710203845,
To what extent did the music make you feel ,ASHAMED,30MonoWAV/30MonoS1.wav,1,1,3,9,,,,,1,4,20,8,0,1,1,4,,,,,,,,,1,0.8172873890000574,043,001,2019_May_17_1415,MusicAffectPsychophysiology2019,3.0.5,60.069594710203845,
To what extent did the music make you feel ,TENDER,30MonoWAV/30MonoS1.wav,1,1,3,9,,,,,1,4,20,8,0,2,2,10,,,,,,,,,3,1.3512120410000534,043,001,2019_May_17_1415,MusicAffectPsychophysiology2019,3.0.5,60.069594710203845,
To what extent did the music make you feel ,GUILTY,30MonoWAV/30MonoS1.wav,1,1,3,9,,,,,1,4,20,8,0,3,3,5,,,,,,,,,2,5.6846354440001505,043,001,2019_May_17_1415,MusicAffectPsychophysiology2019,3.0.5,60.069594710203845,
To what extent did the music make you feel ,HAPPY,30MonoWAV/30MonoS1.wav,1,1,3,9,,,,,1,4,20,8,0,4,4,6,,,,,,,,,1,2.5675851290000082,043,001,2019_May_17_1415,MusicAffectPsychophysiology2019,3.0.5,60.069594710203845,
To what extent did the music make you feel ,ACTIVE,30MonoWAV/30MonoS1.wav,1,1,3,9,,,,,1,4,20,8,0,5,5,9,,,,,,,,,1,0.98343439700011,043,001,2019_May_17_1415,MusicAffectPsychophysiology2019,3.0.5,60.069594710203845,
To what extent did the music make you feel ,FRUSTRATED,30MonoWAV/30MonoS1.wav,1,1,3,9,,,,,1,4,20,8,0,6,6,3,,,,,,,,,1,1.0685771979999572,043,001,2019_May_17_1415,MusicAffectPsychophysiology2019,3.0.5,60.069594710203845,
To what extent did the music make you feel ,SAD,30MonoWAV/30MonoS1.wav,1,1,3,9,,,,,1,4,20,8,0,7,7,0,,,,,,,,,4,1.8526256749998993,043,001,2019_May_17_1415,MusicAffectPsychophysiology2019,3.0.5,60.069594710203845,
To what extent did the music make you feel ,ANGRY,30MonoWAV/30MonoS1.wav,1,1,3,9,,,,,1,4,20,8,0,8,8,2,,,,,,,,,1,1.3502553009998337,043,001,2019_May_17_1415,MusicAffectPsychophysiology2019,3.0.5,60.069594710203845,
To what extent did the music make you feel ,EXCITED,30MonoWAV/30MonoS1.wav,1,1,3,9,,,,,1,4,20,8,0,9,9,7,,,,,,,,,1,2.2691794200000004,043,001,2019_May_17_1415,MusicAffectPsychophysiology2019,3.0.5,60.069594710203845,
To what extent did the music make you feel ,ANXIOUS ,30MonoWAV/30MonoS1.wav,1,1,3,9,,,,,1,4,20,8,0,10,10,1,,,,,,,,,3,1.351201519000142,043,001,2019_May_17_1415,MusicAffectPsychophysiology2019,3.0.5,60.069594710203845,
To what extent did the music make you feel ,SCARED,30MonoWAV/30MonoS1.wav,1,1,3,9,,,,,1,4,20,8,0,11,11,11,,,,,,,,,1,1.6007699950000642,043,001,2019_May_17_1415,MusicAffectPsychophysiology2019,3.0.5,60.069594710203845,
,,30MonoWAV/30MonoS1.wav,1,1,3,9,,,,,1,4,20,8,,,,,,,,,,,,,,,043,001,2019_May_17_1415,MusicAffectPsychophysiology2019,3.0.5,60.069594710203845,
To what extent did the music make you feel ,ACTIVE,30MonoWAV/30MonoF2.wav,1,2,2,2,,,,,1,5,21,1,0,0,0,9,,,1,3.085061825000139,1,1.0518453700001373,1,1.302306126000076,1,3.418136147000041,043,001,2019_May_17_1415,MusicAffectPsychophysiology2019,3.0.5,60.069594710203845,
To what extent did the music make you feel ,EXCITED,30MonoWAV/30MonoF2.wav,1,2,2,2,,,,,1,5,21,1,0,1,1,7,,,,,,,,,1,0.7681254659999013,043,001,2019_May_17_1415,MusicAffectPsychophysiology2019,3.0.5,60.069594710203845,
To what extent did the music make you feel ,ANXIOUS ,30MonoWAV/30MonoF2.wav,1,2,2,2,,,,,1,5,21,1,0,2,2,1,,,,,,,,,4,2.4516116490001423,043,001,2019_May_17_1415,MusicAffectPsychophysiology2019,3.0.5,60.069594710203845,
To what extent did the music make you feel ,ANGRY,30MonoWAV/30MonoF2.wav,1,2,2,2,,,,,1,5,21,1,0,3,3,2,,,,,,,,,2,1.56806306999988,043,001,2019_May_17_1415,MusicAffectPsychophysiology2019,3.0.5,60.069594710203845,
To what extent did the music make you feel ,ALERT,30MonoWAV/30MonoF2.wav,1,2,2,2,,,,,1,5,21,1,0,4,4,8,,,,,,,,,4,4.63520593200019,043,001,2019_May_17_1415,MusicAffectPsychophysiology2019,3.0.5,60.069594710203845,
To what extent did the music make you feel ,GUILTY,30MonoWAV/30MonoF2.wav,1,2,2,2,,,,,1,5,21,1,0,5,5,5,,,,,,,,,1,1.1504829639998206,043,001,2019_May_17_1415,MusicAffectPsychophysiology2019,3.0.5,60.069594710203845,
To what extent did the music make you feel ,SCARED,30MonoWAV/30MonoF2.wav,1,2,2,2,,,,,1,5,21,1,0,6,6,11,,,,,,,,,5,2.0852024109999547,043,001,2019_May_17_1415,MusicAffectPsychophysiology2019,3.0.5,60.069594710203845,
To what extent did the music make you feel ,ASHAMED,30MonoWAV/30MonoF2.wav,1,2,2,2,,,,,1,5,21,1,0,7,7,4,,,,,,,,,1,1.7186488540000937,043,001,2019_May_17_1415,MusicAffectPsychophysiology2019,3.0.5,60.069594710203845,
To what extent did the music make you feel ,SAD,30MonoWAV/30MonoF2.wav,1,2,2,2,,,,,1,5,21,1,0,8,8,0,,,,,,,,,2,2.0176469909999923,043,001,2019_May_17_1415,MusicAffectPsychophysiology2019,3.0.5,60.069594710203845,
To what extent did the music make you feel ,FRUSTRATED,30MonoWAV/30MonoF2.wav,1,2,2,2,,,,,1,5,21,1,0,9,9,3,,,,,,,,,2,1.4188150649999898,043,001,2019_May_17_1415,MusicAffectPsychophysiology2019,3.0.5,60.069594710203845,
To what extent did the music make you feel ,HAPPY,30MonoWAV/30MonoF2.wav,1,2,2,2,,,,,1,5,21,1,0,10,10,6,,,,,,,,,1,0.9687310509998497,043,001,2019_May_17_1415,MusicAffectPsychophysiology2019,3.0.5,60.069594710203845,
To what extent did the music make you feel ,TENDER,30MonoWAV/30MonoF2.wav,1,2,2,2,,,,,1,5,21,1,0,11,11,10,,,,,,,,,1,1.4340752809998776,043,001,2019_May_17_1415,MusicAffectPsychophysiology2019,3.0.5,60.069594710203845,
,,30MonoWAV/30MonoF2.wav,1,2,2,2,,,,,1,5,21,1,,,,,,,,,,,,,,,043,001,2019_May_17_1415,MusicAffectPsychophysiology2019,3.0.5,60.069594710203845,
To what extent did the music make you feel ,ACTIVE,30MonoWAV/30MonoH2.wav,2,2,1,6,,,,,1,6,22,5,0,0,0,9,,,5,2.4514913079999587,4,1.9238434930000494,3,2.4716001000001597,5,3.726338210999984,043,001,2019_May_17_1415,MusicAffectPsychophysiology2019,3.0.5,60.069594710203845,
To what extent did the music make you feel ,SCARED,30MonoWAV/30MonoH2.wav,2,2,1,6,,,,,1,6,22,5,0,1,1,11,,,,,,,,,1,1.2011629869998615,043,001,2019_May_17_1415,MusicAffectPsychophysiology2019,3.0.5,60.069594710203845,
To what extent did the music make you feel ,SAD,30MonoWAV/30MonoH2.wav,2,2,1,6,,,,,1,6,22,5,0,2,2,0,,,,,,,,,1,0.9032726770001318,043,001,2019_May_17_1415,MusicAffectPsychophysiology2019,3.0.5,60.069594710203845,
To what extent did the music make you feel ,EXCITED,30MonoWAV/30MonoH2.wav,2,2,1,6,,,,,1,6,22,5,0,3,3,7,,,,,,,,,4,1.5022116420000202,043,001,2019_May_17_1415,MusicAffectPsychophysiology2019,3.0.5,60.069594710203845,
To what extent did the music make you feel ,ALERT,30MonoWAV/30MonoH2.wav,2,2,1,6,,,,,1,6,22,5,0,4,4,8,,,,,,,,,5,3.3346725879998758,043,001,2019_May_17_1415,MusicAffectPsychophysiology2019,3.0.5,60.069594710203845,
To what extent did the music make you feel ,ANGRY,30MonoWAV/30MonoH2.wav,2,2,1,6,,,,,1,6,22,5,0,5,5,2,,,,,,,,,1,1.0348770589998821,043,001,2019_May_17_1415,MusicAffectPsychophysiology2019,3.0.5,60.069594710203845,
To what extent did the music make you feel ,HAPPY,30MonoWAV/30MonoH2.wav,2,2,1,6,,,,,1,6,22,5,0,6,6,6,,,,,,,,,4,3.3020778590000646,043,001,2019_May_17_1415,MusicAffectPsychophysiology2019,3.0.5,60.069594710203845,
To what extent did the music make you feel ,ANXIOUS ,30MonoWAV/30MonoH2.wav,2,2,1,6,,,,,1,6,22,5,0,7,7,1,,,,,,,,,1,1.469121985000129,043,001,2019_May_17_1415,MusicAffectPsychophysiology2019,3.0.5,60.069594710203845,
To what extent did the music make you feel ,FRUSTRATED,30MonoWAV/30MonoH2.wav,2,2,1,6,,,,,1,6,22,5,0,8,8,3,,,,,,,,,1,0.9517968019999898,043,001,2019_May_17_1415,MusicAffectPsychophysiology2019,3.0.5,60.069594710203845,
To what extent did the music make you feel ,TENDER,30MonoWAV/30MonoH2.wav,2,2,1,6,,,,,1,6,22,5,0,9,9,10,,,,,,,,,2,3.2343299080000634,043,001,2019_May_17_1415,MusicAffectPsychophysiology2019,3.0.5,60.069594710203845,
To what extent did the music make you feel ,GUILTY,30MonoWAV/30MonoH2.wav,2,2,1,6,,,,,1,6,22,5,0,10,10,5,,,,,,,,,1,0.8017301140000654,043,001,2019_May_17_1415,MusicAffectPsychophysiology2019,3.0.5,60.069594710203845,
To what extent did the music make you feel ,ASHAMED,30MonoWAV/30MonoH2.wav,2,2,1,6,,,,,1,6,22,5,0,11,11,4,,,,,,,,,1,0.752487771999995,043,001,2019_May_17_1415,MusicAffectPsychophysiology2019,3.0.5,60.069594710203845,
,,30MonoWAV/30MonoH2.wav,2,2,1,6,,,,,1,6,22,5,,,,,,,,,,,,,,,043,001,2019_May_17_1415,MusicAffectPsychophysiology2019,3.0.5,60.069594710203845,
To what extent did the music make you feel ,ACTIVE,30MonoWAV/30MonoF3.wav,1,2,2,3,,,,,1,7,23,2,0,0,0,9,,,3,3.618301145000032,2,1.619606420999844,2,1.7331509400000868,2,4.419654464999894,043,001,2019_May_17_1415,MusicAffectPsychophysiology2019,3.0.5,60.069594710203845,
To what extent did the music make you feel ,FRUSTRATED,30MonoWAV/30MonoF3.wav,1,2,2,3,,,,,1,7,23,2,0,1,1,3,,,,,,,,,2,1.199660159999894,043,001,2019_May_17_1415,MusicAffectPsychophysiology2019,3.0.5,60.069594710203845,
To what extent did the music make you feel ,ANGRY,30MonoWAV/30MonoF3.wav,1,2,2,3,,,,,1,7,23,2,0,2,2,2,,,,,,,,,1,2.334691602000021,043,001,2019_May_17_1415,MusicAffectPsychophysiology2019,3.0.5,60.069594710203845,
To what extent did the music make you feel ,ANXIOUS ,30MonoWAV/30MonoF3.wav,1,2,2,3,,,,,1,7,23,2,0,3,3,1,,,,,,,,,4,1.9012953870001184,043,001,2019_May_17_1415,MusicAffectPsychophysiology2019,3.0.5,60.069594710203845,
To what extent did the music make you feel ,GUILTY,30MonoWAV/30MonoF3.wav,1,2,2,3,,,,,1,7,23,2,0,4,4,5,,,,,,,,,1,1.234812437999608,043,001,2019_May_17_1415,MusicAffectPsychophysiology2019,3.0.5,60.069594710203845,
To what extent did the music make you feel ,EXCITED,30MonoWAV/30MonoF3.wav,1,2,2,3,,,,,1,7,23,2,0,5,5,7,,,,,,,,,2,2.4172480749998613,043,001,2019_May_17_1415,MusicAffectPsychophysiology2019,3.0.5,60.069594710203845,
To what extent did the music make you feel ,SAD,30MonoWAV/30MonoF3.wav,1,2,2,3,,,,,1,7,23,2,0,6,6,0,,,,,,,,,1,2.118724975999612,043,001,2019_May_17_1415,MusicAffectPsychophysiology2019,3.0.5,60.069594710203845,
To what extent did the music make you feel ,HAPPY,30MonoWAV/30MonoF3.wav,1,2,2,3,,,,,1,7,23,2,0,7,7,6,,,,,,,,,1,1.0349704989998827,043,001,2019_May_17_1415,MusicAffectPsychophysiology2019,3.0.5,60.069594710203845,
To what extent did the music make you feel ,TENDER,30MonoWAV/30MonoF3.wav,1,2,2,3,,,,,1,7,23,2,0,8,8,10,,,,,,,,,1,0.8694945080001162,043,001,2019_May_17_1415,MusicAffectPsychophysiology2019,3.0.5,60.069594710203845,
To what extent did the music make you feel ,ALERT,30MonoWAV/30MonoF3.wav,1,2,2,3,,,,,1,7,23,2,0,9,9,8,,,,,,,,,4,1.7347234389999358,043,001,2019_May_17_1415,MusicAffectPsychophysiology2019,3.0.5,60.069594710203845,
To what extent did the music make you feel ,SCARED,30MonoWAV/30MonoF3.wav,1,2,2,3,,,,,1,7,23,2,0,10,10,11,,,,,,,,,2,2.501563115999943,043,001,2019_May_17_1415,MusicAffectPsychophysiology2019,3.0.5,60.069594710203845,
To what extent did the music make you feel ,ASHAMED,30MonoWAV/30MonoF3.wav,1,2,2,3,,,,,1,7,23,2,0,11,11,4,,,,,,,,,2,1.4846009690004394,043,001,2019_May_17_1415,MusicAffectPsychophysiology2019,3.0.5,60.069594710203845,
,,30MonoWAV/30MonoF3.wav,1,2,2,3,,,,,1,7,23,2,,,,,,,,,,,,,,,043,001,2019_May_17_1415,MusicAffectPsychophysiology2019,3.0.5,60.069594710203845,
To what extent did the music make you feel ,SAD,30MonoWAV/30MonoH3.wav,2,2,1,7,,,,,1,8,24,6,0,0,0,0,,,4,4.36955180699988,4,1.6510565040002803,2,2.13498493599991,1,4.999015673000031,043,001,2019_May_17_1415,MusicAffectPsychophysiology2019,3.0.5,60.069594710203845,
To what extent did the music make you feel ,ANXIOUS ,30MonoWAV/30MonoH3.wav,2,2,1,7,,,,,1,8,24,6,0,1,1,1,,,,,,,,,1,0.7678222550002829,043,001,2019_May_17_1415,MusicAffectPsychophysiology2019,3.0.5,60.069594710203845,
To what extent did the music make you feel ,ANGRY,30MonoWAV/30MonoH3.wav,2,2,1,7,,,,,1,8,24,6,0,2,2,2,,,,,,,,,1,0.7026892570002019,043,001,2019_May_17_1415,MusicAffectPsychophysiology2019,3.0.5,60.069594710203845,
To what extent did the music make you feel ,ACTIVE,30MonoWAV/30MonoH3.wav,2,2,1,7,,,,,1,8,24,6,0,3,3,9,,,,,,,,,3,1.6181756700002552,043,001,2019_May_17_1415,MusicAffectPsychophysiology2019,3.0.5,60.069594710203845,
To what extent did the music make you feel ,EXCITED,30MonoWAV/30MonoH3.wav,2,2,1,7,,,,,1,8,24,6,0,4,4,7,,,,,,,,,4,1.2888086100001601,043,001,2019_May_17_1415,MusicAffectPsychophysiology2019,3.0.5,60.069594710203845,
To what extent did the music make you feel ,SCARED,30MonoWAV/30MonoH3.wav,2,2,1,7,,,,,1,8,24,6,0,5,5,11,,,,,,,,,1,2.8217673379999724,043,001,2019_May_17_1415,MusicAffectPsychophysiology2019,3.0.5,60.069594710203845,
To what extent did the music make you feel ,ALERT,30MonoWAV/30MonoH3.wav,2,2,1,7,,,,,1,8,24,6,0,6,6,8,,,,,,,,,5,1.4846922359997734,043,001,2019_May_17_1415,MusicAffectPsychophysiology2019,3.0.5,60.069594710203845,
To what extent did the music make you feel ,ASHAMED,30MonoWAV/30MonoH3.wav,2,2,1,7,,,,,1,8,24,6,0,7,7,4,,,,,,,,,1,1.1032856880001418,043,001,2019_May_17_1415,MusicAffectPsychophysiology2019,3.0.5,60.069594710203845,
To what extent did the music make you feel ,FRUSTRATED,30MonoWAV/30MonoH3.wav,2,2,1,7,,,,,1,8,24,6,0,8,8,3,,,,,,,,,1,0.6355557589999989,043,001,2019_May_17_1415,MusicAffectPsychophysiology2019,3.0.5,60.069594710203845,
To what extent did the music make you feel ,HAPPY,30MonoWAV/30MonoH3.wav,2,2,1,7,,,,,1,8,24,6,0,9,9,6,,,,,,,,,4,1.3199671570000646,043,001,2019_May_17_1415,MusicAffectPsychophysiology2019,3.0.5,60.069594710203845,
To what extent did the music make you feel ,GUILTY,30MonoWAV/30MonoH3.wav,2,2,1,7,,,,,1,8,24,6,0,10,10,5,,,,,,,,,1,1.703168020999783,043,001,2019_May_17_1415,MusicAffectPsychophysiology2019,3.0.5,60.069594710203845,
To what extent did the music make you feel ,TENDER,30MonoWAV/30MonoH3.wav,2,2,1,7,,,,,1,8,24,6,0,11,11,10,,,,,,,,,2,1.285389066999869,043,001,2019_May_17_1415,MusicAffectPsychophysiology2019,3.0.5,60.069594710203845,
,,30MonoWAV/30MonoH3.wav,2,2,1,7,,,,,1,8,24,6,,,,,,,,,,,,,,,043,001,2019_May_17_1415,MusicAffectPsychophysiology2019,3.0.5,60.069594710203845,
To what extent did the music make you feel ,HAPPY,30MonoWAV/30MonoS4.wav,1,1,3,12,,,,,1,9,25,11,0,0,0,6,,,1,2.8183358619999126,1,1.2517403789997843,3,3.518654303999938,1,1.702072747999864,043,001,2019_May_17_1415,MusicAffectPsychophysiology2019,3.0.5,60.069594710203845,
To what extent did the music make you feel ,SCARED,30MonoWAV/30MonoS4.wav,1,1,3,12,,,,,1,9,25,11,0,1,1,11,,,,,,,,,2,1.1852279879999514,043,001,2019_May_17_1415,MusicAffectPsychophysiology2019,3.0.5,60.069594710203845,
To what extent did the music make you feel ,EXCITED,30MonoWAV/30MonoS4.wav,1,1,3,12,,,,,1,9,25,11,0,2,2,7,,,,,,,,,1,0.9013693240003704,043,001,2019_May_17_1415,MusicAffectPsychophysiology2019,3.0.5,60.069594710203845,
To what extent did the music make you feel ,SAD,30MonoWAV/30MonoS4.wav,1,1,3,12,,,,,1,9,25,11,0,3,3,0,,,,,,,,,4,1.3038445070001217,043,001,2019_May_17_1415,MusicAffectPsychophysiology2019,3.0.5,60.069594710203845,
To what extent did the music make you feel ,ACTIVE,30MonoWAV/30MonoS4.wav,1,1,3,12,,,,,1,9,25,11,0,4,4,9,,,,,,,,,1,1.6535665609999342,043,001,2019_May_17_1415,MusicAffectPsychophysiology2019,3.0.5,60.069594710203845,
To what extent did the music make you feel ,GUILTY,30MonoWAV/30MonoS4.wav,1,1,3,12,,,,,1,9,25,11,0,5,5,5,,,,,,,,,2,4.056508920999931,043,001,2019_May_17_1415,MusicAffectPsychophysiology2019,3.0.5,60.069594710203845,
To what extent did the music make you feel ,ALERT,30MonoWAV/30MonoS4.wav,1,1,3,12,,,,,1,9,25,11,0,6,6,8,,,,,,,,,2,2.191304731999935,043,001,2019_May_17_1415,MusicAffectPsychophysiology2019,3.0.5,60.069594710203845,
To what extent did the music make you feel ,ANGRY,30MonoWAV/30MonoS4.wav,1,1,3,12,,,,,1,9,25,11,0,7,7,2,,,,,,,,,1,0.8184224450001238,043,001,2019_May_17_1415,MusicAffectPsychophysiology2019,3.0.5,60.069594710203845,
To what extent did the music make you feel ,ASHAMED,30MonoWAV/30MonoS4.wav,1,1,3,12,,,,,1,9,25,11,0,8,8,4,,,,,,,,,1,0.7660417389997747,043,001,2019_May_17_1415,MusicAffectPsychophysiology2019,3.0.5,60.069594710203845,
To what extent did the music make you feel ,TENDER,30MonoWAV/30MonoS4.wav,1,1,3,12,,,,,1,9,25,11,0,9,9,10,,,,,,,,,3,1.1695517349999136,043,001,2019_May_17_1415,MusicAffectPsychophysiology2019,3.0.5,60.069594710203845,
To what extent did the music make you feel ,FRUSTRATED,30MonoWAV/30MonoS4.wav,1,1,3,12,,,,,1,9,25,11,0,10,10,3,,,,,,,,,1,2.5681080429999383,043,001,2019_May_17_1415,MusicAffectPsychophysiology2019,3.0.5,60.069594710203845,
To what extent did the music make you feel ,ANXIOUS ,30MonoWAV/30MonoS4.wav,1,1,3,12,,,,,1,9,25,11,0,11,11,1,,,,,,,,,2,2.0836739360001957,043,001,2019_May_17_1415,MusicAffectPsychophysiology2019,3.0.5,60.069594710203845,
,,30MonoWAV/30MonoS4.wav,1,1,3,12,,,,,1,9,25,11,,,,,,,,,,,,,,,043,001,2019_May_17_1415,MusicAffectPsychophysiology2019,3.0.5,60.069594710203845,
To what extent did the music make you feel ,HAPPY,30MonoWAV/30MonoF1.wav,1,2,2,1,,,,,1,10,26,0,0,0,0,6,,,3,2.3014708010000504,1,1.6844609019999552,1,2.252451216999816,1,2.869091751999804,043,001,2019_May_17_1415,MusicAffectPsychophysiology2019,3.0.5,60.069594710203845,
To what extent did the music make you feel ,SAD,30MonoWAV/30MonoF1.wav,1,2,2,1,,,,,1,10,26,0,0,1,1,0,,,,,,,,,1,0.7352587949999361,043,001,2019_May_17_1415,MusicAffectPsychophysiology2019,3.0.5,60.069594710203845,
To what extent did the music make you feel ,ANXIOUS ,30MonoWAV/30MonoF1.wav,1,2,2,1,,,,,1,10,26,0,0,2,2,1,,,,,,,,,3,1.1185641210004178,043,001,2019_May_17_1415,MusicAffectPsychophysiology2019,3.0.5,60.069594710203845,
To what extent did the music make you feel ,ASHAMED,30MonoWAV/30MonoF1.wav,1,2,2,1,,,,,1,10,26,0,0,3,3,4,,,,,,,,,1,1.4857458399997086,043,001,2019_May_17_1415,MusicAffectPsychophysiology2019,3.0.5,60.069594710203845,
To what extent did the music make you feel ,SCARED,30MonoWAV/30MonoF1.wav,1,2,2,1,,,,,1,10,26,0,0,4,4,11,,,,,,,,,4,1.7173888170000282,043,001,2019_May_17_1415,MusicAffectPsychophysiology2019,3.0.5,60.069594710203845,
To what extent did the music make you feel ,GUILTY,30MonoWAV/30MonoF1.wav,1,2,2,1,,,,,1,10,26,0,0,5,5,5,,,,,,,,,1,4.485748746999889,043,001,2019_May_17_1415,MusicAffectPsychophysiology2019,3.0.5,60.069594710203845,
To what extent did the music make you feel ,TENDER,30MonoWAV/30MonoF1.wav,1,2,2,1,,,,,1,10,26,0,0,6,6,10,,,,,,,,,1,0.9353639779997138,043,001,2019_May_17_1415,MusicAffectPsychophysiology2019,3.0.5,60.069594710203845,
To what extent did the music make you feel ,ALERT,30MonoWAV/30MonoF1.wav,1,2,2,1,,,,,1,10,26,0,0,7,7,8,,,,,,,,,4,1.6857826979999118,043,001,2019_May_17_1415,MusicAffectPsychophysiology2019,3.0.5,60.069594710203845,
To what extent did the music make you feel ,ACTIVE,30MonoWAV/30MonoF1.wav,1,2,2,1,,,,,1,10,26,0,0,8,8,9,,,,,,,,,1,3.2012885489998553,043,001,2019_May_17_1415,MusicAffectPsychophysiology2019,3.0.5,60.069594710203845,
To what extent did the music make you feel ,EXCITED,30MonoWAV/30MonoF1.wav,1,2,2,1,,,,,1,10,26,0,0,9,9,7,,,,,,,,,1,1.2678779529996973,043,001,2019_May_17_1415,MusicAffectPsychophysiology2019,3.0.5,60.069594710203845,
To what extent did the music make you feel ,FRUSTRATED,30MonoWAV/30MonoF1.wav,1,2,2,1,,,,,1,10,26,0,0,10,10,3,,,,,,,,,1,0.8515658290002648,043,001,2019_May_17_1415,MusicAffectPsychophysiology2019,3.0.5,60.069594710203845,
To what extent did the music make you feel ,ANGRY,30MonoWAV/30MonoF1.wav,1,2,2,1,,,,,1,10,26,0,0,11,11,2,,,,,,,,,2,1.9022282580003775,043,001,2019_May_17_1415,MusicAffectPsychophysiology2019,3.0.5,60.069594710203845,
,,30MonoWAV/30MonoF1.wav,1,2,2,1,,,,,1,10,26,0,,,,,,,,,,,,,,,043,001,2019_May_17_1415,MusicAffectPsychophysiology2019,3.0.5,60.069594710203845,
To what extent did the music make you feel ,HAPPY,30MonoWAV/30MonoT4.wav,2,1,4,16,,,,,1,11,27,15,0,0,0,6,,,3,3.4719088420001754,4,1.252611911999793,4,1.8035466450000968,4,1.7872277030000987,043,001,2019_May_17_1415,MusicAffectPsychophysiology2019,3.0.5,60.069594710203845,
To what extent did the music make you feel ,ALERT,30MonoWAV/30MonoT4.wav,2,1,4,16,,,,,1,11,27,15,0,1,1,8,,,,,,,,,4,1.054250839999895,043,001,2019_May_17_1415,MusicAffectPsychophysiology2019,3.0.5,60.069594710203845,
To what extent did the music make you feel ,GUILTY,30MonoWAV/30MonoT4.wav,2,1,4,16,,,,,1,11,27,15,0,2,2,5,,,,,,,,,1,2.439391913000236,043,001,2019_May_17_1415,MusicAffectPsychophysiology2019,3.0.5,60.069594710203845,
To what extent did the music make you feel ,ANGRY,30MonoWAV/30MonoT4.wav,2,1,4,16,,,,,1,11,27,15,0,3,3,2,,,,,,,,,1,1.0510737330000666,043,001,2019_May_17_1415,MusicAffectPsychophysiology2019,3.0.5,60.069594710203845,
To what extent did the music make you feel ,ANXIOUS ,30MonoWAV/30MonoT4.wav,2,1,4,16,,,,,1,11,27,15,0,4,4,1,,,,,,,,,1,1.1193566649999411,043,001,2019_May_17_1415,MusicAffectPsychophysiology2019,3.0.5,60.069594710203845,
To what extent did the music make you feel ,ACTIVE,30MonoWAV/30MonoT4.wav,2,1,4,16,,,,,1,11,27,15,0,5,5,9,,,,,,,,,2,1.3692209089999778,043,001,2019_May_17_1415,MusicAffectPsychophysiology2019,3.0.5,60.069594710203845,
To what extent did the music make you feel ,EXCITED,30MonoWAV/30MonoT4.wav,2,1,4,16,,,,,1,11,27,15,0,6,6,7,,,,,,,,,2,1.4705537210002149,043,001,2019_May_17_1415,MusicAffectPsychophysiology2019,3.0.5,60.069594710203845,
To what extent did the music make you feel ,SCARED,30MonoWAV/30MonoT4.wav,2,1,4,16,,,,,1,11,27,15,0,7,7,11,,,,,,,,,1,0.8535448659999929,043,001,2019_May_17_1415,MusicAffectPsychophysiology2019,3.0.5,60.069594710203845,
To what extent did the music make you feel ,SAD,30MonoWAV/30MonoT4.wav,2,1,4,16,,,,,1,11,27,15,0,8,8,0,,,,,,,,,1,0.7025185130000864,043,001,2019_May_17_1415,MusicAffectPsychophysiology2019,3.0.5,60.069594710203845,
To what extent did the music make you feel ,ASHAMED,30MonoWAV/30MonoT4.wav,2,1,4,16,,,,,1,11,27,15,0,9,9,4,,,,,,,,,1,0.7023093679999874,043,001,2019_May_17_1415,MusicAffectPsychophysiology2019,3.0.5,60.069594710203845,
To what extent did the music make you feel ,TENDER,30MonoWAV/30MonoT4.wav,2,1,4,16,,,,,1,11,27,15,0,10,10,10,,,,,,,,,4,1.5036508500002128,043,001,2019_May_17_1415,MusicAffectPsychophysiology2019,3.0.5,60.069594710203845,
To what extent did the music make you feel ,FRUSTRATED,30MonoWAV/30MonoT4.wav,2,1,4,16,,,,,1,11,27,15,0,11,11,3,,,,,,,,,1,1.753826884999853,043,001,2019_May_17_1415,MusicAffectPsychophysiology2019,3.0.5,60.069594710203845,
,,30MonoWAV/30MonoT4.wav,2,1,4,16,,,,,1,11,27,15,,,,,,,,,,,,,,,043,001,2019_May_17_1415,MusicAffectPsychophysiology2019,3.0.5,60.069594710203845,
To what extent did the music make you feel ,EXCITED,30MonoWAV/30MonoT1.wav,2,1,4,13,,,,,1,12,28,12,0,0,0,7,,,2,3.5859054180000385,4,1.7018083169996316,4,1.20170056500001,1,2.4843314429999737,043,001,2019_May_17_1415,MusicAffectPsychophysiology2019,3.0.5,60.069594710203845,
To what extent did the music make you feel ,ASHAMED,30MonoWAV/30MonoT1.wav,2,1,4,13,,,,,1,12,28,12,0,1,1,4,,,,,,,,,1,2.33446215999993,043,001,2019_May_17_1415,MusicAffectPsychophysiology2019,3.0.5,60.069594710203845,
To what extent did the music make you feel ,HAPPY,30MonoWAV/30MonoT1.wav,2,1,4,13,,,,,1,12,28,12,0,2,2,6,,,,,,,,,3,1.6692222550000224,043,001,2019_May_17_1415,MusicAffectPsychophysiology2019,3.0.5,60.069594710203845,
To what extent did the music make you feel ,SCARED,30MonoWAV/30MonoT1.wav,2,1,4,13,,,,,1,12,28,12,0,3,3,11,,,,,,,,,1,1.1184393419998742,043,001,2019_May_17_1415,MusicAffectPsychophysiology2019,3.0.5,60.069594710203845,
To what extent did the music make you feel ,ANGRY,30MonoWAV/30MonoT1.wav,2,1,4,13,,,,,1,12,28,12,0,4,4,2,,,,,,,,,1,1.1677959500002544,043,001,2019_May_17_1415,MusicAffectPsychophysiology2019,3.0.5,60.069594710203845,
To what extent did the music make you feel ,FRUSTRATED,30MonoWAV/30MonoT1.wav,2,1,4,13,,,,,1,12,28,12,0,5,5,3,,,,,,,,,1,0.7683668459999353,043,001,2019_May_17_1415,MusicAffectPsychophysiology2019,3.0.5,60.069594710203845,
To what extent did the music make you feel ,GUILTY,30MonoWAV/30MonoT1.wav,2,1,4,13,,,,,1,12,28,12,0,6,6,5,,,,,,,,,1,0.5349268260001736,043,001,2019_May_17_1415,MusicAffectPsychophysiology2019,3.0.5,60.069594710203845,
To what extent did the music make you feel ,SAD,30MonoWAV/30MonoT1.wav,2,1,4,13,,,,,1,12,28,12,0,7,7,0,,,,,,,,,4,2.133531635000054,043,001,2019_May_17_1415,MusicAffectPsychophysiology2019,3.0.5,60.069594710203845,
To what extent did the music make you feel ,TENDER,30MonoWAV/30MonoT1.wav,2,1,4,13,,,,,1,12,28,12,0,8,8,10,,,,,,,,,5,1.2187427859998934,043,001,2019_May_17_1415,MusicAffectPsychophysiology2019,3.0.5,60.069594710203845,
To what extent did the music make you feel ,ANXIOUS ,30MonoWAV/30MonoT1.wav,2,1,4,13,,,,,1,12,28,12,0,9,9,1,,,,,,,,,2,2.2183364129996335,043,001,2019_May_17_1415,MusicAffectPsychophysiology2019,3.0.5,60.069594710203845,
To what extent did the music make you feel ,ALERT,30MonoWAV/30MonoT1.wav,2,1,4,13,,,,,1,12,28,12,0,10,10,8,,,,,,,,,3,2.2177411019997635,043,001,2019_May_17_1415,MusicAffectPsychophysiology2019,3.0.5,60.069594710203845,
To what extent did the music make you feel ,ACTIVE,30MonoWAV/30MonoT1.wav,2,1,4,13,,,,,1,12,28,12,0,11,11,9,,,,,,,,,1,1.2011480030000712,043,001,2019_May_17_1415,MusicAffectPsychophysiology2019,3.0.5,60.069594710203845,
,,30MonoWAV/30MonoT1.wav,2,1,4,13,,,,,1,12,28,12,,,,,,,,,,,,,,,043,001,2019_May_17_1415,MusicAffectPsychophysiology2019,3.0.5,60.069594710203845,
To what extent did the music make you feel ,TENDER,30MonoWAV/30MonoH1.wav,2,2,1,5,,,,,1,13,29,4,0,0,0,10,,,4,4.79255741299994,5,1.770464763000291,5,1.2872785869999461,4,1.9558012859997689,043,001,2019_May_17_1415,MusicAffectPsychophysiology2019,3.0.5,60.069594710203845,
To what extent did the music make you feel ,EXCITED,30MonoWAV/30MonoH1.wav,2,2,1,5,,,,,1,13,29,4,0,1,1,7,,,,,,,,,4,1.1522871689999192,043,001,2019_May_17_1415,MusicAffectPsychophysiology2019,3.0.5,60.069594710203845,
To what extent did the music make you feel ,HAPPY,30MonoWAV/30MonoH1.wav,2,2,1,5,,,,,1,13,29,4,0,2,2,6,,,,,,,,,5,0.952723818999857,043,001,2019_May_17_1415,MusicAffectPsychophysiology2019,3.0.5,60.069594710203845,
To what extent did the music make you feel ,ASHAMED,30MonoWAV/30MonoH1.wav,2,2,1,5,,,,,1,13,29,4,0,3,3,4,,,,,,,,,1,1.6675870169997324,043,001,2019_May_17_1415,MusicAffectPsychophysiology2019,3.0.5,60.069594710203845,
To what extent did the music make you feel ,ANXIOUS ,30MonoWAV/30MonoH1.wav,2,2,1,5,,,,,1,13,29,4,0,4,4,1,,,,,,,,,1,0.9173194779996265,043,001,2019_May_17_1415,MusicAffectPsychophysiology2019,3.0.5,60.069594710203845,
To what extent did the music make you feel ,ACTIVE,30MonoWAV/30MonoH1.wav,2,2,1,5,,,,,1,13,29,4,0,5,5,9,,,,,,,,,3,1.718506551000246,043,001,2019_May_17_1415,MusicAffectPsychophysiology2019,3.0.5,60.069594710203845,
To what extent did the music make you feel ,SAD,30MonoWAV/30MonoH1.wav,2,2,1,5,,,,,1,13,29,4,0,6,6,0,,,,,,,,,1,1.5177533390001372,043,001,2019_May_17_1415,MusicAffectPsychophysiology2019,3.0.5,60.069594710203845,
To what extent did the music make you feel ,SCARED,30MonoWAV/30MonoH1.wav,2,2,1,5,,,,,1,13,29,4,0,7,7,11,,,,,,,,,1,0.784901772000012,043,001,2019_May_17_1415,MusicAffectPsychophysiology2019,3.0.5,60.069594710203845,
To what extent did the music make you feel ,ANGRY,30MonoWAV/30MonoH1.wav,2,2,1,5,,,,,1,13,29,4,0,8,8,2,,,,,,,,,1,0.568151768000007,043,001,2019_May_17_1415,MusicAffectPsychophysiology2019,3.0.5,60.069594710203845,
To what extent did the music make you feel ,FRUSTRATED,30MonoWAV/30MonoH1.wav,2,2,1,5,,,,,1,13,29,4,0,9,9,3,,,,,,,,,1,0.5329809570002908,043,001,2019_May_17_1415,MusicAffectPsychophysiology2019,3.0.5,60.069594710203845,
To what extent did the music make you feel ,ALERT,30MonoWAV/30MonoH1.wav,2,2,1,5,,,,,1,13,29,4,0,10,10,8,,,,,,,,,4,1.802194802000031,043,001,2019_May_17_1415,MusicAffectPsychophysiology2019,3.0.5,60.069594710203845,
To what extent did the music make you feel ,GUILTY,30MonoWAV/30MonoH1.wav,2,2,1,5,,,,,1,13,29,4,0,11,11,5,,,,,,,,,1,1.702031480000187,043,001,2019_May_17_1415,MusicAffectPsychophysiology2019,3.0.5,60.069594710203845,
