Instruction,Word,song,valence,arousal,affectcat,songmark,pracwords.thisRepN,pracwords.thisTrialN,pracwords.thisN,pracwords.thisIndex,songtrials.thisRepN,songtrials.thisTrialN,songtrials.thisN,songtrials.thisIndex,words.thisRepN,words.thisTrialN,words.thisN,words.thisIndex,begin.keys,begin.rt,arousalkey.keys,arousalkey.rt,valencekey.keys,valencekey.rt,likekey.keys,likekey.rt,WordResponse.keys,WordResponse.rt,participant,session,date,expName,psychopyVersion,frameRate,
,,,,,,,,,,,,,,,,,,,space,15.389296929000011,,,,,,,,,044,001,2019_May_17_1515,MusicAffectPsychophysiology2019,3.0.5,60.04670084118324,
,,,,,,,,,,,,,,,,,,,,,3,6.649745463999807,,,,,,,044,001,2019_May_17_1515,MusicAffectPsychophysiology2019,3.0.5,60.04670084118324,
,,,,,,,,,,,,,,,,,,,,,,,4,5.351324128000215,,,,,044,001,2019_May_17_1515,MusicAffectPsychophysiology2019,3.0.5,60.04670084118324,
,,,,,,,,,,,,,,,,,,,,,,,,,4,3.6011419589999605,,,044,001,2019_May_17_1515,MusicAffectPsychophysiology2019,3.0.5,60.04670084118324,
To what extent did the music make you feel ,EXCITED,,,,,,0,0,0,7,,,,,,,,,,,,,,,,,2,4.473619605999829,044,001,2019_May_17_1515,MusicAffectPsychophysiology2019,3.0.5,60.04670084118324,
To what extent did the music make you feel ,FRUSTRATED,,,,,,0,1,1,3,,,,,,,,,,,,,,,,,1,3.8025960350000787,044,001,2019_May_17_1515,MusicAffectPsychophysiology2019,3.0.5,60.04670084118324,
To what extent did the music make you feel ,GUILTY,,,,,,0,2,2,5,,,,,,,,,,,,,,,,,1,2.7351098429999183,044,001,2019_May_17_1515,MusicAffectPsychophysiology2019,3.0.5,60.04670084118324,
To what extent did the music make you feel ,ALERT,,,,,,0,3,3,8,,,,,,,,,,,,,,,,,4,3.1341538050000963,044,001,2019_May_17_1515,MusicAffectPsychophysiology2019,3.0.5,60.04670084118324,
To what extent did the music make you feel ,ANGRY,,,,,,0,4,4,2,,,,,,,,,,,,,,,,,1,1.684995256000093,044,001,2019_May_17_1515,MusicAffectPsychophysiology2019,3.0.5,60.04670084118324,
To what extent did the music make you feel ,SAD,,,,,,0,5,5,0,,,,,,,,,,,,,,,,,3,2.533644613999968,044,001,2019_May_17_1515,MusicAffectPsychophysiology2019,3.0.5,60.04670084118324,
To what extent did the music make you feel ,ACTIVE,,,,,,0,6,6,9,,,,,,,,,,,,,,,,,2,2.519333127000209,044,001,2019_May_17_1515,MusicAffectPsychophysiology2019,3.0.5,60.04670084118324,
To what extent did the music make you feel ,ANXIOUS ,,,,,,0,7,7,1,,,,,,,,,,,,,,,,,1,1.6524776749997727,044,001,2019_May_17_1515,MusicAffectPsychophysiology2019,3.0.5,60.04670084118324,
To what extent did the music make you feel ,HAPPY,,,,,,0,8,8,6,,,,,,,,,,,,,,,,,5,2.3509081830002287,044,001,2019_May_17_1515,MusicAffectPsychophysiology2019,3.0.5,60.04670084118324,
To what extent did the music make you feel ,SCARED,,,,,,0,9,9,11,,,,,,,,,,,,,,,,,1,1.4014430440001888,044,001,2019_May_17_1515,MusicAffectPsychophysiology2019,3.0.5,60.04670084118324,
To what extent did the music make you feel ,TENDER,,,,,,0,10,10,10,,,,,,,,,,,,,,,,,2,1.884439332999591,044,001,2019_May_17_1515,MusicAffectPsychophysiology2019,3.0.5,60.04670084118324,
To what extent did the music make you feel ,ASHAMED,,,,,,0,11,11,4,,,,,,,,,,,,,,,,,1,1.0856358459996045,044,001,2019_May_17_1515,MusicAffectPsychophysiology2019,3.0.5,60.04670084118324,
To what extent did the music make you feel ,FRUSTRATED,30MonoWAV/30MonoT2.wav,2,1,4,14,,,,,0,0,0,13,0,0,0,3,,,1,5.7829240709997976,3,2.83399534199998,3,2.349658623999858,1,2.500777624999955,044,001,2019_May_17_1515,MusicAffectPsychophysiology2019,3.0.5,60.04670084118324,
To what extent did the music make you feel ,ASHAMED,30MonoWAV/30MonoT2.wav,2,1,4,14,,,,,0,0,0,13,0,1,1,4,,,,,,,,,1,0.869731469999806,044,001,2019_May_17_1515,MusicAffectPsychophysiology2019,3.0.5,60.04670084118324,
To what extent did the music make you feel ,ANXIOUS ,30MonoWAV/30MonoT2.wav,2,1,4,14,,,,,0,0,0,13,0,2,2,1,,,,,,,,,1,0.7352330769999753,044,001,2019_May_17_1515,MusicAffectPsychophysiology2019,3.0.5,60.04670084118324,
To what extent did the music make you feel ,ALERT,30MonoWAV/30MonoT2.wav,2,1,4,14,,,,,0,0,0,13,0,3,3,8,,,,,,,,,2,2.216669670000101,044,001,2019_May_17_1515,MusicAffectPsychophysiology2019,3.0.5,60.04670084118324,
To what extent did the music make you feel ,GUILTY,30MonoWAV/30MonoT2.wav,2,1,4,14,,,,,0,0,0,13,0,4,4,5,,,,,,,,,1,1.1515780810000251,044,001,2019_May_17_1515,MusicAffectPsychophysiology2019,3.0.5,60.04670084118324,
To what extent did the music make you feel ,SAD,30MonoWAV/30MonoT2.wav,2,1,4,14,,,,,0,0,0,13,0,5,5,0,,,,,,,,,2,2.07075303900001,044,001,2019_May_17_1515,MusicAffectPsychophysiology2019,3.0.5,60.04670084118324,
To what extent did the music make you feel ,EXCITED,30MonoWAV/30MonoT2.wav,2,1,4,14,,,,,0,0,0,13,0,6,6,7,,,,,,,,,2,2.0180262960002437,044,001,2019_May_17_1515,MusicAffectPsychophysiology2019,3.0.5,60.04670084118324,
To what extent did the music make you feel ,HAPPY,30MonoWAV/30MonoT2.wav,2,1,4,14,,,,,0,0,0,13,0,7,7,6,,,,,,,,,2,1.2187007260004066,044,001,2019_May_17_1515,MusicAffectPsychophysiology2019,3.0.5,60.04670084118324,
To what extent did the music make you feel ,ANGRY,30MonoWAV/30MonoT2.wav,2,1,4,14,,,,,0,0,0,13,0,8,8,2,,,,,,,,,1,0.902462235999792,044,001,2019_May_17_1515,MusicAffectPsychophysiology2019,3.0.5,60.04670084118324,
To what extent did the music make you feel ,SCARED,30MonoWAV/30MonoT2.wav,2,1,4,14,,,,,0,0,0,13,0,9,9,11,,,,,,,,,1,0.7684447919996273,044,001,2019_May_17_1515,MusicAffectPsychophysiology2019,3.0.5,60.04670084118324,
To what extent did the music make you feel ,ACTIVE,30MonoWAV/30MonoT2.wav,2,1,4,14,,,,,0,0,0,13,0,10,10,9,,,,,,,,,2,1.1194623649998903,044,001,2019_May_17_1515,MusicAffectPsychophysiology2019,3.0.5,60.04670084118324,
To what extent did the music make you feel ,TENDER,30MonoWAV/30MonoT2.wav,2,1,4,14,,,,,0,0,0,13,0,11,11,10,,,,,,,,,2,1.834213009999985,044,001,2019_May_17_1515,MusicAffectPsychophysiology2019,3.0.5,60.04670084118324,
,,30MonoWAV/30MonoT2.wav,2,1,4,14,,,,,0,0,0,13,,,,,,,,,,,,,,,044,001,2019_May_17_1515,MusicAffectPsychophysiology2019,3.0.5,60.04670084118324,
To what extent did the music make you feel ,SCARED,30MonoWAV/30MonoH3.wav,2,2,1,7,,,,,0,1,1,6,0,0,0,11,,,3,3.5839509269999326,3,2.1185566089998247,3,2.4682199270000638,1,1.8844854970002416,044,001,2019_May_17_1515,MusicAffectPsychophysiology2019,3.0.5,60.04670084118324,
To what extent did the music make you feel ,ALERT,30MonoWAV/30MonoH3.wav,2,2,1,7,,,,,0,1,1,6,0,1,1,8,,,,,,,,,3,1.1844583090000924,044,001,2019_May_17_1515,MusicAffectPsychophysiology2019,3.0.5,60.04670084118324,
To what extent did the music make you feel ,TENDER,30MonoWAV/30MonoH3.wav,2,2,1,7,,,,,0,1,1,6,0,2,2,10,,,,,,,,,2,1.9513760610002464,044,001,2019_May_17_1515,MusicAffectPsychophysiology2019,3.0.5,60.04670084118324,
To what extent did the music make you feel ,FRUSTRATED,30MonoWAV/30MonoH3.wav,2,2,1,7,,,,,0,1,1,6,0,3,3,3,,,,,,,,,1,1.0515677889998187,044,001,2019_May_17_1515,MusicAffectPsychophysiology2019,3.0.5,60.04670084118324,
To what extent did the music make you feel ,EXCITED,30MonoWAV/30MonoH3.wav,2,2,1,7,,,,,0,1,1,6,0,4,4,7,,,,,,,,,3,1.4012742169998091,044,001,2019_May_17_1515,MusicAffectPsychophysiology2019,3.0.5,60.04670084118324,
To what extent did the music make you feel ,ANXIOUS ,30MonoWAV/30MonoH3.wav,2,2,1,7,,,,,0,1,1,6,0,5,5,1,,,,,,,,,1,0.935277770999619,044,001,2019_May_17_1515,MusicAffectPsychophysiology2019,3.0.5,60.04670084118324,
To what extent did the music make you feel ,ASHAMED,30MonoWAV/30MonoH3.wav,2,2,1,7,,,,,0,1,1,6,0,6,6,4,,,,,,,,,1,0.9350509480000255,044,001,2019_May_17_1515,MusicAffectPsychophysiology2019,3.0.5,60.04670084118324,
To what extent did the music make you feel ,GUILTY,30MonoWAV/30MonoH3.wav,2,2,1,7,,,,,0,1,1,6,0,7,7,5,,,,,,,,,1,0.901737774999674,044,001,2019_May_17_1515,MusicAffectPsychophysiology2019,3.0.5,60.04670084118324,
To what extent did the music make you feel ,ANGRY,30MonoWAV/30MonoH3.wav,2,2,1,7,,,,,0,1,1,6,0,8,8,2,,,,,,,,,1,0.8011310840001897,044,001,2019_May_17_1515,MusicAffectPsychophysiology2019,3.0.5,60.04670084118324,
To what extent did the music make you feel ,HAPPY,30MonoWAV/30MonoH3.wav,2,2,1,7,,,,,0,1,1,6,0,9,9,6,,,,,,,,,3,0.8846981270003198,044,001,2019_May_17_1515,MusicAffectPsychophysiology2019,3.0.5,60.04670084118324,
To what extent did the music make you feel ,ACTIVE,30MonoWAV/30MonoH3.wav,2,2,1,7,,,,,0,1,1,6,0,10,10,9,,,,,,,,,3,0.80156868999984,044,001,2019_May_17_1515,MusicAffectPsychophysiology2019,3.0.5,60.04670084118324,
To what extent did the music make you feel ,SAD,30MonoWAV/30MonoH3.wav,2,2,1,7,,,,,0,1,1,6,0,11,11,0,,,,,,,,,1,0.8174894190001396,044,001,2019_May_17_1515,MusicAffectPsychophysiology2019,3.0.5,60.04670084118324,
,,30MonoWAV/30MonoH3.wav,2,2,1,7,,,,,0,1,1,6,,,,,,,,,,,,,,,044,001,2019_May_17_1515,MusicAffectPsychophysiology2019,3.0.5,60.04670084118324,
To what extent did the music make you feel ,ANGRY,30MonoWAV/30MonoF2.wav,1,2,2,2,,,,,0,2,2,1,0,0,0,2,,,5,4.9855159149997235,5,2.4509979380000004,5,1.2849059260001923,1,1.81898861100035,044,001,2019_May_17_1515,MusicAffectPsychophysiology2019,3.0.5,60.04670084118324,
To what extent did the music make you feel ,ANXIOUS ,30MonoWAV/30MonoF2.wav,1,2,2,2,,,,,0,2,2,1,0,1,1,1,,,,,,,,,1,1.4343456500000684,044,001,2019_May_17_1515,MusicAffectPsychophysiology2019,3.0.5,60.04670084118324,
To what extent did the music make you feel ,FRUSTRATED,30MonoWAV/30MonoF2.wav,1,2,2,2,,,,,0,2,2,1,0,2,2,3,,,,,,,,,1,1.1195283950000885,044,001,2019_May_17_1515,MusicAffectPsychophysiology2019,3.0.5,60.04670084118324,
To what extent did the music make you feel ,HAPPY,30MonoWAV/30MonoF2.wav,1,2,2,2,,,,,0,2,2,1,0,3,3,6,,,,,,,,,5,1.5339992580002217,044,001,2019_May_17_1515,MusicAffectPsychophysiology2019,3.0.5,60.04670084118324,
To what extent did the music make you feel ,SAD,30MonoWAV/30MonoF2.wav,1,2,2,2,,,,,0,2,2,1,0,4,4,0,,,,,,,,,1,1.4352276050003638,044,001,2019_May_17_1515,MusicAffectPsychophysiology2019,3.0.5,60.04670084118324,
To what extent did the music make you feel ,GUILTY,30MonoWAV/30MonoF2.wav,1,2,2,2,,,,,0,2,2,1,0,5,5,5,,,,,,,,,1,1.0519560500001717,044,001,2019_May_17_1515,MusicAffectPsychophysiology2019,3.0.5,60.04670084118324,
To what extent did the music make you feel ,TENDER,30MonoWAV/30MonoF2.wav,1,2,2,2,,,,,0,2,2,1,0,6,6,10,,,,,,,,,2,1.0179346400000213,044,001,2019_May_17_1515,MusicAffectPsychophysiology2019,3.0.5,60.04670084118324,
To what extent did the music make you feel ,EXCITED,30MonoWAV/30MonoF2.wav,1,2,2,2,,,,,0,2,2,1,0,7,7,7,,,,,,,,,5,1.5176197189998675,044,001,2019_May_17_1515,MusicAffectPsychophysiology2019,3.0.5,60.04670084118324,
To what extent did the music make you feel ,ALERT,30MonoWAV/30MonoF2.wav,1,2,2,2,,,,,0,2,2,1,0,8,8,8,,,,,,,,,5,0.9018118260000847,044,001,2019_May_17_1515,MusicAffectPsychophysiology2019,3.0.5,60.04670084118324,
To what extent did the music make you feel ,ACTIVE,30MonoWAV/30MonoF2.wav,1,2,2,2,,,,,0,2,2,1,0,9,9,9,,,,,,,,,5,0.7352318279999963,044,001,2019_May_17_1515,MusicAffectPsychophysiology2019,3.0.5,60.04670084118324,
To what extent did the music make you feel ,ASHAMED,30MonoWAV/30MonoF2.wav,1,2,2,2,,,,,0,2,2,1,0,10,10,4,,,,,,,,,1,1.1350211760000093,044,001,2019_May_17_1515,MusicAffectPsychophysiology2019,3.0.5,60.04670084118324,
To what extent did the music make you feel ,SCARED,30MonoWAV/30MonoF2.wav,1,2,2,2,,,,,0,2,2,1,0,11,11,11,,,,,,,,,1,0.8851150280002003,044,001,2019_May_17_1515,MusicAffectPsychophysiology2019,3.0.5,60.04670084118324,
,,30MonoWAV/30MonoF2.wav,1,2,2,2,,,,,0,2,2,1,,,,,,,,,,,,,,,044,001,2019_May_17_1515,MusicAffectPsychophysiology2019,3.0.5,60.04670084118324,
To what extent did the music make you feel ,HAPPY,30MonoWAV/30MonoF3.wav,1,2,2,3,,,,,0,3,3,2,0,0,0,6,,,4,8.250952052999764,3,1.834108983999613,2,1.6187704869998925,2,1.6172976609996113,044,001,2019_May_17_1515,MusicAffectPsychophysiology2019,3.0.5,60.04670084118324,
To what extent did the music make you feel ,ALERT,30MonoWAV/30MonoF3.wav,1,2,2,3,,,,,0,3,3,2,0,1,1,8,,,,,,,,,5,2.50094341500062,044,001,2019_May_17_1515,MusicAffectPsychophysiology2019,3.0.5,60.04670084118324,
To what extent did the music make you feel ,GUILTY,30MonoWAV/30MonoF3.wav,1,2,2,3,,,,,0,3,3,2,0,2,2,5,,,,,,,,,1,1.1516870129999006,044,001,2019_May_17_1515,MusicAffectPsychophysiology2019,3.0.5,60.04670084118324,
To what extent did the music make you feel ,ASHAMED,30MonoWAV/30MonoF3.wav,1,2,2,3,,,,,0,3,3,2,0,3,3,4,,,,,,,,,1,0.6521348920005039,044,001,2019_May_17_1515,MusicAffectPsychophysiology2019,3.0.5,60.04670084118324,
To what extent did the music make you feel ,ANGRY,30MonoWAV/30MonoF3.wav,1,2,2,3,,,,,0,3,3,2,0,4,4,2,,,,,,,,,2,1.5394065959999352,044,001,2019_May_17_1515,MusicAffectPsychophysiology2019,3.0.5,60.04670084118324,
To what extent did the music make you feel ,EXCITED,30MonoWAV/30MonoF3.wav,1,2,2,3,,,,,0,3,3,2,0,5,5,7,,,,,,,,,3,1.4375042659994506,044,001,2019_May_17_1515,MusicAffectPsychophysiology2019,3.0.5,60.04670084118324,
To what extent did the music make you feel ,ACTIVE,30MonoWAV/30MonoF3.wav,1,2,2,3,,,,,0,3,3,2,0,6,6,9,,,,,,,,,4,1.4530355689994394,044,001,2019_May_17_1515,MusicAffectPsychophysiology2019,3.0.5,60.04670084118324,
To what extent did the music make you feel ,FRUSTRATED,30MonoWAV/30MonoF3.wav,1,2,2,3,,,,,0,3,3,2,0,7,7,3,,,,,,,,,1,1.2700961610007653,044,001,2019_May_17_1515,MusicAffectPsychophysiology2019,3.0.5,60.04670084118324,
To what extent did the music make you feel ,SAD,30MonoWAV/30MonoF3.wav,1,2,2,3,,,,,0,3,3,2,0,8,8,0,,,,,,,,,1,0.9195626209993861,044,001,2019_May_17_1515,MusicAffectPsychophysiology2019,3.0.5,60.04670084118324,
To what extent did the music make you feel ,TENDER,30MonoWAV/30MonoF3.wav,1,2,2,3,,,,,0,3,3,2,0,9,9,10,,,,,,,,,1,1.0884011440002723,044,001,2019_May_17_1515,MusicAffectPsychophysiology2019,3.0.5,60.04670084118324,
To what extent did the music make you feel ,ANXIOUS ,30MonoWAV/30MonoF3.wav,1,2,2,3,,,,,0,3,3,2,0,10,10,1,,,,,,,,,1,1.001053151000633,044,001,2019_May_17_1515,MusicAffectPsychophysiology2019,3.0.5,60.04670084118324,
To what extent did the music make you feel ,SCARED,30MonoWAV/30MonoF3.wav,1,2,2,3,,,,,0,3,3,2,0,11,11,11,,,,,,,,,1,1.0181228940000437,044,001,2019_May_17_1515,MusicAffectPsychophysiology2019,3.0.5,60.04670084118324,
,,30MonoWAV/30MonoF3.wav,1,2,2,3,,,,,0,3,3,2,,,,,,,,,,,,,,,044,001,2019_May_17_1515,MusicAffectPsychophysiology2019,3.0.5,60.04670084118324,
To what extent did the music make you feel ,TENDER,30MonoWAV/30MonoS4.wav,1,1,3,12,,,,,0,4,4,11,0,0,0,10,,,1,5.6259045099996,3,2.45890061099999,4,1.7347654720006176,3,1.4342484230000991,044,001,2019_May_17_1515,MusicAffectPsychophysiology2019,3.0.5,60.04670084118324,
To what extent did the music make you feel ,ACTIVE,30MonoWAV/30MonoS4.wav,1,1,3,12,,,,,0,4,4,11,0,1,1,9,,,,,,,,,1,1.9186866739992183,044,001,2019_May_17_1515,MusicAffectPsychophysiology2019,3.0.5,60.04670084118324,
To what extent did the music make you feel ,ALERT,30MonoWAV/30MonoS4.wav,1,1,3,12,,,,,0,4,4,11,0,2,2,8,,,,,,,,,1,1.9346947030007868,044,001,2019_May_17_1515,MusicAffectPsychophysiology2019,3.0.5,60.04670084118324,
To what extent did the music make you feel ,ANGRY,30MonoWAV/30MonoS4.wav,1,1,3,12,,,,,0,4,4,11,0,3,3,2,,,,,,,,,1,1.085143528000117,044,001,2019_May_17_1515,MusicAffectPsychophysiology2019,3.0.5,60.04670084118324,
To what extent did the music make you feel ,ANXIOUS ,30MonoWAV/30MonoS4.wav,1,1,3,12,,,,,0,4,4,11,0,4,4,1,,,,,,,,,1,0.7348614430002272,044,001,2019_May_17_1515,MusicAffectPsychophysiology2019,3.0.5,60.04670084118324,
To what extent did the music make you feel ,SAD,30MonoWAV/30MonoS4.wav,1,1,3,12,,,,,0,4,4,11,0,5,5,0,,,,,,,,,2,1.1350545870000133,044,001,2019_May_17_1515,MusicAffectPsychophysiology2019,3.0.5,60.04670084118324,
To what extent did the music make you feel ,SCARED,30MonoWAV/30MonoS4.wav,1,1,3,12,,,,,0,4,4,11,0,6,6,11,,,,,,,,,1,1.2522441540004365,044,001,2019_May_17_1515,MusicAffectPsychophysiology2019,3.0.5,60.04670084118324,
To what extent did the music make you feel ,EXCITED,30MonoWAV/30MonoS4.wav,1,1,3,12,,,,,0,4,4,11,0,7,7,7,,,,,,,,,2,1.418291620000673,044,001,2019_May_17_1515,MusicAffectPsychophysiology2019,3.0.5,60.04670084118324,
To what extent did the music make you feel ,HAPPY,30MonoWAV/30MonoS4.wav,1,1,3,12,,,,,0,4,4,11,0,8,8,6,,,,,,,,,2,1.6176237779991425,044,001,2019_May_17_1515,MusicAffectPsychophysiology2019,3.0.5,60.04670084118324,
To what extent did the music make you feel ,FRUSTRATED,30MonoWAV/30MonoS4.wav,1,1,3,12,,,,,0,4,4,11,0,9,9,3,,,,,,,,,1,0.9847852699995201,044,001,2019_May_17_1515,MusicAffectPsychophysiology2019,3.0.5,60.04670084118324,
To what extent did the music make you feel ,ASHAMED,30MonoWAV/30MonoS4.wav,1,1,3,12,,,,,0,4,4,11,0,10,10,4,,,,,,,,,1,0.6853365260003557,044,001,2019_May_17_1515,MusicAffectPsychophysiology2019,3.0.5,60.04670084118324,
To what extent did the music make you feel ,GUILTY,30MonoWAV/30MonoS4.wav,1,1,3,12,,,,,0,4,4,11,0,11,11,5,,,,,,,,,1,0.6357285309995859,044,001,2019_May_17_1515,MusicAffectPsychophysiology2019,3.0.5,60.04670084118324,
,,30MonoWAV/30MonoS4.wav,1,1,3,12,,,,,0,4,4,11,,,,,,,,,,,,,,,044,001,2019_May_17_1515,MusicAffectPsychophysiology2019,3.0.5,60.04670084118324,
To what extent did the music make you feel ,HAPPY,30MonoWAV/30MonoF1.wav,1,2,2,1,,,,,0,5,5,0,0,0,0,6,,,3,5.017623601000196,2,1.9350893390001147,3,1.6826412500004153,2,2.6527104699998745,044,001,2019_May_17_1515,MusicAffectPsychophysiology2019,3.0.5,60.04670084118324,
To what extent did the music make you feel ,SAD,30MonoWAV/30MonoF1.wav,1,2,2,1,,,,,0,5,5,0,0,1,1,0,,,,,,,,,2,0.9175058110004102,044,001,2019_May_17_1515,MusicAffectPsychophysiology2019,3.0.5,60.04670084118324,
To what extent did the music make you feel ,ANGRY,30MonoWAV/30MonoF1.wav,1,2,2,1,,,,,0,5,5,0,0,2,2,2,,,,,,,,,4,2.4250728920005713,044,001,2019_May_17_1515,MusicAffectPsychophysiology2019,3.0.5,60.04670084118324,
To what extent did the music make you feel ,TENDER,30MonoWAV/30MonoF1.wav,1,2,2,1,,,,,0,5,5,0,0,3,3,10,,,,,,,,,2,1.253576186999453,044,001,2019_May_17_1515,MusicAffectPsychophysiology2019,3.0.5,60.04670084118324,
To what extent did the music make you feel ,ACTIVE,30MonoWAV/30MonoF1.wav,1,2,2,1,,,,,0,5,5,0,0,4,4,9,,,,,,,,,3,1.4030278589998488,044,001,2019_May_17_1515,MusicAffectPsychophysiology2019,3.0.5,60.04670084118324,
To what extent did the music make you feel ,SCARED,30MonoWAV/30MonoF1.wav,1,2,2,1,,,,,0,5,5,0,0,5,5,11,,,,,,,,,4,0.952743455000018,044,001,2019_May_17_1515,MusicAffectPsychophysiology2019,3.0.5,60.04670084118324,
To what extent did the music make you feel ,ASHAMED,30MonoWAV/30MonoF1.wav,1,2,2,1,,,,,0,5,5,0,0,6,6,4,,,,,,,,,1,1.4011622670004726,044,001,2019_May_17_1515,MusicAffectPsychophysiology2019,3.0.5,60.04670084118324,
To what extent did the music make you feel ,FRUSTRATED,30MonoWAV/30MonoF1.wav,1,2,2,1,,,,,0,5,5,0,0,7,7,3,,,,,,,,,1,0.8381777109998438,044,001,2019_May_17_1515,MusicAffectPsychophysiology2019,3.0.5,60.04670084118324,
To what extent did the music make you feel ,ALERT,30MonoWAV/30MonoF1.wav,1,2,2,1,,,,,0,5,5,0,0,8,8,8,,,,,,,,,5,1.2997291780002342,044,001,2019_May_17_1515,MusicAffectPsychophysiology2019,3.0.5,60.04670084118324,
To what extent did the music make you feel ,GUILTY,30MonoWAV/30MonoF1.wav,1,2,2,1,,,,,0,5,5,0,0,9,9,5,,,,,,,,,1,0.952087083999686,044,001,2019_May_17_1515,MusicAffectPsychophysiology2019,3.0.5,60.04670084118324,
To what extent did the music make you feel ,ANXIOUS ,30MonoWAV/30MonoF1.wav,1,2,2,1,,,,,0,5,5,0,0,10,10,1,,,,,,,,,4,1.5856568949993743,044,001,2019_May_17_1515,MusicAffectPsychophysiology2019,3.0.5,60.04670084118324,
To what extent did the music make you feel ,EXCITED,30MonoWAV/30MonoF1.wav,1,2,2,1,,,,,0,5,5,0,0,11,11,7,,,,,,,,,2,1.636249685000621,044,001,2019_May_17_1515,MusicAffectPsychophysiology2019,3.0.5,60.04670084118324,
,,30MonoWAV/30MonoF1.wav,1,2,2,1,,,,,0,5,5,0,,,,,,,,,,,,,,,044,001,2019_May_17_1515,MusicAffectPsychophysiology2019,3.0.5,60.04670084118324,
To what extent did the music make you feel ,GUILTY,30MonoWAV/30MonoH2.wav,2,2,1,6,,,,,0,6,6,5,0,0,0,5,,,3,5.310329273999741,3,1.2852969180003129,2,1.5018452149997756,1,1.2673749900004623,044,001,2019_May_17_1515,MusicAffectPsychophysiology2019,3.0.5,60.04670084118324,
To what extent did the music make you feel ,ANXIOUS ,30MonoWAV/30MonoH2.wav,2,2,1,6,,,,,0,6,6,5,0,1,1,1,,,,,,,,,2,1.3845489959994666,044,001,2019_May_17_1515,MusicAffectPsychophysiology2019,3.0.5,60.04670084118324,
To what extent did the music make you feel ,SCARED,30MonoWAV/30MonoH2.wav,2,2,1,6,,,,,0,6,6,5,0,2,2,11,,,,,,,,,2,1.0005979560000924,044,001,2019_May_17_1515,MusicAffectPsychophysiology2019,3.0.5,60.04670084118324,
To what extent did the music make you feel ,SAD,30MonoWAV/30MonoH2.wav,2,2,1,6,,,,,0,6,6,5,0,3,3,0,,,,,,,,,1,1.6025224719996913,044,001,2019_May_17_1515,MusicAffectPsychophysiology2019,3.0.5,60.04670084118324,
To what extent did the music make you feel ,ALERT,30MonoWAV/30MonoH2.wav,2,2,1,6,,,,,0,6,6,5,0,4,4,8,,,,,,,,,3,1.5188574839994544,044,001,2019_May_17_1515,MusicAffectPsychophysiology2019,3.0.5,60.04670084118324,
To what extent did the music make you feel ,EXCITED,30MonoWAV/30MonoH2.wav,2,2,1,6,,,,,0,6,6,5,0,5,5,7,,,,,,,,,1,1.9503264700006184,044,001,2019_May_17_1515,MusicAffectPsychophysiology2019,3.0.5,60.04670084118324,
To what extent did the music make you feel ,TENDER,30MonoWAV/30MonoH2.wav,2,2,1,6,,,,,0,6,6,5,0,6,6,10,,,,,,,,,1,0.8177971129998696,044,001,2019_May_17_1515,MusicAffectPsychophysiology2019,3.0.5,60.04670084118324,
To what extent did the music make you feel ,ACTIVE,30MonoWAV/30MonoH2.wav,2,2,1,6,,,,,0,6,6,5,0,7,7,9,,,,,,,,,3,1.9190719799998988,044,001,2019_May_17_1515,MusicAffectPsychophysiology2019,3.0.5,60.04670084118324,
To what extent did the music make you feel ,HAPPY,30MonoWAV/30MonoH2.wav,2,2,1,6,,,,,0,6,6,5,0,8,8,6,,,,,,,,,2,1.1858777939996799,044,001,2019_May_17_1515,MusicAffectPsychophysiology2019,3.0.5,60.04670084118324,
To what extent did the music make you feel ,ANGRY,30MonoWAV/30MonoH2.wav,2,2,1,6,,,,,0,6,6,5,0,9,9,2,,,,,,,,,1,1.185371488999408,044,001,2019_May_17_1515,MusicAffectPsychophysiology2019,3.0.5,60.04670084118324,
To what extent did the music make you feel ,FRUSTRATED,30MonoWAV/30MonoH2.wav,2,2,1,6,,,,,0,6,6,5,0,10,10,3,,,,,,,,,1,0.8525412529997993,044,001,2019_May_17_1515,MusicAffectPsychophysiology2019,3.0.5,60.04670084118324,
To what extent did the music make you feel ,ASHAMED,30MonoWAV/30MonoH2.wav,2,2,1,6,,,,,0,6,6,5,0,11,11,4,,,,,,,,,1,0.6683862359996056,044,001,2019_May_17_1515,MusicAffectPsychophysiology2019,3.0.5,60.04670084118324,
,,30MonoWAV/30MonoH2.wav,2,2,1,6,,,,,0,6,6,5,,,,,,,,,,,,,,,044,001,2019_May_17_1515,MusicAffectPsychophysiology2019,3.0.5,60.04670084118324,
To what extent did the music make you feel ,ACTIVE,30MonoWAV/30MonoS3.wav,1,1,3,11,,,,,0,7,7,10,0,0,0,9,,,3,5.65935827299927,3,1.5015392710001834,4,2.6179585919999226,2,2.6016274559997328,044,001,2019_May_17_1515,MusicAffectPsychophysiology2019,3.0.5,60.04670084118324,
To what extent did the music make you feel ,SCARED,30MonoWAV/30MonoS3.wav,1,1,3,11,,,,,0,7,7,10,0,1,1,11,,,,,,,,,2,2.0665815230004227,044,001,2019_May_17_1515,MusicAffectPsychophysiology2019,3.0.5,60.04670084118324,
To what extent did the music make you feel ,ASHAMED,30MonoWAV/30MonoS3.wav,1,1,3,11,,,,,0,7,7,10,0,2,2,4,,,,,,,,,1,1.0846414369998456,044,001,2019_May_17_1515,MusicAffectPsychophysiology2019,3.0.5,60.04670084118324,
To what extent did the music make you feel ,SAD,30MonoWAV/30MonoS3.wav,1,1,3,11,,,,,0,7,7,10,0,3,3,0,,,,,,,,,4,1.5021653130006598,044,001,2019_May_17_1515,MusicAffectPsychophysiology2019,3.0.5,60.04670084118324,
To what extent did the music make you feel ,ANXIOUS ,30MonoWAV/30MonoS3.wav,1,1,3,11,,,,,0,7,7,10,0,4,4,1,,,,,,,,,4,1.4347117679999428,044,001,2019_May_17_1515,MusicAffectPsychophysiology2019,3.0.5,60.04670084118324,
To what extent did the music make you feel ,FRUSTRATED,30MonoWAV/30MonoS3.wav,1,1,3,11,,,,,0,7,7,10,0,5,5,3,,,,,,,,,1,1.1519206140001188,044,001,2019_May_17_1515,MusicAffectPsychophysiology2019,3.0.5,60.04670084118324,
To what extent did the music make you feel ,ANGRY,30MonoWAV/30MonoS3.wav,1,1,3,11,,,,,0,7,7,10,0,6,6,2,,,,,,,,,1,1.3015195010002572,044,001,2019_May_17_1515,MusicAffectPsychophysiology2019,3.0.5,60.04670084118324,
To what extent did the music make you feel ,TENDER,30MonoWAV/30MonoS3.wav,1,1,3,11,,,,,0,7,7,10,0,7,7,10,,,,,,,,,2,1.0846254449998014,044,001,2019_May_17_1515,MusicAffectPsychophysiology2019,3.0.5,60.04670084118324,
To what extent did the music make you feel ,HAPPY,30MonoWAV/30MonoS3.wav,1,1,3,11,,,,,0,7,7,10,0,8,8,6,,,,,,,,,3,1.4677653489998193,044,001,2019_May_17_1515,MusicAffectPsychophysiology2019,3.0.5,60.04670084118324,
To what extent did the music make you feel ,ALERT,30MonoWAV/30MonoS3.wav,1,1,3,11,,,,,0,7,7,10,0,9,9,8,,,,,,,,,4,1.885266997999679,044,001,2019_May_17_1515,MusicAffectPsychophysiology2019,3.0.5,60.04670084118324,
To what extent did the music make you feel ,EXCITED,30MonoWAV/30MonoS3.wav,1,1,3,11,,,,,0,7,7,10,0,10,10,7,,,,,,,,,4,1.8686242599997058,044,001,2019_May_17_1515,MusicAffectPsychophysiology2019,3.0.5,60.04670084118324,
To what extent did the music make you feel ,GUILTY,30MonoWAV/30MonoS3.wav,1,1,3,11,,,,,0,7,7,10,0,11,11,5,,,,,,,,,1,1.168448282999634,044,001,2019_May_17_1515,MusicAffectPsychophysiology2019,3.0.5,60.04670084118324,
,,30MonoWAV/30MonoS3.wav,1,1,3,11,,,,,0,7,7,10,,,,,,,,,,,,,,,044,001,2019_May_17_1515,MusicAffectPsychophysiology2019,3.0.5,60.04670084118324,
To what extent did the music make you feel ,EXCITED,30MonoWAV/30MonoS2.wav,1,1,3,10,,,,,0,8,8,9,0,0,0,7,,,1,9.501347555999928,4,4.917738721000205,4,1.2849495409991505,2,1.785749024999859,044,001,2019_May_17_1515,MusicAffectPsychophysiology2019,3.0.5,60.04670084118324,
To what extent did the music make you feel ,ALERT,30MonoWAV/30MonoS2.wav,1,1,3,10,,,,,0,8,8,9,0,1,1,8,,,,,,,,,3,1.6185005239995007,044,001,2019_May_17_1515,MusicAffectPsychophysiology2019,3.0.5,60.04670084118324,
To what extent did the music make you feel ,ANXIOUS ,30MonoWAV/30MonoS2.wav,1,1,3,10,,,,,0,8,8,9,0,2,2,1,,,,,,,,,4,1.2690927280000324,044,001,2019_May_17_1515,MusicAffectPsychophysiology2019,3.0.5,60.04670084118324,
To what extent did the music make you feel ,ACTIVE,30MonoWAV/30MonoS2.wav,1,1,3,10,,,,,0,8,8,9,0,3,3,9,,,,,,,,,2,1.6516077559999758,044,001,2019_May_17_1515,MusicAffectPsychophysiology2019,3.0.5,60.04670084118324,
To what extent did the music make you feel ,GUILTY,30MonoWAV/30MonoS2.wav,1,1,3,10,,,,,0,8,8,9,0,4,4,5,,,,,,,,,4,1.035105346999444,044,001,2019_May_17_1515,MusicAffectPsychophysiology2019,3.0.5,60.04670084118324,
To what extent did the music make you feel ,SCARED,30MonoWAV/30MonoS2.wav,1,1,3,10,,,,,0,8,8,9,0,5,5,11,,,,,,,,,4,1.3017465870007072,044,001,2019_May_17_1515,MusicAffectPsychophysiology2019,3.0.5,60.04670084118324,
To what extent did the music make you feel ,FRUSTRATED,30MonoWAV/30MonoS2.wav,1,1,3,10,,,,,0,8,8,9,0,6,6,3,,,,,,,,,2,1.6838737970001603,044,001,2019_May_17_1515,MusicAffectPsychophysiology2019,3.0.5,60.04670084118324,
To what extent did the music make you feel ,SAD,30MonoWAV/30MonoS2.wav,1,1,3,10,,,,,0,8,8,9,0,7,7,0,,,,,,,,,4,0.8690261290003036,044,001,2019_May_17_1515,MusicAffectPsychophysiology2019,3.0.5,60.04670084118324,
To what extent did the music make you feel ,ASHAMED,30MonoWAV/30MonoS2.wav,1,1,3,10,,,,,0,8,8,9,0,8,8,4,,,,,,,,,1,1.4006252149993088,044,001,2019_May_17_1515,MusicAffectPsychophysiology2019,3.0.5,60.04670084118324,
To what extent did the music make you feel ,ANGRY,30MonoWAV/30MonoS2.wav,1,1,3,10,,,,,0,8,8,9,0,9,9,2,,,,,,,,,1,1.151250388000335,044,001,2019_May_17_1515,MusicAffectPsychophysiology2019,3.0.5,60.04670084118324,
To what extent did the music make you feel ,TENDER,30MonoWAV/30MonoS2.wav,1,1,3,10,,,,,0,8,8,9,0,10,10,10,,,,,,,,,2,0.8177704660001837,044,001,2019_May_17_1515,MusicAffectPsychophysiology2019,3.0.5,60.04670084118324,
To what extent did the music make you feel ,HAPPY,30MonoWAV/30MonoS2.wav,1,1,3,10,,,,,0,8,8,9,0,11,11,6,,,,,,,,,4,1.1021136709996426,044,001,2019_May_17_1515,MusicAffectPsychophysiology2019,3.0.5,60.04670084118324,
,,30MonoWAV/30MonoS2.wav,1,1,3,10,,,,,0,8,8,9,,,,,,,,,,,,,,,044,001,2019_May_17_1515,MusicAffectPsychophysiology2019,3.0.5,60.04670084118324,
To what extent did the music make you feel ,HAPPY,30MonoWAV/30MonoT3.wav,2,1,4,15,,,,,0,9,9,14,0,0,0,6,,,3,5.534254549000252,4,2.234365004999745,4,1.7522986980002315,4,2.633551701000215,044,001,2019_May_17_1515,MusicAffectPsychophysiology2019,3.0.5,60.04670084118324,
To what extent did the music make you feel ,GUILTY,30MonoWAV/30MonoT3.wav,2,1,4,15,,,,,0,9,9,14,0,1,1,5,,,,,,,,,3,1.5010030370003733,044,001,2019_May_17_1515,MusicAffectPsychophysiology2019,3.0.5,60.04670084118324,
To what extent did the music make you feel ,SCARED,30MonoWAV/30MonoT3.wav,2,1,4,15,,,,,0,9,9,14,0,2,2,11,,,,,,,,,2,1.9345371979998163,044,001,2019_May_17_1515,MusicAffectPsychophysiology2019,3.0.5,60.04670084118324,
To what extent did the music make you feel ,ANGRY,30MonoWAV/30MonoT3.wav,2,1,4,15,,,,,0,9,9,14,0,3,3,2,,,,,,,,,2,2.085048158999598,044,001,2019_May_17_1515,MusicAffectPsychophysiology2019,3.0.5,60.04670084118324,
To what extent did the music make you feel ,ANXIOUS ,30MonoWAV/30MonoT3.wav,2,1,4,15,,,,,0,9,9,14,0,4,4,1,,,,,,,,,3,1.117796258999988,044,001,2019_May_17_1515,MusicAffectPsychophysiology2019,3.0.5,60.04670084118324,
To what extent did the music make you feel ,ACTIVE,30MonoWAV/30MonoT3.wav,2,1,4,15,,,,,0,9,9,14,0,5,5,9,,,,,,,,,3,1.2869377600000007,044,001,2019_May_17_1515,MusicAffectPsychophysiology2019,3.0.5,60.04670084118324,
To what extent did the music make you feel ,ALERT,30MonoWAV/30MonoT3.wav,2,1,4,15,,,,,0,9,9,14,0,6,6,8,,,,,,,,,4,1.118327854999734,044,001,2019_May_17_1515,MusicAffectPsychophysiology2019,3.0.5,60.04670084118324,
To what extent did the music make you feel ,ASHAMED,30MonoWAV/30MonoT3.wav,2,1,4,15,,,,,0,9,9,14,0,7,7,4,,,,,,,,,2,1.3682694409999385,044,001,2019_May_17_1515,MusicAffectPsychophysiology2019,3.0.5,60.04670084118324,
To what extent did the music make you feel ,SAD,30MonoWAV/30MonoT3.wav,2,1,4,15,,,,,0,9,9,14,0,8,8,0,,,,,,,,,4,0.9517676989999018,044,001,2019_May_17_1515,MusicAffectPsychophysiology2019,3.0.5,60.04670084118324,
To what extent did the music make you feel ,TENDER,30MonoWAV/30MonoT3.wav,2,1,4,15,,,,,0,9,9,14,0,9,9,10,,,,,,,,,3,1.33510107300026,044,001,2019_May_17_1515,MusicAffectPsychophysiology2019,3.0.5,60.04670084118324,
To what extent did the music make you feel ,EXCITED,30MonoWAV/30MonoT3.wav,2,1,4,15,,,,,0,9,9,14,0,10,10,7,,,,,,,,,4,1.4846803959999306,044,001,2019_May_17_1515,MusicAffectPsychophysiology2019,3.0.5,60.04670084118324,
To what extent did the music make you feel ,FRUSTRATED,30MonoWAV/30MonoT3.wav,2,1,4,15,,,,,0,9,9,14,0,11,11,3,,,,,,,,,2,1.2179601119996732,044,001,2019_May_17_1515,MusicAffectPsychophysiology2019,3.0.5,60.04670084118324,
,,30MonoWAV/30MonoT3.wav,2,1,4,15,,,,,0,9,9,14,,,,,,,,,,,,,,,044,001,2019_May_17_1515,MusicAffectPsychophysiology2019,3.0.5,60.04670084118324,
To what extent did the music make you feel ,ANXIOUS ,30MonoWAV/30MonoT4.wav,2,1,4,16,,,,,0,10,10,15,0,0,0,1,,,3,9.367734851000023,2,1.816947997999705,2,1.4353848509999807,4,1.8014012330004334,044,001,2019_May_17_1515,MusicAffectPsychophysiology2019,3.0.5,60.04670084118324,
To what extent did the music make you feel ,ASHAMED,30MonoWAV/30MonoT4.wav,2,1,4,16,,,,,0,10,10,15,0,1,1,4,,,,,,,,,2,1.9171847380002873,044,001,2019_May_17_1515,MusicAffectPsychophysiology2019,3.0.5,60.04670084118324,
To what extent did the music make you feel ,EXCITED,30MonoWAV/30MonoT4.wav,2,1,4,16,,,,,0,10,10,15,0,2,2,7,,,,,,,,,1,1.6025999310004408,044,001,2019_May_17_1515,MusicAffectPsychophysiology2019,3.0.5,60.04670084118324,
To what extent did the music make you feel ,ACTIVE,30MonoWAV/30MonoT4.wav,2,1,4,16,,,,,0,10,10,15,0,3,3,9,,,,,,,,,3,2.0182458399995085,044,001,2019_May_17_1515,MusicAffectPsychophysiology2019,3.0.5,60.04670084118324,
To what extent did the music make you feel ,FRUSTRATED,30MonoWAV/30MonoT4.wav,2,1,4,16,,,,,0,10,10,15,0,4,4,3,,,,,,,,,5,1.4013134150000042,044,001,2019_May_17_1515,MusicAffectPsychophysiology2019,3.0.5,60.04670084118324,
To what extent did the music make you feel ,SAD,30MonoWAV/30MonoT4.wav,2,1,4,16,,,,,0,10,10,15,0,5,5,0,,,,,,,,,2,1.3354929990000528,044,001,2019_May_17_1515,MusicAffectPsychophysiology2019,3.0.5,60.04670084118324,
To what extent did the music make you feel ,TENDER,30MonoWAV/30MonoT4.wav,2,1,4,16,,,,,0,10,10,15,0,6,6,10,,,,,,,,,3,1.152045575999182,044,001,2019_May_17_1515,MusicAffectPsychophysiology2019,3.0.5,60.04670084118324,
To what extent did the music make you feel ,HAPPY,30MonoWAV/30MonoT4.wav,2,1,4,16,,,,,0,10,10,15,0,7,7,6,,,,,,,,,2,1.5013987270003781,044,001,2019_May_17_1515,MusicAffectPsychophysiology2019,3.0.5,60.04670084118324,
To what extent did the music make you feel ,ALERT,30MonoWAV/30MonoT4.wav,2,1,4,16,,,,,0,10,10,15,0,8,8,8,,,,,,,,,5,1.3019309800001793,044,001,2019_May_17_1515,MusicAffectPsychophysiology2019,3.0.5,60.04670084118324,
To what extent did the music make you feel ,GUILTY,30MonoWAV/30MonoT4.wav,2,1,4,16,,,,,0,10,10,15,0,9,9,5,,,,,,,,,1,1.367327679000482,044,001,2019_May_17_1515,MusicAffectPsychophysiology2019,3.0.5,60.04670084118324,
To what extent did the music make you feel ,SCARED,30MonoWAV/30MonoT4.wav,2,1,4,16,,,,,0,10,10,15,0,10,10,11,,,,,,,,,5,1.5183173879995593,044,001,2019_May_17_1515,MusicAffectPsychophysiology2019,3.0.5,60.04670084118324,
To what extent did the music make you feel ,ANGRY,30MonoWAV/30MonoT4.wav,2,1,4,16,,,,,0,10,10,15,0,11,11,2,,,,,,,,,3,1.7523586890001752,044,001,2019_May_17_1515,MusicAffectPsychophysiology2019,3.0.5,60.04670084118324,
,,30MonoWAV/30MonoT4.wav,2,1,4,16,,,,,0,10,10,15,,,,,,,,,,,,,,,044,001,2019_May_17_1515,MusicAffectPsychophysiology2019,3.0.5,60.04670084118324,
To what extent did the music make you feel ,ACTIVE,30MonoWAV/30MonoH1.wav,2,2,1,5,,,,,0,11,11,4,0,0,0,9,,,5,4.527177247000509,5,1.0012673889996222,5,0.8850066510003671,5,1.1848714699999618,044,001,2019_May_17_1515,MusicAffectPsychophysiology2019,3.0.5,60.04670084118324,
To what extent did the music make you feel ,ALERT,30MonoWAV/30MonoH1.wav,2,2,1,5,,,,,0,11,11,4,0,1,1,8,,,,,,,,,5,1.0358535770001254,044,001,2019_May_17_1515,MusicAffectPsychophysiology2019,3.0.5,60.04670084118324,
To what extent did the music make you feel ,ANXIOUS ,30MonoWAV/30MonoH1.wav,2,2,1,5,,,,,0,11,11,4,0,2,2,1,,,,,,,,,1,1.516521161000128,044,001,2019_May_17_1515,MusicAffectPsychophysiology2019,3.0.5,60.04670084118324,
To what extent did the music make you feel ,HAPPY,30MonoWAV/30MonoH1.wav,2,2,1,5,,,,,0,11,11,4,0,3,3,6,,,,,,,,,5,1.2358295819994964,044,001,2019_May_17_1515,MusicAffectPsychophysiology2019,3.0.5,60.04670084118324,
To what extent did the music make you feel ,SAD,30MonoWAV/30MonoH1.wav,2,2,1,5,,,,,0,11,11,4,0,4,4,0,,,,,,,,,1,1.2694600280001396,044,001,2019_May_17_1515,MusicAffectPsychophysiology2019,3.0.5,60.04670084118324,
To what extent did the music make you feel ,FRUSTRATED,30MonoWAV/30MonoH1.wav,2,2,1,5,,,,,0,11,11,4,0,5,5,3,,,,,,,,,1,1.2341533059998255,044,001,2019_May_17_1515,MusicAffectPsychophysiology2019,3.0.5,60.04670084118324,
To what extent did the music make you feel ,TENDER,30MonoWAV/30MonoH1.wav,2,2,1,5,,,,,0,11,11,4,0,6,6,10,,,,,,,,,2,0.999658669999917,044,001,2019_May_17_1515,MusicAffectPsychophysiology2019,3.0.5,60.04670084118324,
To what extent did the music make you feel ,GUILTY,30MonoWAV/30MonoH1.wav,2,2,1,5,,,,,0,11,11,4,0,7,7,5,,,,,,,,,1,0.7180966440000702,044,001,2019_May_17_1515,MusicAffectPsychophysiology2019,3.0.5,60.04670084118324,
To what extent did the music make you feel ,ANGRY,30MonoWAV/30MonoH1.wav,2,2,1,5,,,,,0,11,11,4,0,8,8,2,,,,,,,,,1,0.8516533270003492,044,001,2019_May_17_1515,MusicAffectPsychophysiology2019,3.0.5,60.04670084118324,
To what extent did the music make you feel ,EXCITED,30MonoWAV/30MonoH1.wav,2,2,1,5,,,,,0,11,11,4,0,9,9,7,,,,,,,,,5,1.4520679580000433,044,001,2019_May_17_1515,MusicAffectPsychophysiology2019,3.0.5,60.04670084118324,
To what extent did the music make you feel ,ASHAMED,30MonoWAV/30MonoH1.wav,2,2,1,5,,,,,0,11,11,4,0,10,10,4,,,,,,,,,1,0.9856765899994571,044,001,2019_May_17_1515,MusicAffectPsychophysiology2019,3.0.5,60.04670084118324,
To what extent did the music make you feel ,SCARED,30MonoWAV/30MonoH1.wav,2,2,1,5,,,,,0,11,11,4,0,11,11,11,,,,,,,,,1,0.8520864120000624,044,001,2019_May_17_1515,MusicAffectPsychophysiology2019,3.0.5,60.04670084118324,
,,30MonoWAV/30MonoH1.wav,2,2,1,5,,,,,0,11,11,4,,,,,,,,,,,,,,,044,001,2019_May_17_1515,MusicAffectPsychophysiology2019,3.0.5,60.04670084118324,
To what extent did the music make you feel ,ASHAMED,30MonoWAV/30MonoF4.wav,1,2,2,4,,,,,0,12,12,3,0,0,0,4,,,2,6.685206041000129,2,1.7018734610001047,2,1.9166503830001602,2,3.6188687120002214,044,001,2019_May_17_1515,MusicAffectPsychophysiology2019,3.0.5,60.04670084118324,
To what extent did the music make you feel ,ANGRY,30MonoWAV/30MonoF4.wav,1,2,2,4,,,,,0,12,12,3,0,1,1,2,,,,,,,,,4,2.5347931480000625,044,001,2019_May_17_1515,MusicAffectPsychophysiology2019,3.0.5,60.04670084118324,
To what extent did the music make you feel ,ANXIOUS ,30MonoWAV/30MonoF4.wav,1,2,2,4,,,,,0,12,12,3,0,2,2,1,,,,,,,,,4,1.1357236029998603,044,001,2019_May_17_1515,MusicAffectPsychophysiology2019,3.0.5,60.04670084118324,
To what extent did the music make you feel ,ACTIVE,30MonoWAV/30MonoF4.wav,1,2,2,4,,,,,0,12,12,3,0,3,3,9,,,,,,,,,2,1.3845506899997417,044,001,2019_May_17_1515,MusicAffectPsychophysiology2019,3.0.5,60.04670084118324,
To what extent did the music make you feel ,SAD,30MonoWAV/30MonoF4.wav,1,2,2,4,,,,,0,12,12,3,0,4,4,0,,,,,,,,,1,1.3513763450000624,044,001,2019_May_17_1515,MusicAffectPsychophysiology2019,3.0.5,60.04670084118324,
To what extent did the music make you feel ,TENDER,30MonoWAV/30MonoF4.wav,1,2,2,4,,,,,0,12,12,3,0,5,5,10,,,,,,,,,1,0.9505043750004916,044,001,2019_May_17_1515,MusicAffectPsychophysiology2019,3.0.5,60.04670084118324,
To what extent did the music make you feel ,HAPPY,30MonoWAV/30MonoF4.wav,1,2,2,4,,,,,0,12,12,3,0,6,6,6,,,,,,,,,1,0.8518648959998245,044,001,2019_May_17_1515,MusicAffectPsychophysiology2019,3.0.5,60.04670084118324,
To what extent did the music make you feel ,SCARED,30MonoWAV/30MonoF4.wav,1,2,2,4,,,,,0,12,12,3,0,7,7,11,,,,,,,,,5,1.3679354120004064,044,001,2019_May_17_1515,MusicAffectPsychophysiology2019,3.0.5,60.04670084118324,
To what extent did the music make you feel ,EXCITED,30MonoWAV/30MonoF4.wav,1,2,2,4,,,,,0,12,12,3,0,8,8,7,,,,,,,,,1,1.1682031649997953,044,001,2019_May_17_1515,MusicAffectPsychophysiology2019,3.0.5,60.04670084118324,
To what extent did the music make you feel ,ALERT,30MonoWAV/30MonoF4.wav,1,2,2,4,,,,,0,12,12,3,0,9,9,8,,,,,,,,,5,1.1670538650005255,044,001,2019_May_17_1515,MusicAffectPsychophysiology2019,3.0.5,60.04670084118324,
To what extent did the music make you feel ,FRUSTRATED,30MonoWAV/30MonoF4.wav,1,2,2,4,,,,,0,12,12,3,0,10,10,3,,,,,,,,,4,1.2181698100002905,044,001,2019_May_17_1515,MusicAffectPsychophysiology2019,3.0.5,60.04670084118324,
To what extent did the music make you feel ,GUILTY,30MonoWAV/30MonoF4.wav,1,2,2,4,,,,,0,12,12,3,0,11,11,5,,,,,,,,,1,1.3171590069996455,044,001,2019_May_17_1515,MusicAffectPsychophysiology2019,3.0.5,60.04670084118324,
,,30MonoWAV/30MonoF4.wav,1,2,2,4,,,,,0,12,12,3,,,,,,,,,,,,,,,044,001,2019_May_17_1515,MusicAffectPsychophysiology2019,3.0.5,60.04670084118324,
To what extent did the music make you feel ,SAD,30MonoWAV/30MonoS1.wav,1,1,3,9,,,,,0,13,13,8,0,0,0,0,,,2,6.658537455999976,2,4.050957034000021,3,1.7525976770002671,5,1.650358791999679,044,001,2019_May_17_1515,MusicAffectPsychophysiology2019,3.0.5,60.04670084118324,
To what extent did the music make you feel ,FRUSTRATED,30MonoWAV/30MonoS1.wav,1,1,3,9,,,,,0,13,13,8,0,1,1,3,,,,,,,,,1,1.317605145000016,044,001,2019_May_17_1515,MusicAffectPsychophysiology2019,3.0.5,60.04670084118324,
To what extent did the music make you feel ,ALERT,30MonoWAV/30MonoS1.wav,1,1,3,9,,,,,0,13,13,8,0,2,2,8,,,,,,,,,4,1.668770964000032,044,001,2019_May_17_1515,MusicAffectPsychophysiology2019,3.0.5,60.04670084118324,
To what extent did the music make you feel ,ANXIOUS ,30MonoWAV/30MonoS1.wav,1,1,3,9,,,,,0,13,13,8,0,3,3,1,,,,,,,,,5,1.4852803969997694,044,001,2019_May_17_1515,MusicAffectPsychophysiology2019,3.0.5,60.04670084118324,
To what extent did the music make you feel ,EXCITED,30MonoWAV/30MonoS1.wav,1,1,3,9,,,,,0,13,13,8,0,4,4,7,,,,,,,,,1,1.185842490000141,044,001,2019_May_17_1515,MusicAffectPsychophysiology2019,3.0.5,60.04670084118324,
To what extent did the music make you feel ,ACTIVE,30MonoWAV/30MonoS1.wav,1,1,3,9,,,,,0,13,13,8,0,5,5,9,,,,,,,,,3,1.3158519549997436,044,001,2019_May_17_1515,MusicAffectPsychophysiology2019,3.0.5,60.04670084118324,
To what extent did the music make you feel ,ANGRY,30MonoWAV/30MonoS1.wav,1,1,3,9,,,,,0,13,13,8,0,6,6,2,,,,,,,,,2,1.7689515790007135,044,001,2019_May_17_1515,MusicAffectPsychophysiology2019,3.0.5,60.04670084118324,
To what extent did the music make you feel ,SCARED,30MonoWAV/30MonoS1.wav,1,1,3,9,,,,,0,13,13,8,0,7,7,11,,,,,,,,,4,1.4342244350000328,044,001,2019_May_17_1515,MusicAffectPsychophysiology2019,3.0.5,60.04670084118324,
To what extent did the music make you feel ,HAPPY,30MonoWAV/30MonoS1.wav,1,1,3,9,,,,,0,13,13,8,0,8,8,6,,,,,,,,,1,1.3655301819999295,044,001,2019_May_17_1515,MusicAffectPsychophysiology2019,3.0.5,60.04670084118324,
To what extent did the music make you feel ,GUILTY,30MonoWAV/30MonoS1.wav,1,1,3,9,,,,,0,13,13,8,0,9,9,5,,,,,,,,,4,1.93453626200062,044,001,2019_May_17_1515,MusicAffectPsychophysiology2019,3.0.5,60.04670084118324,
To what extent did the music make you feel ,ASHAMED,30MonoWAV/30MonoS1.wav,1,1,3,9,,,,,0,13,13,8,0,10,10,4,,,,,,,,,2,1.4846138060001977,044,001,2019_May_17_1515,MusicAffectPsychophysiology2019,3.0.5,60.04670084118324,
To what extent did the music make you feel ,TENDER,30MonoWAV/30MonoS1.wav,1,1,3,9,,,,,0,13,13,8,0,11,11,10,,,,,,,,,2,1.135079568999572,044,001,2019_May_17_1515,MusicAffectPsychophysiology2019,3.0.5,60.04670084118324,
,,30MonoWAV/30MonoS1.wav,1,1,3,9,,,,,0,13,13,8,,,,,,,,,,,,,,,044,001,2019_May_17_1515,MusicAffectPsychophysiology2019,3.0.5,60.04670084118324,
To what extent did the music make you feel ,ANGRY,30MonoWAV/30MonoH4.wav,2,2,1,8,,,,,0,14,14,7,0,0,0,2,,,3,6.167868393999925,3,1.5845098120007606,3,1.251860184999714,1,1.6669250909999391,044,001,2019_May_17_1515,MusicAffectPsychophysiology2019,3.0.5,60.04670084118324,
To what extent did the music make you feel ,ASHAMED,30MonoWAV/30MonoH4.wav,2,2,1,8,,,,,0,14,14,7,0,1,1,4,,,,,,,,,1,0.6503068889996939,044,001,2019_May_17_1515,MusicAffectPsychophysiology2019,3.0.5,60.04670084118324,
To what extent did the music make you feel ,HAPPY,30MonoWAV/30MonoH4.wav,2,2,1,8,,,,,0,14,14,7,0,2,2,6,,,,,,,,,4,1.4690429189995484,044,001,2019_May_17_1515,MusicAffectPsychophysiology2019,3.0.5,60.04670084118324,
To what extent did the music make you feel ,EXCITED,30MonoWAV/30MonoH4.wav,2,2,1,8,,,,,0,14,14,7,0,3,3,7,,,,,,,,,4,1.0866744499999186,044,001,2019_May_17_1515,MusicAffectPsychophysiology2019,3.0.5,60.04670084118324,
To what extent did the music make you feel ,GUILTY,30MonoWAV/30MonoH4.wav,2,2,1,8,,,,,0,14,14,7,0,4,4,5,,,,,,,,,1,1.4850102580003295,044,001,2019_May_17_1515,MusicAffectPsychophysiology2019,3.0.5,60.04670084118324,
To what extent did the music make you feel ,FRUSTRATED,30MonoWAV/30MonoH4.wav,2,2,1,8,,,,,0,14,14,7,0,5,5,3,,,,,,,,,1,0.9397513189996971,044,001,2019_May_17_1515,MusicAffectPsychophysiology2019,3.0.5,60.04670084118324,
To what extent did the music make you feel ,SCARED,30MonoWAV/30MonoH4.wav,2,2,1,8,,,,,0,14,14,7,0,6,6,11,,,,,,,,,1,0.9859595119996811,044,001,2019_May_17_1515,MusicAffectPsychophysiology2019,3.0.5,60.04670084118324,
To what extent did the music make you feel ,ALERT,30MonoWAV/30MonoH4.wav,2,2,1,8,,,,,0,14,14,7,0,7,7,8,,,,,,,,,4,1.619142997000381,044,001,2019_May_17_1515,MusicAffectPsychophysiology2019,3.0.5,60.04670084118324,
To what extent did the music make you feel ,TENDER,30MonoWAV/30MonoH4.wav,2,2,1,8,,,,,0,14,14,7,0,8,8,10,,,,,,,,,2,1.7200866029997997,044,001,2019_May_17_1515,MusicAffectPsychophysiology2019,3.0.5,60.04670084118324,
To what extent did the music make you feel ,SAD,30MonoWAV/30MonoH4.wav,2,2,1,8,,,,,0,14,14,7,0,9,9,0,,,,,,,,,1,1.2353432399995654,044,001,2019_May_17_1515,MusicAffectPsychophysiology2019,3.0.5,60.04670084118324,
To what extent did the music make you feel ,ANXIOUS ,30MonoWAV/30MonoH4.wav,2,2,1,8,,,,,0,14,14,7,0,10,10,1,,,,,,,,,1,0.9733737830001701,044,001,2019_May_17_1515,MusicAffectPsychophysiology2019,3.0.5,60.04670084118324,
To what extent did the music make you feel ,ACTIVE,30MonoWAV/30MonoH4.wav,2,2,1,8,,,,,0,14,14,7,0,11,11,9,,,,,,,,,3,1.601912787999936,044,001,2019_May_17_1515,MusicAffectPsychophysiology2019,3.0.5,60.04670084118324,
,,30MonoWAV/30MonoH4.wav,2,2,1,8,,,,,0,14,14,7,,,,,,,,,,,,,,,044,001,2019_May_17_1515,MusicAffectPsychophysiology2019,3.0.5,60.04670084118324,
To what extent did the music make you feel ,SCARED,30MonoWAV/30MonoT1.wav,2,1,4,13,,,,,0,15,15,12,0,0,0,11,,,4,5.984711457999765,3,2.35164765799982,4,1.901519281000219,2,1.7677986950002378,044,001,2019_May_17_1515,MusicAffectPsychophysiology2019,3.0.5,60.04670084118324,
To what extent did the music make you feel ,EXCITED,30MonoWAV/30MonoT1.wav,2,1,4,13,,,,,0,15,15,12,0,1,1,7,,,,,,,,,2,1.5515621929998815,044,001,2019_May_17_1515,MusicAffectPsychophysiology2019,3.0.5,60.04670084118324,
To what extent did the music make you feel ,SAD,30MonoWAV/30MonoT1.wav,2,1,4,13,,,,,0,15,15,12,0,2,2,0,,,,,,,,,4,1.4183381439997902,044,001,2019_May_17_1515,MusicAffectPsychophysiology2019,3.0.5,60.04670084118324,
To what extent did the music make you feel ,ACTIVE,30MonoWAV/30MonoT1.wav,2,1,4,13,,,,,0,15,15,12,0,3,3,9,,,,,,,,,3,1.3348322419997203,044,001,2019_May_17_1515,MusicAffectPsychophysiology2019,3.0.5,60.04670084118324,
To what extent did the music make you feel ,ALERT,30MonoWAV/30MonoT1.wav,2,1,4,13,,,,,0,15,15,12,0,4,4,8,,,,,,,,,3,1.4356032089999644,044,001,2019_May_17_1515,MusicAffectPsychophysiology2019,3.0.5,60.04670084118324,
To what extent did the music make you feel ,ASHAMED,30MonoWAV/30MonoT1.wav,2,1,4,13,,,,,0,15,15,12,0,5,5,4,,,,,,,,,1,1.767819337000219,044,001,2019_May_17_1515,MusicAffectPsychophysiology2019,3.0.5,60.04670084118324,
To what extent did the music make you feel ,GUILTY,30MonoWAV/30MonoT1.wav,2,1,4,13,,,,,0,15,15,12,0,6,6,5,,,,,,,,,1,0.7855000239997025,044,001,2019_May_17_1515,MusicAffectPsychophysiology2019,3.0.5,60.04670084118324,
To what extent did the music make you feel ,HAPPY,30MonoWAV/30MonoT1.wav,2,1,4,13,,,,,0,15,15,12,0,7,7,6,,,,,,,,,3,1.2845953239993833,044,001,2019_May_17_1515,MusicAffectPsychophysiology2019,3.0.5,60.04670084118324,
To what extent did the music make you feel ,FRUSTRATED,30MonoWAV/30MonoT1.wav,2,1,4,13,,,,,0,15,15,12,0,8,8,3,,,,,,,,,1,1.2013298860001669,044,001,2019_May_17_1515,MusicAffectPsychophysiology2019,3.0.5,60.04670084118324,
To what extent did the music make you feel ,ANXIOUS ,30MonoWAV/30MonoT1.wav,2,1,4,13,,,,,0,15,15,12,0,9,9,1,,,,,,,,,2,1.1186203549996208,044,001,2019_May_17_1515,MusicAffectPsychophysiology2019,3.0.5,60.04670084118324,
To what extent did the music make you feel ,ANGRY,30MonoWAV/30MonoT1.wav,2,1,4,13,,,,,0,15,15,12,0,10,10,2,,,,,,,,,1,0.7015544930000033,044,001,2019_May_17_1515,MusicAffectPsychophysiology2019,3.0.5,60.04670084118324,
To what extent did the music make you feel ,TENDER,30MonoWAV/30MonoT1.wav,2,1,4,13,,,,,0,15,15,12,0,11,11,10,,,,,,,,,3,0.917759167999975,044,001,2019_May_17_1515,MusicAffectPsychophysiology2019,3.0.5,60.04670084118324,
,,30MonoWAV/30MonoT1.wav,2,1,4,13,,,,,0,15,15,12,,,,,,,,,,,,,,,044,001,2019_May_17_1515,MusicAffectPsychophysiology2019,3.0.5,60.04670084118324,
To what extent did the music make you feel ,ALERT,30MonoWAV/30MonoS4.wav,1,1,3,12,,,,,1,0,16,11,0,0,0,8,,,3,24.526497890999963,3,2.4183272569998735,2,1.7017257829993468,2,1.4515546050006378,044,001,2019_May_17_1515,MusicAffectPsychophysiology2019,3.0.5,60.04670084118324,
To what extent did the music make you feel ,TENDER,30MonoWAV/30MonoS4.wav,1,1,3,12,,,,,1,0,16,11,0,1,1,10,,,,,,,,,2,1.3347578889997749,044,001,2019_May_17_1515,MusicAffectPsychophysiology2019,3.0.5,60.04670084118324,
To what extent did the music make you feel ,EXCITED,30MonoWAV/30MonoS4.wav,1,1,3,12,,,,,1,0,16,11,0,2,2,7,,,,,,,,,1,1.234574228999918,044,001,2019_May_17_1515,MusicAffectPsychophysiology2019,3.0.5,60.04670084118324,
To what extent did the music make you feel ,ACTIVE,30MonoWAV/30MonoS4.wav,1,1,3,12,,,,,1,0,16,11,0,3,3,9,,,,,,,,,1,0.8347262930001307,044,001,2019_May_17_1515,MusicAffectPsychophysiology2019,3.0.5,60.04670084118324,
To what extent did the music make you feel ,SAD,30MonoWAV/30MonoS4.wav,1,1,3,12,,,,,1,0,16,11,0,4,4,0,,,,,,,,,3,1.517716092000228,044,001,2019_May_17_1515,MusicAffectPsychophysiology2019,3.0.5,60.04670084118324,
To what extent did the music make you feel ,ANXIOUS ,30MonoWAV/30MonoS4.wav,1,1,3,12,,,,,1,0,16,11,0,5,5,1,,,,,,,,,2,1.5861259860002974,044,001,2019_May_17_1515,MusicAffectPsychophysiology2019,3.0.5,60.04670084118324,
To what extent did the music make you feel ,ANGRY,30MonoWAV/30MonoS4.wav,1,1,3,12,,,,,1,0,16,11,0,6,6,2,,,,,,,,,1,1.3338449309994758,044,001,2019_May_17_1515,MusicAffectPsychophysiology2019,3.0.5,60.04670084118324,
To what extent did the music make you feel ,FRUSTRATED,30MonoWAV/30MonoS4.wav,1,1,3,12,,,,,1,0,16,11,0,7,7,3,,,,,,,,,1,1.2517115749997174,044,001,2019_May_17_1515,MusicAffectPsychophysiology2019,3.0.5,60.04670084118324,
To what extent did the music make you feel ,GUILTY,30MonoWAV/30MonoS4.wav,1,1,3,12,,,,,1,0,16,11,0,8,8,5,,,,,,,,,1,1.2182868930003679,044,001,2019_May_17_1515,MusicAffectPsychophysiology2019,3.0.5,60.04670084118324,
To what extent did the music make you feel ,ASHAMED,30MonoWAV/30MonoS4.wav,1,1,3,12,,,,,1,0,16,11,0,9,9,4,,,,,,,,,1,0.699753222000254,044,001,2019_May_17_1515,MusicAffectPsychophysiology2019,3.0.5,60.04670084118324,
To what extent did the music make you feel ,HAPPY,30MonoWAV/30MonoS4.wav,1,1,3,12,,,,,1,0,16,11,0,10,10,6,,,,,,,,,2,1.4180777940000553,044,001,2019_May_17_1515,MusicAffectPsychophysiology2019,3.0.5,60.04670084118324,
To what extent did the music make you feel ,SCARED,30MonoWAV/30MonoS4.wav,1,1,3,12,,,,,1,0,16,11,0,11,11,11,,,,,,,,,3,1.3685648199998468,044,001,2019_May_17_1515,MusicAffectPsychophysiology2019,3.0.5,60.04670084118324,
,,30MonoWAV/30MonoS4.wav,1,1,3,12,,,,,1,0,16,11,,,,,,,,,,,,,,,044,001,2019_May_17_1515,MusicAffectPsychophysiology2019,3.0.5,60.04670084118324,
To what extent did the music make you feel ,HAPPY,30MonoWAV/30MonoF3.wav,1,2,2,3,,,,,1,1,17,2,0,0,0,6,,,3,4.733636156000102,2,1.5017442950002078,2,0.9520827950000239,3,1.8522061509993364,044,001,2019_May_17_1515,MusicAffectPsychophysiology2019,3.0.5,60.04670084118324,
To what extent did the music make you feel ,SCARED,30MonoWAV/30MonoF3.wav,1,2,2,3,,,,,1,1,17,2,0,1,1,11,,,,,,,,,1,1.452605364000192,044,001,2019_May_17_1515,MusicAffectPsychophysiology2019,3.0.5,60.04670084118324,
To what extent did the music make you feel ,FRUSTRATED,30MonoWAV/30MonoF3.wav,1,2,2,3,,,,,1,1,17,2,0,2,2,3,,,,,,,,,1,0.8520747920001668,044,001,2019_May_17_1515,MusicAffectPsychophysiology2019,3.0.5,60.04670084118324,
To what extent did the music make you feel ,ALERT,30MonoWAV/30MonoF3.wav,1,2,2,3,,,,,1,1,17,2,0,3,3,8,,,,,,,,,3,0.8676393730002019,044,001,2019_May_17_1515,MusicAffectPsychophysiology2019,3.0.5,60.04670084118324,
To what extent did the music make you feel ,EXCITED,30MonoWAV/30MonoF3.wav,1,2,2,3,,,,,1,1,17,2,0,4,4,7,,,,,,,,,2,1.6358378820004873,044,001,2019_May_17_1515,MusicAffectPsychophysiology2019,3.0.5,60.04670084118324,
To what extent did the music make you feel ,GUILTY,30MonoWAV/30MonoF3.wav,1,2,2,3,,,,,1,1,17,2,0,5,5,5,,,,,,,,,1,0.9674060850002206,044,001,2019_May_17_1515,MusicAffectPsychophysiology2019,3.0.5,60.04670084118324,
To what extent did the music make you feel ,ACTIVE,30MonoWAV/30MonoF3.wav,1,2,2,3,,,,,1,1,17,2,0,6,6,9,,,,,,,,,3,0.8532061269997939,044,001,2019_May_17_1515,MusicAffectPsychophysiology2019,3.0.5,60.04670084118324,
To what extent did the music make you feel ,ANXIOUS ,30MonoWAV/30MonoF3.wav,1,2,2,3,,,,,1,1,17,2,0,7,7,1,,,,,,,,,1,1.1165305440008524,044,001,2019_May_17_1515,MusicAffectPsychophysiology2019,3.0.5,60.04670084118324,
To what extent did the music make you feel ,ASHAMED,30MonoWAV/30MonoF3.wav,1,2,2,3,,,,,1,1,17,2,0,8,8,4,,,,,,,,,1,0.6511332400004903,044,001,2019_May_17_1515,MusicAffectPsychophysiology2019,3.0.5,60.04670084118324,
To what extent did the music make you feel ,ANGRY,30MonoWAV/30MonoF3.wav,1,2,2,3,,,,,1,1,17,2,0,9,9,2,,,,,,,,,1,0.685817567000413,044,001,2019_May_17_1515,MusicAffectPsychophysiology2019,3.0.5,60.04670084118324,
To what extent did the music make you feel ,TENDER,30MonoWAV/30MonoF3.wav,1,2,2,3,,,,,1,1,17,2,0,10,10,10,,,,,,,,,2,1.0184127109996552,044,001,2019_May_17_1515,MusicAffectPsychophysiology2019,3.0.5,60.04670084118324,
To what extent did the music make you feel ,SAD,30MonoWAV/30MonoF3.wav,1,2,2,3,,,,,1,1,17,2,0,11,11,0,,,,,,,,,1,0.9013219259995822,044,001,2019_May_17_1515,MusicAffectPsychophysiology2019,3.0.5,60.04670084118324,
,,30MonoWAV/30MonoF3.wav,1,2,2,3,,,,,1,1,17,2,,,,,,,,,,,,,,,044,001,2019_May_17_1515,MusicAffectPsychophysiology2019,3.0.5,60.04670084118324,
To what extent did the music make you feel ,GUILTY,30MonoWAV/30MonoH1.wav,2,2,1,5,,,,,1,2,18,4,0,0,0,5,,,3,6.768021754999609,3,2.068004220000148,3,1.2016295940002237,1,2.1012251369993464,044,001,2019_May_17_1515,MusicAffectPsychophysiology2019,3.0.5,60.04670084118324,
To what extent did the music make you feel ,HAPPY,30MonoWAV/30MonoH1.wav,2,2,1,5,,,,,1,2,18,4,0,1,1,6,,,,,,,,,3,0.9179993179996018,044,001,2019_May_17_1515,MusicAffectPsychophysiology2019,3.0.5,60.04670084118324,
To what extent did the music make you feel ,SCARED,30MonoWAV/30MonoH1.wav,2,2,1,5,,,,,1,2,18,4,0,2,2,11,,,,,,,,,1,0.8855023689993686,044,001,2019_May_17_1515,MusicAffectPsychophysiology2019,3.0.5,60.04670084118324,
To what extent did the music make you feel ,ASHAMED,30MonoWAV/30MonoH1.wav,2,2,1,5,,,,,1,2,18,4,0,3,3,4,,,,,,,,,1,0.9020592669994585,044,001,2019_May_17_1515,MusicAffectPsychophysiology2019,3.0.5,60.04670084118324,
To what extent did the music make you feel ,ACTIVE,30MonoWAV/30MonoH1.wav,2,2,1,5,,,,,1,2,18,4,0,4,4,9,,,,,,,,,3,0.7021152970000912,044,001,2019_May_17_1515,MusicAffectPsychophysiology2019,3.0.5,60.04670084118324,
To what extent did the music make you feel ,EXCITED,30MonoWAV/30MonoH1.wav,2,2,1,5,,,,,1,2,18,4,0,5,5,7,,,,,,,,,3,0.8500519290000739,044,001,2019_May_17_1515,MusicAffectPsychophysiology2019,3.0.5,60.04670084118324,
To what extent did the music make you feel ,TENDER,30MonoWAV/30MonoH1.wav,2,2,1,5,,,,,1,2,18,4,0,6,6,10,,,,,,,,,1,0.7002342880005017,044,001,2019_May_17_1515,MusicAffectPsychophysiology2019,3.0.5,60.04670084118324,
To what extent did the music make you feel ,FRUSTRATED,30MonoWAV/30MonoH1.wav,2,2,1,5,,,,,1,2,18,4,0,7,7,3,,,,,,,,,1,0.9859504649994051,044,001,2019_May_17_1515,MusicAffectPsychophysiology2019,3.0.5,60.04670084118324,
To what extent did the music make you feel ,ANXIOUS ,30MonoWAV/30MonoH1.wav,2,2,1,5,,,,,1,2,18,4,0,8,8,1,,,,,,,,,2,1.4513934870001322,044,001,2019_May_17_1515,MusicAffectPsychophysiology2019,3.0.5,60.04670084118324,
To what extent did the music make you feel ,ANGRY,30MonoWAV/30MonoH1.wav,2,2,1,5,,,,,1,2,18,4,0,9,9,2,,,,,,,,,1,1.0190128099993672,044,001,2019_May_17_1515,MusicAffectPsychophysiology2019,3.0.5,60.04670084118324,
To what extent did the music make you feel ,SAD,30MonoWAV/30MonoH1.wav,2,2,1,5,,,,,1,2,18,4,0,10,10,0,,,,,,,,,2,1.4348053120002078,044,001,2019_May_17_1515,MusicAffectPsychophysiology2019,3.0.5,60.04670084118324,
To what extent did the music make you feel ,ALERT,30MonoWAV/30MonoH1.wav,2,2,1,5,,,,,1,2,18,4,0,11,11,8,,,,,,,,,3,1.0015715219997219,044,001,2019_May_17_1515,MusicAffectPsychophysiology2019,3.0.5,60.04670084118324,
,,30MonoWAV/30MonoH1.wav,2,2,1,5,,,,,1,2,18,4,,,,,,,,,,,,,,,044,001,2019_May_17_1515,MusicAffectPsychophysiology2019,3.0.5,60.04670084118324,
To what extent did the music make you feel ,SCARED,30MonoWAV/30MonoS3.wav,1,1,3,11,,,,,1,3,19,10,0,0,0,11,,,1,5.884836717000326,4,1.9043627510000078,4,1.1363253869994878,2,2.0045137039996916,044,001,2019_May_17_1515,MusicAffectPsychophysiology2019,3.0.5,60.04670084118324,
To what extent did the music make you feel ,ACTIVE,30MonoWAV/30MonoS3.wav,1,1,3,11,,,,,1,3,19,10,0,1,1,9,,,,,,,,,3,1.654224097000224,044,001,2019_May_17_1515,MusicAffectPsychophysiology2019,3.0.5,60.04670084118324,
To what extent did the music make you feel ,SAD,30MonoWAV/30MonoS3.wav,1,1,3,11,,,,,1,3,19,10,0,2,2,0,,,,,,,,,5,1.419671759999801,044,001,2019_May_17_1515,MusicAffectPsychophysiology2019,3.0.5,60.04670084118324,
To what extent did the music make you feel ,FRUSTRATED,30MonoWAV/30MonoS3.wav,1,1,3,11,,,,,1,3,19,10,0,3,3,3,,,,,,,,,1,1.1348947489996135,044,001,2019_May_17_1515,MusicAffectPsychophysiology2019,3.0.5,60.04670084118324,
To what extent did the music make you feel ,EXCITED,30MonoWAV/30MonoS3.wav,1,1,3,11,,,,,1,3,19,10,0,4,4,7,,,,,,,,,2,1.3227799199994479,044,001,2019_May_17_1515,MusicAffectPsychophysiology2019,3.0.5,60.04670084118324,
To what extent did the music make you feel ,ANGRY,30MonoWAV/30MonoS3.wav,1,1,3,11,,,,,1,3,19,10,0,5,5,2,,,,,,,,,1,1.3824876019998555,044,001,2019_May_17_1515,MusicAffectPsychophysiology2019,3.0.5,60.04670084118324,
To what extent did the music make you feel ,TENDER,30MonoWAV/30MonoS3.wav,1,1,3,11,,,,,1,3,19,10,0,6,6,10,,,,,,,,,2,1.1340667370004667,044,001,2019_May_17_1515,MusicAffectPsychophysiology2019,3.0.5,60.04670084118324,
To what extent did the music make you feel ,ALERT,30MonoWAV/30MonoS3.wav,1,1,3,11,,,,,1,3,19,10,0,7,7,8,,,,,,,,,3,2.1354403000004822,044,001,2019_May_17_1515,MusicAffectPsychophysiology2019,3.0.5,60.04670084118324,
To what extent did the music make you feel ,ANXIOUS ,30MonoWAV/30MonoS3.wav,1,1,3,11,,,,,1,3,19,10,0,8,8,1,,,,,,,,,4,1.3022102180002548,044,001,2019_May_17_1515,MusicAffectPsychophysiology2019,3.0.5,60.04670084118324,
To what extent did the music make you feel ,ASHAMED,30MonoWAV/30MonoS3.wav,1,1,3,11,,,,,1,3,19,10,0,9,9,4,,,,,,,,,2,1.2183465409998462,044,001,2019_May_17_1515,MusicAffectPsychophysiology2019,3.0.5,60.04670084118324,
To what extent did the music make you feel ,GUILTY,30MonoWAV/30MonoS3.wav,1,1,3,11,,,,,1,3,19,10,0,10,10,5,,,,,,,,,1,1.100783058000161,044,001,2019_May_17_1515,MusicAffectPsychophysiology2019,3.0.5,60.04670084118324,
To what extent did the music make you feel ,HAPPY,30MonoWAV/30MonoS3.wav,1,1,3,11,,,,,1,3,19,10,0,11,11,6,,,,,,,,,3,1.2679178799999136,044,001,2019_May_17_1515,MusicAffectPsychophysiology2019,3.0.5,60.04670084118324,
,,30MonoWAV/30MonoS3.wav,1,1,3,11,,,,,1,3,19,10,,,,,,,,,,,,,,,044,001,2019_May_17_1515,MusicAffectPsychophysiology2019,3.0.5,60.04670084118324,
To what extent did the music make you feel ,ALERT,30MonoWAV/30MonoS1.wav,1,1,3,9,,,,,1,4,20,8,0,0,0,8,,,1,4.970553811999707,2,1.9876112279998779,2,1.6702577859996381,2,1.5699049630002264,044,001,2019_May_17_1515,MusicAffectPsychophysiology2019,3.0.5,60.04670084118324,
To what extent did the music make you feel ,SAD,30MonoWAV/30MonoS1.wav,1,1,3,9,,,,,1,4,20,8,0,1,1,0,,,,,,,,,3,1.786922094000147,044,001,2019_May_17_1515,MusicAffectPsychophysiology2019,3.0.5,60.04670084118324,
To what extent did the music make you feel ,EXCITED,30MonoWAV/30MonoS1.wav,1,1,3,9,,,,,1,4,20,8,0,2,2,7,,,,,,,,,1,1.589166865000152,044,001,2019_May_17_1515,MusicAffectPsychophysiology2019,3.0.5,60.04670084118324,
To what extent did the music make you feel ,ASHAMED,30MonoWAV/30MonoS1.wav,1,1,3,9,,,,,1,4,20,8,0,3,3,4,,,,,,,,,1,0.81649994899999,044,001,2019_May_17_1515,MusicAffectPsychophysiology2019,3.0.5,60.04670084118324,
To what extent did the music make you feel ,ANXIOUS ,30MonoWAV/30MonoS1.wav,1,1,3,9,,,,,1,4,20,8,0,4,4,1,,,,,,,,,3,2.0687993530000313,044,001,2019_May_17_1515,MusicAffectPsychophysiology2019,3.0.5,60.04670084118324,
To what extent did the music make you feel ,FRUSTRATED,30MonoWAV/30MonoS1.wav,1,1,3,9,,,,,1,4,20,8,0,5,5,3,,,,,,,,,1,1.0833853959993576,044,001,2019_May_17_1515,MusicAffectPsychophysiology2019,3.0.5,60.04670084118324,
To what extent did the music make you feel ,ACTIVE,30MonoWAV/30MonoS1.wav,1,1,3,9,,,,,1,4,20,8,0,6,6,9,,,,,,,,,2,1.2011247460004597,044,001,2019_May_17_1515,MusicAffectPsychophysiology2019,3.0.5,60.04670084118324,
To what extent did the music make you feel ,TENDER,30MonoWAV/30MonoS1.wav,1,1,3,9,,,,,1,4,20,8,0,7,7,10,,,,,,,,,1,1.3190021999998862,044,001,2019_May_17_1515,MusicAffectPsychophysiology2019,3.0.5,60.04670084118324,
To what extent did the music make you feel ,GUILTY,30MonoWAV/30MonoS1.wav,1,1,3,9,,,,,1,4,20,8,0,8,8,5,,,,,,,,,1,1.052142210999591,044,001,2019_May_17_1515,MusicAffectPsychophysiology2019,3.0.5,60.04670084118324,
To what extent did the music make you feel ,ANGRY,30MonoWAV/30MonoS1.wav,1,1,3,9,,,,,1,4,20,8,0,9,9,2,,,,,,,,,1,0.7854090129994802,044,001,2019_May_17_1515,MusicAffectPsychophysiology2019,3.0.5,60.04670084118324,
To what extent did the music make you feel ,SCARED,30MonoWAV/30MonoS1.wav,1,1,3,9,,,,,1,4,20,8,0,10,10,11,,,,,,,,,2,1.135188587999437,044,001,2019_May_17_1515,MusicAffectPsychophysiology2019,3.0.5,60.04670084118324,
To what extent did the music make you feel ,HAPPY,30MonoWAV/30MonoS1.wav,1,1,3,9,,,,,1,4,20,8,0,11,11,6,,,,,,,,,2,1.4517469470001743,044,001,2019_May_17_1515,MusicAffectPsychophysiology2019,3.0.5,60.04670084118324,
,,30MonoWAV/30MonoS1.wav,1,1,3,9,,,,,1,4,20,8,,,,,,,,,,,,,,,044,001,2019_May_17_1515,MusicAffectPsychophysiology2019,3.0.5,60.04670084118324,
To what extent did the music make you feel ,ACTIVE,30MonoWAV/30MonoT4.wav,2,1,4,16,,,,,1,5,21,15,0,0,0,9,,,1,3.802066360000026,3,1.8020168700004433,3,1.218588791000002,1,1.6178631020002285,044,001,2019_May_17_1515,MusicAffectPsychophysiology2019,3.0.5,60.04670084118324,
To what extent did the music make you feel ,HAPPY,30MonoWAV/30MonoT4.wav,2,1,4,16,,,,,1,5,21,15,0,1,1,6,,,,,,,,,2,1.1854372879997754,044,001,2019_May_17_1515,MusicAffectPsychophysiology2019,3.0.5,60.04670084118324,
To what extent did the music make you feel ,ASHAMED,30MonoWAV/30MonoT4.wav,2,1,4,16,,,,,1,5,21,15,0,2,2,4,,,,,,,,,1,0.8850974599999972,044,001,2019_May_17_1515,MusicAffectPsychophysiology2019,3.0.5,60.04670084118324,
To what extent did the music make you feel ,GUILTY,30MonoWAV/30MonoT4.wav,2,1,4,16,,,,,1,5,21,15,0,3,3,5,,,,,,,,,1,0.7861369069996726,044,001,2019_May_17_1515,MusicAffectPsychophysiology2019,3.0.5,60.04670084118324,
To what extent did the music make you feel ,SAD,30MonoWAV/30MonoT4.wav,2,1,4,16,,,,,1,5,21,15,0,4,4,0,,,,,,,,,4,1.2678501649997997,044,001,2019_May_17_1515,MusicAffectPsychophysiology2019,3.0.5,60.04670084118324,
To what extent did the music make you feel ,TENDER,30MonoWAV/30MonoT4.wav,2,1,4,16,,,,,1,5,21,15,0,5,5,10,,,,,,,,,3,1.0840683619999254,044,001,2019_May_17_1515,MusicAffectPsychophysiology2019,3.0.5,60.04670084118324,
To what extent did the music make you feel ,ALERT,30MonoWAV/30MonoT4.wav,2,1,4,16,,,,,1,5,21,15,0,6,6,8,,,,,,,,,2,1.6696475260005172,044,001,2019_May_17_1515,MusicAffectPsychophysiology2019,3.0.5,60.04670084118324,
To what extent did the music make you feel ,EXCITED,30MonoWAV/30MonoT4.wav,2,1,4,16,,,,,1,5,21,15,0,7,7,7,,,,,,,,,2,2.118147512000178,044,001,2019_May_17_1515,MusicAffectPsychophysiology2019,3.0.5,60.04670084118324,
To what extent did the music make you feel ,FRUSTRATED,30MonoWAV/30MonoT4.wav,2,1,4,16,,,,,1,5,21,15,0,8,8,3,,,,,,,,,1,1.4184148360000108,044,001,2019_May_17_1515,MusicAffectPsychophysiology2019,3.0.5,60.04670084118324,
To what extent did the music make you feel ,ANGRY,30MonoWAV/30MonoT4.wav,2,1,4,16,,,,,1,5,21,15,0,9,9,2,,,,,,,,,1,0.6022976920003202,044,001,2019_May_17_1515,MusicAffectPsychophysiology2019,3.0.5,60.04670084118324,
To what extent did the music make you feel ,ANXIOUS ,30MonoWAV/30MonoT4.wav,2,1,4,16,,,,,1,5,21,15,0,10,10,1,,,,,,,,,4,1.3021762130001662,044,001,2019_May_17_1515,MusicAffectPsychophysiology2019,3.0.5,60.04670084118324,
To what extent did the music make you feel ,SCARED,30MonoWAV/30MonoT4.wav,2,1,4,16,,,,,1,5,21,15,0,11,11,11,,,,,,,,,3,1.2526737990001493,044,001,2019_May_17_1515,MusicAffectPsychophysiology2019,3.0.5,60.04670084118324,
,,30MonoWAV/30MonoT4.wav,2,1,4,16,,,,,1,5,21,15,,,,,,,,,,,,,,,044,001,2019_May_17_1515,MusicAffectPsychophysiology2019,3.0.5,60.04670084118324,
To what extent did the music make you feel ,GUILTY,30MonoWAV/30MonoS2.wav,1,1,3,10,,,,,1,6,22,9,0,0,0,5,,,1,6.367958253999859,2,2.1830059559997608,3,1.818308237000565,1,2.0348229189994527,044,001,2019_May_17_1515,MusicAffectPsychophysiology2019,3.0.5,60.04670084118324,
To what extent did the music make you feel ,ALERT,30MonoWAV/30MonoS2.wav,1,1,3,10,,,,,1,6,22,9,0,1,1,8,,,,,,,,,1,1.3345335650001289,044,001,2019_May_17_1515,MusicAffectPsychophysiology2019,3.0.5,60.04670084118324,
To what extent did the music make you feel ,FRUSTRATED,30MonoWAV/30MonoS2.wav,1,1,3,10,,,,,1,6,22,9,0,2,2,3,,,,,,,,,3,1.9505100000005768,044,001,2019_May_17_1515,MusicAffectPsychophysiology2019,3.0.5,60.04670084118324,
To what extent did the music make you feel ,SAD,30MonoWAV/30MonoS2.wav,1,1,3,10,,,,,1,6,22,9,0,3,3,0,,,,,,,,,2,1.2197745399998894,044,001,2019_May_17_1515,MusicAffectPsychophysiology2019,3.0.5,60.04670084118324,
To what extent did the music make you feel ,ASHAMED,30MonoWAV/30MonoS2.wav,1,1,3,10,,,,,1,6,22,9,0,4,4,4,,,,,,,,,2,1.51884986100049,044,001,2019_May_17_1515,MusicAffectPsychophysiology2019,3.0.5,60.04670084118324,
To what extent did the music make you feel ,EXCITED,30MonoWAV/30MonoS2.wav,1,1,3,10,,,,,1,6,22,9,0,5,5,7,,,,,,,,,1,1.4853455820002637,044,001,2019_May_17_1515,MusicAffectPsychophysiology2019,3.0.5,60.04670084118324,
To what extent did the music make you feel ,HAPPY,30MonoWAV/30MonoS2.wav,1,1,3,10,,,,,1,6,22,9,0,6,6,6,,,,,,,,,1,0.7511116429996036,044,001,2019_May_17_1515,MusicAffectPsychophysiology2019,3.0.5,60.04670084118324,
To what extent did the music make you feel ,ACTIVE,30MonoWAV/30MonoS2.wav,1,1,3,10,,,,,1,6,22,9,0,7,7,9,,,,,,,,,1,1.4346080109999093,044,001,2019_May_17_1515,MusicAffectPsychophysiology2019,3.0.5,60.04670084118324,
To what extent did the music make you feel ,TENDER,30MonoWAV/30MonoS2.wav,1,1,3,10,,,,,1,6,22,9,0,8,8,10,,,,,,,,,2,1.0013550069998018,044,001,2019_May_17_1515,MusicAffectPsychophysiology2019,3.0.5,60.04670084118324,
To what extent did the music make you feel ,SCARED,30MonoWAV/30MonoS2.wav,1,1,3,10,,,,,1,6,22,9,0,9,9,11,,,,,,,,,3,1.5683959360003428,044,001,2019_May_17_1515,MusicAffectPsychophysiology2019,3.0.5,60.04670084118324,
To what extent did the music make you feel ,ANXIOUS ,30MonoWAV/30MonoS2.wav,1,1,3,10,,,,,1,6,22,9,0,10,10,1,,,,,,,,,3,1.1679273270001431,044,001,2019_May_17_1515,MusicAffectPsychophysiology2019,3.0.5,60.04670084118324,
To what extent did the music make you feel ,ANGRY,30MonoWAV/30MonoS2.wav,1,1,3,10,,,,,1,6,22,9,0,11,11,2,,,,,,,,,3,3.0516363360002288,044,001,2019_May_17_1515,MusicAffectPsychophysiology2019,3.0.5,60.04670084118324,
,,30MonoWAV/30MonoS2.wav,1,1,3,10,,,,,1,6,22,9,,,,,,,,,,,,,,,044,001,2019_May_17_1515,MusicAffectPsychophysiology2019,3.0.5,60.04670084118324,
To what extent did the music make you feel ,HAPPY,30MonoWAV/30MonoF1.wav,1,2,2,1,,,,,1,7,23,0,0,0,0,6,,,3,6.06797910000023,2,1.451746603999709,2,1.1009587739999915,2,1.6533448419995693,044,001,2019_May_17_1515,MusicAffectPsychophysiology2019,3.0.5,60.04670084118324,
To what extent did the music make you feel ,SAD,30MonoWAV/30MonoF1.wav,1,2,2,1,,,,,1,7,23,0,0,1,1,0,,,,,,,,,2,1.5668845260006492,044,001,2019_May_17_1515,MusicAffectPsychophysiology2019,3.0.5,60.04670084118324,
To what extent did the music make you feel ,FRUSTRATED,30MonoWAV/30MonoF1.wav,1,2,2,1,,,,,1,7,23,0,0,2,2,3,,,,,,,,,3,1.167853582999669,044,001,2019_May_17_1515,MusicAffectPsychophysiology2019,3.0.5,60.04670084118324,
To what extent did the music make you feel ,ANXIOUS ,30MonoWAV/30MonoF1.wav,1,2,2,1,,,,,1,7,23,0,0,3,3,1,,,,,,,,,3,1.451030639000237,044,001,2019_May_17_1515,MusicAffectPsychophysiology2019,3.0.5,60.04670084118324,
To what extent did the music make you feel ,EXCITED,30MonoWAV/30MonoF1.wav,1,2,2,1,,,,,1,7,23,0,0,4,4,7,,,,,,,,,2,1.1345632309994471,044,001,2019_May_17_1515,MusicAffectPsychophysiology2019,3.0.5,60.04670084118324,
To what extent did the music make you feel ,TENDER,30MonoWAV/30MonoF1.wav,1,2,2,1,,,,,1,7,23,0,0,5,5,10,,,,,,,,,2,1.116881893000027,044,001,2019_May_17_1515,MusicAffectPsychophysiology2019,3.0.5,60.04670084118324,
To what extent did the music make you feel ,ASHAMED,30MonoWAV/30MonoF1.wav,1,2,2,1,,,,,1,7,23,0,0,6,6,4,,,,,,,,,2,0.7516530500006411,044,001,2019_May_17_1515,MusicAffectPsychophysiology2019,3.0.5,60.04670084118324,
To what extent did the music make you feel ,ANGRY,30MonoWAV/30MonoF1.wav,1,2,2,1,,,,,1,7,23,0,0,7,7,2,,,,,,,,,3,1.6848609329999817,044,001,2019_May_17_1515,MusicAffectPsychophysiology2019,3.0.5,60.04670084118324,
To what extent did the music make you feel ,GUILTY,30MonoWAV/30MonoF1.wav,1,2,2,1,,,,,1,7,23,0,0,8,8,5,,,,,,,,,1,1.8188671239995529,044,001,2019_May_17_1515,MusicAffectPsychophysiology2019,3.0.5,60.04670084118324,
To what extent did the music make you feel ,SCARED,30MonoWAV/30MonoF1.wav,1,2,2,1,,,,,1,7,23,0,0,9,9,11,,,,,,,,,3,0.882960570999785,044,001,2019_May_17_1515,MusicAffectPsychophysiology2019,3.0.5,60.04670084118324,
To what extent did the music make you feel ,ALERT,30MonoWAV/30MonoF1.wav,1,2,2,1,,,,,1,7,23,0,0,10,10,8,,,,,,,,,4,1.4015040189997308,044,001,2019_May_17_1515,MusicAffectPsychophysiology2019,3.0.5,60.04670084118324,
To what extent did the music make you feel ,ACTIVE,30MonoWAV/30MonoF1.wav,1,2,2,1,,,,,1,7,23,0,0,11,11,9,,,,,,,,,4,2.0185629520001385,044,001,2019_May_17_1515,MusicAffectPsychophysiology2019,3.0.5,60.04670084118324,
,,30MonoWAV/30MonoF1.wav,1,2,2,1,,,,,1,7,23,0,,,,,,,,,,,,,,,044,001,2019_May_17_1515,MusicAffectPsychophysiology2019,3.0.5,60.04670084118324,
To what extent did the music make you feel ,HAPPY,30MonoWAV/30MonoH3.wav,2,2,1,7,,,,,1,8,24,6,0,0,0,6,,,2,5.885362488000283,2,1.2682700980003574,2,1.43560097199952,2,1.2350580109996372,044,001,2019_May_17_1515,MusicAffectPsychophysiology2019,3.0.5,60.04670084118324,
To what extent did the music make you feel ,GUILTY,30MonoWAV/30MonoH3.wav,2,2,1,7,,,,,1,8,24,6,0,1,1,5,,,,,,,,,1,1.2681605480001963,044,001,2019_May_17_1515,MusicAffectPsychophysiology2019,3.0.5,60.04670084118324,
To what extent did the music make you feel ,SCARED,30MonoWAV/30MonoH3.wav,2,2,1,7,,,,,1,8,24,6,0,2,2,11,,,,,,,,,5,1.584909363999941,044,001,2019_May_17_1515,MusicAffectPsychophysiology2019,3.0.5,60.04670084118324,
To what extent did the music make you feel ,ANGRY,30MonoWAV/30MonoH3.wav,2,2,1,7,,,,,1,8,24,6,0,3,3,2,,,,,,,,,3,1.300203918999614,044,001,2019_May_17_1515,MusicAffectPsychophysiology2019,3.0.5,60.04670084118324,
To what extent did the music make you feel ,FRUSTRATED,30MonoWAV/30MonoH3.wav,2,2,1,7,,,,,1,8,24,6,0,4,4,3,,,,,,,,,4,1.0843375419999575,044,001,2019_May_17_1515,MusicAffectPsychophysiology2019,3.0.5,60.04670084118324,
To what extent did the music make you feel ,TENDER,30MonoWAV/30MonoH3.wav,2,2,1,7,,,,,1,8,24,6,0,5,5,10,,,,,,,,,2,1.0845528990003004,044,001,2019_May_17_1515,MusicAffectPsychophysiology2019,3.0.5,60.04670084118324,
To what extent did the music make you feel ,SAD,30MonoWAV/30MonoH3.wav,2,2,1,7,,,,,1,8,24,6,0,6,6,0,,,,,,,,,3,1.4676199610003096,044,001,2019_May_17_1515,MusicAffectPsychophysiology2019,3.0.5,60.04670084118324,
To what extent did the music make you feel ,EXCITED,30MonoWAV/30MonoH3.wav,2,2,1,7,,,,,1,8,24,6,0,7,7,7,,,,,,,,,1,1.335234279999895,044,001,2019_May_17_1515,MusicAffectPsychophysiology2019,3.0.5,60.04670084118324,
To what extent did the music make you feel ,ALERT,30MonoWAV/30MonoH3.wav,2,2,1,7,,,,,1,8,24,6,0,8,8,8,,,,,,,,,5,1.1851918129996193,044,001,2019_May_17_1515,MusicAffectPsychophysiology2019,3.0.5,60.04670084118324,
To what extent did the music make you feel ,ANXIOUS ,30MonoWAV/30MonoH3.wav,2,2,1,7,,,,,1,8,24,6,0,9,9,1,,,,,,,,,4,1.2025484639998467,044,001,2019_May_17_1515,MusicAffectPsychophysiology2019,3.0.5,60.04670084118324,
To what extent did the music make you feel ,ACTIVE,30MonoWAV/30MonoH3.wav,2,2,1,7,,,,,1,8,24,6,0,10,10,9,,,,,,,,,2,1.5857353640003566,044,001,2019_May_17_1515,MusicAffectPsychophysiology2019,3.0.5,60.04670084118324,
To what extent did the music make you feel ,ASHAMED,30MonoWAV/30MonoH3.wav,2,2,1,7,,,,,1,8,24,6,0,11,11,4,,,,,,,,,1,1.0830638750003345,044,001,2019_May_17_1515,MusicAffectPsychophysiology2019,3.0.5,60.04670084118324,
,,30MonoWAV/30MonoH3.wav,2,2,1,7,,,,,1,8,24,6,,,,,,,,,,,,,,,044,001,2019_May_17_1515,MusicAffectPsychophysiology2019,3.0.5,60.04670084118324,
