Instruction,Word,song,valence,arousal,affectcat,songmark,pracwords.thisRepN,pracwords.thisTrialN,pracwords.thisN,pracwords.thisIndex,songtrials.thisRepN,songtrials.thisTrialN,songtrials.thisN,songtrials.thisIndex,words.thisRepN,words.thisTrialN,words.thisN,words.thisIndex,begin.keys,begin.rt,arousalkey.keys,arousalkey.rt,valencekey.keys,valencekey.rt,likekey.keys,likekey.rt,WordResponse.keys,WordResponse.rt,key_resp_2.keys,key_resp_2.rt,participant,session,date,expName,psychopyVersion,frameRate,
,,,,,,,,,,,,,,,,,,,space,2.173034641999948,,,,,,,,,,,045,001,2019_May_17_1617,MusicAffectPsychophysiology2019,3.0.5,60.121006873059926,
,,,,,,,,,,,,,,,,,,,,,3,10.52671610699963,,,,,,,,,045,001,2019_May_17_1617,MusicAffectPsychophysiology2019,3.0.5,60.121006873059926,
,,,,,,,,,,,,,,,,,,,,,,,3,4.518594291000227,,,,,,,045,001,2019_May_17_1617,MusicAffectPsychophysiology2019,3.0.5,60.121006873059926,
,,,,,,,,,,,,,,,,,,,,,,,,,3,4.334657255999446,,,,,045,001,2019_May_17_1617,MusicAffectPsychophysiology2019,3.0.5,60.121006873059926,
To what extent did the music make you feel ,TENDER,,,,,,0,0,0,10,,,,,,,,,,,,,,,,,4,7.760827066999809,,,045,001,2019_May_17_1617,MusicAffectPsychophysiology2019,3.0.5,60.121006873059926,
To what extent did the music make you feel ,ANXIOUS ,,,,,,0,1,1,1,,,,,,,,,,,,,,,,,1,2.704079250999712,,,045,001,2019_May_17_1617,MusicAffectPsychophysiology2019,3.0.5,60.121006873059926,
To what extent did the music make you feel ,GUILTY,,,,,,0,2,2,5,,,,,,,,,,,,,,,,,1,1.9041634839995822,,,045,001,2019_May_17_1617,MusicAffectPsychophysiology2019,3.0.5,60.121006873059926,
To what extent did the music make you feel ,EXCITED,,,,,,0,3,3,7,,,,,,,,,,,,,,,,,2,3.105728782999904,,,045,001,2019_May_17_1617,MusicAffectPsychophysiology2019,3.0.5,60.121006873059926,
To what extent did the music make you feel ,ANGRY,,,,,,0,4,4,2,,,,,,,,,,,,,,,,,1,1.1522475400006442,,,045,001,2019_May_17_1617,MusicAffectPsychophysiology2019,3.0.5,60.121006873059926,
To what extent did the music make you feel ,ASHAMED,,,,,,0,5,5,4,,,,,,,,,,,,,,,,,1,0.918499919000169,,,045,001,2019_May_17_1617,MusicAffectPsychophysiology2019,3.0.5,60.121006873059926,
To what extent did the music make you feel ,ACTIVE,,,,,,0,6,6,9,,,,,,,,,,,,,,,,,2,1.4184903929999564,,,045,001,2019_May_17_1617,MusicAffectPsychophysiology2019,3.0.5,60.121006873059926,
To what extent did the music make you feel ,ALERT,,,,,,0,7,7,8,,,,,,,,,,,,,,,,,1,1.268168355999478,,,045,001,2019_May_17_1617,MusicAffectPsychophysiology2019,3.0.5,60.121006873059926,
To what extent did the music make you feel ,HAPPY,,,,,,0,8,8,6,,,,,,,,,,,,,,,,,3,4.401563859999442,,,045,001,2019_May_17_1617,MusicAffectPsychophysiology2019,3.0.5,60.121006873059926,
To what extent did the music make you feel ,SCARED,,,,,,0,9,9,11,,,,,,,,,,,,,,,,,1,1.1176882610006942,,,045,001,2019_May_17_1617,MusicAffectPsychophysiology2019,3.0.5,60.121006873059926,
To what extent did the music make you feel ,FRUSTRATED,,,,,,0,10,10,3,,,,,,,,,,,,,,,,,1,3.134220228000231,,,045,001,2019_May_17_1617,MusicAffectPsychophysiology2019,3.0.5,60.121006873059926,
To what extent did the music make you feel ,SAD,,,,,,0,11,11,0,,,,,,,,,,,,,,,,,2,4.99048695700003,,,045,001,2019_May_17_1617,MusicAffectPsychophysiology2019,3.0.5,60.121006873059926,
To what extent did the music make you feel ,ANGRY,30MonoWAV/30MonoF4.wav,1,2,2,4,,,,,0,0,0,3,0,0,0,2,,,4,4.551897553999879,1,7.018804467999871,3,5.934069829000691,1,1.9519747120002648,,,045,001,2019_May_17_1617,MusicAffectPsychophysiology2019,3.0.5,60.121006873059926,
To what extent did the music make you feel ,SAD,30MonoWAV/30MonoF4.wav,1,2,2,4,,,,,0,0,0,3,0,1,1,0,,,,,,,,,1,1.334514979999767,,,045,001,2019_May_17_1617,MusicAffectPsychophysiology2019,3.0.5,60.121006873059926,
To what extent did the music make you feel ,ALERT,30MonoWAV/30MonoF4.wav,1,2,2,4,,,,,0,0,0,3,0,2,2,8,,,,,,,,,5,2.86884163600007,,,045,001,2019_May_17_1617,MusicAffectPsychophysiology2019,3.0.5,60.121006873059926,
To what extent did the music make you feel ,HAPPY,30MonoWAV/30MonoF4.wav,1,2,2,4,,,,,0,0,0,3,0,3,3,6,,,,,,,,,1,2.801941589999842,,,045,001,2019_May_17_1617,MusicAffectPsychophysiology2019,3.0.5,60.121006873059926,
To what extent did the music make you feel ,GUILTY,30MonoWAV/30MonoF4.wav,1,2,2,4,,,,,0,0,0,3,0,4,4,5,,,,,,,,,1,1.2989274170004137,,,045,001,2019_May_17_1617,MusicAffectPsychophysiology2019,3.0.5,60.121006873059926,
To what extent did the music make you feel ,SCARED,30MonoWAV/30MonoF4.wav,1,2,2,4,,,,,0,0,0,3,0,5,5,11,,,,,,,,,2,4.151424622999912,,,045,001,2019_May_17_1617,MusicAffectPsychophysiology2019,3.0.5,60.121006873059926,
To what extent did the music make you feel ,ACTIVE,30MonoWAV/30MonoF4.wav,1,2,2,4,,,,,0,0,0,3,0,6,6,9,,,,,,,,,3,3.2194683890002125,,,045,001,2019_May_17_1617,MusicAffectPsychophysiology2019,3.0.5,60.121006873059926,
To what extent did the music make you feel ,ANXIOUS ,30MonoWAV/30MonoF4.wav,1,2,2,4,,,,,0,0,0,3,0,7,7,1,,,,,,,,,4,2.8840181890000167,,,045,001,2019_May_17_1617,MusicAffectPsychophysiology2019,3.0.5,60.121006873059926,
To what extent did the music make you feel ,FRUSTRATED,30MonoWAV/30MonoF4.wav,1,2,2,4,,,,,0,0,0,3,0,8,8,3,,,,,,,,,1,1.6844189160001406,,,045,001,2019_May_17_1617,MusicAffectPsychophysiology2019,3.0.5,60.121006873059926,
To what extent did the music make you feel ,ASHAMED,30MonoWAV/30MonoF4.wav,1,2,2,4,,,,,0,0,0,3,0,9,9,4,,,,,,,,,1,7.017277050999837,,,045,001,2019_May_17_1617,MusicAffectPsychophysiology2019,3.0.5,60.121006873059926,
To what extent did the music make you feel ,TENDER,30MonoWAV/30MonoF4.wav,1,2,2,4,,,,,0,0,0,3,0,10,10,10,,,,,,,,,1,1.4853387580005801,,,045,001,2019_May_17_1617,MusicAffectPsychophysiology2019,3.0.5,60.121006873059926,
To what extent did the music make you feel ,EXCITED,30MonoWAV/30MonoF4.wav,1,2,2,4,,,,,0,0,0,3,0,11,11,7,,,,,,,,,3,3.2853290329994707,,,045,001,2019_May_17_1617,MusicAffectPsychophysiology2019,3.0.5,60.121006873059926,
,,30MonoWAV/30MonoF4.wav,1,2,2,4,,,,,0,0,0,3,,,,,,,,,,,,,,,,,045,001,2019_May_17_1617,MusicAffectPsychophysiology2019,3.0.5,60.121006873059926,
To what extent did the music make you feel ,GUILTY,30MonoWAV/30MonoS2.wav,1,1,3,10,,,,,0,1,1,9,0,0,0,5,,,2,3.755321940000613,2,1.3867711760003658,2,3.4558468279992667,1,1.2870995479997873,,,045,001,2019_May_17_1617,MusicAffectPsychophysiology2019,3.0.5,60.121006873059926,
To what extent did the music make you feel ,ANXIOUS ,30MonoWAV/30MonoS2.wav,1,1,3,10,,,,,0,1,1,9,0,1,1,1,,,,,,,,,1,1.0057339569993928,,,045,001,2019_May_17_1617,MusicAffectPsychophysiology2019,3.0.5,60.121006873059926,
To what extent did the music make you feel ,SCARED,30MonoWAV/30MonoS2.wav,1,1,3,10,,,,,0,1,1,9,0,2,2,11,,,,,,,,,1,1.1678279190000467,,,045,001,2019_May_17_1617,MusicAffectPsychophysiology2019,3.0.5,60.121006873059926,
To what extent did the music make you feel ,EXCITED,30MonoWAV/30MonoS2.wav,1,1,3,10,,,,,0,1,1,9,0,3,3,7,,,,,,,,,1,1.8674961470005655,,,045,001,2019_May_17_1617,MusicAffectPsychophysiology2019,3.0.5,60.121006873059926,
To what extent did the music make you feel ,TENDER,30MonoWAV/30MonoS2.wav,1,1,3,10,,,,,0,1,1,9,0,4,4,10,,,,,,,,,1,0.985752515999593,,,045,001,2019_May_17_1617,MusicAffectPsychophysiology2019,3.0.5,60.121006873059926,
To what extent did the music make you feel ,ACTIVE,30MonoWAV/30MonoS2.wav,1,1,3,10,,,,,0,1,1,9,0,5,5,9,,,,,,,,,1,1.101000810000187,,,045,001,2019_May_17_1617,MusicAffectPsychophysiology2019,3.0.5,60.121006873059926,
To what extent did the music make you feel ,FRUSTRATED,30MonoWAV/30MonoS2.wav,1,1,3,10,,,,,0,1,1,9,0,6,6,3,,,,,,,,,1,1.089054543000202,,,045,001,2019_May_17_1617,MusicAffectPsychophysiology2019,3.0.5,60.121006873059926,
To what extent did the music make you feel ,ASHAMED,30MonoWAV/30MonoS2.wav,1,1,3,10,,,,,0,1,1,9,0,7,7,4,,,,,,,,,1,2.788042857000619,,,045,001,2019_May_17_1617,MusicAffectPsychophysiology2019,3.0.5,60.121006873059926,
To what extent did the music make you feel ,ANGRY,30MonoWAV/30MonoS2.wav,1,1,3,10,,,,,0,1,1,9,0,8,8,2,,,,,,,,,1,1.3026321289999032,,,045,001,2019_May_17_1617,MusicAffectPsychophysiology2019,3.0.5,60.121006873059926,
To what extent did the music make you feel ,ALERT,30MonoWAV/30MonoS2.wav,1,1,3,10,,,,,0,1,1,9,0,9,9,8,,,,,,,,,1,0.9517329380005322,,,045,001,2019_May_17_1617,MusicAffectPsychophysiology2019,3.0.5,60.121006873059926,
To what extent did the music make you feel ,HAPPY,30MonoWAV/30MonoS2.wav,1,1,3,10,,,,,0,1,1,9,0,10,10,6,,,,,,,,,1,0.7359655099999145,,,045,001,2019_May_17_1617,MusicAffectPsychophysiology2019,3.0.5,60.121006873059926,
To what extent did the music make you feel ,SAD,30MonoWAV/30MonoS2.wav,1,1,3,10,,,,,0,1,1,9,0,11,11,0,,,,,,,,,4,5.072755363000397,,,045,001,2019_May_17_1617,MusicAffectPsychophysiology2019,3.0.5,60.121006873059926,
,,30MonoWAV/30MonoS2.wav,1,1,3,10,,,,,0,1,1,9,,,,,,,,,,,,,,,,,045,001,2019_May_17_1617,MusicAffectPsychophysiology2019,3.0.5,60.121006873059926,
To what extent did the music make you feel ,ACTIVE,30MonoWAV/30MonoF3.wav,1,2,2,3,,,,,0,2,2,2,0,0,0,9,,,4,3.533652643000096,1,2.0014775839999857,3,2.3823903849997805,3,3.7688683219994346,,,045,001,2019_May_17_1617,MusicAffectPsychophysiology2019,3.0.5,60.121006873059926,
To what extent did the music make you feel ,ALERT,30MonoWAV/30MonoF3.wav,1,2,2,3,,,,,0,2,2,2,0,1,1,8,,,,,,,,,5,1.9840670540006613,,,045,001,2019_May_17_1617,MusicAffectPsychophysiology2019,3.0.5,60.121006873059926,
To what extent did the music make you feel ,EXCITED,30MonoWAV/30MonoF3.wav,1,2,2,3,,,,,0,2,2,2,0,2,2,7,,,,,,,,,2,1.868621333000192,,,045,001,2019_May_17_1617,MusicAffectPsychophysiology2019,3.0.5,60.121006873059926,
To what extent did the music make you feel ,ANGRY,30MonoWAV/30MonoF3.wav,1,2,2,3,,,,,0,2,2,2,0,3,3,2,,,,,,,,,1,1.7169245400000364,,,045,001,2019_May_17_1617,MusicAffectPsychophysiology2019,3.0.5,60.121006873059926,
To what extent did the music make you feel ,ASHAMED,30MonoWAV/30MonoF3.wav,1,2,2,3,,,,,0,2,2,2,0,4,4,4,,,,,,,,,1,3.1522025069998563,,,045,001,2019_May_17_1617,MusicAffectPsychophysiology2019,3.0.5,60.121006873059926,
To what extent did the music make you feel ,ANXIOUS ,30MonoWAV/30MonoF3.wav,1,2,2,3,,,,,0,2,2,2,0,5,5,1,,,,,,,,,4,2.867471303000457,,,045,001,2019_May_17_1617,MusicAffectPsychophysiology2019,3.0.5,60.121006873059926,
To what extent did the music make you feel ,FRUSTRATED,30MonoWAV/30MonoF3.wav,1,2,2,3,,,,,0,2,2,2,0,6,6,3,,,,,,,,,1,2.7020030690000567,,,045,001,2019_May_17_1617,MusicAffectPsychophysiology2019,3.0.5,60.121006873059926,
To what extent did the music make you feel ,SCARED,30MonoWAV/30MonoF3.wav,1,2,2,3,,,,,0,2,2,2,0,7,7,11,,,,,,,,,3,6.667547555000056,,,045,001,2019_May_17_1617,MusicAffectPsychophysiology2019,3.0.5,60.121006873059926,
To what extent did the music make you feel ,TENDER,30MonoWAV/30MonoF3.wav,1,2,2,3,,,,,0,2,2,2,0,8,8,10,,,,,,,,,1,1.5505326630000127,,,045,001,2019_May_17_1617,MusicAffectPsychophysiology2019,3.0.5,60.121006873059926,
To what extent did the music make you feel ,HAPPY,30MonoWAV/30MonoF3.wav,1,2,2,3,,,,,0,2,2,2,0,9,9,6,,,,,,,,,1,6.951215168999624,,,045,001,2019_May_17_1617,MusicAffectPsychophysiology2019,3.0.5,60.121006873059926,
To what extent did the music make you feel ,SAD,30MonoWAV/30MonoF3.wav,1,2,2,3,,,,,0,2,2,2,0,10,10,0,,,,,,,,,1,2.4005485120005687,,,045,001,2019_May_17_1617,MusicAffectPsychophysiology2019,3.0.5,60.121006873059926,
To what extent did the music make you feel ,GUILTY,30MonoWAV/30MonoF3.wav,1,2,2,3,,,,,0,2,2,2,0,11,11,5,,,,,,,,,1,0.9523655470002268,,,045,001,2019_May_17_1617,MusicAffectPsychophysiology2019,3.0.5,60.121006873059926,
,,30MonoWAV/30MonoF3.wav,1,2,2,3,,,,,0,2,2,2,,,,,,,,,,,,,,,,,045,001,2019_May_17_1617,MusicAffectPsychophysiology2019,3.0.5,60.121006873059926,
To what extent did the music make you feel ,GUILTY,30MonoWAV/30MonoT3.wav,2,1,4,15,,,,,0,3,3,14,0,0,0,5,,,1,6.233708246999413,3,9.3174549940004,4,2.7513736939999944,1,2.2018146529999285,,,045,001,2019_May_17_1617,MusicAffectPsychophysiology2019,3.0.5,60.121006873059926,
To what extent did the music make you feel ,ANXIOUS ,30MonoWAV/30MonoT3.wav,2,1,4,15,,,,,0,3,3,14,0,1,1,1,,,,,,,,,1,0.7343113679999078,,,045,001,2019_May_17_1617,MusicAffectPsychophysiology2019,3.0.5,60.121006873059926,
To what extent did the music make you feel ,ALERT,30MonoWAV/30MonoT3.wav,2,1,4,15,,,,,0,3,3,14,0,2,2,8,,,,,,,,,1,0.8350020099996982,,,045,001,2019_May_17_1617,MusicAffectPsychophysiology2019,3.0.5,60.121006873059926,
To what extent did the music make you feel ,EXCITED,30MonoWAV/30MonoT3.wav,2,1,4,15,,,,,0,3,3,14,0,3,3,7,,,,,,,,,1,1.0833978909995494,,,045,001,2019_May_17_1617,MusicAffectPsychophysiology2019,3.0.5,60.121006873059926,
To what extent did the music make you feel ,ANGRY,30MonoWAV/30MonoT3.wav,2,1,4,15,,,,,0,3,3,14,0,4,4,2,,,,,,,,,1,1.6854500889994597,,,045,001,2019_May_17_1617,MusicAffectPsychophysiology2019,3.0.5,60.121006873059926,
To what extent did the music make you feel ,ACTIVE,30MonoWAV/30MonoT3.wav,2,1,4,15,,,,,0,3,3,14,0,5,5,9,,,,,,,,,1,0.968402287000572,,,045,001,2019_May_17_1617,MusicAffectPsychophysiology2019,3.0.5,60.121006873059926,
To what extent did the music make you feel ,TENDER,30MonoWAV/30MonoT3.wav,2,1,4,15,,,,,0,3,3,14,0,6,6,10,,,,,,,,,5,2.2990836139997555,,,045,001,2019_May_17_1617,MusicAffectPsychophysiology2019,3.0.5,60.121006873059926,
To what extent did the music make you feel ,HAPPY,30MonoWAV/30MonoT3.wav,2,1,4,15,,,,,0,3,3,14,0,7,7,6,,,,,,,,,4,7.386280826000075,,,045,001,2019_May_17_1617,MusicAffectPsychophysiology2019,3.0.5,60.121006873059926,
To what extent did the music make you feel ,SCARED,30MonoWAV/30MonoT3.wav,2,1,4,15,,,,,0,3,3,14,0,8,8,11,,,,,,,,,1,1.369087968999338,,,045,001,2019_May_17_1617,MusicAffectPsychophysiology2019,3.0.5,60.121006873059926,
To what extent did the music make you feel ,SAD,30MonoWAV/30MonoT3.wav,2,1,4,15,,,,,0,3,3,14,0,9,9,0,,,,,,,,,3,5.967175445999601,,,045,001,2019_May_17_1617,MusicAffectPsychophysiology2019,3.0.5,60.121006873059926,
To what extent did the music make you feel ,ASHAMED,30MonoWAV/30MonoT3.wav,2,1,4,15,,,,,0,3,3,14,0,10,10,4,,,,,,,,,1,2.034967440999935,,,045,001,2019_May_17_1617,MusicAffectPsychophysiology2019,3.0.5,60.121006873059926,
To what extent did the music make you feel ,FRUSTRATED,30MonoWAV/30MonoT3.wav,2,1,4,15,,,,,0,3,3,14,0,11,11,3,,,,,,,,,1,1.101397630000065,,,045,001,2019_May_17_1617,MusicAffectPsychophysiology2019,3.0.5,60.121006873059926,
,,30MonoWAV/30MonoT3.wav,2,1,4,15,,,,,0,3,3,14,,,,,,,,,,,,,,,,,045,001,2019_May_17_1617,MusicAffectPsychophysiology2019,3.0.5,60.121006873059926,
To what extent did the music make you feel ,EXCITED,30MonoWAV/30MonoH2.wav,2,2,1,6,,,,,0,4,4,5,0,0,0,7,,,3,3.5683848409998973,2,2.585251987999982,2,2.08443494400035,2,5.875503985999785,,,045,001,2019_May_17_1617,MusicAffectPsychophysiology2019,3.0.5,60.121006873059926,
To what extent did the music make you feel ,TENDER,30MonoWAV/30MonoH2.wav,2,2,1,6,,,,,0,4,4,5,0,1,1,10,,,,,,,,,2,1.103877203000593,,,045,001,2019_May_17_1617,MusicAffectPsychophysiology2019,3.0.5,60.121006873059926,
To what extent did the music make you feel ,SAD,30MonoWAV/30MonoH2.wav,2,2,1,6,,,,,0,4,4,5,0,2,2,0,,,,,,,,,1,2.239427342000454,,,045,001,2019_May_17_1617,MusicAffectPsychophysiology2019,3.0.5,60.121006873059926,
To what extent did the music make you feel ,ANXIOUS ,30MonoWAV/30MonoH2.wav,2,2,1,6,,,,,0,4,4,5,0,3,3,1,,,,,,,,,1,1.2004554140003165,,,045,001,2019_May_17_1617,MusicAffectPsychophysiology2019,3.0.5,60.121006873059926,
To what extent did the music make you feel ,ANGRY,30MonoWAV/30MonoH2.wav,2,2,1,6,,,,,0,4,4,5,0,4,4,2,,,,,,,,,1,1.0033563000006325,,,045,001,2019_May_17_1617,MusicAffectPsychophysiology2019,3.0.5,60.121006873059926,
To what extent did the music make you feel ,SCARED,30MonoWAV/30MonoH2.wav,2,2,1,6,,,,,0,4,4,5,0,5,5,11,,,,,,,,,1,1.0847701299999244,,,045,001,2019_May_17_1617,MusicAffectPsychophysiology2019,3.0.5,60.121006873059926,
To what extent did the music make you feel ,ACTIVE,30MonoWAV/30MonoH2.wav,2,2,1,6,,,,,0,4,4,5,0,6,6,9,,,,,,,,,3,2.7347615059998134,,,045,001,2019_May_17_1617,MusicAffectPsychophysiology2019,3.0.5,60.121006873059926,
To what extent did the music make you feel ,ALERT,30MonoWAV/30MonoH2.wav,2,2,1,6,,,,,0,4,4,5,0,7,7,8,,,,,,,,,2,2.5671014769995963,,,045,001,2019_May_17_1617,MusicAffectPsychophysiology2019,3.0.5,60.121006873059926,
To what extent did the music make you feel ,GUILTY,30MonoWAV/30MonoH2.wav,2,2,1,6,,,,,0,4,4,5,0,8,8,5,,,,,,,,,1,0.8178674620003221,,,045,001,2019_May_17_1617,MusicAffectPsychophysiology2019,3.0.5,60.121006873059926,
To what extent did the music make you feel ,HAPPY,30MonoWAV/30MonoH2.wav,2,2,1,6,,,,,0,4,4,5,0,9,9,6,,,,,,,,,1,1.0015008139998827,,,045,001,2019_May_17_1617,MusicAffectPsychophysiology2019,3.0.5,60.121006873059926,
To what extent did the music make you feel ,FRUSTRATED,30MonoWAV/30MonoH2.wav,2,2,1,6,,,,,0,4,4,5,0,10,10,3,,,,,,,,,1,0.9177947660000427,,,045,001,2019_May_17_1617,MusicAffectPsychophysiology2019,3.0.5,60.121006873059926,
To what extent did the music make you feel ,ASHAMED,30MonoWAV/30MonoH2.wav,2,2,1,6,,,,,0,4,4,5,0,11,11,4,,,,,,,,,1,2.535512663999725,,,045,001,2019_May_17_1617,MusicAffectPsychophysiology2019,3.0.5,60.121006873059926,
,,30MonoWAV/30MonoH2.wav,2,2,1,6,,,,,0,4,4,5,,,,,,,,,,,,,,,,,045,001,2019_May_17_1617,MusicAffectPsychophysiology2019,3.0.5,60.121006873059926,
To what extent did the music make you feel ,GUILTY,30MonoWAV/30MonoF1.wav,1,2,2,1,,,,,0,5,5,0,0,0,0,5,,,5,2.7179876889995285,1,2.2190941479993853,2,2.2352549719998933,1,1.9189196360002825,,,045,001,2019_May_17_1617,MusicAffectPsychophysiology2019,3.0.5,60.121006873059926,
To what extent did the music make you feel ,ACTIVE,30MonoWAV/30MonoF1.wav,1,2,2,1,,,,,0,5,5,0,0,1,1,9,,,,,,,,,3,3.667706356999588,,,045,001,2019_May_17_1617,MusicAffectPsychophysiology2019,3.0.5,60.121006873059926,
To what extent did the music make you feel ,ALERT,30MonoWAV/30MonoF1.wav,1,2,2,1,,,,,0,5,5,0,0,2,2,8,,,,,,,,,5,1.852439663000041,,,045,001,2019_May_17_1617,MusicAffectPsychophysiology2019,3.0.5,60.121006873059926,
To what extent did the music make you feel ,SAD,30MonoWAV/30MonoF1.wav,1,2,2,1,,,,,0,5,5,0,0,3,3,0,,,,,,,,,1,2.7012430649992893,,,045,001,2019_May_17_1617,MusicAffectPsychophysiology2019,3.0.5,60.121006873059926,
To what extent did the music make you feel ,TENDER,30MonoWAV/30MonoF1.wav,1,2,2,1,,,,,0,5,5,0,0,4,4,10,,,,,,,,,1,0.7684496069996385,,,045,001,2019_May_17_1617,MusicAffectPsychophysiology2019,3.0.5,60.121006873059926,
To what extent did the music make you feel ,HAPPY,30MonoWAV/30MonoF1.wav,1,2,2,1,,,,,0,5,5,0,0,5,5,6,,,,,,,,,1,0.7351915849994839,,,045,001,2019_May_17_1617,MusicAffectPsychophysiology2019,3.0.5,60.121006873059926,
To what extent did the music make you feel ,SCARED,30MonoWAV/30MonoF1.wav,1,2,2,1,,,,,0,5,5,0,0,6,6,11,,,,,,,,,4,2.4851322949998575,,,045,001,2019_May_17_1617,MusicAffectPsychophysiology2019,3.0.5,60.121006873059926,
To what extent did the music make you feel ,ANXIOUS ,30MonoWAV/30MonoF1.wav,1,2,2,1,,,,,0,5,5,0,0,7,7,1,,,,,,,,,4,1.1496843499999159,,,045,001,2019_May_17_1617,MusicAffectPsychophysiology2019,3.0.5,60.121006873059926,
To what extent did the music make you feel ,EXCITED,30MonoWAV/30MonoF1.wav,1,2,2,1,,,,,0,5,5,0,0,8,8,7,,,,,,,,,1,1.3689053110001623,,,045,001,2019_May_17_1617,MusicAffectPsychophysiology2019,3.0.5,60.121006873059926,
To what extent did the music make you feel ,ASHAMED,30MonoWAV/30MonoF1.wav,1,2,2,1,,,,,0,5,5,0,0,9,9,4,,,,,,,,,1,0.834710117999748,,,045,001,2019_May_17_1617,MusicAffectPsychophysiology2019,3.0.5,60.121006873059926,
To what extent did the music make you feel ,ANGRY,30MonoWAV/30MonoF1.wav,1,2,2,1,,,,,0,5,5,0,0,10,10,2,,,,,,,,,1,1.0685972710007263,,,045,001,2019_May_17_1617,MusicAffectPsychophysiology2019,3.0.5,60.121006873059926,
To what extent did the music make you feel ,FRUSTRATED,30MonoWAV/30MonoF1.wav,1,2,2,1,,,,,0,5,5,0,0,11,11,3,,,,,,,,,1,1.3360640249993594,,,045,001,2019_May_17_1617,MusicAffectPsychophysiology2019,3.0.5,60.121006873059926,
,,30MonoWAV/30MonoF1.wav,1,2,2,1,,,,,0,5,5,0,,,,,,,,,,,,,,,,,045,001,2019_May_17_1617,MusicAffectPsychophysiology2019,3.0.5,60.121006873059926,
To what extent did the music make you feel ,FRUSTRATED,30MonoWAV/30MonoT4.wav,2,1,4,16,,,,,0,6,6,15,0,0,0,3,,,2,6.484082433999902,4,2.4179564160003792,4,1.3680110340001193,1,1.9524845340001775,,,045,001,2019_May_17_1617,MusicAffectPsychophysiology2019,3.0.5,60.121006873059926,
To what extent did the music make you feel ,HAPPY,30MonoWAV/30MonoT4.wav,2,1,4,16,,,,,0,6,6,15,0,1,1,6,,,,,,,,,4,3.3848251859999436,,,045,001,2019_May_17_1617,MusicAffectPsychophysiology2019,3.0.5,60.121006873059926,
To what extent did the music make you feel ,ASHAMED,30MonoWAV/30MonoT4.wav,2,1,4,16,,,,,0,6,6,15,0,2,2,4,,,,,,,,,1,1.0681672029995752,,,045,001,2019_May_17_1617,MusicAffectPsychophysiology2019,3.0.5,60.121006873059926,
To what extent did the music make you feel ,ALERT,30MonoWAV/30MonoT4.wav,2,1,4,16,,,,,0,6,6,15,0,3,3,8,,,,,,,,,1,7.3380685550000635,,,045,001,2019_May_17_1617,MusicAffectPsychophysiology2019,3.0.5,60.121006873059926,
To what extent did the music make you feel ,SCARED,30MonoWAV/30MonoT4.wav,2,1,4,16,,,,,0,6,6,15,0,4,4,11,,,,,,,,,1,0.8522756519996619,,,045,001,2019_May_17_1617,MusicAffectPsychophysiology2019,3.0.5,60.121006873059926,
To what extent did the music make you feel ,EXCITED,30MonoWAV/30MonoT4.wav,2,1,4,16,,,,,0,6,6,15,0,5,5,7,,,,,,,,,1,1.8201428820002548,,,045,001,2019_May_17_1617,MusicAffectPsychophysiology2019,3.0.5,60.121006873059926,
To what extent did the music make you feel ,TENDER,30MonoWAV/30MonoT4.wav,2,1,4,16,,,,,0,6,6,15,0,6,6,10,,,,,,,,,4,2.0049871880000865,,,045,001,2019_May_17_1617,MusicAffectPsychophysiology2019,3.0.5,60.121006873059926,
To what extent did the music make you feel ,ANXIOUS ,30MonoWAV/30MonoT4.wav,2,1,4,16,,,,,0,6,6,15,0,7,7,1,,,,,,,,,1,1.3699385950003489,,,045,001,2019_May_17_1617,MusicAffectPsychophysiology2019,3.0.5,60.121006873059926,
To what extent did the music make you feel ,ANGRY,30MonoWAV/30MonoT4.wav,2,1,4,16,,,,,0,6,6,15,0,8,8,2,,,,,,,,,1,0.8021604340001431,,,045,001,2019_May_17_1617,MusicAffectPsychophysiology2019,3.0.5,60.121006873059926,
To what extent did the music make you feel ,ACTIVE,30MonoWAV/30MonoT4.wav,2,1,4,16,,,,,0,6,6,15,0,9,9,9,,,,,,,,,1,1.056596520000312,,,045,001,2019_May_17_1617,MusicAffectPsychophysiology2019,3.0.5,60.121006873059926,
To what extent did the music make you feel ,SAD,30MonoWAV/30MonoT4.wav,2,1,4,16,,,,,0,6,6,15,0,10,10,0,,,,,,,,,1,0.7995491880001282,,,045,001,2019_May_17_1617,MusicAffectPsychophysiology2019,3.0.5,60.121006873059926,
To what extent did the music make you feel ,GUILTY,30MonoWAV/30MonoT4.wav,2,1,4,16,,,,,0,6,6,15,0,11,11,5,,,,,,,,,1,1.2503288899997642,,,045,001,2019_May_17_1617,MusicAffectPsychophysiology2019,3.0.5,60.121006873059926,
,,30MonoWAV/30MonoT4.wav,2,1,4,16,,,,,0,6,6,15,,,,,,,,,,,,,,,,,045,001,2019_May_17_1617,MusicAffectPsychophysiology2019,3.0.5,60.121006873059926,
To what extent did the music make you feel ,ACTIVE,30MonoWAV/30MonoS1.wav,1,1,3,9,,,,,0,7,7,8,0,0,0,9,,,2,7.7017331949991785,4,8.57532366599844,4,1.8033092679997935,1,3.008411283000896,,,045,001,2019_May_17_1617,MusicAffectPsychophysiology2019,3.0.5,60.121006873059926,
To what extent did the music make you feel ,ASHAMED,30MonoWAV/30MonoS1.wav,1,1,3,9,,,,,0,7,7,8,0,1,1,4,,,,,,,,,1,0.7350289580008393,,,045,001,2019_May_17_1617,MusicAffectPsychophysiology2019,3.0.5,60.121006873059926,
To what extent did the music make you feel ,SAD,30MonoWAV/30MonoS1.wav,1,1,3,9,,,,,0,7,7,8,0,2,2,0,,,,,,,,,3,5.118319049001002,,,045,001,2019_May_17_1617,MusicAffectPsychophysiology2019,3.0.5,60.121006873059926,
To what extent did the music make you feel ,ANGRY,30MonoWAV/30MonoS1.wav,1,1,3,9,,,,,0,7,7,8,0,3,3,2,,,,,,,,,1,3.0016568890005146,,,045,001,2019_May_17_1617,MusicAffectPsychophysiology2019,3.0.5,60.121006873059926,
To what extent did the music make you feel ,HAPPY,30MonoWAV/30MonoS1.wav,1,1,3,9,,,,,0,7,7,8,0,4,4,6,,,,,,,,,2,8.733832940999491,,,045,001,2019_May_17_1617,MusicAffectPsychophysiology2019,3.0.5,60.121006873059926,
To what extent did the music make you feel ,TENDER,30MonoWAV/30MonoS1.wav,1,1,3,9,,,,,0,7,7,8,0,5,5,10,,,,,,,,,4,2.539078863999748,,,045,001,2019_May_17_1617,MusicAffectPsychophysiology2019,3.0.5,60.121006873059926,
To what extent did the music make you feel ,GUILTY,30MonoWAV/30MonoS1.wav,1,1,3,9,,,,,0,7,7,8,0,6,6,5,,,,,,,,,1,0.9357707330000267,,,045,001,2019_May_17_1617,MusicAffectPsychophysiology2019,3.0.5,60.121006873059926,
To what extent did the music make you feel ,ALERT,30MonoWAV/30MonoS1.wav,1,1,3,9,,,,,0,7,7,8,0,7,7,8,,,,,,,,,1,1.1356126239988953,,,045,001,2019_May_17_1617,MusicAffectPsychophysiology2019,3.0.5,60.121006873059926,
To what extent did the music make you feel ,EXCITED,30MonoWAV/30MonoS1.wav,1,1,3,9,,,,,0,7,7,8,0,8,8,7,,,,,,,,,1,0.7521175029996812,,,045,001,2019_May_17_1617,MusicAffectPsychophysiology2019,3.0.5,60.121006873059926,
To what extent did the music make you feel ,FRUSTRATED,30MonoWAV/30MonoS1.wav,1,1,3,9,,,,,0,7,7,8,0,9,9,3,,,,,,,,,1,1.15324769200015,,,045,001,2019_May_17_1617,MusicAffectPsychophysiology2019,3.0.5,60.121006873059926,
To what extent did the music make you feel ,SCARED,30MonoWAV/30MonoS1.wav,1,1,3,9,,,,,0,7,7,8,0,10,10,11,,,,,,,,,1,3.209297625000545,,,045,001,2019_May_17_1617,MusicAffectPsychophysiology2019,3.0.5,60.121006873059926,
To what extent did the music make you feel ,ANXIOUS ,30MonoWAV/30MonoS1.wav,1,1,3,9,,,,,0,7,7,8,0,11,11,1,,,,,,,,,1,1.1510426780005218,,,045,001,2019_May_17_1617,MusicAffectPsychophysiology2019,3.0.5,60.121006873059926,
,,30MonoWAV/30MonoS1.wav,1,1,3,9,,,,,0,7,7,8,,,,,,,,,,,,,,,,,045,001,2019_May_17_1617,MusicAffectPsychophysiology2019,3.0.5,60.121006873059926,
To what extent did the music make you feel ,ASHAMED,30MonoWAV/30MonoS4.wav,1,1,3,12,,,,,0,8,8,11,0,0,0,4,,,1,5.135432869999931,3,6.335173475999909,3,1.8356595850000303,1,2.8851285109994933,,,045,001,2019_May_17_1617,MusicAffectPsychophysiology2019,3.0.5,60.121006873059926,
To what extent did the music make you feel ,ACTIVE,30MonoWAV/30MonoS4.wav,1,1,3,12,,,,,0,8,8,11,0,1,1,9,,,,,,,,,1,1.3355378569995082,,,045,001,2019_May_17_1617,MusicAffectPsychophysiology2019,3.0.5,60.121006873059926,
To what extent did the music make you feel ,ALERT,30MonoWAV/30MonoS4.wav,1,1,3,12,,,,,0,8,8,11,0,2,2,8,,,,,,,,,1,1.4351370519998454,,,045,001,2019_May_17_1617,MusicAffectPsychophysiology2019,3.0.5,60.121006873059926,
To what extent did the music make you feel ,ANGRY,30MonoWAV/30MonoS4.wav,1,1,3,12,,,,,0,8,8,11,0,3,3,2,,,,,,,,,1,0.5184031159988081,,,045,001,2019_May_17_1617,MusicAffectPsychophysiology2019,3.0.5,60.121006873059926,
To what extent did the music make you feel ,SAD,30MonoWAV/30MonoS4.wav,1,1,3,12,,,,,0,8,8,11,0,4,4,0,,,,,,,,,4,2.684660024999175,,,045,001,2019_May_17_1617,MusicAffectPsychophysiology2019,3.0.5,60.121006873059926,
To what extent did the music make you feel ,TENDER,30MonoWAV/30MonoS4.wav,1,1,3,12,,,,,0,8,8,11,0,5,5,10,,,,,,,,,3,3.417948633001288,,,045,001,2019_May_17_1617,MusicAffectPsychophysiology2019,3.0.5,60.121006873059926,
To what extent did the music make you feel ,HAPPY,30MonoWAV/30MonoS4.wav,1,1,3,12,,,,,0,8,8,11,0,6,6,6,,,,,,,,,1,3.517531601000883,,,045,001,2019_May_17_1617,MusicAffectPsychophysiology2019,3.0.5,60.121006873059926,
To what extent did the music make you feel ,FRUSTRATED,30MonoWAV/30MonoS4.wav,1,1,3,12,,,,,0,8,8,11,0,7,7,3,,,,,,,,,1,0.8519194040000002,,,045,001,2019_May_17_1617,MusicAffectPsychophysiology2019,3.0.5,60.121006873059926,
To what extent did the music make you feel ,SCARED,30MonoWAV/30MonoS4.wav,1,1,3,12,,,,,0,8,8,11,0,8,8,11,,,,,,,,,1,2.1515747040011775,,,045,001,2019_May_17_1617,MusicAffectPsychophysiology2019,3.0.5,60.121006873059926,
To what extent did the music make you feel ,EXCITED,30MonoWAV/30MonoS4.wav,1,1,3,12,,,,,0,8,8,11,0,9,9,7,,,,,,,,,1,0.7353818550000142,,,045,001,2019_May_17_1617,MusicAffectPsychophysiology2019,3.0.5,60.121006873059926,
To what extent did the music make you feel ,ANXIOUS ,30MonoWAV/30MonoS4.wav,1,1,3,12,,,,,0,8,8,11,0,10,10,1,,,,,,,,,1,0.7172017540015077,,,045,001,2019_May_17_1617,MusicAffectPsychophysiology2019,3.0.5,60.121006873059926,
To what extent did the music make you feel ,GUILTY,30MonoWAV/30MonoS4.wav,1,1,3,12,,,,,0,8,8,11,0,11,11,5,,,,,,,,,1,0.8184176550003031,,,045,001,2019_May_17_1617,MusicAffectPsychophysiology2019,3.0.5,60.121006873059926,
,,30MonoWAV/30MonoS4.wav,1,1,3,12,,,,,0,8,8,11,,,,,,,,,,,,,,,,,045,001,2019_May_17_1617,MusicAffectPsychophysiology2019,3.0.5,60.121006873059926,
To what extent did the music make you feel ,ACTIVE,30MonoWAV/30MonoT2.wav,2,1,4,14,,,,,0,9,9,13,0,0,0,9,,,3,5.465797638000367,4,1.9346070999999938,4,1.0017011309992085,1,1.5687885159986763,,,045,001,2019_May_17_1617,MusicAffectPsychophysiology2019,3.0.5,60.121006873059926,
To what extent did the music make you feel ,ANGRY,30MonoWAV/30MonoT2.wav,2,1,4,14,,,,,0,9,9,13,0,1,1,2,,,,,,,,,1,1.0850780250002572,,,045,001,2019_May_17_1617,MusicAffectPsychophysiology2019,3.0.5,60.121006873059926,
To what extent did the music make you feel ,GUILTY,30MonoWAV/30MonoT2.wav,2,1,4,14,,,,,0,9,9,13,0,2,2,5,,,,,,,,,1,1.9848597049985983,,,045,001,2019_May_17_1617,MusicAffectPsychophysiology2019,3.0.5,60.121006873059926,
To what extent did the music make you feel ,HAPPY,30MonoWAV/30MonoT2.wav,2,1,4,14,,,,,0,9,9,13,0,3,3,6,,,,,,,,,4,5.468984195998928,,,045,001,2019_May_17_1617,MusicAffectPsychophysiology2019,3.0.5,60.121006873059926,
To what extent did the music make you feel ,FRUSTRATED,30MonoWAV/30MonoT2.wav,2,1,4,14,,,,,0,9,9,13,0,4,4,3,,,,,,,,,1,1.2682625830002507,,,045,001,2019_May_17_1617,MusicAffectPsychophysiology2019,3.0.5,60.121006873059926,
To what extent did the music make you feel ,ANXIOUS ,30MonoWAV/30MonoT2.wav,2,1,4,14,,,,,0,9,9,13,0,5,5,1,,,,,,,,,1,0.9173120750001544,,,045,001,2019_May_17_1617,MusicAffectPsychophysiology2019,3.0.5,60.121006873059926,
To what extent did the music make you feel ,ALERT,30MonoWAV/30MonoT2.wav,2,1,4,14,,,,,0,9,9,13,0,6,6,8,,,,,,,,,2,3.5179031169991504,,,045,001,2019_May_17_1617,MusicAffectPsychophysiology2019,3.0.5,60.121006873059926,
To what extent did the music make you feel ,SAD,30MonoWAV/30MonoT2.wav,2,1,4,14,,,,,0,9,9,13,0,7,7,0,,,,,,,,,1,0.6185349609986588,,,045,001,2019_May_17_1617,MusicAffectPsychophysiology2019,3.0.5,60.121006873059926,
To what extent did the music make you feel ,SCARED,30MonoWAV/30MonoT2.wav,2,1,4,14,,,,,0,9,9,13,0,8,8,11,,,,,,,,,1,5.1509896959996695,,,045,001,2019_May_17_1617,MusicAffectPsychophysiology2019,3.0.5,60.121006873059926,
To what extent did the music make you feel ,TENDER,30MonoWAV/30MonoT2.wav,2,1,4,14,,,,,0,9,9,13,0,9,9,10,,,,,,,,,5,2.2513616870000988,,,045,001,2019_May_17_1617,MusicAffectPsychophysiology2019,3.0.5,60.121006873059926,
To what extent did the music make you feel ,ASHAMED,30MonoWAV/30MonoT2.wav,2,1,4,14,,,,,0,9,9,13,0,10,10,4,,,,,,,,,1,0.8677133199998934,,,045,001,2019_May_17_1617,MusicAffectPsychophysiology2019,3.0.5,60.121006873059926,
To what extent did the music make you feel ,EXCITED,30MonoWAV/30MonoT2.wav,2,1,4,14,,,,,0,9,9,13,0,11,11,7,,,,,,,,,1,1.018026636000286,,,045,001,2019_May_17_1617,MusicAffectPsychophysiology2019,3.0.5,60.121006873059926,
,,30MonoWAV/30MonoT2.wav,2,1,4,14,,,,,0,9,9,13,,,,,,,,,,,,,,,,,045,001,2019_May_17_1617,MusicAffectPsychophysiology2019,3.0.5,60.121006873059926,
To what extent did the music make you feel ,TENDER,30MonoWAV/30MonoT1.wav,2,1,4,13,,,,,0,10,10,12,0,0,0,10,,,1,2.8514183619990945,4,3.58481668100103,4,8.48215060199982,5,4.38554623500022,,,045,001,2019_May_17_1617,MusicAffectPsychophysiology2019,3.0.5,60.121006873059926,
To what extent did the music make you feel ,ANXIOUS ,30MonoWAV/30MonoT1.wav,2,1,4,13,,,,,0,10,10,12,0,1,1,1,,,,,,,,,1,1.2012099040002795,,,045,001,2019_May_17_1617,MusicAffectPsychophysiology2019,3.0.5,60.121006873059926,
To what extent did the music make you feel ,ALERT,30MonoWAV/30MonoT1.wav,2,1,4,13,,,,,0,10,10,12,0,2,2,8,,,,,,,,,1,0.9350418619997072,,,045,001,2019_May_17_1617,MusicAffectPsychophysiology2019,3.0.5,60.121006873059926,
To what extent did the music make you feel ,EXCITED,30MonoWAV/30MonoT1.wav,2,1,4,13,,,,,0,10,10,12,0,3,3,7,,,,,,,,,1,1.001768121999703,,,045,001,2019_May_17_1617,MusicAffectPsychophysiology2019,3.0.5,60.121006873059926,
To what extent did the music make you feel ,FRUSTRATED,30MonoWAV/30MonoT1.wav,2,1,4,13,,,,,0,10,10,12,0,4,4,3,,,,,,,,,1,1.184829935999005,,,045,001,2019_May_17_1617,MusicAffectPsychophysiology2019,3.0.5,60.121006873059926,
To what extent did the music make you feel ,ACTIVE,30MonoWAV/30MonoT1.wav,2,1,4,13,,,,,0,10,10,12,0,5,5,9,,,,,,,,,1,1.034826274999432,,,045,001,2019_May_17_1617,MusicAffectPsychophysiology2019,3.0.5,60.121006873059926,
To what extent did the music make you feel ,ANGRY,30MonoWAV/30MonoT1.wav,2,1,4,13,,,,,0,10,10,12,0,6,6,2,,,,,,,,,1,0.8185636670004897,,,045,001,2019_May_17_1617,MusicAffectPsychophysiology2019,3.0.5,60.121006873059926,
To what extent did the music make you feel ,SAD,30MonoWAV/30MonoT1.wav,2,1,4,13,,,,,0,10,10,12,0,7,7,0,,,,,,,,,3,16.28370879999966,,,045,001,2019_May_17_1617,MusicAffectPsychophysiology2019,3.0.5,60.121006873059926,
To what extent did the music make you feel ,GUILTY,30MonoWAV/30MonoT1.wav,2,1,4,13,,,,,0,10,10,12,0,8,8,5,,,,,,,,,1,1.4349604220005858,,,045,001,2019_May_17_1617,MusicAffectPsychophysiology2019,3.0.5,60.121006873059926,
To what extent did the music make you feel ,SCARED,30MonoWAV/30MonoT1.wav,2,1,4,13,,,,,0,10,10,12,0,9,9,11,,,,,,,,,1,0.6862084650001634,,,045,001,2019_May_17_1617,MusicAffectPsychophysiology2019,3.0.5,60.121006873059926,
To what extent did the music make you feel ,HAPPY,30MonoWAV/30MonoT1.wav,2,1,4,13,,,,,0,10,10,12,0,10,10,6,,,,,,,,,2,3.9509284110008593,,,045,001,2019_May_17_1617,MusicAffectPsychophysiology2019,3.0.5,60.121006873059926,
To what extent did the music make you feel ,ASHAMED,30MonoWAV/30MonoT1.wav,2,1,4,13,,,,,0,10,10,12,0,11,11,4,,,,,,,,,1,6.0844379589998425,,,045,001,2019_May_17_1617,MusicAffectPsychophysiology2019,3.0.5,60.121006873059926,
,,30MonoWAV/30MonoT1.wav,2,1,4,13,,,,,0,10,10,12,,,,,,,,,,,,,,,,,045,001,2019_May_17_1617,MusicAffectPsychophysiology2019,3.0.5,60.121006873059926,
To what extent did the music make you feel ,GUILTY,30MonoWAV/30MonoH3.wav,2,2,1,7,,,,,0,11,11,6,0,0,0,5,,,5,2.4185332609995385,5,3.175845436999225,5,1.1697782809987984,1,1.7192021480004769,,,045,001,2019_May_17_1617,MusicAffectPsychophysiology2019,3.0.5,60.121006873059926,
To what extent did the music make you feel ,SAD,30MonoWAV/30MonoH3.wav,2,2,1,7,,,,,0,11,11,6,0,1,1,0,,,,,,,,,1,2.357454262999454,,,045,001,2019_May_17_1617,MusicAffectPsychophysiology2019,3.0.5,60.121006873059926,
To what extent did the music make you feel ,ANGRY,30MonoWAV/30MonoH3.wav,2,2,1,7,,,,,0,11,11,6,0,2,2,2,,,,,,,,,1,0.8180071650003811,,,045,001,2019_May_17_1617,MusicAffectPsychophysiology2019,3.0.5,60.121006873059926,
To what extent did the music make you feel ,HAPPY,30MonoWAV/30MonoH3.wav,2,2,1,7,,,,,0,11,11,6,0,3,3,6,,,,,,,,,4,1.9846268749988667,,,045,001,2019_May_17_1617,MusicAffectPsychophysiology2019,3.0.5,60.121006873059926,
To what extent did the music make you feel ,ANXIOUS ,30MonoWAV/30MonoH3.wav,2,2,1,7,,,,,0,11,11,6,0,4,4,1,,,,,,,,,1,0.8519722220007679,,,045,001,2019_May_17_1617,MusicAffectPsychophysiology2019,3.0.5,60.121006873059926,
To what extent did the music make you feel ,TENDER,30MonoWAV/30MonoH3.wav,2,2,1,7,,,,,0,11,11,6,0,5,5,10,,,,,,,,,2,2.488208410999505,,,045,001,2019_May_17_1617,MusicAffectPsychophysiology2019,3.0.5,60.121006873059926,
To what extent did the music make you feel ,SCARED,30MonoWAV/30MonoH3.wav,2,2,1,7,,,,,0,11,11,6,0,6,6,11,,,,,,,,,1,0.601516761998937,,,045,001,2019_May_17_1617,MusicAffectPsychophysiology2019,3.0.5,60.121006873059926,
To what extent did the music make you feel ,ACTIVE,30MonoWAV/30MonoH3.wav,2,2,1,7,,,,,0,11,11,6,0,7,7,9,,,,,,,,,4,1.87074100099926,,,045,001,2019_May_17_1617,MusicAffectPsychophysiology2019,3.0.5,60.121006873059926,
To what extent did the music make you feel ,ASHAMED,30MonoWAV/30MonoH3.wav,2,2,1,7,,,,,0,11,11,6,0,8,8,4,,,,,,,,,1,0.8023526960005256,,,045,001,2019_May_17_1617,MusicAffectPsychophysiology2019,3.0.5,60.121006873059926,
To what extent did the music make you feel ,FRUSTRATED,30MonoWAV/30MonoH3.wav,2,2,1,7,,,,,0,11,11,6,0,9,9,3,,,,,,,,,1,0.6859355109991156,,,045,001,2019_May_17_1617,MusicAffectPsychophysiology2019,3.0.5,60.121006873059926,
To what extent did the music make you feel ,EXCITED,30MonoWAV/30MonoH3.wav,2,2,1,7,,,,,0,11,11,6,0,10,10,7,,,,,,,,,4,2.9910640439993585,,,045,001,2019_May_17_1617,MusicAffectPsychophysiology2019,3.0.5,60.121006873059926,
To what extent did the music make you feel ,ALERT,30MonoWAV/30MonoH3.wav,2,2,1,7,,,,,0,11,11,6,0,11,11,8,,,,,,,,,4,2.7847661809992132,,,045,001,2019_May_17_1617,MusicAffectPsychophysiology2019,3.0.5,60.121006873059926,
,,30MonoWAV/30MonoH3.wav,2,2,1,7,,,,,0,11,11,6,,,,,,,,,,,,,,,,,045,001,2019_May_17_1617,MusicAffectPsychophysiology2019,3.0.5,60.121006873059926,
To what extent did the music make you feel ,EXCITED,30MonoWAV/30MonoF2.wav,1,2,2,2,,,,,0,12,12,1,0,0,0,7,,,5,6.9124251090015605,1,1.6837755699998525,1,1.5866867459990317,1,0.9845917279999412,,,045,001,2019_May_17_1617,MusicAffectPsychophysiology2019,3.0.5,60.121006873059926,
To what extent did the music make you feel ,SAD,30MonoWAV/30MonoF2.wav,1,2,2,2,,,,,0,12,12,1,0,1,1,0,,,,,,,,,1,0.8025234470005671,,,045,001,2019_May_17_1617,MusicAffectPsychophysiology2019,3.0.5,60.121006873059926,
To what extent did the music make you feel ,ANXIOUS ,30MonoWAV/30MonoF2.wav,1,2,2,2,,,,,0,12,12,1,0,2,2,1,,,,,,,,,5,1.6017884899993078,,,045,001,2019_May_17_1617,MusicAffectPsychophysiology2019,3.0.5,60.121006873059926,
To what extent did the music make you feel ,GUILTY,30MonoWAV/30MonoF2.wav,1,2,2,2,,,,,0,12,12,1,0,3,3,5,,,,,,,,,1,3.7011338060001435,,,045,001,2019_May_17_1617,MusicAffectPsychophysiology2019,3.0.5,60.121006873059926,
To what extent did the music make you feel ,ASHAMED,30MonoWAV/30MonoF2.wav,1,2,2,2,,,,,0,12,12,1,0,4,4,4,,,,,,,,,1,1.1850776020000922,,,045,001,2019_May_17_1617,MusicAffectPsychophysiology2019,3.0.5,60.121006873059926,
To what extent did the music make you feel ,FRUSTRATED,30MonoWAV/30MonoF2.wav,1,2,2,2,,,,,0,12,12,1,0,5,5,3,,,,,,,,,1,0.9177739129991096,,,045,001,2019_May_17_1617,MusicAffectPsychophysiology2019,3.0.5,60.121006873059926,
To what extent did the music make you feel ,TENDER,30MonoWAV/30MonoF2.wav,1,2,2,2,,,,,0,12,12,1,0,6,6,10,,,,,,,,,1,1.0355202449991339,,,045,001,2019_May_17_1617,MusicAffectPsychophysiology2019,3.0.5,60.121006873059926,
To what extent did the music make you feel ,SCARED,30MonoWAV/30MonoF2.wav,1,2,2,2,,,,,0,12,12,1,0,7,7,11,,,,,,,,,5,1.6846199589999742,,,045,001,2019_May_17_1617,MusicAffectPsychophysiology2019,3.0.5,60.121006873059926,
To what extent did the music make you feel ,ANGRY,30MonoWAV/30MonoF2.wav,1,2,2,2,,,,,0,12,12,1,0,8,8,2,,,,,,,,,1,2.436586919000547,,,045,001,2019_May_17_1617,MusicAffectPsychophysiology2019,3.0.5,60.121006873059926,
To what extent did the music make you feel ,ACTIVE,30MonoWAV/30MonoF2.wav,1,2,2,2,,,,,0,12,12,1,0,9,9,9,,,,,,,,,1,9.58398052099983,,,045,001,2019_May_17_1617,MusicAffectPsychophysiology2019,3.0.5,60.121006873059926,
To what extent did the music make you feel ,ALERT,30MonoWAV/30MonoF2.wav,1,2,2,2,,,,,0,12,12,1,0,10,10,8,,,,,,,,,5,1.7683992149995902,,,045,001,2019_May_17_1617,MusicAffectPsychophysiology2019,3.0.5,60.121006873059926,
To what extent did the music make you feel ,HAPPY,30MonoWAV/30MonoF2.wav,1,2,2,2,,,,,0,12,12,1,0,11,11,6,,,,,,,,,1,1.5357831959991017,,,045,001,2019_May_17_1617,MusicAffectPsychophysiology2019,3.0.5,60.121006873059926,
,,30MonoWAV/30MonoF2.wav,1,2,2,2,,,,,0,12,12,1,,,,,,,,,,,,,,,,,045,001,2019_May_17_1617,MusicAffectPsychophysiology2019,3.0.5,60.121006873059926,
To what extent did the music make you feel ,EXCITED,30MonoWAV/30MonoH4.wav,2,2,1,8,,,,,0,13,13,7,0,0,0,7,,,5,4.084032714999921,5,0.9010203519992501,4,1.7183341210002254,5,2.317362047999268,,,045,001,2019_May_17_1617,MusicAffectPsychophysiology2019,3.0.5,60.121006873059926,
To what extent did the music make you feel ,ASHAMED,30MonoWAV/30MonoH4.wav,2,2,1,8,,,,,0,13,13,7,0,1,1,4,,,,,,,,,1,2.0184467529998074,,,045,001,2019_May_17_1617,MusicAffectPsychophysiology2019,3.0.5,60.121006873059926,
To what extent did the music make you feel ,GUILTY,30MonoWAV/30MonoH4.wav,2,2,1,8,,,,,0,13,13,7,0,2,2,5,,,,,,,,,1,0.668615360998956,,,045,001,2019_May_17_1617,MusicAffectPsychophysiology2019,3.0.5,60.121006873059926,
To what extent did the music make you feel ,ACTIVE,30MonoWAV/30MonoH4.wav,2,2,1,8,,,,,0,13,13,7,0,3,3,9,,,,,,,,,5,1.967349929998818,,,045,001,2019_May_17_1617,MusicAffectPsychophysiology2019,3.0.5,60.121006873059926,
To what extent did the music make you feel ,ANXIOUS ,30MonoWAV/30MonoH4.wav,2,2,1,8,,,,,0,13,13,7,0,4,4,1,,,,,,,,,1,0.9520965940009773,,,045,001,2019_May_17_1617,MusicAffectPsychophysiology2019,3.0.5,60.121006873059926,
To what extent did the music make you feel ,TENDER,30MonoWAV/30MonoH4.wav,2,2,1,8,,,,,0,13,13,7,0,5,5,10,,,,,,,,,1,1.3357931330010615,,,045,001,2019_May_17_1617,MusicAffectPsychophysiology2019,3.0.5,60.121006873059926,
To what extent did the music make you feel ,SCARED,30MonoWAV/30MonoH4.wav,2,2,1,8,,,,,0,13,13,7,0,6,6,11,,,,,,,,,1,0.8674383159996069,,,045,001,2019_May_17_1617,MusicAffectPsychophysiology2019,3.0.5,60.121006873059926,
To what extent did the music make you feel ,SAD,30MonoWAV/30MonoH4.wav,2,2,1,8,,,,,0,13,13,7,0,7,7,0,,,,,,,,,1,1.2672927229996276,,,045,001,2019_May_17_1617,MusicAffectPsychophysiology2019,3.0.5,60.121006873059926,
To what extent did the music make you feel ,ANGRY,30MonoWAV/30MonoH4.wav,2,2,1,8,,,,,0,13,13,7,0,8,8,2,,,,,,,,,1,0.7851446290005697,,,045,001,2019_May_17_1617,MusicAffectPsychophysiology2019,3.0.5,60.121006873059926,
To what extent did the music make you feel ,FRUSTRATED,30MonoWAV/30MonoH4.wav,2,2,1,8,,,,,0,13,13,7,0,9,9,3,,,,,,,,,1,0.7849389749990223,,,045,001,2019_May_17_1617,MusicAffectPsychophysiology2019,3.0.5,60.121006873059926,
To what extent did the music make you feel ,ALERT,30MonoWAV/30MonoH4.wav,2,2,1,8,,,,,0,13,13,7,0,10,10,8,,,,,,,,,3,3.451428926000517,,,045,001,2019_May_17_1617,MusicAffectPsychophysiology2019,3.0.5,60.121006873059926,
To what extent did the music make you feel ,HAPPY,30MonoWAV/30MonoH4.wav,2,2,1,8,,,,,0,13,13,7,0,11,11,6,,,,,,,,,5,1.4006077880003431,,,045,001,2019_May_17_1617,MusicAffectPsychophysiology2019,3.0.5,60.121006873059926,
,,30MonoWAV/30MonoH4.wav,2,2,1,8,,,,,0,13,13,7,,,,,,,,,,,,,,,,,045,001,2019_May_17_1617,MusicAffectPsychophysiology2019,3.0.5,60.121006873059926,
To what extent did the music make you feel ,ANXIOUS ,30MonoWAV/30MonoS3.wav,1,1,3,11,,,,,0,14,14,10,0,0,0,1,,,3,7.026631642000211,1,2.9176148340011423,2,1.9900165510007355,2,2.1379842200003623,,,045,001,2019_May_17_1617,MusicAffectPsychophysiology2019,3.0.5,60.121006873059926,
To what extent did the music make you feel ,ACTIVE,30MonoWAV/30MonoS3.wav,1,1,3,11,,,,,0,14,14,10,0,1,1,9,,,,,,,,,1,1.3701311570002872,,,045,001,2019_May_17_1617,MusicAffectPsychophysiology2019,3.0.5,60.121006873059926,
To what extent did the music make you feel ,SCARED,30MonoWAV/30MonoS3.wav,1,1,3,11,,,,,0,14,14,10,0,2,2,11,,,,,,,,,2,2.204221542000596,,,045,001,2019_May_17_1617,MusicAffectPsychophysiology2019,3.0.5,60.121006873059926,
To what extent did the music make you feel ,HAPPY,30MonoWAV/30MonoS3.wav,1,1,3,11,,,,,0,14,14,10,0,3,3,6,,,,,,,,,1,1.5225361490010982,,,045,001,2019_May_17_1617,MusicAffectPsychophysiology2019,3.0.5,60.121006873059926,
To what extent did the music make you feel ,ALERT,30MonoWAV/30MonoS3.wav,1,1,3,11,,,,,0,14,14,10,0,4,4,8,,,,,,,,,2,1.3685350060004566,,,045,001,2019_May_17_1617,MusicAffectPsychophysiology2019,3.0.5,60.121006873059926,
To what extent did the music make you feel ,TENDER,30MonoWAV/30MonoS3.wav,1,1,3,11,,,,,0,14,14,10,0,5,5,10,,,,,,,,,1,1.0365873629998532,,,045,001,2019_May_17_1617,MusicAffectPsychophysiology2019,3.0.5,60.121006873059926,
To what extent did the music make you feel ,ANGRY,30MonoWAV/30MonoS3.wav,1,1,3,11,,,,,0,14,14,10,0,6,6,2,,,,,,,,,2,4.523666929999308,,,045,001,2019_May_17_1617,MusicAffectPsychophysiology2019,3.0.5,60.121006873059926,
To what extent did the music make you feel ,SAD,30MonoWAV/30MonoS3.wav,1,1,3,11,,,,,0,14,14,10,0,7,7,0,,,,,,,,,4,2.570443738999529,,,045,001,2019_May_17_1617,MusicAffectPsychophysiology2019,3.0.5,60.121006873059926,
To what extent did the music make you feel ,GUILTY,30MonoWAV/30MonoS3.wav,1,1,3,11,,,,,0,14,14,10,0,8,8,5,,,,,,,,,3,3.2068892820007022,,,045,001,2019_May_17_1617,MusicAffectPsychophysiology2019,3.0.5,60.121006873059926,
To what extent did the music make you feel ,ASHAMED,30MonoWAV/30MonoS3.wav,1,1,3,11,,,,,0,14,14,10,0,9,9,4,,,,,,,,,1,2.0838856669997767,,,045,001,2019_May_17_1617,MusicAffectPsychophysiology2019,3.0.5,60.121006873059926,
To what extent did the music make you feel ,EXCITED,30MonoWAV/30MonoS3.wav,1,1,3,11,,,,,0,14,14,10,0,10,10,7,,,,,,,,,1,8.45145876099923,,,045,001,2019_May_17_1617,MusicAffectPsychophysiology2019,3.0.5,60.121006873059926,
To what extent did the music make you feel ,FRUSTRATED,30MonoWAV/30MonoS3.wav,1,1,3,11,,,,,0,14,14,10,0,11,11,3,,,,,,,,,1,0.985764217999531,,,045,001,2019_May_17_1617,MusicAffectPsychophysiology2019,3.0.5,60.121006873059926,
,,30MonoWAV/30MonoS3.wav,1,1,3,11,,,,,0,14,14,10,,,,,,,,,,,,,,,,,045,001,2019_May_17_1617,MusicAffectPsychophysiology2019,3.0.5,60.121006873059926,
To what extent did the music make you feel ,EXCITED,30MonoWAV/30MonoH1.wav,2,2,1,5,,,,,0,15,15,4,0,0,0,7,,,4,10.867316633999508,4,1.1341800250011147,4,0.7020491669991316,3,2.484751056999812,,,045,001,2019_May_17_1617,MusicAffectPsychophysiology2019,3.0.5,60.121006873059926,
To what extent did the music make you feel ,ANXIOUS ,30MonoWAV/30MonoH1.wav,2,2,1,5,,,,,0,15,15,4,0,1,1,1,,,,,,,,,1,1.0009237519989256,,,045,001,2019_May_17_1617,MusicAffectPsychophysiology2019,3.0.5,60.121006873059926,
To what extent did the music make you feel ,FRUSTRATED,30MonoWAV/30MonoH1.wav,2,2,1,5,,,,,0,15,15,4,0,2,2,3,,,,,,,,,1,1.0346500129999185,,,045,001,2019_May_17_1617,MusicAffectPsychophysiology2019,3.0.5,60.121006873059926,
To what extent did the music make you feel ,ASHAMED,30MonoWAV/30MonoH1.wav,2,2,1,5,,,,,0,15,15,4,0,3,3,4,,,,,,,,,1,0.702151182000307,,,045,001,2019_May_17_1617,MusicAffectPsychophysiology2019,3.0.5,60.121006873059926,
To what extent did the music make you feel ,SCARED,30MonoWAV/30MonoH1.wav,2,2,1,5,,,,,0,15,15,4,0,4,4,11,,,,,,,,,1,0.7186603160007508,,,045,001,2019_May_17_1617,MusicAffectPsychophysiology2019,3.0.5,60.121006873059926,
To what extent did the music make you feel ,ACTIVE,30MonoWAV/30MonoH1.wav,2,2,1,5,,,,,0,15,15,4,0,5,5,9,,,,,,,,,3,2.1517946389994904,,,045,001,2019_May_17_1617,MusicAffectPsychophysiology2019,3.0.5,60.121006873059926,
To what extent did the music make you feel ,HAPPY,30MonoWAV/30MonoH1.wav,2,2,1,5,,,,,0,15,15,4,0,6,6,6,,,,,,,,,4,1.3019753249991481,,,045,001,2019_May_17_1617,MusicAffectPsychophysiology2019,3.0.5,60.121006873059926,
To what extent did the music make you feel ,SAD,30MonoWAV/30MonoH1.wav,2,2,1,5,,,,,0,15,15,4,0,7,7,0,,,,,,,,,1,0.8516951520014118,,,045,001,2019_May_17_1617,MusicAffectPsychophysiology2019,3.0.5,60.121006873059926,
To what extent did the music make you feel ,GUILTY,30MonoWAV/30MonoH1.wav,2,2,1,5,,,,,0,15,15,4,0,8,8,5,,,,,,,,,1,0.6862332569999126,,,045,001,2019_May_17_1617,MusicAffectPsychophysiology2019,3.0.5,60.121006873059926,
To what extent did the music make you feel ,ANGRY,30MonoWAV/30MonoH1.wav,2,2,1,5,,,,,0,15,15,4,0,9,9,2,,,,,,,,,1,0.5357876139987638,,,045,001,2019_May_17_1617,MusicAffectPsychophysiology2019,3.0.5,60.121006873059926,
To what extent did the music make you feel ,TENDER,30MonoWAV/30MonoH1.wav,2,2,1,5,,,,,0,15,15,4,0,10,10,10,,,,,,,,,1,0.9019344299995282,,,045,001,2019_May_17_1617,MusicAffectPsychophysiology2019,3.0.5,60.121006873059926,
To what extent did the music make you feel ,ALERT,30MonoWAV/30MonoH1.wav,2,2,1,5,,,,,0,15,15,4,0,11,11,8,,,,,,,,,3,10.184278908998749,,,045,001,2019_May_17_1617,MusicAffectPsychophysiology2019,3.0.5,60.121006873059926,
,,30MonoWAV/30MonoH1.wav,2,2,1,5,,,,,0,15,15,4,,,,,,,,,,,,,,,,,045,001,2019_May_17_1617,MusicAffectPsychophysiology2019,3.0.5,60.121006873059926,
To what extent did the music make you feel ,ACTIVE,30MonoWAV/30MonoS4.wav,1,1,3,12,,,,,1,0,16,11,0,0,0,9,,,2,2.868275019000066,2,1.1182560289998946,3,1.6494633880010952,1,1.3184643750009855,,,045,001,2019_May_17_1617,MusicAffectPsychophysiology2019,3.0.5,60.121006873059926,
To what extent did the music make you feel ,ANGRY,30MonoWAV/30MonoS4.wav,1,1,3,12,,,,,1,0,16,11,0,1,1,2,,,,,,,,,1,0.8343892430002597,,,045,001,2019_May_17_1617,MusicAffectPsychophysiology2019,3.0.5,60.121006873059926,
To what extent did the music make you feel ,EXCITED,30MonoWAV/30MonoS4.wav,1,1,3,12,,,,,1,0,16,11,0,2,2,7,,,,,,,,,1,0.8843756650003343,,,045,001,2019_May_17_1617,MusicAffectPsychophysiology2019,3.0.5,60.121006873059926,
To what extent did the music make you feel ,GUILTY,30MonoWAV/30MonoS4.wav,1,1,3,12,,,,,1,0,16,11,0,3,3,5,,,,,,,,,1,0.7850832979984261,,,045,001,2019_May_17_1617,MusicAffectPsychophysiology2019,3.0.5,60.121006873059926,
To what extent did the music make you feel ,ASHAMED,30MonoWAV/30MonoS4.wav,1,1,3,12,,,,,1,0,16,11,0,4,4,4,,,,,,,,,1,1.2016852809992997,,,045,001,2019_May_17_1617,MusicAffectPsychophysiology2019,3.0.5,60.121006873059926,
To what extent did the music make you feel ,TENDER,30MonoWAV/30MonoS4.wav,1,1,3,12,,,,,1,0,16,11,0,5,5,10,,,,,,,,,3,2.934978773999319,,,045,001,2019_May_17_1617,MusicAffectPsychophysiology2019,3.0.5,60.121006873059926,
To what extent did the music make you feel ,SAD,30MonoWAV/30MonoS4.wav,1,1,3,12,,,,,1,0,16,11,0,6,6,0,,,,,,,,,5,1.9512842619988078,,,045,001,2019_May_17_1617,MusicAffectPsychophysiology2019,3.0.5,60.121006873059926,
To what extent did the music make you feel ,ANXIOUS ,30MonoWAV/30MonoS4.wav,1,1,3,12,,,,,1,0,16,11,0,7,7,1,,,,,,,,,1,3.3030744919997233,,,045,001,2019_May_17_1617,MusicAffectPsychophysiology2019,3.0.5,60.121006873059926,
To what extent did the music make you feel ,HAPPY,30MonoWAV/30MonoS4.wav,1,1,3,12,,,,,1,0,16,11,0,8,8,6,,,,,,,,,1,0.7352510700002313,,,045,001,2019_May_17_1617,MusicAffectPsychophysiology2019,3.0.5,60.121006873059926,
To what extent did the music make you feel ,SCARED,30MonoWAV/30MonoS4.wav,1,1,3,12,,,,,1,0,16,11,0,9,9,11,,,,,,,,,1,0.8843842890000815,,,045,001,2019_May_17_1617,MusicAffectPsychophysiology2019,3.0.5,60.121006873059926,
To what extent did the music make you feel ,ALERT,30MonoWAV/30MonoS4.wav,1,1,3,12,,,,,1,0,16,11,0,10,10,8,,,,,,,,,1,0.6680373179988237,,,045,001,2019_May_17_1617,MusicAffectPsychophysiology2019,3.0.5,60.121006873059926,
To what extent did the music make you feel ,FRUSTRATED,30MonoWAV/30MonoS4.wav,1,1,3,12,,,,,1,0,16,11,0,11,11,3,,,,,,,,,1,0.5685946869998588,,,045,001,2019_May_17_1617,MusicAffectPsychophysiology2019,3.0.5,60.121006873059926,
,,30MonoWAV/30MonoS4.wav,1,1,3,12,,,,,1,0,16,11,,,,,,,,,,,,,,,,,045,001,2019_May_17_1617,MusicAffectPsychophysiology2019,3.0.5,60.121006873059926,
To what extent did the music make you feel ,ALERT,30MonoWAV/30MonoH1.wav,2,2,1,5,,,,,1,1,17,4,0,0,0,8,,,3,14.30043959700015,3,1.335832577000474,3,7.424284914999589,3,6.577477512999394,,,045,001,2019_May_17_1617,MusicAffectPsychophysiology2019,3.0.5,60.121006873059926,
To what extent did the music make you feel ,HAPPY,30MonoWAV/30MonoH1.wav,2,2,1,5,,,,,1,1,17,4,0,1,1,6,,,,,,,,,2,9.468097554999986,,,045,001,2019_May_17_1617,MusicAffectPsychophysiology2019,3.0.5,60.121006873059926,
To what extent did the music make you feel ,ACTIVE,30MonoWAV/30MonoH1.wav,2,2,1,5,,,,,1,1,17,4,0,2,2,9,,,,,,,,,3,1.917762295999637,,,045,001,2019_May_17_1617,MusicAffectPsychophysiology2019,3.0.5,60.121006873059926,
To what extent did the music make you feel ,ANXIOUS ,30MonoWAV/30MonoH1.wav,2,2,1,5,,,,,1,1,17,4,0,3,3,1,,,,,,,,,1,1.4350319849982043,,,045,001,2019_May_17_1617,MusicAffectPsychophysiology2019,3.0.5,60.121006873059926,
To what extent did the music make you feel ,SCARED,30MonoWAV/30MonoH1.wav,2,2,1,5,,,,,1,1,17,4,0,4,4,11,,,,,,,,,1,0.8026518839997152,,,045,001,2019_May_17_1617,MusicAffectPsychophysiology2019,3.0.5,60.121006873059926,
To what extent did the music make you feel ,GUILTY,30MonoWAV/30MonoH1.wav,2,2,1,5,,,,,1,1,17,4,0,5,5,5,,,,,,,,,1,0.7167123050003283,,,045,001,2019_May_17_1617,MusicAffectPsychophysiology2019,3.0.5,60.121006873059926,
To what extent did the music make you feel ,SAD,30MonoWAV/30MonoH1.wav,2,2,1,5,,,,,1,1,17,4,0,6,6,0,,,,,,,,,1,0.8532184640007472,,,045,001,2019_May_17_1617,MusicAffectPsychophysiology2019,3.0.5,60.121006873059926,
To what extent did the music make you feel ,EXCITED,30MonoWAV/30MonoH1.wav,2,2,1,5,,,,,1,1,17,4,0,7,7,7,,,,,,,,,3,4.984788945999753,,,045,001,2019_May_17_1617,MusicAffectPsychophysiology2019,3.0.5,60.121006873059926,
To what extent did the music make you feel ,TENDER,30MonoWAV/30MonoH1.wav,2,2,1,5,,,,,1,1,17,4,0,8,8,10,,,,,,,,,1,1.0690772529997048,,,045,001,2019_May_17_1617,MusicAffectPsychophysiology2019,3.0.5,60.121006873059926,
To what extent did the music make you feel ,FRUSTRATED,30MonoWAV/30MonoH1.wav,2,2,1,5,,,,,1,1,17,4,0,9,9,3,,,,,,,,,1,0.7502850050004781,,,045,001,2019_May_17_1617,MusicAffectPsychophysiology2019,3.0.5,60.121006873059926,
To what extent did the music make you feel ,ASHAMED,30MonoWAV/30MonoH1.wav,2,2,1,5,,,,,1,1,17,4,0,10,10,4,,,,,,,,,1,2.3014434319993597,,,045,001,2019_May_17_1617,MusicAffectPsychophysiology2019,3.0.5,60.121006873059926,
To what extent did the music make you feel ,ANGRY,30MonoWAV/30MonoH1.wav,2,2,1,5,,,,,1,1,17,4,0,11,11,2,,,,,,,,,1,0.7524165849990823,,,045,001,2019_May_17_1617,MusicAffectPsychophysiology2019,3.0.5,60.121006873059926,
,,30MonoWAV/30MonoH1.wav,2,2,1,5,,,,,1,1,17,4,,,,,,,,,,,,,,,,,045,001,2019_May_17_1617,MusicAffectPsychophysiology2019,3.0.5,60.121006873059926,
To what extent did the music make you feel ,HAPPY,30MonoWAV/30MonoF1.wav,1,2,2,1,,,,,1,2,18,0,0,0,0,6,,,4,3.2513491280005837,1,2.566084905000025,3,2.0347800809995533,1,1.8514148150006804,,,045,001,2019_May_17_1617,MusicAffectPsychophysiology2019,3.0.5,60.121006873059926,
To what extent did the music make you feel ,ALERT,30MonoWAV/30MonoF1.wav,1,2,2,1,,,,,1,2,18,0,0,1,1,8,,,,,,,,,3,1.951580405999266,,,045,001,2019_May_17_1617,MusicAffectPsychophysiology2019,3.0.5,60.121006873059926,
To what extent did the music make you feel ,SAD,30MonoWAV/30MonoF1.wav,1,2,2,1,,,,,1,2,18,0,0,2,2,0,,,,,,,,,1,1.35190557200076,,,045,001,2019_May_17_1617,MusicAffectPsychophysiology2019,3.0.5,60.121006873059926,
To what extent did the music make you feel ,GUILTY,30MonoWAV/30MonoF1.wav,1,2,2,1,,,,,1,2,18,0,0,3,3,5,,,,,,,,,1,2.0020189819988445,,,045,001,2019_May_17_1617,MusicAffectPsychophysiology2019,3.0.5,60.121006873059926,
To what extent did the music make you feel ,ANGRY,30MonoWAV/30MonoF1.wav,1,2,2,1,,,,,1,2,18,0,0,4,4,2,,,,,,,,,1,0.984694077000313,,,045,001,2019_May_17_1617,MusicAffectPsychophysiology2019,3.0.5,60.121006873059926,
To what extent did the music make you feel ,ACTIVE,30MonoWAV/30MonoF1.wav,1,2,2,1,,,,,1,2,18,0,0,5,5,9,,,,,,,,,4,2.085407167000085,,,045,001,2019_May_17_1617,MusicAffectPsychophysiology2019,3.0.5,60.121006873059926,
To what extent did the music make you feel ,FRUSTRATED,30MonoWAV/30MonoF1.wav,1,2,2,1,,,,,1,2,18,0,0,6,6,3,,,,,,,,,1,1.0514398369996343,,,045,001,2019_May_17_1617,MusicAffectPsychophysiology2019,3.0.5,60.121006873059926,
To what extent did the music make you feel ,TENDER,30MonoWAV/30MonoF1.wav,1,2,2,1,,,,,1,2,18,0,0,7,7,10,,,,,,,,,1,6.10088153200013,,,045,001,2019_May_17_1617,MusicAffectPsychophysiology2019,3.0.5,60.121006873059926,
To what extent did the music make you feel ,EXCITED,30MonoWAV/30MonoF1.wav,1,2,2,1,,,,,1,2,18,0,0,8,8,7,,,,,,,,,1,0.75123551499928,,,045,001,2019_May_17_1617,MusicAffectPsychophysiology2019,3.0.5,60.121006873059926,
To what extent did the music make you feel ,ANXIOUS ,30MonoWAV/30MonoF1.wav,1,2,2,1,,,,,1,2,18,0,0,9,9,1,,,,,,,,,4,2.4181858129995817,,,045,001,2019_May_17_1617,MusicAffectPsychophysiology2019,3.0.5,60.121006873059926,
To what extent did the music make you feel ,ASHAMED,30MonoWAV/30MonoF1.wav,1,2,2,1,,,,,1,2,18,0,0,10,10,4,,,,,,,,,1,0.9679323939999449,,,045,001,2019_May_17_1617,MusicAffectPsychophysiology2019,3.0.5,60.121006873059926,
To what extent did the music make you feel ,SCARED,30MonoWAV/30MonoF1.wav,1,2,2,1,,,,,1,2,18,0,0,11,11,11,,,,,,,,,4,1.8837271709999186,,,045,001,2019_May_17_1617,MusicAffectPsychophysiology2019,3.0.5,60.121006873059926,
,,30MonoWAV/30MonoF1.wav,1,2,2,1,,,,,1,2,18,0,,,,,,,,,,,,,,,,,045,001,2019_May_17_1617,MusicAffectPsychophysiology2019,3.0.5,60.121006873059926,
To what extent did the music make you feel ,SAD,30MonoWAV/30MonoT4.wav,2,1,4,16,,,,,1,3,19,15,0,0,0,0,,,4,3.817721136001637,4,1.5516862379990926,4,0.4851431610004511,1,3.6161493710005743,,,045,001,2019_May_17_1617,MusicAffectPsychophysiology2019,3.0.5,60.121006873059926,
To what extent did the music make you feel ,ACTIVE,30MonoWAV/30MonoT4.wav,2,1,4,16,,,,,1,3,19,15,0,1,1,9,,,,,,,,,1,6.217552141999477,,,045,001,2019_May_17_1617,MusicAffectPsychophysiology2019,3.0.5,60.121006873059926,
To what extent did the music make you feel ,GUILTY,30MonoWAV/30MonoT4.wav,2,1,4,16,,,,,1,3,19,15,0,2,2,5,,,,,,,,,1,0.7681726529990556,,,045,001,2019_May_17_1617,MusicAffectPsychophysiology2019,3.0.5,60.121006873059926,
To what extent did the music make you feel ,EXCITED,30MonoWAV/30MonoT4.wav,2,1,4,16,,,,,1,3,19,15,0,3,3,7,,,,,,,,,2,2.1508271040002,,,045,001,2019_May_17_1617,MusicAffectPsychophysiology2019,3.0.5,60.121006873059926,
To what extent did the music make you feel ,HAPPY,30MonoWAV/30MonoT4.wav,2,1,4,16,,,,,1,3,19,15,0,4,4,6,,,,,,,,,4,1.999619256999722,,,045,001,2019_May_17_1617,MusicAffectPsychophysiology2019,3.0.5,60.121006873059926,
To what extent did the music make you feel ,FRUSTRATED,30MonoWAV/30MonoT4.wav,2,1,4,16,,,,,1,3,19,15,0,5,5,3,,,,,,,,,1,1.4030596280008467,,,045,001,2019_May_17_1617,MusicAffectPsychophysiology2019,3.0.5,60.121006873059926,
To what extent did the music make you feel ,ASHAMED,30MonoWAV/30MonoT4.wav,2,1,4,16,,,,,1,3,19,15,0,6,6,4,,,,,,,,,1,0.8172718430014356,,,045,001,2019_May_17_1617,MusicAffectPsychophysiology2019,3.0.5,60.121006873059926,
To what extent did the music make you feel ,ANXIOUS ,30MonoWAV/30MonoT4.wav,2,1,4,16,,,,,1,3,19,15,0,7,7,1,,,,,,,,,1,0.9850139329992089,,,045,001,2019_May_17_1617,MusicAffectPsychophysiology2019,3.0.5,60.121006873059926,
To what extent did the music make you feel ,ALERT,30MonoWAV/30MonoT4.wav,2,1,4,16,,,,,1,3,19,15,0,8,8,8,,,,,,,,,2,1.4016877699996257,,,045,001,2019_May_17_1617,MusicAffectPsychophysiology2019,3.0.5,60.121006873059926,
To what extent did the music make you feel ,TENDER,30MonoWAV/30MonoT4.wav,2,1,4,16,,,,,1,3,19,15,0,9,9,10,,,,,,,,,4,3.5348644120003883,,,045,001,2019_May_17_1617,MusicAffectPsychophysiology2019,3.0.5,60.121006873059926,
To what extent did the music make you feel ,SCARED,30MonoWAV/30MonoT4.wav,2,1,4,16,,,,,1,3,19,15,0,10,10,11,,,,,,,,,1,1.1845682759994816,,,045,001,2019_May_17_1617,MusicAffectPsychophysiology2019,3.0.5,60.121006873059926,
To what extent did the music make you feel ,ANGRY,30MonoWAV/30MonoT4.wav,2,1,4,16,,,,,1,3,19,15,0,11,11,2,,,,,,,,,1,0.5840416939990973,,,045,001,2019_May_17_1617,MusicAffectPsychophysiology2019,3.0.5,60.121006873059926,
,,30MonoWAV/30MonoT4.wav,2,1,4,16,,,,,1,3,19,15,,,,,,,,,,,,,,,,,045,001,2019_May_17_1617,MusicAffectPsychophysiology2019,3.0.5,60.121006873059926,
To what extent did the music make you feel ,FRUSTRATED,30MonoWAV/30MonoT3.wav,2,1,4,15,,,,,1,4,20,14,0,0,0,3,,,4,93.85801053499927,4,0.7521230829988781,4,4.0179807570002595,1,1.1681749489998765,,,045,001,2019_May_17_1617,MusicAffectPsychophysiology2019,3.0.5,60.121006873059926,
To what extent did the music make you feel ,EXCITED,30MonoWAV/30MonoT3.wav,2,1,4,15,,,,,1,4,20,14,0,1,1,7,,,,,,,,,1,2.3679545159993722,,,045,001,2019_May_17_1617,MusicAffectPsychophysiology2019,3.0.5,60.121006873059926,
To what extent did the music make you feel ,ANXIOUS ,30MonoWAV/30MonoT3.wav,2,1,4,15,,,,,1,4,20,14,0,2,2,1,,,,,,,,,1,0.7664649649996136,,,045,001,2019_May_17_1617,MusicAffectPsychophysiology2019,3.0.5,60.121006873059926,
To what extent did the music make you feel ,ASHAMED,30MonoWAV/30MonoT3.wav,2,1,4,15,,,,,1,4,20,14,0,3,3,4,,,,,,,,,1,0.7175603289997525,,,045,001,2019_May_17_1617,MusicAffectPsychophysiology2019,3.0.5,60.121006873059926,
To what extent did the music make you feel ,ALERT,30MonoWAV/30MonoT3.wav,2,1,4,15,,,,,1,4,20,14,0,4,4,8,,,,,,,,,2,3.8182813490002445,,,045,001,2019_May_17_1617,MusicAffectPsychophysiology2019,3.0.5,60.121006873059926,
To what extent did the music make you feel ,SAD,30MonoWAV/30MonoT3.wav,2,1,4,15,,,,,1,4,20,14,0,5,5,0,,,,,,,,,4,5.874880768998992,,,045,001,2019_May_17_1617,MusicAffectPsychophysiology2019,3.0.5,60.121006873059926,
To what extent did the music make you feel ,ANGRY,30MonoWAV/30MonoT3.wav,2,1,4,15,,,,,1,4,20,14,0,6,6,2,,,,,,,,,1,2.7382262219998665,,,045,001,2019_May_17_1617,MusicAffectPsychophysiology2019,3.0.5,60.121006873059926,
To what extent did the music make you feel ,ACTIVE,30MonoWAV/30MonoT3.wav,2,1,4,15,,,,,1,4,20,14,0,7,7,9,,,,,,,,,1,2.490264390999073,,,045,001,2019_May_17_1617,MusicAffectPsychophysiology2019,3.0.5,60.121006873059926,
To what extent did the music make you feel ,SCARED,30MonoWAV/30MonoT3.wav,2,1,4,15,,,,,1,4,20,14,0,8,8,11,,,,,,,,,1,0.5524390539994783,,,045,001,2019_May_17_1617,MusicAffectPsychophysiology2019,3.0.5,60.121006873059926,
To what extent did the music make you feel ,HAPPY,30MonoWAV/30MonoT3.wav,2,1,4,15,,,,,1,4,20,14,0,9,9,6,,,,,,,,,4,1.817676044000109,,,045,001,2019_May_17_1617,MusicAffectPsychophysiology2019,3.0.5,60.121006873059926,
To what extent did the music make you feel ,TENDER,30MonoWAV/30MonoT3.wav,2,1,4,15,,,,,1,4,20,14,0,10,10,10,,,,,,,,,4,1.8683520979993773,,,045,001,2019_May_17_1617,MusicAffectPsychophysiology2019,3.0.5,60.121006873059926,
To what extent did the music make you feel ,GUILTY,30MonoWAV/30MonoT3.wav,2,1,4,15,,,,,1,4,20,14,0,11,11,5,,,,,,,,,1,1.337563045000934,,,045,001,2019_May_17_1617,MusicAffectPsychophysiology2019,3.0.5,60.121006873059926,
,,30MonoWAV/30MonoT3.wav,2,1,4,15,,,,,1,4,20,14,,,,,,,,,,,,,,,,,045,001,2019_May_17_1617,MusicAffectPsychophysiology2019,3.0.5,60.121006873059926,
To what extent did the music make you feel ,ACTIVE,30MonoWAV/30MonoS3.wav,1,1,3,11,,,,,1,5,21,10,0,0,0,9,,,3,2.951907107999432,2,1.8846645020003052,2,2.699782838999454,2,1.4170399750000797,,,045,001,2019_May_17_1617,MusicAffectPsychophysiology2019,3.0.5,60.121006873059926,
To what extent did the music make you feel ,HAPPY,30MonoWAV/30MonoS3.wav,1,1,3,11,,,,,1,5,21,10,0,1,1,6,,,,,,,,,1,1.2065716160013835,,,045,001,2019_May_17_1617,MusicAffectPsychophysiology2019,3.0.5,60.121006873059926,
To what extent did the music make you feel ,ANGRY,30MonoWAV/30MonoS3.wav,1,1,3,11,,,,,1,5,21,10,0,2,2,2,,,,,,,,,1,0.7859072549999837,,,045,001,2019_May_17_1617,MusicAffectPsychophysiology2019,3.0.5,60.121006873059926,
To what extent did the music make you feel ,EXCITED,30MonoWAV/30MonoS3.wav,1,1,3,11,,,,,1,5,21,10,0,3,3,7,,,,,,,,,1,0.8024911049997172,,,045,001,2019_May_17_1617,MusicAffectPsychophysiology2019,3.0.5,60.121006873059926,
To what extent did the music make you feel ,GUILTY,30MonoWAV/30MonoS3.wav,1,1,3,11,,,,,1,5,21,10,0,4,4,5,,,,,,,,,1,0.8201048940009059,,,045,001,2019_May_17_1617,MusicAffectPsychophysiology2019,3.0.5,60.121006873059926,
To what extent did the music make you feel ,TENDER,30MonoWAV/30MonoS3.wav,1,1,3,11,,,,,1,5,21,10,0,5,5,10,,,,,,,,,1,11.443149734001054,,,045,001,2019_May_17_1617,MusicAffectPsychophysiology2019,3.0.5,60.121006873059926,
To what extent did the music make you feel ,SAD,30MonoWAV/30MonoS3.wav,1,1,3,11,,,,,1,5,21,10,0,6,6,0,,,,,,,,,4,2.084899014000257,,,045,001,2019_May_17_1617,MusicAffectPsychophysiology2019,3.0.5,60.121006873059926,
To what extent did the music make you feel ,ASHAMED,30MonoWAV/30MonoS3.wav,1,1,3,11,,,,,1,5,21,10,0,7,7,4,,,,,,,,,1,2.485295573998883,,,045,001,2019_May_17_1617,MusicAffectPsychophysiology2019,3.0.5,60.121006873059926,
To what extent did the music make you feel ,ALERT,30MonoWAV/30MonoS3.wav,1,1,3,11,,,,,1,5,21,10,0,8,8,8,,,,,,,,,1,2.8180918130001373,,,045,001,2019_May_17_1617,MusicAffectPsychophysiology2019,3.0.5,60.121006873059926,
To what extent did the music make you feel ,FRUSTRATED,30MonoWAV/30MonoS3.wav,1,1,3,11,,,,,1,5,21,10,0,9,9,3,,,,,,,,,1,0.9017016640009388,,,045,001,2019_May_17_1617,MusicAffectPsychophysiology2019,3.0.5,60.121006873059926,
To what extent did the music make you feel ,SCARED,30MonoWAV/30MonoS3.wav,1,1,3,11,,,,,1,5,21,10,0,10,10,11,,,,,,,,,1,2.034601511000801,,,045,001,2019_May_17_1617,MusicAffectPsychophysiology2019,3.0.5,60.121006873059926,
To what extent did the music make you feel ,ANXIOUS ,30MonoWAV/30MonoS3.wav,1,1,3,11,,,,,1,5,21,10,0,11,11,1,,,,,,,,,2,8.484467836999102,,,045,001,2019_May_17_1617,MusicAffectPsychophysiology2019,3.0.5,60.121006873059926,
,,30MonoWAV/30MonoS3.wav,1,1,3,11,,,,,1,5,21,10,,,,,,,,,,,,,,,,,045,001,2019_May_17_1617,MusicAffectPsychophysiology2019,3.0.5,60.121006873059926,
To what extent did the music make you feel ,TENDER,30MonoWAV/30MonoF2.wav,1,2,2,2,,,,,1,6,22,1,0,0,0,10,,,5,3.902893871998458,1,1.2858070579986816,1,1.418722524000259,1,1.1345874719991116,,,045,001,2019_May_17_1617,MusicAffectPsychophysiology2019,3.0.5,60.121006873059926,
To what extent did the music make you feel ,ANGRY,30MonoWAV/30MonoF2.wav,1,2,2,2,,,,,1,6,22,1,0,1,1,2,,,,,,,,,1,0.7852857380003115,,,045,001,2019_May_17_1617,MusicAffectPsychophysiology2019,3.0.5,60.121006873059926,
To what extent did the music make you feel ,SCARED,30MonoWAV/30MonoF2.wav,1,2,2,2,,,,,1,6,22,1,0,2,2,11,,,,,,,,,5,1.9173782769994432,,,045,001,2019_May_17_1617,MusicAffectPsychophysiology2019,3.0.5,60.121006873059926,
To what extent did the music make you feel ,HAPPY,30MonoWAV/30MonoF2.wav,1,2,2,2,,,,,1,6,22,1,0,3,3,6,,,,,,,,,1,0.9354790320012398,,,045,001,2019_May_17_1617,MusicAffectPsychophysiology2019,3.0.5,60.121006873059926,
To what extent did the music make you feel ,GUILTY,30MonoWAV/30MonoF2.wav,1,2,2,2,,,,,1,6,22,1,0,4,4,5,,,,,,,,,1,1.1023275999996258,,,045,001,2019_May_17_1617,MusicAffectPsychophysiology2019,3.0.5,60.121006873059926,
To what extent did the music make you feel ,SAD,30MonoWAV/30MonoF2.wav,1,2,2,2,,,,,1,6,22,1,0,5,5,0,,,,,,,,,1,1.2176731370000198,,,045,001,2019_May_17_1617,MusicAffectPsychophysiology2019,3.0.5,60.121006873059926,
To what extent did the music make you feel ,ASHAMED,30MonoWAV/30MonoF2.wav,1,2,2,2,,,,,1,6,22,1,0,6,6,4,,,,,,,,,1,0.8356333960000484,,,045,001,2019_May_17_1617,MusicAffectPsychophysiology2019,3.0.5,60.121006873059926,
To what extent did the music make you feel ,ALERT,30MonoWAV/30MonoF2.wav,1,2,2,2,,,,,1,6,22,1,0,7,7,8,,,,,,,,,5,1.6017382479985827,,,045,001,2019_May_17_1617,MusicAffectPsychophysiology2019,3.0.5,60.121006873059926,
To what extent did the music make you feel ,ANXIOUS ,30MonoWAV/30MonoF2.wav,1,2,2,2,,,,,1,6,22,1,0,8,8,1,,,,,,,,,1,4.2011621780002315,,,045,001,2019_May_17_1617,MusicAffectPsychophysiology2019,3.0.5,60.121006873059926,
To what extent did the music make you feel ,ACTIVE,30MonoWAV/30MonoF2.wav,1,2,2,2,,,,,1,6,22,1,0,9,9,9,,,,,,,,,1,1.068320591999509,,,045,001,2019_May_17_1617,MusicAffectPsychophysiology2019,3.0.5,60.121006873059926,
To what extent did the music make you feel ,FRUSTRATED,30MonoWAV/30MonoF2.wav,1,2,2,2,,,,,1,6,22,1,0,10,10,3,,,,,,,,,1,10.284266669999852,,,045,001,2019_May_17_1617,MusicAffectPsychophysiology2019,3.0.5,60.121006873059926,
To what extent did the music make you feel ,EXCITED,30MonoWAV/30MonoF2.wav,1,2,2,2,,,,,1,6,22,1,0,11,11,7,,,,,,,,,1,0.9016946049996477,,,045,001,2019_May_17_1617,MusicAffectPsychophysiology2019,3.0.5,60.121006873059926,
,,30MonoWAV/30MonoF2.wav,1,2,2,2,,,,,1,6,22,1,,,,,,,,,,,,,,,,,045,001,2019_May_17_1617,MusicAffectPsychophysiology2019,3.0.5,60.121006873059926,
To what extent did the music make you feel ,EXCITED,30MonoWAV/30MonoS2.wav,1,1,3,10,,,,,1,7,23,9,0,0,0,7,,,3,4.424848624999868,3,2.0352595719996316,2,1.7342961670001387,1,1.6517056979992049,,,045,001,2019_May_17_1617,MusicAffectPsychophysiology2019,3.0.5,60.121006873059926,
To what extent did the music make you feel ,HAPPY,30MonoWAV/30MonoS2.wav,1,1,3,10,,,,,1,7,23,9,0,1,1,6,,,,,,,,,1,1.702183569999761,,,045,001,2019_May_17_1617,MusicAffectPsychophysiology2019,3.0.5,60.121006873059926,
To what extent did the music make you feel ,ANGRY,30MonoWAV/30MonoS2.wav,1,1,3,10,,,,,1,7,23,9,0,2,2,2,,,,,,,,,1,0.9350733680003032,,,045,001,2019_May_17_1617,MusicAffectPsychophysiology2019,3.0.5,60.121006873059926,
To what extent did the music make you feel ,TENDER,30MonoWAV/30MonoS2.wav,1,1,3,10,,,,,1,7,23,9,0,3,3,10,,,,,,,,,4,2.9008048199993937,,,045,001,2019_May_17_1617,MusicAffectPsychophysiology2019,3.0.5,60.121006873059926,
To what extent did the music make you feel ,ACTIVE,30MonoWAV/30MonoS2.wav,1,1,3,10,,,,,1,7,23,9,0,4,4,9,,,,,,,,,1,1.6836052340004244,,,045,001,2019_May_17_1617,MusicAffectPsychophysiology2019,3.0.5,60.121006873059926,
To what extent did the music make you feel ,SCARED,30MonoWAV/30MonoS2.wav,1,1,3,10,,,,,1,7,23,9,0,5,5,11,,,,,,,,,1,0.9019371070007765,,,045,001,2019_May_17_1617,MusicAffectPsychophysiology2019,3.0.5,60.121006873059926,
To what extent did the music make you feel ,GUILTY,30MonoWAV/30MonoS2.wav,1,1,3,10,,,,,1,7,23,9,0,6,6,5,,,,,,,,,1,0.9023022279998258,,,045,001,2019_May_17_1617,MusicAffectPsychophysiology2019,3.0.5,60.121006873059926,
To what extent did the music make you feel ,ALERT,30MonoWAV/30MonoS2.wav,1,1,3,10,,,,,1,7,23,9,0,7,7,8,,,,,,,,,1,2.2189481450004678,,,045,001,2019_May_17_1617,MusicAffectPsychophysiology2019,3.0.5,60.121006873059926,
To what extent did the music make you feel ,ANXIOUS ,30MonoWAV/30MonoS2.wav,1,1,3,10,,,,,1,7,23,9,0,8,8,1,,,,,,,,,1,2.7011197110005014,,,045,001,2019_May_17_1617,MusicAffectPsychophysiology2019,3.0.5,60.121006873059926,
To what extent did the music make you feel ,ASHAMED,30MonoWAV/30MonoS2.wav,1,1,3,10,,,,,1,7,23,9,0,9,9,4,,,,,,,,,1,0.8015529369986325,,,045,001,2019_May_17_1617,MusicAffectPsychophysiology2019,3.0.5,60.121006873059926,
To what extent did the music make you feel ,SAD,30MonoWAV/30MonoS2.wav,1,1,3,10,,,,,1,7,23,9,0,10,10,0,,,,,,,,,4,1.5012898549994134,,,045,001,2019_May_17_1617,MusicAffectPsychophysiology2019,3.0.5,60.121006873059926,
To what extent did the music make you feel ,FRUSTRATED,30MonoWAV/30MonoS2.wav,1,1,3,10,,,,,1,7,23,9,0,11,11,3,,,,,,,,,1,0.9001072110004316,,,045,001,2019_May_17_1617,MusicAffectPsychophysiology2019,3.0.5,60.121006873059926,
,,30MonoWAV/30MonoS2.wav,1,1,3,10,,,,,1,7,23,9,,,,,,,,,,,,,,,,,045,001,2019_May_17_1617,MusicAffectPsychophysiology2019,3.0.5,60.121006873059926,
To what extent did the music make you feel ,FRUSTRATED,30MonoWAV/30MonoT1.wav,2,1,4,13,,,,,1,8,24,12,0,0,0,3,,,3,5.684094137999637,4,1.417863156999374,4,1.4352629450004315,1,4.285872861000826,,,045,001,2019_May_17_1617,MusicAffectPsychophysiology2019,3.0.5,60.121006873059926,
To what extent did the music make you feel ,ANGRY,30MonoWAV/30MonoT1.wav,2,1,4,13,,,,,1,8,24,12,0,1,1,2,,,,,,,,,1,0.585520696000458,,,045,001,2019_May_17_1617,MusicAffectPsychophysiology2019,3.0.5,60.121006873059926,
To what extent did the music make you feel ,ANXIOUS ,30MonoWAV/30MonoT1.wav,2,1,4,13,,,,,1,8,24,12,0,2,2,1,,,,,,,,,1,0.753103289000137,,,045,001,2019_May_17_1617,MusicAffectPsychophysiology2019,3.0.5,60.121006873059926,
To what extent did the music make you feel ,HAPPY,30MonoWAV/30MonoT1.wav,2,1,4,13,,,,,1,8,24,12,0,3,3,6,,,,,,,,,4,1.8684396320004453,,,045,001,2019_May_17_1617,MusicAffectPsychophysiology2019,3.0.5,60.121006873059926,
To what extent did the music make you feel ,GUILTY,30MonoWAV/30MonoT1.wav,2,1,4,13,,,,,1,8,24,12,0,4,4,5,,,,,,,,,1,0.9846996809992561,,,045,001,2019_May_17_1617,MusicAffectPsychophysiology2019,3.0.5,60.121006873059926,
To what extent did the music make you feel ,ACTIVE,30MonoWAV/30MonoT1.wav,2,1,4,13,,,,,1,8,24,12,0,5,5,9,,,,,,,,,2,2.417691364998973,,,045,001,2019_May_17_1617,MusicAffectPsychophysiology2019,3.0.5,60.121006873059926,
To what extent did the music make you feel ,SCARED,30MonoWAV/30MonoT1.wav,2,1,4,13,,,,,1,8,24,12,0,6,6,11,,,,,,,,,1,0.7352771080004459,,,045,001,2019_May_17_1617,MusicAffectPsychophysiology2019,3.0.5,60.121006873059926,
To what extent did the music make you feel ,SAD,30MonoWAV/30MonoT1.wav,2,1,4,13,,,,,1,8,24,12,0,7,7,0,,,,,,,,,1,1.8851187020009093,,,045,001,2019_May_17_1617,MusicAffectPsychophysiology2019,3.0.5,60.121006873059926,
To what extent did the music make you feel ,ASHAMED,30MonoWAV/30MonoT1.wav,2,1,4,13,,,,,1,8,24,12,0,8,8,4,,,,,,,,,1,4.7328091580002365,,,045,001,2019_May_17_1617,MusicAffectPsychophysiology2019,3.0.5,60.121006873059926,
To what extent did the music make you feel ,ALERT,30MonoWAV/30MonoT1.wav,2,1,4,13,,,,,1,8,24,12,0,9,9,8,,,,,,,,,1,5.20248788400022,,,045,001,2019_May_17_1617,MusicAffectPsychophysiology2019,3.0.5,60.121006873059926,
To what extent did the music make you feel ,EXCITED,30MonoWAV/30MonoT1.wav,2,1,4,13,,,,,1,8,24,12,0,10,10,7,,,,,,,,,1,1.6848350959990057,,,045,001,2019_May_17_1617,MusicAffectPsychophysiology2019,3.0.5,60.121006873059926,
To what extent did the music make you feel ,TENDER,30MonoWAV/30MonoT1.wav,2,1,4,13,,,,,1,8,24,12,0,11,11,10,,,,,,,,,4,1.8181702309993852,,,045,001,2019_May_17_1617,MusicAffectPsychophysiology2019,3.0.5,60.121006873059926,
,,30MonoWAV/30MonoT1.wav,2,1,4,13,,,,,1,8,24,12,,,,,,,,,,,,,,,,,045,001,2019_May_17_1617,MusicAffectPsychophysiology2019,3.0.5,60.121006873059926,
To what extent did the music make you feel ,TENDER,30MonoWAV/30MonoS1.wav,1,1,3,9,,,,,1,9,25,8,0,0,0,10,,,3,3.268405602999337,3,2.283116414999313,3,1.1179829119992064,4,2.4360504249998485,,,045,001,2019_May_17_1617,MusicAffectPsychophysiology2019,3.0.5,60.121006873059926,
To what extent did the music make you feel ,ANXIOUS ,30MonoWAV/30MonoS1.wav,1,1,3,9,,,,,1,9,25,8,0,1,1,1,,,,,,,,,1,1.1513306670003658,,,045,001,2019_May_17_1617,MusicAffectPsychophysiology2019,3.0.5,60.121006873059926,
To what extent did the music make you feel ,ANGRY,30MonoWAV/30MonoS1.wav,1,1,3,9,,,,,1,9,25,8,0,2,2,2,,,,,,,,,1,0.6193256119986472,,,045,001,2019_May_17_1617,MusicAffectPsychophysiology2019,3.0.5,60.121006873059926,
To what extent did the music make you feel ,EXCITED,30MonoWAV/30MonoS1.wav,1,1,3,9,,,,,1,9,25,8,0,3,3,7,,,,,,,,,1,5.651196628999969,,,045,001,2019_May_17_1617,MusicAffectPsychophysiology2019,3.0.5,60.121006873059926,
To what extent did the music make you feel ,ASHAMED,30MonoWAV/30MonoS1.wav,1,1,3,9,,,,,1,9,25,8,0,4,4,4,,,,,,,,,1,0.6856460199996945,,,045,001,2019_May_17_1617,MusicAffectPsychophysiology2019,3.0.5,60.121006873059926,
To what extent did the music make you feel ,FRUSTRATED,30MonoWAV/30MonoS1.wav,1,1,3,9,,,,,1,9,25,8,0,5,5,3,,,,,,,,,1,0.7351148519992421,,,045,001,2019_May_17_1617,MusicAffectPsychophysiology2019,3.0.5,60.121006873059926,
To what extent did the music make you feel ,SCARED,30MonoWAV/30MonoS1.wav,1,1,3,9,,,,,1,9,25,8,0,6,6,11,,,,,,,,,1,0.8692384349997155,,,045,001,2019_May_17_1617,MusicAffectPsychophysiology2019,3.0.5,60.121006873059926,
To what extent did the music make you feel ,ALERT,30MonoWAV/30MonoS1.wav,1,1,3,9,,,,,1,9,25,8,0,7,7,8,,,,,,,,,1,2.017441362999307,,,045,001,2019_May_17_1617,MusicAffectPsychophysiology2019,3.0.5,60.121006873059926,
To what extent did the music make you feel ,ACTIVE,30MonoWAV/30MonoS1.wav,1,1,3,9,,,,,1,9,25,8,0,8,8,9,,,,,,,,,1,1.3020490130002145,,,045,001,2019_May_17_1617,MusicAffectPsychophysiology2019,3.0.5,60.121006873059926,
To what extent did the music make you feel ,GUILTY,30MonoWAV/30MonoS1.wav,1,1,3,9,,,,,1,9,25,8,0,9,9,5,,,,,,,,,1,0.8686756259994581,,,045,001,2019_May_17_1617,MusicAffectPsychophysiology2019,3.0.5,60.121006873059926,
To what extent did the music make you feel ,HAPPY,30MonoWAV/30MonoS1.wav,1,1,3,9,,,,,1,9,25,8,0,10,10,6,,,,,,,,,3,2.118593815999702,,,045,001,2019_May_17_1617,MusicAffectPsychophysiology2019,3.0.5,60.121006873059926,
To what extent did the music make you feel ,SAD,30MonoWAV/30MonoS1.wav,1,1,3,9,,,,,1,9,25,8,0,11,11,0,,,,,,,,,2,2.3180329909991997,,,045,001,2019_May_17_1617,MusicAffectPsychophysiology2019,3.0.5,60.121006873059926,
,,30MonoWAV/30MonoS1.wav,1,1,3,9,,,,,1,9,25,8,,,,,,,,,,,,,,,,,045,001,2019_May_17_1617,MusicAffectPsychophysiology2019,3.0.5,60.121006873059926,
To what extent did the music make you feel ,FRUSTRATED,30MonoWAV/30MonoH2.wav,2,2,1,6,,,,,1,10,26,5,0,0,0,3,,,4,3.8491417879995424,4,0.935364323999238,4,0.8851341800000228,1,1.6855003740001848,,,045,001,2019_May_17_1617,MusicAffectPsychophysiology2019,3.0.5,60.121006873059926,
To what extent did the music make you feel ,ANGRY,30MonoWAV/30MonoH2.wav,2,2,1,6,,,,,1,10,26,5,0,1,1,2,,,,,,,,,1,1.0501305190009589,,,045,001,2019_May_17_1617,MusicAffectPsychophysiology2019,3.0.5,60.121006873059926,
To what extent did the music make you feel ,ANXIOUS ,30MonoWAV/30MonoH2.wav,2,2,1,6,,,,,1,10,26,5,0,2,2,1,,,,,,,,,1,0.8857291919994168,,,045,001,2019_May_17_1617,MusicAffectPsychophysiology2019,3.0.5,60.121006873059926,
To what extent did the music make you feel ,EXCITED,30MonoWAV/30MonoH2.wav,2,2,1,6,,,,,1,10,26,5,0,3,3,7,,,,,,,,,4,2.452141223999206,,,045,001,2019_May_17_1617,MusicAffectPsychophysiology2019,3.0.5,60.121006873059926,
To what extent did the music make you feel ,SCARED,30MonoWAV/30MonoH2.wav,2,2,1,6,,,,,1,10,26,5,0,4,4,11,,,,,,,,,1,1.368054905999088,,,045,001,2019_May_17_1617,MusicAffectPsychophysiology2019,3.0.5,60.121006873059926,
To what extent did the music make you feel ,GUILTY,30MonoWAV/30MonoH2.wav,2,2,1,6,,,,,1,10,26,5,0,5,5,5,,,,,,,,,1,1.8182983249989775,,,045,001,2019_May_17_1617,MusicAffectPsychophysiology2019,3.0.5,60.121006873059926,
To what extent did the music make you feel ,HAPPY,30MonoWAV/30MonoH2.wav,2,2,1,6,,,,,1,10,26,5,0,6,6,6,,,,,,,,,4,3.2346171160006634,,,045,001,2019_May_17_1617,MusicAffectPsychophysiology2019,3.0.5,60.121006873059926,
To what extent did the music make you feel ,ASHAMED,30MonoWAV/30MonoH2.wav,2,2,1,6,,,,,1,10,26,5,0,7,7,4,,,,,,,,,1,0.8019174380006007,,,045,001,2019_May_17_1617,MusicAffectPsychophysiology2019,3.0.5,60.121006873059926,
To what extent did the music make you feel ,SAD,30MonoWAV/30MonoH2.wav,2,2,1,6,,,,,1,10,26,5,0,8,8,0,,,,,,,,,1,0.8028063010006008,,,045,001,2019_May_17_1617,MusicAffectPsychophysiology2019,3.0.5,60.121006873059926,
To what extent did the music make you feel ,ALERT,30MonoWAV/30MonoH2.wav,2,2,1,6,,,,,1,10,26,5,0,9,9,8,,,,,,,,,4,1.9686226720004925,,,045,001,2019_May_17_1617,MusicAffectPsychophysiology2019,3.0.5,60.121006873059926,
To what extent did the music make you feel ,TENDER,30MonoWAV/30MonoH2.wav,2,2,1,6,,,,,1,10,26,5,0,10,10,10,,,,,,,,,1,1.0679172120017029,,,045,001,2019_May_17_1617,MusicAffectPsychophysiology2019,3.0.5,60.121006873059926,
To what extent did the music make you feel ,ACTIVE,30MonoWAV/30MonoH2.wav,2,2,1,6,,,,,1,10,26,5,0,11,11,9,,,,,,,,,4,1.3833917800002382,,,045,001,2019_May_17_1617,MusicAffectPsychophysiology2019,3.0.5,60.121006873059926,
,,30MonoWAV/30MonoH2.wav,2,2,1,6,,,,,1,10,26,5,,,,,,,,,,,,,,,,,045,001,2019_May_17_1617,MusicAffectPsychophysiology2019,3.0.5,60.121006873059926,
To what extent did the music make you feel ,EXCITED,30MonoWAV/30MonoF3.wav,1,2,2,3,,,,,1,11,27,2,0,0,0,7,,,4,3.6731363119997695,2,2.354154476999611,3,2.6743319969991717,1,4.235705035000137,,,045,001,2019_May_17_1617,MusicAffectPsychophysiology2019,3.0.5,60.121006873059926,
To what extent did the music make you feel ,SCARED,30MonoWAV/30MonoF3.wav,1,2,2,3,,,,,1,11,27,2,0,1,1,11,,,,,,,,,3,2.801142616999641,,,045,001,2019_May_17_1617,MusicAffectPsychophysiology2019,3.0.5,60.121006873059926,
To what extent did the music make you feel ,ASHAMED,30MonoWAV/30MonoF3.wav,1,2,2,3,,,,,1,11,27,2,0,2,2,4,,,,,,,,,1,1.0187958740007161,,,045,001,2019_May_17_1617,MusicAffectPsychophysiology2019,3.0.5,60.121006873059926,
To what extent did the music make you feel ,FRUSTRATED,30MonoWAV/30MonoF3.wav,1,2,2,3,,,,,1,11,27,2,0,3,3,3,,,,,,,,,1,0.8521695859999454,,,045,001,2019_May_17_1617,MusicAffectPsychophysiology2019,3.0.5,60.121006873059926,
To what extent did the music make you feel ,SAD,30MonoWAV/30MonoF3.wav,1,2,2,3,,,,,1,11,27,2,0,4,4,0,,,,,,,,,1,1.7351683839988254,,,045,001,2019_May_17_1617,MusicAffectPsychophysiology2019,3.0.5,60.121006873059926,
To what extent did the music make you feel ,TENDER,30MonoWAV/30MonoF3.wav,1,2,2,3,,,,,1,11,27,2,0,5,5,10,,,,,,,,,1,0.9664115049999964,,,045,001,2019_May_17_1617,MusicAffectPsychophysiology2019,3.0.5,60.121006873059926,
To what extent did the music make you feel ,ACTIVE,30MonoWAV/30MonoF3.wav,1,2,2,3,,,,,1,11,27,2,0,6,6,9,,,,,,,,,3,1.8858283610006765,,,045,001,2019_May_17_1617,MusicAffectPsychophysiology2019,3.0.5,60.121006873059926,
To what extent did the music make you feel ,HAPPY,30MonoWAV/30MonoF3.wav,1,2,2,3,,,,,1,11,27,2,0,7,7,6,,,,,,,,,1,0.8514704829995026,,,045,001,2019_May_17_1617,MusicAffectPsychophysiology2019,3.0.5,60.121006873059926,
To what extent did the music make you feel ,GUILTY,30MonoWAV/30MonoF3.wav,1,2,2,3,,,,,1,11,27,2,0,8,8,5,,,,,,,,,1,3.0518799500005116,,,045,001,2019_May_17_1617,MusicAffectPsychophysiology2019,3.0.5,60.121006873059926,
To what extent did the music make you feel ,ANXIOUS ,30MonoWAV/30MonoF3.wav,1,2,2,3,,,,,1,11,27,2,0,9,9,1,,,,,,,,,4,4.251244814000529,,,045,001,2019_May_17_1617,MusicAffectPsychophysiology2019,3.0.5,60.121006873059926,
To what extent did the music make you feel ,ANGRY,30MonoWAV/30MonoF3.wav,1,2,2,3,,,,,1,11,27,2,0,10,10,2,,,,,,,,,4,3.13525594299972,,,045,001,2019_May_17_1617,MusicAffectPsychophysiology2019,3.0.5,60.121006873059926,
To what extent did the music make you feel ,ALERT,30MonoWAV/30MonoF3.wav,1,2,2,3,,,,,1,11,27,2,0,11,11,8,,,,,,,,,3,2.4026830889997655,,,045,001,2019_May_17_1617,MusicAffectPsychophysiology2019,3.0.5,60.121006873059926,
,,30MonoWAV/30MonoF3.wav,1,2,2,3,,,,,1,11,27,2,,,,,,,,,,,,,,,,,045,001,2019_May_17_1617,MusicAffectPsychophysiology2019,3.0.5,60.121006873059926,
To what extent did the music make you feel ,GUILTY,30MonoWAV/30MonoH3.wav,2,2,1,7,,,,,1,12,28,6,0,0,0,5,,,5,3.0750162300009833,5,1.4874163679996855,4,1.6035194079995563,1,1.8080939739993482,,,045,001,2019_May_17_1617,MusicAffectPsychophysiology2019,3.0.5,60.121006873059926,
To what extent did the music make you feel ,FRUSTRATED,30MonoWAV/30MonoH3.wav,2,2,1,7,,,,,1,12,28,6,0,1,1,3,,,,,,,,,1,0.6830717929988168,,,045,001,2019_May_17_1617,MusicAffectPsychophysiology2019,3.0.5,60.121006873059926,
To what extent did the music make you feel ,ASHAMED,30MonoWAV/30MonoH3.wav,2,2,1,7,,,,,1,12,28,6,0,2,2,4,,,,,,,,,1,1.0848123119994852,,,045,001,2019_May_17_1617,MusicAffectPsychophysiology2019,3.0.5,60.121006873059926,
To what extent did the music make you feel ,ANXIOUS ,30MonoWAV/30MonoH3.wav,2,2,1,7,,,,,1,12,28,6,0,3,3,1,,,,,,,,,1,1.668719887999032,,,045,001,2019_May_17_1617,MusicAffectPsychophysiology2019,3.0.5,60.121006873059926,
To what extent did the music make you feel ,ALERT,30MonoWAV/30MonoH3.wav,2,2,1,7,,,,,1,12,28,6,0,4,4,8,,,,,,,,,4,3.6688256230008847,,,045,001,2019_May_17_1617,MusicAffectPsychophysiology2019,3.0.5,60.121006873059926,
To what extent did the music make you feel ,ACTIVE,30MonoWAV/30MonoH3.wav,2,2,1,7,,,,,1,12,28,6,0,5,5,9,,,,,,,,,4,1.3180396660009137,,,045,001,2019_May_17_1617,MusicAffectPsychophysiology2019,3.0.5,60.121006873059926,
To what extent did the music make you feel ,SAD,30MonoWAV/30MonoH3.wav,2,2,1,7,,,,,1,12,28,6,0,6,6,0,,,,,,,,,1,2.0849571480011946,,,045,001,2019_May_17_1617,MusicAffectPsychophysiology2019,3.0.5,60.121006873059926,
To what extent did the music make you feel ,ANGRY,30MonoWAV/30MonoH3.wav,2,2,1,7,,,,,1,12,28,6,0,7,7,2,,,,,,,,,1,0.9352887999993982,,,045,001,2019_May_17_1617,MusicAffectPsychophysiology2019,3.0.5,60.121006873059926,
To what extent did the music make you feel ,HAPPY,30MonoWAV/30MonoH3.wav,2,2,1,7,,,,,1,12,28,6,0,8,8,6,,,,,,,,,4,2.5022893469995324,,,045,001,2019_May_17_1617,MusicAffectPsychophysiology2019,3.0.5,60.121006873059926,
To what extent did the music make you feel ,EXCITED,30MonoWAV/30MonoH3.wav,2,2,1,7,,,,,1,12,28,6,0,9,9,7,,,,,,,,,4,2.2322665720002988,,,045,001,2019_May_17_1617,MusicAffectPsychophysiology2019,3.0.5,60.121006873059926,
To what extent did the music make you feel ,TENDER,30MonoWAV/30MonoH3.wav,2,2,1,7,,,,,1,12,28,6,0,10,10,10,,,,,,,,,1,1.251055228000041,,,045,001,2019_May_17_1617,MusicAffectPsychophysiology2019,3.0.5,60.121006873059926,
To what extent did the music make you feel ,SCARED,30MonoWAV/30MonoH3.wav,2,2,1,7,,,,,1,12,28,6,0,11,11,11,,,,,,,,,1,1.818374059001144,,,045,001,2019_May_17_1617,MusicAffectPsychophysiology2019,3.0.5,60.121006873059926,
,,30MonoWAV/30MonoH3.wav,2,2,1,7,,,,,1,12,28,6,,,,,,,,,,,,,,,,,045,001,2019_May_17_1617,MusicAffectPsychophysiology2019,3.0.5,60.121006873059926,
To what extent did the music make you feel ,EXCITED,30MonoWAV/30MonoF4.wav,1,2,2,4,,,,,1,13,29,3,0,0,0,7,,,4,29.85894390300018,2,1.9404745749998256,3,1.902554850001252,3,4.53526613699978,,,045,001,2019_May_17_1617,MusicAffectPsychophysiology2019,3.0.5,60.121006873059926,
To what extent did the music make you feel ,ACTIVE,30MonoWAV/30MonoF4.wav,1,2,2,4,,,,,1,13,29,3,0,1,1,9,,,,,,,,,3,1.869326670999726,,,045,001,2019_May_17_1617,MusicAffectPsychophysiology2019,3.0.5,60.121006873059926,
To what extent did the music make you feel ,SCARED,30MonoWAV/30MonoF4.wav,1,2,2,4,,,,,1,13,29,3,0,2,2,11,,,,,,,,,1,1.1342942420014879,,,045,001,2019_May_17_1617,MusicAffectPsychophysiology2019,3.0.5,60.121006873059926,
To what extent did the music make you feel ,ANXIOUS ,30MonoWAV/30MonoF4.wav,1,2,2,4,,,,,1,13,29,3,0,3,3,1,,,,,,,,,1,0.7688002140002936,,,045,001,2019_May_17_1617,MusicAffectPsychophysiology2019,3.0.5,60.121006873059926,
To what extent did the music make you feel ,GUILTY,30MonoWAV/30MonoF4.wav,1,2,2,4,,,,,1,13,29,3,0,4,4,5,,,,,,,,,1,0.8515688690004026,,,045,001,2019_May_17_1617,MusicAffectPsychophysiology2019,3.0.5,60.121006873059926,
To what extent did the music make you feel ,ANGRY,30MonoWAV/30MonoF4.wav,1,2,2,4,,,,,1,13,29,3,0,5,5,2,,,,,,,,,1,0.7176559650015406,,,045,001,2019_May_17_1617,MusicAffectPsychophysiology2019,3.0.5,60.121006873059926,
To what extent did the music make you feel ,ALERT,30MonoWAV/30MonoF4.wav,1,2,2,4,,,,,1,13,29,3,0,6,6,8,,,,,,,,,2,4.149760693999269,,,045,001,2019_May_17_1617,MusicAffectPsychophysiology2019,3.0.5,60.121006873059926,
To what extent did the music make you feel ,TENDER,30MonoWAV/30MonoF4.wav,1,2,2,4,,,,,1,13,29,3,0,7,7,10,,,,,,,,,1,1.686531676999948,,,045,001,2019_May_17_1617,MusicAffectPsychophysiology2019,3.0.5,60.121006873059926,
To what extent did the music make you feel ,FRUSTRATED,30MonoWAV/30MonoF4.wav,1,2,2,4,,,,,1,13,29,3,0,8,8,3,,,,,,,,,1,0.8348663960005069,,,045,001,2019_May_17_1617,MusicAffectPsychophysiology2019,3.0.5,60.121006873059926,
To what extent did the music make you feel ,SAD,30MonoWAV/30MonoF4.wav,1,2,2,4,,,,,1,13,29,3,0,9,9,0,,,,,,,,,2,3.8177579670009436,,,045,001,2019_May_17_1617,MusicAffectPsychophysiology2019,3.0.5,60.121006873059926,
To what extent did the music make you feel ,HAPPY,30MonoWAV/30MonoF4.wav,1,2,2,4,,,,,1,13,29,3,0,10,10,6,,,,,,,,,1,1.32739495199894,,,045,001,2019_May_17_1617,MusicAffectPsychophysiology2019,3.0.5,60.121006873059926,
To what extent did the music make you feel ,ASHAMED,30MonoWAV/30MonoF4.wav,1,2,2,4,,,,,1,13,29,3,0,11,11,4,,,,,,,,,1,0.9839266590006446,,,045,001,2019_May_17_1617,MusicAffectPsychophysiology2019,3.0.5,60.121006873059926,
,,30MonoWAV/30MonoF4.wav,1,2,2,4,,,,,1,13,29,3,,,,,,,,,,,,,,,,,045,001,2019_May_17_1617,MusicAffectPsychophysiology2019,3.0.5,60.121006873059926,
To what extent did the music make you feel ,TENDER,30MonoWAV/30MonoT2.wav,2,1,4,14,,,,,1,14,30,13,0,0,0,10,,,2,5.089643768000315,4,2.9818984670000646,4,0.5761813700009952,4,1.3769488989983074,,,045,001,2019_May_17_1617,MusicAffectPsychophysiology2019,3.0.5,60.121006873059926,
To what extent did the music make you feel ,ACTIVE,30MonoWAV/30MonoT2.wav,2,1,4,14,,,,,1,14,30,13,0,1,1,9,,,,,,,,,1,1.786101742000028,,,045,001,2019_May_17_1617,MusicAffectPsychophysiology2019,3.0.5,60.121006873059926,
To what extent did the music make you feel ,HAPPY,30MonoWAV/30MonoT2.wav,2,1,4,14,,,,,1,14,30,13,0,2,2,6,,,,,,,,,4,1.5352837499995076,,,045,001,2019_May_17_1617,MusicAffectPsychophysiology2019,3.0.5,60.121006873059926,
To what extent did the music make you feel ,SCARED,30MonoWAV/30MonoT2.wav,2,1,4,14,,,,,1,14,30,13,0,3,3,11,,,,,,,,,1,1.702775689000191,,,045,001,2019_May_17_1617,MusicAffectPsychophysiology2019,3.0.5,60.121006873059926,
To what extent did the music make you feel ,ASHAMED,30MonoWAV/30MonoT2.wav,2,1,4,14,,,,,1,14,30,13,0,4,4,4,,,,,,,,,1,1.2004093650011782,,,045,001,2019_May_17_1617,MusicAffectPsychophysiology2019,3.0.5,60.121006873059926,
To what extent did the music make you feel ,EXCITED,30MonoWAV/30MonoT2.wav,2,1,4,14,,,,,1,14,30,13,0,5,5,7,,,,,,,,,1,1.0363422959999298,,,045,001,2019_May_17_1617,MusicAffectPsychophysiology2019,3.0.5,60.121006873059926,
To what extent did the music make you feel ,ALERT,30MonoWAV/30MonoT2.wav,2,1,4,14,,,,,1,14,30,13,0,6,6,8,,,,,,,,,1,0.8325234330004605,,,045,001,2019_May_17_1617,MusicAffectPsychophysiology2019,3.0.5,60.121006873059926,
To what extent did the music make you feel ,SAD,30MonoWAV/30MonoT2.wav,2,1,4,14,,,,,1,14,30,13,0,7,7,0,,,,,,,,,2,1.1520037729987962,,,045,001,2019_May_17_1617,MusicAffectPsychophysiology2019,3.0.5,60.121006873059926,
To what extent did the music make you feel ,ANXIOUS ,30MonoWAV/30MonoT2.wav,2,1,4,14,,,,,1,14,30,13,0,8,8,1,,,,,,,,,1,1.6693565139994462,,,045,001,2019_May_17_1617,MusicAffectPsychophysiology2019,3.0.5,60.121006873059926,
To what extent did the music make you feel ,FRUSTRATED,30MonoWAV/30MonoT2.wav,2,1,4,14,,,,,1,14,30,13,0,9,9,3,,,,,,,,,1,0.5850650749998749,,,045,001,2019_May_17_1617,MusicAffectPsychophysiology2019,3.0.5,60.121006873059926,
To what extent did the music make you feel ,ANGRY,30MonoWAV/30MonoT2.wav,2,1,4,14,,,,,1,14,30,13,0,10,10,2,,,,,,,,,1,0.8267553220011905,,,045,001,2019_May_17_1617,MusicAffectPsychophysiology2019,3.0.5,60.121006873059926,
To what extent did the music make you feel ,GUILTY,30MonoWAV/30MonoT2.wav,2,1,4,14,,,,,1,14,30,13,0,11,11,5,,,,,,,,,1,0.635536026000409,,,045,001,2019_May_17_1617,MusicAffectPsychophysiology2019,3.0.5,60.121006873059926,
,,30MonoWAV/30MonoT2.wav,2,1,4,14,,,,,1,14,30,13,,,,,,,,,,,,,,,,,045,001,2019_May_17_1617,MusicAffectPsychophysiology2019,3.0.5,60.121006873059926,
To what extent did the music make you feel ,FRUSTRATED,30MonoWAV/30MonoH4.wav,2,2,1,8,,,,,1,15,31,7,0,0,0,3,,,5,2.501851897999586,4,2.0501508960005594,4,1.3136422020015743,1,1.3297115919995122,,,045,001,2019_May_17_1617,MusicAffectPsychophysiology2019,3.0.5,60.121006873059926,
To what extent did the music make you feel ,HAPPY,30MonoWAV/30MonoH4.wav,2,2,1,8,,,,,1,15,31,7,0,1,1,6,,,,,,,,,4,1.8333554460004962,,,045,001,2019_May_17_1617,MusicAffectPsychophysiology2019,3.0.5,60.121006873059926,
To what extent did the music make you feel ,ANXIOUS ,30MonoWAV/30MonoH4.wav,2,2,1,8,,,,,1,15,31,7,0,2,2,1,,,,,,,,,1,0.9558397810014867,,,045,001,2019_May_17_1617,MusicAffectPsychophysiology2019,3.0.5,60.121006873059926,
To what extent did the music make you feel ,SCARED,30MonoWAV/30MonoH4.wav,2,2,1,8,,,,,1,15,31,7,0,3,3,11,,,,,,,,,1,0.9877750889991148,,,045,001,2019_May_17_1617,MusicAffectPsychophysiology2019,3.0.5,60.121006873059926,
To what extent did the music make you feel ,ANGRY,30MonoWAV/30MonoH4.wav,2,2,1,8,,,,,1,15,31,7,0,4,4,2,,,,,,,,,1,0.7409231630008435,,,045,001,2019_May_17_1617,MusicAffectPsychophysiology2019,3.0.5,60.121006873059926,
To what extent did the music make you feel ,ALERT,30MonoWAV/30MonoH4.wav,2,2,1,8,,,,,1,15,31,7,0,5,5,8,,,,,,,,,1,1.3728603519994067,,,045,001,2019_May_17_1617,MusicAffectPsychophysiology2019,3.0.5,60.121006873059926,
To what extent did the music make you feel ,GUILTY,30MonoWAV/30MonoH4.wav,2,2,1,8,,,,,1,15,31,7,0,6,6,5,,,,,,,,,1,1.2003176730013365,,,045,001,2019_May_17_1617,MusicAffectPsychophysiology2019,3.0.5,60.121006873059926,
To what extent did the music make you feel ,SAD,30MonoWAV/30MonoH4.wav,2,2,1,8,,,,,1,15,31,7,0,7,7,0,,,,,,,,,1,0.9358431729997392,,,045,001,2019_May_17_1617,MusicAffectPsychophysiology2019,3.0.5,60.121006873059926,
To what extent did the music make you feel ,EXCITED,30MonoWAV/30MonoH4.wav,2,2,1,8,,,,,1,15,31,7,0,8,8,7,,,,,,,,,4,1.818917569000405,,,045,001,2019_May_17_1617,MusicAffectPsychophysiology2019,3.0.5,60.121006873059926,
To what extent did the music make you feel ,TENDER,30MonoWAV/30MonoH4.wav,2,2,1,8,,,,,1,15,31,7,0,9,9,10,,,,,,,,,1,0.8888905350013374,,,045,001,2019_May_17_1617,MusicAffectPsychophysiology2019,3.0.5,60.121006873059926,
To what extent did the music make you feel ,ACTIVE,30MonoWAV/30MonoH4.wav,2,2,1,8,,,,,1,15,31,7,0,10,10,9,,,,,,,,,5,1.7507881400015322,,,045,001,2019_May_17_1617,MusicAffectPsychophysiology2019,3.0.5,60.121006873059926,
To what extent did the music make you feel ,ASHAMED,30MonoWAV/30MonoH4.wav,2,2,1,8,,,,,1,15,31,7,0,11,11,4,,,,,,,,,1,0.8777113369997096,,,045,001,2019_May_17_1617,MusicAffectPsychophysiology2019,3.0.5,60.121006873059926,
,,30MonoWAV/30MonoH4.wav,2,2,1,8,,,,,1,15,31,7,,,,,,,,,,,,,,,,,045,001,2019_May_17_1617,MusicAffectPsychophysiology2019,3.0.5,60.121006873059926,
,,,,,,,,,,,,,,,,,,,,,,,,,,,,,space,9.285983804998978,045,001,2019_May_17_1617,MusicAffectPsychophysiology2019,3.0.5,60.121006873059926,
