Instruction,Word,song,valence,arousal,affectcat,songmark,pracwords.thisRepN,pracwords.thisTrialN,pracwords.thisN,pracwords.thisIndex,songtrials.thisRepN,songtrials.thisTrialN,songtrials.thisN,songtrials.thisIndex,words.thisRepN,words.thisTrialN,words.thisN,words.thisIndex,begin.keys,begin.rt,arousalkey.keys,arousalkey.rt,valencekey.keys,valencekey.rt,likekey.keys,likekey.rt,WordResponse.keys,WordResponse.rt,participant,session,date,expName,psychopyVersion,frameRate,
,,,,,,,,,,,,,,,,,,,space,56.88231653999901,,,,,,,,,046,001,2019_May_20_1114,MusicAffectPsychophysiology2019,3.0.5,59.63890551106297,
,,,,,,,,,,,,,,,,,,,,,4,7.933343448999949,,,,,,,046,001,2019_May_20_1114,MusicAffectPsychophysiology2019,3.0.5,59.63890551106297,
,,,,,,,,,,,,,,,,,,,,,,,4,4.502170514999307,,,,,046,001,2019_May_20_1114,MusicAffectPsychophysiology2019,3.0.5,59.63890551106297,
,,,,,,,,,,,,,,,,,,,,,,,,,3,2.6515683090001403,,,046,001,2019_May_20_1114,MusicAffectPsychophysiology2019,3.0.5,59.63890551106297,
To what extent did the music make you feel ,SCARED,,,,,,0,0,0,11,,,,,,,,,,,,,,,,,1,4.683422258000064,046,001,2019_May_20_1114,MusicAffectPsychophysiology2019,3.0.5,59.63890551106297,
To what extent did the music make you feel ,EXCITED,,,,,,0,1,1,7,,,,,,,,,,,,,,,,,4,2.28492459699919,046,001,2019_May_20_1114,MusicAffectPsychophysiology2019,3.0.5,59.63890551106297,
To what extent did the music make you feel ,GUILTY,,,,,,0,2,2,5,,,,,,,,,,,,,,,,,1,1.7513252079988888,046,001,2019_May_20_1114,MusicAffectPsychophysiology2019,3.0.5,59.63890551106297,
To what extent did the music make you feel ,ALERT,,,,,,0,3,3,8,,,,,,,,,,,,,,,,,4,2.2018846179998945,046,001,2019_May_20_1114,MusicAffectPsychophysiology2019,3.0.5,59.63890551106297,
To what extent did the music make you feel ,ACTIVE,,,,,,0,4,4,9,,,,,,,,,,,,,,,,,4,2.0180897659993207,046,001,2019_May_20_1114,MusicAffectPsychophysiology2019,3.0.5,59.63890551106297,
To what extent did the music make you feel ,SAD,,,,,,0,5,5,0,,,,,,,,,,,,,,,,,1,1.2519356779994268,046,001,2019_May_20_1114,MusicAffectPsychophysiology2019,3.0.5,59.63890551106297,
To what extent did the music make you feel ,ASHAMED,,,,,,0,6,6,4,,,,,,,,,,,,,,,,,1,1.1854926489977515,046,001,2019_May_20_1114,MusicAffectPsychophysiology2019,3.0.5,59.63890551106297,
To what extent did the music make you feel ,ANGRY,,,,,,0,7,7,2,,,,,,,,,,,,,,,,,1,1.5024673080006323,046,001,2019_May_20_1114,MusicAffectPsychophysiology2019,3.0.5,59.63890551106297,
To what extent did the music make you feel ,ANXIOUS ,,,,,,0,8,8,1,,,,,,,,,,,,,,,,,1,1.1161725260026287,046,001,2019_May_20_1114,MusicAffectPsychophysiology2019,3.0.5,59.63890551106297,
To what extent did the music make you feel ,TENDER,,,,,,0,9,9,10,,,,,,,,,,,,,,,,,1,1.534357144999376,046,001,2019_May_20_1114,MusicAffectPsychophysiology2019,3.0.5,59.63890551106297,
To what extent did the music make you feel ,FRUSTRATED,,,,,,0,10,10,3,,,,,,,,,,,,,,,,,1,0.9196962339992751,046,001,2019_May_20_1114,MusicAffectPsychophysiology2019,3.0.5,59.63890551106297,
To what extent did the music make you feel ,HAPPY,,,,,,0,11,11,6,,,,,,,,,,,,,,,,,5,1.9000910610011488,046,001,2019_May_20_1114,MusicAffectPsychophysiology2019,3.0.5,59.63890551106297,
To what extent did the music make you feel ,HAPPY,30MonoWAV/30MonoS2.wav,1,1,3,10,,,,,0,0,0,9,0,0,0,6,,,1,4.193263651999587,2,3.673195029001363,1,1.7391434519995528,1,2.018398498999886,046,001,2019_May_20_1114,MusicAffectPsychophysiology2019,3.0.5,59.63890551106297,
To what extent did the music make you feel ,ACTIVE,30MonoWAV/30MonoS2.wav,1,1,3,10,,,,,0,0,0,9,0,1,1,9,,,,,,,,,1,1.499562965000223,046,001,2019_May_20_1114,MusicAffectPsychophysiology2019,3.0.5,59.63890551106297,
To what extent did the music make you feel ,GUILTY,30MonoWAV/30MonoS2.wav,1,1,3,10,,,,,0,0,0,9,0,2,2,5,,,,,,,,,1,1.8352947029998177,046,001,2019_May_20_1114,MusicAffectPsychophysiology2019,3.0.5,59.63890551106297,
To what extent did the music make you feel ,SCARED,30MonoWAV/30MonoS2.wav,1,1,3,10,,,,,0,0,0,9,0,3,3,11,,,,,,,,,2,2.7010834029970283,046,001,2019_May_20_1114,MusicAffectPsychophysiology2019,3.0.5,59.63890551106297,
To what extent did the music make you feel ,ANGRY,30MonoWAV/30MonoS2.wav,1,1,3,10,,,,,0,0,0,9,0,4,4,2,,,,,,,,,1,1.383997910998005,046,001,2019_May_20_1114,MusicAffectPsychophysiology2019,3.0.5,59.63890551106297,
To what extent did the music make you feel ,SAD,30MonoWAV/30MonoS2.wav,1,1,3,10,,,,,0,0,0,9,0,5,5,0,,,,,,,,,3,1.4844580579992908,046,001,2019_May_20_1114,MusicAffectPsychophysiology2019,3.0.5,59.63890551106297,
To what extent did the music make you feel ,TENDER,30MonoWAV/30MonoS2.wav,1,1,3,10,,,,,0,0,0,9,0,6,6,10,,,,,,,,,1,1.2515936130002956,046,001,2019_May_20_1114,MusicAffectPsychophysiology2019,3.0.5,59.63890551106297,
To what extent did the music make you feel ,ASHAMED,30MonoWAV/30MonoS2.wav,1,1,3,10,,,,,0,0,0,9,0,7,7,4,,,,,,,,,1,1.5356551889999537,046,001,2019_May_20_1114,MusicAffectPsychophysiology2019,3.0.5,59.63890551106297,
To what extent did the music make you feel ,ANXIOUS ,30MonoWAV/30MonoS2.wav,1,1,3,10,,,,,0,0,0,9,0,8,8,1,,,,,,,,,2,1.385047236999526,046,001,2019_May_20_1114,MusicAffectPsychophysiology2019,3.0.5,59.63890551106297,
To what extent did the music make you feel ,ALERT,30MonoWAV/30MonoS2.wav,1,1,3,10,,,,,0,0,0,9,0,9,9,8,,,,,,,,,1,2.117888196000422,046,001,2019_May_20_1114,MusicAffectPsychophysiology2019,3.0.5,59.63890551106297,
To what extent did the music make you feel ,EXCITED,30MonoWAV/30MonoS2.wav,1,1,3,10,,,,,0,0,0,9,0,10,10,7,,,,,,,,,1,1.136220055999729,046,001,2019_May_20_1114,MusicAffectPsychophysiology2019,3.0.5,59.63890551106297,
To what extent did the music make you feel ,FRUSTRATED,30MonoWAV/30MonoS2.wav,1,1,3,10,,,,,0,0,0,9,0,11,11,3,,,,,,,,,1,1.8179028119993745,046,001,2019_May_20_1114,MusicAffectPsychophysiology2019,3.0.5,59.63890551106297,
,,30MonoWAV/30MonoS2.wav,1,1,3,10,,,,,0,0,0,9,,,,,,,,,,,,,,,046,001,2019_May_20_1114,MusicAffectPsychophysiology2019,3.0.5,59.63890551106297,
To what extent did the music make you feel ,HAPPY,30MonoWAV/30MonoS3.wav,1,1,3,11,,,,,0,1,1,10,0,0,0,6,,,1,4.155006648998096,1,5.435888468000485,2,2.768113063000783,1,3.634290508001868,046,001,2019_May_20_1114,MusicAffectPsychophysiology2019,3.0.5,59.63890551106297,
To what extent did the music make you feel ,FRUSTRATED,30MonoWAV/30MonoS3.wav,1,1,3,11,,,,,0,1,1,10,0,1,1,3,,,,,,,,,1,1.0667759050011227,046,001,2019_May_20_1114,MusicAffectPsychophysiology2019,3.0.5,59.63890551106297,
To what extent did the music make you feel ,ALERT,30MonoWAV/30MonoS3.wav,1,1,3,11,,,,,0,1,1,10,0,2,2,8,,,,,,,,,1,2.101544864999596,046,001,2019_May_20_1114,MusicAffectPsychophysiology2019,3.0.5,59.63890551106297,
To what extent did the music make you feel ,ACTIVE,30MonoWAV/30MonoS3.wav,1,1,3,11,,,,,0,1,1,10,0,3,3,9,,,,,,,,,1,1.1513949079999293,046,001,2019_May_20_1114,MusicAffectPsychophysiology2019,3.0.5,59.63890551106297,
To what extent did the music make you feel ,TENDER,30MonoWAV/30MonoS3.wav,1,1,3,11,,,,,0,1,1,10,0,4,4,10,,,,,,,,,1,0.9847333400030038,046,001,2019_May_20_1114,MusicAffectPsychophysiology2019,3.0.5,59.63890551106297,
To what extent did the music make you feel ,SAD,30MonoWAV/30MonoS3.wav,1,1,3,11,,,,,0,1,1,10,0,5,5,0,,,,,,,,,2,2.302031196999451,046,001,2019_May_20_1114,MusicAffectPsychophysiology2019,3.0.5,59.63890551106297,
To what extent did the music make you feel ,EXCITED,30MonoWAV/30MonoS3.wav,1,1,3,11,,,,,0,1,1,10,0,6,6,7,,,,,,,,,1,1.0687189999989641,046,001,2019_May_20_1114,MusicAffectPsychophysiology2019,3.0.5,59.63890551106297,
To what extent did the music make you feel ,ANGRY,30MonoWAV/30MonoS3.wav,1,1,3,11,,,,,0,1,1,10,0,7,7,2,,,,,,,,,1,4.718112448001193,046,001,2019_May_20_1114,MusicAffectPsychophysiology2019,3.0.5,59.63890551106297,
To what extent did the music make you feel ,ASHAMED,30MonoWAV/30MonoS3.wav,1,1,3,11,,,,,0,1,1,10,0,8,8,4,,,,,,,,,1,1.9678036299992527,046,001,2019_May_20_1114,MusicAffectPsychophysiology2019,3.0.5,59.63890551106297,
To what extent did the music make you feel ,GUILTY,30MonoWAV/30MonoS3.wav,1,1,3,11,,,,,0,1,1,10,0,9,9,5,,,,,,,,,1,2.0193229840006097,046,001,2019_May_20_1114,MusicAffectPsychophysiology2019,3.0.5,59.63890551106297,
To what extent did the music make you feel ,ANXIOUS ,30MonoWAV/30MonoS3.wav,1,1,3,11,,,,,0,1,1,10,0,10,10,1,,,,,,,,,2,1.5175777920012479,046,001,2019_May_20_1114,MusicAffectPsychophysiology2019,3.0.5,59.63890551106297,
To what extent did the music make you feel ,SCARED,30MonoWAV/30MonoS3.wav,1,1,3,11,,,,,0,1,1,10,0,11,11,11,,,,,,,,,2,2.26880355600224,046,001,2019_May_20_1114,MusicAffectPsychophysiology2019,3.0.5,59.63890551106297,
,,30MonoWAV/30MonoS3.wav,1,1,3,11,,,,,0,1,1,10,,,,,,,,,,,,,,,046,001,2019_May_20_1114,MusicAffectPsychophysiology2019,3.0.5,59.63890551106297,
To what extent did the music make you feel ,ANXIOUS ,30MonoWAV/30MonoF1.wav,1,2,2,1,,,,,0,2,2,0,0,0,0,1,,,4,5.58397657200112,3,3.651751533998322,3,3.117922625002393,2,2.6351345969997055,046,001,2019_May_20_1114,MusicAffectPsychophysiology2019,3.0.5,59.63890551106297,
To what extent did the music make you feel ,ANGRY,30MonoWAV/30MonoF1.wav,1,2,2,1,,,,,0,2,2,0,0,1,1,2,,,,,,,,,1,1.0687045659979049,046,001,2019_May_20_1114,MusicAffectPsychophysiology2019,3.0.5,59.63890551106297,
To what extent did the music make you feel ,HAPPY,30MonoWAV/30MonoF1.wav,1,2,2,1,,,,,0,2,2,0,0,2,2,6,,,,,,,,,3,2.8844448890013155,046,001,2019_May_20_1114,MusicAffectPsychophysiology2019,3.0.5,59.63890551106297,
To what extent did the music make you feel ,ACTIVE,30MonoWAV/30MonoF1.wav,1,2,2,1,,,,,0,2,2,0,0,3,3,9,,,,,,,,,4,4.384688835001725,046,001,2019_May_20_1114,MusicAffectPsychophysiology2019,3.0.5,59.63890551106297,
To what extent did the music make you feel ,GUILTY,30MonoWAV/30MonoF1.wav,1,2,2,1,,,,,0,2,2,0,0,4,4,5,,,,,,,,,1,1.2175517989999207,046,001,2019_May_20_1114,MusicAffectPsychophysiology2019,3.0.5,59.63890551106297,
To what extent did the music make you feel ,EXCITED,30MonoWAV/30MonoF1.wav,1,2,2,1,,,,,0,2,2,0,0,5,5,7,,,,,,,,,3,3.2184387230008724,046,001,2019_May_20_1114,MusicAffectPsychophysiology2019,3.0.5,59.63890551106297,
To what extent did the music make you feel ,FRUSTRATED,30MonoWAV/30MonoF1.wav,1,2,2,1,,,,,0,2,2,0,0,6,6,3,,,,,,,,,1,1.0521930739996606,046,001,2019_May_20_1114,MusicAffectPsychophysiology2019,3.0.5,59.63890551106297,
To what extent did the music make you feel ,SAD,30MonoWAV/30MonoF1.wav,1,2,2,1,,,,,0,2,2,0,0,7,7,0,,,,,,,,,1,4.569039891001012,046,001,2019_May_20_1114,MusicAffectPsychophysiology2019,3.0.5,59.63890551106297,
To what extent did the music make you feel ,TENDER,30MonoWAV/30MonoF1.wav,1,2,2,1,,,,,0,2,2,0,0,8,8,10,,,,,,,,,1,1.418149145996722,046,001,2019_May_20_1114,MusicAffectPsychophysiology2019,3.0.5,59.63890551106297,
To what extent did the music make you feel ,ASHAMED,30MonoWAV/30MonoF1.wav,1,2,2,1,,,,,0,2,2,0,0,9,9,4,,,,,,,,,1,1.4661089900000661,046,001,2019_May_20_1114,MusicAffectPsychophysiology2019,3.0.5,59.63890551106297,
To what extent did the music make you feel ,SCARED,30MonoWAV/30MonoF1.wav,1,2,2,1,,,,,0,2,2,0,0,10,10,11,,,,,,,,,2,1.7356113770001684,046,001,2019_May_20_1114,MusicAffectPsychophysiology2019,3.0.5,59.63890551106297,
To what extent did the music make you feel ,ALERT,30MonoWAV/30MonoF1.wav,1,2,2,1,,,,,0,2,2,0,0,11,11,8,,,,,,,,,4,2.318590121998568,046,001,2019_May_20_1114,MusicAffectPsychophysiology2019,3.0.5,59.63890551106297,
,,30MonoWAV/30MonoF1.wav,1,2,2,1,,,,,0,2,2,0,,,,,,,,,,,,,,,046,001,2019_May_20_1114,MusicAffectPsychophysiology2019,3.0.5,59.63890551106297,
To what extent did the music make you feel ,SCARED,30MonoWAV/30MonoS4.wav,1,1,3,12,,,,,0,3,3,11,0,0,0,11,,,2,10.81504134900024,1,5.135086390000652,3,3.517855389996839,2,3.9517585130015505,046,001,2019_May_20_1114,MusicAffectPsychophysiology2019,3.0.5,59.63890551106297,
To what extent did the music make you feel ,GUILTY,30MonoWAV/30MonoS4.wav,1,1,3,12,,,,,0,3,3,11,0,1,1,5,,,,,,,,,1,1.851625712999521,046,001,2019_May_20_1114,MusicAffectPsychophysiology2019,3.0.5,59.63890551106297,
To what extent did the music make you feel ,ANXIOUS ,30MonoWAV/30MonoS4.wav,1,1,3,12,,,,,0,3,3,11,0,2,2,1,,,,,,,,,2,1.0345434129994828,046,001,2019_May_20_1114,MusicAffectPsychophysiology2019,3.0.5,59.63890551106297,
To what extent did the music make you feel ,SAD,30MonoWAV/30MonoS4.wav,1,1,3,12,,,,,0,3,3,11,0,3,3,0,,,,,,,,,5,3.2015802819987584,046,001,2019_May_20_1114,MusicAffectPsychophysiology2019,3.0.5,59.63890551106297,
To what extent did the music make you feel ,HAPPY,30MonoWAV/30MonoS4.wav,1,1,3,12,,,,,0,3,3,11,0,4,4,6,,,,,,,,,1,1.9686788879989763,046,001,2019_May_20_1114,MusicAffectPsychophysiology2019,3.0.5,59.63890551106297,
To what extent did the music make you feel ,ACTIVE,30MonoWAV/30MonoS4.wav,1,1,3,12,,,,,0,3,3,11,0,5,5,9,,,,,,,,,1,2.3015756029999466,046,001,2019_May_20_1114,MusicAffectPsychophysiology2019,3.0.5,59.63890551106297,
To what extent did the music make you feel ,TENDER,30MonoWAV/30MonoS4.wav,1,1,3,12,,,,,0,3,3,11,0,6,6,10,,,,,,,,,2,1.6348963919990638,046,001,2019_May_20_1114,MusicAffectPsychophysiology2019,3.0.5,59.63890551106297,
To what extent did the music make you feel ,ASHAMED,30MonoWAV/30MonoS4.wav,1,1,3,12,,,,,0,3,3,11,0,7,7,4,,,,,,,,,1,1.217919205999351,046,001,2019_May_20_1114,MusicAffectPsychophysiology2019,3.0.5,59.63890551106297,
To what extent did the music make you feel ,EXCITED,30MonoWAV/30MonoS4.wav,1,1,3,12,,,,,0,3,3,11,0,8,8,7,,,,,,,,,1,2.168138777000422,046,001,2019_May_20_1114,MusicAffectPsychophysiology2019,3.0.5,59.63890551106297,
To what extent did the music make you feel ,FRUSTRATED,30MonoWAV/30MonoS4.wav,1,1,3,12,,,,,0,3,3,11,0,9,9,3,,,,,,,,,2,2.1516670499986503,046,001,2019_May_20_1114,MusicAffectPsychophysiology2019,3.0.5,59.63890551106297,
To what extent did the music make you feel ,ANGRY,30MonoWAV/30MonoS4.wav,1,1,3,12,,,,,0,3,3,11,0,10,10,2,,,,,,,,,1,1.9196831860026577,046,001,2019_May_20_1114,MusicAffectPsychophysiology2019,3.0.5,59.63890551106297,
To what extent did the music make you feel ,ALERT,30MonoWAV/30MonoS4.wav,1,1,3,12,,,,,0,3,3,11,0,11,11,8,,,,,,,,,2,1.9862110200010648,046,001,2019_May_20_1114,MusicAffectPsychophysiology2019,3.0.5,59.63890551106297,
,,30MonoWAV/30MonoS4.wav,1,1,3,12,,,,,0,3,3,11,,,,,,,,,,,,,,,046,001,2019_May_20_1114,MusicAffectPsychophysiology2019,3.0.5,59.63890551106297,
To what extent did the music make you feel ,EXCITED,30MonoWAV/30MonoH1.wav,2,2,1,5,,,,,0,4,4,4,0,0,0,7,,,4,3.668027660998632,4,4.383776261001913,3,3.0187404730022536,5,4.11806239300131,046,001,2019_May_20_1114,MusicAffectPsychophysiology2019,3.0.5,59.63890551106297,
To what extent did the music make you feel ,ANXIOUS ,30MonoWAV/30MonoH1.wav,2,2,1,5,,,,,0,4,4,4,0,1,1,1,,,,,,,,,1,1.2861714890022995,046,001,2019_May_20_1114,MusicAffectPsychophysiology2019,3.0.5,59.63890551106297,
To what extent did the music make you feel ,ASHAMED,30MonoWAV/30MonoH1.wav,2,2,1,5,,,,,0,4,4,4,0,2,2,4,,,,,,,,,1,1.0341104549988813,046,001,2019_May_20_1114,MusicAffectPsychophysiology2019,3.0.5,59.63890551106297,
To what extent did the music make you feel ,ALERT,30MonoWAV/30MonoH1.wav,2,2,1,5,,,,,0,4,4,4,0,3,3,8,,,,,,,,,4,1.5507171270000981,046,001,2019_May_20_1114,MusicAffectPsychophysiology2019,3.0.5,59.63890551106297,
To what extent did the music make you feel ,HAPPY,30MonoWAV/30MonoH1.wav,2,2,1,5,,,,,0,4,4,4,0,4,4,6,,,,,,,,,4,2.402740260000428,046,001,2019_May_20_1114,MusicAffectPsychophysiology2019,3.0.5,59.63890551106297,
To what extent did the music make you feel ,SAD,30MonoWAV/30MonoH1.wav,2,2,1,5,,,,,0,4,4,4,0,5,5,0,,,,,,,,,1,1.2848257440018642,046,001,2019_May_20_1114,MusicAffectPsychophysiology2019,3.0.5,59.63890551106297,
To what extent did the music make you feel ,TENDER,30MonoWAV/30MonoH1.wav,2,2,1,5,,,,,0,4,4,4,0,6,6,10,,,,,,,,,1,2.007660164999834,046,001,2019_May_20_1114,MusicAffectPsychophysiology2019,3.0.5,59.63890551106297,
To what extent did the music make you feel ,SCARED,30MonoWAV/30MonoH1.wav,2,2,1,5,,,,,0,4,4,4,0,7,7,11,,,,,,,,,1,0.8695714330024202,046,001,2019_May_20_1114,MusicAffectPsychophysiology2019,3.0.5,59.63890551106297,
To what extent did the music make you feel ,ACTIVE,30MonoWAV/30MonoH1.wav,2,2,1,5,,,,,0,4,4,4,0,8,8,9,,,,,,,,,4,2.6547258169994166,046,001,2019_May_20_1114,MusicAffectPsychophysiology2019,3.0.5,59.63890551106297,
To what extent did the music make you feel ,ANGRY,30MonoWAV/30MonoH1.wav,2,2,1,5,,,,,0,4,4,4,0,9,9,2,,,,,,,,,1,0.9527638500003377,046,001,2019_May_20_1114,MusicAffectPsychophysiology2019,3.0.5,59.63890551106297,
To what extent did the music make you feel ,GUILTY,30MonoWAV/30MonoH1.wav,2,2,1,5,,,,,0,4,4,4,0,10,10,5,,,,,,,,,1,0.969466630001989,046,001,2019_May_20_1114,MusicAffectPsychophysiology2019,3.0.5,59.63890551106297,
To what extent did the music make you feel ,FRUSTRATED,30MonoWAV/30MonoH1.wav,2,2,1,5,,,,,0,4,4,4,0,11,11,3,,,,,,,,,1,1.738438631000463,046,001,2019_May_20_1114,MusicAffectPsychophysiology2019,3.0.5,59.63890551106297,
,,30MonoWAV/30MonoH1.wav,2,2,1,5,,,,,0,4,4,4,,,,,,,,,,,,,,,046,001,2019_May_20_1114,MusicAffectPsychophysiology2019,3.0.5,59.63890551106297,
To what extent did the music make you feel ,GUILTY,30MonoWAV/30MonoT4.wav,2,1,4,16,,,,,0,5,5,15,0,0,0,5,,,3,3.8522885989987117,3,4.267560952001077,2,3.53427608399943,1,2.101169633999234,046,001,2019_May_20_1114,MusicAffectPsychophysiology2019,3.0.5,59.63890551106297,
To what extent did the music make you feel ,ACTIVE,30MonoWAV/30MonoT4.wav,2,1,4,16,,,,,0,5,5,15,0,1,1,9,,,,,,,,,2,2.017430141000659,046,001,2019_May_20_1114,MusicAffectPsychophysiology2019,3.0.5,59.63890551106297,
To what extent did the music make you feel ,SCARED,30MonoWAV/30MonoT4.wav,2,1,4,16,,,,,0,5,5,15,0,2,2,11,,,,,,,,,1,0.917338313000073,046,001,2019_May_20_1114,MusicAffectPsychophysiology2019,3.0.5,59.63890551106297,
To what extent did the music make you feel ,EXCITED,30MonoWAV/30MonoT4.wav,2,1,4,16,,,,,0,5,5,15,0,3,3,7,,,,,,,,,2,1.734825120998721,046,001,2019_May_20_1114,MusicAffectPsychophysiology2019,3.0.5,59.63890551106297,
To what extent did the music make you feel ,ANXIOUS ,30MonoWAV/30MonoT4.wav,2,1,4,16,,,,,0,5,5,15,0,4,4,1,,,,,,,,,1,0.8010926070019195,046,001,2019_May_20_1114,MusicAffectPsychophysiology2019,3.0.5,59.63890551106297,
To what extent did the music make you feel ,FRUSTRATED,30MonoWAV/30MonoT4.wav,2,1,4,16,,,,,0,5,5,15,0,5,5,3,,,,,,,,,1,1.3344715800012636,046,001,2019_May_20_1114,MusicAffectPsychophysiology2019,3.0.5,59.63890551106297,
To what extent did the music make you feel ,ALERT,30MonoWAV/30MonoT4.wav,2,1,4,16,,,,,0,5,5,15,0,6,6,8,,,,,,,,,3,3.2515404260011564,046,001,2019_May_20_1114,MusicAffectPsychophysiology2019,3.0.5,59.63890551106297,
To what extent did the music make you feel ,TENDER,30MonoWAV/30MonoT4.wav,2,1,4,16,,,,,0,5,5,15,0,7,7,10,,,,,,,,,1,0.9515911689995846,046,001,2019_May_20_1114,MusicAffectPsychophysiology2019,3.0.5,59.63890551106297,
To what extent did the music make you feel ,ASHAMED,30MonoWAV/30MonoT4.wav,2,1,4,16,,,,,0,5,5,15,0,8,8,4,,,,,,,,,1,2.4517938060016604,046,001,2019_May_20_1114,MusicAffectPsychophysiology2019,3.0.5,59.63890551106297,
To what extent did the music make you feel ,HAPPY,30MonoWAV/30MonoT4.wav,2,1,4,16,,,,,0,5,5,15,0,9,9,6,,,,,,,,,3,2.834411612002441,046,001,2019_May_20_1114,MusicAffectPsychophysiology2019,3.0.5,59.63890551106297,
To what extent did the music make you feel ,SAD,30MonoWAV/30MonoT4.wav,2,1,4,16,,,,,0,5,5,15,0,10,10,0,,,,,,,,,1,0.9852424759992573,046,001,2019_May_20_1114,MusicAffectPsychophysiology2019,3.0.5,59.63890551106297,
To what extent did the music make you feel ,ANGRY,30MonoWAV/30MonoT4.wav,2,1,4,16,,,,,0,5,5,15,0,11,11,2,,,,,,,,,1,0.9679729320014303,046,001,2019_May_20_1114,MusicAffectPsychophysiology2019,3.0.5,59.63890551106297,
,,30MonoWAV/30MonoT4.wav,2,1,4,16,,,,,0,5,5,15,,,,,,,,,,,,,,,046,001,2019_May_20_1114,MusicAffectPsychophysiology2019,3.0.5,59.63890551106297,
To what extent did the music make you feel ,SAD,30MonoWAV/30MonoH3.wav,2,2,1,7,,,,,0,6,6,6,0,0,0,0,,,4,3.434644331002346,4,2.485061643001245,3,1.81851444700078,1,2.3179787279987067,046,001,2019_May_20_1114,MusicAffectPsychophysiology2019,3.0.5,59.63890551106297,
To what extent did the music make you feel ,ANXIOUS ,30MonoWAV/30MonoH3.wav,2,2,1,7,,,,,0,6,6,6,0,1,1,1,,,,,,,,,1,1.052229974000511,046,001,2019_May_20_1114,MusicAffectPsychophysiology2019,3.0.5,59.63890551106297,
To what extent did the music make you feel ,TENDER,30MonoWAV/30MonoH3.wav,2,2,1,7,,,,,0,6,6,6,0,2,2,10,,,,,,,,,1,1.7677818650008703,046,001,2019_May_20_1114,MusicAffectPsychophysiology2019,3.0.5,59.63890551106297,
To what extent did the music make you feel ,ALERT,30MonoWAV/30MonoH3.wav,2,2,1,7,,,,,0,6,6,6,0,3,3,8,,,,,,,,,3,1.668571491001785,046,001,2019_May_20_1114,MusicAffectPsychophysiology2019,3.0.5,59.63890551106297,
To what extent did the music make you feel ,EXCITED,30MonoWAV/30MonoH3.wav,2,2,1,7,,,,,0,6,6,6,0,4,4,7,,,,,,,,,4,1.1006810850012698,046,001,2019_May_20_1114,MusicAffectPsychophysiology2019,3.0.5,59.63890551106297,
To what extent did the music make you feel ,ASHAMED,30MonoWAV/30MonoH3.wav,2,2,1,7,,,,,0,6,6,6,0,5,5,4,,,,,,,,,1,1.933563108999806,046,001,2019_May_20_1114,MusicAffectPsychophysiology2019,3.0.5,59.63890551106297,
To what extent did the music make you feel ,FRUSTRATED,30MonoWAV/30MonoH3.wav,2,2,1,7,,,,,0,6,6,6,0,6,6,3,,,,,,,,,1,2.8841654150019167,046,001,2019_May_20_1114,MusicAffectPsychophysiology2019,3.0.5,59.63890551106297,
To what extent did the music make you feel ,HAPPY,30MonoWAV/30MonoH3.wav,2,2,1,7,,,,,0,6,6,6,0,7,7,6,,,,,,,,,4,2.634062852997886,046,001,2019_May_20_1114,MusicAffectPsychophysiology2019,3.0.5,59.63890551106297,
To what extent did the music make you feel ,GUILTY,30MonoWAV/30MonoH3.wav,2,2,1,7,,,,,0,6,6,6,0,8,8,5,,,,,,,,,1,1.0349400230006722,046,001,2019_May_20_1114,MusicAffectPsychophysiology2019,3.0.5,59.63890551106297,
To what extent did the music make you feel ,ANGRY,30MonoWAV/30MonoH3.wav,2,2,1,7,,,,,0,6,6,6,0,9,9,2,,,,,,,,,1,1.951533228999324,046,001,2019_May_20_1114,MusicAffectPsychophysiology2019,3.0.5,59.63890551106297,
To what extent did the music make you feel ,ACTIVE,30MonoWAV/30MonoH3.wav,2,2,1,7,,,,,0,6,6,6,0,10,10,9,,,,,,,,,2,2.283328118999634,046,001,2019_May_20_1114,MusicAffectPsychophysiology2019,3.0.5,59.63890551106297,
To what extent did the music make you feel ,SCARED,30MonoWAV/30MonoH3.wav,2,2,1,7,,,,,0,6,6,6,0,11,11,11,,,,,,,,,1,1.3202015520000714,046,001,2019_May_20_1114,MusicAffectPsychophysiology2019,3.0.5,59.63890551106297,
,,30MonoWAV/30MonoH3.wav,2,2,1,7,,,,,0,6,6,6,,,,,,,,,,,,,,,046,001,2019_May_20_1114,MusicAffectPsychophysiology2019,3.0.5,59.63890551106297,
To what extent did the music make you feel ,ANXIOUS ,30MonoWAV/30MonoH4.wav,2,2,1,8,,,,,0,7,7,7,0,0,0,1,,,5,2.2382604150006955,5,1.5546669040013512,4,1.8534801089990651,1,2.023926186000608,046,001,2019_May_20_1114,MusicAffectPsychophysiology2019,3.0.5,59.63890551106297,
To what extent did the music make you feel ,ACTIVE,30MonoWAV/30MonoH4.wav,2,2,1,8,,,,,0,7,7,7,0,1,1,9,,,,,,,,,5,1.4158879809983773,046,001,2019_May_20_1114,MusicAffectPsychophysiology2019,3.0.5,59.63890551106297,
To what extent did the music make you feel ,EXCITED,30MonoWAV/30MonoH4.wav,2,2,1,8,,,,,0,7,7,7,0,2,2,7,,,,,,,,,4,1.31814316999953,046,001,2019_May_20_1114,MusicAffectPsychophysiology2019,3.0.5,59.63890551106297,
To what extent did the music make you feel ,SAD,30MonoWAV/30MonoH4.wav,2,2,1,8,,,,,0,7,7,7,0,3,3,0,,,,,,,,,1,1.1184605400012515,046,001,2019_May_20_1114,MusicAffectPsychophysiology2019,3.0.5,59.63890551106297,
To what extent did the music make you feel ,ASHAMED,30MonoWAV/30MonoH4.wav,2,2,1,8,,,,,0,7,7,7,0,4,4,4,,,,,,,,,1,0.6347779669995361,046,001,2019_May_20_1114,MusicAffectPsychophysiology2019,3.0.5,59.63890551106297,
To what extent did the music make you feel ,TENDER,30MonoWAV/30MonoH4.wav,2,2,1,8,,,,,0,7,7,7,0,5,5,10,,,,,,,,,1,0.7052612469997257,046,001,2019_May_20_1114,MusicAffectPsychophysiology2019,3.0.5,59.63890551106297,
To what extent did the music make you feel ,SCARED,30MonoWAV/30MonoH4.wav,2,2,1,8,,,,,0,7,7,7,0,6,6,11,,,,,,,,,1,1.770106300999032,046,001,2019_May_20_1114,MusicAffectPsychophysiology2019,3.0.5,59.63890551106297,
To what extent did the music make you feel ,ANGRY,30MonoWAV/30MonoH4.wav,2,2,1,8,,,,,0,7,7,7,0,7,7,2,,,,,,,,,1,0.6187856049982656,046,001,2019_May_20_1114,MusicAffectPsychophysiology2019,3.0.5,59.63890551106297,
To what extent did the music make you feel ,GUILTY,30MonoWAV/30MonoH4.wav,2,2,1,8,,,,,0,7,7,7,0,8,8,5,,,,,,,,,1,1.6867405389966734,046,001,2019_May_20_1114,MusicAffectPsychophysiology2019,3.0.5,59.63890551106297,
To what extent did the music make you feel ,HAPPY,30MonoWAV/30MonoH4.wav,2,2,1,8,,,,,0,7,7,7,0,9,9,6,,,,,,,,,5,2.471226077999745,046,001,2019_May_20_1114,MusicAffectPsychophysiology2019,3.0.5,59.63890551106297,
To what extent did the music make you feel ,ALERT,30MonoWAV/30MonoH4.wav,2,2,1,8,,,,,0,7,7,7,0,10,10,8,,,,,,,,,4,1.5230154840028263,046,001,2019_May_20_1114,MusicAffectPsychophysiology2019,3.0.5,59.63890551106297,
To what extent did the music make you feel ,FRUSTRATED,30MonoWAV/30MonoH4.wav,2,2,1,8,,,,,0,7,7,7,0,11,11,3,,,,,,,,,1,1.0504505180033448,046,001,2019_May_20_1114,MusicAffectPsychophysiology2019,3.0.5,59.63890551106297,
,,30MonoWAV/30MonoH4.wav,2,2,1,8,,,,,0,7,7,7,,,,,,,,,,,,,,,046,001,2019_May_20_1114,MusicAffectPsychophysiology2019,3.0.5,59.63890551106297,
To what extent did the music make you feel ,ANGRY,30MonoWAV/30MonoF2.wav,1,2,2,2,,,,,0,8,8,1,0,0,0,2,,,2,6.007257821998792,1,2.323689586999535,1,2.0185013730006176,2,3.8347538689995417,046,001,2019_May_20_1114,MusicAffectPsychophysiology2019,3.0.5,59.63890551106297,
To what extent did the music make you feel ,ALERT,30MonoWAV/30MonoF2.wav,1,2,2,2,,,,,0,8,8,1,0,1,1,8,,,,,,,,,2,1.9678037779995066,046,001,2019_May_20_1114,MusicAffectPsychophysiology2019,3.0.5,59.63890551106297,
To what extent did the music make you feel ,SCARED,30MonoWAV/30MonoF2.wav,1,2,2,2,,,,,0,8,8,1,0,2,2,11,,,,,,,,,5,1.9852255069999956,046,001,2019_May_20_1114,MusicAffectPsychophysiology2019,3.0.5,59.63890551106297,
To what extent did the music make you feel ,HAPPY,30MonoWAV/30MonoF2.wav,1,2,2,2,,,,,0,8,8,1,0,3,3,6,,,,,,,,,1,2.718534406998515,046,001,2019_May_20_1114,MusicAffectPsychophysiology2019,3.0.5,59.63890551106297,
To what extent did the music make you feel ,ANXIOUS ,30MonoWAV/30MonoF2.wav,1,2,2,2,,,,,0,8,8,1,0,4,4,1,,,,,,,,,3,1.8339912650008046,046,001,2019_May_20_1114,MusicAffectPsychophysiology2019,3.0.5,59.63890551106297,
To what extent did the music make you feel ,GUILTY,30MonoWAV/30MonoF2.wav,1,2,2,2,,,,,0,8,8,1,0,5,5,5,,,,,,,,,1,2.3350863229970855,046,001,2019_May_20_1114,MusicAffectPsychophysiology2019,3.0.5,59.63890551106297,
To what extent did the music make you feel ,FRUSTRATED,30MonoWAV/30MonoF2.wav,1,2,2,2,,,,,0,8,8,1,0,6,6,3,,,,,,,,,2,1.6669346319977194,046,001,2019_May_20_1114,MusicAffectPsychophysiology2019,3.0.5,59.63890551106297,
To what extent did the music make you feel ,ACTIVE,30MonoWAV/30MonoF2.wav,1,2,2,2,,,,,0,8,8,1,0,7,7,9,,,,,,,,,2,2.9527286539996567,046,001,2019_May_20_1114,MusicAffectPsychophysiology2019,3.0.5,59.63890551106297,
To what extent did the music make you feel ,TENDER,30MonoWAV/30MonoF2.wav,1,2,2,2,,,,,0,8,8,1,0,8,8,10,,,,,,,,,1,1.0854896609998832,046,001,2019_May_20_1114,MusicAffectPsychophysiology2019,3.0.5,59.63890551106297,
To what extent did the music make you feel ,SAD,30MonoWAV/30MonoF2.wav,1,2,2,2,,,,,0,8,8,1,0,9,9,0,,,,,,,,,4,1.9348866750005982,046,001,2019_May_20_1114,MusicAffectPsychophysiology2019,3.0.5,59.63890551106297,
To what extent did the music make you feel ,ASHAMED,30MonoWAV/30MonoF2.wav,1,2,2,2,,,,,0,8,8,1,0,10,10,4,,,,,,,,,1,0.9682225139986258,046,001,2019_May_20_1114,MusicAffectPsychophysiology2019,3.0.5,59.63890551106297,
To what extent did the music make you feel ,EXCITED,30MonoWAV/30MonoF2.wav,1,2,2,2,,,,,0,8,8,1,0,11,11,7,,,,,,,,,1,1.8030208589989343,046,001,2019_May_20_1114,MusicAffectPsychophysiology2019,3.0.5,59.63890551106297,
,,30MonoWAV/30MonoF2.wav,1,2,2,2,,,,,0,8,8,1,,,,,,,,,,,,,,,046,001,2019_May_20_1114,MusicAffectPsychophysiology2019,3.0.5,59.63890551106297,
To what extent did the music make you feel ,SCARED,30MonoWAV/30MonoF4.wav,1,2,2,4,,,,,0,9,9,3,0,0,0,11,,,3,2.9847341729982872,2,1.9834642560017528,2,2.067486881001969,3,2.317560145002062,046,001,2019_May_20_1114,MusicAffectPsychophysiology2019,3.0.5,59.63890551106297,
To what extent did the music make you feel ,ALERT,30MonoWAV/30MonoF4.wav,1,2,2,4,,,,,0,9,9,3,0,1,1,8,,,,,,,,,3,1.5162619350012392,046,001,2019_May_20_1114,MusicAffectPsychophysiology2019,3.0.5,59.63890551106297,
To what extent did the music make you feel ,EXCITED,30MonoWAV/30MonoF4.wav,1,2,2,4,,,,,0,9,9,3,0,2,2,7,,,,,,,,,2,4.486528202000045,046,001,2019_May_20_1114,MusicAffectPsychophysiology2019,3.0.5,59.63890551106297,
To what extent did the music make you feel ,GUILTY,30MonoWAV/30MonoF4.wav,1,2,2,4,,,,,0,9,9,3,0,3,3,5,,,,,,,,,1,1.401382273001218,046,001,2019_May_20_1114,MusicAffectPsychophysiology2019,3.0.5,59.63890551106297,
To what extent did the music make you feel ,TENDER,30MonoWAV/30MonoF4.wav,1,2,2,4,,,,,0,9,9,3,0,4,4,10,,,,,,,,,1,0.8852724309981568,046,001,2019_May_20_1114,MusicAffectPsychophysiology2019,3.0.5,59.63890551106297,
To what extent did the music make you feel ,ANGRY,30MonoWAV/30MonoF4.wav,1,2,2,4,,,,,0,9,9,3,0,5,5,2,,,,,,,,,1,1.6681281229975866,046,001,2019_May_20_1114,MusicAffectPsychophysiology2019,3.0.5,59.63890551106297,
To what extent did the music make you feel ,SAD,30MonoWAV/30MonoF4.wav,1,2,2,4,,,,,0,9,9,3,0,6,6,0,,,,,,,,,2,1.334659638996527,046,001,2019_May_20_1114,MusicAffectPsychophysiology2019,3.0.5,59.63890551106297,
To what extent did the music make you feel ,ASHAMED,30MonoWAV/30MonoF4.wav,1,2,2,4,,,,,0,9,9,3,0,7,7,4,,,,,,,,,1,0.717761485997471,046,001,2019_May_20_1114,MusicAffectPsychophysiology2019,3.0.5,59.63890551106297,
To what extent did the music make you feel ,ACTIVE,30MonoWAV/30MonoF4.wav,1,2,2,4,,,,,0,9,9,3,0,8,8,9,,,,,,,,,2,1.7690857279994816,046,001,2019_May_20_1114,MusicAffectPsychophysiology2019,3.0.5,59.63890551106297,
To what extent did the music make you feel ,HAPPY,30MonoWAV/30MonoF4.wav,1,2,2,4,,,,,0,9,9,3,0,9,9,6,,,,,,,,,1,1.0177486030006548,046,001,2019_May_20_1114,MusicAffectPsychophysiology2019,3.0.5,59.63890551106297,
To what extent did the music make you feel ,ANXIOUS ,30MonoWAV/30MonoF4.wav,1,2,2,4,,,,,0,9,9,3,0,10,10,1,,,,,,,,,3,2.1492350549997354,046,001,2019_May_20_1114,MusicAffectPsychophysiology2019,3.0.5,59.63890551106297,
To what extent did the music make you feel ,FRUSTRATED,30MonoWAV/30MonoF4.wav,1,2,2,4,,,,,0,9,9,3,0,11,11,3,,,,,,,,,1,1.0186597009997058,046,001,2019_May_20_1114,MusicAffectPsychophysiology2019,3.0.5,59.63890551106297,
,,30MonoWAV/30MonoF4.wav,1,2,2,4,,,,,0,9,9,3,,,,,,,,,,,,,,,046,001,2019_May_20_1114,MusicAffectPsychophysiology2019,3.0.5,59.63890551106297,
To what extent did the music make you feel ,FRUSTRATED,30MonoWAV/30MonoT3.wav,2,1,4,15,,,,,0,10,10,14,0,0,0,3,,,2,3.335517790997983,5,3.085503794998658,3,2.4008907030001865,1,1.7016210399997362,046,001,2019_May_20_1114,MusicAffectPsychophysiology2019,3.0.5,59.63890551106297,
To what extent did the music make you feel ,ACTIVE,30MonoWAV/30MonoT3.wav,2,1,4,15,,,,,0,10,10,14,0,1,1,9,,,,,,,,,3,2.234002299999702,046,001,2019_May_20_1114,MusicAffectPsychophysiology2019,3.0.5,59.63890551106297,
To what extent did the music make you feel ,ASHAMED,30MonoWAV/30MonoT3.wav,2,1,4,15,,,,,0,10,10,14,0,2,2,4,,,,,,,,,1,1.0182862229994498,046,001,2019_May_20_1114,MusicAffectPsychophysiology2019,3.0.5,59.63890551106297,
To what extent did the music make you feel ,ANXIOUS ,30MonoWAV/30MonoT3.wav,2,1,4,15,,,,,0,10,10,14,0,3,3,1,,,,,,,,,1,0.9851541730022291,046,001,2019_May_20_1114,MusicAffectPsychophysiology2019,3.0.5,59.63890551106297,
To what extent did the music make you feel ,SAD,30MonoWAV/30MonoT3.wav,2,1,4,15,,,,,0,10,10,14,0,4,4,0,,,,,,,,,1,1.1176587939989986,046,001,2019_May_20_1114,MusicAffectPsychophysiology2019,3.0.5,59.63890551106297,
To what extent did the music make you feel ,GUILTY,30MonoWAV/30MonoT3.wav,2,1,4,15,,,,,0,10,10,14,0,5,5,5,,,,,,,,,1,3.033763920000638,046,001,2019_May_20_1114,MusicAffectPsychophysiology2019,3.0.5,59.63890551106297,
To what extent did the music make you feel ,ANGRY,30MonoWAV/30MonoT3.wav,2,1,4,15,,,,,0,10,10,14,0,6,6,2,,,,,,,,,1,0.7687344929981919,046,001,2019_May_20_1114,MusicAffectPsychophysiology2019,3.0.5,59.63890551106297,
To what extent did the music make you feel ,EXCITED,30MonoWAV/30MonoT3.wav,2,1,4,15,,,,,0,10,10,14,0,7,7,7,,,,,,,,,2,1.9514882220028085,046,001,2019_May_20_1114,MusicAffectPsychophysiology2019,3.0.5,59.63890551106297,
To what extent did the music make you feel ,HAPPY,30MonoWAV/30MonoT3.wav,2,1,4,15,,,,,0,10,10,14,0,8,8,6,,,,,,,,,3,3.6854266449990973,046,001,2019_May_20_1114,MusicAffectPsychophysiology2019,3.0.5,59.63890551106297,
To what extent did the music make you feel ,ALERT,30MonoWAV/30MonoT3.wav,2,1,4,15,,,,,0,10,10,14,0,9,9,8,,,,,,,,,3,1.4683764410001459,046,001,2019_May_20_1114,MusicAffectPsychophysiology2019,3.0.5,59.63890551106297,
To what extent did the music make you feel ,TENDER,30MonoWAV/30MonoT3.wav,2,1,4,15,,,,,0,10,10,14,0,10,10,10,,,,,,,,,1,0.9511855809978442,046,001,2019_May_20_1114,MusicAffectPsychophysiology2019,3.0.5,59.63890551106297,
To what extent did the music make you feel ,SCARED,30MonoWAV/30MonoT3.wav,2,1,4,15,,,,,0,10,10,14,0,11,11,11,,,,,,,,,1,1.068550193002011,046,001,2019_May_20_1114,MusicAffectPsychophysiology2019,3.0.5,59.63890551106297,
,,30MonoWAV/30MonoT3.wav,2,1,4,15,,,,,0,10,10,14,,,,,,,,,,,,,,,046,001,2019_May_20_1114,MusicAffectPsychophysiology2019,3.0.5,59.63890551106297,
To what extent did the music make you feel ,TENDER,30MonoWAV/30MonoF3.wav,1,2,2,3,,,,,0,11,11,2,0,0,0,10,,,4,4.3686306919989875,3,1.7018608129983477,3,1.4329403629999433,1,2.0684126340020157,046,001,2019_May_20_1114,MusicAffectPsychophysiology2019,3.0.5,59.63890551106297,
To what extent did the music make you feel ,HAPPY,30MonoWAV/30MonoF3.wav,1,2,2,3,,,,,0,11,11,2,0,1,1,6,,,,,,,,,2,1.285383227001148,046,001,2019_May_20_1114,MusicAffectPsychophysiology2019,3.0.5,59.63890551106297,
To what extent did the music make you feel ,ANGRY,30MonoWAV/30MonoF3.wav,1,2,2,3,,,,,0,11,11,2,0,2,2,2,,,,,,,,,1,0.8849289270001464,046,001,2019_May_20_1114,MusicAffectPsychophysiology2019,3.0.5,59.63890551106297,
To what extent did the music make you feel ,ACTIVE,30MonoWAV/30MonoF3.wav,1,2,2,3,,,,,0,11,11,2,0,3,3,9,,,,,,,,,4,2.235120493998693,046,001,2019_May_20_1114,MusicAffectPsychophysiology2019,3.0.5,59.63890551106297,
To what extent did the music make you feel ,GUILTY,30MonoWAV/30MonoF3.wav,1,2,2,3,,,,,0,11,11,2,0,4,4,5,,,,,,,,,1,1.032997725000314,046,001,2019_May_20_1114,MusicAffectPsychophysiology2019,3.0.5,59.63890551106297,
To what extent did the music make you feel ,ANXIOUS ,30MonoWAV/30MonoF3.wav,1,2,2,3,,,,,0,11,11,2,0,5,5,1,,,,,,,,,2,1.1022841240010166,046,001,2019_May_20_1114,MusicAffectPsychophysiology2019,3.0.5,59.63890551106297,
To what extent did the music make you feel ,ASHAMED,30MonoWAV/30MonoF3.wav,1,2,2,3,,,,,0,11,11,2,0,6,6,4,,,,,,,,,1,1.20155481799884,046,001,2019_May_20_1114,MusicAffectPsychophysiology2019,3.0.5,59.63890551106297,
To what extent did the music make you feel ,FRUSTRATED,30MonoWAV/30MonoF3.wav,1,2,2,3,,,,,0,11,11,2,0,7,7,3,,,,,,,,,1,1.0022011840010236,046,001,2019_May_20_1114,MusicAffectPsychophysiology2019,3.0.5,59.63890551106297,
To what extent did the music make you feel ,SCARED,30MonoWAV/30MonoF3.wav,1,2,2,3,,,,,0,11,11,2,0,8,8,11,,,,,,,,,2,1.6223073920009483,046,001,2019_May_20_1114,MusicAffectPsychophysiology2019,3.0.5,59.63890551106297,
To what extent did the music make you feel ,SAD,30MonoWAV/30MonoF3.wav,1,2,2,3,,,,,0,11,11,2,0,9,9,0,,,,,,,,,1,2.1535308700003952,046,001,2019_May_20_1114,MusicAffectPsychophysiology2019,3.0.5,59.63890551106297,
To what extent did the music make you feel ,ALERT,30MonoWAV/30MonoF3.wav,1,2,2,3,,,,,0,11,11,2,0,10,10,8,,,,,,,,,3,1.553965232000337,046,001,2019_May_20_1114,MusicAffectPsychophysiology2019,3.0.5,59.63890551106297,
To what extent did the music make you feel ,EXCITED,30MonoWAV/30MonoF3.wav,1,2,2,3,,,,,0,11,11,2,0,11,11,7,,,,,,,,,3,1.3362973669973144,046,001,2019_May_20_1114,MusicAffectPsychophysiology2019,3.0.5,59.63890551106297,
,,30MonoWAV/30MonoF3.wav,1,2,2,3,,,,,0,11,11,2,,,,,,,,,,,,,,,046,001,2019_May_20_1114,MusicAffectPsychophysiology2019,3.0.5,59.63890551106297,
To what extent did the music make you feel ,FRUSTRATED,30MonoWAV/30MonoH2.wav,2,2,1,6,,,,,0,12,12,5,0,0,0,3,,,3,4.140018530000816,3,3.872915733998525,3,1.536860134001472,1,2.138934654001787,046,001,2019_May_20_1114,MusicAffectPsychophysiology2019,3.0.5,59.63890551106297,
To what extent did the music make you feel ,ANGRY,30MonoWAV/30MonoH2.wav,2,2,1,6,,,,,0,12,12,5,0,1,1,2,,,,,,,,,1,0.8023732549991109,046,001,2019_May_20_1114,MusicAffectPsychophysiology2019,3.0.5,59.63890551106297,
To what extent did the music make you feel ,SCARED,30MonoWAV/30MonoH2.wav,2,2,1,6,,,,,0,12,12,5,0,2,2,11,,,,,,,,,1,2.700625959001627,046,001,2019_May_20_1114,MusicAffectPsychophysiology2019,3.0.5,59.63890551106297,
To what extent did the music make you feel ,ASHAMED,30MonoWAV/30MonoH2.wav,2,2,1,6,,,,,0,12,12,5,0,3,3,4,,,,,,,,,1,0.768809051001881,046,001,2019_May_20_1114,MusicAffectPsychophysiology2019,3.0.5,59.63890551106297,
To what extent did the music make you feel ,ACTIVE,30MonoWAV/30MonoH2.wav,2,2,1,6,,,,,0,12,12,5,0,4,4,9,,,,,,,,,2,1.5392481199996837,046,001,2019_May_20_1114,MusicAffectPsychophysiology2019,3.0.5,59.63890551106297,
To what extent did the music make you feel ,HAPPY,30MonoWAV/30MonoH2.wav,2,2,1,6,,,,,0,12,12,5,0,5,5,6,,,,,,,,,3,1.3868613430022378,046,001,2019_May_20_1114,MusicAffectPsychophysiology2019,3.0.5,59.63890551106297,
To what extent did the music make you feel ,TENDER,30MonoWAV/30MonoH2.wav,2,2,1,6,,,,,0,12,12,5,0,6,6,10,,,,,,,,,1,2.104006698999001,046,001,2019_May_20_1114,MusicAffectPsychophysiology2019,3.0.5,59.63890551106297,
To what extent did the music make you feel ,GUILTY,30MonoWAV/30MonoH2.wav,2,2,1,6,,,,,0,12,12,5,0,7,7,5,,,,,,,,,1,0.7364969389964244,046,001,2019_May_20_1114,MusicAffectPsychophysiology2019,3.0.5,59.63890551106297,
To what extent did the music make you feel ,ALERT,30MonoWAV/30MonoH2.wav,2,2,1,6,,,,,0,12,12,5,0,8,8,8,,,,,,,,,2,2.2540227439967566,046,001,2019_May_20_1114,MusicAffectPsychophysiology2019,3.0.5,59.63890551106297,
To what extent did the music make you feel ,SAD,30MonoWAV/30MonoH2.wav,2,2,1,6,,,,,0,12,12,5,0,9,9,0,,,,,,,,,1,2.4886324819999572,046,001,2019_May_20_1114,MusicAffectPsychophysiology2019,3.0.5,59.63890551106297,
To what extent did the music make you feel ,EXCITED,30MonoWAV/30MonoH2.wav,2,2,1,6,,,,,0,12,12,5,0,10,10,7,,,,,,,,,2,1.2358092309987114,046,001,2019_May_20_1114,MusicAffectPsychophysiology2019,3.0.5,59.63890551106297,
To what extent did the music make you feel ,ANXIOUS ,30MonoWAV/30MonoH2.wav,2,2,1,6,,,,,0,12,12,5,0,11,11,1,,,,,,,,,2,1.2846450979996007,046,001,2019_May_20_1114,MusicAffectPsychophysiology2019,3.0.5,59.63890551106297,
,,30MonoWAV/30MonoH2.wav,2,2,1,6,,,,,0,12,12,5,,,,,,,,,,,,,,,046,001,2019_May_20_1114,MusicAffectPsychophysiology2019,3.0.5,59.63890551106297,
To what extent did the music make you feel ,ALERT,30MonoWAV/30MonoT1.wav,2,1,4,13,,,,,0,13,13,12,0,0,0,8,,,2,4.089882958000089,1,4.537830908997421,2,1.318589635000535,2,3.284471356000722,046,001,2019_May_20_1114,MusicAffectPsychophysiology2019,3.0.5,59.63890551106297,
To what extent did the music make you feel ,ASHAMED,30MonoWAV/30MonoT1.wav,2,1,4,13,,,,,0,13,13,12,0,1,1,4,,,,,,,,,1,0.9689749800018035,046,001,2019_May_20_1114,MusicAffectPsychophysiology2019,3.0.5,59.63890551106297,
To what extent did the music make you feel ,SCARED,30MonoWAV/30MonoT1.wav,2,1,4,13,,,,,0,13,13,12,0,2,2,11,,,,,,,,,2,1.2682432779984083,046,001,2019_May_20_1114,MusicAffectPsychophysiology2019,3.0.5,59.63890551106297,
To what extent did the music make you feel ,ANXIOUS ,30MonoWAV/30MonoT1.wav,2,1,4,13,,,,,0,13,13,12,0,3,3,1,,,,,,,,,3,1.98466192900014,046,001,2019_May_20_1114,MusicAffectPsychophysiology2019,3.0.5,59.63890551106297,
To what extent did the music make you feel ,ANGRY,30MonoWAV/30MonoT1.wav,2,1,4,13,,,,,0,13,13,12,0,4,4,2,,,,,,,,,1,0.8520582899982401,046,001,2019_May_20_1114,MusicAffectPsychophysiology2019,3.0.5,59.63890551106297,
To what extent did the music make you feel ,FRUSTRATED,30MonoWAV/30MonoT1.wav,2,1,4,13,,,,,0,13,13,12,0,5,5,3,,,,,,,,,1,1.136133960000734,046,001,2019_May_20_1114,MusicAffectPsychophysiology2019,3.0.5,59.63890551106297,
To what extent did the music make you feel ,SAD,30MonoWAV/30MonoT1.wav,2,1,4,13,,,,,0,13,13,12,0,6,6,0,,,,,,,,,3,2.5008336979990418,046,001,2019_May_20_1114,MusicAffectPsychophysiology2019,3.0.5,59.63890551106297,
To what extent did the music make you feel ,GUILTY,30MonoWAV/30MonoT1.wav,2,1,4,13,,,,,0,13,13,12,0,7,7,5,,,,,,,,,1,0.8342784140004369,046,001,2019_May_20_1114,MusicAffectPsychophysiology2019,3.0.5,59.63890551106297,
To what extent did the music make you feel ,TENDER,30MonoWAV/30MonoT1.wav,2,1,4,13,,,,,0,13,13,12,0,8,8,10,,,,,,,,,1,0.733885238001676,046,001,2019_May_20_1114,MusicAffectPsychophysiology2019,3.0.5,59.63890551106297,
To what extent did the music make you feel ,HAPPY,30MonoWAV/30MonoT1.wav,2,1,4,13,,,,,0,13,13,12,0,9,9,6,,,,,,,,,1,2.384665651999967,046,001,2019_May_20_1114,MusicAffectPsychophysiology2019,3.0.5,59.63890551106297,
To what extent did the music make you feel ,EXCITED,30MonoWAV/30MonoT1.wav,2,1,4,13,,,,,0,13,13,12,0,10,10,7,,,,,,,,,1,0.9854330649977783,046,001,2019_May_20_1114,MusicAffectPsychophysiology2019,3.0.5,59.63890551106297,
To what extent did the music make you feel ,ACTIVE,30MonoWAV/30MonoT1.wav,2,1,4,13,,,,,0,13,13,12,0,11,11,9,,,,,,,,,1,1.5016302980002365,046,001,2019_May_20_1114,MusicAffectPsychophysiology2019,3.0.5,59.63890551106297,
,,30MonoWAV/30MonoT1.wav,2,1,4,13,,,,,0,13,13,12,,,,,,,,,,,,,,,046,001,2019_May_20_1114,MusicAffectPsychophysiology2019,3.0.5,59.63890551106297,
To what extent did the music make you feel ,ASHAMED,30MonoWAV/30MonoT2.wav,2,1,4,14,,,,,0,14,14,13,0,0,0,4,,,3,2.150304742001026,3,2.501542376998259,3,1.718547842996486,2,2.2177150559982692,046,001,2019_May_20_1114,MusicAffectPsychophysiology2019,3.0.5,59.63890551106297,
To what extent did the music make you feel ,HAPPY,30MonoWAV/30MonoT2.wav,2,1,4,14,,,,,0,14,14,13,0,1,1,6,,,,,,,,,1,1.3495538999995915,046,001,2019_May_20_1114,MusicAffectPsychophysiology2019,3.0.5,59.63890551106297,
To what extent did the music make you feel ,GUILTY,30MonoWAV/30MonoT2.wav,2,1,4,14,,,,,0,14,14,13,0,2,2,5,,,,,,,,,1,7.083508281000832,046,001,2019_May_20_1114,MusicAffectPsychophysiology2019,3.0.5,59.63890551106297,
To what extent did the music make you feel ,ALERT,30MonoWAV/30MonoT2.wav,2,1,4,14,,,,,0,14,14,13,0,3,3,8,,,,,,,,,3,1.2521098960023664,046,001,2019_May_20_1114,MusicAffectPsychophysiology2019,3.0.5,59.63890551106297,
To what extent did the music make you feel ,ANGRY,30MonoWAV/30MonoT2.wav,2,1,4,14,,,,,0,14,14,13,0,4,4,2,,,,,,,,,1,2.9848916240007384,046,001,2019_May_20_1114,MusicAffectPsychophysiology2019,3.0.5,59.63890551106297,
To what extent did the music make you feel ,TENDER,30MonoWAV/30MonoT2.wav,2,1,4,14,,,,,0,14,14,13,0,5,5,10,,,,,,,,,3,1.9678310649978812,046,001,2019_May_20_1114,MusicAffectPsychophysiology2019,3.0.5,59.63890551106297,
To what extent did the music make you feel ,SCARED,30MonoWAV/30MonoT2.wav,2,1,4,14,,,,,0,14,14,13,0,6,6,11,,,,,,,,,1,1.6517202870018082,046,001,2019_May_20_1114,MusicAffectPsychophysiology2019,3.0.5,59.63890551106297,
To what extent did the music make you feel ,ACTIVE,30MonoWAV/30MonoT2.wav,2,1,4,14,,,,,0,14,14,13,0,7,7,9,,,,,,,,,2,1.3010566699995252,046,001,2019_May_20_1114,MusicAffectPsychophysiology2019,3.0.5,59.63890551106297,
To what extent did the music make you feel ,FRUSTRATED,30MonoWAV/30MonoT2.wav,2,1,4,14,,,,,0,14,14,13,0,8,8,3,,,,,,,,,1,1.0686894050013507,046,001,2019_May_20_1114,MusicAffectPsychophysiology2019,3.0.5,59.63890551106297,
To what extent did the music make you feel ,ANXIOUS ,30MonoWAV/30MonoT2.wav,2,1,4,14,,,,,0,14,14,13,0,9,9,1,,,,,,,,,2,1.0524599390009826,046,001,2019_May_20_1114,MusicAffectPsychophysiology2019,3.0.5,59.63890551106297,
To what extent did the music make you feel ,EXCITED,30MonoWAV/30MonoT2.wav,2,1,4,14,,,,,0,14,14,13,0,10,10,7,,,,,,,,,3,2.667957698999089,046,001,2019_May_20_1114,MusicAffectPsychophysiology2019,3.0.5,59.63890551106297,
To what extent did the music make you feel ,SAD,30MonoWAV/30MonoT2.wav,2,1,4,14,,,,,0,14,14,13,0,11,11,0,,,,,,,,,2,2.588656269999774,046,001,2019_May_20_1114,MusicAffectPsychophysiology2019,3.0.5,59.63890551106297,
,,30MonoWAV/30MonoT2.wav,2,1,4,14,,,,,0,14,14,13,,,,,,,,,,,,,,,046,001,2019_May_20_1114,MusicAffectPsychophysiology2019,3.0.5,59.63890551106297,
To what extent did the music make you feel ,ALERT,30MonoWAV/30MonoS1.wav,1,1,3,9,,,,,0,15,15,8,0,0,0,8,,,2,1.9842023830024118,1,5.901905878999969,2,2.439782354002091,2,2.4696543229983945,046,001,2019_May_20_1114,MusicAffectPsychophysiology2019,3.0.5,59.63890551106297,
To what extent did the music make you feel ,FRUSTRATED,30MonoWAV/30MonoS1.wav,1,1,3,9,,,,,0,15,15,8,0,1,1,3,,,,,,,,,3,1.4700178870007221,046,001,2019_May_20_1114,MusicAffectPsychophysiology2019,3.0.5,59.63890551106297,
To what extent did the music make you feel ,TENDER,30MonoWAV/30MonoS1.wav,1,1,3,9,,,,,0,15,15,8,0,2,2,10,,,,,,,,,1,1.4175632110018341,046,001,2019_May_20_1114,MusicAffectPsychophysiology2019,3.0.5,59.63890551106297,
To what extent did the music make you feel ,ASHAMED,30MonoWAV/30MonoS1.wav,1,1,3,9,,,,,0,15,15,8,0,3,3,4,,,,,,,,,1,1.4569970209995518,046,001,2019_May_20_1114,MusicAffectPsychophysiology2019,3.0.5,59.63890551106297,
To what extent did the music make you feel ,HAPPY,30MonoWAV/30MonoS1.wav,1,1,3,9,,,,,0,15,15,8,0,4,4,6,,,,,,,,,1,1.7336842069998966,046,001,2019_May_20_1114,MusicAffectPsychophysiology2019,3.0.5,59.63890551106297,
To what extent did the music make you feel ,SAD,30MonoWAV/30MonoS1.wav,1,1,3,9,,,,,0,15,15,8,0,5,5,0,,,,,,,,,3,2.2029811709981004,046,001,2019_May_20_1114,MusicAffectPsychophysiology2019,3.0.5,59.63890551106297,
To what extent did the music make you feel ,GUILTY,30MonoWAV/30MonoS1.wav,1,1,3,9,,,,,0,15,15,8,0,6,6,5,,,,,,,,,1,0.9850550039991504,046,001,2019_May_20_1114,MusicAffectPsychophysiology2019,3.0.5,59.63890551106297,
To what extent did the music make you feel ,ANGRY,30MonoWAV/30MonoS1.wav,1,1,3,9,,,,,0,15,15,8,0,7,7,2,,,,,,,,,1,2.1845835380008793,046,001,2019_May_20_1114,MusicAffectPsychophysiology2019,3.0.5,59.63890551106297,
To what extent did the music make you feel ,SCARED,30MonoWAV/30MonoS1.wav,1,1,3,9,,,,,0,15,15,8,0,8,8,11,,,,,,,,,2,1.3176735140004894,046,001,2019_May_20_1114,MusicAffectPsychophysiology2019,3.0.5,59.63890551106297,
To what extent did the music make you feel ,ANXIOUS ,30MonoWAV/30MonoS1.wav,1,1,3,9,,,,,0,15,15,8,0,9,9,1,,,,,,,,,3,1.2520454879995668,046,001,2019_May_20_1114,MusicAffectPsychophysiology2019,3.0.5,59.63890551106297,
To what extent did the music make you feel ,EXCITED,30MonoWAV/30MonoS1.wav,1,1,3,9,,,,,0,15,15,8,0,10,10,7,,,,,,,,,1,1.0683007929983432,046,001,2019_May_20_1114,MusicAffectPsychophysiology2019,3.0.5,59.63890551106297,
To what extent did the music make you feel ,ACTIVE,30MonoWAV/30MonoS1.wav,1,1,3,9,,,,,0,15,15,8,0,11,11,9,,,,,,,,,2,3.600916204999521,046,001,2019_May_20_1114,MusicAffectPsychophysiology2019,3.0.5,59.63890551106297,
,,30MonoWAV/30MonoS1.wav,1,1,3,9,,,,,0,15,15,8,,,,,,,,,,,,,,,046,001,2019_May_20_1114,MusicAffectPsychophysiology2019,3.0.5,59.63890551106297,
To what extent did the music make you feel ,HAPPY,30MonoWAV/30MonoH3.wav,2,2,1,7,,,,,1,0,16,6,0,0,0,6,,,5,2.0521085139989736,4,1.4849411549985234,3,2.7014502060010273,4,1.601877468998282,046,001,2019_May_20_1114,MusicAffectPsychophysiology2019,3.0.5,59.63890551106297,
To what extent did the music make you feel ,ASHAMED,30MonoWAV/30MonoH3.wav,2,2,1,7,,,,,1,0,16,6,0,1,1,4,,,,,,,,,1,1.0846225259992934,046,001,2019_May_20_1114,MusicAffectPsychophysiology2019,3.0.5,59.63890551106297,
To what extent did the music make you feel ,EXCITED,30MonoWAV/30MonoH3.wav,2,2,1,7,,,,,1,0,16,6,0,2,2,7,,,,,,,,,4,2.1177916859996913,046,001,2019_May_20_1114,MusicAffectPsychophysiology2019,3.0.5,59.63890551106297,
To what extent did the music make you feel ,GUILTY,30MonoWAV/30MonoH3.wav,2,2,1,7,,,,,1,0,16,6,0,3,3,5,,,,,,,,,1,0.8851457110031333,046,001,2019_May_20_1114,MusicAffectPsychophysiology2019,3.0.5,59.63890551106297,
To what extent did the music make you feel ,ALERT,30MonoWAV/30MonoH3.wav,2,2,1,7,,,,,1,0,16,6,0,4,4,8,,,,,,,,,5,1.1687846889981302,046,001,2019_May_20_1114,MusicAffectPsychophysiology2019,3.0.5,59.63890551106297,
To what extent did the music make you feel ,ANXIOUS ,30MonoWAV/30MonoH3.wav,2,2,1,7,,,,,1,0,16,6,0,5,5,1,,,,,,,,,2,1.185365096996975,046,001,2019_May_20_1114,MusicAffectPsychophysiology2019,3.0.5,59.63890551106297,
To what extent did the music make you feel ,SCARED,30MonoWAV/30MonoH3.wav,2,2,1,7,,,,,1,0,16,6,0,6,6,11,,,,,,,,,2,1.8353733250005462,046,001,2019_May_20_1114,MusicAffectPsychophysiology2019,3.0.5,59.63890551106297,
To what extent did the music make you feel ,TENDER,30MonoWAV/30MonoH3.wav,2,2,1,7,,,,,1,0,16,6,0,7,7,10,,,,,,,,,1,1.9181506770000851,046,001,2019_May_20_1114,MusicAffectPsychophysiology2019,3.0.5,59.63890551106297,
To what extent did the music make you feel ,ANGRY,30MonoWAV/30MonoH3.wav,2,2,1,7,,,,,1,0,16,6,0,8,8,2,,,,,,,,,1,0.8354231110024557,046,001,2019_May_20_1114,MusicAffectPsychophysiology2019,3.0.5,59.63890551106297,
To what extent did the music make you feel ,SAD,30MonoWAV/30MonoH3.wav,2,2,1,7,,,,,1,0,16,6,0,9,9,0,,,,,,,,,1,1.2011644599988358,046,001,2019_May_20_1114,MusicAffectPsychophysiology2019,3.0.5,59.63890551106297,
To what extent did the music make you feel ,FRUSTRATED,30MonoWAV/30MonoH3.wav,2,2,1,7,,,,,1,0,16,6,0,10,10,3,,,,,,,,,1,0.8513139629976649,046,001,2019_May_20_1114,MusicAffectPsychophysiology2019,3.0.5,59.63890551106297,
To what extent did the music make you feel ,ACTIVE,30MonoWAV/30MonoH3.wav,2,2,1,7,,,,,1,0,16,6,0,11,11,9,,,,,,,,,4,1.6844916970003396,046,001,2019_May_20_1114,MusicAffectPsychophysiology2019,3.0.5,59.63890551106297,
,,30MonoWAV/30MonoH3.wav,2,2,1,7,,,,,1,0,16,6,,,,,,,,,,,,,,,046,001,2019_May_20_1114,MusicAffectPsychophysiology2019,3.0.5,59.63890551106297,
To what extent did the music make you feel ,ASHAMED,30MonoWAV/30MonoS1.wav,1,1,3,9,,,,,1,1,17,8,0,0,0,4,,,3,6.767533591999381,3,2.1848517450016516,3,1.3170993300009286,1,1.2020025399979204,046,001,2019_May_20_1114,MusicAffectPsychophysiology2019,3.0.5,59.63890551106297,
To what extent did the music make you feel ,ACTIVE,30MonoWAV/30MonoS1.wav,1,1,3,9,,,,,1,1,17,8,0,1,1,9,,,,,,,,,3,2.285522353999113,046,001,2019_May_20_1114,MusicAffectPsychophysiology2019,3.0.5,59.63890551106297,
To what extent did the music make you feel ,GUILTY,30MonoWAV/30MonoS1.wav,1,1,3,9,,,,,1,1,17,8,0,2,2,5,,,,,,,,,1,0.9681425230010063,046,001,2019_May_20_1114,MusicAffectPsychophysiology2019,3.0.5,59.63890551106297,
To what extent did the music make you feel ,EXCITED,30MonoWAV/30MonoS1.wav,1,1,3,9,,,,,1,1,17,8,0,3,3,7,,,,,,,,,3,2.2854763169998478,046,001,2019_May_20_1114,MusicAffectPsychophysiology2019,3.0.5,59.63890551106297,
To what extent did the music make you feel ,SAD,30MonoWAV/30MonoS1.wav,1,1,3,9,,,,,1,1,17,8,0,4,4,0,,,,,,,,,2,1.3521081489998323,046,001,2019_May_20_1114,MusicAffectPsychophysiology2019,3.0.5,59.63890551106297,
To what extent did the music make you feel ,ANGRY,30MonoWAV/30MonoS1.wav,1,1,3,9,,,,,1,1,17,8,0,5,5,2,,,,,,,,,1,1.1498457029993006,046,001,2019_May_20_1114,MusicAffectPsychophysiology2019,3.0.5,59.63890551106297,
To what extent did the music make you feel ,HAPPY,30MonoWAV/30MonoS1.wav,1,1,3,9,,,,,1,1,17,8,0,6,6,6,,,,,,,,,3,3.551266995000333,046,001,2019_May_20_1114,MusicAffectPsychophysiology2019,3.0.5,59.63890551106297,
To what extent did the music make you feel ,FRUSTRATED,30MonoWAV/30MonoS1.wav,1,1,3,9,,,,,1,1,17,8,0,7,7,3,,,,,,,,,1,1.0178911090006295,046,001,2019_May_20_1114,MusicAffectPsychophysiology2019,3.0.5,59.63890551106297,
To what extent did the music make you feel ,ALERT,30MonoWAV/30MonoS1.wav,1,1,3,9,,,,,1,1,17,8,0,8,8,8,,,,,,,,,4,2.000135197999043,046,001,2019_May_20_1114,MusicAffectPsychophysiology2019,3.0.5,59.63890551106297,
To what extent did the music make you feel ,SCARED,30MonoWAV/30MonoS1.wav,1,1,3,9,,,,,1,1,17,8,0,9,9,11,,,,,,,,,2,1.486046679001447,046,001,2019_May_20_1114,MusicAffectPsychophysiology2019,3.0.5,59.63890551106297,
To what extent did the music make you feel ,TENDER,30MonoWAV/30MonoS1.wav,1,1,3,9,,,,,1,1,17,8,0,10,10,10,,,,,,,,,1,0.801938169002824,046,001,2019_May_20_1114,MusicAffectPsychophysiology2019,3.0.5,59.63890551106297,
To what extent did the music make you feel ,ANXIOUS ,30MonoWAV/30MonoS1.wav,1,1,3,9,,,,,1,1,17,8,0,11,11,1,,,,,,,,,2,1.0514885589982441,046,001,2019_May_20_1114,MusicAffectPsychophysiology2019,3.0.5,59.63890551106297,
,,30MonoWAV/30MonoS1.wav,1,1,3,9,,,,,1,1,17,8,,,,,,,,,,,,,,,046,001,2019_May_20_1114,MusicAffectPsychophysiology2019,3.0.5,59.63890551106297,
To what extent did the music make you feel ,SAD,30MonoWAV/30MonoH1.wav,2,2,1,5,,,,,1,2,18,4,0,0,0,0,,,5,3.8356016509969777,5,2.201059112998337,3,1.4853998760008835,1,1.7685135229985463,046,001,2019_May_20_1114,MusicAffectPsychophysiology2019,3.0.5,59.63890551106297,
To what extent did the music make you feel ,ANXIOUS ,30MonoWAV/30MonoH1.wav,2,2,1,5,,,,,1,2,18,4,0,1,1,1,,,,,,,,,1,0.8516236149989709,046,001,2019_May_20_1114,MusicAffectPsychophysiology2019,3.0.5,59.63890551106297,
To what extent did the music make you feel ,FRUSTRATED,30MonoWAV/30MonoH1.wav,2,2,1,5,,,,,1,2,18,4,0,2,2,3,,,,,,,,,1,1.301930450998043,046,001,2019_May_20_1114,MusicAffectPsychophysiology2019,3.0.5,59.63890551106297,
To what extent did the music make you feel ,HAPPY,30MonoWAV/30MonoH1.wav,2,2,1,5,,,,,1,2,18,4,0,3,3,6,,,,,,,,,5,2.43511405100071,046,001,2019_May_20_1114,MusicAffectPsychophysiology2019,3.0.5,59.63890551106297,
To what extent did the music make you feel ,EXCITED,30MonoWAV/30MonoH1.wav,2,2,1,5,,,,,1,2,18,4,0,4,4,7,,,,,,,,,4,1.0517079060009564,046,001,2019_May_20_1114,MusicAffectPsychophysiology2019,3.0.5,59.63890551106297,
To what extent did the music make you feel ,ASHAMED,30MonoWAV/30MonoH1.wav,2,2,1,5,,,,,1,2,18,4,0,5,5,4,,,,,,,,,1,1.1517737350004609,046,001,2019_May_20_1114,MusicAffectPsychophysiology2019,3.0.5,59.63890551106297,
To what extent did the music make you feel ,ANGRY,30MonoWAV/30MonoH1.wav,2,2,1,5,,,,,1,2,18,4,0,6,6,2,,,,,,,,,1,1.334446802000457,046,001,2019_May_20_1114,MusicAffectPsychophysiology2019,3.0.5,59.63890551106297,
To what extent did the music make you feel ,ALERT,30MonoWAV/30MonoH1.wav,2,2,1,5,,,,,1,2,18,4,0,7,7,8,,,,,,,,,5,2.0852744609983347,046,001,2019_May_20_1114,MusicAffectPsychophysiology2019,3.0.5,59.63890551106297,
To what extent did the music make you feel ,SCARED,30MonoWAV/30MonoH1.wav,2,2,1,5,,,,,1,2,18,4,0,8,8,11,,,,,,,,,1,0.9507858309989388,046,001,2019_May_20_1114,MusicAffectPsychophysiology2019,3.0.5,59.63890551106297,
To what extent did the music make you feel ,TENDER,30MonoWAV/30MonoH1.wav,2,2,1,5,,,,,1,2,18,4,0,9,9,10,,,,,,,,,1,1.3521831270008988,046,001,2019_May_20_1114,MusicAffectPsychophysiology2019,3.0.5,59.63890551106297,
To what extent did the music make you feel ,GUILTY,30MonoWAV/30MonoH1.wav,2,2,1,5,,,,,1,2,18,4,0,10,10,5,,,,,,,,,1,0.9518910529986897,046,001,2019_May_20_1114,MusicAffectPsychophysiology2019,3.0.5,59.63890551106297,
To what extent did the music make you feel ,ACTIVE,30MonoWAV/30MonoH1.wav,2,2,1,5,,,,,1,2,18,4,0,11,11,9,,,,,,,,,5,1.5514876839988574,046,001,2019_May_20_1114,MusicAffectPsychophysiology2019,3.0.5,59.63890551106297,
,,30MonoWAV/30MonoH1.wav,2,2,1,5,,,,,1,2,18,4,,,,,,,,,,,,,,,046,001,2019_May_20_1114,MusicAffectPsychophysiology2019,3.0.5,59.63890551106297,
To what extent did the music make you feel ,ALERT,30MonoWAV/30MonoT3.wav,2,1,4,15,,,,,1,3,19,14,0,0,0,8,,,3,3.440263018001133,3,3.2516350869991584,3,3.441995028002566,3,5.976013985000463,046,001,2019_May_20_1114,MusicAffectPsychophysiology2019,3.0.5,59.63890551106297,
To what extent did the music make you feel ,HAPPY,30MonoWAV/30MonoT3.wav,2,1,4,15,,,,,1,3,19,14,0,1,1,6,,,,,,,,,2,2.5685352930013323,046,001,2019_May_20_1114,MusicAffectPsychophysiology2019,3.0.5,59.63890551106297,
To what extent did the music make you feel ,ACTIVE,30MonoWAV/30MonoT3.wav,2,1,4,15,,,,,1,3,19,14,0,2,2,9,,,,,,,,,3,1.5840237390002585,046,001,2019_May_20_1114,MusicAffectPsychophysiology2019,3.0.5,59.63890551106297,
To what extent did the music make you feel ,SCARED,30MonoWAV/30MonoT3.wav,2,1,4,15,,,,,1,3,19,14,0,3,3,11,,,,,,,,,1,2.834447740999167,046,001,2019_May_20_1114,MusicAffectPsychophysiology2019,3.0.5,59.63890551106297,
To what extent did the music make you feel ,EXCITED,30MonoWAV/30MonoT3.wav,2,1,4,15,,,,,1,3,19,14,0,4,4,7,,,,,,,,,2,3.6839027400019404,046,001,2019_May_20_1114,MusicAffectPsychophysiology2019,3.0.5,59.63890551106297,
To what extent did the music make you feel ,ANXIOUS ,30MonoWAV/30MonoT3.wav,2,1,4,15,,,,,1,3,19,14,0,5,5,1,,,,,,,,,2,1.9518086690004566,046,001,2019_May_20_1114,MusicAffectPsychophysiology2019,3.0.5,59.63890551106297,
To what extent did the music make you feel ,SAD,30MonoWAV/30MonoT3.wav,2,1,4,15,,,,,1,3,19,14,0,6,6,0,,,,,,,,,3,1.900532497002132,046,001,2019_May_20_1114,MusicAffectPsychophysiology2019,3.0.5,59.63890551106297,
To what extent did the music make you feel ,GUILTY,30MonoWAV/30MonoT3.wav,2,1,4,15,,,,,1,3,19,14,0,7,7,5,,,,,,,,,1,5.590535846000421,046,001,2019_May_20_1114,MusicAffectPsychophysiology2019,3.0.5,59.63890551106297,
To what extent did the music make you feel ,FRUSTRATED,30MonoWAV/30MonoT3.wav,2,1,4,15,,,,,1,3,19,14,0,8,8,3,,,,,,,,,1,0.9191548039998452,046,001,2019_May_20_1114,MusicAffectPsychophysiology2019,3.0.5,59.63890551106297,
To what extent did the music make you feel ,ANGRY,30MonoWAV/30MonoT3.wav,2,1,4,15,,,,,1,3,19,14,0,9,9,2,,,,,,,,,1,0.9036510959995212,046,001,2019_May_20_1114,MusicAffectPsychophysiology2019,3.0.5,59.63890551106297,
To what extent did the music make you feel ,TENDER,30MonoWAV/30MonoT3.wav,2,1,4,15,,,,,1,3,19,14,0,10,10,10,,,,,,,,,2,1.4703246489989397,046,001,2019_May_20_1114,MusicAffectPsychophysiology2019,3.0.5,59.63890551106297,
To what extent did the music make you feel ,ASHAMED,30MonoWAV/30MonoT3.wav,2,1,4,15,,,,,1,3,19,14,0,11,11,4,,,,,,,,,1,0.7355422019973048,046,001,2019_May_20_1114,MusicAffectPsychophysiology2019,3.0.5,59.63890551106297,
,,30MonoWAV/30MonoT3.wav,2,1,4,15,,,,,1,3,19,14,,,,,,,,,,,,,,,046,001,2019_May_20_1114,MusicAffectPsychophysiology2019,3.0.5,59.63890551106297,
To what extent did the music make you feel ,ACTIVE,30MonoWAV/30MonoS2.wav,1,1,3,10,,,,,1,4,20,9,0,0,0,9,,,1,3.668884762999369,1,3.549262238000665,2,1.5854366200001095,2,3.584512197001459,046,001,2019_May_20_1114,MusicAffectPsychophysiology2019,3.0.5,59.63890551106297,
To what extent did the music make you feel ,FRUSTRATED,30MonoWAV/30MonoS2.wav,1,1,3,10,,,,,1,4,20,9,0,1,1,3,,,,,,,,,2,1.3016989509997074,046,001,2019_May_20_1114,MusicAffectPsychophysiology2019,3.0.5,59.63890551106297,
To what extent did the music make you feel ,SAD,30MonoWAV/30MonoS2.wav,1,1,3,10,,,,,1,4,20,9,0,2,2,0,,,,,,,,,4,2.401248410002154,046,001,2019_May_20_1114,MusicAffectPsychophysiology2019,3.0.5,59.63890551106297,
To what extent did the music make you feel ,EXCITED,30MonoWAV/30MonoS2.wav,1,1,3,10,,,,,1,4,20,9,0,3,3,7,,,,,,,,,1,1.3180222629998752,046,001,2019_May_20_1114,MusicAffectPsychophysiology2019,3.0.5,59.63890551106297,
To what extent did the music make you feel ,TENDER,30MonoWAV/30MonoS2.wav,1,1,3,10,,,,,1,4,20,9,0,4,4,10,,,,,,,,,2,2.1023624969966477,046,001,2019_May_20_1114,MusicAffectPsychophysiology2019,3.0.5,59.63890551106297,
To what extent did the music make you feel ,SCARED,30MonoWAV/30MonoS2.wav,1,1,3,10,,,,,1,4,20,9,0,5,5,11,,,,,,,,,3,1.8016422830005467,046,001,2019_May_20_1114,MusicAffectPsychophysiology2019,3.0.5,59.63890551106297,
To what extent did the music make you feel ,HAPPY,30MonoWAV/30MonoS2.wav,1,1,3,10,,,,,1,4,20,9,0,6,6,6,,,,,,,,,1,1.5018641349997779,046,001,2019_May_20_1114,MusicAffectPsychophysiology2019,3.0.5,59.63890551106297,
To what extent did the music make you feel ,ANXIOUS ,30MonoWAV/30MonoS2.wav,1,1,3,10,,,,,1,4,20,9,0,7,7,1,,,,,,,,,3,1.3184918609986198,046,001,2019_May_20_1114,MusicAffectPsychophysiology2019,3.0.5,59.63890551106297,
To what extent did the music make you feel ,ALERT,30MonoWAV/30MonoS2.wav,1,1,3,10,,,,,1,4,20,9,0,8,8,8,,,,,,,,,2,1.4835568019989296,046,001,2019_May_20_1114,MusicAffectPsychophysiology2019,3.0.5,59.63890551106297,
To what extent did the music make you feel ,ANGRY,30MonoWAV/30MonoS2.wav,1,1,3,10,,,,,1,4,20,9,0,9,9,2,,,,,,,,,1,1.9181670180005312,046,001,2019_May_20_1114,MusicAffectPsychophysiology2019,3.0.5,59.63890551106297,
To what extent did the music make you feel ,ASHAMED,30MonoWAV/30MonoS2.wav,1,1,3,10,,,,,1,4,20,9,0,10,10,4,,,,,,,,,1,0.8859888819970365,046,001,2019_May_20_1114,MusicAffectPsychophysiology2019,3.0.5,59.63890551106297,
To what extent did the music make you feel ,GUILTY,30MonoWAV/30MonoS2.wav,1,1,3,10,,,,,1,4,20,9,0,11,11,5,,,,,,,,,1,0.8682008670002688,046,001,2019_May_20_1114,MusicAffectPsychophysiology2019,3.0.5,59.63890551106297,
,,30MonoWAV/30MonoS2.wav,1,1,3,10,,,,,1,4,20,9,,,,,,,,,,,,,,,046,001,2019_May_20_1114,MusicAffectPsychophysiology2019,3.0.5,59.63890551106297,
To what extent did the music make you feel ,EXCITED,30MonoWAV/30MonoF4.wav,1,2,2,4,,,,,1,5,21,3,0,0,0,7,,,3,2.7016987549977785,2,2.8679330619997927,2,2.434246354998322,2,4.633932729000662,046,001,2019_May_20_1114,MusicAffectPsychophysiology2019,3.0.5,59.63890551106297,
To what extent did the music make you feel ,ACTIVE,30MonoWAV/30MonoF4.wav,1,2,2,4,,,,,1,5,21,3,0,1,1,9,,,,,,,,,3,1.5519168360006006,046,001,2019_May_20_1114,MusicAffectPsychophysiology2019,3.0.5,59.63890551106297,
To what extent did the music make you feel ,TENDER,30MonoWAV/30MonoF4.wav,1,2,2,4,,,,,1,5,21,3,0,2,2,10,,,,,,,,,1,1.2339474460022757,046,001,2019_May_20_1114,MusicAffectPsychophysiology2019,3.0.5,59.63890551106297,
To what extent did the music make you feel ,ANGRY,30MonoWAV/30MonoF4.wav,1,2,2,4,,,,,1,5,21,3,0,3,3,2,,,,,,,,,2,1.4347024490016338,046,001,2019_May_20_1114,MusicAffectPsychophysiology2019,3.0.5,59.63890551106297,
To what extent did the music make you feel ,FRUSTRATED,30MonoWAV/30MonoF4.wav,1,2,2,4,,,,,1,5,21,3,0,4,4,3,,,,,,,,,1,1.2690276729990728,046,001,2019_May_20_1114,MusicAffectPsychophysiology2019,3.0.5,59.63890551106297,
To what extent did the music make you feel ,ALERT,30MonoWAV/30MonoF4.wav,1,2,2,4,,,,,1,5,21,3,0,5,5,8,,,,,,,,,3,1.3848115440014226,046,001,2019_May_20_1114,MusicAffectPsychophysiology2019,3.0.5,59.63890551106297,
To what extent did the music make you feel ,ASHAMED,30MonoWAV/30MonoF4.wav,1,2,2,4,,,,,1,5,21,3,0,6,6,4,,,,,,,,,1,1.4347736970012193,046,001,2019_May_20_1114,MusicAffectPsychophysiology2019,3.0.5,59.63890551106297,
To what extent did the music make you feel ,GUILTY,30MonoWAV/30MonoF4.wav,1,2,2,4,,,,,1,5,21,3,0,7,7,5,,,,,,,,,1,0.649504460998287,046,001,2019_May_20_1114,MusicAffectPsychophysiology2019,3.0.5,59.63890551106297,
To what extent did the music make you feel ,ANXIOUS ,30MonoWAV/30MonoF4.wav,1,2,2,4,,,,,1,5,21,3,0,8,8,1,,,,,,,,,4,3.820254877999105,046,001,2019_May_20_1114,MusicAffectPsychophysiology2019,3.0.5,59.63890551106297,
To what extent did the music make you feel ,SCARED,30MonoWAV/30MonoF4.wav,1,2,2,4,,,,,1,5,21,3,0,9,9,11,,,,,,,,,4,0.867812706001132,046,001,2019_May_20_1114,MusicAffectPsychophysiology2019,3.0.5,59.63890551106297,
To what extent did the music make you feel ,HAPPY,30MonoWAV/30MonoF4.wav,1,2,2,4,,,,,1,5,21,3,0,10,10,6,,,,,,,,,1,1.20192527099789,046,001,2019_May_20_1114,MusicAffectPsychophysiology2019,3.0.5,59.63890551106297,
To what extent did the music make you feel ,SAD,30MonoWAV/30MonoF4.wav,1,2,2,4,,,,,1,5,21,3,0,11,11,0,,,,,,,,,2,1.450033663000795,046,001,2019_May_20_1114,MusicAffectPsychophysiology2019,3.0.5,59.63890551106297,
,,30MonoWAV/30MonoF4.wav,1,2,2,4,,,,,1,5,21,3,,,,,,,,,,,,,,,046,001,2019_May_20_1114,MusicAffectPsychophysiology2019,3.0.5,59.63890551106297,
To what extent did the music make you feel ,GUILTY,30MonoWAV/30MonoF2.wav,1,2,2,2,,,,,1,6,22,1,0,0,0,5,,,2,2.2981115549991955,1,1.4028093609995267,1,1.3669056319995434,1,1.4017308600014076,046,001,2019_May_20_1114,MusicAffectPsychophysiology2019,3.0.5,59.63890551106297,
To what extent did the music make you feel ,SCARED,30MonoWAV/30MonoF2.wav,1,2,2,2,,,,,1,6,22,1,0,1,1,11,,,,,,,,,5,2.4842507380017196,046,001,2019_May_20_1114,MusicAffectPsychophysiology2019,3.0.5,59.63890551106297,
To what extent did the music make you feel ,EXCITED,30MonoWAV/30MonoF2.wav,1,2,2,2,,,,,1,6,22,1,0,2,2,7,,,,,,,,,1,1.2017605660003028,046,001,2019_May_20_1114,MusicAffectPsychophysiology2019,3.0.5,59.63890551106297,
To what extent did the music make you feel ,ANXIOUS ,30MonoWAV/30MonoF2.wav,1,2,2,2,,,,,1,6,22,1,0,3,3,1,,,,,,,,,4,1.1848807399983343,046,001,2019_May_20_1114,MusicAffectPsychophysiology2019,3.0.5,59.63890551106297,
To what extent did the music make you feel ,ALERT,30MonoWAV/30MonoF2.wav,1,2,2,2,,,,,1,6,22,1,0,4,4,8,,,,,,,,,2,1.8016000460011128,046,001,2019_May_20_1114,MusicAffectPsychophysiology2019,3.0.5,59.63890551106297,
To what extent did the music make you feel ,SAD,30MonoWAV/30MonoF2.wav,1,2,2,2,,,,,1,6,22,1,0,5,5,0,,,,,,,,,3,2.750904264001292,046,001,2019_May_20_1114,MusicAffectPsychophysiology2019,3.0.5,59.63890551106297,
To what extent did the music make you feel ,TENDER,30MonoWAV/30MonoF2.wav,1,2,2,2,,,,,1,6,22,1,0,6,6,10,,,,,,,,,1,1.468083198000386,046,001,2019_May_20_1114,MusicAffectPsychophysiology2019,3.0.5,59.63890551106297,
To what extent did the music make you feel ,HAPPY,30MonoWAV/30MonoF2.wav,1,2,2,2,,,,,1,6,22,1,0,7,7,6,,,,,,,,,1,0.8020140659973549,046,001,2019_May_20_1114,MusicAffectPsychophysiology2019,3.0.5,59.63890551106297,
To what extent did the music make you feel ,ASHAMED,30MonoWAV/30MonoF2.wav,1,2,2,2,,,,,1,6,22,1,0,8,8,4,,,,,,,,,1,0.6166551669994078,046,001,2019_May_20_1114,MusicAffectPsychophysiology2019,3.0.5,59.63890551106297,
To what extent did the music make you feel ,ACTIVE,30MonoWAV/30MonoF2.wav,1,2,2,2,,,,,1,6,22,1,0,9,9,9,,,,,,,,,2,1.1685646749974694,046,001,2019_May_20_1114,MusicAffectPsychophysiology2019,3.0.5,59.63890551106297,
To what extent did the music make you feel ,ANGRY,30MonoWAV/30MonoF2.wav,1,2,2,2,,,,,1,6,22,1,0,10,10,2,,,,,,,,,1,1.3524802089996228,046,001,2019_May_20_1114,MusicAffectPsychophysiology2019,3.0.5,59.63890551106297,
To what extent did the music make you feel ,FRUSTRATED,30MonoWAV/30MonoF2.wav,1,2,2,2,,,,,1,6,22,1,0,11,11,3,,,,,,,,,2,1.3847219019990007,046,001,2019_May_20_1114,MusicAffectPsychophysiology2019,3.0.5,59.63890551106297,
,,30MonoWAV/30MonoF2.wav,1,2,2,2,,,,,1,6,22,1,,,,,,,,,,,,,,,046,001,2019_May_20_1114,MusicAffectPsychophysiology2019,3.0.5,59.63890551106297,
To what extent did the music make you feel ,ANXIOUS ,30MonoWAV/30MonoS4.wav,1,1,3,12,,,,,1,7,23,11,0,0,0,1,,,1,4.05247665600109,1,1.2997113199999148,2,3.007527432000643,3,2.304256962997897,046,001,2019_May_20_1114,MusicAffectPsychophysiology2019,3.0.5,59.63890551106297,
To what extent did the music make you feel ,SCARED,30MonoWAV/30MonoS4.wav,1,1,3,12,,,,,1,7,23,11,0,1,1,11,,,,,,,,,3,1.4701482869968459,046,001,2019_May_20_1114,MusicAffectPsychophysiology2019,3.0.5,59.63890551106297,
To what extent did the music make you feel ,GUILTY,30MonoWAV/30MonoS4.wav,1,1,3,12,,,,,1,7,23,11,0,2,2,5,,,,,,,,,1,1.1538735489993996,046,001,2019_May_20_1114,MusicAffectPsychophysiology2019,3.0.5,59.63890551106297,
To what extent did the music make you feel ,FRUSTRATED,30MonoWAV/30MonoS4.wav,1,1,3,12,,,,,1,7,23,11,0,3,3,3,,,,,,,,,2,1.5709876309992978,046,001,2019_May_20_1114,MusicAffectPsychophysiology2019,3.0.5,59.63890551106297,
To what extent did the music make you feel ,TENDER,30MonoWAV/30MonoS4.wav,1,1,3,12,,,,,1,7,23,11,0,4,4,10,,,,,,,,,2,2.085210432000167,046,001,2019_May_20_1114,MusicAffectPsychophysiology2019,3.0.5,59.63890551106297,
To what extent did the music make you feel ,HAPPY,30MonoWAV/30MonoS4.wav,1,1,3,12,,,,,1,7,23,11,0,5,5,6,,,,,,,,,1,1.9015032679999422,046,001,2019_May_20_1114,MusicAffectPsychophysiology2019,3.0.5,59.63890551106297,
To what extent did the music make you feel ,ANGRY,30MonoWAV/30MonoS4.wav,1,1,3,12,,,,,1,7,23,11,0,6,6,2,,,,,,,,,1,0.6510516550006287,046,001,2019_May_20_1114,MusicAffectPsychophysiology2019,3.0.5,59.63890551106297,
To what extent did the music make you feel ,SAD,30MonoWAV/30MonoS4.wav,1,1,3,12,,,,,1,7,23,11,0,7,7,0,,,,,,,,,5,2.9498510979974526,046,001,2019_May_20_1114,MusicAffectPsychophysiology2019,3.0.5,59.63890551106297,
To what extent did the music make you feel ,EXCITED,30MonoWAV/30MonoS4.wav,1,1,3,12,,,,,1,7,23,11,0,8,8,7,,,,,,,,,1,2.567763568000373,046,001,2019_May_20_1114,MusicAffectPsychophysiology2019,3.0.5,59.63890551106297,
To what extent did the music make you feel ,ASHAMED,30MonoWAV/30MonoS4.wav,1,1,3,12,,,,,1,7,23,11,0,9,9,4,,,,,,,,,1,2.0173968720009725,046,001,2019_May_20_1114,MusicAffectPsychophysiology2019,3.0.5,59.63890551106297,
To what extent did the music make you feel ,ACTIVE,30MonoWAV/30MonoS4.wav,1,1,3,12,,,,,1,7,23,11,0,10,10,9,,,,,,,,,2,2.1338288209990424,046,001,2019_May_20_1114,MusicAffectPsychophysiology2019,3.0.5,59.63890551106297,
To what extent did the music make you feel ,ALERT,30MonoWAV/30MonoS4.wav,1,1,3,12,,,,,1,7,23,11,0,11,11,8,,,,,,,,,2,1.236719586999243,046,001,2019_May_20_1114,MusicAffectPsychophysiology2019,3.0.5,59.63890551106297,
,,30MonoWAV/30MonoS4.wav,1,1,3,12,,,,,1,7,23,11,,,,,,,,,,,,,,,046,001,2019_May_20_1114,MusicAffectPsychophysiology2019,3.0.5,59.63890551106297,
To what extent did the music make you feel ,HAPPY,30MonoWAV/30MonoT4.wav,2,1,4,16,,,,,1,8,24,15,0,0,0,6,,,3,4.184258938999847,3,1.9850286729997606,3,2.501694640999631,3,5.266855669997312,046,001,2019_May_20_1114,MusicAffectPsychophysiology2019,3.0.5,59.63890551106297,
To what extent did the music make you feel ,SAD,30MonoWAV/30MonoT4.wav,2,1,4,16,,,,,1,8,24,15,0,1,1,0,,,,,,,,,2,1.4018429569987347,046,001,2019_May_20_1114,MusicAffectPsychophysiology2019,3.0.5,59.63890551106297,
To what extent did the music make you feel ,ALERT,30MonoWAV/30MonoT4.wav,2,1,4,16,,,,,1,8,24,15,0,2,2,8,,,,,,,,,4,3.2679798570025014,046,001,2019_May_20_1114,MusicAffectPsychophysiology2019,3.0.5,59.63890551106297,
To what extent did the music make you feel ,FRUSTRATED,30MonoWAV/30MonoT4.wav,2,1,4,16,,,,,1,8,24,15,0,3,3,3,,,,,,,,,1,2.334749446999922,046,001,2019_May_20_1114,MusicAffectPsychophysiology2019,3.0.5,59.63890551106297,
To what extent did the music make you feel ,SCARED,30MonoWAV/30MonoT4.wav,2,1,4,16,,,,,1,8,24,15,0,4,4,11,,,,,,,,,1,1.2348373120003089,046,001,2019_May_20_1114,MusicAffectPsychophysiology2019,3.0.5,59.63890551106297,
To what extent did the music make you feel ,ASHAMED,30MonoWAV/30MonoT4.wav,2,1,4,16,,,,,1,8,24,15,0,5,5,4,,,,,,,,,1,0.9012906880016089,046,001,2019_May_20_1114,MusicAffectPsychophysiology2019,3.0.5,59.63890551106297,
To what extent did the music make you feel ,ANGRY,30MonoWAV/30MonoT4.wav,2,1,4,16,,,,,1,8,24,15,0,6,6,2,,,,,,,,,1,0.6853054990024248,046,001,2019_May_20_1114,MusicAffectPsychophysiology2019,3.0.5,59.63890551106297,
To what extent did the music make you feel ,ANXIOUS ,30MonoWAV/30MonoT4.wav,2,1,4,16,,,,,1,8,24,15,0,7,7,1,,,,,,,,,2,2.502121863002685,046,001,2019_May_20_1114,MusicAffectPsychophysiology2019,3.0.5,59.63890551106297,
To what extent did the music make you feel ,TENDER,30MonoWAV/30MonoT4.wav,2,1,4,16,,,,,1,8,24,15,0,8,8,10,,,,,,,,,1,0.5346954369997547,046,001,2019_May_20_1114,MusicAffectPsychophysiology2019,3.0.5,59.63890551106297,
To what extent did the music make you feel ,GUILTY,30MonoWAV/30MonoT4.wav,2,1,4,16,,,,,1,8,24,15,0,9,9,5,,,,,,,,,1,1.268775499000185,046,001,2019_May_20_1114,MusicAffectPsychophysiology2019,3.0.5,59.63890551106297,
To what extent did the music make you feel ,EXCITED,30MonoWAV/30MonoT4.wav,2,1,4,16,,,,,1,8,24,15,0,10,10,7,,,,,,,,,2,2.2010544590011705,046,001,2019_May_20_1114,MusicAffectPsychophysiology2019,3.0.5,59.63890551106297,
To what extent did the music make you feel ,ACTIVE,30MonoWAV/30MonoT4.wav,2,1,4,16,,,,,1,8,24,15,0,11,11,9,,,,,,,,,4,2.4016940259971307,046,001,2019_May_20_1114,MusicAffectPsychophysiology2019,3.0.5,59.63890551106297,
,,30MonoWAV/30MonoT4.wav,2,1,4,16,,,,,1,8,24,15,,,,,,,,,,,,,,,046,001,2019_May_20_1114,MusicAffectPsychophysiology2019,3.0.5,59.63890551106297,
To what extent did the music make you feel ,ANXIOUS ,30MonoWAV/30MonoF3.wav,1,2,2,3,,,,,1,9,25,2,0,0,0,1,,,4,3.834730007998587,4,3.9509050769993337,3,1.5690010089965654,2,2.2849974860000657,046,001,2019_May_20_1114,MusicAffectPsychophysiology2019,3.0.5,59.63890551106297,
To what extent did the music make you feel ,TENDER,30MonoWAV/30MonoF3.wav,1,2,2,3,,,,,1,9,25,2,0,1,1,10,,,,,,,,,1,1.2837800390007033,046,001,2019_May_20_1114,MusicAffectPsychophysiology2019,3.0.5,59.63890551106297,
To what extent did the music make you feel ,GUILTY,30MonoWAV/30MonoF3.wav,1,2,2,3,,,,,1,9,25,2,0,2,2,5,,,,,,,,,1,0.8167612510005711,046,001,2019_May_20_1114,MusicAffectPsychophysiology2019,3.0.5,59.63890551106297,
To what extent did the music make you feel ,ANGRY,30MonoWAV/30MonoF3.wav,1,2,2,3,,,,,1,9,25,2,0,3,3,2,,,,,,,,,1,0.9687195880032959,046,001,2019_May_20_1114,MusicAffectPsychophysiology2019,3.0.5,59.63890551106297,
To what extent did the music make you feel ,EXCITED,30MonoWAV/30MonoF3.wav,1,2,2,3,,,,,1,9,25,2,0,4,4,7,,,,,,,,,4,1.817904133000411,046,001,2019_May_20_1114,MusicAffectPsychophysiology2019,3.0.5,59.63890551106297,
To what extent did the music make you feel ,HAPPY,30MonoWAV/30MonoF3.wav,1,2,2,3,,,,,1,9,25,2,0,5,5,6,,,,,,,,,3,2.967648289999488,046,001,2019_May_20_1114,MusicAffectPsychophysiology2019,3.0.5,59.63890551106297,
To what extent did the music make you feel ,ASHAMED,30MonoWAV/30MonoF3.wav,1,2,2,3,,,,,1,9,25,2,0,6,6,4,,,,,,,,,1,1.5665062579973892,046,001,2019_May_20_1114,MusicAffectPsychophysiology2019,3.0.5,59.63890551106297,
To what extent did the music make you feel ,SAD,30MonoWAV/30MonoF3.wav,1,2,2,3,,,,,1,9,25,2,0,7,7,0,,,,,,,,,1,1.5355785270003253,046,001,2019_May_20_1114,MusicAffectPsychophysiology2019,3.0.5,59.63890551106297,
To what extent did the music make you feel ,FRUSTRATED,30MonoWAV/30MonoF3.wav,1,2,2,3,,,,,1,9,25,2,0,8,8,3,,,,,,,,,1,1.4343049700000847,046,001,2019_May_20_1114,MusicAffectPsychophysiology2019,3.0.5,59.63890551106297,
To what extent did the music make you feel ,ACTIVE,30MonoWAV/30MonoF3.wav,1,2,2,3,,,,,1,9,25,2,0,9,9,9,,,,,,,,,5,2.434308861000318,046,001,2019_May_20_1114,MusicAffectPsychophysiology2019,3.0.5,59.63890551106297,
To what extent did the music make you feel ,SCARED,30MonoWAV/30MonoF3.wav,1,2,2,3,,,,,1,9,25,2,0,10,10,11,,,,,,,,,3,1.9518350279977312,046,001,2019_May_20_1114,MusicAffectPsychophysiology2019,3.0.5,59.63890551106297,
To what extent did the music make you feel ,ALERT,30MonoWAV/30MonoF3.wav,1,2,2,3,,,,,1,9,25,2,0,11,11,8,,,,,,,,,4,1.969052708001982,046,001,2019_May_20_1114,MusicAffectPsychophysiology2019,3.0.5,59.63890551106297,
,,30MonoWAV/30MonoF3.wav,1,2,2,3,,,,,1,9,25,2,,,,,,,,,,,,,,,046,001,2019_May_20_1114,MusicAffectPsychophysiology2019,3.0.5,59.63890551106297,
To what extent did the music make you feel ,HAPPY,30MonoWAV/30MonoH4.wav,2,2,1,8,,,,,1,10,26,7,0,0,0,6,,,5,2.084106491998682,5,0.8516958060026809,5,2.2184797299996717,4,3.4840142680004647,046,001,2019_May_20_1114,MusicAffectPsychophysiology2019,3.0.5,59.63890551106297,
To what extent did the music make you feel ,ANGRY,30MonoWAV/30MonoH4.wav,2,2,1,8,,,,,1,10,26,7,0,1,1,2,,,,,,,,,1,1.589170410999941,046,001,2019_May_20_1114,MusicAffectPsychophysiology2019,3.0.5,59.63890551106297,
To what extent did the music make you feel ,EXCITED,30MonoWAV/30MonoH4.wav,2,2,1,8,,,,,1,10,26,7,0,2,2,7,,,,,,,,,5,0.969978050001373,046,001,2019_May_20_1114,MusicAffectPsychophysiology2019,3.0.5,59.63890551106297,
To what extent did the music make you feel ,ACTIVE,30MonoWAV/30MonoH4.wav,2,2,1,8,,,,,1,10,26,7,0,3,3,9,,,,,,,,,5,1.2028246789996047,046,001,2019_May_20_1114,MusicAffectPsychophysiology2019,3.0.5,59.63890551106297,
To what extent did the music make you feel ,FRUSTRATED,30MonoWAV/30MonoH4.wav,2,2,1,8,,,,,1,10,26,7,0,4,4,3,,,,,,,,,1,1.4193445540004177,046,001,2019_May_20_1114,MusicAffectPsychophysiology2019,3.0.5,59.63890551106297,
To what extent did the music make you feel ,GUILTY,30MonoWAV/30MonoH4.wav,2,2,1,8,,,,,1,10,26,7,0,5,5,5,,,,,,,,,1,0.7358239200002572,046,001,2019_May_20_1114,MusicAffectPsychophysiology2019,3.0.5,59.63890551106297,
To what extent did the music make you feel ,SAD,30MonoWAV/30MonoH4.wav,2,2,1,8,,,,,1,10,26,7,0,6,6,0,,,,,,,,,1,1.069394565998664,046,001,2019_May_20_1114,MusicAffectPsychophysiology2019,3.0.5,59.63890551106297,
To what extent did the music make you feel ,ASHAMED,30MonoWAV/30MonoH4.wav,2,2,1,8,,,,,1,10,26,7,0,7,7,4,,,,,,,,,1,1.421773743997619,046,001,2019_May_20_1114,MusicAffectPsychophysiology2019,3.0.5,59.63890551106297,
To what extent did the music make you feel ,TENDER,30MonoWAV/30MonoH4.wav,2,2,1,8,,,,,1,10,26,7,0,8,8,10,,,,,,,,,1,2.9517561739994562,046,001,2019_May_20_1114,MusicAffectPsychophysiology2019,3.0.5,59.63890551106297,
To what extent did the music make you feel ,ANXIOUS ,30MonoWAV/30MonoH4.wav,2,2,1,8,,,,,1,10,26,7,0,9,9,1,,,,,,,,,1,0.9019626570006949,046,001,2019_May_20_1114,MusicAffectPsychophysiology2019,3.0.5,59.63890551106297,
To what extent did the music make you feel ,ALERT,30MonoWAV/30MonoH4.wav,2,2,1,8,,,,,1,10,26,7,0,10,10,8,,,,,,,,,5,1.5013933219997853,046,001,2019_May_20_1114,MusicAffectPsychophysiology2019,3.0.5,59.63890551106297,
To what extent did the music make you feel ,SCARED,30MonoWAV/30MonoH4.wav,2,2,1,8,,,,,1,10,26,7,0,11,11,11,,,,,,,,,1,1.4509515720019408,046,001,2019_May_20_1114,MusicAffectPsychophysiology2019,3.0.5,59.63890551106297,
,,30MonoWAV/30MonoH4.wav,2,2,1,8,,,,,1,10,26,7,,,,,,,,,,,,,,,046,001,2019_May_20_1114,MusicAffectPsychophysiology2019,3.0.5,59.63890551106297,
To what extent did the music make you feel ,ALERT,30MonoWAV/30MonoF1.wav,1,2,2,1,,,,,1,11,27,0,0,0,0,8,,,4,2.185492118002003,3,1.884588040997187,2,2.6849370279996947,5,3.100662138000189,046,001,2019_May_20_1114,MusicAffectPsychophysiology2019,3.0.5,59.63890551106297,
To what extent did the music make you feel ,FRUSTRATED,30MonoWAV/30MonoF1.wav,1,2,2,1,,,,,1,11,27,0,0,1,1,3,,,,,,,,,1,1.5677199400015525,046,001,2019_May_20_1114,MusicAffectPsychophysiology2019,3.0.5,59.63890551106297,
To what extent did the music make you feel ,EXCITED,30MonoWAV/30MonoF1.wav,1,2,2,1,,,,,1,11,27,0,0,2,2,7,,,,,,,,,3,2.401089607999893,046,001,2019_May_20_1114,MusicAffectPsychophysiology2019,3.0.5,59.63890551106297,
To what extent did the music make you feel ,ACTIVE,30MonoWAV/30MonoF1.wav,1,2,2,1,,,,,1,11,27,0,0,3,3,9,,,,,,,,,4,2.4347060639993288,046,001,2019_May_20_1114,MusicAffectPsychophysiology2019,3.0.5,59.63890551106297,
To what extent did the music make you feel ,SCARED,30MonoWAV/30MonoF1.wav,1,2,2,1,,,,,1,11,27,0,0,4,4,11,,,,,,,,,3,2.001416938001057,046,001,2019_May_20_1114,MusicAffectPsychophysiology2019,3.0.5,59.63890551106297,
To what extent did the music make you feel ,SAD,30MonoWAV/30MonoF1.wav,1,2,2,1,,,,,1,11,27,0,0,5,5,0,,,,,,,,,1,2.135626809002133,046,001,2019_May_20_1114,MusicAffectPsychophysiology2019,3.0.5,59.63890551106297,
To what extent did the music make you feel ,ASHAMED,30MonoWAV/30MonoF1.wav,1,2,2,1,,,,,1,11,27,0,0,6,6,4,,,,,,,,,1,1.1195144049997907,046,001,2019_May_20_1114,MusicAffectPsychophysiology2019,3.0.5,59.63890551106297,
To what extent did the music make you feel ,GUILTY,30MonoWAV/30MonoF1.wav,1,2,2,1,,,,,1,11,27,0,0,7,7,5,,,,,,,,,1,0.7998863639986666,046,001,2019_May_20_1114,MusicAffectPsychophysiology2019,3.0.5,59.63890551106297,
To what extent did the music make you feel ,ANGRY,30MonoWAV/30MonoF1.wav,1,2,2,1,,,,,1,11,27,0,0,8,8,2,,,,,,,,,2,1.7846667710000474,046,001,2019_May_20_1114,MusicAffectPsychophysiology2019,3.0.5,59.63890551106297,
To what extent did the music make you feel ,HAPPY,30MonoWAV/30MonoF1.wav,1,2,2,1,,,,,1,11,27,0,0,9,9,6,,,,,,,,,1,2.4350214559999586,046,001,2019_May_20_1114,MusicAffectPsychophysiology2019,3.0.5,59.63890551106297,
To what extent did the music make you feel ,TENDER,30MonoWAV/30MonoF1.wav,1,2,2,1,,,,,1,11,27,0,0,10,10,10,,,,,,,,,1,2.1339890800009016,046,001,2019_May_20_1114,MusicAffectPsychophysiology2019,3.0.5,59.63890551106297,
To what extent did the music make you feel ,ANXIOUS ,30MonoWAV/30MonoF1.wav,1,2,2,1,,,,,1,11,27,0,0,11,11,1,,,,,,,,,3,1.4521174920009798,046,001,2019_May_20_1114,MusicAffectPsychophysiology2019,3.0.5,59.63890551106297,
,,30MonoWAV/30MonoF1.wav,1,2,2,1,,,,,1,11,27,0,,,,,,,,,,,,,,,046,001,2019_May_20_1114,MusicAffectPsychophysiology2019,3.0.5,59.63890551106297,
To what extent did the music make you feel ,HAPPY,30MonoWAV/30MonoT2.wav,2,1,4,14,,,,,1,12,28,13,0,0,0,6,,,2,5.326266427000519,1,2.4870998000005784,1,2.5241901949993917,1,3.1176444689990603,046,001,2019_May_20_1114,MusicAffectPsychophysiology2019,3.0.5,59.63890551106297,
To what extent did the music make you feel ,FRUSTRATED,30MonoWAV/30MonoT2.wav,2,1,4,14,,,,,1,12,28,13,0,1,1,3,,,,,,,,,2,1.2350565359993197,046,001,2019_May_20_1114,MusicAffectPsychophysiology2019,3.0.5,59.63890551106297,
To what extent did the music make you feel ,TENDER,30MonoWAV/30MonoT2.wav,2,1,4,14,,,,,1,12,28,13,0,2,2,10,,,,,,,,,4,2.601248893999582,046,001,2019_May_20_1114,MusicAffectPsychophysiology2019,3.0.5,59.63890551106297,
To what extent did the music make you feel ,ASHAMED,30MonoWAV/30MonoT2.wav,2,1,4,14,,,,,1,12,28,13,0,3,3,4,,,,,,,,,1,1.368145636999543,046,001,2019_May_20_1114,MusicAffectPsychophysiology2019,3.0.5,59.63890551106297,
To what extent did the music make you feel ,SAD,30MonoWAV/30MonoT2.wav,2,1,4,14,,,,,1,12,28,13,0,4,4,0,,,,,,,,,4,1.8190026189986384,046,001,2019_May_20_1114,MusicAffectPsychophysiology2019,3.0.5,59.63890551106297,
To what extent did the music make you feel ,SCARED,30MonoWAV/30MonoT2.wav,2,1,4,14,,,,,1,12,28,13,0,5,5,11,,,,,,,,,2,2.117991852999694,046,001,2019_May_20_1114,MusicAffectPsychophysiology2019,3.0.5,59.63890551106297,
To what extent did the music make you feel ,ANXIOUS ,30MonoWAV/30MonoT2.wav,2,1,4,14,,,,,1,12,28,13,0,6,6,1,,,,,,,,,4,1.501565627000673,046,001,2019_May_20_1114,MusicAffectPsychophysiology2019,3.0.5,59.63890551106297,
To what extent did the music make you feel ,ANGRY,30MonoWAV/30MonoT2.wav,2,1,4,14,,,,,1,12,28,13,0,7,7,2,,,,,,,,,1,2.3016766459986684,046,001,2019_May_20_1114,MusicAffectPsychophysiology2019,3.0.5,59.63890551106297,
To what extent did the music make you feel ,ACTIVE,30MonoWAV/30MonoT2.wav,2,1,4,14,,,,,1,12,28,13,0,8,8,9,,,,,,,,,1,2.250879723000253,046,001,2019_May_20_1114,MusicAffectPsychophysiology2019,3.0.5,59.63890551106297,
To what extent did the music make you feel ,ALERT,30MonoWAV/30MonoT2.wav,2,1,4,14,,,,,1,12,28,13,0,9,9,8,,,,,,,,,2,1.1531138450009166,046,001,2019_May_20_1114,MusicAffectPsychophysiology2019,3.0.5,59.63890551106297,
To what extent did the music make you feel ,GUILTY,30MonoWAV/30MonoT2.wav,2,1,4,14,,,,,1,12,28,13,0,10,10,5,,,,,,,,,2,1.3860709600012342,046,001,2019_May_20_1114,MusicAffectPsychophysiology2019,3.0.5,59.63890551106297,
To what extent did the music make you feel ,EXCITED,30MonoWAV/30MonoT2.wav,2,1,4,14,,,,,1,12,28,13,0,11,11,7,,,,,,,,,1,2.0172697009984404,046,001,2019_May_20_1114,MusicAffectPsychophysiology2019,3.0.5,59.63890551106297,
,,30MonoWAV/30MonoT2.wav,2,1,4,14,,,,,1,12,28,13,,,,,,,,,,,,,,,046,001,2019_May_20_1114,MusicAffectPsychophysiology2019,3.0.5,59.63890551106297,
To what extent did the music make you feel ,GUILTY,30MonoWAV/30MonoT1.wav,2,1,4,13,,,,,1,13,29,12,0,0,0,5,,,2,3.034718213002634,2,3.6840585239988286,2,1.6683366910001496,1,1.801240960998257,046,001,2019_May_20_1114,MusicAffectPsychophysiology2019,3.0.5,59.63890551106297,
To what extent did the music make you feel ,EXCITED,30MonoWAV/30MonoT1.wav,2,1,4,13,,,,,1,13,29,12,0,1,1,7,,,,,,,,,1,3.31723339400196,046,001,2019_May_20_1114,MusicAffectPsychophysiology2019,3.0.5,59.63890551106297,
To what extent did the music make you feel ,SCARED,30MonoWAV/30MonoT1.wav,2,1,4,13,,,,,1,13,29,12,0,2,2,11,,,,,,,,,2,1.8833739499968942,046,001,2019_May_20_1114,MusicAffectPsychophysiology2019,3.0.5,59.63890551106297,
To what extent did the music make you feel ,HAPPY,30MonoWAV/30MonoT1.wav,2,1,4,13,,,,,1,13,29,12,0,3,3,6,,,,,,,,,2,2.0025479440009804,046,001,2019_May_20_1114,MusicAffectPsychophysiology2019,3.0.5,59.63890551106297,
To what extent did the music make you feel ,FRUSTRATED,30MonoWAV/30MonoT1.wav,2,1,4,13,,,,,1,13,29,12,0,4,4,3,,,,,,,,,1,2.785020302002522,046,001,2019_May_20_1114,MusicAffectPsychophysiology2019,3.0.5,59.63890551106297,
To what extent did the music make you feel ,ACTIVE,30MonoWAV/30MonoT1.wav,2,1,4,13,,,,,1,13,29,12,0,5,5,9,,,,,,,,,3,3.052102894998825,046,001,2019_May_20_1114,MusicAffectPsychophysiology2019,3.0.5,59.63890551106297,
To what extent did the music make you feel ,ALERT,30MonoWAV/30MonoT1.wav,2,1,4,13,,,,,1,13,29,12,0,6,6,8,,,,,,,,,4,2.7179253340000287,046,001,2019_May_20_1114,MusicAffectPsychophysiology2019,3.0.5,59.63890551106297,
To what extent did the music make you feel ,SAD,30MonoWAV/30MonoT1.wav,2,1,4,13,,,,,1,13,29,12,0,7,7,0,,,,,,,,,2,2.1500059200006945,046,001,2019_May_20_1114,MusicAffectPsychophysiology2019,3.0.5,59.63890551106297,
To what extent did the music make you feel ,ASHAMED,30MonoWAV/30MonoT1.wav,2,1,4,13,,,,,1,13,29,12,0,8,8,4,,,,,,,,,1,4.7677968999996665,046,001,2019_May_20_1114,MusicAffectPsychophysiology2019,3.0.5,59.63890551106297,
To what extent did the music make you feel ,TENDER,30MonoWAV/30MonoT1.wav,2,1,4,13,,,,,1,13,29,12,0,9,9,10,,,,,,,,,3,1.6328312489968084,046,001,2019_May_20_1114,MusicAffectPsychophysiology2019,3.0.5,59.63890551106297,
To what extent did the music make you feel ,ANGRY,30MonoWAV/30MonoT1.wav,2,1,4,13,,,,,1,13,29,12,0,10,10,2,,,,,,,,,1,1.1023634410012164,046,001,2019_May_20_1114,MusicAffectPsychophysiology2019,3.0.5,59.63890551106297,
To what extent did the music make you feel ,ANXIOUS ,30MonoWAV/30MonoT1.wav,2,1,4,13,,,,,1,13,29,12,0,11,11,1,,,,,,,,,3,2.652472186000523,046,001,2019_May_20_1114,MusicAffectPsychophysiology2019,3.0.5,59.63890551106297,
,,30MonoWAV/30MonoT1.wav,2,1,4,13,,,,,1,13,29,12,,,,,,,,,,,,,,,046,001,2019_May_20_1114,MusicAffectPsychophysiology2019,3.0.5,59.63890551106297,
To what extent did the music make you feel ,FRUSTRATED,30MonoWAV/30MonoS3.wav,1,1,3,11,,,,,1,14,30,10,0,0,0,3,,,3,5.834412862997851,1,3.468285103001108,1,2.3673884840027313,2,2.2226551290004863,046,001,2019_May_20_1114,MusicAffectPsychophysiology2019,3.0.5,59.63890551106297,
To what extent did the music make you feel ,SAD,30MonoWAV/30MonoS3.wav,1,1,3,11,,,,,1,14,30,10,0,1,1,0,,,,,,,,,4,2.4687698620000447,046,001,2019_May_20_1114,MusicAffectPsychophysiology2019,3.0.5,59.63890551106297,
To what extent did the music make you feel ,ANXIOUS ,30MonoWAV/30MonoS3.wav,1,1,3,11,,,,,1,14,30,10,0,2,2,1,,,,,,,,,3,2.3017919859994436,046,001,2019_May_20_1114,MusicAffectPsychophysiology2019,3.0.5,59.63890551106297,
To what extent did the music make you feel ,EXCITED,30MonoWAV/30MonoS3.wav,1,1,3,11,,,,,1,14,30,10,0,3,3,7,,,,,,,,,1,3.9346371769970574,046,001,2019_May_20_1114,MusicAffectPsychophysiology2019,3.0.5,59.63890551106297,
To what extent did the music make you feel ,SCARED,30MonoWAV/30MonoS3.wav,1,1,3,11,,,,,1,14,30,10,0,4,4,11,,,,,,,,,3,4.101390471998457,046,001,2019_May_20_1114,MusicAffectPsychophysiology2019,3.0.5,59.63890551106297,
To what extent did the music make you feel ,TENDER,30MonoWAV/30MonoS3.wav,1,1,3,11,,,,,1,14,30,10,0,5,5,10,,,,,,,,,2,1.3678786480013514,046,001,2019_May_20_1114,MusicAffectPsychophysiology2019,3.0.5,59.63890551106297,
To what extent did the music make you feel ,GUILTY,30MonoWAV/30MonoS3.wav,1,1,3,11,,,,,1,14,30,10,0,6,6,5,,,,,,,,,1,0.9030249879979237,046,001,2019_May_20_1114,MusicAffectPsychophysiology2019,3.0.5,59.63890551106297,
To what extent did the music make you feel ,ALERT,30MonoWAV/30MonoS3.wav,1,1,3,11,,,,,1,14,30,10,0,7,7,8,,,,,,,,,4,2.2711022309995315,046,001,2019_May_20_1114,MusicAffectPsychophysiology2019,3.0.5,59.63890551106297,
To what extent did the music make you feel ,ASHAMED,30MonoWAV/30MonoS3.wav,1,1,3,11,,,,,1,14,30,10,0,8,8,4,,,,,,,,,1,1.753006846000062,046,001,2019_May_20_1114,MusicAffectPsychophysiology2019,3.0.5,59.63890551106297,
To what extent did the music make you feel ,ACTIVE,30MonoWAV/30MonoS3.wav,1,1,3,11,,,,,1,14,30,10,0,9,9,9,,,,,,,,,4,1.920391612999083,046,001,2019_May_20_1114,MusicAffectPsychophysiology2019,3.0.5,59.63890551106297,
To what extent did the music make you feel ,ANGRY,30MonoWAV/30MonoS3.wav,1,1,3,11,,,,,1,14,30,10,0,10,10,2,,,,,,,,,1,0.9023857309985033,046,001,2019_May_20_1114,MusicAffectPsychophysiology2019,3.0.5,59.63890551106297,
To what extent did the music make you feel ,HAPPY,30MonoWAV/30MonoS3.wav,1,1,3,11,,,,,1,14,30,10,0,11,11,6,,,,,,,,,1,1.5365396220004186,046,001,2019_May_20_1114,MusicAffectPsychophysiology2019,3.0.5,59.63890551106297,
,,30MonoWAV/30MonoS3.wav,1,1,3,11,,,,,1,14,30,10,,,,,,,,,,,,,,,046,001,2019_May_20_1114,MusicAffectPsychophysiology2019,3.0.5,59.63890551106297,
To what extent did the music make you feel ,ANGRY,30MonoWAV/30MonoH2.wav,2,2,1,6,,,,,1,15,31,5,0,0,0,2,,,4,2.7187482449990057,3,2.0514338390021294,3,1.3851348129974212,1,1.4174206419993425,046,001,2019_May_20_1114,MusicAffectPsychophysiology2019,3.0.5,59.63890551106297,
To what extent did the music make you feel ,GUILTY,30MonoWAV/30MonoH2.wav,2,2,1,6,,,,,1,15,31,5,0,1,1,5,,,,,,,,,1,0.8844016389994067,046,001,2019_May_20_1114,MusicAffectPsychophysiology2019,3.0.5,59.63890551106297,
To what extent did the music make you feel ,ANXIOUS ,30MonoWAV/30MonoH2.wav,2,2,1,6,,,,,1,15,31,5,0,2,2,1,,,,,,,,,1,1.484637849000137,046,001,2019_May_20_1114,MusicAffectPsychophysiology2019,3.0.5,59.63890551106297,
To what extent did the music make you feel ,SAD,30MonoWAV/30MonoH2.wav,2,2,1,6,,,,,1,15,31,5,0,3,3,0,,,,,,,,,1,3.868270011997083,046,001,2019_May_20_1114,MusicAffectPsychophysiology2019,3.0.5,59.63890551106297,
To what extent did the music make you feel ,TENDER,30MonoWAV/30MonoH2.wav,2,2,1,6,,,,,1,15,31,5,0,4,4,10,,,,,,,,,2,1.3352164740026637,046,001,2019_May_20_1114,MusicAffectPsychophysiology2019,3.0.5,59.63890551106297,
To what extent did the music make you feel ,HAPPY,30MonoWAV/30MonoH2.wav,2,2,1,6,,,,,1,15,31,5,0,5,5,6,,,,,,,,,2,4.4013353059999645,046,001,2019_May_20_1114,MusicAffectPsychophysiology2019,3.0.5,59.63890551106297,
To what extent did the music make you feel ,SCARED,30MonoWAV/30MonoH2.wav,2,2,1,6,,,,,1,15,31,5,0,6,6,11,,,,,,,,,2,2.3354759300018486,046,001,2019_May_20_1114,MusicAffectPsychophysiology2019,3.0.5,59.63890551106297,
To what extent did the music make you feel ,EXCITED,30MonoWAV/30MonoH2.wav,2,2,1,6,,,,,1,15,31,5,0,7,7,7,,,,,,,,,3,2.651073009998072,046,001,2019_May_20_1114,MusicAffectPsychophysiology2019,3.0.5,59.63890551106297,
To what extent did the music make you feel ,ACTIVE,30MonoWAV/30MonoH2.wav,2,2,1,6,,,,,1,15,31,5,0,8,8,9,,,,,,,,,4,1.2686294880004425,046,001,2019_May_20_1114,MusicAffectPsychophysiology2019,3.0.5,59.63890551106297,
To what extent did the music make you feel ,FRUSTRATED,30MonoWAV/30MonoH2.wav,2,2,1,6,,,,,1,15,31,5,0,9,9,3,,,,,,,,,2,1.784202135000669,046,001,2019_May_20_1114,MusicAffectPsychophysiology2019,3.0.5,59.63890551106297,
To what extent did the music make you feel ,ALERT,30MonoWAV/30MonoH2.wav,2,2,1,6,,,,,1,15,31,5,0,10,10,8,,,,,,,,,4,1.736026585000218,046,001,2019_May_20_1114,MusicAffectPsychophysiology2019,3.0.5,59.63890551106297,
To what extent did the music make you feel ,ASHAMED,30MonoWAV/30MonoH2.wav,2,2,1,6,,,,,1,15,31,5,0,11,11,4,,,,,,,,,1,3.7016018530011934,046,001,2019_May_20_1114,MusicAffectPsychophysiology2019,3.0.5,59.63890551106297,
,,30MonoWAV/30MonoH2.wav,2,2,1,6,,,,,1,15,31,5,,,,,,,,,,,,,,,046,001,2019_May_20_1114,MusicAffectPsychophysiology2019,3.0.5,59.63890551106297,
