Instruction,Word,song,valence,arousal,affectcat,songmark,pracwords.thisRepN,pracwords.thisTrialN,pracwords.thisN,pracwords.thisIndex,songtrials.thisRepN,songtrials.thisTrialN,songtrials.thisN,songtrials.thisIndex,words.thisRepN,words.thisTrialN,words.thisN,words.thisIndex,begin.keys,begin.rt,arousalkey.keys,arousalkey.rt,valencekey.keys,valencekey.rt,likekey.keys,likekey.rt,WordResponse.keys,WordResponse.rt,key_resp_2.keys,key_resp_2.rt,participant,session,date,expName,psychopyVersion,frameRate,
,,,,,,,,,,,,,,,,,,,space,13.450886266997259,,,,,,,,,,,047,001,2019_May_20_1310,MusicAffectPsychophysiology2019,3.0.5,59.462136315296256,
,,,,,,,,,,,,,,,,,,,,,3,5.267987507999351,,,,,,,,,047,001,2019_May_20_1310,MusicAffectPsychophysiology2019,3.0.5,59.462136315296256,
,,,,,,,,,,,,,,,,,,,,,,,3,5.284425001998898,,,,,,,047,001,2019_May_20_1310,MusicAffectPsychophysiology2019,3.0.5,59.462136315296256,
,,,,,,,,,,,,,,,,,,,,,,,,,2,2.4854926359985257,,,,,047,001,2019_May_20_1310,MusicAffectPsychophysiology2019,3.0.5,59.462136315296256,
To what extent did the music make you feel ,SCARED,,,,,,0,0,0,11,,,,,,,,,,,,,,,,,1,3.13518201700208,,,047,001,2019_May_20_1310,MusicAffectPsychophysiology2019,3.0.5,59.462136315296256,
To what extent did the music make you feel ,EXCITED,,,,,,0,1,1,7,,,,,,,,,,,,,,,,,2,1.8851011360020493,,,047,001,2019_May_20_1310,MusicAffectPsychophysiology2019,3.0.5,59.462136315296256,
To what extent did the music make you feel ,GUILTY,,,,,,0,2,2,5,,,,,,,,,,,,,,,,,1,2.1171671699994477,,,047,001,2019_May_20_1310,MusicAffectPsychophysiology2019,3.0.5,59.462136315296256,
To what extent did the music make you feel ,SAD,,,,,,0,3,3,0,,,,,,,,,,,,,,,,,2,2.983877828999539,,,047,001,2019_May_20_1310,MusicAffectPsychophysiology2019,3.0.5,59.462136315296256,
To what extent did the music make you feel ,ANXIOUS ,,,,,,0,4,4,1,,,,,,,,,,,,,,,,,1,3.051925322994066,,,047,001,2019_May_20_1310,MusicAffectPsychophysiology2019,3.0.5,59.462136315296256,
To what extent did the music make you feel ,ANGRY,,,,,,0,5,5,2,,,,,,,,,,,,,,,,,1,1.1025760849952349,,,047,001,2019_May_20_1310,MusicAffectPsychophysiology2019,3.0.5,59.462136315296256,
To what extent did the music make you feel ,ACTIVE,,,,,,0,6,6,9,,,,,,,,,,,,,,,,,1,1.101882716997352,,,047,001,2019_May_20_1310,MusicAffectPsychophysiology2019,3.0.5,59.462136315296256,
To what extent did the music make you feel ,FRUSTRATED,,,,,,0,7,7,3,,,,,,,,,,,,,,,,,1,1.2348135309948702,,,047,001,2019_May_20_1310,MusicAffectPsychophysiology2019,3.0.5,59.462136315296256,
To what extent did the music make you feel ,ALERT,,,,,,0,8,8,8,,,,,,,,,,,,,,,,,1,3.4690036319952924,,,047,001,2019_May_20_1310,MusicAffectPsychophysiology2019,3.0.5,59.462136315296256,
To what extent did the music make you feel ,ASHAMED,,,,,,0,9,9,4,,,,,,,,,,,,,,,,,1,1.1847845040028915,,,047,001,2019_May_20_1310,MusicAffectPsychophysiology2019,3.0.5,59.462136315296256,
To what extent did the music make you feel ,HAPPY,,,,,,0,10,10,6,,,,,,,,,,,,,,,,,2,2.7025670099974377,,,047,001,2019_May_20_1310,MusicAffectPsychophysiology2019,3.0.5,59.462136315296256,
To what extent did the music make you feel ,TENDER,,,,,,0,11,11,10,,,,,,,,,,,,,,,,,2,1.2685100800008513,,,047,001,2019_May_20_1310,MusicAffectPsychophysiology2019,3.0.5,59.462136315296256,
To what extent did the music make you feel ,EXCITED,30MonoWAV/30MonoF3.wav,1,2,2,3,,,,,0,0,0,2,0,0,0,7,,,2,3.132993204999366,5,4.851592548999179,5,2.118045823997818,3,4.785265623002488,,,047,001,2019_May_20_1310,MusicAffectPsychophysiology2019,3.0.5,59.462136315296256,
To what extent did the music make you feel ,ACTIVE,30MonoWAV/30MonoF3.wav,1,2,2,3,,,,,0,0,0,2,0,1,1,9,,,,,,,,,2,2.5183853049966274,,,047,001,2019_May_20_1310,MusicAffectPsychophysiology2019,3.0.5,59.462136315296256,
To what extent did the music make you feel ,ASHAMED,30MonoWAV/30MonoF3.wav,1,2,2,3,,,,,0,0,0,2,0,2,2,4,,,,,,,,,1,1.0190106299996842,,,047,001,2019_May_20_1310,MusicAffectPsychophysiology2019,3.0.5,59.462136315296256,
To what extent did the music make you feel ,GUILTY,30MonoWAV/30MonoF3.wav,1,2,2,3,,,,,0,0,0,2,0,3,3,5,,,,,,,,,1,0.6849156969983596,,,047,001,2019_May_20_1310,MusicAffectPsychophysiology2019,3.0.5,59.462136315296256,
To what extent did the music make you feel ,TENDER,30MonoWAV/30MonoF3.wav,1,2,2,3,,,,,0,0,0,2,0,4,4,10,,,,,,,,,2,1.6175864939941675,,,047,001,2019_May_20_1310,MusicAffectPsychophysiology2019,3.0.5,59.462136315296256,
To what extent did the music make you feel ,ANGRY,30MonoWAV/30MonoF3.wav,1,2,2,3,,,,,0,0,0,2,0,5,5,2,,,,,,,,,1,0.9671772669971688,,,047,001,2019_May_20_1310,MusicAffectPsychophysiology2019,3.0.5,59.462136315296256,
To what extent did the music make you feel ,ANXIOUS ,30MonoWAV/30MonoF3.wav,1,2,2,3,,,,,0,0,0,2,0,6,6,1,,,,,,,,,1,1.0365253529962501,,,047,001,2019_May_20_1310,MusicAffectPsychophysiology2019,3.0.5,59.462136315296256,
To what extent did the music make you feel ,SCARED,30MonoWAV/30MonoF3.wav,1,2,2,3,,,,,0,0,0,2,0,7,7,11,,,,,,,,,1,0.8853253350025625,,,047,001,2019_May_20_1310,MusicAffectPsychophysiology2019,3.0.5,59.462136315296256,
To what extent did the music make you feel ,FRUSTRATED,30MonoWAV/30MonoF3.wav,1,2,2,3,,,,,0,0,0,2,0,8,8,3,,,,,,,,,1,1.0682047360023716,,,047,001,2019_May_20_1310,MusicAffectPsychophysiology2019,3.0.5,59.462136315296256,
To what extent did the music make you feel ,HAPPY,30MonoWAV/30MonoF3.wav,1,2,2,3,,,,,0,0,0,2,0,9,9,6,,,,,,,,,5,1.4683443160029128,,,047,001,2019_May_20_1310,MusicAffectPsychophysiology2019,3.0.5,59.462136315296256,
To what extent did the music make you feel ,SAD,30MonoWAV/30MonoF3.wav,1,2,2,3,,,,,0,0,0,2,0,10,10,0,,,,,,,,,1,1.6020867440020083,,,047,001,2019_May_20_1310,MusicAffectPsychophysiology2019,3.0.5,59.462136315296256,
To what extent did the music make you feel ,ALERT,30MonoWAV/30MonoF3.wav,1,2,2,3,,,,,0,0,0,2,0,11,11,8,,,,,,,,,3,2.733952250004222,,,047,001,2019_May_20_1310,MusicAffectPsychophysiology2019,3.0.5,59.462136315296256,
,,30MonoWAV/30MonoF3.wav,1,2,2,3,,,,,0,0,0,2,,,,,,,,,,,,,,,,,047,001,2019_May_20_1310,MusicAffectPsychophysiology2019,3.0.5,59.462136315296256,
To what extent did the music make you feel ,ALERT,30MonoWAV/30MonoT1.wav,2,1,4,13,,,,,0,1,1,12,0,0,0,8,,,1,3.00188392400014,2,3.0015229349955916,1,3.3498310249997303,1,2.5840255209986935,,,047,001,2019_May_20_1310,MusicAffectPsychophysiology2019,3.0.5,59.462136315296256,
To what extent did the music make you feel ,HAPPY,30MonoWAV/30MonoT1.wav,2,1,4,13,,,,,0,1,1,12,0,1,1,6,,,,,,,,,3,1.818214992999856,,,047,001,2019_May_20_1310,MusicAffectPsychophysiology2019,3.0.5,59.462136315296256,
To what extent did the music make you feel ,SCARED,30MonoWAV/30MonoT1.wav,2,1,4,13,,,,,0,1,1,12,0,2,2,11,,,,,,,,,1,1.3842596870017587,,,047,001,2019_May_20_1310,MusicAffectPsychophysiology2019,3.0.5,59.462136315296256,
To what extent did the music make you feel ,GUILTY,30MonoWAV/30MonoT1.wav,2,1,4,13,,,,,0,1,1,12,0,3,3,5,,,,,,,,,1,0.7522059800030547,,,047,001,2019_May_20_1310,MusicAffectPsychophysiology2019,3.0.5,59.462136315296256,
To what extent did the music make you feel ,ANXIOUS ,30MonoWAV/30MonoT1.wav,2,1,4,13,,,,,0,1,1,12,0,4,4,1,,,,,,,,,1,2.335736712004291,,,047,001,2019_May_20_1310,MusicAffectPsychophysiology2019,3.0.5,59.462136315296256,
To what extent did the music make you feel ,ASHAMED,30MonoWAV/30MonoT1.wav,2,1,4,13,,,,,0,1,1,12,0,5,5,4,,,,,,,,,1,0.9676866970039555,,,047,001,2019_May_20_1310,MusicAffectPsychophysiology2019,3.0.5,59.462136315296256,
To what extent did the music make you feel ,EXCITED,30MonoWAV/30MonoT1.wav,2,1,4,13,,,,,0,1,1,12,0,6,6,7,,,,,,,,,1,2.052187902001606,,,047,001,2019_May_20_1310,MusicAffectPsychophysiology2019,3.0.5,59.462136315296256,
To what extent did the music make you feel ,TENDER,30MonoWAV/30MonoT1.wav,2,1,4,13,,,,,0,1,1,12,0,7,7,10,,,,,,,,,2,4.450019930998678,,,047,001,2019_May_20_1310,MusicAffectPsychophysiology2019,3.0.5,59.462136315296256,
To what extent did the music make you feel ,ANGRY,30MonoWAV/30MonoT1.wav,2,1,4,13,,,,,0,1,1,12,0,8,8,2,,,,,,,,,1,1.1016903429990634,,,047,001,2019_May_20_1310,MusicAffectPsychophysiology2019,3.0.5,59.462136315296256,
To what extent did the music make you feel ,ACTIVE,30MonoWAV/30MonoT1.wav,2,1,4,13,,,,,0,1,1,12,0,9,9,9,,,,,,,,,1,4.0015829730036785,,,047,001,2019_May_20_1310,MusicAffectPsychophysiology2019,3.0.5,59.462136315296256,
To what extent did the music make you feel ,SAD,30MonoWAV/30MonoT1.wav,2,1,4,13,,,,,0,1,1,12,0,10,10,0,,,,,,,,,1,7.718039495004632,,,047,001,2019_May_20_1310,MusicAffectPsychophysiology2019,3.0.5,59.462136315296256,
To what extent did the music make you feel ,FRUSTRATED,30MonoWAV/30MonoT1.wav,2,1,4,13,,,,,0,1,1,12,0,11,11,3,,,,,,,,,1,3.4584648559975903,,,047,001,2019_May_20_1310,MusicAffectPsychophysiology2019,3.0.5,59.462136315296256,
,,30MonoWAV/30MonoT1.wav,2,1,4,13,,,,,0,1,1,12,,,,,,,,,,,,,,,,,047,001,2019_May_20_1310,MusicAffectPsychophysiology2019,3.0.5,59.462136315296256,
To what extent did the music make you feel ,ANXIOUS ,30MonoWAV/30MonoF1.wav,1,2,2,1,,,,,0,2,2,0,0,0,0,1,,,3,6.807140396995237,1,3.901341427997977,3,3.734159837003972,4,5.151977333000104,,,047,001,2019_May_20_1310,MusicAffectPsychophysiology2019,3.0.5,59.462136315296256,
To what extent did the music make you feel ,EXCITED,30MonoWAV/30MonoF1.wav,1,2,2,1,,,,,0,2,2,0,0,1,1,7,,,,,,,,,2,2.556465963003575,,,047,001,2019_May_20_1310,MusicAffectPsychophysiology2019,3.0.5,59.462136315296256,
To what extent did the music make you feel ,ANGRY,30MonoWAV/30MonoF1.wav,1,2,2,1,,,,,0,2,2,0,0,2,2,2,,,,,,,,,1,1.2525219289964298,,,047,001,2019_May_20_1310,MusicAffectPsychophysiology2019,3.0.5,59.462136315296256,
To what extent did the music make you feel ,ALERT,30MonoWAV/30MonoF1.wav,1,2,2,1,,,,,0,2,2,0,0,3,3,8,,,,,,,,,4,1.57043274899479,,,047,001,2019_May_20_1310,MusicAffectPsychophysiology2019,3.0.5,59.462136315296256,
To what extent did the music make you feel ,FRUSTRATED,30MonoWAV/30MonoF1.wav,1,2,2,1,,,,,0,2,2,0,0,4,4,3,,,,,,,,,1,1.203401197999483,,,047,001,2019_May_20_1310,MusicAffectPsychophysiology2019,3.0.5,59.462136315296256,
To what extent did the music make you feel ,HAPPY,30MonoWAV/30MonoF1.wav,1,2,2,1,,,,,0,2,2,0,0,5,5,6,,,,,,,,,2,2.6752274930040585,,,047,001,2019_May_20_1310,MusicAffectPsychophysiology2019,3.0.5,59.462136315296256,
To what extent did the music make you feel ,SAD,30MonoWAV/30MonoF1.wav,1,2,2,1,,,,,0,2,2,0,0,6,6,0,,,,,,,,,1,0.9343199499999173,,,047,001,2019_May_20_1310,MusicAffectPsychophysiology2019,3.0.5,59.462136315296256,
To what extent did the music make you feel ,GUILTY,30MonoWAV/30MonoF1.wav,1,2,2,1,,,,,0,2,2,0,0,7,7,5,,,,,,,,,1,0.8344746140064672,,,047,001,2019_May_20_1310,MusicAffectPsychophysiology2019,3.0.5,59.462136315296256,
To what extent did the music make you feel ,ACTIVE,30MonoWAV/30MonoF1.wav,1,2,2,1,,,,,0,2,2,0,0,8,8,9,,,,,,,,,2,1.484802488994319,,,047,001,2019_May_20_1310,MusicAffectPsychophysiology2019,3.0.5,59.462136315296256,
To what extent did the music make you feel ,ASHAMED,30MonoWAV/30MonoF1.wav,1,2,2,1,,,,,0,2,2,0,0,9,9,4,,,,,,,,,1,0.8181711249999353,,,047,001,2019_May_20_1310,MusicAffectPsychophysiology2019,3.0.5,59.462136315296256,
To what extent did the music make you feel ,SCARED,30MonoWAV/30MonoF1.wav,1,2,2,1,,,,,0,2,2,0,0,10,10,11,,,,,,,,,4,3.791149315002258,,,047,001,2019_May_20_1310,MusicAffectPsychophysiology2019,3.0.5,59.462136315296256,
To what extent did the music make you feel ,TENDER,30MonoWAV/30MonoF1.wav,1,2,2,1,,,,,0,2,2,0,0,11,11,10,,,,,,,,,2,2.721483208995778,,,047,001,2019_May_20_1310,MusicAffectPsychophysiology2019,3.0.5,59.462136315296256,
,,30MonoWAV/30MonoF1.wav,1,2,2,1,,,,,0,2,2,0,,,,,,,,,,,,,,,,,047,001,2019_May_20_1310,MusicAffectPsychophysiology2019,3.0.5,59.462136315296256,
To what extent did the music make you feel ,ANGRY,30MonoWAV/30MonoH2.wav,2,2,1,6,,,,,0,3,3,5,0,0,0,2,,,2,10.13336118299776,1,2.4186118299985537,2,2.3173781630030135,1,3.485377618999337,,,047,001,2019_May_20_1310,MusicAffectPsychophysiology2019,3.0.5,59.462136315296256,
To what extent did the music make you feel ,FRUSTRATED,30MonoWAV/30MonoH2.wav,2,2,1,6,,,,,0,3,3,5,0,1,1,3,,,,,,,,,1,0.885247468999296,,,047,001,2019_May_20_1310,MusicAffectPsychophysiology2019,3.0.5,59.462136315296256,
To what extent did the music make you feel ,ASHAMED,30MonoWAV/30MonoH2.wav,2,2,1,6,,,,,0,3,3,5,0,2,2,4,,,,,,,,,1,1.551364791004744,,,047,001,2019_May_20_1310,MusicAffectPsychophysiology2019,3.0.5,59.462136315296256,
To what extent did the music make you feel ,TENDER,30MonoWAV/30MonoH2.wav,2,2,1,6,,,,,0,3,3,5,0,3,3,10,,,,,,,,,1,4.61836122800014,,,047,001,2019_May_20_1310,MusicAffectPsychophysiology2019,3.0.5,59.462136315296256,
To what extent did the music make you feel ,HAPPY,30MonoWAV/30MonoH2.wav,2,2,1,6,,,,,0,3,3,5,0,4,4,6,,,,,,,,,1,1.4512007710000034,,,047,001,2019_May_20_1310,MusicAffectPsychophysiology2019,3.0.5,59.462136315296256,
To what extent did the music make you feel ,ALERT,30MonoWAV/30MonoH2.wav,2,2,1,6,,,,,0,3,3,5,0,5,5,8,,,,,,,,,2,2.134275816002628,,,047,001,2019_May_20_1310,MusicAffectPsychophysiology2019,3.0.5,59.462136315296256,
To what extent did the music make you feel ,SCARED,30MonoWAV/30MonoH2.wav,2,2,1,6,,,,,0,3,3,5,0,6,6,11,,,,,,,,,1,2.0016320340000675,,,047,001,2019_May_20_1310,MusicAffectPsychophysiology2019,3.0.5,59.462136315296256,
To what extent did the music make you feel ,EXCITED,30MonoWAV/30MonoH2.wav,2,2,1,6,,,,,0,3,3,5,0,7,7,7,,,,,,,,,1,1.4003868770014378,,,047,001,2019_May_20_1310,MusicAffectPsychophysiology2019,3.0.5,59.462136315296256,
To what extent did the music make you feel ,ANXIOUS ,30MonoWAV/30MonoH2.wav,2,2,1,6,,,,,0,3,3,5,0,8,8,1,,,,,,,,,1,2.417406081003719,,,047,001,2019_May_20_1310,MusicAffectPsychophysiology2019,3.0.5,59.462136315296256,
To what extent did the music make you feel ,GUILTY,30MonoWAV/30MonoH2.wav,2,2,1,6,,,,,0,3,3,5,0,9,9,5,,,,,,,,,1,1.1183140209977864,,,047,001,2019_May_20_1310,MusicAffectPsychophysiology2019,3.0.5,59.462136315296256,
To what extent did the music make you feel ,ACTIVE,30MonoWAV/30MonoH2.wav,2,2,1,6,,,,,0,3,3,5,0,10,10,9,,,,,,,,,1,2.434753929999715,,,047,001,2019_May_20_1310,MusicAffectPsychophysiology2019,3.0.5,59.462136315296256,
To what extent did the music make you feel ,SAD,30MonoWAV/30MonoH2.wav,2,2,1,6,,,,,0,3,3,5,0,11,11,0,,,,,,,,,1,0.9350545830020565,,,047,001,2019_May_20_1310,MusicAffectPsychophysiology2019,3.0.5,59.462136315296256,
,,30MonoWAV/30MonoH2.wav,2,2,1,6,,,,,0,3,3,5,,,,,,,,,,,,,,,,,047,001,2019_May_20_1310,MusicAffectPsychophysiology2019,3.0.5,59.462136315296256,
To what extent did the music make you feel ,ACTIVE,30MonoWAV/30MonoH3.wav,2,2,1,7,,,,,0,4,4,6,0,0,0,9,,,4,9.851611261998187,3,1.6844217059988296,3,2.751474696000514,2,5.866241880998132,,,047,001,2019_May_20_1310,MusicAffectPsychophysiology2019,3.0.5,59.462136315296256,
To what extent did the music make you feel ,ALERT,30MonoWAV/30MonoH3.wav,2,2,1,7,,,,,0,4,4,6,0,1,1,8,,,,,,,,,4,2.284429026003636,,,047,001,2019_May_20_1310,MusicAffectPsychophysiology2019,3.0.5,59.462136315296256,
To what extent did the music make you feel ,SCARED,30MonoWAV/30MonoH3.wav,2,2,1,7,,,,,0,4,4,6,0,2,2,11,,,,,,,,,1,1.6007610239976202,,,047,001,2019_May_20_1310,MusicAffectPsychophysiology2019,3.0.5,59.462136315296256,
To what extent did the music make you feel ,FRUSTRATED,30MonoWAV/30MonoH3.wav,2,2,1,7,,,,,0,4,4,6,0,3,3,3,,,,,,,,,1,0.7684786440004245,,,047,001,2019_May_20_1310,MusicAffectPsychophysiology2019,3.0.5,59.462136315296256,
To what extent did the music make you feel ,HAPPY,30MonoWAV/30MonoH3.wav,2,2,1,7,,,,,0,4,4,6,0,4,4,6,,,,,,,,,3,1.868458475000807,,,047,001,2019_May_20_1310,MusicAffectPsychophysiology2019,3.0.5,59.462136315296256,
To what extent did the music make you feel ,ANGRY,30MonoWAV/30MonoH3.wav,2,2,1,7,,,,,0,4,4,6,0,5,5,2,,,,,,,,,1,2.417695251002442,,,047,001,2019_May_20_1310,MusicAffectPsychophysiology2019,3.0.5,59.462136315296256,
To what extent did the music make you feel ,EXCITED,30MonoWAV/30MonoH3.wav,2,2,1,7,,,,,0,4,4,6,0,6,6,7,,,,,,,,,2,1.9017927890017745,,,047,001,2019_May_20_1310,MusicAffectPsychophysiology2019,3.0.5,59.462136315296256,
To what extent did the music make you feel ,SAD,30MonoWAV/30MonoH3.wav,2,2,1,7,,,,,0,4,4,6,0,7,7,0,,,,,,,,,1,0.9022066689940402,,,047,001,2019_May_20_1310,MusicAffectPsychophysiology2019,3.0.5,59.462136315296256,
To what extent did the music make you feel ,ANXIOUS ,30MonoWAV/30MonoH3.wav,2,2,1,7,,,,,0,4,4,6,0,8,8,1,,,,,,,,,1,1.0351000000009662,,,047,001,2019_May_20_1310,MusicAffectPsychophysiology2019,3.0.5,59.462136315296256,
To what extent did the music make you feel ,ASHAMED,30MonoWAV/30MonoH3.wav,2,2,1,7,,,,,0,4,4,6,0,9,9,4,,,,,,,,,1,0.8343662480037892,,,047,001,2019_May_20_1310,MusicAffectPsychophysiology2019,3.0.5,59.462136315296256,
To what extent did the music make you feel ,TENDER,30MonoWAV/30MonoH3.wav,2,2,1,7,,,,,0,4,4,6,0,10,10,10,,,,,,,,,1,5.433485932000622,,,047,001,2019_May_20_1310,MusicAffectPsychophysiology2019,3.0.5,59.462136315296256,
To what extent did the music make you feel ,GUILTY,30MonoWAV/30MonoH3.wav,2,2,1,7,,,,,0,4,4,6,0,11,11,5,,,,,,,,,1,0.8024306730003445,,,047,001,2019_May_20_1310,MusicAffectPsychophysiology2019,3.0.5,59.462136315296256,
,,30MonoWAV/30MonoH3.wav,2,2,1,7,,,,,0,4,4,6,,,,,,,,,,,,,,,,,047,001,2019_May_20_1310,MusicAffectPsychophysiology2019,3.0.5,59.462136315296256,
To what extent did the music make you feel ,ALERT,30MonoWAV/30MonoT2.wav,2,1,4,14,,,,,0,5,5,13,0,0,0,8,,,2,4.017713963999995,5,6.167896879000182,3,1.8339602109990665,2,4.801548628995079,,,047,001,2019_May_20_1310,MusicAffectPsychophysiology2019,3.0.5,59.462136315296256,
To what extent did the music make you feel ,ANXIOUS ,30MonoWAV/30MonoT2.wav,2,1,4,14,,,,,0,5,5,13,0,1,1,1,,,,,,,,,1,1.0182891900039976,,,047,001,2019_May_20_1310,MusicAffectPsychophysiology2019,3.0.5,59.462136315296256,
To what extent did the music make you feel ,FRUSTRATED,30MonoWAV/30MonoT2.wav,2,1,4,14,,,,,0,5,5,13,0,2,2,3,,,,,,,,,1,0.834460725003737,,,047,001,2019_May_20_1310,MusicAffectPsychophysiology2019,3.0.5,59.462136315296256,
To what extent did the music make you feel ,SCARED,30MonoWAV/30MonoT2.wav,2,1,4,14,,,,,0,5,5,13,0,3,3,11,,,,,,,,,1,0.8510171300004004,,,047,001,2019_May_20_1310,MusicAffectPsychophysiology2019,3.0.5,59.462136315296256,
To what extent did the music make you feel ,HAPPY,30MonoWAV/30MonoT2.wav,2,1,4,14,,,,,0,5,5,13,0,4,4,6,,,,,,,,,4,1.2354389499960234,,,047,001,2019_May_20_1310,MusicAffectPsychophysiology2019,3.0.5,59.462136315296256,
To what extent did the music make you feel ,GUILTY,30MonoWAV/30MonoT2.wav,2,1,4,14,,,,,0,5,5,13,0,5,5,5,,,,,,,,,1,0.8190038569955504,,,047,001,2019_May_20_1310,MusicAffectPsychophysiology2019,3.0.5,59.462136315296256,
To what extent did the music make you feel ,TENDER,30MonoWAV/30MonoT2.wav,2,1,4,14,,,,,0,5,5,13,0,6,6,10,,,,,,,,,3,1.6180801939990488,,,047,001,2019_May_20_1310,MusicAffectPsychophysiology2019,3.0.5,59.462136315296256,
To what extent did the music make you feel ,SAD,30MonoWAV/30MonoT2.wav,2,1,4,14,,,,,0,5,5,13,0,7,7,0,,,,,,,,,1,1.2854274650017032,,,047,001,2019_May_20_1310,MusicAffectPsychophysiology2019,3.0.5,59.462136315296256,
To what extent did the music make you feel ,ASHAMED,30MonoWAV/30MonoT2.wav,2,1,4,14,,,,,0,5,5,13,0,8,8,4,,,,,,,,,1,3.53490818899445,,,047,001,2019_May_20_1310,MusicAffectPsychophysiology2019,3.0.5,59.462136315296256,
To what extent did the music make you feel ,ACTIVE,30MonoWAV/30MonoT2.wav,2,1,4,14,,,,,0,5,5,13,0,9,9,9,,,,,,,,,1,1.0176634609961184,,,047,001,2019_May_20_1310,MusicAffectPsychophysiology2019,3.0.5,59.462136315296256,
To what extent did the music make you feel ,EXCITED,30MonoWAV/30MonoT2.wav,2,1,4,14,,,,,0,5,5,13,0,10,10,7,,,,,,,,,1,1.9517498900022474,,,047,001,2019_May_20_1310,MusicAffectPsychophysiology2019,3.0.5,59.462136315296256,
To what extent did the music make you feel ,ANGRY,30MonoWAV/30MonoT2.wav,2,1,4,14,,,,,0,5,5,13,0,11,11,2,,,,,,,,,1,0.6189376109978184,,,047,001,2019_May_20_1310,MusicAffectPsychophysiology2019,3.0.5,59.462136315296256,
,,30MonoWAV/30MonoT2.wav,2,1,4,14,,,,,0,5,5,13,,,,,,,,,,,,,,,,,047,001,2019_May_20_1310,MusicAffectPsychophysiology2019,3.0.5,59.462136315296256,
To what extent did the music make you feel ,GUILTY,30MonoWAV/30MonoH4.wav,2,2,1,8,,,,,0,6,6,7,0,0,0,5,,,5,2.5511944520039833,5,2.3678985820006346,4,3.118371192998893,1,1.3520352439954877,,,047,001,2019_May_20_1310,MusicAffectPsychophysiology2019,3.0.5,59.462136315296256,
To what extent did the music make you feel ,ANXIOUS ,30MonoWAV/30MonoH4.wav,2,2,1,8,,,,,0,6,6,7,0,1,1,1,,,,,,,,,1,1.484942545001104,,,047,001,2019_May_20_1310,MusicAffectPsychophysiology2019,3.0.5,59.462136315296256,
To what extent did the music make you feel ,TENDER,30MonoWAV/30MonoH4.wav,2,2,1,8,,,,,0,6,6,7,0,2,2,10,,,,,,,,,1,1.9511120719980681,,,047,001,2019_May_20_1310,MusicAffectPsychophysiology2019,3.0.5,59.462136315296256,
To what extent did the music make you feel ,FRUSTRATED,30MonoWAV/30MonoH4.wav,2,2,1,8,,,,,0,6,6,7,0,3,3,3,,,,,,,,,1,0.8024591520006652,,,047,001,2019_May_20_1310,MusicAffectPsychophysiology2019,3.0.5,59.462136315296256,
To what extent did the music make you feel ,HAPPY,30MonoWAV/30MonoH4.wav,2,2,1,8,,,,,0,6,6,7,0,4,4,6,,,,,,,,,5,1.4874569040039205,,,047,001,2019_May_20_1310,MusicAffectPsychophysiology2019,3.0.5,59.462136315296256,
To what extent did the music make you feel ,EXCITED,30MonoWAV/30MonoH4.wav,2,2,1,8,,,,,0,6,6,7,0,5,5,7,,,,,,,,,4,1.251355219996185,,,047,001,2019_May_20_1310,MusicAffectPsychophysiology2019,3.0.5,59.462136315296256,
To what extent did the music make you feel ,ANGRY,30MonoWAV/30MonoH4.wav,2,2,1,8,,,,,0,6,6,7,0,6,6,2,,,,,,,,,1,1.0513841209976817,,,047,001,2019_May_20_1310,MusicAffectPsychophysiology2019,3.0.5,59.462136315296256,
To what extent did the music make you feel ,ALERT,30MonoWAV/30MonoH4.wav,2,2,1,8,,,,,0,6,6,7,0,7,7,8,,,,,,,,,3,1.3884674750006525,,,047,001,2019_May_20_1310,MusicAffectPsychophysiology2019,3.0.5,59.462136315296256,
To what extent did the music make you feel ,ACTIVE,30MonoWAV/30MonoH4.wav,2,2,1,8,,,,,0,6,6,7,0,8,8,9,,,,,,,,,3,1.7709412880067248,,,047,001,2019_May_20_1310,MusicAffectPsychophysiology2019,3.0.5,59.462136315296256,
To what extent did the music make you feel ,SAD,30MonoWAV/30MonoH4.wav,2,2,1,8,,,,,0,6,6,7,0,9,9,0,,,,,,,,,1,2.488574842005619,,,047,001,2019_May_20_1310,MusicAffectPsychophysiology2019,3.0.5,59.462136315296256,
To what extent did the music make you feel ,SCARED,30MonoWAV/30MonoH4.wav,2,2,1,8,,,,,0,6,6,7,0,10,10,11,,,,,,,,,1,0.6862589119991753,,,047,001,2019_May_20_1310,MusicAffectPsychophysiology2019,3.0.5,59.462136315296256,
To what extent did the music make you feel ,ASHAMED,30MonoWAV/30MonoH4.wav,2,2,1,8,,,,,0,6,6,7,0,11,11,4,,,,,,,,,1,0.718849377000879,,,047,001,2019_May_20_1310,MusicAffectPsychophysiology2019,3.0.5,59.462136315296256,
,,30MonoWAV/30MonoH4.wav,2,2,1,8,,,,,0,6,6,7,,,,,,,,,,,,,,,,,047,001,2019_May_20_1310,MusicAffectPsychophysiology2019,3.0.5,59.462136315296256,
To what extent did the music make you feel ,SAD,30MonoWAV/30MonoF2.wav,1,2,2,2,,,,,0,7,7,1,0,0,0,0,,,2,2.8014279449998867,1,8.368836783003644,4,3.4686057009967044,1,2.068010917995707,,,047,001,2019_May_20_1310,MusicAffectPsychophysiology2019,3.0.5,59.462136315296256,
To what extent did the music make you feel ,HAPPY,30MonoWAV/30MonoF2.wav,1,2,2,2,,,,,0,7,7,1,0,1,1,6,,,,,,,,,1,2.6345828650009935,,,047,001,2019_May_20_1310,MusicAffectPsychophysiology2019,3.0.5,59.462136315296256,
To what extent did the music make you feel ,SCARED,30MonoWAV/30MonoF2.wav,1,2,2,2,,,,,0,7,7,1,0,2,2,11,,,,,,,,,2,2.5353947809999227,,,047,001,2019_May_20_1310,MusicAffectPsychophysiology2019,3.0.5,59.462136315296256,
To what extent did the music make you feel ,ASHAMED,30MonoWAV/30MonoF2.wav,1,2,2,2,,,,,0,7,7,1,0,3,3,4,,,,,,,,,1,1.5515950359986164,,,047,001,2019_May_20_1310,MusicAffectPsychophysiology2019,3.0.5,59.462136315296256,
To what extent did the music make you feel ,TENDER,30MonoWAV/30MonoF2.wav,1,2,2,2,,,,,0,7,7,1,0,4,4,10,,,,,,,,,2,1.91750585900445,,,047,001,2019_May_20_1310,MusicAffectPsychophysiology2019,3.0.5,59.462136315296256,
To what extent did the music make you feel ,ACTIVE,30MonoWAV/30MonoF2.wav,1,2,2,2,,,,,0,7,7,1,0,5,5,9,,,,,,,,,1,2.2345646419998957,,,047,001,2019_May_20_1310,MusicAffectPsychophysiology2019,3.0.5,59.462136315296256,
To what extent did the music make you feel ,ALERT,30MonoWAV/30MonoF2.wav,1,2,2,2,,,,,0,7,7,1,0,6,6,8,,,,,,,,,2,1.9021499890004634,,,047,001,2019_May_20_1310,MusicAffectPsychophysiology2019,3.0.5,59.462136315296256,
To what extent did the music make you feel ,ANXIOUS ,30MonoWAV/30MonoF2.wav,1,2,2,2,,,,,0,7,7,1,0,7,7,1,,,,,,,,,1,1.1897356049958034,,,047,001,2019_May_20_1310,MusicAffectPsychophysiology2019,3.0.5,59.462136315296256,
To what extent did the music make you feel ,FRUSTRATED,30MonoWAV/30MonoF2.wav,1,2,2,2,,,,,0,7,7,1,0,8,8,3,,,,,,,,,1,1.4362645219953265,,,047,001,2019_May_20_1310,MusicAffectPsychophysiology2019,3.0.5,59.462136315296256,
To what extent did the music make you feel ,GUILTY,30MonoWAV/30MonoF2.wav,1,2,2,2,,,,,0,7,7,1,0,9,9,5,,,,,,,,,1,0.8860419920019922,,,047,001,2019_May_20_1310,MusicAffectPsychophysiology2019,3.0.5,59.462136315296256,
To what extent did the music make you feel ,EXCITED,30MonoWAV/30MonoF2.wav,1,2,2,2,,,,,0,7,7,1,0,10,10,7,,,,,,,,,3,8.044776830000046,,,047,001,2019_May_20_1310,MusicAffectPsychophysiology2019,3.0.5,59.462136315296256,
To what extent did the music make you feel ,ANGRY,30MonoWAV/30MonoF2.wav,1,2,2,2,,,,,0,7,7,1,0,11,11,2,,,,,,,,,1,1.568500474000757,,,047,001,2019_May_20_1310,MusicAffectPsychophysiology2019,3.0.5,59.462136315296256,
,,30MonoWAV/30MonoF2.wav,1,2,2,2,,,,,0,7,7,1,,,,,,,,,,,,,,,,,047,001,2019_May_20_1310,MusicAffectPsychophysiology2019,3.0.5,59.462136315296256,
To what extent did the music make you feel ,EXCITED,30MonoWAV/30MonoT3.wav,2,1,4,15,,,,,0,8,8,14,0,0,0,7,,,2,2.8197755750006763,5,1.5213520530014648,4,1.3740462679998018,1,1.6854922380007338,,,047,001,2019_May_20_1310,MusicAffectPsychophysiology2019,3.0.5,59.462136315296256,
To what extent did the music make you feel ,ASHAMED,30MonoWAV/30MonoT3.wav,2,1,4,15,,,,,0,8,8,14,0,1,1,4,,,,,,,,,1,0.5838527450032416,,,047,001,2019_May_20_1310,MusicAffectPsychophysiology2019,3.0.5,59.462136315296256,
To what extent did the music make you feel ,GUILTY,30MonoWAV/30MonoT3.wav,2,1,4,15,,,,,0,8,8,14,0,2,2,5,,,,,,,,,1,0.9029188560016337,,,047,001,2019_May_20_1310,MusicAffectPsychophysiology2019,3.0.5,59.462136315296256,
To what extent did the music make you feel ,SAD,30MonoWAV/30MonoT3.wav,2,1,4,15,,,,,0,8,8,14,0,3,3,0,,,,,,,,,1,2.8024396059990977,,,047,001,2019_May_20_1310,MusicAffectPsychophysiology2019,3.0.5,59.462136315296256,
To what extent did the music make you feel ,ANXIOUS ,30MonoWAV/30MonoT3.wav,2,1,4,15,,,,,0,8,8,14,0,4,4,1,,,,,,,,,1,1.2193661720011733,,,047,001,2019_May_20_1310,MusicAffectPsychophysiology2019,3.0.5,59.462136315296256,
To what extent did the music make you feel ,FRUSTRATED,30MonoWAV/30MonoT3.wav,2,1,4,15,,,,,0,8,8,14,0,5,5,3,,,,,,,,,1,5.162282108001818,,,047,001,2019_May_20_1310,MusicAffectPsychophysiology2019,3.0.5,59.462136315296256,
To what extent did the music make you feel ,ACTIVE,30MonoWAV/30MonoT3.wav,2,1,4,15,,,,,0,8,8,14,0,6,6,9,,,,,,,,,1,2.500699230004102,,,047,001,2019_May_20_1310,MusicAffectPsychophysiology2019,3.0.5,59.462136315296256,
To what extent did the music make you feel ,SCARED,30MonoWAV/30MonoT3.wav,2,1,4,15,,,,,0,8,8,14,0,7,7,11,,,,,,,,,1,1.2694134230041527,,,047,001,2019_May_20_1310,MusicAffectPsychophysiology2019,3.0.5,59.462136315296256,
To what extent did the music make you feel ,ANGRY,30MonoWAV/30MonoT3.wav,2,1,4,15,,,,,0,8,8,14,0,8,8,2,,,,,,,,,1,3.4685839180019684,,,047,001,2019_May_20_1310,MusicAffectPsychophysiology2019,3.0.5,59.462136315296256,
To what extent did the music make you feel ,HAPPY,30MonoWAV/30MonoT3.wav,2,1,4,15,,,,,0,8,8,14,0,9,9,6,,,,,,,,,2,1.2172246750051272,,,047,001,2019_May_20_1310,MusicAffectPsychophysiology2019,3.0.5,59.462136315296256,
To what extent did the music make you feel ,TENDER,30MonoWAV/30MonoT3.wav,2,1,4,15,,,,,0,8,8,14,0,10,10,10,,,,,,,,,3,1.5869427889992949,,,047,001,2019_May_20_1310,MusicAffectPsychophysiology2019,3.0.5,59.462136315296256,
To what extent did the music make you feel ,ALERT,30MonoWAV/30MonoT3.wav,2,1,4,15,,,,,0,8,8,14,0,11,11,8,,,,,,,,,2,3.8688000670008478,,,047,001,2019_May_20_1310,MusicAffectPsychophysiology2019,3.0.5,59.462136315296256,
,,30MonoWAV/30MonoT3.wav,2,1,4,15,,,,,0,8,8,14,,,,,,,,,,,,,,,,,047,001,2019_May_20_1310,MusicAffectPsychophysiology2019,3.0.5,59.462136315296256,
To what extent did the music make you feel ,ALERT,30MonoWAV/30MonoH1.wav,2,2,1,5,,,,,0,9,9,4,0,0,0,8,,,3,2.3692789699998684,4,1.7008278540015453,4,1.4019044970045798,3,1.6847252739971736,,,047,001,2019_May_20_1310,MusicAffectPsychophysiology2019,3.0.5,59.462136315296256,
To what extent did the music make you feel ,SCARED,30MonoWAV/30MonoH1.wav,2,2,1,5,,,,,0,9,9,4,0,1,1,11,,,,,,,,,1,1.3181806840002537,,,047,001,2019_May_20_1310,MusicAffectPsychophysiology2019,3.0.5,59.462136315296256,
To what extent did the music make you feel ,ACTIVE,30MonoWAV/30MonoH1.wav,2,2,1,5,,,,,0,9,9,4,0,2,2,9,,,,,,,,,1,1.1181220180005766,,,047,001,2019_May_20_1310,MusicAffectPsychophysiology2019,3.0.5,59.462136315296256,
To what extent did the music make you feel ,ANXIOUS ,30MonoWAV/30MonoH1.wav,2,2,1,5,,,,,0,9,9,4,0,3,3,1,,,,,,,,,1,1.983992590001435,,,047,001,2019_May_20_1310,MusicAffectPsychophysiology2019,3.0.5,59.462136315296256,
To what extent did the music make you feel ,ANGRY,30MonoWAV/30MonoH1.wav,2,2,1,5,,,,,0,9,9,4,0,4,4,2,,,,,,,,,1,0.7851246760037611,,,047,001,2019_May_20_1310,MusicAffectPsychophysiology2019,3.0.5,59.462136315296256,
To what extent did the music make you feel ,SAD,30MonoWAV/30MonoH1.wav,2,2,1,5,,,,,0,9,9,4,0,5,5,0,,,,,,,,,1,1.5516403750007157,,,047,001,2019_May_20_1310,MusicAffectPsychophysiology2019,3.0.5,59.462136315296256,
To what extent did the music make you feel ,EXCITED,30MonoWAV/30MonoH1.wav,2,2,1,5,,,,,0,9,9,4,0,6,6,7,,,,,,,,,2,1.7022993319988018,,,047,001,2019_May_20_1310,MusicAffectPsychophysiology2019,3.0.5,59.462136315296256,
To what extent did the music make you feel ,TENDER,30MonoWAV/30MonoH1.wav,2,2,1,5,,,,,0,9,9,4,0,7,7,10,,,,,,,,,1,0.8855202429986093,,,047,001,2019_May_20_1310,MusicAffectPsychophysiology2019,3.0.5,59.462136315296256,
To what extent did the music make you feel ,GUILTY,30MonoWAV/30MonoH1.wav,2,2,1,5,,,,,0,9,9,4,0,8,8,5,,,,,,,,,1,1.0343050029987353,,,047,001,2019_May_20_1310,MusicAffectPsychophysiology2019,3.0.5,59.462136315296256,
To what extent did the music make you feel ,ASHAMED,30MonoWAV/30MonoH1.wav,2,2,1,5,,,,,0,9,9,4,0,9,9,4,,,,,,,,,1,3.4692015160035226,,,047,001,2019_May_20_1310,MusicAffectPsychophysiology2019,3.0.5,59.462136315296256,
To what extent did the music make you feel ,HAPPY,30MonoWAV/30MonoH1.wav,2,2,1,5,,,,,0,9,9,4,0,10,10,6,,,,,,,,,4,1.834761794001679,,,047,001,2019_May_20_1310,MusicAffectPsychophysiology2019,3.0.5,59.462136315296256,
To what extent did the music make you feel ,FRUSTRATED,30MonoWAV/30MonoH1.wav,2,2,1,5,,,,,0,9,9,4,0,11,11,3,,,,,,,,,1,0.8515667239989853,,,047,001,2019_May_20_1310,MusicAffectPsychophysiology2019,3.0.5,59.462136315296256,
,,30MonoWAV/30MonoH1.wav,2,2,1,5,,,,,0,9,9,4,,,,,,,,,,,,,,,,,047,001,2019_May_20_1310,MusicAffectPsychophysiology2019,3.0.5,59.462136315296256,
To what extent did the music make you feel ,ANGRY,30MonoWAV/30MonoT4.wav,2,1,4,16,,,,,0,10,10,15,0,0,0,2,,,2,2.6519465729943477,2,2.5512697269950877,3,3.034649281995371,1,1.1676331220005522,,,047,001,2019_May_20_1310,MusicAffectPsychophysiology2019,3.0.5,59.462136315296256,
To what extent did the music make you feel ,ASHAMED,30MonoWAV/30MonoT4.wav,2,1,4,16,,,,,0,10,10,15,0,1,1,4,,,,,,,,,1,1.0857949679993908,,,047,001,2019_May_20_1310,MusicAffectPsychophysiology2019,3.0.5,59.462136315296256,
To what extent did the music make you feel ,SAD,30MonoWAV/30MonoT4.wav,2,1,4,16,,,,,0,10,10,15,0,2,2,0,,,,,,,,,2,1.0677552999986801,,,047,001,2019_May_20_1310,MusicAffectPsychophysiology2019,3.0.5,59.462136315296256,
To what extent did the music make you feel ,EXCITED,30MonoWAV/30MonoT4.wav,2,1,4,16,,,,,0,10,10,15,0,3,3,7,,,,,,,,,1,1.0682401929952903,,,047,001,2019_May_20_1310,MusicAffectPsychophysiology2019,3.0.5,59.462136315296256,
To what extent did the music make you feel ,GUILTY,30MonoWAV/30MonoT4.wav,2,1,4,16,,,,,0,10,10,15,0,4,4,5,,,,,,,,,1,2.401034239002911,,,047,001,2019_May_20_1310,MusicAffectPsychophysiology2019,3.0.5,59.462136315296256,
To what extent did the music make you feel ,ANXIOUS ,30MonoWAV/30MonoT4.wav,2,1,4,16,,,,,0,10,10,15,0,5,5,1,,,,,,,,,3,1.7184693140006857,,,047,001,2019_May_20_1310,MusicAffectPsychophysiology2019,3.0.5,59.462136315296256,
To what extent did the music make you feel ,SCARED,30MonoWAV/30MonoT4.wav,2,1,4,16,,,,,0,10,10,15,0,6,6,11,,,,,,,,,1,2.367901625999366,,,047,001,2019_May_20_1310,MusicAffectPsychophysiology2019,3.0.5,59.462136315296256,
To what extent did the music make you feel ,HAPPY,30MonoWAV/30MonoT4.wav,2,1,4,16,,,,,0,10,10,15,0,7,7,6,,,,,,,,,1,2.4514789189997828,,,047,001,2019_May_20_1310,MusicAffectPsychophysiology2019,3.0.5,59.462136315296256,
To what extent did the music make you feel ,ACTIVE,30MonoWAV/30MonoT4.wav,2,1,4,16,,,,,0,10,10,15,0,8,8,9,,,,,,,,,1,1.1686007370008156,,,047,001,2019_May_20_1310,MusicAffectPsychophysiology2019,3.0.5,59.462136315296256,
To what extent did the music make you feel ,ALERT,30MonoWAV/30MonoT4.wav,2,1,4,16,,,,,0,10,10,15,0,9,9,8,,,,,,,,,2,3.9846814679985982,,,047,001,2019_May_20_1310,MusicAffectPsychophysiology2019,3.0.5,59.462136315296256,
To what extent did the music make you feel ,FRUSTRATED,30MonoWAV/30MonoT4.wav,2,1,4,16,,,,,0,10,10,15,0,10,10,3,,,,,,,,,1,1.3348899280026671,,,047,001,2019_May_20_1310,MusicAffectPsychophysiology2019,3.0.5,59.462136315296256,
To what extent did the music make you feel ,TENDER,30MonoWAV/30MonoT4.wav,2,1,4,16,,,,,0,10,10,15,0,11,11,10,,,,,,,,,3,1.2005859689961653,,,047,001,2019_May_20_1310,MusicAffectPsychophysiology2019,3.0.5,59.462136315296256,
,,30MonoWAV/30MonoT4.wav,2,1,4,16,,,,,0,10,10,15,,,,,,,,,,,,,,,,,047,001,2019_May_20_1310,MusicAffectPsychophysiology2019,3.0.5,59.462136315296256,
To what extent did the music make you feel ,ASHAMED,30MonoWAV/30MonoS3.wav,1,1,3,11,,,,,0,11,11,10,0,0,0,4,,,1,12.508686714994838,2,5.793545400003495,2,10.268320285002119,1,1.0339358800047194,,,047,001,2019_May_20_1310,MusicAffectPsychophysiology2019,3.0.5,59.462136315296256,
To what extent did the music make you feel ,GUILTY,30MonoWAV/30MonoS3.wav,1,1,3,11,,,,,0,11,11,10,0,1,1,5,,,,,,,,,2,1.7678114489972359,,,047,001,2019_May_20_1310,MusicAffectPsychophysiology2019,3.0.5,59.462136315296256,
To what extent did the music make you feel ,FRUSTRATED,30MonoWAV/30MonoS3.wav,1,1,3,11,,,,,0,11,11,10,0,2,2,3,,,,,,,,,1,2.7680242089991225,,,047,001,2019_May_20_1310,MusicAffectPsychophysiology2019,3.0.5,59.462136315296256,
To what extent did the music make you feel ,ACTIVE,30MonoWAV/30MonoS3.wav,1,1,3,11,,,,,0,11,11,10,0,3,3,9,,,,,,,,,1,1.6854623070030357,,,047,001,2019_May_20_1310,MusicAffectPsychophysiology2019,3.0.5,59.462136315296256,
To what extent did the music make you feel ,SCARED,30MonoWAV/30MonoS3.wav,1,1,3,11,,,,,0,11,11,10,0,4,4,11,,,,,,,,,1,2.4668210890013142,,,047,001,2019_May_20_1310,MusicAffectPsychophysiology2019,3.0.5,59.462136315296256,
To what extent did the music make you feel ,TENDER,30MonoWAV/30MonoS3.wav,1,1,3,11,,,,,0,11,11,10,0,5,5,10,,,,,,,,,3,1.6182555699997465,,,047,001,2019_May_20_1310,MusicAffectPsychophysiology2019,3.0.5,59.462136315296256,
To what extent did the music make you feel ,ANGRY,30MonoWAV/30MonoS3.wav,1,1,3,11,,,,,0,11,11,10,0,6,6,2,,,,,,,,,1,1.0354210529985721,,,047,001,2019_May_20_1310,MusicAffectPsychophysiology2019,3.0.5,59.462136315296256,
To what extent did the music make you feel ,ANXIOUS ,30MonoWAV/30MonoS3.wav,1,1,3,11,,,,,0,11,11,10,0,7,7,1,,,,,,,,,2,0.8182263209964731,,,047,001,2019_May_20_1310,MusicAffectPsychophysiology2019,3.0.5,59.462136315296256,
To what extent did the music make you feel ,ALERT,30MonoWAV/30MonoS3.wav,1,1,3,11,,,,,0,11,11,10,0,8,8,8,,,,,,,,,2,1.9018502250037272,,,047,001,2019_May_20_1310,MusicAffectPsychophysiology2019,3.0.5,59.462136315296256,
To what extent did the music make you feel ,HAPPY,30MonoWAV/30MonoS3.wav,1,1,3,11,,,,,0,11,11,10,0,9,9,6,,,,,,,,,1,0.9014592349994928,,,047,001,2019_May_20_1310,MusicAffectPsychophysiology2019,3.0.5,59.462136315296256,
To what extent did the music make you feel ,SAD,30MonoWAV/30MonoS3.wav,1,1,3,11,,,,,0,11,11,10,0,10,10,0,,,,,,,,,2,1.7847642439955962,,,047,001,2019_May_20_1310,MusicAffectPsychophysiology2019,3.0.5,59.462136315296256,
To what extent did the music make you feel ,EXCITED,30MonoWAV/30MonoS3.wav,1,1,3,11,,,,,0,11,11,10,0,11,11,7,,,,,,,,,1,3.48486283699458,,,047,001,2019_May_20_1310,MusicAffectPsychophysiology2019,3.0.5,59.462136315296256,
,,30MonoWAV/30MonoS3.wav,1,1,3,11,,,,,0,11,11,10,,,,,,,,,,,,,,,,,047,001,2019_May_20_1310,MusicAffectPsychophysiology2019,3.0.5,59.462136315296256,
To what extent did the music make you feel ,GUILTY,30MonoWAV/30MonoS2.wav,1,1,3,10,,,,,0,12,12,9,0,0,0,5,,,1,2.918269877998682,2,1.8688747359992703,3,2.8016856589965755,1,3.2510711750001065,,,047,001,2019_May_20_1310,MusicAffectPsychophysiology2019,3.0.5,59.462136315296256,
To what extent did the music make you feel ,ACTIVE,30MonoWAV/30MonoS2.wav,1,1,3,10,,,,,0,12,12,9,0,1,1,9,,,,,,,,,1,1.601134575001197,,,047,001,2019_May_20_1310,MusicAffectPsychophysiology2019,3.0.5,59.462136315296256,
To what extent did the music make you feel ,ASHAMED,30MonoWAV/30MonoS2.wav,1,1,3,10,,,,,0,12,12,9,0,2,2,4,,,,,,,,,1,2.368414044001838,,,047,001,2019_May_20_1310,MusicAffectPsychophysiology2019,3.0.5,59.462136315296256,
To what extent did the music make you feel ,ANGRY,30MonoWAV/30MonoS2.wav,1,1,3,10,,,,,0,12,12,9,0,3,3,2,,,,,,,,,1,1.6353021500035538,,,047,001,2019_May_20_1310,MusicAffectPsychophysiology2019,3.0.5,59.462136315296256,
To what extent did the music make you feel ,ANXIOUS ,30MonoWAV/30MonoS2.wav,1,1,3,10,,,,,0,12,12,9,0,4,4,1,,,,,,,,,1,3.5845101559971226,,,047,001,2019_May_20_1310,MusicAffectPsychophysiology2019,3.0.5,59.462136315296256,
To what extent did the music make you feel ,FRUSTRATED,30MonoWAV/30MonoS2.wav,1,1,3,10,,,,,0,12,12,9,0,5,5,3,,,,,,,,,1,2.1349620160035556,,,047,001,2019_May_20_1310,MusicAffectPsychophysiology2019,3.0.5,59.462136315296256,
To what extent did the music make you feel ,SCARED,30MonoWAV/30MonoS2.wav,1,1,3,10,,,,,0,12,12,9,0,6,6,11,,,,,,,,,2,1.584703840999282,,,047,001,2019_May_20_1310,MusicAffectPsychophysiology2019,3.0.5,59.462136315296256,
To what extent did the music make you feel ,TENDER,30MonoWAV/30MonoS2.wav,1,1,3,10,,,,,0,12,12,9,0,7,7,10,,,,,,,,,2,1.0843869770033052,,,047,001,2019_May_20_1310,MusicAffectPsychophysiology2019,3.0.5,59.462136315296256,
To what extent did the music make you feel ,ALERT,30MonoWAV/30MonoS2.wav,1,1,3,10,,,,,0,12,12,9,0,8,8,8,,,,,,,,,1,1.9851575630018488,,,047,001,2019_May_20_1310,MusicAffectPsychophysiology2019,3.0.5,59.462136315296256,
To what extent did the music make you feel ,SAD,30MonoWAV/30MonoS2.wav,1,1,3,10,,,,,0,12,12,9,0,9,9,0,,,,,,,,,2,2.885203644000285,,,047,001,2019_May_20_1310,MusicAffectPsychophysiology2019,3.0.5,59.462136315296256,
To what extent did the music make you feel ,EXCITED,30MonoWAV/30MonoS2.wav,1,1,3,10,,,,,0,12,12,9,0,10,10,7,,,,,,,,,1,4.035213955998188,,,047,001,2019_May_20_1310,MusicAffectPsychophysiology2019,3.0.5,59.462136315296256,
To what extent did the music make you feel ,HAPPY,30MonoWAV/30MonoS2.wav,1,1,3,10,,,,,0,12,12,9,0,11,11,6,,,,,,,,,1,0.6022255159987253,,,047,001,2019_May_20_1310,MusicAffectPsychophysiology2019,3.0.5,59.462136315296256,
,,30MonoWAV/30MonoS2.wav,1,1,3,10,,,,,0,12,12,9,,,,,,,,,,,,,,,,,047,001,2019_May_20_1310,MusicAffectPsychophysiology2019,3.0.5,59.462136315296256,
To what extent did the music make you feel ,ALERT,30MonoWAV/30MonoS4.wav,1,1,3,12,,,,,0,13,13,11,0,0,0,8,,,1,4.884579602003214,2,3.615847553999629,4,1.9021180060008192,1,1.2337072410009569,,,047,001,2019_May_20_1310,MusicAffectPsychophysiology2019,3.0.5,59.462136315296256,
To what extent did the music make you feel ,SAD,30MonoWAV/30MonoS4.wav,1,1,3,12,,,,,0,13,13,11,0,1,1,0,,,,,,,,,4,3.174565604000236,,,047,001,2019_May_20_1310,MusicAffectPsychophysiology2019,3.0.5,59.462136315296256,
To what extent did the music make you feel ,ANXIOUS ,30MonoWAV/30MonoS4.wav,1,1,3,12,,,,,0,13,13,11,0,2,2,1,,,,,,,,,4,2.036472642001172,,,047,001,2019_May_20_1310,MusicAffectPsychophysiology2019,3.0.5,59.462136315296256,
To what extent did the music make you feel ,ANGRY,30MonoWAV/30MonoS4.wav,1,1,3,12,,,,,0,13,13,11,0,3,3,2,,,,,,,,,1,1.8033929629964405,,,047,001,2019_May_20_1310,MusicAffectPsychophysiology2019,3.0.5,59.462136315296256,
To what extent did the music make you feel ,FRUSTRATED,30MonoWAV/30MonoS4.wav,1,1,3,12,,,,,0,13,13,11,0,4,4,3,,,,,,,,,1,0.6691020449943608,,,047,001,2019_May_20_1310,MusicAffectPsychophysiology2019,3.0.5,59.462136315296256,
To what extent did the music make you feel ,EXCITED,30MonoWAV/30MonoS4.wav,1,1,3,12,,,,,0,13,13,11,0,5,5,7,,,,,,,,,1,0.7900760119955521,,,047,001,2019_May_20_1310,MusicAffectPsychophysiology2019,3.0.5,59.462136315296256,
To what extent did the music make you feel ,TENDER,30MonoWAV/30MonoS4.wav,1,1,3,12,,,,,0,13,13,11,0,6,6,10,,,,,,,,,3,1.6994476530016982,,,047,001,2019_May_20_1310,MusicAffectPsychophysiology2019,3.0.5,59.462136315296256,
To what extent did the music make you feel ,ASHAMED,30MonoWAV/30MonoS4.wav,1,1,3,12,,,,,0,13,13,11,0,7,7,4,,,,,,,,,1,0.9198725599999307,,,047,001,2019_May_20_1310,MusicAffectPsychophysiology2019,3.0.5,59.462136315296256,
To what extent did the music make you feel ,SCARED,30MonoWAV/30MonoS4.wav,1,1,3,12,,,,,0,13,13,11,0,8,8,11,,,,,,,,,1,1.0186170209999545,,,047,001,2019_May_20_1310,MusicAffectPsychophysiology2019,3.0.5,59.462136315296256,
To what extent did the music make you feel ,GUILTY,30MonoWAV/30MonoS4.wav,1,1,3,12,,,,,0,13,13,11,0,9,9,5,,,,,,,,,1,0.8004057520010974,,,047,001,2019_May_20_1310,MusicAffectPsychophysiology2019,3.0.5,59.462136315296256,
To what extent did the music make you feel ,HAPPY,30MonoWAV/30MonoS4.wav,1,1,3,12,,,,,0,13,13,11,0,10,10,6,,,,,,,,,1,0.8019673180024256,,,047,001,2019_May_20_1310,MusicAffectPsychophysiology2019,3.0.5,59.462136315296256,
To what extent did the music make you feel ,ACTIVE,30MonoWAV/30MonoS4.wav,1,1,3,12,,,,,0,13,13,11,0,11,11,9,,,,,,,,,1,1.251641575996473,,,047,001,2019_May_20_1310,MusicAffectPsychophysiology2019,3.0.5,59.462136315296256,
,,30MonoWAV/30MonoS4.wav,1,1,3,12,,,,,0,13,13,11,,,,,,,,,,,,,,,,,047,001,2019_May_20_1310,MusicAffectPsychophysiology2019,3.0.5,59.462136315296256,
To what extent did the music make you feel ,SAD,30MonoWAV/30MonoF4.wav,1,2,2,4,,,,,0,14,14,3,0,0,0,0,,,5,2.1849289940000745,1,2.4687166639996576,3,3.2528864109990536,1,4.517546508999658,,,047,001,2019_May_20_1310,MusicAffectPsychophysiology2019,3.0.5,59.462136315296256,
To what extent did the music make you feel ,ANXIOUS ,30MonoWAV/30MonoF4.wav,1,2,2,4,,,,,0,14,14,3,0,1,1,1,,,,,,,,,4,1.9497599379974417,,,047,001,2019_May_20_1310,MusicAffectPsychophysiology2019,3.0.5,59.462136315296256,
To what extent did the music make you feel ,SCARED,30MonoWAV/30MonoF4.wav,1,2,2,4,,,,,0,14,14,3,0,2,2,11,,,,,,,,,4,1.2517597469995962,,,047,001,2019_May_20_1310,MusicAffectPsychophysiology2019,3.0.5,59.462136315296256,
To what extent did the music make you feel ,GUILTY,30MonoWAV/30MonoF4.wav,1,2,2,4,,,,,0,14,14,3,0,3,3,5,,,,,,,,,1,1.034462789997633,,,047,001,2019_May_20_1310,MusicAffectPsychophysiology2019,3.0.5,59.462136315296256,
To what extent did the music make you feel ,ASHAMED,30MonoWAV/30MonoF4.wav,1,2,2,4,,,,,0,14,14,3,0,4,4,4,,,,,,,,,1,0.6861434140009806,,,047,001,2019_May_20_1310,MusicAffectPsychophysiology2019,3.0.5,59.462136315296256,
To what extent did the music make you feel ,ANGRY,30MonoWAV/30MonoF4.wav,1,2,2,4,,,,,0,14,14,3,0,5,5,2,,,,,,,,,1,1.5509341229990241,,,047,001,2019_May_20_1310,MusicAffectPsychophysiology2019,3.0.5,59.462136315296256,
To what extent did the music make you feel ,EXCITED,30MonoWAV/30MonoF4.wav,1,2,2,4,,,,,0,14,14,3,0,6,6,7,,,,,,,,,2,2.785347814002307,,,047,001,2019_May_20_1310,MusicAffectPsychophysiology2019,3.0.5,59.462136315296256,
To what extent did the music make you feel ,HAPPY,30MonoWAV/30MonoF4.wav,1,2,2,4,,,,,0,14,14,3,0,7,7,6,,,,,,,,,1,0.7187840249971487,,,047,001,2019_May_20_1310,MusicAffectPsychophysiology2019,3.0.5,59.462136315296256,
To what extent did the music make you feel ,ALERT,30MonoWAV/30MonoF4.wav,1,2,2,4,,,,,0,14,14,3,0,8,8,8,,,,,,,,,5,1.9682898390019545,,,047,001,2019_May_20_1310,MusicAffectPsychophysiology2019,3.0.5,59.462136315296256,
To what extent did the music make you feel ,TENDER,30MonoWAV/30MonoF4.wav,1,2,2,4,,,,,0,14,14,3,0,9,9,10,,,,,,,,,1,2.101106884998444,,,047,001,2019_May_20_1310,MusicAffectPsychophysiology2019,3.0.5,59.462136315296256,
To what extent did the music make you feel ,FRUSTRATED,30MonoWAV/30MonoF4.wav,1,2,2,4,,,,,0,14,14,3,0,10,10,3,,,,,,,,,1,1.0693300100028864,,,047,001,2019_May_20_1310,MusicAffectPsychophysiology2019,3.0.5,59.462136315296256,
To what extent did the music make you feel ,ACTIVE,30MonoWAV/30MonoF4.wav,1,2,2,4,,,,,0,14,14,3,0,11,11,9,,,,,,,,,3,2.2676430409992463,,,047,001,2019_May_20_1310,MusicAffectPsychophysiology2019,3.0.5,59.462136315296256,
,,30MonoWAV/30MonoF4.wav,1,2,2,4,,,,,0,14,14,3,,,,,,,,,,,,,,,,,047,001,2019_May_20_1310,MusicAffectPsychophysiology2019,3.0.5,59.462136315296256,
To what extent did the music make you feel ,EXCITED,30MonoWAV/30MonoS1.wav,1,1,3,9,,,,,0,15,15,8,0,0,0,7,,,1,3.884147730997938,2,1.58517017000122,2,2.5179137279992574,1,1.217703923000954,,,047,001,2019_May_20_1310,MusicAffectPsychophysiology2019,3.0.5,59.462136315296256,
To what extent did the music make you feel ,ALERT,30MonoWAV/30MonoS1.wav,1,1,3,9,,,,,0,15,15,8,0,1,1,8,,,,,,,,,1,1.3850920979966759,,,047,001,2019_May_20_1310,MusicAffectPsychophysiology2019,3.0.5,59.462136315296256,
To what extent did the music make you feel ,ASHAMED,30MonoWAV/30MonoS1.wav,1,1,3,9,,,,,0,15,15,8,0,2,2,4,,,,,,,,,1,2.3188535820008838,,,047,001,2019_May_20_1310,MusicAffectPsychophysiology2019,3.0.5,59.462136315296256,
To what extent did the music make you feel ,TENDER,30MonoWAV/30MonoS1.wav,1,1,3,9,,,,,0,15,15,8,0,3,3,10,,,,,,,,,3,1.5339403719990514,,,047,001,2019_May_20_1310,MusicAffectPsychophysiology2019,3.0.5,59.462136315296256,
To what extent did the music make you feel ,SCARED,30MonoWAV/30MonoS1.wav,1,1,3,9,,,,,0,15,15,8,0,4,4,11,,,,,,,,,1,0.8028742610040354,,,047,001,2019_May_20_1310,MusicAffectPsychophysiology2019,3.0.5,59.462136315296256,
To what extent did the music make you feel ,SAD,30MonoWAV/30MonoS1.wav,1,1,3,9,,,,,0,15,15,8,0,5,5,0,,,,,,,,,1,1.0506836069980636,,,047,001,2019_May_20_1310,MusicAffectPsychophysiology2019,3.0.5,59.462136315296256,
To what extent did the music make you feel ,ACTIVE,30MonoWAV/30MonoS1.wav,1,1,3,9,,,,,0,15,15,8,0,6,6,9,,,,,,,,,1,1.284768585996062,,,047,001,2019_May_20_1310,MusicAffectPsychophysiology2019,3.0.5,59.462136315296256,
To what extent did the music make you feel ,HAPPY,30MonoWAV/30MonoS1.wav,1,1,3,9,,,,,0,15,15,8,0,7,7,6,,,,,,,,,1,1.001614950997464,,,047,001,2019_May_20_1310,MusicAffectPsychophysiology2019,3.0.5,59.462136315296256,
To what extent did the music make you feel ,GUILTY,30MonoWAV/30MonoS1.wav,1,1,3,9,,,,,0,15,15,8,0,8,8,5,,,,,,,,,1,2.41863872599788,,,047,001,2019_May_20_1310,MusicAffectPsychophysiology2019,3.0.5,59.462136315296256,
To what extent did the music make you feel ,ANXIOUS ,30MonoWAV/30MonoS1.wav,1,1,3,9,,,,,0,15,15,8,0,9,9,1,,,,,,,,,1,3.7512409269984346,,,047,001,2019_May_20_1310,MusicAffectPsychophysiology2019,3.0.5,59.462136315296256,
To what extent did the music make you feel ,ANGRY,30MonoWAV/30MonoS1.wav,1,1,3,9,,,,,0,15,15,8,0,10,10,2,,,,,,,,,1,2.03495663600188,,,047,001,2019_May_20_1310,MusicAffectPsychophysiology2019,3.0.5,59.462136315296256,
To what extent did the music make you feel ,FRUSTRATED,30MonoWAV/30MonoS1.wav,1,1,3,9,,,,,0,15,15,8,0,11,11,3,,,,,,,,,1,0.8359086229975219,,,047,001,2019_May_20_1310,MusicAffectPsychophysiology2019,3.0.5,59.462136315296256,
,,30MonoWAV/30MonoS1.wav,1,1,3,9,,,,,0,15,15,8,,,,,,,,,,,,,,,,,047,001,2019_May_20_1310,MusicAffectPsychophysiology2019,3.0.5,59.462136315296256,
To what extent did the music make you feel ,TENDER,30MonoWAV/30MonoH3.wav,2,2,1,7,,,,,1,0,16,6,0,0,0,10,,,4,4.35609600799944,4,7.688697627992951,3,1.8680740629934007,1,2.4019994100017357,,,047,001,2019_May_20_1310,MusicAffectPsychophysiology2019,3.0.5,59.462136315296256,
To what extent did the music make you feel ,FRUSTRATED,30MonoWAV/30MonoH3.wav,2,2,1,7,,,,,1,0,16,6,0,1,1,3,,,,,,,,,1,0.7687068979939795,,,047,001,2019_May_20_1310,MusicAffectPsychophysiology2019,3.0.5,59.462136315296256,
To what extent did the music make you feel ,ASHAMED,30MonoWAV/30MonoH3.wav,2,2,1,7,,,,,1,0,16,6,0,2,2,4,,,,,,,,,1,1.085037426004419,,,047,001,2019_May_20_1310,MusicAffectPsychophysiology2019,3.0.5,59.462136315296256,
To what extent did the music make you feel ,ANGRY,30MonoWAV/30MonoH3.wav,2,2,1,7,,,,,1,0,16,6,0,3,3,2,,,,,,,,,1,1.9181141720036976,,,047,001,2019_May_20_1310,MusicAffectPsychophysiology2019,3.0.5,59.462136315296256,
To what extent did the music make you feel ,ACTIVE,30MonoWAV/30MonoH3.wav,2,2,1,7,,,,,1,0,16,6,0,4,4,9,,,,,,,,,2,1.3339997439979925,,,047,001,2019_May_20_1310,MusicAffectPsychophysiology2019,3.0.5,59.462136315296256,
To what extent did the music make you feel ,HAPPY,30MonoWAV/30MonoH3.wav,2,2,1,7,,,,,1,0,16,6,0,5,5,6,,,,,,,,,4,1.6849328059979598,,,047,001,2019_May_20_1310,MusicAffectPsychophysiology2019,3.0.5,59.462136315296256,
To what extent did the music make you feel ,EXCITED,30MonoWAV/30MonoH3.wav,2,2,1,7,,,,,1,0,16,6,0,6,6,7,,,,,,,,,3,1.0350877409946406,,,047,001,2019_May_20_1310,MusicAffectPsychophysiology2019,3.0.5,59.462136315296256,
To what extent did the music make you feel ,SCARED,30MonoWAV/30MonoH3.wav,2,2,1,7,,,,,1,0,16,6,0,7,7,11,,,,,,,,,1,2.834737873999984,,,047,001,2019_May_20_1310,MusicAffectPsychophysiology2019,3.0.5,59.462136315296256,
To what extent did the music make you feel ,ALERT,30MonoWAV/30MonoH3.wav,2,2,1,7,,,,,1,0,16,6,0,8,8,8,,,,,,,,,3,1.2517957649979508,,,047,001,2019_May_20_1310,MusicAffectPsychophysiology2019,3.0.5,59.462136315296256,
To what extent did the music make you feel ,ANXIOUS ,30MonoWAV/30MonoH3.wav,2,2,1,7,,,,,1,0,16,6,0,9,9,1,,,,,,,,,1,0.7184076170015032,,,047,001,2019_May_20_1310,MusicAffectPsychophysiology2019,3.0.5,59.462136315296256,
To what extent did the music make you feel ,GUILTY,30MonoWAV/30MonoH3.wav,2,2,1,7,,,,,1,0,16,6,0,10,10,5,,,,,,,,,1,0.5852582349980366,,,047,001,2019_May_20_1310,MusicAffectPsychophysiology2019,3.0.5,59.462136315296256,
To what extent did the music make you feel ,SAD,30MonoWAV/30MonoH3.wav,2,2,1,7,,,,,1,0,16,6,0,11,11,0,,,,,,,,,1,0.8021192399974097,,,047,001,2019_May_20_1310,MusicAffectPsychophysiology2019,3.0.5,59.462136315296256,
,,30MonoWAV/30MonoH3.wav,2,2,1,7,,,,,1,0,16,6,,,,,,,,,,,,,,,,,047,001,2019_May_20_1310,MusicAffectPsychophysiology2019,3.0.5,59.462136315296256,
To what extent did the music make you feel ,EXCITED,30MonoWAV/30MonoS3.wav,1,1,3,11,,,,,1,1,17,10,0,0,0,7,,,1,3.9355757360026473,1,3.0677596630048356,1,5.8008366389985895,1,2.2348799900064478,,,047,001,2019_May_20_1310,MusicAffectPsychophysiology2019,3.0.5,59.462136315296256,
To what extent did the music make you feel ,ANGRY,30MonoWAV/30MonoS3.wav,1,1,3,11,,,,,1,1,17,10,0,1,1,2,,,,,,,,,1,2.668487624003319,,,047,001,2019_May_20_1310,MusicAffectPsychophysiology2019,3.0.5,59.462136315296256,
To what extent did the music make you feel ,ANXIOUS ,30MonoWAV/30MonoS3.wav,1,1,3,11,,,,,1,1,17,10,0,2,2,1,,,,,,,,,3,1.4513992599968333,,,047,001,2019_May_20_1310,MusicAffectPsychophysiology2019,3.0.5,59.462136315296256,
To what extent did the music make you feel ,HAPPY,30MonoWAV/30MonoS3.wav,1,1,3,11,,,,,1,1,17,10,0,3,3,6,,,,,,,,,1,0.951947242996539,,,047,001,2019_May_20_1310,MusicAffectPsychophysiology2019,3.0.5,59.462136315296256,
To what extent did the music make you feel ,ALERT,30MonoWAV/30MonoS3.wav,1,1,3,11,,,,,1,1,17,10,0,4,4,8,,,,,,,,,1,1.3512638870015508,,,047,001,2019_May_20_1310,MusicAffectPsychophysiology2019,3.0.5,59.462136315296256,
To what extent did the music make you feel ,GUILTY,30MonoWAV/30MonoS3.wav,1,1,3,11,,,,,1,1,17,10,0,5,5,5,,,,,,,,,1,3.000842683002702,,,047,001,2019_May_20_1310,MusicAffectPsychophysiology2019,3.0.5,59.462136315296256,
To what extent did the music make you feel ,TENDER,30MonoWAV/30MonoS3.wav,1,1,3,11,,,,,1,1,17,10,0,6,6,10,,,,,,,,,2,1.351217319999705,,,047,001,2019_May_20_1310,MusicAffectPsychophysiology2019,3.0.5,59.462136315296256,
To what extent did the music make you feel ,FRUSTRATED,30MonoWAV/30MonoS3.wav,1,1,3,11,,,,,1,1,17,10,0,7,7,3,,,,,,,,,1,0.8681549089960754,,,047,001,2019_May_20_1310,MusicAffectPsychophysiology2019,3.0.5,59.462136315296256,
To what extent did the music make you feel ,ACTIVE,30MonoWAV/30MonoS3.wav,1,1,3,11,,,,,1,1,17,10,0,8,8,9,,,,,,,,,1,1.0843237890003365,,,047,001,2019_May_20_1310,MusicAffectPsychophysiology2019,3.0.5,59.462136315296256,
To what extent did the music make you feel ,SAD,30MonoWAV/30MonoS3.wav,1,1,3,11,,,,,1,1,17,10,0,9,9,0,,,,,,,,,2,3.8350904299950344,,,047,001,2019_May_20_1310,MusicAffectPsychophysiology2019,3.0.5,59.462136315296256,
To what extent did the music make you feel ,SCARED,30MonoWAV/30MonoS3.wav,1,1,3,11,,,,,1,1,17,10,0,10,10,11,,,,,,,,,1,0.7851739460020326,,,047,001,2019_May_20_1310,MusicAffectPsychophysiology2019,3.0.5,59.462136315296256,
To what extent did the music make you feel ,ASHAMED,30MonoWAV/30MonoS3.wav,1,1,3,11,,,,,1,1,17,10,0,11,11,4,,,,,,,,,1,1.2187653959990712,,,047,001,2019_May_20_1310,MusicAffectPsychophysiology2019,3.0.5,59.462136315296256,
,,30MonoWAV/30MonoS3.wav,1,1,3,11,,,,,1,1,17,10,,,,,,,,,,,,,,,,,047,001,2019_May_20_1310,MusicAffectPsychophysiology2019,3.0.5,59.462136315296256,
To what extent did the music make you feel ,ALERT,30MonoWAV/30MonoH1.wav,2,2,1,5,,,,,1,2,18,4,0,0,0,8,,,4,2.339946002000943,4,1.6179137060025823,4,2.752106004001689,4,4.468380215999787,,,047,001,2019_May_20_1310,MusicAffectPsychophysiology2019,3.0.5,59.462136315296256,
To what extent did the music make you feel ,TENDER,30MonoWAV/30MonoH1.wav,2,2,1,5,,,,,1,2,18,4,0,1,1,10,,,,,,,,,1,1.8840070300066145,,,047,001,2019_May_20_1310,MusicAffectPsychophysiology2019,3.0.5,59.462136315296256,
To what extent did the music make you feel ,ANXIOUS ,30MonoWAV/30MonoH1.wav,2,2,1,5,,,,,1,2,18,4,0,2,2,1,,,,,,,,,1,0.8850817670027027,,,047,001,2019_May_20_1310,MusicAffectPsychophysiology2019,3.0.5,59.462136315296256,
To what extent did the music make you feel ,SAD,30MonoWAV/30MonoH1.wav,2,2,1,5,,,,,1,2,18,4,0,3,3,0,,,,,,,,,1,1.1681998049971298,,,047,001,2019_May_20_1310,MusicAffectPsychophysiology2019,3.0.5,59.462136315296256,
To what extent did the music make you feel ,HAPPY,30MonoWAV/30MonoH1.wav,2,2,1,5,,,,,1,2,18,4,0,4,4,6,,,,,,,,,3,2.0171661470012623,,,047,001,2019_May_20_1310,MusicAffectPsychophysiology2019,3.0.5,59.462136315296256,
To what extent did the music make you feel ,ANGRY,30MonoWAV/30MonoH1.wav,2,2,1,5,,,,,1,2,18,4,0,5,5,2,,,,,,,,,1,0.8684578279935522,,,047,001,2019_May_20_1310,MusicAffectPsychophysiology2019,3.0.5,59.462136315296256,
To what extent did the music make you feel ,ASHAMED,30MonoWAV/30MonoH1.wav,2,2,1,5,,,,,1,2,18,4,0,6,6,4,,,,,,,,,1,0.8513936999952421,,,047,001,2019_May_20_1310,MusicAffectPsychophysiology2019,3.0.5,59.462136315296256,
To what extent did the music make you feel ,FRUSTRATED,30MonoWAV/30MonoH1.wav,2,2,1,5,,,,,1,2,18,4,0,7,7,3,,,,,,,,,1,0.6510455180032295,,,047,001,2019_May_20_1310,MusicAffectPsychophysiology2019,3.0.5,59.462136315296256,
To what extent did the music make you feel ,SCARED,30MonoWAV/30MonoH1.wav,2,2,1,5,,,,,1,2,18,4,0,8,8,11,,,,,,,,,1,0.9192188820015872,,,047,001,2019_May_20_1310,MusicAffectPsychophysiology2019,3.0.5,59.462136315296256,
To what extent did the music make you feel ,GUILTY,30MonoWAV/30MonoH1.wav,2,2,1,5,,,,,1,2,18,4,0,9,9,5,,,,,,,,,1,1.2515143419950618,,,047,001,2019_May_20_1310,MusicAffectPsychophysiology2019,3.0.5,59.462136315296256,
To what extent did the music make you feel ,ACTIVE,30MonoWAV/30MonoH1.wav,2,2,1,5,,,,,1,2,18,4,0,10,10,9,,,,,,,,,3,4.050160175000201,,,047,001,2019_May_20_1310,MusicAffectPsychophysiology2019,3.0.5,59.462136315296256,
To what extent did the music make you feel ,EXCITED,30MonoWAV/30MonoH1.wav,2,2,1,5,,,,,1,2,18,4,0,11,11,7,,,,,,,,,3,2.2845325710004545,,,047,001,2019_May_20_1310,MusicAffectPsychophysiology2019,3.0.5,59.462136315296256,
,,30MonoWAV/30MonoH1.wav,2,2,1,5,,,,,1,2,18,4,,,,,,,,,,,,,,,,,047,001,2019_May_20_1310,MusicAffectPsychophysiology2019,3.0.5,59.462136315296256,
To what extent did the music make you feel ,ANXIOUS ,30MonoWAV/30MonoH2.wav,2,2,1,6,,,,,1,3,19,5,0,0,0,1,,,2,5.384207710994815,1,1.7512974249984836,2,3.200939633999951,1,7.801533183999709,,,047,001,2019_May_20_1310,MusicAffectPsychophysiology2019,3.0.5,59.462136315296256,
To what extent did the music make you feel ,SAD,30MonoWAV/30MonoH2.wav,2,2,1,6,,,,,1,3,19,5,0,1,1,0,,,,,,,,,1,3.617836867000733,,,047,001,2019_May_20_1310,MusicAffectPsychophysiology2019,3.0.5,59.462136315296256,
To what extent did the music make you feel ,ACTIVE,30MonoWAV/30MonoH2.wav,2,2,1,6,,,,,1,3,19,5,0,2,2,9,,,,,,,,,1,2.584349552002095,,,047,001,2019_May_20_1310,MusicAffectPsychophysiology2019,3.0.5,59.462136315296256,
To what extent did the music make you feel ,ANGRY,30MonoWAV/30MonoH2.wav,2,2,1,6,,,,,1,3,19,5,0,3,3,2,,,,,,,,,1,1.3011487389958347,,,047,001,2019_May_20_1310,MusicAffectPsychophysiology2019,3.0.5,59.462136315296256,
To what extent did the music make you feel ,HAPPY,30MonoWAV/30MonoH2.wav,2,2,1,6,,,,,1,3,19,5,0,4,4,6,,,,,,,,,1,1.253116752995993,,,047,001,2019_May_20_1310,MusicAffectPsychophysiology2019,3.0.5,59.462136315296256,
To what extent did the music make you feel ,TENDER,30MonoWAV/30MonoH2.wav,2,2,1,6,,,,,1,3,19,5,0,5,5,10,,,,,,,,,2,1.3349930059994222,,,047,001,2019_May_20_1310,MusicAffectPsychophysiology2019,3.0.5,59.462136315296256,
To what extent did the music make you feel ,ASHAMED,30MonoWAV/30MonoH2.wav,2,2,1,6,,,,,1,3,19,5,0,6,6,4,,,,,,,,,1,0.7025108050002018,,,047,001,2019_May_20_1310,MusicAffectPsychophysiology2019,3.0.5,59.462136315296256,
To what extent did the music make you feel ,SCARED,30MonoWAV/30MonoH2.wav,2,2,1,6,,,,,1,3,19,5,0,7,7,11,,,,,,,,,1,1.3013927290012361,,,047,001,2019_May_20_1310,MusicAffectPsychophysiology2019,3.0.5,59.462136315296256,
To what extent did the music make you feel ,GUILTY,30MonoWAV/30MonoH2.wav,2,2,1,6,,,,,1,3,19,5,0,8,8,5,,,,,,,,,1,0.8502461749958456,,,047,001,2019_May_20_1310,MusicAffectPsychophysiology2019,3.0.5,59.462136315296256,
To what extent did the music make you feel ,FRUSTRATED,30MonoWAV/30MonoH2.wav,2,2,1,6,,,,,1,3,19,5,0,9,9,3,,,,,,,,,1,0.9518082750000758,,,047,001,2019_May_20_1310,MusicAffectPsychophysiology2019,3.0.5,59.462136315296256,
To what extent did the music make you feel ,EXCITED,30MonoWAV/30MonoH2.wav,2,2,1,6,,,,,1,3,19,5,0,10,10,7,,,,,,,,,2,1.7349330189972534,,,047,001,2019_May_20_1310,MusicAffectPsychophysiology2019,3.0.5,59.462136315296256,
To what extent did the music make you feel ,ALERT,30MonoWAV/30MonoH2.wav,2,2,1,6,,,,,1,3,19,5,0,11,11,8,,,,,,,,,2,0.7516417430015281,,,047,001,2019_May_20_1310,MusicAffectPsychophysiology2019,3.0.5,59.462136315296256,
,,30MonoWAV/30MonoH2.wav,2,2,1,6,,,,,1,3,19,5,,,,,,,,,,,,,,,,,047,001,2019_May_20_1310,MusicAffectPsychophysiology2019,3.0.5,59.462136315296256,
To what extent did the music make you feel ,ALERT,30MonoWAV/30MonoT3.wav,2,1,4,15,,,,,1,4,20,14,0,0,0,8,,,2,3.2857323990028817,5,1.5855636289998074,4,1.7517429910003557,1,2.685750263997761,,,047,001,2019_May_20_1310,MusicAffectPsychophysiology2019,3.0.5,59.462136315296256,
To what extent did the music make you feel ,HAPPY,30MonoWAV/30MonoT3.wav,2,1,4,15,,,,,1,4,20,14,0,1,1,6,,,,,,,,,4,1.3848277079960098,,,047,001,2019_May_20_1310,MusicAffectPsychophysiology2019,3.0.5,59.462136315296256,
To what extent did the music make you feel ,TENDER,30MonoWAV/30MonoT3.wav,2,1,4,15,,,,,1,4,20,14,0,2,2,10,,,,,,,,,3,1.7009268409965443,,,047,001,2019_May_20_1310,MusicAffectPsychophysiology2019,3.0.5,59.462136315296256,
To what extent did the music make you feel ,ANXIOUS ,30MonoWAV/30MonoT3.wav,2,1,4,15,,,,,1,4,20,14,0,3,3,1,,,,,,,,,1,0.7684875280028791,,,047,001,2019_May_20_1310,MusicAffectPsychophysiology2019,3.0.5,59.462136315296256,
To what extent did the music make you feel ,ASHAMED,30MonoWAV/30MonoT3.wav,2,1,4,15,,,,,1,4,20,14,0,4,4,4,,,,,,,,,1,0.7518001429998549,,,047,001,2019_May_20_1310,MusicAffectPsychophysiology2019,3.0.5,59.462136315296256,
To what extent did the music make you feel ,EXCITED,30MonoWAV/30MonoT3.wav,2,1,4,15,,,,,1,4,20,14,0,5,5,7,,,,,,,,,1,2.601623952999944,,,047,001,2019_May_20_1310,MusicAffectPsychophysiology2019,3.0.5,59.462136315296256,
To what extent did the music make you feel ,SCARED,30MonoWAV/30MonoT3.wav,2,1,4,15,,,,,1,4,20,14,0,6,6,11,,,,,,,,,1,1.4007523370019044,,,047,001,2019_May_20_1310,MusicAffectPsychophysiology2019,3.0.5,59.462136315296256,
To what extent did the music make you feel ,ANGRY,30MonoWAV/30MonoT3.wav,2,1,4,15,,,,,1,4,20,14,0,7,7,2,,,,,,,,,1,0.5689443709998159,,,047,001,2019_May_20_1310,MusicAffectPsychophysiology2019,3.0.5,59.462136315296256,
To what extent did the music make you feel ,FRUSTRATED,30MonoWAV/30MonoT3.wav,2,1,4,15,,,,,1,4,20,14,0,8,8,3,,,,,,,,,1,0.8678681059973314,,,047,001,2019_May_20_1310,MusicAffectPsychophysiology2019,3.0.5,59.462136315296256,
To what extent did the music make you feel ,ACTIVE,30MonoWAV/30MonoT3.wav,2,1,4,15,,,,,1,4,20,14,0,9,9,9,,,,,,,,,1,1.01783198400517,,,047,001,2019_May_20_1310,MusicAffectPsychophysiology2019,3.0.5,59.462136315296256,
To what extent did the music make you feel ,GUILTY,30MonoWAV/30MonoT3.wav,2,1,4,15,,,,,1,4,20,14,0,10,10,5,,,,,,,,,1,0.5023744749996695,,,047,001,2019_May_20_1310,MusicAffectPsychophysiology2019,3.0.5,59.462136315296256,
To what extent did the music make you feel ,SAD,30MonoWAV/30MonoT3.wav,2,1,4,15,,,,,1,4,20,14,0,11,11,0,,,,,,,,,1,0.9530614940013038,,,047,001,2019_May_20_1310,MusicAffectPsychophysiology2019,3.0.5,59.462136315296256,
,,30MonoWAV/30MonoT3.wav,2,1,4,15,,,,,1,4,20,14,,,,,,,,,,,,,,,,,047,001,2019_May_20_1310,MusicAffectPsychophysiology2019,3.0.5,59.462136315296256,
To what extent did the music make you feel ,SCARED,30MonoWAV/30MonoS1.wav,1,1,3,9,,,,,1,5,21,8,0,0,0,11,,,1,4.0349444419989595,2,1.0350839239981724,2,5.667857376000029,1,0.9349498730007326,,,047,001,2019_May_20_1310,MusicAffectPsychophysiology2019,3.0.5,59.462136315296256,
To what extent did the music make you feel ,HAPPY,30MonoWAV/30MonoS1.wav,1,1,3,9,,,,,1,5,21,8,0,1,1,6,,,,,,,,,2,1.784370890003629,,,047,001,2019_May_20_1310,MusicAffectPsychophysiology2019,3.0.5,59.462136315296256,
To what extent did the music make you feel ,SAD,30MonoWAV/30MonoS1.wav,1,1,3,9,,,,,1,5,21,8,0,2,2,0,,,,,,,,,1,0.8684658419952029,,,047,001,2019_May_20_1310,MusicAffectPsychophysiology2019,3.0.5,59.462136315296256,
To what extent did the music make you feel ,ALERT,30MonoWAV/30MonoS1.wav,1,1,3,9,,,,,1,5,21,8,0,3,3,8,,,,,,,,,1,1.2351836810048553,,,047,001,2019_May_20_1310,MusicAffectPsychophysiology2019,3.0.5,59.462136315296256,
To what extent did the music make you feel ,EXCITED,30MonoWAV/30MonoS1.wav,1,1,3,9,,,,,1,5,21,8,0,4,4,7,,,,,,,,,1,1.2513565080007538,,,047,001,2019_May_20_1310,MusicAffectPsychophysiology2019,3.0.5,59.462136315296256,
To what extent did the music make you feel ,GUILTY,30MonoWAV/30MonoS1.wav,1,1,3,9,,,,,1,5,21,8,0,5,5,5,,,,,,,,,1,1.2349295120002353,,,047,001,2019_May_20_1310,MusicAffectPsychophysiology2019,3.0.5,59.462136315296256,
To what extent did the music make you feel ,ASHAMED,30MonoWAV/30MonoS1.wav,1,1,3,9,,,,,1,5,21,8,0,6,6,4,,,,,,,,,1,1.368219987001794,,,047,001,2019_May_20_1310,MusicAffectPsychophysiology2019,3.0.5,59.462136315296256,
To what extent did the music make you feel ,FRUSTRATED,30MonoWAV/30MonoS1.wav,1,1,3,9,,,,,1,5,21,8,0,7,7,3,,,,,,,,,1,1.9348145780022605,,,047,001,2019_May_20_1310,MusicAffectPsychophysiology2019,3.0.5,59.462136315296256,
To what extent did the music make you feel ,ANGRY,30MonoWAV/30MonoS1.wav,1,1,3,9,,,,,1,5,21,8,0,8,8,2,,,,,,,,,1,0.668697383000108,,,047,001,2019_May_20_1310,MusicAffectPsychophysiology2019,3.0.5,59.462136315296256,
To what extent did the music make you feel ,ANXIOUS ,30MonoWAV/30MonoS1.wav,1,1,3,9,,,,,1,5,21,8,0,9,9,1,,,,,,,,,1,1.5011551639981917,,,047,001,2019_May_20_1310,MusicAffectPsychophysiology2019,3.0.5,59.462136315296256,
To what extent did the music make you feel ,TENDER,30MonoWAV/30MonoS1.wav,1,1,3,9,,,,,1,5,21,8,0,10,10,10,,,,,,,,,2,1.434998037002515,,,047,001,2019_May_20_1310,MusicAffectPsychophysiology2019,3.0.5,59.462136315296256,
To what extent did the music make you feel ,ACTIVE,30MonoWAV/30MonoS1.wav,1,1,3,9,,,,,1,5,21,8,0,11,11,9,,,,,,,,,1,1.5353175970012671,,,047,001,2019_May_20_1310,MusicAffectPsychophysiology2019,3.0.5,59.462136315296256,
,,30MonoWAV/30MonoS1.wav,1,1,3,9,,,,,1,5,21,8,,,,,,,,,,,,,,,,,047,001,2019_May_20_1310,MusicAffectPsychophysiology2019,3.0.5,59.462136315296256,
To what extent did the music make you feel ,ASHAMED,30MonoWAV/30MonoT1.wav,2,1,4,13,,,,,1,6,22,12,0,0,0,4,,,1,4.2025483079996775,4,7.684301991997927,4,1.8346467739975196,1,1.2519135370021104,,,047,001,2019_May_20_1310,MusicAffectPsychophysiology2019,3.0.5,59.462136315296256,
To what extent did the music make you feel ,SCARED,30MonoWAV/30MonoT1.wav,2,1,4,13,,,,,1,6,22,12,0,1,1,11,,,,,,,,,1,0.8678974830036168,,,047,001,2019_May_20_1310,MusicAffectPsychophysiology2019,3.0.5,59.462136315296256,
To what extent did the music make you feel ,SAD,30MonoWAV/30MonoT1.wav,2,1,4,13,,,,,1,6,22,12,0,2,2,0,,,,,,,,,1,2.7493630739991204,,,047,001,2019_May_20_1310,MusicAffectPsychophysiology2019,3.0.5,59.462136315296256,
To what extent did the music make you feel ,ACTIVE,30MonoWAV/30MonoT1.wav,2,1,4,13,,,,,1,6,22,12,0,3,3,9,,,,,,,,,1,2.5676786590047413,,,047,001,2019_May_20_1310,MusicAffectPsychophysiology2019,3.0.5,59.462136315296256,
To what extent did the music make you feel ,ALERT,30MonoWAV/30MonoT1.wav,2,1,4,13,,,,,1,6,22,12,0,4,4,8,,,,,,,,,1,0.9187980450005853,,,047,001,2019_May_20_1310,MusicAffectPsychophysiology2019,3.0.5,59.462136315296256,
To what extent did the music make you feel ,ANGRY,30MonoWAV/30MonoT1.wav,2,1,4,13,,,,,1,6,22,12,0,5,5,2,,,,,,,,,1,1.1014905339980032,,,047,001,2019_May_20_1310,MusicAffectPsychophysiology2019,3.0.5,59.462136315296256,
To what extent did the music make you feel ,HAPPY,30MonoWAV/30MonoT1.wav,2,1,4,13,,,,,1,6,22,12,0,6,6,6,,,,,,,,,3,1.368497142000706,,,047,001,2019_May_20_1310,MusicAffectPsychophysiology2019,3.0.5,59.462136315296256,
To what extent did the music make you feel ,GUILTY,30MonoWAV/30MonoT1.wav,2,1,4,13,,,,,1,6,22,12,0,7,7,5,,,,,,,,,1,1.6699580640051863,,,047,001,2019_May_20_1310,MusicAffectPsychophysiology2019,3.0.5,59.462136315296256,
To what extent did the music make you feel ,EXCITED,30MonoWAV/30MonoT1.wav,2,1,4,13,,,,,1,6,22,12,0,8,8,7,,,,,,,,,1,4.500539496999409,,,047,001,2019_May_20_1310,MusicAffectPsychophysiology2019,3.0.5,59.462136315296256,
To what extent did the music make you feel ,FRUSTRATED,30MonoWAV/30MonoT1.wav,2,1,4,13,,,,,1,6,22,12,0,9,9,3,,,,,,,,,1,0.9845110079986625,,,047,001,2019_May_20_1310,MusicAffectPsychophysiology2019,3.0.5,59.462136315296256,
To what extent did the music make you feel ,TENDER,30MonoWAV/30MonoT1.wav,2,1,4,13,,,,,1,6,22,12,0,10,10,10,,,,,,,,,2,1.201623966000625,,,047,001,2019_May_20_1310,MusicAffectPsychophysiology2019,3.0.5,59.462136315296256,
To what extent did the music make you feel ,ANXIOUS ,30MonoWAV/30MonoT1.wav,2,1,4,13,,,,,1,6,22,12,0,11,11,1,,,,,,,,,1,1.250951570997131,,,047,001,2019_May_20_1310,MusicAffectPsychophysiology2019,3.0.5,59.462136315296256,
,,30MonoWAV/30MonoT1.wav,2,1,4,13,,,,,1,6,22,12,,,,,,,,,,,,,,,,,047,001,2019_May_20_1310,MusicAffectPsychophysiology2019,3.0.5,59.462136315296256,
To what extent did the music make you feel ,GUILTY,30MonoWAV/30MonoF3.wav,1,2,2,3,,,,,1,7,23,2,0,0,0,5,,,1,2.88485436100018,3,1.4358581279957434,4,1.5014078189997235,1,1.1336681419998058,,,047,001,2019_May_20_1310,MusicAffectPsychophysiology2019,3.0.5,59.462136315296256,
To what extent did the music make you feel ,EXCITED,30MonoWAV/30MonoF3.wav,1,2,2,3,,,,,1,7,23,2,0,1,1,7,,,,,,,,,2,1.8336192760034464,,,047,001,2019_May_20_1310,MusicAffectPsychophysiology2019,3.0.5,59.462136315296256,
To what extent did the music make you feel ,SAD,30MonoWAV/30MonoF3.wav,1,2,2,3,,,,,1,7,23,2,0,2,2,0,,,,,,,,,1,1.0181425170012517,,,047,001,2019_May_20_1310,MusicAffectPsychophysiology2019,3.0.5,59.462136315296256,
To what extent did the music make you feel ,ASHAMED,30MonoWAV/30MonoF3.wav,1,2,2,3,,,,,1,7,23,2,0,3,3,4,,,,,,,,,1,0.95181421199959,,,047,001,2019_May_20_1310,MusicAffectPsychophysiology2019,3.0.5,59.462136315296256,
To what extent did the music make you feel ,TENDER,30MonoWAV/30MonoF3.wav,1,2,2,3,,,,,1,7,23,2,0,4,4,10,,,,,,,,,2,2.4846170309974696,,,047,001,2019_May_20_1310,MusicAffectPsychophysiology2019,3.0.5,59.462136315296256,
To what extent did the music make you feel ,HAPPY,30MonoWAV/30MonoF3.wav,1,2,2,3,,,,,1,7,23,2,0,5,5,6,,,,,,,,,3,1.0006313049962046,,,047,001,2019_May_20_1310,MusicAffectPsychophysiology2019,3.0.5,59.462136315296256,
To what extent did the music make you feel ,ACTIVE,30MonoWAV/30MonoF3.wav,1,2,2,3,,,,,1,7,23,2,0,6,6,9,,,,,,,,,1,1.5346953150001355,,,047,001,2019_May_20_1310,MusicAffectPsychophysiology2019,3.0.5,59.462136315296256,
To what extent did the music make you feel ,ANXIOUS ,30MonoWAV/30MonoF3.wav,1,2,2,3,,,,,1,7,23,2,0,7,7,1,,,,,,,,,1,1.051722169999266,,,047,001,2019_May_20_1310,MusicAffectPsychophysiology2019,3.0.5,59.462136315296256,
To what extent did the music make you feel ,ALERT,30MonoWAV/30MonoF3.wav,1,2,2,3,,,,,1,7,23,2,0,8,8,8,,,,,,,,,2,1.3517005949979648,,,047,001,2019_May_20_1310,MusicAffectPsychophysiology2019,3.0.5,59.462136315296256,
To what extent did the music make you feel ,FRUSTRATED,30MonoWAV/30MonoF3.wav,1,2,2,3,,,,,1,7,23,2,0,9,9,3,,,,,,,,,1,0.4855561810036306,,,047,001,2019_May_20_1310,MusicAffectPsychophysiology2019,3.0.5,59.462136315296256,
To what extent did the music make you feel ,SCARED,30MonoWAV/30MonoF3.wav,1,2,2,3,,,,,1,7,23,2,0,10,10,11,,,,,,,,,1,1.001456505000533,,,047,001,2019_May_20_1310,MusicAffectPsychophysiology2019,3.0.5,59.462136315296256,
To what extent did the music make you feel ,ANGRY,30MonoWAV/30MonoF3.wav,1,2,2,3,,,,,1,7,23,2,0,11,11,2,,,,,,,,,1,0.7681792409930495,,,047,001,2019_May_20_1310,MusicAffectPsychophysiology2019,3.0.5,59.462136315296256,
,,30MonoWAV/30MonoF3.wav,1,2,2,3,,,,,1,7,23,2,,,,,,,,,,,,,,,,,047,001,2019_May_20_1310,MusicAffectPsychophysiology2019,3.0.5,59.462136315296256,
To what extent did the music make you feel ,ALERT,30MonoWAV/30MonoT2.wav,2,1,4,14,,,,,1,8,24,13,0,0,0,8,,,2,2.968179618997965,4,2.101475067996944,3,1.6178240090011968,2,2.068209033997846,,,047,001,2019_May_20_1310,MusicAffectPsychophysiology2019,3.0.5,59.462136315296256,
To what extent did the music make you feel ,SCARED,30MonoWAV/30MonoT2.wav,2,1,4,14,,,,,1,8,24,13,0,1,1,11,,,,,,,,,1,0.9686543509960757,,,047,001,2019_May_20_1310,MusicAffectPsychophysiology2019,3.0.5,59.462136315296256,
To what extent did the music make you feel ,EXCITED,30MonoWAV/30MonoT2.wav,2,1,4,14,,,,,1,8,24,13,0,2,2,7,,,,,,,,,1,1.1680313079996267,,,047,001,2019_May_20_1310,MusicAffectPsychophysiology2019,3.0.5,59.462136315296256,
To what extent did the music make you feel ,TENDER,30MonoWAV/30MonoT2.wav,2,1,4,14,,,,,1,8,24,13,0,3,3,10,,,,,,,,,3,1.0015155510045588,,,047,001,2019_May_20_1310,MusicAffectPsychophysiology2019,3.0.5,59.462136315296256,
To what extent did the music make you feel ,FRUSTRATED,30MonoWAV/30MonoT2.wav,2,1,4,14,,,,,1,8,24,13,0,4,4,3,,,,,,,,,1,0.6272635380009888,,,047,001,2019_May_20_1310,MusicAffectPsychophysiology2019,3.0.5,59.462136315296256,
To what extent did the music make you feel ,ANXIOUS ,30MonoWAV/30MonoT2.wav,2,1,4,14,,,,,1,8,24,13,0,5,5,1,,,,,,,,,1,1.153304865998507,,,047,001,2019_May_20_1310,MusicAffectPsychophysiology2019,3.0.5,59.462136315296256,
To what extent did the music make you feel ,HAPPY,30MonoWAV/30MonoT2.wav,2,1,4,14,,,,,1,8,24,13,0,6,6,6,,,,,,,,,2,2.373942669997632,,,047,001,2019_May_20_1310,MusicAffectPsychophysiology2019,3.0.5,59.462136315296256,
To what extent did the music make you feel ,GUILTY,30MonoWAV/30MonoT2.wav,2,1,4,14,,,,,1,8,24,13,0,7,7,5,,,,,,,,,1,0.4991715540018049,,,047,001,2019_May_20_1310,MusicAffectPsychophysiology2019,3.0.5,59.462136315296256,
To what extent did the music make you feel ,ACTIVE,30MonoWAV/30MonoT2.wav,2,1,4,14,,,,,1,8,24,13,0,8,8,9,,,,,,,,,1,0.8342474020028021,,,047,001,2019_May_20_1310,MusicAffectPsychophysiology2019,3.0.5,59.462136315296256,
To what extent did the music make you feel ,ASHAMED,30MonoWAV/30MonoT2.wav,2,1,4,14,,,,,1,8,24,13,0,9,9,4,,,,,,,,,1,0.535033291002037,,,047,001,2019_May_20_1310,MusicAffectPsychophysiology2019,3.0.5,59.462136315296256,
To what extent did the music make you feel ,ANGRY,30MonoWAV/30MonoT2.wav,2,1,4,14,,,,,1,8,24,13,0,10,10,2,,,,,,,,,1,2.403222045999428,,,047,001,2019_May_20_1310,MusicAffectPsychophysiology2019,3.0.5,59.462136315296256,
To what extent did the music make you feel ,SAD,30MonoWAV/30MonoT2.wav,2,1,4,14,,,,,1,8,24,13,0,11,11,0,,,,,,,,,1,1.2018218760058517,,,047,001,2019_May_20_1310,MusicAffectPsychophysiology2019,3.0.5,59.462136315296256,
,,30MonoWAV/30MonoT2.wav,2,1,4,14,,,,,1,8,24,13,,,,,,,,,,,,,,,,,047,001,2019_May_20_1310,MusicAffectPsychophysiology2019,3.0.5,59.462136315296256,
To what extent did the music make you feel ,ASHAMED,30MonoWAV/30MonoS4.wav,1,1,3,12,,,,,1,9,25,11,0,0,0,4,,,1,4.183877568997559,2,2.0669892110017827,3,1.6683615560032194,1,2.1171963489978225,,,047,001,2019_May_20_1310,MusicAffectPsychophysiology2019,3.0.5,59.462136315296256,
To what extent did the music make you feel ,HAPPY,30MonoWAV/30MonoS4.wav,1,1,3,12,,,,,1,9,25,11,0,1,1,6,,,,,,,,,1,1.2006264369993005,,,047,001,2019_May_20_1310,MusicAffectPsychophysiology2019,3.0.5,59.462136315296256,
To what extent did the music make you feel ,FRUSTRATED,30MonoWAV/30MonoS4.wav,1,1,3,12,,,,,1,9,25,11,0,2,2,3,,,,,,,,,1,3.934726719002356,,,047,001,2019_May_20_1310,MusicAffectPsychophysiology2019,3.0.5,59.462136315296256,
To what extent did the music make you feel ,SAD,30MonoWAV/30MonoS4.wav,1,1,3,12,,,,,1,9,25,11,0,3,3,0,,,,,,,,,3,2.5843067259993404,,,047,001,2019_May_20_1310,MusicAffectPsychophysiology2019,3.0.5,59.462136315296256,
To what extent did the music make you feel ,SCARED,30MonoWAV/30MonoS4.wav,1,1,3,12,,,,,1,9,25,11,0,4,4,11,,,,,,,,,1,1.0351014400002896,,,047,001,2019_May_20_1310,MusicAffectPsychophysiology2019,3.0.5,59.462136315296256,
To what extent did the music make you feel ,ALERT,30MonoWAV/30MonoS4.wav,1,1,3,12,,,,,1,9,25,11,0,5,5,8,,,,,,,,,2,2.1178602630025125,,,047,001,2019_May_20_1310,MusicAffectPsychophysiology2019,3.0.5,59.462136315296256,
To what extent did the music make you feel ,ANGRY,30MonoWAV/30MonoS4.wav,1,1,3,12,,,,,1,9,25,11,0,6,6,2,,,,,,,,,1,0.8180646760010859,,,047,001,2019_May_20_1310,MusicAffectPsychophysiology2019,3.0.5,59.462136315296256,
To what extent did the music make you feel ,TENDER,30MonoWAV/30MonoS4.wav,1,1,3,12,,,,,1,9,25,11,0,7,7,10,,,,,,,,,3,2.301326393004274,,,047,001,2019_May_20_1310,MusicAffectPsychophysiology2019,3.0.5,59.462136315296256,
To what extent did the music make you feel ,ACTIVE,30MonoWAV/30MonoS4.wav,1,1,3,12,,,,,1,9,25,11,0,8,8,9,,,,,,,,,1,2.8340990690048784,,,047,001,2019_May_20_1310,MusicAffectPsychophysiology2019,3.0.5,59.462136315296256,
To what extent did the music make you feel ,ANXIOUS ,30MonoWAV/30MonoS4.wav,1,1,3,12,,,,,1,9,25,11,0,9,9,1,,,,,,,,,1,1.0849258930029464,,,047,001,2019_May_20_1310,MusicAffectPsychophysiology2019,3.0.5,59.462136315296256,
To what extent did the music make you feel ,EXCITED,30MonoWAV/30MonoS4.wav,1,1,3,12,,,,,1,9,25,11,0,10,10,7,,,,,,,,,1,1.8344515830031014,,,047,001,2019_May_20_1310,MusicAffectPsychophysiology2019,3.0.5,59.462136315296256,
To what extent did the music make you feel ,GUILTY,30MonoWAV/30MonoS4.wav,1,1,3,12,,,,,1,9,25,11,0,11,11,5,,,,,,,,,1,2.2847242999996524,,,047,001,2019_May_20_1310,MusicAffectPsychophysiology2019,3.0.5,59.462136315296256,
,,30MonoWAV/30MonoS4.wav,1,1,3,12,,,,,1,9,25,11,,,,,,,,,,,,,,,,,047,001,2019_May_20_1310,MusicAffectPsychophysiology2019,3.0.5,59.462136315296256,
To what extent did the music make you feel ,ANGRY,30MonoWAV/30MonoS2.wav,1,1,3,10,,,,,1,10,26,9,0,0,0,2,,,1,2.584834645000228,1,2.901676547000534,3,5.1179531939997105,1,1.9346955319997505,,,047,001,2019_May_20_1310,MusicAffectPsychophysiology2019,3.0.5,59.462136315296256,
To what extent did the music make you feel ,GUILTY,30MonoWAV/30MonoS2.wav,1,1,3,10,,,,,1,10,26,9,0,1,1,5,,,,,,,,,1,3.5847690970040276,,,047,001,2019_May_20_1310,MusicAffectPsychophysiology2019,3.0.5,59.462136315296256,
To what extent did the music make you feel ,ALERT,30MonoWAV/30MonoS2.wav,1,1,3,10,,,,,1,10,26,9,0,2,2,8,,,,,,,,,1,1.6515271540047252,,,047,001,2019_May_20_1310,MusicAffectPsychophysiology2019,3.0.5,59.462136315296256,
To what extent did the music make you feel ,EXCITED,30MonoWAV/30MonoS2.wav,1,1,3,10,,,,,1,10,26,9,0,3,3,7,,,,,,,,,1,1.3846087950005312,,,047,001,2019_May_20_1310,MusicAffectPsychophysiology2019,3.0.5,59.462136315296256,
To what extent did the music make you feel ,SAD,30MonoWAV/30MonoS2.wav,1,1,3,10,,,,,1,10,26,9,0,4,4,0,,,,,,,,,3,2.5181422189998557,,,047,001,2019_May_20_1310,MusicAffectPsychophysiology2019,3.0.5,59.462136315296256,
To what extent did the music make you feel ,SCARED,30MonoWAV/30MonoS2.wav,1,1,3,10,,,,,1,10,26,9,0,5,5,11,,,,,,,,,1,1.5015209060002235,,,047,001,2019_May_20_1310,MusicAffectPsychophysiology2019,3.0.5,59.462136315296256,
To what extent did the music make you feel ,ACTIVE,30MonoWAV/30MonoS2.wav,1,1,3,10,,,,,1,10,26,9,0,6,6,9,,,,,,,,,1,2.351781828001549,,,047,001,2019_May_20_1310,MusicAffectPsychophysiology2019,3.0.5,59.462136315296256,
To what extent did the music make you feel ,ASHAMED,30MonoWAV/30MonoS2.wav,1,1,3,10,,,,,1,10,26,9,0,7,7,4,,,,,,,,,1,1.3855681350032683,,,047,001,2019_May_20_1310,MusicAffectPsychophysiology2019,3.0.5,59.462136315296256,
To what extent did the music make you feel ,TENDER,30MonoWAV/30MonoS2.wav,1,1,3,10,,,,,1,10,26,9,0,8,8,10,,,,,,,,,3,1.7846558870005538,,,047,001,2019_May_20_1310,MusicAffectPsychophysiology2019,3.0.5,59.462136315296256,
To what extent did the music make you feel ,HAPPY,30MonoWAV/30MonoS2.wav,1,1,3,10,,,,,1,10,26,9,0,9,9,6,,,,,,,,,1,0.968423743994208,,,047,001,2019_May_20_1310,MusicAffectPsychophysiology2019,3.0.5,59.462136315296256,
To what extent did the music make you feel ,ANXIOUS ,30MonoWAV/30MonoS2.wav,1,1,3,10,,,,,1,10,26,9,0,10,10,1,,,,,,,,,2,4.7821354850020725,,,047,001,2019_May_20_1310,MusicAffectPsychophysiology2019,3.0.5,59.462136315296256,
To what extent did the music make you feel ,FRUSTRATED,30MonoWAV/30MonoS2.wav,1,1,3,10,,,,,1,10,26,9,0,11,11,3,,,,,,,,,1,1.0512167169945315,,,047,001,2019_May_20_1310,MusicAffectPsychophysiology2019,3.0.5,59.462136315296256,
,,30MonoWAV/30MonoS2.wav,1,1,3,10,,,,,1,10,26,9,,,,,,,,,,,,,,,,,047,001,2019_May_20_1310,MusicAffectPsychophysiology2019,3.0.5,59.462136315296256,
To what extent did the music make you feel ,SAD,30MonoWAV/30MonoH4.wav,2,2,1,8,,,,,1,11,27,7,0,0,0,0,,,5,2.2522979639979894,5,1.3838016240042634,4,0.8188796610047575,1,1.2684717349984567,,,047,001,2019_May_20_1310,MusicAffectPsychophysiology2019,3.0.5,59.462136315296256,
To what extent did the music make you feel ,ANXIOUS ,30MonoWAV/30MonoH4.wav,2,2,1,8,,,,,1,11,27,7,0,1,1,1,,,,,,,,,1,0.868434692005394,,,047,001,2019_May_20_1310,MusicAffectPsychophysiology2019,3.0.5,59.462136315296256,
To what extent did the music make you feel ,FRUSTRATED,30MonoWAV/30MonoH4.wav,2,2,1,8,,,,,1,11,27,7,0,2,2,3,,,,,,,,,1,0.9011971420040936,,,047,001,2019_May_20_1310,MusicAffectPsychophysiology2019,3.0.5,59.462136315296256,
To what extent did the music make you feel ,GUILTY,30MonoWAV/30MonoH4.wav,2,2,1,8,,,,,1,11,27,7,0,3,3,5,,,,,,,,,1,0.7688255620014388,,,047,001,2019_May_20_1310,MusicAffectPsychophysiology2019,3.0.5,59.462136315296256,
To what extent did the music make you feel ,ASHAMED,30MonoWAV/30MonoH4.wav,2,2,1,8,,,,,1,11,27,7,0,4,4,4,,,,,,,,,1,0.6682062350009801,,,047,001,2019_May_20_1310,MusicAffectPsychophysiology2019,3.0.5,59.462136315296256,
To what extent did the music make you feel ,ACTIVE,30MonoWAV/30MonoH4.wav,2,2,1,8,,,,,1,11,27,7,0,5,5,9,,,,,,,,,3,1.519098323995422,,,047,001,2019_May_20_1310,MusicAffectPsychophysiology2019,3.0.5,59.462136315296256,
To what extent did the music make you feel ,EXCITED,30MonoWAV/30MonoH4.wav,2,2,1,8,,,,,1,11,27,7,0,6,6,7,,,,,,,,,4,1.7006131340021966,,,047,001,2019_May_20_1310,MusicAffectPsychophysiology2019,3.0.5,59.462136315296256,
To what extent did the music make you feel ,HAPPY,30MonoWAV/30MonoH4.wav,2,2,1,8,,,,,1,11,27,7,0,7,7,6,,,,,,,,,4,1.3019610779956565,,,047,001,2019_May_20_1310,MusicAffectPsychophysiology2019,3.0.5,59.462136315296256,
To what extent did the music make you feel ,TENDER,30MonoWAV/30MonoH4.wav,2,2,1,8,,,,,1,11,27,7,0,8,8,10,,,,,,,,,1,1.4163596700018388,,,047,001,2019_May_20_1310,MusicAffectPsychophysiology2019,3.0.5,59.462136315296256,
To what extent did the music make you feel ,ALERT,30MonoWAV/30MonoH4.wav,2,2,1,8,,,,,1,11,27,7,0,9,9,8,,,,,,,,,3,1.3516081390043837,,,047,001,2019_May_20_1310,MusicAffectPsychophysiology2019,3.0.5,59.462136315296256,
To what extent did the music make you feel ,SCARED,30MonoWAV/30MonoH4.wav,2,2,1,8,,,,,1,11,27,7,0,10,10,11,,,,,,,,,1,0.6851839080045465,,,047,001,2019_May_20_1310,MusicAffectPsychophysiology2019,3.0.5,59.462136315296256,
To what extent did the music make you feel ,ANGRY,30MonoWAV/30MonoH4.wav,2,2,1,8,,,,,1,11,27,7,0,11,11,2,,,,,,,,,1,0.8672083749988815,,,047,001,2019_May_20_1310,MusicAffectPsychophysiology2019,3.0.5,59.462136315296256,
,,30MonoWAV/30MonoH4.wav,2,2,1,8,,,,,1,11,27,7,,,,,,,,,,,,,,,,,047,001,2019_May_20_1310,MusicAffectPsychophysiology2019,3.0.5,59.462136315296256,
To what extent did the music make you feel ,TENDER,30MonoWAV/30MonoT4.wav,2,1,4,16,,,,,1,12,28,15,0,0,0,10,,,3,3.591490704995522,4,1.3683921920019202,3,1.635132761002751,2,2.2861545060004573,,,047,001,2019_May_20_1310,MusicAffectPsychophysiology2019,3.0.5,59.462136315296256,
To what extent did the music make you feel ,ANXIOUS ,30MonoWAV/30MonoT4.wav,2,1,4,16,,,,,1,12,28,15,0,1,1,1,,,,,,,,,1,0.9510854999971343,,,047,001,2019_May_20_1310,MusicAffectPsychophysiology2019,3.0.5,59.462136315296256,
To what extent did the music make you feel ,ASHAMED,30MonoWAV/30MonoT4.wav,2,1,4,16,,,,,1,12,28,15,0,2,2,4,,,,,,,,,1,0.8518912869985797,,,047,001,2019_May_20_1310,MusicAffectPsychophysiology2019,3.0.5,59.462136315296256,
To what extent did the music make you feel ,EXCITED,30MonoWAV/30MonoT4.wav,2,1,4,16,,,,,1,12,28,15,0,3,3,7,,,,,,,,,1,2.685002655001881,,,047,001,2019_May_20_1310,MusicAffectPsychophysiology2019,3.0.5,59.462136315296256,
To what extent did the music make you feel ,SCARED,30MonoWAV/30MonoT4.wav,2,1,4,16,,,,,1,12,28,15,0,4,4,11,,,,,,,,,1,0.6856347350039869,,,047,001,2019_May_20_1310,MusicAffectPsychophysiology2019,3.0.5,59.462136315296256,
To what extent did the music make you feel ,ALERT,30MonoWAV/30MonoT4.wav,2,1,4,16,,,,,1,12,28,15,0,5,5,8,,,,,,,,,2,2.085173669998767,,,047,001,2019_May_20_1310,MusicAffectPsychophysiology2019,3.0.5,59.462136315296256,
To what extent did the music make you feel ,HAPPY,30MonoWAV/30MonoT4.wav,2,1,4,16,,,,,1,12,28,15,0,6,6,6,,,,,,,,,1,0.7651895340022747,,,047,001,2019_May_20_1310,MusicAffectPsychophysiology2019,3.0.5,59.462136315296256,
To what extent did the music make you feel ,SAD,30MonoWAV/30MonoT4.wav,2,1,4,16,,,,,1,12,28,15,0,7,7,0,,,,,,,,,2,1.1514288910038886,,,047,001,2019_May_20_1310,MusicAffectPsychophysiology2019,3.0.5,59.462136315296256,
To what extent did the music make you feel ,ACTIVE,30MonoWAV/30MonoT4.wav,2,1,4,16,,,,,1,12,28,15,0,8,8,9,,,,,,,,,1,5.518032548003248,,,047,001,2019_May_20_1310,MusicAffectPsychophysiology2019,3.0.5,59.462136315296256,
To what extent did the music make you feel ,FRUSTRATED,30MonoWAV/30MonoT4.wav,2,1,4,16,,,,,1,12,28,15,0,9,9,3,,,,,,,,,1,0.618202965000819,,,047,001,2019_May_20_1310,MusicAffectPsychophysiology2019,3.0.5,59.462136315296256,
To what extent did the music make you feel ,GUILTY,30MonoWAV/30MonoT4.wav,2,1,4,16,,,,,1,12,28,15,0,10,10,5,,,,,,,,,1,0.7010220430020127,,,047,001,2019_May_20_1310,MusicAffectPsychophysiology2019,3.0.5,59.462136315296256,
To what extent did the music make you feel ,ANGRY,30MonoWAV/30MonoT4.wav,2,1,4,16,,,,,1,12,28,15,0,11,11,2,,,,,,,,,1,0.8688384540000698,,,047,001,2019_May_20_1310,MusicAffectPsychophysiology2019,3.0.5,59.462136315296256,
,,30MonoWAV/30MonoT4.wav,2,1,4,16,,,,,1,12,28,15,,,,,,,,,,,,,,,,,047,001,2019_May_20_1310,MusicAffectPsychophysiology2019,3.0.5,59.462136315296256,
To what extent did the music make you feel ,FRUSTRATED,30MonoWAV/30MonoF2.wav,1,2,2,2,,,,,1,13,29,1,0,0,0,3,,,4,2.7855440550047206,3,4.717688752003596,4,5.034931087000587,1,1.1379948949979735,,,047,001,2019_May_20_1310,MusicAffectPsychophysiology2019,3.0.5,59.462136315296256,
To what extent did the music make you feel ,SCARED,30MonoWAV/30MonoF2.wav,1,2,2,2,,,,,1,13,29,1,0,1,1,11,,,,,,,,,2,2.534531520999735,,,047,001,2019_May_20_1310,MusicAffectPsychophysiology2019,3.0.5,59.462136315296256,
To what extent did the music make you feel ,HAPPY,30MonoWAV/30MonoF2.wav,1,2,2,2,,,,,1,13,29,1,0,2,2,6,,,,,,,,,2,3.0669204160003574,,,047,001,2019_May_20_1310,MusicAffectPsychophysiology2019,3.0.5,59.462136315296256,
To what extent did the music make you feel ,TENDER,30MonoWAV/30MonoF2.wav,1,2,2,2,,,,,1,13,29,1,0,3,3,10,,,,,,,,,3,1.3182036110010813,,,047,001,2019_May_20_1310,MusicAffectPsychophysiology2019,3.0.5,59.462136315296256,
To what extent did the music make you feel ,ACTIVE,30MonoWAV/30MonoF2.wav,1,2,2,2,,,,,1,13,29,1,0,4,4,9,,,,,,,,,1,1.2683921249990817,,,047,001,2019_May_20_1310,MusicAffectPsychophysiology2019,3.0.5,59.462136315296256,
To what extent did the music make you feel ,ANXIOUS ,30MonoWAV/30MonoF2.wav,1,2,2,2,,,,,1,13,29,1,0,5,5,1,,,,,,,,,3,1.1524328529994818,,,047,001,2019_May_20_1310,MusicAffectPsychophysiology2019,3.0.5,59.462136315296256,
To what extent did the music make you feel ,EXCITED,30MonoWAV/30MonoF2.wav,1,2,2,2,,,,,1,13,29,1,0,6,6,7,,,,,,,,,3,2.9021471249943716,,,047,001,2019_May_20_1310,MusicAffectPsychophysiology2019,3.0.5,59.462136315296256,
To what extent did the music make you feel ,ASHAMED,30MonoWAV/30MonoF2.wav,1,2,2,2,,,,,1,13,29,1,0,7,7,4,,,,,,,,,1,1.1014344630020787,,,047,001,2019_May_20_1310,MusicAffectPsychophysiology2019,3.0.5,59.462136315296256,
To what extent did the music make you feel ,GUILTY,30MonoWAV/30MonoF2.wav,1,2,2,2,,,,,1,13,29,1,0,8,8,5,,,,,,,,,1,0.9188418560006539,,,047,001,2019_May_20_1310,MusicAffectPsychophysiology2019,3.0.5,59.462136315296256,
To what extent did the music make you feel ,ALERT,30MonoWAV/30MonoF2.wav,1,2,2,2,,,,,1,13,29,1,0,9,9,8,,,,,,,,,3,1.0844599120027851,,,047,001,2019_May_20_1310,MusicAffectPsychophysiology2019,3.0.5,59.462136315296256,
To what extent did the music make you feel ,ANGRY,30MonoWAV/30MonoF2.wav,1,2,2,2,,,,,1,13,29,1,0,10,10,2,,,,,,,,,1,2.3500880979991052,,,047,001,2019_May_20_1310,MusicAffectPsychophysiology2019,3.0.5,59.462136315296256,
To what extent did the music make you feel ,SAD,30MonoWAV/30MonoF2.wav,1,2,2,2,,,,,1,13,29,1,0,11,11,0,,,,,,,,,1,1.568452822000836,,,047,001,2019_May_20_1310,MusicAffectPsychophysiology2019,3.0.5,59.462136315296256,
,,30MonoWAV/30MonoF2.wav,1,2,2,2,,,,,1,13,29,1,,,,,,,,,,,,,,,,,047,001,2019_May_20_1310,MusicAffectPsychophysiology2019,3.0.5,59.462136315296256,
To what extent did the music make you feel ,ANGRY,30MonoWAV/30MonoF1.wav,1,2,2,1,,,,,1,14,30,0,0,0,0,2,,,5,3.051321432001714,3,5.434508316000574,4,1.3221415619991603,1,1.0522669540005154,,,047,001,2019_May_20_1310,MusicAffectPsychophysiology2019,3.0.5,59.462136315296256,
To what extent did the music make you feel ,HAPPY,30MonoWAV/30MonoF1.wav,1,2,2,1,,,,,1,14,30,0,0,1,1,6,,,,,,,,,1,1.5037606490004691,,,047,001,2019_May_20_1310,MusicAffectPsychophysiology2019,3.0.5,59.462136315296256,
To what extent did the music make you feel ,ANXIOUS ,30MonoWAV/30MonoF1.wav,1,2,2,1,,,,,1,14,30,0,0,2,2,1,,,,,,,,,3,2.304843586003699,,,047,001,2019_May_20_1310,MusicAffectPsychophysiology2019,3.0.5,59.462136315296256,
To what extent did the music make you feel ,ALERT,30MonoWAV/30MonoF1.wav,1,2,2,1,,,,,1,14,30,0,0,3,3,8,,,,,,,,,4,1.2399935869980254,,,047,001,2019_May_20_1310,MusicAffectPsychophysiology2019,3.0.5,59.462136315296256,
To what extent did the music make you feel ,TENDER,30MonoWAV/30MonoF1.wav,1,2,2,1,,,,,1,14,30,0,0,4,4,10,,,,,,,,,2,1.3350580309997895,,,047,001,2019_May_20_1310,MusicAffectPsychophysiology2019,3.0.5,59.462136315296256,
To what extent did the music make you feel ,ACTIVE,30MonoWAV/30MonoF1.wav,1,2,2,1,,,,,1,14,30,0,0,5,5,9,,,,,,,,,2,2.000047939000069,,,047,001,2019_May_20_1310,MusicAffectPsychophysiology2019,3.0.5,59.462136315296256,
To what extent did the music make you feel ,GUILTY,30MonoWAV/30MonoF1.wav,1,2,2,1,,,,,1,14,30,0,0,6,6,5,,,,,,,,,1,1.1687942549979198,,,047,001,2019_May_20_1310,MusicAffectPsychophysiology2019,3.0.5,59.462136315296256,
To what extent did the music make you feel ,SCARED,30MonoWAV/30MonoF1.wav,1,2,2,1,,,,,1,14,30,0,0,7,7,11,,,,,,,,,3,1.2332600160007132,,,047,001,2019_May_20_1310,MusicAffectPsychophysiology2019,3.0.5,59.462136315296256,
To what extent did the music make you feel ,ASHAMED,30MonoWAV/30MonoF1.wav,1,2,2,1,,,,,1,14,30,0,0,8,8,4,,,,,,,,,1,0.684788208003738,,,047,001,2019_May_20_1310,MusicAffectPsychophysiology2019,3.0.5,59.462136315296256,
To what extent did the music make you feel ,SAD,30MonoWAV/30MonoF1.wav,1,2,2,1,,,,,1,14,30,0,0,9,9,0,,,,,,,,,1,1.10170541399566,,,047,001,2019_May_20_1310,MusicAffectPsychophysiology2019,3.0.5,59.462136315296256,
To what extent did the music make you feel ,EXCITED,30MonoWAV/30MonoF1.wav,1,2,2,1,,,,,1,14,30,0,0,10,10,7,,,,,,,,,2,1.1845524559976184,,,047,001,2019_May_20_1310,MusicAffectPsychophysiology2019,3.0.5,59.462136315296256,
To what extent did the music make you feel ,FRUSTRATED,30MonoWAV/30MonoF1.wav,1,2,2,1,,,,,1,14,30,0,0,11,11,3,,,,,,,,,1,0.7347828209967702,,,047,001,2019_May_20_1310,MusicAffectPsychophysiology2019,3.0.5,59.462136315296256,
,,30MonoWAV/30MonoF1.wav,1,2,2,1,,,,,1,14,30,0,,,,,,,,,,,,,,,,,047,001,2019_May_20_1310,MusicAffectPsychophysiology2019,3.0.5,59.462136315296256,
To what extent did the music make you feel ,ACTIVE,30MonoWAV/30MonoF4.wav,1,2,2,4,,,,,1,15,31,3,0,0,0,9,,,5,6.222394008000265,3,2.057396090000111,3,14.326954215001024,3,5.751100433000829,,,047,001,2019_May_20_1310,MusicAffectPsychophysiology2019,3.0.5,59.462136315296256,
To what extent did the music make you feel ,ANXIOUS ,30MonoWAV/30MonoF4.wav,1,2,2,4,,,,,1,15,31,3,0,1,1,1,,,,,,,,,2,8.501718997998978,,,047,001,2019_May_20_1310,MusicAffectPsychophysiology2019,3.0.5,59.462136315296256,
To what extent did the music make you feel ,ANGRY,30MonoWAV/30MonoF4.wav,1,2,2,4,,,,,1,15,31,3,0,2,2,2,,,,,,,,,1,3.767082569000195,,,047,001,2019_May_20_1310,MusicAffectPsychophysiology2019,3.0.5,59.462136315296256,
To what extent did the music make you feel ,HAPPY,30MonoWAV/30MonoF4.wav,1,2,2,4,,,,,1,15,31,3,0,3,3,6,,,,,,,,,3,1.9020792299997993,,,047,001,2019_May_20_1310,MusicAffectPsychophysiology2019,3.0.5,59.462136315296256,
To what extent did the music make you feel ,ASHAMED,30MonoWAV/30MonoF4.wav,1,2,2,4,,,,,1,15,31,3,0,4,4,4,,,,,,,,,1,0.9004303900001105,,,047,001,2019_May_20_1310,MusicAffectPsychophysiology2019,3.0.5,59.462136315296256,
To what extent did the music make you feel ,FRUSTRATED,30MonoWAV/30MonoF4.wav,1,2,2,4,,,,,1,15,31,3,0,5,5,3,,,,,,,,,1,0.9350453650040436,,,047,001,2019_May_20_1310,MusicAffectPsychophysiology2019,3.0.5,59.462136315296256,
To what extent did the music make you feel ,EXCITED,30MonoWAV/30MonoF4.wav,1,2,2,4,,,,,1,15,31,3,0,6,6,7,,,,,,,,,3,1.5844539730023826,,,047,001,2019_May_20_1310,MusicAffectPsychophysiology2019,3.0.5,59.462136315296256,
To what extent did the music make you feel ,SAD,30MonoWAV/30MonoF4.wav,1,2,2,4,,,,,1,15,31,3,0,7,7,0,,,,,,,,,1,1.3681682210008148,,,047,001,2019_May_20_1310,MusicAffectPsychophysiology2019,3.0.5,59.462136315296256,
To what extent did the music make you feel ,ALERT,30MonoWAV/30MonoF4.wav,1,2,2,4,,,,,1,15,31,3,0,8,8,8,,,,,,,,,3,1.3349574930034578,,,047,001,2019_May_20_1310,MusicAffectPsychophysiology2019,3.0.5,59.462136315296256,
To what extent did the music make you feel ,GUILTY,30MonoWAV/30MonoF4.wav,1,2,2,4,,,,,1,15,31,3,0,9,9,5,,,,,,,,,1,1.5684524879980017,,,047,001,2019_May_20_1310,MusicAffectPsychophysiology2019,3.0.5,59.462136315296256,
To what extent did the music make you feel ,SCARED,30MonoWAV/30MonoF4.wav,1,2,2,4,,,,,1,15,31,3,0,10,10,11,,,,,,,,,4,1.2184828570025275,,,047,001,2019_May_20_1310,MusicAffectPsychophysiology2019,3.0.5,59.462136315296256,
To what extent did the music make you feel ,TENDER,30MonoWAV/30MonoF4.wav,1,2,2,4,,,,,1,15,31,3,0,11,11,10,,,,,,,,,4,1.5514517670017085,,,047,001,2019_May_20_1310,MusicAffectPsychophysiology2019,3.0.5,59.462136315296256,
,,30MonoWAV/30MonoF4.wav,1,2,2,4,,,,,1,15,31,3,,,,,,,,,,,,,,,,,047,001,2019_May_20_1310,MusicAffectPsychophysiology2019,3.0.5,59.462136315296256,
,,,,,,,,,,,,,,,,,,,,,,,,,,,,,space,6.251201420993311,047,001,2019_May_20_1310,MusicAffectPsychophysiology2019,3.0.5,59.462136315296256,
