Instruction,Word,song,valence,arousal,affectcat,songmark,pracwords.thisRepN,pracwords.thisTrialN,pracwords.thisN,pracwords.thisIndex,songtrials.thisRepN,songtrials.thisTrialN,songtrials.thisN,songtrials.thisIndex,words.thisRepN,words.thisTrialN,words.thisN,words.thisIndex,begin.keys,begin.rt,arousalkey.keys,arousalkey.rt,valencekey.keys,valencekey.rt,likekey.keys,likekey.rt,WordResponse.keys,WordResponse.rt,key_resp_2.keys,key_resp_2.rt,participant,session,date,expName,psychopyVersion,frameRate,
,,,,,,,,,,,,,,,,,,,space,10.567883944997448,,,,,,,,,,,048,001,2019_May_20_1417,MusicAffectPsychophysiology2019,3.0.5,59.57668347518305,
,,,,,,,,,,,,,,,,,,,,,3,5.3697401259996695,,,,,,,,,048,001,2019_May_20_1417,MusicAffectPsychophysiology2019,3.0.5,59.57668347518305,
,,,,,,,,,,,,,,,,,,,,,,,4,6.250666334002744,,,,,,,048,001,2019_May_20_1417,MusicAffectPsychophysiology2019,3.0.5,59.57668347518305,
,,,,,,,,,,,,,,,,,,,,,,,,,4,2.650351791002322,,,,,048,001,2019_May_20_1417,MusicAffectPsychophysiology2019,3.0.5,59.57668347518305,
To what extent did the music make you feel ,HAPPY,,,,,,0,0,0,6,,,,,,,,,,,,,,,,,4,4.873911805996613,,,048,001,2019_May_20_1417,MusicAffectPsychophysiology2019,3.0.5,59.57668347518305,
To what extent did the music make you feel ,SAD,,,,,,0,1,1,0,,,,,,,,,,,,,,,,,1,2.152457857002446,,,048,001,2019_May_20_1417,MusicAffectPsychophysiology2019,3.0.5,59.57668347518305,
To what extent did the music make you feel ,ANGRY,,,,,,0,2,2,2,,,,,,,,,,,,,,,,,1,1.670455942999979,,,048,001,2019_May_20_1417,MusicAffectPsychophysiology2019,3.0.5,59.57668347518305,
To what extent did the music make you feel ,ASHAMED,,,,,,0,3,3,4,,,,,,,,,,,,,,,,,1,1.4872888719983166,,,048,001,2019_May_20_1417,MusicAffectPsychophysiology2019,3.0.5,59.57668347518305,
To what extent did the music make you feel ,TENDER,,,,,,0,4,4,10,,,,,,,,,,,,,,,,,2,2.056581072996778,,,048,001,2019_May_20_1417,MusicAffectPsychophysiology2019,3.0.5,59.57668347518305,
To what extent did the music make you feel ,SCARED,,,,,,0,5,5,11,,,,,,,,,,,,,,,,,1,0.8999568819999695,,,048,001,2019_May_20_1417,MusicAffectPsychophysiology2019,3.0.5,59.57668347518305,
To what extent did the music make you feel ,ANXIOUS ,,,,,,0,6,6,1,,,,,,,,,,,,,,,,,1,0.8665548780045356,,,048,001,2019_May_20_1417,MusicAffectPsychophysiology2019,3.0.5,59.57668347518305,
To what extent did the music make you feel ,GUILTY,,,,,,0,7,7,5,,,,,,,,,,,,,,,,,1,0.951493456006574,,,048,001,2019_May_20_1417,MusicAffectPsychophysiology2019,3.0.5,59.57668347518305,
To what extent did the music make you feel ,FRUSTRATED,,,,,,0,8,8,3,,,,,,,,,,,,,,,,,1,0.9182682509999722,,,048,001,2019_May_20_1417,MusicAffectPsychophysiology2019,3.0.5,59.57668347518305,
To what extent did the music make you feel ,EXCITED,,,,,,0,9,9,7,,,,,,,,,,,,,,,,,2,2.833173369996075,,,048,001,2019_May_20_1417,MusicAffectPsychophysiology2019,3.0.5,59.57668347518305,
To what extent did the music make you feel ,ACTIVE,,,,,,0,10,10,9,,,,,,,,,,,,,,,,,1,1.1177447129957727,,,048,001,2019_May_20_1417,MusicAffectPsychophysiology2019,3.0.5,59.57668347518305,
To what extent did the music make you feel ,ALERT,,,,,,0,11,11,8,,,,,,,,,,,,,,,,,3,4.001541282996186,,,048,001,2019_May_20_1417,MusicAffectPsychophysiology2019,3.0.5,59.57668347518305,
To what extent did the music make you feel ,HAPPY,30MonoWAV/30MonoS3.wav,1,1,3,11,,,,,0,0,0,10,0,0,0,6,,,4,6.334454747004202,4,5.3515001439955086,4,2.2024690590042155,3,3.102147846002481,,,048,001,2019_May_20_1417,MusicAffectPsychophysiology2019,3.0.5,59.57668347518305,
To what extent did the music make you feel ,ANGRY,30MonoWAV/30MonoS3.wav,1,1,3,11,,,,,0,0,0,10,0,1,1,2,,,,,,,,,1,1.7342699200016796,,,048,001,2019_May_20_1417,MusicAffectPsychophysiology2019,3.0.5,59.57668347518305,
To what extent did the music make you feel ,FRUSTRATED,30MonoWAV/30MonoS3.wav,1,1,3,11,,,,,0,0,0,10,0,2,2,3,,,,,,,,,1,1.1016758289988502,,,048,001,2019_May_20_1417,MusicAffectPsychophysiology2019,3.0.5,59.57668347518305,
To what extent did the music make you feel ,ASHAMED,30MonoWAV/30MonoS3.wav,1,1,3,11,,,,,0,0,0,10,0,3,3,4,,,,,,,,,1,0.8847699799953261,,,048,001,2019_May_20_1417,MusicAffectPsychophysiology2019,3.0.5,59.57668347518305,
To what extent did the music make you feel ,ACTIVE,30MonoWAV/30MonoS3.wav,1,1,3,11,,,,,0,0,0,10,0,4,4,9,,,,,,,,,2,1.5190306610020343,,,048,001,2019_May_20_1417,MusicAffectPsychophysiology2019,3.0.5,59.57668347518305,
To what extent did the music make you feel ,ANXIOUS ,30MonoWAV/30MonoS3.wav,1,1,3,11,,,,,0,0,0,10,0,5,5,1,,,,,,,,,1,3.0001718179992167,,,048,001,2019_May_20_1417,MusicAffectPsychophysiology2019,3.0.5,59.57668347518305,
To what extent did the music make you feel ,SAD,30MonoWAV/30MonoS3.wav,1,1,3,11,,,,,0,0,0,10,0,6,6,0,,,,,,,,,2,1.4701211509964196,,,048,001,2019_May_20_1417,MusicAffectPsychophysiology2019,3.0.5,59.57668347518305,
To what extent did the music make you feel ,SCARED,30MonoWAV/30MonoS3.wav,1,1,3,11,,,,,0,0,0,10,0,7,7,11,,,,,,,,,1,1.6011384910016204,,,048,001,2019_May_20_1417,MusicAffectPsychophysiology2019,3.0.5,59.57668347518305,
To what extent did the music make you feel ,ALERT,30MonoWAV/30MonoS3.wav,1,1,3,11,,,,,0,0,0,10,0,8,8,8,,,,,,,,,1,1.6353171890004887,,,048,001,2019_May_20_1417,MusicAffectPsychophysiology2019,3.0.5,59.57668347518305,
To what extent did the music make you feel ,EXCITED,30MonoWAV/30MonoS3.wav,1,1,3,11,,,,,0,0,0,10,0,9,9,7,,,,,,,,,3,1.233630376002111,,,048,001,2019_May_20_1417,MusicAffectPsychophysiology2019,3.0.5,59.57668347518305,
To what extent did the music make you feel ,TENDER,30MonoWAV/30MonoS3.wav,1,1,3,11,,,,,0,0,0,10,0,10,10,10,,,,,,,,,2,2.119040296995081,,,048,001,2019_May_20_1417,MusicAffectPsychophysiology2019,3.0.5,59.57668347518305,
To what extent did the music make you feel ,GUILTY,30MonoWAV/30MonoS3.wav,1,1,3,11,,,,,0,0,0,10,0,11,11,5,,,,,,,,,1,0.8019167099992046,,,048,001,2019_May_20_1417,MusicAffectPsychophysiology2019,3.0.5,59.57668347518305,
,,30MonoWAV/30MonoS3.wav,1,1,3,11,,,,,0,0,0,10,,,,,,,,,,,,,,,,,048,001,2019_May_20_1417,MusicAffectPsychophysiology2019,3.0.5,59.57668347518305,
To what extent did the music make you feel ,GUILTY,30MonoWAV/30MonoH1.wav,2,2,1,5,,,,,0,1,1,4,0,0,0,5,,,5,6.267873655000585,5,1.1178477040011785,5,2.251414491001924,1,2.0344126309937565,,,048,001,2019_May_20_1417,MusicAffectPsychophysiology2019,3.0.5,59.57668347518305,
To what extent did the music make you feel ,TENDER,30MonoWAV/30MonoH1.wav,2,2,1,5,,,,,0,1,1,4,0,1,1,10,,,,,,,,,1,1.6853254289962933,,,048,001,2019_May_20_1417,MusicAffectPsychophysiology2019,3.0.5,59.57668347518305,
To what extent did the music make you feel ,SCARED,30MonoWAV/30MonoH1.wav,2,2,1,5,,,,,0,1,1,4,0,2,2,11,,,,,,,,,1,0.5499700770014897,,,048,001,2019_May_20_1417,MusicAffectPsychophysiology2019,3.0.5,59.57668347518305,
To what extent did the music make you feel ,HAPPY,30MonoWAV/30MonoH1.wav,2,2,1,5,,,,,0,1,1,4,0,3,3,6,,,,,,,,,5,2.4345905469963327,,,048,001,2019_May_20_1417,MusicAffectPsychophysiology2019,3.0.5,59.57668347518305,
To what extent did the music make you feel ,FRUSTRATED,30MonoWAV/30MonoH1.wav,2,2,1,5,,,,,0,1,1,4,0,4,4,3,,,,,,,,,1,0.9688448400047491,,,048,001,2019_May_20_1417,MusicAffectPsychophysiology2019,3.0.5,59.57668347518305,
To what extent did the music make you feel ,ANGRY,30MonoWAV/30MonoH1.wav,2,2,1,5,,,,,0,1,1,4,0,5,5,2,,,,,,,,,1,0.602396124995721,,,048,001,2019_May_20_1417,MusicAffectPsychophysiology2019,3.0.5,59.57668347518305,
To what extent did the music make you feel ,ANXIOUS ,30MonoWAV/30MonoH1.wav,2,2,1,5,,,,,0,1,1,4,0,6,6,1,,,,,,,,,1,0.8182153919988195,,,048,001,2019_May_20_1417,MusicAffectPsychophysiology2019,3.0.5,59.57668347518305,
To what extent did the music make you feel ,EXCITED,30MonoWAV/30MonoH1.wav,2,2,1,5,,,,,0,1,1,4,0,7,7,7,,,,,,,,,4,1.6509209990035743,,,048,001,2019_May_20_1417,MusicAffectPsychophysiology2019,3.0.5,59.57668347518305,
To what extent did the music make you feel ,ACTIVE,30MonoWAV/30MonoH1.wav,2,2,1,5,,,,,0,1,1,4,0,8,8,9,,,,,,,,,4,1.9181648119993042,,,048,001,2019_May_20_1417,MusicAffectPsychophysiology2019,3.0.5,59.57668347518305,
To what extent did the music make you feel ,SAD,30MonoWAV/30MonoH1.wav,2,2,1,5,,,,,0,1,1,4,0,9,9,0,,,,,,,,,1,1.001874419998785,,,048,001,2019_May_20_1417,MusicAffectPsychophysiology2019,3.0.5,59.57668347518305,
To what extent did the music make you feel ,ASHAMED,30MonoWAV/30MonoH1.wav,2,2,1,5,,,,,0,1,1,4,0,10,10,4,,,,,,,,,1,0.7002558339954703,,,048,001,2019_May_20_1417,MusicAffectPsychophysiology2019,3.0.5,59.57668347518305,
To what extent did the music make you feel ,ALERT,30MonoWAV/30MonoH1.wav,2,2,1,5,,,,,0,1,1,4,0,11,11,8,,,,,,,,,1,0.5514214029972209,,,048,001,2019_May_20_1417,MusicAffectPsychophysiology2019,3.0.5,59.57668347518305,
,,30MonoWAV/30MonoH1.wav,2,2,1,5,,,,,0,1,1,4,,,,,,,,,,,,,,,,,048,001,2019_May_20_1417,MusicAffectPsychophysiology2019,3.0.5,59.57668347518305,
To what extent did the music make you feel ,SAD,30MonoWAV/30MonoH3.wav,2,2,1,7,,,,,0,2,2,6,0,0,0,0,,,3,7.359547483996721,2,2.689162226000917,2,3.922469604003709,1,1.2020855809969362,,,048,001,2019_May_20_1417,MusicAffectPsychophysiology2019,3.0.5,59.57668347518305,
To what extent did the music make you feel ,SCARED,30MonoWAV/30MonoH3.wav,2,2,1,7,,,,,0,2,2,6,0,1,1,11,,,,,,,,,1,0.6360332159965765,,,048,001,2019_May_20_1417,MusicAffectPsychophysiology2019,3.0.5,59.57668347518305,
To what extent did the music make you feel ,EXCITED,30MonoWAV/30MonoH3.wav,2,2,1,7,,,,,0,2,2,6,0,2,2,7,,,,,,,,,2,3.1185026169987395,,,048,001,2019_May_20_1417,MusicAffectPsychophysiology2019,3.0.5,59.57668347518305,
To what extent did the music make you feel ,ACTIVE,30MonoWAV/30MonoH3.wav,2,2,1,7,,,,,0,2,2,6,0,3,3,9,,,,,,,,,2,1.199747334998392,,,048,001,2019_May_20_1417,MusicAffectPsychophysiology2019,3.0.5,59.57668347518305,
To what extent did the music make you feel ,ANGRY,30MonoWAV/30MonoH3.wav,2,2,1,7,,,,,0,2,2,6,0,4,4,2,,,,,,,,,1,0.5671002630042494,,,048,001,2019_May_20_1417,MusicAffectPsychophysiology2019,3.0.5,59.57668347518305,
To what extent did the music make you feel ,ASHAMED,30MonoWAV/30MonoH3.wav,2,2,1,7,,,,,0,2,2,6,0,5,5,4,,,,,,,,,1,0.8516440379971755,,,048,001,2019_May_20_1417,MusicAffectPsychophysiology2019,3.0.5,59.57668347518305,
To what extent did the music make you feel ,FRUSTRATED,30MonoWAV/30MonoH3.wav,2,2,1,7,,,,,0,2,2,6,0,6,6,3,,,,,,,,,2,1.1855506030042307,,,048,001,2019_May_20_1417,MusicAffectPsychophysiology2019,3.0.5,59.57668347518305,
To what extent did the music make you feel ,GUILTY,30MonoWAV/30MonoH3.wav,2,2,1,7,,,,,0,2,2,6,0,7,7,5,,,,,,,,,1,1.3680657119984971,,,048,001,2019_May_20_1417,MusicAffectPsychophysiology2019,3.0.5,59.57668347518305,
To what extent did the music make you feel ,ALERT,30MonoWAV/30MonoH3.wav,2,2,1,7,,,,,0,2,2,6,0,8,8,8,,,,,,,,,2,2.0833726250057225,,,048,001,2019_May_20_1417,MusicAffectPsychophysiology2019,3.0.5,59.57668347518305,
To what extent did the music make you feel ,ANXIOUS ,30MonoWAV/30MonoH3.wav,2,2,1,7,,,,,0,2,2,6,0,9,9,1,,,,,,,,,2,1.8858003880013712,,,048,001,2019_May_20_1417,MusicAffectPsychophysiology2019,3.0.5,59.57668347518305,
To what extent did the music make you feel ,HAPPY,30MonoWAV/30MonoH3.wav,2,2,1,7,,,,,0,2,2,6,0,10,10,6,,,,,,,,,2,1.9855893749991083,,,048,001,2019_May_20_1417,MusicAffectPsychophysiology2019,3.0.5,59.57668347518305,
To what extent did the music make you feel ,TENDER,30MonoWAV/30MonoH3.wav,2,2,1,7,,,,,0,2,2,6,0,11,11,10,,,,,,,,,1,0.8348126420023618,,,048,001,2019_May_20_1417,MusicAffectPsychophysiology2019,3.0.5,59.57668347518305,
,,30MonoWAV/30MonoH3.wav,2,2,1,7,,,,,0,2,2,6,,,,,,,,,,,,,,,,,048,001,2019_May_20_1417,MusicAffectPsychophysiology2019,3.0.5,59.57668347518305,
To what extent did the music make you feel ,TENDER,30MonoWAV/30MonoF4.wav,1,2,2,4,,,,,0,3,3,3,0,0,0,10,,,1,4.63298732900148,1,1.8180508409932372,1,1.0848770399970817,1,2.1686169120002887,,,048,001,2019_May_20_1417,MusicAffectPsychophysiology2019,3.0.5,59.57668347518305,
To what extent did the music make you feel ,GUILTY,30MonoWAV/30MonoF4.wav,1,2,2,4,,,,,0,3,3,3,0,1,1,5,,,,,,,,,1,0.9522236070042709,,,048,001,2019_May_20_1417,MusicAffectPsychophysiology2019,3.0.5,59.57668347518305,
To what extent did the music make you feel ,SAD,30MonoWAV/30MonoF4.wav,1,2,2,4,,,,,0,3,3,3,0,2,2,0,,,,,,,,,3,3.2175395129961544,,,048,001,2019_May_20_1417,MusicAffectPsychophysiology2019,3.0.5,59.57668347518305,
To what extent did the music make you feel ,ANGRY,30MonoWAV/30MonoF4.wav,1,2,2,4,,,,,0,3,3,3,0,3,3,2,,,,,,,,,2,1.9015073970003868,,,048,001,2019_May_20_1417,MusicAffectPsychophysiology2019,3.0.5,59.57668347518305,
To what extent did the music make you feel ,ASHAMED,30MonoWAV/30MonoF4.wav,1,2,2,4,,,,,0,3,3,3,0,4,4,4,,,,,,,,,1,1.2855394270009128,,,048,001,2019_May_20_1417,MusicAffectPsychophysiology2019,3.0.5,59.57668347518305,
To what extent did the music make you feel ,ALERT,30MonoWAV/30MonoF4.wav,1,2,2,4,,,,,0,3,3,3,0,5,5,8,,,,,,,,,4,3.335217854997609,,,048,001,2019_May_20_1417,MusicAffectPsychophysiology2019,3.0.5,59.57668347518305,
To what extent did the music make you feel ,FRUSTRATED,30MonoWAV/30MonoF4.wav,1,2,2,4,,,,,0,3,3,3,0,6,6,3,,,,,,,,,3,1.7514184000028763,,,048,001,2019_May_20_1417,MusicAffectPsychophysiology2019,3.0.5,59.57668347518305,
To what extent did the music make you feel ,HAPPY,30MonoWAV/30MonoF4.wav,1,2,2,4,,,,,0,3,3,3,0,7,7,6,,,,,,,,,1,1.0010367239956395,,,048,001,2019_May_20_1417,MusicAffectPsychophysiology2019,3.0.5,59.57668347518305,
To what extent did the music make you feel ,SCARED,30MonoWAV/30MonoF4.wav,1,2,2,4,,,,,0,3,3,3,0,8,8,11,,,,,,,,,3,3.1494153650055523,,,048,001,2019_May_20_1417,MusicAffectPsychophysiology2019,3.0.5,59.57668347518305,
To what extent did the music make you feel ,EXCITED,30MonoWAV/30MonoF4.wav,1,2,2,4,,,,,0,3,3,3,0,9,9,7,,,,,,,,,1,1.0683291040040785,,,048,001,2019_May_20_1417,MusicAffectPsychophysiology2019,3.0.5,59.57668347518305,
To what extent did the music make you feel ,ANXIOUS ,30MonoWAV/30MonoF4.wav,1,2,2,4,,,,,0,3,3,3,0,10,10,1,,,,,,,,,4,1.6009606500010705,,,048,001,2019_May_20_1417,MusicAffectPsychophysiology2019,3.0.5,59.57668347518305,
To what extent did the music make you feel ,ACTIVE,30MonoWAV/30MonoF4.wav,1,2,2,4,,,,,0,3,3,3,0,11,11,9,,,,,,,,,3,1.4020406660056324,,,048,001,2019_May_20_1417,MusicAffectPsychophysiology2019,3.0.5,59.57668347518305,
,,30MonoWAV/30MonoF4.wav,1,2,2,4,,,,,0,3,3,3,,,,,,,,,,,,,,,,,048,001,2019_May_20_1417,MusicAffectPsychophysiology2019,3.0.5,59.57668347518305,
To what extent did the music make you feel ,SCARED,30MonoWAV/30MonoH2.wav,2,2,1,6,,,,,0,4,4,5,0,0,0,11,,,3,3.967815438998514,3,2.433121961999859,2,2.084816941001918,1,1.8515612039991538,,,048,001,2019_May_20_1417,MusicAffectPsychophysiology2019,3.0.5,59.57668347518305,
To what extent did the music make you feel ,ASHAMED,30MonoWAV/30MonoH2.wav,2,2,1,6,,,,,0,4,4,5,0,1,1,4,,,,,,,,,1,0.6336343299990403,,,048,001,2019_May_20_1417,MusicAffectPsychophysiology2019,3.0.5,59.57668347518305,
To what extent did the music make you feel ,ANGRY,30MonoWAV/30MonoH2.wav,2,2,1,6,,,,,0,4,4,5,0,2,2,2,,,,,,,,,1,0.7661945110012311,,,048,001,2019_May_20_1417,MusicAffectPsychophysiology2019,3.0.5,59.57668347518305,
To what extent did the music make you feel ,EXCITED,30MonoWAV/30MonoH2.wav,2,2,1,6,,,,,0,4,4,5,0,3,3,7,,,,,,,,,2,2.2011085679987445,,,048,001,2019_May_20_1417,MusicAffectPsychophysiology2019,3.0.5,59.57668347518305,
To what extent did the music make you feel ,TENDER,30MonoWAV/30MonoH2.wav,2,2,1,6,,,,,0,4,4,5,0,4,4,10,,,,,,,,,1,0.9016758959987783,,,048,001,2019_May_20_1417,MusicAffectPsychophysiology2019,3.0.5,59.57668347518305,
To what extent did the music make you feel ,GUILTY,30MonoWAV/30MonoH2.wav,2,2,1,6,,,,,0,4,4,5,0,5,5,5,,,,,,,,,1,0.86726746000204,,,048,001,2019_May_20_1417,MusicAffectPsychophysiology2019,3.0.5,59.57668347518305,
To what extent did the music make you feel ,ALERT,30MonoWAV/30MonoH2.wav,2,2,1,6,,,,,0,4,4,5,0,6,6,8,,,,,,,,,3,1.6356079120014329,,,048,001,2019_May_20_1417,MusicAffectPsychophysiology2019,3.0.5,59.57668347518305,
To what extent did the music make you feel ,SAD,30MonoWAV/30MonoH2.wav,2,2,1,6,,,,,0,4,4,5,0,7,7,0,,,,,,,,,1,0.7350223529938376,,,048,001,2019_May_20_1417,MusicAffectPsychophysiology2019,3.0.5,59.57668347518305,
To what extent did the music make you feel ,FRUSTRATED,30MonoWAV/30MonoH2.wav,2,2,1,6,,,,,0,4,4,5,0,8,8,3,,,,,,,,,1,1.8680686439984129,,,048,001,2019_May_20_1417,MusicAffectPsychophysiology2019,3.0.5,59.57668347518305,
To what extent did the music make you feel ,ANXIOUS ,30MonoWAV/30MonoH2.wav,2,2,1,6,,,,,0,4,4,5,0,9,9,1,,,,,,,,,1,0.8853088499963633,,,048,001,2019_May_20_1417,MusicAffectPsychophysiology2019,3.0.5,59.57668347518305,
To what extent did the music make you feel ,HAPPY,30MonoWAV/30MonoH2.wav,2,2,1,6,,,,,0,4,4,5,0,10,10,6,,,,,,,,,3,2.401308300999517,,,048,001,2019_May_20_1417,MusicAffectPsychophysiology2019,3.0.5,59.57668347518305,
To what extent did the music make you feel ,ACTIVE,30MonoWAV/30MonoH2.wav,2,2,1,6,,,,,0,4,4,5,0,11,11,9,,,,,,,,,3,1.617610823996074,,,048,001,2019_May_20_1417,MusicAffectPsychophysiology2019,3.0.5,59.57668347518305,
,,30MonoWAV/30MonoH2.wav,2,2,1,6,,,,,0,4,4,5,,,,,,,,,,,,,,,,,048,001,2019_May_20_1417,MusicAffectPsychophysiology2019,3.0.5,59.57668347518305,
To what extent did the music make you feel ,ANGRY,30MonoWAV/30MonoS4.wav,1,1,3,12,,,,,0,5,5,11,0,0,0,2,,,4,4.423463631996128,4,3.4092616499983706,5,0.8851966899965191,1,1.8037593750050291,,,048,001,2019_May_20_1417,MusicAffectPsychophysiology2019,3.0.5,59.57668347518305,
To what extent did the music make you feel ,ALERT,30MonoWAV/30MonoS4.wav,1,1,3,12,,,,,0,5,5,11,0,1,1,8,,,,,,,,,3,1.30241993299569,,,048,001,2019_May_20_1417,MusicAffectPsychophysiology2019,3.0.5,59.57668347518305,
To what extent did the music make you feel ,ACTIVE,30MonoWAV/30MonoS4.wav,1,1,3,12,,,,,0,5,5,11,0,2,2,9,,,,,,,,,3,1.5684867180025321,,,048,001,2019_May_20_1417,MusicAffectPsychophysiology2019,3.0.5,59.57668347518305,
To what extent did the music make you feel ,ASHAMED,30MonoWAV/30MonoS4.wav,1,1,3,12,,,,,0,5,5,11,0,3,3,4,,,,,,,,,1,0.8185169680000399,,,048,001,2019_May_20_1417,MusicAffectPsychophysiology2019,3.0.5,59.57668347518305,
To what extent did the music make you feel ,SAD,30MonoWAV/30MonoS4.wav,1,1,3,12,,,,,0,5,5,11,0,4,4,0,,,,,,,,,1,0.48483629699330777,,,048,001,2019_May_20_1417,MusicAffectPsychophysiology2019,3.0.5,59.57668347518305,
To what extent did the music make you feel ,TENDER,30MonoWAV/30MonoS4.wav,1,1,3,12,,,,,0,5,5,11,0,5,5,10,,,,,,,,,3,1.602556106998236,,,048,001,2019_May_20_1417,MusicAffectPsychophysiology2019,3.0.5,59.57668347518305,
To what extent did the music make you feel ,HAPPY,30MonoWAV/30MonoS4.wav,1,1,3,12,,,,,0,5,5,11,0,6,6,6,,,,,,,,,4,2.5676722089992836,,,048,001,2019_May_20_1417,MusicAffectPsychophysiology2019,3.0.5,59.57668347518305,
To what extent did the music make you feel ,SCARED,30MonoWAV/30MonoS4.wav,1,1,3,12,,,,,0,5,5,11,0,7,7,11,,,,,,,,,1,1.1355202720005764,,,048,001,2019_May_20_1417,MusicAffectPsychophysiology2019,3.0.5,59.57668347518305,
To what extent did the music make you feel ,ANXIOUS ,30MonoWAV/30MonoS4.wav,1,1,3,12,,,,,0,5,5,11,0,8,8,1,,,,,,,,,1,1.185015504997864,,,048,001,2019_May_20_1417,MusicAffectPsychophysiology2019,3.0.5,59.57668347518305,
To what extent did the music make you feel ,EXCITED,30MonoWAV/30MonoS4.wav,1,1,3,12,,,,,0,5,5,11,0,9,9,7,,,,,,,,,4,1.3688272409999627,,,048,001,2019_May_20_1417,MusicAffectPsychophysiology2019,3.0.5,59.57668347518305,
To what extent did the music make you feel ,GUILTY,30MonoWAV/30MonoS4.wav,1,1,3,12,,,,,0,5,5,11,0,10,10,5,,,,,,,,,1,0.8336851529966225,,,048,001,2019_May_20_1417,MusicAffectPsychophysiology2019,3.0.5,59.57668347518305,
To what extent did the music make you feel ,FRUSTRATED,30MonoWAV/30MonoS4.wav,1,1,3,12,,,,,0,5,5,11,0,11,11,3,,,,,,,,,1,0.7532503309994354,,,048,001,2019_May_20_1417,MusicAffectPsychophysiology2019,3.0.5,59.57668347518305,
,,30MonoWAV/30MonoS4.wav,1,1,3,12,,,,,0,5,5,11,,,,,,,,,,,,,,,,,048,001,2019_May_20_1417,MusicAffectPsychophysiology2019,3.0.5,59.57668347518305,
To what extent did the music make you feel ,EXCITED,30MonoWAV/30MonoT2.wav,2,1,4,14,,,,,0,6,6,13,0,0,0,7,,,3,3.28695616999903,3,1.135281313006999,3,1.5516252939996775,3,2.0724011470010737,,,048,001,2019_May_20_1417,MusicAffectPsychophysiology2019,3.0.5,59.57668347518305,
To what extent did the music make you feel ,TENDER,30MonoWAV/30MonoT2.wav,2,1,4,14,,,,,0,6,6,13,0,1,1,10,,,,,,,,,3,4.702232883995748,,,048,001,2019_May_20_1417,MusicAffectPsychophysiology2019,3.0.5,59.57668347518305,
To what extent did the music make you feel ,ANXIOUS ,30MonoWAV/30MonoT2.wav,2,1,4,14,,,,,0,6,6,13,0,2,2,1,,,,,,,,,1,1.0847840319984243,,,048,001,2019_May_20_1417,MusicAffectPsychophysiology2019,3.0.5,59.57668347518305,
To what extent did the music make you feel ,ACTIVE,30MonoWAV/30MonoT2.wav,2,1,4,14,,,,,0,6,6,13,0,3,3,9,,,,,,,,,3,1.0342685939976946,,,048,001,2019_May_20_1417,MusicAffectPsychophysiology2019,3.0.5,59.57668347518305,
To what extent did the music make you feel ,ASHAMED,30MonoWAV/30MonoT2.wav,2,1,4,14,,,,,0,6,6,13,0,4,4,4,,,,,,,,,1,0.8181686739990255,,,048,001,2019_May_20_1417,MusicAffectPsychophysiology2019,3.0.5,59.57668347518305,
To what extent did the music make you feel ,ALERT,30MonoWAV/30MonoT2.wav,2,1,4,14,,,,,0,6,6,13,0,5,5,8,,,,,,,,,2,1.3517972029949306,,,048,001,2019_May_20_1417,MusicAffectPsychophysiology2019,3.0.5,59.57668347518305,
To what extent did the music make you feel ,SCARED,30MonoWAV/30MonoT2.wav,2,1,4,14,,,,,0,6,6,13,0,6,6,11,,,,,,,,,1,0.6688308189986856,,,048,001,2019_May_20_1417,MusicAffectPsychophysiology2019,3.0.5,59.57668347518305,
To what extent did the music make you feel ,HAPPY,30MonoWAV/30MonoT2.wav,2,1,4,14,,,,,0,6,6,13,0,7,7,6,,,,,,,,,4,1.8522148089978145,,,048,001,2019_May_20_1417,MusicAffectPsychophysiology2019,3.0.5,59.57668347518305,
To what extent did the music make you feel ,GUILTY,30MonoWAV/30MonoT2.wav,2,1,4,14,,,,,0,6,6,13,0,8,8,5,,,,,,,,,1,3.069007452002552,,,048,001,2019_May_20_1417,MusicAffectPsychophysiology2019,3.0.5,59.57668347518305,
To what extent did the music make you feel ,ANGRY,30MonoWAV/30MonoT2.wav,2,1,4,14,,,,,0,6,6,13,0,9,9,2,,,,,,,,,1,0.9009523350032396,,,048,001,2019_May_20_1417,MusicAffectPsychophysiology2019,3.0.5,59.57668347518305,
To what extent did the music make you feel ,FRUSTRATED,30MonoWAV/30MonoT2.wav,2,1,4,14,,,,,0,6,6,13,0,10,10,3,,,,,,,,,1,1.1517997859991738,,,048,001,2019_May_20_1417,MusicAffectPsychophysiology2019,3.0.5,59.57668347518305,
To what extent did the music make you feel ,SAD,30MonoWAV/30MonoT2.wav,2,1,4,14,,,,,0,6,6,13,0,11,11,0,,,,,,,,,1,0.6188691159986774,,,048,001,2019_May_20_1417,MusicAffectPsychophysiology2019,3.0.5,59.57668347518305,
,,30MonoWAV/30MonoT2.wav,2,1,4,14,,,,,0,6,6,13,,,,,,,,,,,,,,,,,048,001,2019_May_20_1417,MusicAffectPsychophysiology2019,3.0.5,59.57668347518305,
To what extent did the music make you feel ,ALERT,30MonoWAV/30MonoF2.wav,1,2,2,2,,,,,0,7,7,1,0,0,0,8,,,3,4.122411917000136,2,2.6543337520051864,3,5.406572289000906,3,1.4856206030017347,,,048,001,2019_May_20_1417,MusicAffectPsychophysiology2019,3.0.5,59.57668347518305,
To what extent did the music make you feel ,ASHAMED,30MonoWAV/30MonoF2.wav,1,2,2,2,,,,,0,7,7,1,0,1,1,4,,,,,,,,,1,1.151876144002017,,,048,001,2019_May_20_1417,MusicAffectPsychophysiology2019,3.0.5,59.57668347518305,
To what extent did the music make you feel ,TENDER,30MonoWAV/30MonoF2.wav,1,2,2,2,,,,,0,7,7,1,0,2,2,10,,,,,,,,,1,0.9182732379995286,,,048,001,2019_May_20_1417,MusicAffectPsychophysiology2019,3.0.5,59.57668347518305,
To what extent did the music make you feel ,ANXIOUS ,30MonoWAV/30MonoF2.wav,1,2,2,2,,,,,0,7,7,1,0,3,3,1,,,,,,,,,1,2.8525249770027585,,,048,001,2019_May_20_1417,MusicAffectPsychophysiology2019,3.0.5,59.57668347518305,
To what extent did the music make you feel ,ANGRY,30MonoWAV/30MonoF2.wav,1,2,2,2,,,,,0,7,7,1,0,4,4,2,,,,,,,,,1,0.7851338780019432,,,048,001,2019_May_20_1417,MusicAffectPsychophysiology2019,3.0.5,59.57668347518305,
To what extent did the music make you feel ,HAPPY,30MonoWAV/30MonoF2.wav,1,2,2,2,,,,,0,7,7,1,0,5,5,6,,,,,,,,,3,2.8351805429992964,,,048,001,2019_May_20_1417,MusicAffectPsychophysiology2019,3.0.5,59.57668347518305,
To what extent did the music make you feel ,ACTIVE,30MonoWAV/30MonoF2.wav,1,2,2,2,,,,,0,7,7,1,0,6,6,9,,,,,,,,,3,0.8853209919980145,,,048,001,2019_May_20_1417,MusicAffectPsychophysiology2019,3.0.5,59.57668347518305,
To what extent did the music make you feel ,SAD,30MonoWAV/30MonoF2.wav,1,2,2,2,,,,,0,7,7,1,0,7,7,0,,,,,,,,,1,0.8826697359982063,,,048,001,2019_May_20_1417,MusicAffectPsychophysiology2019,3.0.5,59.57668347518305,
To what extent did the music make you feel ,FRUSTRATED,30MonoWAV/30MonoF2.wav,1,2,2,2,,,,,0,7,7,1,0,8,8,3,,,,,,,,,1,2.536010122996231,,,048,001,2019_May_20_1417,MusicAffectPsychophysiology2019,3.0.5,59.57668347518305,
To what extent did the music make you feel ,EXCITED,30MonoWAV/30MonoF2.wav,1,2,2,2,,,,,0,7,7,1,0,9,9,7,,,,,,,,,4,3.4181934720036224,,,048,001,2019_May_20_1417,MusicAffectPsychophysiology2019,3.0.5,59.57668347518305,
To what extent did the music make you feel ,SCARED,30MonoWAV/30MonoF2.wav,1,2,2,2,,,,,0,7,7,1,0,10,10,11,,,,,,,,,1,0.7522057070018491,,,048,001,2019_May_20_1417,MusicAffectPsychophysiology2019,3.0.5,59.57668347518305,
To what extent did the music make you feel ,GUILTY,30MonoWAV/30MonoF2.wav,1,2,2,2,,,,,0,7,7,1,0,11,11,5,,,,,,,,,1,0.6015986080019502,,,048,001,2019_May_20_1417,MusicAffectPsychophysiology2019,3.0.5,59.57668347518305,
,,30MonoWAV/30MonoF2.wav,1,2,2,2,,,,,0,7,7,1,,,,,,,,,,,,,,,,,048,001,2019_May_20_1417,MusicAffectPsychophysiology2019,3.0.5,59.57668347518305,
To what extent did the music make you feel ,SCARED,30MonoWAV/30MonoT4.wav,2,1,4,16,,,,,0,8,8,15,0,0,0,11,,,3,3.6510445540043293,4,1.4020535250019748,4,1.3012791680012015,1,1.100905409999541,,,048,001,2019_May_20_1417,MusicAffectPsychophysiology2019,3.0.5,59.57668347518305,
To what extent did the music make you feel ,SAD,30MonoWAV/30MonoT4.wav,2,1,4,16,,,,,0,8,8,15,0,1,1,0,,,,,,,,,1,1.1344300710043171,,,048,001,2019_May_20_1417,MusicAffectPsychophysiology2019,3.0.5,59.57668347518305,
To what extent did the music make you feel ,ALERT,30MonoWAV/30MonoT4.wav,2,1,4,16,,,,,0,8,8,15,0,2,2,8,,,,,,,,,1,0.5519750289968215,,,048,001,2019_May_20_1417,MusicAffectPsychophysiology2019,3.0.5,59.57668347518305,
To what extent did the music make you feel ,FRUSTRATED,30MonoWAV/30MonoT4.wav,2,1,4,16,,,,,0,8,8,15,0,3,3,3,,,,,,,,,1,1.6014690910014906,,,048,001,2019_May_20_1417,MusicAffectPsychophysiology2019,3.0.5,59.57668347518305,
To what extent did the music make you feel ,EXCITED,30MonoWAV/30MonoT4.wav,2,1,4,16,,,,,0,8,8,15,0,4,4,7,,,,,,,,,2,2.2685664820019156,,,048,001,2019_May_20_1417,MusicAffectPsychophysiology2019,3.0.5,59.57668347518305,
To what extent did the music make you feel ,ACTIVE,30MonoWAV/30MonoT4.wav,2,1,4,16,,,,,0,8,8,15,0,5,5,9,,,,,,,,,2,1.6681201280007372,,,048,001,2019_May_20_1417,MusicAffectPsychophysiology2019,3.0.5,59.57668347518305,
To what extent did the music make you feel ,GUILTY,30MonoWAV/30MonoT4.wav,2,1,4,16,,,,,0,8,8,15,0,6,6,5,,,,,,,,,1,0.8013040730002103,,,048,001,2019_May_20_1417,MusicAffectPsychophysiology2019,3.0.5,59.57668347518305,
To what extent did the music make you feel ,ANGRY,30MonoWAV/30MonoT4.wav,2,1,4,16,,,,,0,8,8,15,0,7,7,2,,,,,,,,,1,0.4846458879983402,,,048,001,2019_May_20_1417,MusicAffectPsychophysiology2019,3.0.5,59.57668347518305,
To what extent did the music make you feel ,HAPPY,30MonoWAV/30MonoT4.wav,2,1,4,16,,,,,0,8,8,15,0,8,8,6,,,,,,,,,3,1.7849399039987475,,,048,001,2019_May_20_1417,MusicAffectPsychophysiology2019,3.0.5,59.57668347518305,
To what extent did the music make you feel ,ANXIOUS ,30MonoWAV/30MonoT4.wav,2,1,4,16,,,,,0,8,8,15,0,9,9,1,,,,,,,,,1,0.95118851299776,,,048,001,2019_May_20_1417,MusicAffectPsychophysiology2019,3.0.5,59.57668347518305,
To what extent did the music make you feel ,ASHAMED,30MonoWAV/30MonoT4.wav,2,1,4,16,,,,,0,8,8,15,0,10,10,4,,,,,,,,,1,0.6183233499978087,,,048,001,2019_May_20_1417,MusicAffectPsychophysiology2019,3.0.5,59.57668347518305,
To what extent did the music make you feel ,TENDER,30MonoWAV/30MonoT4.wav,2,1,4,16,,,,,0,8,8,15,0,11,11,10,,,,,,,,,3,1.4853284310011077,,,048,001,2019_May_20_1417,MusicAffectPsychophysiology2019,3.0.5,59.57668347518305,
,,30MonoWAV/30MonoT4.wav,2,1,4,16,,,,,0,8,8,15,,,,,,,,,,,,,,,,,048,001,2019_May_20_1417,MusicAffectPsychophysiology2019,3.0.5,59.57668347518305,
To what extent did the music make you feel ,FRUSTRATED,30MonoWAV/30MonoT3.wav,2,1,4,15,,,,,0,9,9,14,0,0,0,3,,,4,3.4847669919981854,4,0.9683349110055133,4,1.2681218520010589,1,0.9181022880002274,,,048,001,2019_May_20_1417,MusicAffectPsychophysiology2019,3.0.5,59.57668347518305,
To what extent did the music make you feel ,HAPPY,30MonoWAV/30MonoT3.wav,2,1,4,15,,,,,0,9,9,14,0,1,1,6,,,,,,,,,4,1.3514248670035158,,,048,001,2019_May_20_1417,MusicAffectPsychophysiology2019,3.0.5,59.57668347518305,
To what extent did the music make you feel ,ALERT,30MonoWAV/30MonoT3.wav,2,1,4,15,,,,,0,9,9,14,0,2,2,8,,,,,,,,,2,1.9351339710046886,,,048,001,2019_May_20_1417,MusicAffectPsychophysiology2019,3.0.5,59.57668347518305,
To what extent did the music make you feel ,ASHAMED,30MonoWAV/30MonoT3.wav,2,1,4,15,,,,,0,9,9,14,0,3,3,4,,,,,,,,,1,0.9684449959968333,,,048,001,2019_May_20_1417,MusicAffectPsychophysiology2019,3.0.5,59.57668347518305,
To what extent did the music make you feel ,TENDER,30MonoWAV/30MonoT3.wav,2,1,4,15,,,,,0,9,9,14,0,4,4,10,,,,,,,,,3,1.8172315089977928,,,048,001,2019_May_20_1417,MusicAffectPsychophysiology2019,3.0.5,59.57668347518305,
To what extent did the music make you feel ,EXCITED,30MonoWAV/30MonoT3.wav,2,1,4,15,,,,,0,9,9,14,0,5,5,7,,,,,,,,,4,1.601541536001605,,,048,001,2019_May_20_1417,MusicAffectPsychophysiology2019,3.0.5,59.57668347518305,
To what extent did the music make you feel ,SAD,30MonoWAV/30MonoT3.wav,2,1,4,15,,,,,0,9,9,14,0,6,6,0,,,,,,,,,1,0.9858597109996481,,,048,001,2019_May_20_1417,MusicAffectPsychophysiology2019,3.0.5,59.57668347518305,
To what extent did the music make you feel ,SCARED,30MonoWAV/30MonoT3.wav,2,1,4,15,,,,,0,9,9,14,0,7,7,11,,,,,,,,,1,1.16913460700016,,,048,001,2019_May_20_1417,MusicAffectPsychophysiology2019,3.0.5,59.57668347518305,
To what extent did the music make you feel ,GUILTY,30MonoWAV/30MonoT3.wav,2,1,4,15,,,,,0,9,9,14,0,8,8,5,,,,,,,,,1,0.7848744049988454,,,048,001,2019_May_20_1417,MusicAffectPsychophysiology2019,3.0.5,59.57668347518305,
To what extent did the music make you feel ,ANGRY,30MonoWAV/30MonoT3.wav,2,1,4,15,,,,,0,9,9,14,0,9,9,2,,,,,,,,,1,0.5849221530006616,,,048,001,2019_May_20_1417,MusicAffectPsychophysiology2019,3.0.5,59.57668347518305,
To what extent did the music make you feel ,ANXIOUS ,30MonoWAV/30MonoT3.wav,2,1,4,15,,,,,0,9,9,14,0,10,10,1,,,,,,,,,1,0.6020882310040179,,,048,001,2019_May_20_1417,MusicAffectPsychophysiology2019,3.0.5,59.57668347518305,
To what extent did the music make you feel ,ACTIVE,30MonoWAV/30MonoT3.wav,2,1,4,15,,,,,0,9,9,14,0,11,11,9,,,,,,,,,2,1.1352636809970136,,,048,001,2019_May_20_1417,MusicAffectPsychophysiology2019,3.0.5,59.57668347518305,
,,30MonoWAV/30MonoT3.wav,2,1,4,15,,,,,0,9,9,14,,,,,,,,,,,,,,,,,048,001,2019_May_20_1417,MusicAffectPsychophysiology2019,3.0.5,59.57668347518305,
To what extent did the music make you feel ,HAPPY,30MonoWAV/30MonoS1.wav,1,1,3,9,,,,,0,10,10,8,0,0,0,6,,,3,3.817892598999606,2,2.0010161450045416,2,1.3683251660040696,3,4.5188331459939945,,,048,001,2019_May_20_1417,MusicAffectPsychophysiology2019,3.0.5,59.57668347518305,
To what extent did the music make you feel ,ANXIOUS ,30MonoWAV/30MonoS1.wav,1,1,3,9,,,,,0,10,10,8,0,1,1,1,,,,,,,,,1,0.950348413993197,,,048,001,2019_May_20_1417,MusicAffectPsychophysiology2019,3.0.5,59.57668347518305,
To what extent did the music make you feel ,SAD,30MonoWAV/30MonoS1.wav,1,1,3,9,,,,,0,10,10,8,0,2,2,0,,,,,,,,,1,0.5359237599986955,,,048,001,2019_May_20_1417,MusicAffectPsychophysiology2019,3.0.5,59.57668347518305,
To what extent did the music make you feel ,SCARED,30MonoWAV/30MonoS1.wav,1,1,3,9,,,,,0,10,10,8,0,3,3,11,,,,,,,,,1,0.6022263400009251,,,048,001,2019_May_20_1417,MusicAffectPsychophysiology2019,3.0.5,59.57668347518305,
To what extent did the music make you feel ,ACTIVE,30MonoWAV/30MonoS1.wav,1,1,3,9,,,,,0,10,10,8,0,4,4,9,,,,,,,,,2,0.751386119001836,,,048,001,2019_May_20_1417,MusicAffectPsychophysiology2019,3.0.5,59.57668347518305,
To what extent did the music make you feel ,ALERT,30MonoWAV/30MonoS1.wav,1,1,3,9,,,,,0,10,10,8,0,5,5,8,,,,,,,,,2,1.149202989996411,,,048,001,2019_May_20_1417,MusicAffectPsychophysiology2019,3.0.5,59.57668347518305,
To what extent did the music make you feel ,ANGRY,30MonoWAV/30MonoS1.wav,1,1,3,9,,,,,0,10,10,8,0,6,6,2,,,,,,,,,1,0.669411997005227,,,048,001,2019_May_20_1417,MusicAffectPsychophysiology2019,3.0.5,59.57668347518305,
To what extent did the music make you feel ,TENDER,30MonoWAV/30MonoS1.wav,1,1,3,9,,,,,0,10,10,8,0,7,7,10,,,,,,,,,2,1.050458942001569,,,048,001,2019_May_20_1417,MusicAffectPsychophysiology2019,3.0.5,59.57668347518305,
To what extent did the music make you feel ,ASHAMED,30MonoWAV/30MonoS1.wav,1,1,3,9,,,,,0,10,10,8,0,8,8,4,,,,,,,,,1,0.7506893109966768,,,048,001,2019_May_20_1417,MusicAffectPsychophysiology2019,3.0.5,59.57668347518305,
To what extent did the music make you feel ,GUILTY,30MonoWAV/30MonoS1.wav,1,1,3,9,,,,,0,10,10,8,0,9,9,5,,,,,,,,,1,0.518399969994789,,,048,001,2019_May_20_1417,MusicAffectPsychophysiology2019,3.0.5,59.57668347518305,
To what extent did the music make you feel ,FRUSTRATED,30MonoWAV/30MonoS1.wav,1,1,3,9,,,,,0,10,10,8,0,10,10,3,,,,,,,,,1,0.802364260001923,,,048,001,2019_May_20_1417,MusicAffectPsychophysiology2019,3.0.5,59.57668347518305,
To what extent did the music make you feel ,EXCITED,30MonoWAV/30MonoS1.wav,1,1,3,9,,,,,0,10,10,8,0,11,11,7,,,,,,,,,2,2.1686866729942267,,,048,001,2019_May_20_1417,MusicAffectPsychophysiology2019,3.0.5,59.57668347518305,
,,30MonoWAV/30MonoS1.wav,1,1,3,9,,,,,0,10,10,8,,,,,,,,,,,,,,,,,048,001,2019_May_20_1417,MusicAffectPsychophysiology2019,3.0.5,59.57668347518305,
To what extent did the music make you feel ,ACTIVE,30MonoWAV/30MonoF3.wav,1,2,2,3,,,,,0,11,11,2,0,0,0,9,,,3,3.372772757000348,1,2.9721918779978296,1,1.451980399004242,3,4.407690564999939,,,048,001,2019_May_20_1417,MusicAffectPsychophysiology2019,3.0.5,59.57668347518305,
To what extent did the music make you feel ,ASHAMED,30MonoWAV/30MonoF3.wav,1,2,2,3,,,,,0,11,11,2,0,1,1,4,,,,,,,,,1,1.0872027599980356,,,048,001,2019_May_20_1417,MusicAffectPsychophysiology2019,3.0.5,59.57668347518305,
To what extent did the music make you feel ,EXCITED,30MonoWAV/30MonoF3.wav,1,2,2,3,,,,,0,11,11,2,0,2,2,7,,,,,,,,,1,1.2695673519992852,,,048,001,2019_May_20_1417,MusicAffectPsychophysiology2019,3.0.5,59.57668347518305,
To what extent did the music make you feel ,HAPPY,30MonoWAV/30MonoF3.wav,1,2,2,3,,,,,0,11,11,2,0,3,3,6,,,,,,,,,1,0.7692200559977209,,,048,001,2019_May_20_1417,MusicAffectPsychophysiology2019,3.0.5,59.57668347518305,
To what extent did the music make you feel ,SAD,30MonoWAV/30MonoF3.wav,1,2,2,3,,,,,0,11,11,2,0,4,4,0,,,,,,,,,1,3.8245597979985178,,,048,001,2019_May_20_1417,MusicAffectPsychophysiology2019,3.0.5,59.57668347518305,
To what extent did the music make you feel ,GUILTY,30MonoWAV/30MonoF3.wav,1,2,2,3,,,,,0,11,11,2,0,5,5,5,,,,,,,,,1,0.7175588570025866,,,048,001,2019_May_20_1417,MusicAffectPsychophysiology2019,3.0.5,59.57668347518305,
To what extent did the music make you feel ,ANGRY,30MonoWAV/30MonoF3.wav,1,2,2,3,,,,,0,11,11,2,0,6,6,2,,,,,,,,,3,3.618549507998978,,,048,001,2019_May_20_1417,MusicAffectPsychophysiology2019,3.0.5,59.57668347518305,
To what extent did the music make you feel ,FRUSTRATED,30MonoWAV/30MonoF3.wav,1,2,2,3,,,,,0,11,11,2,0,7,7,3,,,,,,,,,3,0.6856555019985535,,,048,001,2019_May_20_1417,MusicAffectPsychophysiology2019,3.0.5,59.57668347518305,
To what extent did the music make you feel ,TENDER,30MonoWAV/30MonoF3.wav,1,2,2,3,,,,,0,11,11,2,0,8,8,10,,,,,,,,,1,1.3022336209978675,,,048,001,2019_May_20_1417,MusicAffectPsychophysiology2019,3.0.5,59.57668347518305,
To what extent did the music make you feel ,ALERT,30MonoWAV/30MonoF3.wav,1,2,2,3,,,,,0,11,11,2,0,9,9,8,,,,,,,,,3,0.9000883100015926,,,048,001,2019_May_20_1417,MusicAffectPsychophysiology2019,3.0.5,59.57668347518305,
To what extent did the music make you feel ,SCARED,30MonoWAV/30MonoF3.wav,1,2,2,3,,,,,0,11,11,2,0,10,10,11,,,,,,,,,1,1.2843907499991474,,,048,001,2019_May_20_1417,MusicAffectPsychophysiology2019,3.0.5,59.57668347518305,
To what extent did the music make you feel ,ANXIOUS ,30MonoWAV/30MonoF3.wav,1,2,2,3,,,,,0,11,11,2,0,11,11,1,,,,,,,,,2,6.584352222998859,,,048,001,2019_May_20_1417,MusicAffectPsychophysiology2019,3.0.5,59.57668347518305,
,,30MonoWAV/30MonoF3.wav,1,2,2,3,,,,,0,11,11,2,,,,,,,,,,,,,,,,,048,001,2019_May_20_1417,MusicAffectPsychophysiology2019,3.0.5,59.57668347518305,
To what extent did the music make you feel ,ASHAMED,30MonoWAV/30MonoS2.wav,1,1,3,10,,,,,0,12,12,9,0,0,0,4,,,5,2.9851550690000295,5,0.7184836879969225,5,0.5683218679987476,1,1.3343322759974399,,,048,001,2019_May_20_1417,MusicAffectPsychophysiology2019,3.0.5,59.57668347518305,
To what extent did the music make you feel ,TENDER,30MonoWAV/30MonoS2.wav,1,1,3,10,,,,,0,12,12,9,0,1,1,10,,,,,,,,,1,0.7848967910031206,,,048,001,2019_May_20_1417,MusicAffectPsychophysiology2019,3.0.5,59.57668347518305,
To what extent did the music make you feel ,SAD,30MonoWAV/30MonoS2.wav,1,1,3,10,,,,,0,12,12,9,0,2,2,0,,,,,,,,,1,0.9680878080034745,,,048,001,2019_May_20_1417,MusicAffectPsychophysiology2019,3.0.5,59.57668347518305,
To what extent did the music make you feel ,GUILTY,30MonoWAV/30MonoS2.wav,1,1,3,10,,,,,0,12,12,9,0,3,3,5,,,,,,,,,1,2.1677715350015205,,,048,001,2019_May_20_1417,MusicAffectPsychophysiology2019,3.0.5,59.57668347518305,
To what extent did the music make you feel ,ANGRY,30MonoWAV/30MonoS2.wav,1,1,3,10,,,,,0,12,12,9,0,4,4,2,,,,,,,,,1,1.5677085049974266,,,048,001,2019_May_20_1417,MusicAffectPsychophysiology2019,3.0.5,59.57668347518305,
To what extent did the music make you feel ,ACTIVE,30MonoWAV/30MonoS2.wav,1,1,3,10,,,,,0,12,12,9,0,5,5,9,,,,,,,,,2,1.1017649019995588,,,048,001,2019_May_20_1417,MusicAffectPsychophysiology2019,3.0.5,59.57668347518305,
To what extent did the music make you feel ,HAPPY,30MonoWAV/30MonoS2.wav,1,1,3,10,,,,,0,12,12,9,0,6,6,6,,,,,,,,,5,1.6843921639956534,,,048,001,2019_May_20_1417,MusicAffectPsychophysiology2019,3.0.5,59.57668347518305,
To what extent did the music make you feel ,SCARED,30MonoWAV/30MonoS2.wav,1,1,3,10,,,,,0,12,12,9,0,7,7,11,,,,,,,,,1,1.0683580099939718,,,048,001,2019_May_20_1417,MusicAffectPsychophysiology2019,3.0.5,59.57668347518305,
To what extent did the music make you feel ,FRUSTRATED,30MonoWAV/30MonoS2.wav,1,1,3,10,,,,,0,12,12,9,0,8,8,3,,,,,,,,,2,2.065743088001909,,,048,001,2019_May_20_1417,MusicAffectPsychophysiology2019,3.0.5,59.57668347518305,
To what extent did the music make you feel ,EXCITED,30MonoWAV/30MonoS2.wav,1,1,3,10,,,,,0,12,12,9,0,9,9,7,,,,,,,,,4,2.568450432001555,,,048,001,2019_May_20_1417,MusicAffectPsychophysiology2019,3.0.5,59.57668347518305,
To what extent did the music make you feel ,ALERT,30MonoWAV/30MonoS2.wav,1,1,3,10,,,,,0,12,12,9,0,10,10,8,,,,,,,,,2,1.9995716269986588,,,048,001,2019_May_20_1417,MusicAffectPsychophysiology2019,3.0.5,59.57668347518305,
To what extent did the music make you feel ,ANXIOUS ,30MonoWAV/30MonoS2.wav,1,1,3,10,,,,,0,12,12,9,0,11,11,1,,,,,,,,,2,3.5349772260015015,,,048,001,2019_May_20_1417,MusicAffectPsychophysiology2019,3.0.5,59.57668347518305,
,,30MonoWAV/30MonoS2.wav,1,1,3,10,,,,,0,12,12,9,,,,,,,,,,,,,,,,,048,001,2019_May_20_1417,MusicAffectPsychophysiology2019,3.0.5,59.57668347518305,
To what extent did the music make you feel ,TENDER,30MonoWAV/30MonoH4.wav,2,2,1,8,,,,,0,13,13,7,0,0,0,10,,,4,2.852152362000197,4,3.7998506989970338,3,1.6026712849998148,1,1.7190992910036584,,,048,001,2019_May_20_1417,MusicAffectPsychophysiology2019,3.0.5,59.57668347518305,
To what extent did the music make you feel ,ACTIVE,30MonoWAV/30MonoH4.wav,2,2,1,8,,,,,0,13,13,7,0,1,1,9,,,,,,,,,2,0.96834680900065,,,048,001,2019_May_20_1417,MusicAffectPsychophysiology2019,3.0.5,59.57668347518305,
To what extent did the music make you feel ,ANXIOUS ,30MonoWAV/30MonoH4.wav,2,2,1,8,,,,,0,13,13,7,0,2,2,1,,,,,,,,,1,0.6728533380010049,,,048,001,2019_May_20_1417,MusicAffectPsychophysiology2019,3.0.5,59.57668347518305,
To what extent did the music make you feel ,FRUSTRATED,30MonoWAV/30MonoH4.wav,2,2,1,8,,,,,0,13,13,7,0,3,3,3,,,,,,,,,1,0.4857626910015824,,,048,001,2019_May_20_1417,MusicAffectPsychophysiology2019,3.0.5,59.57668347518305,
To what extent did the music make you feel ,GUILTY,30MonoWAV/30MonoH4.wav,2,2,1,8,,,,,0,13,13,7,0,4,4,5,,,,,,,,,1,0.40222804299992276,,,048,001,2019_May_20_1417,MusicAffectPsychophysiology2019,3.0.5,59.57668347518305,
To what extent did the music make you feel ,HAPPY,30MonoWAV/30MonoH4.wav,2,2,1,8,,,,,0,13,13,7,0,5,5,6,,,,,,,,,3,1.8705472700021346,,,048,001,2019_May_20_1417,MusicAffectPsychophysiology2019,3.0.5,59.57668347518305,
To what extent did the music make you feel ,SAD,30MonoWAV/30MonoH4.wav,2,2,1,8,,,,,0,13,13,7,0,6,6,0,,,,,,,,,1,0.8028824219945818,,,048,001,2019_May_20_1417,MusicAffectPsychophysiology2019,3.0.5,59.57668347518305,
To what extent did the music make you feel ,ALERT,30MonoWAV/30MonoH4.wav,2,2,1,8,,,,,0,13,13,7,0,7,7,8,,,,,,,,,1,1.969826723994629,,,048,001,2019_May_20_1417,MusicAffectPsychophysiology2019,3.0.5,59.57668347518305,
To what extent did the music make you feel ,EXCITED,30MonoWAV/30MonoH4.wav,2,2,1,8,,,,,0,13,13,7,0,8,8,7,,,,,,,,,3,1.0902627179966657,,,048,001,2019_May_20_1417,MusicAffectPsychophysiology2019,3.0.5,59.57668347518305,
To what extent did the music make you feel ,SCARED,30MonoWAV/30MonoH4.wav,2,2,1,8,,,,,0,13,13,7,0,9,9,11,,,,,,,,,1,0.7181522019964177,,,048,001,2019_May_20_1417,MusicAffectPsychophysiology2019,3.0.5,59.57668347518305,
To what extent did the music make you feel ,ANGRY,30MonoWAV/30MonoH4.wav,2,2,1,8,,,,,0,13,13,7,0,10,10,2,,,,,,,,,1,0.46706024000013713,,,048,001,2019_May_20_1417,MusicAffectPsychophysiology2019,3.0.5,59.57668347518305,
To what extent did the music make you feel ,ASHAMED,30MonoWAV/30MonoH4.wav,2,2,1,8,,,,,0,13,13,7,0,11,11,4,,,,,,,,,1,0.5517154010012746,,,048,001,2019_May_20_1417,MusicAffectPsychophysiology2019,3.0.5,59.57668347518305,
,,30MonoWAV/30MonoH4.wav,2,2,1,8,,,,,0,13,13,7,,,,,,,,,,,,,,,,,048,001,2019_May_20_1417,MusicAffectPsychophysiology2019,3.0.5,59.57668347518305,
To what extent did the music make you feel ,GUILTY,30MonoWAV/30MonoF1.wav,1,2,2,1,,,,,0,14,14,0,0,0,0,5,,,1,2.4885385249945102,1,0.7524993799961521,1,0.4847913029952906,1,2.0373678309988463,,,048,001,2019_May_20_1417,MusicAffectPsychophysiology2019,3.0.5,59.57668347518305,
To what extent did the music make you feel ,TENDER,30MonoWAV/30MonoF1.wav,1,2,2,1,,,,,0,14,14,0,0,1,1,10,,,,,,,,,1,0.9695119809985044,,,048,001,2019_May_20_1417,MusicAffectPsychophysiology2019,3.0.5,59.57668347518305,
To what extent did the music make you feel ,SCARED,30MonoWAV/30MonoF1.wav,1,2,2,1,,,,,0,14,14,0,0,2,2,11,,,,,,,,,3,3.0547540719999233,,,048,001,2019_May_20_1417,MusicAffectPsychophysiology2019,3.0.5,59.57668347518305,
To what extent did the music make you feel ,FRUSTRATED,30MonoWAV/30MonoF1.wav,1,2,2,1,,,,,0,14,14,0,0,3,3,3,,,,,,,,,3,0.8517689490035991,,,048,001,2019_May_20_1417,MusicAffectPsychophysiology2019,3.0.5,59.57668347518305,
To what extent did the music make you feel ,ALERT,30MonoWAV/30MonoF1.wav,1,2,2,1,,,,,0,14,14,0,0,4,4,8,,,,,,,,,3,0.7514563820004696,,,048,001,2019_May_20_1417,MusicAffectPsychophysiology2019,3.0.5,59.57668347518305,
To what extent did the music make you feel ,ASHAMED,30MonoWAV/30MonoF1.wav,1,2,2,1,,,,,0,14,14,0,0,5,5,4,,,,,,,,,1,1.1685850040012156,,,048,001,2019_May_20_1417,MusicAffectPsychophysiology2019,3.0.5,59.57668347518305,
To what extent did the music make you feel ,ANGRY,30MonoWAV/30MonoF1.wav,1,2,2,1,,,,,0,14,14,0,0,6,6,2,,,,,,,,,4,1.3680971150024561,,,048,001,2019_May_20_1417,MusicAffectPsychophysiology2019,3.0.5,59.57668347518305,
To what extent did the music make you feel ,ANXIOUS ,30MonoWAV/30MonoF1.wav,1,2,2,1,,,,,0,14,14,0,0,7,7,1,,,,,,,,,4,1.2848251820032601,,,048,001,2019_May_20_1417,MusicAffectPsychophysiology2019,3.0.5,59.57668347518305,
To what extent did the music make you feel ,ACTIVE,30MonoWAV/30MonoF1.wav,1,2,2,1,,,,,0,14,14,0,0,8,8,9,,,,,,,,,3,1.7342223779996857,,,048,001,2019_May_20_1417,MusicAffectPsychophysiology2019,3.0.5,59.57668347518305,
To what extent did the music make you feel ,EXCITED,30MonoWAV/30MonoF1.wav,1,2,2,1,,,,,0,14,14,0,0,9,9,7,,,,,,,,,1,0.7522453089986811,,,048,001,2019_May_20_1417,MusicAffectPsychophysiology2019,3.0.5,59.57668347518305,
To what extent did the music make you feel ,SAD,30MonoWAV/30MonoF1.wav,1,2,2,1,,,,,0,14,14,0,0,10,10,0,,,,,,,,,1,1.0348995120002655,,,048,001,2019_May_20_1417,MusicAffectPsychophysiology2019,3.0.5,59.57668347518305,
To what extent did the music make you feel ,HAPPY,30MonoWAV/30MonoF1.wav,1,2,2,1,,,,,0,14,14,0,0,11,11,6,,,,,,,,,1,0.668591199995717,,,048,001,2019_May_20_1417,MusicAffectPsychophysiology2019,3.0.5,59.57668347518305,
,,30MonoWAV/30MonoF1.wav,1,2,2,1,,,,,0,14,14,0,,,,,,,,,,,,,,,,,048,001,2019_May_20_1417,MusicAffectPsychophysiology2019,3.0.5,59.57668347518305,
To what extent did the music make you feel ,ANGRY,30MonoWAV/30MonoT1.wav,2,1,4,13,,,,,0,15,15,12,0,0,0,2,,,1,2.1528549190043123,1,1.0850775979997707,1,0.9514077960047871,4,2.833827055997972,,,048,001,2019_May_20_1417,MusicAffectPsychophysiology2019,3.0.5,59.57668347518305,
To what extent did the music make you feel ,EXCITED,30MonoWAV/30MonoT1.wav,2,1,4,13,,,,,0,15,15,12,0,1,1,7,,,,,,,,,1,0.934658533995389,,,048,001,2019_May_20_1417,MusicAffectPsychophysiology2019,3.0.5,59.57668347518305,
To what extent did the music make you feel ,ALERT,30MonoWAV/30MonoT1.wav,2,1,4,13,,,,,0,15,15,12,0,2,2,8,,,,,,,,,3,1.8687010959984036,,,048,001,2019_May_20_1417,MusicAffectPsychophysiology2019,3.0.5,59.57668347518305,
To what extent did the music make you feel ,SCARED,30MonoWAV/30MonoT1.wav,2,1,4,13,,,,,0,15,15,12,0,3,3,11,,,,,,,,,1,0.9680507709999802,,,048,001,2019_May_20_1417,MusicAffectPsychophysiology2019,3.0.5,59.57668347518305,
To what extent did the music make you feel ,FRUSTRATED,30MonoWAV/30MonoT1.wav,2,1,4,13,,,,,0,15,15,12,0,4,4,3,,,,,,,,,5,1.7182533410014003,,,048,001,2019_May_20_1417,MusicAffectPsychophysiology2019,3.0.5,59.57668347518305,
To what extent did the music make you feel ,HAPPY,30MonoWAV/30MonoT1.wav,2,1,4,13,,,,,0,15,15,12,0,5,5,6,,,,,,,,,1,0.883446717998595,,,048,001,2019_May_20_1417,MusicAffectPsychophysiology2019,3.0.5,59.57668347518305,
To what extent did the music make you feel ,GUILTY,30MonoWAV/30MonoT1.wav,2,1,4,13,,,,,0,15,15,12,0,6,6,5,,,,,,,,,1,2.8361100850015646,,,048,001,2019_May_20_1417,MusicAffectPsychophysiology2019,3.0.5,59.57668347518305,
To what extent did the music make you feel ,SAD,30MonoWAV/30MonoT1.wav,2,1,4,13,,,,,0,15,15,12,0,7,7,0,,,,,,,,,1,0.602042395999888,,,048,001,2019_May_20_1417,MusicAffectPsychophysiology2019,3.0.5,59.57668347518305,
To what extent did the music make you feel ,ANXIOUS ,30MonoWAV/30MonoT1.wav,2,1,4,13,,,,,0,15,15,12,0,8,8,1,,,,,,,,,1,1.568614695002907,,,048,001,2019_May_20_1417,MusicAffectPsychophysiology2019,3.0.5,59.57668347518305,
To what extent did the music make you feel ,ASHAMED,30MonoWAV/30MonoT1.wav,2,1,4,13,,,,,0,15,15,12,0,9,9,4,,,,,,,,,1,0.7180665590058197,,,048,001,2019_May_20_1417,MusicAffectPsychophysiology2019,3.0.5,59.57668347518305,
To what extent did the music make you feel ,TENDER,30MonoWAV/30MonoT1.wav,2,1,4,13,,,,,0,15,15,12,0,10,10,10,,,,,,,,,1,0.6506523169955472,,,048,001,2019_May_20_1417,MusicAffectPsychophysiology2019,3.0.5,59.57668347518305,
To what extent did the music make you feel ,ACTIVE,30MonoWAV/30MonoT1.wav,2,1,4,13,,,,,0,15,15,12,0,11,11,9,,,,,,,,,2,1.9013666800019564,,,048,001,2019_May_20_1417,MusicAffectPsychophysiology2019,3.0.5,59.57668347518305,
,,30MonoWAV/30MonoT1.wav,2,1,4,13,,,,,0,15,15,12,,,,,,,,,,,,,,,,,048,001,2019_May_20_1417,MusicAffectPsychophysiology2019,3.0.5,59.57668347518305,
To what extent did the music make you feel ,ACTIVE,30MonoWAV/30MonoF1.wav,1,2,2,1,,,,,1,0,16,0,0,0,0,9,,,1,2.902565375996346,1,0.7843377829995006,1,1.0684730209977715,3,3.6354102170007536,,,048,001,2019_May_20_1417,MusicAffectPsychophysiology2019,3.0.5,59.57668347518305,
To what extent did the music make you feel ,ASHAMED,30MonoWAV/30MonoF1.wav,1,2,2,1,,,,,1,0,16,0,0,1,1,4,,,,,,,,,1,0.7177449379960308,,,048,001,2019_May_20_1417,MusicAffectPsychophysiology2019,3.0.5,59.57668347518305,
To what extent did the music make you feel ,ALERT,30MonoWAV/30MonoF1.wav,1,2,2,1,,,,,1,0,16,0,0,2,2,8,,,,,,,,,3,2.151496706996113,,,048,001,2019_May_20_1417,MusicAffectPsychophysiology2019,3.0.5,59.57668347518305,
To what extent did the music make you feel ,TENDER,30MonoWAV/30MonoF1.wav,1,2,2,1,,,,,1,0,16,0,0,3,3,10,,,,,,,,,1,0.9518174420009018,,,048,001,2019_May_20_1417,MusicAffectPsychophysiology2019,3.0.5,59.57668347518305,
To what extent did the music make you feel ,EXCITED,30MonoWAV/30MonoF1.wav,1,2,2,1,,,,,1,0,16,0,0,4,4,7,,,,,,,,,1,0.7521289340002113,,,048,001,2019_May_20_1417,MusicAffectPsychophysiology2019,3.0.5,59.57668347518305,
To what extent did the music make you feel ,SCARED,30MonoWAV/30MonoF1.wav,1,2,2,1,,,,,1,0,16,0,0,5,5,11,,,,,,,,,4,2.2010985369997798,,,048,001,2019_May_20_1417,MusicAffectPsychophysiology2019,3.0.5,59.57668347518305,
To what extent did the music make you feel ,ANXIOUS ,30MonoWAV/30MonoF1.wav,1,2,2,1,,,,,1,0,16,0,0,6,6,1,,,,,,,,,4,0.6348241000014241,,,048,001,2019_May_20_1417,MusicAffectPsychophysiology2019,3.0.5,59.57668347518305,
To what extent did the music make you feel ,ANGRY,30MonoWAV/30MonoF1.wav,1,2,2,1,,,,,1,0,16,0,0,7,7,2,,,,,,,,,4,0.7506207750047906,,,048,001,2019_May_20_1417,MusicAffectPsychophysiology2019,3.0.5,59.57668347518305,
To what extent did the music make you feel ,GUILTY,30MonoWAV/30MonoF1.wav,1,2,2,1,,,,,1,0,16,0,0,8,8,5,,,,,,,,,1,0.8016378190004616,,,048,001,2019_May_20_1417,MusicAffectPsychophysiology2019,3.0.5,59.57668347518305,
To what extent did the music make you feel ,HAPPY,30MonoWAV/30MonoF1.wav,1,2,2,1,,,,,1,0,16,0,0,9,9,6,,,,,,,,,1,0.5682322290012962,,,048,001,2019_May_20_1417,MusicAffectPsychophysiology2019,3.0.5,59.57668347518305,
To what extent did the music make you feel ,SAD,30MonoWAV/30MonoF1.wav,1,2,2,1,,,,,1,0,16,0,0,10,10,0,,,,,,,,,1,0.5858626089975587,,,048,001,2019_May_20_1417,MusicAffectPsychophysiology2019,3.0.5,59.57668347518305,
To what extent did the music make you feel ,FRUSTRATED,30MonoWAV/30MonoF1.wav,1,2,2,1,,,,,1,0,16,0,0,11,11,3,,,,,,,,,3,1.4510794269954204,,,048,001,2019_May_20_1417,MusicAffectPsychophysiology2019,3.0.5,59.57668347518305,
,,30MonoWAV/30MonoF1.wav,1,2,2,1,,,,,1,0,16,0,,,,,,,,,,,,,,,,,048,001,2019_May_20_1417,MusicAffectPsychophysiology2019,3.0.5,59.57668347518305,
To what extent did the music make you feel ,HAPPY,30MonoWAV/30MonoF3.wav,1,2,2,3,,,,,1,1,17,2,0,0,0,6,,,2,4.249757401004899,1,1.2517587930051377,2,1.5683709529985208,1,0.8521085219981615,,,048,001,2019_May_20_1417,MusicAffectPsychophysiology2019,3.0.5,59.57668347518305,
To what extent did the music make you feel ,FRUSTRATED,30MonoWAV/30MonoF3.wav,1,2,2,3,,,,,1,1,17,2,0,1,1,3,,,,,,,,,3,2.3746822139946744,,,048,001,2019_May_20_1417,MusicAffectPsychophysiology2019,3.0.5,59.57668347518305,
To what extent did the music make you feel ,TENDER,30MonoWAV/30MonoF3.wav,1,2,2,3,,,,,1,1,17,2,0,2,2,10,,,,,,,,,1,0.7365160699991975,,,048,001,2019_May_20_1417,MusicAffectPsychophysiology2019,3.0.5,59.57668347518305,
To what extent did the music make you feel ,ANGRY,30MonoWAV/30MonoF3.wav,1,2,2,3,,,,,1,1,17,2,0,3,3,2,,,,,,,,,2,0.9193771279969951,,,048,001,2019_May_20_1417,MusicAffectPsychophysiology2019,3.0.5,59.57668347518305,
To what extent did the music make you feel ,ASHAMED,30MonoWAV/30MonoF3.wav,1,2,2,3,,,,,1,1,17,2,0,4,4,4,,,,,,,,,1,0.6700210560011328,,,048,001,2019_May_20_1417,MusicAffectPsychophysiology2019,3.0.5,59.57668347518305,
To what extent did the music make you feel ,EXCITED,30MonoWAV/30MonoF3.wav,1,2,2,3,,,,,1,1,17,2,0,5,5,7,,,,,,,,,1,0.6524746680006501,,,048,001,2019_May_20_1417,MusicAffectPsychophysiology2019,3.0.5,59.57668347518305,
To what extent did the music make you feel ,ANXIOUS ,30MonoWAV/30MonoF3.wav,1,2,2,3,,,,,1,1,17,2,0,6,6,1,,,,,,,,,2,1.6360773520063958,,,048,001,2019_May_20_1417,MusicAffectPsychophysiology2019,3.0.5,59.57668347518305,
To what extent did the music make you feel ,ACTIVE,30MonoWAV/30MonoF3.wav,1,2,2,3,,,,,1,1,17,2,0,7,7,9,,,,,,,,,1,0.6058776560021215,,,048,001,2019_May_20_1417,MusicAffectPsychophysiology2019,3.0.5,59.57668347518305,
To what extent did the music make you feel ,SCARED,30MonoWAV/30MonoF3.wav,1,2,2,3,,,,,1,1,17,2,0,8,8,11,,,,,,,,,2,1.7517392879963154,,,048,001,2019_May_20_1417,MusicAffectPsychophysiology2019,3.0.5,59.57668347518305,
To what extent did the music make you feel ,ALERT,30MonoWAV/30MonoF3.wav,1,2,2,3,,,,,1,1,17,2,0,9,9,8,,,,,,,,,3,1.066738218003593,,,048,001,2019_May_20_1417,MusicAffectPsychophysiology2019,3.0.5,59.57668347518305,
To what extent did the music make you feel ,GUILTY,30MonoWAV/30MonoF3.wav,1,2,2,3,,,,,1,1,17,2,0,10,10,5,,,,,,,,,1,0.7510274500018568,,,048,001,2019_May_20_1417,MusicAffectPsychophysiology2019,3.0.5,59.57668347518305,
To what extent did the music make you feel ,SAD,30MonoWAV/30MonoF3.wav,1,2,2,3,,,,,1,1,17,2,0,11,11,0,,,,,,,,,1,0.850806834998366,,,048,001,2019_May_20_1417,MusicAffectPsychophysiology2019,3.0.5,59.57668347518305,
,,30MonoWAV/30MonoF3.wav,1,2,2,3,,,,,1,1,17,2,,,,,,,,,,,,,,,,,048,001,2019_May_20_1417,MusicAffectPsychophysiology2019,3.0.5,59.57668347518305,
To what extent did the music make you feel ,ASHAMED,30MonoWAV/30MonoT1.wav,2,1,4,13,,,,,1,2,18,12,0,0,0,4,,,1,2.768076285996358,1,0.35210473500046646,1,1.0685043730045436,1,0.900653513999714,,,048,001,2019_May_20_1417,MusicAffectPsychophysiology2019,3.0.5,59.57668347518305,
To what extent did the music make you feel ,ANXIOUS ,30MonoWAV/30MonoT1.wav,2,1,4,13,,,,,1,2,18,12,0,1,1,1,,,,,,,,,2,1.7686809969964088,,,048,001,2019_May_20_1417,MusicAffectPsychophysiology2019,3.0.5,59.57668347518305,
To what extent did the music make you feel ,GUILTY,30MonoWAV/30MonoT1.wav,2,1,4,13,,,,,1,2,18,12,0,2,2,5,,,,,,,,,1,0.8181554700058769,,,048,001,2019_May_20_1417,MusicAffectPsychophysiology2019,3.0.5,59.57668347518305,
To what extent did the music make you feel ,HAPPY,30MonoWAV/30MonoT1.wav,2,1,4,13,,,,,1,2,18,12,0,3,3,6,,,,,,,,,1,0.7506347379967337,,,048,001,2019_May_20_1417,MusicAffectPsychophysiology2019,3.0.5,59.57668347518305,
To what extent did the music make you feel ,ANGRY,30MonoWAV/30MonoT1.wav,2,1,4,13,,,,,1,2,18,12,0,4,4,2,,,,,,,,,4,2.0180226719967322,,,048,001,2019_May_20_1417,MusicAffectPsychophysiology2019,3.0.5,59.57668347518305,
To what extent did the music make you feel ,SAD,30MonoWAV/30MonoT1.wav,2,1,4,13,,,,,1,2,18,12,0,5,5,0,,,,,,,,,1,1.6847655050005415,,,048,001,2019_May_20_1417,MusicAffectPsychophysiology2019,3.0.5,59.57668347518305,
To what extent did the music make you feel ,FRUSTRATED,30MonoWAV/30MonoT1.wav,2,1,4,13,,,,,1,2,18,12,0,6,6,3,,,,,,,,,5,1.752109997003572,,,048,001,2019_May_20_1417,MusicAffectPsychophysiology2019,3.0.5,59.57668347518305,
To what extent did the music make you feel ,TENDER,30MonoWAV/30MonoT1.wav,2,1,4,13,,,,,1,2,18,12,0,7,7,10,,,,,,,,,1,1.0185595479997573,,,048,001,2019_May_20_1417,MusicAffectPsychophysiology2019,3.0.5,59.57668347518305,
To what extent did the music make you feel ,ALERT,30MonoWAV/30MonoT1.wav,2,1,4,13,,,,,1,2,18,12,0,8,8,8,,,,,,,,,2,1.0349241090007126,,,048,001,2019_May_20_1417,MusicAffectPsychophysiology2019,3.0.5,59.57668347518305,
To what extent did the music make you feel ,ACTIVE,30MonoWAV/30MonoT1.wav,2,1,4,13,,,,,1,2,18,12,0,9,9,9,,,,,,,,,2,0.9012267750003957,,,048,001,2019_May_20_1417,MusicAffectPsychophysiology2019,3.0.5,59.57668347518305,
To what extent did the music make you feel ,EXCITED,30MonoWAV/30MonoT1.wav,2,1,4,13,,,,,1,2,18,12,0,10,10,7,,,,,,,,,1,0.8015964509977493,,,048,001,2019_May_20_1417,MusicAffectPsychophysiology2019,3.0.5,59.57668347518305,
To what extent did the music make you feel ,SCARED,30MonoWAV/30MonoT1.wav,2,1,4,13,,,,,1,2,18,12,0,11,11,11,,,,,,,,,1,1.3013533640041715,,,048,001,2019_May_20_1417,MusicAffectPsychophysiology2019,3.0.5,59.57668347518305,
,,30MonoWAV/30MonoT1.wav,2,1,4,13,,,,,1,2,18,12,,,,,,,,,,,,,,,,,048,001,2019_May_20_1417,MusicAffectPsychophysiology2019,3.0.5,59.57668347518305,
To what extent did the music make you feel ,SCARED,30MonoWAV/30MonoF2.wav,1,2,2,2,,,,,1,3,19,1,0,0,0,11,,,3,3.1397327329977998,2,3.60600352199981,3,2.2209045930067077,1,1.1723767329967814,,,048,001,2019_May_20_1417,MusicAffectPsychophysiology2019,3.0.5,59.57668347518305,
To what extent did the music make you feel ,FRUSTRATED,30MonoWAV/30MonoF2.wav,1,2,2,2,,,,,1,3,19,1,0,1,1,3,,,,,,,,,2,1.883539941998606,,,048,001,2019_May_20_1417,MusicAffectPsychophysiology2019,3.0.5,59.57668347518305,
To what extent did the music make you feel ,ANXIOUS ,30MonoWAV/30MonoF2.wav,1,2,2,2,,,,,1,3,19,1,0,2,2,1,,,,,,,,,1,0.90262270400126,,,048,001,2019_May_20_1417,MusicAffectPsychophysiology2019,3.0.5,59.57668347518305,
To what extent did the music make you feel ,EXCITED,30MonoWAV/30MonoF2.wav,1,2,2,2,,,,,1,3,19,1,0,3,3,7,,,,,,,,,3,1.3345630019975943,,,048,001,2019_May_20_1417,MusicAffectPsychophysiology2019,3.0.5,59.57668347518305,
To what extent did the music make you feel ,ACTIVE,30MonoWAV/30MonoF2.wav,1,2,2,2,,,,,1,3,19,1,0,4,4,9,,,,,,,,,3,0.968068599999242,,,048,001,2019_May_20_1417,MusicAffectPsychophysiology2019,3.0.5,59.57668347518305,
To what extent did the music make you feel ,HAPPY,30MonoWAV/30MonoF2.wav,1,2,2,2,,,,,1,3,19,1,0,5,5,6,,,,,,,,,3,1.1167404610023368,,,048,001,2019_May_20_1417,MusicAffectPsychophysiology2019,3.0.5,59.57668347518305,
To what extent did the music make you feel ,GUILTY,30MonoWAV/30MonoF2.wav,1,2,2,2,,,,,1,3,19,1,0,6,6,5,,,,,,,,,1,1.0851969710056437,,,048,001,2019_May_20_1417,MusicAffectPsychophysiology2019,3.0.5,59.57668347518305,
To what extent did the music make you feel ,ASHAMED,30MonoWAV/30MonoF2.wav,1,2,2,2,,,,,1,3,19,1,0,7,7,4,,,,,,,,,1,3.6999323799973354,,,048,001,2019_May_20_1417,MusicAffectPsychophysiology2019,3.0.5,59.57668347518305,
To what extent did the music make you feel ,ANGRY,30MonoWAV/30MonoF2.wav,1,2,2,2,,,,,1,3,19,1,0,8,8,2,,,,,,,,,1,0.7689035660005175,,,048,001,2019_May_20_1417,MusicAffectPsychophysiology2019,3.0.5,59.57668347518305,
To what extent did the music make you feel ,SAD,30MonoWAV/30MonoF2.wav,1,2,2,2,,,,,1,3,19,1,0,9,9,0,,,,,,,,,1,0.584944087000622,,,048,001,2019_May_20_1417,MusicAffectPsychophysiology2019,3.0.5,59.57668347518305,
To what extent did the music make you feel ,TENDER,30MonoWAV/30MonoF2.wav,1,2,2,2,,,,,1,3,19,1,0,10,10,10,,,,,,,,,1,0.884277838995331,,,048,001,2019_May_20_1417,MusicAffectPsychophysiology2019,3.0.5,59.57668347518305,
To what extent did the music make you feel ,ALERT,30MonoWAV/30MonoF2.wav,1,2,2,2,,,,,1,3,19,1,0,11,11,8,,,,,,,,,2,1.1691156640008558,,,048,001,2019_May_20_1417,MusicAffectPsychophysiology2019,3.0.5,59.57668347518305,
,,30MonoWAV/30MonoF2.wav,1,2,2,2,,,,,1,3,19,1,,,,,,,,,,,,,,,,,048,001,2019_May_20_1417,MusicAffectPsychophysiology2019,3.0.5,59.57668347518305,
To what extent did the music make you feel ,HAPPY,30MonoWAV/30MonoH4.wav,2,2,1,8,,,,,1,4,20,7,0,0,0,6,,,4,2.8741311429985217,4,1.7034687350023887,4,0.9523406799999066,4,1.2011787090013968,,,048,001,2019_May_20_1417,MusicAffectPsychophysiology2019,3.0.5,59.57668347518305,
To what extent did the music make you feel ,SCARED,30MonoWAV/30MonoH4.wav,2,2,1,8,,,,,1,4,20,7,0,1,1,11,,,,,,,,,1,0.8523436930045136,,,048,001,2019_May_20_1417,MusicAffectPsychophysiology2019,3.0.5,59.57668347518305,
To what extent did the music make you feel ,ACTIVE,30MonoWAV/30MonoH4.wav,2,2,1,8,,,,,1,4,20,7,0,2,2,9,,,,,,,,,2,1.440042321999499,,,048,001,2019_May_20_1417,MusicAffectPsychophysiology2019,3.0.5,59.57668347518305,
To what extent did the music make you feel ,SAD,30MonoWAV/30MonoH4.wav,2,2,1,8,,,,,1,4,20,7,0,3,3,0,,,,,,,,,2,0.08578487499471521,,,048,001,2019_May_20_1417,MusicAffectPsychophysiology2019,3.0.5,59.57668347518305,
To what extent did the music make you feel ,EXCITED,30MonoWAV/30MonoH4.wav,2,2,1,8,,,,,1,4,20,7,0,4,4,7,,,,,,,,,4,3.434660166996764,,,048,001,2019_May_20_1417,MusicAffectPsychophysiology2019,3.0.5,59.57668347518305,
To what extent did the music make you feel ,TENDER,30MonoWAV/30MonoH4.wav,2,2,1,8,,,,,1,4,20,7,0,5,5,10,,,,,,,,,3,1.385537939000642,,,048,001,2019_May_20_1417,MusicAffectPsychophysiology2019,3.0.5,59.57668347518305,
To what extent did the music make you feel ,GUILTY,30MonoWAV/30MonoH4.wav,2,2,1,8,,,,,1,4,20,7,0,6,6,5,,,,,,,,,1,0.8517917300050613,,,048,001,2019_May_20_1417,MusicAffectPsychophysiology2019,3.0.5,59.57668347518305,
To what extent did the music make you feel ,FRUSTRATED,30MonoWAV/30MonoH4.wav,2,2,1,8,,,,,1,4,20,7,0,7,7,3,,,,,,,,,1,0.8524414149942459,,,048,001,2019_May_20_1417,MusicAffectPsychophysiology2019,3.0.5,59.57668347518305,
To what extent did the music make you feel ,ANXIOUS ,30MonoWAV/30MonoH4.wav,2,2,1,8,,,,,1,4,20,7,0,8,8,1,,,,,,,,,1,0.5012376820013742,,,048,001,2019_May_20_1417,MusicAffectPsychophysiology2019,3.0.5,59.57668347518305,
To what extent did the music make you feel ,ALERT,30MonoWAV/30MonoH4.wav,2,2,1,8,,,,,1,4,20,7,0,9,9,8,,,,,,,,,1,0.5183960829963326,,,048,001,2019_May_20_1417,MusicAffectPsychophysiology2019,3.0.5,59.57668347518305,
To what extent did the music make you feel ,ANGRY,30MonoWAV/30MonoH4.wav,2,2,1,8,,,,,1,4,20,7,0,10,10,2,,,,,,,,,1,2.7847108429996297,,,048,001,2019_May_20_1417,MusicAffectPsychophysiology2019,3.0.5,59.57668347518305,
To what extent did the music make you feel ,ASHAMED,30MonoWAV/30MonoH4.wav,2,2,1,8,,,,,1,4,20,7,0,11,11,4,,,,,,,,,1,0.8684469660001923,,,048,001,2019_May_20_1417,MusicAffectPsychophysiology2019,3.0.5,59.57668347518305,
,,30MonoWAV/30MonoH4.wav,2,2,1,8,,,,,1,4,20,7,,,,,,,,,,,,,,,,,048,001,2019_May_20_1417,MusicAffectPsychophysiology2019,3.0.5,59.57668347518305,
To what extent did the music make you feel ,HAPPY,30MonoWAV/30MonoH2.wav,2,2,1,6,,,,,1,5,21,5,0,0,0,6,,,4,2.7508534730004612,4,0.6998727829995914,3,1.202271946996916,4,1.6345283659975394,,,048,001,2019_May_20_1417,MusicAffectPsychophysiology2019,3.0.5,59.57668347518305,
To what extent did the music make you feel ,TENDER,30MonoWAV/30MonoH2.wav,2,2,1,6,,,,,1,5,21,5,0,1,1,10,,,,,,,,,1,0.8012106940004742,,,048,001,2019_May_20_1417,MusicAffectPsychophysiology2019,3.0.5,59.57668347518305,
To what extent did the music make you feel ,ALERT,30MonoWAV/30MonoH2.wav,2,2,1,6,,,,,1,5,21,5,0,2,2,8,,,,,,,,,1,0.7184501630035811,,,048,001,2019_May_20_1417,MusicAffectPsychophysiology2019,3.0.5,59.57668347518305,
To what extent did the music make you feel ,ANXIOUS ,30MonoWAV/30MonoH2.wav,2,2,1,6,,,,,1,5,21,5,0,3,3,1,,,,,,,,,1,1.1183644170014304,,,048,001,2019_May_20_1417,MusicAffectPsychophysiology2019,3.0.5,59.57668347518305,
To what extent did the music make you feel ,EXCITED,30MonoWAV/30MonoH2.wav,2,2,1,6,,,,,1,5,21,5,0,4,4,7,,,,,,,,,4,1.4012510419997852,,,048,001,2019_May_20_1417,MusicAffectPsychophysiology2019,3.0.5,59.57668347518305,
To what extent did the music make you feel ,SCARED,30MonoWAV/30MonoH2.wav,2,2,1,6,,,,,1,5,21,5,0,5,5,11,,,,,,,,,1,0.8842794559968752,,,048,001,2019_May_20_1417,MusicAffectPsychophysiology2019,3.0.5,59.57668347518305,
To what extent did the music make you feel ,ACTIVE,30MonoWAV/30MonoH2.wav,2,2,1,6,,,,,1,5,21,5,0,6,6,9,,,,,,,,,2,2.3497321819959325,,,048,001,2019_May_20_1417,MusicAffectPsychophysiology2019,3.0.5,59.57668347518305,
To what extent did the music make you feel ,ASHAMED,30MonoWAV/30MonoH2.wav,2,2,1,6,,,,,1,5,21,5,0,7,7,4,,,,,,,,,1,1.0864142350037582,,,048,001,2019_May_20_1417,MusicAffectPsychophysiology2019,3.0.5,59.57668347518305,
To what extent did the music make you feel ,ANGRY,30MonoWAV/30MonoH2.wav,2,2,1,6,,,,,1,5,21,5,0,8,8,2,,,,,,,,,1,0.7689084989979165,,,048,001,2019_May_20_1417,MusicAffectPsychophysiology2019,3.0.5,59.57668347518305,
To what extent did the music make you feel ,SAD,30MonoWAV/30MonoH2.wav,2,2,1,6,,,,,1,5,21,5,0,9,9,0,,,,,,,,,1,0.6348035260016331,,,048,001,2019_May_20_1417,MusicAffectPsychophysiology2019,3.0.5,59.57668347518305,
To what extent did the music make you feel ,FRUSTRATED,30MonoWAV/30MonoH2.wav,2,2,1,6,,,,,1,5,21,5,0,10,10,3,,,,,,,,,1,0.7346933080043527,,,048,001,2019_May_20_1417,MusicAffectPsychophysiology2019,3.0.5,59.57668347518305,
To what extent did the music make you feel ,GUILTY,30MonoWAV/30MonoH2.wav,2,2,1,6,,,,,1,5,21,5,0,11,11,5,,,,,,,,,1,0.6192363709997153,,,048,001,2019_May_20_1417,MusicAffectPsychophysiology2019,3.0.5,59.57668347518305,
,,30MonoWAV/30MonoH2.wav,2,2,1,6,,,,,1,5,21,5,,,,,,,,,,,,,,,,,048,001,2019_May_20_1417,MusicAffectPsychophysiology2019,3.0.5,59.57668347518305,
To what extent did the music make you feel ,GUILTY,30MonoWAV/30MonoT2.wav,2,1,4,14,,,,,1,6,22,13,0,0,0,5,,,4,4.201689565998095,4,0.8506717499985825,4,1.769024064000405,1,1.3008128260044032,,,048,001,2019_May_20_1417,MusicAffectPsychophysiology2019,3.0.5,59.57668347518305,
To what extent did the music make you feel ,FRUSTRATED,30MonoWAV/30MonoT2.wav,2,1,4,14,,,,,1,6,22,13,0,1,1,3,,,,,,,,,1,0.5514153120020637,,,048,001,2019_May_20_1417,MusicAffectPsychophysiology2019,3.0.5,59.57668347518305,
To what extent did the music make you feel ,SCARED,30MonoWAV/30MonoT2.wav,2,1,4,14,,,,,1,6,22,13,0,2,2,11,,,,,,,,,1,0.7010585780008114,,,048,001,2019_May_20_1417,MusicAffectPsychophysiology2019,3.0.5,59.57668347518305,
To what extent did the music make you feel ,ALERT,30MonoWAV/30MonoT2.wav,2,1,4,14,,,,,1,6,22,13,0,3,3,8,,,,,,,,,2,1.6196961450041272,,,048,001,2019_May_20_1417,MusicAffectPsychophysiology2019,3.0.5,59.57668347518305,
To what extent did the music make you feel ,ANGRY,30MonoWAV/30MonoT2.wav,2,1,4,14,,,,,1,6,22,13,0,4,4,2,,,,,,,,,1,0.6855375630038907,,,048,001,2019_May_20_1417,MusicAffectPsychophysiology2019,3.0.5,59.57668347518305,
To what extent did the music make you feel ,ANXIOUS ,30MonoWAV/30MonoT2.wav,2,1,4,14,,,,,1,6,22,13,0,5,5,1,,,,,,,,,1,0.7835479409986874,,,048,001,2019_May_20_1417,MusicAffectPsychophysiology2019,3.0.5,59.57668347518305,
To what extent did the music make you feel ,ACTIVE,30MonoWAV/30MonoT2.wav,2,1,4,14,,,,,1,6,22,13,0,6,6,9,,,,,,,,,2,1.900982398998167,,,048,001,2019_May_20_1417,MusicAffectPsychophysiology2019,3.0.5,59.57668347518305,
To what extent did the music make you feel ,HAPPY,30MonoWAV/30MonoT2.wav,2,1,4,14,,,,,1,6,22,13,0,7,7,6,,,,,,,,,3,2.218542973001604,,,048,001,2019_May_20_1417,MusicAffectPsychophysiology2019,3.0.5,59.57668347518305,
To what extent did the music make you feel ,EXCITED,30MonoWAV/30MonoT2.wav,2,1,4,14,,,,,1,6,22,13,0,8,8,7,,,,,,,,,3,1.2514318949979497,,,048,001,2019_May_20_1417,MusicAffectPsychophysiology2019,3.0.5,59.57668347518305,
To what extent did the music make you feel ,SAD,30MonoWAV/30MonoT2.wav,2,1,4,14,,,,,1,6,22,13,0,9,9,0,,,,,,,,,1,0.8834748810040765,,,048,001,2019_May_20_1417,MusicAffectPsychophysiology2019,3.0.5,59.57668347518305,
To what extent did the music make you feel ,ASHAMED,30MonoWAV/30MonoT2.wav,2,1,4,14,,,,,1,6,22,13,0,10,10,4,,,,,,,,,1,0.5027044679954997,,,048,001,2019_May_20_1417,MusicAffectPsychophysiology2019,3.0.5,59.57668347518305,
To what extent did the music make you feel ,TENDER,30MonoWAV/30MonoT2.wav,2,1,4,14,,,,,1,6,22,13,0,11,11,10,,,,,,,,,1,0.6024202909975429,,,048,001,2019_May_20_1417,MusicAffectPsychophysiology2019,3.0.5,59.57668347518305,
,,30MonoWAV/30MonoT2.wav,2,1,4,14,,,,,1,6,22,13,,,,,,,,,,,,,,,,,048,001,2019_May_20_1417,MusicAffectPsychophysiology2019,3.0.5,59.57668347518305,
To what extent did the music make you feel ,FRUSTRATED,30MonoWAV/30MonoS2.wav,1,1,3,10,,,,,1,7,23,9,0,0,0,3,,,5,2.7519018320017494,5,0.7681469039962394,5,0.8845746049992158,1,7.185287915999652,,,048,001,2019_May_20_1417,MusicAffectPsychophysiology2019,3.0.5,59.57668347518305,
To what extent did the music make you feel ,ASHAMED,30MonoWAV/30MonoS2.wav,1,1,3,10,,,,,1,7,23,9,0,1,1,4,,,,,,,,,1,2.5511281360013527,,,048,001,2019_May_20_1417,MusicAffectPsychophysiology2019,3.0.5,59.57668347518305,
To what extent did the music make you feel ,EXCITED,30MonoWAV/30MonoS2.wav,1,1,3,10,,,,,1,7,23,9,0,2,2,7,,,,,,,,,5,1.4013433900036034,,,048,001,2019_May_20_1417,MusicAffectPsychophysiology2019,3.0.5,59.57668347518305,
To what extent did the music make you feel ,ANGRY,30MonoWAV/30MonoS2.wav,1,1,3,10,,,,,1,7,23,9,0,3,3,2,,,,,,,,,3,4.667644913002732,,,048,001,2019_May_20_1417,MusicAffectPsychophysiology2019,3.0.5,59.57668347518305,
To what extent did the music make you feel ,ACTIVE,30MonoWAV/30MonoS2.wav,1,1,3,10,,,,,1,7,23,9,0,4,4,9,,,,,,,,,2,1.6521129669999937,,,048,001,2019_May_20_1417,MusicAffectPsychophysiology2019,3.0.5,59.57668347518305,
To what extent did the music make you feel ,GUILTY,30MonoWAV/30MonoS2.wav,1,1,3,10,,,,,1,7,23,9,0,5,5,5,,,,,,,,,2,10.401134936000744,,,048,001,2019_May_20_1417,MusicAffectPsychophysiology2019,3.0.5,59.57668347518305,
To what extent did the music make you feel ,TENDER,30MonoWAV/30MonoS2.wav,1,1,3,10,,,,,1,7,23,9,0,6,6,10,,,,,,,,,3,3.7007603050005855,,,048,001,2019_May_20_1417,MusicAffectPsychophysiology2019,3.0.5,59.57668347518305,
To what extent did the music make you feel ,ALERT,30MonoWAV/30MonoS2.wav,1,1,3,10,,,,,1,7,23,9,0,7,7,8,,,,,,,,,2,2.4022439239997766,,,048,001,2019_May_20_1417,MusicAffectPsychophysiology2019,3.0.5,59.57668347518305,
To what extent did the music make you feel ,SCARED,30MonoWAV/30MonoS2.wav,1,1,3,10,,,,,1,7,23,9,0,8,8,11,,,,,,,,,3,10.431928885998786,,,048,001,2019_May_20_1417,MusicAffectPsychophysiology2019,3.0.5,59.57668347518305,
To what extent did the music make you feel ,HAPPY,30MonoWAV/30MonoS2.wav,1,1,3,10,,,,,1,7,23,9,0,9,9,6,,,,,,,,,5,1.501987397998164,,,048,001,2019_May_20_1417,MusicAffectPsychophysiology2019,3.0.5,59.57668347518305,
To what extent did the music make you feel ,SAD,30MonoWAV/30MonoS2.wav,1,1,3,10,,,,,1,7,23,9,0,10,10,0,,,,,,,,,2,3.1339027649955824,,,048,001,2019_May_20_1417,MusicAffectPsychophysiology2019,3.0.5,59.57668347518305,
To what extent did the music make you feel ,ANXIOUS ,30MonoWAV/30MonoS2.wav,1,1,3,10,,,,,1,7,23,9,0,11,11,1,,,,,,,,,2,2.301878286001738,,,048,001,2019_May_20_1417,MusicAffectPsychophysiology2019,3.0.5,59.57668347518305,
,,30MonoWAV/30MonoS2.wav,1,1,3,10,,,,,1,7,23,9,,,,,,,,,,,,,,,,,048,001,2019_May_20_1417,MusicAffectPsychophysiology2019,3.0.5,59.57668347518305,
To what extent did the music make you feel ,HAPPY,30MonoWAV/30MonoS1.wav,1,1,3,9,,,,,1,8,24,8,0,0,0,6,,,4,3.116411190996587,4,4.286755524997716,4,1.1350408240032266,3,2.06875373100047,,,048,001,2019_May_20_1417,MusicAffectPsychophysiology2019,3.0.5,59.57668347518305,
To what extent did the music make you feel ,ANGRY,30MonoWAV/30MonoS1.wav,1,1,3,9,,,,,1,8,24,8,0,1,1,2,,,,,,,,,1,1.0512875150016043,,,048,001,2019_May_20_1417,MusicAffectPsychophysiology2019,3.0.5,59.57668347518305,
To what extent did the music make you feel ,SCARED,30MonoWAV/30MonoS1.wav,1,1,3,9,,,,,1,8,24,8,0,2,2,11,,,,,,,,,1,0.7854382020013873,,,048,001,2019_May_20_1417,MusicAffectPsychophysiology2019,3.0.5,59.57668347518305,
To what extent did the music make you feel ,ASHAMED,30MonoWAV/30MonoS1.wav,1,1,3,9,,,,,1,8,24,8,0,3,3,4,,,,,,,,,1,0.7175712969983579,,,048,001,2019_May_20_1417,MusicAffectPsychophysiology2019,3.0.5,59.57668347518305,
To what extent did the music make you feel ,ALERT,30MonoWAV/30MonoS1.wav,1,1,3,9,,,,,1,8,24,8,0,4,4,8,,,,,,,,,2,1.2020876920068986,,,048,001,2019_May_20_1417,MusicAffectPsychophysiology2019,3.0.5,59.57668347518305,
To what extent did the music make you feel ,TENDER,30MonoWAV/30MonoS1.wav,1,1,3,9,,,,,1,8,24,8,0,5,5,10,,,,,,,,,3,1.1187668600032339,,,048,001,2019_May_20_1417,MusicAffectPsychophysiology2019,3.0.5,59.57668347518305,
To what extent did the music make you feel ,EXCITED,30MonoWAV/30MonoS1.wav,1,1,3,9,,,,,1,8,24,8,0,6,6,7,,,,,,,,,4,1.9180377660013619,,,048,001,2019_May_20_1417,MusicAffectPsychophysiology2019,3.0.5,59.57668347518305,
To what extent did the music make you feel ,FRUSTRATED,30MonoWAV/30MonoS1.wav,1,1,3,9,,,,,1,8,24,8,0,7,7,3,,,,,,,,,1,1.4350436639942927,,,048,001,2019_May_20_1417,MusicAffectPsychophysiology2019,3.0.5,59.57668347518305,
To what extent did the music make you feel ,ACTIVE,30MonoWAV/30MonoS1.wav,1,1,3,9,,,,,1,8,24,8,0,8,8,9,,,,,,,,,2,1.6185119250003481,,,048,001,2019_May_20_1417,MusicAffectPsychophysiology2019,3.0.5,59.57668347518305,
To what extent did the music make you feel ,ANXIOUS ,30MonoWAV/30MonoS1.wav,1,1,3,9,,,,,1,8,24,8,0,9,9,1,,,,,,,,,1,1.2729108889980125,,,048,001,2019_May_20_1417,MusicAffectPsychophysiology2019,3.0.5,59.57668347518305,
To what extent did the music make you feel ,SAD,30MonoWAV/30MonoS1.wav,1,1,3,9,,,,,1,8,24,8,0,10,10,0,,,,,,,,,1,0.9030885160027537,,,048,001,2019_May_20_1417,MusicAffectPsychophysiology2019,3.0.5,59.57668347518305,
To what extent did the music make you feel ,GUILTY,30MonoWAV/30MonoS1.wav,1,1,3,9,,,,,1,8,24,8,0,11,11,5,,,,,,,,,1,2.446239789001993,,,048,001,2019_May_20_1417,MusicAffectPsychophysiology2019,3.0.5,59.57668347518305,
,,30MonoWAV/30MonoS1.wav,1,1,3,9,,,,,1,8,24,8,,,,,,,,,,,,,,,,,048,001,2019_May_20_1417,MusicAffectPsychophysiology2019,3.0.5,59.57668347518305,
To what extent did the music make you feel ,FRUSTRATED,30MonoWAV/30MonoT3.wav,2,1,4,15,,,,,1,9,25,14,0,0,0,3,,,3,7.285545537000871,4,1.1016838909999933,4,0.9357425209964276,2,3.0079367470025318,,,048,001,2019_May_20_1417,MusicAffectPsychophysiology2019,3.0.5,59.57668347518305,
To what extent did the music make you feel ,HAPPY,30MonoWAV/30MonoT3.wav,2,1,4,15,,,,,1,9,25,14,0,1,1,6,,,,,,,,,4,2.1345347729948116,,,048,001,2019_May_20_1417,MusicAffectPsychophysiology2019,3.0.5,59.57668347518305,
To what extent did the music make you feel ,EXCITED,30MonoWAV/30MonoT3.wav,2,1,4,15,,,,,1,9,25,14,0,2,2,7,,,,,,,,,3,2.6671493419999024,,,048,001,2019_May_20_1417,MusicAffectPsychophysiology2019,3.0.5,59.57668347518305,
To what extent did the music make you feel ,SAD,30MonoWAV/30MonoT3.wav,2,1,4,15,,,,,1,9,25,14,0,3,3,0,,,,,,,,,1,1.051363038001,,,048,001,2019_May_20_1417,MusicAffectPsychophysiology2019,3.0.5,59.57668347518305,
To what extent did the music make you feel ,TENDER,30MonoWAV/30MonoT3.wav,2,1,4,15,,,,,1,9,25,14,0,4,4,10,,,,,,,,,3,1.499617314999341,,,048,001,2019_May_20_1417,MusicAffectPsychophysiology2019,3.0.5,59.57668347518305,
To what extent did the music make you feel ,ACTIVE,30MonoWAV/30MonoT3.wav,2,1,4,15,,,,,1,9,25,14,0,5,5,9,,,,,,,,,3,2.7183149290067377,,,048,001,2019_May_20_1417,MusicAffectPsychophysiology2019,3.0.5,59.57668347518305,
To what extent did the music make you feel ,ALERT,30MonoWAV/30MonoT3.wav,2,1,4,15,,,,,1,9,25,14,0,6,6,8,,,,,,,,,2,1.4837655200026347,,,048,001,2019_May_20_1417,MusicAffectPsychophysiology2019,3.0.5,59.57668347518305,
To what extent did the music make you feel ,GUILTY,30MonoWAV/30MonoT3.wav,2,1,4,15,,,,,1,9,25,14,0,7,7,5,,,,,,,,,1,0.6176096179988235,,,048,001,2019_May_20_1417,MusicAffectPsychophysiology2019,3.0.5,59.57668347518305,
To what extent did the music make you feel ,SCARED,30MonoWAV/30MonoT3.wav,2,1,4,15,,,,,1,9,25,14,0,8,8,11,,,,,,,,,1,0.5682748059989535,,,048,001,2019_May_20_1417,MusicAffectPsychophysiology2019,3.0.5,59.57668347518305,
To what extent did the music make you feel ,ANXIOUS ,30MonoWAV/30MonoT3.wav,2,1,4,15,,,,,1,9,25,14,0,9,9,1,,,,,,,,,1,0.767527775002236,,,048,001,2019_May_20_1417,MusicAffectPsychophysiology2019,3.0.5,59.57668347518305,
To what extent did the music make you feel ,ANGRY,30MonoWAV/30MonoT3.wav,2,1,4,15,,,,,1,9,25,14,0,10,10,2,,,,,,,,,1,0.6015703110024333,,,048,001,2019_May_20_1417,MusicAffectPsychophysiology2019,3.0.5,59.57668347518305,
To what extent did the music make you feel ,ASHAMED,30MonoWAV/30MonoT3.wav,2,1,4,15,,,,,1,9,25,14,0,11,11,4,,,,,,,,,1,0.5667471699998714,,,048,001,2019_May_20_1417,MusicAffectPsychophysiology2019,3.0.5,59.57668347518305,
,,30MonoWAV/30MonoT3.wav,2,1,4,15,,,,,1,9,25,14,,,,,,,,,,,,,,,,,048,001,2019_May_20_1417,MusicAffectPsychophysiology2019,3.0.5,59.57668347518305,
To what extent did the music make you feel ,SCARED,30MonoWAV/30MonoT4.wav,2,1,4,16,,,,,1,10,26,15,0,0,0,11,,,3,3.267818343003455,3,1.5014196890042513,3,1.018123016001482,1,1.285173696000129,,,048,001,2019_May_20_1417,MusicAffectPsychophysiology2019,3.0.5,59.57668347518305,
To what extent did the music make you feel ,ACTIVE,30MonoWAV/30MonoT4.wav,2,1,4,16,,,,,1,10,26,15,0,1,1,9,,,,,,,,,1,0.8517156240050099,,,048,001,2019_May_20_1417,MusicAffectPsychophysiology2019,3.0.5,59.57668347518305,
To what extent did the music make you feel ,EXCITED,30MonoWAV/30MonoT4.wav,2,1,4,16,,,,,1,10,26,15,0,2,2,7,,,,,,,,,3,2.0349096930003725,,,048,001,2019_May_20_1417,MusicAffectPsychophysiology2019,3.0.5,59.57668347518305,
To what extent did the music make you feel ,SAD,30MonoWAV/30MonoT4.wav,2,1,4,16,,,,,1,10,26,15,0,3,3,0,,,,,,,,,1,0.5346939809969626,,,048,001,2019_May_20_1417,MusicAffectPsychophysiology2019,3.0.5,59.57668347518305,
To what extent did the music make you feel ,ANGRY,30MonoWAV/30MonoT4.wav,2,1,4,16,,,,,1,10,26,15,0,4,4,2,,,,,,,,,1,0.6328674479955225,,,048,001,2019_May_20_1417,MusicAffectPsychophysiology2019,3.0.5,59.57668347518305,
To what extent did the music make you feel ,GUILTY,30MonoWAV/30MonoT4.wav,2,1,4,16,,,,,1,10,26,15,0,5,5,5,,,,,,,,,1,0.5193500380046316,,,048,001,2019_May_20_1417,MusicAffectPsychophysiology2019,3.0.5,59.57668347518305,
To what extent did the music make you feel ,ALERT,30MonoWAV/30MonoT4.wav,2,1,4,16,,,,,1,10,26,15,0,6,6,8,,,,,,,,,1,0.7023879650005256,,,048,001,2019_May_20_1417,MusicAffectPsychophysiology2019,3.0.5,59.57668347518305,
To what extent did the music make you feel ,ASHAMED,30MonoWAV/30MonoT4.wav,2,1,4,16,,,,,1,10,26,15,0,7,7,4,,,,,,,,,1,0.5189884270002949,,,048,001,2019_May_20_1417,MusicAffectPsychophysiology2019,3.0.5,59.57668347518305,
To what extent did the music make you feel ,ANXIOUS ,30MonoWAV/30MonoT4.wav,2,1,4,16,,,,,1,10,26,15,0,8,8,1,,,,,,,,,1,0.9017046049993951,,,048,001,2019_May_20_1417,MusicAffectPsychophysiology2019,3.0.5,59.57668347518305,
To what extent did the music make you feel ,HAPPY,30MonoWAV/30MonoT4.wav,2,1,4,16,,,,,1,10,26,15,0,9,9,6,,,,,,,,,3,0.9847466130013345,,,048,001,2019_May_20_1417,MusicAffectPsychophysiology2019,3.0.5,59.57668347518305,
To what extent did the music make you feel ,FRUSTRATED,30MonoWAV/30MonoT4.wav,2,1,4,16,,,,,1,10,26,15,0,10,10,3,,,,,,,,,1,0.9055661329985014,,,048,001,2019_May_20_1417,MusicAffectPsychophysiology2019,3.0.5,59.57668347518305,
To what extent did the music make you feel ,TENDER,30MonoWAV/30MonoT4.wav,2,1,4,16,,,,,1,10,26,15,0,11,11,10,,,,,,,,,2,1.0025535930035403,,,048,001,2019_May_20_1417,MusicAffectPsychophysiology2019,3.0.5,59.57668347518305,
,,30MonoWAV/30MonoT4.wav,2,1,4,16,,,,,1,10,26,15,,,,,,,,,,,,,,,,,048,001,2019_May_20_1417,MusicAffectPsychophysiology2019,3.0.5,59.57668347518305,
To what extent did the music make you feel ,ASHAMED,30MonoWAV/30MonoF4.wav,1,2,2,4,,,,,1,11,27,3,0,0,0,4,,,1,4.217520241996681,1,2.136536445003003,1,1.0853055889965617,1,1.5349849259946495,,,048,001,2019_May_20_1417,MusicAffectPsychophysiology2019,3.0.5,59.57668347518305,
To what extent did the music make you feel ,ANXIOUS ,30MonoWAV/30MonoF4.wav,1,2,2,4,,,,,1,11,27,3,0,1,1,1,,,,,,,,,4,2.5182212029976654,,,048,001,2019_May_20_1417,MusicAffectPsychophysiology2019,3.0.5,59.57668347518305,
To what extent did the music make you feel ,EXCITED,30MonoWAV/30MonoF4.wav,1,2,2,4,,,,,1,11,27,3,0,2,2,7,,,,,,,,,1,0.8850686290024896,,,048,001,2019_May_20_1417,MusicAffectPsychophysiology2019,3.0.5,59.57668347518305,
To what extent did the music make you feel ,SAD,30MonoWAV/30MonoF4.wav,1,2,2,4,,,,,1,11,27,3,0,3,3,0,,,,,,,,,1,0.7848409470025217,,,048,001,2019_May_20_1417,MusicAffectPsychophysiology2019,3.0.5,59.57668347518305,
To what extent did the music make you feel ,HAPPY,30MonoWAV/30MonoF4.wav,1,2,2,4,,,,,1,11,27,3,0,4,4,6,,,,,,,,,1,0.6519179149981937,,,048,001,2019_May_20_1417,MusicAffectPsychophysiology2019,3.0.5,59.57668347518305,
To what extent did the music make you feel ,GUILTY,30MonoWAV/30MonoF4.wav,1,2,2,4,,,,,1,11,27,3,0,5,5,5,,,,,,,,,1,1.0509370910003781,,,048,001,2019_May_20_1417,MusicAffectPsychophysiology2019,3.0.5,59.57668347518305,
To what extent did the music make you feel ,SCARED,30MonoWAV/30MonoF4.wav,1,2,2,4,,,,,1,11,27,3,0,6,6,11,,,,,,,,,3,1.735741604003124,,,048,001,2019_May_20_1417,MusicAffectPsychophysiology2019,3.0.5,59.57668347518305,
To what extent did the music make you feel ,FRUSTRATED,30MonoWAV/30MonoF4.wav,1,2,2,4,,,,,1,11,27,3,0,7,7,3,,,,,,,,,3,0.9514477609991445,,,048,001,2019_May_20_1417,MusicAffectPsychophysiology2019,3.0.5,59.57668347518305,
To what extent did the music make you feel ,TENDER,30MonoWAV/30MonoF4.wav,1,2,2,4,,,,,1,11,27,3,0,8,8,10,,,,,,,,,1,1.2682144900027197,,,048,001,2019_May_20_1417,MusicAffectPsychophysiology2019,3.0.5,59.57668347518305,
To what extent did the music make you feel ,ALERT,30MonoWAV/30MonoF4.wav,1,2,2,4,,,,,1,11,27,3,0,9,9,8,,,,,,,,,4,1.602447184995981,,,048,001,2019_May_20_1417,MusicAffectPsychophysiology2019,3.0.5,59.57668347518305,
To what extent did the music make you feel ,ANGRY,30MonoWAV/30MonoF4.wav,1,2,2,4,,,,,1,11,27,3,0,10,10,2,,,,,,,,,3,2.534954133996507,,,048,001,2019_May_20_1417,MusicAffectPsychophysiology2019,3.0.5,59.57668347518305,
To what extent did the music make you feel ,ACTIVE,30MonoWAV/30MonoF4.wav,1,2,2,4,,,,,1,11,27,3,0,11,11,9,,,,,,,,,2,2.283850910003821,,,048,001,2019_May_20_1417,MusicAffectPsychophysiology2019,3.0.5,59.57668347518305,
,,30MonoWAV/30MonoF4.wav,1,2,2,4,,,,,1,11,27,3,,,,,,,,,,,,,,,,,048,001,2019_May_20_1417,MusicAffectPsychophysiology2019,3.0.5,59.57668347518305,
To what extent did the music make you feel ,ASHAMED,30MonoWAV/30MonoH3.wav,2,2,1,7,,,,,1,12,28,6,0,0,0,4,,,3,2.417633076001948,3,1.0025893349957187,3,0.9676916399985203,1,0.951225461998547,,,048,001,2019_May_20_1417,MusicAffectPsychophysiology2019,3.0.5,59.57668347518305,
To what extent did the music make you feel ,EXCITED,30MonoWAV/30MonoH3.wav,2,2,1,7,,,,,1,12,28,6,0,1,1,7,,,,,,,,,2,2.135191259003477,,,048,001,2019_May_20_1417,MusicAffectPsychophysiology2019,3.0.5,59.57668347518305,
To what extent did the music make you feel ,GUILTY,30MonoWAV/30MonoH3.wav,2,2,1,7,,,,,1,12,28,6,0,2,2,5,,,,,,,,,1,0.7511765829985961,,,048,001,2019_May_20_1417,MusicAffectPsychophysiology2019,3.0.5,59.57668347518305,
To what extent did the music make you feel ,ANGRY,30MonoWAV/30MonoH3.wav,2,2,1,7,,,,,1,12,28,6,0,3,3,2,,,,,,,,,1,0.6182878420004272,,,048,001,2019_May_20_1417,MusicAffectPsychophysiology2019,3.0.5,59.57668347518305,
To what extent did the music make you feel ,FRUSTRATED,30MonoWAV/30MonoH3.wav,2,2,1,7,,,,,1,12,28,6,0,4,4,3,,,,,,,,,1,1.0683938229994965,,,048,001,2019_May_20_1417,MusicAffectPsychophysiology2019,3.0.5,59.57668347518305,
To what extent did the music make you feel ,SCARED,30MonoWAV/30MonoH3.wav,2,2,1,7,,,,,1,12,28,6,0,5,5,11,,,,,,,,,1,0.7519425479986239,,,048,001,2019_May_20_1417,MusicAffectPsychophysiology2019,3.0.5,59.57668347518305,
To what extent did the music make you feel ,HAPPY,30MonoWAV/30MonoH3.wav,2,2,1,7,,,,,1,12,28,6,0,6,6,6,,,,,,,,,2,2.6190894649989787,,,048,001,2019_May_20_1417,MusicAffectPsychophysiology2019,3.0.5,59.57668347518305,
To what extent did the music make you feel ,ACTIVE,30MonoWAV/30MonoH3.wav,2,2,1,7,,,,,1,12,28,6,0,7,7,9,,,,,,,,,2,1.4179102159978356,,,048,001,2019_May_20_1417,MusicAffectPsychophysiology2019,3.0.5,59.57668347518305,
To what extent did the music make you feel ,TENDER,30MonoWAV/30MonoH3.wav,2,2,1,7,,,,,1,12,28,6,0,8,8,10,,,,,,,,,1,0.6842677230015397,,,048,001,2019_May_20_1417,MusicAffectPsychophysiology2019,3.0.5,59.57668347518305,
To what extent did the music make you feel ,ANXIOUS ,30MonoWAV/30MonoH3.wav,2,2,1,7,,,,,1,12,28,6,0,9,9,1,,,,,,,,,1,0.6693369209970115,,,048,001,2019_May_20_1417,MusicAffectPsychophysiology2019,3.0.5,59.57668347518305,
To what extent did the music make you feel ,SAD,30MonoWAV/30MonoH3.wav,2,2,1,7,,,,,1,12,28,6,0,10,10,0,,,,,,,,,1,0.4859783020001487,,,048,001,2019_May_20_1417,MusicAffectPsychophysiology2019,3.0.5,59.57668347518305,
To what extent did the music make you feel ,ALERT,30MonoWAV/30MonoH3.wav,2,2,1,7,,,,,1,12,28,6,0,11,11,8,,,,,,,,,1,0.5516162790008821,,,048,001,2019_May_20_1417,MusicAffectPsychophysiology2019,3.0.5,59.57668347518305,
,,30MonoWAV/30MonoH3.wav,2,2,1,7,,,,,1,12,28,6,,,,,,,,,,,,,,,,,048,001,2019_May_20_1417,MusicAffectPsychophysiology2019,3.0.5,59.57668347518305,
To what extent did the music make you feel ,ASHAMED,30MonoWAV/30MonoS3.wav,1,1,3,11,,,,,1,13,29,10,0,0,0,4,,,2,5.034972563997144,2,1.4851991949981311,3,1.7510355479971622,1,1.2852832330027013,,,048,001,2019_May_20_1417,MusicAffectPsychophysiology2019,3.0.5,59.57668347518305,
To what extent did the music make you feel ,TENDER,30MonoWAV/30MonoS3.wav,1,1,3,11,,,,,1,13,29,10,0,1,1,10,,,,,,,,,1,0.918527082001674,,,048,001,2019_May_20_1417,MusicAffectPsychophysiology2019,3.0.5,59.57668347518305,
To what extent did the music make you feel ,FRUSTRATED,30MonoWAV/30MonoS3.wav,1,1,3,11,,,,,1,13,29,10,0,2,2,3,,,,,,,,,1,0.9345604000045569,,,048,001,2019_May_20_1417,MusicAffectPsychophysiology2019,3.0.5,59.57668347518305,
To what extent did the music make you feel ,EXCITED,30MonoWAV/30MonoS3.wav,1,1,3,11,,,,,1,13,29,10,0,3,3,7,,,,,,,,,2,1.540253085004224,,,048,001,2019_May_20_1417,MusicAffectPsychophysiology2019,3.0.5,59.57668347518305,
To what extent did the music make you feel ,ALERT,30MonoWAV/30MonoS3.wav,1,1,3,11,,,,,1,13,29,10,0,4,4,8,,,,,,,,,1,2.1367183010006556,,,048,001,2019_May_20_1417,MusicAffectPsychophysiology2019,3.0.5,59.57668347518305,
To what extent did the music make you feel ,ANGRY,30MonoWAV/30MonoS3.wav,1,1,3,11,,,,,1,13,29,10,0,5,5,2,,,,,,,,,1,0.7697522469970863,,,048,001,2019_May_20_1417,MusicAffectPsychophysiology2019,3.0.5,59.57668347518305,
To what extent did the music make you feel ,ACTIVE,30MonoWAV/30MonoS3.wav,1,1,3,11,,,,,1,13,29,10,0,6,6,9,,,,,,,,,1,1.0698262639998575,,,048,001,2019_May_20_1417,MusicAffectPsychophysiology2019,3.0.5,59.57668347518305,
To what extent did the music make you feel ,HAPPY,30MonoWAV/30MonoS3.wav,1,1,3,11,,,,,1,13,29,10,0,7,7,6,,,,,,,,,2,2.441936221002834,,,048,001,2019_May_20_1417,MusicAffectPsychophysiology2019,3.0.5,59.57668347518305,
To what extent did the music make you feel ,SCARED,30MonoWAV/30MonoS3.wav,1,1,3,11,,,,,1,13,29,10,0,8,8,11,,,,,,,,,1,0.5848297580014332,,,048,001,2019_May_20_1417,MusicAffectPsychophysiology2019,3.0.5,59.57668347518305,
To what extent did the music make you feel ,GUILTY,30MonoWAV/30MonoS3.wav,1,1,3,11,,,,,1,13,29,10,0,9,9,5,,,,,,,,,1,0.6027805789999547,,,048,001,2019_May_20_1417,MusicAffectPsychophysiology2019,3.0.5,59.57668347518305,
To what extent did the music make you feel ,SAD,30MonoWAV/30MonoS3.wav,1,1,3,11,,,,,1,13,29,10,0,10,10,0,,,,,,,,,1,1.868373793993669,,,048,001,2019_May_20_1417,MusicAffectPsychophysiology2019,3.0.5,59.57668347518305,
To what extent did the music make you feel ,ANXIOUS ,30MonoWAV/30MonoS3.wav,1,1,3,11,,,,,1,13,29,10,0,11,11,1,,,,,,,,,1,0.8183548099987092,,,048,001,2019_May_20_1417,MusicAffectPsychophysiology2019,3.0.5,59.57668347518305,
,,30MonoWAV/30MonoS3.wav,1,1,3,11,,,,,1,13,29,10,,,,,,,,,,,,,,,,,048,001,2019_May_20_1417,MusicAffectPsychophysiology2019,3.0.5,59.57668347518305,
To what extent did the music make you feel ,HAPPY,30MonoWAV/30MonoH1.wav,2,2,1,5,,,,,1,14,30,4,0,0,0,6,,,4,3.501828980995924,5,1.06867263699678,5,2.035538739997719,5,1.7677369689990883,,,048,001,2019_May_20_1417,MusicAffectPsychophysiology2019,3.0.5,59.57668347518305,
To what extent did the music make you feel ,GUILTY,30MonoWAV/30MonoH1.wav,2,2,1,5,,,,,1,14,30,4,0,1,1,5,,,,,,,,,1,0.8857707080023829,,,048,001,2019_May_20_1417,MusicAffectPsychophysiology2019,3.0.5,59.57668347518305,
To what extent did the music make you feel ,ANGRY,30MonoWAV/30MonoH1.wav,2,2,1,5,,,,,1,14,30,4,0,2,2,2,,,,,,,,,1,1.418310681998264,,,048,001,2019_May_20_1417,MusicAffectPsychophysiology2019,3.0.5,59.57668347518305,
To what extent did the music make you feel ,ASHAMED,30MonoWAV/30MonoH1.wav,2,2,1,5,,,,,1,14,30,4,0,3,3,4,,,,,,,,,1,0.6851992980009527,,,048,001,2019_May_20_1417,MusicAffectPsychophysiology2019,3.0.5,59.57668347518305,
To what extent did the music make you feel ,SCARED,30MonoWAV/30MonoH1.wav,2,2,1,5,,,,,1,14,30,4,0,4,4,11,,,,,,,,,1,0.668988288998662,,,048,001,2019_May_20_1417,MusicAffectPsychophysiology2019,3.0.5,59.57668347518305,
To what extent did the music make you feel ,SAD,30MonoWAV/30MonoH1.wav,2,2,1,5,,,,,1,14,30,4,0,5,5,0,,,,,,,,,1,0.9185711129975971,,,048,001,2019_May_20_1417,MusicAffectPsychophysiology2019,3.0.5,59.57668347518305,
To what extent did the music make you feel ,EXCITED,30MonoWAV/30MonoH1.wav,2,2,1,5,,,,,1,14,30,4,0,6,6,7,,,,,,,,,3,5.700593975001539,,,048,001,2019_May_20_1417,MusicAffectPsychophysiology2019,3.0.5,59.57668347518305,
To what extent did the music make you feel ,ALERT,30MonoWAV/30MonoH1.wav,2,2,1,5,,,,,1,14,30,4,0,7,7,8,,,,,,,,,1,1.5845667579997098,,,048,001,2019_May_20_1417,MusicAffectPsychophysiology2019,3.0.5,59.57668347518305,
To what extent did the music make you feel ,TENDER,30MonoWAV/30MonoH1.wav,2,2,1,5,,,,,1,14,30,4,0,8,8,10,,,,,,,,,3,1.4344350829996984,,,048,001,2019_May_20_1417,MusicAffectPsychophysiology2019,3.0.5,59.57668347518305,
To what extent did the music make you feel ,FRUSTRATED,30MonoWAV/30MonoH1.wav,2,2,1,5,,,,,1,14,30,4,0,9,9,3,,,,,,,,,1,0.7017066970001906,,,048,001,2019_May_20_1417,MusicAffectPsychophysiology2019,3.0.5,59.57668347518305,
To what extent did the music make you feel ,ANXIOUS ,30MonoWAV/30MonoH1.wav,2,2,1,5,,,,,1,14,30,4,0,10,10,1,,,,,,,,,1,1.2346538769998006,,,048,001,2019_May_20_1417,MusicAffectPsychophysiology2019,3.0.5,59.57668347518305,
To what extent did the music make you feel ,ACTIVE,30MonoWAV/30MonoH1.wav,2,2,1,5,,,,,1,14,30,4,0,11,11,9,,,,,,,,,3,1.0519378750032047,,,048,001,2019_May_20_1417,MusicAffectPsychophysiology2019,3.0.5,59.57668347518305,
,,30MonoWAV/30MonoH1.wav,2,2,1,5,,,,,1,14,30,4,,,,,,,,,,,,,,,,,048,001,2019_May_20_1417,MusicAffectPsychophysiology2019,3.0.5,59.57668347518305,
To what extent did the music make you feel ,ANXIOUS ,30MonoWAV/30MonoS4.wav,1,1,3,12,,,,,1,15,31,11,0,0,0,1,,,4,3.0689136479995796,4,1.0182610269985162,4,0.5682049729948631,1,1.3334331810037838,,,048,001,2019_May_20_1417,MusicAffectPsychophysiology2019,3.0.5,59.57668347518305,
To what extent did the music make you feel ,ASHAMED,30MonoWAV/30MonoS4.wav,1,1,3,12,,,,,1,15,31,11,0,1,1,4,,,,,,,,,1,1.3210253349971026,,,048,001,2019_May_20_1417,MusicAffectPsychophysiology2019,3.0.5,59.57668347518305,
To what extent did the music make you feel ,HAPPY,30MonoWAV/30MonoS4.wav,1,1,3,12,,,,,1,15,31,11,0,2,2,6,,,,,,,,,4,1.2851107089954894,,,048,001,2019_May_20_1417,MusicAffectPsychophysiology2019,3.0.5,59.57668347518305,
To what extent did the music make you feel ,SAD,30MonoWAV/30MonoS4.wav,1,1,3,12,,,,,1,15,31,11,0,3,3,0,,,,,,,,,1,0.9515945269959047,,,048,001,2019_May_20_1417,MusicAffectPsychophysiology2019,3.0.5,59.57668347518305,
To what extent did the music make you feel ,EXCITED,30MonoWAV/30MonoS4.wav,1,1,3,12,,,,,1,15,31,11,0,4,4,7,,,,,,,,,2,1.5015939429940772,,,048,001,2019_May_20_1417,MusicAffectPsychophysiology2019,3.0.5,59.57668347518305,
To what extent did the music make you feel ,FRUSTRATED,30MonoWAV/30MonoS4.wav,1,1,3,12,,,,,1,15,31,11,0,5,5,3,,,,,,,,,1,2.051960280005005,,,048,001,2019_May_20_1417,MusicAffectPsychophysiology2019,3.0.5,59.57668347518305,
To what extent did the music make you feel ,ACTIVE,30MonoWAV/30MonoS4.wav,1,1,3,12,,,,,1,15,31,11,0,6,6,9,,,,,,,,,2,1.0676328879999346,,,048,001,2019_May_20_1417,MusicAffectPsychophysiology2019,3.0.5,59.57668347518305,
To what extent did the music make you feel ,GUILTY,30MonoWAV/30MonoS4.wav,1,1,3,12,,,,,1,15,31,11,0,7,7,5,,,,,,,,,1,0.5179888369966648,,,048,001,2019_May_20_1417,MusicAffectPsychophysiology2019,3.0.5,59.57668347518305,
To what extent did the music make you feel ,ANGRY,30MonoWAV/30MonoS4.wav,1,1,3,12,,,,,1,15,31,11,0,8,8,2,,,,,,,,,1,0.5347534520042245,,,048,001,2019_May_20_1417,MusicAffectPsychophysiology2019,3.0.5,59.57668347518305,
To what extent did the music make you feel ,TENDER,30MonoWAV/30MonoS4.wav,1,1,3,12,,,,,1,15,31,11,0,9,9,10,,,,,,,,,3,1.2012128429996665,,,048,001,2019_May_20_1417,MusicAffectPsychophysiology2019,3.0.5,59.57668347518305,
To what extent did the music make you feel ,ALERT,30MonoWAV/30MonoS4.wav,1,1,3,12,,,,,1,15,31,11,0,10,10,8,,,,,,,,,1,0.6681352800005698,,,048,001,2019_May_20_1417,MusicAffectPsychophysiology2019,3.0.5,59.57668347518305,
To what extent did the music make you feel ,SCARED,30MonoWAV/30MonoS4.wav,1,1,3,12,,,,,1,15,31,11,0,11,11,11,,,,,,,,,1,0.5518931219994556,,,048,001,2019_May_20_1417,MusicAffectPsychophysiology2019,3.0.5,59.57668347518305,
,,30MonoWAV/30MonoS4.wav,1,1,3,12,,,,,1,15,31,11,,,,,,,,,,,,,,,,,048,001,2019_May_20_1417,MusicAffectPsychophysiology2019,3.0.5,59.57668347518305,
,,,,,,,,,,,,,,,,,,,,,,,,,,,,,space,5.0181482109983335,048,001,2019_May_20_1417,MusicAffectPsychophysiology2019,3.0.5,59.57668347518305,
