Instruction,Word,song,valence,arousal,affectcat,songmark,pracwords.thisRepN,pracwords.thisTrialN,pracwords.thisN,pracwords.thisIndex,songtrials.thisRepN,songtrials.thisTrialN,songtrials.thisN,songtrials.thisIndex,words.thisRepN,words.thisTrialN,words.thisN,words.thisIndex,begin.keys,begin.rt,arousalkey.keys,arousalkey.rt,valencekey.keys,valencekey.rt,likekey.keys,likekey.rt,WordResponse.keys,WordResponse.rt,key_resp_2.keys,key_resp_2.rt,participant,session,date,expName,psychopyVersion,frameRate,
,,,,,,,,,,,,,,,,,,,space,14.474603356000443,,,,,,,,,,,049,001,2019_May_20_1514,MusicAffectPsychophysiology2019,3.0.5,60.034724323620104,
,,,,,,,,,,,,,,,,,,,,,4,12.349185651997686,,,,,,,,,049,001,2019_May_20_1514,MusicAffectPsychophysiology2019,3.0.5,60.034724323620104,
,,,,,,,,,,,,,,,,,,,,,,,4,3.6680329119990347,,,,,,,049,001,2019_May_20_1514,MusicAffectPsychophysiology2019,3.0.5,60.034724323620104,
,,,,,,,,,,,,,,,,,,,,,,,,,5,2.585542599998007,,,,,049,001,2019_May_20_1514,MusicAffectPsychophysiology2019,3.0.5,60.034724323620104,
To what extent did the music make you feel ,SAD,,,,,,0,0,0,0,,,,,,,,,,,,,,,,,2,6.766728741000406,,,049,001,2019_May_20_1514,MusicAffectPsychophysiology2019,3.0.5,60.034724323620104,
To what extent did the music make you feel ,ACTIVE,,,,,,0,1,1,9,,,,,,,,,,,,,,,,,2,6.30029168400506,,,049,001,2019_May_20_1514,MusicAffectPsychophysiology2019,3.0.5,60.034724323620104,
To what extent did the music make you feel ,ANXIOUS ,,,,,,0,2,2,1,,,,,,,,,,,,,,,,,2,1.305887836002512,,,049,001,2019_May_20_1514,MusicAffectPsychophysiology2019,3.0.5,60.034724323620104,
To what extent did the music make you feel ,ANGRY,,,,,,0,3,3,2,,,,,,,,,,,,,,,,,2,1.2028581079939613,,,049,001,2019_May_20_1514,MusicAffectPsychophysiology2019,3.0.5,60.034724323620104,
To what extent did the music make you feel ,FRUSTRATED,,,,,,0,4,4,3,,,,,,,,,,,,,,,,,1,2.8714337540004635,,,049,001,2019_May_20_1514,MusicAffectPsychophysiology2019,3.0.5,60.034724323620104,
To what extent did the music make you feel ,GUILTY,,,,,,0,5,5,5,,,,,,,,,,,,,,,,,1,1.6360146310034906,,,049,001,2019_May_20_1514,MusicAffectPsychophysiology2019,3.0.5,60.034724323620104,
To what extent did the music make you feel ,ASHAMED,,,,,,0,6,6,4,,,,,,,,,,,,,,,,,1,0.7383057560000452,,,049,001,2019_May_20_1514,MusicAffectPsychophysiology2019,3.0.5,60.034724323620104,
To what extent did the music make you feel ,ALERT,,,,,,0,7,7,8,,,,,,,,,,,,,,,,,2,1.8002369519963395,,,049,001,2019_May_20_1514,MusicAffectPsychophysiology2019,3.0.5,60.034724323620104,
To what extent did the music make you feel ,HAPPY,,,,,,0,8,8,6,,,,,,,,,,,,,,,,,3,1.5850990350008942,,,049,001,2019_May_20_1514,MusicAffectPsychophysiology2019,3.0.5,60.034724323620104,
To what extent did the music make you feel ,TENDER,,,,,,0,9,9,10,,,,,,,,,,,,,,,,,4,1.851772523004911,,,049,001,2019_May_20_1514,MusicAffectPsychophysiology2019,3.0.5,60.034724323620104,
To what extent did the music make you feel ,EXCITED,,,,,,0,10,10,7,,,,,,,,,,,,,,,,,2,2.001912782994623,,,049,001,2019_May_20_1514,MusicAffectPsychophysiology2019,3.0.5,60.034724323620104,
To what extent did the music make you feel ,SCARED,,,,,,0,11,11,11,,,,,,,,,,,,,,,,,1,1.268201269005658,,,049,001,2019_May_20_1514,MusicAffectPsychophysiology2019,3.0.5,60.034724323620104,
To what extent did the music make you feel ,ACTIVE,30MonoWAV/30MonoT3.wav,2,1,4,15,,,,,0,0,0,14,0,0,0,9,,,3,4.56755596199946,5,2.0012781339974026,5,1.2518439870036673,1,3.084566369994718,,,049,001,2019_May_20_1514,MusicAffectPsychophysiology2019,3.0.5,60.034724323620104,
To what extent did the music make you feel ,ANXIOUS ,30MonoWAV/30MonoT3.wav,2,1,4,15,,,,,0,0,0,14,0,1,1,1,,,,,,,,,1,0.7848640980009804,,,049,001,2019_May_20_1514,MusicAffectPsychophysiology2019,3.0.5,60.034724323620104,
To what extent did the music make you feel ,EXCITED,30MonoWAV/30MonoT3.wav,2,1,4,15,,,,,0,0,0,14,0,2,2,7,,,,,,,,,3,1.518588989994896,,,049,001,2019_May_20_1514,MusicAffectPsychophysiology2019,3.0.5,60.034724323620104,
To what extent did the music make you feel ,SAD,30MonoWAV/30MonoT3.wav,2,1,4,15,,,,,0,0,0,14,0,3,3,0,,,,,,,,,2,2.734019992996764,,,049,001,2019_May_20_1514,MusicAffectPsychophysiology2019,3.0.5,60.034724323620104,
To what extent did the music make you feel ,FRUSTRATED,30MonoWAV/30MonoT3.wav,2,1,4,15,,,,,0,0,0,14,0,4,4,3,,,,,,,,,1,0.7518901690054918,,,049,001,2019_May_20_1514,MusicAffectPsychophysiology2019,3.0.5,60.034724323620104,
To what extent did the music make you feel ,GUILTY,30MonoWAV/30MonoT3.wav,2,1,4,15,,,,,0,0,0,14,0,5,5,5,,,,,,,,,1,0.7524674819942447,,,049,001,2019_May_20_1514,MusicAffectPsychophysiology2019,3.0.5,60.034724323620104,
To what extent did the music make you feel ,ALERT,30MonoWAV/30MonoT3.wav,2,1,4,15,,,,,0,0,0,14,0,6,6,8,,,,,,,,,1,0.6016224510021857,,,049,001,2019_May_20_1514,MusicAffectPsychophysiology2019,3.0.5,60.034724323620104,
To what extent did the music make you feel ,HAPPY,30MonoWAV/30MonoT3.wav,2,1,4,15,,,,,0,0,0,14,0,7,7,6,,,,,,,,,5,3.1354310839960817,,,049,001,2019_May_20_1514,MusicAffectPsychophysiology2019,3.0.5,60.034724323620104,
To what extent did the music make you feel ,TENDER,30MonoWAV/30MonoT3.wav,2,1,4,15,,,,,0,0,0,14,0,8,8,10,,,,,,,,,5,1.2856237919986597,,,049,001,2019_May_20_1514,MusicAffectPsychophysiology2019,3.0.5,60.034724323620104,
To what extent did the music make you feel ,ASHAMED,30MonoWAV/30MonoT3.wav,2,1,4,15,,,,,0,0,0,14,0,9,9,4,,,,,,,,,1,1.4345916120000766,,,049,001,2019_May_20_1514,MusicAffectPsychophysiology2019,3.0.5,60.034724323620104,
To what extent did the music make you feel ,ANGRY,30MonoWAV/30MonoT3.wav,2,1,4,15,,,,,0,0,0,14,0,10,10,2,,,,,,,,,1,1.3189140730028157,,,049,001,2019_May_20_1514,MusicAffectPsychophysiology2019,3.0.5,60.034724323620104,
To what extent did the music make you feel ,SCARED,30MonoWAV/30MonoT3.wav,2,1,4,15,,,,,0,0,0,14,0,11,11,11,,,,,,,,,1,0.551897851000831,,,049,001,2019_May_20_1514,MusicAffectPsychophysiology2019,3.0.5,60.034724323620104,
,,30MonoWAV/30MonoT3.wav,2,1,4,15,,,,,0,0,0,14,,,,,,,,,,,,,,,,,049,001,2019_May_20_1514,MusicAffectPsychophysiology2019,3.0.5,60.034724323620104,
To what extent did the music make you feel ,ACTIVE,30MonoWAV/30MonoF3.wav,1,2,2,3,,,,,0,1,1,2,0,0,0,9,,,3,5.251670213998295,1,4.085059463999642,2,2.318800018998445,1,1.668764034002379,,,049,001,2019_May_20_1514,MusicAffectPsychophysiology2019,3.0.5,60.034724323620104,
To what extent did the music make you feel ,ANXIOUS ,30MonoWAV/30MonoF3.wav,1,2,2,3,,,,,0,1,1,2,0,1,1,1,,,,,,,,,4,2.068699599003594,,,049,001,2019_May_20_1514,MusicAffectPsychophysiology2019,3.0.5,60.034724323620104,
To what extent did the music make you feel ,SCARED,30MonoWAV/30MonoF3.wav,1,2,2,3,,,,,0,1,1,2,0,2,2,11,,,,,,,,,4,0.9518708989999141,,,049,001,2019_May_20_1514,MusicAffectPsychophysiology2019,3.0.5,60.034724323620104,
To what extent did the music make you feel ,SAD,30MonoWAV/30MonoF3.wav,1,2,2,3,,,,,0,1,1,2,0,3,3,0,,,,,,,,,3,1.723594092996791,,,049,001,2019_May_20_1514,MusicAffectPsychophysiology2019,3.0.5,60.034724323620104,
To what extent did the music make you feel ,GUILTY,30MonoWAV/30MonoF3.wav,1,2,2,3,,,,,0,1,1,2,0,4,4,5,,,,,,,,,1,0.9363929510000162,,,049,001,2019_May_20_1514,MusicAffectPsychophysiology2019,3.0.5,60.034724323620104,
To what extent did the music make you feel ,ALERT,30MonoWAV/30MonoF3.wav,1,2,2,3,,,,,0,1,1,2,0,5,5,8,,,,,,,,,3,1.6702380400020047,,,049,001,2019_May_20_1514,MusicAffectPsychophysiology2019,3.0.5,60.034724323620104,
To what extent did the music make you feel ,ANGRY,30MonoWAV/30MonoF3.wav,1,2,2,3,,,,,0,1,1,2,0,6,6,2,,,,,,,,,2,2.054419751999376,,,049,001,2019_May_20_1514,MusicAffectPsychophysiology2019,3.0.5,60.034724323620104,
To what extent did the music make you feel ,TENDER,30MonoWAV/30MonoF3.wav,1,2,2,3,,,,,0,1,1,2,0,7,7,10,,,,,,,,,1,1.089864306995878,,,049,001,2019_May_20_1514,MusicAffectPsychophysiology2019,3.0.5,60.034724323620104,
To what extent did the music make you feel ,EXCITED,30MonoWAV/30MonoF3.wav,1,2,2,3,,,,,0,1,1,2,0,8,8,7,,,,,,,,,1,0.4500287510018097,,,049,001,2019_May_20_1514,MusicAffectPsychophysiology2019,3.0.5,60.034724323620104,
To what extent did the music make you feel ,HAPPY,30MonoWAV/30MonoF3.wav,1,2,2,3,,,,,0,1,1,2,0,9,9,6,,,,,,,,,1,0.6191356929994072,,,049,001,2019_May_20_1514,MusicAffectPsychophysiology2019,3.0.5,60.034724323620104,
To what extent did the music make you feel ,FRUSTRATED,30MonoWAV/30MonoF3.wav,1,2,2,3,,,,,0,1,1,2,0,10,10,3,,,,,,,,,1,1.8178915440003038,,,049,001,2019_May_20_1514,MusicAffectPsychophysiology2019,3.0.5,60.034724323620104,
To what extent did the music make you feel ,ASHAMED,30MonoWAV/30MonoF3.wav,1,2,2,3,,,,,0,1,1,2,0,11,11,4,,,,,,,,,1,0.6012354419945041,,,049,001,2019_May_20_1514,MusicAffectPsychophysiology2019,3.0.5,60.034724323620104,
,,30MonoWAV/30MonoF3.wav,1,2,2,3,,,,,0,1,1,2,,,,,,,,,,,,,,,,,049,001,2019_May_20_1514,MusicAffectPsychophysiology2019,3.0.5,60.034724323620104,
To what extent did the music make you feel ,ANGRY,30MonoWAV/30MonoS4.wav,1,1,3,12,,,,,0,2,2,11,0,0,0,2,,,1,3.438592679995054,1,2.0532583960011834,5,3.1055525870033307,2,2.4192186590007623,,,049,001,2019_May_20_1514,MusicAffectPsychophysiology2019,3.0.5,60.034724323620104,
To what extent did the music make you feel ,ACTIVE,30MonoWAV/30MonoS4.wav,1,1,3,12,,,,,0,2,2,11,0,1,1,9,,,,,,,,,1,2.0065901359994314,,,049,001,2019_May_20_1514,MusicAffectPsychophysiology2019,3.0.5,60.034724323620104,
To what extent did the music make you feel ,EXCITED,30MonoWAV/30MonoS4.wav,1,1,3,12,,,,,0,2,2,11,0,2,2,7,,,,,,,,,1,0.6356396380069782,,,049,001,2019_May_20_1514,MusicAffectPsychophysiology2019,3.0.5,60.034724323620104,
To what extent did the music make you feel ,SCARED,30MonoWAV/30MonoS4.wav,1,1,3,12,,,,,0,2,2,11,0,3,3,11,,,,,,,,,3,1.3195677000039723,,,049,001,2019_May_20_1514,MusicAffectPsychophysiology2019,3.0.5,60.034724323620104,
To what extent did the music make you feel ,ANXIOUS ,30MonoWAV/30MonoS4.wav,1,1,3,12,,,,,0,2,2,11,0,4,4,1,,,,,,,,,2,1.286433670000406,,,049,001,2019_May_20_1514,MusicAffectPsychophysiology2019,3.0.5,60.034724323620104,
To what extent did the music make you feel ,GUILTY,30MonoWAV/30MonoS4.wav,1,1,3,12,,,,,0,2,2,11,0,5,5,5,,,,,,,,,3,1.0863503840009798,,,049,001,2019_May_20_1514,MusicAffectPsychophysiology2019,3.0.5,60.034724323620104,
To what extent did the music make you feel ,HAPPY,30MonoWAV/30MonoS4.wav,1,1,3,12,,,,,0,2,2,11,0,6,6,6,,,,,,,,,1,0.9525220169962267,,,049,001,2019_May_20_1514,MusicAffectPsychophysiology2019,3.0.5,60.034724323620104,
To what extent did the music make you feel ,SAD,30MonoWAV/30MonoS4.wav,1,1,3,12,,,,,0,2,2,11,0,7,7,0,,,,,,,,,5,1.1736783730011666,,,049,001,2019_May_20_1514,MusicAffectPsychophysiology2019,3.0.5,60.034724323620104,
To what extent did the music make you feel ,TENDER,30MonoWAV/30MonoS4.wav,1,1,3,12,,,,,0,2,2,11,0,8,8,10,,,,,,,,,1,0.9854873969961773,,,049,001,2019_May_20_1514,MusicAffectPsychophysiology2019,3.0.5,60.034724323620104,
To what extent did the music make you feel ,FRUSTRATED,30MonoWAV/30MonoS4.wav,1,1,3,12,,,,,0,2,2,11,0,9,9,3,,,,,,,,,1,1.418221985004493,,,049,001,2019_May_20_1514,MusicAffectPsychophysiology2019,3.0.5,60.034724323620104,
To what extent did the music make you feel ,ASHAMED,30MonoWAV/30MonoS4.wav,1,1,3,12,,,,,0,2,2,11,0,10,10,4,,,,,,,,,1,1.3343644669948844,,,049,001,2019_May_20_1514,MusicAffectPsychophysiology2019,3.0.5,60.034724323620104,
To what extent did the music make you feel ,ALERT,30MonoWAV/30MonoS4.wav,1,1,3,12,,,,,0,2,2,11,0,11,11,8,,,,,,,,,1,0.9011520519998157,,,049,001,2019_May_20_1514,MusicAffectPsychophysiology2019,3.0.5,60.034724323620104,
,,30MonoWAV/30MonoS4.wav,1,1,3,12,,,,,0,2,2,11,,,,,,,,,,,,,,,,,049,001,2019_May_20_1514,MusicAffectPsychophysiology2019,3.0.5,60.034724323620104,
To what extent did the music make you feel ,EXCITED,30MonoWAV/30MonoS2.wav,1,1,3,10,,,,,0,3,3,9,0,0,0,7,,,1,3.4182313150013215,1,1.0349618089967407,2,1.6510935149999568,1,2.6674346439976944,,,049,001,2019_May_20_1514,MusicAffectPsychophysiology2019,3.0.5,60.034724323620104,
To what extent did the music make you feel ,ANXIOUS ,30MonoWAV/30MonoS2.wav,1,1,3,10,,,,,0,3,3,9,0,1,1,1,,,,,,,,,2,1.0677041120070498,,,049,001,2019_May_20_1514,MusicAffectPsychophysiology2019,3.0.5,60.034724323620104,
To what extent did the music make you feel ,FRUSTRATED,30MonoWAV/30MonoS2.wav,1,1,3,10,,,,,0,3,3,9,0,2,2,3,,,,,,,,,1,1.968438072995923,,,049,001,2019_May_20_1514,MusicAffectPsychophysiology2019,3.0.5,60.034724323620104,
To what extent did the music make you feel ,ACTIVE,30MonoWAV/30MonoS2.wav,1,1,3,10,,,,,0,3,3,9,0,3,3,9,,,,,,,,,1,1.0677469259971986,,,049,001,2019_May_20_1514,MusicAffectPsychophysiology2019,3.0.5,60.034724323620104,
To what extent did the music make you feel ,GUILTY,30MonoWAV/30MonoS2.wav,1,1,3,10,,,,,0,3,3,9,0,4,4,5,,,,,,,,,3,2.667357947997516,,,049,001,2019_May_20_1514,MusicAffectPsychophysiology2019,3.0.5,60.034724323620104,
To what extent did the music make you feel ,ASHAMED,30MonoWAV/30MonoS2.wav,1,1,3,10,,,,,0,3,3,9,0,5,5,4,,,,,,,,,4,1.8183991990008508,,,049,001,2019_May_20_1514,MusicAffectPsychophysiology2019,3.0.5,60.034724323620104,
To what extent did the music make you feel ,ALERT,30MonoWAV/30MonoS2.wav,1,1,3,10,,,,,0,3,3,9,0,6,6,8,,,,,,,,,1,2.899995603998832,,,049,001,2019_May_20_1514,MusicAffectPsychophysiology2019,3.0.5,60.034724323620104,
To what extent did the music make you feel ,HAPPY,30MonoWAV/30MonoS2.wav,1,1,3,10,,,,,0,3,3,9,0,7,7,6,,,,,,,,,1,0.7680347619971144,,,049,001,2019_May_20_1514,MusicAffectPsychophysiology2019,3.0.5,60.034724323620104,
To what extent did the music make you feel ,TENDER,30MonoWAV/30MonoS2.wav,1,1,3,10,,,,,0,3,3,9,0,8,8,10,,,,,,,,,1,0.6184647830014001,,,049,001,2019_May_20_1514,MusicAffectPsychophysiology2019,3.0.5,60.034724323620104,
To what extent did the music make you feel ,SCARED,30MonoWAV/30MonoS2.wav,1,1,3,10,,,,,0,3,3,9,0,9,9,11,,,,,,,,,5,0.9845643599983305,,,049,001,2019_May_20_1514,MusicAffectPsychophysiology2019,3.0.5,60.034724323620104,
To what extent did the music make you feel ,SAD,30MonoWAV/30MonoS2.wav,1,1,3,10,,,,,0,3,3,9,0,10,10,0,,,,,,,,,5,1.0179491210001288,,,049,001,2019_May_20_1514,MusicAffectPsychophysiology2019,3.0.5,60.034724323620104,
To what extent did the music make you feel ,ANGRY,30MonoWAV/30MonoS2.wav,1,1,3,10,,,,,0,3,3,9,0,11,11,2,,,,,,,,,2,1.734296633003396,,,049,001,2019_May_20_1514,MusicAffectPsychophysiology2019,3.0.5,60.034724323620104,
,,30MonoWAV/30MonoS2.wav,1,1,3,10,,,,,0,3,3,9,,,,,,,,,,,,,,,,,049,001,2019_May_20_1514,MusicAffectPsychophysiology2019,3.0.5,60.034724323620104,
To what extent did the music make you feel ,ANXIOUS ,30MonoWAV/30MonoH2.wav,2,2,1,6,,,,,0,4,4,5,0,0,0,1,,,5,3.91885775999981,4,2.3346622149983887,4,1.651369594001153,1,1.3691986400008318,,,049,001,2019_May_20_1514,MusicAffectPsychophysiology2019,3.0.5,60.034724323620104,
To what extent did the music make you feel ,EXCITED,30MonoWAV/30MonoH2.wav,2,2,1,6,,,,,0,4,4,5,0,1,1,7,,,,,,,,,5,0.902522272997885,,,049,001,2019_May_20_1514,MusicAffectPsychophysiology2019,3.0.5,60.034724323620104,
To what extent did the music make you feel ,ANGRY,30MonoWAV/30MonoH2.wav,2,2,1,6,,,,,0,4,4,5,0,2,2,2,,,,,,,,,1,0.751956288004294,,,049,001,2019_May_20_1514,MusicAffectPsychophysiology2019,3.0.5,60.034724323620104,
To what extent did the music make you feel ,GUILTY,30MonoWAV/30MonoH2.wav,2,2,1,6,,,,,0,4,4,5,0,3,3,5,,,,,,,,,1,1.0852346500032581,,,049,001,2019_May_20_1514,MusicAffectPsychophysiology2019,3.0.5,60.034724323620104,
To what extent did the music make you feel ,FRUSTRATED,30MonoWAV/30MonoH2.wav,2,2,1,6,,,,,0,4,4,5,0,4,4,3,,,,,,,,,1,0.8007530649992987,,,049,001,2019_May_20_1514,MusicAffectPsychophysiology2019,3.0.5,60.034724323620104,
To what extent did the music make you feel ,ALERT,30MonoWAV/30MonoH2.wav,2,2,1,6,,,,,0,4,4,5,0,5,5,8,,,,,,,,,4,1.0849453160044504,,,049,001,2019_May_20_1514,MusicAffectPsychophysiology2019,3.0.5,60.034724323620104,
To what extent did the music make you feel ,HAPPY,30MonoWAV/30MonoH2.wav,2,2,1,6,,,,,0,4,4,5,0,6,6,6,,,,,,,,,4,0.901668938997318,,,049,001,2019_May_20_1514,MusicAffectPsychophysiology2019,3.0.5,60.034724323620104,
To what extent did the music make you feel ,SAD,30MonoWAV/30MonoH2.wav,2,2,1,6,,,,,0,4,4,5,0,7,7,0,,,,,,,,,1,0.8023010550023173,,,049,001,2019_May_20_1514,MusicAffectPsychophysiology2019,3.0.5,60.034724323620104,
To what extent did the music make you feel ,ACTIVE,30MonoWAV/30MonoH2.wav,2,2,1,6,,,,,0,4,4,5,0,8,8,9,,,,,,,,,4,1.5844302859986783,,,049,001,2019_May_20_1514,MusicAffectPsychophysiology2019,3.0.5,60.034724323620104,
To what extent did the music make you feel ,TENDER,30MonoWAV/30MonoH2.wav,2,2,1,6,,,,,0,4,4,5,0,9,9,10,,,,,,,,,1,0.752309392002644,,,049,001,2019_May_20_1514,MusicAffectPsychophysiology2019,3.0.5,60.034724323620104,
To what extent did the music make you feel ,ASHAMED,30MonoWAV/30MonoH2.wav,2,2,1,6,,,,,0,4,4,5,0,10,10,4,,,,,,,,,1,0.6519793690022198,,,049,001,2019_May_20_1514,MusicAffectPsychophysiology2019,3.0.5,60.034724323620104,
To what extent did the music make you feel ,SCARED,30MonoWAV/30MonoH2.wav,2,2,1,6,,,,,0,4,4,5,0,11,11,11,,,,,,,,,1,0.567971058000694,,,049,001,2019_May_20_1514,MusicAffectPsychophysiology2019,3.0.5,60.034724323620104,
,,30MonoWAV/30MonoH2.wav,2,2,1,6,,,,,0,4,4,5,,,,,,,,,,,,,,,,,049,001,2019_May_20_1514,MusicAffectPsychophysiology2019,3.0.5,60.034724323620104,
To what extent did the music make you feel ,GUILTY,30MonoWAV/30MonoF2.wav,1,2,2,2,,,,,0,5,5,1,0,0,0,5,,,4,3.3680098249969888,1,1.6518792279966874,2,1.9512395069978083,2,2.718794052998419,,,049,001,2019_May_20_1514,MusicAffectPsychophysiology2019,3.0.5,60.034724323620104,
To what extent did the music make you feel ,ACTIVE,30MonoWAV/30MonoF2.wav,1,2,2,2,,,,,0,5,5,1,0,1,1,9,,,,,,,,,1,0.8689062119956361,,,049,001,2019_May_20_1514,MusicAffectPsychophysiology2019,3.0.5,60.034724323620104,
To what extent did the music make you feel ,TENDER,30MonoWAV/30MonoF2.wav,1,2,2,2,,,,,0,5,5,1,0,2,2,10,,,,,,,,,1,1.9845009869968635,,,049,001,2019_May_20_1514,MusicAffectPsychophysiology2019,3.0.5,60.034724323620104,
To what extent did the music make you feel ,SCARED,30MonoWAV/30MonoF2.wav,1,2,2,2,,,,,0,5,5,1,0,3,3,11,,,,,,,,,4,1.2353293280029902,,,049,001,2019_May_20_1514,MusicAffectPsychophysiology2019,3.0.5,60.034724323620104,
To what extent did the music make you feel ,HAPPY,30MonoWAV/30MonoF2.wav,1,2,2,2,,,,,0,5,5,1,0,4,4,6,,,,,,,,,1,3.1179110820012284,,,049,001,2019_May_20_1514,MusicAffectPsychophysiology2019,3.0.5,60.034724323620104,
To what extent did the music make you feel ,FRUSTRATED,30MonoWAV/30MonoF2.wav,1,2,2,2,,,,,0,5,5,1,0,5,5,3,,,,,,,,,3,1.1166753319994314,,,049,001,2019_May_20_1514,MusicAffectPsychophysiology2019,3.0.5,60.034724323620104,
To what extent did the music make you feel ,EXCITED,30MonoWAV/30MonoF2.wav,1,2,2,2,,,,,0,5,5,1,0,6,6,7,,,,,,,,,1,1.469263883001986,,,049,001,2019_May_20_1514,MusicAffectPsychophysiology2019,3.0.5,60.034724323620104,
To what extent did the music make you feel ,SAD,30MonoWAV/30MonoF2.wav,1,2,2,2,,,,,0,5,5,1,0,7,7,0,,,,,,,,,1,0.7691860659979284,,,049,001,2019_May_20_1514,MusicAffectPsychophysiology2019,3.0.5,60.034724323620104,
To what extent did the music make you feel ,ANGRY,30MonoWAV/30MonoF2.wav,1,2,2,2,,,,,0,5,5,1,0,8,8,2,,,,,,,,,1,1.0845283110029413,,,049,001,2019_May_20_1514,MusicAffectPsychophysiology2019,3.0.5,60.034724323620104,
To what extent did the music make you feel ,ANXIOUS ,30MonoWAV/30MonoF2.wav,1,2,2,2,,,,,0,5,5,1,0,9,9,1,,,,,,,,,5,1.0819867030004389,,,049,001,2019_May_20_1514,MusicAffectPsychophysiology2019,3.0.5,60.034724323620104,
To what extent did the music make you feel ,ALERT,30MonoWAV/30MonoF2.wav,1,2,2,2,,,,,0,5,5,1,0,10,10,8,,,,,,,,,4,1.2183269360029954,,,049,001,2019_May_20_1514,MusicAffectPsychophysiology2019,3.0.5,60.034724323620104,
To what extent did the music make you feel ,ASHAMED,30MonoWAV/30MonoF2.wav,1,2,2,2,,,,,0,5,5,1,0,11,11,4,,,,,,,,,1,1.3343396069976734,,,049,001,2019_May_20_1514,MusicAffectPsychophysiology2019,3.0.5,60.034724323620104,
,,30MonoWAV/30MonoF2.wav,1,2,2,2,,,,,0,5,5,1,,,,,,,,,,,,,,,,,049,001,2019_May_20_1514,MusicAffectPsychophysiology2019,3.0.5,60.034724323620104,
To what extent did the music make you feel ,FRUSTRATED,30MonoWAV/30MonoT1.wav,2,1,4,13,,,,,0,6,6,12,0,0,0,3,,,1,3.2702614209993044,1,2.0403547230016557,2,1.8832619970053202,1,1.5686782729972037,,,049,001,2019_May_20_1514,MusicAffectPsychophysiology2019,3.0.5,60.034724323620104,
To what extent did the music make you feel ,ACTIVE,30MonoWAV/30MonoT1.wav,2,1,4,13,,,,,0,6,6,12,0,1,1,9,,,,,,,,,1,0.7178318070000387,,,049,001,2019_May_20_1514,MusicAffectPsychophysiology2019,3.0.5,60.034724323620104,
To what extent did the music make you feel ,HAPPY,30MonoWAV/30MonoT1.wav,2,1,4,13,,,,,0,6,6,12,0,2,2,6,,,,,,,,,1,1.418123426999955,,,049,001,2019_May_20_1514,MusicAffectPsychophysiology2019,3.0.5,60.034724323620104,
To what extent did the music make you feel ,ANGRY,30MonoWAV/30MonoT1.wav,2,1,4,13,,,,,0,6,6,12,0,3,3,2,,,,,,,,,1,0.6511717440007487,,,049,001,2019_May_20_1514,MusicAffectPsychophysiology2019,3.0.5,60.034724323620104,
To what extent did the music make you feel ,SCARED,30MonoWAV/30MonoT1.wav,2,1,4,13,,,,,0,6,6,12,0,4,4,11,,,,,,,,,1,0.7682685849940754,,,049,001,2019_May_20_1514,MusicAffectPsychophysiology2019,3.0.5,60.034724323620104,
To what extent did the music make you feel ,EXCITED,30MonoWAV/30MonoT1.wav,2,1,4,13,,,,,0,6,6,12,0,5,5,7,,,,,,,,,1,1.8514643339949544,,,049,001,2019_May_20_1514,MusicAffectPsychophysiology2019,3.0.5,60.034724323620104,
To what extent did the music make you feel ,ALERT,30MonoWAV/30MonoT1.wav,2,1,4,13,,,,,0,6,6,12,0,6,6,8,,,,,,,,,1,1.8343496159941424,,,049,001,2019_May_20_1514,MusicAffectPsychophysiology2019,3.0.5,60.034724323620104,
To what extent did the music make you feel ,SAD,30MonoWAV/30MonoT1.wav,2,1,4,13,,,,,0,6,6,12,0,7,7,0,,,,,,,,,2,1.168166994000785,,,049,001,2019_May_20_1514,MusicAffectPsychophysiology2019,3.0.5,60.034724323620104,
To what extent did the music make you feel ,TENDER,30MonoWAV/30MonoT1.wav,2,1,4,13,,,,,0,6,6,12,0,8,8,10,,,,,,,,,3,1.8683752670040121,,,049,001,2019_May_20_1514,MusicAffectPsychophysiology2019,3.0.5,60.034724323620104,
To what extent did the music make you feel ,ASHAMED,30MonoWAV/30MonoT1.wav,2,1,4,13,,,,,0,6,6,12,0,9,9,4,,,,,,,,,1,1.767666793995886,,,049,001,2019_May_20_1514,MusicAffectPsychophysiology2019,3.0.5,60.034724323620104,
To what extent did the music make you feel ,ANXIOUS ,30MonoWAV/30MonoT1.wav,2,1,4,13,,,,,0,6,6,12,0,10,10,1,,,,,,,,,1,0.9178579159997753,,,049,001,2019_May_20_1514,MusicAffectPsychophysiology2019,3.0.5,60.034724323620104,
To what extent did the music make you feel ,GUILTY,30MonoWAV/30MonoT1.wav,2,1,4,13,,,,,0,6,6,12,0,11,11,5,,,,,,,,,1,0.8845660910010338,,,049,001,2019_May_20_1514,MusicAffectPsychophysiology2019,3.0.5,60.034724323620104,
,,30MonoWAV/30MonoT1.wav,2,1,4,13,,,,,0,6,6,12,,,,,,,,,,,,,,,,,049,001,2019_May_20_1514,MusicAffectPsychophysiology2019,3.0.5,60.034724323620104,
To what extent did the music make you feel ,ACTIVE,30MonoWAV/30MonoH4.wav,2,2,1,8,,,,,0,7,7,7,0,0,0,9,,,5,2.5884635469992645,5,2.7913861220004037,5,1.285787856002571,5,1.2844740689979517,,,049,001,2019_May_20_1514,MusicAffectPsychophysiology2019,3.0.5,60.034724323620104,
To what extent did the music make you feel ,ALERT,30MonoWAV/30MonoH4.wav,2,2,1,8,,,,,0,7,7,7,0,1,1,8,,,,,,,,,5,0.751615478999156,,,049,001,2019_May_20_1514,MusicAffectPsychophysiology2019,3.0.5,60.034724323620104,
To what extent did the music make you feel ,FRUSTRATED,30MonoWAV/30MonoH4.wav,2,2,1,8,,,,,0,7,7,7,0,2,2,3,,,,,,,,,1,0.6501342970004771,,,049,001,2019_May_20_1514,MusicAffectPsychophysiology2019,3.0.5,60.034724323620104,
To what extent did the music make you feel ,ANXIOUS ,30MonoWAV/30MonoH4.wav,2,2,1,8,,,,,0,7,7,7,0,3,3,1,,,,,,,,,1,0.7849776549992384,,,049,001,2019_May_20_1514,MusicAffectPsychophysiology2019,3.0.5,60.034724323620104,
To what extent did the music make you feel ,ASHAMED,30MonoWAV/30MonoH4.wav,2,2,1,8,,,,,0,7,7,7,0,4,4,4,,,,,,,,,1,0.7519531560028554,,,049,001,2019_May_20_1514,MusicAffectPsychophysiology2019,3.0.5,60.034724323620104,
To what extent did the music make you feel ,TENDER,30MonoWAV/30MonoH4.wav,2,2,1,8,,,,,0,7,7,7,0,5,5,10,,,,,,,,,1,1.6022780850034906,,,049,001,2019_May_20_1514,MusicAffectPsychophysiology2019,3.0.5,60.034724323620104,
To what extent did the music make you feel ,ANGRY,30MonoWAV/30MonoH4.wav,2,2,1,8,,,,,0,7,7,7,0,6,6,2,,,,,,,,,1,0.9845189039988327,,,049,001,2019_May_20_1514,MusicAffectPsychophysiology2019,3.0.5,60.034724323620104,
To what extent did the music make you feel ,SCARED,30MonoWAV/30MonoH4.wav,2,2,1,8,,,,,0,7,7,7,0,7,7,11,,,,,,,,,1,0.5514823109988356,,,049,001,2019_May_20_1514,MusicAffectPsychophysiology2019,3.0.5,60.034724323620104,
To what extent did the music make you feel ,SAD,30MonoWAV/30MonoH4.wav,2,2,1,8,,,,,0,7,7,7,0,8,8,0,,,,,,,,,1,0.6504732239991426,,,049,001,2019_May_20_1514,MusicAffectPsychophysiology2019,3.0.5,60.034724323620104,
To what extent did the music make you feel ,HAPPY,30MonoWAV/30MonoH4.wav,2,2,1,8,,,,,0,7,7,7,0,9,9,6,,,,,,,,,5,0.6344774859971949,,,049,001,2019_May_20_1514,MusicAffectPsychophysiology2019,3.0.5,60.034724323620104,
To what extent did the music make you feel ,EXCITED,30MonoWAV/30MonoH4.wav,2,2,1,8,,,,,0,7,7,7,0,10,10,7,,,,,,,,,5,0.6517790310026612,,,049,001,2019_May_20_1514,MusicAffectPsychophysiology2019,3.0.5,60.034724323620104,
To what extent did the music make you feel ,GUILTY,30MonoWAV/30MonoH4.wav,2,2,1,8,,,,,0,7,7,7,0,11,11,5,,,,,,,,,1,0.601351238998177,,,049,001,2019_May_20_1514,MusicAffectPsychophysiology2019,3.0.5,60.034724323620104,
,,30MonoWAV/30MonoH4.wav,2,2,1,8,,,,,0,7,7,7,,,,,,,,,,,,,,,,,049,001,2019_May_20_1514,MusicAffectPsychophysiology2019,3.0.5,60.034724323620104,
To what extent did the music make you feel ,ASHAMED,30MonoWAV/30MonoH1.wav,2,2,1,5,,,,,0,8,8,4,0,0,0,4,,,3,4.634856805001618,3,6.151760528002342,3,1.350935420996393,1,1.1021282949950546,,,049,001,2019_May_20_1514,MusicAffectPsychophysiology2019,3.0.5,60.034724323620104,
To what extent did the music make you feel ,SCARED,30MonoWAV/30MonoH1.wav,2,2,1,5,,,,,0,8,8,4,0,1,1,11,,,,,,,,,1,0.8000754520035116,,,049,001,2019_May_20_1514,MusicAffectPsychophysiology2019,3.0.5,60.034724323620104,
To what extent did the music make you feel ,ANGRY,30MonoWAV/30MonoH1.wav,2,2,1,5,,,,,0,8,8,4,0,2,2,2,,,,,,,,,1,0.5023121790000005,,,049,001,2019_May_20_1514,MusicAffectPsychophysiology2019,3.0.5,60.034724323620104,
To what extent did the music make you feel ,ACTIVE,30MonoWAV/30MonoH1.wav,2,2,1,5,,,,,0,8,8,4,0,3,3,9,,,,,,,,,3,0.9692001619987423,,,049,001,2019_May_20_1514,MusicAffectPsychophysiology2019,3.0.5,60.034724323620104,
To what extent did the music make you feel ,ALERT,30MonoWAV/30MonoH1.wav,2,2,1,5,,,,,0,8,8,4,0,4,4,8,,,,,,,,,3,0.7010112269999809,,,049,001,2019_May_20_1514,MusicAffectPsychophysiology2019,3.0.5,60.034724323620104,
To what extent did the music make you feel ,SAD,30MonoWAV/30MonoH1.wav,2,2,1,5,,,,,0,8,8,4,0,5,5,0,,,,,,,,,1,0.6180155510010081,,,049,001,2019_May_20_1514,MusicAffectPsychophysiology2019,3.0.5,60.034724323620104,
To what extent did the music make you feel ,HAPPY,30MonoWAV/30MonoH1.wav,2,2,1,5,,,,,0,8,8,4,0,6,6,6,,,,,,,,,3,0.7516425880021416,,,049,001,2019_May_20_1514,MusicAffectPsychophysiology2019,3.0.5,60.034724323620104,
To what extent did the music make you feel ,EXCITED,30MonoWAV/30MonoH1.wav,2,2,1,5,,,,,0,8,8,4,0,7,7,7,,,,,,,,,3,0.8010540790055529,,,049,001,2019_May_20_1514,MusicAffectPsychophysiology2019,3.0.5,60.034724323620104,
To what extent did the music make you feel ,TENDER,30MonoWAV/30MonoH1.wav,2,2,1,5,,,,,0,8,8,4,0,8,8,10,,,,,,,,,1,0.7680979030046728,,,049,001,2019_May_20_1514,MusicAffectPsychophysiology2019,3.0.5,60.034724323620104,
To what extent did the music make you feel ,GUILTY,30MonoWAV/30MonoH1.wav,2,2,1,5,,,,,0,8,8,4,0,9,9,5,,,,,,,,,1,1.1858158120012376,,,049,001,2019_May_20_1514,MusicAffectPsychophysiology2019,3.0.5,60.034724323620104,
To what extent did the music make you feel ,ANXIOUS ,30MonoWAV/30MonoH1.wav,2,2,1,5,,,,,0,8,8,4,0,10,10,1,,,,,,,,,1,1.351446054999542,,,049,001,2019_May_20_1514,MusicAffectPsychophysiology2019,3.0.5,60.034724323620104,
To what extent did the music make you feel ,FRUSTRATED,30MonoWAV/30MonoH1.wav,2,2,1,5,,,,,0,8,8,4,0,11,11,3,,,,,,,,,1,0.7176014090000535,,,049,001,2019_May_20_1514,MusicAffectPsychophysiology2019,3.0.5,60.034724323620104,
,,30MonoWAV/30MonoH1.wav,2,2,1,5,,,,,0,8,8,4,,,,,,,,,,,,,,,,,049,001,2019_May_20_1514,MusicAffectPsychophysiology2019,3.0.5,60.034724323620104,
To what extent did the music make you feel ,SCARED,30MonoWAV/30MonoS3.wav,1,1,3,11,,,,,0,9,9,10,0,0,0,11,,,2,4.217852153000422,2,1.5360947040026076,2,1.8515878329999396,3,1.8338842289958848,,,049,001,2019_May_20_1514,MusicAffectPsychophysiology2019,3.0.5,60.034724323620104,
To what extent did the music make you feel ,TENDER,30MonoWAV/30MonoS3.wav,1,1,3,11,,,,,0,9,9,10,0,1,1,10,,,,,,,,,1,0.7517094540016842,,,049,001,2019_May_20_1514,MusicAffectPsychophysiology2019,3.0.5,60.034724323620104,
To what extent did the music make you feel ,ANXIOUS ,30MonoWAV/30MonoS3.wav,1,1,3,11,,,,,0,9,9,10,0,2,2,1,,,,,,,,,4,0.9685777330014389,,,049,001,2019_May_20_1514,MusicAffectPsychophysiology2019,3.0.5,60.034724323620104,
To what extent did the music make you feel ,SAD,30MonoWAV/30MonoS3.wav,1,1,3,11,,,,,0,9,9,10,0,3,3,0,,,,,,,,,3,2.5191452450017096,,,049,001,2019_May_20_1514,MusicAffectPsychophysiology2019,3.0.5,60.034724323620104,
To what extent did the music make you feel ,GUILTY,30MonoWAV/30MonoS3.wav,1,1,3,11,,,,,0,9,9,10,0,4,4,5,,,,,,,,,3,1.0166297749965452,,,049,001,2019_May_20_1514,MusicAffectPsychophysiology2019,3.0.5,60.034724323620104,
To what extent did the music make you feel ,HAPPY,30MonoWAV/30MonoS3.wav,1,1,3,11,,,,,0,9,9,10,0,5,5,6,,,,,,,,,1,1.3855200779944425,,,049,001,2019_May_20_1514,MusicAffectPsychophysiology2019,3.0.5,60.034724323620104,
To what extent did the music make you feel ,ACTIVE,30MonoWAV/30MonoS3.wav,1,1,3,11,,,,,0,9,9,10,0,6,6,9,,,,,,,,,1,0.5520940049973433,,,049,001,2019_May_20_1514,MusicAffectPsychophysiology2019,3.0.5,60.034724323620104,
To what extent did the music make you feel ,FRUSTRATED,30MonoWAV/30MonoS3.wav,1,1,3,11,,,,,0,9,9,10,0,7,7,3,,,,,,,,,3,1.1338010920007946,,,049,001,2019_May_20_1514,MusicAffectPsychophysiology2019,3.0.5,60.034724323620104,
To what extent did the music make you feel ,ANGRY,30MonoWAV/30MonoS3.wav,1,1,3,11,,,,,0,9,9,10,0,8,8,2,,,,,,,,,2,2.6180344200038235,,,049,001,2019_May_20_1514,MusicAffectPsychophysiology2019,3.0.5,60.034724323620104,
To what extent did the music make you feel ,EXCITED,30MonoWAV/30MonoS3.wav,1,1,3,11,,,,,0,9,9,10,0,9,9,7,,,,,,,,,2,2.2517210219957633,,,049,001,2019_May_20_1514,MusicAffectPsychophysiology2019,3.0.5,60.034724323620104,
To what extent did the music make you feel ,ASHAMED,30MonoWAV/30MonoS3.wav,1,1,3,11,,,,,0,9,9,10,0,10,10,4,,,,,,,,,3,1.9511512570024934,,,049,001,2019_May_20_1514,MusicAffectPsychophysiology2019,3.0.5,60.034724323620104,
To what extent did the music make you feel ,ALERT,30MonoWAV/30MonoS3.wav,1,1,3,11,,,,,0,9,9,10,0,11,11,8,,,,,,,,,3,3.6189389979990665,,,049,001,2019_May_20_1514,MusicAffectPsychophysiology2019,3.0.5,60.034724323620104,
,,30MonoWAV/30MonoS3.wav,1,1,3,11,,,,,0,9,9,10,,,,,,,,,,,,,,,,,049,001,2019_May_20_1514,MusicAffectPsychophysiology2019,3.0.5,60.034724323620104,
To what extent did the music make you feel ,TENDER,30MonoWAV/30MonoT2.wav,2,1,4,14,,,,,0,10,10,13,0,0,0,10,,,5,2.8223035269984393,5,1.9517480159993283,4,1.2692709699986153,5,2.7238304120037355,,,049,001,2019_May_20_1514,MusicAffectPsychophysiology2019,3.0.5,60.034724323620104,
To what extent did the music make you feel ,ALERT,30MonoWAV/30MonoT2.wav,2,1,4,14,,,,,0,10,10,13,0,1,1,8,,,,,,,,,4,1.2853856589936186,,,049,001,2019_May_20_1514,MusicAffectPsychophysiology2019,3.0.5,60.034724323620104,
To what extent did the music make you feel ,ASHAMED,30MonoWAV/30MonoT2.wav,2,1,4,14,,,,,0,10,10,13,0,2,2,4,,,,,,,,,1,0.8189802470005816,,,049,001,2019_May_20_1514,MusicAffectPsychophysiology2019,3.0.5,60.034724323620104,
To what extent did the music make you feel ,GUILTY,30MonoWAV/30MonoT2.wav,2,1,4,14,,,,,0,10,10,13,0,3,3,5,,,,,,,,,1,0.634784302994376,,,049,001,2019_May_20_1514,MusicAffectPsychophysiology2019,3.0.5,60.034724323620104,
To what extent did the music make you feel ,SCARED,30MonoWAV/30MonoT2.wav,2,1,4,14,,,,,0,10,10,13,0,4,4,11,,,,,,,,,1,0.5015428459955729,,,049,001,2019_May_20_1514,MusicAffectPsychophysiology2019,3.0.5,60.034724323620104,
To what extent did the music make you feel ,ACTIVE,30MonoWAV/30MonoT2.wav,2,1,4,14,,,,,0,10,10,13,0,5,5,9,,,,,,,,,1,0.48386050700355554,,,049,001,2019_May_20_1514,MusicAffectPsychophysiology2019,3.0.5,60.034724323620104,
To what extent did the music make you feel ,EXCITED,30MonoWAV/30MonoT2.wav,2,1,4,14,,,,,0,10,10,13,0,6,6,7,,,,,,,,,3,1.3854946580031537,,,049,001,2019_May_20_1514,MusicAffectPsychophysiology2019,3.0.5,60.034724323620104,
To what extent did the music make you feel ,ANGRY,30MonoWAV/30MonoT2.wav,2,1,4,14,,,,,0,10,10,13,0,7,7,2,,,,,,,,,1,1.0350756839980022,,,049,001,2019_May_20_1514,MusicAffectPsychophysiology2019,3.0.5,60.034724323620104,
To what extent did the music make you feel ,SAD,30MonoWAV/30MonoT2.wav,2,1,4,14,,,,,0,10,10,13,0,8,8,0,,,,,,,,,1,0.6849528569946415,,,049,001,2019_May_20_1514,MusicAffectPsychophysiology2019,3.0.5,60.034724323620104,
To what extent did the music make you feel ,FRUSTRATED,30MonoWAV/30MonoT2.wav,2,1,4,14,,,,,0,10,10,13,0,9,9,3,,,,,,,,,1,1.1182719569987967,,,049,001,2019_May_20_1514,MusicAffectPsychophysiology2019,3.0.5,60.034724323620104,
To what extent did the music make you feel ,ANXIOUS ,30MonoWAV/30MonoT2.wav,2,1,4,14,,,,,0,10,10,13,0,10,10,1,,,,,,,,,3,1.1517528100011987,,,049,001,2019_May_20_1514,MusicAffectPsychophysiology2019,3.0.5,60.034724323620104,
To what extent did the music make you feel ,HAPPY,30MonoWAV/30MonoT2.wav,2,1,4,14,,,,,0,10,10,13,0,11,11,6,,,,,,,,,3,1.4687224830049672,,,049,001,2019_May_20_1514,MusicAffectPsychophysiology2019,3.0.5,60.034724323620104,
,,30MonoWAV/30MonoT2.wav,2,1,4,14,,,,,0,10,10,13,,,,,,,,,,,,,,,,,049,001,2019_May_20_1514,MusicAffectPsychophysiology2019,3.0.5,60.034724323620104,
To what extent did the music make you feel ,ACTIVE,30MonoWAV/30MonoT4.wav,2,1,4,16,,,,,0,11,11,15,0,0,0,9,,,4,4.905761346002691,4,1.854080459997931,4,1.0531822569973883,2,1.869939242998953,,,049,001,2019_May_20_1514,MusicAffectPsychophysiology2019,3.0.5,60.034724323620104,
To what extent did the music make you feel ,ALERT,30MonoWAV/30MonoT4.wav,2,1,4,16,,,,,0,11,11,15,0,1,1,8,,,,,,,,,2,0.6691281710009207,,,049,001,2019_May_20_1514,MusicAffectPsychophysiology2019,3.0.5,60.034724323620104,
To what extent did the music make you feel ,ASHAMED,30MonoWAV/30MonoT4.wav,2,1,4,16,,,,,0,11,11,15,0,2,2,4,,,,,,,,,2,0.585308914000052,,,049,001,2019_May_20_1514,MusicAffectPsychophysiology2019,3.0.5,60.034724323620104,
To what extent did the music make you feel ,ANXIOUS ,30MonoWAV/30MonoT4.wav,2,1,4,16,,,,,0,11,11,15,0,3,3,1,,,,,,,,,1,1.5896377800017945,,,049,001,2019_May_20_1514,MusicAffectPsychophysiology2019,3.0.5,60.034724323620104,
To what extent did the music make you feel ,FRUSTRATED,30MonoWAV/30MonoT4.wav,2,1,4,16,,,,,0,11,11,15,0,4,4,3,,,,,,,,,1,0.5176619099947857,,,049,001,2019_May_20_1514,MusicAffectPsychophysiology2019,3.0.5,60.034724323620104,
To what extent did the music make you feel ,GUILTY,30MonoWAV/30MonoT4.wav,2,1,4,16,,,,,0,11,11,15,0,5,5,5,,,,,,,,,2,0.9341117599979043,,,049,001,2019_May_20_1514,MusicAffectPsychophysiology2019,3.0.5,60.034724323620104,
To what extent did the music make you feel ,ANGRY,30MonoWAV/30MonoT4.wav,2,1,4,16,,,,,0,11,11,15,0,6,6,2,,,,,,,,,1,0.986701344998437,,,049,001,2019_May_20_1514,MusicAffectPsychophysiology2019,3.0.5,60.034724323620104,
To what extent did the music make you feel ,SAD,30MonoWAV/30MonoT4.wav,2,1,4,16,,,,,0,11,11,15,0,7,7,0,,,,,,,,,3,1.318226680996304,,,049,001,2019_May_20_1514,MusicAffectPsychophysiology2019,3.0.5,60.034724323620104,
To what extent did the music make you feel ,EXCITED,30MonoWAV/30MonoT4.wav,2,1,4,16,,,,,0,11,11,15,0,8,8,7,,,,,,,,,3,0.9348113890009699,,,049,001,2019_May_20_1514,MusicAffectPsychophysiology2019,3.0.5,60.034724323620104,
To what extent did the music make you feel ,HAPPY,30MonoWAV/30MonoT4.wav,2,1,4,16,,,,,0,11,11,15,0,9,9,6,,,,,,,,,3,1.0521731580010965,,,049,001,2019_May_20_1514,MusicAffectPsychophysiology2019,3.0.5,60.034724323620104,
To what extent did the music make you feel ,SCARED,30MonoWAV/30MonoT4.wav,2,1,4,16,,,,,0,11,11,15,0,10,10,11,,,,,,,,,1,1.9691559269995196,,,049,001,2019_May_20_1514,MusicAffectPsychophysiology2019,3.0.5,60.034724323620104,
To what extent did the music make you feel ,TENDER,30MonoWAV/30MonoT4.wav,2,1,4,16,,,,,0,11,11,15,0,11,11,10,,,,,,,,,5,2.0681924409946078,,,049,001,2019_May_20_1514,MusicAffectPsychophysiology2019,3.0.5,60.034724323620104,
,,30MonoWAV/30MonoT4.wav,2,1,4,16,,,,,0,11,11,15,,,,,,,,,,,,,,,,,049,001,2019_May_20_1514,MusicAffectPsychophysiology2019,3.0.5,60.034724323620104,
To what extent did the music make you feel ,FRUSTRATED,30MonoWAV/30MonoF1.wav,1,2,2,1,,,,,0,12,12,0,0,0,0,3,,,3,6.1509717169974465,1,1.0862282950038207,2,1.3848265529959463,3,1.7495603510033106,,,049,001,2019_May_20_1514,MusicAffectPsychophysiology2019,3.0.5,60.034724323620104,
To what extent did the music make you feel ,ALERT,30MonoWAV/30MonoF1.wav,1,2,2,1,,,,,0,12,12,0,0,1,1,8,,,,,,,,,3,0.7679635789972963,,,049,001,2019_May_20_1514,MusicAffectPsychophysiology2019,3.0.5,60.034724323620104,
To what extent did the music make you feel ,SCARED,30MonoWAV/30MonoF1.wav,1,2,2,1,,,,,0,12,12,0,0,2,2,11,,,,,,,,,2,1.234308979997877,,,049,001,2019_May_20_1514,MusicAffectPsychophysiology2019,3.0.5,60.034724323620104,
To what extent did the music make you feel ,ANGRY,30MonoWAV/30MonoF1.wav,1,2,2,1,,,,,0,12,12,0,0,3,3,2,,,,,,,,,3,2.4841216019995045,,,049,001,2019_May_20_1514,MusicAffectPsychophysiology2019,3.0.5,60.034724323620104,
To what extent did the music make you feel ,HAPPY,30MonoWAV/30MonoF1.wav,1,2,2,1,,,,,0,12,12,0,0,4,4,6,,,,,,,,,1,0.9190627790012513,,,049,001,2019_May_20_1514,MusicAffectPsychophysiology2019,3.0.5,60.034724323620104,
To what extent did the music make you feel ,ACTIVE,30MonoWAV/30MonoF1.wav,1,2,2,1,,,,,0,12,12,0,0,5,5,9,,,,,,,,,5,2.368778645999555,,,049,001,2019_May_20_1514,MusicAffectPsychophysiology2019,3.0.5,60.034724323620104,
To what extent did the music make you feel ,SAD,30MonoWAV/30MonoF1.wav,1,2,2,1,,,,,0,12,12,0,0,6,6,0,,,,,,,,,2,3.408408249000786,,,049,001,2019_May_20_1514,MusicAffectPsychophysiology2019,3.0.5,60.034724323620104,
To what extent did the music make you feel ,GUILTY,30MonoWAV/30MonoF1.wav,1,2,2,1,,,,,0,12,12,0,0,7,7,5,,,,,,,,,3,2.0037362489965744,,,049,001,2019_May_20_1514,MusicAffectPsychophysiology2019,3.0.5,60.034724323620104,
To what extent did the music make you feel ,ANXIOUS ,30MonoWAV/30MonoF1.wav,1,2,2,1,,,,,0,12,12,0,0,8,8,1,,,,,,,,,3,0.9855896410008427,,,049,001,2019_May_20_1514,MusicAffectPsychophysiology2019,3.0.5,60.034724323620104,
To what extent did the music make you feel ,TENDER,30MonoWAV/30MonoF1.wav,1,2,2,1,,,,,0,12,12,0,0,9,9,10,,,,,,,,,1,0.6849857609995524,,,049,001,2019_May_20_1514,MusicAffectPsychophysiology2019,3.0.5,60.034724323620104,
To what extent did the music make you feel ,ASHAMED,30MonoWAV/30MonoF1.wav,1,2,2,1,,,,,0,12,12,0,0,10,10,4,,,,,,,,,1,1.0565781019977294,,,049,001,2019_May_20_1514,MusicAffectPsychophysiology2019,3.0.5,60.034724323620104,
To what extent did the music make you feel ,EXCITED,30MonoWAV/30MonoF1.wav,1,2,2,1,,,,,0,12,12,0,0,11,11,7,,,,,,,,,5,1.8843791480030632,,,049,001,2019_May_20_1514,MusicAffectPsychophysiology2019,3.0.5,60.034724323620104,
,,30MonoWAV/30MonoF1.wav,1,2,2,1,,,,,0,12,12,0,,,,,,,,,,,,,,,,,049,001,2019_May_20_1514,MusicAffectPsychophysiology2019,3.0.5,60.034724323620104,
To what extent did the music make you feel ,HAPPY,30MonoWAV/30MonoS1.wav,1,1,3,9,,,,,0,13,13,8,0,0,0,6,,,2,3.1355382100009592,1,0.7522004370039213,2,1.4350526449998142,1,1.2681593160014017,,,049,001,2019_May_20_1514,MusicAffectPsychophysiology2019,3.0.5,60.034724323620104,
To what extent did the music make you feel ,ACTIVE,30MonoWAV/30MonoS1.wav,1,1,3,9,,,,,0,13,13,8,0,1,1,9,,,,,,,,,1,0.6849781790006091,,,049,001,2019_May_20_1514,MusicAffectPsychophysiology2019,3.0.5,60.034724323620104,
To what extent did the music make you feel ,TENDER,30MonoWAV/30MonoS1.wav,1,1,3,9,,,,,0,13,13,8,0,2,2,10,,,,,,,,,2,1.3852057109979796,,,049,001,2019_May_20_1514,MusicAffectPsychophysiology2019,3.0.5,60.034724323620104,
To what extent did the music make you feel ,SCARED,30MonoWAV/30MonoS1.wav,1,1,3,9,,,,,0,13,13,8,0,3,3,11,,,,,,,,,1,1.1349083359964425,,,049,001,2019_May_20_1514,MusicAffectPsychophysiology2019,3.0.5,60.034724323620104,
To what extent did the music make you feel ,ALERT,30MonoWAV/30MonoS1.wav,1,1,3,9,,,,,0,13,13,8,0,4,4,8,,,,,,,,,1,1.1017160060000606,,,049,001,2019_May_20_1514,MusicAffectPsychophysiology2019,3.0.5,60.034724323620104,
To what extent did the music make you feel ,ANXIOUS ,30MonoWAV/30MonoS1.wav,1,1,3,9,,,,,0,13,13,8,0,5,5,1,,,,,,,,,3,1.2845980769998278,,,049,001,2019_May_20_1514,MusicAffectPsychophysiology2019,3.0.5,60.034724323620104,
To what extent did the music make you feel ,GUILTY,30MonoWAV/30MonoS1.wav,1,1,3,9,,,,,0,13,13,8,0,6,6,5,,,,,,,,,4,1.666967866003688,,,049,001,2019_May_20_1514,MusicAffectPsychophysiology2019,3.0.5,60.034724323620104,
To what extent did the music make you feel ,ASHAMED,30MonoWAV/30MonoS1.wav,1,1,3,9,,,,,0,13,13,8,0,7,7,4,,,,,,,,,5,1.0510979020036757,,,049,001,2019_May_20_1514,MusicAffectPsychophysiology2019,3.0.5,60.034724323620104,
To what extent did the music make you feel ,ANGRY,30MonoWAV/30MonoS1.wav,1,1,3,9,,,,,0,13,13,8,0,8,8,2,,,,,,,,,1,1.7684371360010118,,,049,001,2019_May_20_1514,MusicAffectPsychophysiology2019,3.0.5,60.034724323620104,
To what extent did the music make you feel ,SAD,30MonoWAV/30MonoS1.wav,1,1,3,9,,,,,0,13,13,8,0,9,9,0,,,,,,,,,4,1.7509628999978304,,,049,001,2019_May_20_1514,MusicAffectPsychophysiology2019,3.0.5,60.034724323620104,
To what extent did the music make you feel ,EXCITED,30MonoWAV/30MonoS1.wav,1,1,3,9,,,,,0,13,13,8,0,10,10,7,,,,,,,,,1,1.4183414509971044,,,049,001,2019_May_20_1514,MusicAffectPsychophysiology2019,3.0.5,60.034724323620104,
To what extent did the music make you feel ,FRUSTRATED,30MonoWAV/30MonoS1.wav,1,1,3,9,,,,,0,13,13,8,0,11,11,3,,,,,,,,,3,1.3658642349982983,,,049,001,2019_May_20_1514,MusicAffectPsychophysiology2019,3.0.5,60.034724323620104,
,,30MonoWAV/30MonoS1.wav,1,1,3,9,,,,,0,13,13,8,,,,,,,,,,,,,,,,,049,001,2019_May_20_1514,MusicAffectPsychophysiology2019,3.0.5,60.034724323620104,
To what extent did the music make you feel ,ASHAMED,30MonoWAV/30MonoH3.wav,2,2,1,7,,,,,0,14,14,6,0,0,0,4,,,4,4.134637260998716,2,1.9508813109932817,3,3.0514022310017026,1,1.6676314610012923,,,049,001,2019_May_20_1514,MusicAffectPsychophysiology2019,3.0.5,60.034724323620104,
To what extent did the music make you feel ,ALERT,30MonoWAV/30MonoH3.wav,2,2,1,7,,,,,0,14,14,6,0,1,1,8,,,,,,,,,4,1.2016170190036064,,,049,001,2019_May_20_1514,MusicAffectPsychophysiology2019,3.0.5,60.034724323620104,
To what extent did the music make you feel ,SCARED,30MonoWAV/30MonoH3.wav,2,2,1,7,,,,,0,14,14,6,0,2,2,11,,,,,,,,,1,2.4166221329942346,,,049,001,2019_May_20_1514,MusicAffectPsychophysiology2019,3.0.5,60.034724323620104,
To what extent did the music make you feel ,FRUSTRATED,30MonoWAV/30MonoH3.wav,2,2,1,7,,,,,0,14,14,6,0,3,3,3,,,,,,,,,1,0.6171068879993982,,,049,001,2019_May_20_1514,MusicAffectPsychophysiology2019,3.0.5,60.034724323620104,
To what extent did the music make you feel ,ACTIVE,30MonoWAV/30MonoH3.wav,2,2,1,7,,,,,0,14,14,6,0,4,4,9,,,,,,,,,5,1.3499296619993402,,,049,001,2019_May_20_1514,MusicAffectPsychophysiology2019,3.0.5,60.034724323620104,
To what extent did the music make you feel ,ANXIOUS ,30MonoWAV/30MonoH3.wav,2,2,1,7,,,,,0,14,14,6,0,5,5,1,,,,,,,,,1,1.3522816240001703,,,049,001,2019_May_20_1514,MusicAffectPsychophysiology2019,3.0.5,60.034724323620104,
To what extent did the music make you feel ,EXCITED,30MonoWAV/30MonoH3.wav,2,2,1,7,,,,,0,14,14,6,0,6,6,7,,,,,,,,,5,1.1185871439956827,,,049,001,2019_May_20_1514,MusicAffectPsychophysiology2019,3.0.5,60.034724323620104,
To what extent did the music make you feel ,TENDER,30MonoWAV/30MonoH3.wav,2,2,1,7,,,,,0,14,14,6,0,7,7,10,,,,,,,,,1,0.7849173639988294,,,049,001,2019_May_20_1514,MusicAffectPsychophysiology2019,3.0.5,60.034724323620104,
To what extent did the music make you feel ,SAD,30MonoWAV/30MonoH3.wav,2,2,1,7,,,,,0,14,14,6,0,8,8,0,,,,,,,,,1,0.6832557689995156,,,049,001,2019_May_20_1514,MusicAffectPsychophysiology2019,3.0.5,60.034724323620104,
To what extent did the music make you feel ,HAPPY,30MonoWAV/30MonoH3.wav,2,2,1,7,,,,,0,14,14,6,0,9,9,6,,,,,,,,,2,1.4181682499984163,,,049,001,2019_May_20_1514,MusicAffectPsychophysiology2019,3.0.5,60.034724323620104,
To what extent did the music make you feel ,ANGRY,30MonoWAV/30MonoH3.wav,2,2,1,7,,,,,0,14,14,6,0,10,10,2,,,,,,,,,1,1.2521023720037192,,,049,001,2019_May_20_1514,MusicAffectPsychophysiology2019,3.0.5,60.034724323620104,
To what extent did the music make you feel ,GUILTY,30MonoWAV/30MonoH3.wav,2,2,1,7,,,,,0,14,14,6,0,11,11,5,,,,,,,,,1,1.5667367019996163,,,049,001,2019_May_20_1514,MusicAffectPsychophysiology2019,3.0.5,60.034724323620104,
,,30MonoWAV/30MonoH3.wav,2,2,1,7,,,,,0,14,14,6,,,,,,,,,,,,,,,,,049,001,2019_May_20_1514,MusicAffectPsychophysiology2019,3.0.5,60.034724323620104,
To what extent did the music make you feel ,EXCITED,30MonoWAV/30MonoF4.wav,1,2,2,4,,,,,0,15,15,3,0,0,0,7,,,4,2.901458107000508,2,1.9338984990026802,2,1.5347732109948993,4,2.7693886650013155,,,049,001,2019_May_20_1514,MusicAffectPsychophysiology2019,3.0.5,60.034724323620104,
To what extent did the music make you feel ,ANGRY,30MonoWAV/30MonoF4.wav,1,2,2,4,,,,,0,15,15,3,0,1,1,2,,,,,,,,,1,1.0335192979982821,,,049,001,2019_May_20_1514,MusicAffectPsychophysiology2019,3.0.5,60.034724323620104,
To what extent did the music make you feel ,ANXIOUS ,30MonoWAV/30MonoF4.wav,1,2,2,4,,,,,0,15,15,3,0,2,2,1,,,,,,,,,5,1.002617669000756,,,049,001,2019_May_20_1514,MusicAffectPsychophysiology2019,3.0.5,60.034724323620104,
To what extent did the music make you feel ,SAD,30MonoWAV/30MonoF4.wav,1,2,2,4,,,,,0,15,15,3,0,3,3,0,,,,,,,,,1,0.8347021689987741,,,049,001,2019_May_20_1514,MusicAffectPsychophysiology2019,3.0.5,60.034724323620104,
To what extent did the music make you feel ,TENDER,30MonoWAV/30MonoF4.wav,1,2,2,4,,,,,0,15,15,3,0,4,4,10,,,,,,,,,1,1.2515495540064876,,,049,001,2019_May_20_1514,MusicAffectPsychophysiology2019,3.0.5,60.034724323620104,
To what extent did the music make you feel ,ACTIVE,30MonoWAV/30MonoF4.wav,1,2,2,4,,,,,0,15,15,3,0,5,5,9,,,,,,,,,4,1.0014400469954126,,,049,001,2019_May_20_1514,MusicAffectPsychophysiology2019,3.0.5,60.034724323620104,
To what extent did the music make you feel ,HAPPY,30MonoWAV/30MonoF4.wav,1,2,2,4,,,,,0,15,15,3,0,6,6,6,,,,,,,,,1,0.968412772002921,,,049,001,2019_May_20_1514,MusicAffectPsychophysiology2019,3.0.5,60.034724323620104,
To what extent did the music make you feel ,SCARED,30MonoWAV/30MonoF4.wav,1,2,2,4,,,,,0,15,15,3,0,7,7,11,,,,,,,,,3,1.9181054950022371,,,049,001,2019_May_20_1514,MusicAffectPsychophysiology2019,3.0.5,60.034724323620104,
To what extent did the music make you feel ,FRUSTRATED,30MonoWAV/30MonoF4.wav,1,2,2,4,,,,,0,15,15,3,0,8,8,3,,,,,,,,,4,1.2680129849977675,,,049,001,2019_May_20_1514,MusicAffectPsychophysiology2019,3.0.5,60.034724323620104,
To what extent did the music make you feel ,GUILTY,30MonoWAV/30MonoF4.wav,1,2,2,4,,,,,0,15,15,3,0,9,9,5,,,,,,,,,3,1.1690841930030729,,,049,001,2019_May_20_1514,MusicAffectPsychophysiology2019,3.0.5,60.034724323620104,
To what extent did the music make you feel ,ASHAMED,30MonoWAV/30MonoF4.wav,1,2,2,4,,,,,0,15,15,3,0,10,10,4,,,,,,,,,2,1.8180624220040045,,,049,001,2019_May_20_1514,MusicAffectPsychophysiology2019,3.0.5,60.034724323620104,
To what extent did the music make you feel ,ALERT,30MonoWAV/30MonoF4.wav,1,2,2,4,,,,,0,15,15,3,0,11,11,8,,,,,,,,,5,1.4010812999986229,,,049,001,2019_May_20_1514,MusicAffectPsychophysiology2019,3.0.5,60.034724323620104,
,,30MonoWAV/30MonoF4.wav,1,2,2,4,,,,,0,15,15,3,,,,,,,,,,,,,,,,,049,001,2019_May_20_1514,MusicAffectPsychophysiology2019,3.0.5,60.034724323620104,
To what extent did the music make you feel ,EXCITED,30MonoWAV/30MonoT1.wav,2,1,4,13,,,,,1,0,16,12,0,0,0,7,,,2,2.1689131460007047,3,1.8848686380006257,2,1.4357548309999402,1,1.2691787030053092,,,049,001,2019_May_20_1514,MusicAffectPsychophysiology2019,3.0.5,60.034724323620104,
To what extent did the music make you feel ,ALERT,30MonoWAV/30MonoT1.wav,2,1,4,13,,,,,1,0,16,12,0,1,1,8,,,,,,,,,1,0.8508326489973115,,,049,001,2019_May_20_1514,MusicAffectPsychophysiology2019,3.0.5,60.034724323620104,
To what extent did the music make you feel ,SCARED,30MonoWAV/30MonoT1.wav,2,1,4,13,,,,,1,0,16,12,0,2,2,11,,,,,,,,,1,0.7188918340034434,,,049,001,2019_May_20_1514,MusicAffectPsychophysiology2019,3.0.5,60.034724323620104,
To what extent did the music make you feel ,ANXIOUS ,30MonoWAV/30MonoT1.wav,2,1,4,13,,,,,1,0,16,12,0,3,3,1,,,,,,,,,1,0.8180616079989704,,,049,001,2019_May_20_1514,MusicAffectPsychophysiology2019,3.0.5,60.034724323620104,
To what extent did the music make you feel ,ASHAMED,30MonoWAV/30MonoT1.wav,2,1,4,13,,,,,1,0,16,12,0,4,4,4,,,,,,,,,1,0.6867102809992502,,,049,001,2019_May_20_1514,MusicAffectPsychophysiology2019,3.0.5,60.034724323620104,
To what extent did the music make you feel ,GUILTY,30MonoWAV/30MonoT1.wav,2,1,4,13,,,,,1,0,16,12,0,5,5,5,,,,,,,,,1,0.8165184739991673,,,049,001,2019_May_20_1514,MusicAffectPsychophysiology2019,3.0.5,60.034724323620104,
To what extent did the music make you feel ,HAPPY,30MonoWAV/30MonoT1.wav,2,1,4,13,,,,,1,0,16,12,0,6,6,6,,,,,,,,,2,0.9184718529941165,,,049,001,2019_May_20_1514,MusicAffectPsychophysiology2019,3.0.5,60.034724323620104,
To what extent did the music make you feel ,SAD,30MonoWAV/30MonoT1.wav,2,1,4,13,,,,,1,0,16,12,0,7,7,0,,,,,,,,,3,2.1178234130056808,,,049,001,2019_May_20_1514,MusicAffectPsychophysiology2019,3.0.5,60.034724323620104,
To what extent did the music make you feel ,ANGRY,30MonoWAV/30MonoT1.wav,2,1,4,13,,,,,1,0,16,12,0,8,8,2,,,,,,,,,1,1.2894572090008296,,,049,001,2019_May_20_1514,MusicAffectPsychophysiology2019,3.0.5,60.034724323620104,
To what extent did the music make you feel ,TENDER,30MonoWAV/30MonoT1.wav,2,1,4,13,,,,,1,0,16,12,0,9,9,10,,,,,,,,,4,1.102289626003767,,,049,001,2019_May_20_1514,MusicAffectPsychophysiology2019,3.0.5,60.034724323620104,
To what extent did the music make you feel ,FRUSTRATED,30MonoWAV/30MonoT1.wav,2,1,4,13,,,,,1,0,16,12,0,10,10,3,,,,,,,,,1,0.9198020520052523,,,049,001,2019_May_20_1514,MusicAffectPsychophysiology2019,3.0.5,60.034724323620104,
To what extent did the music make you feel ,ACTIVE,30MonoWAV/30MonoT1.wav,2,1,4,13,,,,,1,0,16,12,0,11,11,9,,,,,,,,,1,0.9862935580022167,,,049,001,2019_May_20_1514,MusicAffectPsychophysiology2019,3.0.5,60.034724323620104,
,,30MonoWAV/30MonoT1.wav,2,1,4,13,,,,,1,0,16,12,,,,,,,,,,,,,,,,,049,001,2019_May_20_1514,MusicAffectPsychophysiology2019,3.0.5,60.034724323620104,
To what extent did the music make you feel ,ALERT,30MonoWAV/30MonoH4.wav,2,2,1,8,,,,,1,1,17,7,0,0,0,8,,,5,2.3013932129979366,5,1.5858031140014646,5,1.118523991004622,5,1.1011209179996513,,,049,001,2019_May_20_1514,MusicAffectPsychophysiology2019,3.0.5,60.034724323620104,
To what extent did the music make you feel ,ACTIVE,30MonoWAV/30MonoH4.wav,2,2,1,8,,,,,1,1,17,7,0,1,1,9,,,,,,,,,5,0.6520050949984579,,,049,001,2019_May_20_1514,MusicAffectPsychophysiology2019,3.0.5,60.034724323620104,
To what extent did the music make you feel ,SCARED,30MonoWAV/30MonoH4.wav,2,2,1,8,,,,,1,1,17,7,0,2,2,11,,,,,,,,,1,0.6859941509974306,,,049,001,2019_May_20_1514,MusicAffectPsychophysiology2019,3.0.5,60.034724323620104,
To what extent did the music make you feel ,FRUSTRATED,30MonoWAV/30MonoH4.wav,2,2,1,8,,,,,1,1,17,7,0,3,3,3,,,,,,,,,1,0.9177451299983659,,,049,001,2019_May_20_1514,MusicAffectPsychophysiology2019,3.0.5,60.034724323620104,
To what extent did the music make you feel ,ANXIOUS ,30MonoWAV/30MonoH4.wav,2,2,1,8,,,,,1,1,17,7,0,4,4,1,,,,,,,,,1,0.768239237004309,,,049,001,2019_May_20_1514,MusicAffectPsychophysiology2019,3.0.5,60.034724323620104,
To what extent did the music make you feel ,TENDER,30MonoWAV/30MonoH4.wav,2,2,1,8,,,,,1,1,17,7,0,5,5,10,,,,,,,,,1,1.0020376289976411,,,049,001,2019_May_20_1514,MusicAffectPsychophysiology2019,3.0.5,60.034724323620104,
To what extent did the music make you feel ,EXCITED,30MonoWAV/30MonoH4.wav,2,2,1,8,,,,,1,1,17,7,0,6,6,7,,,,,,,,,5,1.734960879002756,,,049,001,2019_May_20_1514,MusicAffectPsychophysiology2019,3.0.5,60.034724323620104,
To what extent did the music make you feel ,GUILTY,30MonoWAV/30MonoH4.wav,2,2,1,8,,,,,1,1,17,7,0,7,7,5,,,,,,,,,1,1.051397935996647,,,049,001,2019_May_20_1514,MusicAffectPsychophysiology2019,3.0.5,60.034724323620104,
To what extent did the music make you feel ,SAD,30MonoWAV/30MonoH4.wav,2,2,1,8,,,,,1,1,17,7,0,8,8,0,,,,,,,,,1,1.0846569500063197,,,049,001,2019_May_20_1514,MusicAffectPsychophysiology2019,3.0.5,60.034724323620104,
To what extent did the music make you feel ,ASHAMED,30MonoWAV/30MonoH4.wav,2,2,1,8,,,,,1,1,17,7,0,9,9,4,,,,,,,,,1,0.6019172060041456,,,049,001,2019_May_20_1514,MusicAffectPsychophysiology2019,3.0.5,60.034724323620104,
To what extent did the music make you feel ,HAPPY,30MonoWAV/30MonoH4.wav,2,2,1,8,,,,,1,1,17,7,0,10,10,6,,,,,,,,,5,0.7519983399979537,,,049,001,2019_May_20_1514,MusicAffectPsychophysiology2019,3.0.5,60.034724323620104,
To what extent did the music make you feel ,ANGRY,30MonoWAV/30MonoH4.wav,2,2,1,8,,,,,1,1,17,7,0,11,11,2,,,,,,,,,1,0.852387525002996,,,049,001,2019_May_20_1514,MusicAffectPsychophysiology2019,3.0.5,60.034724323620104,
,,30MonoWAV/30MonoH4.wav,2,2,1,8,,,,,1,1,17,7,,,,,,,,,,,,,,,,,049,001,2019_May_20_1514,MusicAffectPsychophysiology2019,3.0.5,60.034724323620104,
To what extent did the music make you feel ,GUILTY,30MonoWAV/30MonoS4.wav,1,1,3,12,,,,,1,2,18,11,0,0,0,5,,,1,4.41801272900193,2,1.435130466998089,3,1.4012026820055326,1,1.382685673001106,,,049,001,2019_May_20_1514,MusicAffectPsychophysiology2019,3.0.5,60.034724323620104,
To what extent did the music make you feel ,FRUSTRATED,30MonoWAV/30MonoS4.wav,1,1,3,12,,,,,1,2,18,11,0,1,1,3,,,,,,,,,1,0.7188183149992255,,,049,001,2019_May_20_1514,MusicAffectPsychophysiology2019,3.0.5,60.034724323620104,
To what extent did the music make you feel ,HAPPY,30MonoWAV/30MonoS4.wav,1,1,3,12,,,,,1,2,18,11,0,2,2,6,,,,,,,,,1,0.9683905890051392,,,049,001,2019_May_20_1514,MusicAffectPsychophysiology2019,3.0.5,60.034724323620104,
To what extent did the music make you feel ,SAD,30MonoWAV/30MonoS4.wav,1,1,3,12,,,,,1,2,18,11,0,3,3,0,,,,,,,,,5,1.4689152920036577,,,049,001,2019_May_20_1514,MusicAffectPsychophysiology2019,3.0.5,60.034724323620104,
To what extent did the music make you feel ,ANGRY,30MonoWAV/30MonoS4.wav,1,1,3,12,,,,,1,2,18,11,0,4,4,2,,,,,,,,,1,0.785922410999774,,,049,001,2019_May_20_1514,MusicAffectPsychophysiology2019,3.0.5,60.034724323620104,
To what extent did the music make you feel ,ANXIOUS ,30MonoWAV/30MonoS4.wav,1,1,3,12,,,,,1,2,18,11,0,5,5,1,,,,,,,,,3,1.4835079810000025,,,049,001,2019_May_20_1514,MusicAffectPsychophysiology2019,3.0.5,60.034724323620104,
To what extent did the music make you feel ,TENDER,30MonoWAV/30MonoS4.wav,1,1,3,12,,,,,1,2,18,11,0,6,6,10,,,,,,,,,3,1.7522792279996793,,,049,001,2019_May_20_1514,MusicAffectPsychophysiology2019,3.0.5,60.034724323620104,
To what extent did the music make you feel ,SCARED,30MonoWAV/30MonoS4.wav,1,1,3,12,,,,,1,2,18,11,0,7,7,11,,,,,,,,,1,1.7681453519981005,,,049,001,2019_May_20_1514,MusicAffectPsychophysiology2019,3.0.5,60.034724323620104,
To what extent did the music make you feel ,ASHAMED,30MonoWAV/30MonoS4.wav,1,1,3,12,,,,,1,2,18,11,0,8,8,4,,,,,,,,,1,0.6844332580003538,,,049,001,2019_May_20_1514,MusicAffectPsychophysiology2019,3.0.5,60.034724323620104,
To what extent did the music make you feel ,ALERT,30MonoWAV/30MonoS4.wav,1,1,3,12,,,,,1,2,18,11,0,9,9,8,,,,,,,,,1,0.8353657820043736,,,049,001,2019_May_20_1514,MusicAffectPsychophysiology2019,3.0.5,60.034724323620104,
To what extent did the music make you feel ,EXCITED,30MonoWAV/30MonoS4.wav,1,1,3,12,,,,,1,2,18,11,0,10,10,7,,,,,,,,,1,0.7001668480006629,,,049,001,2019_May_20_1514,MusicAffectPsychophysiology2019,3.0.5,60.034724323620104,
To what extent did the music make you feel ,ACTIVE,30MonoWAV/30MonoS4.wav,1,1,3,12,,,,,1,2,18,11,0,11,11,9,,,,,,,,,1,0.7184100979939103,,,049,001,2019_May_20_1514,MusicAffectPsychophysiology2019,3.0.5,60.034724323620104,
,,30MonoWAV/30MonoS4.wav,1,1,3,12,,,,,1,2,18,11,,,,,,,,,,,,,,,,,049,001,2019_May_20_1514,MusicAffectPsychophysiology2019,3.0.5,60.034724323620104,
To what extent did the music make you feel ,GUILTY,30MonoWAV/30MonoH1.wav,2,2,1,5,,,,,1,3,19,4,0,0,0,5,,,5,8.350611737994768,4,1.4857248769985745,3,1.5523883479982032,1,1.5330994100004318,,,049,001,2019_May_20_1514,MusicAffectPsychophysiology2019,3.0.5,60.034724323620104,
To what extent did the music make you feel ,TENDER,30MonoWAV/30MonoH1.wav,2,2,1,5,,,,,1,3,19,4,0,1,1,10,,,,,,,,,3,3.4676020500046434,,,049,001,2019_May_20_1514,MusicAffectPsychophysiology2019,3.0.5,60.034724323620104,
To what extent did the music make you feel ,EXCITED,30MonoWAV/30MonoH1.wav,2,2,1,5,,,,,1,3,19,4,0,2,2,7,,,,,,,,,4,1.1008320239998284,,,049,001,2019_May_20_1514,MusicAffectPsychophysiology2019,3.0.5,60.034724323620104,
To what extent did the music make you feel ,ACTIVE,30MonoWAV/30MonoH1.wav,2,2,1,5,,,,,1,3,19,4,0,3,3,9,,,,,,,,,3,0.9849130759976106,,,049,001,2019_May_20_1514,MusicAffectPsychophysiology2019,3.0.5,60.034724323620104,
To what extent did the music make you feel ,ASHAMED,30MonoWAV/30MonoH1.wav,2,2,1,5,,,,,1,3,19,4,0,4,4,4,,,,,,,,,1,0.734821780002676,,,049,001,2019_May_20_1514,MusicAffectPsychophysiology2019,3.0.5,60.034724323620104,
To what extent did the music make you feel ,SAD,30MonoWAV/30MonoH1.wav,2,2,1,5,,,,,1,3,19,4,0,5,5,0,,,,,,,,,1,1.0343118700038758,,,049,001,2019_May_20_1514,MusicAffectPsychophysiology2019,3.0.5,60.034724323620104,
To what extent did the music make you feel ,HAPPY,30MonoWAV/30MonoH1.wav,2,2,1,5,,,,,1,3,19,4,0,6,6,6,,,,,,,,,3,0.9189269229973434,,,049,001,2019_May_20_1514,MusicAffectPsychophysiology2019,3.0.5,60.034724323620104,
To what extent did the music make you feel ,ANGRY,30MonoWAV/30MonoH1.wav,2,2,1,5,,,,,1,3,19,4,0,7,7,2,,,,,,,,,1,0.6852790369957802,,,049,001,2019_May_20_1514,MusicAffectPsychophysiology2019,3.0.5,60.034724323620104,
To what extent did the music make you feel ,ALERT,30MonoWAV/30MonoH1.wav,2,2,1,5,,,,,1,3,19,4,0,8,8,8,,,,,,,,,4,0.9184488139944733,,,049,001,2019_May_20_1514,MusicAffectPsychophysiology2019,3.0.5,60.034724323620104,
To what extent did the music make you feel ,ANXIOUS ,30MonoWAV/30MonoH1.wav,2,2,1,5,,,,,1,3,19,4,0,9,9,1,,,,,,,,,1,0.817749341003946,,,049,001,2019_May_20_1514,MusicAffectPsychophysiology2019,3.0.5,60.034724323620104,
To what extent did the music make you feel ,FRUSTRATED,30MonoWAV/30MonoH1.wav,2,2,1,5,,,,,1,3,19,4,0,10,10,3,,,,,,,,,1,1.0170385489982436,,,049,001,2019_May_20_1514,MusicAffectPsychophysiology2019,3.0.5,60.034724323620104,
To what extent did the music make you feel ,SCARED,30MonoWAV/30MonoH1.wav,2,2,1,5,,,,,1,3,19,4,0,11,11,11,,,,,,,,,1,0.6689043250007671,,,049,001,2019_May_20_1514,MusicAffectPsychophysiology2019,3.0.5,60.034724323620104,
,,30MonoWAV/30MonoH1.wav,2,2,1,5,,,,,1,3,19,4,,,,,,,,,,,,,,,,,049,001,2019_May_20_1514,MusicAffectPsychophysiology2019,3.0.5,60.034724323620104,
To what extent did the music make you feel ,ASHAMED,30MonoWAV/30MonoS1.wav,1,1,3,9,,,,,1,4,20,8,0,0,0,4,,,2,2.370554686000105,1,1.2700598219962558,2,1.1865520990031655,2,2.490590479996172,,,049,001,2019_May_20_1514,MusicAffectPsychophysiology2019,3.0.5,60.034724323620104,
To what extent did the music make you feel ,FRUSTRATED,30MonoWAV/30MonoS1.wav,1,1,3,9,,,,,1,4,20,8,0,1,1,3,,,,,,,,,2,1.2018326899997192,,,049,001,2019_May_20_1514,MusicAffectPsychophysiology2019,3.0.5,60.034724323620104,
To what extent did the music make you feel ,ACTIVE,30MonoWAV/30MonoS1.wav,1,1,3,9,,,,,1,4,20,8,0,2,2,9,,,,,,,,,1,0.8512058060005074,,,049,001,2019_May_20_1514,MusicAffectPsychophysiology2019,3.0.5,60.034724323620104,
To what extent did the music make you feel ,HAPPY,30MonoWAV/30MonoS1.wav,1,1,3,9,,,,,1,4,20,8,0,3,3,6,,,,,,,,,1,0.7186696229982772,,,049,001,2019_May_20_1514,MusicAffectPsychophysiology2019,3.0.5,60.034724323620104,
To what extent did the music make you feel ,ANXIOUS ,30MonoWAV/30MonoS1.wav,1,1,3,9,,,,,1,4,20,8,0,4,4,1,,,,,,,,,2,1.2006434549984988,,,049,001,2019_May_20_1514,MusicAffectPsychophysiology2019,3.0.5,60.034724323620104,
To what extent did the music make you feel ,SCARED,30MonoWAV/30MonoS1.wav,1,1,3,9,,,,,1,4,20,8,0,5,5,11,,,,,,,,,2,1.1684855749990675,,,049,001,2019_May_20_1514,MusicAffectPsychophysiology2019,3.0.5,60.034724323620104,
To what extent did the music make you feel ,EXCITED,30MonoWAV/30MonoS1.wav,1,1,3,9,,,,,1,4,20,8,0,6,6,7,,,,,,,,,1,0.8518427349990816,,,049,001,2019_May_20_1514,MusicAffectPsychophysiology2019,3.0.5,60.034724323620104,
To what extent did the music make you feel ,ALERT,30MonoWAV/30MonoS1.wav,1,1,3,9,,,,,1,4,20,8,0,7,7,8,,,,,,,,,1,1.0347567499993602,,,049,001,2019_May_20_1514,MusicAffectPsychophysiology2019,3.0.5,60.034724323620104,
To what extent did the music make you feel ,TENDER,30MonoWAV/30MonoS1.wav,1,1,3,9,,,,,1,4,20,8,0,8,8,10,,,,,,,,,2,1.0845028089970583,,,049,001,2019_May_20_1514,MusicAffectPsychophysiology2019,3.0.5,60.034724323620104,
To what extent did the music make you feel ,SAD,30MonoWAV/30MonoS1.wav,1,1,3,9,,,,,1,4,20,8,0,9,9,0,,,,,,,,,5,1.6846356829992146,,,049,001,2019_May_20_1514,MusicAffectPsychophysiology2019,3.0.5,60.034724323620104,
To what extent did the music make you feel ,ANGRY,30MonoWAV/30MonoS1.wav,1,1,3,9,,,,,1,4,20,8,0,10,10,2,,,,,,,,,1,0.9176542349960073,,,049,001,2019_May_20_1514,MusicAffectPsychophysiology2019,3.0.5,60.034724323620104,
To what extent did the music make you feel ,GUILTY,30MonoWAV/30MonoS1.wav,1,1,3,9,,,,,1,4,20,8,0,11,11,5,,,,,,,,,2,1.0843709229957312,,,049,001,2019_May_20_1514,MusicAffectPsychophysiology2019,3.0.5,60.034724323620104,
,,30MonoWAV/30MonoS1.wav,1,1,3,9,,,,,1,4,20,8,,,,,,,,,,,,,,,,,049,001,2019_May_20_1514,MusicAffectPsychophysiology2019,3.0.5,60.034724323620104,
To what extent did the music make you feel ,ANXIOUS ,30MonoWAV/30MonoF3.wav,1,2,2,3,,,,,1,5,21,2,0,0,0,1,,,4,3.068681580996781,1,1.7012784369944711,1,1.1346533350006212,4,1.2849187619940494,,,049,001,2019_May_20_1514,MusicAffectPsychophysiology2019,3.0.5,60.034724323620104,
To what extent did the music make you feel ,TENDER,30MonoWAV/30MonoF3.wav,1,2,2,3,,,,,1,5,21,2,0,1,1,10,,,,,,,,,1,0.7665393749994109,,,049,001,2019_May_20_1514,MusicAffectPsychophysiology2019,3.0.5,60.034724323620104,
To what extent did the music make you feel ,ANGRY,30MonoWAV/30MonoF3.wav,1,2,2,3,,,,,1,5,21,2,0,2,2,2,,,,,,,,,3,1.284414141002344,,,049,001,2019_May_20_1514,MusicAffectPsychophysiology2019,3.0.5,60.034724323620104,
To what extent did the music make you feel ,SCARED,30MonoWAV/30MonoF3.wav,1,2,2,3,,,,,1,5,21,2,0,3,3,11,,,,,,,,,5,1.0835784100054298,,,049,001,2019_May_20_1514,MusicAffectPsychophysiology2019,3.0.5,60.034724323620104,
To what extent did the music make you feel ,FRUSTRATED,30MonoWAV/30MonoF3.wav,1,2,2,3,,,,,1,5,21,2,0,4,4,3,,,,,,,,,3,1.6180115999959526,,,049,001,2019_May_20_1514,MusicAffectPsychophysiology2019,3.0.5,60.034724323620104,
To what extent did the music make you feel ,SAD,30MonoWAV/30MonoF3.wav,1,2,2,3,,,,,1,5,21,2,0,5,5,0,,,,,,,,,2,1.3831483949979884,,,049,001,2019_May_20_1514,MusicAffectPsychophysiology2019,3.0.5,60.034724323620104,
To what extent did the music make you feel ,ASHAMED,30MonoWAV/30MonoF3.wav,1,2,2,3,,,,,1,5,21,2,0,6,6,4,,,,,,,,,1,1.086214346003544,,,049,001,2019_May_20_1514,MusicAffectPsychophysiology2019,3.0.5,60.034724323620104,
To what extent did the music make you feel ,ALERT,30MonoWAV/30MonoF3.wav,1,2,2,3,,,,,1,5,21,2,0,7,7,8,,,,,,,,,1,0.619231001001026,,,049,001,2019_May_20_1514,MusicAffectPsychophysiology2019,3.0.5,60.034724323620104,
To what extent did the music make you feel ,EXCITED,30MonoWAV/30MonoF3.wav,1,2,2,3,,,,,1,5,21,2,0,8,8,7,,,,,,,,,1,1.535919162000937,,,049,001,2019_May_20_1514,MusicAffectPsychophysiology2019,3.0.5,60.034724323620104,
To what extent did the music make you feel ,GUILTY,30MonoWAV/30MonoF3.wav,1,2,2,3,,,,,1,5,21,2,0,9,9,5,,,,,,,,,1,1.2989093669966678,,,049,001,2019_May_20_1514,MusicAffectPsychophysiology2019,3.0.5,60.034724323620104,
To what extent did the music make you feel ,HAPPY,30MonoWAV/30MonoF3.wav,1,2,2,3,,,,,1,5,21,2,0,10,10,6,,,,,,,,,1,0.5848375839996152,,,049,001,2019_May_20_1514,MusicAffectPsychophysiology2019,3.0.5,60.034724323620104,
To what extent did the music make you feel ,ACTIVE,30MonoWAV/30MonoF3.wav,1,2,2,3,,,,,1,5,21,2,0,11,11,9,,,,,,,,,3,1.3183989380049752,,,049,001,2019_May_20_1514,MusicAffectPsychophysiology2019,3.0.5,60.034724323620104,
,,30MonoWAV/30MonoF3.wav,1,2,2,3,,,,,1,5,21,2,,,,,,,,,,,,,,,,,049,001,2019_May_20_1514,MusicAffectPsychophysiology2019,3.0.5,60.034724323620104,
To what extent did the music make you feel ,ACTIVE,30MonoWAV/30MonoS3.wav,1,1,3,11,,,,,1,6,22,10,0,0,0,9,,,2,2.501683687994955,1,1.318390537002415,2,1.2513413970009424,1,1.101838549002423,,,049,001,2019_May_20_1514,MusicAffectPsychophysiology2019,3.0.5,60.034724323620104,
To what extent did the music make you feel ,GUILTY,30MonoWAV/30MonoS3.wav,1,1,3,11,,,,,1,6,22,10,0,1,1,5,,,,,,,,,3,1.3846765479975147,,,049,001,2019_May_20_1514,MusicAffectPsychophysiology2019,3.0.5,60.034724323620104,
To what extent did the music make you feel ,ASHAMED,30MonoWAV/30MonoS3.wav,1,1,3,11,,,,,1,6,22,10,0,2,2,4,,,,,,,,,4,0.9846246669985703,,,049,001,2019_May_20_1514,MusicAffectPsychophysiology2019,3.0.5,60.034724323620104,
To what extent did the music make you feel ,SAD,30MonoWAV/30MonoS3.wav,1,1,3,11,,,,,1,6,22,10,0,3,3,0,,,,,,,,,5,1.335406812999281,,,049,001,2019_May_20_1514,MusicAffectPsychophysiology2019,3.0.5,60.034724323620104,
To what extent did the music make you feel ,EXCITED,30MonoWAV/30MonoS3.wav,1,1,3,11,,,,,1,6,22,10,0,4,4,7,,,,,,,,,1,1.2010596480031381,,,049,001,2019_May_20_1514,MusicAffectPsychophysiology2019,3.0.5,60.034724323620104,
To what extent did the music make you feel ,FRUSTRATED,30MonoWAV/30MonoS3.wav,1,1,3,11,,,,,1,6,22,10,0,5,5,3,,,,,,,,,2,1.4524455810023937,,,049,001,2019_May_20_1514,MusicAffectPsychophysiology2019,3.0.5,60.034724323620104,
To what extent did the music make you feel ,TENDER,30MonoWAV/30MonoS3.wav,1,1,3,11,,,,,1,6,22,10,0,6,6,10,,,,,,,,,1,1.6852675780028221,,,049,001,2019_May_20_1514,MusicAffectPsychophysiology2019,3.0.5,60.034724323620104,
To what extent did the music make you feel ,HAPPY,30MonoWAV/30MonoS3.wav,1,1,3,11,,,,,1,6,22,10,0,7,7,6,,,,,,,,,1,0.5855106659946614,,,049,001,2019_May_20_1514,MusicAffectPsychophysiology2019,3.0.5,60.034724323620104,
To what extent did the music make you feel ,SCARED,30MonoWAV/30MonoS3.wav,1,1,3,11,,,,,1,6,22,10,0,8,8,11,,,,,,,,,3,1.30195149499923,,,049,001,2019_May_20_1514,MusicAffectPsychophysiology2019,3.0.5,60.034724323620104,
To what extent did the music make you feel ,ALERT,30MonoWAV/30MonoS3.wav,1,1,3,11,,,,,1,6,22,10,0,9,9,8,,,,,,,,,1,1.1173423860018374,,,049,001,2019_May_20_1514,MusicAffectPsychophysiology2019,3.0.5,60.034724323620104,
To what extent did the music make you feel ,ANGRY,30MonoWAV/30MonoS3.wav,1,1,3,11,,,,,1,6,22,10,0,10,10,2,,,,,,,,,1,1.0013631340043503,,,049,001,2019_May_20_1514,MusicAffectPsychophysiology2019,3.0.5,60.034724323620104,
To what extent did the music make you feel ,ANXIOUS ,30MonoWAV/30MonoS3.wav,1,1,3,11,,,,,1,6,22,10,0,11,11,1,,,,,,,,,3,1.0350766089977697,,,049,001,2019_May_20_1514,MusicAffectPsychophysiology2019,3.0.5,60.034724323620104,
,,30MonoWAV/30MonoS3.wav,1,1,3,11,,,,,1,6,22,10,,,,,,,,,,,,,,,,,049,001,2019_May_20_1514,MusicAffectPsychophysiology2019,3.0.5,60.034724323620104,
To what extent did the music make you feel ,SCARED,30MonoWAV/30MonoT4.wav,2,1,4,16,,,,,1,7,23,15,0,0,0,11,,,3,3.2050221130048158,4,1.3902894900020328,5,0.9017146909973235,1,1.2669684729989967,,,049,001,2019_May_20_1514,MusicAffectPsychophysiology2019,3.0.5,60.034724323620104,
To what extent did the music make you feel ,TENDER,30MonoWAV/30MonoT4.wav,2,1,4,16,,,,,1,7,23,15,0,1,1,10,,,,,,,,,5,0.9995196500021848,,,049,001,2019_May_20_1514,MusicAffectPsychophysiology2019,3.0.5,60.034724323620104,
To what extent did the music make you feel ,ASHAMED,30MonoWAV/30MonoT4.wav,2,1,4,16,,,,,1,7,23,15,0,2,2,4,,,,,,,,,1,0.8520012689987198,,,049,001,2019_May_20_1514,MusicAffectPsychophysiology2019,3.0.5,60.034724323620104,
To what extent did the music make you feel ,FRUSTRATED,30MonoWAV/30MonoT4.wav,2,1,4,16,,,,,1,7,23,15,0,3,3,3,,,,,,,,,1,0.6525948279959266,,,049,001,2019_May_20_1514,MusicAffectPsychophysiology2019,3.0.5,60.034724323620104,
To what extent did the music make you feel ,ANGRY,30MonoWAV/30MonoT4.wav,2,1,4,16,,,,,1,7,23,15,0,4,4,2,,,,,,,,,1,0.6350684909994015,,,049,001,2019_May_20_1514,MusicAffectPsychophysiology2019,3.0.5,60.034724323620104,
To what extent did the music make you feel ,ACTIVE,30MonoWAV/30MonoT4.wav,2,1,4,16,,,,,1,7,23,15,0,5,5,9,,,,,,,,,4,1.0889336079999339,,,049,001,2019_May_20_1514,MusicAffectPsychophysiology2019,3.0.5,60.034724323620104,
To what extent did the music make you feel ,ALERT,30MonoWAV/30MonoT4.wav,2,1,4,16,,,,,1,7,23,15,0,6,6,8,,,,,,,,,3,0.9038417370029492,,,049,001,2019_May_20_1514,MusicAffectPsychophysiology2019,3.0.5,60.034724323620104,
To what extent did the music make you feel ,HAPPY,30MonoWAV/30MonoT4.wav,2,1,4,16,,,,,1,7,23,15,0,7,7,6,,,,,,,,,4,1.0361393220009631,,,049,001,2019_May_20_1514,MusicAffectPsychophysiology2019,3.0.5,60.034724323620104,
To what extent did the music make you feel ,SAD,30MonoWAV/30MonoT4.wav,2,1,4,16,,,,,1,7,23,15,0,8,8,0,,,,,,,,,1,0.6358752800006187,,,049,001,2019_May_20_1514,MusicAffectPsychophysiology2019,3.0.5,60.034724323620104,
To what extent did the music make you feel ,GUILTY,30MonoWAV/30MonoT4.wav,2,1,4,16,,,,,1,7,23,15,0,9,9,5,,,,,,,,,1,1.0191703349992167,,,049,001,2019_May_20_1514,MusicAffectPsychophysiology2019,3.0.5,60.034724323620104,
To what extent did the music make you feel ,EXCITED,30MonoWAV/30MonoT4.wav,2,1,4,16,,,,,1,7,23,15,0,10,10,7,,,,,,,,,4,1.2198790149996057,,,049,001,2019_May_20_1514,MusicAffectPsychophysiology2019,3.0.5,60.034724323620104,
To what extent did the music make you feel ,ANXIOUS ,30MonoWAV/30MonoT4.wav,2,1,4,16,,,,,1,7,23,15,0,11,11,1,,,,,,,,,1,0.6360024659952614,,,049,001,2019_May_20_1514,MusicAffectPsychophysiology2019,3.0.5,60.034724323620104,
,,30MonoWAV/30MonoT4.wav,2,1,4,16,,,,,1,7,23,15,,,,,,,,,,,,,,,,,049,001,2019_May_20_1514,MusicAffectPsychophysiology2019,3.0.5,60.034724323620104,
To what extent did the music make you feel ,ANXIOUS ,30MonoWAV/30MonoT3.wav,2,1,4,15,,,,,1,8,24,14,0,0,0,1,,,3,3.8178729399951408,5,1.6686937880003825,5,0.9021041820014943,1,0.8520508119981969,,,049,001,2019_May_20_1514,MusicAffectPsychophysiology2019,3.0.5,60.034724323620104,
To what extent did the music make you feel ,ALERT,30MonoWAV/30MonoT3.wav,2,1,4,15,,,,,1,8,24,14,0,1,1,8,,,,,,,,,3,1.202318440999079,,,049,001,2019_May_20_1514,MusicAffectPsychophysiology2019,3.0.5,60.034724323620104,
To what extent did the music make you feel ,ASHAMED,30MonoWAV/30MonoT3.wav,2,1,4,15,,,,,1,8,24,14,0,2,2,4,,,,,,,,,1,1.3183197190010105,,,049,001,2019_May_20_1514,MusicAffectPsychophysiology2019,3.0.5,60.034724323620104,
To what extent did the music make you feel ,SCARED,30MonoWAV/30MonoT3.wav,2,1,4,15,,,,,1,8,24,14,0,3,3,11,,,,,,,,,1,0.8859092529964983,,,049,001,2019_May_20_1514,MusicAffectPsychophysiology2019,3.0.5,60.034724323620104,
To what extent did the music make you feel ,GUILTY,30MonoWAV/30MonoT3.wav,2,1,4,15,,,,,1,8,24,14,0,4,4,5,,,,,,,,,1,0.7014361119945534,,,049,001,2019_May_20_1514,MusicAffectPsychophysiology2019,3.0.5,60.034724323620104,
To what extent did the music make you feel ,SAD,30MonoWAV/30MonoT3.wav,2,1,4,15,,,,,1,8,24,14,0,5,5,0,,,,,,,,,1,0.7184209949991782,,,049,001,2019_May_20_1514,MusicAffectPsychophysiology2019,3.0.5,60.034724323620104,
To what extent did the music make you feel ,ANGRY,30MonoWAV/30MonoT3.wav,2,1,4,15,,,,,1,8,24,14,0,6,6,2,,,,,,,,,1,0.9502749540042714,,,049,001,2019_May_20_1514,MusicAffectPsychophysiology2019,3.0.5,60.034724323620104,
To what extent did the music make you feel ,TENDER,30MonoWAV/30MonoT3.wav,2,1,4,15,,,,,1,8,24,14,0,7,7,10,,,,,,,,,5,0.8345438420001301,,,049,001,2019_May_20_1514,MusicAffectPsychophysiology2019,3.0.5,60.034724323620104,
To what extent did the music make you feel ,EXCITED,30MonoWAV/30MonoT3.wav,2,1,4,15,,,,,1,8,24,14,0,8,8,7,,,,,,,,,5,1.002275833998283,,,049,001,2019_May_20_1514,MusicAffectPsychophysiology2019,3.0.5,60.034724323620104,
To what extent did the music make you feel ,HAPPY,30MonoWAV/30MonoT3.wav,2,1,4,15,,,,,1,8,24,14,0,9,9,6,,,,,,,,,4,0.8022761879983591,,,049,001,2019_May_20_1514,MusicAffectPsychophysiology2019,3.0.5,60.034724323620104,
To what extent did the music make you feel ,FRUSTRATED,30MonoWAV/30MonoT3.wav,2,1,4,15,,,,,1,8,24,14,0,10,10,3,,,,,,,,,1,1.5348160689973156,,,049,001,2019_May_20_1514,MusicAffectPsychophysiology2019,3.0.5,60.034724323620104,
To what extent did the music make you feel ,ACTIVE,30MonoWAV/30MonoT3.wav,2,1,4,15,,,,,1,8,24,14,0,11,11,9,,,,,,,,,4,1.4350614119975944,,,049,001,2019_May_20_1514,MusicAffectPsychophysiology2019,3.0.5,60.034724323620104,
,,30MonoWAV/30MonoT3.wav,2,1,4,15,,,,,1,8,24,14,,,,,,,,,,,,,,,,,049,001,2019_May_20_1514,MusicAffectPsychophysiology2019,3.0.5,60.034724323620104,
To what extent did the music make you feel ,ALERT,30MonoWAV/30MonoT2.wav,2,1,4,14,,,,,1,9,25,13,0,0,0,8,,,1,2.7415841199981514,5,2.0167976779994206,5,1.0869911100016907,1,1.0024708540004212,,,049,001,2019_May_20_1514,MusicAffectPsychophysiology2019,3.0.5,60.034724323620104,
To what extent did the music make you feel ,FRUSTRATED,30MonoWAV/30MonoT2.wav,2,1,4,14,,,,,1,9,25,13,0,1,1,3,,,,,,,,,1,0.8011031329951948,,,049,001,2019_May_20_1514,MusicAffectPsychophysiology2019,3.0.5,60.034724323620104,
To what extent did the music make you feel ,EXCITED,30MonoWAV/30MonoT2.wav,2,1,4,14,,,,,1,9,25,13,0,2,2,7,,,,,,,,,4,1.001132638004492,,,049,001,2019_May_20_1514,MusicAffectPsychophysiology2019,3.0.5,60.034724323620104,
To what extent did the music make you feel ,SAD,30MonoWAV/30MonoT2.wav,2,1,4,14,,,,,1,9,25,13,0,3,3,0,,,,,,,,,4,1.6684457110022777,,,049,001,2019_May_20_1514,MusicAffectPsychophysiology2019,3.0.5,60.034724323620104,
To what extent did the music make you feel ,ANXIOUS ,30MonoWAV/30MonoT2.wav,2,1,4,14,,,,,1,9,25,13,0,4,4,1,,,,,,,,,1,0.6510785920036142,,,049,001,2019_May_20_1514,MusicAffectPsychophysiology2019,3.0.5,60.034724323620104,
To what extent did the music make you feel ,GUILTY,30MonoWAV/30MonoT2.wav,2,1,4,14,,,,,1,9,25,13,0,5,5,5,,,,,,,,,1,0.9519117899981211,,,049,001,2019_May_20_1514,MusicAffectPsychophysiology2019,3.0.5,60.034724323620104,
To what extent did the music make you feel ,ACTIVE,30MonoWAV/30MonoT2.wav,2,1,4,14,,,,,1,9,25,13,0,6,6,9,,,,,,,,,1,1.718033575998561,,,049,001,2019_May_20_1514,MusicAffectPsychophysiology2019,3.0.5,60.034724323620104,
To what extent did the music make you feel ,ANGRY,30MonoWAV/30MonoT2.wav,2,1,4,14,,,,,1,9,25,13,0,7,7,2,,,,,,,,,1,1.3853654999984428,,,049,001,2019_May_20_1514,MusicAffectPsychophysiology2019,3.0.5,60.034724323620104,
To what extent did the music make you feel ,SCARED,30MonoWAV/30MonoT2.wav,2,1,4,14,,,,,1,9,25,13,0,8,8,11,,,,,,,,,1,0.7686213109991513,,,049,001,2019_May_20_1514,MusicAffectPsychophysiology2019,3.0.5,60.034724323620104,
To what extent did the music make you feel ,HAPPY,30MonoWAV/30MonoT2.wav,2,1,4,14,,,,,1,9,25,13,0,9,9,6,,,,,,,,,3,1.1177041190021555,,,049,001,2019_May_20_1514,MusicAffectPsychophysiology2019,3.0.5,60.034724323620104,
To what extent did the music make you feel ,TENDER,30MonoWAV/30MonoT2.wav,2,1,4,14,,,,,1,9,25,13,0,10,10,10,,,,,,,,,5,1.1844035299945972,,,049,001,2019_May_20_1514,MusicAffectPsychophysiology2019,3.0.5,60.034724323620104,
To what extent did the music make you feel ,ASHAMED,30MonoWAV/30MonoT2.wav,2,1,4,14,,,,,1,9,25,13,0,11,11,4,,,,,,,,,1,0.7515205890013021,,,049,001,2019_May_20_1514,MusicAffectPsychophysiology2019,3.0.5,60.034724323620104,
,,30MonoWAV/30MonoT2.wav,2,1,4,14,,,,,1,9,25,13,,,,,,,,,,,,,,,,,049,001,2019_May_20_1514,MusicAffectPsychophysiology2019,3.0.5,60.034724323620104,
To what extent did the music make you feel ,ASHAMED,30MonoWAV/30MonoF1.wav,1,2,2,1,,,,,1,10,26,0,0,0,0,4,,,5,3.285084269999061,3,2.0182927350033424,2,1.9183227059984347,3,1.4506318639978417,,,049,001,2019_May_20_1514,MusicAffectPsychophysiology2019,3.0.5,60.034724323620104,
To what extent did the music make you feel ,ANXIOUS ,30MonoWAV/30MonoF1.wav,1,2,2,1,,,,,1,10,26,0,0,1,1,1,,,,,,,,,3,0.7024745890012127,,,049,001,2019_May_20_1514,MusicAffectPsychophysiology2019,3.0.5,60.034724323620104,
To what extent did the music make you feel ,SAD,30MonoWAV/30MonoF1.wav,1,2,2,1,,,,,1,10,26,0,0,2,2,0,,,,,,,,,3,0.7015593859978253,,,049,001,2019_May_20_1514,MusicAffectPsychophysiology2019,3.0.5,60.034724323620104,
To what extent did the music make you feel ,ANGRY,30MonoWAV/30MonoF1.wav,1,2,2,1,,,,,1,10,26,0,0,3,3,2,,,,,,,,,3,0.6849448979992303,,,049,001,2019_May_20_1514,MusicAffectPsychophysiology2019,3.0.5,60.034724323620104,
To what extent did the music make you feel ,ACTIVE,30MonoWAV/30MonoF1.wav,1,2,2,1,,,,,1,10,26,0,0,4,4,9,,,,,,,,,4,1.3354337359996862,,,049,001,2019_May_20_1514,MusicAffectPsychophysiology2019,3.0.5,60.034724323620104,
To what extent did the music make you feel ,ALERT,30MonoWAV/30MonoF1.wav,1,2,2,1,,,,,1,10,26,0,0,5,5,8,,,,,,,,,4,0.8015825089969439,,,049,001,2019_May_20_1514,MusicAffectPsychophysiology2019,3.0.5,60.034724323620104,
To what extent did the music make you feel ,EXCITED,30MonoWAV/30MonoF1.wav,1,2,2,1,,,,,1,10,26,0,0,6,6,7,,,,,,,,,1,0.7847445830047945,,,049,001,2019_May_20_1514,MusicAffectPsychophysiology2019,3.0.5,60.034724323620104,
To what extent did the music make you feel ,FRUSTRATED,30MonoWAV/30MonoF1.wav,1,2,2,1,,,,,1,10,26,0,0,7,7,3,,,,,,,,,4,1.0338344939955277,,,049,001,2019_May_20_1514,MusicAffectPsychophysiology2019,3.0.5,60.034724323620104,
To what extent did the music make you feel ,GUILTY,30MonoWAV/30MonoF1.wav,1,2,2,1,,,,,1,10,26,0,0,8,8,5,,,,,,,,,4,1.268373024999164,,,049,001,2019_May_20_1514,MusicAffectPsychophysiology2019,3.0.5,60.034724323620104,
To what extent did the music make you feel ,HAPPY,30MonoWAV/30MonoF1.wav,1,2,2,1,,,,,1,10,26,0,0,9,9,6,,,,,,,,,1,1.318095914000878,,,049,001,2019_May_20_1514,MusicAffectPsychophysiology2019,3.0.5,60.034724323620104,
To what extent did the music make you feel ,SCARED,30MonoWAV/30MonoF1.wav,1,2,2,1,,,,,1,10,26,0,0,10,10,11,,,,,,,,,4,0.9012859869981185,,,049,001,2019_May_20_1514,MusicAffectPsychophysiology2019,3.0.5,60.034724323620104,
To what extent did the music make you feel ,TENDER,30MonoWAV/30MonoF1.wav,1,2,2,1,,,,,1,10,26,0,0,11,11,10,,,,,,,,,1,0.884701324001071,,,049,001,2019_May_20_1514,MusicAffectPsychophysiology2019,3.0.5,60.034724323620104,
,,30MonoWAV/30MonoF1.wav,1,2,2,1,,,,,1,10,26,0,,,,,,,,,,,,,,,,,049,001,2019_May_20_1514,MusicAffectPsychophysiology2019,3.0.5,60.034724323620104,
To what extent did the music make you feel ,EXCITED,30MonoWAV/30MonoS2.wav,1,1,3,10,,,,,1,11,27,9,0,0,0,7,,,1,2.785732131000259,1,1.6683263960003387,2,1.7517116400049417,1,2.0504429130014614,,,049,001,2019_May_20_1514,MusicAffectPsychophysiology2019,3.0.5,60.034724323620104,
To what extent did the music make you feel ,GUILTY,30MonoWAV/30MonoS2.wav,1,1,3,10,,,,,1,11,27,9,0,1,1,5,,,,,,,,,3,1.6188481810022495,,,049,001,2019_May_20_1514,MusicAffectPsychophysiology2019,3.0.5,60.034724323620104,
To what extent did the music make you feel ,ACTIVE,30MonoWAV/30MonoS2.wav,1,1,3,10,,,,,1,11,27,9,0,2,2,9,,,,,,,,,1,1.2008526620047633,,,049,001,2019_May_20_1514,MusicAffectPsychophysiology2019,3.0.5,60.034724323620104,
To what extent did the music make you feel ,ALERT,30MonoWAV/30MonoS2.wav,1,1,3,10,,,,,1,11,27,9,0,3,3,8,,,,,,,,,1,0.9514570359970094,,,049,001,2019_May_20_1514,MusicAffectPsychophysiology2019,3.0.5,60.034724323620104,
To what extent did the music make you feel ,SCARED,30MonoWAV/30MonoS2.wav,1,1,3,10,,,,,1,11,27,9,0,4,4,11,,,,,,,,,3,1.6343064960019547,,,049,001,2019_May_20_1514,MusicAffectPsychophysiology2019,3.0.5,60.034724323620104,
To what extent did the music make you feel ,SAD,30MonoWAV/30MonoS2.wav,1,1,3,10,,,,,1,11,27,9,0,5,5,0,,,,,,,,,5,1.8186480439981096,,,049,001,2019_May_20_1514,MusicAffectPsychophysiology2019,3.0.5,60.034724323620104,
To what extent did the music make you feel ,ASHAMED,30MonoWAV/30MonoS2.wav,1,1,3,10,,,,,1,11,27,9,0,6,6,4,,,,,,,,,3,1.1357935640044161,,,049,001,2019_May_20_1514,MusicAffectPsychophysiology2019,3.0.5,60.034724323620104,
To what extent did the music make you feel ,FRUSTRATED,30MonoWAV/30MonoS2.wav,1,1,3,10,,,,,1,11,27,9,0,7,7,3,,,,,,,,,1,1.385032982994744,,,049,001,2019_May_20_1514,MusicAffectPsychophysiology2019,3.0.5,60.034724323620104,
To what extent did the music make you feel ,HAPPY,30MonoWAV/30MonoS2.wav,1,1,3,10,,,,,1,11,27,9,0,8,8,6,,,,,,,,,1,0.7354894390009576,,,049,001,2019_May_20_1514,MusicAffectPsychophysiology2019,3.0.5,60.034724323620104,
To what extent did the music make you feel ,TENDER,30MonoWAV/30MonoS2.wav,1,1,3,10,,,,,1,11,27,9,0,9,9,10,,,,,,,,,1,0.7833420789975207,,,049,001,2019_May_20_1514,MusicAffectPsychophysiology2019,3.0.5,60.034724323620104,
To what extent did the music make you feel ,ANXIOUS ,30MonoWAV/30MonoS2.wav,1,1,3,10,,,,,1,11,27,9,0,10,10,1,,,,,,,,,2,0.9022980049994658,,,049,001,2019_May_20_1514,MusicAffectPsychophysiology2019,3.0.5,60.034724323620104,
To what extent did the music make you feel ,ANGRY,30MonoWAV/30MonoS2.wav,1,1,3,10,,,,,1,11,27,9,0,11,11,2,,,,,,,,,1,1.4010309900040738,,,049,001,2019_May_20_1514,MusicAffectPsychophysiology2019,3.0.5,60.034724323620104,
,,30MonoWAV/30MonoS2.wav,1,1,3,10,,,,,1,11,27,9,,,,,,,,,,,,,,,,,049,001,2019_May_20_1514,MusicAffectPsychophysiology2019,3.0.5,60.034724323620104,
To what extent did the music make you feel ,HAPPY,30MonoWAV/30MonoF2.wav,1,2,2,2,,,,,1,12,28,1,0,0,0,6,,,4,2.5015123529956327,1,1.7556533599999966,1,0.9858796309999889,1,0.8857561719996738,,,049,001,2019_May_20_1514,MusicAffectPsychophysiology2019,3.0.5,60.034724323620104,
To what extent did the music make you feel ,SCARED,30MonoWAV/30MonoF2.wav,1,2,2,2,,,,,1,12,28,1,0,1,1,11,,,,,,,,,5,0.6525430160036194,,,049,001,2019_May_20_1514,MusicAffectPsychophysiology2019,3.0.5,60.034724323620104,
To what extent did the music make you feel ,ALERT,30MonoWAV/30MonoF2.wav,1,2,2,2,,,,,1,12,28,1,0,2,2,8,,,,,,,,,5,1.134194796999509,,,049,001,2019_May_20_1514,MusicAffectPsychophysiology2019,3.0.5,60.034724323620104,
To what extent did the music make you feel ,ANGRY,30MonoWAV/30MonoF2.wav,1,2,2,2,,,,,1,12,28,1,0,3,3,2,,,,,,,,,1,1.4367578810051782,,,049,001,2019_May_20_1514,MusicAffectPsychophysiology2019,3.0.5,60.034724323620104,
To what extent did the music make you feel ,EXCITED,30MonoWAV/30MonoF2.wav,1,2,2,2,,,,,1,12,28,1,0,4,4,7,,,,,,,,,1,1.537083186005475,,,049,001,2019_May_20_1514,MusicAffectPsychophysiology2019,3.0.5,60.034724323620104,
To what extent did the music make you feel ,ACTIVE,30MonoWAV/30MonoF2.wav,1,2,2,2,,,,,1,12,28,1,0,5,5,9,,,,,,,,,5,1.056504729000153,,,049,001,2019_May_20_1514,MusicAffectPsychophysiology2019,3.0.5,60.034724323620104,
To what extent did the music make you feel ,FRUSTRATED,30MonoWAV/30MonoF2.wav,1,2,2,2,,,,,1,12,28,1,0,6,6,3,,,,,,,,,5,0.6682976229931228,,,049,001,2019_May_20_1514,MusicAffectPsychophysiology2019,3.0.5,60.034724323620104,
To what extent did the music make you feel ,TENDER,30MonoWAV/30MonoF2.wav,1,2,2,2,,,,,1,12,28,1,0,7,7,10,,,,,,,,,1,0.7689575319964206,,,049,001,2019_May_20_1514,MusicAffectPsychophysiology2019,3.0.5,60.034724323620104,
To what extent did the music make you feel ,SAD,30MonoWAV/30MonoF2.wav,1,2,2,2,,,,,1,12,28,1,0,8,8,0,,,,,,,,,1,0.98473353600275,,,049,001,2019_May_20_1514,MusicAffectPsychophysiology2019,3.0.5,60.034724323620104,
To what extent did the music make you feel ,GUILTY,30MonoWAV/30MonoF2.wav,1,2,2,2,,,,,1,12,28,1,0,9,9,5,,,,,,,,,1,1.018161093001254,,,049,001,2019_May_20_1514,MusicAffectPsychophysiology2019,3.0.5,60.034724323620104,
To what extent did the music make you feel ,ANXIOUS ,30MonoWAV/30MonoF2.wav,1,2,2,2,,,,,1,12,28,1,0,10,10,1,,,,,,,,,5,1.3853848709986778,,,049,001,2019_May_20_1514,MusicAffectPsychophysiology2019,3.0.5,60.034724323620104,
To what extent did the music make you feel ,ASHAMED,30MonoWAV/30MonoF2.wav,1,2,2,2,,,,,1,12,28,1,0,11,11,4,,,,,,,,,1,0.6678673300048104,,,049,001,2019_May_20_1514,MusicAffectPsychophysiology2019,3.0.5,60.034724323620104,
,,30MonoWAV/30MonoF2.wav,1,2,2,2,,,,,1,12,28,1,,,,,,,,,,,,,,,,,049,001,2019_May_20_1514,MusicAffectPsychophysiology2019,3.0.5,60.034724323620104,
To what extent did the music make you feel ,ANGRY,30MonoWAV/30MonoF4.wav,1,2,2,4,,,,,1,13,29,3,0,0,0,2,,,5,2.0185016179966624,2,2.1513816519945976,3,2.100863075000234,3,2.0519611740019172,,,049,001,2019_May_20_1514,MusicAffectPsychophysiology2019,3.0.5,60.034724323620104,
To what extent did the music make you feel ,ANXIOUS ,30MonoWAV/30MonoF4.wav,1,2,2,4,,,,,1,13,29,3,0,1,1,1,,,,,,,,,3,1.1022507669986226,,,049,001,2019_May_20_1514,MusicAffectPsychophysiology2019,3.0.5,60.034724323620104,
To what extent did the music make you feel ,HAPPY,30MonoWAV/30MonoF4.wav,1,2,2,4,,,,,1,13,29,3,0,2,2,6,,,,,,,,,1,1.0522054949979065,,,049,001,2019_May_20_1514,MusicAffectPsychophysiology2019,3.0.5,60.034724323620104,
To what extent did the music make you feel ,FRUSTRATED,30MonoWAV/30MonoF4.wav,1,2,2,4,,,,,1,13,29,3,0,3,3,3,,,,,,,,,4,1.035167806003301,,,049,001,2019_May_20_1514,MusicAffectPsychophysiology2019,3.0.5,60.034724323620104,
To what extent did the music make you feel ,ALERT,30MonoWAV/30MonoF4.wav,1,2,2,4,,,,,1,13,29,3,0,4,4,8,,,,,,,,,5,1.0673576709959889,,,049,001,2019_May_20_1514,MusicAffectPsychophysiology2019,3.0.5,60.034724323620104,
To what extent did the music make you feel ,EXCITED,30MonoWAV/30MonoF4.wav,1,2,2,4,,,,,1,13,29,3,0,5,5,7,,,,,,,,,5,1.0351843909957097,,,049,001,2019_May_20_1514,MusicAffectPsychophysiology2019,3.0.5,60.034724323620104,
To what extent did the music make you feel ,SAD,30MonoWAV/30MonoF4.wav,1,2,2,4,,,,,1,13,29,3,0,6,6,0,,,,,,,,,1,1.8179306180027197,,,049,001,2019_May_20_1514,MusicAffectPsychophysiology2019,3.0.5,60.034724323620104,
To what extent did the music make you feel ,SCARED,30MonoWAV/30MonoF4.wav,1,2,2,4,,,,,1,13,29,3,0,7,7,11,,,,,,,,,1,0.950212283001747,,,049,001,2019_May_20_1514,MusicAffectPsychophysiology2019,3.0.5,60.034724323620104,
To what extent did the music make you feel ,ASHAMED,30MonoWAV/30MonoF4.wav,1,2,2,4,,,,,1,13,29,3,0,8,8,4,,,,,,,,,1,0.8022458209961769,,,049,001,2019_May_20_1514,MusicAffectPsychophysiology2019,3.0.5,60.034724323620104,
To what extent did the music make you feel ,GUILTY,30MonoWAV/30MonoF4.wav,1,2,2,4,,,,,1,13,29,3,0,9,9,5,,,,,,,,,1,1.0182465350007988,,,049,001,2019_May_20_1514,MusicAffectPsychophysiology2019,3.0.5,60.034724323620104,
To what extent did the music make you feel ,TENDER,30MonoWAV/30MonoF4.wav,1,2,2,4,,,,,1,13,29,3,0,10,10,10,,,,,,,,,1,1.2023267969998415,,,049,001,2019_May_20_1514,MusicAffectPsychophysiology2019,3.0.5,60.034724323620104,
To what extent did the music make you feel ,ACTIVE,30MonoWAV/30MonoF4.wav,1,2,2,4,,,,,1,13,29,3,0,11,11,9,,,,,,,,,5,0.9011017130032997,,,049,001,2019_May_20_1514,MusicAffectPsychophysiology2019,3.0.5,60.034724323620104,
,,30MonoWAV/30MonoF4.wav,1,2,2,4,,,,,1,13,29,3,,,,,,,,,,,,,,,,,049,001,2019_May_20_1514,MusicAffectPsychophysiology2019,3.0.5,60.034724323620104,
To what extent did the music make you feel ,SCARED,30MonoWAV/30MonoH3.wav,2,2,1,7,,,,,1,14,30,6,0,0,0,11,,,5,2.1548949100033497,4,3.9391336769986083,4,1.4391933840015554,1,2.6877879460007534,,,049,001,2019_May_20_1514,MusicAffectPsychophysiology2019,3.0.5,60.034724323620104,
To what extent did the music make you feel ,ALERT,30MonoWAV/30MonoH3.wav,2,2,1,7,,,,,1,14,30,6,0,1,1,8,,,,,,,,,4,0.9173835030014743,,,049,001,2019_May_20_1514,MusicAffectPsychophysiology2019,3.0.5,60.034724323620104,
To what extent did the music make you feel ,HAPPY,30MonoWAV/30MonoH3.wav,2,2,1,7,,,,,1,14,30,6,0,2,2,6,,,,,,,,,5,0.7181986509967828,,,049,001,2019_May_20_1514,MusicAffectPsychophysiology2019,3.0.5,60.034724323620104,
To what extent did the music make you feel ,FRUSTRATED,30MonoWAV/30MonoH3.wav,2,2,1,7,,,,,1,14,30,6,0,3,3,3,,,,,,,,,1,0.805504652998934,,,049,001,2019_May_20_1514,MusicAffectPsychophysiology2019,3.0.5,60.034724323620104,
To what extent did the music make you feel ,EXCITED,30MonoWAV/30MonoH3.wav,2,2,1,7,,,,,1,14,30,6,0,4,4,7,,,,,,,,,4,0.668148402000952,,,049,001,2019_May_20_1514,MusicAffectPsychophysiology2019,3.0.5,60.034724323620104,
To what extent did the music make you feel ,ASHAMED,30MonoWAV/30MonoH3.wav,2,2,1,7,,,,,1,14,30,6,0,5,5,4,,,,,,,,,1,0.752568574003817,,,049,001,2019_May_20_1514,MusicAffectPsychophysiology2019,3.0.5,60.034724323620104,
To what extent did the music make you feel ,ACTIVE,30MonoWAV/30MonoH3.wav,2,2,1,7,,,,,1,14,30,6,0,6,6,9,,,,,,,,,5,0.9023463280027499,,,049,001,2019_May_20_1514,MusicAffectPsychophysiology2019,3.0.5,60.034724323620104,
To what extent did the music make you feel ,GUILTY,30MonoWAV/30MonoH3.wav,2,2,1,7,,,,,1,14,30,6,0,7,7,5,,,,,,,,,1,0.5839825449947966,,,049,001,2019_May_20_1514,MusicAffectPsychophysiology2019,3.0.5,60.034724323620104,
To what extent did the music make you feel ,SAD,30MonoWAV/30MonoH3.wav,2,2,1,7,,,,,1,14,30,6,0,8,8,0,,,,,,,,,1,0.6866336419989238,,,049,001,2019_May_20_1514,MusicAffectPsychophysiology2019,3.0.5,60.034724323620104,
To what extent did the music make you feel ,ANGRY,30MonoWAV/30MonoH3.wav,2,2,1,7,,,,,1,14,30,6,0,9,9,2,,,,,,,,,1,0.78587618599704,,,049,001,2019_May_20_1514,MusicAffectPsychophysiology2019,3.0.5,60.034724323620104,
To what extent did the music make you feel ,TENDER,30MonoWAV/30MonoH3.wav,2,2,1,7,,,,,1,14,30,6,0,10,10,10,,,,,,,,,1,0.7025827460020082,,,049,001,2019_May_20_1514,MusicAffectPsychophysiology2019,3.0.5,60.034724323620104,
To what extent did the music make you feel ,ANXIOUS ,30MonoWAV/30MonoH3.wav,2,2,1,7,,,,,1,14,30,6,0,11,11,1,,,,,,,,,1,0.8366589779980131,,,049,001,2019_May_20_1514,MusicAffectPsychophysiology2019,3.0.5,60.034724323620104,
,,30MonoWAV/30MonoH3.wav,2,2,1,7,,,,,1,14,30,6,,,,,,,,,,,,,,,,,049,001,2019_May_20_1514,MusicAffectPsychophysiology2019,3.0.5,60.034724323620104,
To what extent did the music make you feel ,HAPPY,30MonoWAV/30MonoH2.wav,2,2,1,6,,,,,1,15,31,5,0,0,0,6,,,4,3.75255649099563,5,0.8510487050007214,5,1.302339435002068,5,0.7348727860007784,,,049,001,2019_May_20_1514,MusicAffectPsychophysiology2019,3.0.5,60.034724323620104,
To what extent did the music make you feel ,EXCITED,30MonoWAV/30MonoH2.wav,2,2,1,6,,,,,1,15,31,5,0,1,1,7,,,,,,,,,5,0.5505141109970282,,,049,001,2019_May_20_1514,MusicAffectPsychophysiology2019,3.0.5,60.034724323620104,
To what extent did the music make you feel ,SCARED,30MonoWAV/30MonoH2.wav,2,2,1,6,,,,,1,15,31,5,0,2,2,11,,,,,,,,,1,0.6683284590035328,,,049,001,2019_May_20_1514,MusicAffectPsychophysiology2019,3.0.5,60.034724323620104,
To what extent did the music make you feel ,ASHAMED,30MonoWAV/30MonoH2.wav,2,2,1,6,,,,,1,15,31,5,0,3,3,4,,,,,,,,,5,0.6503486010042252,,,049,001,2019_May_20_1514,MusicAffectPsychophysiology2019,3.0.5,60.034724323620104,
To what extent did the music make you feel ,FRUSTRATED,30MonoWAV/30MonoH2.wav,2,2,1,6,,,,,1,15,31,5,0,4,4,3,,,,,,,,,1,1.5851448829998844,,,049,001,2019_May_20_1514,MusicAffectPsychophysiology2019,3.0.5,60.034724323620104,
To what extent did the music make you feel ,TENDER,30MonoWAV/30MonoH2.wav,2,2,1,6,,,,,1,15,31,5,0,5,5,10,,,,,,,,,4,3.3006830919985077,,,049,001,2019_May_20_1514,MusicAffectPsychophysiology2019,3.0.5,60.034724323620104,
To what extent did the music make you feel ,ANXIOUS ,30MonoWAV/30MonoH2.wav,2,2,1,6,,,,,1,15,31,5,0,6,6,1,,,,,,,,,1,1.0363311949986382,,,049,001,2019_May_20_1514,MusicAffectPsychophysiology2019,3.0.5,60.034724323620104,
To what extent did the music make you feel ,ALERT,30MonoWAV/30MonoH2.wav,2,2,1,6,,,,,1,15,31,5,0,7,7,8,,,,,,,,,4,0.8842469800001709,,,049,001,2019_May_20_1514,MusicAffectPsychophysiology2019,3.0.5,60.034724323620104,
To what extent did the music make you feel ,SAD,30MonoWAV/30MonoH2.wav,2,2,1,6,,,,,1,15,31,5,0,8,8,0,,,,,,,,,1,0.6517978330011829,,,049,001,2019_May_20_1514,MusicAffectPsychophysiology2019,3.0.5,60.034724323620104,
To what extent did the music make you feel ,ACTIVE,30MonoWAV/30MonoH2.wav,2,2,1,6,,,,,1,15,31,5,0,9,9,9,,,,,,,,,1,0.7855630210033269,,,049,001,2019_May_20_1514,MusicAffectPsychophysiology2019,3.0.5,60.034724323620104,
To what extent did the music make you feel ,ANGRY,30MonoWAV/30MonoH2.wav,2,2,1,6,,,,,1,15,31,5,0,10,10,2,,,,,,,,,1,1.1853526370032341,,,049,001,2019_May_20_1514,MusicAffectPsychophysiology2019,3.0.5,60.034724323620104,
To what extent did the music make you feel ,GUILTY,30MonoWAV/30MonoH2.wav,2,2,1,6,,,,,1,15,31,5,0,11,11,5,,,,,,,,,1,1.0359560910001164,,,049,001,2019_May_20_1514,MusicAffectPsychophysiology2019,3.0.5,60.034724323620104,
,,30MonoWAV/30MonoH2.wav,2,2,1,6,,,,,1,15,31,5,,,,,,,,,,,,,,,,,049,001,2019_May_20_1514,MusicAffectPsychophysiology2019,3.0.5,60.034724323620104,
,,,,,,,,,,,,,,,,,,,,,,,,,,,,,space,108.33872346799762,049,001,2019_May_20_1514,MusicAffectPsychophysiology2019,3.0.5,60.034724323620104,
