Instruction,Word,song,valence,arousal,affectcat,songmark,pracwords.thisRepN,pracwords.thisTrialN,pracwords.thisN,pracwords.thisIndex,songtrials.thisRepN,songtrials.thisTrialN,songtrials.thisN,songtrials.thisIndex,words.thisRepN,words.thisTrialN,words.thisN,words.thisIndex,begin.keys,begin.rt,arousalkey.keys,arousalkey.rt,valencekey.keys,valencekey.rt,likekey.keys,likekey.rt,WordResponse.keys,WordResponse.rt,key_resp_2.keys,key_resp_2.rt,participant,session,date,expName,psychopyVersion,frameRate,
,,,,,,,,,,,,,,,,,,,space,16.747913447004976,,,,,,,,,,,050,001,2019_May_20_1621,MusicAffectPsychophysiology2019,3.0.5,59.88980610876193,
,,,,,,,,,,,,,,,,,,,,,4,7.649658895999892,,,,,,,,,050,001,2019_May_20_1621,MusicAffectPsychophysiology2019,3.0.5,59.88980610876193,
,,,,,,,,,,,,,,,,,,,,,,,3,4.550665255999775,,,,,,,050,001,2019_May_20_1621,MusicAffectPsychophysiology2019,3.0.5,59.88980610876193,
,,,,,,,,,,,,,,,,,,,,,,,,,3,2.951348482994945,,,,,050,001,2019_May_20_1621,MusicAffectPsychophysiology2019,3.0.5,59.88980610876193,
To what extent did the music make you feel ,ALERT,,,,,,0,0,0,8,,,,,,,,,,,,,,,,,3,6.851806764003413,,,050,001,2019_May_20_1621,MusicAffectPsychophysiology2019,3.0.5,59.88980610876193,
To what extent did the music make you feel ,ASHAMED,,,,,,0,1,1,4,,,,,,,,,,,,,,,,,1,2.5514233650028473,,,050,001,2019_May_20_1621,MusicAffectPsychophysiology2019,3.0.5,59.88980610876193,
To what extent did the music make you feel ,FRUSTRATED,,,,,,0,2,2,3,,,,,,,,,,,,,,,,,1,1.6015659469994716,,,050,001,2019_May_20_1621,MusicAffectPsychophysiology2019,3.0.5,59.88980610876193,
To what extent did the music make you feel ,GUILTY,,,,,,0,3,3,5,,,,,,,,,,,,,,,,,1,1.233426368999062,,,050,001,2019_May_20_1621,MusicAffectPsychophysiology2019,3.0.5,59.88980610876193,
To what extent did the music make you feel ,EXCITED,,,,,,0,4,4,7,,,,,,,,,,,,,,,,,2,2.2168016950017773,,,050,001,2019_May_20_1621,MusicAffectPsychophysiology2019,3.0.5,59.88980610876193,
To what extent did the music make you feel ,SCARED,,,,,,0,5,5,11,,,,,,,,,,,,,,,,,1,1.1678049660040415,,,050,001,2019_May_20_1621,MusicAffectPsychophysiology2019,3.0.5,59.88980610876193,
To what extent did the music make you feel ,SAD,,,,,,0,6,6,0,,,,,,,,,,,,,,,,,2,1.5360628320049727,,,050,001,2019_May_20_1621,MusicAffectPsychophysiology2019,3.0.5,59.88980610876193,
To what extent did the music make you feel ,ANGRY,,,,,,0,7,7,2,,,,,,,,,,,,,,,,,1,1.051671081004315,,,050,001,2019_May_20_1621,MusicAffectPsychophysiology2019,3.0.5,59.88980610876193,
To what extent did the music make you feel ,TENDER,,,,,,0,8,8,10,,,,,,,,,,,,,,,,,4,1.7347185220060055,,,050,001,2019_May_20_1621,MusicAffectPsychophysiology2019,3.0.5,59.88980610876193,
To what extent did the music make you feel ,ANXIOUS ,,,,,,0,9,9,1,,,,,,,,,,,,,,,,,1,1.6521107480002684,,,050,001,2019_May_20_1621,MusicAffectPsychophysiology2019,3.0.5,59.88980610876193,
To what extent did the music make you feel ,ACTIVE,,,,,,0,10,10,9,,,,,,,,,,,,,,,,,2,1.268196099998022,,,050,001,2019_May_20_1621,MusicAffectPsychophysiology2019,3.0.5,59.88980610876193,
To what extent did the music make you feel ,HAPPY,,,,,,0,11,11,6,,,,,,,,,,,,,,,,,2,1.9016915799948038,,,050,001,2019_May_20_1621,MusicAffectPsychophysiology2019,3.0.5,59.88980610876193,
To what extent did the music make you feel ,GUILTY,30MonoWAV/30MonoS3.wav,1,1,3,11,,,,,0,0,0,10,0,0,0,5,,,3,5.376684558003035,2,2.8724172829970485,2,2.1894549720018404,2,1.4680264570051804,,,050,001,2019_May_20_1621,MusicAffectPsychophysiology2019,3.0.5,59.88980610876193,
To what extent did the music make you feel ,ANXIOUS ,30MonoWAV/30MonoS3.wav,1,1,3,11,,,,,0,0,0,10,0,1,1,1,,,,,,,,,3,2.284732444997644,,,050,001,2019_May_20_1621,MusicAffectPsychophysiology2019,3.0.5,59.88980610876193,
To what extent did the music make you feel ,SCARED,30MonoWAV/30MonoS3.wav,1,1,3,11,,,,,0,0,0,10,0,2,2,11,,,,,,,,,3,2.1347527659963816,,,050,001,2019_May_20_1621,MusicAffectPsychophysiology2019,3.0.5,59.88980610876193,
To what extent did the music make you feel ,EXCITED,30MonoWAV/30MonoS3.wav,1,1,3,11,,,,,0,0,0,10,0,3,3,7,,,,,,,,,1,2.484006642996974,,,050,001,2019_May_20_1621,MusicAffectPsychophysiology2019,3.0.5,59.88980610876193,
To what extent did the music make you feel ,ACTIVE,30MonoWAV/30MonoS3.wav,1,1,3,11,,,,,0,0,0,10,0,4,4,9,,,,,,,,,1,1.8186099349986762,,,050,001,2019_May_20_1621,MusicAffectPsychophysiology2019,3.0.5,59.88980610876193,
To what extent did the music make you feel ,HAPPY,30MonoWAV/30MonoS3.wav,1,1,3,11,,,,,0,0,0,10,0,5,5,6,,,,,,,,,1,2.00158914700296,,,050,001,2019_May_20_1621,MusicAffectPsychophysiology2019,3.0.5,59.88980610876193,
To what extent did the music make you feel ,SAD,30MonoWAV/30MonoS3.wav,1,1,3,11,,,,,0,0,0,10,0,6,6,0,,,,,,,,,2,1.0018743440014077,,,050,001,2019_May_20_1621,MusicAffectPsychophysiology2019,3.0.5,59.88980610876193,
To what extent did the music make you feel ,ANGRY,30MonoWAV/30MonoS3.wav,1,1,3,11,,,,,0,0,0,10,0,7,7,2,,,,,,,,,1,1.9352430340004503,,,050,001,2019_May_20_1621,MusicAffectPsychophysiology2019,3.0.5,59.88980610876193,
To what extent did the music make you feel ,TENDER,30MonoWAV/30MonoS3.wav,1,1,3,11,,,,,0,0,0,10,0,8,8,10,,,,,,,,,2,1.3014867469973979,,,050,001,2019_May_20_1621,MusicAffectPsychophysiology2019,3.0.5,59.88980610876193,
To what extent did the music make you feel ,FRUSTRATED,30MonoWAV/30MonoS3.wav,1,1,3,11,,,,,0,0,0,10,0,9,9,3,,,,,,,,,1,1.2692996309997397,,,050,001,2019_May_20_1621,MusicAffectPsychophysiology2019,3.0.5,59.88980610876193,
To what extent did the music make you feel ,ALERT,30MonoWAV/30MonoS3.wav,1,1,3,11,,,,,0,0,0,10,0,10,10,8,,,,,,,,,3,2.085211479999998,,,050,001,2019_May_20_1621,MusicAffectPsychophysiology2019,3.0.5,59.88980610876193,
To what extent did the music make you feel ,ASHAMED,30MonoWAV/30MonoS3.wav,1,1,3,11,,,,,0,0,0,10,0,11,11,4,,,,,,,,,2,1.7686243669959367,,,050,001,2019_May_20_1621,MusicAffectPsychophysiology2019,3.0.5,59.88980610876193,
,,30MonoWAV/30MonoS3.wav,1,1,3,11,,,,,0,0,0,10,,,,,,,,,,,,,,,,,050,001,2019_May_20_1621,MusicAffectPsychophysiology2019,3.0.5,59.88980610876193,
To what extent did the music make you feel ,TENDER,30MonoWAV/30MonoF1.wav,1,2,2,1,,,,,0,1,1,0,0,0,0,10,,,4,3.302026981000381,2,3.617564634005248,1,2.4354076930030715,1,1.5684194089990342,,,050,001,2019_May_20_1621,MusicAffectPsychophysiology2019,3.0.5,59.88980610876193,
To what extent did the music make you feel ,ANGRY,30MonoWAV/30MonoF1.wav,1,2,2,1,,,,,0,1,1,0,0,1,1,2,,,,,,,,,2,2.2687065770005574,,,050,001,2019_May_20_1621,MusicAffectPsychophysiology2019,3.0.5,59.88980610876193,
To what extent did the music make you feel ,FRUSTRATED,30MonoWAV/30MonoF1.wav,1,2,2,1,,,,,0,1,1,0,0,2,2,3,,,,,,,,,2,1.4672774740029126,,,050,001,2019_May_20_1621,MusicAffectPsychophysiology2019,3.0.5,59.88980610876193,
To what extent did the music make you feel ,SAD,30MonoWAV/30MonoF1.wav,1,2,2,1,,,,,0,1,1,0,0,3,3,0,,,,,,,,,1,1.5009899769938784,,,050,001,2019_May_20_1621,MusicAffectPsychophysiology2019,3.0.5,59.88980610876193,
To what extent did the music make you feel ,ACTIVE,30MonoWAV/30MonoF1.wav,1,2,2,1,,,,,0,1,1,0,0,4,4,9,,,,,,,,,3,1.4185898469950189,,,050,001,2019_May_20_1621,MusicAffectPsychophysiology2019,3.0.5,59.88980610876193,
To what extent did the music make you feel ,EXCITED,30MonoWAV/30MonoF1.wav,1,2,2,1,,,,,0,1,1,0,0,5,5,7,,,,,,,,,2,1.5183026380036608,,,050,001,2019_May_20_1621,MusicAffectPsychophysiology2019,3.0.5,59.88980610876193,
To what extent did the music make you feel ,ALERT,30MonoWAV/30MonoF1.wav,1,2,2,1,,,,,0,1,1,0,0,6,6,8,,,,,,,,,4,1.7510064450034406,,,050,001,2019_May_20_1621,MusicAffectPsychophysiology2019,3.0.5,59.88980610876193,
To what extent did the music make you feel ,SCARED,30MonoWAV/30MonoF1.wav,1,2,2,1,,,,,0,1,1,0,0,7,7,11,,,,,,,,,4,1.385559859998466,,,050,001,2019_May_20_1621,MusicAffectPsychophysiology2019,3.0.5,59.88980610876193,
To what extent did the music make you feel ,HAPPY,30MonoWAV/30MonoF1.wav,1,2,2,1,,,,,0,1,1,0,0,8,8,6,,,,,,,,,1,1.6515879389990005,,,050,001,2019_May_20_1621,MusicAffectPsychophysiology2019,3.0.5,59.88980610876193,
To what extent did the music make you feel ,ASHAMED,30MonoWAV/30MonoF1.wav,1,2,2,1,,,,,0,1,1,0,0,9,9,4,,,,,,,,,2,1.2006341329979477,,,050,001,2019_May_20_1621,MusicAffectPsychophysiology2019,3.0.5,59.88980610876193,
To what extent did the music make you feel ,GUILTY,30MonoWAV/30MonoF1.wav,1,2,2,1,,,,,0,1,1,0,0,10,10,5,,,,,,,,,2,1.1678110380016733,,,050,001,2019_May_20_1621,MusicAffectPsychophysiology2019,3.0.5,59.88980610876193,
To what extent did the music make you feel ,ANXIOUS ,30MonoWAV/30MonoF1.wav,1,2,2,1,,,,,0,1,1,0,0,11,11,1,,,,,,,,,3,1.7350193750025937,,,050,001,2019_May_20_1621,MusicAffectPsychophysiology2019,3.0.5,59.88980610876193,
,,30MonoWAV/30MonoF1.wav,1,2,2,1,,,,,0,1,1,0,,,,,,,,,,,,,,,,,050,001,2019_May_20_1621,MusicAffectPsychophysiology2019,3.0.5,59.88980610876193,
To what extent did the music make you feel ,TENDER,30MonoWAV/30MonoS2.wav,1,1,3,10,,,,,0,2,2,9,0,0,0,10,,,2,3.5909522980000474,3,4.556448046001606,2,1.7068714699998964,5,2.5041690799989738,,,050,001,2019_May_20_1621,MusicAffectPsychophysiology2019,3.0.5,59.88980610876193,
To what extent did the music make you feel ,SCARED,30MonoWAV/30MonoS2.wav,1,1,3,10,,,,,0,2,2,9,0,1,1,11,,,,,,,,,1,1.168541891995119,,,050,001,2019_May_20_1621,MusicAffectPsychophysiology2019,3.0.5,59.88980610876193,
To what extent did the music make you feel ,ANXIOUS ,30MonoWAV/30MonoS2.wav,1,1,3,10,,,,,0,2,2,9,0,2,2,1,,,,,,,,,1,1.0680071240058169,,,050,001,2019_May_20_1621,MusicAffectPsychophysiology2019,3.0.5,59.88980610876193,
To what extent did the music make you feel ,ASHAMED,30MonoWAV/30MonoS2.wav,1,1,3,10,,,,,0,2,2,9,0,3,3,4,,,,,,,,,1,0.917855972002144,,,050,001,2019_May_20_1621,MusicAffectPsychophysiology2019,3.0.5,59.88980610876193,
To what extent did the music make you feel ,ACTIVE,30MonoWAV/30MonoS2.wav,1,1,3,10,,,,,0,2,2,9,0,4,4,9,,,,,,,,,2,1.2510731989968917,,,050,001,2019_May_20_1621,MusicAffectPsychophysiology2019,3.0.5,59.88980610876193,
To what extent did the music make you feel ,EXCITED,30MonoWAV/30MonoS2.wav,1,1,3,10,,,,,0,2,2,9,0,5,5,7,,,,,,,,,2,1.3353000349961803,,,050,001,2019_May_20_1621,MusicAffectPsychophysiology2019,3.0.5,59.88980610876193,
To what extent did the music make you feel ,ALERT,30MonoWAV/30MonoS2.wav,1,1,3,10,,,,,0,2,2,9,0,6,6,8,,,,,,,,,3,1.0190217119961744,,,050,001,2019_May_20_1621,MusicAffectPsychophysiology2019,3.0.5,59.88980610876193,
To what extent did the music make you feel ,FRUSTRATED,30MonoWAV/30MonoS2.wav,1,1,3,10,,,,,0,2,2,9,0,7,7,3,,,,,,,,,1,1.0517495929962024,,,050,001,2019_May_20_1621,MusicAffectPsychophysiology2019,3.0.5,59.88980610876193,
To what extent did the music make you feel ,ANGRY,30MonoWAV/30MonoS2.wav,1,1,3,10,,,,,0,2,2,9,0,8,8,2,,,,,,,,,1,0.8998829339980148,,,050,001,2019_May_20_1621,MusicAffectPsychophysiology2019,3.0.5,59.88980610876193,
To what extent did the music make you feel ,GUILTY,30MonoWAV/30MonoS2.wav,1,1,3,10,,,,,0,2,2,9,0,9,9,5,,,,,,,,,1,0.8856959129989264,,,050,001,2019_May_20_1621,MusicAffectPsychophysiology2019,3.0.5,59.88980610876193,
To what extent did the music make you feel ,SAD,30MonoWAV/30MonoS2.wav,1,1,3,10,,,,,0,2,2,9,0,10,10,0,,,,,,,,,4,2.3845810310012894,,,050,001,2019_May_20_1621,MusicAffectPsychophysiology2019,3.0.5,59.88980610876193,
To what extent did the music make you feel ,HAPPY,30MonoWAV/30MonoS2.wav,1,1,3,10,,,,,0,2,2,9,0,11,11,6,,,,,,,,,2,1.3692864230033592,,,050,001,2019_May_20_1621,MusicAffectPsychophysiology2019,3.0.5,59.88980610876193,
,,30MonoWAV/30MonoS2.wav,1,1,3,10,,,,,0,2,2,9,,,,,,,,,,,,,,,,,050,001,2019_May_20_1621,MusicAffectPsychophysiology2019,3.0.5,59.88980610876193,
To what extent did the music make you feel ,FRUSTRATED,30MonoWAV/30MonoS1.wav,1,1,3,9,,,,,0,3,3,8,0,0,0,3,,,2,3.2678807269985555,2,1.8353126590009197,2,1.8351815290006925,1,1.734688365002512,,,050,001,2019_May_20_1621,MusicAffectPsychophysiology2019,3.0.5,59.88980610876193,
To what extent did the music make you feel ,SAD,30MonoWAV/30MonoS1.wav,1,1,3,9,,,,,0,3,3,8,0,1,1,0,,,,,,,,,5,3.3683579089993145,,,050,001,2019_May_20_1621,MusicAffectPsychophysiology2019,3.0.5,59.88980610876193,
To what extent did the music make you feel ,TENDER,30MonoWAV/30MonoS1.wav,1,1,3,9,,,,,0,3,3,8,0,2,2,10,,,,,,,,,4,1.1853697870028554,,,050,001,2019_May_20_1621,MusicAffectPsychophysiology2019,3.0.5,59.88980610876193,
To what extent did the music make you feel ,ANXIOUS ,30MonoWAV/30MonoS1.wav,1,1,3,9,,,,,0,3,3,8,0,3,3,1,,,,,,,,,2,1.9853769859983004,,,050,001,2019_May_20_1621,MusicAffectPsychophysiology2019,3.0.5,59.88980610876193,
To what extent did the music make you feel ,ALERT,30MonoWAV/30MonoS1.wav,1,1,3,9,,,,,0,3,3,8,0,4,4,8,,,,,,,,,2,1.00214287199924,,,050,001,2019_May_20_1621,MusicAffectPsychophysiology2019,3.0.5,59.88980610876193,
To what extent did the music make you feel ,ACTIVE,30MonoWAV/30MonoS1.wav,1,1,3,9,,,,,0,3,3,8,0,5,5,9,,,,,,,,,2,1.0019053720025113,,,050,001,2019_May_20_1621,MusicAffectPsychophysiology2019,3.0.5,59.88980610876193,
To what extent did the music make you feel ,HAPPY,30MonoWAV/30MonoS1.wav,1,1,3,9,,,,,0,3,3,8,0,6,6,6,,,,,,,,,2,1.0676473730054568,,,050,001,2019_May_20_1621,MusicAffectPsychophysiology2019,3.0.5,59.88980610876193,
To what extent did the music make you feel ,GUILTY,30MonoWAV/30MonoS1.wav,1,1,3,9,,,,,0,3,3,8,0,7,7,5,,,,,,,,,3,1.2332056700033718,,,050,001,2019_May_20_1621,MusicAffectPsychophysiology2019,3.0.5,59.88980610876193,
To what extent did the music make you feel ,ASHAMED,30MonoWAV/30MonoS1.wav,1,1,3,9,,,,,0,3,3,8,0,8,8,4,,,,,,,,,3,1.0517902320061694,,,050,001,2019_May_20_1621,MusicAffectPsychophysiology2019,3.0.5,59.88980610876193,
To what extent did the music make you feel ,EXCITED,30MonoWAV/30MonoS1.wav,1,1,3,9,,,,,0,3,3,8,0,9,9,7,,,,,,,,,1,2.0349990899994737,,,050,001,2019_May_20_1621,MusicAffectPsychophysiology2019,3.0.5,59.88980610876193,
To what extent did the music make you feel ,SCARED,30MonoWAV/30MonoS1.wav,1,1,3,9,,,,,0,3,3,8,0,10,10,11,,,,,,,,,2,3.0189125040051294,,,050,001,2019_May_20_1621,MusicAffectPsychophysiology2019,3.0.5,59.88980610876193,
To what extent did the music make you feel ,ANGRY,30MonoWAV/30MonoS1.wav,1,1,3,9,,,,,0,3,3,8,0,11,11,2,,,,,,,,,1,0.9843986519990722,,,050,001,2019_May_20_1621,MusicAffectPsychophysiology2019,3.0.5,59.88980610876193,
,,30MonoWAV/30MonoS1.wav,1,1,3,9,,,,,0,3,3,8,,,,,,,,,,,,,,,,,050,001,2019_May_20_1621,MusicAffectPsychophysiology2019,3.0.5,59.88980610876193,
To what extent did the music make you feel ,SAD,30MonoWAV/30MonoH3.wav,2,2,1,7,,,,,0,4,4,6,0,0,0,0,,,4,3.9359274020025623,4,2.9832186240018927,3,1.9183112749960856,1,1.5676732349966187,,,050,001,2019_May_20_1621,MusicAffectPsychophysiology2019,3.0.5,59.88980610876193,
To what extent did the music make you feel ,SCARED,30MonoWAV/30MonoH3.wav,2,2,1,7,,,,,0,4,4,6,0,1,1,11,,,,,,,,,1,0.7682565909999539,,,050,001,2019_May_20_1621,MusicAffectPsychophysiology2019,3.0.5,59.88980610876193,
To what extent did the music make you feel ,HAPPY,30MonoWAV/30MonoH3.wav,2,2,1,7,,,,,0,4,4,6,0,2,2,6,,,,,,,,,4,1.751107662996219,,,050,001,2019_May_20_1621,MusicAffectPsychophysiology2019,3.0.5,59.88980610876193,
To what extent did the music make you feel ,ANGRY,30MonoWAV/30MonoH3.wav,2,2,1,7,,,,,0,4,4,6,0,3,3,2,,,,,,,,,1,1.0679907820012886,,,050,001,2019_May_20_1621,MusicAffectPsychophysiology2019,3.0.5,59.88980610876193,
To what extent did the music make you feel ,ASHAMED,30MonoWAV/30MonoH3.wav,2,2,1,7,,,,,0,4,4,6,0,4,4,4,,,,,,,,,1,1.133969453003374,,,050,001,2019_May_20_1621,MusicAffectPsychophysiology2019,3.0.5,59.88980610876193,
To what extent did the music make you feel ,FRUSTRATED,30MonoWAV/30MonoH3.wav,2,2,1,7,,,,,0,4,4,6,0,5,5,3,,,,,,,,,1,0.7678525570008787,,,050,001,2019_May_20_1621,MusicAffectPsychophysiology2019,3.0.5,59.88980610876193,
To what extent did the music make you feel ,GUILTY,30MonoWAV/30MonoH3.wav,2,2,1,7,,,,,0,4,4,6,0,6,6,5,,,,,,,,,1,1.1850764009941486,,,050,001,2019_May_20_1621,MusicAffectPsychophysiology2019,3.0.5,59.88980610876193,
To what extent did the music make you feel ,ALERT,30MonoWAV/30MonoH3.wav,2,2,1,7,,,,,0,4,4,6,0,7,7,8,,,,,,,,,4,2.300917829001264,,,050,001,2019_May_20_1621,MusicAffectPsychophysiology2019,3.0.5,59.88980610876193,
To what extent did the music make you feel ,ANXIOUS ,30MonoWAV/30MonoH3.wav,2,2,1,7,,,,,0,4,4,6,0,8,8,1,,,,,,,,,1,1.1189044040002045,,,050,001,2019_May_20_1621,MusicAffectPsychophysiology2019,3.0.5,59.88980610876193,
To what extent did the music make you feel ,EXCITED,30MonoWAV/30MonoH3.wav,2,2,1,7,,,,,0,4,4,6,0,9,9,7,,,,,,,,,4,1.2183915310015436,,,050,001,2019_May_20_1621,MusicAffectPsychophysiology2019,3.0.5,59.88980610876193,
To what extent did the music make you feel ,TENDER,30MonoWAV/30MonoH3.wav,2,2,1,7,,,,,0,4,4,6,0,10,10,10,,,,,,,,,3,1.118425042994204,,,050,001,2019_May_20_1621,MusicAffectPsychophysiology2019,3.0.5,59.88980610876193,
To what extent did the music make you feel ,ACTIVE,30MonoWAV/30MonoH3.wav,2,2,1,7,,,,,0,4,4,6,0,11,11,9,,,,,,,,,4,2.1181227039996884,,,050,001,2019_May_20_1621,MusicAffectPsychophysiology2019,3.0.5,59.88980610876193,
,,30MonoWAV/30MonoH3.wav,2,2,1,7,,,,,0,4,4,6,,,,,,,,,,,,,,,,,050,001,2019_May_20_1621,MusicAffectPsychophysiology2019,3.0.5,59.88980610876193,
To what extent did the music make you feel ,SAD,30MonoWAV/30MonoT3.wav,2,1,4,15,,,,,0,5,5,14,0,0,0,0,,,2,4.285553219000576,2,5.551477231994795,2,2.1351995969962445,4,2.333013071998721,,,050,001,2019_May_20_1621,MusicAffectPsychophysiology2019,3.0.5,59.88980610876193,
To what extent did the music make you feel ,EXCITED,30MonoWAV/30MonoT3.wav,2,1,4,15,,,,,0,5,5,14,0,1,1,7,,,,,,,,,1,1.385552567000559,,,050,001,2019_May_20_1621,MusicAffectPsychophysiology2019,3.0.5,59.88980610876193,
To what extent did the music make you feel ,SCARED,30MonoWAV/30MonoT3.wav,2,1,4,15,,,,,0,5,5,14,0,2,2,11,,,,,,,,,2,1.151649211999029,,,050,001,2019_May_20_1621,MusicAffectPsychophysiology2019,3.0.5,59.88980610876193,
To what extent did the music make you feel ,GUILTY,30MonoWAV/30MonoT3.wav,2,1,4,15,,,,,0,5,5,14,0,3,3,5,,,,,,,,,2,0.9853987059977953,,,050,001,2019_May_20_1621,MusicAffectPsychophysiology2019,3.0.5,59.88980610876193,
To what extent did the music make you feel ,ACTIVE,30MonoWAV/30MonoT3.wav,2,1,4,15,,,,,0,5,5,14,0,4,4,9,,,,,,,,,1,3.6178021899977466,,,050,001,2019_May_20_1621,MusicAffectPsychophysiology2019,3.0.5,59.88980610876193,
To what extent did the music make you feel ,ANXIOUS ,30MonoWAV/30MonoT3.wav,2,1,4,15,,,,,0,5,5,14,0,5,5,1,,,,,,,,,3,2.017148047001683,,,050,001,2019_May_20_1621,MusicAffectPsychophysiology2019,3.0.5,59.88980610876193,
To what extent did the music make you feel ,ANGRY,30MonoWAV/30MonoT3.wav,2,1,4,15,,,,,0,5,5,14,0,6,6,2,,,,,,,,,1,1.0844834890012862,,,050,001,2019_May_20_1621,MusicAffectPsychophysiology2019,3.0.5,59.88980610876193,
To what extent did the music make you feel ,ASHAMED,30MonoWAV/30MonoT3.wav,2,1,4,15,,,,,0,5,5,14,0,7,7,4,,,,,,,,,2,1.0352183159993729,,,050,001,2019_May_20_1621,MusicAffectPsychophysiology2019,3.0.5,59.88980610876193,
To what extent did the music make you feel ,FRUSTRATED,30MonoWAV/30MonoT3.wav,2,1,4,15,,,,,0,5,5,14,0,8,8,3,,,,,,,,,1,0.9349136980017647,,,050,001,2019_May_20_1621,MusicAffectPsychophysiology2019,3.0.5,59.88980610876193,
To what extent did the music make you feel ,TENDER,30MonoWAV/30MonoT3.wav,2,1,4,15,,,,,0,5,5,14,0,9,9,10,,,,,,,,,3,2.085056704003364,,,050,001,2019_May_20_1621,MusicAffectPsychophysiology2019,3.0.5,59.88980610876193,
To what extent did the music make you feel ,ALERT,30MonoWAV/30MonoT3.wav,2,1,4,15,,,,,0,5,5,14,0,10,10,8,,,,,,,,,1,0.9842389890036429,,,050,001,2019_May_20_1621,MusicAffectPsychophysiology2019,3.0.5,59.88980610876193,
To what extent did the music make you feel ,HAPPY,30MonoWAV/30MonoT3.wav,2,1,4,15,,,,,0,5,5,14,0,11,11,6,,,,,,,,,2,1.4012672769968049,,,050,001,2019_May_20_1621,MusicAffectPsychophysiology2019,3.0.5,59.88980610876193,
,,30MonoWAV/30MonoT3.wav,2,1,4,15,,,,,0,5,5,14,,,,,,,,,,,,,,,,,050,001,2019_May_20_1621,MusicAffectPsychophysiology2019,3.0.5,59.88980610876193,
To what extent did the music make you feel ,HAPPY,30MonoWAV/30MonoT4.wav,2,1,4,16,,,,,0,6,6,15,0,0,0,6,,,3,3.684810204002133,3,1.6684815089975018,3,1.5017774640000425,3,1.8165408439963358,,,050,001,2019_May_20_1621,MusicAffectPsychophysiology2019,3.0.5,59.88980610876193,
To what extent did the music make you feel ,ANXIOUS ,30MonoWAV/30MonoT4.wav,2,1,4,16,,,,,0,6,6,15,0,1,1,1,,,,,,,,,2,1.285978124004032,,,050,001,2019_May_20_1621,MusicAffectPsychophysiology2019,3.0.5,59.88980610876193,
To what extent did the music make you feel ,GUILTY,30MonoWAV/30MonoT4.wav,2,1,4,16,,,,,0,6,6,15,0,2,2,5,,,,,,,,,1,1.7026468369949725,,,050,001,2019_May_20_1621,MusicAffectPsychophysiology2019,3.0.5,59.88980610876193,
To what extent did the music make you feel ,ASHAMED,30MonoWAV/30MonoT4.wav,2,1,4,16,,,,,0,6,6,15,0,3,3,4,,,,,,,,,1,0.7831922459954512,,,050,001,2019_May_20_1621,MusicAffectPsychophysiology2019,3.0.5,59.88980610876193,
To what extent did the music make you feel ,ANGRY,30MonoWAV/30MonoT4.wav,2,1,4,16,,,,,0,6,6,15,0,4,4,2,,,,,,,,,1,0.7556004840007517,,,050,001,2019_May_20_1621,MusicAffectPsychophysiology2019,3.0.5,59.88980610876193,
To what extent did the music make you feel ,ALERT,30MonoWAV/30MonoT4.wav,2,1,4,16,,,,,0,6,6,15,0,5,5,8,,,,,,,,,3,1.4866706030006753,,,050,001,2019_May_20_1621,MusicAffectPsychophysiology2019,3.0.5,59.88980610876193,
To what extent did the music make you feel ,TENDER,30MonoWAV/30MonoT4.wav,2,1,4,16,,,,,0,6,6,15,0,6,6,10,,,,,,,,,4,1.0195979130003252,,,050,001,2019_May_20_1621,MusicAffectPsychophysiology2019,3.0.5,59.88980610876193,
To what extent did the music make you feel ,SCARED,30MonoWAV/30MonoT4.wav,2,1,4,16,,,,,0,6,6,15,0,7,7,11,,,,,,,,,1,0.9525717689975863,,,050,001,2019_May_20_1621,MusicAffectPsychophysiology2019,3.0.5,59.88980610876193,
To what extent did the music make you feel ,EXCITED,30MonoWAV/30MonoT4.wav,2,1,4,16,,,,,0,6,6,15,0,8,8,7,,,,,,,,,2,1.4371907269960502,,,050,001,2019_May_20_1621,MusicAffectPsychophysiology2019,3.0.5,59.88980610876193,
To what extent did the music make you feel ,FRUSTRATED,30MonoWAV/30MonoT4.wav,2,1,4,16,,,,,0,6,6,15,0,9,9,3,,,,,,,,,1,0.9860831069963751,,,050,001,2019_May_20_1621,MusicAffectPsychophysiology2019,3.0.5,59.88980610876193,
To what extent did the music make you feel ,ACTIVE,30MonoWAV/30MonoT4.wav,2,1,4,16,,,,,0,6,6,15,0,10,10,9,,,,,,,,,2,1.2908003920019837,,,050,001,2019_May_20_1621,MusicAffectPsychophysiology2019,3.0.5,59.88980610876193,
To what extent did the music make you feel ,SAD,30MonoWAV/30MonoT4.wav,2,1,4,16,,,,,0,6,6,15,0,11,11,0,,,,,,,,,3,1.7687110459955875,,,050,001,2019_May_20_1621,MusicAffectPsychophysiology2019,3.0.5,59.88980610876193,
,,30MonoWAV/30MonoT4.wav,2,1,4,16,,,,,0,6,6,15,,,,,,,,,,,,,,,,,050,001,2019_May_20_1621,MusicAffectPsychophysiology2019,3.0.5,59.88980610876193,
To what extent did the music make you feel ,SCARED,30MonoWAV/30MonoT2.wav,2,1,4,14,,,,,0,7,7,13,0,0,0,11,,,3,3.0385306219977792,4,1.7446267009945586,4,1.4343431109955418,1,1.4181650099999388,,,050,001,2019_May_20_1621,MusicAffectPsychophysiology2019,3.0.5,59.88980610876193,
To what extent did the music make you feel ,SAD,30MonoWAV/30MonoT2.wav,2,1,4,14,,,,,0,7,7,13,0,1,1,0,,,,,,,,,3,2.2669680529943435,,,050,001,2019_May_20_1621,MusicAffectPsychophysiology2019,3.0.5,59.88980610876193,
To what extent did the music make you feel ,ACTIVE,30MonoWAV/30MonoT2.wav,2,1,4,14,,,,,0,7,7,13,0,2,2,9,,,,,,,,,2,1.0343069179943996,,,050,001,2019_May_20_1621,MusicAffectPsychophysiology2019,3.0.5,59.88980610876193,
To what extent did the music make you feel ,FRUSTRATED,30MonoWAV/30MonoT2.wav,2,1,4,14,,,,,0,7,7,13,0,3,3,3,,,,,,,,,1,0.9683998719992815,,,050,001,2019_May_20_1621,MusicAffectPsychophysiology2019,3.0.5,59.88980610876193,
To what extent did the music make you feel ,ASHAMED,30MonoWAV/30MonoT2.wav,2,1,4,14,,,,,0,7,7,13,0,4,4,4,,,,,,,,,1,0.7188966129979235,,,050,001,2019_May_20_1621,MusicAffectPsychophysiology2019,3.0.5,59.88980610876193,
To what extent did the music make you feel ,GUILTY,30MonoWAV/30MonoT2.wav,2,1,4,14,,,,,0,7,7,13,0,5,5,5,,,,,,,,,1,0.5858725479993154,,,050,001,2019_May_20_1621,MusicAffectPsychophysiology2019,3.0.5,59.88980610876193,
To what extent did the music make you feel ,ANGRY,30MonoWAV/30MonoT2.wav,2,1,4,14,,,,,0,7,7,13,0,6,6,2,,,,,,,,,1,1.3186156130032032,,,050,001,2019_May_20_1621,MusicAffectPsychophysiology2019,3.0.5,59.88980610876193,
To what extent did the music make you feel ,ANXIOUS ,30MonoWAV/30MonoT2.wav,2,1,4,14,,,,,0,7,7,13,0,7,7,1,,,,,,,,,2,1.0184292510020896,,,050,001,2019_May_20_1621,MusicAffectPsychophysiology2019,3.0.5,59.88980610876193,
To what extent did the music make you feel ,EXCITED,30MonoWAV/30MonoT2.wav,2,1,4,14,,,,,0,7,7,13,0,8,8,7,,,,,,,,,3,1.0011111729982076,,,050,001,2019_May_20_1621,MusicAffectPsychophysiology2019,3.0.5,59.88980610876193,
To what extent did the music make you feel ,ALERT,30MonoWAV/30MonoT2.wav,2,1,4,14,,,,,0,7,7,13,0,9,9,8,,,,,,,,,3,0.9516038639994804,,,050,001,2019_May_20_1621,MusicAffectPsychophysiology2019,3.0.5,59.88980610876193,
To what extent did the music make you feel ,TENDER,30MonoWAV/30MonoT2.wav,2,1,4,14,,,,,0,7,7,13,0,10,10,10,,,,,,,,,5,2.502487702004146,,,050,001,2019_May_20_1621,MusicAffectPsychophysiology2019,3.0.5,59.88980610876193,
To what extent did the music make you feel ,HAPPY,30MonoWAV/30MonoT2.wav,2,1,4,14,,,,,0,7,7,13,0,11,11,6,,,,,,,,,3,1.085258569000871,,,050,001,2019_May_20_1621,MusicAffectPsychophysiology2019,3.0.5,59.88980610876193,
,,30MonoWAV/30MonoT2.wav,2,1,4,14,,,,,0,7,7,13,,,,,,,,,,,,,,,,,050,001,2019_May_20_1621,MusicAffectPsychophysiology2019,3.0.5,59.88980610876193,
To what extent did the music make you feel ,ACTIVE,30MonoWAV/30MonoF2.wav,1,2,2,2,,,,,0,8,8,1,0,0,0,9,,,4,3.933685167998192,1,1.18419255399931,1,0.9518975739993039,3,2.400385933004145,,,050,001,2019_May_20_1621,MusicAffectPsychophysiology2019,3.0.5,59.88980610876193,
To what extent did the music make you feel ,ANXIOUS ,30MonoWAV/30MonoF2.wav,1,2,2,2,,,,,0,8,8,1,0,1,1,1,,,,,,,,,4,1.6162261879944708,,,050,001,2019_May_20_1621,MusicAffectPsychophysiology2019,3.0.5,59.88980610876193,
To what extent did the music make you feel ,HAPPY,30MonoWAV/30MonoF2.wav,1,2,2,2,,,,,0,8,8,1,0,2,2,6,,,,,,,,,1,0.9676482580034644,,,050,001,2019_May_20_1621,MusicAffectPsychophysiology2019,3.0.5,59.88980610876193,
To what extent did the music make you feel ,FRUSTRATED,30MonoWAV/30MonoF2.wav,1,2,2,2,,,,,0,8,8,1,0,3,3,3,,,,,,,,,1,1.0361498820057022,,,050,001,2019_May_20_1621,MusicAffectPsychophysiology2019,3.0.5,59.88980610876193,
To what extent did the music make you feel ,TENDER,30MonoWAV/30MonoF2.wav,1,2,2,2,,,,,0,8,8,1,0,4,4,10,,,,,,,,,1,0.9028212510020239,,,050,001,2019_May_20_1621,MusicAffectPsychophysiology2019,3.0.5,59.88980610876193,
To what extent did the music make you feel ,GUILTY,30MonoWAV/30MonoF2.wav,1,2,2,2,,,,,0,8,8,1,0,5,5,5,,,,,,,,,2,1.0679058259993326,,,050,001,2019_May_20_1621,MusicAffectPsychophysiology2019,3.0.5,59.88980610876193,
To what extent did the music make you feel ,SAD,30MonoWAV/30MonoF2.wav,1,2,2,2,,,,,0,8,8,1,0,6,6,0,,,,,,,,,3,1.549017854995327,,,050,001,2019_May_20_1621,MusicAffectPsychophysiology2019,3.0.5,59.88980610876193,
To what extent did the music make you feel ,EXCITED,30MonoWAV/30MonoF2.wav,1,2,2,2,,,,,0,8,8,1,0,7,7,7,,,,,,,,,1,1.0341578880033921,,,050,001,2019_May_20_1621,MusicAffectPsychophysiology2019,3.0.5,59.88980610876193,
To what extent did the music make you feel ,ANGRY,30MonoWAV/30MonoF2.wav,1,2,2,2,,,,,0,8,8,1,0,8,8,2,,,,,,,,,1,0.8184091969960718,,,050,001,2019_May_20_1621,MusicAffectPsychophysiology2019,3.0.5,59.88980610876193,
To what extent did the music make you feel ,SCARED,30MonoWAV/30MonoF2.wav,1,2,2,2,,,,,0,8,8,1,0,9,9,11,,,,,,,,,5,1.5349233509987243,,,050,001,2019_May_20_1621,MusicAffectPsychophysiology2019,3.0.5,59.88980610876193,
To what extent did the music make you feel ,ASHAMED,30MonoWAV/30MonoF2.wav,1,2,2,2,,,,,0,8,8,1,0,10,10,4,,,,,,,,,3,1.6186490969994338,,,050,001,2019_May_20_1621,MusicAffectPsychophysiology2019,3.0.5,59.88980610876193,
To what extent did the music make you feel ,ALERT,30MonoWAV/30MonoF2.wav,1,2,2,2,,,,,0,8,8,1,0,11,11,8,,,,,,,,,4,0.9017414469999494,,,050,001,2019_May_20_1621,MusicAffectPsychophysiology2019,3.0.5,59.88980610876193,
,,30MonoWAV/30MonoF2.wav,1,2,2,2,,,,,0,8,8,1,,,,,,,,,,,,,,,,,050,001,2019_May_20_1621,MusicAffectPsychophysiology2019,3.0.5,59.88980610876193,
To what extent did the music make you feel ,SCARED,30MonoWAV/30MonoS4.wav,1,1,3,12,,,,,0,9,9,11,0,0,0,11,,,2,4.334279520000564,3,3.5834366640046937,2,1.5512043810012983,1,1.3849642669956665,,,050,001,2019_May_20_1621,MusicAffectPsychophysiology2019,3.0.5,59.88980610876193,
To what extent did the music make you feel ,FRUSTRATED,30MonoWAV/30MonoS4.wav,1,1,3,12,,,,,0,9,9,11,0,1,1,3,,,,,,,,,1,1.501654783001868,,,050,001,2019_May_20_1621,MusicAffectPsychophysiology2019,3.0.5,59.88980610876193,
To what extent did the music make you feel ,ACTIVE,30MonoWAV/30MonoS4.wav,1,1,3,12,,,,,0,9,9,11,0,2,2,9,,,,,,,,,1,2.468511657003546,,,050,001,2019_May_20_1621,MusicAffectPsychophysiology2019,3.0.5,59.88980610876193,
To what extent did the music make you feel ,ANXIOUS ,30MonoWAV/30MonoS4.wav,1,1,3,12,,,,,0,9,9,11,0,3,3,1,,,,,,,,,1,1.3358053370029666,,,050,001,2019_May_20_1621,MusicAffectPsychophysiology2019,3.0.5,59.88980610876193,
To what extent did the music make you feel ,EXCITED,30MonoWAV/30MonoS4.wav,1,1,3,12,,,,,0,9,9,11,0,4,4,7,,,,,,,,,2,1.468479358998593,,,050,001,2019_May_20_1621,MusicAffectPsychophysiology2019,3.0.5,59.88980610876193,
To what extent did the music make you feel ,ANGRY,30MonoWAV/30MonoS4.wav,1,1,3,12,,,,,0,9,9,11,0,5,5,2,,,,,,,,,1,0.7177471070026513,,,050,001,2019_May_20_1621,MusicAffectPsychophysiology2019,3.0.5,59.88980610876193,
To what extent did the music make you feel ,GUILTY,30MonoWAV/30MonoS4.wav,1,1,3,12,,,,,0,9,9,11,0,6,6,5,,,,,,,,,1,1.0016470929986099,,,050,001,2019_May_20_1621,MusicAffectPsychophysiology2019,3.0.5,59.88980610876193,
To what extent did the music make you feel ,SAD,30MonoWAV/30MonoS4.wav,1,1,3,12,,,,,0,9,9,11,0,7,7,0,,,,,,,,,3,2.151703388997703,,,050,001,2019_May_20_1621,MusicAffectPsychophysiology2019,3.0.5,59.88980610876193,
To what extent did the music make you feel ,ASHAMED,30MonoWAV/30MonoS4.wav,1,1,3,12,,,,,0,9,9,11,0,8,8,4,,,,,,,,,1,1.101270913000917,,,050,001,2019_May_20_1621,MusicAffectPsychophysiology2019,3.0.5,59.88980610876193,
To what extent did the music make you feel ,HAPPY,30MonoWAV/30MonoS4.wav,1,1,3,12,,,,,0,9,9,11,0,9,9,6,,,,,,,,,3,1.3348492000004626,,,050,001,2019_May_20_1621,MusicAffectPsychophysiology2019,3.0.5,59.88980610876193,
To what extent did the music make you feel ,ALERT,30MonoWAV/30MonoS4.wav,1,1,3,12,,,,,0,9,9,11,0,10,10,8,,,,,,,,,2,1.1350155780019122,,,050,001,2019_May_20_1621,MusicAffectPsychophysiology2019,3.0.5,59.88980610876193,
To what extent did the music make you feel ,TENDER,30MonoWAV/30MonoS4.wav,1,1,3,12,,,,,0,9,9,11,0,11,11,10,,,,,,,,,5,2.1355562030003057,,,050,001,2019_May_20_1621,MusicAffectPsychophysiology2019,3.0.5,59.88980610876193,
,,30MonoWAV/30MonoS4.wav,1,1,3,12,,,,,0,9,9,11,,,,,,,,,,,,,,,,,050,001,2019_May_20_1621,MusicAffectPsychophysiology2019,3.0.5,59.88980610876193,
To what extent did the music make you feel ,ACTIVE,30MonoWAV/30MonoF3.wav,1,2,2,3,,,,,0,10,10,2,0,0,0,9,,,3,3.756283547998464,1,1.353257962000498,1,1.65221800099971,3,2.206135198000993,,,050,001,2019_May_20_1621,MusicAffectPsychophysiology2019,3.0.5,59.88980610876193,
To what extent did the music make you feel ,SAD,30MonoWAV/30MonoF3.wav,1,2,2,3,,,,,0,10,10,2,0,1,1,0,,,,,,,,,1,3.1844107180004357,,,050,001,2019_May_20_1621,MusicAffectPsychophysiology2019,3.0.5,59.88980610876193,
To what extent did the music make you feel ,FRUSTRATED,30MonoWAV/30MonoF3.wav,1,2,2,3,,,,,0,10,10,2,0,2,2,3,,,,,,,,,2,1.0858996609968017,,,050,001,2019_May_20_1621,MusicAffectPsychophysiology2019,3.0.5,59.88980610876193,
To what extent did the music make you feel ,ANGRY,30MonoWAV/30MonoF3.wav,1,2,2,3,,,,,0,10,10,2,0,3,3,2,,,,,,,,,2,0.9353922160007642,,,050,001,2019_May_20_1621,MusicAffectPsychophysiology2019,3.0.5,59.88980610876193,
To what extent did the music make you feel ,HAPPY,30MonoWAV/30MonoF3.wav,1,2,2,3,,,,,0,10,10,2,0,4,4,6,,,,,,,,,1,1.1011738690067432,,,050,001,2019_May_20_1621,MusicAffectPsychophysiology2019,3.0.5,59.88980610876193,
To what extent did the music make you feel ,ANXIOUS ,30MonoWAV/30MonoF3.wav,1,2,2,3,,,,,0,10,10,2,0,5,5,1,,,,,,,,,4,1.9005815549971885,,,050,001,2019_May_20_1621,MusicAffectPsychophysiology2019,3.0.5,59.88980610876193,
To what extent did the music make you feel ,GUILTY,30MonoWAV/30MonoF3.wav,1,2,2,3,,,,,0,10,10,2,0,6,6,5,,,,,,,,,4,1.9511313500042888,,,050,001,2019_May_20_1621,MusicAffectPsychophysiology2019,3.0.5,59.88980610876193,
To what extent did the music make you feel ,SCARED,30MonoWAV/30MonoF3.wav,1,2,2,3,,,,,0,10,10,2,0,7,7,11,,,,,,,,,3,1.5187632450033561,,,050,001,2019_May_20_1621,MusicAffectPsychophysiology2019,3.0.5,59.88980610876193,
To what extent did the music make you feel ,ASHAMED,30MonoWAV/30MonoF3.wav,1,2,2,3,,,,,0,10,10,2,0,8,8,4,,,,,,,,,4,1.0345289029937703,,,050,001,2019_May_20_1621,MusicAffectPsychophysiology2019,3.0.5,59.88980610876193,
To what extent did the music make you feel ,EXCITED,30MonoWAV/30MonoF3.wav,1,2,2,3,,,,,0,10,10,2,0,9,9,7,,,,,,,,,1,1.5852653459951398,,,050,001,2019_May_20_1621,MusicAffectPsychophysiology2019,3.0.5,59.88980610876193,
To what extent did the music make you feel ,TENDER,30MonoWAV/30MonoF3.wav,1,2,2,3,,,,,0,10,10,2,0,10,10,10,,,,,,,,,1,0.969483933004085,,,050,001,2019_May_20_1621,MusicAffectPsychophysiology2019,3.0.5,59.88980610876193,
To what extent did the music make you feel ,ALERT,30MonoWAV/30MonoF3.wav,1,2,2,3,,,,,0,10,10,2,0,11,11,8,,,,,,,,,4,1.8682918940030504,,,050,001,2019_May_20_1621,MusicAffectPsychophysiology2019,3.0.5,59.88980610876193,
,,30MonoWAV/30MonoF3.wav,1,2,2,3,,,,,0,10,10,2,,,,,,,,,,,,,,,,,050,001,2019_May_20_1621,MusicAffectPsychophysiology2019,3.0.5,59.88980610876193,
To what extent did the music make you feel ,SCARED,30MonoWAV/30MonoF4.wav,1,2,2,4,,,,,0,11,11,3,0,0,0,11,,,4,3.751742266002111,1,1.3015690760003054,2,1.4348559830032173,3,1.7030164640018484,,,050,001,2019_May_20_1621,MusicAffectPsychophysiology2019,3.0.5,59.88980610876193,
To what extent did the music make you feel ,ACTIVE,30MonoWAV/30MonoF4.wav,1,2,2,4,,,,,0,11,11,3,0,1,1,9,,,,,,,,,4,1.5854910170019139,,,050,001,2019_May_20_1621,MusicAffectPsychophysiology2019,3.0.5,59.88980610876193,
To what extent did the music make you feel ,ANGRY,30MonoWAV/30MonoF4.wav,1,2,2,4,,,,,0,11,11,3,0,2,2,2,,,,,,,,,2,1.7020112549944315,,,050,001,2019_May_20_1621,MusicAffectPsychophysiology2019,3.0.5,59.88980610876193,
To what extent did the music make you feel ,GUILTY,30MonoWAV/30MonoF4.wav,1,2,2,4,,,,,0,11,11,3,0,3,3,5,,,,,,,,,2,1.151946248995955,,,050,001,2019_May_20_1621,MusicAffectPsychophysiology2019,3.0.5,59.88980610876193,
To what extent did the music make you feel ,ANXIOUS ,30MonoWAV/30MonoF4.wav,1,2,2,4,,,,,0,11,11,3,0,4,4,1,,,,,,,,,2,0.9853189440036658,,,050,001,2019_May_20_1621,MusicAffectPsychophysiology2019,3.0.5,59.88980610876193,
To what extent did the music make you feel ,EXCITED,30MonoWAV/30MonoF4.wav,1,2,2,4,,,,,0,11,11,3,0,5,5,7,,,,,,,,,1,1.0340056290006032,,,050,001,2019_May_20_1621,MusicAffectPsychophysiology2019,3.0.5,59.88980610876193,
To what extent did the music make you feel ,HAPPY,30MonoWAV/30MonoF4.wav,1,2,2,4,,,,,0,11,11,3,0,6,6,6,,,,,,,,,1,0.9689597329997923,,,050,001,2019_May_20_1621,MusicAffectPsychophysiology2019,3.0.5,59.88980610876193,
To what extent did the music make you feel ,TENDER,30MonoWAV/30MonoF4.wav,1,2,2,4,,,,,0,11,11,3,0,7,7,10,,,,,,,,,1,0.985173783999926,,,050,001,2019_May_20_1621,MusicAffectPsychophysiology2019,3.0.5,59.88980610876193,
To what extent did the music make you feel ,SAD,30MonoWAV/30MonoF4.wav,1,2,2,4,,,,,0,11,11,3,0,8,8,0,,,,,,,,,1,1.1017168920006952,,,050,001,2019_May_20_1621,MusicAffectPsychophysiology2019,3.0.5,59.88980610876193,
To what extent did the music make you feel ,ASHAMED,30MonoWAV/30MonoF4.wav,1,2,2,4,,,,,0,11,11,3,0,9,9,4,,,,,,,,,2,3.101241595999454,,,050,001,2019_May_20_1621,MusicAffectPsychophysiology2019,3.0.5,59.88980610876193,
To what extent did the music make you feel ,ALERT,30MonoWAV/30MonoF4.wav,1,2,2,4,,,,,0,11,11,3,0,10,10,8,,,,,,,,,5,1.6194550180007354,,,050,001,2019_May_20_1621,MusicAffectPsychophysiology2019,3.0.5,59.88980610876193,
To what extent did the music make you feel ,FRUSTRATED,30MonoWAV/30MonoF4.wav,1,2,2,4,,,,,0,11,11,3,0,11,11,3,,,,,,,,,3,1.6519486559991492,,,050,001,2019_May_20_1621,MusicAffectPsychophysiology2019,3.0.5,59.88980610876193,
,,30MonoWAV/30MonoF4.wav,1,2,2,4,,,,,0,11,11,3,,,,,,,,,,,,,,,,,050,001,2019_May_20_1621,MusicAffectPsychophysiology2019,3.0.5,59.88980610876193,
To what extent did the music make you feel ,EXCITED,30MonoWAV/30MonoH1.wav,2,2,1,5,,,,,0,12,12,4,0,0,0,7,,,3,6.992390947998501,3,1.3854127829981735,3,1.6355010949991993,3,2.6349084230023436,,,050,001,2019_May_20_1621,MusicAffectPsychophysiology2019,3.0.5,59.88980610876193,
To what extent did the music make you feel ,TENDER,30MonoWAV/30MonoH1.wav,2,2,1,5,,,,,0,12,12,4,0,1,1,10,,,,,,,,,2,2.084744760999456,,,050,001,2019_May_20_1621,MusicAffectPsychophysiology2019,3.0.5,59.88980610876193,
To what extent did the music make you feel ,GUILTY,30MonoWAV/30MonoH1.wav,2,2,1,5,,,,,0,12,12,4,0,2,2,5,,,,,,,,,1,1.451995427996735,,,050,001,2019_May_20_1621,MusicAffectPsychophysiology2019,3.0.5,59.88980610876193,
To what extent did the music make you feel ,SCARED,30MonoWAV/30MonoH1.wav,2,2,1,5,,,,,0,12,12,4,0,3,3,11,,,,,,,,,1,0.6687890530010918,,,050,001,2019_May_20_1621,MusicAffectPsychophysiology2019,3.0.5,59.88980610876193,
To what extent did the music make you feel ,ALERT,30MonoWAV/30MonoH1.wav,2,2,1,5,,,,,0,12,12,4,0,4,4,8,,,,,,,,,3,3.0681581940007163,,,050,001,2019_May_20_1621,MusicAffectPsychophysiology2019,3.0.5,59.88980610876193,
To what extent did the music make you feel ,ANXIOUS ,30MonoWAV/30MonoH1.wav,2,2,1,5,,,,,0,12,12,4,0,5,5,1,,,,,,,,,1,1.2848934690046008,,,050,001,2019_May_20_1621,MusicAffectPsychophysiology2019,3.0.5,59.88980610876193,
To what extent did the music make you feel ,ASHAMED,30MonoWAV/30MonoH1.wav,2,2,1,5,,,,,0,12,12,4,0,6,6,4,,,,,,,,,1,0.8852118229988264,,,050,001,2019_May_20_1621,MusicAffectPsychophysiology2019,3.0.5,59.88980610876193,
To what extent did the music make you feel ,ANGRY,30MonoWAV/30MonoH1.wav,2,2,1,5,,,,,0,12,12,4,0,7,7,2,,,,,,,,,1,0.6679753549979068,,,050,001,2019_May_20_1621,MusicAffectPsychophysiology2019,3.0.5,59.88980610876193,
To what extent did the music make you feel ,ACTIVE,30MonoWAV/30MonoH1.wav,2,2,1,5,,,,,0,12,12,4,0,8,8,9,,,,,,,,,3,1.9681240349964355,,,050,001,2019_May_20_1621,MusicAffectPsychophysiology2019,3.0.5,59.88980610876193,
To what extent did the music make you feel ,HAPPY,30MonoWAV/30MonoH1.wav,2,2,1,5,,,,,0,12,12,4,0,9,9,6,,,,,,,,,4,1.2517769600017346,,,050,001,2019_May_20_1621,MusicAffectPsychophysiology2019,3.0.5,59.88980610876193,
To what extent did the music make you feel ,FRUSTRATED,30MonoWAV/30MonoH1.wav,2,2,1,5,,,,,0,12,12,4,0,10,10,3,,,,,,,,,1,1.0351841679948848,,,050,001,2019_May_20_1621,MusicAffectPsychophysiology2019,3.0.5,59.88980610876193,
To what extent did the music make you feel ,SAD,30MonoWAV/30MonoH1.wav,2,2,1,5,,,,,0,12,12,4,0,11,11,0,,,,,,,,,1,1.5015646290048608,,,050,001,2019_May_20_1621,MusicAffectPsychophysiology2019,3.0.5,59.88980610876193,
,,30MonoWAV/30MonoH1.wav,2,2,1,5,,,,,0,12,12,4,,,,,,,,,,,,,,,,,050,001,2019_May_20_1621,MusicAffectPsychophysiology2019,3.0.5,59.88980610876193,
To what extent did the music make you feel ,GUILTY,30MonoWAV/30MonoT1.wav,2,1,4,13,,,,,0,13,13,12,0,0,0,5,,,2,2.968059753999114,2,2.9855740780039923,2,1.5518066880031256,2,1.7013067500010948,,,050,001,2019_May_20_1621,MusicAffectPsychophysiology2019,3.0.5,59.88980610876193,
To what extent did the music make you feel ,ASHAMED,30MonoWAV/30MonoT1.wav,2,1,4,13,,,,,0,13,13,12,0,1,1,4,,,,,,,,,2,0.8363499350016355,,,050,001,2019_May_20_1621,MusicAffectPsychophysiology2019,3.0.5,59.88980610876193,
To what extent did the music make you feel ,FRUSTRATED,30MonoWAV/30MonoT1.wav,2,1,4,13,,,,,0,13,13,12,0,2,2,3,,,,,,,,,1,0.9684987910004565,,,050,001,2019_May_20_1621,MusicAffectPsychophysiology2019,3.0.5,59.88980610876193,
To what extent did the music make you feel ,ANGRY,30MonoWAV/30MonoT1.wav,2,1,4,13,,,,,0,13,13,12,0,3,3,2,,,,,,,,,1,0.5181852249952499,,,050,001,2019_May_20_1621,MusicAffectPsychophysiology2019,3.0.5,59.88980610876193,
To what extent did the music make you feel ,SAD,30MonoWAV/30MonoT1.wav,2,1,4,13,,,,,0,13,13,12,0,4,4,0,,,,,,,,,4,1.5175820910008042,,,050,001,2019_May_20_1621,MusicAffectPsychophysiology2019,3.0.5,59.88980610876193,
To what extent did the music make you feel ,EXCITED,30MonoWAV/30MonoT1.wav,2,1,4,13,,,,,0,13,13,12,0,5,5,7,,,,,,,,,1,2.5355750329981674,,,050,001,2019_May_20_1621,MusicAffectPsychophysiology2019,3.0.5,59.88980610876193,
To what extent did the music make you feel ,SCARED,30MonoWAV/30MonoT1.wav,2,1,4,13,,,,,0,13,13,12,0,6,6,11,,,,,,,,,1,1.1380850180066773,,,050,001,2019_May_20_1621,MusicAffectPsychophysiology2019,3.0.5,59.88980610876193,
To what extent did the music make you feel ,ACTIVE,30MonoWAV/30MonoT1.wav,2,1,4,13,,,,,0,13,13,12,0,7,7,9,,,,,,,,,2,1.087208388998988,,,050,001,2019_May_20_1621,MusicAffectPsychophysiology2019,3.0.5,59.88980610876193,
To what extent did the music make you feel ,TENDER,30MonoWAV/30MonoT1.wav,2,1,4,13,,,,,0,13,13,12,0,8,8,10,,,,,,,,,4,1.3870608500001254,,,050,001,2019_May_20_1621,MusicAffectPsychophysiology2019,3.0.5,59.88980610876193,
To what extent did the music make you feel ,ANXIOUS ,30MonoWAV/30MonoT1.wav,2,1,4,13,,,,,0,13,13,12,0,9,9,1,,,,,,,,,1,1.7041335140020237,,,050,001,2019_May_20_1621,MusicAffectPsychophysiology2019,3.0.5,59.88980610876193,
To what extent did the music make you feel ,HAPPY,30MonoWAV/30MonoT1.wav,2,1,4,13,,,,,0,13,13,12,0,10,10,6,,,,,,,,,2,4.122620194000774,,,050,001,2019_May_20_1621,MusicAffectPsychophysiology2019,3.0.5,59.88980610876193,
To what extent did the music make you feel ,ALERT,30MonoWAV/30MonoT1.wav,2,1,4,13,,,,,0,13,13,12,0,11,11,8,,,,,,,,,2,1.1725881550009944,,,050,001,2019_May_20_1621,MusicAffectPsychophysiology2019,3.0.5,59.88980610876193,
,,30MonoWAV/30MonoT1.wav,2,1,4,13,,,,,0,13,13,12,,,,,,,,,,,,,,,,,050,001,2019_May_20_1621,MusicAffectPsychophysiology2019,3.0.5,59.88980610876193,
To what extent did the music make you feel ,SAD,30MonoWAV/30MonoH4.wav,2,2,1,8,,,,,0,14,14,7,0,0,0,0,,,4,3.9515065279992996,4,1.5674294170021312,4,2.050463182000385,1,1.5850365500009502,,,050,001,2019_May_20_1621,MusicAffectPsychophysiology2019,3.0.5,59.88980610876193,
To what extent did the music make you feel ,ANXIOUS ,30MonoWAV/30MonoH4.wav,2,2,1,8,,,,,0,14,14,7,0,1,1,1,,,,,,,,,1,0.7025809579936322,,,050,001,2019_May_20_1621,MusicAffectPsychophysiology2019,3.0.5,59.88980610876193,
To what extent did the music make you feel ,FRUSTRATED,30MonoWAV/30MonoH4.wav,2,2,1,8,,,,,0,14,14,7,0,2,2,3,,,,,,,,,1,0.9519126329978462,,,050,001,2019_May_20_1621,MusicAffectPsychophysiology2019,3.0.5,59.88980610876193,
To what extent did the music make you feel ,ASHAMED,30MonoWAV/30MonoH4.wav,2,2,1,8,,,,,0,14,14,7,0,3,3,4,,,,,,,,,1,0.6177671779951197,,,050,001,2019_May_20_1621,MusicAffectPsychophysiology2019,3.0.5,59.88980610876193,
To what extent did the music make you feel ,GUILTY,30MonoWAV/30MonoH4.wav,2,2,1,8,,,,,0,14,14,7,0,4,4,5,,,,,,,,,1,0.9850853190000635,,,050,001,2019_May_20_1621,MusicAffectPsychophysiology2019,3.0.5,59.88980610876193,
To what extent did the music make you feel ,EXCITED,30MonoWAV/30MonoH4.wav,2,2,1,8,,,,,0,14,14,7,0,5,5,7,,,,,,,,,4,1.3525298419990577,,,050,001,2019_May_20_1621,MusicAffectPsychophysiology2019,3.0.5,59.88980610876193,
To what extent did the music make you feel ,ALERT,30MonoWAV/30MonoH4.wav,2,2,1,8,,,,,0,14,14,7,0,6,6,8,,,,,,,,,4,1.288738593000744,,,050,001,2019_May_20_1621,MusicAffectPsychophysiology2019,3.0.5,59.88980610876193,
To what extent did the music make you feel ,ANGRY,30MonoWAV/30MonoH4.wav,2,2,1,8,,,,,0,14,14,7,0,7,7,2,,,,,,,,,1,1.0520221119950293,,,050,001,2019_May_20_1621,MusicAffectPsychophysiology2019,3.0.5,59.88980610876193,
To what extent did the music make you feel ,TENDER,30MonoWAV/30MonoH4.wav,2,2,1,8,,,,,0,14,14,7,0,8,8,10,,,,,,,,,2,1.5196996929953457,,,050,001,2019_May_20_1621,MusicAffectPsychophysiology2019,3.0.5,59.88980610876193,
To what extent did the music make you feel ,HAPPY,30MonoWAV/30MonoH4.wav,2,2,1,8,,,,,0,14,14,7,0,9,9,6,,,,,,,,,5,1.153072618006263,,,050,001,2019_May_20_1621,MusicAffectPsychophysiology2019,3.0.5,59.88980610876193,
To what extent did the music make you feel ,ACTIVE,30MonoWAV/30MonoH4.wav,2,2,1,8,,,,,0,14,14,7,0,10,10,9,,,,,,,,,5,1.3195938150020083,,,050,001,2019_May_20_1621,MusicAffectPsychophysiology2019,3.0.5,59.88980610876193,
To what extent did the music make you feel ,SCARED,30MonoWAV/30MonoH4.wav,2,2,1,8,,,,,0,14,14,7,0,11,11,11,,,,,,,,,1,0.987017804000061,,,050,001,2019_May_20_1621,MusicAffectPsychophysiology2019,3.0.5,59.88980610876193,
,,30MonoWAV/30MonoH4.wav,2,2,1,8,,,,,0,14,14,7,,,,,,,,,,,,,,,,,050,001,2019_May_20_1621,MusicAffectPsychophysiology2019,3.0.5,59.88980610876193,
To what extent did the music make you feel ,GUILTY,30MonoWAV/30MonoH2.wav,2,2,1,6,,,,,0,15,15,5,0,0,0,5,,,4,3.2521816099979333,3,1.3353014919994166,2,1.816200661000039,1,1.3687955350033008,,,050,001,2019_May_20_1621,MusicAffectPsychophysiology2019,3.0.5,59.88980610876193,
To what extent did the music make you feel ,HAPPY,30MonoWAV/30MonoH2.wav,2,2,1,6,,,,,0,15,15,5,0,1,1,6,,,,,,,,,3,1.3668121619994054,,,050,001,2019_May_20_1621,MusicAffectPsychophysiology2019,3.0.5,59.88980610876193,
To what extent did the music make you feel ,ASHAMED,30MonoWAV/30MonoH2.wav,2,2,1,6,,,,,0,15,15,5,0,2,2,4,,,,,,,,,1,0.9511680520008667,,,050,001,2019_May_20_1621,MusicAffectPsychophysiology2019,3.0.5,59.88980610876193,
To what extent did the music make you feel ,TENDER,30MonoWAV/30MonoH2.wav,2,2,1,6,,,,,0,15,15,5,0,3,3,10,,,,,,,,,2,1.2174856110068504,,,050,001,2019_May_20_1621,MusicAffectPsychophysiology2019,3.0.5,59.88980610876193,
To what extent did the music make you feel ,SCARED,30MonoWAV/30MonoH2.wav,2,2,1,6,,,,,0,15,15,5,0,4,4,11,,,,,,,,,1,0.7518583729979582,,,050,001,2019_May_20_1621,MusicAffectPsychophysiology2019,3.0.5,59.88980610876193,
To what extent did the music make you feel ,ALERT,30MonoWAV/30MonoH2.wav,2,2,1,6,,,,,0,15,15,5,0,5,5,8,,,,,,,,,4,1.2851004249969264,,,050,001,2019_May_20_1621,MusicAffectPsychophysiology2019,3.0.5,59.88980610876193,
To what extent did the music make you feel ,ANGRY,30MonoWAV/30MonoH2.wav,2,2,1,6,,,,,0,15,15,5,0,6,6,2,,,,,,,,,1,0.8361342970019905,,,050,001,2019_May_20_1621,MusicAffectPsychophysiology2019,3.0.5,59.88980610876193,
To what extent did the music make you feel ,EXCITED,30MonoWAV/30MonoH2.wav,2,2,1,6,,,,,0,15,15,5,0,7,7,7,,,,,,,,,4,1.2512316260035732,,,050,001,2019_May_20_1621,MusicAffectPsychophysiology2019,3.0.5,59.88980610876193,
To what extent did the music make you feel ,ANXIOUS ,30MonoWAV/30MonoH2.wav,2,2,1,6,,,,,0,15,15,5,0,8,8,1,,,,,,,,,1,0.8350931479944848,,,050,001,2019_May_20_1621,MusicAffectPsychophysiology2019,3.0.5,59.88980610876193,
To what extent did the music make you feel ,SAD,30MonoWAV/30MonoH2.wav,2,2,1,6,,,,,0,15,15,5,0,9,9,0,,,,,,,,,1,0.9683375960012199,,,050,001,2019_May_20_1621,MusicAffectPsychophysiology2019,3.0.5,59.88980610876193,
To what extent did the music make you feel ,FRUSTRATED,30MonoWAV/30MonoH2.wav,2,2,1,6,,,,,0,15,15,5,0,10,10,3,,,,,,,,,1,0.868917378000333,,,050,001,2019_May_20_1621,MusicAffectPsychophysiology2019,3.0.5,59.88980610876193,
To what extent did the music make you feel ,ACTIVE,30MonoWAV/30MonoH2.wav,2,2,1,6,,,,,0,15,15,5,0,11,11,9,,,,,,,,,3,0.917843602001085,,,050,001,2019_May_20_1621,MusicAffectPsychophysiology2019,3.0.5,59.88980610876193,
,,30MonoWAV/30MonoH2.wav,2,2,1,6,,,,,0,15,15,5,,,,,,,,,,,,,,,,,050,001,2019_May_20_1621,MusicAffectPsychophysiology2019,3.0.5,59.88980610876193,
To what extent did the music make you feel ,ANGRY,30MonoWAV/30MonoF3.wav,1,2,2,3,,,,,1,0,16,2,0,0,0,2,,,2,3.706955827001366,1,3.085641587000282,1,1.1067077409970807,2,1.5871397980008624,,,050,001,2019_May_20_1621,MusicAffectPsychophysiology2019,3.0.5,59.88980610876193,
To what extent did the music make you feel ,GUILTY,30MonoWAV/30MonoF3.wav,1,2,2,3,,,,,1,0,16,2,0,1,1,5,,,,,,,,,3,1.6701629439994576,,,050,001,2019_May_20_1621,MusicAffectPsychophysiology2019,3.0.5,59.88980610876193,
To what extent did the music make you feel ,SAD,30MonoWAV/30MonoF3.wav,1,2,2,3,,,,,1,0,16,2,0,2,2,0,,,,,,,,,2,1.0528768099975423,,,050,001,2019_May_20_1621,MusicAffectPsychophysiology2019,3.0.5,59.88980610876193,
To what extent did the music make you feel ,ANXIOUS ,30MonoWAV/30MonoF3.wav,1,2,2,3,,,,,1,0,16,2,0,3,3,1,,,,,,,,,4,2.471282147002057,,,050,001,2019_May_20_1621,MusicAffectPsychophysiology2019,3.0.5,59.88980610876193,
To what extent did the music make you feel ,ALERT,30MonoWAV/30MonoF3.wav,1,2,2,3,,,,,1,0,16,2,0,4,4,8,,,,,,,,,4,0.9207449340028688,,,050,001,2019_May_20_1621,MusicAffectPsychophysiology2019,3.0.5,59.88980610876193,
To what extent did the music make you feel ,HAPPY,30MonoWAV/30MonoF3.wav,1,2,2,3,,,,,1,0,16,2,0,5,5,6,,,,,,,,,1,1.6165744080062723,,,050,001,2019_May_20_1621,MusicAffectPsychophysiology2019,3.0.5,59.88980610876193,
To what extent did the music make you feel ,ASHAMED,30MonoWAV/30MonoF3.wav,1,2,2,3,,,,,1,0,16,2,0,6,6,4,,,,,,,,,2,0.952556762000313,,,050,001,2019_May_20_1621,MusicAffectPsychophysiology2019,3.0.5,59.88980610876193,
To what extent did the music make you feel ,ACTIVE,30MonoWAV/30MonoF3.wav,1,2,2,3,,,,,1,0,16,2,0,7,7,9,,,,,,,,,3,0.9832662819972029,,,050,001,2019_May_20_1621,MusicAffectPsychophysiology2019,3.0.5,59.88980610876193,
To what extent did the music make you feel ,EXCITED,30MonoWAV/30MonoF3.wav,1,2,2,3,,,,,1,0,16,2,0,8,8,7,,,,,,,,,1,1.001550054999825,,,050,001,2019_May_20_1621,MusicAffectPsychophysiology2019,3.0.5,59.88980610876193,
To what extent did the music make you feel ,FRUSTRATED,30MonoWAV/30MonoF3.wav,1,2,2,3,,,,,1,0,16,2,0,9,9,3,,,,,,,,,2,1.0351802229997702,,,050,001,2019_May_20_1621,MusicAffectPsychophysiology2019,3.0.5,59.88980610876193,
To what extent did the music make you feel ,TENDER,30MonoWAV/30MonoF3.wav,1,2,2,3,,,,,1,0,16,2,0,10,10,10,,,,,,,,,1,0.8521989039945765,,,050,001,2019_May_20_1621,MusicAffectPsychophysiology2019,3.0.5,59.88980610876193,
To what extent did the music make you feel ,SCARED,30MonoWAV/30MonoF3.wav,1,2,2,3,,,,,1,0,16,2,0,11,11,11,,,,,,,,,3,2.2518737649952527,,,050,001,2019_May_20_1621,MusicAffectPsychophysiology2019,3.0.5,59.88980610876193,
,,30MonoWAV/30MonoF3.wav,1,2,2,3,,,,,1,0,16,2,,,,,,,,,,,,,,,,,050,001,2019_May_20_1621,MusicAffectPsychophysiology2019,3.0.5,59.88980610876193,
To what extent did the music make you feel ,ALERT,30MonoWAV/30MonoH3.wav,2,2,1,7,,,,,1,1,17,6,0,0,0,8,,,5,3.100492147001205,4,1.4193541559943696,3,2.182925378001528,5,3.13564571000461,,,050,001,2019_May_20_1621,MusicAffectPsychophysiology2019,3.0.5,59.88980610876193,
To what extent did the music make you feel ,SAD,30MonoWAV/30MonoH3.wav,2,2,1,7,,,,,1,1,17,6,0,1,1,0,,,,,,,,,1,1.5020003050012747,,,050,001,2019_May_20_1621,MusicAffectPsychophysiology2019,3.0.5,59.88980610876193,
To what extent did the music make you feel ,EXCITED,30MonoWAV/30MonoH3.wav,2,2,1,7,,,,,1,1,17,6,0,2,2,7,,,,,,,,,4,1.7329722060021595,,,050,001,2019_May_20_1621,MusicAffectPsychophysiology2019,3.0.5,59.88980610876193,
To what extent did the music make you feel ,ASHAMED,30MonoWAV/30MonoH3.wav,2,2,1,7,,,,,1,1,17,6,0,3,3,4,,,,,,,,,1,1.25218233600026,,,050,001,2019_May_20_1621,MusicAffectPsychophysiology2019,3.0.5,59.88980610876193,
To what extent did the music make you feel ,ANGRY,30MonoWAV/30MonoH3.wav,2,2,1,7,,,,,1,1,17,6,0,4,4,2,,,,,,,,,1,0.652707533998182,,,050,001,2019_May_20_1621,MusicAffectPsychophysiology2019,3.0.5,59.88980610876193,
To what extent did the music make you feel ,SCARED,30MonoWAV/30MonoH3.wav,2,2,1,7,,,,,1,1,17,6,0,5,5,11,,,,,,,,,1,0.7017136329959612,,,050,001,2019_May_20_1621,MusicAffectPsychophysiology2019,3.0.5,59.88980610876193,
To what extent did the music make you feel ,TENDER,30MonoWAV/30MonoH3.wav,2,2,1,7,,,,,1,1,17,6,0,6,6,10,,,,,,,,,2,1.0842300740041537,,,050,001,2019_May_20_1621,MusicAffectPsychophysiology2019,3.0.5,59.88980610876193,
To what extent did the music make you feel ,GUILTY,30MonoWAV/30MonoH3.wav,2,2,1,7,,,,,1,1,17,6,0,7,7,5,,,,,,,,,1,0.6667409950023284,,,050,001,2019_May_20_1621,MusicAffectPsychophysiology2019,3.0.5,59.88980610876193,
To what extent did the music make you feel ,ACTIVE,30MonoWAV/30MonoH3.wav,2,2,1,7,,,,,1,1,17,6,0,8,8,9,,,,,,,,,3,1.419280472000537,,,050,001,2019_May_20_1621,MusicAffectPsychophysiology2019,3.0.5,59.88980610876193,
To what extent did the music make you feel ,HAPPY,30MonoWAV/30MonoH3.wav,2,2,1,7,,,,,1,1,17,6,0,9,9,6,,,,,,,,,4,0.9167462149998755,,,050,001,2019_May_20_1621,MusicAffectPsychophysiology2019,3.0.5,59.88980610876193,
To what extent did the music make you feel ,FRUSTRATED,30MonoWAV/30MonoH3.wav,2,2,1,7,,,,,1,1,17,6,0,10,10,3,,,,,,,,,1,0.8849044860035065,,,050,001,2019_May_20_1621,MusicAffectPsychophysiology2019,3.0.5,59.88980610876193,
To what extent did the music make you feel ,ANXIOUS ,30MonoWAV/30MonoH3.wav,2,2,1,7,,,,,1,1,17,6,0,11,11,1,,,,,,,,,1,0.9841435849957634,,,050,001,2019_May_20_1621,MusicAffectPsychophysiology2019,3.0.5,59.88980610876193,
,,30MonoWAV/30MonoH3.wav,2,2,1,7,,,,,1,1,17,6,,,,,,,,,,,,,,,,,050,001,2019_May_20_1621,MusicAffectPsychophysiology2019,3.0.5,59.88980610876193,
To what extent did the music make you feel ,EXCITED,30MonoWAV/30MonoT2.wav,2,1,4,14,,,,,1,2,18,13,0,0,0,7,,,3,4.018421369000862,4,1.3692381069995463,3,1.0021711600056733,2,1.638529711002775,,,050,001,2019_May_20_1621,MusicAffectPsychophysiology2019,3.0.5,59.88980610876193,
To what extent did the music make you feel ,SCARED,30MonoWAV/30MonoT2.wav,2,1,4,14,,,,,1,2,18,13,0,1,1,11,,,,,,,,,1,0.8690631550052785,,,050,001,2019_May_20_1621,MusicAffectPsychophysiology2019,3.0.5,59.88980610876193,
To what extent did the music make you feel ,ACTIVE,30MonoWAV/30MonoT2.wav,2,1,4,14,,,,,1,2,18,13,0,2,2,9,,,,,,,,,1,0.6683506029949058,,,050,001,2019_May_20_1621,MusicAffectPsychophysiology2019,3.0.5,59.88980610876193,
To what extent did the music make you feel ,SAD,30MonoWAV/30MonoT2.wav,2,1,4,14,,,,,1,2,18,13,0,3,3,0,,,,,,,,,2,1.9535833350018947,,,050,001,2019_May_20_1621,MusicAffectPsychophysiology2019,3.0.5,59.88980610876193,
To what extent did the music make you feel ,TENDER,30MonoWAV/30MonoT2.wav,2,1,4,14,,,,,1,2,18,13,0,4,4,10,,,,,,,,,5,1.9536789869962377,,,050,001,2019_May_20_1621,MusicAffectPsychophysiology2019,3.0.5,59.88980610876193,
To what extent did the music make you feel ,GUILTY,30MonoWAV/30MonoT2.wav,2,1,4,14,,,,,1,2,18,13,0,5,5,5,,,,,,,,,1,1.3032673870038707,,,050,001,2019_May_20_1621,MusicAffectPsychophysiology2019,3.0.5,59.88980610876193,
To what extent did the music make you feel ,ANXIOUS ,30MonoWAV/30MonoT2.wav,2,1,4,14,,,,,1,2,18,13,0,6,6,1,,,,,,,,,1,0.7719598269977723,,,050,001,2019_May_20_1621,MusicAffectPsychophysiology2019,3.0.5,59.88980610876193,
To what extent did the music make you feel ,HAPPY,30MonoWAV/30MonoT2.wav,2,1,4,14,,,,,1,2,18,13,0,7,7,6,,,,,,,,,3,1.4676362600002903,,,050,001,2019_May_20_1621,MusicAffectPsychophysiology2019,3.0.5,59.88980610876193,
To what extent did the music make you feel ,ALERT,30MonoWAV/30MonoT2.wav,2,1,4,14,,,,,1,2,18,13,0,8,8,8,,,,,,,,,3,1.1024649280006997,,,050,001,2019_May_20_1621,MusicAffectPsychophysiology2019,3.0.5,59.88980610876193,
To what extent did the music make you feel ,ANGRY,30MonoWAV/30MonoT2.wav,2,1,4,14,,,,,1,2,18,13,0,9,9,2,,,,,,,,,1,1.0358019940031227,,,050,001,2019_May_20_1621,MusicAffectPsychophysiology2019,3.0.5,59.88980610876193,
To what extent did the music make you feel ,FRUSTRATED,30MonoWAV/30MonoT2.wav,2,1,4,14,,,,,1,2,18,13,0,10,10,3,,,,,,,,,1,0.6830141180034843,,,050,001,2019_May_20_1621,MusicAffectPsychophysiology2019,3.0.5,59.88980610876193,
To what extent did the music make you feel ,ASHAMED,30MonoWAV/30MonoT2.wav,2,1,4,14,,,,,1,2,18,13,0,11,11,4,,,,,,,,,2,1.902626652001345,,,050,001,2019_May_20_1621,MusicAffectPsychophysiology2019,3.0.5,59.88980610876193,
,,30MonoWAV/30MonoT2.wav,2,1,4,14,,,,,1,2,18,13,,,,,,,,,,,,,,,,,050,001,2019_May_20_1621,MusicAffectPsychophysiology2019,3.0.5,59.88980610876193,
To what extent did the music make you feel ,ALERT,30MonoWAV/30MonoT1.wav,2,1,4,13,,,,,1,3,19,12,0,0,0,8,,,2,5.684519579997868,3,2.0855504700011807,3,2.205638594998163,3,2.655169746001775,,,050,001,2019_May_20_1621,MusicAffectPsychophysiology2019,3.0.5,59.88980610876193,
To what extent did the music make you feel ,SCARED,30MonoWAV/30MonoT1.wav,2,1,4,13,,,,,1,3,19,12,0,1,1,11,,,,,,,,,1,1.1700212549985736,,,050,001,2019_May_20_1621,MusicAffectPsychophysiology2019,3.0.5,59.88980610876193,
To what extent did the music make you feel ,ACTIVE,30MonoWAV/30MonoT1.wav,2,1,4,13,,,,,1,3,19,12,0,2,2,9,,,,,,,,,2,1.3026944160010316,,,050,001,2019_May_20_1621,MusicAffectPsychophysiology2019,3.0.5,59.88980610876193,
To what extent did the music make you feel ,SAD,30MonoWAV/30MonoT1.wav,2,1,4,13,,,,,1,3,19,12,0,3,3,0,,,,,,,,,2,1.6570144339930266,,,050,001,2019_May_20_1621,MusicAffectPsychophysiology2019,3.0.5,59.88980610876193,
To what extent did the music make you feel ,TENDER,30MonoWAV/30MonoT1.wav,2,1,4,13,,,,,1,3,19,12,0,4,4,10,,,,,,,,,4,2.2842278410025756,,,050,001,2019_May_20_1621,MusicAffectPsychophysiology2019,3.0.5,59.88980610876193,
To what extent did the music make you feel ,ANXIOUS ,30MonoWAV/30MonoT1.wav,2,1,4,13,,,,,1,3,19,12,0,5,5,1,,,,,,,,,1,1.5530286770008388,,,050,001,2019_May_20_1621,MusicAffectPsychophysiology2019,3.0.5,59.88980610876193,
To what extent did the music make you feel ,ASHAMED,30MonoWAV/30MonoT1.wav,2,1,4,13,,,,,1,3,19,12,0,6,6,4,,,,,,,,,1,1.9170215499980259,,,050,001,2019_May_20_1621,MusicAffectPsychophysiology2019,3.0.5,59.88980610876193,
To what extent did the music make you feel ,FRUSTRATED,30MonoWAV/30MonoT1.wav,2,1,4,13,,,,,1,3,19,12,0,7,7,3,,,,,,,,,1,0.6851539100025548,,,050,001,2019_May_20_1621,MusicAffectPsychophysiology2019,3.0.5,59.88980610876193,
To what extent did the music make you feel ,HAPPY,30MonoWAV/30MonoT1.wav,2,1,4,13,,,,,1,3,19,12,0,8,8,6,,,,,,,,,3,2.9019952380040195,,,050,001,2019_May_20_1621,MusicAffectPsychophysiology2019,3.0.5,59.88980610876193,
To what extent did the music make you feel ,GUILTY,30MonoWAV/30MonoT1.wav,2,1,4,13,,,,,1,3,19,12,0,9,9,5,,,,,,,,,1,1.134791442003916,,,050,001,2019_May_20_1621,MusicAffectPsychophysiology2019,3.0.5,59.88980610876193,
To what extent did the music make you feel ,ANGRY,30MonoWAV/30MonoT1.wav,2,1,4,13,,,,,1,3,19,12,0,10,10,2,,,,,,,,,1,1.2345684950050781,,,050,001,2019_May_20_1621,MusicAffectPsychophysiology2019,3.0.5,59.88980610876193,
To what extent did the music make you feel ,EXCITED,30MonoWAV/30MonoT1.wav,2,1,4,13,,,,,1,3,19,12,0,11,11,7,,,,,,,,,2,0.951587429997744,,,050,001,2019_May_20_1621,MusicAffectPsychophysiology2019,3.0.5,59.88980610876193,
,,30MonoWAV/30MonoT1.wav,2,1,4,13,,,,,1,3,19,12,,,,,,,,,,,,,,,,,050,001,2019_May_20_1621,MusicAffectPsychophysiology2019,3.0.5,59.88980610876193,
To what extent did the music make you feel ,ANXIOUS ,30MonoWAV/30MonoT3.wav,2,1,4,15,,,,,1,4,20,14,0,0,0,1,,,2,3.239294710998365,3,1.3528910109962453,2,1.2534687080042204,1,1.2700037820031866,,,050,001,2019_May_20_1621,MusicAffectPsychophysiology2019,3.0.5,59.88980610876193,
To what extent did the music make you feel ,SAD,30MonoWAV/30MonoT3.wav,2,1,4,15,,,,,1,4,20,14,0,1,1,0,,,,,,,,,2,1.0196610150014749,,,050,001,2019_May_20_1621,MusicAffectPsychophysiology2019,3.0.5,59.88980610876193,
To what extent did the music make you feel ,TENDER,30MonoWAV/30MonoT3.wav,2,1,4,15,,,,,1,4,20,14,0,2,2,10,,,,,,,,,4,2.0911814969949774,,,050,001,2019_May_20_1621,MusicAffectPsychophysiology2019,3.0.5,59.88980610876193,
To what extent did the music make you feel ,FRUSTRATED,30MonoWAV/30MonoT3.wav,2,1,4,15,,,,,1,4,20,14,0,3,3,3,,,,,,,,,1,1.1022420359950047,,,050,001,2019_May_20_1621,MusicAffectPsychophysiology2019,3.0.5,59.88980610876193,
To what extent did the music make you feel ,EXCITED,30MonoWAV/30MonoT3.wav,2,1,4,15,,,,,1,4,20,14,0,4,4,7,,,,,,,,,1,1.2342680349975126,,,050,001,2019_May_20_1621,MusicAffectPsychophysiology2019,3.0.5,59.88980610876193,
To what extent did the music make you feel ,ANGRY,30MonoWAV/30MonoT3.wav,2,1,4,15,,,,,1,4,20,14,0,5,5,2,,,,,,,,,1,0.6512253530017915,,,050,001,2019_May_20_1621,MusicAffectPsychophysiology2019,3.0.5,59.88980610876193,
To what extent did the music make you feel ,HAPPY,30MonoWAV/30MonoT3.wav,2,1,4,15,,,,,1,4,20,14,0,6,6,6,,,,,,,,,3,1.5183551350055495,,,050,001,2019_May_20_1621,MusicAffectPsychophysiology2019,3.0.5,59.88980610876193,
To what extent did the music make you feel ,ASHAMED,30MonoWAV/30MonoT3.wav,2,1,4,15,,,,,1,4,20,14,0,7,7,4,,,,,,,,,1,1.0682941640043282,,,050,001,2019_May_20_1621,MusicAffectPsychophysiology2019,3.0.5,59.88980610876193,
To what extent did the music make you feel ,GUILTY,30MonoWAV/30MonoT3.wav,2,1,4,15,,,,,1,4,20,14,0,8,8,5,,,,,,,,,1,0.9353372140030842,,,050,001,2019_May_20_1621,MusicAffectPsychophysiology2019,3.0.5,59.88980610876193,
To what extent did the music make you feel ,SCARED,30MonoWAV/30MonoT3.wav,2,1,4,15,,,,,1,4,20,14,0,9,9,11,,,,,,,,,1,1.0025312209982076,,,050,001,2019_May_20_1621,MusicAffectPsychophysiology2019,3.0.5,59.88980610876193,
To what extent did the music make you feel ,ALERT,30MonoWAV/30MonoT3.wav,2,1,4,15,,,,,1,4,20,14,0,10,10,8,,,,,,,,,2,1.1513304089967278,,,050,001,2019_May_20_1621,MusicAffectPsychophysiology2019,3.0.5,59.88980610876193,
To what extent did the music make you feel ,ACTIVE,30MonoWAV/30MonoT3.wav,2,1,4,15,,,,,1,4,20,14,0,11,11,9,,,,,,,,,1,1.219356790999882,,,050,001,2019_May_20_1621,MusicAffectPsychophysiology2019,3.0.5,59.88980610876193,
,,30MonoWAV/30MonoT3.wav,2,1,4,15,,,,,1,4,20,14,,,,,,,,,,,,,,,,,050,001,2019_May_20_1621,MusicAffectPsychophysiology2019,3.0.5,59.88980610876193,
To what extent did the music make you feel ,SCARED,30MonoWAV/30MonoS4.wav,1,1,3,12,,,,,1,5,21,11,0,0,0,11,,,2,5.334718479003641,2,1.53576348900242,2,1.0522411950005335,1,1.6023581030021887,,,050,001,2019_May_20_1621,MusicAffectPsychophysiology2019,3.0.5,59.88980610876193,
To what extent did the music make you feel ,FRUSTRATED,30MonoWAV/30MonoS4.wav,1,1,3,12,,,,,1,5,21,11,0,1,1,3,,,,,,,,,1,0.6682365759988897,,,050,001,2019_May_20_1621,MusicAffectPsychophysiology2019,3.0.5,59.88980610876193,
To what extent did the music make you feel ,SAD,30MonoWAV/30MonoS4.wav,1,1,3,12,,,,,1,5,21,11,0,2,2,0,,,,,,,,,3,1.9848992150000413,,,050,001,2019_May_20_1621,MusicAffectPsychophysiology2019,3.0.5,59.88980610876193,
To what extent did the music make you feel ,EXCITED,30MonoWAV/30MonoS4.wav,1,1,3,12,,,,,1,5,21,11,0,3,3,7,,,,,,,,,1,3.5345154339956935,,,050,001,2019_May_20_1621,MusicAffectPsychophysiology2019,3.0.5,59.88980610876193,
To what extent did the music make you feel ,ANXIOUS ,30MonoWAV/30MonoS4.wav,1,1,3,12,,,,,1,5,21,11,0,4,4,1,,,,,,,,,1,0.9859731850010576,,,050,001,2019_May_20_1621,MusicAffectPsychophysiology2019,3.0.5,59.88980610876193,
To what extent did the music make you feel ,ACTIVE,30MonoWAV/30MonoS4.wav,1,1,3,12,,,,,1,5,21,11,0,5,5,9,,,,,,,,,1,1.118072449004103,,,050,001,2019_May_20_1621,MusicAffectPsychophysiology2019,3.0.5,59.88980610876193,
To what extent did the music make you feel ,ANGRY,30MonoWAV/30MonoS4.wav,1,1,3,12,,,,,1,5,21,11,0,6,6,2,,,,,,,,,1,1.0503409239972825,,,050,001,2019_May_20_1621,MusicAffectPsychophysiology2019,3.0.5,59.88980610876193,
To what extent did the music make you feel ,GUILTY,30MonoWAV/30MonoS4.wav,1,1,3,12,,,,,1,5,21,11,0,7,7,5,,,,,,,,,2,0.8177247239946155,,,050,001,2019_May_20_1621,MusicAffectPsychophysiology2019,3.0.5,59.88980610876193,
To what extent did the music make you feel ,TENDER,30MonoWAV/30MonoS4.wav,1,1,3,12,,,,,1,5,21,11,0,8,8,10,,,,,,,,,4,1.7522351119987434,,,050,001,2019_May_20_1621,MusicAffectPsychophysiology2019,3.0.5,59.88980610876193,
To what extent did the music make you feel ,ASHAMED,30MonoWAV/30MonoS4.wav,1,1,3,12,,,,,1,5,21,11,0,9,9,4,,,,,,,,,1,1.1853186919979635,,,050,001,2019_May_20_1621,MusicAffectPsychophysiology2019,3.0.5,59.88980610876193,
To what extent did the music make you feel ,HAPPY,30MonoWAV/30MonoS4.wav,1,1,3,12,,,,,1,5,21,11,0,10,10,6,,,,,,,,,2,0.9351683470013086,,,050,001,2019_May_20_1621,MusicAffectPsychophysiology2019,3.0.5,59.88980610876193,
To what extent did the music make you feel ,ALERT,30MonoWAV/30MonoS4.wav,1,1,3,12,,,,,1,5,21,11,0,11,11,8,,,,,,,,,1,0.852748804994917,,,050,001,2019_May_20_1621,MusicAffectPsychophysiology2019,3.0.5,59.88980610876193,
,,30MonoWAV/30MonoS4.wav,1,1,3,12,,,,,1,5,21,11,,,,,,,,,,,,,,,,,050,001,2019_May_20_1621,MusicAffectPsychophysiology2019,3.0.5,59.88980610876193,
To what extent did the music make you feel ,TENDER,30MonoWAV/30MonoS3.wav,1,1,3,11,,,,,1,6,22,10,0,0,0,10,,,2,3.3875152670007083,2,1.1851206139981514,2,1.4678553080011625,2,1.5010897180036409,,,050,001,2019_May_20_1621,MusicAffectPsychophysiology2019,3.0.5,59.88980610876193,
To what extent did the music make you feel ,ANGRY,30MonoWAV/30MonoS3.wav,1,1,3,11,,,,,1,6,22,10,0,1,1,2,,,,,,,,,1,1.4681679799978156,,,050,001,2019_May_20_1621,MusicAffectPsychophysiology2019,3.0.5,59.88980610876193,
To what extent did the music make you feel ,SAD,30MonoWAV/30MonoS3.wav,1,1,3,11,,,,,1,6,22,10,0,2,2,0,,,,,,,,,3,1.5512476450021495,,,050,001,2019_May_20_1621,MusicAffectPsychophysiology2019,3.0.5,59.88980610876193,
To what extent did the music make you feel ,EXCITED,30MonoWAV/30MonoS3.wav,1,1,3,11,,,,,1,6,22,10,0,3,3,7,,,,,,,,,2,1.2692550599967944,,,050,001,2019_May_20_1621,MusicAffectPsychophysiology2019,3.0.5,59.88980610876193,
To what extent did the music make you feel ,ALERT,30MonoWAV/30MonoS3.wav,1,1,3,11,,,,,1,6,22,10,0,4,4,8,,,,,,,,,2,2.617521380998369,,,050,001,2019_May_20_1621,MusicAffectPsychophysiology2019,3.0.5,59.88980610876193,
To what extent did the music make you feel ,SCARED,30MonoWAV/30MonoS3.wav,1,1,3,11,,,,,1,6,22,10,0,5,5,11,,,,,,,,,1,0.7858750319937826,,,050,001,2019_May_20_1621,MusicAffectPsychophysiology2019,3.0.5,59.88980610876193,
To what extent did the music make you feel ,ACTIVE,30MonoWAV/30MonoS3.wav,1,1,3,11,,,,,1,6,22,10,0,6,6,9,,,,,,,,,1,1.6516208440007176,,,050,001,2019_May_20_1621,MusicAffectPsychophysiology2019,3.0.5,59.88980610876193,
To what extent did the music make you feel ,ASHAMED,30MonoWAV/30MonoS3.wav,1,1,3,11,,,,,1,6,22,10,0,7,7,4,,,,,,,,,1,1.0525313830003142,,,050,001,2019_May_20_1621,MusicAffectPsychophysiology2019,3.0.5,59.88980610876193,
To what extent did the music make you feel ,GUILTY,30MonoWAV/30MonoS3.wav,1,1,3,11,,,,,1,6,22,10,0,8,8,5,,,,,,,,,2,0.9859006800033967,,,050,001,2019_May_20_1621,MusicAffectPsychophysiology2019,3.0.5,59.88980610876193,
To what extent did the music make you feel ,HAPPY,30MonoWAV/30MonoS3.wav,1,1,3,11,,,,,1,6,22,10,0,9,9,6,,,,,,,,,2,1.1683632770000258,,,050,001,2019_May_20_1621,MusicAffectPsychophysiology2019,3.0.5,59.88980610876193,
To what extent did the music make you feel ,FRUSTRATED,30MonoWAV/30MonoS3.wav,1,1,3,11,,,,,1,6,22,10,0,10,10,3,,,,,,,,,1,1.068911176000256,,,050,001,2019_May_20_1621,MusicAffectPsychophysiology2019,3.0.5,59.88980610876193,
To what extent did the music make you feel ,ANXIOUS ,30MonoWAV/30MonoS3.wav,1,1,3,11,,,,,1,6,22,10,0,11,11,1,,,,,,,,,1,1.184925112000201,,,050,001,2019_May_20_1621,MusicAffectPsychophysiology2019,3.0.5,59.88980610876193,
,,30MonoWAV/30MonoS3.wav,1,1,3,11,,,,,1,6,22,10,,,,,,,,,,,,,,,,,050,001,2019_May_20_1621,MusicAffectPsychophysiology2019,3.0.5,59.88980610876193,
To what extent did the music make you feel ,ANXIOUS ,30MonoWAV/30MonoH1.wav,2,2,1,5,,,,,1,7,23,4,0,0,0,1,,,3,2.917895785998553,3,1.4020790069989744,3,1.3675010799997835,1,1.301312297997356,,,050,001,2019_May_20_1621,MusicAffectPsychophysiology2019,3.0.5,59.88980610876193,
To what extent did the music make you feel ,SAD,30MonoWAV/30MonoH1.wav,2,2,1,5,,,,,1,7,23,4,0,1,1,0,,,,,,,,,1,0.8180060770027922,,,050,001,2019_May_20_1621,MusicAffectPsychophysiology2019,3.0.5,59.88980610876193,
To what extent did the music make you feel ,EXCITED,30MonoWAV/30MonoH1.wav,2,2,1,5,,,,,1,7,23,4,0,2,2,7,,,,,,,,,3,1.3186952730029589,,,050,001,2019_May_20_1621,MusicAffectPsychophysiology2019,3.0.5,59.88980610876193,
To what extent did the music make you feel ,ALERT,30MonoWAV/30MonoH1.wav,2,2,1,5,,,,,1,7,23,4,0,3,3,8,,,,,,,,,3,1.035010150000744,,,050,001,2019_May_20_1621,MusicAffectPsychophysiology2019,3.0.5,59.88980610876193,
To what extent did the music make you feel ,SCARED,30MonoWAV/30MonoH1.wav,2,2,1,5,,,,,1,7,23,4,0,4,4,11,,,,,,,,,1,0.9689257840000209,,,050,001,2019_May_20_1621,MusicAffectPsychophysiology2019,3.0.5,59.88980610876193,
To what extent did the music make you feel ,ASHAMED,30MonoWAV/30MonoH1.wav,2,2,1,5,,,,,1,7,23,4,0,5,5,4,,,,,,,,,1,0.7831450189987663,,,050,001,2019_May_20_1621,MusicAffectPsychophysiology2019,3.0.5,59.88980610876193,
To what extent did the music make you feel ,TENDER,30MonoWAV/30MonoH1.wav,2,2,1,5,,,,,1,7,23,4,0,6,6,10,,,,,,,,,2,0.901983311996446,,,050,001,2019_May_20_1621,MusicAffectPsychophysiology2019,3.0.5,59.88980610876193,
To what extent did the music make you feel ,ACTIVE,30MonoWAV/30MonoH1.wav,2,2,1,5,,,,,1,7,23,4,0,7,7,9,,,,,,,,,3,1.1001393199985614,,,050,001,2019_May_20_1621,MusicAffectPsychophysiology2019,3.0.5,59.88980610876193,
To what extent did the music make you feel ,FRUSTRATED,30MonoWAV/30MonoH1.wav,2,2,1,5,,,,,1,7,23,4,0,8,8,3,,,,,,,,,1,0.7651554059993941,,,050,001,2019_May_20_1621,MusicAffectPsychophysiology2019,3.0.5,59.88980610876193,
To what extent did the music make you feel ,GUILTY,30MonoWAV/30MonoH1.wav,2,2,1,5,,,,,1,7,23,4,0,9,9,5,,,,,,,,,1,0.7846462309971685,,,050,001,2019_May_20_1621,MusicAffectPsychophysiology2019,3.0.5,59.88980610876193,
To what extent did the music make you feel ,HAPPY,30MonoWAV/30MonoH1.wav,2,2,1,5,,,,,1,7,23,4,0,10,10,6,,,,,,,,,4,2.2345686509943334,,,050,001,2019_May_20_1621,MusicAffectPsychophysiology2019,3.0.5,59.88980610876193,
To what extent did the music make you feel ,ANGRY,30MonoWAV/30MonoH1.wav,2,2,1,5,,,,,1,7,23,4,0,11,11,2,,,,,,,,,1,1.1685397219989682,,,050,001,2019_May_20_1621,MusicAffectPsychophysiology2019,3.0.5,59.88980610876193,
,,30MonoWAV/30MonoH1.wav,2,2,1,5,,,,,1,7,23,4,,,,,,,,,,,,,,,,,050,001,2019_May_20_1621,MusicAffectPsychophysiology2019,3.0.5,59.88980610876193,
To what extent did the music make you feel ,TENDER,30MonoWAV/30MonoS1.wav,1,1,3,9,,,,,1,8,24,8,0,0,0,10,,,2,4.802010204999533,3,2.568628572000307,2,1.3681539570025052,4,1.3514240740041714,,,050,001,2019_May_20_1621,MusicAffectPsychophysiology2019,3.0.5,59.88980610876193,
To what extent did the music make you feel ,ANXIOUS ,30MonoWAV/30MonoS1.wav,1,1,3,9,,,,,1,8,24,8,0,1,1,1,,,,,,,,,1,1.1015194620049442,,,050,001,2019_May_20_1621,MusicAffectPsychophysiology2019,3.0.5,59.88980610876193,
To what extent did the music make you feel ,ALERT,30MonoWAV/30MonoS1.wav,1,1,3,9,,,,,1,8,24,8,0,2,2,8,,,,,,,,,2,1.2690504520069226,,,050,001,2019_May_20_1621,MusicAffectPsychophysiology2019,3.0.5,59.88980610876193,
To what extent did the music make you feel ,GUILTY,30MonoWAV/30MonoS1.wav,1,1,3,9,,,,,1,8,24,8,0,3,3,5,,,,,,,,,1,0.9006997469987255,,,050,001,2019_May_20_1621,MusicAffectPsychophysiology2019,3.0.5,59.88980610876193,
To what extent did the music make you feel ,HAPPY,30MonoWAV/30MonoS1.wav,1,1,3,9,,,,,1,8,24,8,0,4,4,6,,,,,,,,,3,1.318238410000049,,,050,001,2019_May_20_1621,MusicAffectPsychophysiology2019,3.0.5,59.88980610876193,
To what extent did the music make you feel ,ACTIVE,30MonoWAV/30MonoS1.wav,1,1,3,9,,,,,1,8,24,8,0,5,5,9,,,,,,,,,1,0.8022013099980541,,,050,001,2019_May_20_1621,MusicAffectPsychophysiology2019,3.0.5,59.88980610876193,
To what extent did the music make you feel ,SAD,30MonoWAV/30MonoS1.wav,1,1,3,9,,,,,1,8,24,8,0,6,6,0,,,,,,,,,2,0.9183801180042792,,,050,001,2019_May_20_1621,MusicAffectPsychophysiology2019,3.0.5,59.88980610876193,
To what extent did the music make you feel ,ANGRY,30MonoWAV/30MonoS1.wav,1,1,3,9,,,,,1,8,24,8,0,7,7,2,,,,,,,,,1,0.6679579739939072,,,050,001,2019_May_20_1621,MusicAffectPsychophysiology2019,3.0.5,59.88980610876193,
To what extent did the music make you feel ,EXCITED,30MonoWAV/30MonoS1.wav,1,1,3,9,,,,,1,8,24,8,0,8,8,7,,,,,,,,,2,1.0007887730025686,,,050,001,2019_May_20_1621,MusicAffectPsychophysiology2019,3.0.5,59.88980610876193,
To what extent did the music make you feel ,ASHAMED,30MonoWAV/30MonoS1.wav,1,1,3,9,,,,,1,8,24,8,0,9,9,4,,,,,,,,,2,1.5507646340047359,,,050,001,2019_May_20_1621,MusicAffectPsychophysiology2019,3.0.5,59.88980610876193,
To what extent did the music make you feel ,FRUSTRATED,30MonoWAV/30MonoS1.wav,1,1,3,9,,,,,1,8,24,8,0,10,10,3,,,,,,,,,1,0.7854749649995938,,,050,001,2019_May_20_1621,MusicAffectPsychophysiology2019,3.0.5,59.88980610876193,
To what extent did the music make you feel ,SCARED,30MonoWAV/30MonoS1.wav,1,1,3,9,,,,,1,8,24,8,0,11,11,11,,,,,,,,,1,1.1685011230001692,,,050,001,2019_May_20_1621,MusicAffectPsychophysiology2019,3.0.5,59.88980610876193,
,,30MonoWAV/30MonoS1.wav,1,1,3,9,,,,,1,8,24,8,,,,,,,,,,,,,,,,,050,001,2019_May_20_1621,MusicAffectPsychophysiology2019,3.0.5,59.88980610876193,
To what extent did the music make you feel ,HAPPY,30MonoWAV/30MonoF4.wav,1,2,2,4,,,,,1,9,25,3,0,0,0,6,,,4,5.167574175997288,1,1.4185963490017457,1,1.3012674300043727,1,1.1853214770017075,,,050,001,2019_May_20_1621,MusicAffectPsychophysiology2019,3.0.5,59.88980610876193,
To what extent did the music make you feel ,ACTIVE,30MonoWAV/30MonoF4.wav,1,2,2,4,,,,,1,9,25,3,0,1,1,9,,,,,,,,,4,1.7352152439998463,,,050,001,2019_May_20_1621,MusicAffectPsychophysiology2019,3.0.5,59.88980610876193,
To what extent did the music make you feel ,FRUSTRATED,30MonoWAV/30MonoF4.wav,1,2,2,4,,,,,1,9,25,3,0,2,2,3,,,,,,,,,2,1.3176035069991485,,,050,001,2019_May_20_1621,MusicAffectPsychophysiology2019,3.0.5,59.88980610876193,
To what extent did the music make you feel ,ASHAMED,30MonoWAV/30MonoF4.wav,1,2,2,4,,,,,1,9,25,3,0,3,3,4,,,,,,,,,2,1.0508170890025212,,,050,001,2019_May_20_1621,MusicAffectPsychophysiology2019,3.0.5,59.88980610876193,
To what extent did the music make you feel ,ANGRY,30MonoWAV/30MonoF4.wav,1,2,2,4,,,,,1,9,25,3,0,4,4,2,,,,,,,,,2,0.9846800129962503,,,050,001,2019_May_20_1621,MusicAffectPsychophysiology2019,3.0.5,59.88980610876193,
To what extent did the music make you feel ,ALERT,30MonoWAV/30MonoF4.wav,1,2,2,4,,,,,1,9,25,3,0,5,5,8,,,,,,,,,5,2.351877577995765,,,050,001,2019_May_20_1621,MusicAffectPsychophysiology2019,3.0.5,59.88980610876193,
To what extent did the music make you feel ,EXCITED,30MonoWAV/30MonoF4.wav,1,2,2,4,,,,,1,9,25,3,0,6,6,7,,,,,,,,,2,1.4511702349991538,,,050,001,2019_May_20_1621,MusicAffectPsychophysiology2019,3.0.5,59.88980610876193,
To what extent did the music make you feel ,TENDER,30MonoWAV/30MonoF4.wav,1,2,2,4,,,,,1,9,25,3,0,7,7,10,,,,,,,,,2,1.88495371099998,,,050,001,2019_May_20_1621,MusicAffectPsychophysiology2019,3.0.5,59.88980610876193,
To what extent did the music make you feel ,SAD,30MonoWAV/30MonoF4.wav,1,2,2,4,,,,,1,9,25,3,0,8,8,0,,,,,,,,,1,2.067831437001587,,,050,001,2019_May_20_1621,MusicAffectPsychophysiology2019,3.0.5,59.88980610876193,
To what extent did the music make you feel ,SCARED,30MonoWAV/30MonoF4.wav,1,2,2,4,,,,,1,9,25,3,0,9,9,11,,,,,,,,,3,1.5352624649967765,,,050,001,2019_May_20_1621,MusicAffectPsychophysiology2019,3.0.5,59.88980610876193,
To what extent did the music make you feel ,GUILTY,30MonoWAV/30MonoF4.wav,1,2,2,4,,,,,1,9,25,3,0,10,10,5,,,,,,,,,2,1.217145475995494,,,050,001,2019_May_20_1621,MusicAffectPsychophysiology2019,3.0.5,59.88980610876193,
To what extent did the music make you feel ,ANXIOUS ,30MonoWAV/30MonoF4.wav,1,2,2,4,,,,,1,9,25,3,0,11,11,1,,,,,,,,,3,0.8674249320029048,,,050,001,2019_May_20_1621,MusicAffectPsychophysiology2019,3.0.5,59.88980610876193,
,,30MonoWAV/30MonoF4.wav,1,2,2,4,,,,,1,9,25,3,,,,,,,,,,,,,,,,,050,001,2019_May_20_1621,MusicAffectPsychophysiology2019,3.0.5,59.88980610876193,
To what extent did the music make you feel ,GUILTY,30MonoWAV/30MonoF1.wav,1,2,2,1,,,,,1,10,26,0,0,0,0,5,,,2,4.80128474200319,1,1.5341588680021232,1,1.4842400310008088,3,1.6845587360003265,,,050,001,2019_May_20_1621,MusicAffectPsychophysiology2019,3.0.5,59.88980610876193,
To what extent did the music make you feel ,FRUSTRATED,30MonoWAV/30MonoF1.wav,1,2,2,1,,,,,1,10,26,0,0,1,1,3,,,,,,,,,2,1.517996761998802,,,050,001,2019_May_20_1621,MusicAffectPsychophysiology2019,3.0.5,59.88980610876193,
To what extent did the music make you feel ,ANGRY,30MonoWAV/30MonoF1.wav,1,2,2,1,,,,,1,10,26,0,0,2,2,2,,,,,,,,,1,2.0347627000010107,,,050,001,2019_May_20_1621,MusicAffectPsychophysiology2019,3.0.5,59.88980610876193,
To what extent did the music make you feel ,SCARED,30MonoWAV/30MonoF1.wav,1,2,2,1,,,,,1,10,26,0,0,3,3,11,,,,,,,,,4,4.418281605998345,,,050,001,2019_May_20_1621,MusicAffectPsychophysiology2019,3.0.5,59.88980610876193,
To what extent did the music make you feel ,ALERT,30MonoWAV/30MonoF1.wav,1,2,2,1,,,,,1,10,26,0,0,4,4,8,,,,,,,,,5,1.6015239940024912,,,050,001,2019_May_20_1621,MusicAffectPsychophysiology2019,3.0.5,59.88980610876193,
To what extent did the music make you feel ,TENDER,30MonoWAV/30MonoF1.wav,1,2,2,1,,,,,1,10,26,0,0,5,5,10,,,,,,,,,1,1.152286185999401,,,050,001,2019_May_20_1621,MusicAffectPsychophysiology2019,3.0.5,59.88980610876193,
To what extent did the music make you feel ,SAD,30MonoWAV/30MonoF1.wav,1,2,2,1,,,,,1,10,26,0,0,6,6,0,,,,,,,,,2,1.1017522449983517,,,050,001,2019_May_20_1621,MusicAffectPsychophysiology2019,3.0.5,59.88980610876193,
To what extent did the music make you feel ,ANXIOUS ,30MonoWAV/30MonoF1.wav,1,2,2,1,,,,,1,10,26,0,0,7,7,1,,,,,,,,,3,1.3178209520046948,,,050,001,2019_May_20_1621,MusicAffectPsychophysiology2019,3.0.5,59.88980610876193,
To what extent did the music make you feel ,ASHAMED,30MonoWAV/30MonoF1.wav,1,2,2,1,,,,,1,10,26,0,0,8,8,4,,,,,,,,,3,1.218581714994798,,,050,001,2019_May_20_1621,MusicAffectPsychophysiology2019,3.0.5,59.88980610876193,
To what extent did the music make you feel ,HAPPY,30MonoWAV/30MonoF1.wav,1,2,2,1,,,,,1,10,26,0,0,9,9,6,,,,,,,,,1,0.9019888160037226,,,050,001,2019_May_20_1621,MusicAffectPsychophysiology2019,3.0.5,59.88980610876193,
To what extent did the music make you feel ,EXCITED,30MonoWAV/30MonoF1.wav,1,2,2,1,,,,,1,10,26,0,0,10,10,7,,,,,,,,,1,1.7165392960014287,,,050,001,2019_May_20_1621,MusicAffectPsychophysiology2019,3.0.5,59.88980610876193,
To what extent did the music make you feel ,ACTIVE,30MonoWAV/30MonoF1.wav,1,2,2,1,,,,,1,10,26,0,0,11,11,9,,,,,,,,,2,2.8510061599954497,,,050,001,2019_May_20_1621,MusicAffectPsychophysiology2019,3.0.5,59.88980610876193,
,,30MonoWAV/30MonoF1.wav,1,2,2,1,,,,,1,10,26,0,,,,,,,,,,,,,,,,,050,001,2019_May_20_1621,MusicAffectPsychophysiology2019,3.0.5,59.88980610876193,
To what extent did the music make you feel ,ASHAMED,30MonoWAV/30MonoS2.wav,1,1,3,10,,,,,1,11,27,9,0,0,0,4,,,2,5.67586466800276,2,2.3711985340050887,1,1.586245296006382,1,0.20257579899771372,,,050,001,2019_May_20_1621,MusicAffectPsychophysiology2019,3.0.5,59.88980610876193,
To what extent did the music make you feel ,FRUSTRATED,30MonoWAV/30MonoS2.wav,1,1,3,10,,,,,1,11,27,9,0,1,1,3,,,,,,,,,1,0.15238758900522953,,,050,001,2019_May_20_1621,MusicAffectPsychophysiology2019,3.0.5,59.88980610876193,
To what extent did the music make you feel ,EXCITED,30MonoWAV/30MonoS2.wav,1,1,3,10,,,,,1,11,27,9,0,2,2,7,,,,,,,,,2,3.5222117949961103,,,050,001,2019_May_20_1621,MusicAffectPsychophysiology2019,3.0.5,59.88980610876193,
To what extent did the music make you feel ,ANXIOUS ,30MonoWAV/30MonoS2.wav,1,1,3,10,,,,,1,11,27,9,0,3,3,1,,,,,,,,,1,1.7847241899944493,,,050,001,2019_May_20_1621,MusicAffectPsychophysiology2019,3.0.5,59.88980610876193,
To what extent did the music make you feel ,SAD,30MonoWAV/30MonoS2.wav,1,1,3,10,,,,,1,11,27,9,0,4,4,0,,,,,,,,,3,1.6345024970069062,,,050,001,2019_May_20_1621,MusicAffectPsychophysiology2019,3.0.5,59.88980610876193,
To what extent did the music make you feel ,GUILTY,30MonoWAV/30MonoS2.wav,1,1,3,10,,,,,1,11,27,9,0,5,5,5,,,,,,,,,1,1.4167391349983518,,,050,001,2019_May_20_1621,MusicAffectPsychophysiology2019,3.0.5,59.88980610876193,
To what extent did the music make you feel ,ALERT,30MonoWAV/30MonoS2.wav,1,1,3,10,,,,,1,11,27,9,0,6,6,8,,,,,,,,,2,3.5345909259995096,,,050,001,2019_May_20_1621,MusicAffectPsychophysiology2019,3.0.5,59.88980610876193,
To what extent did the music make you feel ,ANGRY,30MonoWAV/30MonoS2.wav,1,1,3,10,,,,,1,11,27,9,0,7,7,2,,,,,,,,,1,0.8681038270005956,,,050,001,2019_May_20_1621,MusicAffectPsychophysiology2019,3.0.5,59.88980610876193,
To what extent did the music make you feel ,HAPPY,30MonoWAV/30MonoS2.wav,1,1,3,10,,,,,1,11,27,9,0,8,8,6,,,,,,,,,2,1.385650351003278,,,050,001,2019_May_20_1621,MusicAffectPsychophysiology2019,3.0.5,59.88980610876193,
To what extent did the music make you feel ,SCARED,30MonoWAV/30MonoS2.wav,1,1,3,10,,,,,1,11,27,9,0,9,9,11,,,,,,,,,1,1.5691031090027536,,,050,001,2019_May_20_1621,MusicAffectPsychophysiology2019,3.0.5,59.88980610876193,
To what extent did the music make you feel ,TENDER,30MonoWAV/30MonoS2.wav,1,1,3,10,,,,,1,11,27,9,0,10,10,10,,,,,,,,,4,1.4341683810052928,,,050,001,2019_May_20_1621,MusicAffectPsychophysiology2019,3.0.5,59.88980610876193,
To what extent did the music make you feel ,ACTIVE,30MonoWAV/30MonoS2.wav,1,1,3,10,,,,,1,11,27,9,0,11,11,9,,,,,,,,,1,1.8853351600046153,,,050,001,2019_May_20_1621,MusicAffectPsychophysiology2019,3.0.5,59.88980610876193,
,,30MonoWAV/30MonoS2.wav,1,1,3,10,,,,,1,11,27,9,,,,,,,,,,,,,,,,,050,001,2019_May_20_1621,MusicAffectPsychophysiology2019,3.0.5,59.88980610876193,
To what extent did the music make you feel ,ACTIVE,30MonoWAV/30MonoF2.wav,1,2,2,2,,,,,1,12,28,1,0,0,0,9,,,3,4.360385861000395,1,1.1691968999948585,1,0.9671932109995396,2,1.652124250002089,,,050,001,2019_May_20_1621,MusicAffectPsychophysiology2019,3.0.5,59.88980610876193,
To what extent did the music make you feel ,GUILTY,30MonoWAV/30MonoF2.wav,1,2,2,2,,,,,1,12,28,1,0,1,1,5,,,,,,,,,4,1.7193468010009383,,,050,001,2019_May_20_1621,MusicAffectPsychophysiology2019,3.0.5,59.88980610876193,
To what extent did the music make you feel ,SAD,30MonoWAV/30MonoF2.wav,1,2,2,2,,,,,1,12,28,1,0,2,2,0,,,,,,,,,3,1.3683448329975363,,,050,001,2019_May_20_1621,MusicAffectPsychophysiology2019,3.0.5,59.88980610876193,
To what extent did the music make you feel ,ANGRY,30MonoWAV/30MonoF2.wav,1,2,2,2,,,,,1,12,28,1,0,3,3,2,,,,,,,,,2,1.201649497001199,,,050,001,2019_May_20_1621,MusicAffectPsychophysiology2019,3.0.5,59.88980610876193,
To what extent did the music make you feel ,FRUSTRATED,30MonoWAV/30MonoF2.wav,1,2,2,2,,,,,1,12,28,1,0,4,4,3,,,,,,,,,2,1.1017145139994682,,,050,001,2019_May_20_1621,MusicAffectPsychophysiology2019,3.0.5,59.88980610876193,
To what extent did the music make you feel ,ANXIOUS ,30MonoWAV/30MonoF2.wav,1,2,2,2,,,,,1,12,28,1,0,5,5,1,,,,,,,,,5,1.1686966289998963,,,050,001,2019_May_20_1621,MusicAffectPsychophysiology2019,3.0.5,59.88980610876193,
To what extent did the music make you feel ,EXCITED,30MonoWAV/30MonoF2.wav,1,2,2,2,,,,,1,12,28,1,0,6,6,7,,,,,,,,,1,1.0184858729990083,,,050,001,2019_May_20_1621,MusicAffectPsychophysiology2019,3.0.5,59.88980610876193,
To what extent did the music make you feel ,SCARED,30MonoWAV/30MonoF2.wav,1,2,2,2,,,,,1,12,28,1,0,7,7,11,,,,,,,,,5,1.0015069849978318,,,050,001,2019_May_20_1621,MusicAffectPsychophysiology2019,3.0.5,59.88980610876193,
To what extent did the music make you feel ,ALERT,30MonoWAV/30MonoF2.wav,1,2,2,2,,,,,1,12,28,1,0,8,8,8,,,,,,,,,4,1.0348207280039787,,,050,001,2019_May_20_1621,MusicAffectPsychophysiology2019,3.0.5,59.88980610876193,
To what extent did the music make you feel ,HAPPY,30MonoWAV/30MonoF2.wav,1,2,2,2,,,,,1,12,28,1,0,9,9,6,,,,,,,,,1,1.0016488920009579,,,050,001,2019_May_20_1621,MusicAffectPsychophysiology2019,3.0.5,59.88980610876193,
To what extent did the music make you feel ,TENDER,30MonoWAV/30MonoF2.wav,1,2,2,2,,,,,1,12,28,1,0,10,10,10,,,,,,,,,1,0.9521175219997531,,,050,001,2019_May_20_1621,MusicAffectPsychophysiology2019,3.0.5,59.88980610876193,
To what extent did the music make you feel ,ASHAMED,30MonoWAV/30MonoF2.wav,1,2,2,2,,,,,1,12,28,1,0,11,11,4,,,,,,,,,2,1.0854492829967057,,,050,001,2019_May_20_1621,MusicAffectPsychophysiology2019,3.0.5,59.88980610876193,
,,30MonoWAV/30MonoF2.wav,1,2,2,2,,,,,1,12,28,1,,,,,,,,,,,,,,,,,050,001,2019_May_20_1621,MusicAffectPsychophysiology2019,3.0.5,59.88980610876193,
To what extent did the music make you feel ,ANXIOUS ,30MonoWAV/30MonoH4.wav,2,2,1,8,,,,,1,13,29,7,0,0,0,1,,,4,2.9010311149977497,4,1.4350418309986708,4,1.4016904499949305,1,1.118143710998993,,,050,001,2019_May_20_1621,MusicAffectPsychophysiology2019,3.0.5,59.88980610876193,
To what extent did the music make you feel ,ASHAMED,30MonoWAV/30MonoH4.wav,2,2,1,8,,,,,1,13,29,7,0,1,1,4,,,,,,,,,1,0.8342295910042594,,,050,001,2019_May_20_1621,MusicAffectPsychophysiology2019,3.0.5,59.88980610876193,
To what extent did the music make you feel ,ALERT,30MonoWAV/30MonoH4.wav,2,2,1,8,,,,,1,13,29,7,0,2,2,8,,,,,,,,,4,1.734533613001986,,,050,001,2019_May_20_1621,MusicAffectPsychophysiology2019,3.0.5,59.88980610876193,
To what extent did the music make you feel ,HAPPY,30MonoWAV/30MonoH4.wav,2,2,1,8,,,,,1,13,29,7,0,3,3,6,,,,,,,,,5,1.0030646060040453,,,050,001,2019_May_20_1621,MusicAffectPsychophysiology2019,3.0.5,59.88980610876193,
To what extent did the music make you feel ,SAD,30MonoWAV/30MonoH4.wav,2,2,1,8,,,,,1,13,29,7,0,4,4,0,,,,,,,,,1,0.9851863859948935,,,050,001,2019_May_20_1621,MusicAffectPsychophysiology2019,3.0.5,59.88980610876193,
To what extent did the music make you feel ,TENDER,30MonoWAV/30MonoH4.wav,2,2,1,8,,,,,1,13,29,7,0,5,5,10,,,,,,,,,2,1.135464963997947,,,050,001,2019_May_20_1621,MusicAffectPsychophysiology2019,3.0.5,59.88980610876193,
To what extent did the music make you feel ,ANGRY,30MonoWAV/30MonoH4.wav,2,2,1,8,,,,,1,13,29,7,0,6,6,2,,,,,,,,,1,0.8348750720033422,,,050,001,2019_May_20_1621,MusicAffectPsychophysiology2019,3.0.5,59.88980610876193,
To what extent did the music make you feel ,FRUSTRATED,30MonoWAV/30MonoH4.wav,2,2,1,8,,,,,1,13,29,7,0,7,7,3,,,,,,,,,1,0.6685125660005724,,,050,001,2019_May_20_1621,MusicAffectPsychophysiology2019,3.0.5,59.88980610876193,
To what extent did the music make you feel ,EXCITED,30MonoWAV/30MonoH4.wav,2,2,1,8,,,,,1,13,29,7,0,8,8,7,,,,,,,,,4,1.1186836370034143,,,050,001,2019_May_20_1621,MusicAffectPsychophysiology2019,3.0.5,59.88980610876193,
To what extent did the music make you feel ,ACTIVE,30MonoWAV/30MonoH4.wav,2,2,1,8,,,,,1,13,29,7,0,9,9,9,,,,,,,,,4,0.9496103800047422,,,050,001,2019_May_20_1621,MusicAffectPsychophysiology2019,3.0.5,59.88980610876193,
To what extent did the music make you feel ,GUILTY,30MonoWAV/30MonoH4.wav,2,2,1,8,,,,,1,13,29,7,0,10,10,5,,,,,,,,,1,0.9177298349968623,,,050,001,2019_May_20_1621,MusicAffectPsychophysiology2019,3.0.5,59.88980610876193,
To what extent did the music make you feel ,SCARED,30MonoWAV/30MonoH4.wav,2,2,1,8,,,,,1,13,29,7,0,11,11,11,,,,,,,,,1,0.902515299996594,,,050,001,2019_May_20_1621,MusicAffectPsychophysiology2019,3.0.5,59.88980610876193,
,,30MonoWAV/30MonoH4.wav,2,2,1,8,,,,,1,13,29,7,,,,,,,,,,,,,,,,,050,001,2019_May_20_1621,MusicAffectPsychophysiology2019,3.0.5,59.88980610876193,
To what extent did the music make you feel ,ASHAMED,30MonoWAV/30MonoH2.wav,2,2,1,6,,,,,1,14,30,5,0,0,0,4,,,3,3.5029613279984915,4,2.8517568149982253,3,1.4352630670036888,1,0.9516970270051388,,,050,001,2019_May_20_1621,MusicAffectPsychophysiology2019,3.0.5,59.88980610876193,
To what extent did the music make you feel ,HAPPY,30MonoWAV/30MonoH2.wav,2,2,1,6,,,,,1,14,30,5,0,1,1,6,,,,,,,,,4,1.433091680999496,,,050,001,2019_May_20_1621,MusicAffectPsychophysiology2019,3.0.5,59.88980610876193,
To what extent did the music make you feel ,GUILTY,30MonoWAV/30MonoH2.wav,2,2,1,6,,,,,1,14,30,5,0,2,2,5,,,,,,,,,1,1.0346647840051446,,,050,001,2019_May_20_1621,MusicAffectPsychophysiology2019,3.0.5,59.88980610876193,
To what extent did the music make you feel ,SCARED,30MonoWAV/30MonoH2.wav,2,2,1,6,,,,,1,14,30,5,0,3,3,11,,,,,,,,,1,0.8517999429968768,,,050,001,2019_May_20_1621,MusicAffectPsychophysiology2019,3.0.5,59.88980610876193,
To what extent did the music make you feel ,EXCITED,30MonoWAV/30MonoH2.wav,2,2,1,6,,,,,1,14,30,5,0,4,4,7,,,,,,,,,3,1.2012834689958254,,,050,001,2019_May_20_1621,MusicAffectPsychophysiology2019,3.0.5,59.88980610876193,
To what extent did the music make you feel ,FRUSTRATED,30MonoWAV/30MonoH2.wav,2,2,1,6,,,,,1,14,30,5,0,5,5,3,,,,,,,,,1,0.7174874560005264,,,050,001,2019_May_20_1621,MusicAffectPsychophysiology2019,3.0.5,59.88980610876193,
To what extent did the music make you feel ,ALERT,30MonoWAV/30MonoH2.wav,2,2,1,6,,,,,1,14,30,5,0,6,6,8,,,,,,,,,4,1.5191226859969902,,,050,001,2019_May_20_1621,MusicAffectPsychophysiology2019,3.0.5,59.88980610876193,
To what extent did the music make you feel ,ANGRY,30MonoWAV/30MonoH2.wav,2,2,1,6,,,,,1,14,30,5,0,7,7,2,,,,,,,,,1,0.8188188069980242,,,050,001,2019_May_20_1621,MusicAffectPsychophysiology2019,3.0.5,59.88980610876193,
To what extent did the music make you feel ,ANXIOUS ,30MonoWAV/30MonoH2.wav,2,2,1,6,,,,,1,14,30,5,0,8,8,1,,,,,,,,,1,1.5352652619985747,,,050,001,2019_May_20_1621,MusicAffectPsychophysiology2019,3.0.5,59.88980610876193,
To what extent did the music make you feel ,TENDER,30MonoWAV/30MonoH2.wav,2,2,1,6,,,,,1,14,30,5,0,9,9,10,,,,,,,,,2,1.3008886240058928,,,050,001,2019_May_20_1621,MusicAffectPsychophysiology2019,3.0.5,59.88980610876193,
To what extent did the music make you feel ,SAD,30MonoWAV/30MonoH2.wav,2,2,1,6,,,,,1,14,30,5,0,10,10,0,,,,,,,,,1,0.8515360559977125,,,050,001,2019_May_20_1621,MusicAffectPsychophysiology2019,3.0.5,59.88980610876193,
To what extent did the music make you feel ,ACTIVE,30MonoWAV/30MonoH2.wav,2,2,1,6,,,,,1,14,30,5,0,11,11,9,,,,,,,,,3,1.3843982589969528,,,050,001,2019_May_20_1621,MusicAffectPsychophysiology2019,3.0.5,59.88980610876193,
,,30MonoWAV/30MonoH2.wav,2,2,1,6,,,,,1,14,30,5,,,,,,,,,,,,,,,,,050,001,2019_May_20_1621,MusicAffectPsychophysiology2019,3.0.5,59.88980610876193,
To what extent did the music make you feel ,HAPPY,30MonoWAV/30MonoT4.wav,2,1,4,16,,,,,1,15,31,15,0,0,0,6,,,3,4.218064570995921,3,1.4854022440049448,3,1.4526332009991165,4,2.167076243000338,,,050,001,2019_May_20_1621,MusicAffectPsychophysiology2019,3.0.5,59.88980610876193,
To what extent did the music make you feel ,ANXIOUS ,30MonoWAV/30MonoT4.wav,2,1,4,16,,,,,1,15,31,15,0,1,1,1,,,,,,,,,1,0.9681606319936691,,,050,001,2019_May_20_1621,MusicAffectPsychophysiology2019,3.0.5,59.88980610876193,
To what extent did the music make you feel ,ALERT,30MonoWAV/30MonoT4.wav,2,1,4,16,,,,,1,15,31,15,0,2,2,8,,,,,,,,,3,1.2354910420035594,,,050,001,2019_May_20_1621,MusicAffectPsychophysiology2019,3.0.5,59.88980610876193,
To what extent did the music make you feel ,TENDER,30MonoWAV/30MonoT4.wav,2,1,4,16,,,,,1,15,31,15,0,3,3,10,,,,,,,,,5,1.1681340700015426,,,050,001,2019_May_20_1621,MusicAffectPsychophysiology2019,3.0.5,59.88980610876193,
To what extent did the music make you feel ,ACTIVE,30MonoWAV/30MonoT4.wav,2,1,4,16,,,,,1,15,31,15,0,4,4,9,,,,,,,,,2,1.2683241609993274,,,050,001,2019_May_20_1621,MusicAffectPsychophysiology2019,3.0.5,59.88980610876193,
To what extent did the music make you feel ,FRUSTRATED,30MonoWAV/30MonoT4.wav,2,1,4,16,,,,,1,15,31,15,0,5,5,3,,,,,,,,,1,0.8858520649955608,,,050,001,2019_May_20_1621,MusicAffectPsychophysiology2019,3.0.5,59.88980610876193,
To what extent did the music make you feel ,ANGRY,30MonoWAV/30MonoT4.wav,2,1,4,16,,,,,1,15,31,15,0,6,6,2,,,,,,,,,1,0.7172980769973947,,,050,001,2019_May_20_1621,MusicAffectPsychophysiology2019,3.0.5,59.88980610876193,
To what extent did the music make you feel ,EXCITED,30MonoWAV/30MonoT4.wav,2,1,4,16,,,,,1,15,31,15,0,7,7,7,,,,,,,,,2,1.3174128419996123,,,050,001,2019_May_20_1621,MusicAffectPsychophysiology2019,3.0.5,59.88980610876193,
To what extent did the music make you feel ,GUILTY,30MonoWAV/30MonoT4.wav,2,1,4,16,,,,,1,15,31,15,0,8,8,5,,,,,,,,,1,1.0180070559945307,,,050,001,2019_May_20_1621,MusicAffectPsychophysiology2019,3.0.5,59.88980610876193,
To what extent did the music make you feel ,SAD,30MonoWAV/30MonoT4.wav,2,1,4,16,,,,,1,15,31,15,0,9,9,0,,,,,,,,,1,3.435484046000056,,,050,001,2019_May_20_1621,MusicAffectPsychophysiology2019,3.0.5,59.88980610876193,
To what extent did the music make you feel ,ASHAMED,30MonoWAV/30MonoT4.wav,2,1,4,16,,,,,1,15,31,15,0,10,10,4,,,,,,,,,1,1.1686358349979855,,,050,001,2019_May_20_1621,MusicAffectPsychophysiology2019,3.0.5,59.88980610876193,
To what extent did the music make you feel ,SCARED,30MonoWAV/30MonoT4.wav,2,1,4,16,,,,,1,15,31,15,0,11,11,11,,,,,,,,,1,0.7345601440028986,,,050,001,2019_May_20_1621,MusicAffectPsychophysiology2019,3.0.5,59.88980610876193,
,,30MonoWAV/30MonoT4.wav,2,1,4,16,,,,,1,15,31,15,,,,,,,,,,,,,,,,,050,001,2019_May_20_1621,MusicAffectPsychophysiology2019,3.0.5,59.88980610876193,
,,,,,,,,,,,,,,,,,,,,,,,,,,,,,space,6.567748541994661,050,001,2019_May_20_1621,MusicAffectPsychophysiology2019,3.0.5,59.88980610876193,
