Instruction,Word,song,valence,arousal,affectcat,songmark,pracwords.thisRepN,pracwords.thisTrialN,pracwords.thisN,pracwords.thisIndex,songtrials.thisRepN,songtrials.thisTrialN,songtrials.thisN,songtrials.thisIndex,words.thisRepN,words.thisTrialN,words.thisN,words.thisIndex,begin.keys,begin.rt,arousalkey.keys,arousalkey.rt,valencekey.keys,valencekey.rt,likekey.keys,likekey.rt,WordResponse.keys,WordResponse.rt,key_resp_2.keys,key_resp_2.rt,participant,session,date,expName,psychopyVersion,frameRate,
,,,,,,,,,,,,,,,,,,,space,12.85117313999217,,,,,,,,,,,051,001,2019_May_21_0910,MusicAffectPsychophysiology2019,3.0.5,60.23179120434989,
,,,,,,,,,,,,,,,,,,,,,2,4.67391550100001,,,,,,,,,051,001,2019_May_21_0910,MusicAffectPsychophysiology2019,3.0.5,60.23179120434989,
,,,,,,,,,,,,,,,,,,,,,,,2,6.146261186004267,,,,,,,051,001,2019_May_21_0910,MusicAffectPsychophysiology2019,3.0.5,60.23179120434989,
,,,,,,,,,,,,,,,,,,,,,,,,,3,3.667877257001237,,,,,051,001,2019_May_21_0910,MusicAffectPsychophysiology2019,3.0.5,60.23179120434989,
To what extent did the music make you feel ,TENDER,,,,,,0,0,0,10,,,,,,,,,,,,,,,,,3,5.951109682006063,,,051,001,2019_May_21_0910,MusicAffectPsychophysiology2019,3.0.5,60.23179120434989,
To what extent did the music make you feel ,HAPPY,,,,,,0,1,1,6,,,,,,,,,,,,,,,,,3,4.201378254001611,,,051,001,2019_May_21_0910,MusicAffectPsychophysiology2019,3.0.5,60.23179120434989,
To what extent did the music make you feel ,ACTIVE,,,,,,0,2,2,9,,,,,,,,,,,,,,,,,2,3.351479891993222,,,051,001,2019_May_21_0910,MusicAffectPsychophysiology2019,3.0.5,60.23179120434989,
To what extent did the music make you feel ,SAD,,,,,,0,3,3,0,,,,,,,,,,,,,,,,,1,3.634786434005946,,,051,001,2019_May_21_0910,MusicAffectPsychophysiology2019,3.0.5,60.23179120434989,
To what extent did the music make you feel ,ANGRY,,,,,,0,4,4,2,,,,,,,,,,,,,,,,,1,1.2175517419964308,,,051,001,2019_May_21_0910,MusicAffectPsychophysiology2019,3.0.5,60.23179120434989,
To what extent did the music make you feel ,ASHAMED,,,,,,0,5,5,4,,,,,,,,,,,,,,,,,1,1.651234946999466,,,051,001,2019_May_21_0910,MusicAffectPsychophysiology2019,3.0.5,60.23179120434989,
To what extent did the music make you feel ,EXCITED,,,,,,0,6,6,7,,,,,,,,,,,,,,,,,1,2.0519829060067423,,,051,001,2019_May_21_0910,MusicAffectPsychophysiology2019,3.0.5,60.23179120434989,
To what extent did the music make you feel ,SCARED,,,,,,0,7,7,11,,,,,,,,,,,,,,,,,1,1.2844009140098933,,,051,001,2019_May_21_0910,MusicAffectPsychophysiology2019,3.0.5,60.23179120434989,
To what extent did the music make you feel ,ALERT,,,,,,0,8,8,8,,,,,,,,,,,,,,,,,1,1.3178475460008485,,,051,001,2019_May_21_0910,MusicAffectPsychophysiology2019,3.0.5,60.23179120434989,
To what extent did the music make you feel ,ANXIOUS ,,,,,,0,9,9,1,,,,,,,,,,,,,,,,,1,1.3345185389916878,,,051,001,2019_May_21_0910,MusicAffectPsychophysiology2019,3.0.5,60.23179120434989,
To what extent did the music make you feel ,FRUSTRATED,,,,,,0,10,10,3,,,,,,,,,,,,,,,,,1,0.9517248290067073,,,051,001,2019_May_21_0910,MusicAffectPsychophysiology2019,3.0.5,60.23179120434989,
To what extent did the music make you feel ,GUILTY,,,,,,0,11,11,5,,,,,,,,,,,,,,,,,1,1.0344856130104745,,,051,001,2019_May_21_0910,MusicAffectPsychophysiology2019,3.0.5,60.23179120434989,
To what extent did the music make you feel ,GUILTY,30MonoWAV/30MonoF1.wav,1,2,2,1,,,,,0,0,0,0,0,0,0,5,,,4,7.634491039003478,1,4.534237493004184,1,161.93559384800028,1,5.213960481996764,,,051,001,2019_May_21_0910,MusicAffectPsychophysiology2019,3.0.5,60.23179120434989,
To what extent did the music make you feel ,SAD,30MonoWAV/30MonoF1.wav,1,2,2,1,,,,,0,0,0,0,0,1,1,0,,,,,,,,,1,3.5350847950030584,,,051,001,2019_May_21_0910,MusicAffectPsychophysiology2019,3.0.5,60.23179120434989,
To what extent did the music make you feel ,ANXIOUS ,30MonoWAV/30MonoF1.wav,1,2,2,1,,,,,0,0,0,0,0,2,2,1,,,,,,,,,4,2.4673539909999818,,,051,001,2019_May_21_0910,MusicAffectPsychophysiology2019,3.0.5,60.23179120434989,
To what extent did the music make you feel ,EXCITED,30MonoWAV/30MonoF1.wav,1,2,2,1,,,,,0,0,0,0,0,3,3,7,,,,,,,,,1,2.7343770549923647,,,051,001,2019_May_21_0910,MusicAffectPsychophysiology2019,3.0.5,60.23179120434989,
To what extent did the music make you feel ,TENDER,30MonoWAV/30MonoF1.wav,1,2,2,1,,,,,0,0,0,0,0,4,4,10,,,,,,,,,1,1.7017533239995828,,,051,001,2019_May_21_0910,MusicAffectPsychophysiology2019,3.0.5,60.23179120434989,
To what extent did the music make you feel ,ACTIVE,30MonoWAV/30MonoF1.wav,1,2,2,1,,,,,0,0,0,0,0,5,5,9,,,,,,,,,3,4.451701696001692,,,051,001,2019_May_21_0910,MusicAffectPsychophysiology2019,3.0.5,60.23179120434989,
To what extent did the music make you feel ,FRUSTRATED,30MonoWAV/30MonoF1.wav,1,2,2,1,,,,,0,0,0,0,0,6,6,3,,,,,,,,,4,1.851483628997812,,,051,001,2019_May_21_0910,MusicAffectPsychophysiology2019,3.0.5,60.23179120434989,
To what extent did the music make you feel ,ANGRY,30MonoWAV/30MonoF1.wav,1,2,2,1,,,,,0,0,0,0,0,7,7,2,,,,,,,,,1,2.485284069000045,,,051,001,2019_May_21_0910,MusicAffectPsychophysiology2019,3.0.5,60.23179120434989,
To what extent did the music make you feel ,HAPPY,30MonoWAV/30MonoF1.wav,1,2,2,1,,,,,0,0,0,0,0,8,8,6,,,,,,,,,1,0.9017522709909827,,,051,001,2019_May_21_0910,MusicAffectPsychophysiology2019,3.0.5,60.23179120434989,
To what extent did the music make you feel ,SCARED,30MonoWAV/30MonoF1.wav,1,2,2,1,,,,,0,0,0,0,0,9,9,11,,,,,,,,,5,1.8183985170035157,,,051,001,2019_May_21_0910,MusicAffectPsychophysiology2019,3.0.5,60.23179120434989,
To what extent did the music make you feel ,ASHAMED,30MonoWAV/30MonoF1.wav,1,2,2,1,,,,,0,0,0,0,0,10,10,4,,,,,,,,,1,0.9672764410061063,,,051,001,2019_May_21_0910,MusicAffectPsychophysiology2019,3.0.5,60.23179120434989,
To what extent did the music make you feel ,ALERT,30MonoWAV/30MonoF1.wav,1,2,2,1,,,,,0,0,0,0,0,11,11,8,,,,,,,,,5,2.2846880719880573,,,051,001,2019_May_21_0910,MusicAffectPsychophysiology2019,3.0.5,60.23179120434989,
,,30MonoWAV/30MonoF1.wav,1,2,2,1,,,,,0,0,0,0,,,,,,,,,,,,,,,,,051,001,2019_May_21_0910,MusicAffectPsychophysiology2019,3.0.5,60.23179120434989,
To what extent did the music make you feel ,SAD,30MonoWAV/30MonoT3.wav,2,1,4,15,,,,,0,1,1,14,0,0,0,0,,,3,4.083322791993851,4,3.440595117994235,4,2.854961634002393,1,2.3858187419973547,,,051,001,2019_May_21_0910,MusicAffectPsychophysiology2019,3.0.5,60.23179120434989,
To what extent did the music make you feel ,ACTIVE,30MonoWAV/30MonoT3.wav,2,1,4,15,,,,,0,1,1,14,0,1,1,9,,,,,,,,,3,3.271943226995063,,,051,001,2019_May_21_0910,MusicAffectPsychophysiology2019,3.0.5,60.23179120434989,
To what extent did the music make you feel ,EXCITED,30MonoWAV/30MonoT3.wav,2,1,4,15,,,,,0,1,1,14,0,2,2,7,,,,,,,,,1,3.168407318997197,,,051,001,2019_May_21_0910,MusicAffectPsychophysiology2019,3.0.5,60.23179120434989,
To what extent did the music make you feel ,ANGRY,30MonoWAV/30MonoT3.wav,2,1,4,15,,,,,0,1,1,14,0,3,3,2,,,,,,,,,1,0.8852411230036523,,,051,001,2019_May_21_0910,MusicAffectPsychophysiology2019,3.0.5,60.23179120434989,
To what extent did the music make you feel ,SCARED,30MonoWAV/30MonoT3.wav,2,1,4,15,,,,,0,1,1,14,0,4,4,11,,,,,,,,,1,0.685221891006222,,,051,001,2019_May_21_0910,MusicAffectPsychophysiology2019,3.0.5,60.23179120434989,
To what extent did the music make you feel ,TENDER,30MonoWAV/30MonoT3.wav,2,1,4,15,,,,,0,1,1,14,0,5,5,10,,,,,,,,,3,4.351168029999826,,,051,001,2019_May_21_0910,MusicAffectPsychophysiology2019,3.0.5,60.23179120434989,
To what extent did the music make you feel ,ASHAMED,30MonoWAV/30MonoT3.wav,2,1,4,15,,,,,0,1,1,14,0,6,6,4,,,,,,,,,1,1.1677646440075478,,,051,001,2019_May_21_0910,MusicAffectPsychophysiology2019,3.0.5,60.23179120434989,
To what extent did the music make you feel ,HAPPY,30MonoWAV/30MonoT3.wav,2,1,4,15,,,,,0,1,1,14,0,7,7,6,,,,,,,,,3,2.450052879998111,,,051,001,2019_May_21_0910,MusicAffectPsychophysiology2019,3.0.5,60.23179120434989,
To what extent did the music make you feel ,FRUSTRATED,30MonoWAV/30MonoT3.wav,2,1,4,15,,,,,0,1,1,14,0,8,8,3,,,,,,,,,1,1.0030306870030472,,,051,001,2019_May_21_0910,MusicAffectPsychophysiology2019,3.0.5,60.23179120434989,
To what extent did the music make you feel ,ANXIOUS ,30MonoWAV/30MonoT3.wav,2,1,4,15,,,,,0,1,1,14,0,9,9,1,,,,,,,,,1,0.7016848100029165,,,051,001,2019_May_21_0910,MusicAffectPsychophysiology2019,3.0.5,60.23179120434989,
To what extent did the music make you feel ,GUILTY,30MonoWAV/30MonoT3.wav,2,1,4,15,,,,,0,1,1,14,0,10,10,5,,,,,,,,,1,0.6506661140010692,,,051,001,2019_May_21_0910,MusicAffectPsychophysiology2019,3.0.5,60.23179120434989,
To what extent did the music make you feel ,ALERT,30MonoWAV/30MonoT3.wav,2,1,4,15,,,,,0,1,1,14,0,11,11,8,,,,,,,,,1,2.7508739000040805,,,051,001,2019_May_21_0910,MusicAffectPsychophysiology2019,3.0.5,60.23179120434989,
,,30MonoWAV/30MonoT3.wav,2,1,4,15,,,,,0,1,1,14,,,,,,,,,,,,,,,,,051,001,2019_May_21_0910,MusicAffectPsychophysiology2019,3.0.5,60.23179120434989,
To what extent did the music make you feel ,ASHAMED,30MonoWAV/30MonoH2.wav,2,2,1,6,,,,,0,2,2,5,0,0,0,4,,,2,5.8579304330050945,2,2.800381360008032,2,3.0187620740034617,1,1.3683965830132365,,,051,001,2019_May_21_0910,MusicAffectPsychophysiology2019,3.0.5,60.23179120434989,
To what extent did the music make you feel ,ALERT,30MonoWAV/30MonoH2.wav,2,2,1,6,,,,,0,2,2,5,0,1,1,8,,,,,,,,,1,1.11839149199659,,,051,001,2019_May_21_0910,MusicAffectPsychophysiology2019,3.0.5,60.23179120434989,
To what extent did the music make you feel ,TENDER,30MonoWAV/30MonoH2.wav,2,2,1,6,,,,,0,2,2,5,0,2,2,10,,,,,,,,,1,3.1357231519941706,,,051,001,2019_May_21_0910,MusicAffectPsychophysiology2019,3.0.5,60.23179120434989,
To what extent did the music make you feel ,HAPPY,30MonoWAV/30MonoH2.wav,2,2,1,6,,,,,0,2,2,5,0,3,3,6,,,,,,,,,2,2.2666768390045036,,,051,001,2019_May_21_0910,MusicAffectPsychophysiology2019,3.0.5,60.23179120434989,
To what extent did the music make you feel ,SCARED,30MonoWAV/30MonoH2.wav,2,2,1,6,,,,,0,2,2,5,0,4,4,11,,,,,,,,,1,1.7333913470065454,,,051,001,2019_May_21_0910,MusicAffectPsychophysiology2019,3.0.5,60.23179120434989,
To what extent did the music make you feel ,FRUSTRATED,30MonoWAV/30MonoH2.wav,2,2,1,6,,,,,0,2,2,5,0,5,5,3,,,,,,,,,1,0.9020402540045325,,,051,001,2019_May_21_0910,MusicAffectPsychophysiology2019,3.0.5,60.23179120434989,
To what extent did the music make you feel ,ANXIOUS ,30MonoWAV/30MonoH2.wav,2,2,1,6,,,,,0,2,2,5,0,6,6,1,,,,,,,,,1,0.9894098969962215,,,051,001,2019_May_21_0910,MusicAffectPsychophysiology2019,3.0.5,60.23179120434989,
To what extent did the music make you feel ,EXCITED,30MonoWAV/30MonoH2.wav,2,2,1,6,,,,,0,2,2,5,0,7,7,7,,,,,,,,,1,3.2226735779986484,,,051,001,2019_May_21_0910,MusicAffectPsychophysiology2019,3.0.5,60.23179120434989,
To what extent did the music make you feel ,ACTIVE,30MonoWAV/30MonoH2.wav,2,2,1,6,,,,,0,2,2,5,0,8,8,9,,,,,,,,,1,1.8039574559952598,,,051,001,2019_May_21_0910,MusicAffectPsychophysiology2019,3.0.5,60.23179120434989,
To what extent did the music make you feel ,ANGRY,30MonoWAV/30MonoH2.wav,2,2,1,6,,,,,0,2,2,5,0,9,9,2,,,,,,,,,1,0.8690499390067998,,,051,001,2019_May_21_0910,MusicAffectPsychophysiology2019,3.0.5,60.23179120434989,
To what extent did the music make you feel ,SAD,30MonoWAV/30MonoH2.wav,2,2,1,6,,,,,0,2,2,5,0,10,10,0,,,,,,,,,1,0.6566870840033516,,,051,001,2019_May_21_0910,MusicAffectPsychophysiology2019,3.0.5,60.23179120434989,
To what extent did the music make you feel ,GUILTY,30MonoWAV/30MonoH2.wav,2,2,1,6,,,,,0,2,2,5,0,11,11,5,,,,,,,,,1,0.6184831910068169,,,051,001,2019_May_21_0910,MusicAffectPsychophysiology2019,3.0.5,60.23179120434989,
,,30MonoWAV/30MonoH2.wav,2,2,1,6,,,,,0,2,2,5,,,,,,,,,,,,,,,,,051,001,2019_May_21_0910,MusicAffectPsychophysiology2019,3.0.5,60.23179120434989,
To what extent did the music make you feel ,ACTIVE,30MonoWAV/30MonoF4.wav,1,2,2,4,,,,,0,3,3,3,0,0,0,9,,,4,9.700524123007199,1,1.9843976630072575,1,1.068559676001314,3,3.950256284995703,,,051,001,2019_May_21_0910,MusicAffectPsychophysiology2019,3.0.5,60.23179120434989,
To what extent did the music make you feel ,ALERT,30MonoWAV/30MonoF4.wav,1,2,2,4,,,,,0,3,3,3,0,1,1,8,,,,,,,,,4,1.3589913909963798,,,051,001,2019_May_21_0910,MusicAffectPsychophysiology2019,3.0.5,60.23179120434989,
To what extent did the music make you feel ,ANGRY,30MonoWAV/30MonoF4.wav,1,2,2,4,,,,,0,3,3,3,0,2,2,2,,,,,,,,,1,1.3534232410020195,,,051,001,2019_May_21_0910,MusicAffectPsychophysiology2019,3.0.5,60.23179120434989,
To what extent did the music make you feel ,SCARED,30MonoWAV/30MonoF4.wav,1,2,2,4,,,,,0,3,3,3,0,3,3,11,,,,,,,,,4,1.787078492998262,,,051,001,2019_May_21_0910,MusicAffectPsychophysiology2019,3.0.5,60.23179120434989,
To what extent did the music make you feel ,HAPPY,30MonoWAV/30MonoF4.wav,1,2,2,4,,,,,0,3,3,3,0,4,4,6,,,,,,,,,1,0.8027322059933795,,,051,001,2019_May_21_0910,MusicAffectPsychophysiology2019,3.0.5,60.23179120434989,
To what extent did the music make you feel ,SAD,30MonoWAV/30MonoF4.wav,1,2,2,4,,,,,0,3,3,3,0,5,5,0,,,,,,,,,1,2.938299931003712,,,051,001,2019_May_21_0910,MusicAffectPsychophysiology2019,3.0.5,60.23179120434989,
To what extent did the music make you feel ,EXCITED,30MonoWAV/30MonoF4.wav,1,2,2,4,,,,,0,3,3,3,0,6,6,7,,,,,,,,,1,0.8527179070079001,,,051,001,2019_May_21_0910,MusicAffectPsychophysiology2019,3.0.5,60.23179120434989,
To what extent did the music make you feel ,ASHAMED,30MonoWAV/30MonoF4.wav,1,2,2,4,,,,,0,3,3,3,0,7,7,4,,,,,,,,,1,0.7181001849967288,,,051,001,2019_May_21_0910,MusicAffectPsychophysiology2019,3.0.5,60.23179120434989,
To what extent did the music make you feel ,FRUSTRATED,30MonoWAV/30MonoF4.wav,1,2,2,4,,,,,0,3,3,3,0,8,8,3,,,,,,,,,4,1.8183340899995528,,,051,001,2019_May_21_0910,MusicAffectPsychophysiology2019,3.0.5,60.23179120434989,
To what extent did the music make you feel ,ANXIOUS ,30MonoWAV/30MonoF4.wav,1,2,2,4,,,,,0,3,3,3,0,9,9,1,,,,,,,,,4,1.118791852000868,,,051,001,2019_May_21_0910,MusicAffectPsychophysiology2019,3.0.5,60.23179120434989,
To what extent did the music make you feel ,GUILTY,30MonoWAV/30MonoF4.wav,1,2,2,4,,,,,0,3,3,3,0,10,10,5,,,,,,,,,1,1.1503255940042436,,,051,001,2019_May_21_0910,MusicAffectPsychophysiology2019,3.0.5,60.23179120434989,
To what extent did the music make you feel ,TENDER,30MonoWAV/30MonoF4.wav,1,2,2,4,,,,,0,3,3,3,0,11,11,10,,,,,,,,,1,1.0181477510050172,,,051,001,2019_May_21_0910,MusicAffectPsychophysiology2019,3.0.5,60.23179120434989,
,,30MonoWAV/30MonoF4.wav,1,2,2,4,,,,,0,3,3,3,,,,,,,,,,,,,,,,,051,001,2019_May_21_0910,MusicAffectPsychophysiology2019,3.0.5,60.23179120434989,
To what extent did the music make you feel ,SCARED,30MonoWAV/30MonoF3.wav,1,2,2,3,,,,,0,4,4,2,0,0,0,11,,,2,8.872624933996121,1,1.01826538000023,1,1.63434732001042,3,2.725673487992026,,,051,001,2019_May_21_0910,MusicAffectPsychophysiology2019,3.0.5,60.23179120434989,
To what extent did the music make you feel ,SAD,30MonoWAV/30MonoF3.wav,1,2,2,3,,,,,0,4,4,2,0,1,1,0,,,,,,,,,1,0.9687397829984548,,,051,001,2019_May_21_0910,MusicAffectPsychophysiology2019,3.0.5,60.23179120434989,
To what extent did the music make you feel ,ALERT,30MonoWAV/30MonoF3.wav,1,2,2,3,,,,,0,4,4,2,0,2,2,8,,,,,,,,,3,1.1849785600061296,,,051,001,2019_May_21_0910,MusicAffectPsychophysiology2019,3.0.5,60.23179120434989,
To what extent did the music make you feel ,TENDER,30MonoWAV/30MonoF3.wav,1,2,2,3,,,,,0,4,4,2,0,3,3,10,,,,,,,,,1,0.8195220579946181,,,051,001,2019_May_21_0910,MusicAffectPsychophysiology2019,3.0.5,60.23179120434989,
To what extent did the music make you feel ,ASHAMED,30MonoWAV/30MonoF3.wav,1,2,2,3,,,,,0,4,4,2,0,4,4,4,,,,,,,,,1,0.8516083670110675,,,051,001,2019_May_21_0910,MusicAffectPsychophysiology2019,3.0.5,60.23179120434989,
To what extent did the music make you feel ,HAPPY,30MonoWAV/30MonoF3.wav,1,2,2,3,,,,,0,4,4,2,0,5,5,6,,,,,,,,,1,0.9680268230004003,,,051,001,2019_May_21_0910,MusicAffectPsychophysiology2019,3.0.5,60.23179120434989,
To what extent did the music make you feel ,EXCITED,30MonoWAV/30MonoF3.wav,1,2,2,3,,,,,0,4,4,2,0,6,6,7,,,,,,,,,1,0.6178916240023682,,,051,001,2019_May_21_0910,MusicAffectPsychophysiology2019,3.0.5,60.23179120434989,
To what extent did the music make you feel ,ANXIOUS ,30MonoWAV/30MonoF3.wav,1,2,2,3,,,,,0,4,4,2,0,7,7,1,,,,,,,,,3,1.7232851360022323,,,051,001,2019_May_21_0910,MusicAffectPsychophysiology2019,3.0.5,60.23179120434989,
To what extent did the music make you feel ,ACTIVE,30MonoWAV/30MonoF3.wav,1,2,2,3,,,,,0,4,4,2,0,8,8,9,,,,,,,,,2,4.390206045995001,,,051,001,2019_May_21_0910,MusicAffectPsychophysiology2019,3.0.5,60.23179120434989,
To what extent did the music make you feel ,FRUSTRATED,30MonoWAV/30MonoF3.wav,1,2,2,3,,,,,0,4,4,2,0,9,9,3,,,,,,,,,2,1.6538379240082577,,,051,001,2019_May_21_0910,MusicAffectPsychophysiology2019,3.0.5,60.23179120434989,
To what extent did the music make you feel ,ANGRY,30MonoWAV/30MonoF3.wav,1,2,2,3,,,,,0,4,4,2,0,10,10,2,,,,,,,,,1,0.7552107869996689,,,051,001,2019_May_21_0910,MusicAffectPsychophysiology2019,3.0.5,60.23179120434989,
To what extent did the music make you feel ,GUILTY,30MonoWAV/30MonoF3.wav,1,2,2,3,,,,,0,4,4,2,0,11,11,5,,,,,,,,,1,0.7019661319936858,,,051,001,2019_May_21_0910,MusicAffectPsychophysiology2019,3.0.5,60.23179120434989,
,,30MonoWAV/30MonoF3.wav,1,2,2,3,,,,,0,4,4,2,,,,,,,,,,,,,,,,,051,001,2019_May_21_0910,MusicAffectPsychophysiology2019,3.0.5,60.23179120434989,
To what extent did the music make you feel ,ASHAMED,30MonoWAV/30MonoF2.wav,1,2,2,2,,,,,0,5,5,1,0,0,0,4,,,2,14.367915112001356,1,0.9849860859976616,1,1.1517647220025538,1,0.9021391860005679,,,051,001,2019_May_21_0910,MusicAffectPsychophysiology2019,3.0.5,60.23179120434989,
To what extent did the music make you feel ,ANXIOUS ,30MonoWAV/30MonoF2.wav,1,2,2,2,,,,,0,5,5,1,0,1,1,1,,,,,,,,,4,2.551589951995993,,,051,001,2019_May_21_0910,MusicAffectPsychophysiology2019,3.0.5,60.23179120434989,
To what extent did the music make you feel ,SAD,30MonoWAV/30MonoF2.wav,1,2,2,2,,,,,0,5,5,1,0,2,2,0,,,,,,,,,1,1.3682991350069642,,,051,001,2019_May_21_0910,MusicAffectPsychophysiology2019,3.0.5,60.23179120434989,
To what extent did the music make you feel ,ACTIVE,30MonoWAV/30MonoF2.wav,1,2,2,2,,,,,0,5,5,1,0,3,3,9,,,,,,,,,1,4.034346237996942,,,051,001,2019_May_21_0910,MusicAffectPsychophysiology2019,3.0.5,60.23179120434989,
To what extent did the music make you feel ,FRUSTRATED,30MonoWAV/30MonoF2.wav,1,2,2,2,,,,,0,5,5,1,0,4,4,3,,,,,,,,,4,4.656958323001163,,,051,001,2019_May_21_0910,MusicAffectPsychophysiology2019,3.0.5,60.23179120434989,
To what extent did the music make you feel ,TENDER,30MonoWAV/30MonoF2.wav,1,2,2,2,,,,,0,5,5,1,0,5,5,10,,,,,,,,,1,2.3375594100070884,,,051,001,2019_May_21_0910,MusicAffectPsychophysiology2019,3.0.5,60.23179120434989,
To what extent did the music make you feel ,EXCITED,30MonoWAV/30MonoF2.wav,1,2,2,2,,,,,0,5,5,1,0,6,6,7,,,,,,,,,1,1.0190645629918436,,,051,001,2019_May_21_0910,MusicAffectPsychophysiology2019,3.0.5,60.23179120434989,
To what extent did the music make you feel ,GUILTY,30MonoWAV/30MonoF2.wav,1,2,2,2,,,,,0,5,5,1,0,7,7,5,,,,,,,,,1,0.7521982720063534,,,051,001,2019_May_21_0910,MusicAffectPsychophysiology2019,3.0.5,60.23179120434989,
To what extent did the music make you feel ,ANGRY,30MonoWAV/30MonoF2.wav,1,2,2,2,,,,,0,5,5,1,0,8,8,2,,,,,,,,,1,0.8508469270018395,,,051,001,2019_May_21_0910,MusicAffectPsychophysiology2019,3.0.5,60.23179120434989,
To what extent did the music make you feel ,HAPPY,30MonoWAV/30MonoF2.wav,1,2,2,2,,,,,0,5,5,1,0,9,9,6,,,,,,,,,1,1.2404730129928794,,,051,001,2019_May_21_0910,MusicAffectPsychophysiology2019,3.0.5,60.23179120434989,
To what extent did the music make you feel ,ALERT,30MonoWAV/30MonoF2.wav,1,2,2,2,,,,,0,5,5,1,0,10,10,8,,,,,,,,,4,5.218329616007395,,,051,001,2019_May_21_0910,MusicAffectPsychophysiology2019,3.0.5,60.23179120434989,
To what extent did the music make you feel ,SCARED,30MonoWAV/30MonoF2.wav,1,2,2,2,,,,,0,5,5,1,0,11,11,11,,,,,,,,,4,6.500716426002327,,,051,001,2019_May_21_0910,MusicAffectPsychophysiology2019,3.0.5,60.23179120434989,
,,30MonoWAV/30MonoF2.wav,1,2,2,2,,,,,0,5,5,1,,,,,,,,,,,,,,,,,051,001,2019_May_21_0910,MusicAffectPsychophysiology2019,3.0.5,60.23179120434989,
To what extent did the music make you feel ,ASHAMED,30MonoWAV/30MonoH4.wav,2,2,1,8,,,,,0,6,6,7,0,0,0,4,,,5,4.001882598997327,5,1.3179800320067443,4,2.1182246480020694,1,2.284575007011881,,,051,001,2019_May_21_0910,MusicAffectPsychophysiology2019,3.0.5,60.23179120434989,
To what extent did the music make you feel ,GUILTY,30MonoWAV/30MonoH4.wav,2,2,1,8,,,,,0,6,6,7,0,1,1,5,,,,,,,,,1,0.6334079670050414,,,051,001,2019_May_21_0910,MusicAffectPsychophysiology2019,3.0.5,60.23179120434989,
To what extent did the music make you feel ,SAD,30MonoWAV/30MonoH4.wav,2,2,1,8,,,,,0,6,6,7,0,2,2,0,,,,,,,,,1,0.586186127999099,,,051,001,2019_May_21_0910,MusicAffectPsychophysiology2019,3.0.5,60.23179120434989,
To what extent did the music make you feel ,ANXIOUS ,30MonoWAV/30MonoH4.wav,2,2,1,8,,,,,0,6,6,7,0,3,3,1,,,,,,,,,1,0.6019561510038329,,,051,001,2019_May_21_0910,MusicAffectPsychophysiology2019,3.0.5,60.23179120434989,
To what extent did the music make you feel ,ALERT,30MonoWAV/30MonoH4.wav,2,2,1,8,,,,,0,6,6,7,0,4,4,8,,,,,,,,,1,1.3526845230080653,,,051,001,2019_May_21_0910,MusicAffectPsychophysiology2019,3.0.5,60.23179120434989,
To what extent did the music make you feel ,FRUSTRATED,30MonoWAV/30MonoH4.wav,2,2,1,8,,,,,0,6,6,7,0,5,5,3,,,,,,,,,1,0.7849939139996422,,,051,001,2019_May_21_0910,MusicAffectPsychophysiology2019,3.0.5,60.23179120434989,
To what extent did the music make you feel ,ACTIVE,30MonoWAV/30MonoH4.wav,2,2,1,8,,,,,0,6,6,7,0,6,6,9,,,,,,,,,5,2.0520809379959246,,,051,001,2019_May_21_0910,MusicAffectPsychophysiology2019,3.0.5,60.23179120434989,
To what extent did the music make you feel ,HAPPY,30MonoWAV/30MonoH4.wav,2,2,1,8,,,,,0,6,6,7,0,7,7,6,,,,,,,,,5,0.7350619560020277,,,051,001,2019_May_21_0910,MusicAffectPsychophysiology2019,3.0.5,60.23179120434989,
To what extent did the music make you feel ,SCARED,30MonoWAV/30MonoH4.wav,2,2,1,8,,,,,0,6,6,7,0,8,8,11,,,,,,,,,1,0.9176891029928811,,,051,001,2019_May_21_0910,MusicAffectPsychophysiology2019,3.0.5,60.23179120434989,
To what extent did the music make you feel ,ANGRY,30MonoWAV/30MonoH4.wav,2,2,1,8,,,,,0,6,6,7,0,9,9,2,,,,,,,,,1,0.8346762790024513,,,051,001,2019_May_21_0910,MusicAffectPsychophysiology2019,3.0.5,60.23179120434989,
To what extent did the music make you feel ,EXCITED,30MonoWAV/30MonoH4.wav,2,2,1,8,,,,,0,6,6,7,0,10,10,7,,,,,,,,,5,1.5513014480093261,,,051,001,2019_May_21_0910,MusicAffectPsychophysiology2019,3.0.5,60.23179120434989,
To what extent did the music make you feel ,TENDER,30MonoWAV/30MonoH4.wav,2,2,1,8,,,,,0,6,6,7,0,11,11,10,,,,,,,,,3,4.584961924003437,,,051,001,2019_May_21_0910,MusicAffectPsychophysiology2019,3.0.5,60.23179120434989,
,,30MonoWAV/30MonoH4.wav,2,2,1,8,,,,,0,6,6,7,,,,,,,,,,,,,,,,,051,001,2019_May_21_0910,MusicAffectPsychophysiology2019,3.0.5,60.23179120434989,
To what extent did the music make you feel ,GUILTY,30MonoWAV/30MonoS1.wav,1,1,3,9,,,,,0,7,7,8,0,0,0,5,,,1,4.2519552019948605,1,1.7008572449994972,2,3.6348804459994426,1,1.8343317980034044,,,051,001,2019_May_21_0910,MusicAffectPsychophysiology2019,3.0.5,60.23179120434989,
To what extent did the music make you feel ,HAPPY,30MonoWAV/30MonoS1.wav,1,1,3,9,,,,,0,7,7,8,0,1,1,6,,,,,,,,,1,1.0347968699934427,,,051,001,2019_May_21_0910,MusicAffectPsychophysiology2019,3.0.5,60.23179120434989,
To what extent did the music make you feel ,ANGRY,30MonoWAV/30MonoS1.wav,1,1,3,9,,,,,0,7,7,8,0,2,2,2,,,,,,,,,1,1.6684529639896937,,,051,001,2019_May_21_0910,MusicAffectPsychophysiology2019,3.0.5,60.23179120434989,
To what extent did the music make you feel ,ALERT,30MonoWAV/30MonoS1.wav,1,1,3,9,,,,,0,7,7,8,0,3,3,8,,,,,,,,,1,0.935359791998053,,,051,001,2019_May_21_0910,MusicAffectPsychophysiology2019,3.0.5,60.23179120434989,
To what extent did the music make you feel ,ANXIOUS ,30MonoWAV/30MonoS1.wav,1,1,3,9,,,,,0,7,7,8,0,4,4,1,,,,,,,,,2,2.351683591987239,,,051,001,2019_May_21_0910,MusicAffectPsychophysiology2019,3.0.5,60.23179120434989,
To what extent did the music make you feel ,TENDER,30MonoWAV/30MonoS1.wav,1,1,3,9,,,,,0,7,7,8,0,5,5,10,,,,,,,,,2,3.468386920008925,,,051,001,2019_May_21_0910,MusicAffectPsychophysiology2019,3.0.5,60.23179120434989,
To what extent did the music make you feel ,ASHAMED,30MonoWAV/30MonoS1.wav,1,1,3,9,,,,,0,7,7,8,0,6,6,4,,,,,,,,,1,1.202416431013262,,,051,001,2019_May_21_0910,MusicAffectPsychophysiology2019,3.0.5,60.23179120434989,
To what extent did the music make you feel ,ACTIVE,30MonoWAV/30MonoS1.wav,1,1,3,9,,,,,0,7,7,8,0,7,7,9,,,,,,,,,1,1.7678550419950625,,,051,001,2019_May_21_0910,MusicAffectPsychophysiology2019,3.0.5,60.23179120434989,
To what extent did the music make you feel ,FRUSTRATED,30MonoWAV/30MonoS1.wav,1,1,3,9,,,,,0,7,7,8,0,8,8,3,,,,,,,,,2,2.0151739550055936,,,051,001,2019_May_21_0910,MusicAffectPsychophysiology2019,3.0.5,60.23179120434989,
To what extent did the music make you feel ,SCARED,30MonoWAV/30MonoS1.wav,1,1,3,9,,,,,0,7,7,8,0,9,9,11,,,,,,,,,2,3.0522581469995202,,,051,001,2019_May_21_0910,MusicAffectPsychophysiology2019,3.0.5,60.23179120434989,
To what extent did the music make you feel ,EXCITED,30MonoWAV/30MonoS1.wav,1,1,3,9,,,,,0,7,7,8,0,10,10,7,,,,,,,,,1,1.6679413770034444,,,051,001,2019_May_21_0910,MusicAffectPsychophysiology2019,3.0.5,60.23179120434989,
To what extent did the music make you feel ,SAD,30MonoWAV/30MonoS1.wav,1,1,3,9,,,,,0,7,7,8,0,11,11,0,,,,,,,,,4,2.7351425340020796,,,051,001,2019_May_21_0910,MusicAffectPsychophysiology2019,3.0.5,60.23179120434989,
,,30MonoWAV/30MonoS1.wav,1,1,3,9,,,,,0,7,7,8,,,,,,,,,,,,,,,,,051,001,2019_May_21_0910,MusicAffectPsychophysiology2019,3.0.5,60.23179120434989,
To what extent did the music make you feel ,HAPPY,30MonoWAV/30MonoH3.wav,2,2,1,7,,,,,0,8,8,6,0,0,0,6,,,3,5.868363132001832,3,1.5166757449915167,3,2.5181232420000015,3,2.618511856009718,,,051,001,2019_May_21_0910,MusicAffectPsychophysiology2019,3.0.5,60.23179120434989,
To what extent did the music make you feel ,EXCITED,30MonoWAV/30MonoH3.wav,2,2,1,7,,,,,0,8,8,6,0,1,1,7,,,,,,,,,2,2.067512137000449,,,051,001,2019_May_21_0910,MusicAffectPsychophysiology2019,3.0.5,60.23179120434989,
To what extent did the music make you feel ,ANXIOUS ,30MonoWAV/30MonoH3.wav,2,2,1,7,,,,,0,8,8,6,0,2,2,1,,,,,,,,,1,1.2190146509965416,,,051,001,2019_May_21_0910,MusicAffectPsychophysiology2019,3.0.5,60.23179120434989,
To what extent did the music make you feel ,SCARED,30MonoWAV/30MonoH3.wav,2,2,1,7,,,,,0,8,8,6,0,3,3,11,,,,,,,,,1,0.7008756149880355,,,051,001,2019_May_21_0910,MusicAffectPsychophysiology2019,3.0.5,60.23179120434989,
To what extent did the music make you feel ,GUILTY,30MonoWAV/30MonoH3.wav,2,2,1,7,,,,,0,8,8,6,0,4,4,5,,,,,,,,,1,0.6843410979927285,,,051,001,2019_May_21_0910,MusicAffectPsychophysiology2019,3.0.5,60.23179120434989,
To what extent did the music make you feel ,TENDER,30MonoWAV/30MonoH3.wav,2,2,1,7,,,,,0,8,8,6,0,5,5,10,,,,,,,,,2,2.9235044960078085,,,051,001,2019_May_21_0910,MusicAffectPsychophysiology2019,3.0.5,60.23179120434989,
To what extent did the music make you feel ,ANGRY,30MonoWAV/30MonoH3.wav,2,2,1,7,,,,,0,8,8,6,0,6,6,2,,,,,,,,,1,2.270800476006116,,,051,001,2019_May_21_0910,MusicAffectPsychophysiology2019,3.0.5,60.23179120434989,
To what extent did the music make you feel ,ACTIVE,30MonoWAV/30MonoH3.wav,2,2,1,7,,,,,0,8,8,6,0,7,7,9,,,,,,,,,3,2.5712978990050033,,,051,001,2019_May_21_0910,MusicAffectPsychophysiology2019,3.0.5,60.23179120434989,
To what extent did the music make you feel ,ALERT,30MonoWAV/30MonoH3.wav,2,2,1,7,,,,,0,8,8,6,0,8,8,8,,,,,,,,,1,1.23673068601056,,,051,001,2019_May_21_0910,MusicAffectPsychophysiology2019,3.0.5,60.23179120434989,
To what extent did the music make you feel ,FRUSTRATED,30MonoWAV/30MonoH3.wav,2,2,1,7,,,,,0,8,8,6,0,9,9,3,,,,,,,,,1,1.5730514419992687,,,051,001,2019_May_21_0910,MusicAffectPsychophysiology2019,3.0.5,60.23179120434989,
To what extent did the music make you feel ,SAD,30MonoWAV/30MonoH3.wav,2,2,1,7,,,,,0,8,8,6,0,10,10,0,,,,,,,,,1,0.8844732819998171,,,051,001,2019_May_21_0910,MusicAffectPsychophysiology2019,3.0.5,60.23179120434989,
To what extent did the music make you feel ,ASHAMED,30MonoWAV/30MonoH3.wav,2,2,1,7,,,,,0,8,8,6,0,11,11,4,,,,,,,,,1,0.8353011409926694,,,051,001,2019_May_21_0910,MusicAffectPsychophysiology2019,3.0.5,60.23179120434989,
,,30MonoWAV/30MonoH3.wav,2,2,1,7,,,,,0,8,8,6,,,,,,,,,,,,,,,,,051,001,2019_May_21_0910,MusicAffectPsychophysiology2019,3.0.5,60.23179120434989,
To what extent did the music make you feel ,ASHAMED,30MonoWAV/30MonoS3.wav,1,1,3,11,,,,,0,9,9,10,0,0,0,4,,,1,6.709501975012245,1,1.3898988230066607,1,2.001485851011239,1,2.7839827459974913,,,051,001,2019_May_21_0910,MusicAffectPsychophysiology2019,3.0.5,60.23179120434989,
To what extent did the music make you feel ,GUILTY,30MonoWAV/30MonoS3.wav,1,1,3,11,,,,,0,9,9,10,0,1,1,5,,,,,,,,,2,2.5010442530037835,,,051,001,2019_May_21_0910,MusicAffectPsychophysiology2019,3.0.5,60.23179120434989,
To what extent did the music make you feel ,EXCITED,30MonoWAV/30MonoS3.wav,1,1,3,11,,,,,0,9,9,10,0,2,2,7,,,,,,,,,1,1.2011691010120558,,,051,001,2019_May_21_0910,MusicAffectPsychophysiology2019,3.0.5,60.23179120434989,
To what extent did the music make you feel ,SAD,30MonoWAV/30MonoS3.wav,1,1,3,11,,,,,0,9,9,10,0,3,3,0,,,,,,,,,3,4.084570858991356,,,051,001,2019_May_21_0910,MusicAffectPsychophysiology2019,3.0.5,60.23179120434989,
To what extent did the music make you feel ,TENDER,30MonoWAV/30MonoS3.wav,1,1,3,11,,,,,0,9,9,10,0,4,4,10,,,,,,,,,2,4.934552442995482,,,051,001,2019_May_21_0910,MusicAffectPsychophysiology2019,3.0.5,60.23179120434989,
To what extent did the music make you feel ,ACTIVE,30MonoWAV/30MonoS3.wav,1,1,3,11,,,,,0,9,9,10,0,5,5,9,,,,,,,,,1,1.0690766649931902,,,051,001,2019_May_21_0910,MusicAffectPsychophysiology2019,3.0.5,60.23179120434989,
To what extent did the music make you feel ,HAPPY,30MonoWAV/30MonoS3.wav,1,1,3,11,,,,,0,9,9,10,0,6,6,6,,,,,,,,,1,0.5723646940023173,,,051,001,2019_May_21_0910,MusicAffectPsychophysiology2019,3.0.5,60.23179120434989,
To what extent did the music make you feel ,ANGRY,30MonoWAV/30MonoS3.wav,1,1,3,11,,,,,0,9,9,10,0,7,7,2,,,,,,,,,1,0.8354442230047425,,,051,001,2019_May_21_0910,MusicAffectPsychophysiology2019,3.0.5,60.23179120434989,
To what extent did the music make you feel ,ALERT,30MonoWAV/30MonoS3.wav,1,1,3,11,,,,,0,9,9,10,0,8,8,8,,,,,,,,,1,0.8195739879884059,,,051,001,2019_May_21_0910,MusicAffectPsychophysiology2019,3.0.5,60.23179120434989,
To what extent did the music make you feel ,ANXIOUS ,30MonoWAV/30MonoS3.wav,1,1,3,11,,,,,0,9,9,10,0,9,9,1,,,,,,,,,3,2.8214339859987376,,,051,001,2019_May_21_0910,MusicAffectPsychophysiology2019,3.0.5,60.23179120434989,
To what extent did the music make you feel ,FRUSTRATED,30MonoWAV/30MonoS3.wav,1,1,3,11,,,,,0,9,9,10,0,10,10,3,,,,,,,,,2,1.5872929689940065,,,051,001,2019_May_21_0910,MusicAffectPsychophysiology2019,3.0.5,60.23179120434989,
To what extent did the music make you feel ,SCARED,30MonoWAV/30MonoS3.wav,1,1,3,11,,,,,0,9,9,10,0,11,11,11,,,,,,,,,2,2.2726079179992666,,,051,001,2019_May_21_0910,MusicAffectPsychophysiology2019,3.0.5,60.23179120434989,
,,30MonoWAV/30MonoS3.wav,1,1,3,11,,,,,0,9,9,10,,,,,,,,,,,,,,,,,051,001,2019_May_21_0910,MusicAffectPsychophysiology2019,3.0.5,60.23179120434989,
To what extent did the music make you feel ,ALERT,30MonoWAV/30MonoH1.wav,2,2,1,5,,,,,0,10,10,4,0,0,0,8,,,3,4.667357609010651,3,2.1517544709931826,3,1.28456299098616,1,1.3680068289977498,,,051,001,2019_May_21_0910,MusicAffectPsychophysiology2019,3.0.5,60.23179120434989,
To what extent did the music make you feel ,GUILTY,30MonoWAV/30MonoH1.wav,2,2,1,5,,,,,0,10,10,4,0,1,1,5,,,,,,,,,1,1.016758801008109,,,051,001,2019_May_21_0910,MusicAffectPsychophysiology2019,3.0.5,60.23179120434989,
To what extent did the music make you feel ,HAPPY,30MonoWAV/30MonoH1.wav,2,2,1,5,,,,,0,10,10,4,0,2,2,6,,,,,,,,,3,1.7178166980011156,,,051,001,2019_May_21_0910,MusicAffectPsychophysiology2019,3.0.5,60.23179120434989,
To what extent did the music make you feel ,ANGRY,30MonoWAV/30MonoH1.wav,2,2,1,5,,,,,0,10,10,4,0,3,3,2,,,,,,,,,1,1.0684636229998432,,,051,001,2019_May_21_0910,MusicAffectPsychophysiology2019,3.0.5,60.23179120434989,
To what extent did the music make you feel ,TENDER,30MonoWAV/30MonoH1.wav,2,2,1,5,,,,,0,10,10,4,0,4,4,10,,,,,,,,,2,2.8182988409971585,,,051,001,2019_May_21_0910,MusicAffectPsychophysiology2019,3.0.5,60.23179120434989,
To what extent did the music make you feel ,ANXIOUS ,30MonoWAV/30MonoH1.wav,2,2,1,5,,,,,0,10,10,4,0,5,5,1,,,,,,,,,1,0.7845675970020238,,,051,001,2019_May_21_0910,MusicAffectPsychophysiology2019,3.0.5,60.23179120434989,
To what extent did the music make you feel ,ASHAMED,30MonoWAV/30MonoH1.wav,2,2,1,5,,,,,0,10,10,4,0,6,6,4,,,,,,,,,1,1.1844372740015388,,,051,001,2019_May_21_0910,MusicAffectPsychophysiology2019,3.0.5,60.23179120434989,
To what extent did the music make you feel ,ACTIVE,30MonoWAV/30MonoH1.wav,2,2,1,5,,,,,0,10,10,4,0,7,7,9,,,,,,,,,3,1.8690999679965898,,,051,001,2019_May_21_0910,MusicAffectPsychophysiology2019,3.0.5,60.23179120434989,
To what extent did the music make you feel ,SAD,30MonoWAV/30MonoH1.wav,2,2,1,5,,,,,0,10,10,4,0,8,8,0,,,,,,,,,1,1.1690195630071685,,,051,001,2019_May_21_0910,MusicAffectPsychophysiology2019,3.0.5,60.23179120434989,
To what extent did the music make you feel ,FRUSTRATED,30MonoWAV/30MonoH1.wav,2,2,1,5,,,,,0,10,10,4,0,9,9,3,,,,,,,,,1,0.7011110189923784,,,051,001,2019_May_21_0910,MusicAffectPsychophysiology2019,3.0.5,60.23179120434989,
To what extent did the music make you feel ,EXCITED,30MonoWAV/30MonoH1.wav,2,2,1,5,,,,,0,10,10,4,0,10,10,7,,,,,,,,,2,1.3359794249990955,,,051,001,2019_May_21_0910,MusicAffectPsychophysiology2019,3.0.5,60.23179120434989,
To what extent did the music make you feel ,SCARED,30MonoWAV/30MonoH1.wav,2,2,1,5,,,,,0,10,10,4,0,11,11,11,,,,,,,,,1,1.6022283830097876,,,051,001,2019_May_21_0910,MusicAffectPsychophysiology2019,3.0.5,60.23179120434989,
,,30MonoWAV/30MonoH1.wav,2,2,1,5,,,,,0,10,10,4,,,,,,,,,,,,,,,,,051,001,2019_May_21_0910,MusicAffectPsychophysiology2019,3.0.5,60.23179120434989,
To what extent did the music make you feel ,ALERT,30MonoWAV/30MonoS2.wav,1,1,3,10,,,,,0,11,11,9,0,0,0,8,,,1,4.0182895559992176,1,1.2682998740056064,4,6.184851828991668,1,1.7181641849892912,,,051,001,2019_May_21_0910,MusicAffectPsychophysiology2019,3.0.5,60.23179120434989,
To what extent did the music make you feel ,FRUSTRATED,30MonoWAV/30MonoS2.wav,1,1,3,10,,,,,0,11,11,9,0,1,1,3,,,,,,,,,2,2.934634441000526,,,051,001,2019_May_21_0910,MusicAffectPsychophysiology2019,3.0.5,60.23179120434989,
To what extent did the music make you feel ,EXCITED,30MonoWAV/30MonoS2.wav,1,1,3,10,,,,,0,11,11,9,0,2,2,7,,,,,,,,,1,1.8684764120116597,,,051,001,2019_May_21_0910,MusicAffectPsychophysiology2019,3.0.5,60.23179120434989,
To what extent did the music make you feel ,ANGRY,30MonoWAV/30MonoS2.wav,1,1,3,10,,,,,0,11,11,9,0,3,3,2,,,,,,,,,1,1.535012213003938,,,051,001,2019_May_21_0910,MusicAffectPsychophysiology2019,3.0.5,60.23179120434989,
To what extent did the music make you feel ,TENDER,30MonoWAV/30MonoS2.wav,1,1,3,10,,,,,0,11,11,9,0,4,4,10,,,,,,,,,2,1.8023383179970551,,,051,001,2019_May_21_0910,MusicAffectPsychophysiology2019,3.0.5,60.23179120434989,
To what extent did the music make you feel ,GUILTY,30MonoWAV/30MonoS2.wav,1,1,3,10,,,,,0,11,11,9,0,5,5,5,,,,,,,,,1,3.0681260420096805,,,051,001,2019_May_21_0910,MusicAffectPsychophysiology2019,3.0.5,60.23179120434989,
To what extent did the music make you feel ,SCARED,30MonoWAV/30MonoS2.wav,1,1,3,10,,,,,0,11,11,9,0,6,6,11,,,,,,,,,1,2.5348320519988192,,,051,001,2019_May_21_0910,MusicAffectPsychophysiology2019,3.0.5,60.23179120434989,
To what extent did the music make you feel ,HAPPY,30MonoWAV/30MonoS2.wav,1,1,3,10,,,,,0,11,11,9,0,7,7,6,,,,,,,,,1,0.6350752569996985,,,051,001,2019_May_21_0910,MusicAffectPsychophysiology2019,3.0.5,60.23179120434989,
To what extent did the music make you feel ,SAD,30MonoWAV/30MonoS2.wav,1,1,3,10,,,,,0,11,11,9,0,8,8,0,,,,,,,,,3,3.26839997600473,,,051,001,2019_May_21_0910,MusicAffectPsychophysiology2019,3.0.5,60.23179120434989,
To what extent did the music make you feel ,ASHAMED,30MonoWAV/30MonoS2.wav,1,1,3,10,,,,,0,11,11,9,0,9,9,4,,,,,,,,,1,2.0337147649988765,,,051,001,2019_May_21_0910,MusicAffectPsychophysiology2019,3.0.5,60.23179120434989,
To what extent did the music make you feel ,ACTIVE,30MonoWAV/30MonoS2.wav,1,1,3,10,,,,,0,11,11,9,0,10,10,9,,,,,,,,,1,4.684556394000538,,,051,001,2019_May_21_0910,MusicAffectPsychophysiology2019,3.0.5,60.23179120434989,
To what extent did the music make you feel ,ANXIOUS ,30MonoWAV/30MonoS2.wav,1,1,3,10,,,,,0,11,11,9,0,11,11,1,,,,,,,,,2,2.9520421810011612,,,051,001,2019_May_21_0910,MusicAffectPsychophysiology2019,3.0.5,60.23179120434989,
,,30MonoWAV/30MonoS2.wav,1,1,3,10,,,,,0,11,11,9,,,,,,,,,,,,,,,,,051,001,2019_May_21_0910,MusicAffectPsychophysiology2019,3.0.5,60.23179120434989,
To what extent did the music make you feel ,ACTIVE,30MonoWAV/30MonoS4.wav,1,1,3,12,,,,,0,12,12,11,0,0,0,9,,,1,4.118109819988604,1,1.433715827006381,3,1.8341813150036614,1,1.922177822998492,,,051,001,2019_May_21_0910,MusicAffectPsychophysiology2019,3.0.5,60.23179120434989,
To what extent did the music make you feel ,TENDER,30MonoWAV/30MonoS4.wav,1,1,3,12,,,,,0,12,12,11,0,1,1,10,,,,,,,,,2,1.87088774300355,,,051,001,2019_May_21_0910,MusicAffectPsychophysiology2019,3.0.5,60.23179120434989,
To what extent did the music make you feel ,FRUSTRATED,30MonoWAV/30MonoS4.wav,1,1,3,12,,,,,0,12,12,11,0,2,2,3,,,,,,,,,1,1.887665577000007,,,051,001,2019_May_21_0910,MusicAffectPsychophysiology2019,3.0.5,60.23179120434989,
To what extent did the music make you feel ,ANGRY,30MonoWAV/30MonoS4.wav,1,1,3,12,,,,,0,12,12,11,0,3,3,2,,,,,,,,,1,0.6026399819966173,,,051,001,2019_May_21_0910,MusicAffectPsychophysiology2019,3.0.5,60.23179120434989,
To what extent did the music make you feel ,EXCITED,30MonoWAV/30MonoS4.wav,1,1,3,12,,,,,0,12,12,11,0,4,4,7,,,,,,,,,1,0.7526026770065073,,,051,001,2019_May_21_0910,MusicAffectPsychophysiology2019,3.0.5,60.23179120434989,
To what extent did the music make you feel ,HAPPY,30MonoWAV/30MonoS4.wav,1,1,3,12,,,,,0,12,12,11,0,5,5,6,,,,,,,,,1,0.6020921570016071,,,051,001,2019_May_21_0910,MusicAffectPsychophysiology2019,3.0.5,60.23179120434989,
To what extent did the music make you feel ,SAD,30MonoWAV/30MonoS4.wav,1,1,3,12,,,,,0,12,12,11,0,6,6,0,,,,,,,,,2,1.8232046689954586,,,051,001,2019_May_21_0910,MusicAffectPsychophysiology2019,3.0.5,60.23179120434989,
To what extent did the music make you feel ,ANXIOUS ,30MonoWAV/30MonoS4.wav,1,1,3,12,,,,,0,12,12,11,0,7,7,1,,,,,,,,,1,1.6852163190051215,,,051,001,2019_May_21_0910,MusicAffectPsychophysiology2019,3.0.5,60.23179120434989,
To what extent did the music make you feel ,SCARED,30MonoWAV/30MonoS4.wav,1,1,3,12,,,,,0,12,12,11,0,8,8,11,,,,,,,,,1,1.3862481109972578,,,051,001,2019_May_21_0910,MusicAffectPsychophysiology2019,3.0.5,60.23179120434989,
To what extent did the music make you feel ,ASHAMED,30MonoWAV/30MonoS4.wav,1,1,3,12,,,,,0,12,12,11,0,9,9,4,,,,,,,,,1,3.134237015998224,,,051,001,2019_May_21_0910,MusicAffectPsychophysiology2019,3.0.5,60.23179120434989,
To what extent did the music make you feel ,ALERT,30MonoWAV/30MonoS4.wav,1,1,3,12,,,,,0,12,12,11,0,10,10,8,,,,,,,,,1,0.9693264609959442,,,051,001,2019_May_21_0910,MusicAffectPsychophysiology2019,3.0.5,60.23179120434989,
To what extent did the music make you feel ,GUILTY,30MonoWAV/30MonoS4.wav,1,1,3,12,,,,,0,12,12,11,0,11,11,5,,,,,,,,,1,0.7516871959960554,,,051,001,2019_May_21_0910,MusicAffectPsychophysiology2019,3.0.5,60.23179120434989,
,,30MonoWAV/30MonoS4.wav,1,1,3,12,,,,,0,12,12,11,,,,,,,,,,,,,,,,,051,001,2019_May_21_0910,MusicAffectPsychophysiology2019,3.0.5,60.23179120434989,
To what extent did the music make you feel ,ALERT,30MonoWAV/30MonoT4.wav,2,1,4,16,,,,,0,13,13,15,0,0,0,8,,,1,8.022952584011364,1,1.069798897995497,2,2.571098811997217,1,1.819713523000246,,,051,001,2019_May_21_0910,MusicAffectPsychophysiology2019,3.0.5,60.23179120434989,
To what extent did the music make you feel ,ANXIOUS ,30MonoWAV/30MonoT4.wav,2,1,4,16,,,,,0,13,13,15,0,1,1,1,,,,,,,,,1,3.5542215650057187,,,051,001,2019_May_21_0910,MusicAffectPsychophysiology2019,3.0.5,60.23179120434989,
To what extent did the music make you feel ,ASHAMED,30MonoWAV/30MonoT4.wav,2,1,4,16,,,,,0,13,13,15,0,2,2,4,,,,,,,,,1,1.069527357001789,,,051,001,2019_May_21_0910,MusicAffectPsychophysiology2019,3.0.5,60.23179120434989,
To what extent did the music make you feel ,HAPPY,30MonoWAV/30MonoT4.wav,2,1,4,16,,,,,0,13,13,15,0,3,3,6,,,,,,,,,1,2.5680265170085477,,,051,001,2019_May_21_0910,MusicAffectPsychophysiology2019,3.0.5,60.23179120434989,
To what extent did the music make you feel ,ANGRY,30MonoWAV/30MonoT4.wav,2,1,4,16,,,,,0,13,13,15,0,4,4,2,,,,,,,,,1,0.9187263089988846,,,051,001,2019_May_21_0910,MusicAffectPsychophysiology2019,3.0.5,60.23179120434989,
To what extent did the music make you feel ,ACTIVE,30MonoWAV/30MonoT4.wav,2,1,4,16,,,,,0,13,13,15,0,5,5,9,,,,,,,,,2,2.8182630890078144,,,051,001,2019_May_21_0910,MusicAffectPsychophysiology2019,3.0.5,60.23179120434989,
To what extent did the music make you feel ,FRUSTRATED,30MonoWAV/30MonoT4.wav,2,1,4,16,,,,,0,13,13,15,0,6,6,3,,,,,,,,,1,2.1512487280124333,,,051,001,2019_May_21_0910,MusicAffectPsychophysiology2019,3.0.5,60.23179120434989,
To what extent did the music make you feel ,GUILTY,30MonoWAV/30MonoT4.wav,2,1,4,16,,,,,0,13,13,15,0,7,7,5,,,,,,,,,1,0.6836917430046014,,,051,001,2019_May_21_0910,MusicAffectPsychophysiology2019,3.0.5,60.23179120434989,
To what extent did the music make you feel ,EXCITED,30MonoWAV/30MonoT4.wav,2,1,4,16,,,,,0,13,13,15,0,8,8,7,,,,,,,,,1,0.9854135519999545,,,051,001,2019_May_21_0910,MusicAffectPsychophysiology2019,3.0.5,60.23179120434989,
To what extent did the music make you feel ,SCARED,30MonoWAV/30MonoT4.wav,2,1,4,16,,,,,0,13,13,15,0,9,9,11,,,,,,,,,1,0.6186584669922013,,,051,001,2019_May_21_0910,MusicAffectPsychophysiology2019,3.0.5,60.23179120434989,
To what extent did the music make you feel ,SAD,30MonoWAV/30MonoT4.wav,2,1,4,16,,,,,0,13,13,15,0,10,10,0,,,,,,,,,2,2.9184360329963965,,,051,001,2019_May_21_0910,MusicAffectPsychophysiology2019,3.0.5,60.23179120434989,
To what extent did the music make you feel ,TENDER,30MonoWAV/30MonoT4.wav,2,1,4,16,,,,,0,13,13,15,0,11,11,10,,,,,,,,,2,1.0998092069930863,,,051,001,2019_May_21_0910,MusicAffectPsychophysiology2019,3.0.5,60.23179120434989,
,,30MonoWAV/30MonoT4.wav,2,1,4,16,,,,,0,13,13,15,,,,,,,,,,,,,,,,,051,001,2019_May_21_0910,MusicAffectPsychophysiology2019,3.0.5,60.23179120434989,
To what extent did the music make you feel ,EXCITED,30MonoWAV/30MonoT2.wav,2,1,4,14,,,,,0,14,14,13,0,0,0,7,,,2,5.817926760995761,2,6.701632859010715,3,3.117682944997796,1,2.8504487479949603,,,051,001,2019_May_21_0910,MusicAffectPsychophysiology2019,3.0.5,60.23179120434989,
To what extent did the music make you feel ,ANGRY,30MonoWAV/30MonoT2.wav,2,1,4,14,,,,,0,14,14,13,0,1,1,2,,,,,,,,,1,1.3520415169914486,,,051,001,2019_May_21_0910,MusicAffectPsychophysiology2019,3.0.5,60.23179120434989,
To what extent did the music make you feel ,TENDER,30MonoWAV/30MonoT2.wav,2,1,4,14,,,,,0,14,14,13,0,2,2,10,,,,,,,,,3,2.7193347989959875,,,051,001,2019_May_21_0910,MusicAffectPsychophysiology2019,3.0.5,60.23179120434989,
To what extent did the music make you feel ,ACTIVE,30MonoWAV/30MonoT2.wav,2,1,4,14,,,,,0,14,14,13,0,3,3,9,,,,,,,,,2,2.0338905620010337,,,051,001,2019_May_21_0910,MusicAffectPsychophysiology2019,3.0.5,60.23179120434989,
To what extent did the music make you feel ,GUILTY,30MonoWAV/30MonoT2.wav,2,1,4,14,,,,,0,14,14,13,0,4,4,5,,,,,,,,,1,0.9344881020078901,,,051,001,2019_May_21_0910,MusicAffectPsychophysiology2019,3.0.5,60.23179120434989,
To what extent did the music make you feel ,ALERT,30MonoWAV/30MonoT2.wav,2,1,4,14,,,,,0,14,14,13,0,5,5,8,,,,,,,,,1,0.7012597369903233,,,051,001,2019_May_21_0910,MusicAffectPsychophysiology2019,3.0.5,60.23179120434989,
To what extent did the music make you feel ,SCARED,30MonoWAV/30MonoT2.wav,2,1,4,14,,,,,0,14,14,13,0,6,6,11,,,,,,,,,1,1.0192315509921173,,,051,001,2019_May_21_0910,MusicAffectPsychophysiology2019,3.0.5,60.23179120434989,
To what extent did the music make you feel ,HAPPY,30MonoWAV/30MonoT2.wav,2,1,4,14,,,,,0,14,14,13,0,7,7,6,,,,,,,,,1,1.952381762006553,,,051,001,2019_May_21_0910,MusicAffectPsychophysiology2019,3.0.5,60.23179120434989,
To what extent did the music make you feel ,ANXIOUS ,30MonoWAV/30MonoT2.wav,2,1,4,14,,,,,0,14,14,13,0,8,8,1,,,,,,,,,1,1.452077684996766,,,051,001,2019_May_21_0910,MusicAffectPsychophysiology2019,3.0.5,60.23179120434989,
To what extent did the music make you feel ,SAD,30MonoWAV/30MonoT2.wav,2,1,4,14,,,,,0,14,14,13,0,9,9,0,,,,,,,,,2,0.885079397005029,,,051,001,2019_May_21_0910,MusicAffectPsychophysiology2019,3.0.5,60.23179120434989,
To what extent did the music make you feel ,ASHAMED,30MonoWAV/30MonoT2.wav,2,1,4,14,,,,,0,14,14,13,0,10,10,4,,,,,,,,,1,0.8685192470002221,,,051,001,2019_May_21_0910,MusicAffectPsychophysiology2019,3.0.5,60.23179120434989,
To what extent did the music make you feel ,FRUSTRATED,30MonoWAV/30MonoT2.wav,2,1,4,14,,,,,0,14,14,13,0,11,11,3,,,,,,,,,1,0.7850888159882743,,,051,001,2019_May_21_0910,MusicAffectPsychophysiology2019,3.0.5,60.23179120434989,
,,30MonoWAV/30MonoT2.wav,2,1,4,14,,,,,0,14,14,13,,,,,,,,,,,,,,,,,051,001,2019_May_21_0910,MusicAffectPsychophysiology2019,3.0.5,60.23179120434989,
To what extent did the music make you feel ,ASHAMED,30MonoWAV/30MonoT1.wav,2,1,4,13,,,,,0,15,15,12,0,0,0,4,,,1,5.334637498002849,1,1.2349210899992613,2,5.150476341994363,1,1.785229793007602,,,051,001,2019_May_21_0910,MusicAffectPsychophysiology2019,3.0.5,60.23179120434989,
To what extent did the music make you feel ,GUILTY,30MonoWAV/30MonoT1.wav,2,1,4,13,,,,,0,15,15,12,0,1,1,5,,,,,,,,,1,0.5851477709948085,,,051,001,2019_May_21_0910,MusicAffectPsychophysiology2019,3.0.5,60.23179120434989,
To what extent did the music make you feel ,SCARED,30MonoWAV/30MonoT1.wav,2,1,4,13,,,,,0,15,15,12,0,2,2,11,,,,,,,,,1,0.8891841690056026,,,051,001,2019_May_21_0910,MusicAffectPsychophysiology2019,3.0.5,60.23179120434989,
To what extent did the music make you feel ,TENDER,30MonoWAV/30MonoT1.wav,2,1,4,13,,,,,0,15,15,12,0,3,3,10,,,,,,,,,3,1.82002073500189,,,051,001,2019_May_21_0910,MusicAffectPsychophysiology2019,3.0.5,60.23179120434989,
To what extent did the music make you feel ,ALERT,30MonoWAV/30MonoT1.wav,2,1,4,13,,,,,0,15,15,12,0,4,4,8,,,,,,,,,1,0.8525395330070751,,,051,001,2019_May_21_0910,MusicAffectPsychophysiology2019,3.0.5,60.23179120434989,
To what extent did the music make you feel ,ACTIVE,30MonoWAV/30MonoT1.wav,2,1,4,13,,,,,0,15,15,12,0,5,5,9,,,,,,,,,2,2.68667565099895,,,051,001,2019_May_21_0910,MusicAffectPsychophysiology2019,3.0.5,60.23179120434989,
To what extent did the music make you feel ,ANXIOUS ,30MonoWAV/30MonoT1.wav,2,1,4,13,,,,,0,15,15,12,0,6,6,1,,,,,,,,,2,3.407645366998622,,,051,001,2019_May_21_0910,MusicAffectPsychophysiology2019,3.0.5,60.23179120434989,
To what extent did the music make you feel ,ANGRY,30MonoWAV/30MonoT1.wav,2,1,4,13,,,,,0,15,15,12,0,7,7,2,,,,,,,,,1,0.8862248070072383,,,051,001,2019_May_21_0910,MusicAffectPsychophysiology2019,3.0.5,60.23179120434989,
To what extent did the music make you feel ,FRUSTRATED,30MonoWAV/30MonoT1.wav,2,1,4,13,,,,,0,15,15,12,0,8,8,3,,,,,,,,,1,1.118340323009761,,,051,001,2019_May_21_0910,MusicAffectPsychophysiology2019,3.0.5,60.23179120434989,
To what extent did the music make you feel ,HAPPY,30MonoWAV/30MonoT1.wav,2,1,4,13,,,,,0,15,15,12,0,9,9,6,,,,,,,,,1,1.7178483360039536,,,051,001,2019_May_21_0910,MusicAffectPsychophysiology2019,3.0.5,60.23179120434989,
To what extent did the music make you feel ,SAD,30MonoWAV/30MonoT1.wav,2,1,4,13,,,,,0,15,15,12,0,10,10,0,,,,,,,,,3,2.4848997960070847,,,051,001,2019_May_21_0910,MusicAffectPsychophysiology2019,3.0.5,60.23179120434989,
To what extent did the music make you feel ,EXCITED,30MonoWAV/30MonoT1.wav,2,1,4,13,,,,,0,15,15,12,0,11,11,7,,,,,,,,,1,1.5678898390033282,,,051,001,2019_May_21_0910,MusicAffectPsychophysiology2019,3.0.5,60.23179120434989,
,,30MonoWAV/30MonoT1.wav,2,1,4,13,,,,,0,15,15,12,,,,,,,,,,,,,,,,,051,001,2019_May_21_0910,MusicAffectPsychophysiology2019,3.0.5,60.23179120434989,
To what extent did the music make you feel ,TENDER,30MonoWAV/30MonoH3.wav,2,2,1,7,,,,,1,0,16,6,0,0,0,10,,,3,4.23853053599305,4,3.434679136000341,3,1.4515733040025225,3,2.151824000000488,,,051,001,2019_May_21_0910,MusicAffectPsychophysiology2019,3.0.5,60.23179120434989,
To what extent did the music make you feel ,ALERT,30MonoWAV/30MonoH3.wav,2,2,1,7,,,,,1,0,16,6,0,1,1,8,,,,,,,,,1,0.9184241549955914,,,051,001,2019_May_21_0910,MusicAffectPsychophysiology2019,3.0.5,60.23179120434989,
To what extent did the music make you feel ,ACTIVE,30MonoWAV/30MonoH3.wav,2,2,1,7,,,,,1,0,16,6,0,2,2,9,,,,,,,,,2,2.0513236469996627,,,051,001,2019_May_21_0910,MusicAffectPsychophysiology2019,3.0.5,60.23179120434989,
To what extent did the music make you feel ,SCARED,30MonoWAV/30MonoH3.wav,2,2,1,7,,,,,1,0,16,6,0,3,3,11,,,,,,,,,1,0.6519236519961851,,,051,001,2019_May_21_0910,MusicAffectPsychophysiology2019,3.0.5,60.23179120434989,
To what extent did the music make you feel ,GUILTY,30MonoWAV/30MonoH3.wav,2,2,1,7,,,,,1,0,16,6,0,4,4,5,,,,,,,,,1,0.652159538003616,,,051,001,2019_May_21_0910,MusicAffectPsychophysiology2019,3.0.5,60.23179120434989,
To what extent did the music make you feel ,EXCITED,30MonoWAV/30MonoH3.wav,2,2,1,7,,,,,1,0,16,6,0,5,5,7,,,,,,,,,3,2.5030054970120545,,,051,001,2019_May_21_0910,MusicAffectPsychophysiology2019,3.0.5,60.23179120434989,
To what extent did the music make you feel ,SAD,30MonoWAV/30MonoH3.wav,2,2,1,7,,,,,1,0,16,6,0,6,6,0,,,,,,,,,1,0.9357022259937366,,,051,001,2019_May_21_0910,MusicAffectPsychophysiology2019,3.0.5,60.23179120434989,
To what extent did the music make you feel ,FRUSTRATED,30MonoWAV/30MonoH3.wav,2,2,1,7,,,,,1,0,16,6,0,7,7,3,,,,,,,,,1,0.6684631259995513,,,051,001,2019_May_21_0910,MusicAffectPsychophysiology2019,3.0.5,60.23179120434989,
To what extent did the music make you feel ,ANXIOUS ,30MonoWAV/30MonoH3.wav,2,2,1,7,,,,,1,0,16,6,0,8,8,1,,,,,,,,,1,0.6388146779936505,,,051,001,2019_May_21_0910,MusicAffectPsychophysiology2019,3.0.5,60.23179120434989,
To what extent did the music make you feel ,ASHAMED,30MonoWAV/30MonoH3.wav,2,2,1,7,,,,,1,0,16,6,0,9,9,4,,,,,,,,,1,0.9032287020090735,,,051,001,2019_May_21_0910,MusicAffectPsychophysiology2019,3.0.5,60.23179120434989,
To what extent did the music make you feel ,HAPPY,30MonoWAV/30MonoH3.wav,2,2,1,7,,,,,1,0,16,6,0,10,10,6,,,,,,,,,3,2.1208670039923163,,,051,001,2019_May_21_0910,MusicAffectPsychophysiology2019,3.0.5,60.23179120434989,
To what extent did the music make you feel ,ANGRY,30MonoWAV/30MonoH3.wav,2,2,1,7,,,,,1,0,16,6,0,11,11,2,,,,,,,,,1,1.236477589001879,,,051,001,2019_May_21_0910,MusicAffectPsychophysiology2019,3.0.5,60.23179120434989,
,,30MonoWAV/30MonoH3.wav,2,2,1,7,,,,,1,0,16,6,,,,,,,,,,,,,,,,,051,001,2019_May_21_0910,MusicAffectPsychophysiology2019,3.0.5,60.23179120434989,
To what extent did the music make you feel ,ASHAMED,30MonoWAV/30MonoS2.wav,1,1,3,10,,,,,1,1,17,9,0,0,0,4,,,1,4.118211542008794,1,3.851336527004605,3,2.9347914869867964,1,1.4348725290037692,,,051,001,2019_May_21_0910,MusicAffectPsychophysiology2019,3.0.5,60.23179120434989,
To what extent did the music make you feel ,ANGRY,30MonoWAV/30MonoS2.wav,1,1,3,10,,,,,1,1,17,9,0,1,1,2,,,,,,,,,1,0.8515660429984564,,,051,001,2019_May_21_0910,MusicAffectPsychophysiology2019,3.0.5,60.23179120434989,
To what extent did the music make you feel ,FRUSTRATED,30MonoWAV/30MonoS2.wav,1,1,3,10,,,,,1,1,17,9,0,2,2,3,,,,,,,,,1,0.9176891579991207,,,051,001,2019_May_21_0910,MusicAffectPsychophysiology2019,3.0.5,60.23179120434989,
To what extent did the music make you feel ,TENDER,30MonoWAV/30MonoS2.wav,1,1,3,10,,,,,1,1,17,9,0,3,3,10,,,,,,,,,3,4.035241245990619,,,051,001,2019_May_21_0910,MusicAffectPsychophysiology2019,3.0.5,60.23179120434989,
To what extent did the music make you feel ,SCARED,30MonoWAV/30MonoS2.wav,1,1,3,10,,,,,1,1,17,9,0,4,4,11,,,,,,,,,1,1.451073552001617,,,051,001,2019_May_21_0910,MusicAffectPsychophysiology2019,3.0.5,60.23179120434989,
To what extent did the music make you feel ,ANXIOUS ,30MonoWAV/30MonoS2.wav,1,1,3,10,,,,,1,1,17,9,0,5,5,1,,,,,,,,,2,4.718565810006112,,,051,001,2019_May_21_0910,MusicAffectPsychophysiology2019,3.0.5,60.23179120434989,
To what extent did the music make you feel ,ALERT,30MonoWAV/30MonoS2.wav,1,1,3,10,,,,,1,1,17,9,0,6,6,8,,,,,,,,,1,1.418255054988549,,,051,001,2019_May_21_0910,MusicAffectPsychophysiology2019,3.0.5,60.23179120434989,
To what extent did the music make you feel ,EXCITED,30MonoWAV/30MonoS2.wav,1,1,3,10,,,,,1,1,17,9,0,7,7,7,,,,,,,,,1,0.8356770489917835,,,051,001,2019_May_21_0910,MusicAffectPsychophysiology2019,3.0.5,60.23179120434989,
To what extent did the music make you feel ,HAPPY,30MonoWAV/30MonoS2.wav,1,1,3,10,,,,,1,1,17,9,0,8,8,6,,,,,,,,,1,0.6348275219934294,,,051,001,2019_May_21_0910,MusicAffectPsychophysiology2019,3.0.5,60.23179120434989,
To what extent did the music make you feel ,GUILTY,30MonoWAV/30MonoS2.wav,1,1,3,10,,,,,1,1,17,9,0,9,9,5,,,,,,,,,1,0.9684872880025068,,,051,001,2019_May_21_0910,MusicAffectPsychophysiology2019,3.0.5,60.23179120434989,
To what extent did the music make you feel ,SAD,30MonoWAV/30MonoS2.wav,1,1,3,10,,,,,1,1,17,9,0,10,10,0,,,,,,,,,2,2.5176502950052964,,,051,001,2019_May_21_0910,MusicAffectPsychophysiology2019,3.0.5,60.23179120434989,
To what extent did the music make you feel ,ACTIVE,30MonoWAV/30MonoS2.wav,1,1,3,10,,,,,1,1,17,9,0,11,11,9,,,,,,,,,1,1.266794048002339,,,051,001,2019_May_21_0910,MusicAffectPsychophysiology2019,3.0.5,60.23179120434989,
,,30MonoWAV/30MonoS2.wav,1,1,3,10,,,,,1,1,17,9,,,,,,,,,,,,,,,,,051,001,2019_May_21_0910,MusicAffectPsychophysiology2019,3.0.5,60.23179120434989,
To what extent did the music make you feel ,TENDER,30MonoWAV/30MonoH2.wav,2,2,1,6,,,,,1,2,18,5,0,0,0,10,,,3,3.4009865730040474,3,4.734604668992688,2,2.2183811019931454,2,2.384502008004347,,,051,001,2019_May_21_0910,MusicAffectPsychophysiology2019,3.0.5,60.23179120434989,
To what extent did the music make you feel ,ANXIOUS ,30MonoWAV/30MonoH2.wav,2,2,1,6,,,,,1,2,18,5,0,1,1,1,,,,,,,,,1,1.6511940180062084,,,051,001,2019_May_21_0910,MusicAffectPsychophysiology2019,3.0.5,60.23179120434989,
To what extent did the music make you feel ,SAD,30MonoWAV/30MonoH2.wav,2,2,1,6,,,,,1,2,18,5,0,2,2,0,,,,,,,,,1,0.6340659889974631,,,051,001,2019_May_21_0910,MusicAffectPsychophysiology2019,3.0.5,60.23179120434989,
To what extent did the music make you feel ,ALERT,30MonoWAV/30MonoH2.wav,2,2,1,6,,,,,1,2,18,5,0,3,3,8,,,,,,,,,1,1.201890274998732,,,051,001,2019_May_21_0910,MusicAffectPsychophysiology2019,3.0.5,60.23179120434989,
To what extent did the music make you feel ,FRUSTRATED,30MonoWAV/30MonoH2.wav,2,2,1,6,,,,,1,2,18,5,0,4,4,3,,,,,,,,,1,1.4681872090004617,,,051,001,2019_May_21_0910,MusicAffectPsychophysiology2019,3.0.5,60.23179120434989,
To what extent did the music make you feel ,ANGRY,30MonoWAV/30MonoH2.wav,2,2,1,6,,,,,1,2,18,5,0,5,5,2,,,,,,,,,1,2.4346905480051646,,,051,001,2019_May_21_0910,MusicAffectPsychophysiology2019,3.0.5,60.23179120434989,
To what extent did the music make you feel ,GUILTY,30MonoWAV/30MonoH2.wav,2,2,1,6,,,,,1,2,18,5,0,6,6,5,,,,,,,,,1,0.650848068005871,,,051,001,2019_May_21_0910,MusicAffectPsychophysiology2019,3.0.5,60.23179120434989,
To what extent did the music make you feel ,ACTIVE,30MonoWAV/30MonoH2.wav,2,2,1,6,,,,,1,2,18,5,0,7,7,9,,,,,,,,,2,2.867829590992187,,,051,001,2019_May_21_0910,MusicAffectPsychophysiology2019,3.0.5,60.23179120434989,
To what extent did the music make you feel ,SCARED,30MonoWAV/30MonoH2.wav,2,2,1,6,,,,,1,2,18,5,0,8,8,11,,,,,,,,,1,2.234702690009726,,,051,001,2019_May_21_0910,MusicAffectPsychophysiology2019,3.0.5,60.23179120434989,
To what extent did the music make you feel ,EXCITED,30MonoWAV/30MonoH2.wav,2,2,1,6,,,,,1,2,18,5,0,9,9,7,,,,,,,,,2,1.2023723559977952,,,051,001,2019_May_21_0910,MusicAffectPsychophysiology2019,3.0.5,60.23179120434989,
To what extent did the music make you feel ,ASHAMED,30MonoWAV/30MonoH2.wav,2,2,1,6,,,,,1,2,18,5,0,10,10,4,,,,,,,,,1,3.4344896109978436,,,051,001,2019_May_21_0910,MusicAffectPsychophysiology2019,3.0.5,60.23179120434989,
To what extent did the music make you feel ,HAPPY,30MonoWAV/30MonoH2.wav,2,2,1,6,,,,,1,2,18,5,0,11,11,6,,,,,,,,,2,2.21671036000771,,,051,001,2019_May_21_0910,MusicAffectPsychophysiology2019,3.0.5,60.23179120434989,
,,30MonoWAV/30MonoH2.wav,2,2,1,6,,,,,1,2,18,5,,,,,,,,,,,,,,,,,051,001,2019_May_21_0910,MusicAffectPsychophysiology2019,3.0.5,60.23179120434989,
To what extent did the music make you feel ,SCARED,30MonoWAV/30MonoT4.wav,2,1,4,16,,,,,1,3,19,15,0,0,0,11,,,3,6.800716923986329,2,4.234648863013717,3,4.0833813789940905,1,1.301518609005143,,,051,001,2019_May_21_0910,MusicAffectPsychophysiology2019,3.0.5,60.23179120434989,
To what extent did the music make you feel ,FRUSTRATED,30MonoWAV/30MonoT4.wav,2,1,4,16,,,,,1,3,19,15,0,1,1,3,,,,,,,,,1,0.5858812349906657,,,051,001,2019_May_21_0910,MusicAffectPsychophysiology2019,3.0.5,60.23179120434989,
To what extent did the music make you feel ,EXCITED,30MonoWAV/30MonoT4.wav,2,1,4,16,,,,,1,3,19,15,0,2,2,7,,,,,,,,,1,1.2024811120063532,,,051,001,2019_May_21_0910,MusicAffectPsychophysiology2019,3.0.5,60.23179120434989,
To what extent did the music make you feel ,GUILTY,30MonoWAV/30MonoT4.wav,2,1,4,16,,,,,1,3,19,15,0,3,3,5,,,,,,,,,1,0.5514462930004811,,,051,001,2019_May_21_0910,MusicAffectPsychophysiology2019,3.0.5,60.23179120434989,
To what extent did the music make you feel ,ASHAMED,30MonoWAV/30MonoT4.wav,2,1,4,16,,,,,1,3,19,15,0,4,4,4,,,,,,,,,1,0.501485191998654,,,051,001,2019_May_21_0910,MusicAffectPsychophysiology2019,3.0.5,60.23179120434989,
To what extent did the music make you feel ,TENDER,30MonoWAV/30MonoT4.wav,2,1,4,16,,,,,1,3,19,15,0,5,5,10,,,,,,,,,3,1.8009866959910141,,,051,001,2019_May_21_0910,MusicAffectPsychophysiology2019,3.0.5,60.23179120434989,
To what extent did the music make you feel ,ANXIOUS ,30MonoWAV/30MonoT4.wav,2,1,4,16,,,,,1,3,19,15,0,6,6,1,,,,,,,,,1,1.6528160839952761,,,051,001,2019_May_21_0910,MusicAffectPsychophysiology2019,3.0.5,60.23179120434989,
To what extent did the music make you feel ,ACTIVE,30MonoWAV/30MonoT4.wav,2,1,4,16,,,,,1,3,19,15,0,7,7,9,,,,,,,,,2,4.485865833994467,,,051,001,2019_May_21_0910,MusicAffectPsychophysiology2019,3.0.5,60.23179120434989,
To what extent did the music make you feel ,ANGRY,30MonoWAV/30MonoT4.wav,2,1,4,16,,,,,1,3,19,15,0,8,8,2,,,,,,,,,1,1.4513963919889648,,,051,001,2019_May_21_0910,MusicAffectPsychophysiology2019,3.0.5,60.23179120434989,
To what extent did the music make you feel ,SAD,30MonoWAV/30MonoT4.wav,2,1,4,16,,,,,1,3,19,15,0,9,9,0,,,,,,,,,2,2.551756426008069,,,051,001,2019_May_21_0910,MusicAffectPsychophysiology2019,3.0.5,60.23179120434989,
To what extent did the music make you feel ,HAPPY,30MonoWAV/30MonoT4.wav,2,1,4,16,,,,,1,3,19,15,0,10,10,6,,,,,,,,,1,1.3518949819990667,,,051,001,2019_May_21_0910,MusicAffectPsychophysiology2019,3.0.5,60.23179120434989,
To what extent did the music make you feel ,ALERT,30MonoWAV/30MonoT4.wav,2,1,4,16,,,,,1,3,19,15,0,11,11,8,,,,,,,,,1,1.0515010810049716,,,051,001,2019_May_21_0910,MusicAffectPsychophysiology2019,3.0.5,60.23179120434989,
,,30MonoWAV/30MonoT4.wav,2,1,4,16,,,,,1,3,19,15,,,,,,,,,,,,,,,,,051,001,2019_May_21_0910,MusicAffectPsychophysiology2019,3.0.5,60.23179120434989,
To what extent did the music make you feel ,ASHAMED,30MonoWAV/30MonoS1.wav,1,1,3,9,,,,,1,4,20,8,0,0,0,4,,,1,6.050023370000417,1,3.618085747002624,3,2.1178200029971777,1,1.235200295006507,,,051,001,2019_May_21_0910,MusicAffectPsychophysiology2019,3.0.5,60.23179120434989,
To what extent did the music make you feel ,ANXIOUS ,30MonoWAV/30MonoS1.wav,1,1,3,9,,,,,1,4,20,8,0,1,1,1,,,,,,,,,1,3.1537896020017797,,,051,001,2019_May_21_0910,MusicAffectPsychophysiology2019,3.0.5,60.23179120434989,
To what extent did the music make you feel ,ANGRY,30MonoWAV/30MonoS1.wav,1,1,3,9,,,,,1,4,20,8,0,2,2,2,,,,,,,,,1,0.5514762809907552,,,051,001,2019_May_21_0910,MusicAffectPsychophysiology2019,3.0.5,60.23179120434989,
To what extent did the music make you feel ,ALERT,30MonoWAV/30MonoS1.wav,1,1,3,9,,,,,1,4,20,8,0,3,3,8,,,,,,,,,1,1.102064821010572,,,051,001,2019_May_21_0910,MusicAffectPsychophysiology2019,3.0.5,60.23179120434989,
To what extent did the music make you feel ,FRUSTRATED,30MonoWAV/30MonoS1.wav,1,1,3,9,,,,,1,4,20,8,0,4,4,3,,,,,,,,,1,0.9174642379948637,,,051,001,2019_May_21_0910,MusicAffectPsychophysiology2019,3.0.5,60.23179120434989,
To what extent did the music make you feel ,EXCITED,30MonoWAV/30MonoS1.wav,1,1,3,9,,,,,1,4,20,8,0,5,5,7,,,,,,,,,1,1.7187771260068985,,,051,001,2019_May_21_0910,MusicAffectPsychophysiology2019,3.0.5,60.23179120434989,
To what extent did the music make you feel ,SCARED,30MonoWAV/30MonoS1.wav,1,1,3,9,,,,,1,4,20,8,0,6,6,11,,,,,,,,,1,3.40211370200268,,,051,001,2019_May_21_0910,MusicAffectPsychophysiology2019,3.0.5,60.23179120434989,
To what extent did the music make you feel ,TENDER,30MonoWAV/30MonoS1.wav,1,1,3,9,,,,,1,4,20,8,0,7,7,10,,,,,,,,,2,2.033080062989029,,,051,001,2019_May_21_0910,MusicAffectPsychophysiology2019,3.0.5,60.23179120434989,
To what extent did the music make you feel ,GUILTY,30MonoWAV/30MonoS1.wav,1,1,3,9,,,,,1,4,20,8,0,8,8,5,,,,,,,,,2,4.818409535000683,,,051,001,2019_May_21_0910,MusicAffectPsychophysiology2019,3.0.5,60.23179120434989,
To what extent did the music make you feel ,HAPPY,30MonoWAV/30MonoS1.wav,1,1,3,9,,,,,1,4,20,8,0,9,9,6,,,,,,,,,1,0.9335125060024438,,,051,001,2019_May_21_0910,MusicAffectPsychophysiology2019,3.0.5,60.23179120434989,
To what extent did the music make you feel ,SAD,30MonoWAV/30MonoS1.wav,1,1,3,9,,,,,1,4,20,8,0,10,10,0,,,,,,,,,2,1.7343745779944584,,,051,001,2019_May_21_0910,MusicAffectPsychophysiology2019,3.0.5,60.23179120434989,
To what extent did the music make you feel ,ACTIVE,30MonoWAV/30MonoS1.wav,1,1,3,9,,,,,1,4,20,8,0,11,11,9,,,,,,,,,1,0.8348761219967855,,,051,001,2019_May_21_0910,MusicAffectPsychophysiology2019,3.0.5,60.23179120434989,
,,30MonoWAV/30MonoS1.wav,1,1,3,9,,,,,1,4,20,8,,,,,,,,,,,,,,,,,051,001,2019_May_21_0910,MusicAffectPsychophysiology2019,3.0.5,60.23179120434989,
To what extent did the music make you feel ,GUILTY,30MonoWAV/30MonoS4.wav,1,1,3,12,,,,,1,5,21,11,0,0,0,5,,,2,3.8510886180010857,1,7.351355740000145,3,5.01829864300089,1,1.7846188459952828,,,051,001,2019_May_21_0910,MusicAffectPsychophysiology2019,3.0.5,60.23179120434989,
To what extent did the music make you feel ,SAD,30MonoWAV/30MonoS4.wav,1,1,3,12,,,,,1,5,21,11,0,1,1,0,,,,,,,,,2,2.389774202994886,,,051,001,2019_May_21_0910,MusicAffectPsychophysiology2019,3.0.5,60.23179120434989,
To what extent did the music make you feel ,ALERT,30MonoWAV/30MonoS4.wav,1,1,3,12,,,,,1,5,21,11,0,2,2,8,,,,,,,,,1,0.7523783150099916,,,051,001,2019_May_21_0910,MusicAffectPsychophysiology2019,3.0.5,60.23179120434989,
To what extent did the music make you feel ,EXCITED,30MonoWAV/30MonoS4.wav,1,1,3,12,,,,,1,5,21,11,0,3,3,7,,,,,,,,,1,0.4858672969858162,,,051,001,2019_May_21_0910,MusicAffectPsychophysiology2019,3.0.5,60.23179120434989,
To what extent did the music make you feel ,HAPPY,30MonoWAV/30MonoS4.wav,1,1,3,12,,,,,1,5,21,11,0,4,4,6,,,,,,,,,1,0.7344250520109199,,,051,001,2019_May_21_0910,MusicAffectPsychophysiology2019,3.0.5,60.23179120434989,
To what extent did the music make you feel ,ANGRY,30MonoWAV/30MonoS4.wav,1,1,3,12,,,,,1,5,21,11,0,5,5,2,,,,,,,,,1,0.6022409399884054,,,051,001,2019_May_21_0910,MusicAffectPsychophysiology2019,3.0.5,60.23179120434989,
To what extent did the music make you feel ,FRUSTRATED,30MonoWAV/30MonoS4.wav,1,1,3,12,,,,,1,5,21,11,0,6,6,3,,,,,,,,,1,1.453425680010696,,,051,001,2019_May_21_0910,MusicAffectPsychophysiology2019,3.0.5,60.23179120434989,
To what extent did the music make you feel ,TENDER,30MonoWAV/30MonoS4.wav,1,1,3,12,,,,,1,5,21,11,0,7,7,10,,,,,,,,,2,1.7876508259942057,,,051,001,2019_May_21_0910,MusicAffectPsychophysiology2019,3.0.5,60.23179120434989,
To what extent did the music make you feel ,ACTIVE,30MonoWAV/30MonoS4.wav,1,1,3,12,,,,,1,5,21,11,0,8,8,9,,,,,,,,,1,0.9566942219971679,,,051,001,2019_May_21_0910,MusicAffectPsychophysiology2019,3.0.5,60.23179120434989,
To what extent did the music make you feel ,ANXIOUS ,30MonoWAV/30MonoS4.wav,1,1,3,12,,,,,1,5,21,11,0,9,9,1,,,,,,,,,1,1.8515369769884273,,,051,001,2019_May_21_0910,MusicAffectPsychophysiology2019,3.0.5,60.23179120434989,
To what extent did the music make you feel ,SCARED,30MonoWAV/30MonoS4.wav,1,1,3,12,,,,,1,5,21,11,0,10,10,11,,,,,,,,,1,1.6512471679889131,,,051,001,2019_May_21_0910,MusicAffectPsychophysiology2019,3.0.5,60.23179120434989,
To what extent did the music make you feel ,ASHAMED,30MonoWAV/30MonoS4.wav,1,1,3,12,,,,,1,5,21,11,0,11,11,4,,,,,,,,,1,1.118570375998388,,,051,001,2019_May_21_0910,MusicAffectPsychophysiology2019,3.0.5,60.23179120434989,
,,30MonoWAV/30MonoS4.wav,1,1,3,12,,,,,1,5,21,11,,,,,,,,,,,,,,,,,051,001,2019_May_21_0910,MusicAffectPsychophysiology2019,3.0.5,60.23179120434989,
To what extent did the music make you feel ,HAPPY,30MonoWAV/30MonoT3.wav,2,1,4,15,,,,,1,6,22,14,0,0,0,6,,,2,5.191196839004988,3,2.403592046990525,3,2.8690563480049605,2,2.4526259359990945,,,051,001,2019_May_21_0910,MusicAffectPsychophysiology2019,3.0.5,60.23179120434989,
To what extent did the music make you feel ,EXCITED,30MonoWAV/30MonoT3.wav,2,1,4,15,,,,,1,6,22,14,0,1,1,7,,,,,,,,,1,5.434673584997654,,,051,001,2019_May_21_0910,MusicAffectPsychophysiology2019,3.0.5,60.23179120434989,
To what extent did the music make you feel ,ACTIVE,30MonoWAV/30MonoT3.wav,2,1,4,15,,,,,1,6,22,14,0,2,2,9,,,,,,,,,2,1.534364924998954,,,051,001,2019_May_21_0910,MusicAffectPsychophysiology2019,3.0.5,60.23179120434989,
To what extent did the music make you feel ,SAD,30MonoWAV/30MonoT3.wav,2,1,4,15,,,,,1,6,22,14,0,3,3,0,,,,,,,,,1,0.9167065740039106,,,051,001,2019_May_21_0910,MusicAffectPsychophysiology2019,3.0.5,60.23179120434989,
To what extent did the music make you feel ,ANGRY,30MonoWAV/30MonoT3.wav,2,1,4,15,,,,,1,6,22,14,0,4,4,2,,,,,,,,,1,0.6023295960039832,,,051,001,2019_May_21_0910,MusicAffectPsychophysiology2019,3.0.5,60.23179120434989,
To what extent did the music make you feel ,TENDER,30MonoWAV/30MonoT3.wav,2,1,4,15,,,,,1,6,22,14,0,5,5,10,,,,,,,,,2,1.0683825419982895,,,051,001,2019_May_21_0910,MusicAffectPsychophysiology2019,3.0.5,60.23179120434989,
To what extent did the music make you feel ,FRUSTRATED,30MonoWAV/30MonoT3.wav,2,1,4,15,,,,,1,6,22,14,0,6,6,3,,,,,,,,,1,0.6520143020024989,,,051,001,2019_May_21_0910,MusicAffectPsychophysiology2019,3.0.5,60.23179120434989,
To what extent did the music make you feel ,ALERT,30MonoWAV/30MonoT3.wav,2,1,4,15,,,,,1,6,22,14,0,7,7,8,,,,,,,,,1,0.7023624699941138,,,051,001,2019_May_21_0910,MusicAffectPsychophysiology2019,3.0.5,60.23179120434989,
To what extent did the music make you feel ,ASHAMED,30MonoWAV/30MonoT3.wav,2,1,4,15,,,,,1,6,22,14,0,8,8,4,,,,,,,,,1,0.5352708360005636,,,051,001,2019_May_21_0910,MusicAffectPsychophysiology2019,3.0.5,60.23179120434989,
To what extent did the music make you feel ,ANXIOUS ,30MonoWAV/30MonoT3.wav,2,1,4,15,,,,,1,6,22,14,0,9,9,1,,,,,,,,,1,0.5183224590000464,,,051,001,2019_May_21_0910,MusicAffectPsychophysiology2019,3.0.5,60.23179120434989,
To what extent did the music make you feel ,SCARED,30MonoWAV/30MonoT3.wav,2,1,4,15,,,,,1,6,22,14,0,10,10,11,,,,,,,,,1,0.850636418996146,,,051,001,2019_May_21_0910,MusicAffectPsychophysiology2019,3.0.5,60.23179120434989,
To what extent did the music make you feel ,GUILTY,30MonoWAV/30MonoT3.wav,2,1,4,15,,,,,1,6,22,14,0,11,11,5,,,,,,,,,1,0.6189276030054316,,,051,001,2019_May_21_0910,MusicAffectPsychophysiology2019,3.0.5,60.23179120434989,
,,30MonoWAV/30MonoT3.wav,2,1,4,15,,,,,1,6,22,14,,,,,,,,,,,,,,,,,051,001,2019_May_21_0910,MusicAffectPsychophysiology2019,3.0.5,60.23179120434989,
To what extent did the music make you feel ,SCARED,30MonoWAV/30MonoF1.wav,1,2,2,1,,,,,1,7,23,0,0,0,0,11,,,1,4.440298592991894,1,0.8354713019944029,1,1.0686675360047957,3,4.408666606002953,,,051,001,2019_May_21_0910,MusicAffectPsychophysiology2019,3.0.5,60.23179120434989,
To what extent did the music make you feel ,GUILTY,30MonoWAV/30MonoF1.wav,1,2,2,1,,,,,1,7,23,0,0,1,1,5,,,,,,,,,1,1.737434797003516,,,051,001,2019_May_21_0910,MusicAffectPsychophysiology2019,3.0.5,60.23179120434989,
To what extent did the music make you feel ,TENDER,30MonoWAV/30MonoF1.wav,1,2,2,1,,,,,1,7,23,0,0,2,2,10,,,,,,,,,1,0.9348125559918117,,,051,001,2019_May_21_0910,MusicAffectPsychophysiology2019,3.0.5,60.23179120434989,
To what extent did the music make you feel ,HAPPY,30MonoWAV/30MonoF1.wav,1,2,2,1,,,,,1,7,23,0,0,3,3,6,,,,,,,,,1,0.719063690994517,,,051,001,2019_May_21_0910,MusicAffectPsychophysiology2019,3.0.5,60.23179120434989,
To what extent did the music make you feel ,FRUSTRATED,30MonoWAV/30MonoF1.wav,1,2,2,1,,,,,1,7,23,0,0,4,4,3,,,,,,,,,5,3.440437783996458,,,051,001,2019_May_21_0910,MusicAffectPsychophysiology2019,3.0.5,60.23179120434989,
To what extent did the music make you feel ,ANGRY,30MonoWAV/30MonoF1.wav,1,2,2,1,,,,,1,7,23,0,0,5,5,2,,,,,,,,,1,3.151599550998071,,,051,001,2019_May_21_0910,MusicAffectPsychophysiology2019,3.0.5,60.23179120434989,
To what extent did the music make you feel ,ALERT,30MonoWAV/30MonoF1.wav,1,2,2,1,,,,,1,7,23,0,0,6,6,8,,,,,,,,,4,2.668802694999613,,,051,001,2019_May_21_0910,MusicAffectPsychophysiology2019,3.0.5,60.23179120434989,
To what extent did the music make you feel ,ASHAMED,30MonoWAV/30MonoF1.wav,1,2,2,1,,,,,1,7,23,0,0,7,7,4,,,,,,,,,1,1.4682784979959251,,,051,001,2019_May_21_0910,MusicAffectPsychophysiology2019,3.0.5,60.23179120434989,
To what extent did the music make you feel ,EXCITED,30MonoWAV/30MonoF1.wav,1,2,2,1,,,,,1,7,23,0,0,8,8,7,,,,,,,,,1,1.202168507996248,,,051,001,2019_May_21_0910,MusicAffectPsychophysiology2019,3.0.5,60.23179120434989,
To what extent did the music make you feel ,ANXIOUS ,30MonoWAV/30MonoF1.wav,1,2,2,1,,,,,1,7,23,0,0,9,9,1,,,,,,,,,5,2.068368884996744,,,051,001,2019_May_21_0910,MusicAffectPsychophysiology2019,3.0.5,60.23179120434989,
To what extent did the music make you feel ,ACTIVE,30MonoWAV/30MonoF1.wav,1,2,2,1,,,,,1,7,23,0,0,10,10,9,,,,,,,,,2,8.334712714000489,,,051,001,2019_May_21_0910,MusicAffectPsychophysiology2019,3.0.5,60.23179120434989,
To what extent did the music make you feel ,SAD,30MonoWAV/30MonoF1.wav,1,2,2,1,,,,,1,7,23,0,0,11,11,0,,,,,,,,,1,1.617963797005359,,,051,001,2019_May_21_0910,MusicAffectPsychophysiology2019,3.0.5,60.23179120434989,
,,30MonoWAV/30MonoF1.wav,1,2,2,1,,,,,1,7,23,0,,,,,,,,,,,,,,,,,051,001,2019_May_21_0910,MusicAffectPsychophysiology2019,3.0.5,60.23179120434989,
To what extent did the music make you feel ,TENDER,30MonoWAV/30MonoF2.wav,1,2,2,2,,,,,1,8,24,1,0,0,0,10,,,1,1.8353949419979472,1,0.5188311509991763,1,0.9349378929910017,1,1.3851522080076393,,,051,001,2019_May_21_0910,MusicAffectPsychophysiology2019,3.0.5,60.23179120434989,
To what extent did the music make you feel ,SCARED,30MonoWAV/30MonoF2.wav,1,2,2,2,,,,,1,8,24,1,0,1,1,11,,,,,,,,,5,2.655471182006295,,,051,001,2019_May_21_0910,MusicAffectPsychophysiology2019,3.0.5,60.23179120434989,
To what extent did the music make you feel ,SAD,30MonoWAV/30MonoF2.wav,1,2,2,2,,,,,1,8,24,1,0,2,2,0,,,,,,,,,2,4.340214689000277,,,051,001,2019_May_21_0910,MusicAffectPsychophysiology2019,3.0.5,60.23179120434989,
To what extent did the music make you feel ,ACTIVE,30MonoWAV/30MonoF2.wav,1,2,2,2,,,,,1,8,24,1,0,3,3,9,,,,,,,,,1,2.454281166996225,,,051,001,2019_May_21_0910,MusicAffectPsychophysiology2019,3.0.5,60.23179120434989,
To what extent did the music make you feel ,ALERT,30MonoWAV/30MonoF2.wav,1,2,2,2,,,,,1,8,24,1,0,4,4,8,,,,,,,,,4,2.5205336369981524,,,051,001,2019_May_21_0910,MusicAffectPsychophysiology2019,3.0.5,60.23179120434989,
To what extent did the music make you feel ,FRUSTRATED,30MonoWAV/30MonoF2.wav,1,2,2,2,,,,,1,8,24,1,0,5,5,3,,,,,,,,,5,1.319141126004979,,,051,001,2019_May_21_0910,MusicAffectPsychophysiology2019,3.0.5,60.23179120434989,
To what extent did the music make you feel ,EXCITED,30MonoWAV/30MonoF2.wav,1,2,2,2,,,,,1,8,24,1,0,6,6,7,,,,,,,,,1,1.234125753006083,,,051,001,2019_May_21_0910,MusicAffectPsychophysiology2019,3.0.5,60.23179120434989,
To what extent did the music make you feel ,ANGRY,30MonoWAV/30MonoF2.wav,1,2,2,2,,,,,1,8,24,1,0,7,7,2,,,,,,,,,1,0.9509937230031937,,,051,001,2019_May_21_0910,MusicAffectPsychophysiology2019,3.0.5,60.23179120434989,
To what extent did the music make you feel ,HAPPY,30MonoWAV/30MonoF2.wav,1,2,2,2,,,,,1,8,24,1,0,8,8,6,,,,,,,,,1,0.7179122539964737,,,051,001,2019_May_21_0910,MusicAffectPsychophysiology2019,3.0.5,60.23179120434989,
To what extent did the music make you feel ,ASHAMED,30MonoWAV/30MonoF2.wav,1,2,2,2,,,,,1,8,24,1,0,9,9,4,,,,,,,,,1,0.9182641660008812,,,051,001,2019_May_21_0910,MusicAffectPsychophysiology2019,3.0.5,60.23179120434989,
To what extent did the music make you feel ,ANXIOUS ,30MonoWAV/30MonoF2.wav,1,2,2,2,,,,,1,8,24,1,0,10,10,1,,,,,,,,,5,2.5516930769954342,,,051,001,2019_May_21_0910,MusicAffectPsychophysiology2019,3.0.5,60.23179120434989,
To what extent did the music make you feel ,GUILTY,30MonoWAV/30MonoF2.wav,1,2,2,2,,,,,1,8,24,1,0,11,11,5,,,,,,,,,1,1.3514721389947226,,,051,001,2019_May_21_0910,MusicAffectPsychophysiology2019,3.0.5,60.23179120434989,
,,30MonoWAV/30MonoF2.wav,1,2,2,2,,,,,1,8,24,1,,,,,,,,,,,,,,,,,051,001,2019_May_21_0910,MusicAffectPsychophysiology2019,3.0.5,60.23179120434989,
To what extent did the music make you feel ,ASHAMED,30MonoWAV/30MonoF4.wav,1,2,2,4,,,,,1,9,25,3,0,0,0,4,,,1,1.670007954002358,1,0.5347031860001152,1,1.0520149140065769,1,1.1159328740031924,,,051,001,2019_May_21_0910,MusicAffectPsychophysiology2019,3.0.5,60.23179120434989,
To what extent did the music make you feel ,ALERT,30MonoWAV/30MonoF4.wav,1,2,2,4,,,,,1,9,25,3,0,1,1,8,,,,,,,,,2,3.2510605860006763,,,051,001,2019_May_21_0910,MusicAffectPsychophysiology2019,3.0.5,60.23179120434989,
To what extent did the music make you feel ,GUILTY,30MonoWAV/30MonoF4.wav,1,2,2,4,,,,,1,9,25,3,0,2,2,5,,,,,,,,,1,1.5350492169964127,,,051,001,2019_May_21_0910,MusicAffectPsychophysiology2019,3.0.5,60.23179120434989,
To what extent did the music make you feel ,EXCITED,30MonoWAV/30MonoF4.wav,1,2,2,4,,,,,1,9,25,3,0,3,3,7,,,,,,,,,1,0.850010715003009,,,051,001,2019_May_21_0910,MusicAffectPsychophysiology2019,3.0.5,60.23179120434989,
To what extent did the music make you feel ,TENDER,30MonoWAV/30MonoF4.wav,1,2,2,4,,,,,1,9,25,3,0,4,4,10,,,,,,,,,1,0.9184667720110156,,,051,001,2019_May_21_0910,MusicAffectPsychophysiology2019,3.0.5,60.23179120434989,
To what extent did the music make you feel ,ACTIVE,30MonoWAV/30MonoF4.wav,1,2,2,4,,,,,1,9,25,3,0,5,5,9,,,,,,,,,2,3.98332045400457,,,051,001,2019_May_21_0910,MusicAffectPsychophysiology2019,3.0.5,60.23179120434989,
To what extent did the music make you feel ,ANXIOUS ,30MonoWAV/30MonoF4.wav,1,2,2,4,,,,,1,9,25,3,0,6,6,1,,,,,,,,,4,2.8352011060051154,,,051,001,2019_May_21_0910,MusicAffectPsychophysiology2019,3.0.5,60.23179120434989,
To what extent did the music make you feel ,FRUSTRATED,30MonoWAV/30MonoF4.wav,1,2,2,4,,,,,1,9,25,3,0,7,7,3,,,,,,,,,5,1.4406868939986452,,,051,001,2019_May_21_0910,MusicAffectPsychophysiology2019,3.0.5,60.23179120434989,
To what extent did the music make you feel ,HAPPY,30MonoWAV/30MonoF4.wav,1,2,2,4,,,,,1,9,25,3,0,8,8,6,,,,,,,,,1,1.0030647019884782,,,051,001,2019_May_21_0910,MusicAffectPsychophysiology2019,3.0.5,60.23179120434989,
To what extent did the music make you feel ,ANGRY,30MonoWAV/30MonoF4.wav,1,2,2,4,,,,,1,9,25,3,0,9,9,2,,,,,,,,,1,0.835675321999588,,,051,001,2019_May_21_0910,MusicAffectPsychophysiology2019,3.0.5,60.23179120434989,
To what extent did the music make you feel ,SAD,30MonoWAV/30MonoF4.wav,1,2,2,4,,,,,1,9,25,3,0,10,10,0,,,,,,,,,1,2.6390415619971463,,,051,001,2019_May_21_0910,MusicAffectPsychophysiology2019,3.0.5,60.23179120434989,
To what extent did the music make you feel ,SCARED,30MonoWAV/30MonoF4.wav,1,2,2,4,,,,,1,9,25,3,0,11,11,11,,,,,,,,,1,2.8395068130048458,,,051,001,2019_May_21_0910,MusicAffectPsychophysiology2019,3.0.5,60.23179120434989,
,,30MonoWAV/30MonoF4.wav,1,2,2,4,,,,,1,9,25,3,,,,,,,,,,,,,,,,,051,001,2019_May_21_0910,MusicAffectPsychophysiology2019,3.0.5,60.23179120434989,
To what extent did the music make you feel ,GUILTY,30MonoWAV/30MonoH1.wav,2,2,1,5,,,,,1,10,26,4,0,0,0,5,,,3,3.4495638299995335,3,1.201543215996935,3,2.584888604003936,1,1.134825330998865,,,051,001,2019_May_21_0910,MusicAffectPsychophysiology2019,3.0.5,60.23179120434989,
To what extent did the music make you feel ,EXCITED,30MonoWAV/30MonoH1.wav,2,2,1,5,,,,,1,10,26,4,0,1,1,7,,,,,,,,,2,1.5014215459959814,,,051,001,2019_May_21_0910,MusicAffectPsychophysiology2019,3.0.5,60.23179120434989,
To what extent did the music make you feel ,ANXIOUS ,30MonoWAV/30MonoH1.wav,2,2,1,5,,,,,1,10,26,4,0,2,2,1,,,,,,,,,1,0.9338256480114069,,,051,001,2019_May_21_0910,MusicAffectPsychophysiology2019,3.0.5,60.23179120434989,
To what extent did the music make you feel ,SAD,30MonoWAV/30MonoH1.wav,2,2,1,5,,,,,1,10,26,4,0,3,3,0,,,,,,,,,1,0.5692577449954115,,,051,001,2019_May_21_0910,MusicAffectPsychophysiology2019,3.0.5,60.23179120434989,
To what extent did the music make you feel ,FRUSTRATED,30MonoWAV/30MonoH1.wav,2,2,1,5,,,,,1,10,26,4,0,4,4,3,,,,,,,,,1,0.6363597529998515,,,051,001,2019_May_21_0910,MusicAffectPsychophysiology2019,3.0.5,60.23179120434989,
To what extent did the music make you feel ,TENDER,30MonoWAV/30MonoH1.wav,2,2,1,5,,,,,1,10,26,4,0,5,5,10,,,,,,,,,2,1.134120842005359,,,051,001,2019_May_21_0910,MusicAffectPsychophysiology2019,3.0.5,60.23179120434989,
To what extent did the music make you feel ,ACTIVE,30MonoWAV/30MonoH1.wav,2,2,1,5,,,,,1,10,26,4,0,6,6,9,,,,,,,,,2,1.4512479240074754,,,051,001,2019_May_21_0910,MusicAffectPsychophysiology2019,3.0.5,60.23179120434989,
To what extent did the music make you feel ,ANGRY,30MonoWAV/30MonoH1.wav,2,2,1,5,,,,,1,10,26,4,0,7,7,2,,,,,,,,,1,0.6516502760059666,,,051,001,2019_May_21_0910,MusicAffectPsychophysiology2019,3.0.5,60.23179120434989,
To what extent did the music make you feel ,HAPPY,30MonoWAV/30MonoH1.wav,2,2,1,5,,,,,1,10,26,4,0,8,8,6,,,,,,,,,3,1.1358761500014225,,,051,001,2019_May_21_0910,MusicAffectPsychophysiology2019,3.0.5,60.23179120434989,
To what extent did the music make you feel ,ASHAMED,30MonoWAV/30MonoH1.wav,2,2,1,5,,,,,1,10,26,4,0,9,9,4,,,,,,,,,1,1.0349474219983676,,,051,001,2019_May_21_0910,MusicAffectPsychophysiology2019,3.0.5,60.23179120434989,
To what extent did the music make you feel ,ALERT,30MonoWAV/30MonoH1.wav,2,2,1,5,,,,,1,10,26,4,0,10,10,8,,,,,,,,,1,0.8351240699994378,,,051,001,2019_May_21_0910,MusicAffectPsychophysiology2019,3.0.5,60.23179120434989,
To what extent did the music make you feel ,SCARED,30MonoWAV/30MonoH1.wav,2,2,1,5,,,,,1,10,26,4,0,11,11,11,,,,,,,,,1,0.45188987799338065,,,051,001,2019_May_21_0910,MusicAffectPsychophysiology2019,3.0.5,60.23179120434989,
,,30MonoWAV/30MonoH1.wav,2,2,1,5,,,,,1,10,26,4,,,,,,,,,,,,,,,,,051,001,2019_May_21_0910,MusicAffectPsychophysiology2019,3.0.5,60.23179120434989,
To what extent did the music make you feel ,EXCITED,30MonoWAV/30MonoT1.wav,2,1,4,13,,,,,1,11,27,12,0,0,0,7,,,2,2.8355149749986595,2,2.418499196006451,2,1.3831856040051207,1,1.8186205020028865,,,051,001,2019_May_21_0910,MusicAffectPsychophysiology2019,3.0.5,60.23179120434989,
To what extent did the music make you feel ,SCARED,30MonoWAV/30MonoT1.wav,2,1,4,13,,,,,1,11,27,12,0,1,1,11,,,,,,,,,1,0.5679813750030007,,,051,001,2019_May_21_0910,MusicAffectPsychophysiology2019,3.0.5,60.23179120434989,
To what extent did the music make you feel ,GUILTY,30MonoWAV/30MonoT1.wav,2,1,4,13,,,,,1,11,27,12,0,2,2,5,,,,,,,,,1,2.433641377996537,,,051,001,2019_May_21_0910,MusicAffectPsychophysiology2019,3.0.5,60.23179120434989,
To what extent did the music make you feel ,ASHAMED,30MonoWAV/30MonoT1.wav,2,1,4,13,,,,,1,11,27,12,0,3,3,4,,,,,,,,,1,1.0188026360119693,,,051,001,2019_May_21_0910,MusicAffectPsychophysiology2019,3.0.5,60.23179120434989,
To what extent did the music make you feel ,ANGRY,30MonoWAV/30MonoT1.wav,2,1,4,13,,,,,1,11,27,12,0,4,4,2,,,,,,,,,1,1.052702065993799,,,051,001,2019_May_21_0910,MusicAffectPsychophysiology2019,3.0.5,60.23179120434989,
To what extent did the music make you feel ,ANXIOUS ,30MonoWAV/30MonoT1.wav,2,1,4,13,,,,,1,11,27,12,0,5,5,1,,,,,,,,,1,1.1346077759953914,,,051,001,2019_May_21_0910,MusicAffectPsychophysiology2019,3.0.5,60.23179120434989,
To what extent did the music make you feel ,HAPPY,30MonoWAV/30MonoT1.wav,2,1,4,13,,,,,1,11,27,12,0,6,6,6,,,,,,,,,1,1.153241820007679,,,051,001,2019_May_21_0910,MusicAffectPsychophysiology2019,3.0.5,60.23179120434989,
To what extent did the music make you feel ,TENDER,30MonoWAV/30MonoT1.wav,2,1,4,13,,,,,1,11,27,12,0,7,7,10,,,,,,,,,2,2.501279306001379,,,051,001,2019_May_21_0910,MusicAffectPsychophysiology2019,3.0.5,60.23179120434989,
To what extent did the music make you feel ,SAD,30MonoWAV/30MonoT1.wav,2,1,4,13,,,,,1,11,27,12,0,8,8,0,,,,,,,,,2,0.9888992510095704,,,051,001,2019_May_21_0910,MusicAffectPsychophysiology2019,3.0.5,60.23179120434989,
To what extent did the music make you feel ,ALERT,30MonoWAV/30MonoT1.wav,2,1,4,13,,,,,1,11,27,12,0,9,9,8,,,,,,,,,1,0.9529437790042721,,,051,001,2019_May_21_0910,MusicAffectPsychophysiology2019,3.0.5,60.23179120434989,
To what extent did the music make you feel ,ACTIVE,30MonoWAV/30MonoT1.wav,2,1,4,13,,,,,1,11,27,12,0,10,10,9,,,,,,,,,1,2.9545798290055245,,,051,001,2019_May_21_0910,MusicAffectPsychophysiology2019,3.0.5,60.23179120434989,
To what extent did the music make you feel ,FRUSTRATED,30MonoWAV/30MonoT1.wav,2,1,4,13,,,,,1,11,27,12,0,11,11,3,,,,,,,,,1,1.2528449050005293,,,051,001,2019_May_21_0910,MusicAffectPsychophysiology2019,3.0.5,60.23179120434989,
,,30MonoWAV/30MonoT1.wav,2,1,4,13,,,,,1,11,27,12,,,,,,,,,,,,,,,,,051,001,2019_May_21_0910,MusicAffectPsychophysiology2019,3.0.5,60.23179120434989,
To what extent did the music make you feel ,ASHAMED,30MonoWAV/30MonoF3.wav,1,2,2,3,,,,,1,12,28,2,0,0,0,4,,,1,7.884717740002088,1,0.9353367680014344,1,0.4517511470039608,1,1.0186685859953286,,,051,001,2019_May_21_0910,MusicAffectPsychophysiology2019,3.0.5,60.23179120434989,
To what extent did the music make you feel ,ANXIOUS ,30MonoWAV/30MonoF3.wav,1,2,2,3,,,,,1,12,28,2,0,1,1,1,,,,,,,,,2,1.9681348430021899,,,051,001,2019_May_21_0910,MusicAffectPsychophysiology2019,3.0.5,60.23179120434989,
To what extent did the music make you feel ,HAPPY,30MonoWAV/30MonoF3.wav,1,2,2,3,,,,,1,12,28,2,0,2,2,6,,,,,,,,,1,0.7678320730046835,,,051,001,2019_May_21_0910,MusicAffectPsychophysiology2019,3.0.5,60.23179120434989,
To what extent did the music make you feel ,ACTIVE,30MonoWAV/30MonoF3.wav,1,2,2,3,,,,,1,12,28,2,0,3,3,9,,,,,,,,,1,1.0183698129985714,,,051,001,2019_May_21_0910,MusicAffectPsychophysiology2019,3.0.5,60.23179120434989,
To what extent did the music make you feel ,GUILTY,30MonoWAV/30MonoF3.wav,1,2,2,3,,,,,1,12,28,2,0,4,4,5,,,,,,,,,2,2.7683888229948934,,,051,001,2019_May_21_0910,MusicAffectPsychophysiology2019,3.0.5,60.23179120434989,
To what extent did the music make you feel ,ALERT,30MonoWAV/30MonoF3.wav,1,2,2,3,,,,,1,12,28,2,0,5,5,8,,,,,,,,,2,2.3523919500003103,,,051,001,2019_May_21_0910,MusicAffectPsychophysiology2019,3.0.5,60.23179120434989,
To what extent did the music make you feel ,FRUSTRATED,30MonoWAV/30MonoF3.wav,1,2,2,3,,,,,1,12,28,2,0,6,6,3,,,,,,,,,2,3.8352843260072405,,,051,001,2019_May_21_0910,MusicAffectPsychophysiology2019,3.0.5,60.23179120434989,
To what extent did the music make you feel ,ANGRY,30MonoWAV/30MonoF3.wav,1,2,2,3,,,,,1,12,28,2,0,7,7,2,,,,,,,,,1,0.9690421330014942,,,051,001,2019_May_21_0910,MusicAffectPsychophysiology2019,3.0.5,60.23179120434989,
To what extent did the music make you feel ,SCARED,30MonoWAV/30MonoF3.wav,1,2,2,3,,,,,1,12,28,2,0,8,8,11,,,,,,,,,2,3.7837800130073447,,,051,001,2019_May_21_0910,MusicAffectPsychophysiology2019,3.0.5,60.23179120434989,
To what extent did the music make you feel ,TENDER,30MonoWAV/30MonoF3.wav,1,2,2,3,,,,,1,12,28,2,0,9,9,10,,,,,,,,,1,2.252549798009568,,,051,001,2019_May_21_0910,MusicAffectPsychophysiology2019,3.0.5,60.23179120434989,
To what extent did the music make you feel ,SAD,30MonoWAV/30MonoF3.wav,1,2,2,3,,,,,1,12,28,2,0,10,10,0,,,,,,,,,1,2.3563839720009128,,,051,001,2019_May_21_0910,MusicAffectPsychophysiology2019,3.0.5,60.23179120434989,
To what extent did the music make you feel ,EXCITED,30MonoWAV/30MonoF3.wav,1,2,2,3,,,,,1,12,28,2,0,11,11,7,,,,,,,,,1,1.7376780880003935,,,051,001,2019_May_21_0910,MusicAffectPsychophysiology2019,3.0.5,60.23179120434989,
,,30MonoWAV/30MonoF3.wav,1,2,2,3,,,,,1,12,28,2,,,,,,,,,,,,,,,,,051,001,2019_May_21_0910,MusicAffectPsychophysiology2019,3.0.5,60.23179120434989,
To what extent did the music make you feel ,SAD,30MonoWAV/30MonoH4.wav,2,2,1,8,,,,,1,13,29,7,0,0,0,0,,,4,4.040479361996404,5,2.149665250995895,4,1.4854329820082057,1,1.451624230001471,,,051,001,2019_May_21_0910,MusicAffectPsychophysiology2019,3.0.5,60.23179120434989,
To what extent did the music make you feel ,ANGRY,30MonoWAV/30MonoH4.wav,2,2,1,8,,,,,1,13,29,7,0,1,1,2,,,,,,,,,1,0.5684806320059579,,,051,001,2019_May_21_0910,MusicAffectPsychophysiology2019,3.0.5,60.23179120434989,
To what extent did the music make you feel ,FRUSTRATED,30MonoWAV/30MonoH4.wav,2,2,1,8,,,,,1,13,29,7,0,2,2,3,,,,,,,,,1,0.5186266070086276,,,051,001,2019_May_21_0910,MusicAffectPsychophysiology2019,3.0.5,60.23179120434989,
To what extent did the music make you feel ,ANXIOUS ,30MonoWAV/30MonoH4.wav,2,2,1,8,,,,,1,13,29,7,0,3,3,1,,,,,,,,,1,0.48529628399410285,,,051,001,2019_May_21_0910,MusicAffectPsychophysiology2019,3.0.5,60.23179120434989,
To what extent did the music make you feel ,ACTIVE,30MonoWAV/30MonoH4.wav,2,2,1,8,,,,,1,13,29,7,0,4,4,9,,,,,,,,,4,2.117964781995397,,,051,001,2019_May_21_0910,MusicAffectPsychophysiology2019,3.0.5,60.23179120434989,
To what extent did the music make you feel ,ASHAMED,30MonoWAV/30MonoH4.wav,2,2,1,8,,,,,1,13,29,7,0,5,5,4,,,,,,,,,1,0.9356023379950784,,,051,001,2019_May_21_0910,MusicAffectPsychophysiology2019,3.0.5,60.23179120434989,
To what extent did the music make you feel ,SCARED,30MonoWAV/30MonoH4.wav,2,2,1,8,,,,,1,13,29,7,0,6,6,11,,,,,,,,,1,1.0521579880005447,,,051,001,2019_May_21_0910,MusicAffectPsychophysiology2019,3.0.5,60.23179120434989,
To what extent did the music make you feel ,ALERT,30MonoWAV/30MonoH4.wav,2,2,1,8,,,,,1,13,29,7,0,7,7,8,,,,,,,,,1,0.9530453680054052,,,051,001,2019_May_21_0910,MusicAffectPsychophysiology2019,3.0.5,60.23179120434989,
To what extent did the music make you feel ,HAPPY,30MonoWAV/30MonoH4.wav,2,2,1,8,,,,,1,13,29,7,0,8,8,6,,,,,,,,,4,1.8024183770030504,,,051,001,2019_May_21_0910,MusicAffectPsychophysiology2019,3.0.5,60.23179120434989,
To what extent did the music make you feel ,GUILTY,30MonoWAV/30MonoH4.wav,2,2,1,8,,,,,1,13,29,7,0,9,9,5,,,,,,,,,1,0.9343107739987317,,,051,001,2019_May_21_0910,MusicAffectPsychophysiology2019,3.0.5,60.23179120434989,
To what extent did the music make you feel ,EXCITED,30MonoWAV/30MonoH4.wav,2,2,1,8,,,,,1,13,29,7,0,10,10,7,,,,,,,,,5,1.9019346739951288,,,051,001,2019_May_21_0910,MusicAffectPsychophysiology2019,3.0.5,60.23179120434989,
To what extent did the music make you feel ,TENDER,30MonoWAV/30MonoH4.wav,2,2,1,8,,,,,1,13,29,7,0,11,11,10,,,,,,,,,3,2.1681031659973087,,,051,001,2019_May_21_0910,MusicAffectPsychophysiology2019,3.0.5,60.23179120434989,
,,30MonoWAV/30MonoH4.wav,2,2,1,8,,,,,1,13,29,7,,,,,,,,,,,,,,,,,051,001,2019_May_21_0910,MusicAffectPsychophysiology2019,3.0.5,60.23179120434989,
To what extent did the music make you feel ,HAPPY,30MonoWAV/30MonoT2.wav,2,1,4,14,,,,,1,14,30,13,0,0,0,6,,,3,2.7194448670052225,3,2.2838674780068686,3,0.868027427000925,2,3.619123489013873,,,051,001,2019_May_21_0910,MusicAffectPsychophysiology2019,3.0.5,60.23179120434989,
To what extent did the music make you feel ,GUILTY,30MonoWAV/30MonoT2.wav,2,1,4,14,,,,,1,14,30,13,0,1,1,5,,,,,,,,,1,1.9519542210036889,,,051,001,2019_May_21_0910,MusicAffectPsychophysiology2019,3.0.5,60.23179120434989,
To what extent did the music make you feel ,TENDER,30MonoWAV/30MonoT2.wav,2,1,4,14,,,,,1,14,30,13,0,2,2,10,,,,,,,,,2,0.919051055010641,,,051,001,2019_May_21_0910,MusicAffectPsychophysiology2019,3.0.5,60.23179120434989,
To what extent did the music make you feel ,SCARED,30MonoWAV/30MonoT2.wav,2,1,4,14,,,,,1,14,30,13,0,3,3,11,,,,,,,,,1,1.1670640049997019,,,051,001,2019_May_21_0910,MusicAffectPsychophysiology2019,3.0.5,60.23179120434989,
To what extent did the music make you feel ,ANGRY,30MonoWAV/30MonoT2.wav,2,1,4,14,,,,,1,14,30,13,0,4,4,2,,,,,,,,,1,0.6849582240101881,,,051,001,2019_May_21_0910,MusicAffectPsychophysiology2019,3.0.5,60.23179120434989,
To what extent did the music make you feel ,EXCITED,30MonoWAV/30MonoT2.wav,2,1,4,14,,,,,1,14,30,13,0,5,5,7,,,,,,,,,1,1.0673674300051061,,,051,001,2019_May_21_0910,MusicAffectPsychophysiology2019,3.0.5,60.23179120434989,
To what extent did the music make you feel ,SAD,30MonoWAV/30MonoT2.wav,2,1,4,14,,,,,1,14,30,13,0,6,6,0,,,,,,,,,1,1.617688359998283,,,051,001,2019_May_21_0910,MusicAffectPsychophysiology2019,3.0.5,60.23179120434989,
To what extent did the music make you feel ,ALERT,30MonoWAV/30MonoT2.wav,2,1,4,14,,,,,1,14,30,13,0,7,7,8,,,,,,,,,1,0.8526054660032969,,,051,001,2019_May_21_0910,MusicAffectPsychophysiology2019,3.0.5,60.23179120434989,
To what extent did the music make you feel ,ACTIVE,30MonoWAV/30MonoT2.wav,2,1,4,14,,,,,1,14,30,13,0,8,8,9,,,,,,,,,2,1.6525413939962164,,,051,001,2019_May_21_0910,MusicAffectPsychophysiology2019,3.0.5,60.23179120434989,
To what extent did the music make you feel ,ASHAMED,30MonoWAV/30MonoT2.wav,2,1,4,14,,,,,1,14,30,13,0,9,9,4,,,,,,,,,1,0.885218536001048,,,051,001,2019_May_21_0910,MusicAffectPsychophysiology2019,3.0.5,60.23179120434989,
To what extent did the music make you feel ,FRUSTRATED,30MonoWAV/30MonoT2.wav,2,1,4,14,,,,,1,14,30,13,0,10,10,3,,,,,,,,,1,0.6520756509999046,,,051,001,2019_May_21_0910,MusicAffectPsychophysiology2019,3.0.5,60.23179120434989,
To what extent did the music make you feel ,ANXIOUS ,30MonoWAV/30MonoT2.wav,2,1,4,14,,,,,1,14,30,13,0,11,11,1,,,,,,,,,1,0.5527372840006137,,,051,001,2019_May_21_0910,MusicAffectPsychophysiology2019,3.0.5,60.23179120434989,
,,30MonoWAV/30MonoT2.wav,2,1,4,14,,,,,1,14,30,13,,,,,,,,,,,,,,,,,051,001,2019_May_21_0910,MusicAffectPsychophysiology2019,3.0.5,60.23179120434989,
To what extent did the music make you feel ,FRUSTRATED,30MonoWAV/30MonoS3.wav,1,1,3,11,,,,,1,15,31,10,0,0,0,3,,,1,4.1518318750022445,1,0.9683053180051502,1,1.3700379539950518,2,2.417693163995864,,,051,001,2019_May_21_0910,MusicAffectPsychophysiology2019,3.0.5,60.23179120434989,
To what extent did the music make you feel ,ANXIOUS ,30MonoWAV/30MonoS3.wav,1,1,3,11,,,,,1,15,31,10,0,1,1,1,,,,,,,,,2,1.367656148999231,,,051,001,2019_May_21_0910,MusicAffectPsychophysiology2019,3.0.5,60.23179120434989,
To what extent did the music make you feel ,SCARED,30MonoWAV/30MonoS3.wav,1,1,3,11,,,,,1,15,31,10,0,2,2,11,,,,,,,,,1,1.3849658710096264,,,051,001,2019_May_21_0910,MusicAffectPsychophysiology2019,3.0.5,60.23179120434989,
To what extent did the music make you feel ,SAD,30MonoWAV/30MonoS3.wav,1,1,3,11,,,,,1,15,31,10,0,3,3,0,,,,,,,,,1,1.2848794980091043,,,051,001,2019_May_21_0910,MusicAffectPsychophysiology2019,3.0.5,60.23179120434989,
To what extent did the music make you feel ,ACTIVE,30MonoWAV/30MonoS3.wav,1,1,3,11,,,,,1,15,31,10,0,4,4,9,,,,,,,,,1,1.4350900319986977,,,051,001,2019_May_21_0910,MusicAffectPsychophysiology2019,3.0.5,60.23179120434989,
To what extent did the music make you feel ,TENDER,30MonoWAV/30MonoS3.wav,1,1,3,11,,,,,1,15,31,10,0,5,5,10,,,,,,,,,2,1.7348552619951079,,,051,001,2019_May_21_0910,MusicAffectPsychophysiology2019,3.0.5,60.23179120434989,
To what extent did the music make you feel ,EXCITED,30MonoWAV/30MonoS3.wav,1,1,3,11,,,,,1,15,31,10,0,6,6,7,,,,,,,,,1,1.784604340995429,,,051,001,2019_May_21_0910,MusicAffectPsychophysiology2019,3.0.5,60.23179120434989,
To what extent did the music make you feel ,ALERT,30MonoWAV/30MonoS3.wav,1,1,3,11,,,,,1,15,31,10,0,7,7,8,,,,,,,,,1,0.9508544520067517,,,051,001,2019_May_21_0910,MusicAffectPsychophysiology2019,3.0.5,60.23179120434989,
To what extent did the music make you feel ,ASHAMED,30MonoWAV/30MonoS3.wav,1,1,3,11,,,,,1,15,31,10,0,8,8,4,,,,,,,,,1,0.8865746629890054,,,051,001,2019_May_21_0910,MusicAffectPsychophysiology2019,3.0.5,60.23179120434989,
To what extent did the music make you feel ,HAPPY,30MonoWAV/30MonoS3.wav,1,1,3,11,,,,,1,15,31,10,0,9,9,6,,,,,,,,,1,0.5338593829947058,,,051,001,2019_May_21_0910,MusicAffectPsychophysiology2019,3.0.5,60.23179120434989,
To what extent did the music make you feel ,ANGRY,30MonoWAV/30MonoS3.wav,1,1,3,11,,,,,1,15,31,10,0,10,10,2,,,,,,,,,1,0.6852933659974951,,,051,001,2019_May_21_0910,MusicAffectPsychophysiology2019,3.0.5,60.23179120434989,
To what extent did the music make you feel ,GUILTY,30MonoWAV/30MonoS3.wav,1,1,3,11,,,,,1,15,31,10,0,11,11,5,,,,,,,,,1,2.2352854700002354,,,051,001,2019_May_21_0910,MusicAffectPsychophysiology2019,3.0.5,60.23179120434989,
,,30MonoWAV/30MonoS3.wav,1,1,3,11,,,,,1,15,31,10,,,,,,,,,,,,,,,,,051,001,2019_May_21_0910,MusicAffectPsychophysiology2019,3.0.5,60.23179120434989,
,,,,,,,,,,,,,,,,,,,,,,,,,,,,,space,5.327882890996989,051,001,2019_May_21_0910,MusicAffectPsychophysiology2019,3.0.5,60.23179120434989,
