Instruction,Word,song,valence,arousal,affectcat,songmark,pracwords.thisRepN,pracwords.thisTrialN,pracwords.thisN,pracwords.thisIndex,songtrials.thisRepN,songtrials.thisTrialN,songtrials.thisN,songtrials.thisIndex,words.thisRepN,words.thisTrialN,words.thisN,words.thisIndex,begin.keys,begin.rt,arousalkey.keys,arousalkey.rt,valencekey.keys,valencekey.rt,likekey.keys,likekey.rt,WordResponse.keys,WordResponse.rt,key_resp_2.keys,key_resp_2.rt,participant,session,date,expName,psychopyVersion,frameRate,
,,,,,,,,,,,,,,,,,,,space,18.16684761599754,,,,,,,,,,,052,001,2019_May_21_1010,MusicAffectPsychophysiology2019,3.0.5,60.17564029575716,
,,,,,,,,,,,,,,,,,,,,,3,6.817349720993661,,,,,,,,,052,001,2019_May_21_1010,MusicAffectPsychophysiology2019,3.0.5,60.17564029575716,
,,,,,,,,,,,,,,,,,,,,,,,4,6.485041010993882,,,,,,,052,001,2019_May_21_1010,MusicAffectPsychophysiology2019,3.0.5,60.17564029575716,
,,,,,,,,,,,,,,,,,,,,,,,,,5,2.1507483970053727,,,,,052,001,2019_May_21_1010,MusicAffectPsychophysiology2019,3.0.5,60.17564029575716,
To what extent did the music make you feel ,ANXIOUS ,,,,,,0,0,0,1,,,,,,,,,,,,,,,,,1,4.16909382599988,,,052,001,2019_May_21_1010,MusicAffectPsychophysiology2019,3.0.5,60.17564029575716,
To what extent did the music make you feel ,ALERT,,,,,,0,1,1,8,,,,,,,,,,,,,,,,,1,1.8690649890049826,,,052,001,2019_May_21_1010,MusicAffectPsychophysiology2019,3.0.5,60.17564029575716,
To what extent did the music make you feel ,SCARED,,,,,,0,2,2,11,,,,,,,,,,,,,,,,,1,0.8852785769995535,,,052,001,2019_May_21_1010,MusicAffectPsychophysiology2019,3.0.5,60.17564029575716,
To what extent did the music make you feel ,ANGRY,,,,,,0,3,3,2,,,,,,,,,,,,,,,,,1,0.6517350860085571,,,052,001,2019_May_21_1010,MusicAffectPsychophysiology2019,3.0.5,60.17564029575716,
To what extent did the music make you feel ,HAPPY,,,,,,0,4,4,6,,,,,,,,,,,,,,,,,4,1.5678268740011845,,,052,001,2019_May_21_1010,MusicAffectPsychophysiology2019,3.0.5,60.17564029575716,
To what extent did the music make you feel ,SAD,,,,,,0,5,5,0,,,,,,,,,,,,,,,,,1,2.852212279001833,,,052,001,2019_May_21_1010,MusicAffectPsychophysiology2019,3.0.5,60.17564029575716,
To what extent did the music make you feel ,ACTIVE,,,,,,0,6,6,9,,,,,,,,,,,,,,,,,4,1.35096894299204,,,052,001,2019_May_21_1010,MusicAffectPsychophysiology2019,3.0.5,60.17564029575716,
To what extent did the music make you feel ,FRUSTRATED,,,,,,0,7,7,3,,,,,,,,,,,,,,,,,1,1.1181018799979938,,,052,001,2019_May_21_1010,MusicAffectPsychophysiology2019,3.0.5,60.17564029575716,
To what extent did the music make you feel ,GUILTY,,,,,,0,8,8,5,,,,,,,,,,,,,,,,,1,1.0021975270065013,,,052,001,2019_May_21_1010,MusicAffectPsychophysiology2019,3.0.5,60.17564029575716,
To what extent did the music make you feel ,ASHAMED,,,,,,0,9,9,4,,,,,,,,,,,,,,,,,1,0.6518690119992243,,,052,001,2019_May_21_1010,MusicAffectPsychophysiology2019,3.0.5,60.17564029575716,
To what extent did the music make you feel ,TENDER,,,,,,0,10,10,10,,,,,,,,,,,,,,,,,1,1.3348127370118164,,,052,001,2019_May_21_1010,MusicAffectPsychophysiology2019,3.0.5,60.17564029575716,
To what extent did the music make you feel ,EXCITED,,,,,,0,11,11,7,,,,,,,,,,,,,,,,,4,3.951451120999991,,,052,001,2019_May_21_1010,MusicAffectPsychophysiology2019,3.0.5,60.17564029575716,
To what extent did the music make you feel ,TENDER,30MonoWAV/30MonoT1.wav,2,1,4,13,,,,,0,0,0,12,0,0,0,10,,,4,4.106896037992556,4,6.719231584997033,4,2.6515769609977724,1,1.5680390649940819,,,052,001,2019_May_21_1010,MusicAffectPsychophysiology2019,3.0.5,60.17564029575716,
To what extent did the music make you feel ,ACTIVE,30MonoWAV/30MonoT1.wav,2,1,4,13,,,,,0,0,0,12,0,1,1,9,,,,,,,,,4,2.602098780000233,,,052,001,2019_May_21_1010,MusicAffectPsychophysiology2019,3.0.5,60.17564029575716,
To what extent did the music make you feel ,SAD,30MonoWAV/30MonoT1.wav,2,1,4,13,,,,,0,0,0,12,0,2,2,0,,,,,,,,,3,1.3506320449960185,,,052,001,2019_May_21_1010,MusicAffectPsychophysiology2019,3.0.5,60.17564029575716,
To what extent did the music make you feel ,SCARED,30MonoWAV/30MonoT1.wav,2,1,4,13,,,,,0,0,0,12,0,3,3,11,,,,,,,,,1,0.8849988169968128,,,052,001,2019_May_21_1010,MusicAffectPsychophysiology2019,3.0.5,60.17564029575716,
To what extent did the music make you feel ,ANXIOUS ,30MonoWAV/30MonoT1.wav,2,1,4,13,,,,,0,0,0,12,0,4,4,1,,,,,,,,,1,0.45160645099531393,,,052,001,2019_May_21_1010,MusicAffectPsychophysiology2019,3.0.5,60.17564029575716,
To what extent did the music make you feel ,EXCITED,30MonoWAV/30MonoT1.wav,2,1,4,13,,,,,0,0,0,12,0,5,5,7,,,,,,,,,2,1.3515478550107218,,,052,001,2019_May_21_1010,MusicAffectPsychophysiology2019,3.0.5,60.17564029575716,
To what extent did the music make you feel ,ALERT,30MonoWAV/30MonoT1.wav,2,1,4,13,,,,,0,0,0,12,0,6,6,8,,,,,,,,,1,0.9189537829952314,,,052,001,2019_May_21_1010,MusicAffectPsychophysiology2019,3.0.5,60.17564029575716,
To what extent did the music make you feel ,FRUSTRATED,30MonoWAV/30MonoT1.wav,2,1,4,13,,,,,0,0,0,12,0,7,7,3,,,,,,,,,1,0.6185102050076239,,,052,001,2019_May_21_1010,MusicAffectPsychophysiology2019,3.0.5,60.17564029575716,
To what extent did the music make you feel ,ANGRY,30MonoWAV/30MonoT1.wav,2,1,4,13,,,,,0,0,0,12,0,8,8,2,,,,,,,,,1,0.4515798229986103,,,052,001,2019_May_21_1010,MusicAffectPsychophysiology2019,3.0.5,60.17564029575716,
To what extent did the music make you feel ,ASHAMED,30MonoWAV/30MonoT1.wav,2,1,4,13,,,,,0,0,0,12,0,9,9,4,,,,,,,,,1,0.53397218498867,,,052,001,2019_May_21_1010,MusicAffectPsychophysiology2019,3.0.5,60.17564029575716,
To what extent did the music make you feel ,GUILTY,30MonoWAV/30MonoT1.wav,2,1,4,13,,,,,0,0,0,12,0,10,10,5,,,,,,,,,1,0.4520575269998517,,,052,001,2019_May_21_1010,MusicAffectPsychophysiology2019,3.0.5,60.17564029575716,
To what extent did the music make you feel ,HAPPY,30MonoWAV/30MonoT1.wav,2,1,4,13,,,,,0,0,0,12,0,11,11,6,,,,,,,,,3,1.6185117139975773,,,052,001,2019_May_21_1010,MusicAffectPsychophysiology2019,3.0.5,60.17564029575716,
,,30MonoWAV/30MonoT1.wav,2,1,4,13,,,,,0,0,0,12,,,,,,,,,,,,,,,,,052,001,2019_May_21_1010,MusicAffectPsychophysiology2019,3.0.5,60.17564029575716,
To what extent did the music make you feel ,TENDER,30MonoWAV/30MonoF2.wav,1,2,2,2,,,,,0,1,1,1,0,0,0,10,,,4,10.311926633003168,1,2.774115300999256,1,1.7845401579979807,1,1.7023934419994475,,,052,001,2019_May_21_1010,MusicAffectPsychophysiology2019,3.0.5,60.17564029575716,
To what extent did the music make you feel ,EXCITED,30MonoWAV/30MonoF2.wav,1,2,2,2,,,,,0,1,1,1,0,1,1,7,,,,,,,,,1,0.7521866119932383,,,052,001,2019_May_21_1010,MusicAffectPsychophysiology2019,3.0.5,60.17564029575716,
To what extent did the music make you feel ,ANGRY,30MonoWAV/30MonoF2.wav,1,2,2,2,,,,,0,1,1,1,0,2,2,2,,,,,,,,,1,0.7682654280069983,,,052,001,2019_May_21_1010,MusicAffectPsychophysiology2019,3.0.5,60.17564029575716,
To what extent did the music make you feel ,ALERT,30MonoWAV/30MonoF2.wav,1,2,2,2,,,,,0,1,1,1,0,3,3,8,,,,,,,,,4,1.9348765369941248,,,052,001,2019_May_21_1010,MusicAffectPsychophysiology2019,3.0.5,60.17564029575716,
To what extent did the music make you feel ,ASHAMED,30MonoWAV/30MonoF2.wav,1,2,2,2,,,,,0,1,1,1,0,4,4,4,,,,,,,,,1,1.4851385949878022,,,052,001,2019_May_21_1010,MusicAffectPsychophysiology2019,3.0.5,60.17564029575716,
To what extent did the music make you feel ,GUILTY,30MonoWAV/30MonoF2.wav,1,2,2,2,,,,,0,1,1,1,0,5,5,5,,,,,,,,,1,1.0016828250081744,,,052,001,2019_May_21_1010,MusicAffectPsychophysiology2019,3.0.5,60.17564029575716,
To what extent did the music make you feel ,SAD,30MonoWAV/30MonoF2.wav,1,2,2,2,,,,,0,1,1,1,0,6,6,0,,,,,,,,,2,1.3350114839995513,,,052,001,2019_May_21_1010,MusicAffectPsychophysiology2019,3.0.5,60.17564029575716,
To what extent did the music make you feel ,ACTIVE,30MonoWAV/30MonoF2.wav,1,2,2,2,,,,,0,1,1,1,0,7,7,9,,,,,,,,,2,1.4677734770084498,,,052,001,2019_May_21_1010,MusicAffectPsychophysiology2019,3.0.5,60.17564029575716,
To what extent did the music make you feel ,HAPPY,30MonoWAV/30MonoF2.wav,1,2,2,2,,,,,0,1,1,1,0,8,8,6,,,,,,,,,1,0.7681615830078954,,,052,001,2019_May_21_1010,MusicAffectPsychophysiology2019,3.0.5,60.17564029575716,
To what extent did the music make you feel ,ANXIOUS ,30MonoWAV/30MonoF2.wav,1,2,2,2,,,,,0,1,1,1,0,9,9,1,,,,,,,,,5,1.7186656939884415,,,052,001,2019_May_21_1010,MusicAffectPsychophysiology2019,3.0.5,60.17564029575716,
To what extent did the music make you feel ,FRUSTRATED,30MonoWAV/30MonoF2.wav,1,2,2,2,,,,,0,1,1,1,0,10,10,3,,,,,,,,,1,1.6359756409947295,,,052,001,2019_May_21_1010,MusicAffectPsychophysiology2019,3.0.5,60.17564029575716,
To what extent did the music make you feel ,SCARED,30MonoWAV/30MonoF2.wav,1,2,2,2,,,,,0,1,1,1,0,11,11,11,,,,,,,,,5,2.1857318059919635,,,052,001,2019_May_21_1010,MusicAffectPsychophysiology2019,3.0.5,60.17564029575716,
,,30MonoWAV/30MonoF2.wav,1,2,2,2,,,,,0,1,1,1,,,,,,,,,,,,,,,,,052,001,2019_May_21_1010,MusicAffectPsychophysiology2019,3.0.5,60.17564029575716,
To what extent did the music make you feel ,ANXIOUS ,30MonoWAV/30MonoT3.wav,2,1,4,15,,,,,0,2,2,14,0,0,0,1,,,3,6.833467902994016,3,3.4027977749938145,2,3.165600455002277,2,3.651897968011326,,,052,001,2019_May_21_1010,MusicAffectPsychophysiology2019,3.0.5,60.17564029575716,
To what extent did the music make you feel ,ACTIVE,30MonoWAV/30MonoT3.wav,2,1,4,15,,,,,0,2,2,14,0,1,1,9,,,,,,,,,2,1.3016531140019652,,,052,001,2019_May_21_1010,MusicAffectPsychophysiology2019,3.0.5,60.17564029575716,
To what extent did the music make you feel ,EXCITED,30MonoWAV/30MonoT3.wav,2,1,4,15,,,,,0,2,2,14,0,2,2,7,,,,,,,,,1,1.8177355060033733,,,052,001,2019_May_21_1010,MusicAffectPsychophysiology2019,3.0.5,60.17564029575716,
To what extent did the music make you feel ,ANGRY,30MonoWAV/30MonoT3.wav,2,1,4,15,,,,,0,2,2,14,0,3,3,2,,,,,,,,,1,0.9692019409994828,,,052,001,2019_May_21_1010,MusicAffectPsychophysiology2019,3.0.5,60.17564029575716,
To what extent did the music make you feel ,SCARED,30MonoWAV/30MonoT3.wav,2,1,4,15,,,,,0,2,2,14,0,4,4,11,,,,,,,,,1,0.5178934819996357,,,052,001,2019_May_21_1010,MusicAffectPsychophysiology2019,3.0.5,60.17564029575716,
To what extent did the music make you feel ,ALERT,30MonoWAV/30MonoT3.wav,2,1,4,15,,,,,0,2,2,14,0,5,5,8,,,,,,,,,1,0.5514812829933362,,,052,001,2019_May_21_1010,MusicAffectPsychophysiology2019,3.0.5,60.17564029575716,
To what extent did the music make you feel ,SAD,30MonoWAV/30MonoT3.wav,2,1,4,15,,,,,0,2,2,14,0,6,6,0,,,,,,,,,3,1.9052582589938538,,,052,001,2019_May_21_1010,MusicAffectPsychophysiology2019,3.0.5,60.17564029575716,
To what extent did the music make you feel ,HAPPY,30MonoWAV/30MonoT3.wav,2,1,4,15,,,,,0,2,2,14,0,7,7,6,,,,,,,,,1,1.7364760350028519,,,052,001,2019_May_21_1010,MusicAffectPsychophysiology2019,3.0.5,60.17564029575716,
To what extent did the music make you feel ,FRUSTRATED,30MonoWAV/30MonoT3.wav,2,1,4,15,,,,,0,2,2,14,0,8,8,3,,,,,,,,,1,2.4881162280071294,,,052,001,2019_May_21_1010,MusicAffectPsychophysiology2019,3.0.5,60.17564029575716,
To what extent did the music make you feel ,TENDER,30MonoWAV/30MonoT3.wav,2,1,4,15,,,,,0,2,2,14,0,9,9,10,,,,,,,,,2,1.2871274330100277,,,052,001,2019_May_21_1010,MusicAffectPsychophysiology2019,3.0.5,60.17564029575716,
To what extent did the music make you feel ,GUILTY,30MonoWAV/30MonoT3.wav,2,1,4,15,,,,,0,2,2,14,0,10,10,5,,,,,,,,,2,1.1693431339954259,,,052,001,2019_May_21_1010,MusicAffectPsychophysiology2019,3.0.5,60.17564029575716,
To what extent did the music make you feel ,ASHAMED,30MonoWAV/30MonoT3.wav,2,1,4,15,,,,,0,2,2,14,0,11,11,4,,,,,,,,,1,0.6063010810030391,,,052,001,2019_May_21_1010,MusicAffectPsychophysiology2019,3.0.5,60.17564029575716,
,,30MonoWAV/30MonoT3.wav,2,1,4,15,,,,,0,2,2,14,,,,,,,,,,,,,,,,,052,001,2019_May_21_1010,MusicAffectPsychophysiology2019,3.0.5,60.17564029575716,
To what extent did the music make you feel ,ACTIVE,30MonoWAV/30MonoF3.wav,1,2,2,3,,,,,0,3,3,2,0,0,0,9,,,1,5.01772588500171,1,2.218392879003659,1,1.0677718019869644,2,4.334791673987638,,,052,001,2019_May_21_1010,MusicAffectPsychophysiology2019,3.0.5,60.17564029575716,
To what extent did the music make you feel ,FRUSTRATED,30MonoWAV/30MonoF3.wav,1,2,2,3,,,,,0,3,3,2,0,1,1,3,,,,,,,,,1,1.5353228449966991,,,052,001,2019_May_21_1010,MusicAffectPsychophysiology2019,3.0.5,60.17564029575716,
To what extent did the music make you feel ,ASHAMED,30MonoWAV/30MonoF3.wav,1,2,2,3,,,,,0,3,3,2,0,2,2,4,,,,,,,,,1,0.9016038840054534,,,052,001,2019_May_21_1010,MusicAffectPsychophysiology2019,3.0.5,60.17564029575716,
To what extent did the music make you feel ,ALERT,30MonoWAV/30MonoF3.wav,1,2,2,3,,,,,0,3,3,2,0,3,3,8,,,,,,,,,2,1.1680404060025467,,,052,001,2019_May_21_1010,MusicAffectPsychophysiology2019,3.0.5,60.17564029575716,
To what extent did the music make you feel ,ANXIOUS ,30MonoWAV/30MonoF3.wav,1,2,2,3,,,,,0,3,3,2,0,4,4,1,,,,,,,,,4,1.2851512469933368,,,052,001,2019_May_21_1010,MusicAffectPsychophysiology2019,3.0.5,60.17564029575716,
To what extent did the music make you feel ,TENDER,30MonoWAV/30MonoF3.wav,1,2,2,3,,,,,0,3,3,2,0,5,5,10,,,,,,,,,1,1.3514490099914838,,,052,001,2019_May_21_1010,MusicAffectPsychophysiology2019,3.0.5,60.17564029575716,
To what extent did the music make you feel ,SCARED,30MonoWAV/30MonoF3.wav,1,2,2,3,,,,,0,3,3,2,0,6,6,11,,,,,,,,,5,3.100936848000856,,,052,001,2019_May_21_1010,MusicAffectPsychophysiology2019,3.0.5,60.17564029575716,
To what extent did the music make you feel ,GUILTY,30MonoWAV/30MonoF3.wav,1,2,2,3,,,,,0,3,3,2,0,7,7,5,,,,,,,,,5,1.3187684010044904,,,052,001,2019_May_21_1010,MusicAffectPsychophysiology2019,3.0.5,60.17564029575716,
To what extent did the music make you feel ,ANGRY,30MonoWAV/30MonoF3.wav,1,2,2,3,,,,,0,3,3,2,0,8,8,2,,,,,,,,,2,1.950472697004443,,,052,001,2019_May_21_1010,MusicAffectPsychophysiology2019,3.0.5,60.17564029575716,
To what extent did the music make you feel ,SAD,30MonoWAV/30MonoF3.wav,1,2,2,3,,,,,0,3,3,2,0,9,9,0,,,,,,,,,1,2.0027083169989055,,,052,001,2019_May_21_1010,MusicAffectPsychophysiology2019,3.0.5,60.17564029575716,
To what extent did the music make you feel ,HAPPY,30MonoWAV/30MonoF3.wav,1,2,2,3,,,,,0,3,3,2,0,10,10,6,,,,,,,,,1,0.8184672310017049,,,052,001,2019_May_21_1010,MusicAffectPsychophysiology2019,3.0.5,60.17564029575716,
To what extent did the music make you feel ,EXCITED,30MonoWAV/30MonoF3.wav,1,2,2,3,,,,,0,3,3,2,0,11,11,7,,,,,,,,,1,1.1672255710000172,,,052,001,2019_May_21_1010,MusicAffectPsychophysiology2019,3.0.5,60.17564029575716,
,,30MonoWAV/30MonoF3.wav,1,2,2,3,,,,,0,3,3,2,,,,,,,,,,,,,,,,,052,001,2019_May_21_1010,MusicAffectPsychophysiology2019,3.0.5,60.17564029575716,
To what extent did the music make you feel ,SAD,30MonoWAV/30MonoS3.wav,1,1,3,11,,,,,0,4,4,10,0,0,0,0,,,1,2.822008258997812,1,2.422467426993535,3,4.986143275003997,5,2.2681555860035587,,,052,001,2019_May_21_1010,MusicAffectPsychophysiology2019,3.0.5,60.17564029575716,
To what extent did the music make you feel ,EXCITED,30MonoWAV/30MonoS3.wav,1,1,3,11,,,,,0,4,4,10,0,1,1,7,,,,,,,,,1,0.9851754260016605,,,052,001,2019_May_21_1010,MusicAffectPsychophysiology2019,3.0.5,60.17564029575716,
To what extent did the music make you feel ,TENDER,30MonoWAV/30MonoS3.wav,1,1,3,11,,,,,0,4,4,10,0,2,2,10,,,,,,,,,1,0.9522045679914299,,,052,001,2019_May_21_1010,MusicAffectPsychophysiology2019,3.0.5,60.17564029575716,
To what extent did the music make you feel ,FRUSTRATED,30MonoWAV/30MonoS3.wav,1,1,3,11,,,,,0,4,4,10,0,3,3,3,,,,,,,,,1,1.0842742940003518,,,052,001,2019_May_21_1010,MusicAffectPsychophysiology2019,3.0.5,60.17564029575716,
To what extent did the music make you feel ,ASHAMED,30MonoWAV/30MonoS3.wav,1,1,3,11,,,,,0,4,4,10,0,4,4,4,,,,,,,,,3,1.684261272996082,,,052,001,2019_May_21_1010,MusicAffectPsychophysiology2019,3.0.5,60.17564029575716,
To what extent did the music make you feel ,ACTIVE,30MonoWAV/30MonoS3.wav,1,1,3,11,,,,,0,4,4,10,0,5,5,9,,,,,,,,,1,1.0187852489907527,,,052,001,2019_May_21_1010,MusicAffectPsychophysiology2019,3.0.5,60.17564029575716,
To what extent did the music make you feel ,HAPPY,30MonoWAV/30MonoS3.wav,1,1,3,11,,,,,0,4,4,10,0,6,6,6,,,,,,,,,1,0.651397565001389,,,052,001,2019_May_21_1010,MusicAffectPsychophysiology2019,3.0.5,60.17564029575716,
To what extent did the music make you feel ,ANGRY,30MonoWAV/30MonoS3.wav,1,1,3,11,,,,,0,4,4,10,0,7,7,2,,,,,,,,,1,0.8848169590055477,,,052,001,2019_May_21_1010,MusicAffectPsychophysiology2019,3.0.5,60.17564029575716,
To what extent did the music make you feel ,SCARED,30MonoWAV/30MonoS3.wav,1,1,3,11,,,,,0,4,4,10,0,8,8,11,,,,,,,,,1,2.7855492749949917,,,052,001,2019_May_21_1010,MusicAffectPsychophysiology2019,3.0.5,60.17564029575716,
To what extent did the music make you feel ,ALERT,30MonoWAV/30MonoS3.wav,1,1,3,11,,,,,0,4,4,10,0,9,9,8,,,,,,,,,1,1.1183510510018095,,,052,001,2019_May_21_1010,MusicAffectPsychophysiology2019,3.0.5,60.17564029575716,
To what extent did the music make you feel ,ANXIOUS ,30MonoWAV/30MonoS3.wav,1,1,3,11,,,,,0,4,4,10,0,10,10,1,,,,,,,,,5,1.1180653049959801,,,052,001,2019_May_21_1010,MusicAffectPsychophysiology2019,3.0.5,60.17564029575716,
To what extent did the music make you feel ,GUILTY,30MonoWAV/30MonoS3.wav,1,1,3,11,,,,,0,4,4,10,0,11,11,5,,,,,,,,,4,1.651495027996134,,,052,001,2019_May_21_1010,MusicAffectPsychophysiology2019,3.0.5,60.17564029575716,
,,30MonoWAV/30MonoS3.wav,1,1,3,11,,,,,0,4,4,10,,,,,,,,,,,,,,,,,052,001,2019_May_21_1010,MusicAffectPsychophysiology2019,3.0.5,60.17564029575716,
To what extent did the music make you feel ,FRUSTRATED,30MonoWAV/30MonoT4.wav,2,1,4,16,,,,,0,5,5,15,0,0,0,3,,,3,6.917291903009755,4,5.867718363995664,5,1.1685748440067982,1,1.0374012249958469,,,052,001,2019_May_21_1010,MusicAffectPsychophysiology2019,3.0.5,60.17564029575716,
To what extent did the music make you feel ,GUILTY,30MonoWAV/30MonoT4.wav,2,1,4,16,,,,,0,5,5,15,0,1,1,5,,,,,,,,,1,0.43459724698914215,,,052,001,2019_May_21_1010,MusicAffectPsychophysiology2019,3.0.5,60.17564029575716,
To what extent did the music make you feel ,SAD,30MonoWAV/30MonoT4.wav,2,1,4,16,,,,,0,5,5,15,0,2,2,0,,,,,,,,,1,0.5347570360027021,,,052,001,2019_May_21_1010,MusicAffectPsychophysiology2019,3.0.5,60.17564029575716,
To what extent did the music make you feel ,ALERT,30MonoWAV/30MonoT4.wav,2,1,4,16,,,,,0,5,5,15,0,3,3,8,,,,,,,,,1,0.9032275849895086,,,052,001,2019_May_21_1010,MusicAffectPsychophysiology2019,3.0.5,60.17564029575716,
To what extent did the music make you feel ,ANGRY,30MonoWAV/30MonoT4.wav,2,1,4,16,,,,,0,5,5,15,0,4,4,2,,,,,,,,,1,0.45146848099830095,,,052,001,2019_May_21_1010,MusicAffectPsychophysiology2019,3.0.5,60.17564029575716,
To what extent did the music make you feel ,SCARED,30MonoWAV/30MonoT4.wav,2,1,4,16,,,,,0,5,5,15,0,5,5,11,,,,,,,,,1,0.6676739780086791,,,052,001,2019_May_21_1010,MusicAffectPsychophysiology2019,3.0.5,60.17564029575716,
To what extent did the music make you feel ,EXCITED,30MonoWAV/30MonoT4.wav,2,1,4,16,,,,,0,5,5,15,0,6,6,7,,,,,,,,,3,2.5059976790071232,,,052,001,2019_May_21_1010,MusicAffectPsychophysiology2019,3.0.5,60.17564029575716,
To what extent did the music make you feel ,ACTIVE,30MonoWAV/30MonoT4.wav,2,1,4,16,,,,,0,5,5,15,0,7,7,9,,,,,,,,,4,1.9208408439881168,,,052,001,2019_May_21_1010,MusicAffectPsychophysiology2019,3.0.5,60.17564029575716,
To what extent did the music make you feel ,ASHAMED,30MonoWAV/30MonoT4.wav,2,1,4,16,,,,,0,5,5,15,0,8,8,4,,,,,,,,,1,0.9026778910047142,,,052,001,2019_May_21_1010,MusicAffectPsychophysiology2019,3.0.5,60.17564029575716,
To what extent did the music make you feel ,TENDER,30MonoWAV/30MonoT4.wav,2,1,4,16,,,,,0,5,5,15,0,9,9,10,,,,,,,,,1,0.8697398210060783,,,052,001,2019_May_21_1010,MusicAffectPsychophysiology2019,3.0.5,60.17564029575716,
To what extent did the music make you feel ,ANXIOUS ,30MonoWAV/30MonoT4.wav,2,1,4,16,,,,,0,5,5,15,0,10,10,1,,,,,,,,,1,0.9858251120022032,,,052,001,2019_May_21_1010,MusicAffectPsychophysiology2019,3.0.5,60.17564029575716,
To what extent did the music make you feel ,HAPPY,30MonoWAV/30MonoT4.wav,2,1,4,16,,,,,0,5,5,15,0,11,11,6,,,,,,,,,5,3.3408962660032557,,,052,001,2019_May_21_1010,MusicAffectPsychophysiology2019,3.0.5,60.17564029575716,
,,30MonoWAV/30MonoT4.wav,2,1,4,16,,,,,0,5,5,15,,,,,,,,,,,,,,,,,052,001,2019_May_21_1010,MusicAffectPsychophysiology2019,3.0.5,60.17564029575716,
To what extent did the music make you feel ,TENDER,30MonoWAV/30MonoF1.wav,1,2,2,1,,,,,0,6,6,0,0,0,0,10,,,5,5.467342472999007,2,4.201420893994509,5,1.4179449090006528,1,1.3677851510001346,,,052,001,2019_May_21_1010,MusicAffectPsychophysiology2019,3.0.5,60.17564029575716,
To what extent did the music make you feel ,EXCITED,30MonoWAV/30MonoF1.wav,1,2,2,1,,,,,0,6,6,0,0,1,1,7,,,,,,,,,3,2.0185032190056518,,,052,001,2019_May_21_1010,MusicAffectPsychophysiology2019,3.0.5,60.17564029575716,
To what extent did the music make you feel ,ALERT,30MonoWAV/30MonoF1.wav,1,2,2,1,,,,,0,6,6,0,0,2,2,8,,,,,,,,,4,1.049635406001471,,,052,001,2019_May_21_1010,MusicAffectPsychophysiology2019,3.0.5,60.17564029575716,
To what extent did the music make you feel ,FRUSTRATED,30MonoWAV/30MonoF1.wav,1,2,2,1,,,,,0,6,6,0,0,3,3,3,,,,,,,,,1,0.9182463570032269,,,052,001,2019_May_21_1010,MusicAffectPsychophysiology2019,3.0.5,60.17564029575716,
To what extent did the music make you feel ,ASHAMED,30MonoWAV/30MonoF1.wav,1,2,2,1,,,,,0,6,6,0,0,4,4,4,,,,,,,,,1,0.8354380670061801,,,052,001,2019_May_21_1010,MusicAffectPsychophysiology2019,3.0.5,60.17564029575716,
To what extent did the music make you feel ,HAPPY,30MonoWAV/30MonoF1.wav,1,2,2,1,,,,,0,6,6,0,0,5,5,6,,,,,,,,,2,2.2694984169938834,,,052,001,2019_May_21_1010,MusicAffectPsychophysiology2019,3.0.5,60.17564029575716,
To what extent did the music make you feel ,ANXIOUS ,30MonoWAV/30MonoF1.wav,1,2,2,1,,,,,0,6,6,0,0,6,6,1,,,,,,,,,5,2.1678191980026895,,,052,001,2019_May_21_1010,MusicAffectPsychophysiology2019,3.0.5,60.17564029575716,
To what extent did the music make you feel ,ACTIVE,30MonoWAV/30MonoF1.wav,1,2,2,1,,,,,0,6,6,0,0,7,7,9,,,,,,,,,5,3.068641072997707,,,052,001,2019_May_21_1010,MusicAffectPsychophysiology2019,3.0.5,60.17564029575716,
To what extent did the music make you feel ,ANGRY,30MonoWAV/30MonoF1.wav,1,2,2,1,,,,,0,6,6,0,0,8,8,2,,,,,,,,,1,1.1686559950030642,,,052,001,2019_May_21_1010,MusicAffectPsychophysiology2019,3.0.5,60.17564029575716,
To what extent did the music make you feel ,SCARED,30MonoWAV/30MonoF1.wav,1,2,2,1,,,,,0,6,6,0,0,9,9,11,,,,,,,,,5,1.1847709760040743,,,052,001,2019_May_21_1010,MusicAffectPsychophysiology2019,3.0.5,60.17564029575716,
To what extent did the music make you feel ,SAD,30MonoWAV/30MonoF1.wav,1,2,2,1,,,,,0,6,6,0,0,10,10,0,,,,,,,,,1,0.9558737320039654,,,052,001,2019_May_21_1010,MusicAffectPsychophysiology2019,3.0.5,60.17564029575716,
To what extent did the music make you feel ,GUILTY,30MonoWAV/30MonoF1.wav,1,2,2,1,,,,,0,6,6,0,0,11,11,5,,,,,,,,,1,1.0540081030048896,,,052,001,2019_May_21_1010,MusicAffectPsychophysiology2019,3.0.5,60.17564029575716,
,,30MonoWAV/30MonoF1.wav,1,2,2,1,,,,,0,6,6,0,,,,,,,,,,,,,,,,,052,001,2019_May_21_1010,MusicAffectPsychophysiology2019,3.0.5,60.17564029575716,
To what extent did the music make you feel ,ACTIVE,30MonoWAV/30MonoF4.wav,1,2,2,4,,,,,0,7,7,3,0,0,0,9,,,3,2.769137385999784,2,0.9361897310009226,4,1.2678803960006917,4,2.335079793992918,,,052,001,2019_May_21_1010,MusicAffectPsychophysiology2019,3.0.5,60.17564029575716,
To what extent did the music make you feel ,SAD,30MonoWAV/30MonoF4.wav,1,2,2,4,,,,,0,7,7,3,0,1,1,0,,,,,,,,,3,1.5386697229987476,,,052,001,2019_May_21_1010,MusicAffectPsychophysiology2019,3.0.5,60.17564029575716,
To what extent did the music make you feel ,ALERT,30MonoWAV/30MonoF4.wav,1,2,2,4,,,,,0,7,7,3,0,2,2,8,,,,,,,,,4,1.0191854330041679,,,052,001,2019_May_21_1010,MusicAffectPsychophysiology2019,3.0.5,60.17564029575716,
To what extent did the music make you feel ,SCARED,30MonoWAV/30MonoF4.wav,1,2,2,4,,,,,0,7,7,3,0,3,3,11,,,,,,,,,4,1.9539302610064624,,,052,001,2019_May_21_1010,MusicAffectPsychophysiology2019,3.0.5,60.17564029575716,
To what extent did the music make you feel ,HAPPY,30MonoWAV/30MonoF4.wav,1,2,2,4,,,,,0,7,7,3,0,4,4,6,,,,,,,,,1,1.0525195170048391,,,052,001,2019_May_21_1010,MusicAffectPsychophysiology2019,3.0.5,60.17564029575716,
To what extent did the music make you feel ,ANGRY,30MonoWAV/30MonoF4.wav,1,2,2,4,,,,,0,7,7,3,0,5,5,2,,,,,,,,,1,0.8017816770006903,,,052,001,2019_May_21_1010,MusicAffectPsychophysiology2019,3.0.5,60.17564029575716,
To what extent did the music make you feel ,TENDER,30MonoWAV/30MonoF4.wav,1,2,2,4,,,,,0,7,7,3,0,6,6,10,,,,,,,,,1,0.7528488789976109,,,052,001,2019_May_21_1010,MusicAffectPsychophysiology2019,3.0.5,60.17564029575716,
To what extent did the music make you feel ,ANXIOUS ,30MonoWAV/30MonoF4.wav,1,2,2,4,,,,,0,7,7,3,0,7,7,1,,,,,,,,,4,1.1534369279979728,,,052,001,2019_May_21_1010,MusicAffectPsychophysiology2019,3.0.5,60.17564029575716,
To what extent did the music make you feel ,FRUSTRATED,30MonoWAV/30MonoF4.wav,1,2,2,4,,,,,0,7,7,3,0,8,8,3,,,,,,,,,1,1.5895850600063568,,,052,001,2019_May_21_1010,MusicAffectPsychophysiology2019,3.0.5,60.17564029575716,
To what extent did the music make you feel ,GUILTY,30MonoWAV/30MonoF4.wav,1,2,2,4,,,,,0,7,7,3,0,9,9,5,,,,,,,,,1,7.351713872005348,,,052,001,2019_May_21_1010,MusicAffectPsychophysiology2019,3.0.5,60.17564029575716,
To what extent did the music make you feel ,ASHAMED,30MonoWAV/30MonoF4.wav,1,2,2,4,,,,,0,7,7,3,0,10,10,4,,,,,,,,,1,1.3847862780094147,,,052,001,2019_May_21_1010,MusicAffectPsychophysiology2019,3.0.5,60.17564029575716,
To what extent did the music make you feel ,EXCITED,30MonoWAV/30MonoF4.wav,1,2,2,4,,,,,0,7,7,3,0,11,11,7,,,,,,,,,1,0.935240997991059,,,052,001,2019_May_21_1010,MusicAffectPsychophysiology2019,3.0.5,60.17564029575716,
,,30MonoWAV/30MonoF4.wav,1,2,2,4,,,,,0,7,7,3,,,,,,,,,,,,,,,,,052,001,2019_May_21_1010,MusicAffectPsychophysiology2019,3.0.5,60.17564029575716,
To what extent did the music make you feel ,TENDER,30MonoWAV/30MonoH1.wav,2,2,1,5,,,,,0,8,8,4,0,0,0,10,,,5,3.169204947000253,5,1.068544096997357,5,2.835741490998771,3,3.550927766991663,,,052,001,2019_May_21_1010,MusicAffectPsychophysiology2019,3.0.5,60.17564029575716,
To what extent did the music make you feel ,FRUSTRATED,30MonoWAV/30MonoH1.wav,2,2,1,5,,,,,0,8,8,4,0,1,1,3,,,,,,,,,1,0.8342862810095539,,,052,001,2019_May_21_1010,MusicAffectPsychophysiology2019,3.0.5,60.17564029575716,
To what extent did the music make you feel ,SAD,30MonoWAV/30MonoH1.wav,2,2,1,5,,,,,0,8,8,4,0,2,2,0,,,,,,,,,1,1.0848974170075962,,,052,001,2019_May_21_1010,MusicAffectPsychophysiology2019,3.0.5,60.17564029575716,
To what extent did the music make you feel ,ALERT,30MonoWAV/30MonoH1.wav,2,2,1,5,,,,,0,8,8,4,0,3,3,8,,,,,,,,,1,0.7688592070044251,,,052,001,2019_May_21_1010,MusicAffectPsychophysiology2019,3.0.5,60.17564029575716,
To what extent did the music make you feel ,ANGRY,30MonoWAV/30MonoH1.wav,2,2,1,5,,,,,0,8,8,4,0,4,4,2,,,,,,,,,1,0.5018447570037097,,,052,001,2019_May_21_1010,MusicAffectPsychophysiology2019,3.0.5,60.17564029575716,
To what extent did the music make you feel ,HAPPY,30MonoWAV/30MonoH1.wav,2,2,1,5,,,,,0,8,8,4,0,5,5,6,,,,,,,,,5,1.0841223030001856,,,052,001,2019_May_21_1010,MusicAffectPsychophysiology2019,3.0.5,60.17564029575716,
To what extent did the music make you feel ,GUILTY,30MonoWAV/30MonoH1.wav,2,2,1,5,,,,,0,8,8,4,0,6,6,5,,,,,,,,,1,0.8364020090084523,,,052,001,2019_May_21_1010,MusicAffectPsychophysiology2019,3.0.5,60.17564029575716,
To what extent did the music make you feel ,ACTIVE,30MonoWAV/30MonoH1.wav,2,2,1,5,,,,,0,8,8,4,0,7,7,9,,,,,,,,,5,0.7694344750052551,,,052,001,2019_May_21_1010,MusicAffectPsychophysiology2019,3.0.5,60.17564029575716,
To what extent did the music make you feel ,ANXIOUS ,30MonoWAV/30MonoH1.wav,2,2,1,5,,,,,0,8,8,4,0,8,8,1,,,,,,,,,1,0.8333285900007468,,,052,001,2019_May_21_1010,MusicAffectPsychophysiology2019,3.0.5,60.17564029575716,
To what extent did the music make you feel ,SCARED,30MonoWAV/30MonoH1.wav,2,2,1,5,,,,,0,8,8,4,0,9,9,11,,,,,,,,,1,0.8850126239995006,,,052,001,2019_May_21_1010,MusicAffectPsychophysiology2019,3.0.5,60.17564029575716,
To what extent did the music make you feel ,EXCITED,30MonoWAV/30MonoH1.wav,2,2,1,5,,,,,0,8,8,4,0,10,10,7,,,,,,,,,5,1.0683557099982863,,,052,001,2019_May_21_1010,MusicAffectPsychophysiology2019,3.0.5,60.17564029575716,
To what extent did the music make you feel ,ASHAMED,30MonoWAV/30MonoH1.wav,2,2,1,5,,,,,0,8,8,4,0,11,11,4,,,,,,,,,1,0.784999188996153,,,052,001,2019_May_21_1010,MusicAffectPsychophysiology2019,3.0.5,60.17564029575716,
,,30MonoWAV/30MonoH1.wav,2,2,1,5,,,,,0,8,8,4,,,,,,,,,,,,,,,,,052,001,2019_May_21_1010,MusicAffectPsychophysiology2019,3.0.5,60.17564029575716,
To what extent did the music make you feel ,TENDER,30MonoWAV/30MonoT2.wav,2,1,4,14,,,,,0,9,9,13,0,0,0,10,,,4,3.21840206500201,4,1.1671911849989556,5,1.1513363179983571,1,1.2185387879871996,,,052,001,2019_May_21_1010,MusicAffectPsychophysiology2019,3.0.5,60.17564029575716,
To what extent did the music make you feel ,SAD,30MonoWAV/30MonoT2.wav,2,1,4,14,,,,,0,9,9,13,0,1,1,0,,,,,,,,,1,0.5007510379946325,,,052,001,2019_May_21_1010,MusicAffectPsychophysiology2019,3.0.5,60.17564029575716,
To what extent did the music make you feel ,FRUSTRATED,30MonoWAV/30MonoT2.wav,2,1,4,14,,,,,0,9,9,13,0,2,2,3,,,,,,,,,1,0.7187568160006776,,,052,001,2019_May_21_1010,MusicAffectPsychophysiology2019,3.0.5,60.17564029575716,
To what extent did the music make you feel ,ACTIVE,30MonoWAV/30MonoT2.wav,2,1,4,14,,,,,0,9,9,13,0,3,3,9,,,,,,,,,4,1.5841859950014623,,,052,001,2019_May_21_1010,MusicAffectPsychophysiology2019,3.0.5,60.17564029575716,
To what extent did the music make you feel ,EXCITED,30MonoWAV/30MonoT2.wav,2,1,4,14,,,,,0,9,9,13,0,4,4,7,,,,,,,,,3,1.6335791059973417,,,052,001,2019_May_21_1010,MusicAffectPsychophysiology2019,3.0.5,60.17564029575716,
To what extent did the music make you feel ,ALERT,30MonoWAV/30MonoT2.wav,2,1,4,14,,,,,0,9,9,13,0,5,5,8,,,,,,,,,3,1.7996608889952768,,,052,001,2019_May_21_1010,MusicAffectPsychophysiology2019,3.0.5,60.17564029575716,
To what extent did the music make you feel ,GUILTY,30MonoWAV/30MonoT2.wav,2,1,4,14,,,,,0,9,9,13,0,6,6,5,,,,,,,,,1,0.9177789120003581,,,052,001,2019_May_21_1010,MusicAffectPsychophysiology2019,3.0.5,60.17564029575716,
To what extent did the music make you feel ,ANGRY,30MonoWAV/30MonoT2.wav,2,1,4,14,,,,,0,9,9,13,0,7,7,2,,,,,,,,,1,0.7179784270119853,,,052,001,2019_May_21_1010,MusicAffectPsychophysiology2019,3.0.5,60.17564029575716,
To what extent did the music make you feel ,HAPPY,30MonoWAV/30MonoT2.wav,2,1,4,14,,,,,0,9,9,13,0,8,8,6,,,,,,,,,4,1.0354925129940966,,,052,001,2019_May_21_1010,MusicAffectPsychophysiology2019,3.0.5,60.17564029575716,
To what extent did the music make you feel ,ASHAMED,30MonoWAV/30MonoT2.wav,2,1,4,14,,,,,0,9,9,13,0,9,9,4,,,,,,,,,1,0.7024333130102605,,,052,001,2019_May_21_1010,MusicAffectPsychophysiology2019,3.0.5,60.17564029575716,
To what extent did the music make you feel ,ANXIOUS ,30MonoWAV/30MonoT2.wav,2,1,4,14,,,,,0,9,9,13,0,10,10,1,,,,,,,,,1,1.1352104539982975,,,052,001,2019_May_21_1010,MusicAffectPsychophysiology2019,3.0.5,60.17564029575716,
To what extent did the music make you feel ,SCARED,30MonoWAV/30MonoT2.wav,2,1,4,14,,,,,0,9,9,13,0,11,11,11,,,,,,,,,1,0.7845861349924235,,,052,001,2019_May_21_1010,MusicAffectPsychophysiology2019,3.0.5,60.17564029575716,
,,30MonoWAV/30MonoT2.wav,2,1,4,14,,,,,0,9,9,13,,,,,,,,,,,,,,,,,052,001,2019_May_21_1010,MusicAffectPsychophysiology2019,3.0.5,60.17564029575716,
To what extent did the music make you feel ,TENDER,30MonoWAV/30MonoS1.wav,1,1,3,9,,,,,0,10,10,8,0,0,0,10,,,3,4.234965498995734,3,2.251678294996964,5,1.8354261690110434,2,1.7691537659993628,,,052,001,2019_May_21_1010,MusicAffectPsychophysiology2019,3.0.5,60.17564029575716,
To what extent did the music make you feel ,SAD,30MonoWAV/30MonoS1.wav,1,1,3,9,,,,,0,10,10,8,0,1,1,0,,,,,,,,,4,2.0211654739978258,,,052,001,2019_May_21_1010,MusicAffectPsychophysiology2019,3.0.5,60.17564029575716,
To what extent did the music make you feel ,ALERT,30MonoWAV/30MonoS1.wav,1,1,3,9,,,,,0,10,10,8,0,2,2,8,,,,,,,,,1,1.1372332970058778,,,052,001,2019_May_21_1010,MusicAffectPsychophysiology2019,3.0.5,60.17564029575716,
To what extent did the music make you feel ,SCARED,30MonoWAV/30MonoS1.wav,1,1,3,9,,,,,0,10,10,8,0,3,3,11,,,,,,,,,1,0.718512252002256,,,052,001,2019_May_21_1010,MusicAffectPsychophysiology2019,3.0.5,60.17564029575716,
To what extent did the music make you feel ,ANGRY,30MonoWAV/30MonoS1.wav,1,1,3,9,,,,,0,10,10,8,0,4,4,2,,,,,,,,,1,0.6182987289939774,,,052,001,2019_May_21_1010,MusicAffectPsychophysiology2019,3.0.5,60.17564029575716,
To what extent did the music make you feel ,GUILTY,30MonoWAV/30MonoS1.wav,1,1,3,9,,,,,0,10,10,8,0,5,5,5,,,,,,,,,1,1.3290289809956448,,,052,001,2019_May_21_1010,MusicAffectPsychophysiology2019,3.0.5,60.17564029575716,
To what extent did the music make you feel ,ASHAMED,30MonoWAV/30MonoS1.wav,1,1,3,9,,,,,0,10,10,8,0,6,6,4,,,,,,,,,1,0.6848539210041054,,,052,001,2019_May_21_1010,MusicAffectPsychophysiology2019,3.0.5,60.17564029575716,
To what extent did the music make you feel ,FRUSTRATED,30MonoWAV/30MonoS1.wav,1,1,3,9,,,,,0,10,10,8,0,7,7,3,,,,,,,,,1,1.1182779249938903,,,052,001,2019_May_21_1010,MusicAffectPsychophysiology2019,3.0.5,60.17564029575716,
To what extent did the music make you feel ,ANXIOUS ,30MonoWAV/30MonoS1.wav,1,1,3,9,,,,,0,10,10,8,0,8,8,1,,,,,,,,,1,2.4679537680058274,,,052,001,2019_May_21_1010,MusicAffectPsychophysiology2019,3.0.5,60.17564029575716,
To what extent did the music make you feel ,ACTIVE,30MonoWAV/30MonoS1.wav,1,1,3,9,,,,,0,10,10,8,0,9,9,9,,,,,,,,,1,1.1014340940018883,,,052,001,2019_May_21_1010,MusicAffectPsychophysiology2019,3.0.5,60.17564029575716,
To what extent did the music make you feel ,HAPPY,30MonoWAV/30MonoS1.wav,1,1,3,9,,,,,0,10,10,8,0,10,10,6,,,,,,,,,1,0.6172462829999859,,,052,001,2019_May_21_1010,MusicAffectPsychophysiology2019,3.0.5,60.17564029575716,
To what extent did the music make you feel ,EXCITED,30MonoWAV/30MonoS1.wav,1,1,3,9,,,,,0,10,10,8,0,11,11,7,,,,,,,,,1,0.5530088189989328,,,052,001,2019_May_21_1010,MusicAffectPsychophysiology2019,3.0.5,60.17564029575716,
,,30MonoWAV/30MonoS1.wav,1,1,3,9,,,,,0,10,10,8,,,,,,,,,,,,,,,,,052,001,2019_May_21_1010,MusicAffectPsychophysiology2019,3.0.5,60.17564029575716,
To what extent did the music make you feel ,ANGRY,30MonoWAV/30MonoS4.wav,1,1,3,12,,,,,0,11,11,11,0,0,0,2,,,3,5.723929446001421,3,2.8063326550036436,5,1.6182434820075287,1,2.570186091994401,,,052,001,2019_May_21_1010,MusicAffectPsychophysiology2019,3.0.5,60.17564029575716,
To what extent did the music make you feel ,ACTIVE,30MonoWAV/30MonoS4.wav,1,1,3,12,,,,,0,11,11,11,0,1,1,9,,,,,,,,,1,0.9186305139883189,,,052,001,2019_May_21_1010,MusicAffectPsychophysiology2019,3.0.5,60.17564029575716,
To what extent did the music make you feel ,ALERT,30MonoWAV/30MonoS4.wav,1,1,3,12,,,,,0,11,11,11,0,2,2,8,,,,,,,,,2,1.918438883003546,,,052,001,2019_May_21_1010,MusicAffectPsychophysiology2019,3.0.5,60.17564029575716,
To what extent did the music make you feel ,FRUSTRATED,30MonoWAV/30MonoS4.wav,1,1,3,12,,,,,0,11,11,11,0,3,3,3,,,,,,,,,1,0.7014911369915353,,,052,001,2019_May_21_1010,MusicAffectPsychophysiology2019,3.0.5,60.17564029575716,
To what extent did the music make you feel ,ANXIOUS ,30MonoWAV/30MonoS4.wav,1,1,3,12,,,,,0,11,11,11,0,4,4,1,,,,,,,,,3,1.3019318789883982,,,052,001,2019_May_21_1010,MusicAffectPsychophysiology2019,3.0.5,60.17564029575716,
To what extent did the music make you feel ,HAPPY,30MonoWAV/30MonoS4.wav,1,1,3,12,,,,,0,11,11,11,0,5,5,6,,,,,,,,,2,2.6673484569910215,,,052,001,2019_May_21_1010,MusicAffectPsychophysiology2019,3.0.5,60.17564029575716,
To what extent did the music make you feel ,EXCITED,30MonoWAV/30MonoS4.wav,1,1,3,12,,,,,0,11,11,11,0,6,6,7,,,,,,,,,1,0.9186767480132403,,,052,001,2019_May_21_1010,MusicAffectPsychophysiology2019,3.0.5,60.17564029575716,
To what extent did the music make you feel ,GUILTY,30MonoWAV/30MonoS4.wav,1,1,3,12,,,,,0,11,11,11,0,7,7,5,,,,,,,,,1,0.5853857140027685,,,052,001,2019_May_21_1010,MusicAffectPsychophysiology2019,3.0.5,60.17564029575716,
To what extent did the music make you feel ,SCARED,30MonoWAV/30MonoS4.wav,1,1,3,12,,,,,0,11,11,11,0,8,8,11,,,,,,,,,1,1.001656076987274,,,052,001,2019_May_21_1010,MusicAffectPsychophysiology2019,3.0.5,60.17564029575716,
To what extent did the music make you feel ,ASHAMED,30MonoWAV/30MonoS4.wav,1,1,3,12,,,,,0,11,11,11,0,9,9,4,,,,,,,,,1,0.8670397749956464,,,052,001,2019_May_21_1010,MusicAffectPsychophysiology2019,3.0.5,60.17564029575716,
To what extent did the music make you feel ,SAD,30MonoWAV/30MonoS4.wav,1,1,3,12,,,,,0,11,11,11,0,10,10,0,,,,,,,,,5,3.102733416002593,,,052,001,2019_May_21_1010,MusicAffectPsychophysiology2019,3.0.5,60.17564029575716,
To what extent did the music make you feel ,TENDER,30MonoWAV/30MonoS4.wav,1,1,3,12,,,,,0,11,11,11,0,11,11,10,,,,,,,,,2,1.535353302009753,,,052,001,2019_May_21_1010,MusicAffectPsychophysiology2019,3.0.5,60.17564029575716,
,,30MonoWAV/30MonoS4.wav,1,1,3,12,,,,,0,11,11,11,,,,,,,,,,,,,,,,,052,001,2019_May_21_1010,MusicAffectPsychophysiology2019,3.0.5,60.17564029575716,
To what extent did the music make you feel ,SCARED,30MonoWAV/30MonoH3.wav,2,2,1,7,,,,,0,12,12,6,0,0,0,11,,,4,2.1351780309923925,4,0.701582192996284,4,0.5524801880092127,1,0.8851103820052231,,,052,001,2019_May_21_1010,MusicAffectPsychophysiology2019,3.0.5,60.17564029575716,
To what extent did the music make you feel ,ANXIOUS ,30MonoWAV/30MonoH3.wav,2,2,1,7,,,,,0,12,12,6,0,1,1,1,,,,,,,,,1,0.5173465560073964,,,052,001,2019_May_21_1010,MusicAffectPsychophysiology2019,3.0.5,60.17564029575716,
To what extent did the music make you feel ,ASHAMED,30MonoWAV/30MonoH3.wav,2,2,1,7,,,,,0,12,12,6,0,2,2,4,,,,,,,,,1,0.4682373059913516,,,052,001,2019_May_21_1010,MusicAffectPsychophysiology2019,3.0.5,60.17564029575716,
To what extent did the music make you feel ,ANGRY,30MonoWAV/30MonoH3.wav,2,2,1,7,,,,,0,12,12,6,0,3,3,2,,,,,,,,,1,0.4850441460002912,,,052,001,2019_May_21_1010,MusicAffectPsychophysiology2019,3.0.5,60.17564029575716,
To what extent did the music make you feel ,GUILTY,30MonoWAV/30MonoH3.wav,2,2,1,7,,,,,0,12,12,6,0,4,4,5,,,,,,,,,1,0.48393330599355977,,,052,001,2019_May_21_1010,MusicAffectPsychophysiology2019,3.0.5,60.17564029575716,
To what extent did the music make you feel ,ALERT,30MonoWAV/30MonoH3.wav,2,2,1,7,,,,,0,12,12,6,0,5,5,8,,,,,,,,,1,0.48488059399824124,,,052,001,2019_May_21_1010,MusicAffectPsychophysiology2019,3.0.5,60.17564029575716,
To what extent did the music make you feel ,HAPPY,30MonoWAV/30MonoH3.wav,2,2,1,7,,,,,0,12,12,6,0,6,6,6,,,,,,,,,5,1.2351452330040047,,,052,001,2019_May_21_1010,MusicAffectPsychophysiology2019,3.0.5,60.17564029575716,
To what extent did the music make you feel ,TENDER,30MonoWAV/30MonoH3.wav,2,2,1,7,,,,,0,12,12,6,0,7,7,10,,,,,,,,,1,0.8854936060088221,,,052,001,2019_May_21_1010,MusicAffectPsychophysiology2019,3.0.5,60.17564029575716,
To what extent did the music make you feel ,EXCITED,30MonoWAV/30MonoH3.wav,2,2,1,7,,,,,0,12,12,6,0,8,8,7,,,,,,,,,4,6.915907973001595,,,052,001,2019_May_21_1010,MusicAffectPsychophysiology2019,3.0.5,60.17564029575716,
To what extent did the music make you feel ,FRUSTRATED,30MonoWAV/30MonoH3.wav,2,2,1,7,,,,,0,12,12,6,0,9,9,3,,,,,,,,,1,0.885061590000987,,,052,001,2019_May_21_1010,MusicAffectPsychophysiology2019,3.0.5,60.17564029575716,
To what extent did the music make you feel ,ACTIVE,30MonoWAV/30MonoH3.wav,2,2,1,7,,,,,0,12,12,6,0,10,10,9,,,,,,,,,3,1.5509776169928955,,,052,001,2019_May_21_1010,MusicAffectPsychophysiology2019,3.0.5,60.17564029575716,
To what extent did the music make you feel ,SAD,30MonoWAV/30MonoH3.wav,2,2,1,7,,,,,0,12,12,6,0,11,11,0,,,,,,,,,1,0.7356698070070706,,,052,001,2019_May_21_1010,MusicAffectPsychophysiology2019,3.0.5,60.17564029575716,
,,30MonoWAV/30MonoH3.wav,2,2,1,7,,,,,0,12,12,6,,,,,,,,,,,,,,,,,052,001,2019_May_21_1010,MusicAffectPsychophysiology2019,3.0.5,60.17564029575716,
To what extent did the music make you feel ,TENDER,30MonoWAV/30MonoH2.wav,2,2,1,6,,,,,0,13,13,5,0,0,0,10,,,4,2.888815475991578,4,0.36755634199653286,4,0.435511032002978,3,1.5031242319964804,,,052,001,2019_May_21_1010,MusicAffectPsychophysiology2019,3.0.5,60.17564029575716,
To what extent did the music make you feel ,FRUSTRATED,30MonoWAV/30MonoH2.wav,2,2,1,6,,,,,0,13,13,5,0,1,1,3,,,,,,,,,1,0.8735866920033004,,,052,001,2019_May_21_1010,MusicAffectPsychophysiology2019,3.0.5,60.17564029575716,
To what extent did the music make you feel ,HAPPY,30MonoWAV/30MonoH2.wav,2,2,1,6,,,,,0,13,13,5,0,2,2,6,,,,,,,,,3,1.4524874099879526,,,052,001,2019_May_21_1010,MusicAffectPsychophysiology2019,3.0.5,60.17564029575716,
To what extent did the music make you feel ,SCARED,30MonoWAV/30MonoH2.wav,2,2,1,6,,,,,0,13,13,5,0,3,3,11,,,,,,,,,1,0.9362645530054579,,,052,001,2019_May_21_1010,MusicAffectPsychophysiology2019,3.0.5,60.17564029575716,
To what extent did the music make you feel ,ASHAMED,30MonoWAV/30MonoH2.wav,2,2,1,6,,,,,0,13,13,5,0,4,4,4,,,,,,,,,1,0.535239079996245,,,052,001,2019_May_21_1010,MusicAffectPsychophysiology2019,3.0.5,60.17564029575716,
To what extent did the music make you feel ,ALERT,30MonoWAV/30MonoH2.wav,2,2,1,6,,,,,0,13,13,5,0,5,5,8,,,,,,,,,1,0.4013729809958022,,,052,001,2019_May_21_1010,MusicAffectPsychophysiology2019,3.0.5,60.17564029575716,
To what extent did the music make you feel ,ANGRY,30MonoWAV/30MonoH2.wav,2,2,1,6,,,,,0,13,13,5,0,6,6,2,,,,,,,,,1,0.48654628300573677,,,052,001,2019_May_21_1010,MusicAffectPsychophysiology2019,3.0.5,60.17564029575716,
To what extent did the music make you feel ,EXCITED,30MonoWAV/30MonoH2.wav,2,2,1,6,,,,,0,13,13,5,0,7,7,7,,,,,,,,,2,1.535435644997051,,,052,001,2019_May_21_1010,MusicAffectPsychophysiology2019,3.0.5,60.17564029575716,
To what extent did the music make you feel ,ACTIVE,30MonoWAV/30MonoH2.wav,2,2,1,6,,,,,0,13,13,5,0,8,8,9,,,,,,,,,1,0.5521456730057253,,,052,001,2019_May_21_1010,MusicAffectPsychophysiology2019,3.0.5,60.17564029575716,
To what extent did the music make you feel ,SAD,30MonoWAV/30MonoH2.wav,2,2,1,6,,,,,0,13,13,5,0,9,9,0,,,,,,,,,1,1.3520459269930143,,,052,001,2019_May_21_1010,MusicAffectPsychophysiology2019,3.0.5,60.17564029575716,
To what extent did the music make you feel ,GUILTY,30MonoWAV/30MonoH2.wav,2,2,1,6,,,,,0,13,13,5,0,10,10,5,,,,,,,,,1,0.7681967149983393,,,052,001,2019_May_21_1010,MusicAffectPsychophysiology2019,3.0.5,60.17564029575716,
To what extent did the music make you feel ,ANXIOUS ,30MonoWAV/30MonoH2.wav,2,2,1,6,,,,,0,13,13,5,0,11,11,1,,,,,,,,,1,0.335476888998528,,,052,001,2019_May_21_1010,MusicAffectPsychophysiology2019,3.0.5,60.17564029575716,
,,30MonoWAV/30MonoH2.wav,2,2,1,6,,,,,0,13,13,5,,,,,,,,,,,,,,,,,052,001,2019_May_21_1010,MusicAffectPsychophysiology2019,3.0.5,60.17564029575716,
To what extent did the music make you feel ,TENDER,30MonoWAV/30MonoS2.wav,1,1,3,10,,,,,0,14,14,9,0,0,0,10,,,3,4.4679253850044915,2,5.867951426989748,5,3.6672536249971017,3,8.56812573299976,,,052,001,2019_May_21_1010,MusicAffectPsychophysiology2019,3.0.5,60.17564029575716,
To what extent did the music make you feel ,ANGRY,30MonoWAV/30MonoS2.wav,1,1,3,10,,,,,0,14,14,9,0,1,1,2,,,,,,,,,1,0.7853982160013402,,,052,001,2019_May_21_1010,MusicAffectPsychophysiology2019,3.0.5,60.17564029575716,
To what extent did the music make you feel ,GUILTY,30MonoWAV/30MonoS2.wav,1,1,3,10,,,,,0,14,14,9,0,2,2,5,,,,,,,,,1,0.5179575460060732,,,052,001,2019_May_21_1010,MusicAffectPsychophysiology2019,3.0.5,60.17564029575716,
To what extent did the music make you feel ,ACTIVE,30MonoWAV/30MonoS2.wav,1,1,3,10,,,,,0,14,14,9,0,3,3,9,,,,,,,,,1,0.8515955909970216,,,052,001,2019_May_21_1010,MusicAffectPsychophysiology2019,3.0.5,60.17564029575716,
To what extent did the music make you feel ,SCARED,30MonoWAV/30MonoS2.wav,1,1,3,10,,,,,0,14,14,9,0,4,4,11,,,,,,,,,1,0.6004897710081423,,,052,001,2019_May_21_1010,MusicAffectPsychophysiology2019,3.0.5,60.17564029575716,
To what extent did the music make you feel ,ASHAMED,30MonoWAV/30MonoS2.wav,1,1,3,10,,,,,0,14,14,9,0,5,5,4,,,,,,,,,3,2.3011203479982214,,,052,001,2019_May_21_1010,MusicAffectPsychophysiology2019,3.0.5,60.17564029575716,
To what extent did the music make you feel ,EXCITED,30MonoWAV/30MonoS2.wav,1,1,3,10,,,,,0,14,14,9,0,6,6,7,,,,,,,,,1,1.0185275039984845,,,052,001,2019_May_21_1010,MusicAffectPsychophysiology2019,3.0.5,60.17564029575716,
To what extent did the music make you feel ,FRUSTRATED,30MonoWAV/30MonoS2.wav,1,1,3,10,,,,,0,14,14,9,0,7,7,3,,,,,,,,,1,0.4843688309920253,,,052,001,2019_May_21_1010,MusicAffectPsychophysiology2019,3.0.5,60.17564029575716,
To what extent did the music make you feel ,SAD,30MonoWAV/30MonoS2.wav,1,1,3,10,,,,,0,14,14,9,0,8,8,0,,,,,,,,,5,1.1504261119989678,,,052,001,2019_May_21_1010,MusicAffectPsychophysiology2019,3.0.5,60.17564029575716,
To what extent did the music make you feel ,ANXIOUS ,30MonoWAV/30MonoS2.wav,1,1,3,10,,,,,0,14,14,9,0,9,9,1,,,,,,,,,4,1.250852055993164,,,052,001,2019_May_21_1010,MusicAffectPsychophysiology2019,3.0.5,60.17564029575716,
To what extent did the music make you feel ,HAPPY,30MonoWAV/30MonoS2.wav,1,1,3,10,,,,,0,14,14,9,0,10,10,6,,,,,,,,,1,1.1518818629992893,,,052,001,2019_May_21_1010,MusicAffectPsychophysiology2019,3.0.5,60.17564029575716,
To what extent did the music make you feel ,ALERT,30MonoWAV/30MonoS2.wav,1,1,3,10,,,,,0,14,14,9,0,11,11,8,,,,,,,,,1,0.6848716550011886,,,052,001,2019_May_21_1010,MusicAffectPsychophysiology2019,3.0.5,60.17564029575716,
,,30MonoWAV/30MonoS2.wav,1,1,3,10,,,,,0,14,14,9,,,,,,,,,,,,,,,,,052,001,2019_May_21_1010,MusicAffectPsychophysiology2019,3.0.5,60.17564029575716,
To what extent did the music make you feel ,TENDER,30MonoWAV/30MonoH4.wav,2,2,1,8,,,,,0,15,15,7,0,0,0,10,,,5,0.7524704480019864,5,0.2849762169935275,4,1.4704294909897726,3,1.920272749994183,,,052,001,2019_May_21_1010,MusicAffectPsychophysiology2019,3.0.5,60.17564029575716,
To what extent did the music make you feel ,SCARED,30MonoWAV/30MonoH4.wav,2,2,1,8,,,,,0,15,15,7,0,1,1,11,,,,,,,,,3,0.0859120340028312,,,052,001,2019_May_21_1010,MusicAffectPsychophysiology2019,3.0.5,60.17564029575716,
To what extent did the music make you feel ,GUILTY,30MonoWAV/30MonoH4.wav,2,2,1,8,,,,,0,15,15,7,0,2,2,5,,,,,,,,,1,2.2391638640110614,,,052,001,2019_May_21_1010,MusicAffectPsychophysiology2019,3.0.5,60.17564029575716,
To what extent did the music make you feel ,SAD,30MonoWAV/30MonoH4.wav,2,2,1,8,,,,,0,15,15,7,0,3,3,0,,,,,,,,,1,1.0685183580062585,,,052,001,2019_May_21_1010,MusicAffectPsychophysiology2019,3.0.5,60.17564029575716,
To what extent did the music make you feel ,HAPPY,30MonoWAV/30MonoH4.wav,2,2,1,8,,,,,0,15,15,7,0,4,4,6,,,,,,,,,5,1.0681153959885705,,,052,001,2019_May_21_1010,MusicAffectPsychophysiology2019,3.0.5,60.17564029575716,
To what extent did the music make you feel ,EXCITED,30MonoWAV/30MonoH4.wav,2,2,1,8,,,,,0,15,15,7,0,5,5,7,,,,,,,,,5,1.285141594009474,,,052,001,2019_May_21_1010,MusicAffectPsychophysiology2019,3.0.5,60.17564029575716,
To what extent did the music make you feel ,ACTIVE,30MonoWAV/30MonoH4.wav,2,2,1,8,,,,,0,15,15,7,0,6,6,9,,,,,,,,,5,1.4854835370060755,,,052,001,2019_May_21_1010,MusicAffectPsychophysiology2019,3.0.5,60.17564029575716,
To what extent did the music make you feel ,ASHAMED,30MonoWAV/30MonoH4.wav,2,2,1,8,,,,,0,15,15,7,0,7,7,4,,,,,,,,,1,0.8170516639947891,,,052,001,2019_May_21_1010,MusicAffectPsychophysiology2019,3.0.5,60.17564029575716,
To what extent did the music make you feel ,ANXIOUS ,30MonoWAV/30MonoH4.wav,2,2,1,8,,,,,0,15,15,7,0,8,8,1,,,,,,,,,1,0.7339863990055164,,,052,001,2019_May_21_1010,MusicAffectPsychophysiology2019,3.0.5,60.17564029575716,
To what extent did the music make you feel ,FRUSTRATED,30MonoWAV/30MonoH4.wav,2,2,1,8,,,,,0,15,15,7,0,9,9,3,,,,,,,,,1,0.5016334609972546,,,052,001,2019_May_21_1010,MusicAffectPsychophysiology2019,3.0.5,60.17564029575716,
To what extent did the music make you feel ,ALERT,30MonoWAV/30MonoH4.wav,2,2,1,8,,,,,0,15,15,7,0,10,10,8,,,,,,,,,1,1.3181797369907144,,,052,001,2019_May_21_1010,MusicAffectPsychophysiology2019,3.0.5,60.17564029575716,
To what extent did the music make you feel ,ANGRY,30MonoWAV/30MonoH4.wav,2,2,1,8,,,,,0,15,15,7,0,11,11,2,,,,,,,,,1,0.5684464640071383,,,052,001,2019_May_21_1010,MusicAffectPsychophysiology2019,3.0.5,60.17564029575716,
,,30MonoWAV/30MonoH4.wav,2,2,1,8,,,,,0,15,15,7,,,,,,,,,,,,,,,,,052,001,2019_May_21_1010,MusicAffectPsychophysiology2019,3.0.5,60.17564029575716,
To what extent did the music make you feel ,ASHAMED,30MonoWAV/30MonoH4.wav,2,2,1,8,,,,,1,0,16,7,0,0,0,4,,,4,3.5679568750056205,4,1.418570286987233,3,1.3005380309914472,1,1.1178430120053235,,,052,001,2019_May_21_1010,MusicAffectPsychophysiology2019,3.0.5,60.17564029575716,
To what extent did the music make you feel ,ANXIOUS ,30MonoWAV/30MonoH4.wav,2,2,1,8,,,,,1,0,16,7,0,1,1,1,,,,,,,,,1,0.7175571270054206,,,052,001,2019_May_21_1010,MusicAffectPsychophysiology2019,3.0.5,60.17564029575716,
To what extent did the music make you feel ,SAD,30MonoWAV/30MonoH4.wav,2,2,1,8,,,,,1,0,16,7,0,2,2,0,,,,,,,,,1,0.534907930996269,,,052,001,2019_May_21_1010,MusicAffectPsychophysiology2019,3.0.5,60.17564029575716,
To what extent did the music make you feel ,FRUSTRATED,30MonoWAV/30MonoH4.wav,2,2,1,8,,,,,1,0,16,7,0,3,3,3,,,,,,,,,1,0.6014077080035349,,,052,001,2019_May_21_1010,MusicAffectPsychophysiology2019,3.0.5,60.17564029575716,
To what extent did the music make you feel ,ANGRY,30MonoWAV/30MonoH4.wav,2,2,1,8,,,,,1,0,16,7,0,4,4,2,,,,,,,,,1,0.5498199029971147,,,052,001,2019_May_21_1010,MusicAffectPsychophysiology2019,3.0.5,60.17564029575716,
To what extent did the music make you feel ,EXCITED,30MonoWAV/30MonoH4.wav,2,2,1,8,,,,,1,0,16,7,0,5,5,7,,,,,,,,,4,1.4676894760050345,,,052,001,2019_May_21_1010,MusicAffectPsychophysiology2019,3.0.5,60.17564029575716,
To what extent did the music make you feel ,TENDER,30MonoWAV/30MonoH4.wav,2,2,1,8,,,,,1,0,16,7,0,6,6,10,,,,,,,,,3,1.4184502610005438,,,052,001,2019_May_21_1010,MusicAffectPsychophysiology2019,3.0.5,60.17564029575716,
To what extent did the music make you feel ,ACTIVE,30MonoWAV/30MonoH4.wav,2,2,1,8,,,,,1,0,16,7,0,7,7,9,,,,,,,,,3,1.9158063270006096,,,052,001,2019_May_21_1010,MusicAffectPsychophysiology2019,3.0.5,60.17564029575716,
To what extent did the music make you feel ,HAPPY,30MonoWAV/30MonoH4.wav,2,2,1,8,,,,,1,0,16,7,0,8,8,6,,,,,,,,,4,1.0855904280033428,,,052,001,2019_May_21_1010,MusicAffectPsychophysiology2019,3.0.5,60.17564029575716,
To what extent did the music make you feel ,GUILTY,30MonoWAV/30MonoH4.wav,2,2,1,8,,,,,1,0,16,7,0,9,9,5,,,,,,,,,1,0.8676832850032952,,,052,001,2019_May_21_1010,MusicAffectPsychophysiology2019,3.0.5,60.17564029575716,
To what extent did the music make you feel ,SCARED,30MonoWAV/30MonoH4.wav,2,2,1,8,,,,,1,0,16,7,0,10,10,11,,,,,,,,,1,0.45257654300075956,,,052,001,2019_May_21_1010,MusicAffectPsychophysiology2019,3.0.5,60.17564029575716,
To what extent did the music make you feel ,ALERT,30MonoWAV/30MonoH4.wav,2,2,1,8,,,,,1,0,16,7,0,11,11,8,,,,,,,,,1,0.4352635279938113,,,052,001,2019_May_21_1010,MusicAffectPsychophysiology2019,3.0.5,60.17564029575716,
,,30MonoWAV/30MonoH4.wav,2,2,1,8,,,,,1,0,16,7,,,,,,,,,,,,,,,,,052,001,2019_May_21_1010,MusicAffectPsychophysiology2019,3.0.5,60.17564029575716,
To what extent did the music make you feel ,ANXIOUS ,30MonoWAV/30MonoF1.wav,1,2,2,1,,,,,1,1,17,0,0,0,0,1,,,5,2.5684141899982933,2,3.3178373870032374,5,1.1842882659984753,4,1.185290752997389,,,052,001,2019_May_21_1010,MusicAffectPsychophysiology2019,3.0.5,60.17564029575716,
To what extent did the music make you feel ,TENDER,30MonoWAV/30MonoF1.wav,1,2,2,1,,,,,1,1,17,0,0,1,1,10,,,,,,,,,2,1.2674788539879955,,,052,001,2019_May_21_1010,MusicAffectPsychophysiology2019,3.0.5,60.17564029575716,
To what extent did the music make you feel ,ACTIVE,30MonoWAV/30MonoF1.wav,1,2,2,1,,,,,1,1,17,0,0,2,2,9,,,,,,,,,2,1.5850537359947339,,,052,001,2019_May_21_1010,MusicAffectPsychophysiology2019,3.0.5,60.17564029575716,
To what extent did the music make you feel ,ASHAMED,30MonoWAV/30MonoF1.wav,1,2,2,1,,,,,1,1,17,0,0,3,3,4,,,,,,,,,1,1.0185330780077493,,,052,001,2019_May_21_1010,MusicAffectPsychophysiology2019,3.0.5,60.17564029575716,
To what extent did the music make you feel ,SAD,30MonoWAV/30MonoF1.wav,1,2,2,1,,,,,1,1,17,0,0,4,4,0,,,,,,,,,1,0.8348956810077652,,,052,001,2019_May_21_1010,MusicAffectPsychophysiology2019,3.0.5,60.17564029575716,
To what extent did the music make you feel ,GUILTY,30MonoWAV/30MonoF1.wav,1,2,2,1,,,,,1,1,17,0,0,5,5,5,,,,,,,,,1,0.6517792079976061,,,052,001,2019_May_21_1010,MusicAffectPsychophysiology2019,3.0.5,60.17564029575716,
To what extent did the music make you feel ,SCARED,30MonoWAV/30MonoF1.wav,1,2,2,1,,,,,1,1,17,0,0,6,6,11,,,,,,,,,4,3.068787854994298,,,052,001,2019_May_21_1010,MusicAffectPsychophysiology2019,3.0.5,60.17564029575716,
To what extent did the music make you feel ,ALERT,30MonoWAV/30MonoF1.wav,1,2,2,1,,,,,1,1,17,0,0,7,7,8,,,,,,,,,5,2.235387063003145,,,052,001,2019_May_21_1010,MusicAffectPsychophysiology2019,3.0.5,60.17564029575716,
To what extent did the music make you feel ,HAPPY,30MonoWAV/30MonoF1.wav,1,2,2,1,,,,,1,1,17,0,0,8,8,6,,,,,,,,,1,1.3337362120073522,,,052,001,2019_May_21_1010,MusicAffectPsychophysiology2019,3.0.5,60.17564029575716,
To what extent did the music make you feel ,FRUSTRATED,30MonoWAV/30MonoF1.wav,1,2,2,1,,,,,1,1,17,0,0,9,9,3,,,,,,,,,1,2.435916306989384,,,052,001,2019_May_21_1010,MusicAffectPsychophysiology2019,3.0.5,60.17564029575716,
To what extent did the music make you feel ,ANGRY,30MonoWAV/30MonoF1.wav,1,2,2,1,,,,,1,1,17,0,0,10,10,2,,,,,,,,,1,0.5856646559986984,,,052,001,2019_May_21_1010,MusicAffectPsychophysiology2019,3.0.5,60.17564029575716,
To what extent did the music make you feel ,EXCITED,30MonoWAV/30MonoF1.wav,1,2,2,1,,,,,1,1,17,0,0,11,11,7,,,,,,,,,4,1.4876693960104603,,,052,001,2019_May_21_1010,MusicAffectPsychophysiology2019,3.0.5,60.17564029575716,
,,30MonoWAV/30MonoF1.wav,1,2,2,1,,,,,1,1,17,0,,,,,,,,,,,,,,,,,052,001,2019_May_21_1010,MusicAffectPsychophysiology2019,3.0.5,60.17564029575716,
To what extent did the music make you feel ,ANXIOUS ,30MonoWAV/30MonoS4.wav,1,1,3,12,,,,,1,2,18,11,0,0,0,1,,,2,5.773011705998215,2,1.2013107670063619,5,1.3185235050041229,3,1.9735199959977763,,,052,001,2019_May_21_1010,MusicAffectPsychophysiology2019,3.0.5,60.17564029575716,
To what extent did the music make you feel ,SCARED,30MonoWAV/30MonoS4.wav,1,1,3,12,,,,,1,2,18,11,0,1,1,11,,,,,,,,,1,0.8523292379977647,,,052,001,2019_May_21_1010,MusicAffectPsychophysiology2019,3.0.5,60.17564029575716,
To what extent did the music make you feel ,ALERT,30MonoWAV/30MonoS4.wav,1,1,3,12,,,,,1,2,18,11,0,2,2,8,,,,,,,,,1,0.9529146590066375,,,052,001,2019_May_21_1010,MusicAffectPsychophysiology2019,3.0.5,60.17564029575716,
To what extent did the music make you feel ,FRUSTRATED,30MonoWAV/30MonoS4.wav,1,1,3,12,,,,,1,2,18,11,0,3,3,3,,,,,,,,,1,0.5190564290096518,,,052,001,2019_May_21_1010,MusicAffectPsychophysiology2019,3.0.5,60.17564029575716,
To what extent did the music make you feel ,TENDER,30MonoWAV/30MonoS4.wav,1,1,3,12,,,,,1,2,18,11,0,4,4,10,,,,,,,,,3,1.7700754999968922,,,052,001,2019_May_21_1010,MusicAffectPsychophysiology2019,3.0.5,60.17564029575716,
To what extent did the music make you feel ,ACTIVE,30MonoWAV/30MonoS4.wav,1,1,3,12,,,,,1,2,18,11,0,5,5,9,,,,,,,,,2,1.9905003909952939,,,052,001,2019_May_21_1010,MusicAffectPsychophysiology2019,3.0.5,60.17564029575716,
To what extent did the music make you feel ,SAD,30MonoWAV/30MonoS4.wav,1,1,3,12,,,,,1,2,18,11,0,6,6,0,,,,,,,,,5,1.60138341000129,,,052,001,2019_May_21_1010,MusicAffectPsychophysiology2019,3.0.5,60.17564029575716,
To what extent did the music make you feel ,ANGRY,30MonoWAV/30MonoS4.wav,1,1,3,12,,,,,1,2,18,11,0,7,7,2,,,,,,,,,1,1.4014629680023063,,,052,001,2019_May_21_1010,MusicAffectPsychophysiology2019,3.0.5,60.17564029575716,
To what extent did the music make you feel ,HAPPY,30MonoWAV/30MonoS4.wav,1,1,3,12,,,,,1,2,18,11,0,8,8,6,,,,,,,,,1,0.9526794039993547,,,052,001,2019_May_21_1010,MusicAffectPsychophysiology2019,3.0.5,60.17564029575716,
To what extent did the music make you feel ,GUILTY,30MonoWAV/30MonoS4.wav,1,1,3,12,,,,,1,2,18,11,0,9,9,5,,,,,,,,,1,1.1346242809959222,,,052,001,2019_May_21_1010,MusicAffectPsychophysiology2019,3.0.5,60.17564029575716,
To what extent did the music make you feel ,EXCITED,30MonoWAV/30MonoS4.wav,1,1,3,12,,,,,1,2,18,11,0,10,10,7,,,,,,,,,1,1.352015107011539,,,052,001,2019_May_21_1010,MusicAffectPsychophysiology2019,3.0.5,60.17564029575716,
To what extent did the music make you feel ,ASHAMED,30MonoWAV/30MonoS4.wav,1,1,3,12,,,,,1,2,18,11,0,11,11,4,,,,,,,,,1,0.8519596359983552,,,052,001,2019_May_21_1010,MusicAffectPsychophysiology2019,3.0.5,60.17564029575716,
,,30MonoWAV/30MonoS4.wav,1,1,3,12,,,,,1,2,18,11,,,,,,,,,,,,,,,,,052,001,2019_May_21_1010,MusicAffectPsychophysiology2019,3.0.5,60.17564029575716,
To what extent did the music make you feel ,FRUSTRATED,30MonoWAV/30MonoH3.wav,2,2,1,7,,,,,1,3,19,6,0,0,0,3,,,4,3.857363154995255,4,0.31826171500142664,5,1.033396045997506,1,1.0685733210120816,,,052,001,2019_May_21_1010,MusicAffectPsychophysiology2019,3.0.5,60.17564029575716,
To what extent did the music make you feel ,TENDER,30MonoWAV/30MonoH3.wav,2,2,1,7,,,,,1,3,19,6,0,1,1,10,,,,,,,,,1,0.6686914400052046,,,052,001,2019_May_21_1010,MusicAffectPsychophysiology2019,3.0.5,60.17564029575716,
To what extent did the music make you feel ,ANXIOUS ,30MonoWAV/30MonoH3.wav,2,2,1,7,,,,,1,3,19,6,0,2,2,1,,,,,,,,,1,0.6354194330051541,,,052,001,2019_May_21_1010,MusicAffectPsychophysiology2019,3.0.5,60.17564029575716,
To what extent did the music make you feel ,ACTIVE,30MonoWAV/30MonoH3.wav,2,2,1,7,,,,,1,3,19,6,0,3,3,9,,,,,,,,,3,1.9676759499998298,,,052,001,2019_May_21_1010,MusicAffectPsychophysiology2019,3.0.5,60.17564029575716,
To what extent did the music make you feel ,SAD,30MonoWAV/30MonoH3.wav,2,2,1,7,,,,,1,3,19,6,0,4,4,0,,,,,,,,,1,0.8691082700097468,,,052,001,2019_May_21_1010,MusicAffectPsychophysiology2019,3.0.5,60.17564029575716,
To what extent did the music make you feel ,GUILTY,30MonoWAV/30MonoH3.wav,2,2,1,7,,,,,1,3,19,6,0,5,5,5,,,,,,,,,1,0.6507880330027547,,,052,001,2019_May_21_1010,MusicAffectPsychophysiology2019,3.0.5,60.17564029575716,
To what extent did the music make you feel ,ALERT,30MonoWAV/30MonoH3.wav,2,2,1,7,,,,,1,3,19,6,0,6,6,8,,,,,,,,,1,1.1849425919936039,,,052,001,2019_May_21_1010,MusicAffectPsychophysiology2019,3.0.5,60.17564029575716,
To what extent did the music make you feel ,SCARED,30MonoWAV/30MonoH3.wav,2,2,1,7,,,,,1,3,19,6,0,7,7,11,,,,,,,,,1,0.552612253013649,,,052,001,2019_May_21_1010,MusicAffectPsychophysiology2019,3.0.5,60.17564029575716,
To what extent did the music make you feel ,EXCITED,30MonoWAV/30MonoH3.wav,2,2,1,7,,,,,1,3,19,6,0,8,8,7,,,,,,,,,3,1.3857736750069307,,,052,001,2019_May_21_1010,MusicAffectPsychophysiology2019,3.0.5,60.17564029575716,
To what extent did the music make you feel ,ASHAMED,30MonoWAV/30MonoH3.wav,2,2,1,7,,,,,1,3,19,6,0,9,9,4,,,,,,,,,1,0.9171261240117019,,,052,001,2019_May_21_1010,MusicAffectPsychophysiology2019,3.0.5,60.17564029575716,
To what extent did the music make you feel ,HAPPY,30MonoWAV/30MonoH3.wav,2,2,1,7,,,,,1,3,19,6,0,10,10,6,,,,,,,,,4,1.018743459993857,,,052,001,2019_May_21_1010,MusicAffectPsychophysiology2019,3.0.5,60.17564029575716,
To what extent did the music make you feel ,ANGRY,30MonoWAV/30MonoH3.wav,2,2,1,7,,,,,1,3,19,6,0,11,11,2,,,,,,,,,1,0.6516817679948872,,,052,001,2019_May_21_1010,MusicAffectPsychophysiology2019,3.0.5,60.17564029575716,
,,30MonoWAV/30MonoH3.wav,2,2,1,7,,,,,1,3,19,6,,,,,,,,,,,,,,,,,052,001,2019_May_21_1010,MusicAffectPsychophysiology2019,3.0.5,60.17564029575716,
To what extent did the music make you feel ,ASHAMED,30MonoWAV/30MonoS3.wav,1,1,3,11,,,,,1,4,20,10,0,0,0,4,,,3,7.382626869002706,3,0.6692555300105596,5,0.7346931290085195,1,0.9687395039945841,,,052,001,2019_May_21_1010,MusicAffectPsychophysiology2019,3.0.5,60.17564029575716,
To what extent did the music make you feel ,ANGRY,30MonoWAV/30MonoS3.wav,1,1,3,11,,,,,1,4,20,10,0,1,1,2,,,,,,,,,1,0.4689560629922198,,,052,001,2019_May_21_1010,MusicAffectPsychophysiology2019,3.0.5,60.17564029575716,
To what extent did the music make you feel ,FRUSTRATED,30MonoWAV/30MonoS3.wav,1,1,3,11,,,,,1,4,20,10,0,2,2,3,,,,,,,,,1,0.6343635189987253,,,052,001,2019_May_21_1010,MusicAffectPsychophysiology2019,3.0.5,60.17564029575716,
To what extent did the music make you feel ,SAD,30MonoWAV/30MonoS3.wav,1,1,3,11,,,,,1,4,20,10,0,3,3,0,,,,,,,,,5,1.1359762330102967,,,052,001,2019_May_21_1010,MusicAffectPsychophysiology2019,3.0.5,60.17564029575716,
To what extent did the music make you feel ,SCARED,30MonoWAV/30MonoS3.wav,1,1,3,11,,,,,1,4,20,10,0,4,4,11,,,,,,,,,2,5.25053270799981,,,052,001,2019_May_21_1010,MusicAffectPsychophysiology2019,3.0.5,60.17564029575716,
To what extent did the music make you feel ,GUILTY,30MonoWAV/30MonoS3.wav,1,1,3,11,,,,,1,4,20,10,0,5,5,5,,,,,,,,,3,2.250315622004564,,,052,001,2019_May_21_1010,MusicAffectPsychophysiology2019,3.0.5,60.17564029575716,
To what extent did the music make you feel ,EXCITED,30MonoWAV/30MonoS3.wav,1,1,3,11,,,,,1,4,20,10,0,6,6,7,,,,,,,,,1,3.2855362779955612,,,052,001,2019_May_21_1010,MusicAffectPsychophysiology2019,3.0.5,60.17564029575716,
To what extent did the music make you feel ,ANXIOUS ,30MonoWAV/30MonoS3.wav,1,1,3,11,,,,,1,4,20,10,0,7,7,1,,,,,,,,,3,4.183719205000671,,,052,001,2019_May_21_1010,MusicAffectPsychophysiology2019,3.0.5,60.17564029575716,
To what extent did the music make you feel ,ACTIVE,30MonoWAV/30MonoS3.wav,1,1,3,11,,,,,1,4,20,10,0,8,8,9,,,,,,,,,1,1.7519169269944541,,,052,001,2019_May_21_1010,MusicAffectPsychophysiology2019,3.0.5,60.17564029575716,
To what extent did the music make you feel ,TENDER,30MonoWAV/30MonoS3.wav,1,1,3,11,,,,,1,4,20,10,0,9,9,10,,,,,,,,,2,1.3513130889914464,,,052,001,2019_May_21_1010,MusicAffectPsychophysiology2019,3.0.5,60.17564029575716,
To what extent did the music make you feel ,ALERT,30MonoWAV/30MonoS3.wav,1,1,3,11,,,,,1,4,20,10,0,10,10,8,,,,,,,,,3,1.2854037399956724,,,052,001,2019_May_21_1010,MusicAffectPsychophysiology2019,3.0.5,60.17564029575716,
To what extent did the music make you feel ,HAPPY,30MonoWAV/30MonoS3.wav,1,1,3,11,,,,,1,4,20,10,0,11,11,6,,,,,,,,,1,1.0856228070042562,,,052,001,2019_May_21_1010,MusicAffectPsychophysiology2019,3.0.5,60.17564029575716,
,,30MonoWAV/30MonoS3.wav,1,1,3,11,,,,,1,4,20,10,,,,,,,,,,,,,,,,,052,001,2019_May_21_1010,MusicAffectPsychophysiology2019,3.0.5,60.17564029575716,
To what extent did the music make you feel ,ALERT,30MonoWAV/30MonoF4.wav,1,2,2,4,,,,,1,5,21,3,0,0,0,8,,,4,2.235643236999749,4,0.16862005498842336,3,4.422977987007471,3,0.5362067520036362,,,052,001,2019_May_21_1010,MusicAffectPsychophysiology2019,3.0.5,60.17564029575716,
To what extent did the music make you feel ,SCARED,30MonoWAV/30MonoF4.wav,1,2,2,4,,,,,1,5,21,3,0,1,1,11,,,,,,,,,1,1.8688765530096134,,,052,001,2019_May_21_1010,MusicAffectPsychophysiology2019,3.0.5,60.17564029575716,
To what extent did the music make you feel ,TENDER,30MonoWAV/30MonoF4.wav,1,2,2,4,,,,,1,5,21,3,0,2,2,10,,,,,,,,,2,0.95249241500278,,,052,001,2019_May_21_1010,MusicAffectPsychophysiology2019,3.0.5,60.17564029575716,
To what extent did the music make you feel ,ANXIOUS ,30MonoWAV/30MonoF4.wav,1,2,2,4,,,,,1,5,21,3,0,3,3,1,,,,,,,,,4,1.1531073780060979,,,052,001,2019_May_21_1010,MusicAffectPsychophysiology2019,3.0.5,60.17564029575716,
To what extent did the music make you feel ,EXCITED,30MonoWAV/30MonoF4.wav,1,2,2,4,,,,,1,5,21,3,0,4,4,7,,,,,,,,,2,1.874804753009812,,,052,001,2019_May_21_1010,MusicAffectPsychophysiology2019,3.0.5,60.17564029575716,
To what extent did the music make you feel ,ASHAMED,30MonoWAV/30MonoF4.wav,1,2,2,4,,,,,1,5,21,3,0,5,5,4,,,,,,,,,1,0.5520859910029685,,,052,001,2019_May_21_1010,MusicAffectPsychophysiology2019,3.0.5,60.17564029575716,
To what extent did the music make you feel ,SAD,30MonoWAV/30MonoF4.wav,1,2,2,4,,,,,1,5,21,3,0,6,6,0,,,,,,,,,1,0.9171792599954642,,,052,001,2019_May_21_1010,MusicAffectPsychophysiology2019,3.0.5,60.17564029575716,
To what extent did the music make you feel ,FRUSTRATED,30MonoWAV/30MonoF4.wav,1,2,2,4,,,,,1,5,21,3,0,7,7,3,,,,,,,,,1,0.8018062899936922,,,052,001,2019_May_21_1010,MusicAffectPsychophysiology2019,3.0.5,60.17564029575716,
To what extent did the music make you feel ,HAPPY,30MonoWAV/30MonoF4.wav,1,2,2,4,,,,,1,5,21,3,0,8,8,6,,,,,,,,,1,1.0528551189927384,,,052,001,2019_May_21_1010,MusicAffectPsychophysiology2019,3.0.5,60.17564029575716,
To what extent did the music make you feel ,GUILTY,30MonoWAV/30MonoF4.wav,1,2,2,4,,,,,1,5,21,3,0,9,9,5,,,,,,,,,1,0.6346057219925569,,,052,001,2019_May_21_1010,MusicAffectPsychophysiology2019,3.0.5,60.17564029575716,
To what extent did the music make you feel ,ACTIVE,30MonoWAV/30MonoF4.wav,1,2,2,4,,,,,1,5,21,3,0,10,10,9,,,,,,,,,3,1.6529323249997105,,,052,001,2019_May_21_1010,MusicAffectPsychophysiology2019,3.0.5,60.17564029575716,
To what extent did the music make you feel ,ANGRY,30MonoWAV/30MonoF4.wav,1,2,2,4,,,,,1,5,21,3,0,11,11,2,,,,,,,,,1,0.7354435000015656,,,052,001,2019_May_21_1010,MusicAffectPsychophysiology2019,3.0.5,60.17564029575716,
,,30MonoWAV/30MonoF4.wav,1,2,2,4,,,,,1,5,21,3,,,,,,,,,,,,,,,,,052,001,2019_May_21_1010,MusicAffectPsychophysiology2019,3.0.5,60.17564029575716,
To what extent did the music make you feel ,EXCITED,30MonoWAV/30MonoT3.wav,2,1,4,15,,,,,1,6,22,14,0,0,0,7,,,3,4.615626159997191,3,1.4174785209906986,1,2.268608144004247,1,2.2515024910098873,,,052,001,2019_May_21_1010,MusicAffectPsychophysiology2019,3.0.5,60.17564029575716,
To what extent did the music make you feel ,ACTIVE,30MonoWAV/30MonoT3.wav,2,1,4,15,,,,,1,6,22,14,0,1,1,9,,,,,,,,,1,0.9997205219988246,,,052,001,2019_May_21_1010,MusicAffectPsychophysiology2019,3.0.5,60.17564029575716,
To what extent did the music make you feel ,GUILTY,30MonoWAV/30MonoT3.wav,2,1,4,15,,,,,1,6,22,14,0,2,2,5,,,,,,,,,1,0.4011998490022961,,,052,001,2019_May_21_1010,MusicAffectPsychophysiology2019,3.0.5,60.17564029575716,
To what extent did the music make you feel ,ALERT,30MonoWAV/30MonoT3.wav,2,1,4,15,,,,,1,6,22,14,0,3,3,8,,,,,,,,,1,0.5682229069934692,,,052,001,2019_May_21_1010,MusicAffectPsychophysiology2019,3.0.5,60.17564029575716,
To what extent did the music make you feel ,ANXIOUS ,30MonoWAV/30MonoT3.wav,2,1,4,15,,,,,1,6,22,14,0,4,4,1,,,,,,,,,1,1.1347614389960654,,,052,001,2019_May_21_1010,MusicAffectPsychophysiology2019,3.0.5,60.17564029575716,
To what extent did the music make you feel ,HAPPY,30MonoWAV/30MonoT3.wav,2,1,4,15,,,,,1,6,22,14,0,5,5,6,,,,,,,,,1,0.4185287940053968,,,052,001,2019_May_21_1010,MusicAffectPsychophysiology2019,3.0.5,60.17564029575716,
To what extent did the music make you feel ,SCARED,30MonoWAV/30MonoT3.wav,2,1,4,15,,,,,1,6,22,14,0,6,6,11,,,,,,,,,1,0.5014686549984617,,,052,001,2019_May_21_1010,MusicAffectPsychophysiology2019,3.0.5,60.17564029575716,
To what extent did the music make you feel ,ANGRY,30MonoWAV/30MonoT3.wav,2,1,4,15,,,,,1,6,22,14,0,7,7,2,,,,,,,,,1,1.5523399920057273,,,052,001,2019_May_21_1010,MusicAffectPsychophysiology2019,3.0.5,60.17564029575716,
To what extent did the music make you feel ,TENDER,30MonoWAV/30MonoT3.wav,2,1,4,15,,,,,1,6,22,14,0,8,8,10,,,,,,,,,1,0.7684328759933123,,,052,001,2019_May_21_1010,MusicAffectPsychophysiology2019,3.0.5,60.17564029575716,
To what extent did the music make you feel ,FRUSTRATED,30MonoWAV/30MonoT3.wav,2,1,4,15,,,,,1,6,22,14,0,9,9,3,,,,,,,,,2,1.0685266410000622,,,052,001,2019_May_21_1010,MusicAffectPsychophysiology2019,3.0.5,60.17564029575716,
To what extent did the music make you feel ,SAD,30MonoWAV/30MonoT3.wav,2,1,4,15,,,,,1,6,22,14,0,10,10,0,,,,,,,,,1,0.4507416499982355,,,052,001,2019_May_21_1010,MusicAffectPsychophysiology2019,3.0.5,60.17564029575716,
To what extent did the music make you feel ,ASHAMED,30MonoWAV/30MonoT3.wav,2,1,4,15,,,,,1,6,22,14,0,11,11,4,,,,,,,,,1,0.618403396991198,,,052,001,2019_May_21_1010,MusicAffectPsychophysiology2019,3.0.5,60.17564029575716,
,,30MonoWAV/30MonoT3.wav,2,1,4,15,,,,,1,6,22,14,,,,,,,,,,,,,,,,,052,001,2019_May_21_1010,MusicAffectPsychophysiology2019,3.0.5,60.17564029575716,
To what extent did the music make you feel ,SAD,30MonoWAV/30MonoS2.wav,1,1,3,10,,,,,1,7,23,9,0,0,0,0,,,2,9.74515101799625,2,0.5673731749993749,4,2.2018192219984485,4,5.99887512899295,,,052,001,2019_May_21_1010,MusicAffectPsychophysiology2019,3.0.5,60.17564029575716,
To what extent did the music make you feel ,TENDER,30MonoWAV/30MonoS2.wav,1,1,3,10,,,,,1,7,23,9,0,1,1,10,,,,,,,,,2,1.7181876139948145,,,052,001,2019_May_21_1010,MusicAffectPsychophysiology2019,3.0.5,60.17564029575716,
To what extent did the music make you feel ,ANGRY,30MonoWAV/30MonoS2.wav,1,1,3,10,,,,,1,7,23,9,0,2,2,2,,,,,,,,,1,1.4834123899927363,,,052,001,2019_May_21_1010,MusicAffectPsychophysiology2019,3.0.5,60.17564029575716,
To what extent did the music make you feel ,HAPPY,30MonoWAV/30MonoS2.wav,1,1,3,10,,,,,1,7,23,9,0,3,3,6,,,,,,,,,1,0.56578076898586,,,052,001,2019_May_21_1010,MusicAffectPsychophysiology2019,3.0.5,60.17564029575716,
To what extent did the music make you feel ,FRUSTRATED,30MonoWAV/30MonoS2.wav,1,1,3,10,,,,,1,7,23,9,0,4,4,3,,,,,,,,,1,0.6678447669983143,,,052,001,2019_May_21_1010,MusicAffectPsychophysiology2019,3.0.5,60.17564029575716,
To what extent did the music make you feel ,EXCITED,30MonoWAV/30MonoS2.wav,1,1,3,10,,,,,1,7,23,9,0,5,5,7,,,,,,,,,1,0.7690298949892167,,,052,001,2019_May_21_1010,MusicAffectPsychophysiology2019,3.0.5,60.17564029575716,
To what extent did the music make you feel ,ALERT,30MonoWAV/30MonoS2.wav,1,1,3,10,,,,,1,7,23,9,0,6,6,8,,,,,,,,,1,0.9182549870020011,,,052,001,2019_May_21_1010,MusicAffectPsychophysiology2019,3.0.5,60.17564029575716,
To what extent did the music make you feel ,ASHAMED,30MonoWAV/30MonoS2.wav,1,1,3,10,,,,,1,7,23,9,0,7,7,4,,,,,,,,,1,0.7669515140005387,,,052,001,2019_May_21_1010,MusicAffectPsychophysiology2019,3.0.5,60.17564029575716,
To what extent did the music make you feel ,ANXIOUS ,30MonoWAV/30MonoS2.wav,1,1,3,10,,,,,1,7,23,9,0,8,8,1,,,,,,,,,3,1.9728324200114002,,,052,001,2019_May_21_1010,MusicAffectPsychophysiology2019,3.0.5,60.17564029575716,
To what extent did the music make you feel ,SCARED,30MonoWAV/30MonoS2.wav,1,1,3,10,,,,,1,7,23,9,0,9,9,11,,,,,,,,,1,0.38519248500233516,,,052,001,2019_May_21_1010,MusicAffectPsychophysiology2019,3.0.5,60.17564029575716,
To what extent did the music make you feel ,ACTIVE,30MonoWAV/30MonoS2.wav,1,1,3,10,,,,,1,7,23,9,0,10,10,9,,,,,,,,,1,0.9360146910039475,,,052,001,2019_May_21_1010,MusicAffectPsychophysiology2019,3.0.5,60.17564029575716,
To what extent did the music make you feel ,GUILTY,30MonoWAV/30MonoS2.wav,1,1,3,10,,,,,1,7,23,9,0,11,11,5,,,,,,,,,1,0.6355405389913358,,,052,001,2019_May_21_1010,MusicAffectPsychophysiology2019,3.0.5,60.17564029575716,
,,30MonoWAV/30MonoS2.wav,1,1,3,10,,,,,1,7,23,9,,,,,,,,,,,,,,,,,052,001,2019_May_21_1010,MusicAffectPsychophysiology2019,3.0.5,60.17564029575716,
To what extent did the music make you feel ,SAD,30MonoWAV/30MonoT4.wav,2,1,4,16,,,,,1,8,24,15,0,0,0,0,,,3,2.55170234500838,3,0.551515961997211,2,1.818113565997919,1,2.2018365349940723,,,052,001,2019_May_21_1010,MusicAffectPsychophysiology2019,3.0.5,60.17564029575716,
To what extent did the music make you feel ,FRUSTRATED,30MonoWAV/30MonoT4.wav,2,1,4,16,,,,,1,8,24,15,0,1,1,3,,,,,,,,,1,0.7187890350032831,,,052,001,2019_May_21_1010,MusicAffectPsychophysiology2019,3.0.5,60.17564029575716,
To what extent did the music make you feel ,SCARED,30MonoWAV/30MonoT4.wav,2,1,4,16,,,,,1,8,24,15,0,2,2,11,,,,,,,,,1,0.4171552170009818,,,052,001,2019_May_21_1010,MusicAffectPsychophysiology2019,3.0.5,60.17564029575716,
To what extent did the music make you feel ,GUILTY,30MonoWAV/30MonoT4.wav,2,1,4,16,,,,,1,8,24,15,0,3,3,5,,,,,,,,,1,0.3679403239948442,,,052,001,2019_May_21_1010,MusicAffectPsychophysiology2019,3.0.5,60.17564029575716,
To what extent did the music make you feel ,ACTIVE,30MonoWAV/30MonoT4.wav,2,1,4,16,,,,,1,8,24,15,0,4,4,9,,,,,,,,,1,0.3518367340002442,,,052,001,2019_May_21_1010,MusicAffectPsychophysiology2019,3.0.5,60.17564029575716,
To what extent did the music make you feel ,HAPPY,30MonoWAV/30MonoT4.wav,2,1,4,16,,,,,1,8,24,15,0,5,5,6,,,,,,,,,3,1.7018333890009671,,,052,001,2019_May_21_1010,MusicAffectPsychophysiology2019,3.0.5,60.17564029575716,
To what extent did the music make you feel ,ALERT,30MonoWAV/30MonoT4.wav,2,1,4,16,,,,,1,8,24,15,0,6,6,8,,,,,,,,,1,0.8851731660106452,,,052,001,2019_May_21_1010,MusicAffectPsychophysiology2019,3.0.5,60.17564029575716,
To what extent did the music make you feel ,ASHAMED,30MonoWAV/30MonoT4.wav,2,1,4,16,,,,,1,8,24,15,0,7,7,4,,,,,,,,,1,0.6019736450107303,,,052,001,2019_May_21_1010,MusicAffectPsychophysiology2019,3.0.5,60.17564029575716,
To what extent did the music make you feel ,ANGRY,30MonoWAV/30MonoT4.wav,2,1,4,16,,,,,1,8,24,15,0,8,8,2,,,,,,,,,1,0.40018362800765317,,,052,001,2019_May_21_1010,MusicAffectPsychophysiology2019,3.0.5,60.17564029575716,
To what extent did the music make you feel ,TENDER,30MonoWAV/30MonoT4.wav,2,1,4,16,,,,,1,8,24,15,0,9,9,10,,,,,,,,,1,0.4020078010071302,,,052,001,2019_May_21_1010,MusicAffectPsychophysiology2019,3.0.5,60.17564029575716,
To what extent did the music make you feel ,EXCITED,30MonoWAV/30MonoT4.wav,2,1,4,16,,,,,1,8,24,15,0,10,10,7,,,,,,,,,2,0.8850043029960943,,,052,001,2019_May_21_1010,MusicAffectPsychophysiology2019,3.0.5,60.17564029575716,
To what extent did the music make you feel ,ANXIOUS ,30MonoWAV/30MonoT4.wav,2,1,4,16,,,,,1,8,24,15,0,11,11,1,,,,,,,,,1,0.6178722240001662,,,052,001,2019_May_21_1010,MusicAffectPsychophysiology2019,3.0.5,60.17564029575716,
,,30MonoWAV/30MonoT4.wav,2,1,4,16,,,,,1,8,24,15,,,,,,,,,,,,,,,,,052,001,2019_May_21_1010,MusicAffectPsychophysiology2019,3.0.5,60.17564029575716,
To what extent did the music make you feel ,ASHAMED,30MonoWAV/30MonoF2.wav,1,2,2,2,,,,,1,9,25,1,0,0,0,4,,,4,3.719032420995063,1,4.934941996005364,1,1.3848178440093761,1,0.985454257010133,,,052,001,2019_May_21_1010,MusicAffectPsychophysiology2019,3.0.5,60.17564029575716,
To what extent did the music make you feel ,ANGRY,30MonoWAV/30MonoF2.wav,1,2,2,2,,,,,1,9,25,1,0,1,1,2,,,,,,,,,1,0.4508629839983769,,,052,001,2019_May_21_1010,MusicAffectPsychophysiology2019,3.0.5,60.17564029575716,
To what extent did the music make you feel ,SAD,30MonoWAV/30MonoF2.wav,1,2,2,2,,,,,1,9,25,1,0,2,2,0,,,,,,,,,1,2.8534313190029934,,,052,001,2019_May_21_1010,MusicAffectPsychophysiology2019,3.0.5,60.17564029575716,
To what extent did the music make you feel ,GUILTY,30MonoWAV/30MonoF2.wav,1,2,2,2,,,,,1,9,25,1,0,3,3,5,,,,,,,,,1,0.7189449020079337,,,052,001,2019_May_21_1010,MusicAffectPsychophysiology2019,3.0.5,60.17564029575716,
To what extent did the music make you feel ,EXCITED,30MonoWAV/30MonoF2.wav,1,2,2,2,,,,,1,9,25,1,0,4,4,7,,,,,,,,,1,2.2346182319888612,,,052,001,2019_May_21_1010,MusicAffectPsychophysiology2019,3.0.5,60.17564029575716,
To what extent did the music make you feel ,SCARED,30MonoWAV/30MonoF2.wav,1,2,2,2,,,,,1,9,25,1,0,5,5,11,,,,,,,,,4,3.418149514007382,,,052,001,2019_May_21_1010,MusicAffectPsychophysiology2019,3.0.5,60.17564029575716,
To what extent did the music make you feel ,FRUSTRATED,30MonoWAV/30MonoF2.wav,1,2,2,2,,,,,1,9,25,1,0,6,6,3,,,,,,,,,3,1.9014624190022005,,,052,001,2019_May_21_1010,MusicAffectPsychophysiology2019,3.0.5,60.17564029575716,
To what extent did the music make you feel ,HAPPY,30MonoWAV/30MonoF2.wav,1,2,2,2,,,,,1,9,25,1,0,7,7,6,,,,,,,,,1,1.2846422719885595,,,052,001,2019_May_21_1010,MusicAffectPsychophysiology2019,3.0.5,60.17564029575716,
To what extent did the music make you feel ,ANXIOUS ,30MonoWAV/30MonoF2.wav,1,2,2,2,,,,,1,9,25,1,0,8,8,1,,,,,,,,,4,1.3854319829988526,,,052,001,2019_May_21_1010,MusicAffectPsychophysiology2019,3.0.5,60.17564029575716,
To what extent did the music make you feel ,ACTIVE,30MonoWAV/30MonoF2.wav,1,2,2,2,,,,,1,9,25,1,0,9,9,9,,,,,,,,,1,1.8691513009980554,,,052,001,2019_May_21_1010,MusicAffectPsychophysiology2019,3.0.5,60.17564029575716,
To what extent did the music make you feel ,TENDER,30MonoWAV/30MonoF2.wav,1,2,2,2,,,,,1,9,25,1,0,10,10,10,,,,,,,,,1,0.7849538899899926,,,052,001,2019_May_21_1010,MusicAffectPsychophysiology2019,3.0.5,60.17564029575716,
To what extent did the music make you feel ,ALERT,30MonoWAV/30MonoF2.wav,1,2,2,2,,,,,1,9,25,1,0,11,11,8,,,,,,,,,5,1.4342050539999036,,,052,001,2019_May_21_1010,MusicAffectPsychophysiology2019,3.0.5,60.17564029575716,
,,30MonoWAV/30MonoF2.wav,1,2,2,2,,,,,1,9,25,1,,,,,,,,,,,,,,,,,052,001,2019_May_21_1010,MusicAffectPsychophysiology2019,3.0.5,60.17564029575716,
To what extent did the music make you feel ,ANXIOUS ,30MonoWAV/30MonoT2.wav,2,1,4,14,,,,,1,10,26,13,0,0,0,1,,,3,8.425164962987765,3,0.9344176910090027,3,1.9189512160082813,1,1.0961841810058104,,,052,001,2019_May_21_1010,MusicAffectPsychophysiology2019,3.0.5,60.17564029575716,
To what extent did the music make you feel ,SAD,30MonoWAV/30MonoT2.wav,2,1,4,14,,,,,1,10,26,13,0,1,1,0,,,,,,,,,1,0.4190327679971233,,,052,001,2019_May_21_1010,MusicAffectPsychophysiology2019,3.0.5,60.17564029575716,
To what extent did the music make you feel ,SCARED,30MonoWAV/30MonoT2.wav,2,1,4,14,,,,,1,10,26,13,0,2,2,11,,,,,,,,,1,0.2844901909993496,,,052,001,2019_May_21_1010,MusicAffectPsychophysiology2019,3.0.5,60.17564029575716,
To what extent did the music make you feel ,ALERT,30MonoWAV/30MonoT2.wav,2,1,4,14,,,,,1,10,26,13,0,3,3,8,,,,,,,,,1,0.3346647799917264,,,052,001,2019_May_21_1010,MusicAffectPsychophysiology2019,3.0.5,60.17564029575716,
To what extent did the music make you feel ,ACTIVE,30MonoWAV/30MonoT2.wav,2,1,4,14,,,,,1,10,26,13,0,4,4,9,,,,,,,,,1,0.4017570559954038,,,052,001,2019_May_21_1010,MusicAffectPsychophysiology2019,3.0.5,60.17564029575716,
To what extent did the music make you feel ,EXCITED,30MonoWAV/30MonoT2.wav,2,1,4,14,,,,,1,10,26,13,0,5,5,7,,,,,,,,,1,0.6517561959917657,,,052,001,2019_May_21_1010,MusicAffectPsychophysiology2019,3.0.5,60.17564029575716,
To what extent did the music make you feel ,ANGRY,30MonoWAV/30MonoT2.wav,2,1,4,14,,,,,1,10,26,13,0,6,6,2,,,,,,,,,1,0.5180656929878751,,,052,001,2019_May_21_1010,MusicAffectPsychophysiology2019,3.0.5,60.17564029575716,
To what extent did the music make you feel ,GUILTY,30MonoWAV/30MonoT2.wav,2,1,4,14,,,,,1,10,26,13,0,7,7,5,,,,,,,,,1,0.46865003601124045,,,052,001,2019_May_21_1010,MusicAffectPsychophysiology2019,3.0.5,60.17564029575716,
To what extent did the music make you feel ,ASHAMED,30MonoWAV/30MonoT2.wav,2,1,4,14,,,,,1,10,26,13,0,8,8,4,,,,,,,,,1,0.4844993639999302,,,052,001,2019_May_21_1010,MusicAffectPsychophysiology2019,3.0.5,60.17564029575716,
To what extent did the music make you feel ,FRUSTRATED,30MonoWAV/30MonoT2.wav,2,1,4,14,,,,,1,10,26,13,0,9,9,3,,,,,,,,,1,0.4016339789959602,,,052,001,2019_May_21_1010,MusicAffectPsychophysiology2019,3.0.5,60.17564029575716,
To what extent did the music make you feel ,HAPPY,30MonoWAV/30MonoT2.wav,2,1,4,14,,,,,1,10,26,13,0,10,10,6,,,,,,,,,3,0.9356251410063123,,,052,001,2019_May_21_1010,MusicAffectPsychophysiology2019,3.0.5,60.17564029575716,
To what extent did the music make you feel ,TENDER,30MonoWAV/30MonoT2.wav,2,1,4,14,,,,,1,10,26,13,0,11,11,10,,,,,,,,,1,0.4190921239933232,,,052,001,2019_May_21_1010,MusicAffectPsychophysiology2019,3.0.5,60.17564029575716,
,,30MonoWAV/30MonoT2.wav,2,1,4,14,,,,,1,10,26,13,,,,,,,,,,,,,,,,,052,001,2019_May_21_1010,MusicAffectPsychophysiology2019,3.0.5,60.17564029575716,
To what extent did the music make you feel ,SAD,30MonoWAV/30MonoF3.wav,1,2,2,3,,,,,1,11,27,2,0,0,0,0,,,3,10.467762465996202,2,4.185285049999948,3,1.801908684996306,1,1.451081963008619,,,052,001,2019_May_21_1010,MusicAffectPsychophysiology2019,3.0.5,60.17564029575716,
To what extent did the music make you feel ,ALERT,30MonoWAV/30MonoF3.wav,1,2,2,3,,,,,1,11,27,2,0,1,1,8,,,,,,,,,1,0.5513898240023991,,,052,001,2019_May_21_1010,MusicAffectPsychophysiology2019,3.0.5,60.17564029575716,
To what extent did the music make you feel ,ANXIOUS ,30MonoWAV/30MonoF3.wav,1,2,2,3,,,,,1,11,27,2,0,2,2,1,,,,,,,,,4,1.0024175720027415,,,052,001,2019_May_21_1010,MusicAffectPsychophysiology2019,3.0.5,60.17564029575716,
To what extent did the music make you feel ,GUILTY,30MonoWAV/30MonoF3.wav,1,2,2,3,,,,,1,11,27,2,0,3,3,5,,,,,,,,,1,1.1348904670012416,,,052,001,2019_May_21_1010,MusicAffectPsychophysiology2019,3.0.5,60.17564029575716,
To what extent did the music make you feel ,HAPPY,30MonoWAV/30MonoF3.wav,1,2,2,3,,,,,1,11,27,2,0,4,4,6,,,,,,,,,1,1.2349585610063514,,,052,001,2019_May_21_1010,MusicAffectPsychophysiology2019,3.0.5,60.17564029575716,
To what extent did the music make you feel ,ANGRY,30MonoWAV/30MonoF3.wav,1,2,2,3,,,,,1,11,27,2,0,5,5,2,,,,,,,,,1,0.5019206790020689,,,052,001,2019_May_21_1010,MusicAffectPsychophysiology2019,3.0.5,60.17564029575716,
To what extent did the music make you feel ,SCARED,30MonoWAV/30MonoF3.wav,1,2,2,3,,,,,1,11,27,2,0,6,6,11,,,,,,,,,4,1.267597605008632,,,052,001,2019_May_21_1010,MusicAffectPsychophysiology2019,3.0.5,60.17564029575716,
To what extent did the music make you feel ,FRUSTRATED,30MonoWAV/30MonoF3.wav,1,2,2,3,,,,,1,11,27,2,0,7,7,3,,,,,,,,,2,1.4008732210058952,,,052,001,2019_May_21_1010,MusicAffectPsychophysiology2019,3.0.5,60.17564029575716,
To what extent did the music make you feel ,ACTIVE,30MonoWAV/30MonoF3.wav,1,2,2,3,,,,,1,11,27,2,0,8,8,9,,,,,,,,,1,0.5017811750003602,,,052,001,2019_May_21_1010,MusicAffectPsychophysiology2019,3.0.5,60.17564029575716,
To what extent did the music make you feel ,TENDER,30MonoWAV/30MonoF3.wav,1,2,2,3,,,,,1,11,27,2,0,9,9,10,,,,,,,,,1,0.7850798790022964,,,052,001,2019_May_21_1010,MusicAffectPsychophysiology2019,3.0.5,60.17564029575716,
To what extent did the music make you feel ,EXCITED,30MonoWAV/30MonoF3.wav,1,2,2,3,,,,,1,11,27,2,0,10,10,7,,,,,,,,,1,0.7003950469952542,,,052,001,2019_May_21_1010,MusicAffectPsychophysiology2019,3.0.5,60.17564029575716,
To what extent did the music make you feel ,ASHAMED,30MonoWAV/30MonoF3.wav,1,2,2,3,,,,,1,11,27,2,0,11,11,4,,,,,,,,,1,0.601138957994408,,,052,001,2019_May_21_1010,MusicAffectPsychophysiology2019,3.0.5,60.17564029575716,
,,30MonoWAV/30MonoF3.wav,1,2,2,3,,,,,1,11,27,2,,,,,,,,,,,,,,,,,052,001,2019_May_21_1010,MusicAffectPsychophysiology2019,3.0.5,60.17564029575716,
To what extent did the music make you feel ,ASHAMED,30MonoWAV/30MonoH1.wav,2,2,1,5,,,,,1,12,28,4,0,0,0,4,,,3,5.809961958002532,3,0.567180202997406,1,2.8186933970137034,1,4.634225831003278,,,052,001,2019_May_21_1010,MusicAffectPsychophysiology2019,3.0.5,60.17564029575716,
To what extent did the music make you feel ,GUILTY,30MonoWAV/30MonoH1.wav,2,2,1,5,,,,,1,12,28,4,0,1,1,5,,,,,,,,,1,1.0850810460106004,,,052,001,2019_May_21_1010,MusicAffectPsychophysiology2019,3.0.5,60.17564029575716,
To what extent did the music make you feel ,SAD,30MonoWAV/30MonoH1.wav,2,2,1,5,,,,,1,12,28,4,0,2,2,0,,,,,,,,,1,0.25147352799831424,,,052,001,2019_May_21_1010,MusicAffectPsychophysiology2019,3.0.5,60.17564029575716,
To what extent did the music make you feel ,ALERT,30MonoWAV/30MonoH1.wav,2,2,1,5,,,,,1,12,28,4,0,3,3,8,,,,,,,,,1,0.35103465399879497,,,052,001,2019_May_21_1010,MusicAffectPsychophysiology2019,3.0.5,60.17564029575716,
To what extent did the music make you feel ,EXCITED,30MonoWAV/30MonoH1.wav,2,2,1,5,,,,,1,12,28,4,0,4,4,7,,,,,,,,,1,0.3518111890007276,,,052,001,2019_May_21_1010,MusicAffectPsychophysiology2019,3.0.5,60.17564029575716,
To what extent did the music make you feel ,HAPPY,30MonoWAV/30MonoH1.wav,2,2,1,5,,,,,1,12,28,4,0,5,5,6,,,,,,,,,2,1.1020783069980098,,,052,001,2019_May_21_1010,MusicAffectPsychophysiology2019,3.0.5,60.17564029575716,
To what extent did the music make you feel ,TENDER,30MonoWAV/30MonoH1.wav,2,2,1,5,,,,,1,12,28,4,0,6,6,10,,,,,,,,,1,0.26893653500883374,,,052,001,2019_May_21_1010,MusicAffectPsychophysiology2019,3.0.5,60.17564029575716,
To what extent did the music make you feel ,SCARED,30MonoWAV/30MonoH1.wav,2,2,1,5,,,,,1,12,28,4,0,7,7,11,,,,,,,,,1,1.3684861740039196,,,052,001,2019_May_21_1010,MusicAffectPsychophysiology2019,3.0.5,60.17564029575716,
To what extent did the music make you feel ,ACTIVE,30MonoWAV/30MonoH1.wav,2,2,1,5,,,,,1,12,28,4,0,8,8,9,,,,,,,,,2,0.9358161150012165,,,052,001,2019_May_21_1010,MusicAffectPsychophysiology2019,3.0.5,60.17564029575716,
To what extent did the music make you feel ,FRUSTRATED,30MonoWAV/30MonoH1.wav,2,2,1,5,,,,,1,12,28,4,0,9,9,3,,,,,,,,,1,0.7007768540061079,,,052,001,2019_May_21_1010,MusicAffectPsychophysiology2019,3.0.5,60.17564029575716,
To what extent did the music make you feel ,ANXIOUS ,30MonoWAV/30MonoH1.wav,2,2,1,5,,,,,1,12,28,4,0,10,10,1,,,,,,,,,2,0.6021498879999854,,,052,001,2019_May_21_1010,MusicAffectPsychophysiology2019,3.0.5,60.17564029575716,
To what extent did the music make you feel ,ANGRY,30MonoWAV/30MonoH1.wav,2,2,1,5,,,,,1,12,28,4,0,11,11,2,,,,,,,,,1,0.5685355739988154,,,052,001,2019_May_21_1010,MusicAffectPsychophysiology2019,3.0.5,60.17564029575716,
,,30MonoWAV/30MonoH1.wav,2,2,1,5,,,,,1,12,28,4,,,,,,,,,,,,,,,,,052,001,2019_May_21_1010,MusicAffectPsychophysiology2019,3.0.5,60.17564029575716,
To what extent did the music make you feel ,ASHAMED,30MonoWAV/30MonoS1.wav,1,1,3,9,,,,,1,13,29,8,0,0,0,4,,,3,2.567697236998356,1,2.8675082069967175,5,1.3520683249953436,3,3.134782995999558,,,052,001,2019_May_21_1010,MusicAffectPsychophysiology2019,3.0.5,60.17564029575716,
To what extent did the music make you feel ,ALERT,30MonoWAV/30MonoS1.wav,1,1,3,9,,,,,1,13,29,8,0,1,1,8,,,,,,,,,4,1.2684557419997873,,,052,001,2019_May_21_1010,MusicAffectPsychophysiology2019,3.0.5,60.17564029575716,
To what extent did the music make you feel ,FRUSTRATED,30MonoWAV/30MonoS1.wav,1,1,3,9,,,,,1,13,29,8,0,2,2,3,,,,,,,,,1,1.1838290540035814,,,052,001,2019_May_21_1010,MusicAffectPsychophysiology2019,3.0.5,60.17564029575716,
To what extent did the music make you feel ,HAPPY,30MonoWAV/30MonoS1.wav,1,1,3,9,,,,,1,13,29,8,0,3,3,6,,,,,,,,,1,0.7727633749891538,,,052,001,2019_May_21_1010,MusicAffectPsychophysiology2019,3.0.5,60.17564029575716,
To what extent did the music make you feel ,SCARED,30MonoWAV/30MonoS1.wav,1,1,3,9,,,,,1,13,29,8,0,4,4,11,,,,,,,,,1,1.1530512919998728,,,052,001,2019_May_21_1010,MusicAffectPsychophysiology2019,3.0.5,60.17564029575716,
To what extent did the music make you feel ,EXCITED,30MonoWAV/30MonoS1.wav,1,1,3,9,,,,,1,13,29,8,0,5,5,7,,,,,,,,,1,1.0198250630055554,,,052,001,2019_May_21_1010,MusicAffectPsychophysiology2019,3.0.5,60.17564029575716,
To what extent did the music make you feel ,TENDER,30MonoWAV/30MonoS1.wav,1,1,3,9,,,,,1,13,29,8,0,6,6,10,,,,,,,,,2,1.586077493004268,,,052,001,2019_May_21_1010,MusicAffectPsychophysiology2019,3.0.5,60.17564029575716,
To what extent did the music make you feel ,GUILTY,30MonoWAV/30MonoS1.wav,1,1,3,9,,,,,1,13,29,8,0,7,7,5,,,,,,,,,3,1.3361425549956039,,,052,001,2019_May_21_1010,MusicAffectPsychophysiology2019,3.0.5,60.17564029575716,
To what extent did the music make you feel ,ANGRY,30MonoWAV/30MonoS1.wav,1,1,3,9,,,,,1,13,29,8,0,8,8,2,,,,,,,,,1,0.8534274929988896,,,052,001,2019_May_21_1010,MusicAffectPsychophysiology2019,3.0.5,60.17564029575716,
To what extent did the music make you feel ,ACTIVE,30MonoWAV/30MonoS1.wav,1,1,3,9,,,,,1,13,29,8,0,9,9,9,,,,,,,,,1,0.9900098770012846,,,052,001,2019_May_21_1010,MusicAffectPsychophysiology2019,3.0.5,60.17564029575716,
To what extent did the music make you feel ,ANXIOUS ,30MonoWAV/30MonoS1.wav,1,1,3,9,,,,,1,13,29,8,0,10,10,1,,,,,,,,,3,1.5839392180059804,,,052,001,2019_May_21_1010,MusicAffectPsychophysiology2019,3.0.5,60.17564029575716,
To what extent did the music make you feel ,SAD,30MonoWAV/30MonoS1.wav,1,1,3,9,,,,,1,13,29,8,0,11,11,0,,,,,,,,,4,1.2360150739987148,,,052,001,2019_May_21_1010,MusicAffectPsychophysiology2019,3.0.5,60.17564029575716,
,,30MonoWAV/30MonoS1.wav,1,1,3,9,,,,,1,13,29,8,,,,,,,,,,,,,,,,,052,001,2019_May_21_1010,MusicAffectPsychophysiology2019,3.0.5,60.17564029575716,
To what extent did the music make you feel ,TENDER,30MonoWAV/30MonoH2.wav,2,2,1,6,,,,,1,14,30,5,0,0,0,10,,,3,4.567561969000963,3,2.1683622780110454,2,5.18446268599655,2,7.414045247001923,,,052,001,2019_May_21_1010,MusicAffectPsychophysiology2019,3.0.5,60.17564029575716,
To what extent did the music make you feel ,ANGRY,30MonoWAV/30MonoH2.wav,2,2,1,6,,,,,1,14,30,5,0,1,1,2,,,,,,,,,1,0.8901353160035796,,,052,001,2019_May_21_1010,MusicAffectPsychophysiology2019,3.0.5,60.17564029575716,
To what extent did the music make you feel ,SAD,30MonoWAV/30MonoH2.wav,2,2,1,6,,,,,1,14,30,5,0,2,2,0,,,,,,,,,1,0.9520666680036811,,,052,001,2019_May_21_1010,MusicAffectPsychophysiology2019,3.0.5,60.17564029575716,
To what extent did the music make you feel ,GUILTY,30MonoWAV/30MonoH2.wav,2,2,1,6,,,,,1,14,30,5,0,3,3,5,,,,,,,,,1,1.1181399030028842,,,052,001,2019_May_21_1010,MusicAffectPsychophysiology2019,3.0.5,60.17564029575716,
To what extent did the music make you feel ,EXCITED,30MonoWAV/30MonoH2.wav,2,2,1,6,,,,,1,14,30,5,0,4,4,7,,,,,,,,,2,1.418169868993573,,,052,001,2019_May_21_1010,MusicAffectPsychophysiology2019,3.0.5,60.17564029575716,
To what extent did the music make you feel ,HAPPY,30MonoWAV/30MonoH2.wav,2,2,1,6,,,,,1,14,30,5,0,5,5,6,,,,,,,,,2,0.9998558459919877,,,052,001,2019_May_21_1010,MusicAffectPsychophysiology2019,3.0.5,60.17564029575716,
To what extent did the music make you feel ,SCARED,30MonoWAV/30MonoH2.wav,2,2,1,6,,,,,1,14,30,5,0,6,6,11,,,,,,,,,1,0.6681550930079538,,,052,001,2019_May_21_1010,MusicAffectPsychophysiology2019,3.0.5,60.17564029575716,
To what extent did the music make you feel ,ACTIVE,30MonoWAV/30MonoH2.wav,2,2,1,6,,,,,1,14,30,5,0,7,7,9,,,,,,,,,2,0.8686260590038728,,,052,001,2019_May_21_1010,MusicAffectPsychophysiology2019,3.0.5,60.17564029575716,
To what extent did the music make you feel ,ALERT,30MonoWAV/30MonoH2.wav,2,2,1,6,,,,,1,14,30,5,0,8,8,8,,,,,,,,,2,1.2519822140020551,,,052,001,2019_May_21_1010,MusicAffectPsychophysiology2019,3.0.5,60.17564029575716,
To what extent did the music make you feel ,FRUSTRATED,30MonoWAV/30MonoH2.wav,2,2,1,6,,,,,1,14,30,5,0,9,9,3,,,,,,,,,1,0.6189095849986188,,,052,001,2019_May_21_1010,MusicAffectPsychophysiology2019,3.0.5,60.17564029575716,
To what extent did the music make you feel ,ASHAMED,30MonoWAV/30MonoH2.wav,2,2,1,6,,,,,1,14,30,5,0,10,10,4,,,,,,,,,1,0.6349155999923823,,,052,001,2019_May_21_1010,MusicAffectPsychophysiology2019,3.0.5,60.17564029575716,
To what extent did the music make you feel ,ANXIOUS ,30MonoWAV/30MonoH2.wav,2,2,1,6,,,,,1,14,30,5,0,11,11,1,,,,,,,,,1,0.5678891599964118,,,052,001,2019_May_21_1010,MusicAffectPsychophysiology2019,3.0.5,60.17564029575716,
,,30MonoWAV/30MonoH2.wav,2,2,1,6,,,,,1,14,30,5,,,,,,,,,,,,,,,,,052,001,2019_May_21_1010,MusicAffectPsychophysiology2019,3.0.5,60.17564029575716,
To what extent did the music make you feel ,ANXIOUS ,30MonoWAV/30MonoT1.wav,2,1,4,13,,,,,1,15,31,12,0,0,0,1,,,2,7.871342837010161,4,7.051685123995412,4,1.7334903300070437,1,2.6518455510085914,,,052,001,2019_May_21_1010,MusicAffectPsychophysiology2019,3.0.5,60.17564029575716,
To what extent did the music make you feel ,TENDER,30MonoWAV/30MonoT1.wav,2,1,4,13,,,,,1,15,31,12,0,1,1,10,,,,,,,,,1,0.8689903170015896,,,052,001,2019_May_21_1010,MusicAffectPsychophysiology2019,3.0.5,60.17564029575716,
To what extent did the music make you feel ,GUILTY,30MonoWAV/30MonoT1.wav,2,1,4,13,,,,,1,15,31,12,0,2,2,5,,,,,,,,,1,0.43478202099504415,,,052,001,2019_May_21_1010,MusicAffectPsychophysiology2019,3.0.5,60.17564029575716,
To what extent did the music make you feel ,EXCITED,30MonoWAV/30MonoT1.wav,2,1,4,13,,,,,1,15,31,12,0,3,3,7,,,,,,,,,3,1.400589675991796,,,052,001,2019_May_21_1010,MusicAffectPsychophysiology2019,3.0.5,60.17564029575716,
To what extent did the music make you feel ,SCARED,30MonoWAV/30MonoT1.wav,2,1,4,13,,,,,1,15,31,12,0,4,4,11,,,,,,,,,1,0.7016022210009396,,,052,001,2019_May_21_1010,MusicAffectPsychophysiology2019,3.0.5,60.17564029575716,
To what extent did the music make you feel ,ACTIVE,30MonoWAV/30MonoT1.wav,2,1,4,13,,,,,1,15,31,12,0,5,5,9,,,,,,,,,3,1.134945522993803,,,052,001,2019_May_21_1010,MusicAffectPsychophysiology2019,3.0.5,60.17564029575716,
To what extent did the music make you feel ,HAPPY,30MonoWAV/30MonoT1.wav,2,1,4,13,,,,,1,15,31,12,0,6,6,6,,,,,,,,,3,0.9180385819927324,,,052,001,2019_May_21_1010,MusicAffectPsychophysiology2019,3.0.5,60.17564029575716,
To what extent did the music make you feel ,ANGRY,30MonoWAV/30MonoT1.wav,2,1,4,13,,,,,1,15,31,12,0,7,7,2,,,,,,,,,1,0.5359223190025659,,,052,001,2019_May_21_1010,MusicAffectPsychophysiology2019,3.0.5,60.17564029575716,
To what extent did the music make you feel ,ALERT,30MonoWAV/30MonoT1.wav,2,1,4,13,,,,,1,15,31,12,0,8,8,8,,,,,,,,,3,0.8013116499932948,,,052,001,2019_May_21_1010,MusicAffectPsychophysiology2019,3.0.5,60.17564029575716,
To what extent did the music make you feel ,SAD,30MonoWAV/30MonoT1.wav,2,1,4,13,,,,,1,15,31,12,0,9,9,0,,,,,,,,,1,1.034994606001419,,,052,001,2019_May_21_1010,MusicAffectPsychophysiology2019,3.0.5,60.17564029575716,
To what extent did the music make you feel ,FRUSTRATED,30MonoWAV/30MonoT1.wav,2,1,4,13,,,,,1,15,31,12,0,10,10,3,,,,,,,,,1,0.5016267720056931,,,052,001,2019_May_21_1010,MusicAffectPsychophysiology2019,3.0.5,60.17564029575716,
To what extent did the music make you feel ,ASHAMED,30MonoWAV/30MonoT1.wav,2,1,4,13,,,,,1,15,31,12,0,11,11,4,,,,,,,,,1,0.5356371600064449,,,052,001,2019_May_21_1010,MusicAffectPsychophysiology2019,3.0.5,60.17564029575716,
,,30MonoWAV/30MonoT1.wav,2,1,4,13,,,,,1,15,31,12,,,,,,,,,,,,,,,,,052,001,2019_May_21_1010,MusicAffectPsychophysiology2019,3.0.5,60.17564029575716,
,,,,,,,,,,,,,,,,,,,,,,,,,,,,,space,7.509212689998094,052,001,2019_May_21_1010,MusicAffectPsychophysiology2019,3.0.5,60.17564029575716,
