Instruction,Word,song,valence,arousal,affectcat,songmark,pracwords.thisRepN,pracwords.thisTrialN,pracwords.thisN,pracwords.thisIndex,songtrials.thisRepN,songtrials.thisTrialN,songtrials.thisN,songtrials.thisIndex,words.thisRepN,words.thisTrialN,words.thisN,words.thisIndex,begin.keys,begin.rt,arousalkey.keys,arousalkey.rt,valencekey.keys,valencekey.rt,likekey.keys,likekey.rt,WordResponse.keys,WordResponse.rt,key_resp_2.keys,key_resp_2.rt,participant,session,date,expName,psychopyVersion,frameRate,
,,,,,,,,,,,,,,,,,,,space,23.158878162998008,,,,,,,,,,,053,001,2019_May_21_1106,MusicAffectPsychophysiology2019,3.0.5,59.9769302340046,
,,,,,,,,,,,,,,,,,,,,,2,8.901018339995062,,,,,,,,,053,001,2019_May_21_1106,MusicAffectPsychophysiology2019,3.0.5,59.9769302340046,
,,,,,,,,,,,,,,,,,,,,,,,4,4.100701955001568,,,,,,,053,001,2019_May_21_1106,MusicAffectPsychophysiology2019,3.0.5,59.9769302340046,
,,,,,,,,,,,,,,,,,,,,,,,,,3,4.98390027100686,,,,,053,001,2019_May_21_1106,MusicAffectPsychophysiology2019,3.0.5,59.9769302340046,
To what extent did the music make you feel ,ASHAMED,,,,,,0,0,0,4,,,,,,,,,,,,,,,,,1,6.057256471001892,,,053,001,2019_May_21_1106,MusicAffectPsychophysiology2019,3.0.5,59.9769302340046,
To what extent did the music make you feel ,EXCITED,,,,,,0,1,1,7,,,,,,,,,,,,,,,,,2,1.937831200993969,,,053,001,2019_May_21_1106,MusicAffectPsychophysiology2019,3.0.5,59.9769302340046,
To what extent did the music make you feel ,FRUSTRATED,,,,,,0,2,2,3,,,,,,,,,,,,,,,,,1,2.5543058189941803,,,053,001,2019_May_21_1106,MusicAffectPsychophysiology2019,3.0.5,59.9769302340046,
To what extent did the music make you feel ,SCARED,,,,,,0,3,3,11,,,,,,,,,,,,,,,,,1,1.0687863069906598,,,053,001,2019_May_21_1106,MusicAffectPsychophysiology2019,3.0.5,59.9769302340046,
To what extent did the music make you feel ,SAD,,,,,,0,4,4,0,,,,,,,,,,,,,,,,,1,1.419799499999499,,,053,001,2019_May_21_1106,MusicAffectPsychophysiology2019,3.0.5,59.9769302340046,
To what extent did the music make you feel ,ANGRY,,,,,,0,5,5,2,,,,,,,,,,,,,,,,,1,1.5238533270021435,,,053,001,2019_May_21_1106,MusicAffectPsychophysiology2019,3.0.5,59.9769302340046,
To what extent did the music make you feel ,TENDER,,,,,,0,6,6,10,,,,,,,,,,,,,,,,,4,3.551683174999198,,,053,001,2019_May_21_1106,MusicAffectPsychophysiology2019,3.0.5,59.9769302340046,
To what extent did the music make you feel ,ANXIOUS ,,,,,,0,7,7,1,,,,,,,,,,,,,,,,,1,1.6347727319953265,,,053,001,2019_May_21_1106,MusicAffectPsychophysiology2019,3.0.5,59.9769302340046,
To what extent did the music make you feel ,GUILTY,,,,,,0,8,8,5,,,,,,,,,,,,,,,,,1,1.4349117960082367,,,053,001,2019_May_21_1106,MusicAffectPsychophysiology2019,3.0.5,59.9769302340046,
To what extent did the music make you feel ,HAPPY,,,,,,0,9,9,6,,,,,,,,,,,,,,,,,3,4.451375317003112,,,053,001,2019_May_21_1106,MusicAffectPsychophysiology2019,3.0.5,59.9769302340046,
To what extent did the music make you feel ,ALERT,,,,,,0,10,10,8,,,,,,,,,,,,,,,,,1,1.151536784003838,,,053,001,2019_May_21_1106,MusicAffectPsychophysiology2019,3.0.5,59.9769302340046,
To what extent did the music make you feel ,ACTIVE,,,,,,0,11,11,9,,,,,,,,,,,,,,,,,1,1.534990651998669,,,053,001,2019_May_21_1106,MusicAffectPsychophysiology2019,3.0.5,59.9769302340046,
To what extent did the music make you feel ,SAD,30MonoWAV/30MonoH3.wav,2,2,1,7,,,,,0,0,0,6,0,0,0,0,,,3,5.044041410990758,2,2.834498259006068,2,4.300701546002529,1,2.7341294729994843,,,053,001,2019_May_21_1106,MusicAffectPsychophysiology2019,3.0.5,59.9769302340046,
To what extent did the music make you feel ,ASHAMED,30MonoWAV/30MonoH3.wav,2,2,1,7,,,,,0,0,0,6,0,1,1,4,,,,,,,,,1,1.0500794899999164,,,053,001,2019_May_21_1106,MusicAffectPsychophysiology2019,3.0.5,59.9769302340046,
To what extent did the music make you feel ,FRUSTRATED,30MonoWAV/30MonoH3.wav,2,2,1,7,,,,,0,0,0,6,0,2,2,3,,,,,,,,,2,2.602129947990761,,,053,001,2019_May_21_1106,MusicAffectPsychophysiology2019,3.0.5,59.9769302340046,
To what extent did the music make you feel ,SCARED,30MonoWAV/30MonoH3.wav,2,2,1,7,,,,,0,0,0,6,0,3,3,11,,,,,,,,,1,1.3681002239900408,,,053,001,2019_May_21_1106,MusicAffectPsychophysiology2019,3.0.5,59.9769302340046,
To what extent did the music make you feel ,ANXIOUS ,30MonoWAV/30MonoH3.wav,2,2,1,7,,,,,0,0,0,6,0,4,4,1,,,,,,,,,1,4.170646616999875,,,053,001,2019_May_21_1106,MusicAffectPsychophysiology2019,3.0.5,59.9769302340046,
To what extent did the music make you feel ,HAPPY,30MonoWAV/30MonoH3.wav,2,2,1,7,,,,,0,0,0,6,0,5,5,6,,,,,,,,,3,1.6171448259992758,,,053,001,2019_May_21_1106,MusicAffectPsychophysiology2019,3.0.5,59.9769302340046,
To what extent did the music make you feel ,EXCITED,30MonoWAV/30MonoH3.wav,2,2,1,7,,,,,0,0,0,6,0,6,6,7,,,,,,,,,2,1.934163381010876,,,053,001,2019_May_21_1106,MusicAffectPsychophysiology2019,3.0.5,59.9769302340046,
To what extent did the music make you feel ,ANGRY,30MonoWAV/30MonoH3.wav,2,2,1,7,,,,,0,0,0,6,0,7,7,2,,,,,,,,,1,1.3677154399920255,,,053,001,2019_May_21_1106,MusicAffectPsychophysiology2019,3.0.5,59.9769302340046,
To what extent did the music make you feel ,GUILTY,30MonoWAV/30MonoH3.wav,2,2,1,7,,,,,0,0,0,6,0,8,8,5,,,,,,,,,1,0.9177867010002956,,,053,001,2019_May_21_1106,MusicAffectPsychophysiology2019,3.0.5,59.9769302340046,
To what extent did the music make you feel ,ALERT,30MonoWAV/30MonoH3.wav,2,2,1,7,,,,,0,0,0,6,0,9,9,8,,,,,,,,,3,2.5344375160057098,,,053,001,2019_May_21_1106,MusicAffectPsychophysiology2019,3.0.5,59.9769302340046,
To what extent did the music make you feel ,TENDER,30MonoWAV/30MonoH3.wav,2,2,1,7,,,,,0,0,0,6,0,10,10,10,,,,,,,,,2,3.1511801820015535,,,053,001,2019_May_21_1106,MusicAffectPsychophysiology2019,3.0.5,59.9769302340046,
To what extent did the music make you feel ,ACTIVE,30MonoWAV/30MonoH3.wav,2,2,1,7,,,,,0,0,0,6,0,11,11,9,,,,,,,,,4,2.3520296049973695,,,053,001,2019_May_21_1106,MusicAffectPsychophysiology2019,3.0.5,59.9769302340046,
,,30MonoWAV/30MonoH3.wav,2,2,1,7,,,,,0,0,0,6,,,,,,,,,,,,,,,,,053,001,2019_May_21_1106,MusicAffectPsychophysiology2019,3.0.5,59.9769302340046,
To what extent did the music make you feel ,HAPPY,30MonoWAV/30MonoS1.wav,1,1,3,9,,,,,0,1,1,8,0,0,0,6,,,1,3.3180147979874164,2,2.6331577289965935,4,3.402591937992838,1,1.7856167339923559,,,053,001,2019_May_21_1106,MusicAffectPsychophysiology2019,3.0.5,59.9769302340046,
To what extent did the music make you feel ,EXCITED,30MonoWAV/30MonoS1.wav,1,1,3,9,,,,,0,1,1,8,0,1,1,7,,,,,,,,,1,0.9017815999977756,,,053,001,2019_May_21_1106,MusicAffectPsychophysiology2019,3.0.5,59.9769302340046,
To what extent did the music make you feel ,FRUSTRATED,30MonoWAV/30MonoS1.wav,1,1,3,9,,,,,0,1,1,8,0,2,2,3,,,,,,,,,2,4.1353769630077295,,,053,001,2019_May_21_1106,MusicAffectPsychophysiology2019,3.0.5,59.9769302340046,
To what extent did the music make you feel ,GUILTY,30MonoWAV/30MonoS1.wav,1,1,3,9,,,,,0,1,1,8,0,3,3,5,,,,,,,,,3,2.201253027000348,,,053,001,2019_May_21_1106,MusicAffectPsychophysiology2019,3.0.5,59.9769302340046,
To what extent did the music make you feel ,ANXIOUS ,30MonoWAV/30MonoS1.wav,1,1,3,9,,,,,0,1,1,8,0,4,4,1,,,,,,,,,3,4.901713054990978,,,053,001,2019_May_21_1106,MusicAffectPsychophysiology2019,3.0.5,59.9769302340046,
To what extent did the music make you feel ,ACTIVE,30MonoWAV/30MonoS1.wav,1,1,3,9,,,,,0,1,1,8,0,5,5,9,,,,,,,,,1,1.5684395849966677,,,053,001,2019_May_21_1106,MusicAffectPsychophysiology2019,3.0.5,59.9769302340046,
To what extent did the music make you feel ,ALERT,30MonoWAV/30MonoS1.wav,1,1,3,9,,,,,0,1,1,8,0,6,6,8,,,,,,,,,1,1.151635793998139,,,053,001,2019_May_21_1106,MusicAffectPsychophysiology2019,3.0.5,59.9769302340046,
To what extent did the music make you feel ,SAD,30MonoWAV/30MonoS1.wav,1,1,3,9,,,,,0,1,1,8,0,7,7,0,,,,,,,,,5,1.9007692860031966,,,053,001,2019_May_21_1106,MusicAffectPsychophysiology2019,3.0.5,59.9769302340046,
To what extent did the music make you feel ,SCARED,30MonoWAV/30MonoS1.wav,1,1,3,9,,,,,0,1,1,8,0,8,8,11,,,,,,,,,2,4.151433999999426,,,053,001,2019_May_21_1106,MusicAffectPsychophysiology2019,3.0.5,59.9769302340046,
To what extent did the music make you feel ,ANGRY,30MonoWAV/30MonoS1.wav,1,1,3,9,,,,,0,1,1,8,0,9,9,2,,,,,,,,,1,1.1348336149967508,,,053,001,2019_May_21_1106,MusicAffectPsychophysiology2019,3.0.5,59.9769302340046,
To what extent did the music make you feel ,ASHAMED,30MonoWAV/30MonoS1.wav,1,1,3,9,,,,,0,1,1,8,0,10,10,4,,,,,,,,,2,1.68516800001089,,,053,001,2019_May_21_1106,MusicAffectPsychophysiology2019,3.0.5,59.9769302340046,
To what extent did the music make you feel ,TENDER,30MonoWAV/30MonoS1.wav,1,1,3,9,,,,,0,1,1,8,0,11,11,10,,,,,,,,,1,1.3676885000022594,,,053,001,2019_May_21_1106,MusicAffectPsychophysiology2019,3.0.5,59.9769302340046,
,,30MonoWAV/30MonoS1.wav,1,1,3,9,,,,,0,1,1,8,,,,,,,,,,,,,,,,,053,001,2019_May_21_1106,MusicAffectPsychophysiology2019,3.0.5,59.9769302340046,
To what extent did the music make you feel ,HAPPY,30MonoWAV/30MonoT1.wav,2,1,4,13,,,,,0,2,2,12,0,0,0,6,,,2,7.792649422000977,2,2.3860453810048057,2,4.343327565991785,2,2.8576683739956934,,,053,001,2019_May_21_1106,MusicAffectPsychophysiology2019,3.0.5,59.9769302340046,
To what extent did the music make you feel ,SAD,30MonoWAV/30MonoT1.wav,2,1,4,13,,,,,0,2,2,12,0,1,1,0,,,,,,,,,1,4.333734972999082,,,053,001,2019_May_21_1106,MusicAffectPsychophysiology2019,3.0.5,59.9769302340046,
To what extent did the music make you feel ,FRUSTRATED,30MonoWAV/30MonoT1.wav,2,1,4,13,,,,,0,2,2,12,0,2,2,3,,,,,,,,,1,1.068263160996139,,,053,001,2019_May_21_1106,MusicAffectPsychophysiology2019,3.0.5,59.9769302340046,
To what extent did the music make you feel ,ALERT,30MonoWAV/30MonoT1.wav,2,1,4,13,,,,,0,2,2,12,0,3,3,8,,,,,,,,,1,0.7006504389864858,,,053,001,2019_May_21_1106,MusicAffectPsychophysiology2019,3.0.5,59.9769302340046,
To what extent did the music make you feel ,ANXIOUS ,30MonoWAV/30MonoT1.wav,2,1,4,13,,,,,0,2,2,12,0,4,4,1,,,,,,,,,2,2.257508308000979,,,053,001,2019_May_21_1106,MusicAffectPsychophysiology2019,3.0.5,59.9769302340046,
To what extent did the music make you feel ,ASHAMED,30MonoWAV/30MonoT1.wav,2,1,4,13,,,,,0,2,2,12,0,5,5,4,,,,,,,,,2,2.3377225430012913,,,053,001,2019_May_21_1106,MusicAffectPsychophysiology2019,3.0.5,59.9769302340046,
To what extent did the music make you feel ,SCARED,30MonoWAV/30MonoT1.wav,2,1,4,13,,,,,0,2,2,12,0,6,6,11,,,,,,,,,1,1.1532785649906145,,,053,001,2019_May_21_1106,MusicAffectPsychophysiology2019,3.0.5,59.9769302340046,
To what extent did the music make you feel ,EXCITED,30MonoWAV/30MonoT1.wav,2,1,4,13,,,,,0,2,2,12,0,7,7,7,,,,,,,,,1,3.588970782002434,,,053,001,2019_May_21_1106,MusicAffectPsychophysiology2019,3.0.5,59.9769302340046,
To what extent did the music make you feel ,ANGRY,30MonoWAV/30MonoT1.wav,2,1,4,13,,,,,0,2,2,12,0,8,8,2,,,,,,,,,1,0.9342405999923358,,,053,001,2019_May_21_1106,MusicAffectPsychophysiology2019,3.0.5,59.9769302340046,
To what extent did the music make you feel ,ACTIVE,30MonoWAV/30MonoT1.wav,2,1,4,13,,,,,0,2,2,12,0,9,9,9,,,,,,,,,1,0.8028248180053197,,,053,001,2019_May_21_1106,MusicAffectPsychophysiology2019,3.0.5,59.9769302340046,
To what extent did the music make you feel ,GUILTY,30MonoWAV/30MonoT1.wav,2,1,4,13,,,,,0,2,2,12,0,10,10,5,,,,,,,,,2,2.65155995299574,,,053,001,2019_May_21_1106,MusicAffectPsychophysiology2019,3.0.5,59.9769302340046,
To what extent did the music make you feel ,TENDER,30MonoWAV/30MonoT1.wav,2,1,4,13,,,,,0,2,2,12,0,11,11,10,,,,,,,,,3,1.4360742209973978,,,053,001,2019_May_21_1106,MusicAffectPsychophysiology2019,3.0.5,59.9769302340046,
,,30MonoWAV/30MonoT1.wav,2,1,4,13,,,,,0,2,2,12,,,,,,,,,,,,,,,,,053,001,2019_May_21_1106,MusicAffectPsychophysiology2019,3.0.5,59.9769302340046,
To what extent did the music make you feel ,ACTIVE,30MonoWAV/30MonoT4.wav,2,1,4,16,,,,,0,3,3,15,0,0,0,9,,,2,5.801679730007891,3,1.3178454540029634,3,2.685032854991732,1,2.400977580997278,,,053,001,2019_May_21_1106,MusicAffectPsychophysiology2019,3.0.5,59.9769302340046,
To what extent did the music make you feel ,SAD,30MonoWAV/30MonoT4.wav,2,1,4,16,,,,,0,3,3,15,0,1,1,0,,,,,,,,,3,2.8847667160007404,,,053,001,2019_May_21_1106,MusicAffectPsychophysiology2019,3.0.5,59.9769302340046,
To what extent did the music make you feel ,ASHAMED,30MonoWAV/30MonoT4.wav,2,1,4,16,,,,,0,3,3,15,0,2,2,4,,,,,,,,,2,1.4511068129941123,,,053,001,2019_May_21_1106,MusicAffectPsychophysiology2019,3.0.5,59.9769302340046,
To what extent did the music make you feel ,TENDER,30MonoWAV/30MonoT4.wav,2,1,4,16,,,,,0,3,3,15,0,3,3,10,,,,,,,,,4,2.3345386980072362,,,053,001,2019_May_21_1106,MusicAffectPsychophysiology2019,3.0.5,59.9769302340046,
To what extent did the music make you feel ,SCARED,30MonoWAV/30MonoT4.wav,2,1,4,16,,,,,0,3,3,15,0,4,4,11,,,,,,,,,2,1.0851950850046705,,,053,001,2019_May_21_1106,MusicAffectPsychophysiology2019,3.0.5,59.9769302340046,
To what extent did the music make you feel ,GUILTY,30MonoWAV/30MonoT4.wav,2,1,4,16,,,,,0,3,3,15,0,5,5,5,,,,,,,,,1,1.9351817819988355,,,053,001,2019_May_21_1106,MusicAffectPsychophysiology2019,3.0.5,59.9769302340046,
To what extent did the music make you feel ,FRUSTRATED,30MonoWAV/30MonoT4.wav,2,1,4,16,,,,,0,3,3,15,0,6,6,3,,,,,,,,,1,0.7689528399932897,,,053,001,2019_May_21_1106,MusicAffectPsychophysiology2019,3.0.5,59.9769302340046,
To what extent did the music make you feel ,ANGRY,30MonoWAV/30MonoT4.wav,2,1,4,16,,,,,0,3,3,15,0,7,7,2,,,,,,,,,1,0.6188256460009143,,,053,001,2019_May_21_1106,MusicAffectPsychophysiology2019,3.0.5,59.9769302340046,
To what extent did the music make you feel ,ALERT,30MonoWAV/30MonoT4.wav,2,1,4,16,,,,,0,3,3,15,0,8,8,8,,,,,,,,,1,0.6848758199921576,,,053,001,2019_May_21_1106,MusicAffectPsychophysiology2019,3.0.5,59.9769302340046,
To what extent did the music make you feel ,ANXIOUS ,30MonoWAV/30MonoT4.wav,2,1,4,16,,,,,0,3,3,15,0,9,9,1,,,,,,,,,1,1.0007503180095227,,,053,001,2019_May_21_1106,MusicAffectPsychophysiology2019,3.0.5,59.9769302340046,
To what extent did the music make you feel ,EXCITED,30MonoWAV/30MonoT4.wav,2,1,4,16,,,,,0,3,3,15,0,10,10,7,,,,,,,,,2,1.4014667390001705,,,053,001,2019_May_21_1106,MusicAffectPsychophysiology2019,3.0.5,59.9769302340046,
To what extent did the music make you feel ,HAPPY,30MonoWAV/30MonoT4.wav,2,1,4,16,,,,,0,3,3,15,0,11,11,6,,,,,,,,,3,1.5520570439985022,,,053,001,2019_May_21_1106,MusicAffectPsychophysiology2019,3.0.5,59.9769302340046,
,,30MonoWAV/30MonoT4.wav,2,1,4,16,,,,,0,3,3,15,,,,,,,,,,,,,,,,,053,001,2019_May_21_1106,MusicAffectPsychophysiology2019,3.0.5,59.9769302340046,
To what extent did the music make you feel ,TENDER,30MonoWAV/30MonoS3.wav,1,1,3,11,,,,,0,4,4,10,0,0,0,10,,,2,3.856366148000234,1,1.9202562170103192,2,1.3864997290074825,2,3.157272448996082,,,053,001,2019_May_21_1106,MusicAffectPsychophysiology2019,3.0.5,59.9769302340046,
To what extent did the music make you feel ,ANXIOUS ,30MonoWAV/30MonoS3.wav,1,1,3,11,,,,,0,4,4,10,0,1,1,1,,,,,,,,,3,2.4223987299919827,,,053,001,2019_May_21_1106,MusicAffectPsychophysiology2019,3.0.5,59.9769302340046,
To what extent did the music make you feel ,ASHAMED,30MonoWAV/30MonoS3.wav,1,1,3,11,,,,,0,4,4,10,0,2,2,4,,,,,,,,,3,1.9517021819920046,,,053,001,2019_May_21_1106,MusicAffectPsychophysiology2019,3.0.5,59.9769302340046,
To what extent did the music make you feel ,EXCITED,30MonoWAV/30MonoS3.wav,1,1,3,11,,,,,0,4,4,10,0,3,3,7,,,,,,,,,2,1.518465286004357,,,053,001,2019_May_21_1106,MusicAffectPsychophysiology2019,3.0.5,59.9769302340046,
To what extent did the music make you feel ,ACTIVE,30MonoWAV/30MonoS3.wav,1,1,3,11,,,,,0,4,4,10,0,4,4,9,,,,,,,,,1,2.1735937069897773,,,053,001,2019_May_21_1106,MusicAffectPsychophysiology2019,3.0.5,59.9769302340046,
To what extent did the music make you feel ,ALERT,30MonoWAV/30MonoS3.wav,1,1,3,11,,,,,0,4,4,10,0,5,5,8,,,,,,,,,1,1.2866818420006894,,,053,001,2019_May_21_1106,MusicAffectPsychophysiology2019,3.0.5,59.9769302340046,
To what extent did the music make you feel ,HAPPY,30MonoWAV/30MonoS3.wav,1,1,3,11,,,,,0,4,4,10,0,6,6,6,,,,,,,,,1,1.1030636439973023,,,053,001,2019_May_21_1106,MusicAffectPsychophysiology2019,3.0.5,59.9769302340046,
To what extent did the music make you feel ,FRUSTRATED,30MonoWAV/30MonoS3.wav,1,1,3,11,,,,,0,4,4,10,0,7,7,3,,,,,,,,,1,2.371138788003009,,,053,001,2019_May_21_1106,MusicAffectPsychophysiology2019,3.0.5,59.9769302340046,
To what extent did the music make you feel ,ANGRY,30MonoWAV/30MonoS3.wav,1,1,3,11,,,,,0,4,4,10,0,8,8,2,,,,,,,,,2,3.605437227000948,,,053,001,2019_May_21_1106,MusicAffectPsychophysiology2019,3.0.5,59.9769302340046,
To what extent did the music make you feel ,SAD,30MonoWAV/30MonoS3.wav,1,1,3,11,,,,,0,4,4,10,0,9,9,0,,,,,,,,,5,1.7513736999972025,,,053,001,2019_May_21_1106,MusicAffectPsychophysiology2019,3.0.5,59.9769302340046,
To what extent did the music make you feel ,GUILTY,30MonoWAV/30MonoS3.wav,1,1,3,11,,,,,0,4,4,10,0,10,10,5,,,,,,,,,3,2.8062268499925267,,,053,001,2019_May_21_1106,MusicAffectPsychophysiology2019,3.0.5,59.9769302340046,
To what extent did the music make you feel ,SCARED,30MonoWAV/30MonoS3.wav,1,1,3,11,,,,,0,4,4,10,0,11,11,11,,,,,,,,,1,1.3034999389928998,,,053,001,2019_May_21_1106,MusicAffectPsychophysiology2019,3.0.5,59.9769302340046,
,,30MonoWAV/30MonoS3.wav,1,1,3,11,,,,,0,4,4,10,,,,,,,,,,,,,,,,,053,001,2019_May_21_1106,MusicAffectPsychophysiology2019,3.0.5,59.9769302340046,
To what extent did the music make you feel ,SAD,30MonoWAV/30MonoF4.wav,1,2,2,4,,,,,0,5,5,3,0,0,0,0,,,3,3.1169167119951453,1,3.0183551009977236,2,2.4182448210049188,3,3.218175155998324,,,053,001,2019_May_21_1106,MusicAffectPsychophysiology2019,3.0.5,59.9769302340046,
To what extent did the music make you feel ,FRUSTRATED,30MonoWAV/30MonoF4.wav,1,2,2,4,,,,,0,5,5,3,0,1,1,3,,,,,,,,,3,1.5668807670008391,,,053,001,2019_May_21_1106,MusicAffectPsychophysiology2019,3.0.5,59.9769302340046,
To what extent did the music make you feel ,ANXIOUS ,30MonoWAV/30MonoF4.wav,1,2,2,4,,,,,0,5,5,3,0,2,2,1,,,,,,,,,4,1.602329715009546,,,053,001,2019_May_21_1106,MusicAffectPsychophysiology2019,3.0.5,59.9769302340046,
To what extent did the music make you feel ,ANGRY,30MonoWAV/30MonoF4.wav,1,2,2,4,,,,,0,5,5,3,0,3,3,2,,,,,,,,,2,1.9328774839959806,,,053,001,2019_May_21_1106,MusicAffectPsychophysiology2019,3.0.5,59.9769302340046,
To what extent did the music make you feel ,ASHAMED,30MonoWAV/30MonoF4.wav,1,2,2,4,,,,,0,5,5,3,0,4,4,4,,,,,,,,,1,1.7518555460119387,,,053,001,2019_May_21_1106,MusicAffectPsychophysiology2019,3.0.5,59.9769302340046,
To what extent did the music make you feel ,EXCITED,30MonoWAV/30MonoF4.wav,1,2,2,4,,,,,0,5,5,3,0,5,5,7,,,,,,,,,1,1.1682169729901943,,,053,001,2019_May_21_1106,MusicAffectPsychophysiology2019,3.0.5,59.9769302340046,
To what extent did the music make you feel ,HAPPY,30MonoWAV/30MonoF4.wav,1,2,2,4,,,,,0,5,5,3,0,6,6,6,,,,,,,,,1,0.9347341859975131,,,053,001,2019_May_21_1106,MusicAffectPsychophysiology2019,3.0.5,59.9769302340046,
To what extent did the music make you feel ,ALERT,30MonoWAV/30MonoF4.wav,1,2,2,4,,,,,0,5,5,3,0,7,7,8,,,,,,,,,3,1.9740119429916376,,,053,001,2019_May_21_1106,MusicAffectPsychophysiology2019,3.0.5,59.9769302340046,
To what extent did the music make you feel ,GUILTY,30MonoWAV/30MonoF4.wav,1,2,2,4,,,,,0,5,5,3,0,8,8,5,,,,,,,,,1,1.437048052001046,,,053,001,2019_May_21_1106,MusicAffectPsychophysiology2019,3.0.5,59.9769302340046,
To what extent did the music make you feel ,TENDER,30MonoWAV/30MonoF4.wav,1,2,2,4,,,,,0,5,5,3,0,9,9,10,,,,,,,,,1,1.2699079779995373,,,053,001,2019_May_21_1106,MusicAffectPsychophysiology2019,3.0.5,59.9769302340046,
To what extent did the music make you feel ,SCARED,30MonoWAV/30MonoF4.wav,1,2,2,4,,,,,0,5,5,3,0,10,10,11,,,,,,,,,4,2.3879688099987106,,,053,001,2019_May_21_1106,MusicAffectPsychophysiology2019,3.0.5,59.9769302340046,
To what extent did the music make you feel ,ACTIVE,30MonoWAV/30MonoF4.wav,1,2,2,4,,,,,0,5,5,3,0,11,11,9,,,,,,,,,3,1.805901673011249,,,053,001,2019_May_21_1106,MusicAffectPsychophysiology2019,3.0.5,59.9769302340046,
,,30MonoWAV/30MonoF4.wav,1,2,2,4,,,,,0,5,5,3,,,,,,,,,,,,,,,,,053,001,2019_May_21_1106,MusicAffectPsychophysiology2019,3.0.5,59.9769302340046,
To what extent did the music make you feel ,ANXIOUS ,30MonoWAV/30MonoS2.wav,1,1,3,10,,,,,0,6,6,9,0,0,0,1,,,1,3.101560167997377,1,1.0853548080049222,2,2.2347807199985255,1,5.483935240001301,,,053,001,2019_May_21_1106,MusicAffectPsychophysiology2019,3.0.5,59.9769302340046,
To what extent did the music make you feel ,SAD,30MonoWAV/30MonoS2.wav,1,1,3,10,,,,,0,6,6,9,0,1,1,0,,,,,,,,,5,2.135252643012791,,,053,001,2019_May_21_1106,MusicAffectPsychophysiology2019,3.0.5,59.9769302340046,
To what extent did the music make you feel ,ANGRY,30MonoWAV/30MonoS2.wav,1,1,3,10,,,,,0,6,6,9,0,2,2,2,,,,,,,,,2,1.8855166080029448,,,053,001,2019_May_21_1106,MusicAffectPsychophysiology2019,3.0.5,59.9769302340046,
To what extent did the music make you feel ,HAPPY,30MonoWAV/30MonoS2.wav,1,1,3,10,,,,,0,6,6,9,0,3,3,6,,,,,,,,,1,1.5182138240052154,,,053,001,2019_May_21_1106,MusicAffectPsychophysiology2019,3.0.5,59.9769302340046,
To what extent did the music make you feel ,EXCITED,30MonoWAV/30MonoS2.wav,1,1,3,10,,,,,0,6,6,9,0,4,4,7,,,,,,,,,1,0.9026208150025923,,,053,001,2019_May_21_1106,MusicAffectPsychophysiology2019,3.0.5,59.9769302340046,
To what extent did the music make you feel ,ASHAMED,30MonoWAV/30MonoS2.wav,1,1,3,10,,,,,0,6,6,9,0,5,5,4,,,,,,,,,3,1.9685339699935867,,,053,001,2019_May_21_1106,MusicAffectPsychophysiology2019,3.0.5,59.9769302340046,
To what extent did the music make you feel ,FRUSTRATED,30MonoWAV/30MonoS2.wav,1,1,3,10,,,,,0,6,6,9,0,6,6,3,,,,,,,,,2,4.4506885440059705,,,053,001,2019_May_21_1106,MusicAffectPsychophysiology2019,3.0.5,59.9769302340046,
To what extent did the music make you feel ,ACTIVE,30MonoWAV/30MonoS2.wav,1,1,3,10,,,,,0,6,6,9,0,7,7,9,,,,,,,,,1,1.1530977729998995,,,053,001,2019_May_21_1106,MusicAffectPsychophysiology2019,3.0.5,59.9769302340046,
To what extent did the music make you feel ,TENDER,30MonoWAV/30MonoS2.wav,1,1,3,10,,,,,0,6,6,9,0,8,8,10,,,,,,,,,1,1.0509219279920217,,,053,001,2019_May_21_1106,MusicAffectPsychophysiology2019,3.0.5,59.9769302340046,
To what extent did the music make you feel ,SCARED,30MonoWAV/30MonoS2.wav,1,1,3,10,,,,,0,6,6,9,0,9,9,11,,,,,,,,,4,2.6181513049959904,,,053,001,2019_May_21_1106,MusicAffectPsychophysiology2019,3.0.5,59.9769302340046,
To what extent did the music make you feel ,GUILTY,30MonoWAV/30MonoS2.wav,1,1,3,10,,,,,0,6,6,9,0,10,10,5,,,,,,,,,3,4.567855803994462,,,053,001,2019_May_21_1106,MusicAffectPsychophysiology2019,3.0.5,59.9769302340046,
To what extent did the music make you feel ,ALERT,30MonoWAV/30MonoS2.wav,1,1,3,10,,,,,0,6,6,9,0,11,11,8,,,,,,,,,1,2.3177676390041597,,,053,001,2019_May_21_1106,MusicAffectPsychophysiology2019,3.0.5,59.9769302340046,
,,30MonoWAV/30MonoS2.wav,1,1,3,10,,,,,0,6,6,9,,,,,,,,,,,,,,,,,053,001,2019_May_21_1106,MusicAffectPsychophysiology2019,3.0.5,59.9769302340046,
To what extent did the music make you feel ,ANGRY,30MonoWAV/30MonoF2.wav,1,2,2,2,,,,,0,7,7,1,0,0,0,2,,,3,3.501570519991219,1,1.3841977289994247,1,1.6846360420022393,1,1.7357795980060473,,,053,001,2019_May_21_1106,MusicAffectPsychophysiology2019,3.0.5,59.9769302340046,
To what extent did the music make you feel ,GUILTY,30MonoWAV/30MonoF2.wav,1,2,2,2,,,,,0,7,7,1,0,1,1,5,,,,,,,,,2,1.3358996430033585,,,053,001,2019_May_21_1106,MusicAffectPsychophysiology2019,3.0.5,59.9769302340046,
To what extent did the music make you feel ,ANXIOUS ,30MonoWAV/30MonoF2.wav,1,2,2,2,,,,,0,7,7,1,0,2,2,1,,,,,,,,,4,1.6680156079964945,,,053,001,2019_May_21_1106,MusicAffectPsychophysiology2019,3.0.5,59.9769302340046,
To what extent did the music make you feel ,SCARED,30MonoWAV/30MonoF2.wav,1,2,2,2,,,,,0,7,7,1,0,3,3,11,,,,,,,,,5,1.4865589999972144,,,053,001,2019_May_21_1106,MusicAffectPsychophysiology2019,3.0.5,59.9769302340046,
To what extent did the music make you feel ,HAPPY,30MonoWAV/30MonoF2.wav,1,2,2,2,,,,,0,7,7,1,0,4,4,6,,,,,,,,,1,1.9009605640021618,,,053,001,2019_May_21_1106,MusicAffectPsychophysiology2019,3.0.5,59.9769302340046,
To what extent did the music make you feel ,TENDER,30MonoWAV/30MonoF2.wav,1,2,2,2,,,,,0,7,7,1,0,5,5,10,,,,,,,,,1,0.9181216150027467,,,053,001,2019_May_21_1106,MusicAffectPsychophysiology2019,3.0.5,59.9769302340046,
To what extent did the music make you feel ,ALERT,30MonoWAV/30MonoF2.wav,1,2,2,2,,,,,0,7,7,1,0,6,6,8,,,,,,,,,4,1.3342616180016194,,,053,001,2019_May_21_1106,MusicAffectPsychophysiology2019,3.0.5,59.9769302340046,
To what extent did the music make you feel ,SAD,30MonoWAV/30MonoF2.wav,1,2,2,2,,,,,0,7,7,1,0,7,7,0,,,,,,,,,4,1.518676690000575,,,053,001,2019_May_21_1106,MusicAffectPsychophysiology2019,3.0.5,59.9769302340046,
To what extent did the music make you feel ,ACTIVE,30MonoWAV/30MonoF2.wav,1,2,2,2,,,,,0,7,7,1,0,8,8,9,,,,,,,,,1,1.5513141510018613,,,053,001,2019_May_21_1106,MusicAffectPsychophysiology2019,3.0.5,59.9769302340046,
To what extent did the music make you feel ,EXCITED,30MonoWAV/30MonoF2.wav,1,2,2,2,,,,,0,7,7,1,0,9,9,7,,,,,,,,,1,1.7517972579953494,,,053,001,2019_May_21_1106,MusicAffectPsychophysiology2019,3.0.5,59.9769302340046,
To what extent did the music make you feel ,FRUSTRATED,30MonoWAV/30MonoF2.wav,1,2,2,2,,,,,0,7,7,1,0,10,10,3,,,,,,,,,1,1.135615052000503,,,053,001,2019_May_21_1106,MusicAffectPsychophysiology2019,3.0.5,59.9769302340046,
To what extent did the music make you feel ,ASHAMED,30MonoWAV/30MonoF2.wav,1,2,2,2,,,,,0,7,7,1,0,11,11,4,,,,,,,,,1,2.0015930109948386,,,053,001,2019_May_21_1106,MusicAffectPsychophysiology2019,3.0.5,59.9769302340046,
,,30MonoWAV/30MonoF2.wav,1,2,2,2,,,,,0,7,7,1,,,,,,,,,,,,,,,,,053,001,2019_May_21_1106,MusicAffectPsychophysiology2019,3.0.5,59.9769302340046,
To what extent did the music make you feel ,SAD,30MonoWAV/30MonoT2.wav,2,1,4,14,,,,,0,8,8,13,0,0,0,0,,,3,3.0020740120089613,4,3.268559379997896,2,1.6520245629944839,1,1.6183789639908355,,,053,001,2019_May_21_1106,MusicAffectPsychophysiology2019,3.0.5,59.9769302340046,
To what extent did the music make you feel ,SCARED,30MonoWAV/30MonoT2.wav,2,1,4,14,,,,,0,8,8,13,0,1,1,11,,,,,,,,,1,0.9023003550100839,,,053,001,2019_May_21_1106,MusicAffectPsychophysiology2019,3.0.5,59.9769302340046,
To what extent did the music make you feel ,TENDER,30MonoWAV/30MonoT2.wav,2,1,4,14,,,,,0,8,8,13,0,2,2,10,,,,,,,,,3,2.0356339989957632,,,053,001,2019_May_21_1106,MusicAffectPsychophysiology2019,3.0.5,59.9769302340046,
To what extent did the music make you feel ,ALERT,30MonoWAV/30MonoT2.wav,2,1,4,14,,,,,0,8,8,13,0,3,3,8,,,,,,,,,1,1.1003863879886921,,,053,001,2019_May_21_1106,MusicAffectPsychophysiology2019,3.0.5,59.9769302340046,
To what extent did the music make you feel ,ANXIOUS ,30MonoWAV/30MonoT2.wav,2,1,4,14,,,,,0,8,8,13,0,4,4,1,,,,,,,,,1,2.001365189993521,,,053,001,2019_May_21_1106,MusicAffectPsychophysiology2019,3.0.5,59.9769302340046,
To what extent did the music make you feel ,HAPPY,30MonoWAV/30MonoT2.wav,2,1,4,14,,,,,0,8,8,13,0,5,5,6,,,,,,,,,3,2.5329375169967534,,,053,001,2019_May_21_1106,MusicAffectPsychophysiology2019,3.0.5,59.9769302340046,
To what extent did the music make you feel ,ANGRY,30MonoWAV/30MonoT2.wav,2,1,4,14,,,,,0,8,8,13,0,6,6,2,,,,,,,,,1,0.9190887840086361,,,053,001,2019_May_21_1106,MusicAffectPsychophysiology2019,3.0.5,59.9769302340046,
To what extent did the music make you feel ,GUILTY,30MonoWAV/30MonoT2.wav,2,1,4,14,,,,,0,8,8,13,0,7,7,5,,,,,,,,,1,1.1511551270086784,,,053,001,2019_May_21_1106,MusicAffectPsychophysiology2019,3.0.5,59.9769302340046,
To what extent did the music make you feel ,EXCITED,30MonoWAV/30MonoT2.wav,2,1,4,14,,,,,0,8,8,13,0,8,8,7,,,,,,,,,1,1.8527475079899887,,,053,001,2019_May_21_1106,MusicAffectPsychophysiology2019,3.0.5,59.9769302340046,
To what extent did the music make you feel ,ASHAMED,30MonoWAV/30MonoT2.wav,2,1,4,14,,,,,0,8,8,13,0,9,9,4,,,,,,,,,1,1.2834128060057992,,,053,001,2019_May_21_1106,MusicAffectPsychophysiology2019,3.0.5,59.9769302340046,
To what extent did the music make you feel ,ACTIVE,30MonoWAV/30MonoT2.wav,2,1,4,14,,,,,0,8,8,13,0,10,10,9,,,,,,,,,3,1.569234109003446,,,053,001,2019_May_21_1106,MusicAffectPsychophysiology2019,3.0.5,59.9769302340046,
To what extent did the music make you feel ,FRUSTRATED,30MonoWAV/30MonoT2.wav,2,1,4,14,,,,,0,8,8,13,0,11,11,3,,,,,,,,,1,1.6684046119917184,,,053,001,2019_May_21_1106,MusicAffectPsychophysiology2019,3.0.5,59.9769302340046,
,,30MonoWAV/30MonoT2.wav,2,1,4,14,,,,,0,8,8,13,,,,,,,,,,,,,,,,,053,001,2019_May_21_1106,MusicAffectPsychophysiology2019,3.0.5,59.9769302340046,
To what extent did the music make you feel ,SCARED,30MonoWAV/30MonoH4.wav,2,2,1,8,,,,,0,9,9,7,0,0,0,11,,,4,3.3568010329909157,4,1.6898817469918868,3,1.884481921006227,1,1.4689442929957295,,,053,001,2019_May_21_1106,MusicAffectPsychophysiology2019,3.0.5,59.9769302340046,
To what extent did the music make you feel ,ACTIVE,30MonoWAV/30MonoH4.wav,2,2,1,8,,,,,0,9,9,7,0,1,1,9,,,,,,,,,4,1.5688604089955334,,,053,001,2019_May_21_1106,MusicAffectPsychophysiology2019,3.0.5,59.9769302340046,
To what extent did the music make you feel ,GUILTY,30MonoWAV/30MonoH4.wav,2,2,1,8,,,,,0,9,9,7,0,2,2,5,,,,,,,,,1,1.151474414000404,,,053,001,2019_May_21_1106,MusicAffectPsychophysiology2019,3.0.5,59.9769302340046,
To what extent did the music make you feel ,HAPPY,30MonoWAV/30MonoH4.wav,2,2,1,8,,,,,0,9,9,7,0,3,3,6,,,,,,,,,5,1.668276586002321,,,053,001,2019_May_21_1106,MusicAffectPsychophysiology2019,3.0.5,59.9769302340046,
To what extent did the music make you feel ,TENDER,30MonoWAV/30MonoH4.wav,2,2,1,8,,,,,0,9,9,7,0,4,4,10,,,,,,,,,1,1.3503138109954307,,,053,001,2019_May_21_1106,MusicAffectPsychophysiology2019,3.0.5,59.9769302340046,
To what extent did the music make you feel ,ALERT,30MonoWAV/30MonoH4.wav,2,2,1,8,,,,,0,9,9,7,0,5,5,8,,,,,,,,,2,2.5022260099940468,,,053,001,2019_May_21_1106,MusicAffectPsychophysiology2019,3.0.5,59.9769302340046,
To what extent did the music make you feel ,ANGRY,30MonoWAV/30MonoH4.wav,2,2,1,8,,,,,0,9,9,7,0,6,6,2,,,,,,,,,1,1.0520935669919709,,,053,001,2019_May_21_1106,MusicAffectPsychophysiology2019,3.0.5,59.9769302340046,
To what extent did the music make you feel ,ANXIOUS ,30MonoWAV/30MonoH4.wav,2,2,1,8,,,,,0,9,9,7,0,7,7,1,,,,,,,,,1,0.801641918005771,,,053,001,2019_May_21_1106,MusicAffectPsychophysiology2019,3.0.5,59.9769302340046,
To what extent did the music make you feel ,EXCITED,30MonoWAV/30MonoH4.wav,2,2,1,8,,,,,0,9,9,7,0,8,8,7,,,,,,,,,4,1.268399923996185,,,053,001,2019_May_21_1106,MusicAffectPsychophysiology2019,3.0.5,59.9769302340046,
To what extent did the music make you feel ,ASHAMED,30MonoWAV/30MonoH4.wav,2,2,1,8,,,,,0,9,9,7,0,9,9,4,,,,,,,,,1,0.9021809960104292,,,053,001,2019_May_21_1106,MusicAffectPsychophysiology2019,3.0.5,59.9769302340046,
To what extent did the music make you feel ,SAD,30MonoWAV/30MonoH4.wav,2,2,1,8,,,,,0,9,9,7,0,10,10,0,,,,,,,,,1,1.0847658410057193,,,053,001,2019_May_21_1106,MusicAffectPsychophysiology2019,3.0.5,59.9769302340046,
To what extent did the music make you feel ,FRUSTRATED,30MonoWAV/30MonoH4.wav,2,2,1,8,,,,,0,9,9,7,0,11,11,3,,,,,,,,,1,1.0691290850081714,,,053,001,2019_May_21_1106,MusicAffectPsychophysiology2019,3.0.5,59.9769302340046,
,,30MonoWAV/30MonoH4.wav,2,2,1,8,,,,,0,9,9,7,,,,,,,,,,,,,,,,,053,001,2019_May_21_1106,MusicAffectPsychophysiology2019,3.0.5,59.9769302340046,
To what extent did the music make you feel ,ACTIVE,30MonoWAV/30MonoS4.wav,1,1,3,12,,,,,0,10,10,11,0,0,0,9,,,1,2.5514650489931228,2,1.851354557002196,3,1.8500673009984894,1,1.6351888329954818,,,053,001,2019_May_21_1106,MusicAffectPsychophysiology2019,3.0.5,59.9769302340046,
To what extent did the music make you feel ,EXCITED,30MonoWAV/30MonoS4.wav,1,1,3,12,,,,,0,10,10,11,0,1,1,7,,,,,,,,,1,1.2190059010026744,,,053,001,2019_May_21_1106,MusicAffectPsychophysiology2019,3.0.5,59.9769302340046,
To what extent did the music make you feel ,ALERT,30MonoWAV/30MonoS4.wav,1,1,3,12,,,,,0,10,10,11,0,2,2,8,,,,,,,,,1,1.5179397379979491,,,053,001,2019_May_21_1106,MusicAffectPsychophysiology2019,3.0.5,59.9769302340046,
To what extent did the music make you feel ,TENDER,30MonoWAV/30MonoS4.wav,1,1,3,12,,,,,0,10,10,11,0,3,3,10,,,,,,,,,4,1.9846120159927523,,,053,001,2019_May_21_1106,MusicAffectPsychophysiology2019,3.0.5,59.9769302340046,
To what extent did the music make you feel ,ASHAMED,30MonoWAV/30MonoS4.wav,1,1,3,12,,,,,0,10,10,11,0,4,4,4,,,,,,,,,4,3.1015852480049944,,,053,001,2019_May_21_1106,MusicAffectPsychophysiology2019,3.0.5,59.9769302340046,
To what extent did the music make you feel ,SCARED,30MonoWAV/30MonoS4.wav,1,1,3,12,,,,,0,10,10,11,0,5,5,11,,,,,,,,,2,1.9517118349904194,,,053,001,2019_May_21_1106,MusicAffectPsychophysiology2019,3.0.5,59.9769302340046,
To what extent did the music make you feel ,HAPPY,30MonoWAV/30MonoS4.wav,1,1,3,12,,,,,0,10,10,11,0,6,6,6,,,,,,,,,1,0.9178752739971969,,,053,001,2019_May_21_1106,MusicAffectPsychophysiology2019,3.0.5,59.9769302340046,
To what extent did the music make you feel ,FRUSTRATED,30MonoWAV/30MonoS4.wav,1,1,3,12,,,,,0,10,10,11,0,7,7,3,,,,,,,,,1,1.167612907011062,,,053,001,2019_May_21_1106,MusicAffectPsychophysiology2019,3.0.5,59.9769302340046,
To what extent did the music make you feel ,SAD,30MonoWAV/30MonoS4.wav,1,1,3,12,,,,,0,10,10,11,0,8,8,0,,,,,,,,,5,1.9182099940080661,,,053,001,2019_May_21_1106,MusicAffectPsychophysiology2019,3.0.5,59.9769302340046,
To what extent did the music make you feel ,GUILTY,30MonoWAV/30MonoS4.wav,1,1,3,12,,,,,0,10,10,11,0,9,9,5,,,,,,,,,4,1.93629364699882,,,053,001,2019_May_21_1106,MusicAffectPsychophysiology2019,3.0.5,59.9769302340046,
To what extent did the music make you feel ,ANGRY,30MonoWAV/30MonoS4.wav,1,1,3,12,,,,,0,10,10,11,0,10,10,2,,,,,,,,,1,1.0350731299986364,,,053,001,2019_May_21_1106,MusicAffectPsychophysiology2019,3.0.5,59.9769302340046,
To what extent did the music make you feel ,ANXIOUS ,30MonoWAV/30MonoS4.wav,1,1,3,12,,,,,0,10,10,11,0,11,11,1,,,,,,,,,3,1.252013450008235,,,053,001,2019_May_21_1106,MusicAffectPsychophysiology2019,3.0.5,59.9769302340046,
,,30MonoWAV/30MonoS4.wav,1,1,3,12,,,,,0,10,10,11,,,,,,,,,,,,,,,,,053,001,2019_May_21_1106,MusicAffectPsychophysiology2019,3.0.5,59.9769302340046,
To what extent did the music make you feel ,FRUSTRATED,30MonoWAV/30MonoH2.wav,2,2,1,6,,,,,0,11,11,5,0,0,0,3,,,3,5.417568732009386,3,1.718894994002767,2,1.6352432159910677,1,3.201779669994721,,,053,001,2019_May_21_1106,MusicAffectPsychophysiology2019,3.0.5,59.9769302340046,
To what extent did the music make you feel ,SAD,30MonoWAV/30MonoH2.wav,2,2,1,6,,,,,0,11,11,5,0,1,1,0,,,,,,,,,1,1.0013334499963094,,,053,001,2019_May_21_1106,MusicAffectPsychophysiology2019,3.0.5,59.9769302340046,
To what extent did the music make you feel ,ACTIVE,30MonoWAV/30MonoH2.wav,2,2,1,6,,,,,0,11,11,5,0,2,2,9,,,,,,,,,3,1.768551254994236,,,053,001,2019_May_21_1106,MusicAffectPsychophysiology2019,3.0.5,59.9769302340046,
To what extent did the music make you feel ,SCARED,30MonoWAV/30MonoH2.wav,2,2,1,6,,,,,0,11,11,5,0,3,3,11,,,,,,,,,1,1.0183505050081294,,,053,001,2019_May_21_1106,MusicAffectPsychophysiology2019,3.0.5,59.9769302340046,
To what extent did the music make you feel ,ANGRY,30MonoWAV/30MonoH2.wav,2,2,1,6,,,,,0,11,11,5,0,4,4,2,,,,,,,,,1,1.0849406000052113,,,053,001,2019_May_21_1106,MusicAffectPsychophysiology2019,3.0.5,59.9769302340046,
To what extent did the music make you feel ,ASHAMED,30MonoWAV/30MonoH2.wav,2,2,1,6,,,,,0,11,11,5,0,5,5,4,,,,,,,,,1,1.251729059003992,,,053,001,2019_May_21_1106,MusicAffectPsychophysiology2019,3.0.5,59.9769302340046,
To what extent did the music make you feel ,HAPPY,30MonoWAV/30MonoH2.wav,2,2,1,6,,,,,0,11,11,5,0,6,6,6,,,,,,,,,2,1.4857175250072032,,,053,001,2019_May_21_1106,MusicAffectPsychophysiology2019,3.0.5,59.9769302340046,
To what extent did the music make you feel ,TENDER,30MonoWAV/30MonoH2.wav,2,2,1,6,,,,,0,11,11,5,0,7,7,10,,,,,,,,,1,1.2353445530025056,,,053,001,2019_May_21_1106,MusicAffectPsychophysiology2019,3.0.5,59.9769302340046,
To what extent did the music make you feel ,GUILTY,30MonoWAV/30MonoH2.wav,2,2,1,6,,,,,0,11,11,5,0,8,8,5,,,,,,,,,1,2.0516681669978425,,,053,001,2019_May_21_1106,MusicAffectPsychophysiology2019,3.0.5,59.9769302340046,
To what extent did the music make you feel ,ALERT,30MonoWAV/30MonoH2.wav,2,2,1,6,,,,,0,11,11,5,0,9,9,8,,,,,,,,,4,1.6017103170015616,,,053,001,2019_May_21_1106,MusicAffectPsychophysiology2019,3.0.5,59.9769302340046,
To what extent did the music make you feel ,EXCITED,30MonoWAV/30MonoH2.wav,2,2,1,6,,,,,0,11,11,5,0,10,10,7,,,,,,,,,3,1.8847692080016714,,,053,001,2019_May_21_1106,MusicAffectPsychophysiology2019,3.0.5,59.9769302340046,
To what extent did the music make you feel ,ANXIOUS ,30MonoWAV/30MonoH2.wav,2,2,1,6,,,,,0,11,11,5,0,11,11,1,,,,,,,,,2,1.5353595560009126,,,053,001,2019_May_21_1106,MusicAffectPsychophysiology2019,3.0.5,59.9769302340046,
,,30MonoWAV/30MonoH2.wav,2,2,1,6,,,,,0,11,11,5,,,,,,,,,,,,,,,,,053,001,2019_May_21_1106,MusicAffectPsychophysiology2019,3.0.5,59.9769302340046,
To what extent did the music make you feel ,ASHAMED,30MonoWAV/30MonoF1.wav,1,2,2,1,,,,,0,12,12,0,0,0,0,4,,,3,3.8327930810046382,1,1.518146931004594,2,3.2346583460021066,1,1.5514886430028128,,,053,001,2019_May_21_1106,MusicAffectPsychophysiology2019,3.0.5,59.9769302340046,
To what extent did the music make you feel ,ANXIOUS ,30MonoWAV/30MonoF1.wav,1,2,2,1,,,,,0,12,12,0,0,1,1,1,,,,,,,,,4,1.668030198008637,,,053,001,2019_May_21_1106,MusicAffectPsychophysiology2019,3.0.5,59.9769302340046,
To what extent did the music make you feel ,GUILTY,30MonoWAV/30MonoF1.wav,1,2,2,1,,,,,0,12,12,0,0,2,2,5,,,,,,,,,3,1.8023811470047804,,,053,001,2019_May_21_1106,MusicAffectPsychophysiology2019,3.0.5,59.9769302340046,
To what extent did the music make you feel ,EXCITED,30MonoWAV/30MonoF1.wav,1,2,2,1,,,,,0,12,12,0,0,3,3,7,,,,,,,,,1,1.2181840560078854,,,053,001,2019_May_21_1106,MusicAffectPsychophysiology2019,3.0.5,59.9769302340046,
To what extent did the music make you feel ,SAD,30MonoWAV/30MonoF1.wav,1,2,2,1,,,,,0,12,12,0,0,4,4,0,,,,,,,,,2,1.5181429910007864,,,053,001,2019_May_21_1106,MusicAffectPsychophysiology2019,3.0.5,59.9769302340046,
To what extent did the music make you feel ,TENDER,30MonoWAV/30MonoF1.wav,1,2,2,1,,,,,0,12,12,0,0,5,5,10,,,,,,,,,1,0.6520487990055699,,,053,001,2019_May_21_1106,MusicAffectPsychophysiology2019,3.0.5,59.9769302340046,
To what extent did the music make you feel ,SCARED,30MonoWAV/30MonoF1.wav,1,2,2,1,,,,,0,12,12,0,0,6,6,11,,,,,,,,,5,1.4186277259868803,,,053,001,2019_May_21_1106,MusicAffectPsychophysiology2019,3.0.5,59.9769302340046,
To what extent did the music make you feel ,ANGRY,30MonoWAV/30MonoF1.wav,1,2,2,1,,,,,0,12,12,0,0,7,7,2,,,,,,,,,2,2.70094599899312,,,053,001,2019_May_21_1106,MusicAffectPsychophysiology2019,3.0.5,59.9769302340046,
To what extent did the music make you feel ,FRUSTRATED,30MonoWAV/30MonoF1.wav,1,2,2,1,,,,,0,12,12,0,0,8,8,3,,,,,,,,,3,1.434313118996215,,,053,001,2019_May_21_1106,MusicAffectPsychophysiology2019,3.0.5,59.9769302340046,
To what extent did the music make you feel ,HAPPY,30MonoWAV/30MonoF1.wav,1,2,2,1,,,,,0,12,12,0,0,9,9,6,,,,,,,,,1,1.0020665339980042,,,053,001,2019_May_21_1106,MusicAffectPsychophysiology2019,3.0.5,59.9769302340046,
To what extent did the music make you feel ,ALERT,30MonoWAV/30MonoF1.wav,1,2,2,1,,,,,0,12,12,0,0,10,10,8,,,,,,,,,4,2.8522010289889295,,,053,001,2019_May_21_1106,MusicAffectPsychophysiology2019,3.0.5,59.9769302340046,
To what extent did the music make you feel ,ACTIVE,30MonoWAV/30MonoF1.wav,1,2,2,1,,,,,0,12,12,0,0,11,11,9,,,,,,,,,5,1.7349893920036266,,,053,001,2019_May_21_1106,MusicAffectPsychophysiology2019,3.0.5,59.9769302340046,
,,30MonoWAV/30MonoF1.wav,1,2,2,1,,,,,0,12,12,0,,,,,,,,,,,,,,,,,053,001,2019_May_21_1106,MusicAffectPsychophysiology2019,3.0.5,59.9769302340046,
To what extent did the music make you feel ,ASHAMED,30MonoWAV/30MonoT3.wav,2,1,4,15,,,,,0,13,13,14,0,0,0,4,,,1,2.402811916996143,3,3.7179826040082844,2,1.4662084779993165,1,1.5690307400072925,,,053,001,2019_May_21_1106,MusicAffectPsychophysiology2019,3.0.5,59.9769302340046,
To what extent did the music make you feel ,SAD,30MonoWAV/30MonoT3.wav,2,1,4,15,,,,,0,13,13,14,0,1,1,0,,,,,,,,,2,1.0338751219969708,,,053,001,2019_May_21_1106,MusicAffectPsychophysiology2019,3.0.5,59.9769302340046,
To what extent did the music make you feel ,GUILTY,30MonoWAV/30MonoT3.wav,2,1,4,15,,,,,0,13,13,14,0,2,2,5,,,,,,,,,3,0.8009788909985218,,,053,001,2019_May_21_1106,MusicAffectPsychophysiology2019,3.0.5,59.9769302340046,
To what extent did the music make you feel ,ALERT,30MonoWAV/30MonoT3.wav,2,1,4,15,,,,,0,13,13,14,0,3,3,8,,,,,,,,,1,1.3019679299904965,,,053,001,2019_May_21_1106,MusicAffectPsychophysiology2019,3.0.5,59.9769302340046,
To what extent did the music make you feel ,HAPPY,30MonoWAV/30MonoT3.wav,2,1,4,15,,,,,0,13,13,14,0,4,4,6,,,,,,,,,2,1.6512783829966793,,,053,001,2019_May_21_1106,MusicAffectPsychophysiology2019,3.0.5,59.9769302340046,
To what extent did the music make you feel ,TENDER,30MonoWAV/30MonoT3.wav,2,1,4,15,,,,,0,13,13,14,0,5,5,10,,,,,,,,,3,1.8185756359889638,,,053,001,2019_May_21_1106,MusicAffectPsychophysiology2019,3.0.5,59.9769302340046,
To what extent did the music make you feel ,FRUSTRATED,30MonoWAV/30MonoT3.wav,2,1,4,15,,,,,0,13,13,14,0,6,6,3,,,,,,,,,1,1.2349490740016336,,,053,001,2019_May_21_1106,MusicAffectPsychophysiology2019,3.0.5,59.9769302340046,
To what extent did the music make you feel ,ANGRY,30MonoWAV/30MonoT3.wav,2,1,4,15,,,,,0,13,13,14,0,7,7,2,,,,,,,,,1,1.6006053750024876,,,053,001,2019_May_21_1106,MusicAffectPsychophysiology2019,3.0.5,59.9769302340046,
To what extent did the music make you feel ,SCARED,30MonoWAV/30MonoT3.wav,2,1,4,15,,,,,0,13,13,14,0,8,8,11,,,,,,,,,2,1.1685387120087398,,,053,001,2019_May_21_1106,MusicAffectPsychophysiology2019,3.0.5,59.9769302340046,
To what extent did the music make you feel ,EXCITED,30MonoWAV/30MonoT3.wav,2,1,4,15,,,,,0,13,13,14,0,9,9,7,,,,,,,,,1,1.4680694640119327,,,053,001,2019_May_21_1106,MusicAffectPsychophysiology2019,3.0.5,59.9769302340046,
To what extent did the music make you feel ,ACTIVE,30MonoWAV/30MonoT3.wav,2,1,4,15,,,,,0,13,13,14,0,10,10,9,,,,,,,,,3,1.2526936770009343,,,053,001,2019_May_21_1106,MusicAffectPsychophysiology2019,3.0.5,59.9769302340046,
To what extent did the music make you feel ,ANXIOUS ,30MonoWAV/30MonoT3.wav,2,1,4,15,,,,,0,13,13,14,0,11,11,1,,,,,,,,,4,3.184699910998461,,,053,001,2019_May_21_1106,MusicAffectPsychophysiology2019,3.0.5,59.9769302340046,
,,30MonoWAV/30MonoT3.wav,2,1,4,15,,,,,0,13,13,14,,,,,,,,,,,,,,,,,053,001,2019_May_21_1106,MusicAffectPsychophysiology2019,3.0.5,59.9769302340046,
To what extent did the music make you feel ,ANXIOUS ,30MonoWAV/30MonoF3.wav,1,2,2,3,,,,,0,14,14,2,0,0,0,1,,,3,2.5351831000007223,1,1.516929742996581,3,1.5855149989947677,3,2.1687898029922508,,,053,001,2019_May_21_1106,MusicAffectPsychophysiology2019,3.0.5,59.9769302340046,
To what extent did the music make you feel ,FRUSTRATED,30MonoWAV/30MonoF3.wav,1,2,2,3,,,,,0,14,14,2,0,1,1,3,,,,,,,,,2,1.2557325399975525,,,053,001,2019_May_21_1106,MusicAffectPsychophysiology2019,3.0.5,59.9769302340046,
To what extent did the music make you feel ,ASHAMED,30MonoWAV/30MonoF3.wav,1,2,2,3,,,,,0,14,14,2,0,2,2,4,,,,,,,,,2,1.4701616279926384,,,053,001,2019_May_21_1106,MusicAffectPsychophysiology2019,3.0.5,59.9769302340046,
To what extent did the music make you feel ,ALERT,30MonoWAV/30MonoF3.wav,1,2,2,3,,,,,0,14,14,2,0,3,3,8,,,,,,,,,4,1.3701446990016848,,,053,001,2019_May_21_1106,MusicAffectPsychophysiology2019,3.0.5,59.9769302340046,
To what extent did the music make you feel ,GUILTY,30MonoWAV/30MonoF3.wav,1,2,2,3,,,,,0,14,14,2,0,4,4,5,,,,,,,,,4,1.4534888100024546,,,053,001,2019_May_21_1106,MusicAffectPsychophysiology2019,3.0.5,59.9769302340046,
To what extent did the music make you feel ,ANGRY,30MonoWAV/30MonoF3.wav,1,2,2,3,,,,,0,14,14,2,0,5,5,2,,,,,,,,,1,1.9038175239984412,,,053,001,2019_May_21_1106,MusicAffectPsychophysiology2019,3.0.5,59.9769302340046,
To what extent did the music make you feel ,TENDER,30MonoWAV/30MonoF3.wav,1,2,2,3,,,,,0,14,14,2,0,6,6,10,,,,,,,,,1,1.206850178001332,,,053,001,2019_May_21_1106,MusicAffectPsychophysiology2019,3.0.5,59.9769302340046,
To what extent did the music make you feel ,EXCITED,30MonoWAV/30MonoF3.wav,1,2,2,3,,,,,0,14,14,2,0,7,7,7,,,,,,,,,1,0.9345017890009331,,,053,001,2019_May_21_1106,MusicAffectPsychophysiology2019,3.0.5,59.9769302340046,
To what extent did the music make you feel ,SCARED,30MonoWAV/30MonoF3.wav,1,2,2,3,,,,,0,14,14,2,0,8,8,11,,,,,,,,,3,1.33406824200938,,,053,001,2019_May_21_1106,MusicAffectPsychophysiology2019,3.0.5,59.9769302340046,
To what extent did the music make you feel ,SAD,30MonoWAV/30MonoF3.wav,1,2,2,3,,,,,0,14,14,2,0,9,9,0,,,,,,,,,1,1.202439956003218,,,053,001,2019_May_21_1106,MusicAffectPsychophysiology2019,3.0.5,59.9769302340046,
To what extent did the music make you feel ,ACTIVE,30MonoWAV/30MonoF3.wav,1,2,2,3,,,,,0,14,14,2,0,10,10,9,,,,,,,,,4,2.6367559539939975,,,053,001,2019_May_21_1106,MusicAffectPsychophysiology2019,3.0.5,59.9769302340046,
To what extent did the music make you feel ,HAPPY,30MonoWAV/30MonoF3.wav,1,2,2,3,,,,,0,14,14,2,0,11,11,6,,,,,,,,,1,2.7179156570055056,,,053,001,2019_May_21_1106,MusicAffectPsychophysiology2019,3.0.5,59.9769302340046,
,,30MonoWAV/30MonoF3.wav,1,2,2,3,,,,,0,14,14,2,,,,,,,,,,,,,,,,,053,001,2019_May_21_1106,MusicAffectPsychophysiology2019,3.0.5,59.9769302340046,
To what extent did the music make you feel ,GUILTY,30MonoWAV/30MonoH1.wav,2,2,1,5,,,,,0,15,15,4,0,0,0,5,,,4,2.5228599139954895,3,1.650649319999502,3,1.517920504003996,1,1.739663903004839,,,053,001,2019_May_21_1106,MusicAffectPsychophysiology2019,3.0.5,59.9769302340046,
To what extent did the music make you feel ,ASHAMED,30MonoWAV/30MonoH1.wav,2,2,1,5,,,,,0,15,15,4,0,1,1,4,,,,,,,,,1,1.134534162003547,,,053,001,2019_May_21_1106,MusicAffectPsychophysiology2019,3.0.5,59.9769302340046,
To what extent did the music make you feel ,FRUSTRATED,30MonoWAV/30MonoH1.wav,2,2,1,5,,,,,0,15,15,4,0,2,2,3,,,,,,,,,1,1.0027307950076647,,,053,001,2019_May_21_1106,MusicAffectPsychophysiology2019,3.0.5,59.9769302340046,
To what extent did the music make you feel ,ANXIOUS ,30MonoWAV/30MonoH1.wav,2,2,1,5,,,,,0,15,15,4,0,3,3,1,,,,,,,,,1,0.9028666200028965,,,053,001,2019_May_21_1106,MusicAffectPsychophysiology2019,3.0.5,59.9769302340046,
To what extent did the music make you feel ,SAD,30MonoWAV/30MonoH1.wav,2,2,1,5,,,,,0,15,15,4,0,4,4,0,,,,,,,,,1,1.0860873970086686,,,053,001,2019_May_21_1106,MusicAffectPsychophysiology2019,3.0.5,59.9769302340046,
To what extent did the music make you feel ,ALERT,30MonoWAV/30MonoH1.wav,2,2,1,5,,,,,0,15,15,4,0,5,5,8,,,,,,,,,2,1.2199780569935683,,,053,001,2019_May_21_1106,MusicAffectPsychophysiology2019,3.0.5,59.9769302340046,
To what extent did the music make you feel ,ACTIVE,30MonoWAV/30MonoH1.wav,2,2,1,5,,,,,0,15,15,4,0,6,6,9,,,,,,,,,4,1.1699089700123295,,,053,001,2019_May_21_1106,MusicAffectPsychophysiology2019,3.0.5,59.9769302340046,
To what extent did the music make you feel ,HAPPY,30MonoWAV/30MonoH1.wav,2,2,1,5,,,,,0,15,15,4,0,7,7,6,,,,,,,,,5,1.5227878419973422,,,053,001,2019_May_21_1106,MusicAffectPsychophysiology2019,3.0.5,59.9769302340046,
To what extent did the music make you feel ,SCARED,30MonoWAV/30MonoH1.wav,2,2,1,5,,,,,0,15,15,4,0,8,8,11,,,,,,,,,1,2.0671924999915063,,,053,001,2019_May_21_1106,MusicAffectPsychophysiology2019,3.0.5,59.9769302340046,
To what extent did the music make you feel ,EXCITED,30MonoWAV/30MonoH1.wav,2,2,1,5,,,,,0,15,15,4,0,9,9,7,,,,,,,,,4,1.3181132750032702,,,053,001,2019_May_21_1106,MusicAffectPsychophysiology2019,3.0.5,59.9769302340046,
To what extent did the music make you feel ,TENDER,30MonoWAV/30MonoH1.wav,2,2,1,5,,,,,0,15,15,4,0,10,10,10,,,,,,,,,2,2.018011188003584,,,053,001,2019_May_21_1106,MusicAffectPsychophysiology2019,3.0.5,59.9769302340046,
To what extent did the music make you feel ,ANGRY,30MonoWAV/30MonoH1.wav,2,2,1,5,,,,,0,15,15,4,0,11,11,2,,,,,,,,,1,1.0521002669993322,,,053,001,2019_May_21_1106,MusicAffectPsychophysiology2019,3.0.5,59.9769302340046,
,,30MonoWAV/30MonoH1.wav,2,2,1,5,,,,,0,15,15,4,,,,,,,,,,,,,,,,,053,001,2019_May_21_1106,MusicAffectPsychophysiology2019,3.0.5,59.9769302340046,
To what extent did the music make you feel ,EXCITED,30MonoWAV/30MonoF1.wav,1,2,2,1,,,,,1,0,16,0,0,0,0,7,,,4,2.9185712640028214,1,0.9183952010062058,3,1.3849251250067027,1,1.551714148998144,,,053,001,2019_May_21_1106,MusicAffectPsychophysiology2019,3.0.5,59.9769302340046,
To what extent did the music make you feel ,ASHAMED,30MonoWAV/30MonoF1.wav,1,2,2,1,,,,,1,0,16,0,0,1,1,4,,,,,,,,,2,1.3347394769953098,,,053,001,2019_May_21_1106,MusicAffectPsychophysiology2019,3.0.5,59.9769302340046,
To what extent did the music make you feel ,ANXIOUS ,30MonoWAV/30MonoF1.wav,1,2,2,1,,,,,1,0,16,0,0,2,2,1,,,,,,,,,4,2.7347890740056755,,,053,001,2019_May_21_1106,MusicAffectPsychophysiology2019,3.0.5,59.9769302340046,
To what extent did the music make you feel ,FRUSTRATED,30MonoWAV/30MonoF1.wav,1,2,2,1,,,,,1,0,16,0,0,3,3,3,,,,,,,,,2,1.3355899120069807,,,053,001,2019_May_21_1106,MusicAffectPsychophysiology2019,3.0.5,59.9769302340046,
To what extent did the music make you feel ,ALERT,30MonoWAV/30MonoF1.wav,1,2,2,1,,,,,1,0,16,0,0,4,4,8,,,,,,,,,5,1.4016127700015204,,,053,001,2019_May_21_1106,MusicAffectPsychophysiology2019,3.0.5,59.9769302340046,
To what extent did the music make you feel ,SCARED,30MonoWAV/30MonoF1.wav,1,2,2,1,,,,,1,0,16,0,0,5,5,11,,,,,,,,,4,1.1514821059972746,,,053,001,2019_May_21_1106,MusicAffectPsychophysiology2019,3.0.5,59.9769302340046,
To what extent did the music make you feel ,SAD,30MonoWAV/30MonoF1.wav,1,2,2,1,,,,,1,0,16,0,0,6,6,0,,,,,,,,,2,1.9683040829986567,,,053,001,2019_May_21_1106,MusicAffectPsychophysiology2019,3.0.5,59.9769302340046,
To what extent did the music make you feel ,ANGRY,30MonoWAV/30MonoF1.wav,1,2,2,1,,,,,1,0,16,0,0,7,7,2,,,,,,,,,3,1.5331960540061118,,,053,001,2019_May_21_1106,MusicAffectPsychophysiology2019,3.0.5,59.9769302340046,
To what extent did the music make you feel ,HAPPY,30MonoWAV/30MonoF1.wav,1,2,2,1,,,,,1,0,16,0,0,8,8,6,,,,,,,,,1,1.2003145749913529,,,053,001,2019_May_21_1106,MusicAffectPsychophysiology2019,3.0.5,59.9769302340046,
To what extent did the music make you feel ,GUILTY,30MonoWAV/30MonoF1.wav,1,2,2,1,,,,,1,0,16,0,0,9,9,5,,,,,,,,,2,1.2354988149891142,,,053,001,2019_May_21_1106,MusicAffectPsychophysiology2019,3.0.5,59.9769302340046,
To what extent did the music make you feel ,ACTIVE,30MonoWAV/30MonoF1.wav,1,2,2,1,,,,,1,0,16,0,0,10,10,9,,,,,,,,,4,1.9353404449939262,,,053,001,2019_May_21_1106,MusicAffectPsychophysiology2019,3.0.5,59.9769302340046,
To what extent did the music make you feel ,TENDER,30MonoWAV/30MonoF1.wav,1,2,2,1,,,,,1,0,16,0,0,11,11,10,,,,,,,,,1,0.9350664990051882,,,053,001,2019_May_21_1106,MusicAffectPsychophysiology2019,3.0.5,59.9769302340046,
,,30MonoWAV/30MonoF1.wav,1,2,2,1,,,,,1,0,16,0,,,,,,,,,,,,,,,,,053,001,2019_May_21_1106,MusicAffectPsychophysiology2019,3.0.5,59.9769302340046,
To what extent did the music make you feel ,HAPPY,30MonoWAV/30MonoH1.wav,2,2,1,5,,,,,1,1,17,4,0,0,0,6,,,3,2.6016041399998358,4,1.3838144640030805,3,1.4532509679993382,4,3.534608272006153,,,053,001,2019_May_21_1106,MusicAffectPsychophysiology2019,3.0.5,59.9769302340046,
To what extent did the music make you feel ,SAD,30MonoWAV/30MonoH1.wav,2,2,1,5,,,,,1,1,17,4,0,1,1,0,,,,,,,,,1,1.1186603120004293,,,053,001,2019_May_21_1106,MusicAffectPsychophysiology2019,3.0.5,59.9769302340046,
To what extent did the music make you feel ,ALERT,30MonoWAV/30MonoH1.wav,2,2,1,5,,,,,1,1,17,4,0,2,2,8,,,,,,,,,2,1.101827537000645,,,053,001,2019_May_21_1106,MusicAffectPsychophysiology2019,3.0.5,59.9769302340046,
To what extent did the music make you feel ,ANGRY,30MonoWAV/30MonoH1.wav,2,2,1,5,,,,,1,1,17,4,0,3,3,2,,,,,,,,,1,1.051357905002078,,,053,001,2019_May_21_1106,MusicAffectPsychophysiology2019,3.0.5,59.9769302340046,
To what extent did the music make you feel ,ACTIVE,30MonoWAV/30MonoH1.wav,2,2,1,5,,,,,1,1,17,4,0,4,4,9,,,,,,,,,4,1.3182958260003943,,,053,001,2019_May_21_1106,MusicAffectPsychophysiology2019,3.0.5,59.9769302340046,
To what extent did the music make you feel ,ASHAMED,30MonoWAV/30MonoH1.wav,2,2,1,5,,,,,1,1,17,4,0,5,5,4,,,,,,,,,1,2.2855037129920674,,,053,001,2019_May_21_1106,MusicAffectPsychophysiology2019,3.0.5,59.9769302340046,
To what extent did the music make you feel ,EXCITED,30MonoWAV/30MonoH1.wav,2,2,1,5,,,,,1,1,17,4,0,6,6,7,,,,,,,,,5,1.4008949819981353,,,053,001,2019_May_21_1106,MusicAffectPsychophysiology2019,3.0.5,59.9769302340046,
To what extent did the music make you feel ,SCARED,30MonoWAV/30MonoH1.wav,2,2,1,5,,,,,1,1,17,4,0,7,7,11,,,,,,,,,1,1.0864072249969468,,,053,001,2019_May_21_1106,MusicAffectPsychophysiology2019,3.0.5,59.9769302340046,
To what extent did the music make you feel ,TENDER,30MonoWAV/30MonoH1.wav,2,2,1,5,,,,,1,1,17,4,0,8,8,10,,,,,,,,,1,1.535328992002178,,,053,001,2019_May_21_1106,MusicAffectPsychophysiology2019,3.0.5,59.9769302340046,
To what extent did the music make you feel ,FRUSTRATED,30MonoWAV/30MonoH1.wav,2,2,1,5,,,,,1,1,17,4,0,9,9,3,,,,,,,,,1,1.052223167003831,,,053,001,2019_May_21_1106,MusicAffectPsychophysiology2019,3.0.5,59.9769302340046,
To what extent did the music make you feel ,ANXIOUS ,30MonoWAV/30MonoH1.wav,2,2,1,5,,,,,1,1,17,4,0,10,10,1,,,,,,,,,1,1.456976109999232,,,053,001,2019_May_21_1106,MusicAffectPsychophysiology2019,3.0.5,59.9769302340046,
To what extent did the music make you feel ,GUILTY,30MonoWAV/30MonoH1.wav,2,2,1,5,,,,,1,1,17,4,0,11,11,5,,,,,,,,,1,0.9190074530051788,,,053,001,2019_May_21_1106,MusicAffectPsychophysiology2019,3.0.5,59.9769302340046,
,,30MonoWAV/30MonoH1.wav,2,2,1,5,,,,,1,1,17,4,,,,,,,,,,,,,,,,,053,001,2019_May_21_1106,MusicAffectPsychophysiology2019,3.0.5,59.9769302340046,
To what extent did the music make you feel ,SAD,30MonoWAV/30MonoS1.wav,1,1,3,9,,,,,1,2,18,8,0,0,0,0,,,1,2.324016169994138,1,1.1850537909922423,2,1.9849168289947556,1,1.2502558370033512,,,053,001,2019_May_21_1106,MusicAffectPsychophysiology2019,3.0.5,59.9769302340046,
To what extent did the music make you feel ,FRUSTRATED,30MonoWAV/30MonoS1.wav,1,1,3,9,,,,,1,2,18,8,0,1,1,3,,,,,,,,,2,5.983929588008323,,,053,001,2019_May_21_1106,MusicAffectPsychophysiology2019,3.0.5,59.9769302340046,
To what extent did the music make you feel ,HAPPY,30MonoWAV/30MonoS1.wav,1,1,3,9,,,,,1,2,18,8,0,2,2,6,,,,,,,,,1,1.1180725570011418,,,053,001,2019_May_21_1106,MusicAffectPsychophysiology2019,3.0.5,59.9769302340046,
To what extent did the music make you feel ,GUILTY,30MonoWAV/30MonoS1.wav,1,1,3,9,,,,,1,2,18,8,0,3,3,5,,,,,,,,,3,5.417928044000291,,,053,001,2019_May_21_1106,MusicAffectPsychophysiology2019,3.0.5,59.9769302340046,
To what extent did the music make you feel ,SCARED,30MonoWAV/30MonoS1.wav,1,1,3,9,,,,,1,2,18,8,0,4,4,11,,,,,,,,,3,2.2517033549956977,,,053,001,2019_May_21_1106,MusicAffectPsychophysiology2019,3.0.5,59.9769302340046,
To what extent did the music make you feel ,ALERT,30MonoWAV/30MonoS1.wav,1,1,3,9,,,,,1,2,18,8,0,5,5,8,,,,,,,,,2,2.61763007499394,,,053,001,2019_May_21_1106,MusicAffectPsychophysiology2019,3.0.5,59.9769302340046,
To what extent did the music make you feel ,ACTIVE,30MonoWAV/30MonoS1.wav,1,1,3,9,,,,,1,2,18,8,0,6,6,9,,,,,,,,,1,0.9682260289991973,,,053,001,2019_May_21_1106,MusicAffectPsychophysiology2019,3.0.5,59.9769302340046,
To what extent did the music make you feel ,ANGRY,30MonoWAV/30MonoS1.wav,1,1,3,9,,,,,1,2,18,8,0,7,7,2,,,,,,,,,1,1.1178713200060884,,,053,001,2019_May_21_1106,MusicAffectPsychophysiology2019,3.0.5,59.9769302340046,
To what extent did the music make you feel ,TENDER,30MonoWAV/30MonoS1.wav,1,1,3,9,,,,,1,2,18,8,0,8,8,10,,,,,,,,,4,1.633519070004695,,,053,001,2019_May_21_1106,MusicAffectPsychophysiology2019,3.0.5,59.9769302340046,
To what extent did the music make you feel ,ANXIOUS ,30MonoWAV/30MonoS1.wav,1,1,3,9,,,,,1,2,18,8,0,9,9,1,,,,,,,,,3,1.2343649370013736,,,053,001,2019_May_21_1106,MusicAffectPsychophysiology2019,3.0.5,59.9769302340046,
To what extent did the music make you feel ,EXCITED,30MonoWAV/30MonoS1.wav,1,1,3,9,,,,,1,2,18,8,0,10,10,7,,,,,,,,,1,1.034350669986452,,,053,001,2019_May_21_1106,MusicAffectPsychophysiology2019,3.0.5,59.9769302340046,
To what extent did the music make you feel ,ASHAMED,30MonoWAV/30MonoS1.wav,1,1,3,9,,,,,1,2,18,8,0,11,11,4,,,,,,,,,2,1.1847397230012575,,,053,001,2019_May_21_1106,MusicAffectPsychophysiology2019,3.0.5,59.9769302340046,
,,30MonoWAV/30MonoS1.wav,1,1,3,9,,,,,1,2,18,8,,,,,,,,,,,,,,,,,053,001,2019_May_21_1106,MusicAffectPsychophysiology2019,3.0.5,59.9769302340046,
To what extent did the music make you feel ,HAPPY,30MonoWAV/30MonoH2.wav,2,2,1,6,,,,,1,3,19,5,0,0,0,6,,,2,3.8053551649936708,2,2.3542206040001474,3,1.5059564839903032,2,1.9013010460039368,,,053,001,2019_May_21_1106,MusicAffectPsychophysiology2019,3.0.5,59.9769302340046,
To what extent did the music make you feel ,FRUSTRATED,30MonoWAV/30MonoH2.wav,2,2,1,6,,,,,1,3,19,5,0,1,1,3,,,,,,,,,3,2.3031886120006675,,,053,001,2019_May_21_1106,MusicAffectPsychophysiology2019,3.0.5,59.9769302340046,
To what extent did the music make you feel ,TENDER,30MonoWAV/30MonoH2.wav,2,2,1,6,,,,,1,3,19,5,0,2,2,10,,,,,,,,,2,2.6013661079923622,,,053,001,2019_May_21_1106,MusicAffectPsychophysiology2019,3.0.5,59.9769302340046,
To what extent did the music make you feel ,EXCITED,30MonoWAV/30MonoH2.wav,2,2,1,6,,,,,1,3,19,5,0,3,3,7,,,,,,,,,3,1.9008565570111386,,,053,001,2019_May_21_1106,MusicAffectPsychophysiology2019,3.0.5,59.9769302340046,
To what extent did the music make you feel ,GUILTY,30MonoWAV/30MonoH2.wav,2,2,1,6,,,,,1,3,19,5,0,4,4,5,,,,,,,,,1,1.217657365006744,,,053,001,2019_May_21_1106,MusicAffectPsychophysiology2019,3.0.5,59.9769302340046,
To what extent did the music make you feel ,ANXIOUS ,30MonoWAV/30MonoH2.wav,2,2,1,6,,,,,1,3,19,5,0,5,5,1,,,,,,,,,2,1.1525993120012572,,,053,001,2019_May_21_1106,MusicAffectPsychophysiology2019,3.0.5,59.9769302340046,
To what extent did the music make you feel ,SAD,30MonoWAV/30MonoH2.wav,2,2,1,6,,,,,1,3,19,5,0,6,6,0,,,,,,,,,1,1.118241187010426,,,053,001,2019_May_21_1106,MusicAffectPsychophysiology2019,3.0.5,59.9769302340046,
To what extent did the music make you feel ,ASHAMED,30MonoWAV/30MonoH2.wav,2,2,1,6,,,,,1,3,19,5,0,7,7,4,,,,,,,,,1,1.0850619500124594,,,053,001,2019_May_21_1106,MusicAffectPsychophysiology2019,3.0.5,59.9769302340046,
To what extent did the music make you feel ,SCARED,30MonoWAV/30MonoH2.wav,2,2,1,6,,,,,1,3,19,5,0,8,8,11,,,,,,,,,1,1.9509046989987837,,,053,001,2019_May_21_1106,MusicAffectPsychophysiology2019,3.0.5,59.9769302340046,
To what extent did the music make you feel ,ACTIVE,30MonoWAV/30MonoH2.wav,2,2,1,6,,,,,1,3,19,5,0,9,9,9,,,,,,,,,3,2.584532845998183,,,053,001,2019_May_21_1106,MusicAffectPsychophysiology2019,3.0.5,59.9769302340046,
To what extent did the music make you feel ,ANGRY,30MonoWAV/30MonoH2.wav,2,2,1,6,,,,,1,3,19,5,0,10,10,2,,,,,,,,,2,2.8676594409917016,,,053,001,2019_May_21_1106,MusicAffectPsychophysiology2019,3.0.5,59.9769302340046,
To what extent did the music make you feel ,ALERT,30MonoWAV/30MonoH2.wav,2,2,1,6,,,,,1,3,19,5,0,11,11,8,,,,,,,,,1,1.3005755170015618,,,053,001,2019_May_21_1106,MusicAffectPsychophysiology2019,3.0.5,59.9769302340046,
,,30MonoWAV/30MonoH2.wav,2,2,1,6,,,,,1,3,19,5,,,,,,,,,,,,,,,,,053,001,2019_May_21_1106,MusicAffectPsychophysiology2019,3.0.5,59.9769302340046,
To what extent did the music make you feel ,SCARED,30MonoWAV/30MonoT1.wav,2,1,4,13,,,,,1,4,20,12,0,0,0,11,,,2,3.5880575390037848,3,1.5187491199903889,2,1.285065542004304,1,1.3846589530003257,,,053,001,2019_May_21_1106,MusicAffectPsychophysiology2019,3.0.5,59.9769302340046,
To what extent did the music make you feel ,ASHAMED,30MonoWAV/30MonoT1.wav,2,1,4,13,,,,,1,4,20,12,0,1,1,4,,,,,,,,,2,1.2515847039903747,,,053,001,2019_May_21_1106,MusicAffectPsychophysiology2019,3.0.5,59.9769302340046,
To what extent did the music make you feel ,ALERT,30MonoWAV/30MonoT1.wav,2,1,4,13,,,,,1,4,20,12,0,2,2,8,,,,,,,,,1,1.2347671739989892,,,053,001,2019_May_21_1106,MusicAffectPsychophysiology2019,3.0.5,59.9769302340046,
To what extent did the music make you feel ,SAD,30MonoWAV/30MonoT1.wav,2,1,4,13,,,,,1,4,20,12,0,3,3,0,,,,,,,,,2,1.2677516359981382,,,053,001,2019_May_21_1106,MusicAffectPsychophysiology2019,3.0.5,59.9769302340046,
To what extent did the music make you feel ,EXCITED,30MonoWAV/30MonoT1.wav,2,1,4,13,,,,,1,4,20,12,0,4,4,7,,,,,,,,,1,1.2179822050093208,,,053,001,2019_May_21_1106,MusicAffectPsychophysiology2019,3.0.5,59.9769302340046,
To what extent did the music make you feel ,TENDER,30MonoWAV/30MonoT1.wav,2,1,4,13,,,,,1,4,20,12,0,5,5,10,,,,,,,,,3,1.3345563119946746,,,053,001,2019_May_21_1106,MusicAffectPsychophysiology2019,3.0.5,59.9769302340046,
To what extent did the music make you feel ,ANXIOUS ,30MonoWAV/30MonoT1.wav,2,1,4,13,,,,,1,4,20,12,0,6,6,1,,,,,,,,,1,3.4516192199953366,,,053,001,2019_May_21_1106,MusicAffectPsychophysiology2019,3.0.5,59.9769302340046,
To what extent did the music make you feel ,ANGRY,30MonoWAV/30MonoT1.wav,2,1,4,13,,,,,1,4,20,12,0,7,7,2,,,,,,,,,1,1.6009779430023627,,,053,001,2019_May_21_1106,MusicAffectPsychophysiology2019,3.0.5,59.9769302340046,
To what extent did the music make you feel ,HAPPY,30MonoWAV/30MonoT1.wav,2,1,4,13,,,,,1,4,20,12,0,8,8,6,,,,,,,,,2,1.9224976749974303,,,053,001,2019_May_21_1106,MusicAffectPsychophysiology2019,3.0.5,59.9769302340046,
To what extent did the music make you feel ,GUILTY,30MonoWAV/30MonoT1.wav,2,1,4,13,,,,,1,4,20,12,0,9,9,5,,,,,,,,,2,2.5707889369950863,,,053,001,2019_May_21_1106,MusicAffectPsychophysiology2019,3.0.5,59.9769302340046,
To what extent did the music make you feel ,ACTIVE,30MonoWAV/30MonoT1.wav,2,1,4,13,,,,,1,4,20,12,0,10,10,9,,,,,,,,,1,1.1198376690008445,,,053,001,2019_May_21_1106,MusicAffectPsychophysiology2019,3.0.5,59.9769302340046,
To what extent did the music make you feel ,FRUSTRATED,30MonoWAV/30MonoT1.wav,2,1,4,13,,,,,1,4,20,12,0,11,11,3,,,,,,,,,1,3.4424150389968418,,,053,001,2019_May_21_1106,MusicAffectPsychophysiology2019,3.0.5,59.9769302340046,
,,30MonoWAV/30MonoT1.wav,2,1,4,13,,,,,1,4,20,12,,,,,,,,,,,,,,,,,053,001,2019_May_21_1106,MusicAffectPsychophysiology2019,3.0.5,59.9769302340046,
To what extent did the music make you feel ,ACTIVE,30MonoWAV/30MonoH4.wav,2,2,1,8,,,,,1,5,21,7,0,0,0,9,,,4,2.6517584129906027,4,3.2857780889899004,3,1.7358146019978449,5,1.6018674059887417,,,053,001,2019_May_21_1106,MusicAffectPsychophysiology2019,3.0.5,59.9769302340046,
To what extent did the music make you feel ,ALERT,30MonoWAV/30MonoH4.wav,2,2,1,8,,,,,1,5,21,7,0,1,1,8,,,,,,,,,3,1.7998801570065552,,,053,001,2019_May_21_1106,MusicAffectPsychophysiology2019,3.0.5,59.9769302340046,
To what extent did the music make you feel ,TENDER,30MonoWAV/30MonoH4.wav,2,2,1,8,,,,,1,5,21,7,0,2,2,10,,,,,,,,,1,1.1679892800020752,,,053,001,2019_May_21_1106,MusicAffectPsychophysiology2019,3.0.5,59.9769302340046,
To what extent did the music make you feel ,FRUSTRATED,30MonoWAV/30MonoH4.wav,2,2,1,8,,,,,1,5,21,7,0,3,3,3,,,,,,,,,1,1.0346658740018029,,,053,001,2019_May_21_1106,MusicAffectPsychophysiology2019,3.0.5,59.9769302340046,
To what extent did the music make you feel ,GUILTY,30MonoWAV/30MonoH4.wav,2,2,1,8,,,,,1,5,21,7,0,4,4,5,,,,,,,,,1,0.9356950729998061,,,053,001,2019_May_21_1106,MusicAffectPsychophysiology2019,3.0.5,59.9769302340046,
To what extent did the music make you feel ,EXCITED,30MonoWAV/30MonoH4.wav,2,2,1,8,,,,,1,5,21,7,0,5,5,7,,,,,,,,,4,1.4339122730016243,,,053,001,2019_May_21_1106,MusicAffectPsychophysiology2019,3.0.5,59.9769302340046,
To what extent did the music make you feel ,HAPPY,30MonoWAV/30MonoH4.wav,2,2,1,8,,,,,1,5,21,7,0,6,6,6,,,,,,,,,5,1.2682296220009448,,,053,001,2019_May_21_1106,MusicAffectPsychophysiology2019,3.0.5,59.9769302340046,
To what extent did the music make you feel ,ASHAMED,30MonoWAV/30MonoH4.wav,2,2,1,8,,,,,1,5,21,7,0,7,7,4,,,,,,,,,1,1.0021966960048303,,,053,001,2019_May_21_1106,MusicAffectPsychophysiology2019,3.0.5,59.9769302340046,
To what extent did the music make you feel ,ANGRY,30MonoWAV/30MonoH4.wav,2,2,1,8,,,,,1,5,21,7,0,8,8,2,,,,,,,,,1,0.9024155920051271,,,053,001,2019_May_21_1106,MusicAffectPsychophysiology2019,3.0.5,59.9769302340046,
To what extent did the music make you feel ,SAD,30MonoWAV/30MonoH4.wav,2,2,1,8,,,,,1,5,21,7,0,9,9,0,,,,,,,,,1,1.0180775780027034,,,053,001,2019_May_21_1106,MusicAffectPsychophysiology2019,3.0.5,59.9769302340046,
To what extent did the music make you feel ,SCARED,30MonoWAV/30MonoH4.wav,2,2,1,8,,,,,1,5,21,7,0,10,10,11,,,,,,,,,1,0.9177784430066822,,,053,001,2019_May_21_1106,MusicAffectPsychophysiology2019,3.0.5,59.9769302340046,
To what extent did the music make you feel ,ANXIOUS ,30MonoWAV/30MonoH4.wav,2,2,1,8,,,,,1,5,21,7,0,11,11,1,,,,,,,,,1,1.7502358680067118,,,053,001,2019_May_21_1106,MusicAffectPsychophysiology2019,3.0.5,59.9769302340046,
,,30MonoWAV/30MonoH4.wav,2,2,1,8,,,,,1,5,21,7,,,,,,,,,,,,,,,,,053,001,2019_May_21_1106,MusicAffectPsychophysiology2019,3.0.5,59.9769302340046,
To what extent did the music make you feel ,ALERT,30MonoWAV/30MonoS4.wav,1,1,3,12,,,,,1,6,22,11,0,0,0,8,,,1,2.8183270759909647,1,1.4336382420005975,2,1.4513461229944369,1,1.4347950180090265,,,053,001,2019_May_21_1106,MusicAffectPsychophysiology2019,3.0.5,59.9769302340046,
To what extent did the music make you feel ,TENDER,30MonoWAV/30MonoS4.wav,1,1,3,12,,,,,1,6,22,11,0,1,1,10,,,,,,,,,4,1.2523136880045058,,,053,001,2019_May_21_1106,MusicAffectPsychophysiology2019,3.0.5,59.9769302340046,
To what extent did the music make you feel ,ASHAMED,30MonoWAV/30MonoS4.wav,1,1,3,12,,,,,1,6,22,11,0,2,2,4,,,,,,,,,3,2.4524426129937638,,,053,001,2019_May_21_1106,MusicAffectPsychophysiology2019,3.0.5,59.9769302340046,
To what extent did the music make you feel ,HAPPY,30MonoWAV/30MonoS4.wav,1,1,3,12,,,,,1,6,22,11,0,3,3,6,,,,,,,,,1,0.8665906660025939,,,053,001,2019_May_21_1106,MusicAffectPsychophysiology2019,3.0.5,59.9769302340046,
To what extent did the music make you feel ,ANXIOUS ,30MonoWAV/30MonoS4.wav,1,1,3,12,,,,,1,6,22,11,0,4,4,1,,,,,,,,,3,1.1682387750042835,,,053,001,2019_May_21_1106,MusicAffectPsychophysiology2019,3.0.5,59.9769302340046,
To what extent did the music make you feel ,SAD,30MonoWAV/30MonoS4.wav,1,1,3,12,,,,,1,6,22,11,0,5,5,0,,,,,,,,,1,0.9185368939943146,,,053,001,2019_May_21_1106,MusicAffectPsychophysiology2019,3.0.5,59.9769302340046,
To what extent did the music make you feel ,FRUSTRATED,30MonoWAV/30MonoS4.wav,1,1,3,12,,,,,1,6,22,11,0,6,6,3,,,,,,,,,1,4.334976915008156,,,053,001,2019_May_21_1106,MusicAffectPsychophysiology2019,3.0.5,59.9769302340046,
To what extent did the music make you feel ,SCARED,30MonoWAV/30MonoS4.wav,1,1,3,12,,,,,1,6,22,11,0,7,7,11,,,,,,,,,1,2.235536314008641,,,053,001,2019_May_21_1106,MusicAffectPsychophysiology2019,3.0.5,59.9769302340046,
To what extent did the music make you feel ,EXCITED,30MonoWAV/30MonoS4.wav,1,1,3,12,,,,,1,6,22,11,0,8,8,7,,,,,,,,,1,1.9012749969988363,,,053,001,2019_May_21_1106,MusicAffectPsychophysiology2019,3.0.5,59.9769302340046,
To what extent did the music make you feel ,GUILTY,30MonoWAV/30MonoS4.wav,1,1,3,12,,,,,1,6,22,11,0,9,9,5,,,,,,,,,3,0.968409471999621,,,053,001,2019_May_21_1106,MusicAffectPsychophysiology2019,3.0.5,59.9769302340046,
To what extent did the music make you feel ,ACTIVE,30MonoWAV/30MonoS4.wav,1,1,3,12,,,,,1,6,22,11,0,10,10,9,,,,,,,,,1,1.5681098770000972,,,053,001,2019_May_21_1106,MusicAffectPsychophysiology2019,3.0.5,59.9769302340046,
To what extent did the music make you feel ,ANGRY,30MonoWAV/30MonoS4.wav,1,1,3,12,,,,,1,6,22,11,0,11,11,2,,,,,,,,,2,1.5017834750033217,,,053,001,2019_May_21_1106,MusicAffectPsychophysiology2019,3.0.5,59.9769302340046,
,,30MonoWAV/30MonoS4.wav,1,1,3,12,,,,,1,6,22,11,,,,,,,,,,,,,,,,,053,001,2019_May_21_1106,MusicAffectPsychophysiology2019,3.0.5,59.9769302340046,
To what extent did the music make you feel ,GUILTY,30MonoWAV/30MonoT3.wav,2,1,4,15,,,,,1,7,23,14,0,0,0,5,,,2,2.6886319199984428,2,1.370153037001728,3,1.6365723480121233,1,2.190174064002349,,,053,001,2019_May_21_1106,MusicAffectPsychophysiology2019,3.0.5,59.9769302340046,
To what extent did the music make you feel ,ALERT,30MonoWAV/30MonoT3.wav,2,1,4,15,,,,,1,7,23,14,0,1,1,8,,,,,,,,,1,1.1514000559982378,,,053,001,2019_May_21_1106,MusicAffectPsychophysiology2019,3.0.5,59.9769302340046,
To what extent did the music make you feel ,SAD,30MonoWAV/30MonoT3.wav,2,1,4,15,,,,,1,7,23,14,0,2,2,0,,,,,,,,,3,1.0179472449963214,,,053,001,2019_May_21_1106,MusicAffectPsychophysiology2019,3.0.5,59.9769302340046,
To what extent did the music make you feel ,ASHAMED,30MonoWAV/30MonoT3.wav,2,1,4,15,,,,,1,7,23,14,0,3,3,4,,,,,,,,,2,1.6019367650005734,,,053,001,2019_May_21_1106,MusicAffectPsychophysiology2019,3.0.5,59.9769302340046,
To what extent did the music make you feel ,ANGRY,30MonoWAV/30MonoT3.wav,2,1,4,15,,,,,1,7,23,14,0,4,4,2,,,,,,,,,1,0.7856592390016885,,,053,001,2019_May_21_1106,MusicAffectPsychophysiology2019,3.0.5,59.9769302340046,
To what extent did the music make you feel ,TENDER,30MonoWAV/30MonoT3.wav,2,1,4,15,,,,,1,7,23,14,0,5,5,10,,,,,,,,,4,1.7346031829947606,,,053,001,2019_May_21_1106,MusicAffectPsychophysiology2019,3.0.5,59.9769302340046,
To what extent did the music make you feel ,ACTIVE,30MonoWAV/30MonoT3.wav,2,1,4,15,,,,,1,7,23,14,0,6,6,9,,,,,,,,,1,3.333898348006187,,,053,001,2019_May_21_1106,MusicAffectPsychophysiology2019,3.0.5,59.9769302340046,
To what extent did the music make you feel ,ANXIOUS ,30MonoWAV/30MonoT3.wav,2,1,4,15,,,,,1,7,23,14,0,7,7,1,,,,,,,,,3,1.2179582950047916,,,053,001,2019_May_21_1106,MusicAffectPsychophysiology2019,3.0.5,59.9769302340046,
To what extent did the music make you feel ,HAPPY,30MonoWAV/30MonoT3.wav,2,1,4,15,,,,,1,7,23,14,0,8,8,6,,,,,,,,,1,1.4847122229984961,,,053,001,2019_May_21_1106,MusicAffectPsychophysiology2019,3.0.5,59.9769302340046,
To what extent did the music make you feel ,FRUSTRATED,30MonoWAV/30MonoT3.wav,2,1,4,15,,,,,1,7,23,14,0,9,9,3,,,,,,,,,1,1.2346576280106092,,,053,001,2019_May_21_1106,MusicAffectPsychophysiology2019,3.0.5,59.9769302340046,
To what extent did the music make you feel ,EXCITED,30MonoWAV/30MonoT3.wav,2,1,4,15,,,,,1,7,23,14,0,10,10,7,,,,,,,,,1,3.802232248010114,,,053,001,2019_May_21_1106,MusicAffectPsychophysiology2019,3.0.5,59.9769302340046,
To what extent did the music make you feel ,SCARED,30MonoWAV/30MonoT3.wav,2,1,4,15,,,,,1,7,23,14,0,11,11,11,,,,,,,,,2,1.0353976170008536,,,053,001,2019_May_21_1106,MusicAffectPsychophysiology2019,3.0.5,59.9769302340046,
,,30MonoWAV/30MonoT3.wav,2,1,4,15,,,,,1,7,23,14,,,,,,,,,,,,,,,,,053,001,2019_May_21_1106,MusicAffectPsychophysiology2019,3.0.5,59.9769302340046,
To what extent did the music make you feel ,ANGRY,30MonoWAV/30MonoT4.wav,2,1,4,16,,,,,1,8,24,15,0,0,0,2,,,2,3.222001193003962,2,1.9365827510046074,3,1.836073910992127,1,1.7693413950037211,,,053,001,2019_May_21_1106,MusicAffectPsychophysiology2019,3.0.5,59.9769302340046,
To what extent did the music make you feel ,HAPPY,30MonoWAV/30MonoT4.wav,2,1,4,16,,,,,1,8,24,15,0,1,1,6,,,,,,,,,1,0.9507361720025074,,,053,001,2019_May_21_1106,MusicAffectPsychophysiology2019,3.0.5,59.9769302340046,
To what extent did the music make you feel ,SAD,30MonoWAV/30MonoT4.wav,2,1,4,16,,,,,1,8,24,15,0,2,2,0,,,,,,,,,3,1.0847539319947828,,,053,001,2019_May_21_1106,MusicAffectPsychophysiology2019,3.0.5,59.9769302340046,
To what extent did the music make you feel ,EXCITED,30MonoWAV/30MonoT4.wav,2,1,4,16,,,,,1,8,24,15,0,3,3,7,,,,,,,,,1,1.4498381209996296,,,053,001,2019_May_21_1106,MusicAffectPsychophysiology2019,3.0.5,59.9769302340046,
To what extent did the music make you feel ,ACTIVE,30MonoWAV/30MonoT4.wav,2,1,4,16,,,,,1,8,24,15,0,4,4,9,,,,,,,,,2,1.20152041799156,,,053,001,2019_May_21_1106,MusicAffectPsychophysiology2019,3.0.5,59.9769302340046,
To what extent did the music make you feel ,SCARED,30MonoWAV/30MonoT4.wav,2,1,4,16,,,,,1,8,24,15,0,5,5,11,,,,,,,,,2,2.284146502002841,,,053,001,2019_May_21_1106,MusicAffectPsychophysiology2019,3.0.5,59.9769302340046,
To what extent did the music make you feel ,FRUSTRATED,30MonoWAV/30MonoT4.wav,2,1,4,16,,,,,1,8,24,15,0,6,6,3,,,,,,,,,1,1.2848283850034932,,,053,001,2019_May_21_1106,MusicAffectPsychophysiology2019,3.0.5,59.9769302340046,
To what extent did the music make you feel ,ASHAMED,30MonoWAV/30MonoT4.wav,2,1,4,16,,,,,1,8,24,15,0,7,7,4,,,,,,,,,3,1.584894298997824,,,053,001,2019_May_21_1106,MusicAffectPsychophysiology2019,3.0.5,59.9769302340046,
To what extent did the music make you feel ,ALERT,30MonoWAV/30MonoT4.wav,2,1,4,16,,,,,1,8,24,15,0,8,8,8,,,,,,,,,1,1.0346662099909736,,,053,001,2019_May_21_1106,MusicAffectPsychophysiology2019,3.0.5,59.9769302340046,
To what extent did the music make you feel ,GUILTY,30MonoWAV/30MonoT4.wav,2,1,4,16,,,,,1,8,24,15,0,9,9,5,,,,,,,,,3,1.701689351000823,,,053,001,2019_May_21_1106,MusicAffectPsychophysiology2019,3.0.5,59.9769302340046,
To what extent did the music make you feel ,TENDER,30MonoWAV/30MonoT4.wav,2,1,4,16,,,,,1,8,24,15,0,10,10,10,,,,,,,,,2,1.3690491669985931,,,053,001,2019_May_21_1106,MusicAffectPsychophysiology2019,3.0.5,59.9769302340046,
To what extent did the music make you feel ,ANXIOUS ,30MonoWAV/30MonoT4.wav,2,1,4,16,,,,,1,8,24,15,0,11,11,1,,,,,,,,,2,1.320783853996545,,,053,001,2019_May_21_1106,MusicAffectPsychophysiology2019,3.0.5,59.9769302340046,
,,30MonoWAV/30MonoT4.wav,2,1,4,16,,,,,1,8,24,15,,,,,,,,,,,,,,,,,053,001,2019_May_21_1106,MusicAffectPsychophysiology2019,3.0.5,59.9769302340046,
To what extent did the music make you feel ,HAPPY,30MonoWAV/30MonoT2.wav,2,1,4,14,,,,,1,9,25,13,0,0,0,6,,,3,2.8351530770014506,4,1.3344948669982841,2,1.417275626998162,2,1.8013836830068612,,,053,001,2019_May_21_1106,MusicAffectPsychophysiology2019,3.0.5,59.9769302340046,
To what extent did the music make you feel ,FRUSTRATED,30MonoWAV/30MonoT2.wav,2,1,4,14,,,,,1,9,25,13,0,1,1,3,,,,,,,,,1,1.3682308319985168,,,053,001,2019_May_21_1106,MusicAffectPsychophysiology2019,3.0.5,59.9769302340046,
To what extent did the music make you feel ,GUILTY,30MonoWAV/30MonoT2.wav,2,1,4,14,,,,,1,9,25,13,0,2,2,5,,,,,,,,,1,1.285319836999406,,,053,001,2019_May_21_1106,MusicAffectPsychophysiology2019,3.0.5,59.9769302340046,
To what extent did the music make you feel ,ACTIVE,30MonoWAV/30MonoT2.wav,2,1,4,14,,,,,1,9,25,13,0,3,3,9,,,,,,,,,1,1.2347638879873557,,,053,001,2019_May_21_1106,MusicAffectPsychophysiology2019,3.0.5,59.9769302340046,
To what extent did the music make you feel ,TENDER,30MonoWAV/30MonoT2.wav,2,1,4,14,,,,,1,9,25,13,0,4,4,10,,,,,,,,,4,1.7523069839953678,,,053,001,2019_May_21_1106,MusicAffectPsychophysiology2019,3.0.5,59.9769302340046,
To what extent did the music make you feel ,SAD,30MonoWAV/30MonoT2.wav,2,1,4,14,,,,,1,9,25,13,0,5,5,0,,,,,,,,,2,1.0681248220062116,,,053,001,2019_May_21_1106,MusicAffectPsychophysiology2019,3.0.5,59.9769302340046,
To what extent did the music make you feel ,ANGRY,30MonoWAV/30MonoT2.wav,2,1,4,14,,,,,1,9,25,13,0,6,6,2,,,,,,,,,1,1.2345831979910145,,,053,001,2019_May_21_1106,MusicAffectPsychophysiology2019,3.0.5,59.9769302340046,
To what extent did the music make you feel ,ALERT,30MonoWAV/30MonoT2.wav,2,1,4,14,,,,,1,9,25,13,0,7,7,8,,,,,,,,,1,1.318893848991138,,,053,001,2019_May_21_1106,MusicAffectPsychophysiology2019,3.0.5,59.9769302340046,
To what extent did the music make you feel ,ANXIOUS ,30MonoWAV/30MonoT2.wav,2,1,4,14,,,,,1,9,25,13,0,8,8,1,,,,,,,,,3,1.434477151997271,,,053,001,2019_May_21_1106,MusicAffectPsychophysiology2019,3.0.5,59.9769302340046,
To what extent did the music make you feel ,ASHAMED,30MonoWAV/30MonoT2.wav,2,1,4,14,,,,,1,9,25,13,0,9,9,4,,,,,,,,,2,1.1512354150036117,,,053,001,2019_May_21_1106,MusicAffectPsychophysiology2019,3.0.5,59.9769302340046,
To what extent did the music make you feel ,SCARED,30MonoWAV/30MonoT2.wav,2,1,4,14,,,,,1,9,25,13,0,10,10,11,,,,,,,,,2,1.234267740001087,,,053,001,2019_May_21_1106,MusicAffectPsychophysiology2019,3.0.5,59.9769302340046,
To what extent did the music make you feel ,EXCITED,30MonoWAV/30MonoT2.wav,2,1,4,14,,,,,1,9,25,13,0,11,11,7,,,,,,,,,1,0.6856400899996515,,,053,001,2019_May_21_1106,MusicAffectPsychophysiology2019,3.0.5,59.9769302340046,
,,30MonoWAV/30MonoT2.wav,2,1,4,14,,,,,1,9,25,13,,,,,,,,,,,,,,,,,053,001,2019_May_21_1106,MusicAffectPsychophysiology2019,3.0.5,59.9769302340046,
To what extent did the music make you feel ,TENDER,30MonoWAV/30MonoF3.wav,1,2,2,3,,,,,1,10,26,2,0,0,0,10,,,3,2.502340995997656,2,3.400997443997767,2,2.751417831008439,1,1.3680788569909055,,,053,001,2019_May_21_1106,MusicAffectPsychophysiology2019,3.0.5,59.9769302340046,
To what extent did the music make you feel ,ANXIOUS ,30MonoWAV/30MonoF3.wav,1,2,2,3,,,,,1,10,26,2,0,1,1,1,,,,,,,,,2,1.0678552850004053,,,053,001,2019_May_21_1106,MusicAffectPsychophysiology2019,3.0.5,59.9769302340046,
To what extent did the music make you feel ,SAD,30MonoWAV/30MonoF3.wav,1,2,2,3,,,,,1,10,26,2,0,2,2,0,,,,,,,,,2,1.201195475005079,,,053,001,2019_May_21_1106,MusicAffectPsychophysiology2019,3.0.5,59.9769302340046,
To what extent did the music make you feel ,ALERT,30MonoWAV/30MonoF3.wav,1,2,2,3,,,,,1,10,26,2,0,3,3,8,,,,,,,,,4,1.2516565630066907,,,053,001,2019_May_21_1106,MusicAffectPsychophysiology2019,3.0.5,59.9769302340046,
To what extent did the music make you feel ,HAPPY,30MonoWAV/30MonoF3.wav,1,2,2,3,,,,,1,10,26,2,0,4,4,6,,,,,,,,,1,1.050798134994693,,,053,001,2019_May_21_1106,MusicAffectPsychophysiology2019,3.0.5,59.9769302340046,
To what extent did the music make you feel ,ASHAMED,30MonoWAV/30MonoF3.wav,1,2,2,3,,,,,1,10,26,2,0,5,5,4,,,,,,,,,2,1.1178746479999973,,,053,001,2019_May_21_1106,MusicAffectPsychophysiology2019,3.0.5,59.9769302340046,
To what extent did the music make you feel ,ANGRY,30MonoWAV/30MonoF3.wav,1,2,2,3,,,,,1,10,26,2,0,6,6,2,,,,,,,,,4,1.8519141930009937,,,053,001,2019_May_21_1106,MusicAffectPsychophysiology2019,3.0.5,59.9769302340046,
To what extent did the music make you feel ,GUILTY,30MonoWAV/30MonoF3.wav,1,2,2,3,,,,,1,10,26,2,0,7,7,5,,,,,,,,,3,1.1351629670098191,,,053,001,2019_May_21_1106,MusicAffectPsychophysiology2019,3.0.5,59.9769302340046,
To what extent did the music make you feel ,EXCITED,30MonoWAV/30MonoF3.wav,1,2,2,3,,,,,1,10,26,2,0,8,8,7,,,,,,,,,1,1.01689806599461,,,053,001,2019_May_21_1106,MusicAffectPsychophysiology2019,3.0.5,59.9769302340046,
To what extent did the music make you feel ,ACTIVE,30MonoWAV/30MonoF3.wav,1,2,2,3,,,,,1,10,26,2,0,9,9,9,,,,,,,,,1,1.034434417000739,,,053,001,2019_May_21_1106,MusicAffectPsychophysiology2019,3.0.5,59.9769302340046,
To what extent did the music make you feel ,FRUSTRATED,30MonoWAV/30MonoF3.wav,1,2,2,3,,,,,1,10,26,2,0,10,10,3,,,,,,,,,4,1.4855776899930788,,,053,001,2019_May_21_1106,MusicAffectPsychophysiology2019,3.0.5,59.9769302340046,
To what extent did the music make you feel ,SCARED,30MonoWAV/30MonoF3.wav,1,2,2,3,,,,,1,10,26,2,0,11,11,11,,,,,,,,,2,1.3349292930070078,,,053,001,2019_May_21_1106,MusicAffectPsychophysiology2019,3.0.5,59.9769302340046,
,,30MonoWAV/30MonoF3.wav,1,2,2,3,,,,,1,10,26,2,,,,,,,,,,,,,,,,,053,001,2019_May_21_1106,MusicAffectPsychophysiology2019,3.0.5,59.9769302340046,
To what extent did the music make you feel ,ACTIVE,30MonoWAV/30MonoH3.wav,2,2,1,7,,,,,1,11,27,6,0,0,0,9,,,4,2.5880163840047317,4,2.1729401949996827,2,1.567407459995593,3,2.419901735003805,,,053,001,2019_May_21_1106,MusicAffectPsychophysiology2019,3.0.5,59.9769302340046,
To what extent did the music make you feel ,HAPPY,30MonoWAV/30MonoH3.wav,2,2,1,7,,,,,1,11,27,6,0,1,1,6,,,,,,,,,4,1.1844429729972035,,,053,001,2019_May_21_1106,MusicAffectPsychophysiology2019,3.0.5,59.9769302340046,
To what extent did the music make you feel ,SAD,30MonoWAV/30MonoH3.wav,2,2,1,7,,,,,1,11,27,6,0,2,2,0,,,,,,,,,1,0.972660271989298,,,053,001,2019_May_21_1106,MusicAffectPsychophysiology2019,3.0.5,59.9769302340046,
To what extent did the music make you feel ,ANGRY,30MonoWAV/30MonoH3.wav,2,2,1,7,,,,,1,11,27,6,0,3,3,2,,,,,,,,,2,1.0533167459943797,,,053,001,2019_May_21_1106,MusicAffectPsychophysiology2019,3.0.5,59.9769302340046,
To what extent did the music make you feel ,FRUSTRATED,30MonoWAV/30MonoH3.wav,2,2,1,7,,,,,1,11,27,6,0,4,4,3,,,,,,,,,1,2.2544285409967415,,,053,001,2019_May_21_1106,MusicAffectPsychophysiology2019,3.0.5,59.9769302340046,
To what extent did the music make you feel ,EXCITED,30MonoWAV/30MonoH3.wav,2,2,1,7,,,,,1,11,27,6,0,5,5,7,,,,,,,,,2,2.854647895001108,,,053,001,2019_May_21_1106,MusicAffectPsychophysiology2019,3.0.5,59.9769302340046,
To what extent did the music make you feel ,ALERT,30MonoWAV/30MonoH3.wav,2,2,1,7,,,,,1,11,27,6,0,6,6,8,,,,,,,,,2,3.1059023559937486,,,053,001,2019_May_21_1106,MusicAffectPsychophysiology2019,3.0.5,59.9769302340046,
To what extent did the music make you feel ,SCARED,30MonoWAV/30MonoH3.wav,2,2,1,7,,,,,1,11,27,6,0,7,7,11,,,,,,,,,1,1.318402860997594,,,053,001,2019_May_21_1106,MusicAffectPsychophysiology2019,3.0.5,59.9769302340046,
To what extent did the music make you feel ,ASHAMED,30MonoWAV/30MonoH3.wav,2,2,1,7,,,,,1,11,27,6,0,8,8,4,,,,,,,,,1,0.9187339040072402,,,053,001,2019_May_21_1106,MusicAffectPsychophysiology2019,3.0.5,59.9769302340046,
To what extent did the music make you feel ,GUILTY,30MonoWAV/30MonoH3.wav,2,2,1,7,,,,,1,11,27,6,0,9,9,5,,,,,,,,,1,0.8356286320049549,,,053,001,2019_May_21_1106,MusicAffectPsychophysiology2019,3.0.5,59.9769302340046,
To what extent did the music make you feel ,TENDER,30MonoWAV/30MonoH3.wav,2,2,1,7,,,,,1,11,27,6,0,10,10,10,,,,,,,,,2,1.6223767040064558,,,053,001,2019_May_21_1106,MusicAffectPsychophysiology2019,3.0.5,59.9769302340046,
To what extent did the music make you feel ,ANXIOUS ,30MonoWAV/30MonoH3.wav,2,2,1,7,,,,,1,11,27,6,0,11,11,1,,,,,,,,,1,1.15164877200732,,,053,001,2019_May_21_1106,MusicAffectPsychophysiology2019,3.0.5,59.9769302340046,
,,30MonoWAV/30MonoH3.wav,2,2,1,7,,,,,1,11,27,6,,,,,,,,,,,,,,,,,053,001,2019_May_21_1106,MusicAffectPsychophysiology2019,3.0.5,59.9769302340046,
To what extent did the music make you feel ,EXCITED,30MonoWAV/30MonoS2.wav,1,1,3,10,,,,,1,12,28,9,0,0,0,7,,,1,3.768117949992302,1,1.2341131180000957,2,1.2018075639934978,1,2.6854913429997396,,,053,001,2019_May_21_1106,MusicAffectPsychophysiology2019,3.0.5,59.9769302340046,
To what extent did the music make you feel ,ANXIOUS ,30MonoWAV/30MonoS2.wav,1,1,3,10,,,,,1,12,28,9,0,1,1,1,,,,,,,,,2,1.2010784360027174,,,053,001,2019_May_21_1106,MusicAffectPsychophysiology2019,3.0.5,59.9769302340046,
To what extent did the music make you feel ,SAD,30MonoWAV/30MonoS2.wav,1,1,3,10,,,,,1,12,28,9,0,2,2,0,,,,,,,,,4,1.202047381986631,,,053,001,2019_May_21_1106,MusicAffectPsychophysiology2019,3.0.5,59.9769302340046,
To what extent did the music make you feel ,ACTIVE,30MonoWAV/30MonoS2.wav,1,1,3,10,,,,,1,12,28,9,0,3,3,9,,,,,,,,,1,1.085051772010047,,,053,001,2019_May_21_1106,MusicAffectPsychophysiology2019,3.0.5,59.9769302340046,
To what extent did the music make you feel ,SCARED,30MonoWAV/30MonoS2.wav,1,1,3,10,,,,,1,12,28,9,0,4,4,11,,,,,,,,,3,1.2681866799975978,,,053,001,2019_May_21_1106,MusicAffectPsychophysiology2019,3.0.5,59.9769302340046,
To what extent did the music make you feel ,ASHAMED,30MonoWAV/30MonoS2.wav,1,1,3,10,,,,,1,12,28,9,0,5,5,4,,,,,,,,,2,1.0509741410060087,,,053,001,2019_May_21_1106,MusicAffectPsychophysiology2019,3.0.5,59.9769302340046,
To what extent did the music make you feel ,ANGRY,30MonoWAV/30MonoS2.wav,1,1,3,10,,,,,1,12,28,9,0,6,6,2,,,,,,,,,1,1.6686129549925681,,,053,001,2019_May_21_1106,MusicAffectPsychophysiology2019,3.0.5,59.9769302340046,
To what extent did the music make you feel ,HAPPY,30MonoWAV/30MonoS2.wav,1,1,3,10,,,,,1,12,28,9,0,7,7,6,,,,,,,,,1,1.017878141006804,,,053,001,2019_May_21_1106,MusicAffectPsychophysiology2019,3.0.5,59.9769302340046,
To what extent did the music make you feel ,GUILTY,30MonoWAV/30MonoS2.wav,1,1,3,10,,,,,1,12,28,9,0,8,8,5,,,,,,,,,3,1.1018210139882285,,,053,001,2019_May_21_1106,MusicAffectPsychophysiology2019,3.0.5,59.9769302340046,
To what extent did the music make you feel ,TENDER,30MonoWAV/30MonoS2.wav,1,1,3,10,,,,,1,12,28,9,0,9,9,10,,,,,,,,,2,1.2020040689967573,,,053,001,2019_May_21_1106,MusicAffectPsychophysiology2019,3.0.5,59.9769302340046,
To what extent did the music make you feel ,FRUSTRATED,30MonoWAV/30MonoS2.wav,1,1,3,10,,,,,1,12,28,9,0,10,10,3,,,,,,,,,1,1.2529012570012128,,,053,001,2019_May_21_1106,MusicAffectPsychophysiology2019,3.0.5,59.9769302340046,
To what extent did the music make you feel ,ALERT,30MonoWAV/30MonoS2.wav,1,1,3,10,,,,,1,12,28,9,0,11,11,8,,,,,,,,,1,1.0348404589894926,,,053,001,2019_May_21_1106,MusicAffectPsychophysiology2019,3.0.5,59.9769302340046,
,,30MonoWAV/30MonoS2.wav,1,1,3,10,,,,,1,12,28,9,,,,,,,,,,,,,,,,,053,001,2019_May_21_1106,MusicAffectPsychophysiology2019,3.0.5,59.9769302340046,
To what extent did the music make you feel ,FRUSTRATED,30MonoWAV/30MonoS3.wav,1,1,3,11,,,,,1,13,29,10,0,0,0,3,,,2,4.550000283998088,1,1.270041729992954,2,1.286202286995831,2,1.2993024339957628,,,053,001,2019_May_21_1106,MusicAffectPsychophysiology2019,3.0.5,59.9769302340046,
To what extent did the music make you feel ,SCARED,30MonoWAV/30MonoS3.wav,1,1,3,11,,,,,1,13,29,10,0,1,1,11,,,,,,,,,3,0.9399528380017728,,,053,001,2019_May_21_1106,MusicAffectPsychophysiology2019,3.0.5,59.9769302340046,
To what extent did the music make you feel ,ASHAMED,30MonoWAV/30MonoS3.wav,1,1,3,11,,,,,1,13,29,10,0,2,2,4,,,,,,,,,3,1.1364377169957152,,,053,001,2019_May_21_1106,MusicAffectPsychophysiology2019,3.0.5,59.9769302340046,
To what extent did the music make you feel ,SAD,30MonoWAV/30MonoS3.wav,1,1,3,11,,,,,1,13,29,10,0,3,3,0,,,,,,,,,4,1.319659426008002,,,053,001,2019_May_21_1106,MusicAffectPsychophysiology2019,3.0.5,59.9769302340046,
To what extent did the music make you feel ,GUILTY,30MonoWAV/30MonoS3.wav,1,1,3,11,,,,,1,13,29,10,0,4,4,5,,,,,,,,,3,1.318459296002402,,,053,001,2019_May_21_1106,MusicAffectPsychophysiology2019,3.0.5,59.9769302340046,
To what extent did the music make you feel ,ALERT,30MonoWAV/30MonoS3.wav,1,1,3,11,,,,,1,13,29,10,0,5,5,8,,,,,,,,,1,1.1197681729972828,,,053,001,2019_May_21_1106,MusicAffectPsychophysiology2019,3.0.5,59.9769302340046,
To what extent did the music make you feel ,EXCITED,30MonoWAV/30MonoS3.wav,1,1,3,11,,,,,1,13,29,10,0,6,6,7,,,,,,,,,1,1.086678801002563,,,053,001,2019_May_21_1106,MusicAffectPsychophysiology2019,3.0.5,59.9769302340046,
To what extent did the music make you feel ,HAPPY,30MonoWAV/30MonoS3.wav,1,1,3,11,,,,,1,13,29,10,0,7,7,6,,,,,,,,,1,0.6393895600049291,,,053,001,2019_May_21_1106,MusicAffectPsychophysiology2019,3.0.5,59.9769302340046,
To what extent did the music make you feel ,ANGRY,30MonoWAV/30MonoS3.wav,1,1,3,11,,,,,1,13,29,10,0,8,8,2,,,,,,,,,2,1.085683983998024,,,053,001,2019_May_21_1106,MusicAffectPsychophysiology2019,3.0.5,59.9769302340046,
To what extent did the music make you feel ,ACTIVE,30MonoWAV/30MonoS3.wav,1,1,3,11,,,,,1,13,29,10,0,9,9,9,,,,,,,,,2,0.9501442390028387,,,053,001,2019_May_21_1106,MusicAffectPsychophysiology2019,3.0.5,59.9769302340046,
To what extent did the music make you feel ,ANXIOUS ,30MonoWAV/30MonoS3.wav,1,1,3,11,,,,,1,13,29,10,0,10,10,1,,,,,,,,,3,1.0031016650027595,,,053,001,2019_May_21_1106,MusicAffectPsychophysiology2019,3.0.5,59.9769302340046,
To what extent did the music make you feel ,TENDER,30MonoWAV/30MonoS3.wav,1,1,3,11,,,,,1,13,29,10,0,11,11,10,,,,,,,,,1,1.4024269740039017,,,053,001,2019_May_21_1106,MusicAffectPsychophysiology2019,3.0.5,59.9769302340046,
,,30MonoWAV/30MonoS3.wav,1,1,3,11,,,,,1,13,29,10,,,,,,,,,,,,,,,,,053,001,2019_May_21_1106,MusicAffectPsychophysiology2019,3.0.5,59.9769302340046,
To what extent did the music make you feel ,ALERT,30MonoWAV/30MonoF4.wav,1,2,2,4,,,,,1,14,30,3,0,0,0,8,,,2,2.468412903996068,1,1.1186771170032443,2,1.984498576988699,3,1.7654820820025634,,,053,001,2019_May_21_1106,MusicAffectPsychophysiology2019,3.0.5,59.9769302340046,
To what extent did the music make you feel ,SCARED,30MonoWAV/30MonoF4.wav,1,2,2,4,,,,,1,14,30,3,0,1,1,11,,,,,,,,,4,1.1367019559984328,,,053,001,2019_May_21_1106,MusicAffectPsychophysiology2019,3.0.5,59.9769302340046,
To what extent did the music make you feel ,GUILTY,30MonoWAV/30MonoF4.wav,1,2,2,4,,,,,1,14,30,3,0,2,2,5,,,,,,,,,2,1.1353678510058671,,,053,001,2019_May_21_1106,MusicAffectPsychophysiology2019,3.0.5,59.9769302340046,
To what extent did the music make you feel ,SAD,30MonoWAV/30MonoF4.wav,1,2,2,4,,,,,1,14,30,3,0,3,3,0,,,,,,,,,2,1.284645207997528,,,053,001,2019_May_21_1106,MusicAffectPsychophysiology2019,3.0.5,59.9769302340046,
To what extent did the music make you feel ,TENDER,30MonoWAV/30MonoF4.wav,1,2,2,4,,,,,1,14,30,3,0,4,4,10,,,,,,,,,1,1.1507275219919393,,,053,001,2019_May_21_1106,MusicAffectPsychophysiology2019,3.0.5,59.9769302340046,
To what extent did the music make you feel ,FRUSTRATED,30MonoWAV/30MonoF4.wav,1,2,2,4,,,,,1,14,30,3,0,5,5,3,,,,,,,,,2,1.101775587987504,,,053,001,2019_May_21_1106,MusicAffectPsychophysiology2019,3.0.5,59.9769302340046,
To what extent did the music make you feel ,ASHAMED,30MonoWAV/30MonoF4.wav,1,2,2,4,,,,,1,14,30,3,0,6,6,4,,,,,,,,,4,1.2832557680085301,,,053,001,2019_May_21_1106,MusicAffectPsychophysiology2019,3.0.5,59.9769302340046,
To what extent did the music make you feel ,ACTIVE,30MonoWAV/30MonoF4.wav,1,2,2,4,,,,,1,14,30,3,0,7,7,9,,,,,,,,,1,1.0015362779959105,,,053,001,2019_May_21_1106,MusicAffectPsychophysiology2019,3.0.5,59.9769302340046,
To what extent did the music make you feel ,ANXIOUS ,30MonoWAV/30MonoF4.wav,1,2,2,4,,,,,1,14,30,3,0,8,8,1,,,,,,,,,2,1.1194493299990427,,,053,001,2019_May_21_1106,MusicAffectPsychophysiology2019,3.0.5,59.9769302340046,
To what extent did the music make you feel ,ANGRY,30MonoWAV/30MonoF4.wav,1,2,2,4,,,,,1,14,30,3,0,9,9,2,,,,,,,,,2,1.718414558999939,,,053,001,2019_May_21_1106,MusicAffectPsychophysiology2019,3.0.5,59.9769302340046,
To what extent did the music make you feel ,HAPPY,30MonoWAV/30MonoF4.wav,1,2,2,4,,,,,1,14,30,3,0,10,10,6,,,,,,,,,1,0.9683462789980695,,,053,001,2019_May_21_1106,MusicAffectPsychophysiology2019,3.0.5,59.9769302340046,
To what extent did the music make you feel ,EXCITED,30MonoWAV/30MonoF4.wav,1,2,2,4,,,,,1,14,30,3,0,11,11,7,,,,,,,,,1,0.8695887130015763,,,053,001,2019_May_21_1106,MusicAffectPsychophysiology2019,3.0.5,59.9769302340046,
,,30MonoWAV/30MonoF4.wav,1,2,2,4,,,,,1,14,30,3,,,,,,,,,,,,,,,,,053,001,2019_May_21_1106,MusicAffectPsychophysiology2019,3.0.5,59.9769302340046,
To what extent did the music make you feel ,ASHAMED,30MonoWAV/30MonoF2.wav,1,2,2,2,,,,,1,15,31,1,0,0,0,4,,,2,2.81870981999964,1,0.9846355329937069,3,1.1696358199988026,1,1.484579619995202,,,053,001,2019_May_21_1106,MusicAffectPsychophysiology2019,3.0.5,59.9769302340046,
To what extent did the music make you feel ,EXCITED,30MonoWAV/30MonoF2.wav,1,2,2,2,,,,,1,15,31,1,0,1,1,7,,,,,,,,,1,0.8319946660049027,,,053,001,2019_May_21_1106,MusicAffectPsychophysiology2019,3.0.5,59.9769302340046,
To what extent did the music make you feel ,SAD,30MonoWAV/30MonoF2.wav,1,2,2,2,,,,,1,15,31,1,0,2,2,0,,,,,,,,,2,1.1850443739967886,,,053,001,2019_May_21_1106,MusicAffectPsychophysiology2019,3.0.5,59.9769302340046,
To what extent did the music make you feel ,FRUSTRATED,30MonoWAV/30MonoF2.wav,1,2,2,2,,,,,1,15,31,1,0,3,3,3,,,,,,,,,2,1.3180644270032644,,,053,001,2019_May_21_1106,MusicAffectPsychophysiology2019,3.0.5,59.9769302340046,
To what extent did the music make you feel ,ANGRY,30MonoWAV/30MonoF2.wav,1,2,2,2,,,,,1,15,31,1,0,4,4,2,,,,,,,,,2,1.0833155419968534,,,053,001,2019_May_21_1106,MusicAffectPsychophysiology2019,3.0.5,59.9769302340046,
To what extent did the music make you feel ,TENDER,30MonoWAV/30MonoF2.wav,1,2,2,2,,,,,1,15,31,1,0,5,5,10,,,,,,,,,1,1.0349476960109314,,,053,001,2019_May_21_1106,MusicAffectPsychophysiology2019,3.0.5,59.9769302340046,
To what extent did the music make you feel ,ACTIVE,30MonoWAV/30MonoF2.wav,1,2,2,2,,,,,1,15,31,1,0,6,6,9,,,,,,,,,1,1.0686672309966525,,,053,001,2019_May_21_1106,MusicAffectPsychophysiology2019,3.0.5,59.9769302340046,
To what extent did the music make you feel ,ANXIOUS ,30MonoWAV/30MonoF2.wav,1,2,2,2,,,,,1,15,31,1,0,7,7,1,,,,,,,,,4,1.5515213999897242,,,053,001,2019_May_21_1106,MusicAffectPsychophysiology2019,3.0.5,59.9769302340046,
To what extent did the music make you feel ,SCARED,30MonoWAV/30MonoF2.wav,1,2,2,2,,,,,1,15,31,1,0,8,8,11,,,,,,,,,5,1.4246447260084096,,,053,001,2019_May_21_1106,MusicAffectPsychophysiology2019,3.0.5,59.9769302340046,
To what extent did the music make you feel ,GUILTY,30MonoWAV/30MonoF2.wav,1,2,2,2,,,,,1,15,31,1,0,9,9,5,,,,,,,,,2,1.68702444700466,,,053,001,2019_May_21_1106,MusicAffectPsychophysiology2019,3.0.5,59.9769302340046,
To what extent did the music make you feel ,ALERT,30MonoWAV/30MonoF2.wav,1,2,2,2,,,,,1,15,31,1,0,10,10,8,,,,,,,,,4,2.4378396199899726,,,053,001,2019_May_21_1106,MusicAffectPsychophysiology2019,3.0.5,59.9769302340046,
To what extent did the music make you feel ,HAPPY,30MonoWAV/30MonoF2.wav,1,2,2,2,,,,,1,15,31,1,0,11,11,6,,,,,,,,,1,1.657110294996528,,,053,001,2019_May_21_1106,MusicAffectPsychophysiology2019,3.0.5,59.9769302340046,
,,30MonoWAV/30MonoF2.wav,1,2,2,2,,,,,1,15,31,1,,,,,,,,,,,,,,,,,053,001,2019_May_21_1106,MusicAffectPsychophysiology2019,3.0.5,59.9769302340046,
,,,,,,,,,,,,,,,,,,,,,,,,,,,,,space,6.567397519000224,053,001,2019_May_21_1106,MusicAffectPsychophysiology2019,3.0.5,59.9769302340046,
