Instruction,Word,song,valence,arousal,affectcat,songmark,pracwords.thisRepN,pracwords.thisTrialN,pracwords.thisN,pracwords.thisIndex,songtrials.thisRepN,songtrials.thisTrialN,songtrials.thisN,songtrials.thisIndex,words.thisRepN,words.thisTrialN,words.thisN,words.thisIndex,begin.keys,begin.rt,arousalkey.keys,arousalkey.rt,valencekey.keys,valencekey.rt,likekey.keys,likekey.rt,WordResponse.keys,WordResponse.rt,key_resp_2.keys,key_resp_2.rt,participant,session,date,expName,psychopyVersion,frameRate,
,,,,,,,,,,,,,,,,,,,return,14.963420636006049,,,,,,,,,,,054,001,2019_May_21_1404,MusicAffectPsychophysiology2019,3.0.5,60.213396278555855,
,,,,,,,,,,,,,,,,,,,,,3,5.334950846008724,,,,,,,,,054,001,2019_May_21_1404,MusicAffectPsychophysiology2019,3.0.5,60.213396278555855,
,,,,,,,,,,,,,,,,,,,,,,,4,4.592467199996463,,,,,,,054,001,2019_May_21_1404,MusicAffectPsychophysiology2019,3.0.5,60.213396278555855,
,,,,,,,,,,,,,,,,,,,,,,,,,5,1.3200360479968367,,,,,054,001,2019_May_21_1404,MusicAffectPsychophysiology2019,3.0.5,60.213396278555855,
To what extent did the music make you feel ,ANGRY,,,,,,0,0,0,2,,,,,,,,,,,,,,,,,1,2.774411518999841,,,054,001,2019_May_21_1404,MusicAffectPsychophysiology2019,3.0.5,60.213396278555855,
To what extent did the music make you feel ,ANXIOUS ,,,,,,0,1,1,1,,,,,,,,,,,,,,,,,2,1.2013887469947804,,,054,001,2019_May_21_1404,MusicAffectPsychophysiology2019,3.0.5,60.213396278555855,
To what extent did the music make you feel ,EXCITED,,,,,,0,2,2,7,,,,,,,,,,,,,,,,,3,3.1515488940058276,,,054,001,2019_May_21_1404,MusicAffectPsychophysiology2019,3.0.5,60.213396278555855,
To what extent did the music make you feel ,SCARED,,,,,,0,3,3,11,,,,,,,,,,,,,,,,,1,3.607496076001553,,,054,001,2019_May_21_1404,MusicAffectPsychophysiology2019,3.0.5,60.213396278555855,
To what extent did the music make you feel ,FRUSTRATED,,,,,,0,4,4,3,,,,,,,,,,,,,,,,,1,3.005185400994378,,,054,001,2019_May_21_1404,MusicAffectPsychophysiology2019,3.0.5,60.213396278555855,
To what extent did the music make you feel ,ASHAMED,,,,,,0,5,5,4,,,,,,,,,,,,,,,,,2,1.870410127012292,,,054,001,2019_May_21_1404,MusicAffectPsychophysiology2019,3.0.5,60.213396278555855,
To what extent did the music make you feel ,ACTIVE,,,,,,0,6,6,9,,,,,,,,,,,,,,,,,2,1.807258754997747,,,054,001,2019_May_21_1404,MusicAffectPsychophysiology2019,3.0.5,60.213396278555855,
To what extent did the music make you feel ,ALERT,,,,,,0,7,7,8,,,,,,,,,,,,,,,,,3,2.1515360430057626,,,054,001,2019_May_21_1404,MusicAffectPsychophysiology2019,3.0.5,60.213396278555855,
To what extent did the music make you feel ,GUILTY,,,,,,0,8,8,5,,,,,,,,,,,,,,,,,2,1.501966811993043,,,054,001,2019_May_21_1404,MusicAffectPsychophysiology2019,3.0.5,60.213396278555855,
To what extent did the music make you feel ,TENDER,,,,,,0,9,9,10,,,,,,,,,,,,,,,,,4,2.2229029839945724,,,054,001,2019_May_21_1404,MusicAffectPsychophysiology2019,3.0.5,60.213396278555855,
To what extent did the music make you feel ,HAPPY,,,,,,0,10,10,6,,,,,,,,,,,,,,,,,4,1.3028864410007372,,,054,001,2019_May_21_1404,MusicAffectPsychophysiology2019,3.0.5,60.213396278555855,
To what extent did the music make you feel ,SAD,,,,,,0,11,11,0,,,,,,,,,,,,,,,,,4,3.3549031949951313,,,054,001,2019_May_21_1404,MusicAffectPsychophysiology2019,3.0.5,60.213396278555855,
To what extent did the music make you feel ,GUILTY,30MonoWAV/30MonoT3.wav,2,1,4,15,,,,,0,0,0,14,0,0,0,5,,,1,4.257795294004609,3,2.721493321005255,3,1.6374063409894006,1,2.490273598989006,,,054,001,2019_May_21_1404,MusicAffectPsychophysiology2019,3.0.5,60.213396278555855,
To what extent did the music make you feel ,FRUSTRATED,30MonoWAV/30MonoT3.wav,2,1,4,15,,,,,0,0,0,14,0,1,1,3,,,,,,,,,1,0.9183737029961776,,,054,001,2019_May_21_1404,MusicAffectPsychophysiology2019,3.0.5,60.213396278555855,
To what extent did the music make you feel ,SAD,30MonoWAV/30MonoT3.wav,2,1,4,15,,,,,0,0,0,14,0,2,2,0,,,,,,,,,1,1.3677675299986731,,,054,001,2019_May_21_1404,MusicAffectPsychophysiology2019,3.0.5,60.213396278555855,
To what extent did the music make you feel ,SCARED,30MonoWAV/30MonoT3.wav,2,1,4,15,,,,,0,0,0,14,0,3,3,11,,,,,,,,,1,0.6699324369983515,,,054,001,2019_May_21_1404,MusicAffectPsychophysiology2019,3.0.5,60.213396278555855,
To what extent did the music make you feel ,HAPPY,30MonoWAV/30MonoT3.wav,2,1,4,15,,,,,0,0,0,14,0,4,4,6,,,,,,,,,2,1.300975477002794,,,054,001,2019_May_21_1404,MusicAffectPsychophysiology2019,3.0.5,60.213396278555855,
To what extent did the music make you feel ,ANXIOUS ,30MonoWAV/30MonoT3.wav,2,1,4,15,,,,,0,0,0,14,0,5,5,1,,,,,,,,,1,1.6006860470079118,,,054,001,2019_May_21_1404,MusicAffectPsychophysiology2019,3.0.5,60.213396278555855,
To what extent did the music make you feel ,ASHAMED,30MonoWAV/30MonoT3.wav,2,1,4,15,,,,,0,0,0,14,0,6,6,4,,,,,,,,,1,0.7846618629992008,,,054,001,2019_May_21_1404,MusicAffectPsychophysiology2019,3.0.5,60.213396278555855,
To what extent did the music make you feel ,ALERT,30MonoWAV/30MonoT3.wav,2,1,4,15,,,,,0,0,0,14,0,7,7,8,,,,,,,,,1,2.051789433011436,,,054,001,2019_May_21_1404,MusicAffectPsychophysiology2019,3.0.5,60.213396278555855,
To what extent did the music make you feel ,ANGRY,30MonoWAV/30MonoT3.wav,2,1,4,15,,,,,0,0,0,14,0,8,8,2,,,,,,,,,1,0.685813636999228,,,054,001,2019_May_21_1404,MusicAffectPsychophysiology2019,3.0.5,60.213396278555855,
To what extent did the music make you feel ,ACTIVE,30MonoWAV/30MonoT3.wav,2,1,4,15,,,,,0,0,0,14,0,9,9,9,,,,,,,,,2,3.101478976008366,,,054,001,2019_May_21_1404,MusicAffectPsychophysiology2019,3.0.5,60.213396278555855,
To what extent did the music make you feel ,TENDER,30MonoWAV/30MonoT3.wav,2,1,4,15,,,,,0,0,0,14,0,10,10,10,,,,,,,,,2,1.2017164980061352,,,054,001,2019_May_21_1404,MusicAffectPsychophysiology2019,3.0.5,60.213396278555855,
To what extent did the music make you feel ,EXCITED,30MonoWAV/30MonoT3.wav,2,1,4,15,,,,,0,0,0,14,0,11,11,7,,,,,,,,,1,1.1182425139995757,,,054,001,2019_May_21_1404,MusicAffectPsychophysiology2019,3.0.5,60.213396278555855,
,,30MonoWAV/30MonoT3.wav,2,1,4,15,,,,,0,0,0,14,,,,,,,,,,,,,,,,,054,001,2019_May_21_1404,MusicAffectPsychophysiology2019,3.0.5,60.213396278555855,
To what extent did the music make you feel ,SCARED,30MonoWAV/30MonoF3.wav,1,2,2,3,,,,,0,1,1,2,0,0,0,11,,,2,3.3845792030042503,1,2.834606456992333,2,2.034656764997635,3,3.534968514999491,,,054,001,2019_May_21_1404,MusicAffectPsychophysiology2019,3.0.5,60.213396278555855,
To what extent did the music make you feel ,FRUSTRATED,30MonoWAV/30MonoF3.wav,1,2,2,3,,,,,0,1,1,2,0,1,1,3,,,,,,,,,3,0.26881170699198265,,,054,001,2019_May_21_1404,MusicAffectPsychophysiology2019,3.0.5,60.213396278555855,
To what extent did the music make you feel ,EXCITED,30MonoWAV/30MonoF3.wav,1,2,2,3,,,,,0,1,1,2,0,2,2,7,,,,,,,,,1,4.285356749009225,,,054,001,2019_May_21_1404,MusicAffectPsychophysiology2019,3.0.5,60.213396278555855,
To what extent did the music make you feel ,SAD,30MonoWAV/30MonoF3.wav,1,2,2,3,,,,,0,1,1,2,0,3,3,0,,,,,,,,,1,1.1682987340027466,,,054,001,2019_May_21_1404,MusicAffectPsychophysiology2019,3.0.5,60.213396278555855,
To what extent did the music make you feel ,ACTIVE,30MonoWAV/30MonoF3.wav,1,2,2,3,,,,,0,1,1,2,0,4,4,9,,,,,,,,,1,0.5685749379917979,,,054,001,2019_May_21_1404,MusicAffectPsychophysiology2019,3.0.5,60.213396278555855,
To what extent did the music make you feel ,ASHAMED,30MonoWAV/30MonoF3.wav,1,2,2,3,,,,,0,1,1,2,0,5,5,4,,,,,,,,,1,0.7354395810107235,,,054,001,2019_May_21_1404,MusicAffectPsychophysiology2019,3.0.5,60.213396278555855,
To what extent did the music make you feel ,HAPPY,30MonoWAV/30MonoF3.wav,1,2,2,3,,,,,0,1,1,2,0,6,6,6,,,,,,,,,1,1.218902235996211,,,054,001,2019_May_21_1404,MusicAffectPsychophysiology2019,3.0.5,60.213396278555855,
To what extent did the music make you feel ,TENDER,30MonoWAV/30MonoF3.wav,1,2,2,3,,,,,0,1,1,2,0,7,7,10,,,,,,,,,1,1.4191057669959264,,,054,001,2019_May_21_1404,MusicAffectPsychophysiology2019,3.0.5,60.213396278555855,
To what extent did the music make you feel ,ALERT,30MonoWAV/30MonoF3.wav,1,2,2,3,,,,,0,1,1,2,0,8,8,8,,,,,,,,,2,0.9189862550119869,,,054,001,2019_May_21_1404,MusicAffectPsychophysiology2019,3.0.5,60.213396278555855,
To what extent did the music make you feel ,ANXIOUS ,30MonoWAV/30MonoF3.wav,1,2,2,3,,,,,0,1,1,2,0,9,9,1,,,,,,,,,3,1.5523444290010957,,,054,001,2019_May_21_1404,MusicAffectPsychophysiology2019,3.0.5,60.213396278555855,
To what extent did the music make you feel ,ANGRY,30MonoWAV/30MonoF3.wav,1,2,2,3,,,,,0,1,1,2,0,10,10,2,,,,,,,,,1,1.0172624469996663,,,054,001,2019_May_21_1404,MusicAffectPsychophysiology2019,3.0.5,60.213396278555855,
To what extent did the music make you feel ,GUILTY,30MonoWAV/30MonoF3.wav,1,2,2,3,,,,,0,1,1,2,0,11,11,5,,,,,,,,,1,1.0352926650084555,,,054,001,2019_May_21_1404,MusicAffectPsychophysiology2019,3.0.5,60.213396278555855,
,,30MonoWAV/30MonoF3.wav,1,2,2,3,,,,,0,1,1,2,,,,,,,,,,,,,,,,,054,001,2019_May_21_1404,MusicAffectPsychophysiology2019,3.0.5,60.213396278555855,
To what extent did the music make you feel ,HAPPY,30MonoWAV/30MonoF4.wav,1,2,2,4,,,,,0,2,2,3,0,0,0,6,,,2,3.9064551120100077,1,8.60510898999928,2,1.201775212000939,1,1.5856561480031814,,,054,001,2019_May_21_1404,MusicAffectPsychophysiology2019,3.0.5,60.213396278555855,
To what extent did the music make you feel ,ACTIVE,30MonoWAV/30MonoF4.wav,1,2,2,4,,,,,0,2,2,3,0,1,1,9,,,,,,,,,2,1.050739665995934,,,054,001,2019_May_21_1404,MusicAffectPsychophysiology2019,3.0.5,60.213396278555855,
To what extent did the music make you feel ,GUILTY,30MonoWAV/30MonoF4.wav,1,2,2,4,,,,,0,2,2,3,0,2,2,5,,,,,,,,,1,1.7180335580051178,,,054,001,2019_May_21_1404,MusicAffectPsychophysiology2019,3.0.5,60.213396278555855,
To what extent did the music make you feel ,SAD,30MonoWAV/30MonoF4.wav,1,2,2,4,,,,,0,2,2,3,0,3,3,0,,,,,,,,,2,1.2672895159921609,,,054,001,2019_May_21_1404,MusicAffectPsychophysiology2019,3.0.5,60.213396278555855,
To what extent did the music make you feel ,TENDER,30MonoWAV/30MonoF4.wav,1,2,2,4,,,,,0,2,2,3,0,4,4,10,,,,,,,,,1,0.8175821030017687,,,054,001,2019_May_21_1404,MusicAffectPsychophysiology2019,3.0.5,60.213396278555855,
To what extent did the music make you feel ,EXCITED,30MonoWAV/30MonoF4.wav,1,2,2,4,,,,,0,2,2,3,0,5,5,7,,,,,,,,,2,1.385270912986016,,,054,001,2019_May_21_1404,MusicAffectPsychophysiology2019,3.0.5,60.213396278555855,
To what extent did the music make you feel ,ASHAMED,30MonoWAV/30MonoF4.wav,1,2,2,4,,,,,0,2,2,3,0,6,6,4,,,,,,,,,1,0.6517864369961899,,,054,001,2019_May_21_1404,MusicAffectPsychophysiology2019,3.0.5,60.213396278555855,
To what extent did the music make you feel ,ALERT,30MonoWAV/30MonoF4.wav,1,2,2,4,,,,,0,2,2,3,0,7,7,8,,,,,,,,,3,1.0353276329988148,,,054,001,2019_May_21_1404,MusicAffectPsychophysiology2019,3.0.5,60.213396278555855,
To what extent did the music make you feel ,ANGRY,30MonoWAV/30MonoF4.wav,1,2,2,4,,,,,0,2,2,3,0,8,8,2,,,,,,,,,1,1.3348761550005293,,,054,001,2019_May_21_1404,MusicAffectPsychophysiology2019,3.0.5,60.213396278555855,
To what extent did the music make you feel ,ANXIOUS ,30MonoWAV/30MonoF4.wav,1,2,2,4,,,,,0,2,2,3,0,9,9,1,,,,,,,,,2,1.6850428170000669,,,054,001,2019_May_21_1404,MusicAffectPsychophysiology2019,3.0.5,60.213396278555855,
To what extent did the music make you feel ,FRUSTRATED,30MonoWAV/30MonoF4.wav,1,2,2,4,,,,,0,2,2,3,0,10,10,3,,,,,,,,,1,0.7526588729961077,,,054,001,2019_May_21_1404,MusicAffectPsychophysiology2019,3.0.5,60.213396278555855,
To what extent did the music make you feel ,SCARED,30MonoWAV/30MonoF4.wav,1,2,2,4,,,,,0,2,2,3,0,11,11,11,,,,,,,,,2,1.318791126992437,,,054,001,2019_May_21_1404,MusicAffectPsychophysiology2019,3.0.5,60.213396278555855,
,,30MonoWAV/30MonoF4.wav,1,2,2,4,,,,,0,2,2,3,,,,,,,,,,,,,,,,,054,001,2019_May_21_1404,MusicAffectPsychophysiology2019,3.0.5,60.213396278555855,
To what extent did the music make you feel ,SCARED,30MonoWAV/30MonoT4.wav,2,1,4,16,,,,,0,3,3,15,0,0,0,11,,,2,3.1007514340017224,4,2.916792161006015,4,2.8017186780052725,2,3.6514656859944807,,,054,001,2019_May_21_1404,MusicAffectPsychophysiology2019,3.0.5,60.213396278555855,
To what extent did the music make you feel ,TENDER,30MonoWAV/30MonoT4.wav,2,1,4,16,,,,,0,3,3,15,0,1,1,10,,,,,,,,,3,1.3005707770062145,,,054,001,2019_May_21_1404,MusicAffectPsychophysiology2019,3.0.5,60.213396278555855,
To what extent did the music make you feel ,GUILTY,30MonoWAV/30MonoT4.wav,2,1,4,16,,,,,0,3,3,15,0,2,2,5,,,,,,,,,4,0.8187824020133121,,,054,001,2019_May_21_1404,MusicAffectPsychophysiology2019,3.0.5,60.213396278555855,
To what extent did the music make you feel ,HAPPY,30MonoWAV/30MonoT4.wav,2,1,4,16,,,,,0,3,3,15,0,3,3,6,,,,,,,,,4,0.8841163850011071,,,054,001,2019_May_21_1404,MusicAffectPsychophysiology2019,3.0.5,60.213396278555855,
To what extent did the music make you feel ,SAD,30MonoWAV/30MonoT4.wav,2,1,4,16,,,,,0,3,3,15,0,4,4,0,,,,,,,,,3,1.0100506659946404,,,054,001,2019_May_21_1404,MusicAffectPsychophysiology2019,3.0.5,60.213396278555855,
To what extent did the music make you feel ,EXCITED,30MonoWAV/30MonoT4.wav,2,1,4,16,,,,,0,3,3,15,0,5,5,7,,,,,,,,,1,1.6192388550116448,,,054,001,2019_May_21_1404,MusicAffectPsychophysiology2019,3.0.5,60.213396278555855,
To what extent did the music make you feel ,ACTIVE,30MonoWAV/30MonoT4.wav,2,1,4,16,,,,,0,3,3,15,0,6,6,9,,,,,,,,,1,1.0188815880101174,,,054,001,2019_May_21_1404,MusicAffectPsychophysiology2019,3.0.5,60.213396278555855,
To what extent did the music make you feel ,ASHAMED,30MonoWAV/30MonoT4.wav,2,1,4,16,,,,,0,3,3,15,0,7,7,4,,,,,,,,,2,1.2030101569980616,,,054,001,2019_May_21_1404,MusicAffectPsychophysiology2019,3.0.5,60.213396278555855,
To what extent did the music make you feel ,ANXIOUS ,30MonoWAV/30MonoT4.wav,2,1,4,16,,,,,0,3,3,15,0,8,8,1,,,,,,,,,2,1.9702926570025738,,,054,001,2019_May_21_1404,MusicAffectPsychophysiology2019,3.0.5,60.213396278555855,
To what extent did the music make you feel ,ANGRY,30MonoWAV/30MonoT4.wav,2,1,4,16,,,,,0,3,3,15,0,9,9,2,,,,,,,,,1,0.7020083050010726,,,054,001,2019_May_21_1404,MusicAffectPsychophysiology2019,3.0.5,60.213396278555855,
To what extent did the music make you feel ,ALERT,30MonoWAV/30MonoT4.wav,2,1,4,16,,,,,0,3,3,15,0,10,10,8,,,,,,,,,1,1.0016047060053097,,,054,001,2019_May_21_1404,MusicAffectPsychophysiology2019,3.0.5,60.213396278555855,
To what extent did the music make you feel ,FRUSTRATED,30MonoWAV/30MonoT4.wav,2,1,4,16,,,,,0,3,3,15,0,11,11,3,,,,,,,,,1,1.0526335070026107,,,054,001,2019_May_21_1404,MusicAffectPsychophysiology2019,3.0.5,60.213396278555855,
,,30MonoWAV/30MonoT4.wav,2,1,4,16,,,,,0,3,3,15,,,,,,,,,,,,,,,,,054,001,2019_May_21_1404,MusicAffectPsychophysiology2019,3.0.5,60.213396278555855,
To what extent did the music make you feel ,GUILTY,30MonoWAV/30MonoH2.wav,2,2,1,6,,,,,0,4,4,5,0,0,0,5,,,3,3.919457694995799,3,1.3016651119978633,3,1.9340898000082234,2,1.0359346690092934,,,054,001,2019_May_21_1404,MusicAffectPsychophysiology2019,3.0.5,60.213396278555855,
To what extent did the music make you feel ,ALERT,30MonoWAV/30MonoH2.wav,2,2,1,6,,,,,0,4,4,5,0,1,1,8,,,,,,,,,3,2.2518411759956507,,,054,001,2019_May_21_1404,MusicAffectPsychophysiology2019,3.0.5,60.213396278555855,
To what extent did the music make you feel ,ACTIVE,30MonoWAV/30MonoH2.wav,2,2,1,6,,,,,0,4,4,5,0,2,2,9,,,,,,,,,4,1.1177471510018222,,,054,001,2019_May_21_1404,MusicAffectPsychophysiology2019,3.0.5,60.213396278555855,
To what extent did the music make you feel ,SCARED,30MonoWAV/30MonoH2.wav,2,2,1,6,,,,,0,4,4,5,0,3,3,11,,,,,,,,,1,1.4329482530010864,,,054,001,2019_May_21_1404,MusicAffectPsychophysiology2019,3.0.5,60.213396278555855,
To what extent did the music make you feel ,ANXIOUS ,30MonoWAV/30MonoH2.wav,2,2,1,6,,,,,0,4,4,5,0,4,4,1,,,,,,,,,2,0.8859211800008779,,,054,001,2019_May_21_1404,MusicAffectPsychophysiology2019,3.0.5,60.213396278555855,
To what extent did the music make you feel ,HAPPY,30MonoWAV/30MonoH2.wav,2,2,1,6,,,,,0,4,4,5,0,5,5,6,,,,,,,,,3,1.4027614149963483,,,054,001,2019_May_21_1404,MusicAffectPsychophysiology2019,3.0.5,60.213396278555855,
To what extent did the music make you feel ,SAD,30MonoWAV/30MonoH2.wav,2,2,1,6,,,,,0,4,4,5,0,6,6,0,,,,,,,,,1,1.2014280349976616,,,054,001,2019_May_21_1404,MusicAffectPsychophysiology2019,3.0.5,60.213396278555855,
To what extent did the music make you feel ,TENDER,30MonoWAV/30MonoH2.wav,2,2,1,6,,,,,0,4,4,5,0,7,7,10,,,,,,,,,1,0.8181470790004823,,,054,001,2019_May_21_1404,MusicAffectPsychophysiology2019,3.0.5,60.213396278555855,
To what extent did the music make you feel ,ANGRY,30MonoWAV/30MonoH2.wav,2,2,1,6,,,,,0,4,4,5,0,8,8,2,,,,,,,,,1,0.6834157659905031,,,054,001,2019_May_21_1404,MusicAffectPsychophysiology2019,3.0.5,60.213396278555855,
To what extent did the music make you feel ,ASHAMED,30MonoWAV/30MonoH2.wav,2,2,1,6,,,,,0,4,4,5,0,9,9,4,,,,,,,,,1,0.801716697998927,,,054,001,2019_May_21_1404,MusicAffectPsychophysiology2019,3.0.5,60.213396278555855,
To what extent did the music make you feel ,EXCITED,30MonoWAV/30MonoH2.wav,2,2,1,6,,,,,0,4,4,5,0,10,10,7,,,,,,,,,2,1.6019255290011643,,,054,001,2019_May_21_1404,MusicAffectPsychophysiology2019,3.0.5,60.213396278555855,
To what extent did the music make you feel ,FRUSTRATED,30MonoWAV/30MonoH2.wav,2,2,1,6,,,,,0,4,4,5,0,11,11,3,,,,,,,,,1,0.6680989949963987,,,054,001,2019_May_21_1404,MusicAffectPsychophysiology2019,3.0.5,60.213396278555855,
,,30MonoWAV/30MonoH2.wav,2,2,1,6,,,,,0,4,4,5,,,,,,,,,,,,,,,,,054,001,2019_May_21_1404,MusicAffectPsychophysiology2019,3.0.5,60.213396278555855,
To what extent did the music make you feel ,EXCITED,30MonoWAV/30MonoH1.wav,2,2,1,5,,,,,0,5,5,4,0,0,0,7,,,4,2.6010408459987957,4,1.1348493519908516,4,1.3024218259961344,4,1.2517349639965687,,,054,001,2019_May_21_1404,MusicAffectPsychophysiology2019,3.0.5,60.213396278555855,
To what extent did the music make you feel ,SCARED,30MonoWAV/30MonoH1.wav,2,2,1,5,,,,,0,5,5,4,0,1,1,11,,,,,,,,,1,1.2517661589954514,,,054,001,2019_May_21_1404,MusicAffectPsychophysiology2019,3.0.5,60.213396278555855,
To what extent did the music make you feel ,SAD,30MonoWAV/30MonoH1.wav,2,2,1,5,,,,,0,5,5,4,0,2,2,0,,,,,,,,,1,1.6679868640057975,,,054,001,2019_May_21_1404,MusicAffectPsychophysiology2019,3.0.5,60.213396278555855,
To what extent did the music make you feel ,HAPPY,30MonoWAV/30MonoH1.wav,2,2,1,5,,,,,0,5,5,4,0,3,3,6,,,,,,,,,4,1.2829572570044547,,,054,001,2019_May_21_1404,MusicAffectPsychophysiology2019,3.0.5,60.213396278555855,
To what extent did the music make you feel ,ASHAMED,30MonoWAV/30MonoH1.wav,2,2,1,5,,,,,0,5,5,4,0,4,4,4,,,,,,,,,1,1.134808223010623,,,054,001,2019_May_21_1404,MusicAffectPsychophysiology2019,3.0.5,60.213396278555855,
To what extent did the music make you feel ,GUILTY,30MonoWAV/30MonoH1.wav,2,2,1,5,,,,,0,5,5,4,0,5,5,5,,,,,,,,,1,0.9509921010030666,,,054,001,2019_May_21_1404,MusicAffectPsychophysiology2019,3.0.5,60.213396278555855,
To what extent did the music make you feel ,FRUSTRATED,30MonoWAV/30MonoH1.wav,2,2,1,5,,,,,0,5,5,4,0,6,6,3,,,,,,,,,1,0.6693039140081964,,,054,001,2019_May_21_1404,MusicAffectPsychophysiology2019,3.0.5,60.213396278555855,
To what extent did the music make you feel ,ANXIOUS ,30MonoWAV/30MonoH1.wav,2,2,1,5,,,,,0,5,5,4,0,7,7,1,,,,,,,,,1,1.4507821550068911,,,054,001,2019_May_21_1404,MusicAffectPsychophysiology2019,3.0.5,60.213396278555855,
To what extent did the music make you feel ,TENDER,30MonoWAV/30MonoH1.wav,2,2,1,5,,,,,0,5,5,4,0,8,8,10,,,,,,,,,2,0.7348932640015846,,,054,001,2019_May_21_1404,MusicAffectPsychophysiology2019,3.0.5,60.213396278555855,
To what extent did the music make you feel ,ACTIVE,30MonoWAV/30MonoH1.wav,2,2,1,5,,,,,0,5,5,4,0,9,9,9,,,,,,,,,1,0.7665266769909067,,,054,001,2019_May_21_1404,MusicAffectPsychophysiology2019,3.0.5,60.213396278555855,
To what extent did the music make you feel ,ANGRY,30MonoWAV/30MonoH1.wav,2,2,1,5,,,,,0,5,5,4,0,10,10,2,,,,,,,,,1,0.8019847310060868,,,054,001,2019_May_21_1404,MusicAffectPsychophysiology2019,3.0.5,60.213396278555855,
To what extent did the music make you feel ,ALERT,30MonoWAV/30MonoH1.wav,2,2,1,5,,,,,0,5,5,4,0,11,11,8,,,,,,,,,3,1.8177269580046413,,,054,001,2019_May_21_1404,MusicAffectPsychophysiology2019,3.0.5,60.213396278555855,
,,30MonoWAV/30MonoH1.wav,2,2,1,5,,,,,0,5,5,4,,,,,,,,,,,,,,,,,054,001,2019_May_21_1404,MusicAffectPsychophysiology2019,3.0.5,60.213396278555855,
To what extent did the music make you feel ,GUILTY,30MonoWAV/30MonoF1.wav,1,2,2,1,,,,,0,6,6,0,0,0,0,5,,,3,3.6348719429952325,1,1.9524292979913298,3,2.6351681670057587,1,1.722360874991864,,,054,001,2019_May_21_1404,MusicAffectPsychophysiology2019,3.0.5,60.213396278555855,
To what extent did the music make you feel ,ANXIOUS ,30MonoWAV/30MonoF1.wav,1,2,2,1,,,,,0,6,6,0,0,1,1,1,,,,,,,,,3,1.3366190390079282,,,054,001,2019_May_21_1404,MusicAffectPsychophysiology2019,3.0.5,60.213396278555855,
To what extent did the music make you feel ,HAPPY,30MonoWAV/30MonoF1.wav,1,2,2,1,,,,,0,6,6,0,0,2,2,6,,,,,,,,,1,1.4362071989889955,,,054,001,2019_May_21_1404,MusicAffectPsychophysiology2019,3.0.5,60.213396278555855,
To what extent did the music make you feel ,FRUSTRATED,30MonoWAV/30MonoF1.wav,1,2,2,1,,,,,0,6,6,0,0,3,3,3,,,,,,,,,1,1.653464068993344,,,054,001,2019_May_21_1404,MusicAffectPsychophysiology2019,3.0.5,60.213396278555855,
To what extent did the music make you feel ,SAD,30MonoWAV/30MonoF1.wav,1,2,2,1,,,,,0,6,6,0,0,4,4,0,,,,,,,,,1,1.2031930099910824,,,054,001,2019_May_21_1404,MusicAffectPsychophysiology2019,3.0.5,60.213396278555855,
To what extent did the music make you feel ,ANGRY,30MonoWAV/30MonoF1.wav,1,2,2,1,,,,,0,6,6,0,0,5,5,2,,,,,,,,,2,1.2203638320061145,,,054,001,2019_May_21_1404,MusicAffectPsychophysiology2019,3.0.5,60.213396278555855,
To what extent did the music make you feel ,EXCITED,30MonoWAV/30MonoF1.wav,1,2,2,1,,,,,0,6,6,0,0,6,6,7,,,,,,,,,2,2.089516291001928,,,054,001,2019_May_21_1404,MusicAffectPsychophysiology2019,3.0.5,60.213396278555855,
To what extent did the music make you feel ,TENDER,30MonoWAV/30MonoF1.wav,1,2,2,1,,,,,0,6,6,0,0,7,7,10,,,,,,,,,1,0.802960732995416,,,054,001,2019_May_21_1404,MusicAffectPsychophysiology2019,3.0.5,60.213396278555855,
To what extent did the music make you feel ,SCARED,30MonoWAV/30MonoF1.wav,1,2,2,1,,,,,0,6,6,0,0,8,8,11,,,,,,,,,3,1.4527862520044437,,,054,001,2019_May_21_1404,MusicAffectPsychophysiology2019,3.0.5,60.213396278555855,
To what extent did the music make you feel ,ACTIVE,30MonoWAV/30MonoF1.wav,1,2,2,1,,,,,0,6,6,0,0,9,9,9,,,,,,,,,2,3.618408137001097,,,054,001,2019_May_21_1404,MusicAffectPsychophysiology2019,3.0.5,60.213396278555855,
To what extent did the music make you feel ,ALERT,30MonoWAV/30MonoF1.wav,1,2,2,1,,,,,0,6,6,0,0,10,10,8,,,,,,,,,4,1.5190116119920276,,,054,001,2019_May_21_1404,MusicAffectPsychophysiology2019,3.0.5,60.213396278555855,
To what extent did the music make you feel ,ASHAMED,30MonoWAV/30MonoF1.wav,1,2,2,1,,,,,0,6,6,0,0,11,11,4,,,,,,,,,1,1.050585297998623,,,054,001,2019_May_21_1404,MusicAffectPsychophysiology2019,3.0.5,60.213396278555855,
,,30MonoWAV/30MonoF1.wav,1,2,2,1,,,,,0,6,6,0,,,,,,,,,,,,,,,,,054,001,2019_May_21_1404,MusicAffectPsychophysiology2019,3.0.5,60.213396278555855,
To what extent did the music make you feel ,HAPPY,30MonoWAV/30MonoS3.wav,1,1,3,11,,,,,0,7,7,10,0,0,0,6,,,2,4.250908150002942,2,1.4002304329915205,3,1.9685587139974814,2,1.7511587769986363,,,054,001,2019_May_21_1404,MusicAffectPsychophysiology2019,3.0.5,60.213396278555855,
To what extent did the music make you feel ,SAD,30MonoWAV/30MonoS3.wav,1,1,3,11,,,,,0,7,7,10,0,1,1,0,,,,,,,,,1,0.8167821889946936,,,054,001,2019_May_21_1404,MusicAffectPsychophysiology2019,3.0.5,60.213396278555855,
To what extent did the music make you feel ,GUILTY,30MonoWAV/30MonoS3.wav,1,1,3,11,,,,,0,7,7,10,0,2,2,5,,,,,,,,,1,0.5517692419962259,,,054,001,2019_May_21_1404,MusicAffectPsychophysiology2019,3.0.5,60.213396278555855,
To what extent did the music make you feel ,ACTIVE,30MonoWAV/30MonoS3.wav,1,1,3,11,,,,,0,7,7,10,0,3,3,9,,,,,,,,,1,1.3026839829981327,,,054,001,2019_May_21_1404,MusicAffectPsychophysiology2019,3.0.5,60.213396278555855,
To what extent did the music make you feel ,ANGRY,30MonoWAV/30MonoS3.wav,1,1,3,11,,,,,0,7,7,10,0,4,4,2,,,,,,,,,1,1.0526960749994032,,,054,001,2019_May_21_1404,MusicAffectPsychophysiology2019,3.0.5,60.213396278555855,
To what extent did the music make you feel ,FRUSTRATED,30MonoWAV/30MonoS3.wav,1,1,3,11,,,,,0,7,7,10,0,5,5,3,,,,,,,,,1,1.0848504140012665,,,054,001,2019_May_21_1404,MusicAffectPsychophysiology2019,3.0.5,60.213396278555855,
To what extent did the music make you feel ,EXCITED,30MonoWAV/30MonoS3.wav,1,1,3,11,,,,,0,7,7,10,0,6,6,7,,,,,,,,,1,0.7504197809903417,,,054,001,2019_May_21_1404,MusicAffectPsychophysiology2019,3.0.5,60.213396278555855,
To what extent did the music make you feel ,ALERT,30MonoWAV/30MonoS3.wav,1,1,3,11,,,,,0,7,7,10,0,7,7,8,,,,,,,,,2,1.5852810359938303,,,054,001,2019_May_21_1404,MusicAffectPsychophysiology2019,3.0.5,60.213396278555855,
To what extent did the music make you feel ,SCARED,30MonoWAV/30MonoS3.wav,1,1,3,11,,,,,0,7,7,10,0,8,8,11,,,,,,,,,1,1.3856554919912014,,,054,001,2019_May_21_1404,MusicAffectPsychophysiology2019,3.0.5,60.213396278555855,
To what extent did the music make you feel ,ANXIOUS ,30MonoWAV/30MonoS3.wav,1,1,3,11,,,,,0,7,7,10,0,9,9,1,,,,,,,,,2,0.8190164199913852,,,054,001,2019_May_21_1404,MusicAffectPsychophysiology2019,3.0.5,60.213396278555855,
To what extent did the music make you feel ,ASHAMED,30MonoWAV/30MonoS3.wav,1,1,3,11,,,,,0,7,7,10,0,10,10,4,,,,,,,,,1,0.6348440439905971,,,054,001,2019_May_21_1404,MusicAffectPsychophysiology2019,3.0.5,60.213396278555855,
To what extent did the music make you feel ,TENDER,30MonoWAV/30MonoS3.wav,1,1,3,11,,,,,0,7,7,10,0,11,11,10,,,,,,,,,1,0.8352893120027147,,,054,001,2019_May_21_1404,MusicAffectPsychophysiology2019,3.0.5,60.213396278555855,
,,30MonoWAV/30MonoS3.wav,1,1,3,11,,,,,0,7,7,10,,,,,,,,,,,,,,,,,054,001,2019_May_21_1404,MusicAffectPsychophysiology2019,3.0.5,60.213396278555855,
To what extent did the music make you feel ,ANXIOUS ,30MonoWAV/30MonoT1.wav,2,1,4,13,,,,,0,8,8,12,0,0,0,1,,,2,2.6581205209949985,4,3.2344831859954866,4,1.6353051629994297,2,1.3501873779896414,,,054,001,2019_May_21_1404,MusicAffectPsychophysiology2019,3.0.5,60.213396278555855,
To what extent did the music make you feel ,SAD,30MonoWAV/30MonoT1.wav,2,1,4,13,,,,,0,8,8,12,0,1,1,0,,,,,,,,,3,0.9993460850091651,,,054,001,2019_May_21_1404,MusicAffectPsychophysiology2019,3.0.5,60.213396278555855,
To what extent did the music make you feel ,SCARED,30MonoWAV/30MonoT1.wav,2,1,4,13,,,,,0,8,8,12,0,2,2,11,,,,,,,,,1,1.2689415790082421,,,054,001,2019_May_21_1404,MusicAffectPsychophysiology2019,3.0.5,60.213396278555855,
To what extent did the music make you feel ,ACTIVE,30MonoWAV/30MonoT1.wav,2,1,4,13,,,,,0,8,8,12,0,3,3,9,,,,,,,,,1,1.2019206380064134,,,054,001,2019_May_21_1404,MusicAffectPsychophysiology2019,3.0.5,60.213396278555855,
To what extent did the music make you feel ,TENDER,30MonoWAV/30MonoT1.wav,2,1,4,13,,,,,0,8,8,12,0,4,4,10,,,,,,,,,3,1.035116561994073,,,054,001,2019_May_21_1404,MusicAffectPsychophysiology2019,3.0.5,60.213396278555855,
To what extent did the music make you feel ,GUILTY,30MonoWAV/30MonoT1.wav,2,1,4,13,,,,,0,8,8,12,0,5,5,5,,,,,,,,,2,1.0499450200004503,,,054,001,2019_May_21_1404,MusicAffectPsychophysiology2019,3.0.5,60.213396278555855,
To what extent did the music make you feel ,EXCITED,30MonoWAV/30MonoT1.wav,2,1,4,13,,,,,0,8,8,12,0,6,6,7,,,,,,,,,2,1.4180422600038582,,,054,001,2019_May_21_1404,MusicAffectPsychophysiology2019,3.0.5,60.213396278555855,
To what extent did the music make you feel ,ALERT,30MonoWAV/30MonoT1.wav,2,1,4,13,,,,,0,8,8,12,0,7,7,8,,,,,,,,,1,1.369326865999028,,,054,001,2019_May_21_1404,MusicAffectPsychophysiology2019,3.0.5,60.213396278555855,
To what extent did the music make you feel ,FRUSTRATED,30MonoWAV/30MonoT1.wav,2,1,4,13,,,,,0,8,8,12,0,8,8,3,,,,,,,,,1,0.831530470008147,,,054,001,2019_May_21_1404,MusicAffectPsychophysiology2019,3.0.5,60.213396278555855,
To what extent did the music make you feel ,ASHAMED,30MonoWAV/30MonoT1.wav,2,1,4,13,,,,,0,8,8,12,0,9,9,4,,,,,,,,,4,1.2356485500058625,,,054,001,2019_May_21_1404,MusicAffectPsychophysiology2019,3.0.5,60.213396278555855,
To what extent did the music make you feel ,HAPPY,30MonoWAV/30MonoT1.wav,2,1,4,13,,,,,0,8,8,12,0,10,10,6,,,,,,,,,4,1.0993113120057387,,,054,001,2019_May_21_1404,MusicAffectPsychophysiology2019,3.0.5,60.213396278555855,
To what extent did the music make you feel ,ANGRY,30MonoWAV/30MonoT1.wav,2,1,4,13,,,,,0,8,8,12,0,11,11,2,,,,,,,,,1,1.1357677670021076,,,054,001,2019_May_21_1404,MusicAffectPsychophysiology2019,3.0.5,60.213396278555855,
,,30MonoWAV/30MonoT1.wav,2,1,4,13,,,,,0,8,8,12,,,,,,,,,,,,,,,,,054,001,2019_May_21_1404,MusicAffectPsychophysiology2019,3.0.5,60.213396278555855,
To what extent did the music make you feel ,SAD,30MonoWAV/30MonoH3.wav,2,2,1,7,,,,,0,9,9,6,0,0,0,0,,,3,4.626443538989406,3,0.985053030992276,3,1.3842901659954805,1,1.6518754179996904,,,054,001,2019_May_21_1404,MusicAffectPsychophysiology2019,3.0.5,60.213396278555855,
To what extent did the music make you feel ,FRUSTRATED,30MonoWAV/30MonoH3.wav,2,2,1,7,,,,,0,9,9,6,0,1,1,3,,,,,,,,,1,0.7512263009994058,,,054,001,2019_May_21_1404,MusicAffectPsychophysiology2019,3.0.5,60.213396278555855,
To what extent did the music make you feel ,ANXIOUS ,30MonoWAV/30MonoH3.wav,2,2,1,7,,,,,0,9,9,6,0,2,2,1,,,,,,,,,2,1.5182488330028718,,,054,001,2019_May_21_1404,MusicAffectPsychophysiology2019,3.0.5,60.213396278555855,
To what extent did the music make you feel ,SCARED,30MonoWAV/30MonoH3.wav,2,2,1,7,,,,,0,9,9,6,0,3,3,11,,,,,,,,,2,0.8349748680047924,,,054,001,2019_May_21_1404,MusicAffectPsychophysiology2019,3.0.5,60.213396278555855,
To what extent did the music make you feel ,ALERT,30MonoWAV/30MonoH3.wav,2,2,1,7,,,,,0,9,9,6,0,4,4,8,,,,,,,,,4,1.2513170509919291,,,054,001,2019_May_21_1404,MusicAffectPsychophysiology2019,3.0.5,60.213396278555855,
To what extent did the music make you feel ,ASHAMED,30MonoWAV/30MonoH3.wav,2,2,1,7,,,,,0,9,9,6,0,5,5,4,,,,,,,,,1,1.2670740989997284,,,054,001,2019_May_21_1404,MusicAffectPsychophysiology2019,3.0.5,60.213396278555855,
To what extent did the music make you feel ,EXCITED,30MonoWAV/30MonoH3.wav,2,2,1,7,,,,,0,9,9,6,0,6,6,7,,,,,,,,,3,1.3849013560102321,,,054,001,2019_May_21_1404,MusicAffectPsychophysiology2019,3.0.5,60.213396278555855,
To what extent did the music make you feel ,HAPPY,30MonoWAV/30MonoH3.wav,2,2,1,7,,,,,0,9,9,6,0,7,7,6,,,,,,,,,3,1.0362110520072747,,,054,001,2019_May_21_1404,MusicAffectPsychophysiology2019,3.0.5,60.213396278555855,
To what extent did the music make you feel ,ACTIVE,30MonoWAV/30MonoH3.wav,2,2,1,7,,,,,0,9,9,6,0,8,8,9,,,,,,,,,4,1.2348344890051521,,,054,001,2019_May_21_1404,MusicAffectPsychophysiology2019,3.0.5,60.213396278555855,
To what extent did the music make you feel ,TENDER,30MonoWAV/30MonoH3.wav,2,2,1,7,,,,,0,9,9,6,0,9,9,10,,,,,,,,,2,1.0851184630009811,,,054,001,2019_May_21_1404,MusicAffectPsychophysiology2019,3.0.5,60.213396278555855,
To what extent did the music make you feel ,GUILTY,30MonoWAV/30MonoH3.wav,2,2,1,7,,,,,0,9,9,6,0,10,10,5,,,,,,,,,1,1.3015413699904457,,,054,001,2019_May_21_1404,MusicAffectPsychophysiology2019,3.0.5,60.213396278555855,
To what extent did the music make you feel ,ANGRY,30MonoWAV/30MonoH3.wav,2,2,1,7,,,,,0,9,9,6,0,11,11,2,,,,,,,,,1,0.6858655819960404,,,054,001,2019_May_21_1404,MusicAffectPsychophysiology2019,3.0.5,60.213396278555855,
,,30MonoWAV/30MonoH3.wav,2,2,1,7,,,,,0,9,9,6,,,,,,,,,,,,,,,,,054,001,2019_May_21_1404,MusicAffectPsychophysiology2019,3.0.5,60.213396278555855,
To what extent did the music make you feel ,ANXIOUS ,30MonoWAV/30MonoS4.wav,1,1,3,12,,,,,0,10,10,11,0,0,0,1,,,1,2.701596263999818,3,5.75034774201049,3,1.4013020400016103,1,1.4524992469960125,,,054,001,2019_May_21_1404,MusicAffectPsychophysiology2019,3.0.5,60.213396278555855,
To what extent did the music make you feel ,ANGRY,30MonoWAV/30MonoS4.wav,1,1,3,12,,,,,0,10,10,11,0,1,1,2,,,,,,,,,1,0.8186507710051956,,,054,001,2019_May_21_1404,MusicAffectPsychophysiology2019,3.0.5,60.213396278555855,
To what extent did the music make you feel ,ACTIVE,30MonoWAV/30MonoS4.wav,1,1,3,12,,,,,0,10,10,11,0,2,2,9,,,,,,,,,1,1.3021606349939248,,,054,001,2019_May_21_1404,MusicAffectPsychophysiology2019,3.0.5,60.213396278555855,
To what extent did the music make you feel ,FRUSTRATED,30MonoWAV/30MonoS4.wav,1,1,3,12,,,,,0,10,10,11,0,3,3,3,,,,,,,,,1,0.9356592900003307,,,054,001,2019_May_21_1404,MusicAffectPsychophysiology2019,3.0.5,60.213396278555855,
To what extent did the music make you feel ,ALERT,30MonoWAV/30MonoS4.wav,1,1,3,12,,,,,0,10,10,11,0,4,4,8,,,,,,,,,2,1.317327169002965,,,054,001,2019_May_21_1404,MusicAffectPsychophysiology2019,3.0.5,60.213396278555855,
To what extent did the music make you feel ,ASHAMED,30MonoWAV/30MonoS4.wav,1,1,3,12,,,,,0,10,10,11,0,5,5,4,,,,,,,,,2,2.3011339560034685,,,054,001,2019_May_21_1404,MusicAffectPsychophysiology2019,3.0.5,60.213396278555855,
To what extent did the music make you feel ,GUILTY,30MonoWAV/30MonoS4.wav,1,1,3,12,,,,,0,10,10,11,0,6,6,5,,,,,,,,,3,1.3518718220002484,,,054,001,2019_May_21_1404,MusicAffectPsychophysiology2019,3.0.5,60.213396278555855,
To what extent did the music make you feel ,EXCITED,30MonoWAV/30MonoS4.wav,1,1,3,12,,,,,0,10,10,11,0,7,7,7,,,,,,,,,1,1.501957570988452,,,054,001,2019_May_21_1404,MusicAffectPsychophysiology2019,3.0.5,60.213396278555855,
To what extent did the music make you feel ,SAD,30MonoWAV/30MonoS4.wav,1,1,3,12,,,,,0,10,10,11,0,8,8,0,,,,,,,,,4,1.4173672729957616,,,054,001,2019_May_21_1404,MusicAffectPsychophysiology2019,3.0.5,60.213396278555855,
To what extent did the music make you feel ,TENDER,30MonoWAV/30MonoS4.wav,1,1,3,12,,,,,0,10,10,11,0,9,9,10,,,,,,,,,2,1.300918698994792,,,054,001,2019_May_21_1404,MusicAffectPsychophysiology2019,3.0.5,60.213396278555855,
To what extent did the music make you feel ,HAPPY,30MonoWAV/30MonoS4.wav,1,1,3,12,,,,,0,10,10,11,0,10,10,6,,,,,,,,,3,2.0001632290077396,,,054,001,2019_May_21_1404,MusicAffectPsychophysiology2019,3.0.5,60.213396278555855,
To what extent did the music make you feel ,SCARED,30MonoWAV/30MonoS4.wav,1,1,3,12,,,,,0,10,10,11,0,11,11,11,,,,,,,,,1,4.384620126002119,,,054,001,2019_May_21_1404,MusicAffectPsychophysiology2019,3.0.5,60.213396278555855,
,,30MonoWAV/30MonoS4.wav,1,1,3,12,,,,,0,10,10,11,,,,,,,,,,,,,,,,,054,001,2019_May_21_1404,MusicAffectPsychophysiology2019,3.0.5,60.213396278555855,
To what extent did the music make you feel ,TENDER,30MonoWAV/30MonoH4.wav,2,2,1,8,,,,,0,11,11,7,0,0,0,10,,,4,2.4836598000110826,4,1.0349733250041027,4,1.1164428539923392,4,1.2350579710036982,,,054,001,2019_May_21_1404,MusicAffectPsychophysiology2019,3.0.5,60.213396278555855,
To what extent did the music make you feel ,GUILTY,30MonoWAV/30MonoH4.wav,2,2,1,8,,,,,0,11,11,7,0,1,1,5,,,,,,,,,1,1.318172440995113,,,054,001,2019_May_21_1404,MusicAffectPsychophysiology2019,3.0.5,60.213396278555855,
To what extent did the music make you feel ,ANGRY,30MonoWAV/30MonoH4.wav,2,2,1,8,,,,,0,11,11,7,0,2,2,2,,,,,,,,,1,0.7183072259940673,,,054,001,2019_May_21_1404,MusicAffectPsychophysiology2019,3.0.5,60.213396278555855,
To what extent did the music make you feel ,EXCITED,30MonoWAV/30MonoH4.wav,2,2,1,8,,,,,0,11,11,7,0,3,3,7,,,,,,,,,3,1.3522216080018552,,,054,001,2019_May_21_1404,MusicAffectPsychophysiology2019,3.0.5,60.213396278555855,
To what extent did the music make you feel ,HAPPY,30MonoWAV/30MonoH4.wav,2,2,1,8,,,,,0,11,11,7,0,4,4,6,,,,,,,,,4,0.6515501889953157,,,054,001,2019_May_21_1404,MusicAffectPsychophysiology2019,3.0.5,60.213396278555855,
To what extent did the music make you feel ,ALERT,30MonoWAV/30MonoH4.wav,2,2,1,8,,,,,0,11,11,7,0,5,5,8,,,,,,,,,2,1.0847431730071548,,,054,001,2019_May_21_1404,MusicAffectPsychophysiology2019,3.0.5,60.213396278555855,
To what extent did the music make you feel ,SAD,30MonoWAV/30MonoH4.wav,2,2,1,8,,,,,0,11,11,7,0,6,6,0,,,,,,,,,2,1.818103247002,,,054,001,2019_May_21_1404,MusicAffectPsychophysiology2019,3.0.5,60.213396278555855,
To what extent did the music make you feel ,ASHAMED,30MonoWAV/30MonoH4.wav,2,2,1,8,,,,,0,11,11,7,0,7,7,4,,,,,,,,,2,1.2180487900041044,,,054,001,2019_May_21_1404,MusicAffectPsychophysiology2019,3.0.5,60.213396278555855,
To what extent did the music make you feel ,ANXIOUS ,30MonoWAV/30MonoH4.wav,2,2,1,8,,,,,0,11,11,7,0,8,8,1,,,,,,,,,1,2.3182617080019554,,,054,001,2019_May_21_1404,MusicAffectPsychophysiology2019,3.0.5,60.213396278555855,
To what extent did the music make you feel ,FRUSTRATED,30MonoWAV/30MonoH4.wav,2,2,1,8,,,,,0,11,11,7,0,9,9,3,,,,,,,,,1,1.4682946519897087,,,054,001,2019_May_21_1404,MusicAffectPsychophysiology2019,3.0.5,60.213396278555855,
To what extent did the music make you feel ,SCARED,30MonoWAV/30MonoH4.wav,2,2,1,8,,,,,0,11,11,7,0,10,10,11,,,,,,,,,1,0.9514232579967938,,,054,001,2019_May_21_1404,MusicAffectPsychophysiology2019,3.0.5,60.213396278555855,
To what extent did the music make you feel ,ACTIVE,30MonoWAV/30MonoH4.wav,2,2,1,8,,,,,0,11,11,7,0,11,11,9,,,,,,,,,3,1.2572584199951962,,,054,001,2019_May_21_1404,MusicAffectPsychophysiology2019,3.0.5,60.213396278555855,
,,30MonoWAV/30MonoH4.wav,2,2,1,8,,,,,0,11,11,7,,,,,,,,,,,,,,,,,054,001,2019_May_21_1404,MusicAffectPsychophysiology2019,3.0.5,60.213396278555855,
To what extent did the music make you feel ,GUILTY,30MonoWAV/30MonoS2.wav,1,1,3,10,,,,,0,12,12,9,0,0,0,5,,,2,2.857560743999784,3,1.5007352069951594,3,1.2356089840031927,3,1.484915519002243,,,054,001,2019_May_21_1404,MusicAffectPsychophysiology2019,3.0.5,60.213396278555855,
To what extent did the music make you feel ,FRUSTRATED,30MonoWAV/30MonoS2.wav,1,1,3,10,,,,,0,12,12,9,0,1,1,3,,,,,,,,,1,1.1523687320004683,,,054,001,2019_May_21_1404,MusicAffectPsychophysiology2019,3.0.5,60.213396278555855,
To what extent did the music make you feel ,SAD,30MonoWAV/30MonoS2.wav,1,1,3,10,,,,,0,12,12,9,0,2,2,0,,,,,,,,,3,1.568557153994334,,,054,001,2019_May_21_1404,MusicAffectPsychophysiology2019,3.0.5,60.213396278555855,
To what extent did the music make you feel ,ALERT,30MonoWAV/30MonoS2.wav,1,1,3,10,,,,,0,12,12,9,0,3,3,8,,,,,,,,,2,0.9517444030061597,,,054,001,2019_May_21_1404,MusicAffectPsychophysiology2019,3.0.5,60.213396278555855,
To what extent did the music make you feel ,SCARED,30MonoWAV/30MonoS2.wav,1,1,3,10,,,,,0,12,12,9,0,4,4,11,,,,,,,,,3,0.9520815050054807,,,054,001,2019_May_21_1404,MusicAffectPsychophysiology2019,3.0.5,60.213396278555855,
To what extent did the music make you feel ,EXCITED,30MonoWAV/30MonoS2.wav,1,1,3,10,,,,,0,12,12,9,0,5,5,7,,,,,,,,,1,1.4520062770025106,,,054,001,2019_May_21_1404,MusicAffectPsychophysiology2019,3.0.5,60.213396278555855,
To what extent did the music make you feel ,ANXIOUS ,30MonoWAV/30MonoS2.wav,1,1,3,10,,,,,0,12,12,9,0,6,6,1,,,,,,,,,3,1.1854015790013364,,,054,001,2019_May_21_1404,MusicAffectPsychophysiology2019,3.0.5,60.213396278555855,
To what extent did the music make you feel ,HAPPY,30MonoWAV/30MonoS2.wav,1,1,3,10,,,,,0,12,12,9,0,7,7,6,,,,,,,,,4,1.2683503170119366,,,054,001,2019_May_21_1404,MusicAffectPsychophysiology2019,3.0.5,60.213396278555855,
To what extent did the music make you feel ,ASHAMED,30MonoWAV/30MonoS2.wav,1,1,3,10,,,,,0,12,12,9,0,8,8,4,,,,,,,,,2,1.0845875879895175,,,054,001,2019_May_21_1404,MusicAffectPsychophysiology2019,3.0.5,60.213396278555855,
To what extent did the music make you feel ,ACTIVE,30MonoWAV/30MonoS2.wav,1,1,3,10,,,,,0,12,12,9,0,9,9,9,,,,,,,,,1,1.0837831130047562,,,054,001,2019_May_21_1404,MusicAffectPsychophysiology2019,3.0.5,60.213396278555855,
To what extent did the music make you feel ,TENDER,30MonoWAV/30MonoS2.wav,1,1,3,10,,,,,0,12,12,9,0,10,10,10,,,,,,,,,2,1.5368984129891032,,,054,001,2019_May_21_1404,MusicAffectPsychophysiology2019,3.0.5,60.213396278555855,
To what extent did the music make you feel ,ANGRY,30MonoWAV/30MonoS2.wav,1,1,3,10,,,,,0,12,12,9,0,11,11,2,,,,,,,,,1,1.3010192939982517,,,054,001,2019_May_21_1404,MusicAffectPsychophysiology2019,3.0.5,60.213396278555855,
,,30MonoWAV/30MonoS2.wav,1,1,3,10,,,,,0,12,12,9,,,,,,,,,,,,,,,,,054,001,2019_May_21_1404,MusicAffectPsychophysiology2019,3.0.5,60.213396278555855,
To what extent did the music make you feel ,ANGRY,30MonoWAV/30MonoF2.wav,1,2,2,2,,,,,0,13,13,1,0,0,0,2,,,3,3.5226022520073457,2,2.873238467000192,3,1.4506539790017996,1,2.3184973890020046,,,054,001,2019_May_21_1404,MusicAffectPsychophysiology2019,3.0.5,60.213396278555855,
To what extent did the music make you feel ,SCARED,30MonoWAV/30MonoF2.wav,1,2,2,2,,,,,0,13,13,1,0,1,1,11,,,,,,,,,4,2.3338558660034323,,,054,001,2019_May_21_1404,MusicAffectPsychophysiology2019,3.0.5,60.213396278555855,
To what extent did the music make you feel ,ANXIOUS ,30MonoWAV/30MonoF2.wav,1,2,2,2,,,,,0,13,13,1,0,2,2,1,,,,,,,,,4,0.5853648860065732,,,054,001,2019_May_21_1404,MusicAffectPsychophysiology2019,3.0.5,60.213396278555855,
To what extent did the music make you feel ,ACTIVE,30MonoWAV/30MonoF2.wav,1,2,2,2,,,,,0,13,13,1,0,3,3,9,,,,,,,,,3,1.135286377990269,,,054,001,2019_May_21_1404,MusicAffectPsychophysiology2019,3.0.5,60.213396278555855,
To what extent did the music make you feel ,TENDER,30MonoWAV/30MonoF2.wav,1,2,2,2,,,,,0,13,13,1,0,4,4,10,,,,,,,,,1,0.9682986569969216,,,054,001,2019_May_21_1404,MusicAffectPsychophysiology2019,3.0.5,60.213396278555855,
To what extent did the music make you feel ,HAPPY,30MonoWAV/30MonoF2.wav,1,2,2,2,,,,,0,13,13,1,0,5,5,6,,,,,,,,,1,0.7667102929990506,,,054,001,2019_May_21_1404,MusicAffectPsychophysiology2019,3.0.5,60.213396278555855,
To what extent did the music make you feel ,FRUSTRATED,30MonoWAV/30MonoF2.wav,1,2,2,2,,,,,0,13,13,1,0,6,6,3,,,,,,,,,2,1.2022600420023082,,,054,001,2019_May_21_1404,MusicAffectPsychophysiology2019,3.0.5,60.213396278555855,
To what extent did the music make you feel ,SAD,30MonoWAV/30MonoF2.wav,1,2,2,2,,,,,0,13,13,1,0,7,7,0,,,,,,,,,3,1.1686494269961258,,,054,001,2019_May_21_1404,MusicAffectPsychophysiology2019,3.0.5,60.213396278555855,
To what extent did the music make you feel ,EXCITED,30MonoWAV/30MonoF2.wav,1,2,2,2,,,,,0,13,13,1,0,8,8,7,,,,,,,,,1,1.5023331419943133,,,054,001,2019_May_21_1404,MusicAffectPsychophysiology2019,3.0.5,60.213396278555855,
To what extent did the music make you feel ,ALERT,30MonoWAV/30MonoF2.wav,1,2,2,2,,,,,0,13,13,1,0,9,9,8,,,,,,,,,5,1.8020894170040265,,,054,001,2019_May_21_1404,MusicAffectPsychophysiology2019,3.0.5,60.213396278555855,
To what extent did the music make you feel ,GUILTY,30MonoWAV/30MonoF2.wav,1,2,2,2,,,,,0,13,13,1,0,10,10,5,,,,,,,,,1,1.352050640998641,,,054,001,2019_May_21_1404,MusicAffectPsychophysiology2019,3.0.5,60.213396278555855,
To what extent did the music make you feel ,ASHAMED,30MonoWAV/30MonoF2.wav,1,2,2,2,,,,,0,13,13,1,0,11,11,4,,,,,,,,,1,1.2020936330081895,,,054,001,2019_May_21_1404,MusicAffectPsychophysiology2019,3.0.5,60.213396278555855,
,,30MonoWAV/30MonoF2.wav,1,2,2,2,,,,,0,13,13,1,,,,,,,,,,,,,,,,,054,001,2019_May_21_1404,MusicAffectPsychophysiology2019,3.0.5,60.213396278555855,
To what extent did the music make you feel ,EXCITED,30MonoWAV/30MonoS1.wav,1,1,3,9,,,,,0,14,14,8,0,0,0,7,,,2,3.842209748996538,4,1.4512507670006016,4,1.1343449749983847,3,0.9849120690050768,,,054,001,2019_May_21_1404,MusicAffectPsychophysiology2019,3.0.5,60.213396278555855,
To what extent did the music make you feel ,HAPPY,30MonoWAV/30MonoS1.wav,1,1,3,9,,,,,0,14,14,8,0,1,1,6,,,,,,,,,4,0.784444106000592,,,054,001,2019_May_21_1404,MusicAffectPsychophysiology2019,3.0.5,60.213396278555855,
To what extent did the music make you feel ,SCARED,30MonoWAV/30MonoS1.wav,1,1,3,9,,,,,0,14,14,8,0,2,2,11,,,,,,,,,1,1.368526712001767,,,054,001,2019_May_21_1404,MusicAffectPsychophysiology2019,3.0.5,60.213396278555855,
To what extent did the music make you feel ,TENDER,30MonoWAV/30MonoS1.wav,1,1,3,9,,,,,0,14,14,8,0,3,3,10,,,,,,,,,2,0.5352214180020383,,,054,001,2019_May_21_1404,MusicAffectPsychophysiology2019,3.0.5,60.213396278555855,
To what extent did the music make you feel ,ACTIVE,30MonoWAV/30MonoS1.wav,1,1,3,9,,,,,0,14,14,8,0,4,4,9,,,,,,,,,1,1.5072448910068488,,,054,001,2019_May_21_1404,MusicAffectPsychophysiology2019,3.0.5,60.213396278555855,
To what extent did the music make you feel ,ANXIOUS ,30MonoWAV/30MonoS1.wav,1,1,3,9,,,,,0,14,14,8,0,5,5,1,,,,,,,,,1,1.2869670259970007,,,054,001,2019_May_21_1404,MusicAffectPsychophysiology2019,3.0.5,60.213396278555855,
To what extent did the music make you feel ,GUILTY,30MonoWAV/30MonoS1.wav,1,1,3,9,,,,,0,14,14,8,0,6,6,5,,,,,,,,,2,2.6212538090039743,,,054,001,2019_May_21_1404,MusicAffectPsychophysiology2019,3.0.5,60.213396278555855,
To what extent did the music make you feel ,SAD,30MonoWAV/30MonoS1.wav,1,1,3,9,,,,,0,14,14,8,0,7,7,0,,,,,,,,,2,1.507451798999682,,,054,001,2019_May_21_1404,MusicAffectPsychophysiology2019,3.0.5,60.213396278555855,
To what extent did the music make you feel ,ANGRY,30MonoWAV/30MonoS1.wav,1,1,3,9,,,,,0,14,14,8,0,8,8,2,,,,,,,,,1,1.0503538219927577,,,054,001,2019_May_21_1404,MusicAffectPsychophysiology2019,3.0.5,60.213396278555855,
To what extent did the music make you feel ,FRUSTRATED,30MonoWAV/30MonoS1.wav,1,1,3,9,,,,,0,14,14,8,0,9,9,3,,,,,,,,,1,1.4351616280036978,,,054,001,2019_May_21_1404,MusicAffectPsychophysiology2019,3.0.5,60.213396278555855,
To what extent did the music make you feel ,ALERT,30MonoWAV/30MonoS1.wav,1,1,3,9,,,,,0,14,14,8,0,10,10,8,,,,,,,,,2,1.4696451280033216,,,054,001,2019_May_21_1404,MusicAffectPsychophysiology2019,3.0.5,60.213396278555855,
To what extent did the music make you feel ,ASHAMED,30MonoWAV/30MonoS1.wav,1,1,3,9,,,,,0,14,14,8,0,11,11,4,,,,,,,,,2,1.266654795006616,,,054,001,2019_May_21_1404,MusicAffectPsychophysiology2019,3.0.5,60.213396278555855,
,,30MonoWAV/30MonoS1.wav,1,1,3,9,,,,,0,14,14,8,,,,,,,,,,,,,,,,,054,001,2019_May_21_1404,MusicAffectPsychophysiology2019,3.0.5,60.213396278555855,
To what extent did the music make you feel ,HAPPY,30MonoWAV/30MonoT2.wav,2,1,4,14,,,,,0,15,15,13,0,0,0,6,,,3,2.634446266994928,5,1.6348561289923964,4,1.0846165690018097,4,0.8175417659949744,,,054,001,2019_May_21_1404,MusicAffectPsychophysiology2019,3.0.5,60.213396278555855,
To what extent did the music make you feel ,FRUSTRATED,30MonoWAV/30MonoT2.wav,2,1,4,14,,,,,0,15,15,13,0,1,1,3,,,,,,,,,1,1.1682537330052583,,,054,001,2019_May_21_1404,MusicAffectPsychophysiology2019,3.0.5,60.213396278555855,
To what extent did the music make you feel ,ALERT,30MonoWAV/30MonoT2.wav,2,1,4,14,,,,,0,15,15,13,0,2,2,8,,,,,,,,,2,1.0698961519956356,,,054,001,2019_May_21_1404,MusicAffectPsychophysiology2019,3.0.5,60.213396278555855,
To what extent did the music make you feel ,ACTIVE,30MonoWAV/30MonoT2.wav,2,1,4,14,,,,,0,15,15,13,0,3,3,9,,,,,,,,,2,1.0516598669928499,,,054,001,2019_May_21_1404,MusicAffectPsychophysiology2019,3.0.5,60.213396278555855,
To what extent did the music make you feel ,SAD,30MonoWAV/30MonoT2.wav,2,1,4,14,,,,,0,15,15,13,0,4,4,0,,,,,,,,,3,1.1166037830116693,,,054,001,2019_May_21_1404,MusicAffectPsychophysiology2019,3.0.5,60.213396278555855,
To what extent did the music make you feel ,EXCITED,30MonoWAV/30MonoT2.wav,2,1,4,14,,,,,0,15,15,13,0,5,5,7,,,,,,,,,2,1.872356806998141,,,054,001,2019_May_21_1404,MusicAffectPsychophysiology2019,3.0.5,60.213396278555855,
To what extent did the music make you feel ,ASHAMED,30MonoWAV/30MonoT2.wav,2,1,4,14,,,,,0,15,15,13,0,6,6,4,,,,,,,,,3,0.8696607029996812,,,054,001,2019_May_21_1404,MusicAffectPsychophysiology2019,3.0.5,60.213396278555855,
To what extent did the music make you feel ,ANGRY,30MonoWAV/30MonoT2.wav,2,1,4,14,,,,,0,15,15,13,0,7,7,2,,,,,,,,,1,1.353253927998594,,,054,001,2019_May_21_1404,MusicAffectPsychophysiology2019,3.0.5,60.213396278555855,
To what extent did the music make you feel ,SCARED,30MonoWAV/30MonoT2.wav,2,1,4,14,,,,,0,15,15,13,0,8,8,11,,,,,,,,,1,0.9197326349967625,,,054,001,2019_May_21_1404,MusicAffectPsychophysiology2019,3.0.5,60.213396278555855,
To what extent did the music make you feel ,TENDER,30MonoWAV/30MonoT2.wav,2,1,4,14,,,,,0,15,15,13,0,9,9,10,,,,,,,,,4,1.1532493470003828,,,054,001,2019_May_21_1404,MusicAffectPsychophysiology2019,3.0.5,60.213396278555855,
To what extent did the music make you feel ,ANXIOUS ,30MonoWAV/30MonoT2.wav,2,1,4,14,,,,,0,15,15,13,0,10,10,1,,,,,,,,,2,1.1533589680038858,,,054,001,2019_May_21_1404,MusicAffectPsychophysiology2019,3.0.5,60.213396278555855,
To what extent did the music make you feel ,GUILTY,30MonoWAV/30MonoT2.wav,2,1,4,14,,,,,0,15,15,13,0,11,11,5,,,,,,,,,3,1.306747747992631,,,054,001,2019_May_21_1404,MusicAffectPsychophysiology2019,3.0.5,60.213396278555855,
,,30MonoWAV/30MonoT2.wav,2,1,4,14,,,,,0,15,15,13,,,,,,,,,,,,,,,,,054,001,2019_May_21_1404,MusicAffectPsychophysiology2019,3.0.5,60.213396278555855,
To what extent did the music make you feel ,GUILTY,30MonoWAV/30MonoH4.wav,2,2,1,8,,,,,1,0,16,7,0,0,0,5,,,4,2.185317373005091,4,1.7666483580105705,4,1.0349999289901461,1,1.1010991819930496,,,054,001,2019_May_21_1404,MusicAffectPsychophysiology2019,3.0.5,60.213396278555855,
To what extent did the music make you feel ,ASHAMED,30MonoWAV/30MonoH4.wav,2,2,1,8,,,,,1,0,16,7,0,1,1,4,,,,,,,,,1,0.6523082400090061,,,054,001,2019_May_21_1404,MusicAffectPsychophysiology2019,3.0.5,60.213396278555855,
To what extent did the music make you feel ,ACTIVE,30MonoWAV/30MonoH4.wav,2,2,1,8,,,,,1,0,16,7,0,2,2,9,,,,,,,,,3,2.1851863150077406,,,054,001,2019_May_21_1404,MusicAffectPsychophysiology2019,3.0.5,60.213396278555855,
To what extent did the music make you feel ,EXCITED,30MonoWAV/30MonoH4.wav,2,2,1,8,,,,,1,0,16,7,0,3,3,7,,,,,,,,,4,1.3501900489936816,,,054,001,2019_May_21_1404,MusicAffectPsychophysiology2019,3.0.5,60.213396278555855,
To what extent did the music make you feel ,ALERT,30MonoWAV/30MonoH4.wav,2,2,1,8,,,,,1,0,16,7,0,4,4,8,,,,,,,,,3,1.3184464539954206,,,054,001,2019_May_21_1404,MusicAffectPsychophysiology2019,3.0.5,60.213396278555855,
To what extent did the music make you feel ,ANGRY,30MonoWAV/30MonoH4.wav,2,2,1,8,,,,,1,0,16,7,0,5,5,2,,,,,,,,,1,1.1006572919868631,,,054,001,2019_May_21_1404,MusicAffectPsychophysiology2019,3.0.5,60.213396278555855,
To what extent did the music make you feel ,ANXIOUS ,30MonoWAV/30MonoH4.wav,2,2,1,8,,,,,1,0,16,7,0,6,6,1,,,,,,,,,1,1.1687798880011542,,,054,001,2019_May_21_1404,MusicAffectPsychophysiology2019,3.0.5,60.213396278555855,
To what extent did the music make you feel ,FRUSTRATED,30MonoWAV/30MonoH4.wav,2,2,1,8,,,,,1,0,16,7,0,7,7,3,,,,,,,,,1,0.7025396090029972,,,054,001,2019_May_21_1404,MusicAffectPsychophysiology2019,3.0.5,60.213396278555855,
To what extent did the music make you feel ,SAD,30MonoWAV/30MonoH4.wav,2,2,1,8,,,,,1,0,16,7,0,8,8,0,,,,,,,,,1,0.9681685040122829,,,054,001,2019_May_21_1404,MusicAffectPsychophysiology2019,3.0.5,60.213396278555855,
To what extent did the music make you feel ,SCARED,30MonoWAV/30MonoH4.wav,2,2,1,8,,,,,1,0,16,7,0,9,9,11,,,,,,,,,1,0.7016647840064252,,,054,001,2019_May_21_1404,MusicAffectPsychophysiology2019,3.0.5,60.213396278555855,
To what extent did the music make you feel ,TENDER,30MonoWAV/30MonoH4.wav,2,2,1,8,,,,,1,0,16,7,0,10,10,10,,,,,,,,,3,1.6350289849942783,,,054,001,2019_May_21_1404,MusicAffectPsychophysiology2019,3.0.5,60.213396278555855,
To what extent did the music make you feel ,HAPPY,30MonoWAV/30MonoH4.wav,2,2,1,8,,,,,1,0,16,7,0,11,11,6,,,,,,,,,4,1.1845030310068978,,,054,001,2019_May_21_1404,MusicAffectPsychophysiology2019,3.0.5,60.213396278555855,
,,30MonoWAV/30MonoH4.wav,2,2,1,8,,,,,1,0,16,7,,,,,,,,,,,,,,,,,054,001,2019_May_21_1404,MusicAffectPsychophysiology2019,3.0.5,60.213396278555855,
To what extent did the music make you feel ,GUILTY,30MonoWAV/30MonoF2.wav,1,2,2,2,,,,,1,1,17,1,0,0,0,5,,,3,3.6180235339998035,2,2.1727885639993474,3,1.5205102600011742,1,1.4702159570006188,,,054,001,2019_May_21_1404,MusicAffectPsychophysiology2019,3.0.5,60.213396278555855,
To what extent did the music make you feel ,ANXIOUS ,30MonoWAV/30MonoF2.wav,1,2,2,2,,,,,1,1,17,1,0,1,1,1,,,,,,,,,3,0.9856305319990497,,,054,001,2019_May_21_1404,MusicAffectPsychophysiology2019,3.0.5,60.213396278555855,
To what extent did the music make you feel ,ACTIVE,30MonoWAV/30MonoF2.wav,1,2,2,2,,,,,1,1,17,1,0,2,2,9,,,,,,,,,2,1.6705904129921691,,,054,001,2019_May_21_1404,MusicAffectPsychophysiology2019,3.0.5,60.213396278555855,
To what extent did the music make you feel ,ASHAMED,30MonoWAV/30MonoF2.wav,1,2,2,2,,,,,1,1,17,1,0,3,3,4,,,,,,,,,1,1.0571966050047195,,,054,001,2019_May_21_1404,MusicAffectPsychophysiology2019,3.0.5,60.213396278555855,
To what extent did the music make you feel ,FRUSTRATED,30MonoWAV/30MonoF2.wav,1,2,2,2,,,,,1,1,17,1,0,4,4,3,,,,,,,,,1,0.9842768390080892,,,054,001,2019_May_21_1404,MusicAffectPsychophysiology2019,3.0.5,60.213396278555855,
To what extent did the music make you feel ,EXCITED,30MonoWAV/30MonoF2.wav,1,2,2,2,,,,,1,1,17,1,0,5,5,7,,,,,,,,,2,1.351786960993195,,,054,001,2019_May_21_1404,MusicAffectPsychophysiology2019,3.0.5,60.213396278555855,
To what extent did the music make you feel ,HAPPY,30MonoWAV/30MonoF2.wav,1,2,2,2,,,,,1,1,17,1,0,6,6,6,,,,,,,,,1,1.467112491998705,,,054,001,2019_May_21_1404,MusicAffectPsychophysiology2019,3.0.5,60.213396278555855,
To what extent did the music make you feel ,ALERT,30MonoWAV/30MonoF2.wav,1,2,2,2,,,,,1,1,17,1,0,7,7,8,,,,,,,,,4,1.2359510230016895,,,054,001,2019_May_21_1404,MusicAffectPsychophysiology2019,3.0.5,60.213396278555855,
To what extent did the music make you feel ,SAD,30MonoWAV/30MonoF2.wav,1,2,2,2,,,,,1,1,17,1,0,8,8,0,,,,,,,,,2,1.252464343997417,,,054,001,2019_May_21_1404,MusicAffectPsychophysiology2019,3.0.5,60.213396278555855,
To what extent did the music make you feel ,TENDER,30MonoWAV/30MonoF2.wav,1,2,2,2,,,,,1,1,17,1,0,9,9,10,,,,,,,,,1,1.1016044040006818,,,054,001,2019_May_21_1404,MusicAffectPsychophysiology2019,3.0.5,60.213396278555855,
To what extent did the music make you feel ,ANGRY,30MonoWAV/30MonoF2.wav,1,2,2,2,,,,,1,1,17,1,0,10,10,2,,,,,,,,,2,1.5009902950114338,,,054,001,2019_May_21_1404,MusicAffectPsychophysiology2019,3.0.5,60.213396278555855,
To what extent did the music make you feel ,SCARED,30MonoWAV/30MonoF2.wav,1,2,2,2,,,,,1,1,17,1,0,11,11,11,,,,,,,,,4,1.38573457300663,,,054,001,2019_May_21_1404,MusicAffectPsychophysiology2019,3.0.5,60.213396278555855,
,,30MonoWAV/30MonoF2.wav,1,2,2,2,,,,,1,1,17,1,,,,,,,,,,,,,,,,,054,001,2019_May_21_1404,MusicAffectPsychophysiology2019,3.0.5,60.213396278555855,
To what extent did the music make you feel ,TENDER,30MonoWAV/30MonoT4.wav,2,1,4,16,,,,,1,2,18,15,0,0,0,10,,,3,2.749903666001046,4,1.6011255369958235,4,1.5856308810034534,3,1.3455580000008922,,,054,001,2019_May_21_1404,MusicAffectPsychophysiology2019,3.0.5,60.213396278555855,
To what extent did the music make you feel ,SCARED,30MonoWAV/30MonoT4.wav,2,1,4,16,,,,,1,2,18,15,0,1,1,11,,,,,,,,,1,1.001141856002505,,,054,001,2019_May_21_1404,MusicAffectPsychophysiology2019,3.0.5,60.213396278555855,
To what extent did the music make you feel ,ALERT,30MonoWAV/30MonoT4.wav,2,1,4,16,,,,,1,2,18,15,0,2,2,8,,,,,,,,,2,0.8854270300071221,,,054,001,2019_May_21_1404,MusicAffectPsychophysiology2019,3.0.5,60.213396278555855,
To what extent did the music make you feel ,ASHAMED,30MonoWAV/30MonoT4.wav,2,1,4,16,,,,,1,2,18,15,0,3,3,4,,,,,,,,,1,0.7168890920002013,,,054,001,2019_May_21_1404,MusicAffectPsychophysiology2019,3.0.5,60.213396278555855,
To what extent did the music make you feel ,EXCITED,30MonoWAV/30MonoT4.wav,2,1,4,16,,,,,1,2,18,15,0,4,4,7,,,,,,,,,2,1.7186451199959265,,,054,001,2019_May_21_1404,MusicAffectPsychophysiology2019,3.0.5,60.213396278555855,
To what extent did the music make you feel ,GUILTY,30MonoWAV/30MonoT4.wav,2,1,4,16,,,,,1,2,18,15,0,5,5,5,,,,,,,,,1,0.7180649189976975,,,054,001,2019_May_21_1404,MusicAffectPsychophysiology2019,3.0.5,60.213396278555855,
To what extent did the music make you feel ,ACTIVE,30MonoWAV/30MonoT4.wav,2,1,4,16,,,,,1,2,18,15,0,6,6,9,,,,,,,,,1,1.3510306810057955,,,054,001,2019_May_21_1404,MusicAffectPsychophysiology2019,3.0.5,60.213396278555855,
To what extent did the music make you feel ,ANXIOUS ,30MonoWAV/30MonoT4.wav,2,1,4,16,,,,,1,2,18,15,0,7,7,1,,,,,,,,,2,1.5689987590012606,,,054,001,2019_May_21_1404,MusicAffectPsychophysiology2019,3.0.5,60.213396278555855,
To what extent did the music make you feel ,ANGRY,30MonoWAV/30MonoT4.wav,2,1,4,16,,,,,1,2,18,15,0,8,8,2,,,,,,,,,1,1.3027449779910967,,,054,001,2019_May_21_1404,MusicAffectPsychophysiology2019,3.0.5,60.213396278555855,
To what extent did the music make you feel ,SAD,30MonoWAV/30MonoT4.wav,2,1,4,16,,,,,1,2,18,15,0,9,9,0,,,,,,,,,2,1.4689078929950483,,,054,001,2019_May_21_1404,MusicAffectPsychophysiology2019,3.0.5,60.213396278555855,
To what extent did the music make you feel ,HAPPY,30MonoWAV/30MonoT4.wav,2,1,4,16,,,,,1,2,18,15,0,10,10,6,,,,,,,,,4,1.3827758209954482,,,054,001,2019_May_21_1404,MusicAffectPsychophysiology2019,3.0.5,60.213396278555855,
To what extent did the music make you feel ,FRUSTRATED,30MonoWAV/30MonoT4.wav,2,1,4,16,,,,,1,2,18,15,0,11,11,3,,,,,,,,,1,3.136181933004991,,,054,001,2019_May_21_1404,MusicAffectPsychophysiology2019,3.0.5,60.213396278555855,
,,30MonoWAV/30MonoT4.wav,2,1,4,16,,,,,1,2,18,15,,,,,,,,,,,,,,,,,054,001,2019_May_21_1404,MusicAffectPsychophysiology2019,3.0.5,60.213396278555855,
To what extent did the music make you feel ,ANXIOUS ,30MonoWAV/30MonoS2.wav,1,1,3,10,,,,,1,3,19,9,0,0,0,1,,,3,4.605963244990562,4,0.9330348130024504,4,0.9512113489909098,2,1.1181084379932145,,,054,001,2019_May_21_1404,MusicAffectPsychophysiology2019,3.0.5,60.213396278555855,
To what extent did the music make you feel ,ANGRY,30MonoWAV/30MonoS2.wav,1,1,3,10,,,,,1,3,19,9,0,1,1,2,,,,,,,,,1,1.1517159679933684,,,054,001,2019_May_21_1404,MusicAffectPsychophysiology2019,3.0.5,60.213396278555855,
To what extent did the music make you feel ,ACTIVE,30MonoWAV/30MonoS2.wav,1,1,3,10,,,,,1,3,19,9,0,2,2,9,,,,,,,,,1,1.5508644479996292,,,054,001,2019_May_21_1404,MusicAffectPsychophysiology2019,3.0.5,60.213396278555855,
To what extent did the music make you feel ,GUILTY,30MonoWAV/30MonoS2.wav,1,1,3,10,,,,,1,3,19,9,0,3,3,5,,,,,,,,,3,1.4348270970076555,,,054,001,2019_May_21_1404,MusicAffectPsychophysiology2019,3.0.5,60.213396278555855,
To what extent did the music make you feel ,FRUSTRATED,30MonoWAV/30MonoS2.wav,1,1,3,10,,,,,1,3,19,9,0,4,4,3,,,,,,,,,1,0.7186722359911073,,,054,001,2019_May_21_1404,MusicAffectPsychophysiology2019,3.0.5,60.213396278555855,
To what extent did the music make you feel ,TENDER,30MonoWAV/30MonoS2.wav,1,1,3,10,,,,,1,3,19,9,0,5,5,10,,,,,,,,,3,0.9838975530001335,,,054,001,2019_May_21_1404,MusicAffectPsychophysiology2019,3.0.5,60.213396278555855,
To what extent did the music make you feel ,SAD,30MonoWAV/30MonoS2.wav,1,1,3,10,,,,,1,3,19,9,0,6,6,0,,,,,,,,,3,1.2519280900014564,,,054,001,2019_May_21_1404,MusicAffectPsychophysiology2019,3.0.5,60.213396278555855,
To what extent did the music make you feel ,SCARED,30MonoWAV/30MonoS2.wav,1,1,3,10,,,,,1,3,19,9,0,7,7,11,,,,,,,,,1,0.78467158699641,,,054,001,2019_May_21_1404,MusicAffectPsychophysiology2019,3.0.5,60.213396278555855,
To what extent did the music make you feel ,ALERT,30MonoWAV/30MonoS2.wav,1,1,3,10,,,,,1,3,19,9,0,8,8,8,,,,,,,,,1,1.667525339013082,,,054,001,2019_May_21_1404,MusicAffectPsychophysiology2019,3.0.5,60.213396278555855,
To what extent did the music make you feel ,ASHAMED,30MonoWAV/30MonoS2.wav,1,1,3,10,,,,,1,3,19,9,0,9,9,4,,,,,,,,,2,1.3523886689945357,,,054,001,2019_May_21_1404,MusicAffectPsychophysiology2019,3.0.5,60.213396278555855,
To what extent did the music make you feel ,HAPPY,30MonoWAV/30MonoS2.wav,1,1,3,10,,,,,1,3,19,9,0,10,10,6,,,,,,,,,4,1.4167679820093326,,,054,001,2019_May_21_1404,MusicAffectPsychophysiology2019,3.0.5,60.213396278555855,
To what extent did the music make you feel ,EXCITED,30MonoWAV/30MonoS2.wav,1,1,3,10,,,,,1,3,19,9,0,11,11,7,,,,,,,,,2,1.934883277004701,,,054,001,2019_May_21_1404,MusicAffectPsychophysiology2019,3.0.5,60.213396278555855,
,,30MonoWAV/30MonoS2.wav,1,1,3,10,,,,,1,3,19,9,,,,,,,,,,,,,,,,,054,001,2019_May_21_1404,MusicAffectPsychophysiology2019,3.0.5,60.213396278555855,
To what extent did the music make you feel ,EXCITED,30MonoWAV/30MonoF3.wav,1,2,2,3,,,,,1,4,20,2,0,0,0,7,,,3,3.806905289995484,3,1.318336509008077,3,1.0688704080093885,3,2.103634218990919,,,054,001,2019_May_21_1404,MusicAffectPsychophysiology2019,3.0.5,60.213396278555855,
To what extent did the music make you feel ,SAD,30MonoWAV/30MonoF3.wav,1,2,2,3,,,,,1,4,20,2,0,1,1,0,,,,,,,,,2,1.45208211899444,,,054,001,2019_May_21_1404,MusicAffectPsychophysiology2019,3.0.5,60.213396278555855,
To what extent did the music make you feel ,ALERT,30MonoWAV/30MonoF3.wav,1,2,2,3,,,,,1,4,20,2,0,2,2,8,,,,,,,,,4,1.01863759799744,,,054,001,2019_May_21_1404,MusicAffectPsychophysiology2019,3.0.5,60.213396278555855,
To what extent did the music make you feel ,SCARED,30MonoWAV/30MonoF3.wav,1,2,2,3,,,,,1,4,20,2,0,3,3,11,,,,,,,,,3,2.2194683529960457,,,054,001,2019_May_21_1404,MusicAffectPsychophysiology2019,3.0.5,60.213396278555855,
To what extent did the music make you feel ,ANXIOUS ,30MonoWAV/30MonoF3.wav,1,2,2,3,,,,,1,4,20,2,0,4,4,1,,,,,,,,,4,0.8509496920014499,,,054,001,2019_May_21_1404,MusicAffectPsychophysiology2019,3.0.5,60.213396278555855,
To what extent did the music make you feel ,HAPPY,30MonoWAV/30MonoF3.wav,1,2,2,3,,,,,1,4,20,2,0,5,5,6,,,,,,,,,2,1.5018802129925461,,,054,001,2019_May_21_1404,MusicAffectPsychophysiology2019,3.0.5,60.213396278555855,
To what extent did the music make you feel ,ASHAMED,30MonoWAV/30MonoF3.wav,1,2,2,3,,,,,1,4,20,2,0,6,6,4,,,,,,,,,1,0.8358744329889305,,,054,001,2019_May_21_1404,MusicAffectPsychophysiology2019,3.0.5,60.213396278555855,
To what extent did the music make you feel ,ACTIVE,30MonoWAV/30MonoF3.wav,1,2,2,3,,,,,1,4,20,2,0,7,7,9,,,,,,,,,2,1.6850947989878478,,,054,001,2019_May_21_1404,MusicAffectPsychophysiology2019,3.0.5,60.213396278555855,
To what extent did the music make you feel ,TENDER,30MonoWAV/30MonoF3.wav,1,2,2,3,,,,,1,4,20,2,0,8,8,10,,,,,,,,,1,0.8186145149957156,,,054,001,2019_May_21_1404,MusicAffectPsychophysiology2019,3.0.5,60.213396278555855,
To what extent did the music make you feel ,GUILTY,30MonoWAV/30MonoF3.wav,1,2,2,3,,,,,1,4,20,2,0,9,9,5,,,,,,,,,1,1.167362995998701,,,054,001,2019_May_21_1404,MusicAffectPsychophysiology2019,3.0.5,60.213396278555855,
To what extent did the music make you feel ,ANGRY,30MonoWAV/30MonoF3.wav,1,2,2,3,,,,,1,4,20,2,0,10,10,2,,,,,,,,,1,1.0017646829946898,,,054,001,2019_May_21_1404,MusicAffectPsychophysiology2019,3.0.5,60.213396278555855,
To what extent did the music make you feel ,FRUSTRATED,30MonoWAV/30MonoF3.wav,1,2,2,3,,,,,1,4,20,2,0,11,11,3,,,,,,,,,1,0.9506963500025449,,,054,001,2019_May_21_1404,MusicAffectPsychophysiology2019,3.0.5,60.213396278555855,
,,30MonoWAV/30MonoF3.wav,1,2,2,3,,,,,1,4,20,2,,,,,,,,,,,,,,,,,054,001,2019_May_21_1404,MusicAffectPsychophysiology2019,3.0.5,60.213396278555855,
To what extent did the music make you feel ,ALERT,30MonoWAV/30MonoS4.wav,1,1,3,12,,,,,1,5,21,11,0,0,0,8,,,2,2.83572716100025,4,1.3852394980058307,3,1.2513580340018962,1,2.3849423640058376,,,054,001,2019_May_21_1404,MusicAffectPsychophysiology2019,3.0.5,60.213396278555855,
To what extent did the music make you feel ,ANGRY,30MonoWAV/30MonoS4.wav,1,1,3,12,,,,,1,5,21,11,0,1,1,2,,,,,,,,,1,0.734973054000875,,,054,001,2019_May_21_1404,MusicAffectPsychophysiology2019,3.0.5,60.213396278555855,
To what extent did the music make you feel ,ASHAMED,30MonoWAV/30MonoS4.wav,1,1,3,12,,,,,1,5,21,11,0,2,2,4,,,,,,,,,2,1.3522072729974752,,,054,001,2019_May_21_1404,MusicAffectPsychophysiology2019,3.0.5,60.213396278555855,
To what extent did the music make you feel ,ANXIOUS ,30MonoWAV/30MonoS4.wav,1,1,3,12,,,,,1,5,21,11,0,3,3,1,,,,,,,,,2,1.0666287089989055,,,054,001,2019_May_21_1404,MusicAffectPsychophysiology2019,3.0.5,60.213396278555855,
To what extent did the music make you feel ,TENDER,30MonoWAV/30MonoS4.wav,1,1,3,12,,,,,1,5,21,11,0,4,4,10,,,,,,,,,2,0.8846989890007535,,,054,001,2019_May_21_1404,MusicAffectPsychophysiology2019,3.0.5,60.213396278555855,
To what extent did the music make you feel ,GUILTY,30MonoWAV/30MonoS4.wav,1,1,3,12,,,,,1,5,21,11,0,5,5,5,,,,,,,,,2,1.18484505500237,,,054,001,2019_May_21_1404,MusicAffectPsychophysiology2019,3.0.5,60.213396278555855,
To what extent did the music make you feel ,SAD,30MonoWAV/30MonoS4.wav,1,1,3,12,,,,,1,5,21,11,0,6,6,0,,,,,,,,,3,1.3346282040001824,,,054,001,2019_May_21_1404,MusicAffectPsychophysiology2019,3.0.5,60.213396278555855,
To what extent did the music make you feel ,ACTIVE,30MonoWAV/30MonoS4.wav,1,1,3,12,,,,,1,5,21,11,0,7,7,9,,,,,,,,,1,2.002242741000373,,,054,001,2019_May_21_1404,MusicAffectPsychophysiology2019,3.0.5,60.213396278555855,
To what extent did the music make you feel ,EXCITED,30MonoWAV/30MonoS4.wav,1,1,3,12,,,,,1,5,21,11,0,8,8,7,,,,,,,,,2,1.1677344089985127,,,054,001,2019_May_21_1404,MusicAffectPsychophysiology2019,3.0.5,60.213396278555855,
To what extent did the music make you feel ,FRUSTRATED,30MonoWAV/30MonoS4.wav,1,1,3,12,,,,,1,5,21,11,0,9,9,3,,,,,,,,,1,0.7843746980070136,,,054,001,2019_May_21_1404,MusicAffectPsychophysiology2019,3.0.5,60.213396278555855,
To what extent did the music make you feel ,HAPPY,30MonoWAV/30MonoS4.wav,1,1,3,12,,,,,1,5,21,11,0,10,10,6,,,,,,,,,4,1.1849754180002492,,,054,001,2019_May_21_1404,MusicAffectPsychophysiology2019,3.0.5,60.213396278555855,
To what extent did the music make you feel ,SCARED,30MonoWAV/30MonoS4.wav,1,1,3,12,,,,,1,5,21,11,0,11,11,11,,,,,,,,,1,1.6184053729957668,,,054,001,2019_May_21_1404,MusicAffectPsychophysiology2019,3.0.5,60.213396278555855,
,,30MonoWAV/30MonoS4.wav,1,1,3,12,,,,,1,5,21,11,,,,,,,,,,,,,,,,,054,001,2019_May_21_1404,MusicAffectPsychophysiology2019,3.0.5,60.213396278555855,
To what extent did the music make you feel ,HAPPY,30MonoWAV/30MonoH1.wav,2,2,1,5,,,,,1,6,22,4,0,0,0,6,,,4,2.2655799250060227,4,1.5496315740019782,4,1.702730971010169,5,2.868378565995954,,,054,001,2019_May_21_1404,MusicAffectPsychophysiology2019,3.0.5,60.213396278555855,
To what extent did the music make you feel ,GUILTY,30MonoWAV/30MonoH1.wav,2,2,1,5,,,,,1,6,22,4,0,1,1,5,,,,,,,,,3,1.1022877249924932,,,054,001,2019_May_21_1404,MusicAffectPsychophysiology2019,3.0.5,60.213396278555855,
To what extent did the music make you feel ,ANGRY,30MonoWAV/30MonoH1.wav,2,2,1,5,,,,,1,6,22,4,0,2,2,2,,,,,,,,,1,1.80607240399695,,,054,001,2019_May_21_1404,MusicAffectPsychophysiology2019,3.0.5,60.213396278555855,
To what extent did the music make you feel ,EXCITED,30MonoWAV/30MonoH1.wav,2,2,1,5,,,,,1,6,22,4,0,3,3,7,,,,,,,,,2,0.8525102900021011,,,054,001,2019_May_21_1404,MusicAffectPsychophysiology2019,3.0.5,60.213396278555855,
To what extent did the music make you feel ,ANXIOUS ,30MonoWAV/30MonoH1.wav,2,2,1,5,,,,,1,6,22,4,0,4,4,1,,,,,,,,,1,0.8698312430060469,,,054,001,2019_May_21_1404,MusicAffectPsychophysiology2019,3.0.5,60.213396278555855,
To what extent did the music make you feel ,SCARED,30MonoWAV/30MonoH1.wav,2,2,1,5,,,,,1,6,22,4,0,5,5,11,,,,,,,,,1,0.8026932120119454,,,054,001,2019_May_21_1404,MusicAffectPsychophysiology2019,3.0.5,60.213396278555855,
To what extent did the music make you feel ,ALERT,30MonoWAV/30MonoH1.wav,2,2,1,5,,,,,1,6,22,4,0,6,6,8,,,,,,,,,2,1.2197067410015734,,,054,001,2019_May_21_1404,MusicAffectPsychophysiology2019,3.0.5,60.213396278555855,
To what extent did the music make you feel ,FRUSTRATED,30MonoWAV/30MonoH1.wav,2,2,1,5,,,,,1,6,22,4,0,7,7,3,,,,,,,,,1,1.1367340510041686,,,054,001,2019_May_21_1404,MusicAffectPsychophysiology2019,3.0.5,60.213396278555855,
To what extent did the music make you feel ,TENDER,30MonoWAV/30MonoH1.wav,2,2,1,5,,,,,1,6,22,4,0,8,8,10,,,,,,,,,3,0.9687887329928344,,,054,001,2019_May_21_1404,MusicAffectPsychophysiology2019,3.0.5,60.213396278555855,
To what extent did the music make you feel ,SAD,30MonoWAV/30MonoH1.wav,2,2,1,5,,,,,1,6,22,4,0,9,9,0,,,,,,,,,2,1.2064022379927337,,,054,001,2019_May_21_1404,MusicAffectPsychophysiology2019,3.0.5,60.213396278555855,
To what extent did the music make you feel ,ACTIVE,30MonoWAV/30MonoH1.wav,2,2,1,5,,,,,1,6,22,4,0,10,10,9,,,,,,,,,1,0.7685458749911049,,,054,001,2019_May_21_1404,MusicAffectPsychophysiology2019,3.0.5,60.213396278555855,
To what extent did the music make you feel ,ASHAMED,30MonoWAV/30MonoH1.wav,2,2,1,5,,,,,1,6,22,4,0,11,11,4,,,,,,,,,1,1.3016695190017344,,,054,001,2019_May_21_1404,MusicAffectPsychophysiology2019,3.0.5,60.213396278555855,
,,30MonoWAV/30MonoH1.wav,2,2,1,5,,,,,1,6,22,4,,,,,,,,,,,,,,,,,054,001,2019_May_21_1404,MusicAffectPsychophysiology2019,3.0.5,60.213396278555855,
To what extent did the music make you feel ,GUILTY,30MonoWAV/30MonoT1.wav,2,1,4,13,,,,,1,7,23,12,0,0,0,5,,,3,4.968334781995509,4,1.0841824740055017,4,0.9176739910035394,2,1.169125289990916,,,054,001,2019_May_21_1404,MusicAffectPsychophysiology2019,3.0.5,60.213396278555855,
To what extent did the music make you feel ,ALERT,30MonoWAV/30MonoT1.wav,2,1,4,13,,,,,1,7,23,12,0,1,1,8,,,,,,,,,2,0.8683730350021506,,,054,001,2019_May_21_1404,MusicAffectPsychophysiology2019,3.0.5,60.213396278555855,
To what extent did the music make you feel ,SCARED,30MonoWAV/30MonoT1.wav,2,1,4,13,,,,,1,7,23,12,0,2,2,11,,,,,,,,,1,0.6353275869914796,,,054,001,2019_May_21_1404,MusicAffectPsychophysiology2019,3.0.5,60.213396278555855,
To what extent did the music make you feel ,FRUSTRATED,30MonoWAV/30MonoT1.wav,2,1,4,13,,,,,1,7,23,12,0,3,3,3,,,,,,,,,1,0.9352451250015292,,,054,001,2019_May_21_1404,MusicAffectPsychophysiology2019,3.0.5,60.213396278555855,
To what extent did the music make you feel ,EXCITED,30MonoWAV/30MonoT1.wav,2,1,4,13,,,,,1,7,23,12,0,4,4,7,,,,,,,,,3,1.218000833003316,,,054,001,2019_May_21_1404,MusicAffectPsychophysiology2019,3.0.5,60.213396278555855,
To what extent did the music make you feel ,ASHAMED,30MonoWAV/30MonoT1.wav,2,1,4,13,,,,,1,7,23,12,0,5,5,4,,,,,,,,,2,0.7851369689888088,,,054,001,2019_May_21_1404,MusicAffectPsychophysiology2019,3.0.5,60.213396278555855,
To what extent did the music make you feel ,SAD,30MonoWAV/30MonoT1.wav,2,1,4,13,,,,,1,7,23,12,0,6,6,0,,,,,,,,,2,1.8238275730109308,,,054,001,2019_May_21_1404,MusicAffectPsychophysiology2019,3.0.5,60.213396278555855,
To what extent did the music make you feel ,ANGRY,30MonoWAV/30MonoT1.wav,2,1,4,13,,,,,1,7,23,12,0,7,7,2,,,,,,,,,1,0.5015333810006268,,,054,001,2019_May_21_1404,MusicAffectPsychophysiology2019,3.0.5,60.213396278555855,
To what extent did the music make you feel ,ANXIOUS ,30MonoWAV/30MonoT1.wav,2,1,4,13,,,,,1,7,23,12,0,8,8,1,,,,,,,,,2,0.8358669720037142,,,054,001,2019_May_21_1404,MusicAffectPsychophysiology2019,3.0.5,60.213396278555855,
To what extent did the music make you feel ,ACTIVE,30MonoWAV/30MonoT1.wav,2,1,4,13,,,,,1,7,23,12,0,9,9,9,,,,,,,,,1,0.5859742650063708,,,054,001,2019_May_21_1404,MusicAffectPsychophysiology2019,3.0.5,60.213396278555855,
To what extent did the music make you feel ,TENDER,30MonoWAV/30MonoT1.wav,2,1,4,13,,,,,1,7,23,12,0,10,10,10,,,,,,,,,3,2.504345380992163,,,054,001,2019_May_21_1404,MusicAffectPsychophysiology2019,3.0.5,60.213396278555855,
To what extent did the music make you feel ,HAPPY,30MonoWAV/30MonoT1.wav,2,1,4,13,,,,,1,7,23,12,0,11,11,6,,,,,,,,,4,0.7858640260092216,,,054,001,2019_May_21_1404,MusicAffectPsychophysiology2019,3.0.5,60.213396278555855,
,,30MonoWAV/30MonoT1.wav,2,1,4,13,,,,,1,7,23,12,,,,,,,,,,,,,,,,,054,001,2019_May_21_1404,MusicAffectPsychophysiology2019,3.0.5,60.213396278555855,
To what extent did the music make you feel ,ALERT,30MonoWAV/30MonoS1.wav,1,1,3,9,,,,,1,8,24,8,0,0,0,8,,,2,4.302451256997301,3,3.019214480998926,4,0.9180195910012117,1,1.9679344480100553,,,054,001,2019_May_21_1404,MusicAffectPsychophysiology2019,3.0.5,60.213396278555855,
To what extent did the music make you feel ,GUILTY,30MonoWAV/30MonoS1.wav,1,1,3,9,,,,,1,8,24,8,0,1,1,5,,,,,,,,,1,0.8181545130064478,,,054,001,2019_May_21_1404,MusicAffectPsychophysiology2019,3.0.5,60.213396278555855,
To what extent did the music make you feel ,EXCITED,30MonoWAV/30MonoS1.wav,1,1,3,9,,,,,1,8,24,8,0,2,2,7,,,,,,,,,2,2.1011549760005437,,,054,001,2019_May_21_1404,MusicAffectPsychophysiology2019,3.0.5,60.213396278555855,
To what extent did the music make you feel ,ANGRY,30MonoWAV/30MonoS1.wav,1,1,3,9,,,,,1,8,24,8,0,3,3,2,,,,,,,,,1,1.1192793829977745,,,054,001,2019_May_21_1404,MusicAffectPsychophysiology2019,3.0.5,60.213396278555855,
To what extent did the music make you feel ,ANXIOUS ,30MonoWAV/30MonoS1.wav,1,1,3,9,,,,,1,8,24,8,0,4,4,1,,,,,,,,,1,0.5183918669936247,,,054,001,2019_May_21_1404,MusicAffectPsychophysiology2019,3.0.5,60.213396278555855,
To what extent did the music make you feel ,ACTIVE,30MonoWAV/30MonoS1.wav,1,1,3,9,,,,,1,8,24,8,0,5,5,9,,,,,,,,,1,1.8846354800043628,,,054,001,2019_May_21_1404,MusicAffectPsychophysiology2019,3.0.5,60.213396278555855,
To what extent did the music make you feel ,FRUSTRATED,30MonoWAV/30MonoS1.wav,1,1,3,9,,,,,1,8,24,8,0,6,6,3,,,,,,,,,1,0.7222267409961205,,,054,001,2019_May_21_1404,MusicAffectPsychophysiology2019,3.0.5,60.213396278555855,
To what extent did the music make you feel ,SAD,30MonoWAV/30MonoS1.wav,1,1,3,9,,,,,1,8,24,8,0,7,7,0,,,,,,,,,2,1.385302328999387,,,054,001,2019_May_21_1404,MusicAffectPsychophysiology2019,3.0.5,60.213396278555855,
To what extent did the music make you feel ,SCARED,30MonoWAV/30MonoS1.wav,1,1,3,9,,,,,1,8,24,8,0,8,8,11,,,,,,,,,1,2.2545692559942836,,,054,001,2019_May_21_1404,MusicAffectPsychophysiology2019,3.0.5,60.213396278555855,
To what extent did the music make you feel ,TENDER,30MonoWAV/30MonoS1.wav,1,1,3,9,,,,,1,8,24,8,0,9,9,10,,,,,,,,,3,0.8861268990003737,,,054,001,2019_May_21_1404,MusicAffectPsychophysiology2019,3.0.5,60.213396278555855,
To what extent did the music make you feel ,ASHAMED,30MonoWAV/30MonoS1.wav,1,1,3,9,,,,,1,8,24,8,0,10,10,4,,,,,,,,,2,1.069967125004041,,,054,001,2019_May_21_1404,MusicAffectPsychophysiology2019,3.0.5,60.213396278555855,
To what extent did the music make you feel ,HAPPY,30MonoWAV/30MonoS1.wav,1,1,3,9,,,,,1,8,24,8,0,11,11,6,,,,,,,,,3,1.6406450430076802,,,054,001,2019_May_21_1404,MusicAffectPsychophysiology2019,3.0.5,60.213396278555855,
,,30MonoWAV/30MonoS1.wav,1,1,3,9,,,,,1,8,24,8,,,,,,,,,,,,,,,,,054,001,2019_May_21_1404,MusicAffectPsychophysiology2019,3.0.5,60.213396278555855,
To what extent did the music make you feel ,FRUSTRATED,30MonoWAV/30MonoH3.wav,2,2,1,7,,,,,1,9,25,6,0,0,0,3,,,4,3.1683978740038583,3,0.9343703479971737,3,0.9680437310016714,1,1.3347841700015124,,,054,001,2019_May_21_1404,MusicAffectPsychophysiology2019,3.0.5,60.213396278555855,
To what extent did the music make you feel ,TENDER,30MonoWAV/30MonoH3.wav,2,2,1,7,,,,,1,9,25,6,0,1,1,10,,,,,,,,,1,1.0519261169974925,,,054,001,2019_May_21_1404,MusicAffectPsychophysiology2019,3.0.5,60.213396278555855,
To what extent did the music make you feel ,ACTIVE,30MonoWAV/30MonoH3.wav,2,2,1,7,,,,,1,9,25,6,0,2,2,9,,,,,,,,,3,1.0354123110009823,,,054,001,2019_May_21_1404,MusicAffectPsychophysiology2019,3.0.5,60.213396278555855,
To what extent did the music make you feel ,ALERT,30MonoWAV/30MonoH3.wav,2,2,1,7,,,,,1,9,25,6,0,3,3,8,,,,,,,,,3,2.2677713190059876,,,054,001,2019_May_21_1404,MusicAffectPsychophysiology2019,3.0.5,60.213396278555855,
To what extent did the music make you feel ,ANGRY,30MonoWAV/30MonoH3.wav,2,2,1,7,,,,,1,9,25,6,0,4,4,2,,,,,,,,,2,0.7169662880041869,,,054,001,2019_May_21_1404,MusicAffectPsychophysiology2019,3.0.5,60.213396278555855,
To what extent did the music make you feel ,GUILTY,30MonoWAV/30MonoH3.wav,2,2,1,7,,,,,1,9,25,6,0,5,5,5,,,,,,,,,1,1.269611983007053,,,054,001,2019_May_21_1404,MusicAffectPsychophysiology2019,3.0.5,60.213396278555855,
To what extent did the music make you feel ,HAPPY,30MonoWAV/30MonoH3.wav,2,2,1,7,,,,,1,9,25,6,0,6,6,6,,,,,,,,,3,1.3011440970003605,,,054,001,2019_May_21_1404,MusicAffectPsychophysiology2019,3.0.5,60.213396278555855,
To what extent did the music make you feel ,SCARED,30MonoWAV/30MonoH3.wav,2,2,1,7,,,,,1,9,25,6,0,7,7,11,,,,,,,,,1,2.352210165990982,,,054,001,2019_May_21_1404,MusicAffectPsychophysiology2019,3.0.5,60.213396278555855,
To what extent did the music make you feel ,SAD,30MonoWAV/30MonoH3.wav,2,2,1,7,,,,,1,9,25,6,0,8,8,0,,,,,,,,,2,0.8682960669975728,,,054,001,2019_May_21_1404,MusicAffectPsychophysiology2019,3.0.5,60.213396278555855,
To what extent did the music make you feel ,EXCITED,30MonoWAV/30MonoH3.wav,2,2,1,7,,,,,1,9,25,6,0,9,9,7,,,,,,,,,3,1.2349324240058195,,,054,001,2019_May_21_1404,MusicAffectPsychophysiology2019,3.0.5,60.213396278555855,
To what extent did the music make you feel ,ASHAMED,30MonoWAV/30MonoH3.wav,2,2,1,7,,,,,1,9,25,6,0,10,10,4,,,,,,,,,1,0.8670940669981064,,,054,001,2019_May_21_1404,MusicAffectPsychophysiology2019,3.0.5,60.213396278555855,
To what extent did the music make you feel ,ANXIOUS ,30MonoWAV/30MonoH3.wav,2,2,1,7,,,,,1,9,25,6,0,11,11,1,,,,,,,,,2,1.5352272040036041,,,054,001,2019_May_21_1404,MusicAffectPsychophysiology2019,3.0.5,60.213396278555855,
,,30MonoWAV/30MonoH3.wav,2,2,1,7,,,,,1,9,25,6,,,,,,,,,,,,,,,,,054,001,2019_May_21_1404,MusicAffectPsychophysiology2019,3.0.5,60.213396278555855,
To what extent did the music make you feel ,ASHAMED,30MonoWAV/30MonoH2.wav,2,2,1,6,,,,,1,10,26,5,0,0,0,4,,,3,2.934457412993652,3,1.0522032040025806,3,0.9015953149937559,1,1.235730202999548,,,054,001,2019_May_21_1404,MusicAffectPsychophysiology2019,3.0.5,60.213396278555855,
To what extent did the music make you feel ,FRUSTRATED,30MonoWAV/30MonoH2.wav,2,2,1,6,,,,,1,10,26,5,0,1,1,3,,,,,,,,,1,0.9009784610097995,,,054,001,2019_May_21_1404,MusicAffectPsychophysiology2019,3.0.5,60.213396278555855,
To what extent did the music make you feel ,ALERT,30MonoWAV/30MonoH2.wav,2,2,1,6,,,,,1,10,26,5,0,2,2,8,,,,,,,,,3,1.468716934992699,,,054,001,2019_May_21_1404,MusicAffectPsychophysiology2019,3.0.5,60.213396278555855,
To what extent did the music make you feel ,HAPPY,30MonoWAV/30MonoH2.wav,2,2,1,6,,,,,1,10,26,5,0,3,3,6,,,,,,,,,3,1.2690070859971456,,,054,001,2019_May_21_1404,MusicAffectPsychophysiology2019,3.0.5,60.213396278555855,
To what extent did the music make you feel ,ANGRY,30MonoWAV/30MonoH2.wav,2,2,1,6,,,,,1,10,26,5,0,4,4,2,,,,,,,,,1,1.1677893409942044,,,054,001,2019_May_21_1404,MusicAffectPsychophysiology2019,3.0.5,60.213396278555855,
To what extent did the music make you feel ,TENDER,30MonoWAV/30MonoH2.wav,2,2,1,6,,,,,1,10,26,5,0,5,5,10,,,,,,,,,1,1.118022848997498,,,054,001,2019_May_21_1404,MusicAffectPsychophysiology2019,3.0.5,60.213396278555855,
To what extent did the music make you feel ,GUILTY,30MonoWAV/30MonoH2.wav,2,2,1,6,,,,,1,10,26,5,0,6,6,5,,,,,,,,,2,2.3343962660001125,,,054,001,2019_May_21_1404,MusicAffectPsychophysiology2019,3.0.5,60.213396278555855,
To what extent did the music make you feel ,ANXIOUS ,30MonoWAV/30MonoH2.wav,2,2,1,6,,,,,1,10,26,5,0,7,7,1,,,,,,,,,2,2.521175588000915,,,054,001,2019_May_21_1404,MusicAffectPsychophysiology2019,3.0.5,60.213396278555855,
To what extent did the music make you feel ,SCARED,30MonoWAV/30MonoH2.wav,2,2,1,6,,,,,1,10,26,5,0,8,8,11,,,,,,,,,1,1.1185743759997422,,,054,001,2019_May_21_1404,MusicAffectPsychophysiology2019,3.0.5,60.213396278555855,
To what extent did the music make you feel ,SAD,30MonoWAV/30MonoH2.wav,2,2,1,6,,,,,1,10,26,5,0,9,9,0,,,,,,,,,2,1.5035303229960846,,,054,001,2019_May_21_1404,MusicAffectPsychophysiology2019,3.0.5,60.213396278555855,
To what extent did the music make you feel ,ACTIVE,30MonoWAV/30MonoH2.wav,2,2,1,6,,,,,1,10,26,5,0,10,10,9,,,,,,,,,3,1.570133926012204,,,054,001,2019_May_21_1404,MusicAffectPsychophysiology2019,3.0.5,60.213396278555855,
To what extent did the music make you feel ,EXCITED,30MonoWAV/30MonoH2.wav,2,2,1,6,,,,,1,10,26,5,0,11,11,7,,,,,,,,,2,1.2361787160043605,,,054,001,2019_May_21_1404,MusicAffectPsychophysiology2019,3.0.5,60.213396278555855,
,,30MonoWAV/30MonoH2.wav,2,2,1,6,,,,,1,10,26,5,,,,,,,,,,,,,,,,,054,001,2019_May_21_1404,MusicAffectPsychophysiology2019,3.0.5,60.213396278555855,
To what extent did the music make you feel ,EXCITED,30MonoWAV/30MonoF4.wav,1,2,2,4,,,,,1,11,27,3,0,0,0,7,,,3,2.501817847994971,2,1.5686388640024234,3,1.0005675080028595,3,1.301533707010094,,,054,001,2019_May_21_1404,MusicAffectPsychophysiology2019,3.0.5,60.213396278555855,
To what extent did the music make you feel ,SCARED,30MonoWAV/30MonoF4.wav,1,2,2,4,,,,,1,11,27,3,0,1,1,11,,,,,,,,,3,1.5853309140074998,,,054,001,2019_May_21_1404,MusicAffectPsychophysiology2019,3.0.5,60.213396278555855,
To what extent did the music make you feel ,ASHAMED,30MonoWAV/30MonoF4.wav,1,2,2,4,,,,,1,11,27,3,0,2,2,4,,,,,,,,,1,1.1518535480136052,,,054,001,2019_May_21_1404,MusicAffectPsychophysiology2019,3.0.5,60.213396278555855,
To what extent did the music make you feel ,TENDER,30MonoWAV/30MonoF4.wav,1,2,2,4,,,,,1,11,27,3,0,3,3,10,,,,,,,,,1,0.8183098870067624,,,054,001,2019_May_21_1404,MusicAffectPsychophysiology2019,3.0.5,60.213396278555855,
To what extent did the music make you feel ,FRUSTRATED,30MonoWAV/30MonoF4.wav,1,2,2,4,,,,,1,11,27,3,0,4,4,3,,,,,,,,,2,1.884979619004298,,,054,001,2019_May_21_1404,MusicAffectPsychophysiology2019,3.0.5,60.213396278555855,
To what extent did the music make you feel ,SAD,30MonoWAV/30MonoF4.wav,1,2,2,4,,,,,1,11,27,3,0,5,5,0,,,,,,,,,2,2.067766683001537,,,054,001,2019_May_21_1404,MusicAffectPsychophysiology2019,3.0.5,60.213396278555855,
To what extent did the music make you feel ,HAPPY,30MonoWAV/30MonoF4.wav,1,2,2,4,,,,,1,11,27,3,0,6,6,6,,,,,,,,,2,1.3355538030009484,,,054,001,2019_May_21_1404,MusicAffectPsychophysiology2019,3.0.5,60.213396278555855,
To what extent did the music make you feel ,GUILTY,30MonoWAV/30MonoF4.wav,1,2,2,4,,,,,1,11,27,3,0,7,7,5,,,,,,,,,1,1.084925060000387,,,054,001,2019_May_21_1404,MusicAffectPsychophysiology2019,3.0.5,60.213396278555855,
To what extent did the music make you feel ,ALERT,30MonoWAV/30MonoF4.wav,1,2,2,4,,,,,1,11,27,3,0,8,8,8,,,,,,,,,4,3.3511167770047905,,,054,001,2019_May_21_1404,MusicAffectPsychophysiology2019,3.0.5,60.213396278555855,
To what extent did the music make you feel ,ACTIVE,30MonoWAV/30MonoF4.wav,1,2,2,4,,,,,1,11,27,3,0,9,9,9,,,,,,,,,4,0.8519038910017116,,,054,001,2019_May_21_1404,MusicAffectPsychophysiology2019,3.0.5,60.213396278555855,
To what extent did the music make you feel ,ANGRY,30MonoWAV/30MonoF4.wav,1,2,2,4,,,,,1,11,27,3,0,10,10,2,,,,,,,,,1,1.385243762008031,,,054,001,2019_May_21_1404,MusicAffectPsychophysiology2019,3.0.5,60.213396278555855,
To what extent did the music make you feel ,ANXIOUS ,30MonoWAV/30MonoF4.wav,1,2,2,4,,,,,1,11,27,3,0,11,11,1,,,,,,,,,2,1.2348213489894988,,,054,001,2019_May_21_1404,MusicAffectPsychophysiology2019,3.0.5,60.213396278555855,
,,30MonoWAV/30MonoF4.wav,1,2,2,4,,,,,1,11,27,3,,,,,,,,,,,,,,,,,054,001,2019_May_21_1404,MusicAffectPsychophysiology2019,3.0.5,60.213396278555855,
To what extent did the music make you feel ,HAPPY,30MonoWAV/30MonoT2.wav,2,1,4,14,,,,,1,12,28,13,0,0,0,6,,,3,3.018421152999508,4,1.0356155970075633,4,1.0176300829916727,4,1.351942107998184,,,054,001,2019_May_21_1404,MusicAffectPsychophysiology2019,3.0.5,60.213396278555855,
To what extent did the music make you feel ,ALERT,30MonoWAV/30MonoT2.wav,2,1,4,14,,,,,1,12,28,13,0,1,1,8,,,,,,,,,3,0.9679500169877429,,,054,001,2019_May_21_1404,MusicAffectPsychophysiology2019,3.0.5,60.213396278555855,
To what extent did the music make you feel ,GUILTY,30MonoWAV/30MonoT2.wav,2,1,4,14,,,,,1,12,28,13,0,2,2,5,,,,,,,,,3,1.384855283991783,,,054,001,2019_May_21_1404,MusicAffectPsychophysiology2019,3.0.5,60.213396278555855,
To what extent did the music make you feel ,TENDER,30MonoWAV/30MonoT2.wav,2,1,4,14,,,,,1,12,28,13,0,3,3,10,,,,,,,,,2,0.8009970760031138,,,054,001,2019_May_21_1404,MusicAffectPsychophysiology2019,3.0.5,60.213396278555855,
To what extent did the music make you feel ,ANXIOUS ,30MonoWAV/30MonoT2.wav,2,1,4,14,,,,,1,12,28,13,0,4,4,1,,,,,,,,,2,0.9517924090032466,,,054,001,2019_May_21_1404,MusicAffectPsychophysiology2019,3.0.5,60.213396278555855,
To what extent did the music make you feel ,FRUSTRATED,30MonoWAV/30MonoT2.wav,2,1,4,14,,,,,1,12,28,13,0,5,5,3,,,,,,,,,1,0.8350394629960647,,,054,001,2019_May_21_1404,MusicAffectPsychophysiology2019,3.0.5,60.213396278555855,
To what extent did the music make you feel ,EXCITED,30MonoWAV/30MonoT2.wav,2,1,4,14,,,,,1,12,28,13,0,6,6,7,,,,,,,,,2,1.6184611689968733,,,054,001,2019_May_21_1404,MusicAffectPsychophysiology2019,3.0.5,60.213396278555855,
To what extent did the music make you feel ,ANGRY,30MonoWAV/30MonoT2.wav,2,1,4,14,,,,,1,12,28,13,0,7,7,2,,,,,,,,,1,0.9528315380011918,,,054,001,2019_May_21_1404,MusicAffectPsychophysiology2019,3.0.5,60.213396278555855,
To what extent did the music make you feel ,ASHAMED,30MonoWAV/30MonoT2.wav,2,1,4,14,,,,,1,12,28,13,0,8,8,4,,,,,,,,,2,2.3338919850066304,,,054,001,2019_May_21_1404,MusicAffectPsychophysiology2019,3.0.5,60.213396278555855,
To what extent did the music make you feel ,SAD,30MonoWAV/30MonoT2.wav,2,1,4,14,,,,,1,12,28,13,0,9,9,0,,,,,,,,,2,1.2687499210005626,,,054,001,2019_May_21_1404,MusicAffectPsychophysiology2019,3.0.5,60.213396278555855,
To what extent did the music make you feel ,ACTIVE,30MonoWAV/30MonoT2.wav,2,1,4,14,,,,,1,12,28,13,0,10,10,9,,,,,,,,,2,3.418444593989989,,,054,001,2019_May_21_1404,MusicAffectPsychophysiology2019,3.0.5,60.213396278555855,
To what extent did the music make you feel ,SCARED,30MonoWAV/30MonoT2.wav,2,1,4,14,,,,,1,12,28,13,0,11,11,11,,,,,,,,,1,1.3687454120081384,,,054,001,2019_May_21_1404,MusicAffectPsychophysiology2019,3.0.5,60.213396278555855,
,,30MonoWAV/30MonoT2.wav,2,1,4,14,,,,,1,12,28,13,,,,,,,,,,,,,,,,,054,001,2019_May_21_1404,MusicAffectPsychophysiology2019,3.0.5,60.213396278555855,
To what extent did the music make you feel ,FRUSTRATED,30MonoWAV/30MonoT3.wav,2,1,4,15,,,,,1,13,29,14,0,0,0,3,,,2,5.822222730988869,4,1.3849787500075763,3,1.2204226509929867,1,1.1850610080000479,,,054,001,2019_May_21_1404,MusicAffectPsychophysiology2019,3.0.5,60.213396278555855,
To what extent did the music make you feel ,TENDER,30MonoWAV/30MonoT3.wav,2,1,4,15,,,,,1,13,29,14,0,1,1,10,,,,,,,,,3,1.035328540005139,,,054,001,2019_May_21_1404,MusicAffectPsychophysiology2019,3.0.5,60.213396278555855,
To what extent did the music make you feel ,ALERT,30MonoWAV/30MonoT3.wav,2,1,4,15,,,,,1,13,29,14,0,2,2,8,,,,,,,,,2,0.9855881969997426,,,054,001,2019_May_21_1404,MusicAffectPsychophysiology2019,3.0.5,60.213396278555855,
To what extent did the music make you feel ,SCARED,30MonoWAV/30MonoT3.wav,2,1,4,15,,,,,1,13,29,14,0,3,3,11,,,,,,,,,1,0.9518236040021293,,,054,001,2019_May_21_1404,MusicAffectPsychophysiology2019,3.0.5,60.213396278555855,
To what extent did the music make you feel ,ACTIVE,30MonoWAV/30MonoT3.wav,2,1,4,15,,,,,1,13,29,14,0,4,4,9,,,,,,,,,1,2.2194720359984785,,,054,001,2019_May_21_1404,MusicAffectPsychophysiology2019,3.0.5,60.213396278555855,
To what extent did the music make you feel ,ASHAMED,30MonoWAV/30MonoT3.wav,2,1,4,15,,,,,1,13,29,14,0,5,5,4,,,,,,,,,2,1.2840313060005428,,,054,001,2019_May_21_1404,MusicAffectPsychophysiology2019,3.0.5,60.213396278555855,
To what extent did the music make you feel ,SAD,30MonoWAV/30MonoT3.wav,2,1,4,15,,,,,1,13,29,14,0,6,6,0,,,,,,,,,2,1.2515440309944097,,,054,001,2019_May_21_1404,MusicAffectPsychophysiology2019,3.0.5,60.213396278555855,
To what extent did the music make you feel ,EXCITED,30MonoWAV/30MonoT3.wav,2,1,4,15,,,,,1,13,29,14,0,7,7,7,,,,,,,,,2,0.9192463829967892,,,054,001,2019_May_21_1404,MusicAffectPsychophysiology2019,3.0.5,60.213396278555855,
To what extent did the music make you feel ,GUILTY,30MonoWAV/30MonoT3.wav,2,1,4,15,,,,,1,13,29,14,0,8,8,5,,,,,,,,,2,0.9525176700117299,,,054,001,2019_May_21_1404,MusicAffectPsychophysiology2019,3.0.5,60.213396278555855,
To what extent did the music make you feel ,ANXIOUS ,30MonoWAV/30MonoT3.wav,2,1,4,15,,,,,1,13,29,14,0,9,9,1,,,,,,,,,3,1.502029011011473,,,054,001,2019_May_21_1404,MusicAffectPsychophysiology2019,3.0.5,60.213396278555855,
To what extent did the music make you feel ,ANGRY,30MonoWAV/30MonoT3.wav,2,1,4,15,,,,,1,13,29,14,0,10,10,2,,,,,,,,,1,3.1340409530093893,,,054,001,2019_May_21_1404,MusicAffectPsychophysiology2019,3.0.5,60.213396278555855,
To what extent did the music make you feel ,HAPPY,30MonoWAV/30MonoT3.wav,2,1,4,15,,,,,1,13,29,14,0,11,11,6,,,,,,,,,4,1.3187383839976974,,,054,001,2019_May_21_1404,MusicAffectPsychophysiology2019,3.0.5,60.213396278555855,
,,30MonoWAV/30MonoT3.wav,2,1,4,15,,,,,1,13,29,14,,,,,,,,,,,,,,,,,054,001,2019_May_21_1404,MusicAffectPsychophysiology2019,3.0.5,60.213396278555855,
To what extent did the music make you feel ,FRUSTRATED,30MonoWAV/30MonoF1.wav,1,2,2,1,,,,,1,14,30,0,0,0,0,3,,,3,3.28604670400091,2,1.5567139280028641,3,1.7712902939965716,1,3.019023819011636,,,054,001,2019_May_21_1404,MusicAffectPsychophysiology2019,3.0.5,60.213396278555855,
To what extent did the music make you feel ,ASHAMED,30MonoWAV/30MonoF1.wav,1,2,2,1,,,,,1,14,30,0,0,1,1,4,,,,,,,,,1,0.9691643940022914,,,054,001,2019_May_21_1404,MusicAffectPsychophysiology2019,3.0.5,60.213396278555855,
To what extent did the music make you feel ,HAPPY,30MonoWAV/30MonoF1.wav,1,2,2,1,,,,,1,14,30,0,0,2,2,6,,,,,,,,,2,1.2847810039966134,,,054,001,2019_May_21_1404,MusicAffectPsychophysiology2019,3.0.5,60.213396278555855,
To what extent did the music make you feel ,SCARED,30MonoWAV/30MonoF1.wav,1,2,2,1,,,,,1,14,30,0,0,3,3,11,,,,,,,,,3,0.8997278440074297,,,054,001,2019_May_21_1404,MusicAffectPsychophysiology2019,3.0.5,60.213396278555855,
To what extent did the music make you feel ,ANGRY,30MonoWAV/30MonoF1.wav,1,2,2,1,,,,,1,14,30,0,0,4,4,2,,,,,,,,,2,0.9178436740039615,,,054,001,2019_May_21_1404,MusicAffectPsychophysiology2019,3.0.5,60.213396278555855,
To what extent did the music make you feel ,GUILTY,30MonoWAV/30MonoF1.wav,1,2,2,1,,,,,1,14,30,0,0,5,5,5,,,,,,,,,1,0.8353928519936744,,,054,001,2019_May_21_1404,MusicAffectPsychophysiology2019,3.0.5,60.213396278555855,
To what extent did the music make you feel ,EXCITED,30MonoWAV/30MonoF1.wav,1,2,2,1,,,,,1,14,30,0,0,6,6,7,,,,,,,,,2,1.2671675729943672,,,054,001,2019_May_21_1404,MusicAffectPsychophysiology2019,3.0.5,60.213396278555855,
To what extent did the music make you feel ,TENDER,30MonoWAV/30MonoF1.wav,1,2,2,1,,,,,1,14,30,0,0,7,7,10,,,,,,,,,1,0.7685458089981694,,,054,001,2019_May_21_1404,MusicAffectPsychophysiology2019,3.0.5,60.213396278555855,
To what extent did the music make you feel ,ACTIVE,30MonoWAV/30MonoF1.wav,1,2,2,1,,,,,1,14,30,0,0,8,8,9,,,,,,,,,3,1.2004934399883496,,,054,001,2019_May_21_1404,MusicAffectPsychophysiology2019,3.0.5,60.213396278555855,
To what extent did the music make you feel ,ALERT,30MonoWAV/30MonoF1.wav,1,2,2,1,,,,,1,14,30,0,0,9,9,8,,,,,,,,,3,1.9337415240006521,,,054,001,2019_May_21_1404,MusicAffectPsychophysiology2019,3.0.5,60.213396278555855,
To what extent did the music make you feel ,SAD,30MonoWAV/30MonoF1.wav,1,2,2,1,,,,,1,14,30,0,0,10,10,0,,,,,,,,,1,1.3020458389946725,,,054,001,2019_May_21_1404,MusicAffectPsychophysiology2019,3.0.5,60.213396278555855,
To what extent did the music make you feel ,ANXIOUS ,30MonoWAV/30MonoF1.wav,1,2,2,1,,,,,1,14,30,0,0,11,11,1,,,,,,,,,3,1.367960982999648,,,054,001,2019_May_21_1404,MusicAffectPsychophysiology2019,3.0.5,60.213396278555855,
,,30MonoWAV/30MonoF1.wav,1,2,2,1,,,,,1,14,30,0,,,,,,,,,,,,,,,,,054,001,2019_May_21_1404,MusicAffectPsychophysiology2019,3.0.5,60.213396278555855,
To what extent did the music make you feel ,SCARED,30MonoWAV/30MonoS3.wav,1,1,3,11,,,,,1,15,31,10,0,0,0,11,,,3,4.585449491991312,3,2.0356284299923573,3,1.3520873289962765,1,2.1348743139969883,,,054,001,2019_May_21_1404,MusicAffectPsychophysiology2019,3.0.5,60.213396278555855,
To what extent did the music make you feel ,EXCITED,30MonoWAV/30MonoS3.wav,1,1,3,11,,,,,1,15,31,10,0,1,1,7,,,,,,,,,2,0.9011945350066526,,,054,001,2019_May_21_1404,MusicAffectPsychophysiology2019,3.0.5,60.213396278555855,
To what extent did the music make you feel ,ALERT,30MonoWAV/30MonoS3.wav,1,1,3,11,,,,,1,15,31,10,0,2,2,8,,,,,,,,,3,0.8515817089937627,,,054,001,2019_May_21_1404,MusicAffectPsychophysiology2019,3.0.5,60.213396278555855,
To what extent did the music make you feel ,HAPPY,30MonoWAV/30MonoS3.wav,1,1,3,11,,,,,1,15,31,10,0,3,3,6,,,,,,,,,2,1.285573977002059,,,054,001,2019_May_21_1404,MusicAffectPsychophysiology2019,3.0.5,60.213396278555855,
To what extent did the music make you feel ,TENDER,30MonoWAV/30MonoS3.wav,1,1,3,11,,,,,1,15,31,10,0,4,4,10,,,,,,,,,1,1.4682710869965376,,,054,001,2019_May_21_1404,MusicAffectPsychophysiology2019,3.0.5,60.213396278555855,
To what extent did the music make you feel ,ANXIOUS ,30MonoWAV/30MonoS3.wav,1,1,3,11,,,,,1,15,31,10,0,5,5,1,,,,,,,,,3,3.2015649380045943,,,054,001,2019_May_21_1404,MusicAffectPsychophysiology2019,3.0.5,60.213396278555855,
To what extent did the music make you feel ,SAD,30MonoWAV/30MonoS3.wav,1,1,3,11,,,,,1,15,31,10,0,6,6,0,,,,,,,,,2,0.9726409590075491,,,054,001,2019_May_21_1404,MusicAffectPsychophysiology2019,3.0.5,60.213396278555855,
To what extent did the music make you feel ,FRUSTRATED,30MonoWAV/30MonoS3.wav,1,1,3,11,,,,,1,15,31,10,0,7,7,3,,,,,,,,,1,1.2525007689982885,,,054,001,2019_May_21_1404,MusicAffectPsychophysiology2019,3.0.5,60.213396278555855,
To what extent did the music make you feel ,ACTIVE,30MonoWAV/30MonoS3.wav,1,1,3,11,,,,,1,15,31,10,0,8,8,9,,,,,,,,,3,1.1528783359972294,,,054,001,2019_May_21_1404,MusicAffectPsychophysiology2019,3.0.5,60.213396278555855,
To what extent did the music make you feel ,ASHAMED,30MonoWAV/30MonoS3.wav,1,1,3,11,,,,,1,15,31,10,0,9,9,4,,,,,,,,,1,1.2680918499972904,,,054,001,2019_May_21_1404,MusicAffectPsychophysiology2019,3.0.5,60.213396278555855,
To what extent did the music make you feel ,GUILTY,30MonoWAV/30MonoS3.wav,1,1,3,11,,,,,1,15,31,10,0,10,10,5,,,,,,,,,1,1.1034845379908802,,,054,001,2019_May_21_1404,MusicAffectPsychophysiology2019,3.0.5,60.213396278555855,
To what extent did the music make you feel ,ANGRY,30MonoWAV/30MonoS3.wav,1,1,3,11,,,,,1,15,31,10,0,11,11,2,,,,,,,,,1,1.2356356530071935,,,054,001,2019_May_21_1404,MusicAffectPsychophysiology2019,3.0.5,60.213396278555855,
,,30MonoWAV/30MonoS3.wav,1,1,3,11,,,,,1,15,31,10,,,,,,,,,,,,,,,,,054,001,2019_May_21_1404,MusicAffectPsychophysiology2019,3.0.5,60.213396278555855,
,,,,,,,,,,,,,,,,,,,,,,,,,,,,,space,76.99319108598866,054,001,2019_May_21_1404,MusicAffectPsychophysiology2019,3.0.5,60.213396278555855,
