Instruction,Word,song,valence,arousal,affectcat,songmark,pracwords.thisRepN,pracwords.thisTrialN,pracwords.thisN,pracwords.thisIndex,songtrials.thisRepN,songtrials.thisTrialN,songtrials.thisN,songtrials.thisIndex,words.thisRepN,words.thisTrialN,words.thisN,words.thisIndex,begin.keys,begin.rt,arousalkey.keys,arousalkey.rt,valencekey.keys,valencekey.rt,likekey.keys,likekey.rt,WordResponse.keys,WordResponse.rt,key_resp_2.keys,key_resp_2.rt,participant,session,date,expName,psychopyVersion,frameRate,
,,,,,,,,,,,,,,,,,,,return,16.16719241499959,,,,,,,,,,,055,001,2019_May_21_1504,MusicAffectPsychophysiology2019,3.0.5,60.13944955225116,
,,,,,,,,,,,,,,,,,,,,,3,4.110107190004783,,,,,,,,,055,001,2019_May_21_1504,MusicAffectPsychophysiology2019,3.0.5,60.13944955225116,
,,,,,,,,,,,,,,,,,,,,,,,3,4.201369442002033,,,,,,,055,001,2019_May_21_1504,MusicAffectPsychophysiology2019,3.0.5,60.13944955225116,
,,,,,,,,,,,,,,,,,,,,,,,,,3,3.5344836700096494,,,,,055,001,2019_May_21_1504,MusicAffectPsychophysiology2019,3.0.5,60.13944955225116,
To what extent did the music make you feel ,ANGRY,,,,,,0,0,0,2,,,,,,,,,,,,,,,,,1,2.168139824992977,,,055,001,2019_May_21_1504,MusicAffectPsychophysiology2019,3.0.5,60.13944955225116,
To what extent did the music make you feel ,ANXIOUS ,,,,,,0,1,1,1,,,,,,,,,,,,,,,,,1,1.618049381999299,,,055,001,2019_May_21_1504,MusicAffectPsychophysiology2019,3.0.5,60.13944955225116,
To what extent did the music make you feel ,SAD,,,,,,0,2,2,0,,,,,,,,,,,,,,,,,1,0.9518460769904777,,,055,001,2019_May_21_1504,MusicAffectPsychophysiology2019,3.0.5,60.13944955225116,
To what extent did the music make you feel ,HAPPY,,,,,,0,3,3,6,,,,,,,,,,,,,,,,,2,2.018799550991389,,,055,001,2019_May_21_1504,MusicAffectPsychophysiology2019,3.0.5,60.13944955225116,
To what extent did the music make you feel ,ASHAMED,,,,,,0,4,4,4,,,,,,,,,,,,,,,,,1,0.9021192399959546,,,055,001,2019_May_21_1504,MusicAffectPsychophysiology2019,3.0.5,60.13944955225116,
To what extent did the music make you feel ,ACTIVE,,,,,,0,5,5,9,,,,,,,,,,,,,,,,,3,1.8023469450126868,,,055,001,2019_May_21_1504,MusicAffectPsychophysiology2019,3.0.5,60.13944955225116,
To what extent did the music make you feel ,TENDER,,,,,,0,6,6,10,,,,,,,,,,,,,,,,,1,3.641205603009439,,,055,001,2019_May_21_1504,MusicAffectPsychophysiology2019,3.0.5,60.13944955225116,
To what extent did the music make you feel ,ALERT,,,,,,0,7,7,8,,,,,,,,,,,,,,,,,2,3.3884692379942862,,,055,001,2019_May_21_1504,MusicAffectPsychophysiology2019,3.0.5,60.13944955225116,
To what extent did the music make you feel ,EXCITED,,,,,,0,8,8,7,,,,,,,,,,,,,,,,,1,0.8191555189987412,,,055,001,2019_May_21_1504,MusicAffectPsychophysiology2019,3.0.5,60.13944955225116,
To what extent did the music make you feel ,SCARED,,,,,,0,9,9,11,,,,,,,,,,,,,,,,,1,1.2528113360021962,,,055,001,2019_May_21_1504,MusicAffectPsychophysiology2019,3.0.5,60.13944955225116,
To what extent did the music make you feel ,FRUSTRATED,,,,,,0,10,10,3,,,,,,,,,,,,,,,,,1,1.4885022639937233,,,055,001,2019_May_21_1504,MusicAffectPsychophysiology2019,3.0.5,60.13944955225116,
To what extent did the music make you feel ,GUILTY,,,,,,0,11,11,5,,,,,,,,,,,,,,,,,1,0.6674653130030492,,,055,001,2019_May_21_1504,MusicAffectPsychophysiology2019,3.0.5,60.13944955225116,
To what extent did the music make you feel ,TENDER,30MonoWAV/30MonoT4.wav,2,1,4,16,,,,,0,0,0,15,0,0,0,10,,,2,6.80868988900329,4,3.9352058799995575,3,3.5752435389877064,3,2.6721232130075805,,,055,001,2019_May_21_1504,MusicAffectPsychophysiology2019,3.0.5,60.13944955225116,
To what extent did the music make you feel ,GUILTY,30MonoWAV/30MonoT4.wav,2,1,4,16,,,,,0,0,0,15,0,1,1,5,,,,,,,,,1,1.6074525370058836,,,055,001,2019_May_21_1504,MusicAffectPsychophysiology2019,3.0.5,60.13944955225116,
To what extent did the music make you feel ,HAPPY,30MonoWAV/30MonoT4.wav,2,1,4,16,,,,,0,0,0,15,0,2,2,6,,,,,,,,,2,1.3173405449924758,,,055,001,2019_May_21_1504,MusicAffectPsychophysiology2019,3.0.5,60.13944955225116,
To what extent did the music make you feel ,FRUSTRATED,30MonoWAV/30MonoT4.wav,2,1,4,16,,,,,0,0,0,15,0,3,3,3,,,,,,,,,1,0.5849872730032075,,,055,001,2019_May_21_1504,MusicAffectPsychophysiology2019,3.0.5,60.13944955225116,
To what extent did the music make you feel ,SCARED,30MonoWAV/30MonoT4.wav,2,1,4,16,,,,,0,0,0,15,0,4,4,11,,,,,,,,,1,0.48623234299884643,,,055,001,2019_May_21_1504,MusicAffectPsychophysiology2019,3.0.5,60.13944955225116,
To what extent did the music make you feel ,ALERT,30MonoWAV/30MonoT4.wav,2,1,4,16,,,,,0,0,0,15,0,5,5,8,,,,,,,,,1,0.3692972549906699,,,055,001,2019_May_21_1504,MusicAffectPsychophysiology2019,3.0.5,60.13944955225116,
To what extent did the music make you feel ,ANXIOUS ,30MonoWAV/30MonoT4.wav,2,1,4,16,,,,,0,0,0,15,0,6,6,1,,,,,,,,,1,0.5192316900065634,,,055,001,2019_May_21_1504,MusicAffectPsychophysiology2019,3.0.5,60.13944955225116,
To what extent did the music make you feel ,ASHAMED,30MonoWAV/30MonoT4.wav,2,1,4,16,,,,,0,0,0,15,0,7,7,4,,,,,,,,,1,0.6343438280018745,,,055,001,2019_May_21_1504,MusicAffectPsychophysiology2019,3.0.5,60.13944955225116,
To what extent did the music make you feel ,ACTIVE,30MonoWAV/30MonoT4.wav,2,1,4,16,,,,,0,0,0,15,0,8,8,9,,,,,,,,,1,1.017900852006278,,,055,001,2019_May_21_1504,MusicAffectPsychophysiology2019,3.0.5,60.13944955225116,
To what extent did the music make you feel ,EXCITED,30MonoWAV/30MonoT4.wav,2,1,4,16,,,,,0,0,0,15,0,9,9,7,,,,,,,,,1,1.2507719120039837,,,055,001,2019_May_21_1504,MusicAffectPsychophysiology2019,3.0.5,60.13944955225116,
To what extent did the music make you feel ,ANGRY,30MonoWAV/30MonoT4.wav,2,1,4,16,,,,,0,0,0,15,0,10,10,2,,,,,,,,,1,0.6190832889988087,,,055,001,2019_May_21_1504,MusicAffectPsychophysiology2019,3.0.5,60.13944955225116,
To what extent did the music make you feel ,SAD,30MonoWAV/30MonoT4.wav,2,1,4,16,,,,,0,0,0,15,0,11,11,0,,,,,,,,,1,0.7013399389979895,,,055,001,2019_May_21_1504,MusicAffectPsychophysiology2019,3.0.5,60.13944955225116,
,,30MonoWAV/30MonoT4.wav,2,1,4,16,,,,,0,0,0,15,,,,,,,,,,,,,,,,,055,001,2019_May_21_1504,MusicAffectPsychophysiology2019,3.0.5,60.13944955225116,
To what extent did the music make you feel ,HAPPY,30MonoWAV/30MonoF2.wav,1,2,2,2,,,,,0,1,1,1,0,0,0,6,,,2,4.783972147008171,1,5.224160282989033,1,2.6538126100058435,1,1.186754189999192,,,055,001,2019_May_21_1504,MusicAffectPsychophysiology2019,3.0.5,60.13944955225116,
To what extent did the music make you feel ,FRUSTRATED,30MonoWAV/30MonoF2.wav,1,2,2,2,,,,,0,1,1,1,0,1,1,3,,,,,,,,,1,1.1534283670043806,,,055,001,2019_May_21_1504,MusicAffectPsychophysiology2019,3.0.5,60.13944955225116,
To what extent did the music make you feel ,ANXIOUS ,30MonoWAV/30MonoF2.wav,1,2,2,2,,,,,0,1,1,1,0,2,2,1,,,,,,,,,2,2.690200144992559,,,055,001,2019_May_21_1504,MusicAffectPsychophysiology2019,3.0.5,60.13944955225116,
To what extent did the music make you feel ,ACTIVE,30MonoWAV/30MonoF2.wav,1,2,2,2,,,,,0,1,1,1,0,3,3,9,,,,,,,,,1,0.8196670890029054,,,055,001,2019_May_21_1504,MusicAffectPsychophysiology2019,3.0.5,60.13944955225116,
To what extent did the music make you feel ,GUILTY,30MonoWAV/30MonoF2.wav,1,2,2,2,,,,,0,1,1,1,0,4,4,5,,,,,,,,,1,0.7519109409913654,,,055,001,2019_May_21_1504,MusicAffectPsychophysiology2019,3.0.5,60.13944955225116,
To what extent did the music make you feel ,EXCITED,30MonoWAV/30MonoF2.wav,1,2,2,2,,,,,0,1,1,1,0,5,5,7,,,,,,,,,1,0.4188137640012428,,,055,001,2019_May_21_1504,MusicAffectPsychophysiology2019,3.0.5,60.13944955225116,
To what extent did the music make you feel ,SCARED,30MonoWAV/30MonoF2.wav,1,2,2,2,,,,,0,1,1,1,0,6,6,11,,,,,,,,,1,1.516816575996927,,,055,001,2019_May_21_1504,MusicAffectPsychophysiology2019,3.0.5,60.13944955225116,
To what extent did the music make you feel ,ASHAMED,30MonoWAV/30MonoF2.wav,1,2,2,2,,,,,0,1,1,1,0,7,7,4,,,,,,,,,1,2.1187897810013965,,,055,001,2019_May_21_1504,MusicAffectPsychophysiology2019,3.0.5,60.13944955225116,
To what extent did the music make you feel ,TENDER,30MonoWAV/30MonoF2.wav,1,2,2,2,,,,,0,1,1,1,0,8,8,10,,,,,,,,,1,0.784468386991648,,,055,001,2019_May_21_1504,MusicAffectPsychophysiology2019,3.0.5,60.13944955225116,
To what extent did the music make you feel ,ALERT,30MonoWAV/30MonoF2.wav,1,2,2,2,,,,,0,1,1,1,0,9,9,8,,,,,,,,,3,1.4016542440076591,,,055,001,2019_May_21_1504,MusicAffectPsychophysiology2019,3.0.5,60.13944955225116,
To what extent did the music make you feel ,SAD,30MonoWAV/30MonoF2.wav,1,2,2,2,,,,,0,1,1,1,0,10,10,0,,,,,,,,,1,0.9687495550024323,,,055,001,2019_May_21_1504,MusicAffectPsychophysiology2019,3.0.5,60.13944955225116,
To what extent did the music make you feel ,ANGRY,30MonoWAV/30MonoF2.wav,1,2,2,2,,,,,0,1,1,1,0,11,11,2,,,,,,,,,1,0.8687946779973572,,,055,001,2019_May_21_1504,MusicAffectPsychophysiology2019,3.0.5,60.13944955225116,
,,30MonoWAV/30MonoF2.wav,1,2,2,2,,,,,0,1,1,1,,,,,,,,,,,,,,,,,055,001,2019_May_21_1504,MusicAffectPsychophysiology2019,3.0.5,60.13944955225116,
To what extent did the music make you feel ,ANXIOUS ,30MonoWAV/30MonoH3.wav,2,2,1,7,,,,,0,2,2,6,0,0,0,1,,,3,5.534881397004938,3,2.284965487997397,2,4.417833219995373,1,1.1181577640090836,,,055,001,2019_May_21_1504,MusicAffectPsychophysiology2019,3.0.5,60.13944955225116,
To what extent did the music make you feel ,ASHAMED,30MonoWAV/30MonoH3.wav,2,2,1,7,,,,,0,2,2,6,0,1,1,4,,,,,,,,,1,0.6362518239911878,,,055,001,2019_May_21_1504,MusicAffectPsychophysiology2019,3.0.5,60.13944955225116,
To what extent did the music make you feel ,ACTIVE,30MonoWAV/30MonoH3.wav,2,2,1,7,,,,,0,2,2,6,0,2,2,9,,,,,,,,,1,1.118845037999563,,,055,001,2019_May_21_1504,MusicAffectPsychophysiology2019,3.0.5,60.13944955225116,
To what extent did the music make you feel ,ALERT,30MonoWAV/30MonoH3.wav,2,2,1,7,,,,,0,2,2,6,0,3,3,8,,,,,,,,,1,1.9523256559914444,,,055,001,2019_May_21_1504,MusicAffectPsychophysiology2019,3.0.5,60.13944955225116,
To what extent did the music make you feel ,EXCITED,30MonoWAV/30MonoH3.wav,2,2,1,7,,,,,0,2,2,6,0,4,4,7,,,,,,,,,1,1.2354655999952229,,,055,001,2019_May_21_1504,MusicAffectPsychophysiology2019,3.0.5,60.13944955225116,
To what extent did the music make you feel ,HAPPY,30MonoWAV/30MonoH3.wav,2,2,1,7,,,,,0,2,2,6,0,5,5,6,,,,,,,,,2,2.1186509749968536,,,055,001,2019_May_21_1504,MusicAffectPsychophysiology2019,3.0.5,60.13944955225116,
To what extent did the music make you feel ,SAD,30MonoWAV/30MonoH3.wav,2,2,1,7,,,,,0,2,2,6,0,6,6,0,,,,,,,,,1,1.1516022300056648,,,055,001,2019_May_21_1504,MusicAffectPsychophysiology2019,3.0.5,60.13944955225116,
To what extent did the music make you feel ,TENDER,30MonoWAV/30MonoH3.wav,2,2,1,7,,,,,0,2,2,6,0,7,7,10,,,,,,,,,1,0.8682807240111288,,,055,001,2019_May_21_1504,MusicAffectPsychophysiology2019,3.0.5,60.13944955225116,
To what extent did the music make you feel ,SCARED,30MonoWAV/30MonoH3.wav,2,2,1,7,,,,,0,2,2,6,0,8,8,11,,,,,,,,,1,1.2022335969959386,,,055,001,2019_May_21_1504,MusicAffectPsychophysiology2019,3.0.5,60.13944955225116,
To what extent did the music make you feel ,GUILTY,30MonoWAV/30MonoH3.wav,2,2,1,7,,,,,0,2,2,6,0,9,9,5,,,,,,,,,1,0.48484933300642297,,,055,001,2019_May_21_1504,MusicAffectPsychophysiology2019,3.0.5,60.13944955225116,
To what extent did the music make you feel ,FRUSTRATED,30MonoWAV/30MonoH3.wav,2,2,1,7,,,,,0,2,2,6,0,10,10,3,,,,,,,,,1,0.5019186580029782,,,055,001,2019_May_21_1504,MusicAffectPsychophysiology2019,3.0.5,60.13944955225116,
To what extent did the music make you feel ,ANGRY,30MonoWAV/30MonoH3.wav,2,2,1,7,,,,,0,2,2,6,0,11,11,2,,,,,,,,,1,0.4352491960016778,,,055,001,2019_May_21_1504,MusicAffectPsychophysiology2019,3.0.5,60.13944955225116,
,,30MonoWAV/30MonoH3.wav,2,2,1,7,,,,,0,2,2,6,,,,,,,,,,,,,,,,,055,001,2019_May_21_1504,MusicAffectPsychophysiology2019,3.0.5,60.13944955225116,
To what extent did the music make you feel ,ANGRY,30MonoWAV/30MonoS3.wav,1,1,3,11,,,,,0,3,3,10,0,0,0,2,,,1,6.894248864002293,1,1.9708359340002062,3,1.9398034530022414,1,1.8348176430008607,,,055,001,2019_May_21_1504,MusicAffectPsychophysiology2019,3.0.5,60.13944955225116,
To what extent did the music make you feel ,HAPPY,30MonoWAV/30MonoS3.wav,1,1,3,11,,,,,0,3,3,10,0,1,1,6,,,,,,,,,1,1.0686927619972266,,,055,001,2019_May_21_1504,MusicAffectPsychophysiology2019,3.0.5,60.13944955225116,
To what extent did the music make you feel ,ASHAMED,30MonoWAV/30MonoS3.wav,1,1,3,11,,,,,0,3,3,10,0,2,2,4,,,,,,,,,1,0.685691204998875,,,055,001,2019_May_21_1504,MusicAffectPsychophysiology2019,3.0.5,60.13944955225116,
To what extent did the music make you feel ,EXCITED,30MonoWAV/30MonoS3.wav,1,1,3,11,,,,,0,3,3,10,0,3,3,7,,,,,,,,,1,0.5694114520010771,,,055,001,2019_May_21_1504,MusicAffectPsychophysiology2019,3.0.5,60.13944955225116,
To what extent did the music make you feel ,ALERT,30MonoWAV/30MonoS3.wav,1,1,3,11,,,,,0,3,3,10,0,4,4,8,,,,,,,,,1,3.7183139270055108,,,055,001,2019_May_21_1504,MusicAffectPsychophysiology2019,3.0.5,60.13944955225116,
To what extent did the music make you feel ,ACTIVE,30MonoWAV/30MonoS3.wav,1,1,3,11,,,,,0,3,3,10,0,5,5,9,,,,,,,,,1,1.1021025469963206,,,055,001,2019_May_21_1504,MusicAffectPsychophysiology2019,3.0.5,60.13944955225116,
To what extent did the music make you feel ,SAD,30MonoWAV/30MonoS3.wav,1,1,3,11,,,,,0,3,3,10,0,6,6,0,,,,,,,,,3,2.234661734997644,,,055,001,2019_May_21_1504,MusicAffectPsychophysiology2019,3.0.5,60.13944955225116,
To what extent did the music make you feel ,SCARED,30MonoWAV/30MonoS3.wav,1,1,3,11,,,,,0,3,3,10,0,7,7,11,,,,,,,,,1,0.8524699350091396,,,055,001,2019_May_21_1504,MusicAffectPsychophysiology2019,3.0.5,60.13944955225116,
To what extent did the music make you feel ,TENDER,30MonoWAV/30MonoS3.wav,1,1,3,11,,,,,0,3,3,10,0,8,8,10,,,,,,,,,1,0.6513519240106689,,,055,001,2019_May_21_1504,MusicAffectPsychophysiology2019,3.0.5,60.13944955225116,
To what extent did the music make you feel ,ANXIOUS ,30MonoWAV/30MonoS3.wav,1,1,3,11,,,,,0,3,3,10,0,9,9,1,,,,,,,,,1,0.8682769270089921,,,055,001,2019_May_21_1504,MusicAffectPsychophysiology2019,3.0.5,60.13944955225116,
To what extent did the music make you feel ,GUILTY,30MonoWAV/30MonoS3.wav,1,1,3,11,,,,,0,3,3,10,0,10,10,5,,,,,,,,,1,0.48557996000454295,,,055,001,2019_May_21_1504,MusicAffectPsychophysiology2019,3.0.5,60.13944955225116,
To what extent did the music make you feel ,FRUSTRATED,30MonoWAV/30MonoS3.wav,1,1,3,11,,,,,0,3,3,10,0,11,11,3,,,,,,,,,1,1.318396901988308,,,055,001,2019_May_21_1504,MusicAffectPsychophysiology2019,3.0.5,60.13944955225116,
,,30MonoWAV/30MonoS3.wav,1,1,3,11,,,,,0,3,3,10,,,,,,,,,,,,,,,,,055,001,2019_May_21_1504,MusicAffectPsychophysiology2019,3.0.5,60.13944955225116,
To what extent did the music make you feel ,ANGRY,30MonoWAV/30MonoS4.wav,1,1,3,12,,,,,0,4,4,11,0,0,0,2,,,1,3.4848549290036317,2,3.2665828350000083,4,1.7845860730012646,1,1.2517113530047936,,,055,001,2019_May_21_1504,MusicAffectPsychophysiology2019,3.0.5,60.13944955225116,
To what extent did the music make you feel ,ALERT,30MonoWAV/30MonoS4.wav,1,1,3,12,,,,,0,4,4,11,0,1,1,8,,,,,,,,,1,0.8842745730071329,,,055,001,2019_May_21_1504,MusicAffectPsychophysiology2019,3.0.5,60.13944955225116,
To what extent did the music make you feel ,GUILTY,30MonoWAV/30MonoS4.wav,1,1,3,12,,,,,0,4,4,11,0,2,2,5,,,,,,,,,1,0.5683124150091317,,,055,001,2019_May_21_1504,MusicAffectPsychophysiology2019,3.0.5,60.13944955225116,
To what extent did the music make you feel ,TENDER,30MonoWAV/30MonoS4.wav,1,1,3,12,,,,,0,4,4,11,0,3,3,10,,,,,,,,,2,0.9860578619991429,,,055,001,2019_May_21_1504,MusicAffectPsychophysiology2019,3.0.5,60.13944955225116,
To what extent did the music make you feel ,SAD,30MonoWAV/30MonoS4.wav,1,1,3,12,,,,,0,4,4,11,0,4,4,0,,,,,,,,,3,1.7192910910089267,,,055,001,2019_May_21_1504,MusicAffectPsychophysiology2019,3.0.5,60.13944955225116,
To what extent did the music make you feel ,SCARED,30MonoWAV/30MonoS4.wav,1,1,3,12,,,,,0,4,4,11,0,5,5,11,,,,,,,,,1,0.5848123119940283,,,055,001,2019_May_21_1504,MusicAffectPsychophysiology2019,3.0.5,60.13944955225116,
To what extent did the music make you feel ,HAPPY,30MonoWAV/30MonoS4.wav,1,1,3,12,,,,,0,4,4,11,0,6,6,6,,,,,,,,,1,0.45179942599497736,,,055,001,2019_May_21_1504,MusicAffectPsychophysiology2019,3.0.5,60.13944955225116,
To what extent did the music make you feel ,ANXIOUS ,30MonoWAV/30MonoS4.wav,1,1,3,12,,,,,0,4,4,11,0,7,7,1,,,,,,,,,1,0.8353102919936646,,,055,001,2019_May_21_1504,MusicAffectPsychophysiology2019,3.0.5,60.13944955225116,
To what extent did the music make you feel ,EXCITED,30MonoWAV/30MonoS4.wav,1,1,3,12,,,,,0,4,4,11,0,8,8,7,,,,,,,,,1,0.9845553900086088,,,055,001,2019_May_21_1504,MusicAffectPsychophysiology2019,3.0.5,60.13944955225116,
To what extent did the music make you feel ,ACTIVE,30MonoWAV/30MonoS4.wav,1,1,3,12,,,,,0,4,4,11,0,9,9,9,,,,,,,,,1,0.4521186950005358,,,055,001,2019_May_21_1504,MusicAffectPsychophysiology2019,3.0.5,60.13944955225116,
To what extent did the music make you feel ,ASHAMED,30MonoWAV/30MonoS4.wav,1,1,3,12,,,,,0,4,4,11,0,10,10,4,,,,,,,,,1,0.3847720180056058,,,055,001,2019_May_21_1504,MusicAffectPsychophysiology2019,3.0.5,60.13944955225116,
To what extent did the music make you feel ,FRUSTRATED,30MonoWAV/30MonoS4.wav,1,1,3,12,,,,,0,4,4,11,0,11,11,3,,,,,,,,,1,0.7355216419964563,,,055,001,2019_May_21_1504,MusicAffectPsychophysiology2019,3.0.5,60.13944955225116,
,,30MonoWAV/30MonoS4.wav,1,1,3,12,,,,,0,4,4,11,,,,,,,,,,,,,,,,,055,001,2019_May_21_1504,MusicAffectPsychophysiology2019,3.0.5,60.13944955225116,
To what extent did the music make you feel ,ANXIOUS ,30MonoWAV/30MonoT3.wav,2,1,4,15,,,,,0,5,5,14,0,0,0,1,,,1,3.1022009670123225,2,4.009584710991476,3,1.03595708499779,1,1.0350543649983592,,,055,001,2019_May_21_1504,MusicAffectPsychophysiology2019,3.0.5,60.13944955225116,
To what extent did the music make you feel ,HAPPY,30MonoWAV/30MonoT3.wav,2,1,4,15,,,,,0,5,5,14,0,1,1,6,,,,,,,,,2,4.006524267999339,,,055,001,2019_May_21_1504,MusicAffectPsychophysiology2019,3.0.5,60.13944955225116,
To what extent did the music make you feel ,FRUSTRATED,30MonoWAV/30MonoT3.wav,2,1,4,15,,,,,0,5,5,14,0,2,2,3,,,,,,,,,1,0.53584313900501,,,055,001,2019_May_21_1504,MusicAffectPsychophysiology2019,3.0.5,60.13944955225116,
To what extent did the music make you feel ,SCARED,30MonoWAV/30MonoT3.wav,2,1,4,15,,,,,0,5,5,14,0,3,3,11,,,,,,,,,1,0.9181487009918783,,,055,001,2019_May_21_1504,MusicAffectPsychophysiology2019,3.0.5,60.13944955225116,
To what extent did the music make you feel ,EXCITED,30MonoWAV/30MonoT3.wav,2,1,4,15,,,,,0,5,5,14,0,4,4,7,,,,,,,,,1,1.3689117040048586,,,055,001,2019_May_21_1504,MusicAffectPsychophysiology2019,3.0.5,60.13944955225116,
To what extent did the music make you feel ,TENDER,30MonoWAV/30MonoT3.wav,2,1,4,15,,,,,0,5,5,14,0,5,5,10,,,,,,,,,2,1.5326894959871424,,,055,001,2019_May_21_1504,MusicAffectPsychophysiology2019,3.0.5,60.13944955225116,
To what extent did the music make you feel ,ACTIVE,30MonoWAV/30MonoT3.wav,2,1,4,15,,,,,0,5,5,14,0,6,6,9,,,,,,,,,1,0.38497687099152245,,,055,001,2019_May_21_1504,MusicAffectPsychophysiology2019,3.0.5,60.13944955225116,
To what extent did the music make you feel ,ALERT,30MonoWAV/30MonoT3.wav,2,1,4,15,,,,,0,5,5,14,0,7,7,8,,,,,,,,,1,0.435077772999648,,,055,001,2019_May_21_1504,MusicAffectPsychophysiology2019,3.0.5,60.13944955225116,
To what extent did the music make you feel ,SAD,30MonoWAV/30MonoT3.wav,2,1,4,15,,,,,0,5,5,14,0,8,8,0,,,,,,,,,1,2.552904246011167,,,055,001,2019_May_21_1504,MusicAffectPsychophysiology2019,3.0.5,60.13944955225116,
To what extent did the music make you feel ,GUILTY,30MonoWAV/30MonoT3.wav,2,1,4,15,,,,,0,5,5,14,0,9,9,5,,,,,,,,,1,0.766019923001295,,,055,001,2019_May_21_1504,MusicAffectPsychophysiology2019,3.0.5,60.13944955225116,
To what extent did the music make you feel ,ANGRY,30MonoWAV/30MonoT3.wav,2,1,4,15,,,,,0,5,5,14,0,10,10,2,,,,,,,,,1,0.4855240939941723,,,055,001,2019_May_21_1504,MusicAffectPsychophysiology2019,3.0.5,60.13944955225116,
To what extent did the music make you feel ,ASHAMED,30MonoWAV/30MonoT3.wav,2,1,4,15,,,,,0,5,5,14,0,11,11,4,,,,,,,,,1,0.7169607329997234,,,055,001,2019_May_21_1504,MusicAffectPsychophysiology2019,3.0.5,60.13944955225116,
,,30MonoWAV/30MonoT3.wav,2,1,4,15,,,,,0,5,5,14,,,,,,,,,,,,,,,,,055,001,2019_May_21_1504,MusicAffectPsychophysiology2019,3.0.5,60.13944955225116,
To what extent did the music make you feel ,SAD,30MonoWAV/30MonoH4.wav,2,2,1,8,,,,,0,6,6,7,0,0,0,0,,,2,4.322954279996338,2,2.488527415000135,3,1.6700650220009265,1,1.152921499000513,,,055,001,2019_May_21_1504,MusicAffectPsychophysiology2019,3.0.5,60.13944955225116,
To what extent did the music make you feel ,ANGRY,30MonoWAV/30MonoH4.wav,2,2,1,8,,,,,0,6,6,7,0,1,1,2,,,,,,,,,1,0.5020066049910383,,,055,001,2019_May_21_1504,MusicAffectPsychophysiology2019,3.0.5,60.13944955225116,
To what extent did the music make you feel ,ASHAMED,30MonoWAV/30MonoH4.wav,2,2,1,8,,,,,0,6,6,7,0,2,2,4,,,,,,,,,1,0.41860160100623034,,,055,001,2019_May_21_1504,MusicAffectPsychophysiology2019,3.0.5,60.13944955225116,
To what extent did the music make you feel ,FRUSTRATED,30MonoWAV/30MonoH4.wav,2,2,1,8,,,,,0,6,6,7,0,3,3,3,,,,,,,,,1,0.4360360650025541,,,055,001,2019_May_21_1504,MusicAffectPsychophysiology2019,3.0.5,60.13944955225116,
To what extent did the music make you feel ,HAPPY,30MonoWAV/30MonoH4.wav,2,2,1,8,,,,,0,6,6,7,0,4,4,6,,,,,,,,,2,0.9895682789938292,,,055,001,2019_May_21_1504,MusicAffectPsychophysiology2019,3.0.5,60.13944955225116,
To what extent did the music make you feel ,EXCITED,30MonoWAV/30MonoH4.wav,2,2,1,8,,,,,0,6,6,7,0,5,5,7,,,,,,,,,2,1.5008992129878607,,,055,001,2019_May_21_1504,MusicAffectPsychophysiology2019,3.0.5,60.13944955225116,
To what extent did the music make you feel ,ACTIVE,30MonoWAV/30MonoH4.wav,2,2,1,8,,,,,0,6,6,7,0,6,6,9,,,,,,,,,3,1.1352401490003103,,,055,001,2019_May_21_1504,MusicAffectPsychophysiology2019,3.0.5,60.13944955225116,
To what extent did the music make you feel ,GUILTY,30MonoWAV/30MonoH4.wav,2,2,1,8,,,,,0,6,6,7,0,7,7,5,,,,,,,,,1,0.7856017329904716,,,055,001,2019_May_21_1504,MusicAffectPsychophysiology2019,3.0.5,60.13944955225116,
To what extent did the music make you feel ,ANXIOUS ,30MonoWAV/30MonoH4.wav,2,2,1,8,,,,,0,6,6,7,0,8,8,1,,,,,,,,,1,0.4352080419921549,,,055,001,2019_May_21_1504,MusicAffectPsychophysiology2019,3.0.5,60.13944955225116,
To what extent did the music make you feel ,ALERT,30MonoWAV/30MonoH4.wav,2,2,1,8,,,,,0,6,6,7,0,9,9,8,,,,,,,,,1,0.3346211530006258,,,055,001,2019_May_21_1504,MusicAffectPsychophysiology2019,3.0.5,60.13944955225116,
To what extent did the music make you feel ,TENDER,30MonoWAV/30MonoH4.wav,2,2,1,8,,,,,0,6,6,7,0,10,10,10,,,,,,,,,1,0.8512226390012074,,,055,001,2019_May_21_1504,MusicAffectPsychophysiology2019,3.0.5,60.13944955225116,
To what extent did the music make you feel ,SCARED,30MonoWAV/30MonoH4.wav,2,2,1,8,,,,,0,6,6,7,0,11,11,11,,,,,,,,,1,0.43504236498847604,,,055,001,2019_May_21_1504,MusicAffectPsychophysiology2019,3.0.5,60.13944955225116,
,,30MonoWAV/30MonoH4.wav,2,2,1,8,,,,,0,6,6,7,,,,,,,,,,,,,,,,,055,001,2019_May_21_1504,MusicAffectPsychophysiology2019,3.0.5,60.13944955225116,
To what extent did the music make you feel ,ANXIOUS ,30MonoWAV/30MonoH2.wav,2,2,1,6,,,,,0,7,7,5,0,0,0,1,,,2,5.808742501001689,2,1.7513867640082026,2,1.6185344419936882,1,3.109586348000448,,,055,001,2019_May_21_1504,MusicAffectPsychophysiology2019,3.0.5,60.13944955225116,
To what extent did the music make you feel ,SCARED,30MonoWAV/30MonoH2.wav,2,2,1,6,,,,,0,7,7,5,0,1,1,11,,,,,,,,,1,0.3520771019975655,,,055,001,2019_May_21_1504,MusicAffectPsychophysiology2019,3.0.5,60.13944955225116,
To what extent did the music make you feel ,HAPPY,30MonoWAV/30MonoH2.wav,2,2,1,6,,,,,0,7,7,5,0,2,2,6,,,,,,,,,1,0.8178485430107685,,,055,001,2019_May_21_1504,MusicAffectPsychophysiology2019,3.0.5,60.13944955225116,
To what extent did the music make you feel ,ASHAMED,30MonoWAV/30MonoH2.wav,2,2,1,6,,,,,0,7,7,5,0,3,3,4,,,,,,,,,1,1.019183055992471,,,055,001,2019_May_21_1504,MusicAffectPsychophysiology2019,3.0.5,60.13944955225116,
To what extent did the music make you feel ,ACTIVE,30MonoWAV/30MonoH2.wav,2,2,1,6,,,,,0,7,7,5,0,4,4,9,,,,,,,,,2,0.7358719579933677,,,055,001,2019_May_21_1504,MusicAffectPsychophysiology2019,3.0.5,60.13944955225116,
To what extent did the music make you feel ,SAD,30MonoWAV/30MonoH2.wav,2,2,1,6,,,,,0,7,7,5,0,5,5,0,,,,,,,,,1,0.5672923069942044,,,055,001,2019_May_21_1504,MusicAffectPsychophysiology2019,3.0.5,60.13944955225116,
To what extent did the music make you feel ,ALERT,30MonoWAV/30MonoH2.wav,2,2,1,6,,,,,0,7,7,5,0,6,6,8,,,,,,,,,1,2.2395471449999604,,,055,001,2019_May_21_1504,MusicAffectPsychophysiology2019,3.0.5,60.13944955225116,
To what extent did the music make you feel ,GUILTY,30MonoWAV/30MonoH2.wav,2,2,1,6,,,,,0,7,7,5,0,7,7,5,,,,,,,,,1,0.5349568810052006,,,055,001,2019_May_21_1504,MusicAffectPsychophysiology2019,3.0.5,60.13944955225116,
To what extent did the music make you feel ,ANGRY,30MonoWAV/30MonoH2.wav,2,2,1,6,,,,,0,7,7,5,0,8,8,2,,,,,,,,,1,0.40055367299646605,,,055,001,2019_May_21_1504,MusicAffectPsychophysiology2019,3.0.5,60.13944955225116,
To what extent did the music make you feel ,FRUSTRATED,30MonoWAV/30MonoH2.wav,2,2,1,6,,,,,0,7,7,5,0,9,9,3,,,,,,,,,1,0.3837301730090985,,,055,001,2019_May_21_1504,MusicAffectPsychophysiology2019,3.0.5,60.13944955225116,
To what extent did the music make you feel ,TENDER,30MonoWAV/30MonoH2.wav,2,2,1,6,,,,,0,7,7,5,0,10,10,10,,,,,,,,,1,0.31802857300499454,,,055,001,2019_May_21_1504,MusicAffectPsychophysiology2019,3.0.5,60.13944955225116,
To what extent did the music make you feel ,EXCITED,30MonoWAV/30MonoH2.wav,2,2,1,6,,,,,0,7,7,5,0,11,11,7,,,,,,,,,1,1.8350483950052876,,,055,001,2019_May_21_1504,MusicAffectPsychophysiology2019,3.0.5,60.13944955225116,
,,30MonoWAV/30MonoH2.wav,2,2,1,6,,,,,0,7,7,5,,,,,,,,,,,,,,,,,055,001,2019_May_21_1504,MusicAffectPsychophysiology2019,3.0.5,60.13944955225116,
To what extent did the music make you feel ,EXCITED,30MonoWAV/30MonoT2.wav,2,1,4,14,,,,,0,8,8,13,0,0,0,7,,,1,3.383395687007578,2,1.8506660389975877,2,1.267545352995512,1,1.6681365539989201,,,055,001,2019_May_21_1504,MusicAffectPsychophysiology2019,3.0.5,60.13944955225116,
To what extent did the music make you feel ,HAPPY,30MonoWAV/30MonoT2.wav,2,1,4,14,,,,,0,8,8,13,0,1,1,6,,,,,,,,,1,1.5177223599894205,,,055,001,2019_May_21_1504,MusicAffectPsychophysiology2019,3.0.5,60.13944955225116,
To what extent did the music make you feel ,ACTIVE,30MonoWAV/30MonoT2.wav,2,1,4,14,,,,,0,8,8,13,0,2,2,9,,,,,,,,,1,0.9512666669907048,,,055,001,2019_May_21_1504,MusicAffectPsychophysiology2019,3.0.5,60.13944955225116,
To what extent did the music make you feel ,FRUSTRATED,30MonoWAV/30MonoT2.wav,2,1,4,14,,,,,0,8,8,13,0,3,3,3,,,,,,,,,2,3.7847181940014707,,,055,001,2019_May_21_1504,MusicAffectPsychophysiology2019,3.0.5,60.13944955225116,
To what extent did the music make you feel ,ASHAMED,30MonoWAV/30MonoT2.wav,2,1,4,14,,,,,0,8,8,13,0,4,4,4,,,,,,,,,1,1.202300662000198,,,055,001,2019_May_21_1504,MusicAffectPsychophysiology2019,3.0.5,60.13944955225116,
To what extent did the music make you feel ,ANGRY,30MonoWAV/30MonoT2.wav,2,1,4,14,,,,,0,8,8,13,0,5,5,2,,,,,,,,,1,1.0182976729993243,,,055,001,2019_May_21_1504,MusicAffectPsychophysiology2019,3.0.5,60.13944955225116,
To what extent did the music make you feel ,SAD,30MonoWAV/30MonoT2.wav,2,1,4,14,,,,,0,8,8,13,0,6,6,0,,,,,,,,,1,0.9357337379915407,,,055,001,2019_May_21_1504,MusicAffectPsychophysiology2019,3.0.5,60.13944955225116,
To what extent did the music make you feel ,SCARED,30MonoWAV/30MonoT2.wav,2,1,4,14,,,,,0,8,8,13,0,7,7,11,,,,,,,,,1,0.8343380680016708,,,055,001,2019_May_21_1504,MusicAffectPsychophysiology2019,3.0.5,60.13944955225116,
To what extent did the music make you feel ,TENDER,30MonoWAV/30MonoT2.wav,2,1,4,14,,,,,0,8,8,13,0,8,8,10,,,,,,,,,1,0.36862524501339067,,,055,001,2019_May_21_1504,MusicAffectPsychophysiology2019,3.0.5,60.13944955225116,
To what extent did the music make you feel ,GUILTY,30MonoWAV/30MonoT2.wav,2,1,4,14,,,,,0,8,8,13,0,9,9,5,,,,,,,,,1,0.8846355260029668,,,055,001,2019_May_21_1504,MusicAffectPsychophysiology2019,3.0.5,60.13944955225116,
To what extent did the music make you feel ,ANXIOUS ,30MonoWAV/30MonoT2.wav,2,1,4,14,,,,,0,8,8,13,0,10,10,1,,,,,,,,,2,2.3851414220116567,,,055,001,2019_May_21_1504,MusicAffectPsychophysiology2019,3.0.5,60.13944955225116,
To what extent did the music make you feel ,ALERT,30MonoWAV/30MonoT2.wav,2,1,4,14,,,,,0,8,8,13,0,11,11,8,,,,,,,,,1,0.4520364990021335,,,055,001,2019_May_21_1504,MusicAffectPsychophysiology2019,3.0.5,60.13944955225116,
,,30MonoWAV/30MonoT2.wav,2,1,4,14,,,,,0,8,8,13,,,,,,,,,,,,,,,,,055,001,2019_May_21_1504,MusicAffectPsychophysiology2019,3.0.5,60.13944955225116,
To what extent did the music make you feel ,EXCITED,30MonoWAV/30MonoF4.wav,1,2,2,4,,,,,0,9,9,3,0,0,0,7,,,2,4.257175548002124,1,2.441177738000988,1,2.467818409000756,2,2.05195908099995,,,055,001,2019_May_21_1504,MusicAffectPsychophysiology2019,3.0.5,60.13944955225116,
To what extent did the music make you feel ,ASHAMED,30MonoWAV/30MonoF4.wav,1,2,2,4,,,,,0,9,9,3,0,1,1,4,,,,,,,,,1,0.7331814549979754,,,055,001,2019_May_21_1504,MusicAffectPsychophysiology2019,3.0.5,60.13944955225116,
To what extent did the music make you feel ,SCARED,30MonoWAV/30MonoF4.wav,1,2,2,4,,,,,0,9,9,3,0,2,2,11,,,,,,,,,1,0.40029898000648245,,,055,001,2019_May_21_1504,MusicAffectPsychophysiology2019,3.0.5,60.13944955225116,
To what extent did the music make you feel ,ACTIVE,30MonoWAV/30MonoF4.wav,1,2,2,4,,,,,0,9,9,3,0,3,3,9,,,,,,,,,1,0.868585283998982,,,055,001,2019_May_21_1504,MusicAffectPsychophysiology2019,3.0.5,60.13944955225116,
To what extent did the music make you feel ,GUILTY,30MonoWAV/30MonoF4.wav,1,2,2,4,,,,,0,9,9,3,0,4,4,5,,,,,,,,,1,0.5169490019907244,,,055,001,2019_May_21_1504,MusicAffectPsychophysiology2019,3.0.5,60.13944955225116,
To what extent did the music make you feel ,ANXIOUS ,30MonoWAV/30MonoF4.wav,1,2,2,4,,,,,0,9,9,3,0,5,5,1,,,,,,,,,1,0.6011648870044155,,,055,001,2019_May_21_1504,MusicAffectPsychophysiology2019,3.0.5,60.13944955225116,
To what extent did the music make you feel ,ANGRY,30MonoWAV/30MonoF4.wav,1,2,2,4,,,,,0,9,9,3,0,6,6,2,,,,,,,,,1,0.7181529779918492,,,055,001,2019_May_21_1504,MusicAffectPsychophysiology2019,3.0.5,60.13944955225116,
To what extent did the music make you feel ,ALERT,30MonoWAV/30MonoF4.wav,1,2,2,4,,,,,0,9,9,3,0,7,7,8,,,,,,,,,1,0.3512737060082145,,,055,001,2019_May_21_1504,MusicAffectPsychophysiology2019,3.0.5,60.13944955225116,
To what extent did the music make you feel ,TENDER,30MonoWAV/30MonoF4.wav,1,2,2,4,,,,,0,9,9,3,0,8,8,10,,,,,,,,,1,2.666019880998647,,,055,001,2019_May_21_1504,MusicAffectPsychophysiology2019,3.0.5,60.13944955225116,
To what extent did the music make you feel ,HAPPY,30MonoWAV/30MonoF4.wav,1,2,2,4,,,,,0,9,9,3,0,9,9,6,,,,,,,,,1,0.4002106679981807,,,055,001,2019_May_21_1504,MusicAffectPsychophysiology2019,3.0.5,60.13944955225116,
To what extent did the music make you feel ,FRUSTRATED,30MonoWAV/30MonoF4.wav,1,2,2,4,,,,,0,9,9,3,0,10,10,3,,,,,,,,,1,0.3847930979973171,,,055,001,2019_May_21_1504,MusicAffectPsychophysiology2019,3.0.5,60.13944955225116,
To what extent did the music make you feel ,SAD,30MonoWAV/30MonoF4.wav,1,2,2,4,,,,,0,9,9,3,0,11,11,0,,,,,,,,,1,0.5687251780036604,,,055,001,2019_May_21_1504,MusicAffectPsychophysiology2019,3.0.5,60.13944955225116,
,,30MonoWAV/30MonoF4.wav,1,2,2,4,,,,,0,9,9,3,,,,,,,,,,,,,,,,,055,001,2019_May_21_1504,MusicAffectPsychophysiology2019,3.0.5,60.13944955225116,
To what extent did the music make you feel ,SCARED,30MonoWAV/30MonoF1.wav,1,2,2,1,,,,,0,10,10,0,0,0,0,11,,,2,4.268310350991669,1,0.8855447579990141,1,1.1853824529971462,2,2.784968598993146,,,055,001,2019_May_21_1504,MusicAffectPsychophysiology2019,3.0.5,60.13944955225116,
To what extent did the music make you feel ,ASHAMED,30MonoWAV/30MonoF1.wav,1,2,2,1,,,,,0,10,10,0,0,1,1,4,,,,,,,,,1,0.6021153920009965,,,055,001,2019_May_21_1504,MusicAffectPsychophysiology2019,3.0.5,60.13944955225116,
To what extent did the music make you feel ,GUILTY,30MonoWAV/30MonoF1.wav,1,2,2,1,,,,,0,10,10,0,0,2,2,5,,,,,,,,,1,0.502636364006321,,,055,001,2019_May_21_1504,MusicAffectPsychophysiology2019,3.0.5,60.13944955225116,
To what extent did the music make you feel ,SAD,30MonoWAV/30MonoF1.wav,1,2,2,1,,,,,0,10,10,0,0,3,3,0,,,,,,,,,1,0.9022137980064144,,,055,001,2019_May_21_1504,MusicAffectPsychophysiology2019,3.0.5,60.13944955225116,
To what extent did the music make you feel ,ACTIVE,30MonoWAV/30MonoF1.wav,1,2,2,1,,,,,0,10,10,0,0,4,4,9,,,,,,,,,1,0.4347070439980598,,,055,001,2019_May_21_1504,MusicAffectPsychophysiology2019,3.0.5,60.13944955225116,
To what extent did the music make you feel ,FRUSTRATED,30MonoWAV/30MonoF1.wav,1,2,2,1,,,,,0,10,10,0,0,5,5,3,,,,,,,,,1,0.6521345369983464,,,055,001,2019_May_21_1504,MusicAffectPsychophysiology2019,3.0.5,60.13944955225116,
To what extent did the music make you feel ,TENDER,30MonoWAV/30MonoF1.wav,1,2,2,1,,,,,0,10,10,0,0,6,6,10,,,,,,,,,1,0.6346934180037351,,,055,001,2019_May_21_1504,MusicAffectPsychophysiology2019,3.0.5,60.13944955225116,
To what extent did the music make you feel ,HAPPY,30MonoWAV/30MonoF1.wav,1,2,2,1,,,,,0,10,10,0,0,7,7,6,,,,,,,,,1,0.4362258360051783,,,055,001,2019_May_21_1504,MusicAffectPsychophysiology2019,3.0.5,60.13944955225116,
To what extent did the music make you feel ,ALERT,30MonoWAV/30MonoF1.wav,1,2,2,1,,,,,0,10,10,0,0,8,8,8,,,,,,,,,2,0.9522044690093026,,,055,001,2019_May_21_1504,MusicAffectPsychophysiology2019,3.0.5,60.13944955225116,
To what extent did the music make you feel ,EXCITED,30MonoWAV/30MonoF1.wav,1,2,2,1,,,,,0,10,10,0,0,9,9,7,,,,,,,,,1,0.5347683389991289,,,055,001,2019_May_21_1504,MusicAffectPsychophysiology2019,3.0.5,60.13944955225116,
To what extent did the music make you feel ,ANXIOUS ,30MonoWAV/30MonoF1.wav,1,2,2,1,,,,,0,10,10,0,0,10,10,1,,,,,,,,,1,1.3851902360038366,,,055,001,2019_May_21_1504,MusicAffectPsychophysiology2019,3.0.5,60.13944955225116,
To what extent did the music make you feel ,ANGRY,30MonoWAV/30MonoF1.wav,1,2,2,1,,,,,0,10,10,0,0,11,11,2,,,,,,,,,1,0.9186487539991504,,,055,001,2019_May_21_1504,MusicAffectPsychophysiology2019,3.0.5,60.13944955225116,
,,30MonoWAV/30MonoF1.wav,1,2,2,1,,,,,0,10,10,0,,,,,,,,,,,,,,,,,055,001,2019_May_21_1504,MusicAffectPsychophysiology2019,3.0.5,60.13944955225116,
To what extent did the music make you feel ,EXCITED,30MonoWAV/30MonoF3.wav,1,2,2,3,,,,,0,11,11,2,0,0,0,7,,,2,2.8739399729965953,1,0.8190608889999567,1,1.0527536970039364,1,1.2185229900060222,,,055,001,2019_May_21_1504,MusicAffectPsychophysiology2019,3.0.5,60.13944955225116,
To what extent did the music make you feel ,SAD,30MonoWAV/30MonoF3.wav,1,2,2,3,,,,,0,11,11,2,0,1,1,0,,,,,,,,,1,0.46835314099735115,,,055,001,2019_May_21_1504,MusicAffectPsychophysiology2019,3.0.5,60.13944955225116,
To what extent did the music make you feel ,ALERT,30MonoWAV/30MonoF3.wav,1,2,2,3,,,,,0,11,11,2,0,2,2,8,,,,,,,,,3,1.668476485996507,,,055,001,2019_May_21_1504,MusicAffectPsychophysiology2019,3.0.5,60.13944955225116,
To what extent did the music make you feel ,FRUSTRATED,30MonoWAV/30MonoF3.wav,1,2,2,3,,,,,0,11,11,2,0,3,3,3,,,,,,,,,1,0.4522622049989877,,,055,001,2019_May_21_1504,MusicAffectPsychophysiology2019,3.0.5,60.13944955225116,
To what extent did the music make you feel ,ANXIOUS ,30MonoWAV/30MonoF3.wav,1,2,2,3,,,,,0,11,11,2,0,4,4,1,,,,,,,,,1,1.1512825440004235,,,055,001,2019_May_21_1504,MusicAffectPsychophysiology2019,3.0.5,60.13944955225116,
To what extent did the music make you feel ,ANGRY,30MonoWAV/30MonoF3.wav,1,2,2,3,,,,,0,11,11,2,0,5,5,2,,,,,,,,,1,0.5179489900037879,,,055,001,2019_May_21_1504,MusicAffectPsychophysiology2019,3.0.5,60.13944955225116,
To what extent did the music make you feel ,ACTIVE,30MonoWAV/30MonoF3.wav,1,2,2,3,,,,,0,11,11,2,0,6,6,9,,,,,,,,,1,0.9350011850037845,,,055,001,2019_May_21_1504,MusicAffectPsychophysiology2019,3.0.5,60.13944955225116,
To what extent did the music make you feel ,SCARED,30MonoWAV/30MonoF3.wav,1,2,2,3,,,,,0,11,11,2,0,7,7,11,,,,,,,,,1,0.8519868809962645,,,055,001,2019_May_21_1504,MusicAffectPsychophysiology2019,3.0.5,60.13944955225116,
To what extent did the music make you feel ,TENDER,30MonoWAV/30MonoF3.wav,1,2,2,3,,,,,0,11,11,2,0,8,8,10,,,,,,,,,1,0.5500609380105743,,,055,001,2019_May_21_1504,MusicAffectPsychophysiology2019,3.0.5,60.13944955225116,
To what extent did the music make you feel ,GUILTY,30MonoWAV/30MonoF3.wav,1,2,2,3,,,,,0,11,11,2,0,9,9,5,,,,,,,,,1,1.0355073059909046,,,055,001,2019_May_21_1504,MusicAffectPsychophysiology2019,3.0.5,60.13944955225116,
To what extent did the music make you feel ,ASHAMED,30MonoWAV/30MonoF3.wav,1,2,2,3,,,,,0,11,11,2,0,10,10,4,,,,,,,,,1,1.1681512759969337,,,055,001,2019_May_21_1504,MusicAffectPsychophysiology2019,3.0.5,60.13944955225116,
To what extent did the music make you feel ,HAPPY,30MonoWAV/30MonoF3.wav,1,2,2,3,,,,,0,11,11,2,0,11,11,6,,,,,,,,,1,0.38383062300272286,,,055,001,2019_May_21_1504,MusicAffectPsychophysiology2019,3.0.5,60.13944955225116,
,,30MonoWAV/30MonoF3.wav,1,2,2,3,,,,,0,11,11,2,,,,,,,,,,,,,,,,,055,001,2019_May_21_1504,MusicAffectPsychophysiology2019,3.0.5,60.13944955225116,
To what extent did the music make you feel ,ALERT,30MonoWAV/30MonoH1.wav,2,2,1,5,,,,,0,12,12,4,0,0,0,8,,,2,3.1547348289896036,4,2.1041425349976635,4,0.8530361650045961,1,1.9365404580021277,,,055,001,2019_May_21_1504,MusicAffectPsychophysiology2019,3.0.5,60.13944955225116,
To what extent did the music make you feel ,ANXIOUS ,30MonoWAV/30MonoH1.wav,2,2,1,5,,,,,0,12,12,4,0,1,1,1,,,,,,,,,1,0.4841216900094878,,,055,001,2019_May_21_1504,MusicAffectPsychophysiology2019,3.0.5,60.13944955225116,
To what extent did the music make you feel ,EXCITED,30MonoWAV/30MonoH1.wav,2,2,1,5,,,,,0,12,12,4,0,2,2,7,,,,,,,,,1,1.4224717239994789,,,055,001,2019_May_21_1504,MusicAffectPsychophysiology2019,3.0.5,60.13944955225116,
To what extent did the music make you feel ,ANGRY,30MonoWAV/30MonoH1.wav,2,2,1,5,,,,,0,12,12,4,0,3,3,2,,,,,,,,,1,0.6680641380080488,,,055,001,2019_May_21_1504,MusicAffectPsychophysiology2019,3.0.5,60.13944955225116,
To what extent did the music make you feel ,GUILTY,30MonoWAV/30MonoH1.wav,2,2,1,5,,,,,0,12,12,4,0,4,4,5,,,,,,,,,1,0.402175940995221,,,055,001,2019_May_21_1504,MusicAffectPsychophysiology2019,3.0.5,60.13944955225116,
To what extent did the music make you feel ,FRUSTRATED,30MonoWAV/30MonoH1.wav,2,2,1,5,,,,,0,12,12,4,0,5,5,3,,,,,,,,,1,1.0176636239921208,,,055,001,2019_May_21_1504,MusicAffectPsychophysiology2019,3.0.5,60.13944955225116,
To what extent did the music make you feel ,HAPPY,30MonoWAV/30MonoH1.wav,2,2,1,5,,,,,0,12,12,4,0,6,6,6,,,,,,,,,3,1.1360917069978314,,,055,001,2019_May_21_1504,MusicAffectPsychophysiology2019,3.0.5,60.13944955225116,
To what extent did the music make you feel ,TENDER,30MonoWAV/30MonoH1.wav,2,2,1,5,,,,,0,12,12,4,0,7,7,10,,,,,,,,,2,1.6503082810086198,,,055,001,2019_May_21_1504,MusicAffectPsychophysiology2019,3.0.5,60.13944955225116,
To what extent did the music make you feel ,ASHAMED,30MonoWAV/30MonoH1.wav,2,2,1,5,,,,,0,12,12,4,0,8,8,4,,,,,,,,,1,0.5846424060000572,,,055,001,2019_May_21_1504,MusicAffectPsychophysiology2019,3.0.5,60.13944955225116,
To what extent did the music make you feel ,SAD,30MonoWAV/30MonoH1.wav,2,2,1,5,,,,,0,12,12,4,0,9,9,0,,,,,,,,,1,0.5057811040023807,,,055,001,2019_May_21_1504,MusicAffectPsychophysiology2019,3.0.5,60.13944955225116,
To what extent did the music make you feel ,ACTIVE,30MonoWAV/30MonoH1.wav,2,2,1,5,,,,,0,12,12,4,0,10,10,9,,,,,,,,,1,0.5032577790116193,,,055,001,2019_May_21_1504,MusicAffectPsychophysiology2019,3.0.5,60.13944955225116,
To what extent did the music make you feel ,SCARED,30MonoWAV/30MonoH1.wav,2,2,1,5,,,,,0,12,12,4,0,11,11,11,,,,,,,,,1,0.5031195850024233,,,055,001,2019_May_21_1504,MusicAffectPsychophysiology2019,3.0.5,60.13944955225116,
,,30MonoWAV/30MonoH1.wav,2,2,1,5,,,,,0,12,12,4,,,,,,,,,,,,,,,,,055,001,2019_May_21_1504,MusicAffectPsychophysiology2019,3.0.5,60.13944955225116,
To what extent did the music make you feel ,ACTIVE,30MonoWAV/30MonoT1.wav,2,1,4,13,,,,,0,13,13,12,0,0,0,9,,,2,7.38519554900995,3,2.2346545000036713,3,1.6510745150008006,1,1.0511131399980513,,,055,001,2019_May_21_1504,MusicAffectPsychophysiology2019,3.0.5,60.13944955225116,
To what extent did the music make you feel ,GUILTY,30MonoWAV/30MonoT1.wav,2,1,4,13,,,,,0,13,13,12,0,1,1,5,,,,,,,,,1,0.4832372660021065,,,055,001,2019_May_21_1504,MusicAffectPsychophysiology2019,3.0.5,60.13944955225116,
To what extent did the music make you feel ,SCARED,30MonoWAV/30MonoT1.wav,2,1,4,13,,,,,0,13,13,12,0,2,2,11,,,,,,,,,1,0.9676472730061505,,,055,001,2019_May_21_1504,MusicAffectPsychophysiology2019,3.0.5,60.13944955225116,
To what extent did the music make you feel ,TENDER,30MonoWAV/30MonoT1.wav,2,1,4,13,,,,,0,13,13,12,0,3,3,10,,,,,,,,,1,0.38510495000809897,,,055,001,2019_May_21_1504,MusicAffectPsychophysiology2019,3.0.5,60.13944955225116,
To what extent did the music make you feel ,ALERT,30MonoWAV/30MonoT1.wav,2,1,4,13,,,,,0,13,13,12,0,4,4,8,,,,,,,,,1,1.6680910930008395,,,055,001,2019_May_21_1504,MusicAffectPsychophysiology2019,3.0.5,60.13944955225116,
To what extent did the music make you feel ,ASHAMED,30MonoWAV/30MonoT1.wav,2,1,4,13,,,,,0,13,13,12,0,5,5,4,,,,,,,,,1,0.49999324799864553,,,055,001,2019_May_21_1504,MusicAffectPsychophysiology2019,3.0.5,60.13944955225116,
To what extent did the music make you feel ,ANGRY,30MonoWAV/30MonoT1.wav,2,1,4,13,,,,,0,13,13,12,0,6,6,2,,,,,,,,,1,0.5523242620110977,,,055,001,2019_May_21_1504,MusicAffectPsychophysiology2019,3.0.5,60.13944955225116,
To what extent did the music make you feel ,ANXIOUS ,30MonoWAV/30MonoT1.wav,2,1,4,13,,,,,0,13,13,12,0,7,7,1,,,,,,,,,1,0.7517311230039923,,,055,001,2019_May_21_1504,MusicAffectPsychophysiology2019,3.0.5,60.13944955225116,
To what extent did the music make you feel ,FRUSTRATED,30MonoWAV/30MonoT1.wav,2,1,4,13,,,,,0,13,13,12,0,8,8,3,,,,,,,,,1,0.5341423960053362,,,055,001,2019_May_21_1504,MusicAffectPsychophysiology2019,3.0.5,60.13944955225116,
To what extent did the music make you feel ,EXCITED,30MonoWAV/30MonoT1.wav,2,1,4,13,,,,,0,13,13,12,0,9,9,7,,,,,,,,,1,1.0354429019935196,,,055,001,2019_May_21_1504,MusicAffectPsychophysiology2019,3.0.5,60.13944955225116,
To what extent did the music make you feel ,SAD,30MonoWAV/30MonoT1.wav,2,1,4,13,,,,,0,13,13,12,0,10,10,0,,,,,,,,,1,0.4686046100105159,,,055,001,2019_May_21_1504,MusicAffectPsychophysiology2019,3.0.5,60.13944955225116,
To what extent did the music make you feel ,HAPPY,30MonoWAV/30MonoT1.wav,2,1,4,13,,,,,0,13,13,12,0,11,11,6,,,,,,,,,2,0.6684051510092104,,,055,001,2019_May_21_1504,MusicAffectPsychophysiology2019,3.0.5,60.13944955225116,
,,30MonoWAV/30MonoT1.wav,2,1,4,13,,,,,0,13,13,12,,,,,,,,,,,,,,,,,055,001,2019_May_21_1504,MusicAffectPsychophysiology2019,3.0.5,60.13944955225116,
To what extent did the music make you feel ,TENDER,30MonoWAV/30MonoS2.wav,1,1,3,10,,,,,0,14,14,9,0,0,0,10,,,1,2.8682132410031045,2,3.10282151598949,4,1.1023179040057585,1,2.183638681002776,,,055,001,2019_May_21_1504,MusicAffectPsychophysiology2019,3.0.5,60.13944955225116,
To what extent did the music make you feel ,SCARED,30MonoWAV/30MonoS2.wav,1,1,3,10,,,,,0,14,14,9,0,1,1,11,,,,,,,,,1,0.635407515001134,,,055,001,2019_May_21_1504,MusicAffectPsychophysiology2019,3.0.5,60.13944955225116,
To what extent did the music make you feel ,HAPPY,30MonoWAV/30MonoS2.wav,1,1,3,10,,,,,0,14,14,9,0,2,2,6,,,,,,,,,1,0.5849064799986081,,,055,001,2019_May_21_1504,MusicAffectPsychophysiology2019,3.0.5,60.13944955225116,
To what extent did the music make you feel ,EXCITED,30MonoWAV/30MonoS2.wav,1,1,3,10,,,,,0,14,14,9,0,3,3,7,,,,,,,,,1,0.5692941460001748,,,055,001,2019_May_21_1504,MusicAffectPsychophysiology2019,3.0.5,60.13944955225116,
To what extent did the music make you feel ,ASHAMED,30MonoWAV/30MonoS2.wav,1,1,3,10,,,,,0,14,14,9,0,4,4,4,,,,,,,,,1,0.8678641199949197,,,055,001,2019_May_21_1504,MusicAffectPsychophysiology2019,3.0.5,60.13944955225116,
To what extent did the music make you feel ,ANGRY,30MonoWAV/30MonoS2.wav,1,1,3,10,,,,,0,14,14,9,0,5,5,2,,,,,,,,,1,0.4859706530114636,,,055,001,2019_May_21_1504,MusicAffectPsychophysiology2019,3.0.5,60.13944955225116,
To what extent did the music make you feel ,SAD,30MonoWAV/30MonoS2.wav,1,1,3,10,,,,,0,14,14,9,0,6,6,0,,,,,,,,,3,1.5347561119997408,,,055,001,2019_May_21_1504,MusicAffectPsychophysiology2019,3.0.5,60.13944955225116,
To what extent did the music make you feel ,ANXIOUS ,30MonoWAV/30MonoS2.wav,1,1,3,10,,,,,0,14,14,9,0,7,7,1,,,,,,,,,1,0.835214362014085,,,055,001,2019_May_21_1504,MusicAffectPsychophysiology2019,3.0.5,60.13944955225116,
To what extent did the music make you feel ,FRUSTRATED,30MonoWAV/30MonoS2.wav,1,1,3,10,,,,,0,14,14,9,0,8,8,3,,,,,,,,,1,0.3180287589930231,,,055,001,2019_May_21_1504,MusicAffectPsychophysiology2019,3.0.5,60.13944955225116,
To what extent did the music make you feel ,GUILTY,30MonoWAV/30MonoS2.wav,1,1,3,10,,,,,0,14,14,9,0,9,9,5,,,,,,,,,1,0.5840114270104095,,,055,001,2019_May_21_1504,MusicAffectPsychophysiology2019,3.0.5,60.13944955225116,
To what extent did the music make you feel ,ALERT,30MonoWAV/30MonoS2.wav,1,1,3,10,,,,,0,14,14,9,0,10,10,8,,,,,,,,,1,0.30145351799728815,,,055,001,2019_May_21_1504,MusicAffectPsychophysiology2019,3.0.5,60.13944955225116,
To what extent did the music make you feel ,ACTIVE,30MonoWAV/30MonoS2.wav,1,1,3,10,,,,,0,14,14,9,0,11,11,9,,,,,,,,,1,0.7852756649954244,,,055,001,2019_May_21_1504,MusicAffectPsychophysiology2019,3.0.5,60.13944955225116,
,,30MonoWAV/30MonoS2.wav,1,1,3,10,,,,,0,14,14,9,,,,,,,,,,,,,,,,,055,001,2019_May_21_1504,MusicAffectPsychophysiology2019,3.0.5,60.13944955225116,
To what extent did the music make you feel ,SAD,30MonoWAV/30MonoS1.wav,1,1,3,9,,,,,0,15,15,8,0,0,0,0,,,1,4.001594617002411,1,1.968731831992045,2,1.8683546239917632,2,1.3857121429900872,,,055,001,2019_May_21_1504,MusicAffectPsychophysiology2019,3.0.5,60.13944955225116,
To what extent did the music make you feel ,SCARED,30MonoWAV/30MonoS1.wav,1,1,3,9,,,,,0,15,15,8,0,1,1,11,,,,,,,,,1,1.4359834180067992,,,055,001,2019_May_21_1504,MusicAffectPsychophysiology2019,3.0.5,60.13944955225116,
To what extent did the music make you feel ,ANXIOUS ,30MonoWAV/30MonoS1.wav,1,1,3,9,,,,,0,15,15,8,0,2,2,1,,,,,,,,,1,0.8511130840051919,,,055,001,2019_May_21_1504,MusicAffectPsychophysiology2019,3.0.5,60.13944955225116,
To what extent did the music make you feel ,FRUSTRATED,30MonoWAV/30MonoS1.wav,1,1,3,9,,,,,0,15,15,8,0,3,3,3,,,,,,,,,1,0.40221345199097414,,,055,001,2019_May_21_1504,MusicAffectPsychophysiology2019,3.0.5,60.13944955225116,
To what extent did the music make you feel ,HAPPY,30MonoWAV/30MonoS1.wav,1,1,3,9,,,,,0,15,15,8,0,4,4,6,,,,,,,,,1,0.5181647149875062,,,055,001,2019_May_21_1504,MusicAffectPsychophysiology2019,3.0.5,60.13944955225116,
To what extent did the music make you feel ,TENDER,30MonoWAV/30MonoS1.wav,1,1,3,9,,,,,0,15,15,8,0,5,5,10,,,,,,,,,1,0.5010872959974222,,,055,001,2019_May_21_1504,MusicAffectPsychophysiology2019,3.0.5,60.13944955225116,
To what extent did the music make you feel ,ALERT,30MonoWAV/30MonoS1.wav,1,1,3,9,,,,,0,15,15,8,0,6,6,8,,,,,,,,,1,0.56753661899711,,,055,001,2019_May_21_1504,MusicAffectPsychophysiology2019,3.0.5,60.13944955225116,
To what extent did the music make you feel ,ANGRY,30MonoWAV/30MonoS1.wav,1,1,3,9,,,,,0,15,15,8,0,7,7,2,,,,,,,,,1,0.35265081700345036,,,055,001,2019_May_21_1504,MusicAffectPsychophysiology2019,3.0.5,60.13944955225116,
To what extent did the music make you feel ,EXCITED,30MonoWAV/30MonoS1.wav,1,1,3,9,,,,,0,15,15,8,0,8,8,7,,,,,,,,,1,0.4023420480079949,,,055,001,2019_May_21_1504,MusicAffectPsychophysiology2019,3.0.5,60.13944955225116,
To what extent did the music make you feel ,GUILTY,30MonoWAV/30MonoS1.wav,1,1,3,9,,,,,0,15,15,8,0,9,9,5,,,,,,,,,1,1.2678692679910455,,,055,001,2019_May_21_1504,MusicAffectPsychophysiology2019,3.0.5,60.13944955225116,
To what extent did the music make you feel ,ASHAMED,30MonoWAV/30MonoS1.wav,1,1,3,9,,,,,0,15,15,8,0,10,10,4,,,,,,,,,1,0.8522522000130266,,,055,001,2019_May_21_1504,MusicAffectPsychophysiology2019,3.0.5,60.13944955225116,
To what extent did the music make you feel ,ACTIVE,30MonoWAV/30MonoS1.wav,1,1,3,9,,,,,0,15,15,8,0,11,11,9,,,,,,,,,1,0.302328549005324,,,055,001,2019_May_21_1504,MusicAffectPsychophysiology2019,3.0.5,60.13944955225116,
,,30MonoWAV/30MonoS1.wav,1,1,3,9,,,,,0,15,15,8,,,,,,,,,,,,,,,,,055,001,2019_May_21_1504,MusicAffectPsychophysiology2019,3.0.5,60.13944955225116,
To what extent did the music make you feel ,ASHAMED,30MonoWAV/30MonoF3.wav,1,2,2,3,,,,,1,0,16,2,0,0,0,4,,,1,3.802313676002086,1,0.8838938029948622,1,0.9179831769870361,1,1.2186954610078828,,,055,001,2019_May_21_1504,MusicAffectPsychophysiology2019,3.0.5,60.13944955225116,
To what extent did the music make you feel ,ANGRY,30MonoWAV/30MonoF3.wav,1,2,2,3,,,,,1,0,16,2,0,1,1,2,,,,,,,,,1,0.6183183880057186,,,055,001,2019_May_21_1504,MusicAffectPsychophysiology2019,3.0.5,60.13944955225116,
To what extent did the music make you feel ,SCARED,30MonoWAV/30MonoF3.wav,1,2,2,3,,,,,1,0,16,2,0,2,2,11,,,,,,,,,2,0.8181647990131751,,,055,001,2019_May_21_1504,MusicAffectPsychophysiology2019,3.0.5,60.13944955225116,
To what extent did the music make you feel ,ACTIVE,30MonoWAV/30MonoF3.wav,1,2,2,3,,,,,1,0,16,2,0,3,3,9,,,,,,,,,1,0.7182615860074293,,,055,001,2019_May_21_1504,MusicAffectPsychophysiology2019,3.0.5,60.13944955225116,
To what extent did the music make you feel ,TENDER,30MonoWAV/30MonoF3.wav,1,2,2,3,,,,,1,0,16,2,0,4,4,10,,,,,,,,,1,0.41804593399865553,,,055,001,2019_May_21_1504,MusicAffectPsychophysiology2019,3.0.5,60.13944955225116,
To what extent did the music make you feel ,FRUSTRATED,30MonoWAV/30MonoF3.wav,1,2,2,3,,,,,1,0,16,2,0,5,5,3,,,,,,,,,1,1.3049250669864705,,,055,001,2019_May_21_1504,MusicAffectPsychophysiology2019,3.0.5,60.13944955225116,
To what extent did the music make you feel ,EXCITED,30MonoWAV/30MonoF3.wav,1,2,2,3,,,,,1,0,16,2,0,6,6,7,,,,,,,,,1,0.4019374240015168,,,055,001,2019_May_21_1504,MusicAffectPsychophysiology2019,3.0.5,60.13944955225116,
To what extent did the music make you feel ,HAPPY,30MonoWAV/30MonoF3.wav,1,2,2,3,,,,,1,0,16,2,0,7,7,6,,,,,,,,,1,0.8025398190075066,,,055,001,2019_May_21_1504,MusicAffectPsychophysiology2019,3.0.5,60.13944955225116,
To what extent did the music make you feel ,ANXIOUS ,30MonoWAV/30MonoF3.wav,1,2,2,3,,,,,1,0,16,2,0,8,8,1,,,,,,,,,2,0.5024771310127107,,,055,001,2019_May_21_1504,MusicAffectPsychophysiology2019,3.0.5,60.13944955225116,
To what extent did the music make you feel ,SAD,30MonoWAV/30MonoF3.wav,1,2,2,3,,,,,1,0,16,2,0,9,9,0,,,,,,,,,1,0.35308145098679233,,,055,001,2019_May_21_1504,MusicAffectPsychophysiology2019,3.0.5,60.13944955225116,
To what extent did the music make you feel ,GUILTY,30MonoWAV/30MonoF3.wav,1,2,2,3,,,,,1,0,16,2,0,10,10,5,,,,,,,,,1,0.3014155290002236,,,055,001,2019_May_21_1504,MusicAffectPsychophysiology2019,3.0.5,60.13944955225116,
To what extent did the music make you feel ,ALERT,30MonoWAV/30MonoF3.wav,1,2,2,3,,,,,1,0,16,2,0,11,11,8,,,,,,,,,1,0.31820497299486306,,,055,001,2019_May_21_1504,MusicAffectPsychophysiology2019,3.0.5,60.13944955225116,
,,30MonoWAV/30MonoF3.wav,1,2,2,3,,,,,1,0,16,2,,,,,,,,,,,,,,,,,055,001,2019_May_21_1504,MusicAffectPsychophysiology2019,3.0.5,60.13944955225116,
To what extent did the music make you feel ,EXCITED,30MonoWAV/30MonoT1.wav,2,1,4,13,,,,,1,1,17,12,0,0,0,7,,,1,3.2558500910090515,2,1.8352048920060042,3,0.835430646999157,1,1.0189459639950655,,,055,001,2019_May_21_1504,MusicAffectPsychophysiology2019,3.0.5,60.13944955225116,
To what extent did the music make you feel ,FRUSTRATED,30MonoWAV/30MonoT1.wav,2,1,4,13,,,,,1,1,17,12,0,1,1,3,,,,,,,,,1,0.4848090160085121,,,055,001,2019_May_21_1504,MusicAffectPsychophysiology2019,3.0.5,60.13944955225116,
To what extent did the music make you feel ,GUILTY,30MonoWAV/30MonoT1.wav,2,1,4,13,,,,,1,1,17,12,0,2,2,5,,,,,,,,,1,0.46856957901036367,,,055,001,2019_May_21_1504,MusicAffectPsychophysiology2019,3.0.5,60.13944955225116,
To what extent did the music make you feel ,SCARED,30MonoWAV/30MonoT1.wav,2,1,4,13,,,,,1,1,17,12,0,3,3,11,,,,,,,,,1,0.8184813770058099,,,055,001,2019_May_21_1504,MusicAffectPsychophysiology2019,3.0.5,60.13944955225116,
To what extent did the music make you feel ,ANXIOUS ,30MonoWAV/30MonoT1.wav,2,1,4,13,,,,,1,1,17,12,0,4,4,1,,,,,,,,,1,0.6683861519995844,,,055,001,2019_May_21_1504,MusicAffectPsychophysiology2019,3.0.5,60.13944955225116,
To what extent did the music make you feel ,ALERT,30MonoWAV/30MonoT1.wav,2,1,4,13,,,,,1,1,17,12,0,5,5,8,,,,,,,,,1,0.8846721360023366,,,055,001,2019_May_21_1504,MusicAffectPsychophysiology2019,3.0.5,60.13944955225116,
To what extent did the music make you feel ,HAPPY,30MonoWAV/30MonoT1.wav,2,1,4,13,,,,,1,1,17,12,0,6,6,6,,,,,,,,,2,0.835027760011144,,,055,001,2019_May_21_1504,MusicAffectPsychophysiology2019,3.0.5,60.13944955225116,
To what extent did the music make you feel ,ANGRY,30MonoWAV/30MonoT1.wav,2,1,4,13,,,,,1,1,17,12,0,7,7,2,,,,,,,,,1,0.5360723659978248,,,055,001,2019_May_21_1504,MusicAffectPsychophysiology2019,3.0.5,60.13944955225116,
To what extent did the music make you feel ,ASHAMED,30MonoWAV/30MonoT1.wav,2,1,4,13,,,,,1,1,17,12,0,8,8,4,,,,,,,,,1,0.41860560000350233,,,055,001,2019_May_21_1504,MusicAffectPsychophysiology2019,3.0.5,60.13944955225116,
To what extent did the music make you feel ,TENDER,30MonoWAV/30MonoT1.wav,2,1,4,13,,,,,1,1,17,12,0,9,9,10,,,,,,,,,1,1.3014581079914933,,,055,001,2019_May_21_1504,MusicAffectPsychophysiology2019,3.0.5,60.13944955225116,
To what extent did the music make you feel ,SAD,30MonoWAV/30MonoT1.wav,2,1,4,13,,,,,1,1,17,12,0,10,10,0,,,,,,,,,1,0.4182005860056961,,,055,001,2019_May_21_1504,MusicAffectPsychophysiology2019,3.0.5,60.13944955225116,
To what extent did the music make you feel ,ACTIVE,30MonoWAV/30MonoT1.wav,2,1,4,13,,,,,1,1,17,12,0,11,11,9,,,,,,,,,1,0.7840027409984032,,,055,001,2019_May_21_1504,MusicAffectPsychophysiology2019,3.0.5,60.13944955225116,
,,30MonoWAV/30MonoT1.wav,2,1,4,13,,,,,1,1,17,12,,,,,,,,,,,,,,,,,055,001,2019_May_21_1504,MusicAffectPsychophysiology2019,3.0.5,60.13944955225116,
To what extent did the music make you feel ,ANXIOUS ,30MonoWAV/30MonoF4.wav,1,2,2,4,,,,,1,2,18,3,0,0,0,1,,,2,2.6680720259901136,1,0.8332912939949892,1,0.8520296399947256,1,1.368198570999084,,,055,001,2019_May_21_1504,MusicAffectPsychophysiology2019,3.0.5,60.13944955225116,
To what extent did the music make you feel ,ALERT,30MonoWAV/30MonoF4.wav,1,2,2,4,,,,,1,2,18,3,0,1,1,8,,,,,,,,,2,2.5672740139998496,,,055,001,2019_May_21_1504,MusicAffectPsychophysiology2019,3.0.5,60.13944955225116,
To what extent did the music make you feel ,ANGRY,30MonoWAV/30MonoF4.wav,1,2,2,4,,,,,1,2,18,3,0,2,2,2,,,,,,,,,1,0.5020314839930506,,,055,001,2019_May_21_1504,MusicAffectPsychophysiology2019,3.0.5,60.13944955225116,
To what extent did the music make you feel ,HAPPY,30MonoWAV/30MonoF4.wav,1,2,2,4,,,,,1,2,18,3,0,3,3,6,,,,,,,,,1,0.45037874999979977,,,055,001,2019_May_21_1504,MusicAffectPsychophysiology2019,3.0.5,60.13944955225116,
To what extent did the music make you feel ,FRUSTRATED,30MonoWAV/30MonoF4.wav,1,2,2,4,,,,,1,2,18,3,0,4,4,3,,,,,,,,,1,0.6355752189992927,,,055,001,2019_May_21_1504,MusicAffectPsychophysiology2019,3.0.5,60.13944955225116,
To what extent did the music make you feel ,EXCITED,30MonoWAV/30MonoF4.wav,1,2,2,4,,,,,1,2,18,3,0,5,5,7,,,,,,,,,1,0.36826845799805596,,,055,001,2019_May_21_1504,MusicAffectPsychophysiology2019,3.0.5,60.13944955225116,
To what extent did the music make you feel ,SCARED,30MonoWAV/30MonoF4.wav,1,2,2,4,,,,,1,2,18,3,0,6,6,11,,,,,,,,,1,1.000176614994416,,,055,001,2019_May_21_1504,MusicAffectPsychophysiology2019,3.0.5,60.13944955225116,
To what extent did the music make you feel ,SAD,30MonoWAV/30MonoF4.wav,1,2,2,4,,,,,1,2,18,3,0,7,7,0,,,,,,,,,1,0.7022955310094403,,,055,001,2019_May_21_1504,MusicAffectPsychophysiology2019,3.0.5,60.13944955225116,
To what extent did the music make you feel ,GUILTY,30MonoWAV/30MonoF4.wav,1,2,2,4,,,,,1,2,18,3,0,8,8,5,,,,,,,,,1,0.6016228420048719,,,055,001,2019_May_21_1504,MusicAffectPsychophysiology2019,3.0.5,60.13944955225116,
To what extent did the music make you feel ,TENDER,30MonoWAV/30MonoF4.wav,1,2,2,4,,,,,1,2,18,3,0,9,9,10,,,,,,,,,1,0.7021068519970868,,,055,001,2019_May_21_1504,MusicAffectPsychophysiology2019,3.0.5,60.13944955225116,
To what extent did the music make you feel ,ASHAMED,30MonoWAV/30MonoF4.wav,1,2,2,4,,,,,1,2,18,3,0,10,10,4,,,,,,,,,1,0.5681546190025983,,,055,001,2019_May_21_1504,MusicAffectPsychophysiology2019,3.0.5,60.13944955225116,
To what extent did the music make you feel ,ACTIVE,30MonoWAV/30MonoF4.wav,1,2,2,4,,,,,1,2,18,3,0,11,11,9,,,,,,,,,1,0.40209874798892997,,,055,001,2019_May_21_1504,MusicAffectPsychophysiology2019,3.0.5,60.13944955225116,
,,30MonoWAV/30MonoF4.wav,1,2,2,4,,,,,1,2,18,3,,,,,,,,,,,,,,,,,055,001,2019_May_21_1504,MusicAffectPsychophysiology2019,3.0.5,60.13944955225116,
To what extent did the music make you feel ,SAD,30MonoWAV/30MonoF2.wav,1,2,2,2,,,,,1,3,19,1,0,0,0,0,,,1,3.601011485006893,1,0.8352129669947317,1,1.2183884839905659,1,1.0340327769954456,,,055,001,2019_May_21_1504,MusicAffectPsychophysiology2019,3.0.5,60.13944955225116,
To what extent did the music make you feel ,HAPPY,30MonoWAV/30MonoF2.wav,1,2,2,2,,,,,1,3,19,1,0,1,1,6,,,,,,,,,1,0.5523571219964651,,,055,001,2019_May_21_1504,MusicAffectPsychophysiology2019,3.0.5,60.13944955225116,
To what extent did the music make you feel ,ASHAMED,30MonoWAV/30MonoF2.wav,1,2,2,2,,,,,1,3,19,1,0,2,2,4,,,,,,,,,1,0.5015434870001627,,,055,001,2019_May_21_1504,MusicAffectPsychophysiology2019,3.0.5,60.13944955225116,
To what extent did the music make you feel ,FRUSTRATED,30MonoWAV/30MonoF2.wav,1,2,2,2,,,,,1,3,19,1,0,3,3,3,,,,,,,,,1,1.0020079980022274,,,055,001,2019_May_21_1504,MusicAffectPsychophysiology2019,3.0.5,60.13944955225116,
To what extent did the music make you feel ,ACTIVE,30MonoWAV/30MonoF2.wav,1,2,2,2,,,,,1,3,19,1,0,4,4,9,,,,,,,,,1,0.46867292099341284,,,055,001,2019_May_21_1504,MusicAffectPsychophysiology2019,3.0.5,60.13944955225116,
To what extent did the music make you feel ,ALERT,30MonoWAV/30MonoF2.wav,1,2,2,2,,,,,1,3,19,1,0,5,5,8,,,,,,,,,1,0.4179230969893979,,,055,001,2019_May_21_1504,MusicAffectPsychophysiology2019,3.0.5,60.13944955225116,
To what extent did the music make you feel ,TENDER,30MonoWAV/30MonoF2.wav,1,2,2,2,,,,,1,3,19,1,0,6,6,10,,,,,,,,,1,0.5889946980023524,,,055,001,2019_May_21_1504,MusicAffectPsychophysiology2019,3.0.5,60.13944955225116,
To what extent did the music make you feel ,SCARED,30MonoWAV/30MonoF2.wav,1,2,2,2,,,,,1,3,19,1,0,7,7,11,,,,,,,,,2,0.9866475210001227,,,055,001,2019_May_21_1504,MusicAffectPsychophysiology2019,3.0.5,60.13944955225116,
To what extent did the music make you feel ,ANXIOUS ,30MonoWAV/30MonoF2.wav,1,2,2,2,,,,,1,3,19,1,0,8,8,1,,,,,,,,,2,1.1356802509981208,,,055,001,2019_May_21_1504,MusicAffectPsychophysiology2019,3.0.5,60.13944955225116,
To what extent did the music make you feel ,ANGRY,30MonoWAV/30MonoF2.wav,1,2,2,2,,,,,1,3,19,1,0,9,9,2,,,,,,,,,1,0.535343940005987,,,055,001,2019_May_21_1504,MusicAffectPsychophysiology2019,3.0.5,60.13944955225116,
To what extent did the music make you feel ,EXCITED,30MonoWAV/30MonoF2.wav,1,2,2,2,,,,,1,3,19,1,0,10,10,7,,,,,,,,,1,0.46929776400793344,,,055,001,2019_May_21_1504,MusicAffectPsychophysiology2019,3.0.5,60.13944955225116,
To what extent did the music make you feel ,GUILTY,30MonoWAV/30MonoF2.wav,1,2,2,2,,,,,1,3,19,1,0,11,11,5,,,,,,,,,1,0.669135465999716,,,055,001,2019_May_21_1504,MusicAffectPsychophysiology2019,3.0.5,60.13944955225116,
,,30MonoWAV/30MonoF2.wav,1,2,2,2,,,,,1,3,19,1,,,,,,,,,,,,,,,,,055,001,2019_May_21_1504,MusicAffectPsychophysiology2019,3.0.5,60.13944955225116,
To what extent did the music make you feel ,TENDER,30MonoWAV/30MonoH1.wav,2,2,1,5,,,,,1,4,20,4,0,0,0,10,,,2,3.3338681909954175,3,1.3531959160027327,4,0.8189585759973852,2,1.7503150020056637,,,055,001,2019_May_21_1504,MusicAffectPsychophysiology2019,3.0.5,60.13944955225116,
To what extent did the music make you feel ,ACTIVE,30MonoWAV/30MonoH1.wav,2,2,1,5,,,,,1,4,20,4,0,1,1,9,,,,,,,,,1,1.1347713680006564,,,055,001,2019_May_21_1504,MusicAffectPsychophysiology2019,3.0.5,60.13944955225116,
To what extent did the music make you feel ,ASHAMED,30MonoWAV/30MonoH1.wav,2,2,1,5,,,,,1,4,20,4,0,2,2,4,,,,,,,,,1,0.4187600370059954,,,055,001,2019_May_21_1504,MusicAffectPsychophysiology2019,3.0.5,60.13944955225116,
To what extent did the music make you feel ,EXCITED,30MonoWAV/30MonoH1.wav,2,2,1,5,,,,,1,4,20,4,0,3,3,7,,,,,,,,,1,0.7526616679970175,,,055,001,2019_May_21_1504,MusicAffectPsychophysiology2019,3.0.5,60.13944955225116,
To what extent did the music make you feel ,HAPPY,30MonoWAV/30MonoH1.wav,2,2,1,5,,,,,1,4,20,4,0,4,4,6,,,,,,,,,3,1.1026340539974626,,,055,001,2019_May_21_1504,MusicAffectPsychophysiology2019,3.0.5,60.13944955225116,
To what extent did the music make you feel ,GUILTY,30MonoWAV/30MonoH1.wav,2,2,1,5,,,,,1,4,20,4,0,5,5,5,,,,,,,,,1,0.41906443500192836,,,055,001,2019_May_21_1504,MusicAffectPsychophysiology2019,3.0.5,60.13944955225116,
To what extent did the music make you feel ,ANGRY,30MonoWAV/30MonoH1.wav,2,2,1,5,,,,,1,4,20,4,0,6,6,2,,,,,,,,,1,0.5347621490072925,,,055,001,2019_May_21_1504,MusicAffectPsychophysiology2019,3.0.5,60.13944955225116,
To what extent did the music make you feel ,FRUSTRATED,30MonoWAV/30MonoH1.wav,2,2,1,5,,,,,1,4,20,4,0,7,7,3,,,,,,,,,1,0.6016090719931526,,,055,001,2019_May_21_1504,MusicAffectPsychophysiology2019,3.0.5,60.13944955225116,
To what extent did the music make you feel ,SAD,30MonoWAV/30MonoH1.wav,2,2,1,5,,,,,1,4,20,4,0,8,8,0,,,,,,,,,1,0.45101080599124543,,,055,001,2019_May_21_1504,MusicAffectPsychophysiology2019,3.0.5,60.13944955225116,
To what extent did the music make you feel ,ALERT,30MonoWAV/30MonoH1.wav,2,2,1,5,,,,,1,4,20,4,0,9,9,8,,,,,,,,,1,0.8683711480116472,,,055,001,2019_May_21_1504,MusicAffectPsychophysiology2019,3.0.5,60.13944955225116,
To what extent did the music make you feel ,SCARED,30MonoWAV/30MonoH1.wav,2,2,1,5,,,,,1,4,20,4,0,10,10,11,,,,,,,,,1,0.4359468559996458,,,055,001,2019_May_21_1504,MusicAffectPsychophysiology2019,3.0.5,60.13944955225116,
To what extent did the music make you feel ,ANXIOUS ,30MonoWAV/30MonoH1.wav,2,2,1,5,,,,,1,4,20,4,0,11,11,1,,,,,,,,,1,0.5691910360037582,,,055,001,2019_May_21_1504,MusicAffectPsychophysiology2019,3.0.5,60.13944955225116,
,,30MonoWAV/30MonoH1.wav,2,2,1,5,,,,,1,4,20,4,,,,,,,,,,,,,,,,,055,001,2019_May_21_1504,MusicAffectPsychophysiology2019,3.0.5,60.13944955225116,
To what extent did the music make you feel ,SAD,30MonoWAV/30MonoF1.wav,1,2,2,1,,,,,1,5,21,0,0,0,0,0,,,1,3.918131276004715,1,1.2686148789944127,1,2.1352583419939037,1,1.1335676849994343,,,055,001,2019_May_21_1504,MusicAffectPsychophysiology2019,3.0.5,60.13944955225116,
To what extent did the music make you feel ,GUILTY,30MonoWAV/30MonoF1.wav,1,2,2,1,,,,,1,5,21,0,0,1,1,5,,,,,,,,,1,0.4687364770070417,,,055,001,2019_May_21_1504,MusicAffectPsychophysiology2019,3.0.5,60.13944955225116,
To what extent did the music make you feel ,FRUSTRATED,30MonoWAV/30MonoF1.wav,1,2,2,1,,,,,1,5,21,0,0,2,2,3,,,,,,,,,1,0.4504687419976108,,,055,001,2019_May_21_1504,MusicAffectPsychophysiology2019,3.0.5,60.13944955225116,
To what extent did the music make you feel ,HAPPY,30MonoWAV/30MonoF1.wav,1,2,2,1,,,,,1,5,21,0,0,3,3,6,,,,,,,,,1,0.8843100219964981,,,055,001,2019_May_21_1504,MusicAffectPsychophysiology2019,3.0.5,60.13944955225116,
To what extent did the music make you feel ,EXCITED,30MonoWAV/30MonoF1.wav,1,2,2,1,,,,,1,5,21,0,0,4,4,7,,,,,,,,,1,0.3861154899932444,,,055,001,2019_May_21_1504,MusicAffectPsychophysiology2019,3.0.5,60.13944955225116,
To what extent did the music make you feel ,ANGRY,30MonoWAV/30MonoF1.wav,1,2,2,1,,,,,1,5,21,0,0,5,5,2,,,,,,,,,1,0.3849252209911356,,,055,001,2019_May_21_1504,MusicAffectPsychophysiology2019,3.0.5,60.13944955225116,
To what extent did the music make you feel ,ANXIOUS ,30MonoWAV/30MonoF1.wav,1,2,2,1,,,,,1,5,21,0,0,6,6,1,,,,,,,,,1,0.6525012139900355,,,055,001,2019_May_21_1504,MusicAffectPsychophysiology2019,3.0.5,60.13944955225116,
To what extent did the music make you feel ,SCARED,30MonoWAV/30MonoF1.wav,1,2,2,1,,,,,1,5,21,0,0,7,7,11,,,,,,,,,1,0.4855459589889506,,,055,001,2019_May_21_1504,MusicAffectPsychophysiology2019,3.0.5,60.13944955225116,
To what extent did the music make you feel ,TENDER,30MonoWAV/30MonoF1.wav,1,2,2,1,,,,,1,5,21,0,0,8,8,10,,,,,,,,,1,0.7185641039977781,,,055,001,2019_May_21_1504,MusicAffectPsychophysiology2019,3.0.5,60.13944955225116,
To what extent did the music make you feel ,ASHAMED,30MonoWAV/30MonoF1.wav,1,2,2,1,,,,,1,5,21,0,0,9,9,4,,,,,,,,,1,0.6022115639934782,,,055,001,2019_May_21_1504,MusicAffectPsychophysiology2019,3.0.5,60.13944955225116,
To what extent did the music make you feel ,ACTIVE,30MonoWAV/30MonoF1.wav,1,2,2,1,,,,,1,5,21,0,0,10,10,9,,,,,,,,,1,0.6687163630122086,,,055,001,2019_May_21_1504,MusicAffectPsychophysiology2019,3.0.5,60.13944955225116,
To what extent did the music make you feel ,ALERT,30MonoWAV/30MonoF1.wav,1,2,2,1,,,,,1,5,21,0,0,11,11,8,,,,,,,,,2,0.5520589209918398,,,055,001,2019_May_21_1504,MusicAffectPsychophysiology2019,3.0.5,60.13944955225116,
,,30MonoWAV/30MonoF1.wav,1,2,2,1,,,,,1,5,21,0,,,,,,,,,,,,,,,,,055,001,2019_May_21_1504,MusicAffectPsychophysiology2019,3.0.5,60.13944955225116,
To what extent did the music make you feel ,TENDER,30MonoWAV/30MonoH2.wav,2,2,1,6,,,,,1,6,22,5,0,0,0,10,,,1,3.2745073849946493,1,0.9685831039969344,1,0.7016592810105067,1,0.8201235730084591,,,055,001,2019_May_21_1504,MusicAffectPsychophysiology2019,3.0.5,60.13944955225116,
To what extent did the music make you feel ,ANGRY,30MonoWAV/30MonoH2.wav,2,2,1,6,,,,,1,6,22,5,0,1,1,2,,,,,,,,,1,0.7187007539905608,,,055,001,2019_May_21_1504,MusicAffectPsychophysiology2019,3.0.5,60.13944955225116,
To what extent did the music make you feel ,EXCITED,30MonoWAV/30MonoH2.wav,2,2,1,6,,,,,1,6,22,5,0,2,2,7,,,,,,,,,2,2.401956658999552,,,055,001,2019_May_21_1504,MusicAffectPsychophysiology2019,3.0.5,60.13944955225116,
To what extent did the music make you feel ,ASHAMED,30MonoWAV/30MonoH2.wav,2,2,1,6,,,,,1,6,22,5,0,3,3,4,,,,,,,,,1,0.2833786129922373,,,055,001,2019_May_21_1504,MusicAffectPsychophysiology2019,3.0.5,60.13944955225116,
To what extent did the music make you feel ,SAD,30MonoWAV/30MonoH2.wav,2,2,1,6,,,,,1,6,22,5,0,4,4,0,,,,,,,,,1,0.519068502006121,,,055,001,2019_May_21_1504,MusicAffectPsychophysiology2019,3.0.5,60.13944955225116,
To what extent did the music make you feel ,ACTIVE,30MonoWAV/30MonoH2.wav,2,2,1,6,,,,,1,6,22,5,0,5,5,9,,,,,,,,,1,0.051497456996003166,,,055,001,2019_May_21_1504,MusicAffectPsychophysiology2019,3.0.5,60.13944955225116,
To what extent did the music make you feel ,ANXIOUS ,30MonoWAV/30MonoH2.wav,2,2,1,6,,,,,1,6,22,5,0,6,6,1,,,,,,,,,1,1.1853167840017704,,,055,001,2019_May_21_1504,MusicAffectPsychophysiology2019,3.0.5,60.13944955225116,
To what extent did the music make you feel ,FRUSTRATED,30MonoWAV/30MonoH2.wav,2,2,1,6,,,,,1,6,22,5,0,7,7,3,,,,,,,,,1,1.1694658829947002,,,055,001,2019_May_21_1504,MusicAffectPsychophysiology2019,3.0.5,60.13944955225116,
To what extent did the music make you feel ,SCARED,30MonoWAV/30MonoH2.wav,2,2,1,6,,,,,1,6,22,5,0,8,8,11,,,,,,,,,1,0.4183545009873342,,,055,001,2019_May_21_1504,MusicAffectPsychophysiology2019,3.0.5,60.13944955225116,
To what extent did the music make you feel ,HAPPY,30MonoWAV/30MonoH2.wav,2,2,1,6,,,,,1,6,22,5,0,9,9,6,,,,,,,,,1,0.9002747010090388,,,055,001,2019_May_21_1504,MusicAffectPsychophysiology2019,3.0.5,60.13944955225116,
To what extent did the music make you feel ,GUILTY,30MonoWAV/30MonoH2.wav,2,2,1,6,,,,,1,6,22,5,0,10,10,5,,,,,,,,,1,0.7341424129990628,,,055,001,2019_May_21_1504,MusicAffectPsychophysiology2019,3.0.5,60.13944955225116,
To what extent did the music make you feel ,ALERT,30MonoWAV/30MonoH2.wav,2,2,1,6,,,,,1,6,22,5,0,11,11,8,,,,,,,,,1,1.2994520840002224,,,055,001,2019_May_21_1504,MusicAffectPsychophysiology2019,3.0.5,60.13944955225116,
,,30MonoWAV/30MonoH2.wav,2,2,1,6,,,,,1,6,22,5,,,,,,,,,,,,,,,,,055,001,2019_May_21_1504,MusicAffectPsychophysiology2019,3.0.5,60.13944955225116,
To what extent did the music make you feel ,HAPPY,30MonoWAV/30MonoS4.wav,1,1,3,12,,,,,1,7,23,11,0,0,0,6,,,1,3.5016364639886888,2,1.7180711179971695,4,1.4682157229981385,1,1.901966324003297,,,055,001,2019_May_21_1504,MusicAffectPsychophysiology2019,3.0.5,60.13944955225116,
To what extent did the music make you feel ,ANXIOUS ,30MonoWAV/30MonoS4.wav,1,1,3,12,,,,,1,7,23,11,0,1,1,1,,,,,,,,,1,0.8856124029989587,,,055,001,2019_May_21_1504,MusicAffectPsychophysiology2019,3.0.5,60.13944955225116,
To what extent did the music make you feel ,ALERT,30MonoWAV/30MonoS4.wav,1,1,3,12,,,,,1,7,23,11,0,2,2,8,,,,,,,,,1,0.4513458930014167,,,055,001,2019_May_21_1504,MusicAffectPsychophysiology2019,3.0.5,60.13944955225116,
To what extent did the music make you feel ,ASHAMED,30MonoWAV/30MonoS4.wav,1,1,3,12,,,,,1,7,23,11,0,3,3,4,,,,,,,,,1,0.48339252700679936,,,055,001,2019_May_21_1504,MusicAffectPsychophysiology2019,3.0.5,60.13944955225116,
To what extent did the music make you feel ,EXCITED,30MonoWAV/30MonoS4.wav,1,1,3,12,,,,,1,7,23,11,0,4,4,7,,,,,,,,,1,0.5522442880028393,,,055,001,2019_May_21_1504,MusicAffectPsychophysiology2019,3.0.5,60.13944955225116,
To what extent did the music make you feel ,FRUSTRATED,30MonoWAV/30MonoS4.wav,1,1,3,12,,,,,1,7,23,11,0,5,5,3,,,,,,,,,1,0.4515699869953096,,,055,001,2019_May_21_1504,MusicAffectPsychophysiology2019,3.0.5,60.13944955225116,
To what extent did the music make you feel ,TENDER,30MonoWAV/30MonoS4.wav,1,1,3,12,,,,,1,7,23,11,0,6,6,10,,,,,,,,,2,0.9016248120024102,,,055,001,2019_May_21_1504,MusicAffectPsychophysiology2019,3.0.5,60.13944955225116,
To what extent did the music make you feel ,ACTIVE,30MonoWAV/30MonoS4.wav,1,1,3,12,,,,,1,7,23,11,0,7,7,9,,,,,,,,,1,0.5164781390049029,,,055,001,2019_May_21_1504,MusicAffectPsychophysiology2019,3.0.5,60.13944955225116,
To what extent did the music make you feel ,GUILTY,30MonoWAV/30MonoS4.wav,1,1,3,12,,,,,1,7,23,11,0,8,8,5,,,,,,,,,1,0.3859443050023401,,,055,001,2019_May_21_1504,MusicAffectPsychophysiology2019,3.0.5,60.13944955225116,
To what extent did the music make you feel ,SAD,30MonoWAV/30MonoS4.wav,1,1,3,12,,,,,1,7,23,11,0,9,9,0,,,,,,,,,2,0.8194132380012888,,,055,001,2019_May_21_1504,MusicAffectPsychophysiology2019,3.0.5,60.13944955225116,
To what extent did the music make you feel ,SCARED,30MonoWAV/30MonoS4.wav,1,1,3,12,,,,,1,7,23,11,0,10,10,11,,,,,,,,,1,0.5516990789910778,,,055,001,2019_May_21_1504,MusicAffectPsychophysiology2019,3.0.5,60.13944955225116,
To what extent did the music make you feel ,ANGRY,30MonoWAV/30MonoS4.wav,1,1,3,12,,,,,1,7,23,11,0,11,11,2,,,,,,,,,1,0.5517069120105589,,,055,001,2019_May_21_1504,MusicAffectPsychophysiology2019,3.0.5,60.13944955225116,
,,30MonoWAV/30MonoS4.wav,1,1,3,12,,,,,1,7,23,11,,,,,,,,,,,,,,,,,055,001,2019_May_21_1504,MusicAffectPsychophysiology2019,3.0.5,60.13944955225116,
To what extent did the music make you feel ,SCARED,30MonoWAV/30MonoT3.wav,2,1,4,15,,,,,1,8,24,14,0,0,0,11,,,1,3.957025686002453,2,2.956915473987465,3,1.0855112559947884,1,0.5848892289941432,,,055,001,2019_May_21_1504,MusicAffectPsychophysiology2019,3.0.5,60.13944955225116,
To what extent did the music make you feel ,SAD,30MonoWAV/30MonoT3.wav,2,1,4,15,,,,,1,8,24,14,0,1,1,0,,,,,,,,,1,0.5690891060075955,,,055,001,2019_May_21_1504,MusicAffectPsychophysiology2019,3.0.5,60.13944955225116,
To what extent did the music make you feel ,ALERT,30MonoWAV/30MonoT3.wav,2,1,4,15,,,,,1,8,24,14,0,2,2,8,,,,,,,,,1,0.6848879559984198,,,055,001,2019_May_21_1504,MusicAffectPsychophysiology2019,3.0.5,60.13944955225116,
To what extent did the music make you feel ,ANXIOUS ,30MonoWAV/30MonoT3.wav,2,1,4,15,,,,,1,8,24,14,0,3,3,1,,,,,,,,,1,0.8196747670008335,,,055,001,2019_May_21_1504,MusicAffectPsychophysiology2019,3.0.5,60.13944955225116,
To what extent did the music make you feel ,ANGRY,30MonoWAV/30MonoT3.wav,2,1,4,15,,,,,1,8,24,14,0,4,4,2,,,,,,,,,1,0.5852644169935957,,,055,001,2019_May_21_1504,MusicAffectPsychophysiology2019,3.0.5,60.13944955225116,
To what extent did the music make you feel ,ASHAMED,30MonoWAV/30MonoT3.wav,2,1,4,15,,,,,1,8,24,14,0,5,5,4,,,,,,,,,1,0.46844198400503956,,,055,001,2019_May_21_1504,MusicAffectPsychophysiology2019,3.0.5,60.13944955225116,
To what extent did the music make you feel ,TENDER,30MonoWAV/30MonoT3.wav,2,1,4,15,,,,,1,8,24,14,0,6,6,10,,,,,,,,,2,0.8684453129972098,,,055,001,2019_May_21_1504,MusicAffectPsychophysiology2019,3.0.5,60.13944955225116,
To what extent did the music make you feel ,HAPPY,30MonoWAV/30MonoT3.wav,2,1,4,15,,,,,1,8,24,14,0,7,7,6,,,,,,,,,2,0.9503386709984625,,,055,001,2019_May_21_1504,MusicAffectPsychophysiology2019,3.0.5,60.13944955225116,
To what extent did the music make you feel ,GUILTY,30MonoWAV/30MonoT3.wav,2,1,4,15,,,,,1,8,24,14,0,8,8,5,,,,,,,,,1,0.7519422909972491,,,055,001,2019_May_21_1504,MusicAffectPsychophysiology2019,3.0.5,60.13944955225116,
To what extent did the music make you feel ,EXCITED,30MonoWAV/30MonoT3.wav,2,1,4,15,,,,,1,8,24,14,0,9,9,7,,,,,,,,,1,0.7356401370052481,,,055,001,2019_May_21_1504,MusicAffectPsychophysiology2019,3.0.5,60.13944955225116,
To what extent did the music make you feel ,FRUSTRATED,30MonoWAV/30MonoT3.wav,2,1,4,15,,,,,1,8,24,14,0,10,10,3,,,,,,,,,1,0.43522519900579937,,,055,001,2019_May_21_1504,MusicAffectPsychophysiology2019,3.0.5,60.13944955225116,
To what extent did the music make you feel ,ACTIVE,30MonoWAV/30MonoT3.wav,2,1,4,15,,,,,1,8,24,14,0,11,11,9,,,,,,,,,1,0.6017555769940373,,,055,001,2019_May_21_1504,MusicAffectPsychophysiology2019,3.0.5,60.13944955225116,
,,30MonoWAV/30MonoT3.wav,2,1,4,15,,,,,1,8,24,14,,,,,,,,,,,,,,,,,055,001,2019_May_21_1504,MusicAffectPsychophysiology2019,3.0.5,60.13944955225116,
To what extent did the music make you feel ,ASHAMED,30MonoWAV/30MonoH3.wav,2,2,1,7,,,,,1,9,25,6,0,0,0,4,,,2,6.884202109999023,2,1.3180861919972813,1,1.5344500440114643,1,0.7857703789923107,,,055,001,2019_May_21_1504,MusicAffectPsychophysiology2019,3.0.5,60.13944955225116,
To what extent did the music make you feel ,ACTIVE,30MonoWAV/30MonoH3.wav,2,2,1,7,,,,,1,9,25,6,0,1,1,9,,,,,,,,,1,0.7854442190000555,,,055,001,2019_May_21_1504,MusicAffectPsychophysiology2019,3.0.5,60.13944955225116,
To what extent did the music make you feel ,GUILTY,30MonoWAV/30MonoH3.wav,2,2,1,7,,,,,1,9,25,6,0,2,2,5,,,,,,,,,1,0.4852710429986473,,,055,001,2019_May_21_1504,MusicAffectPsychophysiology2019,3.0.5,60.13944955225116,
To what extent did the music make you feel ,ANGRY,30MonoWAV/30MonoH3.wav,2,2,1,7,,,,,1,9,25,6,0,3,3,2,,,,,,,,,1,0.5015759240050102,,,055,001,2019_May_21_1504,MusicAffectPsychophysiology2019,3.0.5,60.13944955225116,
To what extent did the music make you feel ,FRUSTRATED,30MonoWAV/30MonoH3.wav,2,2,1,7,,,,,1,9,25,6,0,4,4,3,,,,,,,,,1,0.5023938700032886,,,055,001,2019_May_21_1504,MusicAffectPsychophysiology2019,3.0.5,60.13944955225116,
To what extent did the music make you feel ,TENDER,30MonoWAV/30MonoH3.wav,2,2,1,7,,,,,1,9,25,6,0,5,5,10,,,,,,,,,1,0.4516386239993153,,,055,001,2019_May_21_1504,MusicAffectPsychophysiology2019,3.0.5,60.13944955225116,
To what extent did the music make you feel ,ANXIOUS ,30MonoWAV/30MonoH3.wav,2,2,1,7,,,,,1,9,25,6,0,6,6,1,,,,,,,,,1,0.5838941800029716,,,055,001,2019_May_21_1504,MusicAffectPsychophysiology2019,3.0.5,60.13944955225116,
To what extent did the music make you feel ,ALERT,30MonoWAV/30MonoH3.wav,2,2,1,7,,,,,1,9,25,6,0,7,7,8,,,,,,,,,1,0.5186834769992856,,,055,001,2019_May_21_1504,MusicAffectPsychophysiology2019,3.0.5,60.13944955225116,
To what extent did the music make you feel ,SAD,30MonoWAV/30MonoH3.wav,2,2,1,7,,,,,1,9,25,6,0,8,8,0,,,,,,,,,1,0.5852459559973795,,,055,001,2019_May_21_1504,MusicAffectPsychophysiology2019,3.0.5,60.13944955225116,
To what extent did the music make you feel ,HAPPY,30MonoWAV/30MonoH3.wav,2,2,1,7,,,,,1,9,25,6,0,9,9,6,,,,,,,,,2,0.7848978910042206,,,055,001,2019_May_21_1504,MusicAffectPsychophysiology2019,3.0.5,60.13944955225116,
To what extent did the music make you feel ,EXCITED,30MonoWAV/30MonoH3.wav,2,2,1,7,,,,,1,9,25,6,0,10,10,7,,,,,,,,,2,0.5356237340020016,,,055,001,2019_May_21_1504,MusicAffectPsychophysiology2019,3.0.5,60.13944955225116,
To what extent did the music make you feel ,SCARED,30MonoWAV/30MonoH3.wav,2,2,1,7,,,,,1,9,25,6,0,11,11,11,,,,,,,,,1,0.4017247110023163,,,055,001,2019_May_21_1504,MusicAffectPsychophysiology2019,3.0.5,60.13944955225116,
,,30MonoWAV/30MonoH3.wav,2,2,1,7,,,,,1,9,25,6,,,,,,,,,,,,,,,,,055,001,2019_May_21_1504,MusicAffectPsychophysiology2019,3.0.5,60.13944955225116,
To what extent did the music make you feel ,TENDER,30MonoWAV/30MonoT2.wav,2,1,4,14,,,,,1,10,26,13,0,0,0,10,,,1,10.984531454989337,2,0.9010652989964001,2,1.6516867369937245,2,1.0184211739979219,,,055,001,2019_May_21_1504,MusicAffectPsychophysiology2019,3.0.5,60.13944955225116,
To what extent did the music make you feel ,EXCITED,30MonoWAV/30MonoT2.wav,2,1,4,14,,,,,1,10,26,13,0,1,1,7,,,,,,,,,1,0.6344235570140881,,,055,001,2019_May_21_1504,MusicAffectPsychophysiology2019,3.0.5,60.13944955225116,
To what extent did the music make you feel ,ACTIVE,30MonoWAV/30MonoT2.wav,2,1,4,14,,,,,1,10,26,13,0,2,2,9,,,,,,,,,1,0.3344444889953593,,,055,001,2019_May_21_1504,MusicAffectPsychophysiology2019,3.0.5,60.13944955225116,
To what extent did the music make you feel ,FRUSTRATED,30MonoWAV/30MonoT2.wav,2,1,4,14,,,,,1,10,26,13,0,3,3,3,,,,,,,,,1,0.21845333999954164,,,055,001,2019_May_21_1504,MusicAffectPsychophysiology2019,3.0.5,60.13944955225116,
To what extent did the music make you feel ,GUILTY,30MonoWAV/30MonoT2.wav,2,1,4,14,,,,,1,10,26,13,0,4,4,5,,,,,,,,,1,0.40177592300460674,,,055,001,2019_May_21_1504,MusicAffectPsychophysiology2019,3.0.5,60.13944955225116,
To what extent did the music make you feel ,ALERT,30MonoWAV/30MonoT2.wav,2,1,4,14,,,,,1,10,26,13,0,5,5,8,,,,,,,,,1,0.30237380901235156,,,055,001,2019_May_21_1504,MusicAffectPsychophysiology2019,3.0.5,60.13944955225116,
To what extent did the music make you feel ,ANGRY,30MonoWAV/30MonoT2.wav,2,1,4,14,,,,,1,10,26,13,0,6,6,2,,,,,,,,,1,0.5514503750018775,,,055,001,2019_May_21_1504,MusicAffectPsychophysiology2019,3.0.5,60.13944955225116,
To what extent did the music make you feel ,ASHAMED,30MonoWAV/30MonoT2.wav,2,1,4,14,,,,,1,10,26,13,0,7,7,4,,,,,,,,,1,0.8011684800003422,,,055,001,2019_May_21_1504,MusicAffectPsychophysiology2019,3.0.5,60.13944955225116,
To what extent did the music make you feel ,SAD,30MonoWAV/30MonoT2.wav,2,1,4,14,,,,,1,10,26,13,0,8,8,0,,,,,,,,,2,0.5012073020043317,,,055,001,2019_May_21_1504,MusicAffectPsychophysiology2019,3.0.5,60.13944955225116,
To what extent did the music make you feel ,ANXIOUS ,30MonoWAV/30MonoT2.wav,2,1,4,14,,,,,1,10,26,13,0,9,9,1,,,,,,,,,1,0.3186970009992365,,,055,001,2019_May_21_1504,MusicAffectPsychophysiology2019,3.0.5,60.13944955225116,
To what extent did the music make you feel ,HAPPY,30MonoWAV/30MonoT2.wav,2,1,4,14,,,,,1,10,26,13,0,10,10,6,,,,,,,,,1,0.216902497006231,,,055,001,2019_May_21_1504,MusicAffectPsychophysiology2019,3.0.5,60.13944955225116,
To what extent did the music make you feel ,SCARED,30MonoWAV/30MonoT2.wav,2,1,4,14,,,,,1,10,26,13,0,11,11,11,,,,,,,,,1,0.4007696929911617,,,055,001,2019_May_21_1504,MusicAffectPsychophysiology2019,3.0.5,60.13944955225116,
,,30MonoWAV/30MonoT2.wav,2,1,4,14,,,,,1,10,26,13,,,,,,,,,,,,,,,,,055,001,2019_May_21_1504,MusicAffectPsychophysiology2019,3.0.5,60.13944955225116,
To what extent did the music make you feel ,GUILTY,30MonoWAV/30MonoT4.wav,2,1,4,16,,,,,1,11,27,15,0,0,0,5,,,1,5.115871412999695,1,1.6182724760001292,2,0.7692992249940289,1,0.5860121869918657,,,055,001,2019_May_21_1504,MusicAffectPsychophysiology2019,3.0.5,60.13944955225116,
To what extent did the music make you feel ,ASHAMED,30MonoWAV/30MonoT4.wav,2,1,4,16,,,,,1,11,27,15,0,1,1,4,,,,,,,,,1,1.2517618909914745,,,055,001,2019_May_21_1504,MusicAffectPsychophysiology2019,3.0.5,60.13944955225116,
To what extent did the music make you feel ,ANXIOUS ,30MonoWAV/30MonoT4.wav,2,1,4,16,,,,,1,11,27,15,0,2,2,1,,,,,,,,,1,1.0002775030006887,,,055,001,2019_May_21_1504,MusicAffectPsychophysiology2019,3.0.5,60.13944955225116,
To what extent did the music make you feel ,HAPPY,30MonoWAV/30MonoT4.wav,2,1,4,16,,,,,1,11,27,15,0,3,3,6,,,,,,,,,1,0.3682409019966144,,,055,001,2019_May_21_1504,MusicAffectPsychophysiology2019,3.0.5,60.13944955225116,
To what extent did the music make you feel ,SAD,30MonoWAV/30MonoT4.wav,2,1,4,16,,,,,1,11,27,15,0,4,4,0,,,,,,,,,2,0.618688269998529,,,055,001,2019_May_21_1504,MusicAffectPsychophysiology2019,3.0.5,60.13944955225116,
To what extent did the music make you feel ,ALERT,30MonoWAV/30MonoT4.wav,2,1,4,16,,,,,1,11,27,15,0,5,5,8,,,,,,,,,1,0.3353957960061962,,,055,001,2019_May_21_1504,MusicAffectPsychophysiology2019,3.0.5,60.13944955225116,
To what extent did the music make you feel ,EXCITED,30MonoWAV/30MonoT4.wav,2,1,4,16,,,,,1,11,27,15,0,6,6,7,,,,,,,,,1,0.5849517970054876,,,055,001,2019_May_21_1504,MusicAffectPsychophysiology2019,3.0.5,60.13944955225116,
To what extent did the music make you feel ,ANGRY,30MonoWAV/30MonoT4.wav,2,1,4,16,,,,,1,11,27,15,0,7,7,2,,,,,,,,,1,0.3351466640015133,,,055,001,2019_May_21_1504,MusicAffectPsychophysiology2019,3.0.5,60.13944955225116,
To what extent did the music make you feel ,SCARED,30MonoWAV/30MonoT4.wav,2,1,4,16,,,,,1,11,27,15,0,8,8,11,,,,,,,,,1,0.6851402369939024,,,055,001,2019_May_21_1504,MusicAffectPsychophysiology2019,3.0.5,60.13944955225116,
To what extent did the music make you feel ,FRUSTRATED,30MonoWAV/30MonoT4.wav,2,1,4,16,,,,,1,11,27,15,0,9,9,3,,,,,,,,,1,0.40192108700284734,,,055,001,2019_May_21_1504,MusicAffectPsychophysiology2019,3.0.5,60.13944955225116,
To what extent did the music make you feel ,ACTIVE,30MonoWAV/30MonoT4.wav,2,1,4,16,,,,,1,11,27,15,0,10,10,9,,,,,,,,,1,0.3354278020124184,,,055,001,2019_May_21_1504,MusicAffectPsychophysiology2019,3.0.5,60.13944955225116,
To what extent did the music make you feel ,TENDER,30MonoWAV/30MonoT4.wav,2,1,4,16,,,,,1,11,27,15,0,11,11,10,,,,,,,,,1,0.4348230150062591,,,055,001,2019_May_21_1504,MusicAffectPsychophysiology2019,3.0.5,60.13944955225116,
,,30MonoWAV/30MonoT4.wav,2,1,4,16,,,,,1,11,27,15,,,,,,,,,,,,,,,,,055,001,2019_May_21_1504,MusicAffectPsychophysiology2019,3.0.5,60.13944955225116,
To what extent did the music make you feel ,FRUSTRATED,30MonoWAV/30MonoH4.wav,2,2,1,8,,,,,1,12,28,7,0,0,0,3,,,2,5.157565727000474,1,2.382864122002502,2,1.8182978950062534,1,0.6996460889931768,,,055,001,2019_May_21_1504,MusicAffectPsychophysiology2019,3.0.5,60.13944955225116,
To what extent did the music make you feel ,ASHAMED,30MonoWAV/30MonoH4.wav,2,2,1,8,,,,,1,12,28,7,0,1,1,4,,,,,,,,,1,0.5185356970032444,,,055,001,2019_May_21_1504,MusicAffectPsychophysiology2019,3.0.5,60.13944955225116,
To what extent did the music make you feel ,ANGRY,30MonoWAV/30MonoH4.wav,2,2,1,8,,,,,1,12,28,7,0,2,2,2,,,,,,,,,1,0.45206964400131255,,,055,001,2019_May_21_1504,MusicAffectPsychophysiology2019,3.0.5,60.13944955225116,
To what extent did the music make you feel ,HAPPY,30MonoWAV/30MonoH4.wav,2,2,1,8,,,,,1,12,28,7,0,3,3,6,,,,,,,,,2,0.9185643539967714,,,055,001,2019_May_21_1504,MusicAffectPsychophysiology2019,3.0.5,60.13944955225116,
To what extent did the music make you feel ,SAD,30MonoWAV/30MonoH4.wav,2,2,1,8,,,,,1,12,28,7,0,4,4,0,,,,,,,,,1,0.9338337560038781,,,055,001,2019_May_21_1504,MusicAffectPsychophysiology2019,3.0.5,60.13944955225116,
To what extent did the music make you feel ,ACTIVE,30MonoWAV/30MonoH4.wav,2,2,1,8,,,,,1,12,28,7,0,5,5,9,,,,,,,,,2,0.6850255080062198,,,055,001,2019_May_21_1504,MusicAffectPsychophysiology2019,3.0.5,60.13944955225116,
To what extent did the music make you feel ,ANXIOUS ,30MonoWAV/30MonoH4.wav,2,2,1,8,,,,,1,12,28,7,0,6,6,1,,,,,,,,,1,0.38554291299078614,,,055,001,2019_May_21_1504,MusicAffectPsychophysiology2019,3.0.5,60.13944955225116,
To what extent did the music make you feel ,ALERT,30MonoWAV/30MonoH4.wav,2,2,1,8,,,,,1,12,28,7,0,7,7,8,,,,,,,,,1,0.334218634001445,,,055,001,2019_May_21_1504,MusicAffectPsychophysiology2019,3.0.5,60.13944955225116,
To what extent did the music make you feel ,TENDER,30MonoWAV/30MonoH4.wav,2,2,1,8,,,,,1,12,28,7,0,8,8,10,,,,,,,,,1,0.6853408210008638,,,055,001,2019_May_21_1504,MusicAffectPsychophysiology2019,3.0.5,60.13944955225116,
To what extent did the music make you feel ,SCARED,30MonoWAV/30MonoH4.wav,2,2,1,8,,,,,1,12,28,7,0,9,9,11,,,,,,,,,1,0.2512904589966638,,,055,001,2019_May_21_1504,MusicAffectPsychophysiology2019,3.0.5,60.13944955225116,
To what extent did the music make you feel ,GUILTY,30MonoWAV/30MonoH4.wav,2,2,1,8,,,,,1,12,28,7,0,10,10,5,,,,,,,,,1,0.568021951999981,,,055,001,2019_May_21_1504,MusicAffectPsychophysiology2019,3.0.5,60.13944955225116,
To what extent did the music make you feel ,EXCITED,30MonoWAV/30MonoH4.wav,2,2,1,8,,,,,1,12,28,7,0,11,11,7,,,,,,,,,1,0.7995695040008286,,,055,001,2019_May_21_1504,MusicAffectPsychophysiology2019,3.0.5,60.13944955225116,
,,30MonoWAV/30MonoH4.wav,2,2,1,8,,,,,1,12,28,7,,,,,,,,,,,,,,,,,055,001,2019_May_21_1504,MusicAffectPsychophysiology2019,3.0.5,60.13944955225116,
To what extent did the music make you feel ,ACTIVE,30MonoWAV/30MonoS1.wav,1,1,3,9,,,,,1,13,29,8,0,0,0,9,,,1,3.7903602580045117,1,3.9725889709952753,2,1.0026851670118049,1,1.1566815310070524,,,055,001,2019_May_21_1504,MusicAffectPsychophysiology2019,3.0.5,60.13944955225116,
To what extent did the music make you feel ,FRUSTRATED,30MonoWAV/30MonoS1.wav,1,1,3,9,,,,,1,13,29,8,0,1,1,3,,,,,,,,,1,0.6347364160028519,,,055,001,2019_May_21_1504,MusicAffectPsychophysiology2019,3.0.5,60.13944955225116,
To what extent did the music make you feel ,ALERT,30MonoWAV/30MonoS1.wav,1,1,3,9,,,,,1,13,29,8,0,2,2,8,,,,,,,,,1,0.4503678609908093,,,055,001,2019_May_21_1504,MusicAffectPsychophysiology2019,3.0.5,60.13944955225116,
To what extent did the music make you feel ,GUILTY,30MonoWAV/30MonoS1.wav,1,1,3,9,,,,,1,13,29,8,0,3,3,5,,,,,,,,,1,0.8160594509972725,,,055,001,2019_May_21_1504,MusicAffectPsychophysiology2019,3.0.5,60.13944955225116,
To what extent did the music make you feel ,ANXIOUS ,30MonoWAV/30MonoS1.wav,1,1,3,9,,,,,1,13,29,8,0,4,4,1,,,,,,,,,1,0.5008171169902198,,,055,001,2019_May_21_1504,MusicAffectPsychophysiology2019,3.0.5,60.13944955225116,
To what extent did the music make you feel ,ANGRY,30MonoWAV/30MonoS1.wav,1,1,3,9,,,,,1,13,29,8,0,5,5,2,,,,,,,,,1,0.335688584993477,,,055,001,2019_May_21_1504,MusicAffectPsychophysiology2019,3.0.5,60.13944955225116,
To what extent did the music make you feel ,SAD,30MonoWAV/30MonoS1.wav,1,1,3,9,,,,,1,13,29,8,0,6,6,0,,,,,,,,,2,0.41967934399144724,,,055,001,2019_May_21_1504,MusicAffectPsychophysiology2019,3.0.5,60.13944955225116,
To what extent did the music make you feel ,HAPPY,30MonoWAV/30MonoS1.wav,1,1,3,9,,,,,1,13,29,8,0,7,7,6,,,,,,,,,1,0.4855113369994797,,,055,001,2019_May_21_1504,MusicAffectPsychophysiology2019,3.0.5,60.13944955225116,
To what extent did the music make you feel ,ASHAMED,30MonoWAV/30MonoS1.wav,1,1,3,9,,,,,1,13,29,8,0,8,8,4,,,,,,,,,1,0.3011399730021367,,,055,001,2019_May_21_1504,MusicAffectPsychophysiology2019,3.0.5,60.13944955225116,
To what extent did the music make you feel ,EXCITED,30MonoWAV/30MonoS1.wav,1,1,3,9,,,,,1,13,29,8,0,9,9,7,,,,,,,,,1,0.3352153769956203,,,055,001,2019_May_21_1504,MusicAffectPsychophysiology2019,3.0.5,60.13944955225116,
To what extent did the music make you feel ,SCARED,30MonoWAV/30MonoS1.wav,1,1,3,9,,,,,1,13,29,8,0,10,10,11,,,,,,,,,1,0.41888445800577756,,,055,001,2019_May_21_1504,MusicAffectPsychophysiology2019,3.0.5,60.13944955225116,
To what extent did the music make you feel ,TENDER,30MonoWAV/30MonoS1.wav,1,1,3,9,,,,,1,13,29,8,0,11,11,10,,,,,,,,,1,0.43575644299562555,,,055,001,2019_May_21_1504,MusicAffectPsychophysiology2019,3.0.5,60.13944955225116,
,,30MonoWAV/30MonoS1.wav,1,1,3,9,,,,,1,13,29,8,,,,,,,,,,,,,,,,,055,001,2019_May_21_1504,MusicAffectPsychophysiology2019,3.0.5,60.13944955225116,
To what extent did the music make you feel ,ASHAMED,30MonoWAV/30MonoS3.wav,1,1,3,11,,,,,1,14,30,10,0,0,0,4,,,1,2.6032402369892225,1,1.335381327997311,1,1.7848119219997898,1,2.6684488030005014,,,055,001,2019_May_21_1504,MusicAffectPsychophysiology2019,3.0.5,60.13944955225116,
To what extent did the music make you feel ,ANGRY,30MonoWAV/30MonoS3.wav,1,1,3,11,,,,,1,14,30,10,0,1,1,2,,,,,,,,,1,0.38497239600110333,,,055,001,2019_May_21_1504,MusicAffectPsychophysiology2019,3.0.5,60.13944955225116,
To what extent did the music make you feel ,EXCITED,30MonoWAV/30MonoS3.wav,1,1,3,11,,,,,1,14,30,10,0,2,2,7,,,,,,,,,1,0.4849316089967033,,,055,001,2019_May_21_1504,MusicAffectPsychophysiology2019,3.0.5,60.13944955225116,
To what extent did the music make you feel ,HAPPY,30MonoWAV/30MonoS3.wav,1,1,3,11,,,,,1,14,30,10,0,3,3,6,,,,,,,,,1,0.4355910560116172,,,055,001,2019_May_21_1504,MusicAffectPsychophysiology2019,3.0.5,60.13944955225116,
To what extent did the music make you feel ,ANXIOUS ,30MonoWAV/30MonoS3.wav,1,1,3,11,,,,,1,14,30,10,0,4,4,1,,,,,,,,,1,0.4684033490048023,,,055,001,2019_May_21_1504,MusicAffectPsychophysiology2019,3.0.5,60.13944955225116,
To what extent did the music make you feel ,SAD,30MonoWAV/30MonoS3.wav,1,1,3,11,,,,,1,14,30,10,0,5,5,0,,,,,,,,,2,0.4683995759987738,,,055,001,2019_May_21_1504,MusicAffectPsychophysiology2019,3.0.5,60.13944955225116,
To what extent did the music make you feel ,TENDER,30MonoWAV/30MonoS3.wav,1,1,3,11,,,,,1,14,30,10,0,6,6,10,,,,,,,,,1,0.3689628509891918,,,055,001,2019_May_21_1504,MusicAffectPsychophysiology2019,3.0.5,60.13944955225116,
To what extent did the music make you feel ,ACTIVE,30MonoWAV/30MonoS3.wav,1,1,3,11,,,,,1,14,30,10,0,7,7,9,,,,,,,,,1,0.31944128300528973,,,055,001,2019_May_21_1504,MusicAffectPsychophysiology2019,3.0.5,60.13944955225116,
To what extent did the music make you feel ,GUILTY,30MonoWAV/30MonoS3.wav,1,1,3,11,,,,,1,14,30,10,0,8,8,5,,,,,,,,,1,0.23365475799073465,,,055,001,2019_May_21_1504,MusicAffectPsychophysiology2019,3.0.5,60.13944955225116,
To what extent did the music make you feel ,FRUSTRATED,30MonoWAV/30MonoS3.wav,1,1,3,11,,,,,1,14,30,10,0,9,9,3,,,,,,,,,1,0.36874403100227937,,,055,001,2019_May_21_1504,MusicAffectPsychophysiology2019,3.0.5,60.13944955225116,
To what extent did the music make you feel ,ALERT,30MonoWAV/30MonoS3.wav,1,1,3,11,,,,,1,14,30,10,0,10,10,8,,,,,,,,,1,0.2515113069966901,,,055,001,2019_May_21_1504,MusicAffectPsychophysiology2019,3.0.5,60.13944955225116,
To what extent did the music make you feel ,SCARED,30MonoWAV/30MonoS3.wav,1,1,3,11,,,,,1,14,30,10,0,11,11,11,,,,,,,,,1,0.41926621900347527,,,055,001,2019_May_21_1504,MusicAffectPsychophysiology2019,3.0.5,60.13944955225116,
,,30MonoWAV/30MonoS3.wav,1,1,3,11,,,,,1,14,30,10,,,,,,,,,,,,,,,,,055,001,2019_May_21_1504,MusicAffectPsychophysiology2019,3.0.5,60.13944955225116,
To what extent did the music make you feel ,ASHAMED,30MonoWAV/30MonoS2.wav,1,1,3,10,,,,,1,15,31,9,0,0,0,4,,,1,3.650003900998854,1,1.653319333010586,2,1.2515208669938147,1,0.8524593460024334,,,055,001,2019_May_21_1504,MusicAffectPsychophysiology2019,3.0.5,60.13944955225116,
To what extent did the music make you feel ,ALERT,30MonoWAV/30MonoS2.wav,1,1,3,10,,,,,1,15,31,9,0,1,1,8,,,,,,,,,1,0.9901181079912931,,,055,001,2019_May_21_1504,MusicAffectPsychophysiology2019,3.0.5,60.13944955225116,
To what extent did the music make you feel ,SCARED,30MonoWAV/30MonoS2.wav,1,1,3,10,,,,,1,15,31,9,0,2,2,11,,,,,,,,,1,0.652137163997395,,,055,001,2019_May_21_1504,MusicAffectPsychophysiology2019,3.0.5,60.13944955225116,
To what extent did the music make you feel ,SAD,30MonoWAV/30MonoS2.wav,1,1,3,10,,,,,1,15,31,9,0,3,3,0,,,,,,,,,2,0.5365518059988972,,,055,001,2019_May_21_1504,MusicAffectPsychophysiology2019,3.0.5,60.13944955225116,
To what extent did the music make you feel ,ACTIVE,30MonoWAV/30MonoS2.wav,1,1,3,10,,,,,1,15,31,9,0,4,4,9,,,,,,,,,1,0.5188444999948842,,,055,001,2019_May_21_1504,MusicAffectPsychophysiology2019,3.0.5,60.13944955225116,
To what extent did the music make you feel ,EXCITED,30MonoWAV/30MonoS2.wav,1,1,3,10,,,,,1,15,31,9,0,5,5,7,,,,,,,,,1,0.4858513149956707,,,055,001,2019_May_21_1504,MusicAffectPsychophysiology2019,3.0.5,60.13944955225116,
To what extent did the music make you feel ,HAPPY,30MonoWAV/30MonoS2.wav,1,1,3,10,,,,,1,15,31,9,0,6,6,6,,,,,,,,,1,0.3357131499942625,,,055,001,2019_May_21_1504,MusicAffectPsychophysiology2019,3.0.5,60.13944955225116,
To what extent did the music make you feel ,GUILTY,30MonoWAV/30MonoS2.wav,1,1,3,10,,,,,1,15,31,9,0,7,7,5,,,,,,,,,1,0.3679021949938033,,,055,001,2019_May_21_1504,MusicAffectPsychophysiology2019,3.0.5,60.13944955225116,
To what extent did the music make you feel ,FRUSTRATED,30MonoWAV/30MonoS2.wav,1,1,3,10,,,,,1,15,31,9,0,8,8,3,,,,,,,,,1,0.6015799189917743,,,055,001,2019_May_21_1504,MusicAffectPsychophysiology2019,3.0.5,60.13944955225116,
To what extent did the music make you feel ,TENDER,30MonoWAV/30MonoS2.wav,1,1,3,10,,,,,1,15,31,9,0,9,9,10,,,,,,,,,1,0.2521230059937807,,,055,001,2019_May_21_1504,MusicAffectPsychophysiology2019,3.0.5,60.13944955225116,
To what extent did the music make you feel ,ANXIOUS ,30MonoWAV/30MonoS2.wav,1,1,3,10,,,,,1,15,31,9,0,10,10,1,,,,,,,,,1,0.46866472699912265,,,055,001,2019_May_21_1504,MusicAffectPsychophysiology2019,3.0.5,60.13944955225116,
To what extent did the music make you feel ,ANGRY,30MonoWAV/30MonoS2.wav,1,1,3,10,,,,,1,15,31,9,0,11,11,2,,,,,,,,,1,0.1856812119949609,,,055,001,2019_May_21_1504,MusicAffectPsychophysiology2019,3.0.5,60.13944955225116,
,,30MonoWAV/30MonoS2.wav,1,1,3,10,,,,,1,15,31,9,,,,,,,,,,,,,,,,,055,001,2019_May_21_1504,MusicAffectPsychophysiology2019,3.0.5,60.13944955225116,
,,,,,,,,,,,,,,,,,,,,,,,,,,,,,space,20.433316615002695,055,001,2019_May_21_1504,MusicAffectPsychophysiology2019,3.0.5,60.13944955225116,
