Instruction,Word,song,valence,arousal,affectcat,songmark,pracwords.thisRepN,pracwords.thisTrialN,pracwords.thisN,pracwords.thisIndex,songtrials.thisRepN,songtrials.thisTrialN,songtrials.thisN,songtrials.thisIndex,words.thisRepN,words.thisTrialN,words.thisN,words.thisIndex,begin.keys,begin.rt,arousalkey.keys,arousalkey.rt,valencekey.keys,valencekey.rt,likekey.keys,likekey.rt,WordResponse.keys,WordResponse.rt,key_resp_2.keys,key_resp_2.rt,participant,session,date,expName,psychopyVersion,frameRate,
,,,,,,,,,,,,,,,,,,,right,14.833167056000093,,,,,,,,,,,056,001,2019_May_21_1613,MusicAffectPsychophysiology2019,3.0.5,59.663856221601556,
,,,,,,,,,,,,,,,,,,,,,3,10.177811337998719,,,,,,,,,056,001,2019_May_21_1613,MusicAffectPsychophysiology2019,3.0.5,59.663856221601556,
,,,,,,,,,,,,,,,,,,,,,,,5,4.151389426988317,,,,,,,056,001,2019_May_21_1613,MusicAffectPsychophysiology2019,3.0.5,59.663856221601556,
,,,,,,,,,,,,,,,,,,,,,,,,,4,3.00169167900458,,,,,056,001,2019_May_21_1613,MusicAffectPsychophysiology2019,3.0.5,59.663856221601556,
To what extent did the music make you feel ,ACTIVE,,,,,,0,0,0,9,,,,,,,,,,,,,,,,,3,5.2233806119911605,,,056,001,2019_May_21_1613,MusicAffectPsychophysiology2019,3.0.5,59.663856221601556,
To what extent did the music make you feel ,SAD,,,,,,0,1,1,0,,,,,,,,,,,,,,,,,1,2.3049786140036304,,,056,001,2019_May_21_1613,MusicAffectPsychophysiology2019,3.0.5,59.663856221601556,
To what extent did the music make you feel ,ALERT,,,,,,0,2,2,8,,,,,,,,,,,,,,,,,2,2.0039537659904454,,,056,001,2019_May_21_1613,MusicAffectPsychophysiology2019,3.0.5,59.663856221601556,
To what extent did the music make you feel ,ASHAMED,,,,,,0,3,3,4,,,,,,,,,,,,,,,,,1,1.4534277330094483,,,056,001,2019_May_21_1613,MusicAffectPsychophysiology2019,3.0.5,59.663856221601556,
To what extent did the music make you feel ,SCARED,,,,,,0,4,4,11,,,,,,,,,,,,,,,,,1,1.3349092270073015,,,056,001,2019_May_21_1613,MusicAffectPsychophysiology2019,3.0.5,59.663856221601556,
To what extent did the music make you feel ,ANXIOUS ,,,,,,0,5,5,1,,,,,,,,,,,,,,,,,1,1.5870824199955678,,,056,001,2019_May_21_1613,MusicAffectPsychophysiology2019,3.0.5,59.663856221601556,
To what extent did the music make you feel ,HAPPY,,,,,,0,6,6,6,,,,,,,,,,,,,,,,,4,2.257238441001391,,,056,001,2019_May_21_1613,MusicAffectPsychophysiology2019,3.0.5,59.663856221601556,
To what extent did the music make you feel ,GUILTY,,,,,,0,7,7,5,,,,,,,,,,,,,,,,,1,1.1172653780085966,,,056,001,2019_May_21_1613,MusicAffectPsychophysiology2019,3.0.5,59.663856221601556,
To what extent did the music make you feel ,FRUSTRATED,,,,,,0,8,8,3,,,,,,,,,,,,,,,,,1,1.8697013310011243,,,056,001,2019_May_21_1613,MusicAffectPsychophysiology2019,3.0.5,59.663856221601556,
To what extent did the music make you feel ,TENDER,,,,,,0,9,9,10,,,,,,,,,,,,,,,,,3,1.985872195000411,,,056,001,2019_May_21_1613,MusicAffectPsychophysiology2019,3.0.5,59.663856221601556,
To what extent did the music make you feel ,ANGRY,,,,,,0,10,10,2,,,,,,,,,,,,,,,,,1,0.968361053004628,,,056,001,2019_May_21_1613,MusicAffectPsychophysiology2019,3.0.5,59.663856221601556,
To what extent did the music make you feel ,EXCITED,,,,,,0,11,11,7,,,,,,,,,,,,,,,,,2,2.218495080000139,,,056,001,2019_May_21_1613,MusicAffectPsychophysiology2019,3.0.5,59.663856221601556,
To what extent did the music make you feel ,ANXIOUS ,30MonoWAV/30MonoF3.wav,1,2,2,3,,,,,0,0,0,2,0,0,0,1,,,4,3.622212190995924,2,3.2759003749961266,2,2.5009603849903215,2,3.0054937390086707,,,056,001,2019_May_21_1613,MusicAffectPsychophysiology2019,3.0.5,59.663856221601556,
To what extent did the music make you feel ,HAPPY,30MonoWAV/30MonoF3.wav,1,2,2,3,,,,,0,0,0,2,0,1,1,6,,,,,,,,,1,1.5873201020003762,,,056,001,2019_May_21_1613,MusicAffectPsychophysiology2019,3.0.5,59.663856221601556,
To what extent did the music make you feel ,EXCITED,30MonoWAV/30MonoF3.wav,1,2,2,3,,,,,0,0,0,2,0,2,2,7,,,,,,,,,2,4.606354925999767,,,056,001,2019_May_21_1613,MusicAffectPsychophysiology2019,3.0.5,59.663856221601556,
To what extent did the music make you feel ,ACTIVE,30MonoWAV/30MonoF3.wav,1,2,2,3,,,,,0,0,0,2,0,3,3,9,,,,,,,,,4,1.9565325660078088,,,056,001,2019_May_21_1613,MusicAffectPsychophysiology2019,3.0.5,59.663856221601556,
To what extent did the music make you feel ,TENDER,30MonoWAV/30MonoF3.wav,1,2,2,3,,,,,0,0,0,2,0,4,4,10,,,,,,,,,1,2.7006977499986533,,,056,001,2019_May_21_1613,MusicAffectPsychophysiology2019,3.0.5,59.663856221601556,
To what extent did the music make you feel ,ALERT,30MonoWAV/30MonoF3.wav,1,2,2,3,,,,,0,0,0,2,0,5,5,8,,,,,,,,,3,4.017546394010424,,,056,001,2019_May_21_1613,MusicAffectPsychophysiology2019,3.0.5,59.663856221601556,
To what extent did the music make you feel ,ASHAMED,30MonoWAV/30MonoF3.wav,1,2,2,3,,,,,0,0,0,2,0,6,6,4,,,,,,,,,1,1.7845490369945765,,,056,001,2019_May_21_1613,MusicAffectPsychophysiology2019,3.0.5,59.663856221601556,
To what extent did the music make you feel ,GUILTY,30MonoWAV/30MonoF3.wav,1,2,2,3,,,,,0,0,0,2,0,7,7,5,,,,,,,,,1,3.185739263004507,,,056,001,2019_May_21_1613,MusicAffectPsychophysiology2019,3.0.5,59.663856221601556,
To what extent did the music make you feel ,SCARED,30MonoWAV/30MonoF3.wav,1,2,2,3,,,,,0,0,0,2,0,8,8,11,,,,,,,,,2,2.9824565310118487,,,056,001,2019_May_21_1613,MusicAffectPsychophysiology2019,3.0.5,59.663856221601556,
To what extent did the music make you feel ,SAD,30MonoWAV/30MonoF3.wav,1,2,2,3,,,,,0,0,0,2,0,9,9,0,,,,,,,,,1,1.1698891589912819,,,056,001,2019_May_21_1613,MusicAffectPsychophysiology2019,3.0.5,59.663856221601556,
To what extent did the music make you feel ,FRUSTRATED,30MonoWAV/30MonoF3.wav,1,2,2,3,,,,,0,0,0,2,0,10,10,3,,,,,,,,,1,1.5679520729900105,,,056,001,2019_May_21_1613,MusicAffectPsychophysiology2019,3.0.5,59.663856221601556,
To what extent did the music make you feel ,ANGRY,30MonoWAV/30MonoF3.wav,1,2,2,3,,,,,0,0,0,2,0,11,11,2,,,,,,,,,1,1.238775218007504,,,056,001,2019_May_21_1613,MusicAffectPsychophysiology2019,3.0.5,59.663856221601556,
,,30MonoWAV/30MonoF3.wav,1,2,2,3,,,,,0,0,0,2,,,,,,,,,,,,,,,,,056,001,2019_May_21_1613,MusicAffectPsychophysiology2019,3.0.5,59.663856221601556,
To what extent did the music make you feel ,FRUSTRATED,30MonoWAV/30MonoS3.wav,1,1,3,11,,,,,0,1,1,10,0,0,0,3,,,1,3.858948793000309,2,4.001390162986354,2,4.300465221997001,1,3.201049826995586,,,056,001,2019_May_21_1613,MusicAffectPsychophysiology2019,3.0.5,59.663856221601556,
To what extent did the music make you feel ,GUILTY,30MonoWAV/30MonoS3.wav,1,1,3,11,,,,,0,1,1,10,0,1,1,5,,,,,,,,,1,0.6180059839971364,,,056,001,2019_May_21_1613,MusicAffectPsychophysiology2019,3.0.5,59.663856221601556,
To what extent did the music make you feel ,ACTIVE,30MonoWAV/30MonoS3.wav,1,1,3,11,,,,,0,1,1,10,0,2,2,9,,,,,,,,,1,3.1513035370007856,,,056,001,2019_May_21_1613,MusicAffectPsychophysiology2019,3.0.5,59.663856221601556,
To what extent did the music make you feel ,TENDER,30MonoWAV/30MonoS3.wav,1,1,3,11,,,,,0,1,1,10,0,3,3,10,,,,,,,,,2,2.70297798399406,,,056,001,2019_May_21_1613,MusicAffectPsychophysiology2019,3.0.5,59.663856221601556,
To what extent did the music make you feel ,ALERT,30MonoWAV/30MonoS3.wav,1,1,3,11,,,,,0,1,1,10,0,4,4,8,,,,,,,,,1,2.0181835429975763,,,056,001,2019_May_21_1613,MusicAffectPsychophysiology2019,3.0.5,59.663856221601556,
To what extent did the music make you feel ,SAD,30MonoWAV/30MonoS3.wav,1,1,3,11,,,,,0,1,1,10,0,5,5,0,,,,,,,,,3,2.534389321997878,,,056,001,2019_May_21_1613,MusicAffectPsychophysiology2019,3.0.5,59.663856221601556,
To what extent did the music make you feel ,HAPPY,30MonoWAV/30MonoS3.wav,1,1,3,11,,,,,0,1,1,10,0,6,6,6,,,,,,,,,1,4.400192772009177,,,056,001,2019_May_21_1613,MusicAffectPsychophysiology2019,3.0.5,59.663856221601556,
To what extent did the music make you feel ,EXCITED,30MonoWAV/30MonoS3.wav,1,1,3,11,,,,,0,1,1,10,0,7,7,7,,,,,,,,,1,1.4192198980017565,,,056,001,2019_May_21_1613,MusicAffectPsychophysiology2019,3.0.5,59.663856221601556,
To what extent did the music make you feel ,ANXIOUS ,30MonoWAV/30MonoS3.wav,1,1,3,11,,,,,0,1,1,10,0,8,8,1,,,,,,,,,1,2.2681063130003167,,,056,001,2019_May_21_1613,MusicAffectPsychophysiology2019,3.0.5,59.663856221601556,
To what extent did the music make you feel ,SCARED,30MonoWAV/30MonoS3.wav,1,1,3,11,,,,,0,1,1,10,0,9,9,11,,,,,,,,,1,0.8349961100029759,,,056,001,2019_May_21_1613,MusicAffectPsychophysiology2019,3.0.5,59.663856221601556,
To what extent did the music make you feel ,ASHAMED,30MonoWAV/30MonoS3.wav,1,1,3,11,,,,,0,1,1,10,0,10,10,4,,,,,,,,,1,0.8187873290007701,,,056,001,2019_May_21_1613,MusicAffectPsychophysiology2019,3.0.5,59.663856221601556,
To what extent did the music make you feel ,ANGRY,30MonoWAV/30MonoS3.wav,1,1,3,11,,,,,0,1,1,10,0,11,11,2,,,,,,,,,1,0.7864025660092011,,,056,001,2019_May_21_1613,MusicAffectPsychophysiology2019,3.0.5,59.663856221601556,
,,30MonoWAV/30MonoS3.wav,1,1,3,11,,,,,0,1,1,10,,,,,,,,,,,,,,,,,056,001,2019_May_21_1613,MusicAffectPsychophysiology2019,3.0.5,59.663856221601556,
To what extent did the music make you feel ,FRUSTRATED,30MonoWAV/30MonoH2.wav,2,2,1,6,,,,,0,2,2,5,0,0,0,3,,,4,5.292788970997208,4,2.3361336559901247,4,1.6884789380128495,1,1.3516210460074944,,,056,001,2019_May_21_1613,MusicAffectPsychophysiology2019,3.0.5,59.663856221601556,
To what extent did the music make you feel ,SCARED,30MonoWAV/30MonoH2.wav,2,2,1,6,,,,,0,2,2,5,0,1,1,11,,,,,,,,,1,1.0667276619933546,,,056,001,2019_May_21_1613,MusicAffectPsychophysiology2019,3.0.5,59.663856221601556,
To what extent did the music make you feel ,ASHAMED,30MonoWAV/30MonoH2.wav,2,2,1,6,,,,,0,2,2,5,0,2,2,4,,,,,,,,,1,0.9680374500021571,,,056,001,2019_May_21_1613,MusicAffectPsychophysiology2019,3.0.5,59.663856221601556,
To what extent did the music make you feel ,GUILTY,30MonoWAV/30MonoH2.wav,2,2,1,6,,,,,0,2,2,5,0,3,3,5,,,,,,,,,1,0.9834374309866689,,,056,001,2019_May_21_1613,MusicAffectPsychophysiology2019,3.0.5,59.663856221601556,
To what extent did the music make you feel ,EXCITED,30MonoWAV/30MonoH2.wav,2,2,1,6,,,,,0,2,2,5,0,4,4,7,,,,,,,,,4,1.8179982349975035,,,056,001,2019_May_21_1613,MusicAffectPsychophysiology2019,3.0.5,59.663856221601556,
To what extent did the music make you feel ,SAD,30MonoWAV/30MonoH2.wav,2,2,1,6,,,,,0,2,2,5,0,5,5,0,,,,,,,,,1,1.3181242239952553,,,056,001,2019_May_21_1613,MusicAffectPsychophysiology2019,3.0.5,59.663856221601556,
To what extent did the music make you feel ,ANGRY,30MonoWAV/30MonoH2.wav,2,2,1,6,,,,,0,2,2,5,0,6,6,2,,,,,,,,,1,1.051763989002211,,,056,001,2019_May_21_1613,MusicAffectPsychophysiology2019,3.0.5,59.663856221601556,
To what extent did the music make you feel ,ALERT,30MonoWAV/30MonoH2.wav,2,2,1,6,,,,,0,2,2,5,0,7,7,8,,,,,,,,,1,0.9013058249984169,,,056,001,2019_May_21_1613,MusicAffectPsychophysiology2019,3.0.5,59.663856221601556,
To what extent did the music make you feel ,HAPPY,30MonoWAV/30MonoH2.wav,2,2,1,6,,,,,0,2,2,5,0,8,8,6,,,,,,,,,4,2.252851905999705,,,056,001,2019_May_21_1613,MusicAffectPsychophysiology2019,3.0.5,59.663856221601556,
To what extent did the music make you feel ,ANXIOUS ,30MonoWAV/30MonoH2.wav,2,2,1,6,,,,,0,2,2,5,0,9,9,1,,,,,,,,,2,3.301285875000758,,,056,001,2019_May_21_1613,MusicAffectPsychophysiology2019,3.0.5,59.663856221601556,
To what extent did the music make you feel ,ACTIVE,30MonoWAV/30MonoH2.wav,2,2,1,6,,,,,0,2,2,5,0,10,10,9,,,,,,,,,4,3.4519735220092116,,,056,001,2019_May_21_1613,MusicAffectPsychophysiology2019,3.0.5,59.663856221601556,
To what extent did the music make you feel ,TENDER,30MonoWAV/30MonoH2.wav,2,2,1,6,,,,,0,2,2,5,0,11,11,10,,,,,,,,,1,3.3346948190010153,,,056,001,2019_May_21_1613,MusicAffectPsychophysiology2019,3.0.5,59.663856221601556,
,,30MonoWAV/30MonoH2.wav,2,2,1,6,,,,,0,2,2,5,,,,,,,,,,,,,,,,,056,001,2019_May_21_1613,MusicAffectPsychophysiology2019,3.0.5,59.663856221601556,
To what extent did the music make you feel ,ACTIVE,30MonoWAV/30MonoF2.wav,1,2,2,2,,,,,0,3,3,1,0,0,0,9,,,3,4.201115361996926,1,4.117696679997607,1,1.285979138003313,2,2.9321156139922095,,,056,001,2019_May_21_1613,MusicAffectPsychophysiology2019,3.0.5,59.663856221601556,
To what extent did the music make you feel ,ANXIOUS ,30MonoWAV/30MonoF2.wav,1,2,2,2,,,,,0,3,3,1,0,1,1,1,,,,,,,,,3,1.6855801550118485,,,056,001,2019_May_21_1613,MusicAffectPsychophysiology2019,3.0.5,59.663856221601556,
To what extent did the music make you feel ,FRUSTRATED,30MonoWAV/30MonoF2.wav,1,2,2,2,,,,,0,3,3,1,0,2,2,3,,,,,,,,,1,1.0019353920069989,,,056,001,2019_May_21_1613,MusicAffectPsychophysiology2019,3.0.5,59.663856221601556,
To what extent did the music make you feel ,ANGRY,30MonoWAV/30MonoF2.wav,1,2,2,2,,,,,0,3,3,1,0,3,3,2,,,,,,,,,1,1.2850375429989072,,,056,001,2019_May_21_1613,MusicAffectPsychophysiology2019,3.0.5,59.663856221601556,
To what extent did the music make you feel ,ALERT,30MonoWAV/30MonoF2.wav,1,2,2,2,,,,,0,3,3,1,0,4,4,8,,,,,,,,,2,2.434595372003969,,,056,001,2019_May_21_1613,MusicAffectPsychophysiology2019,3.0.5,59.663856221601556,
To what extent did the music make you feel ,EXCITED,30MonoWAV/30MonoF2.wav,1,2,2,2,,,,,0,3,3,1,0,5,5,7,,,,,,,,,2,3.001643926007091,,,056,001,2019_May_21_1613,MusicAffectPsychophysiology2019,3.0.5,59.663856221601556,
To what extent did the music make you feel ,HAPPY,30MonoWAV/30MonoF2.wav,1,2,2,2,,,,,0,3,3,1,0,6,6,6,,,,,,,,,1,1.9518766690016491,,,056,001,2019_May_21_1613,MusicAffectPsychophysiology2019,3.0.5,59.663856221601556,
To what extent did the music make you feel ,GUILTY,30MonoWAV/30MonoF2.wav,1,2,2,2,,,,,0,3,3,1,0,7,7,5,,,,,,,,,1,2.8351030430058017,,,056,001,2019_May_21_1613,MusicAffectPsychophysiology2019,3.0.5,59.663856221601556,
To what extent did the music make you feel ,ASHAMED,30MonoWAV/30MonoF2.wav,1,2,2,2,,,,,0,3,3,1,0,8,8,4,,,,,,,,,1,3.7742101030016784,,,056,001,2019_May_21_1613,MusicAffectPsychophysiology2019,3.0.5,59.663856221601556,
To what extent did the music make you feel ,TENDER,30MonoWAV/30MonoF2.wav,1,2,2,2,,,,,0,3,3,1,0,9,9,10,,,,,,,,,1,3.05477046300075,,,056,001,2019_May_21_1613,MusicAffectPsychophysiology2019,3.0.5,59.663856221601556,
To what extent did the music make you feel ,SAD,30MonoWAV/30MonoF2.wav,1,2,2,2,,,,,0,3,3,1,0,10,10,0,,,,,,,,,1,1.90396204800345,,,056,001,2019_May_21_1613,MusicAffectPsychophysiology2019,3.0.5,59.663856221601556,
To what extent did the music make you feel ,SCARED,30MonoWAV/30MonoF2.wav,1,2,2,2,,,,,0,3,3,1,0,11,11,11,,,,,,,,,3,4.272438546991907,,,056,001,2019_May_21_1613,MusicAffectPsychophysiology2019,3.0.5,59.663856221601556,
,,30MonoWAV/30MonoF2.wav,1,2,2,2,,,,,0,3,3,1,,,,,,,,,,,,,,,,,056,001,2019_May_21_1613,MusicAffectPsychophysiology2019,3.0.5,59.663856221601556,
To what extent did the music make you feel ,FRUSTRATED,30MonoWAV/30MonoS2.wav,1,1,3,10,,,,,0,4,4,9,0,0,0,3,,,3,3.3957569699996384,3,2.651407665995066,3,3.351369429001352,1,1.1840934729989385,,,056,001,2019_May_21_1613,MusicAffectPsychophysiology2019,3.0.5,59.663856221601556,
To what extent did the music make you feel ,ASHAMED,30MonoWAV/30MonoS2.wav,1,1,3,10,,,,,0,4,4,9,0,1,1,4,,,,,,,,,1,0.8015803680027602,,,056,001,2019_May_21_1613,MusicAffectPsychophysiology2019,3.0.5,59.663856221601556,
To what extent did the music make you feel ,HAPPY,30MonoWAV/30MonoS2.wav,1,1,3,10,,,,,0,4,4,9,0,2,2,6,,,,,,,,,3,1.5014136669924483,,,056,001,2019_May_21_1613,MusicAffectPsychophysiology2019,3.0.5,59.663856221601556,
To what extent did the music make you feel ,ALERT,30MonoWAV/30MonoS2.wav,1,1,3,10,,,,,0,4,4,9,0,3,3,8,,,,,,,,,2,2.834622794005554,,,056,001,2019_May_21_1613,MusicAffectPsychophysiology2019,3.0.5,59.663856221601556,
To what extent did the music make you feel ,GUILTY,30MonoWAV/30MonoS2.wav,1,1,3,10,,,,,0,4,4,9,0,4,4,5,,,,,,,,,1,3.001028591999784,,,056,001,2019_May_21_1613,MusicAffectPsychophysiology2019,3.0.5,59.663856221601556,
To what extent did the music make you feel ,SCARED,30MonoWAV/30MonoS2.wav,1,1,3,10,,,,,0,4,4,9,0,5,5,11,,,,,,,,,1,0.9519705090060597,,,056,001,2019_May_21_1613,MusicAffectPsychophysiology2019,3.0.5,59.663856221601556,
To what extent did the music make you feel ,SAD,30MonoWAV/30MonoS2.wav,1,1,3,10,,,,,0,4,4,9,0,6,6,0,,,,,,,,,2,1.7678619049984263,,,056,001,2019_May_21_1613,MusicAffectPsychophysiology2019,3.0.5,59.663856221601556,
To what extent did the music make you feel ,ACTIVE,30MonoWAV/30MonoS2.wav,1,1,3,10,,,,,0,4,4,9,0,7,7,9,,,,,,,,,1,3.968933897005627,,,056,001,2019_May_21_1613,MusicAffectPsychophysiology2019,3.0.5,59.663856221601556,
To what extent did the music make you feel ,ANGRY,30MonoWAV/30MonoS2.wav,1,1,3,10,,,,,0,4,4,9,0,8,8,2,,,,,,,,,1,0.9854292959935265,,,056,001,2019_May_21_1613,MusicAffectPsychophysiology2019,3.0.5,59.663856221601556,
To what extent did the music make you feel ,ANXIOUS ,30MonoWAV/30MonoS2.wav,1,1,3,10,,,,,0,4,4,9,0,9,9,1,,,,,,,,,1,0.8836915729916655,,,056,001,2019_May_21_1613,MusicAffectPsychophysiology2019,3.0.5,59.663856221601556,
To what extent did the music make you feel ,TENDER,30MonoWAV/30MonoS2.wav,1,1,3,10,,,,,0,4,4,9,0,10,10,10,,,,,,,,,3,1.617281325001386,,,056,001,2019_May_21_1613,MusicAffectPsychophysiology2019,3.0.5,59.663856221601556,
To what extent did the music make you feel ,EXCITED,30MonoWAV/30MonoS2.wav,1,1,3,10,,,,,0,4,4,9,0,11,11,7,,,,,,,,,2,1.8687287250068039,,,056,001,2019_May_21_1613,MusicAffectPsychophysiology2019,3.0.5,59.663856221601556,
,,30MonoWAV/30MonoS2.wav,1,1,3,10,,,,,0,4,4,9,,,,,,,,,,,,,,,,,056,001,2019_May_21_1613,MusicAffectPsychophysiology2019,3.0.5,59.663856221601556,
To what extent did the music make you feel ,ACTIVE,30MonoWAV/30MonoS1.wav,1,1,3,9,,,,,0,5,5,8,0,0,0,9,,,1,4.6359407829877455,3,2.149702269001864,3,1.1682293310004752,1,2.569083390000742,,,056,001,2019_May_21_1613,MusicAffectPsychophysiology2019,3.0.5,59.663856221601556,
To what extent did the music make you feel ,ALERT,30MonoWAV/30MonoS1.wav,1,1,3,9,,,,,0,5,5,8,0,1,1,8,,,,,,,,,1,1.418549811001867,,,056,001,2019_May_21_1613,MusicAffectPsychophysiology2019,3.0.5,59.663856221601556,
To what extent did the music make you feel ,EXCITED,30MonoWAV/30MonoS1.wav,1,1,3,9,,,,,0,5,5,8,0,2,2,7,,,,,,,,,2,2.1835487359930994,,,056,001,2019_May_21_1613,MusicAffectPsychophysiology2019,3.0.5,59.663856221601556,
To what extent did the music make you feel ,ASHAMED,30MonoWAV/30MonoS1.wav,1,1,3,9,,,,,0,5,5,8,0,3,3,4,,,,,,,,,1,0.7011251680087298,,,056,001,2019_May_21_1613,MusicAffectPsychophysiology2019,3.0.5,59.663856221601556,
To what extent did the music make you feel ,HAPPY,30MonoWAV/30MonoS1.wav,1,1,3,9,,,,,0,5,5,8,0,4,4,6,,,,,,,,,3,1.8349196240014862,,,056,001,2019_May_21_1613,MusicAffectPsychophysiology2019,3.0.5,59.663856221601556,
To what extent did the music make you feel ,ANGRY,30MonoWAV/30MonoS1.wav,1,1,3,9,,,,,0,5,5,8,0,5,5,2,,,,,,,,,1,0.8165846919873729,,,056,001,2019_May_21_1613,MusicAffectPsychophysiology2019,3.0.5,59.663856221601556,
To what extent did the music make you feel ,GUILTY,30MonoWAV/30MonoS1.wav,1,1,3,9,,,,,0,5,5,8,0,6,6,5,,,,,,,,,1,0.6354879720020108,,,056,001,2019_May_21_1613,MusicAffectPsychophysiology2019,3.0.5,59.663856221601556,
To what extent did the music make you feel ,SAD,30MonoWAV/30MonoS1.wav,1,1,3,9,,,,,0,5,5,8,0,7,7,0,,,,,,,,,1,1.1017725529964082,,,056,001,2019_May_21_1613,MusicAffectPsychophysiology2019,3.0.5,59.663856221601556,
To what extent did the music make you feel ,FRUSTRATED,30MonoWAV/30MonoS1.wav,1,1,3,9,,,,,0,5,5,8,0,8,8,3,,,,,,,,,1,3.201908741000807,,,056,001,2019_May_21_1613,MusicAffectPsychophysiology2019,3.0.5,59.663856221601556,
To what extent did the music make you feel ,TENDER,30MonoWAV/30MonoS1.wav,1,1,3,9,,,,,0,5,5,8,0,9,9,10,,,,,,,,,2,1.3996572790056234,,,056,001,2019_May_21_1613,MusicAffectPsychophysiology2019,3.0.5,59.663856221601556,
To what extent did the music make you feel ,ANXIOUS ,30MonoWAV/30MonoS1.wav,1,1,3,9,,,,,0,5,5,8,0,10,10,1,,,,,,,,,1,4.684378448000643,,,056,001,2019_May_21_1613,MusicAffectPsychophysiology2019,3.0.5,59.663856221601556,
To what extent did the music make you feel ,SCARED,30MonoWAV/30MonoS1.wav,1,1,3,9,,,,,0,5,5,8,0,11,11,11,,,,,,,,,1,0.83575091601233,,,056,001,2019_May_21_1613,MusicAffectPsychophysiology2019,3.0.5,59.663856221601556,
,,30MonoWAV/30MonoS1.wav,1,1,3,9,,,,,0,5,5,8,,,,,,,,,,,,,,,,,056,001,2019_May_21_1613,MusicAffectPsychophysiology2019,3.0.5,59.663856221601556,
To what extent did the music make you feel ,ACTIVE,30MonoWAV/30MonoT4.wav,2,1,4,16,,,,,0,6,6,15,0,0,0,9,,,2,3.1707297620014288,3,2.154380770007265,4,2.255954655993264,1,2.6687257349985885,,,056,001,2019_May_21_1613,MusicAffectPsychophysiology2019,3.0.5,59.663856221601556,
To what extent did the music make you feel ,ALERT,30MonoWAV/30MonoT4.wav,2,1,4,16,,,,,0,6,6,15,0,1,1,8,,,,,,,,,1,1.805157306996989,,,056,001,2019_May_21_1613,MusicAffectPsychophysiology2019,3.0.5,59.663856221601556,
To what extent did the music make you feel ,SCARED,30MonoWAV/30MonoT4.wav,2,1,4,16,,,,,0,6,6,15,0,2,2,11,,,,,,,,,1,2.2542315250029787,,,056,001,2019_May_21_1613,MusicAffectPsychophysiology2019,3.0.5,59.663856221601556,
To what extent did the music make you feel ,FRUSTRATED,30MonoWAV/30MonoT4.wav,2,1,4,16,,,,,0,6,6,15,0,3,3,3,,,,,,,,,1,0.9696776170021622,,,056,001,2019_May_21_1613,MusicAffectPsychophysiology2019,3.0.5,59.663856221601556,
To what extent did the music make you feel ,GUILTY,30MonoWAV/30MonoT4.wav,2,1,4,16,,,,,0,6,6,15,0,4,4,5,,,,,,,,,1,1.0033777190110413,,,056,001,2019_May_21_1613,MusicAffectPsychophysiology2019,3.0.5,59.663856221601556,
To what extent did the music make you feel ,TENDER,30MonoWAV/30MonoT4.wav,2,1,4,16,,,,,0,6,6,15,0,5,5,10,,,,,,,,,3,1.8712073839997174,,,056,001,2019_May_21_1613,MusicAffectPsychophysiology2019,3.0.5,59.663856221601556,
To what extent did the music make you feel ,ANGRY,30MonoWAV/30MonoT4.wav,2,1,4,16,,,,,0,6,6,15,0,6,6,2,,,,,,,,,1,2.8071175799996126,,,056,001,2019_May_21_1613,MusicAffectPsychophysiology2019,3.0.5,59.663856221601556,
To what extent did the music make you feel ,ASHAMED,30MonoWAV/30MonoT4.wav,2,1,4,16,,,,,0,6,6,15,0,7,7,4,,,,,,,,,1,2.5353422919870354,,,056,001,2019_May_21_1613,MusicAffectPsychophysiology2019,3.0.5,59.663856221601556,
To what extent did the music make you feel ,EXCITED,30MonoWAV/30MonoT4.wav,2,1,4,16,,,,,0,6,6,15,0,8,8,7,,,,,,,,,2,1.7689962779986672,,,056,001,2019_May_21_1613,MusicAffectPsychophysiology2019,3.0.5,59.663856221601556,
To what extent did the music make you feel ,SAD,30MonoWAV/30MonoT4.wav,2,1,4,16,,,,,0,6,6,15,0,9,9,0,,,,,,,,,1,2.5684741199947894,,,056,001,2019_May_21_1613,MusicAffectPsychophysiology2019,3.0.5,59.663856221601556,
To what extent did the music make you feel ,HAPPY,30MonoWAV/30MonoT4.wav,2,1,4,16,,,,,0,6,6,15,0,10,10,6,,,,,,,,,3,3.0345727519888896,,,056,001,2019_May_21_1613,MusicAffectPsychophysiology2019,3.0.5,59.663856221601556,
To what extent did the music make you feel ,ANXIOUS ,30MonoWAV/30MonoT4.wav,2,1,4,16,,,,,0,6,6,15,0,11,11,1,,,,,,,,,1,4.051592860996607,,,056,001,2019_May_21_1613,MusicAffectPsychophysiology2019,3.0.5,59.663856221601556,
,,30MonoWAV/30MonoT4.wav,2,1,4,16,,,,,0,6,6,15,,,,,,,,,,,,,,,,,056,001,2019_May_21_1613,MusicAffectPsychophysiology2019,3.0.5,59.663856221601556,
To what extent did the music make you feel ,GUILTY,30MonoWAV/30MonoH3.wav,2,2,1,7,,,,,0,7,7,6,0,0,0,5,,,3,4.007685846008826,4,5.5932276739913505,3,2.0684534370084293,1,1.0021797759982292,,,056,001,2019_May_21_1613,MusicAffectPsychophysiology2019,3.0.5,59.663856221601556,
To what extent did the music make you feel ,TENDER,30MonoWAV/30MonoH3.wav,2,2,1,7,,,,,0,7,7,6,0,1,1,10,,,,,,,,,2,2.3063999009900726,,,056,001,2019_May_21_1613,MusicAffectPsychophysiology2019,3.0.5,59.663856221601556,
To what extent did the music make you feel ,SAD,30MonoWAV/30MonoH3.wav,2,2,1,7,,,,,0,7,7,6,0,2,2,0,,,,,,,,,1,1.3536042380001163,,,056,001,2019_May_21_1613,MusicAffectPsychophysiology2019,3.0.5,59.663856221601556,
To what extent did the music make you feel ,ALERT,30MonoWAV/30MonoH3.wav,2,2,1,7,,,,,0,7,7,6,0,3,3,8,,,,,,,,,2,2.704385336008272,,,056,001,2019_May_21_1613,MusicAffectPsychophysiology2019,3.0.5,59.663856221601556,
To what extent did the music make you feel ,ASHAMED,30MonoWAV/30MonoH3.wav,2,2,1,7,,,,,0,7,7,6,0,4,4,4,,,,,,,,,1,0.7190199689939618,,,056,001,2019_May_21_1613,MusicAffectPsychophysiology2019,3.0.5,59.663856221601556,
To what extent did the music make you feel ,ANGRY,30MonoWAV/30MonoH3.wav,2,2,1,7,,,,,0,7,7,6,0,5,5,2,,,,,,,,,1,0.8354422349948436,,,056,001,2019_May_21_1613,MusicAffectPsychophysiology2019,3.0.5,59.663856221601556,
To what extent did the music make you feel ,ACTIVE,30MonoWAV/30MonoH3.wav,2,2,1,7,,,,,0,7,7,6,0,6,6,9,,,,,,,,,2,1.9064322909980547,,,056,001,2019_May_21_1613,MusicAffectPsychophysiology2019,3.0.5,59.663856221601556,
To what extent did the music make you feel ,EXCITED,30MonoWAV/30MonoH3.wav,2,2,1,7,,,,,0,7,7,6,0,7,7,7,,,,,,,,,3,2.0179850620043,,,056,001,2019_May_21_1613,MusicAffectPsychophysiology2019,3.0.5,59.663856221601556,
To what extent did the music make you feel ,FRUSTRATED,30MonoWAV/30MonoH3.wav,2,2,1,7,,,,,0,7,7,6,0,8,8,3,,,,,,,,,1,0.8685163659974933,,,056,001,2019_May_21_1613,MusicAffectPsychophysiology2019,3.0.5,59.663856221601556,
To what extent did the music make you feel ,HAPPY,30MonoWAV/30MonoH3.wav,2,2,1,7,,,,,0,7,7,6,0,9,9,6,,,,,,,,,4,2.651582521997625,,,056,001,2019_May_21_1613,MusicAffectPsychophysiology2019,3.0.5,59.663856221601556,
To what extent did the music make you feel ,ANXIOUS ,30MonoWAV/30MonoH3.wav,2,2,1,7,,,,,0,7,7,6,0,10,10,1,,,,,,,,,1,4.634612242007279,,,056,001,2019_May_21_1613,MusicAffectPsychophysiology2019,3.0.5,59.663856221601556,
To what extent did the music make you feel ,SCARED,30MonoWAV/30MonoH3.wav,2,2,1,7,,,,,0,7,7,6,0,11,11,11,,,,,,,,,1,0.8183966249926016,,,056,001,2019_May_21_1613,MusicAffectPsychophysiology2019,3.0.5,59.663856221601556,
,,30MonoWAV/30MonoH3.wav,2,2,1,7,,,,,0,7,7,6,,,,,,,,,,,,,,,,,056,001,2019_May_21_1613,MusicAffectPsychophysiology2019,3.0.5,59.663856221601556,
To what extent did the music make you feel ,TENDER,30MonoWAV/30MonoH1.wav,2,2,1,5,,,,,0,8,8,4,0,0,0,10,,,5,4.585674086003564,5,1.2180415390030248,5,0.9512016960070468,3,3.900027538998984,,,056,001,2019_May_21_1613,MusicAffectPsychophysiology2019,3.0.5,59.663856221601556,
To what extent did the music make you feel ,FRUSTRATED,30MonoWAV/30MonoH1.wav,2,2,1,5,,,,,0,8,8,4,0,1,1,3,,,,,,,,,1,1.9995446800021455,,,056,001,2019_May_21_1613,MusicAffectPsychophysiology2019,3.0.5,59.663856221601556,
To what extent did the music make you feel ,SAD,30MonoWAV/30MonoH1.wav,2,2,1,5,,,,,0,8,8,4,0,2,2,0,,,,,,,,,1,0.917656965990318,,,056,001,2019_May_21_1613,MusicAffectPsychophysiology2019,3.0.5,59.663856221601556,
To what extent did the music make you feel ,SCARED,30MonoWAV/30MonoH1.wav,2,2,1,5,,,,,0,8,8,4,0,3,3,11,,,,,,,,,1,0.9024666080076713,,,056,001,2019_May_21_1613,MusicAffectPsychophysiology2019,3.0.5,59.663856221601556,
To what extent did the music make you feel ,ANXIOUS ,30MonoWAV/30MonoH1.wav,2,2,1,5,,,,,0,8,8,4,0,4,4,1,,,,,,,,,1,1.1686549820005894,,,056,001,2019_May_21_1613,MusicAffectPsychophysiology2019,3.0.5,59.663856221601556,
To what extent did the music make you feel ,GUILTY,30MonoWAV/30MonoH1.wav,2,2,1,5,,,,,0,8,8,4,0,5,5,5,,,,,,,,,1,0.8194041700044181,,,056,001,2019_May_21_1613,MusicAffectPsychophysiology2019,3.0.5,59.663856221601556,
To what extent did the music make you feel ,EXCITED,30MonoWAV/30MonoH1.wav,2,2,1,5,,,,,0,8,8,4,0,6,6,7,,,,,,,,,3,3.5421638609986985,,,056,001,2019_May_21_1613,MusicAffectPsychophysiology2019,3.0.5,59.663856221601556,
To what extent did the music make you feel ,ALERT,30MonoWAV/30MonoH1.wav,2,2,1,5,,,,,0,8,8,4,0,7,7,8,,,,,,,,,1,1.3867351110093296,,,056,001,2019_May_21_1613,MusicAffectPsychophysiology2019,3.0.5,59.663856221601556,
To what extent did the music make you feel ,ASHAMED,30MonoWAV/30MonoH1.wav,2,2,1,5,,,,,0,8,8,4,0,8,8,4,,,,,,,,,1,4.309136953001143,,,056,001,2019_May_21_1613,MusicAffectPsychophysiology2019,3.0.5,59.663856221601556,
To what extent did the music make you feel ,ANGRY,30MonoWAV/30MonoH1.wav,2,2,1,5,,,,,0,8,8,4,0,9,9,2,,,,,,,,,1,0.8349971509887837,,,056,001,2019_May_21_1613,MusicAffectPsychophysiology2019,3.0.5,59.663856221601556,
To what extent did the music make you feel ,ACTIVE,30MonoWAV/30MonoH1.wav,2,2,1,5,,,,,0,8,8,4,0,10,10,9,,,,,,,,,4,2.6678635019925423,,,056,001,2019_May_21_1613,MusicAffectPsychophysiology2019,3.0.5,59.663856221601556,
To what extent did the music make you feel ,HAPPY,30MonoWAV/30MonoH1.wav,2,2,1,5,,,,,0,8,8,4,0,11,11,6,,,,,,,,,4,1.6859228480025195,,,056,001,2019_May_21_1613,MusicAffectPsychophysiology2019,3.0.5,59.663856221601556,
,,30MonoWAV/30MonoH1.wav,2,2,1,5,,,,,0,8,8,4,,,,,,,,,,,,,,,,,056,001,2019_May_21_1613,MusicAffectPsychophysiology2019,3.0.5,59.663856221601556,
To what extent did the music make you feel ,ACTIVE,30MonoWAV/30MonoH4.wav,2,2,1,8,,,,,0,9,9,7,0,0,0,9,,,3,6.817521167991799,4,1.4346429260040168,4,2.085263343004044,3,2.801635415002238,,,056,001,2019_May_21_1613,MusicAffectPsychophysiology2019,3.0.5,59.663856221601556,
To what extent did the music make you feel ,ANGRY,30MonoWAV/30MonoH4.wav,2,2,1,8,,,,,0,9,9,7,0,1,1,2,,,,,,,,,1,1.2184167630039155,,,056,001,2019_May_21_1613,MusicAffectPsychophysiology2019,3.0.5,59.663856221601556,
To what extent did the music make you feel ,SCARED,30MonoWAV/30MonoH4.wav,2,2,1,8,,,,,0,9,9,7,0,2,2,11,,,,,,,,,1,0.767860040999949,,,056,001,2019_May_21_1613,MusicAffectPsychophysiology2019,3.0.5,59.663856221601556,
To what extent did the music make you feel ,FRUSTRATED,30MonoWAV/30MonoH4.wav,2,2,1,8,,,,,0,9,9,7,0,3,3,3,,,,,,,,,1,0.6524501039966708,,,056,001,2019_May_21_1613,MusicAffectPsychophysiology2019,3.0.5,59.663856221601556,
To what extent did the music make you feel ,SAD,30MonoWAV/30MonoH4.wav,2,2,1,8,,,,,0,9,9,7,0,4,4,0,,,,,,,,,1,1.1014949600066757,,,056,001,2019_May_21_1613,MusicAffectPsychophysiology2019,3.0.5,59.663856221601556,
To what extent did the music make you feel ,TENDER,30MonoWAV/30MonoH4.wav,2,2,1,8,,,,,0,9,9,7,0,5,5,10,,,,,,,,,2,1.5351491850015009,,,056,001,2019_May_21_1613,MusicAffectPsychophysiology2019,3.0.5,59.663856221601556,
To what extent did the music make you feel ,EXCITED,30MonoWAV/30MonoH4.wav,2,2,1,8,,,,,0,9,9,7,0,6,6,7,,,,,,,,,3,6.401474098995095,,,056,001,2019_May_21_1613,MusicAffectPsychophysiology2019,3.0.5,59.663856221601556,
To what extent did the music make you feel ,ASHAMED,30MonoWAV/30MonoH4.wav,2,2,1,8,,,,,0,9,9,7,0,7,7,4,,,,,,,,,1,0.8352342449943535,,,056,001,2019_May_21_1613,MusicAffectPsychophysiology2019,3.0.5,59.663856221601556,
To what extent did the music make you feel ,ALERT,30MonoWAV/30MonoH4.wav,2,2,1,8,,,,,0,9,9,7,0,8,8,8,,,,,,,,,1,0.6677005649980856,,,056,001,2019_May_21_1613,MusicAffectPsychophysiology2019,3.0.5,59.663856221601556,
To what extent did the music make you feel ,ANXIOUS ,30MonoWAV/30MonoH4.wav,2,2,1,8,,,,,0,9,9,7,0,9,9,1,,,,,,,,,1,3.6850646209932165,,,056,001,2019_May_21_1613,MusicAffectPsychophysiology2019,3.0.5,59.663856221601556,
To what extent did the music make you feel ,GUILTY,30MonoWAV/30MonoH4.wav,2,2,1,8,,,,,0,9,9,7,0,10,10,5,,,,,,,,,1,0.8001754849974532,,,056,001,2019_May_21_1613,MusicAffectPsychophysiology2019,3.0.5,59.663856221601556,
To what extent did the music make you feel ,HAPPY,30MonoWAV/30MonoH4.wav,2,2,1,8,,,,,0,9,9,7,0,11,11,6,,,,,,,,,3,1.1838624679949135,,,056,001,2019_May_21_1613,MusicAffectPsychophysiology2019,3.0.5,59.663856221601556,
,,30MonoWAV/30MonoH4.wav,2,2,1,8,,,,,0,9,9,7,,,,,,,,,,,,,,,,,056,001,2019_May_21_1613,MusicAffectPsychophysiology2019,3.0.5,59.663856221601556,
To what extent did the music make you feel ,EXCITED,30MonoWAV/30MonoT3.wav,2,1,4,15,,,,,0,10,10,14,0,0,0,7,,,3,3.122465961991111,4,1.3536464860080741,3,1.6047433930070838,2,2.4022170340031153,,,056,001,2019_May_21_1613,MusicAffectPsychophysiology2019,3.0.5,59.663856221601556,
To what extent did the music make you feel ,SAD,30MonoWAV/30MonoT3.wav,2,1,4,15,,,,,0,10,10,14,0,1,1,0,,,,,,,,,1,1.5169513750006445,,,056,001,2019_May_21_1613,MusicAffectPsychophysiology2019,3.0.5,59.663856221601556,
To what extent did the music make you feel ,GUILTY,30MonoWAV/30MonoT3.wav,2,1,4,15,,,,,0,10,10,14,0,2,2,5,,,,,,,,,1,0.7685275559924776,,,056,001,2019_May_21_1613,MusicAffectPsychophysiology2019,3.0.5,59.663856221601556,
To what extent did the music make you feel ,ALERT,30MonoWAV/30MonoT3.wav,2,1,4,15,,,,,0,10,10,14,0,3,3,8,,,,,,,,,1,1.368246686004568,,,056,001,2019_May_21_1613,MusicAffectPsychophysiology2019,3.0.5,59.663856221601556,
To what extent did the music make you feel ,ASHAMED,30MonoWAV/30MonoT3.wav,2,1,4,15,,,,,0,10,10,14,0,4,4,4,,,,,,,,,1,2.0017938450037036,,,056,001,2019_May_21_1613,MusicAffectPsychophysiology2019,3.0.5,59.663856221601556,
To what extent did the music make you feel ,ANGRY,30MonoWAV/30MonoT3.wav,2,1,4,15,,,,,0,10,10,14,0,5,5,2,,,,,,,,,1,1.0673263820062857,,,056,001,2019_May_21_1613,MusicAffectPsychophysiology2019,3.0.5,59.663856221601556,
To what extent did the music make you feel ,ANXIOUS ,30MonoWAV/30MonoT3.wav,2,1,4,15,,,,,0,10,10,14,0,6,6,1,,,,,,,,,1,1.0355958330037538,,,056,001,2019_May_21_1613,MusicAffectPsychophysiology2019,3.0.5,59.663856221601556,
To what extent did the music make you feel ,HAPPY,30MonoWAV/30MonoT3.wav,2,1,4,15,,,,,0,10,10,14,0,7,7,6,,,,,,,,,3,1.8177212959999451,,,056,001,2019_May_21_1613,MusicAffectPsychophysiology2019,3.0.5,59.663856221601556,
To what extent did the music make you feel ,ACTIVE,30MonoWAV/30MonoT3.wav,2,1,4,15,,,,,0,10,10,14,0,8,8,9,,,,,,,,,2,2.2176751110091573,,,056,001,2019_May_21_1613,MusicAffectPsychophysiology2019,3.0.5,59.663856221601556,
To what extent did the music make you feel ,SCARED,30MonoWAV/30MonoT3.wav,2,1,4,15,,,,,0,10,10,14,0,9,9,11,,,,,,,,,1,1.635703995008953,,,056,001,2019_May_21_1613,MusicAffectPsychophysiology2019,3.0.5,59.663856221601556,
To what extent did the music make you feel ,FRUSTRATED,30MonoWAV/30MonoT3.wav,2,1,4,15,,,,,0,10,10,14,0,10,10,3,,,,,,,,,1,0.8189399169932585,,,056,001,2019_May_21_1613,MusicAffectPsychophysiology2019,3.0.5,59.663856221601556,
To what extent did the music make you feel ,TENDER,30MonoWAV/30MonoT3.wav,2,1,4,15,,,,,0,10,10,14,0,11,11,10,,,,,,,,,1,1.184122713006218,,,056,001,2019_May_21_1613,MusicAffectPsychophysiology2019,3.0.5,59.663856221601556,
,,30MonoWAV/30MonoT3.wav,2,1,4,15,,,,,0,10,10,14,,,,,,,,,,,,,,,,,056,001,2019_May_21_1613,MusicAffectPsychophysiology2019,3.0.5,59.663856221601556,
To what extent did the music make you feel ,SCARED,30MonoWAV/30MonoS4.wav,1,1,3,12,,,,,0,11,11,11,0,0,0,11,,,1,5.43396286299685,3,2.334536308000679,2,2.1507752430043183,1,0.9667369879898615,,,056,001,2019_May_21_1613,MusicAffectPsychophysiology2019,3.0.5,59.663856221601556,
To what extent did the music make you feel ,GUILTY,30MonoWAV/30MonoS4.wav,1,1,3,12,,,,,0,11,11,11,0,1,1,5,,,,,,,,,1,0.5844713730039075,,,056,001,2019_May_21_1613,MusicAffectPsychophysiology2019,3.0.5,59.663856221601556,
To what extent did the music make you feel ,HAPPY,30MonoWAV/30MonoS4.wav,1,1,3,12,,,,,0,11,11,11,0,2,2,6,,,,,,,,,2,4.451754080000683,,,056,001,2019_May_21_1613,MusicAffectPsychophysiology2019,3.0.5,59.663856221601556,
To what extent did the music make you feel ,SAD,30MonoWAV/30MonoS4.wav,1,1,3,12,,,,,0,11,11,11,0,3,3,0,,,,,,,,,3,3.9504921900079353,,,056,001,2019_May_21_1613,MusicAffectPsychophysiology2019,3.0.5,59.663856221601556,
To what extent did the music make you feel ,EXCITED,30MonoWAV/30MonoS4.wav,1,1,3,12,,,,,0,11,11,11,0,4,4,7,,,,,,,,,1,3.5351859179936582,,,056,001,2019_May_21_1613,MusicAffectPsychophysiology2019,3.0.5,59.663856221601556,
To what extent did the music make you feel ,ALERT,30MonoWAV/30MonoS4.wav,1,1,3,12,,,,,0,11,11,11,0,5,5,8,,,,,,,,,1,1.219747680996079,,,056,001,2019_May_21_1613,MusicAffectPsychophysiology2019,3.0.5,59.663856221601556,
To what extent did the music make you feel ,ANXIOUS ,30MonoWAV/30MonoS4.wav,1,1,3,12,,,,,0,11,11,11,0,6,6,1,,,,,,,,,1,0.7347921399923507,,,056,001,2019_May_21_1613,MusicAffectPsychophysiology2019,3.0.5,59.663856221601556,
To what extent did the music make you feel ,TENDER,30MonoWAV/30MonoS4.wav,1,1,3,12,,,,,0,11,11,11,0,7,7,10,,,,,,,,,1,0.984939261994441,,,056,001,2019_May_21_1613,MusicAffectPsychophysiology2019,3.0.5,59.663856221601556,
To what extent did the music make you feel ,ACTIVE,30MonoWAV/30MonoS4.wav,1,1,3,12,,,,,0,11,11,11,0,8,8,9,,,,,,,,,1,1.8847968229965772,,,056,001,2019_May_21_1613,MusicAffectPsychophysiology2019,3.0.5,59.663856221601556,
To what extent did the music make you feel ,FRUSTRATED,30MonoWAV/30MonoS4.wav,1,1,3,12,,,,,0,11,11,11,0,9,9,3,,,,,,,,,1,0.9191799249965698,,,056,001,2019_May_21_1613,MusicAffectPsychophysiology2019,3.0.5,59.663856221601556,
To what extent did the music make you feel ,ANGRY,30MonoWAV/30MonoS4.wav,1,1,3,12,,,,,0,11,11,11,0,10,10,2,,,,,,,,,1,0.6174932900030399,,,056,001,2019_May_21_1613,MusicAffectPsychophysiology2019,3.0.5,59.663856221601556,
To what extent did the music make you feel ,ASHAMED,30MonoWAV/30MonoS4.wav,1,1,3,12,,,,,0,11,11,11,0,11,11,4,,,,,,,,,1,0.9512586229975568,,,056,001,2019_May_21_1613,MusicAffectPsychophysiology2019,3.0.5,59.663856221601556,
,,30MonoWAV/30MonoS4.wav,1,1,3,12,,,,,0,11,11,11,,,,,,,,,,,,,,,,,056,001,2019_May_21_1613,MusicAffectPsychophysiology2019,3.0.5,59.663856221601556,
To what extent did the music make you feel ,ANGRY,30MonoWAV/30MonoT2.wav,2,1,4,14,,,,,0,12,12,13,0,0,0,2,,,3,4.434458881994942,4,3.8855490519927116,3,1.3186231820000103,1,1.3517647440021392,,,056,001,2019_May_21_1613,MusicAffectPsychophysiology2019,3.0.5,59.663856221601556,
To what extent did the music make you feel ,SCARED,30MonoWAV/30MonoT2.wav,2,1,4,14,,,,,0,12,12,13,0,1,1,11,,,,,,,,,1,0.8024138030014001,,,056,001,2019_May_21_1613,MusicAffectPsychophysiology2019,3.0.5,59.663856221601556,
To what extent did the music make you feel ,FRUSTRATED,30MonoWAV/30MonoT2.wav,2,1,4,14,,,,,0,12,12,13,0,2,2,3,,,,,,,,,1,0.7678814539976884,,,056,001,2019_May_21_1613,MusicAffectPsychophysiology2019,3.0.5,59.663856221601556,
To what extent did the music make you feel ,ALERT,30MonoWAV/30MonoT2.wav,2,1,4,14,,,,,0,12,12,13,0,3,3,8,,,,,,,,,1,1.9848941280069994,,,056,001,2019_May_21_1613,MusicAffectPsychophysiology2019,3.0.5,59.663856221601556,
To what extent did the music make you feel ,ACTIVE,30MonoWAV/30MonoT2.wav,2,1,4,14,,,,,0,12,12,13,0,4,4,9,,,,,,,,,2,2.083083738994901,,,056,001,2019_May_21_1613,MusicAffectPsychophysiology2019,3.0.5,59.663856221601556,
To what extent did the music make you feel ,EXCITED,30MonoWAV/30MonoT2.wav,2,1,4,14,,,,,0,12,12,13,0,5,5,7,,,,,,,,,2,2.3694440399995074,,,056,001,2019_May_21_1613,MusicAffectPsychophysiology2019,3.0.5,59.663856221601556,
To what extent did the music make you feel ,TENDER,30MonoWAV/30MonoT2.wav,2,1,4,14,,,,,0,12,12,13,0,6,6,10,,,,,,,,,3,2.3345146479987307,,,056,001,2019_May_21_1613,MusicAffectPsychophysiology2019,3.0.5,59.663856221601556,
To what extent did the music make you feel ,HAPPY,30MonoWAV/30MonoT2.wav,2,1,4,14,,,,,0,12,12,13,0,7,7,6,,,,,,,,,3,3.5340317800000776,,,056,001,2019_May_21_1613,MusicAffectPsychophysiology2019,3.0.5,59.663856221601556,
To what extent did the music make you feel ,ASHAMED,30MonoWAV/30MonoT2.wav,2,1,4,14,,,,,0,12,12,13,0,8,8,4,,,,,,,,,1,0.9846627590013668,,,056,001,2019_May_21_1613,MusicAffectPsychophysiology2019,3.0.5,59.663856221601556,
To what extent did the music make you feel ,ANXIOUS ,30MonoWAV/30MonoT2.wav,2,1,4,14,,,,,0,12,12,13,0,9,9,1,,,,,,,,,1,1.1352278940030374,,,056,001,2019_May_21_1613,MusicAffectPsychophysiology2019,3.0.5,59.663856221601556,
To what extent did the music make you feel ,SAD,30MonoWAV/30MonoT2.wav,2,1,4,14,,,,,0,12,12,13,0,10,10,0,,,,,,,,,1,1.6180793499952415,,,056,001,2019_May_21_1613,MusicAffectPsychophysiology2019,3.0.5,59.663856221601556,
To what extent did the music make you feel ,GUILTY,30MonoWAV/30MonoT2.wav,2,1,4,14,,,,,0,12,12,13,0,11,11,5,,,,,,,,,1,0.7497798080003122,,,056,001,2019_May_21_1613,MusicAffectPsychophysiology2019,3.0.5,59.663856221601556,
,,30MonoWAV/30MonoT2.wav,2,1,4,14,,,,,0,12,12,13,,,,,,,,,,,,,,,,,056,001,2019_May_21_1613,MusicAffectPsychophysiology2019,3.0.5,59.663856221601556,
To what extent did the music make you feel ,ACTIVE,30MonoWAV/30MonoF4.wav,1,2,2,4,,,,,0,13,13,3,0,0,0,9,,,4,5.185457365994807,2,2.2998164409946185,2,1.768285266996827,3,1.8187179439992178,,,056,001,2019_May_21_1613,MusicAffectPsychophysiology2019,3.0.5,59.663856221601556,
To what extent did the music make you feel ,ANGRY,30MonoWAV/30MonoF4.wav,1,2,2,4,,,,,0,13,13,3,0,1,1,2,,,,,,,,,1,1.7522200050007086,,,056,001,2019_May_21_1613,MusicAffectPsychophysiology2019,3.0.5,59.663856221601556,
To what extent did the music make you feel ,SCARED,30MonoWAV/30MonoF4.wav,1,2,2,4,,,,,0,13,13,3,0,2,2,11,,,,,,,,,2,2.318431726991548,,,056,001,2019_May_21_1613,MusicAffectPsychophysiology2019,3.0.5,59.663856221601556,
To what extent did the music make you feel ,GUILTY,30MonoWAV/30MonoF4.wav,1,2,2,4,,,,,0,13,13,3,0,3,3,5,,,,,,,,,1,0.9508077579957899,,,056,001,2019_May_21_1613,MusicAffectPsychophysiology2019,3.0.5,59.663856221601556,
To what extent did the music make you feel ,FRUSTRATED,30MonoWAV/30MonoF4.wav,1,2,2,4,,,,,0,13,13,3,0,4,4,3,,,,,,,,,2,4.517953143993509,,,056,001,2019_May_21_1613,MusicAffectPsychophysiology2019,3.0.5,59.663856221601556,
To what extent did the music make you feel ,ANXIOUS ,30MonoWAV/30MonoF4.wav,1,2,2,4,,,,,0,13,13,3,0,5,5,1,,,,,,,,,2,1.435165638991748,,,056,001,2019_May_21_1613,MusicAffectPsychophysiology2019,3.0.5,59.663856221601556,
To what extent did the music make you feel ,ALERT,30MonoWAV/30MonoF4.wav,1,2,2,4,,,,,0,13,13,3,0,6,6,8,,,,,,,,,3,2.5682889290037565,,,056,001,2019_May_21_1613,MusicAffectPsychophysiology2019,3.0.5,59.663856221601556,
To what extent did the music make you feel ,TENDER,30MonoWAV/30MonoF4.wav,1,2,2,4,,,,,0,13,13,3,0,7,7,10,,,,,,,,,2,2.0173834830056876,,,056,001,2019_May_21_1613,MusicAffectPsychophysiology2019,3.0.5,59.663856221601556,
To what extent did the music make you feel ,EXCITED,30MonoWAV/30MonoF4.wav,1,2,2,4,,,,,0,13,13,3,0,8,8,7,,,,,,,,,1,1.4183188040042296,,,056,001,2019_May_21_1613,MusicAffectPsychophysiology2019,3.0.5,59.663856221601556,
To what extent did the music make you feel ,ASHAMED,30MonoWAV/30MonoF4.wav,1,2,2,4,,,,,0,13,13,3,0,9,9,4,,,,,,,,,1,2.3176539090054575,,,056,001,2019_May_21_1613,MusicAffectPsychophysiology2019,3.0.5,59.663856221601556,
To what extent did the music make you feel ,HAPPY,30MonoWAV/30MonoF4.wav,1,2,2,4,,,,,0,13,13,3,0,10,10,6,,,,,,,,,1,1.4847735619987361,,,056,001,2019_May_21_1613,MusicAffectPsychophysiology2019,3.0.5,59.663856221601556,
To what extent did the music make you feel ,SAD,30MonoWAV/30MonoF4.wav,1,2,2,4,,,,,0,13,13,3,0,11,11,0,,,,,,,,,1,1.2349098779959604,,,056,001,2019_May_21_1613,MusicAffectPsychophysiology2019,3.0.5,59.663856221601556,
,,30MonoWAV/30MonoF4.wav,1,2,2,4,,,,,0,13,13,3,,,,,,,,,,,,,,,,,056,001,2019_May_21_1613,MusicAffectPsychophysiology2019,3.0.5,59.663856221601556,
To what extent did the music make you feel ,ALERT,30MonoWAV/30MonoT1.wav,2,1,4,13,,,,,0,14,14,12,0,0,0,8,,,2,4.606689253996592,2,1.603855041001225,2,2.6372874419903383,1,4.640138609000132,,,056,001,2019_May_21_1613,MusicAffectPsychophysiology2019,3.0.5,59.663856221601556,
To what extent did the music make you feel ,SAD,30MonoWAV/30MonoT1.wav,2,1,4,13,,,,,0,14,14,12,0,1,1,0,,,,,,,,,1,1.3687911580054788,,,056,001,2019_May_21_1613,MusicAffectPsychophysiology2019,3.0.5,59.663856221601556,
To what extent did the music make you feel ,GUILTY,30MonoWAV/30MonoT1.wav,2,1,4,13,,,,,0,14,14,12,0,2,2,5,,,,,,,,,1,4.768316256988328,,,056,001,2019_May_21_1613,MusicAffectPsychophysiology2019,3.0.5,59.663856221601556,
To what extent did the music make you feel ,TENDER,30MonoWAV/30MonoT1.wav,2,1,4,13,,,,,0,14,14,12,0,3,3,10,,,,,,,,,2,1.368667597998865,,,056,001,2019_May_21_1613,MusicAffectPsychophysiology2019,3.0.5,59.663856221601556,
To what extent did the music make you feel ,ASHAMED,30MonoWAV/30MonoT1.wav,2,1,4,13,,,,,0,14,14,12,0,4,4,4,,,,,,,,,1,6.166971008002292,,,056,001,2019_May_21_1613,MusicAffectPsychophysiology2019,3.0.5,59.663856221601556,
To what extent did the music make you feel ,ACTIVE,30MonoWAV/30MonoT1.wav,2,1,4,13,,,,,0,14,14,12,0,5,5,9,,,,,,,,,1,1.3519377029879251,,,056,001,2019_May_21_1613,MusicAffectPsychophysiology2019,3.0.5,59.663856221601556,
To what extent did the music make you feel ,HAPPY,30MonoWAV/30MonoT1.wav,2,1,4,13,,,,,0,14,14,12,0,6,6,6,,,,,,,,,2,1.5180242389906198,,,056,001,2019_May_21_1613,MusicAffectPsychophysiology2019,3.0.5,59.663856221601556,
To what extent did the music make you feel ,ANGRY,30MonoWAV/30MonoT1.wav,2,1,4,13,,,,,0,14,14,12,0,7,7,2,,,,,,,,,1,0.8723749610071536,,,056,001,2019_May_21_1613,MusicAffectPsychophysiology2019,3.0.5,59.663856221601556,
To what extent did the music make you feel ,EXCITED,30MonoWAV/30MonoT1.wav,2,1,4,13,,,,,0,14,14,12,0,8,8,7,,,,,,,,,1,1.0697429870051565,,,056,001,2019_May_21_1613,MusicAffectPsychophysiology2019,3.0.5,59.663856221601556,
To what extent did the music make you feel ,ANXIOUS ,30MonoWAV/30MonoT1.wav,2,1,4,13,,,,,0,14,14,12,0,9,9,1,,,,,,,,,1,0.9854316230048425,,,056,001,2019_May_21_1613,MusicAffectPsychophysiology2019,3.0.5,59.663856221601556,
To what extent did the music make you feel ,FRUSTRATED,30MonoWAV/30MonoT1.wav,2,1,4,13,,,,,0,14,14,12,0,10,10,3,,,,,,,,,1,0.8860268319986062,,,056,001,2019_May_21_1613,MusicAffectPsychophysiology2019,3.0.5,59.663856221601556,
To what extent did the music make you feel ,SCARED,30MonoWAV/30MonoT1.wav,2,1,4,13,,,,,0,14,14,12,0,11,11,11,,,,,,,,,1,0.6686684870073805,,,056,001,2019_May_21_1613,MusicAffectPsychophysiology2019,3.0.5,59.663856221601556,
,,30MonoWAV/30MonoT1.wav,2,1,4,13,,,,,0,14,14,12,,,,,,,,,,,,,,,,,056,001,2019_May_21_1613,MusicAffectPsychophysiology2019,3.0.5,59.663856221601556,
To what extent did the music make you feel ,FRUSTRATED,30MonoWAV/30MonoF1.wav,1,2,2,1,,,,,0,15,15,0,0,0,0,3,,,3,5.250861274005729,2,1.7196722049993696,1,4.184439967008075,2,3.91847174699069,,,056,001,2019_May_21_1613,MusicAffectPsychophysiology2019,3.0.5,59.663856221601556,
To what extent did the music make you feel ,ASHAMED,30MonoWAV/30MonoF1.wav,1,2,2,1,,,,,0,15,15,0,0,1,1,4,,,,,,,,,1,0.8677701380074723,,,056,001,2019_May_21_1613,MusicAffectPsychophysiology2019,3.0.5,59.663856221601556,
To what extent did the music make you feel ,HAPPY,30MonoWAV/30MonoF1.wav,1,2,2,1,,,,,0,15,15,0,0,2,2,6,,,,,,,,,1,1.2192338940076297,,,056,001,2019_May_21_1613,MusicAffectPsychophysiology2019,3.0.5,59.663856221601556,
To what extent did the music make you feel ,SAD,30MonoWAV/30MonoF1.wav,1,2,2,1,,,,,0,15,15,0,0,3,3,0,,,,,,,,,1,2.7685181830020156,,,056,001,2019_May_21_1613,MusicAffectPsychophysiology2019,3.0.5,59.663856221601556,
To what extent did the music make you feel ,ANGRY,30MonoWAV/30MonoF1.wav,1,2,2,1,,,,,0,15,15,0,0,4,4,2,,,,,,,,,2,2.3177770159963984,,,056,001,2019_May_21_1613,MusicAffectPsychophysiology2019,3.0.5,59.663856221601556,
To what extent did the music make you feel ,ANXIOUS ,30MonoWAV/30MonoF1.wav,1,2,2,1,,,,,0,15,15,0,0,5,5,1,,,,,,,,,2,3.767987049999647,,,056,001,2019_May_21_1613,MusicAffectPsychophysiology2019,3.0.5,59.663856221601556,
To what extent did the music make you feel ,EXCITED,30MonoWAV/30MonoF1.wav,1,2,2,1,,,,,0,15,15,0,0,6,6,7,,,,,,,,,3,7.835179246991174,,,056,001,2019_May_21_1613,MusicAffectPsychophysiology2019,3.0.5,59.663856221601556,
To what extent did the music make you feel ,ALERT,30MonoWAV/30MonoF1.wav,1,2,2,1,,,,,0,15,15,0,0,7,7,8,,,,,,,,,3,0.06723530399904121,,,056,001,2019_May_21_1613,MusicAffectPsychophysiology2019,3.0.5,59.663856221601556,
To what extent did the music make you feel ,SCARED,30MonoWAV/30MonoF1.wav,1,2,2,1,,,,,0,15,15,0,0,8,8,11,,,,,,,,,1,2.769468662998406,,,056,001,2019_May_21_1613,MusicAffectPsychophysiology2019,3.0.5,59.663856221601556,
To what extent did the music make you feel ,TENDER,30MonoWAV/30MonoF1.wav,1,2,2,1,,,,,0,15,15,0,0,9,9,10,,,,,,,,,2,1.9674407879938371,,,056,001,2019_May_21_1613,MusicAffectPsychophysiology2019,3.0.5,59.663856221601556,
To what extent did the music make you feel ,ACTIVE,30MonoWAV/30MonoF1.wav,1,2,2,1,,,,,0,15,15,0,0,10,10,9,,,,,,,,,2,3.4515986269980203,,,056,001,2019_May_21_1613,MusicAffectPsychophysiology2019,3.0.5,59.663856221601556,
To what extent did the music make you feel ,GUILTY,30MonoWAV/30MonoF1.wav,1,2,2,1,,,,,0,15,15,0,0,11,11,5,,,,,,,,,1,0.8166580089891795,,,056,001,2019_May_21_1613,MusicAffectPsychophysiology2019,3.0.5,59.663856221601556,
,,30MonoWAV/30MonoF1.wav,1,2,2,1,,,,,0,15,15,0,,,,,,,,,,,,,,,,,056,001,2019_May_21_1613,MusicAffectPsychophysiology2019,3.0.5,59.663856221601556,
To what extent did the music make you feel ,ALERT,30MonoWAV/30MonoF2.wav,1,2,2,2,,,,,1,0,16,1,0,0,0,8,,,2,3.468671403999906,1,2.785153060001903,1,2.252563543996075,2,3.8350949340092484,,,056,001,2019_May_21_1613,MusicAffectPsychophysiology2019,3.0.5,59.663856221601556,
To what extent did the music make you feel ,EXCITED,30MonoWAV/30MonoF2.wav,1,2,2,2,,,,,1,0,16,1,0,1,1,7,,,,,,,,,1,2.401300919998903,,,056,001,2019_May_21_1613,MusicAffectPsychophysiology2019,3.0.5,59.663856221601556,
To what extent did the music make you feel ,ANXIOUS ,30MonoWAV/30MonoF2.wav,1,2,2,2,,,,,1,0,16,1,0,2,2,1,,,,,,,,,2,2.384908648004057,,,056,001,2019_May_21_1613,MusicAffectPsychophysiology2019,3.0.5,59.663856221601556,
To what extent did the music make you feel ,HAPPY,30MonoWAV/30MonoF2.wav,1,2,2,2,,,,,1,0,16,1,0,3,3,6,,,,,,,,,1,0.9519173370063072,,,056,001,2019_May_21_1613,MusicAffectPsychophysiology2019,3.0.5,59.663856221601556,
To what extent did the music make you feel ,GUILTY,30MonoWAV/30MonoF2.wav,1,2,2,2,,,,,1,0,16,1,0,4,4,5,,,,,,,,,3,2.8014085210015764,,,056,001,2019_May_21_1613,MusicAffectPsychophysiology2019,3.0.5,59.663856221601556,
To what extent did the music make you feel ,ANGRY,30MonoWAV/30MonoF2.wav,1,2,2,2,,,,,1,0,16,1,0,5,5,2,,,,,,,,,1,1.435173338992172,,,056,001,2019_May_21_1613,MusicAffectPsychophysiology2019,3.0.5,59.663856221601556,
To what extent did the music make you feel ,TENDER,30MonoWAV/30MonoF2.wav,1,2,2,2,,,,,1,0,16,1,0,6,6,10,,,,,,,,,1,2.4514460289938143,,,056,001,2019_May_21_1613,MusicAffectPsychophysiology2019,3.0.5,59.663856221601556,
To what extent did the music make you feel ,ASHAMED,30MonoWAV/30MonoF2.wav,1,2,2,2,,,,,1,0,16,1,0,7,7,4,,,,,,,,,2,4.784704846999375,,,056,001,2019_May_21_1613,MusicAffectPsychophysiology2019,3.0.5,59.663856221601556,
To what extent did the music make you feel ,SAD,30MonoWAV/30MonoF2.wav,1,2,2,2,,,,,1,0,16,1,0,8,8,0,,,,,,,,,1,1.2507468940020772,,,056,001,2019_May_21_1613,MusicAffectPsychophysiology2019,3.0.5,59.663856221601556,
To what extent did the music make you feel ,ACTIVE,30MonoWAV/30MonoF2.wav,1,2,2,2,,,,,1,0,16,1,0,9,9,9,,,,,,,,,3,1.7020612830092432,,,056,001,2019_May_21_1613,MusicAffectPsychophysiology2019,3.0.5,59.663856221601556,
To what extent did the music make you feel ,FRUSTRATED,30MonoWAV/30MonoF2.wav,1,2,2,2,,,,,1,0,16,1,0,10,10,3,,,,,,,,,1,6.949972886999603,,,056,001,2019_May_21_1613,MusicAffectPsychophysiology2019,3.0.5,59.663856221601556,
To what extent did the music make you feel ,SCARED,30MonoWAV/30MonoF2.wav,1,2,2,2,,,,,1,0,16,1,0,11,11,11,,,,,,,,,1,0.7850353609974263,,,056,001,2019_May_21_1613,MusicAffectPsychophysiology2019,3.0.5,59.663856221601556,
,,30MonoWAV/30MonoF2.wav,1,2,2,2,,,,,1,0,16,1,,,,,,,,,,,,,,,,,056,001,2019_May_21_1613,MusicAffectPsychophysiology2019,3.0.5,59.663856221601556,
To what extent did the music make you feel ,SAD,30MonoWAV/30MonoT4.wav,2,1,4,16,,,,,1,1,17,15,0,0,0,0,,,3,3.435430269004428,3,1.883842352006468,3,1.4694811800000025,1,1.4853743359999498,,,056,001,2019_May_21_1613,MusicAffectPsychophysiology2019,3.0.5,59.663856221601556,
To what extent did the music make you feel ,HAPPY,30MonoWAV/30MonoT4.wav,2,1,4,16,,,,,1,1,17,15,0,1,1,6,,,,,,,,,3,3.118271327999537,,,056,001,2019_May_21_1613,MusicAffectPsychophysiology2019,3.0.5,59.663856221601556,
To what extent did the music make you feel ,ACTIVE,30MonoWAV/30MonoT4.wav,2,1,4,16,,,,,1,1,17,15,0,2,2,9,,,,,,,,,1,1.5684985910047544,,,056,001,2019_May_21_1613,MusicAffectPsychophysiology2019,3.0.5,59.663856221601556,
To what extent did the music make you feel ,ANGRY,30MonoWAV/30MonoT4.wav,2,1,4,16,,,,,1,1,17,15,0,3,3,2,,,,,,,,,1,0.9014074690057896,,,056,001,2019_May_21_1613,MusicAffectPsychophysiology2019,3.0.5,59.663856221601556,
To what extent did the music make you feel ,EXCITED,30MonoWAV/30MonoT4.wav,2,1,4,16,,,,,1,1,17,15,0,4,4,7,,,,,,,,,2,2.6178343490028055,,,056,001,2019_May_21_1613,MusicAffectPsychophysiology2019,3.0.5,59.663856221601556,
To what extent did the music make you feel ,SCARED,30MonoWAV/30MonoT4.wav,2,1,4,16,,,,,1,1,17,15,0,5,5,11,,,,,,,,,1,0.9858831410092534,,,056,001,2019_May_21_1613,MusicAffectPsychophysiology2019,3.0.5,59.663856221601556,
To what extent did the music make you feel ,ASHAMED,30MonoWAV/30MonoT4.wav,2,1,4,16,,,,,1,1,17,15,0,6,6,4,,,,,,,,,1,0.9516003000026103,,,056,001,2019_May_21_1613,MusicAffectPsychophysiology2019,3.0.5,59.663856221601556,
To what extent did the music make you feel ,GUILTY,30MonoWAV/30MonoT4.wav,2,1,4,16,,,,,1,1,17,15,0,7,7,5,,,,,,,,,1,1.4506274000013946,,,056,001,2019_May_21_1613,MusicAffectPsychophysiology2019,3.0.5,59.663856221601556,
To what extent did the music make you feel ,FRUSTRATED,30MonoWAV/30MonoT4.wav,2,1,4,16,,,,,1,1,17,15,0,8,8,3,,,,,,,,,1,1.9188647729897639,,,056,001,2019_May_21_1613,MusicAffectPsychophysiology2019,3.0.5,59.663856221601556,
To what extent did the music make you feel ,TENDER,30MonoWAV/30MonoT4.wav,2,1,4,16,,,,,1,1,17,15,0,9,9,10,,,,,,,,,4,2.1352209219912766,,,056,001,2019_May_21_1613,MusicAffectPsychophysiology2019,3.0.5,59.663856221601556,
To what extent did the music make you feel ,ANXIOUS ,30MonoWAV/30MonoT4.wav,2,1,4,16,,,,,1,1,17,15,0,10,10,1,,,,,,,,,1,3.752556174003985,,,056,001,2019_May_21_1613,MusicAffectPsychophysiology2019,3.0.5,59.663856221601556,
To what extent did the music make you feel ,ALERT,30MonoWAV/30MonoT4.wav,2,1,4,16,,,,,1,1,17,15,0,11,11,8,,,,,,,,,1,1.5347693279909436,,,056,001,2019_May_21_1613,MusicAffectPsychophysiology2019,3.0.5,59.663856221601556,
,,30MonoWAV/30MonoT4.wav,2,1,4,16,,,,,1,1,17,15,,,,,,,,,,,,,,,,,056,001,2019_May_21_1613,MusicAffectPsychophysiology2019,3.0.5,59.663856221601556,
To what extent did the music make you feel ,FRUSTRATED,30MonoWAV/30MonoH1.wav,2,2,1,5,,,,,1,2,18,4,0,0,0,3,,,5,5.102101091004442,5,1.6845989809953608,4,2.1500397759955376,1,1.1017971099936403,,,056,001,2019_May_21_1613,MusicAffectPsychophysiology2019,3.0.5,59.663856221601556,
To what extent did the music make you feel ,SAD,30MonoWAV/30MonoH1.wav,2,2,1,5,,,,,1,2,18,4,0,1,1,0,,,,,,,,,1,1.168750152006396,,,056,001,2019_May_21_1613,MusicAffectPsychophysiology2019,3.0.5,59.663856221601556,
To what extent did the music make you feel ,EXCITED,30MonoWAV/30MonoH1.wav,2,2,1,5,,,,,1,2,18,4,0,2,2,7,,,,,,,,,4,1.6347995990072377,,,056,001,2019_May_21_1613,MusicAffectPsychophysiology2019,3.0.5,59.663856221601556,
To what extent did the music make you feel ,SCARED,30MonoWAV/30MonoH1.wav,2,2,1,5,,,,,1,2,18,4,0,3,3,11,,,,,,,,,1,4.468748471001163,,,056,001,2019_May_21_1613,MusicAffectPsychophysiology2019,3.0.5,59.663856221601556,
To what extent did the music make you feel ,TENDER,30MonoWAV/30MonoH1.wav,2,2,1,5,,,,,1,2,18,4,0,4,4,10,,,,,,,,,2,1.5192240120086353,,,056,001,2019_May_21_1613,MusicAffectPsychophysiology2019,3.0.5,59.663856221601556,
To what extent did the music make you feel ,ACTIVE,30MonoWAV/30MonoH1.wav,2,2,1,5,,,,,1,2,18,4,0,5,5,9,,,,,,,,,3,2.601111295996816,,,056,001,2019_May_21_1613,MusicAffectPsychophysiology2019,3.0.5,59.663856221601556,
To what extent did the music make you feel ,HAPPY,30MonoWAV/30MonoH1.wav,2,2,1,5,,,,,1,2,18,4,0,6,6,6,,,,,,,,,4,1.4012208460044349,,,056,001,2019_May_21_1613,MusicAffectPsychophysiology2019,3.0.5,59.663856221601556,
To what extent did the music make you feel ,ASHAMED,30MonoWAV/30MonoH1.wav,2,2,1,5,,,,,1,2,18,4,0,7,7,4,,,,,,,,,1,2.401057053997647,,,056,001,2019_May_21_1613,MusicAffectPsychophysiology2019,3.0.5,59.663856221601556,
To what extent did the music make you feel ,GUILTY,30MonoWAV/30MonoH1.wav,2,2,1,5,,,,,1,2,18,4,0,8,8,5,,,,,,,,,1,5.23464345598768,,,056,001,2019_May_21_1613,MusicAffectPsychophysiology2019,3.0.5,59.663856221601556,
To what extent did the music make you feel ,ANXIOUS ,30MonoWAV/30MonoH1.wav,2,2,1,5,,,,,1,2,18,4,0,9,9,1,,,,,,,,,1,0.6691906360065332,,,056,001,2019_May_21_1613,MusicAffectPsychophysiology2019,3.0.5,59.663856221601556,
To what extent did the music make you feel ,ALERT,30MonoWAV/30MonoH1.wav,2,2,1,5,,,,,1,2,18,4,0,10,10,8,,,,,,,,,3,3.134886177009321,,,056,001,2019_May_21_1613,MusicAffectPsychophysiology2019,3.0.5,59.663856221601556,
To what extent did the music make you feel ,ANGRY,30MonoWAV/30MonoH1.wav,2,2,1,5,,,,,1,2,18,4,0,11,11,2,,,,,,,,,1,2.81901813299919,,,056,001,2019_May_21_1613,MusicAffectPsychophysiology2019,3.0.5,59.663856221601556,
,,30MonoWAV/30MonoH1.wav,2,2,1,5,,,,,1,2,18,4,,,,,,,,,,,,,,,,,056,001,2019_May_21_1613,MusicAffectPsychophysiology2019,3.0.5,59.663856221601556,
To what extent did the music make you feel ,TENDER,30MonoWAV/30MonoH4.wav,2,2,1,8,,,,,1,3,19,7,0,0,0,10,,,3,2.6527557340014027,3,1.901413659012178,3,1.4356350829912117,1,2.218706301995553,,,056,001,2019_May_21_1613,MusicAffectPsychophysiology2019,3.0.5,59.663856221601556,
To what extent did the music make you feel ,FRUSTRATED,30MonoWAV/30MonoH4.wav,2,2,1,8,,,,,1,3,19,7,0,1,1,3,,,,,,,,,1,0.9835404299956281,,,056,001,2019_May_21_1613,MusicAffectPsychophysiology2019,3.0.5,59.663856221601556,
To what extent did the music make you feel ,GUILTY,30MonoWAV/30MonoH4.wav,2,2,1,8,,,,,1,3,19,7,0,2,2,5,,,,,,,,,1,0.701873573998455,,,056,001,2019_May_21_1613,MusicAffectPsychophysiology2019,3.0.5,59.663856221601556,
To what extent did the music make you feel ,ALERT,30MonoWAV/30MonoH4.wav,2,2,1,8,,,,,1,3,19,7,0,3,3,8,,,,,,,,,2,1.6499389849923318,,,056,001,2019_May_21_1613,MusicAffectPsychophysiology2019,3.0.5,59.663856221601556,
To what extent did the music make you feel ,SAD,30MonoWAV/30MonoH4.wav,2,2,1,8,,,,,1,3,19,7,0,4,4,0,,,,,,,,,1,2.3679559400043217,,,056,001,2019_May_21_1613,MusicAffectPsychophysiology2019,3.0.5,59.663856221601556,
To what extent did the music make you feel ,SCARED,30MonoWAV/30MonoH4.wav,2,2,1,8,,,,,1,3,19,7,0,5,5,11,,,,,,,,,1,0.9182943780033384,,,056,001,2019_May_21_1613,MusicAffectPsychophysiology2019,3.0.5,59.663856221601556,
To what extent did the music make you feel ,EXCITED,30MonoWAV/30MonoH4.wav,2,2,1,8,,,,,1,3,19,7,0,6,6,7,,,,,,,,,3,1.435730263008736,,,056,001,2019_May_21_1613,MusicAffectPsychophysiology2019,3.0.5,59.663856221601556,
To what extent did the music make you feel ,ASHAMED,30MonoWAV/30MonoH4.wav,2,2,1,8,,,,,1,3,19,7,0,7,7,4,,,,,,,,,1,2.168196069993428,,,056,001,2019_May_21_1613,MusicAffectPsychophysiology2019,3.0.5,59.663856221601556,
To what extent did the music make you feel ,ANGRY,30MonoWAV/30MonoH4.wav,2,2,1,8,,,,,1,3,19,7,0,8,8,2,,,,,,,,,1,0.7002749340026639,,,056,001,2019_May_21_1613,MusicAffectPsychophysiology2019,3.0.5,59.663856221601556,
To what extent did the music make you feel ,ACTIVE,30MonoWAV/30MonoH4.wav,2,2,1,8,,,,,1,3,19,7,0,9,9,9,,,,,,,,,3,1.867929328000173,,,056,001,2019_May_21_1613,MusicAffectPsychophysiology2019,3.0.5,59.663856221601556,
To what extent did the music make you feel ,HAPPY,30MonoWAV/30MonoH4.wav,2,2,1,8,,,,,1,3,19,7,0,10,10,6,,,,,,,,,3,6.068100157994195,,,056,001,2019_May_21_1613,MusicAffectPsychophysiology2019,3.0.5,59.663856221601556,
To what extent did the music make you feel ,ANXIOUS ,30MonoWAV/30MonoH4.wav,2,2,1,8,,,,,1,3,19,7,0,11,11,1,,,,,,,,,1,0.9512452259950805,,,056,001,2019_May_21_1613,MusicAffectPsychophysiology2019,3.0.5,59.663856221601556,
,,30MonoWAV/30MonoH4.wav,2,2,1,8,,,,,1,3,19,7,,,,,,,,,,,,,,,,,056,001,2019_May_21_1613,MusicAffectPsychophysiology2019,3.0.5,59.663856221601556,
To what extent did the music make you feel ,FRUSTRATED,30MonoWAV/30MonoT3.wav,2,1,4,15,,,,,1,4,20,14,0,0,0,3,,,1,3.8556864249985665,3,5.05754897800216,2,1.4850867549976101,1,0.901301974998205,,,056,001,2019_May_21_1613,MusicAffectPsychophysiology2019,3.0.5,59.663856221601556,
To what extent did the music make you feel ,SCARED,30MonoWAV/30MonoT3.wav,2,1,4,15,,,,,1,4,20,14,0,1,1,11,,,,,,,,,1,0.6515972199995304,,,056,001,2019_May_21_1613,MusicAffectPsychophysiology2019,3.0.5,59.663856221601556,
To what extent did the music make you feel ,GUILTY,30MonoWAV/30MonoT3.wav,2,1,4,15,,,,,1,4,20,14,0,2,2,5,,,,,,,,,1,0.8519830419973005,,,056,001,2019_May_21_1613,MusicAffectPsychophysiology2019,3.0.5,59.663856221601556,
To what extent did the music make you feel ,ACTIVE,30MonoWAV/30MonoT3.wav,2,1,4,15,,,,,1,4,20,14,0,3,3,9,,,,,,,,,1,1.4183288299973356,,,056,001,2019_May_21_1613,MusicAffectPsychophysiology2019,3.0.5,59.663856221601556,
To what extent did the music make you feel ,ANXIOUS ,30MonoWAV/30MonoT3.wav,2,1,4,15,,,,,1,4,20,14,0,4,4,1,,,,,,,,,1,1.0684346049965825,,,056,001,2019_May_21_1613,MusicAffectPsychophysiology2019,3.0.5,59.663856221601556,
To what extent did the music make you feel ,ASHAMED,30MonoWAV/30MonoT3.wav,2,1,4,15,,,,,1,4,20,14,0,5,5,4,,,,,,,,,1,1.7182239620015025,,,056,001,2019_May_21_1613,MusicAffectPsychophysiology2019,3.0.5,59.663856221601556,
To what extent did the music make you feel ,ANGRY,30MonoWAV/30MonoT3.wav,2,1,4,15,,,,,1,4,20,14,0,6,6,2,,,,,,,,,1,1.934939017999568,,,056,001,2019_May_21_1613,MusicAffectPsychophysiology2019,3.0.5,59.663856221601556,
To what extent did the music make you feel ,EXCITED,30MonoWAV/30MonoT3.wav,2,1,4,15,,,,,1,4,20,14,0,7,7,7,,,,,,,,,2,1.1349905840033898,,,056,001,2019_May_21_1613,MusicAffectPsychophysiology2019,3.0.5,59.663856221601556,
To what extent did the music make you feel ,ALERT,30MonoWAV/30MonoT3.wav,2,1,4,15,,,,,1,4,20,14,0,8,8,8,,,,,,,,,1,1.2849749209999572,,,056,001,2019_May_21_1613,MusicAffectPsychophysiology2019,3.0.5,59.663856221601556,
To what extent did the music make you feel ,HAPPY,30MonoWAV/30MonoT3.wav,2,1,4,15,,,,,1,4,20,14,0,9,9,6,,,,,,,,,2,1.9025812050094828,,,056,001,2019_May_21_1613,MusicAffectPsychophysiology2019,3.0.5,59.663856221601556,
To what extent did the music make you feel ,SAD,30MonoWAV/30MonoT3.wav,2,1,4,15,,,,,1,4,20,14,0,10,10,0,,,,,,,,,1,5.133910056989407,,,056,001,2019_May_21_1613,MusicAffectPsychophysiology2019,3.0.5,59.663856221601556,
To what extent did the music make you feel ,TENDER,30MonoWAV/30MonoT3.wav,2,1,4,15,,,,,1,4,20,14,0,11,11,10,,,,,,,,,1,4.284012926000287,,,056,001,2019_May_21_1613,MusicAffectPsychophysiology2019,3.0.5,59.663856221601556,
,,30MonoWAV/30MonoT3.wav,2,1,4,15,,,,,1,4,20,14,,,,,,,,,,,,,,,,,056,001,2019_May_21_1613,MusicAffectPsychophysiology2019,3.0.5,59.663856221601556,
To what extent did the music make you feel ,SCARED,30MonoWAV/30MonoS2.wav,1,1,3,10,,,,,1,5,21,9,0,0,0,11,,,1,3.4178288980037905,2,1.8514211860019714,2,2.517662174999714,1,1.0353608160075964,,,056,001,2019_May_21_1613,MusicAffectPsychophysiology2019,3.0.5,59.663856221601556,
To what extent did the music make you feel ,SAD,30MonoWAV/30MonoS2.wav,1,1,3,10,,,,,1,5,21,9,0,1,1,0,,,,,,,,,1,0.6677905609976733,,,056,001,2019_May_21_1613,MusicAffectPsychophysiology2019,3.0.5,59.663856221601556,
To what extent did the music make you feel ,ACTIVE,30MonoWAV/30MonoS2.wav,1,1,3,10,,,,,1,5,21,9,0,2,2,9,,,,,,,,,1,4.716057538986206,,,056,001,2019_May_21_1613,MusicAffectPsychophysiology2019,3.0.5,59.663856221601556,
To what extent did the music make you feel ,ANXIOUS ,30MonoWAV/30MonoS2.wav,1,1,3,10,,,,,1,5,21,9,0,3,3,1,,,,,,,,,1,5.623310387993115,,,056,001,2019_May_21_1613,MusicAffectPsychophysiology2019,3.0.5,59.663856221601556,
To what extent did the music make you feel ,GUILTY,30MonoWAV/30MonoS2.wav,1,1,3,10,,,,,1,5,21,9,0,4,4,5,,,,,,,,,1,0.8692949139949633,,,056,001,2019_May_21_1613,MusicAffectPsychophysiology2019,3.0.5,59.663856221601556,
To what extent did the music make you feel ,EXCITED,30MonoWAV/30MonoS2.wav,1,1,3,10,,,,,1,5,21,9,0,5,5,7,,,,,,,,,1,2.354180032009026,,,056,001,2019_May_21_1613,MusicAffectPsychophysiology2019,3.0.5,59.663856221601556,
To what extent did the music make you feel ,ANGRY,30MonoWAV/30MonoS2.wav,1,1,3,10,,,,,1,5,21,9,0,6,6,2,,,,,,,,,1,2.1731729810126126,,,056,001,2019_May_21_1613,MusicAffectPsychophysiology2019,3.0.5,59.663856221601556,
To what extent did the music make you feel ,ASHAMED,30MonoWAV/30MonoS2.wav,1,1,3,10,,,,,1,5,21,9,0,7,7,4,,,,,,,,,1,0.9010640510095982,,,056,001,2019_May_21_1613,MusicAffectPsychophysiology2019,3.0.5,59.663856221601556,
To what extent did the music make you feel ,HAPPY,30MonoWAV/30MonoS2.wav,1,1,3,10,,,,,1,5,21,9,0,8,8,6,,,,,,,,,2,1.7199070829956327,,,056,001,2019_May_21_1613,MusicAffectPsychophysiology2019,3.0.5,59.663856221601556,
To what extent did the music make you feel ,FRUSTRATED,30MonoWAV/30MonoS2.wav,1,1,3,10,,,,,1,5,21,9,0,9,9,3,,,,,,,,,1,2.468828230004874,,,056,001,2019_May_21_1613,MusicAffectPsychophysiology2019,3.0.5,59.663856221601556,
To what extent did the music make you feel ,ALERT,30MonoWAV/30MonoS2.wav,1,1,3,10,,,,,1,5,21,9,0,10,10,8,,,,,,,,,1,4.817726791996392,,,056,001,2019_May_21_1613,MusicAffectPsychophysiology2019,3.0.5,59.663856221601556,
To what extent did the music make you feel ,TENDER,30MonoWAV/30MonoS2.wav,1,1,3,10,,,,,1,5,21,9,0,11,11,10,,,,,,,,,2,1.4346362819924252,,,056,001,2019_May_21_1613,MusicAffectPsychophysiology2019,3.0.5,59.663856221601556,
,,30MonoWAV/30MonoS2.wav,1,1,3,10,,,,,1,5,21,9,,,,,,,,,,,,,,,,,056,001,2019_May_21_1613,MusicAffectPsychophysiology2019,3.0.5,59.663856221601556,
To what extent did the music make you feel ,ASHAMED,30MonoWAV/30MonoF1.wav,1,2,2,1,,,,,1,6,22,0,0,0,0,4,,,3,3.588692417004495,1,3.6550071089877747,1,1.636991899998975,1,2.6737400429992704,,,056,001,2019_May_21_1613,MusicAffectPsychophysiology2019,3.0.5,59.663856221601556,
To what extent did the music make you feel ,EXCITED,30MonoWAV/30MonoF1.wav,1,2,2,1,,,,,1,6,22,0,0,1,1,7,,,,,,,,,2,2.6335654930007877,,,056,001,2019_May_21_1613,MusicAffectPsychophysiology2019,3.0.5,59.663856221601556,
To what extent did the music make you feel ,ACTIVE,30MonoWAV/30MonoF1.wav,1,2,2,1,,,,,1,6,22,0,0,2,2,9,,,,,,,,,3,1.401530516013736,,,056,001,2019_May_21_1613,MusicAffectPsychophysiology2019,3.0.5,59.663856221601556,
To what extent did the music make you feel ,ALERT,30MonoWAV/30MonoF1.wav,1,2,2,1,,,,,1,6,22,0,0,3,3,8,,,,,,,,,2,2.4852787910058396,,,056,001,2019_May_21_1613,MusicAffectPsychophysiology2019,3.0.5,59.663856221601556,
To what extent did the music make you feel ,HAPPY,30MonoWAV/30MonoF1.wav,1,2,2,1,,,,,1,6,22,0,0,4,4,6,,,,,,,,,4,2.2347885810013395,,,056,001,2019_May_21_1613,MusicAffectPsychophysiology2019,3.0.5,59.663856221601556,
To what extent did the music make you feel ,SCARED,30MonoWAV/30MonoF1.wav,1,2,2,1,,,,,1,6,22,0,0,5,5,11,,,,,,,,,1,3.9847908309893683,,,056,001,2019_May_21_1613,MusicAffectPsychophysiology2019,3.0.5,59.663856221601556,
To what extent did the music make you feel ,ANGRY,30MonoWAV/30MonoF1.wav,1,2,2,1,,,,,1,6,22,0,0,6,6,2,,,,,,,,,1,1.7837138300092192,,,056,001,2019_May_21_1613,MusicAffectPsychophysiology2019,3.0.5,59.663856221601556,
To what extent did the music make you feel ,TENDER,30MonoWAV/30MonoF1.wav,1,2,2,1,,,,,1,6,22,0,0,7,7,10,,,,,,,,,1,5.608889587005251,,,056,001,2019_May_21_1613,MusicAffectPsychophysiology2019,3.0.5,59.663856221601556,
To what extent did the music make you feel ,SAD,30MonoWAV/30MonoF1.wav,1,2,2,1,,,,,1,6,22,0,0,8,8,0,,,,,,,,,1,1.2530935000104364,,,056,001,2019_May_21_1613,MusicAffectPsychophysiology2019,3.0.5,59.663856221601556,
To what extent did the music make you feel ,FRUSTRATED,30MonoWAV/30MonoF1.wav,1,2,2,1,,,,,1,6,22,0,0,9,9,3,,,,,,,,,2,1.4364784259960288,,,056,001,2019_May_21_1613,MusicAffectPsychophysiology2019,3.0.5,59.663856221601556,
To what extent did the music make you feel ,ANXIOUS ,30MonoWAV/30MonoF1.wav,1,2,2,1,,,,,1,6,22,0,0,10,10,1,,,,,,,,,2,2.437231887000962,,,056,001,2019_May_21_1613,MusicAffectPsychophysiology2019,3.0.5,59.663856221601556,
To what extent did the music make you feel ,GUILTY,30MonoWAV/30MonoF1.wav,1,2,2,1,,,,,1,6,22,0,0,11,11,5,,,,,,,,,1,5.338938465007232,,,056,001,2019_May_21_1613,MusicAffectPsychophysiology2019,3.0.5,59.663856221601556,
,,30MonoWAV/30MonoF1.wav,1,2,2,1,,,,,1,6,22,0,,,,,,,,,,,,,,,,,056,001,2019_May_21_1613,MusicAffectPsychophysiology2019,3.0.5,59.663856221601556,
To what extent did the music make you feel ,FRUSTRATED,30MonoWAV/30MonoS3.wav,1,1,3,11,,,,,1,7,23,10,0,0,0,3,,,1,4.351779008997255,2,2.068303020001622,1,1.4015295320132282,1,1.1005670059967088,,,056,001,2019_May_21_1613,MusicAffectPsychophysiology2019,3.0.5,59.663856221601556,
To what extent did the music make you feel ,GUILTY,30MonoWAV/30MonoS3.wav,1,1,3,11,,,,,1,7,23,10,0,1,1,5,,,,,,,,,1,2.285196331999032,,,056,001,2019_May_21_1613,MusicAffectPsychophysiology2019,3.0.5,59.663856221601556,
To what extent did the music make you feel ,SCARED,30MonoWAV/30MonoS3.wav,1,1,3,11,,,,,1,7,23,10,0,2,2,11,,,,,,,,,1,1.4356584869965445,,,056,001,2019_May_21_1613,MusicAffectPsychophysiology2019,3.0.5,59.663856221601556,
To what extent did the music make you feel ,ALERT,30MonoWAV/30MonoS3.wav,1,1,3,11,,,,,1,7,23,10,0,3,3,8,,,,,,,,,1,1.8184380450111348,,,056,001,2019_May_21_1613,MusicAffectPsychophysiology2019,3.0.5,59.663856221601556,
To what extent did the music make you feel ,ASHAMED,30MonoWAV/30MonoS3.wav,1,1,3,11,,,,,1,7,23,10,0,4,4,4,,,,,,,,,1,3.7193341700040037,,,056,001,2019_May_21_1613,MusicAffectPsychophysiology2019,3.0.5,59.663856221601556,
To what extent did the music make you feel ,ACTIVE,30MonoWAV/30MonoS3.wav,1,1,3,11,,,,,1,7,23,10,0,5,5,9,,,,,,,,,1,1.40228356901207,,,056,001,2019_May_21_1613,MusicAffectPsychophysiology2019,3.0.5,59.663856221601556,
To what extent did the music make you feel ,EXCITED,30MonoWAV/30MonoS3.wav,1,1,3,11,,,,,1,7,23,10,0,6,6,7,,,,,,,,,2,3.5833374959911453,,,056,001,2019_May_21_1613,MusicAffectPsychophysiology2019,3.0.5,59.663856221601556,
To what extent did the music make you feel ,SAD,30MonoWAV/30MonoS3.wav,1,1,3,11,,,,,1,7,23,10,0,7,7,0,,,,,,,,,3,2.1714264000038384,,,056,001,2019_May_21_1613,MusicAffectPsychophysiology2019,3.0.5,59.663856221601556,
To what extent did the music make you feel ,ANXIOUS ,30MonoWAV/30MonoS3.wav,1,1,3,11,,,,,1,7,23,10,0,8,8,1,,,,,,,,,1,6.3424651399982395,,,056,001,2019_May_21_1613,MusicAffectPsychophysiology2019,3.0.5,59.663856221601556,
To what extent did the music make you feel ,ANGRY,30MonoWAV/30MonoS3.wav,1,1,3,11,,,,,1,7,23,10,0,9,9,2,,,,,,,,,1,0.7532095609931275,,,056,001,2019_May_21_1613,MusicAffectPsychophysiology2019,3.0.5,59.663856221601556,
To what extent did the music make you feel ,HAPPY,30MonoWAV/30MonoS3.wav,1,1,3,11,,,,,1,7,23,10,0,10,10,6,,,,,,,,,2,1.5031671750039095,,,056,001,2019_May_21_1613,MusicAffectPsychophysiology2019,3.0.5,59.663856221601556,
To what extent did the music make you feel ,TENDER,30MonoWAV/30MonoS3.wav,1,1,3,11,,,,,1,7,23,10,0,11,11,10,,,,,,,,,3,1.9690093800018076,,,056,001,2019_May_21_1613,MusicAffectPsychophysiology2019,3.0.5,59.663856221601556,
,,30MonoWAV/30MonoS3.wav,1,1,3,11,,,,,1,7,23,10,,,,,,,,,,,,,,,,,056,001,2019_May_21_1613,MusicAffectPsychophysiology2019,3.0.5,59.663856221601556,
To what extent did the music make you feel ,ANGRY,30MonoWAV/30MonoF4.wav,1,2,2,4,,,,,1,8,24,3,0,0,0,2,,,5,2.488207977003185,1,4.526782593995449,1,2.6679601630021352,1,2.753465800007689,,,056,001,2019_May_21_1613,MusicAffectPsychophysiology2019,3.0.5,59.663856221601556,
To what extent did the music make you feel ,ACTIVE,30MonoWAV/30MonoF4.wav,1,2,2,4,,,,,1,8,24,3,0,1,1,9,,,,,,,,,4,2.6845262290007668,,,056,001,2019_May_21_1613,MusicAffectPsychophysiology2019,3.0.5,59.663856221601556,
To what extent did the music make you feel ,GUILTY,30MonoWAV/30MonoF4.wav,1,2,2,4,,,,,1,8,24,3,0,2,2,5,,,,,,,,,1,2.484872984001413,,,056,001,2019_May_21_1613,MusicAffectPsychophysiology2019,3.0.5,59.663856221601556,
To what extent did the music make you feel ,TENDER,30MonoWAV/30MonoF4.wav,1,2,2,4,,,,,1,8,24,3,0,3,3,10,,,,,,,,,1,1.034863683002186,,,056,001,2019_May_21_1613,MusicAffectPsychophysiology2019,3.0.5,59.663856221601556,
To what extent did the music make you feel ,ANXIOUS ,30MonoWAV/30MonoF4.wav,1,2,2,4,,,,,1,8,24,3,0,4,4,1,,,,,,,,,3,1.7016110050026327,,,056,001,2019_May_21_1613,MusicAffectPsychophysiology2019,3.0.5,59.663856221601556,
To what extent did the music make you feel ,FRUSTRATED,30MonoWAV/30MonoF4.wav,1,2,2,4,,,,,1,8,24,3,0,5,5,3,,,,,,,,,2,2.434993258997565,,,056,001,2019_May_21_1613,MusicAffectPsychophysiology2019,3.0.5,59.663856221601556,
To what extent did the music make you feel ,ASHAMED,30MonoWAV/30MonoF4.wav,1,2,2,4,,,,,1,8,24,3,0,6,6,4,,,,,,,,,1,0.9184245899959933,,,056,001,2019_May_21_1613,MusicAffectPsychophysiology2019,3.0.5,59.663856221601556,
To what extent did the music make you feel ,EXCITED,30MonoWAV/30MonoF4.wav,1,2,2,4,,,,,1,8,24,3,0,7,7,7,,,,,,,,,2,2.0383243980031693,,,056,001,2019_May_21_1613,MusicAffectPsychophysiology2019,3.0.5,59.663856221601556,
To what extent did the music make you feel ,SCARED,30MonoWAV/30MonoF4.wav,1,2,2,4,,,,,1,8,24,3,0,8,8,11,,,,,,,,,4,2.571642612994765,,,056,001,2019_May_21_1613,MusicAffectPsychophysiology2019,3.0.5,59.663856221601556,
To what extent did the music make you feel ,ALERT,30MonoWAV/30MonoF4.wav,1,2,2,4,,,,,1,8,24,3,0,9,9,8,,,,,,,,,5,3.2373069070017664,,,056,001,2019_May_21_1613,MusicAffectPsychophysiology2019,3.0.5,59.663856221601556,
To what extent did the music make you feel ,SAD,30MonoWAV/30MonoF4.wav,1,2,2,4,,,,,1,8,24,3,0,10,10,0,,,,,,,,,1,4.97333365000668,,,056,001,2019_May_21_1613,MusicAffectPsychophysiology2019,3.0.5,59.663856221601556,
To what extent did the music make you feel ,HAPPY,30MonoWAV/30MonoF4.wav,1,2,2,4,,,,,1,8,24,3,0,11,11,6,,,,,,,,,1,1.1686474309972255,,,056,001,2019_May_21_1613,MusicAffectPsychophysiology2019,3.0.5,59.663856221601556,
,,30MonoWAV/30MonoF4.wav,1,2,2,4,,,,,1,8,24,3,,,,,,,,,,,,,,,,,056,001,2019_May_21_1613,MusicAffectPsychophysiology2019,3.0.5,59.663856221601556,
To what extent did the music make you feel ,EXCITED,30MonoWAV/30MonoT1.wav,2,1,4,13,,,,,1,9,25,12,0,0,0,7,,,2,3.188946070993552,3,1.925198889002786,3,1.4182450620137388,2,1.900881348992698,,,056,001,2019_May_21_1613,MusicAffectPsychophysiology2019,3.0.5,59.663856221601556,
To what extent did the music make you feel ,SAD,30MonoWAV/30MonoT1.wav,2,1,4,13,,,,,1,9,25,12,0,1,1,0,,,,,,,,,1,1.4686225939949509,,,056,001,2019_May_21_1613,MusicAffectPsychophysiology2019,3.0.5,59.663856221601556,
To what extent did the music make you feel ,HAPPY,30MonoWAV/30MonoT1.wav,2,1,4,13,,,,,1,9,25,12,0,2,2,6,,,,,,,,,3,1.9009168699994916,,,056,001,2019_May_21_1613,MusicAffectPsychophysiology2019,3.0.5,59.663856221601556,
To what extent did the music make you feel ,ANGRY,30MonoWAV/30MonoT1.wav,2,1,4,13,,,,,1,9,25,12,0,3,3,2,,,,,,,,,1,1.0017261410102947,,,056,001,2019_May_21_1613,MusicAffectPsychophysiology2019,3.0.5,59.663856221601556,
To what extent did the music make you feel ,ALERT,30MonoWAV/30MonoT1.wav,2,1,4,13,,,,,1,9,25,12,0,4,4,8,,,,,,,,,1,1.3174029369984055,,,056,001,2019_May_21_1613,MusicAffectPsychophysiology2019,3.0.5,59.663856221601556,
To what extent did the music make you feel ,FRUSTRATED,30MonoWAV/30MonoT1.wav,2,1,4,13,,,,,1,9,25,12,0,5,5,3,,,,,,,,,1,0.935431502002757,,,056,001,2019_May_21_1613,MusicAffectPsychophysiology2019,3.0.5,59.663856221601556,
To what extent did the music make you feel ,GUILTY,30MonoWAV/30MonoT1.wav,2,1,4,13,,,,,1,9,25,12,0,6,6,5,,,,,,,,,1,0.7007730939949397,,,056,001,2019_May_21_1613,MusicAffectPsychophysiology2019,3.0.5,59.663856221601556,
To what extent did the music make you feel ,ACTIVE,30MonoWAV/30MonoT1.wav,2,1,4,13,,,,,1,9,25,12,0,7,7,9,,,,,,,,,2,1.7179900980117964,,,056,001,2019_May_21_1613,MusicAffectPsychophysiology2019,3.0.5,59.663856221601556,
To what extent did the music make you feel ,SCARED,30MonoWAV/30MonoT1.wav,2,1,4,13,,,,,1,9,25,12,0,8,8,11,,,,,,,,,1,2.4847149069973966,,,056,001,2019_May_21_1613,MusicAffectPsychophysiology2019,3.0.5,59.663856221601556,
To what extent did the music make you feel ,ASHAMED,30MonoWAV/30MonoT1.wav,2,1,4,13,,,,,1,9,25,12,0,9,9,4,,,,,,,,,1,0.8842686159914592,,,056,001,2019_May_21_1613,MusicAffectPsychophysiology2019,3.0.5,59.663856221601556,
To what extent did the music make you feel ,TENDER,30MonoWAV/30MonoT1.wav,2,1,4,13,,,,,1,9,25,12,0,10,10,10,,,,,,,,,2,2.136612685993896,,,056,001,2019_May_21_1613,MusicAffectPsychophysiology2019,3.0.5,59.663856221601556,
To what extent did the music make you feel ,ANXIOUS ,30MonoWAV/30MonoT1.wav,2,1,4,13,,,,,1,9,25,12,0,11,11,1,,,,,,,,,1,1.0019026289955946,,,056,001,2019_May_21_1613,MusicAffectPsychophysiology2019,3.0.5,59.663856221601556,
,,30MonoWAV/30MonoT1.wav,2,1,4,13,,,,,1,9,25,12,,,,,,,,,,,,,,,,,056,001,2019_May_21_1613,MusicAffectPsychophysiology2019,3.0.5,59.663856221601556,
To what extent did the music make you feel ,SAD,30MonoWAV/30MonoH3.wav,2,2,1,7,,,,,1,10,26,6,0,0,0,0,,,5,3.255485347996,5,2.7564630739943823,5,0.717494230993907,1,1.1537304099911125,,,056,001,2019_May_21_1613,MusicAffectPsychophysiology2019,3.0.5,59.663856221601556,
To what extent did the music make you feel ,TENDER,30MonoWAV/30MonoH3.wav,2,2,1,7,,,,,1,10,26,6,0,1,1,10,,,,,,,,,2,3.0022283970029093,,,056,001,2019_May_21_1613,MusicAffectPsychophysiology2019,3.0.5,59.663856221601556,
To what extent did the music make you feel ,FRUSTRATED,30MonoWAV/30MonoH3.wav,2,2,1,7,,,,,1,10,26,6,0,2,2,3,,,,,,,,,1,0.8506579180102563,,,056,001,2019_May_21_1613,MusicAffectPsychophysiology2019,3.0.5,59.663856221601556,
To what extent did the music make you feel ,ANGRY,30MonoWAV/30MonoH3.wav,2,2,1,7,,,,,1,10,26,6,0,3,3,2,,,,,,,,,1,2.7353352749923943,,,056,001,2019_May_21_1613,MusicAffectPsychophysiology2019,3.0.5,59.663856221601556,
To what extent did the music make you feel ,ASHAMED,30MonoWAV/30MonoH3.wav,2,2,1,7,,,,,1,10,26,6,0,4,4,4,,,,,,,,,1,0.7184475579997525,,,056,001,2019_May_21_1613,MusicAffectPsychophysiology2019,3.0.5,59.663856221601556,
To what extent did the music make you feel ,HAPPY,30MonoWAV/30MonoH3.wav,2,2,1,7,,,,,1,10,26,6,0,5,5,6,,,,,,,,,5,1.3503336610010592,,,056,001,2019_May_21_1613,MusicAffectPsychophysiology2019,3.0.5,59.663856221601556,
To what extent did the music make you feel ,ACTIVE,30MonoWAV/30MonoH3.wav,2,2,1,7,,,,,1,10,26,6,0,6,6,9,,,,,,,,,4,1.4345282860012958,,,056,001,2019_May_21_1613,MusicAffectPsychophysiology2019,3.0.5,59.663856221601556,
To what extent did the music make you feel ,ALERT,30MonoWAV/30MonoH3.wav,2,2,1,7,,,,,1,10,26,6,0,7,7,8,,,,,,,,,3,2.5522232150105992,,,056,001,2019_May_21_1613,MusicAffectPsychophysiology2019,3.0.5,59.663856221601556,
To what extent did the music make you feel ,GUILTY,30MonoWAV/30MonoH3.wav,2,2,1,7,,,,,1,10,26,6,0,8,8,5,,,,,,,,,1,1.9025707809923915,,,056,001,2019_May_21_1613,MusicAffectPsychophysiology2019,3.0.5,59.663856221601556,
To what extent did the music make you feel ,ANXIOUS ,30MonoWAV/30MonoH3.wav,2,2,1,7,,,,,1,10,26,6,0,9,9,1,,,,,,,,,1,0.8003964889940107,,,056,001,2019_May_21_1613,MusicAffectPsychophysiology2019,3.0.5,59.663856221601556,
To what extent did the music make you feel ,EXCITED,30MonoWAV/30MonoH3.wav,2,2,1,7,,,,,1,10,26,6,0,10,10,7,,,,,,,,,5,3.300947522991919,,,056,001,2019_May_21_1613,MusicAffectPsychophysiology2019,3.0.5,59.663856221601556,
To what extent did the music make you feel ,SCARED,30MonoWAV/30MonoH3.wav,2,2,1,7,,,,,1,10,26,6,0,11,11,11,,,,,,,,,1,1.2013657630013768,,,056,001,2019_May_21_1613,MusicAffectPsychophysiology2019,3.0.5,59.663856221601556,
,,30MonoWAV/30MonoH3.wav,2,2,1,7,,,,,1,10,26,6,,,,,,,,,,,,,,,,,056,001,2019_May_21_1613,MusicAffectPsychophysiology2019,3.0.5,59.663856221601556,
To what extent did the music make you feel ,ANXIOUS ,30MonoWAV/30MonoT2.wav,2,1,4,14,,,,,1,11,27,13,0,0,0,1,,,3,3.9015360769990366,4,1.4022055189998355,4,1.0509993220039178,1,0.9520599060051609,,,056,001,2019_May_21_1613,MusicAffectPsychophysiology2019,3.0.5,59.663856221601556,
To what extent did the music make you feel ,ANGRY,30MonoWAV/30MonoT2.wav,2,1,4,14,,,,,1,11,27,13,0,1,1,2,,,,,,,,,1,0.7016135880112415,,,056,001,2019_May_21_1613,MusicAffectPsychophysiology2019,3.0.5,59.663856221601556,
To what extent did the music make you feel ,TENDER,30MonoWAV/30MonoT2.wav,2,1,4,14,,,,,1,11,27,13,0,2,2,10,,,,,,,,,3,1.6011292210023385,,,056,001,2019_May_21_1613,MusicAffectPsychophysiology2019,3.0.5,59.663856221601556,
To what extent did the music make you feel ,FRUSTRATED,30MonoWAV/30MonoT2.wav,2,1,4,14,,,,,1,11,27,13,0,3,3,3,,,,,,,,,1,3.133292056998471,,,056,001,2019_May_21_1613,MusicAffectPsychophysiology2019,3.0.5,59.663856221601556,
To what extent did the music make you feel ,ACTIVE,30MonoWAV/30MonoT2.wav,2,1,4,14,,,,,1,11,27,13,0,4,4,9,,,,,,,,,3,2.183781567000551,,,056,001,2019_May_21_1613,MusicAffectPsychophysiology2019,3.0.5,59.663856221601556,
To what extent did the music make you feel ,SAD,30MonoWAV/30MonoT2.wav,2,1,4,14,,,,,1,11,27,13,0,5,5,0,,,,,,,,,1,1.3343798450077884,,,056,001,2019_May_21_1613,MusicAffectPsychophysiology2019,3.0.5,59.663856221601556,
To what extent did the music make you feel ,ALERT,30MonoWAV/30MonoT2.wav,2,1,4,14,,,,,1,11,27,13,0,6,6,8,,,,,,,,,2,1.9350759210065007,,,056,001,2019_May_21_1613,MusicAffectPsychophysiology2019,3.0.5,59.663856221601556,
To what extent did the music make you feel ,GUILTY,30MonoWAV/30MonoT2.wav,2,1,4,14,,,,,1,11,27,13,0,7,7,5,,,,,,,,,1,1.4684174520079978,,,056,001,2019_May_21_1613,MusicAffectPsychophysiology2019,3.0.5,59.663856221601556,
To what extent did the music make you feel ,SCARED,30MonoWAV/30MonoT2.wav,2,1,4,14,,,,,1,11,27,13,0,8,8,11,,,,,,,,,1,1.5680990570108406,,,056,001,2019_May_21_1613,MusicAffectPsychophysiology2019,3.0.5,59.663856221601556,
To what extent did the music make you feel ,HAPPY,30MonoWAV/30MonoT2.wav,2,1,4,14,,,,,1,11,27,13,0,9,9,6,,,,,,,,,3,3.2334101789892884,,,056,001,2019_May_21_1613,MusicAffectPsychophysiology2019,3.0.5,59.663856221601556,
To what extent did the music make you feel ,EXCITED,30MonoWAV/30MonoT2.wav,2,1,4,14,,,,,1,11,27,13,0,10,10,7,,,,,,,,,2,1.267819838001742,,,056,001,2019_May_21_1613,MusicAffectPsychophysiology2019,3.0.5,59.663856221601556,
To what extent did the music make you feel ,ASHAMED,30MonoWAV/30MonoT2.wav,2,1,4,14,,,,,1,11,27,13,0,11,11,4,,,,,,,,,1,1.9333832359989174,,,056,001,2019_May_21_1613,MusicAffectPsychophysiology2019,3.0.5,59.663856221601556,
,,30MonoWAV/30MonoT2.wav,2,1,4,14,,,,,1,11,27,13,,,,,,,,,,,,,,,,,056,001,2019_May_21_1613,MusicAffectPsychophysiology2019,3.0.5,59.663856221601556,
To what extent did the music make you feel ,EXCITED,30MonoWAV/30MonoH2.wav,2,2,1,6,,,,,1,12,28,5,0,0,0,7,,,3,4.2008003020018805,4,3.350696137989871,3,1.4180468000122346,3,2.298895003987127,,,056,001,2019_May_21_1613,MusicAffectPsychophysiology2019,3.0.5,59.663856221601556,
To what extent did the music make you feel ,HAPPY,30MonoWAV/30MonoH2.wav,2,2,1,6,,,,,1,12,28,5,0,1,1,6,,,,,,,,,3,1.6688510069943732,,,056,001,2019_May_21_1613,MusicAffectPsychophysiology2019,3.0.5,59.663856221601556,
To what extent did the music make you feel ,SCARED,30MonoWAV/30MonoH2.wav,2,2,1,6,,,,,1,12,28,5,0,2,2,11,,,,,,,,,1,1.4023804440075764,,,056,001,2019_May_21_1613,MusicAffectPsychophysiology2019,3.0.5,59.663856221601556,
To what extent did the music make you feel ,ANGRY,30MonoWAV/30MonoH2.wav,2,2,1,6,,,,,1,12,28,5,0,3,3,2,,,,,,,,,1,0.6499659850087482,,,056,001,2019_May_21_1613,MusicAffectPsychophysiology2019,3.0.5,59.663856221601556,
To what extent did the music make you feel ,TENDER,30MonoWAV/30MonoH2.wav,2,2,1,6,,,,,1,12,28,5,0,4,4,10,,,,,,,,,2,0.9838578720082296,,,056,001,2019_May_21_1613,MusicAffectPsychophysiology2019,3.0.5,59.663856221601556,
To what extent did the music make you feel ,ALERT,30MonoWAV/30MonoH2.wav,2,2,1,6,,,,,1,12,28,5,0,5,5,8,,,,,,,,,2,2.4018615989916725,,,056,001,2019_May_21_1613,MusicAffectPsychophysiology2019,3.0.5,59.663856221601556,
To what extent did the music make you feel ,GUILTY,30MonoWAV/30MonoH2.wav,2,2,1,6,,,,,1,12,28,5,0,6,6,5,,,,,,,,,1,2.4670519180072006,,,056,001,2019_May_21_1613,MusicAffectPsychophysiology2019,3.0.5,59.663856221601556,
To what extent did the music make you feel ,ACTIVE,30MonoWAV/30MonoH2.wav,2,2,1,6,,,,,1,12,28,5,0,7,7,9,,,,,,,,,3,1.8017400950047886,,,056,001,2019_May_21_1613,MusicAffectPsychophysiology2019,3.0.5,59.663856221601556,
To what extent did the music make you feel ,ANXIOUS ,30MonoWAV/30MonoH2.wav,2,2,1,6,,,,,1,12,28,5,0,8,8,1,,,,,,,,,1,1.6690232880064286,,,056,001,2019_May_21_1613,MusicAffectPsychophysiology2019,3.0.5,59.663856221601556,
To what extent did the music make you feel ,SAD,30MonoWAV/30MonoH2.wav,2,2,1,6,,,,,1,12,28,5,0,9,9,0,,,,,,,,,1,0.9013745999982348,,,056,001,2019_May_21_1613,MusicAffectPsychophysiology2019,3.0.5,59.663856221601556,
To what extent did the music make you feel ,FRUSTRATED,30MonoWAV/30MonoH2.wav,2,2,1,6,,,,,1,12,28,5,0,10,10,3,,,,,,,,,1,0.6515439200011315,,,056,001,2019_May_21_1613,MusicAffectPsychophysiology2019,3.0.5,59.663856221601556,
To what extent did the music make you feel ,ASHAMED,30MonoWAV/30MonoH2.wav,2,2,1,6,,,,,1,12,28,5,0,11,11,4,,,,,,,,,1,0.6497675480059115,,,056,001,2019_May_21_1613,MusicAffectPsychophysiology2019,3.0.5,59.663856221601556,
,,30MonoWAV/30MonoH2.wav,2,2,1,6,,,,,1,12,28,5,,,,,,,,,,,,,,,,,056,001,2019_May_21_1613,MusicAffectPsychophysiology2019,3.0.5,59.663856221601556,
To what extent did the music make you feel ,HAPPY,30MonoWAV/30MonoF3.wav,1,2,2,3,,,,,1,13,29,2,0,0,0,6,,,3,3.0831557710043853,2,2.1994412329950137,2,1.9018007659906289,2,2.6514708799950313,,,056,001,2019_May_21_1613,MusicAffectPsychophysiology2019,3.0.5,59.663856221601556,
To what extent did the music make you feel ,TENDER,30MonoWAV/30MonoF3.wav,1,2,2,3,,,,,1,13,29,2,0,1,1,10,,,,,,,,,1,1.5192254669964314,,,056,001,2019_May_21_1613,MusicAffectPsychophysiology2019,3.0.5,59.663856221601556,
To what extent did the music make you feel ,ALERT,30MonoWAV/30MonoF3.wav,1,2,2,3,,,,,1,13,29,2,0,2,2,8,,,,,,,,,3,2.701588558004005,,,056,001,2019_May_21_1613,MusicAffectPsychophysiology2019,3.0.5,59.663856221601556,
To what extent did the music make you feel ,SAD,30MonoWAV/30MonoF3.wav,1,2,2,3,,,,,1,13,29,2,0,3,3,0,,,,,,,,,1,3.3191995800007135,,,056,001,2019_May_21_1613,MusicAffectPsychophysiology2019,3.0.5,59.663856221601556,
To what extent did the music make you feel ,ANXIOUS ,30MonoWAV/30MonoF3.wav,1,2,2,3,,,,,1,13,29,2,0,4,4,1,,,,,,,,,3,3.701929476999794,,,056,001,2019_May_21_1613,MusicAffectPsychophysiology2019,3.0.5,59.663856221601556,
To what extent did the music make you feel ,EXCITED,30MonoWAV/30MonoF3.wav,1,2,2,3,,,,,1,13,29,2,0,5,5,7,,,,,,,,,2,4.3181923310039565,,,056,001,2019_May_21_1613,MusicAffectPsychophysiology2019,3.0.5,59.663856221601556,
To what extent did the music make you feel ,FRUSTRATED,30MonoWAV/30MonoF3.wav,1,2,2,3,,,,,1,13,29,2,0,6,6,3,,,,,,,,,1,1.0685073990025558,,,056,001,2019_May_21_1613,MusicAffectPsychophysiology2019,3.0.5,59.663856221601556,
To what extent did the music make you feel ,ASHAMED,30MonoWAV/30MonoF3.wav,1,2,2,3,,,,,1,13,29,2,0,7,7,4,,,,,,,,,1,1.0852276669902494,,,056,001,2019_May_21_1613,MusicAffectPsychophysiology2019,3.0.5,59.663856221601556,
To what extent did the music make you feel ,ACTIVE,30MonoWAV/30MonoF3.wav,1,2,2,3,,,,,1,13,29,2,0,8,8,9,,,,,,,,,2,2.5676638949953485,,,056,001,2019_May_21_1613,MusicAffectPsychophysiology2019,3.0.5,59.663856221601556,
To what extent did the music make you feel ,ANGRY,30MonoWAV/30MonoF3.wav,1,2,2,3,,,,,1,13,29,2,0,9,9,2,,,,,,,,,1,1.0682961900020018,,,056,001,2019_May_21_1613,MusicAffectPsychophysiology2019,3.0.5,59.663856221601556,
To what extent did the music make you feel ,GUILTY,30MonoWAV/30MonoF3.wav,1,2,2,3,,,,,1,13,29,2,0,10,10,5,,,,,,,,,2,1.8022852770081954,,,056,001,2019_May_21_1613,MusicAffectPsychophysiology2019,3.0.5,59.663856221601556,
To what extent did the music make you feel ,SCARED,30MonoWAV/30MonoF3.wav,1,2,2,3,,,,,1,13,29,2,0,11,11,11,,,,,,,,,2,1.4182952210103394,,,056,001,2019_May_21_1613,MusicAffectPsychophysiology2019,3.0.5,59.663856221601556,
,,30MonoWAV/30MonoF3.wav,1,2,2,3,,,,,1,13,29,2,,,,,,,,,,,,,,,,,056,001,2019_May_21_1613,MusicAffectPsychophysiology2019,3.0.5,59.663856221601556,
To what extent did the music make you feel ,EXCITED,30MonoWAV/30MonoS1.wav,1,1,3,9,,,,,1,14,30,8,0,0,0,7,,,1,6.175767545006238,2,1.7864862559945323,2,1.805255847008084,1,1.2687371479987632,,,056,001,2019_May_21_1613,MusicAffectPsychophysiology2019,3.0.5,59.663856221601556,
To what extent did the music make you feel ,ANGRY,30MonoWAV/30MonoS1.wav,1,1,3,9,,,,,1,14,30,8,0,1,1,2,,,,,,,,,1,2.151816937010153,,,056,001,2019_May_21_1613,MusicAffectPsychophysiology2019,3.0.5,59.663856221601556,
To what extent did the music make you feel ,HAPPY,30MonoWAV/30MonoS1.wav,1,1,3,9,,,,,1,14,30,8,0,2,2,6,,,,,,,,,2,1.95130539299862,,,056,001,2019_May_21_1613,MusicAffectPsychophysiology2019,3.0.5,59.663856221601556,
To what extent did the music make you feel ,SAD,30MonoWAV/30MonoS1.wav,1,1,3,9,,,,,1,14,30,8,0,3,3,0,,,,,,,,,3,2.8501108930067858,,,056,001,2019_May_21_1613,MusicAffectPsychophysiology2019,3.0.5,59.663856221601556,
To what extent did the music make you feel ,ASHAMED,30MonoWAV/30MonoS1.wav,1,1,3,9,,,,,1,14,30,8,0,4,4,4,,,,,,,,,1,4.050727695997921,,,056,001,2019_May_21_1613,MusicAffectPsychophysiology2019,3.0.5,59.663856221601556,
To what extent did the music make you feel ,TENDER,30MonoWAV/30MonoS1.wav,1,1,3,9,,,,,1,14,30,8,0,5,5,10,,,,,,,,,3,1.9003201150044333,,,056,001,2019_May_21_1613,MusicAffectPsychophysiology2019,3.0.5,59.663856221601556,
To what extent did the music make you feel ,FRUSTRATED,30MonoWAV/30MonoS1.wav,1,1,3,9,,,,,1,14,30,8,0,6,6,3,,,,,,,,,1,1.019134906004183,,,056,001,2019_May_21_1613,MusicAffectPsychophysiology2019,3.0.5,59.663856221601556,
To what extent did the music make you feel ,ALERT,30MonoWAV/30MonoS1.wav,1,1,3,9,,,,,1,14,30,8,0,7,7,8,,,,,,,,,1,0.8855353289982304,,,056,001,2019_May_21_1613,MusicAffectPsychophysiology2019,3.0.5,59.663856221601556,
To what extent did the music make you feel ,ACTIVE,30MonoWAV/30MonoS1.wav,1,1,3,9,,,,,1,14,30,8,0,8,8,9,,,,,,,,,1,1.3180479650036432,,,056,001,2019_May_21_1613,MusicAffectPsychophysiology2019,3.0.5,59.663856221601556,
To what extent did the music make you feel ,SCARED,30MonoWAV/30MonoS1.wav,1,1,3,9,,,,,1,14,30,8,0,9,9,11,,,,,,,,,1,1.6567205360042863,,,056,001,2019_May_21_1613,MusicAffectPsychophysiology2019,3.0.5,59.663856221601556,
To what extent did the music make you feel ,ANXIOUS ,30MonoWAV/30MonoS1.wav,1,1,3,9,,,,,1,14,30,8,0,10,10,1,,,,,,,,,1,0.7192504059930798,,,056,001,2019_May_21_1613,MusicAffectPsychophysiology2019,3.0.5,59.663856221601556,
To what extent did the music make you feel ,GUILTY,30MonoWAV/30MonoS1.wav,1,1,3,9,,,,,1,14,30,8,0,11,11,5,,,,,,,,,1,0.8355220990051748,,,056,001,2019_May_21_1613,MusicAffectPsychophysiology2019,3.0.5,59.663856221601556,
,,30MonoWAV/30MonoS1.wav,1,1,3,9,,,,,1,14,30,8,,,,,,,,,,,,,,,,,056,001,2019_May_21_1613,MusicAffectPsychophysiology2019,3.0.5,59.663856221601556,
To what extent did the music make you feel ,EXCITED,30MonoWAV/30MonoS4.wav,1,1,3,12,,,,,1,15,31,11,0,0,0,7,,,1,5.599632669996936,2,1.8681555319926701,3,2.167251747989212,1,2.8011411449988373,,,056,001,2019_May_21_1613,MusicAffectPsychophysiology2019,3.0.5,59.663856221601556,
To what extent did the music make you feel ,TENDER,30MonoWAV/30MonoS4.wav,1,1,3,12,,,,,1,15,31,11,0,1,1,10,,,,,,,,,4,1.7842542930011405,,,056,001,2019_May_21_1613,MusicAffectPsychophysiology2019,3.0.5,59.663856221601556,
To what extent did the music make you feel ,ANXIOUS ,30MonoWAV/30MonoS4.wav,1,1,3,12,,,,,1,15,31,11,0,2,2,1,,,,,,,,,1,3.8856406139966566,,,056,001,2019_May_21_1613,MusicAffectPsychophysiology2019,3.0.5,59.663856221601556,
To what extent did the music make you feel ,ASHAMED,30MonoWAV/30MonoS4.wav,1,1,3,12,,,,,1,15,31,11,0,3,3,4,,,,,,,,,1,0.7852572660049191,,,056,001,2019_May_21_1613,MusicAffectPsychophysiology2019,3.0.5,59.663856221601556,
To what extent did the music make you feel ,SCARED,30MonoWAV/30MonoS4.wav,1,1,3,12,,,,,1,15,31,11,0,4,4,11,,,,,,,,,1,1.0180902499996591,,,056,001,2019_May_21_1613,MusicAffectPsychophysiology2019,3.0.5,59.663856221601556,
To what extent did the music make you feel ,ANGRY,30MonoWAV/30MonoS4.wav,1,1,3,12,,,,,1,15,31,11,0,5,5,2,,,,,,,,,1,0.8170613800029969,,,056,001,2019_May_21_1613,MusicAffectPsychophysiology2019,3.0.5,59.663856221601556,
To what extent did the music make you feel ,FRUSTRATED,30MonoWAV/30MonoS4.wav,1,1,3,12,,,,,1,15,31,11,0,6,6,3,,,,,,,,,1,0.8018552910070866,,,056,001,2019_May_21_1613,MusicAffectPsychophysiology2019,3.0.5,59.663856221601556,
To what extent did the music make you feel ,HAPPY,30MonoWAV/30MonoS4.wav,1,1,3,12,,,,,1,15,31,11,0,7,7,6,,,,,,,,,2,1.667932940996252,,,056,001,2019_May_21_1613,MusicAffectPsychophysiology2019,3.0.5,59.663856221601556,
To what extent did the music make you feel ,ACTIVE,30MonoWAV/30MonoS4.wav,1,1,3,12,,,,,1,15,31,11,0,8,8,9,,,,,,,,,3,2.234595417001401,,,056,001,2019_May_21_1613,MusicAffectPsychophysiology2019,3.0.5,59.663856221601556,
To what extent did the music make you feel ,SAD,30MonoWAV/30MonoS4.wav,1,1,3,12,,,,,1,15,31,11,0,9,9,0,,,,,,,,,4,4.384697683999548,,,056,001,2019_May_21_1613,MusicAffectPsychophysiology2019,3.0.5,59.663856221601556,
To what extent did the music make you feel ,ALERT,30MonoWAV/30MonoS4.wav,1,1,3,12,,,,,1,15,31,11,0,10,10,8,,,,,,,,,1,2.368846368000959,,,056,001,2019_May_21_1613,MusicAffectPsychophysiology2019,3.0.5,59.663856221601556,
To what extent did the music make you feel ,GUILTY,30MonoWAV/30MonoS4.wav,1,1,3,12,,,,,1,15,31,11,0,11,11,5,,,,,,,,,2,2.1850781549874227,,,056,001,2019_May_21_1613,MusicAffectPsychophysiology2019,3.0.5,59.663856221601556,
,,30MonoWAV/30MonoS4.wav,1,1,3,12,,,,,1,15,31,11,,,,,,,,,,,,,,,,,056,001,2019_May_21_1613,MusicAffectPsychophysiology2019,3.0.5,59.663856221601556,
,,,,,,,,,,,,,,,,,,,,,,,,,,,,,left,5.268003418008448,056,001,2019_May_21_1613,MusicAffectPsychophysiology2019,3.0.5,59.663856221601556,
