Instruction,Word,song,valence,arousal,affectcat,songmark,pracwords.thisRepN,pracwords.thisTrialN,pracwords.thisN,pracwords.thisIndex,songtrials.thisRepN,songtrials.thisTrialN,songtrials.thisN,songtrials.thisIndex,words.thisRepN,words.thisTrialN,words.thisN,words.thisIndex,begin.keys,begin.rt,arousalkey.keys,arousalkey.rt,valencekey.keys,valencekey.rt,likekey.keys,likekey.rt,WordResponse.keys,WordResponse.rt,participant,session,date,expName,psychopyVersion,frameRate,
,,,,,,,,,,,,,,,,,,,return,13.149673242000063,,,,,,,,,057,001,2019_May_23_1406,MusicAffectPsychophysiology2019,3.0.5,59.84455102589806,
,,,,,,,,,,,,,,,,,,,,,3,3.96866190500009,,,,,,,057,001,2019_May_23_1406,MusicAffectPsychophysiology2019,3.0.5,59.84455102589806,
,,,,,,,,,,,,,,,,,,,,,,,3,3.501479894000113,,,,,057,001,2019_May_23_1406,MusicAffectPsychophysiology2019,3.0.5,59.84455102589806,
,,,,,,,,,,,,,,,,,,,,,,,,,3,2.084812867999972,,,057,001,2019_May_23_1406,MusicAffectPsychophysiology2019,3.0.5,59.84455102589806,
To what extent did the music make you feel ,ANGRY,,,,,,0,0,0,2,,,,,,,,,,,,,,,,,1,2.1693651320001663,057,001,2019_May_23_1406,MusicAffectPsychophysiology2019,3.0.5,59.84455102589806,
To what extent did the music make you feel ,ANXIOUS ,,,,,,0,1,1,1,,,,,,,,,,,,,,,,,1,2.199015584000108,057,001,2019_May_23_1406,MusicAffectPsychophysiology2019,3.0.5,59.84455102589806,
To what extent did the music make you feel ,TENDER,,,,,,0,2,2,10,,,,,,,,,,,,,,,,,3,2.584610232000159,057,001,2019_May_23_1406,MusicAffectPsychophysiology2019,3.0.5,59.84455102589806,
To what extent did the music make you feel ,SAD,,,,,,0,3,3,0,,,,,,,,,,,,,,,,,2,1.967555172999937,057,001,2019_May_23_1406,MusicAffectPsychophysiology2019,3.0.5,59.84455102589806,
To what extent did the music make you feel ,EXCITED,,,,,,0,4,4,7,,,,,,,,,,,,,,,,,3,2.768391629000007,057,001,2019_May_23_1406,MusicAffectPsychophysiology2019,3.0.5,59.84455102589806,
To what extent did the music make you feel ,SCARED,,,,,,0,5,5,11,,,,,,,,,,,,,,,,,1,1.2672804090000227,057,001,2019_May_23_1406,MusicAffectPsychophysiology2019,3.0.5,59.84455102589806,
To what extent did the music make you feel ,ALERT,,,,,,0,6,6,8,,,,,,,,,,,,,,,,,1,1.2854655419998835,057,001,2019_May_23_1406,MusicAffectPsychophysiology2019,3.0.5,59.84455102589806,
To what extent did the music make you feel ,HAPPY,,,,,,0,7,7,6,,,,,,,,,,,,,,,,,4,2.685931081000035,057,001,2019_May_23_1406,MusicAffectPsychophysiology2019,3.0.5,59.84455102589806,
To what extent did the music make you feel ,GUILTY,,,,,,0,8,8,5,,,,,,,,,,,,,,,,,1,1.3348132410001199,057,001,2019_May_23_1406,MusicAffectPsychophysiology2019,3.0.5,59.84455102589806,
To what extent did the music make you feel ,FRUSTRATED,,,,,,0,9,9,3,,,,,,,,,,,,,,,,,1,3.5191788729998734,057,001,2019_May_23_1406,MusicAffectPsychophysiology2019,3.0.5,59.84455102589806,
To what extent did the music make you feel ,ASHAMED,,,,,,0,10,10,4,,,,,,,,,,,,,,,,,1,0.9018433660000937,057,001,2019_May_23_1406,MusicAffectPsychophysiology2019,3.0.5,59.84455102589806,
To what extent did the music make you feel ,ACTIVE,,,,,,0,11,11,9,,,,,,,,,,,,,,,,,1,1.0185491499998989,057,001,2019_May_23_1406,MusicAffectPsychophysiology2019,3.0.5,59.84455102589806,
To what extent did the music make you feel ,ALERT,30MonoWAV/30MonoS2.wav,1,1,3,10,,,,,0,0,0,9,0,0,0,8,,,1,4.41784822600016,2,3.8505359179998777,2,1.7188805769999362,2,3.001783211999964,057,001,2019_May_23_1406,MusicAffectPsychophysiology2019,3.0.5,59.84455102589806,
To what extent did the music make you feel ,HAPPY,30MonoWAV/30MonoS2.wav,1,1,3,10,,,,,0,0,0,9,0,1,1,6,,,,,,,,,2,1.7857619779999823,057,001,2019_May_23_1406,MusicAffectPsychophysiology2019,3.0.5,59.84455102589806,
To what extent did the music make you feel ,ACTIVE,30MonoWAV/30MonoS2.wav,1,1,3,10,,,,,0,0,0,9,0,2,2,9,,,,,,,,,1,1.2858156750000944,057,001,2019_May_23_1406,MusicAffectPsychophysiology2019,3.0.5,59.84455102589806,
To what extent did the music make you feel ,ANXIOUS ,30MonoWAV/30MonoS2.wav,1,1,3,10,,,,,0,0,0,9,0,3,3,1,,,,,,,,,1,0.801081664000094,057,001,2019_May_23_1406,MusicAffectPsychophysiology2019,3.0.5,59.84455102589806,
To what extent did the music make you feel ,TENDER,30MonoWAV/30MonoS2.wav,1,1,3,10,,,,,0,0,0,9,0,4,4,10,,,,,,,,,2,1.968805052000107,057,001,2019_May_23_1406,MusicAffectPsychophysiology2019,3.0.5,59.84455102589806,
To what extent did the music make you feel ,GUILTY,30MonoWAV/30MonoS2.wav,1,1,3,10,,,,,0,0,0,9,0,5,5,5,,,,,,,,,1,0.9853778199999397,057,001,2019_May_23_1406,MusicAffectPsychophysiology2019,3.0.5,59.84455102589806,
To what extent did the music make you feel ,SCARED,30MonoWAV/30MonoS2.wav,1,1,3,10,,,,,0,0,0,9,0,6,6,11,,,,,,,,,1,0.9679864160000307,057,001,2019_May_23_1406,MusicAffectPsychophysiology2019,3.0.5,59.84455102589806,
To what extent did the music make you feel ,ANGRY,30MonoWAV/30MonoS2.wav,1,1,3,10,,,,,0,0,0,9,0,7,7,2,,,,,,,,,1,0.7679966339999282,057,001,2019_May_23_1406,MusicAffectPsychophysiology2019,3.0.5,59.84455102589806,
To what extent did the music make you feel ,ASHAMED,30MonoWAV/30MonoS2.wav,1,1,3,10,,,,,0,0,0,9,0,8,8,4,,,,,,,,,1,0.7850154959999145,057,001,2019_May_23_1406,MusicAffectPsychophysiology2019,3.0.5,59.84455102589806,
To what extent did the music make you feel ,EXCITED,30MonoWAV/30MonoS2.wav,1,1,3,10,,,,,0,0,0,9,0,9,9,7,,,,,,,,,2,1.6170480769999358,057,001,2019_May_23_1406,MusicAffectPsychophysiology2019,3.0.5,59.84455102589806,
To what extent did the music make you feel ,FRUSTRATED,30MonoWAV/30MonoS2.wav,1,1,3,10,,,,,0,0,0,9,0,10,10,3,,,,,,,,,1,0.900036990999979,057,001,2019_May_23_1406,MusicAffectPsychophysiology2019,3.0.5,59.84455102589806,
To what extent did the music make you feel ,SAD,30MonoWAV/30MonoS2.wav,1,1,3,10,,,,,0,0,0,9,0,11,11,0,,,,,,,,,3,2.2515100240000265,057,001,2019_May_23_1406,MusicAffectPsychophysiology2019,3.0.5,59.84455102589806,
,,30MonoWAV/30MonoS2.wav,1,1,3,10,,,,,0,0,0,9,,,,,,,,,,,,,,,057,001,2019_May_23_1406,MusicAffectPsychophysiology2019,3.0.5,59.84455102589806,
To what extent did the music make you feel ,ANGRY,30MonoWAV/30MonoS3.wav,1,1,3,11,,,,,0,1,1,10,0,0,0,2,,,1,5.5013056919997325,2,1.78300093200005,2,2.11947175899968,2,2.1351387810000233,057,001,2019_May_23_1406,MusicAffectPsychophysiology2019,3.0.5,59.84455102589806,
To what extent did the music make you feel ,ALERT,30MonoWAV/30MonoS3.wav,1,1,3,11,,,,,0,1,1,10,0,1,1,8,,,,,,,,,2,1.1019968730001892,057,001,2019_May_23_1406,MusicAffectPsychophysiology2019,3.0.5,59.84455102589806,
To what extent did the music make you feel ,FRUSTRATED,30MonoWAV/30MonoS3.wav,1,1,3,11,,,,,0,1,1,10,0,2,2,3,,,,,,,,,3,2.517716647999805,057,001,2019_May_23_1406,MusicAffectPsychophysiology2019,3.0.5,59.84455102589806,
To what extent did the music make you feel ,GUILTY,30MonoWAV/30MonoS3.wav,1,1,3,11,,,,,0,1,1,10,0,3,3,5,,,,,,,,,2,1.1017774520000785,057,001,2019_May_23_1406,MusicAffectPsychophysiology2019,3.0.5,59.84455102589806,
To what extent did the music make you feel ,ANXIOUS ,30MonoWAV/30MonoS3.wav,1,1,3,11,,,,,0,1,1,10,0,4,4,1,,,,,,,,,3,1.9849140920000536,057,001,2019_May_23_1406,MusicAffectPsychophysiology2019,3.0.5,59.84455102589806,
To what extent did the music make you feel ,HAPPY,30MonoWAV/30MonoS3.wav,1,1,3,11,,,,,0,1,1,10,0,5,5,6,,,,,,,,,3,1.901392346999728,057,001,2019_May_23_1406,MusicAffectPsychophysiology2019,3.0.5,59.84455102589806,
To what extent did the music make you feel ,SAD,30MonoWAV/30MonoS3.wav,1,1,3,11,,,,,0,1,1,10,0,6,6,0,,,,,,,,,3,1.1193570049999835,057,001,2019_May_23_1406,MusicAffectPsychophysiology2019,3.0.5,59.84455102589806,
To what extent did the music make you feel ,ACTIVE,30MonoWAV/30MonoS3.wav,1,1,3,11,,,,,0,1,1,10,0,7,7,9,,,,,,,,,2,2.601805325999976,057,001,2019_May_23_1406,MusicAffectPsychophysiology2019,3.0.5,59.84455102589806,
To what extent did the music make you feel ,SCARED,30MonoWAV/30MonoS3.wav,1,1,3,11,,,,,0,1,1,10,0,8,8,11,,,,,,,,,2,3.984997304999979,057,001,2019_May_23_1406,MusicAffectPsychophysiology2019,3.0.5,59.84455102589806,
To what extent did the music make you feel ,EXCITED,30MonoWAV/30MonoS3.wav,1,1,3,11,,,,,0,1,1,10,0,9,9,7,,,,,,,,,2,1.435310927000046,057,001,2019_May_23_1406,MusicAffectPsychophysiology2019,3.0.5,59.84455102589806,
To what extent did the music make you feel ,TENDER,30MonoWAV/30MonoS3.wav,1,1,3,11,,,,,0,1,1,10,0,10,10,10,,,,,,,,,2,0.9842123100002027,057,001,2019_May_23_1406,MusicAffectPsychophysiology2019,3.0.5,59.84455102589806,
To what extent did the music make you feel ,ASHAMED,30MonoWAV/30MonoS3.wav,1,1,3,11,,,,,0,1,1,10,0,11,11,4,,,,,,,,,1,1.2851029460002792,057,001,2019_May_23_1406,MusicAffectPsychophysiology2019,3.0.5,59.84455102589806,
,,30MonoWAV/30MonoS3.wav,1,1,3,11,,,,,0,1,1,10,,,,,,,,,,,,,,,057,001,2019_May_23_1406,MusicAffectPsychophysiology2019,3.0.5,59.84455102589806,
To what extent did the music make you feel ,ANGRY,30MonoWAV/30MonoT2.wav,2,1,4,14,,,,,0,2,2,13,0,0,0,2,,,2,3.2509931290001077,3,2.8514310199998363,3,1.55213053999978,1,2.6175184499998068,057,001,2019_May_23_1406,MusicAffectPsychophysiology2019,3.0.5,59.84455102589806,
To what extent did the music make you feel ,ASHAMED,30MonoWAV/30MonoT2.wav,2,1,4,14,,,,,0,2,2,13,0,1,1,4,,,,,,,,,1,1.4521919620001427,057,001,2019_May_23_1406,MusicAffectPsychophysiology2019,3.0.5,59.84455102589806,
To what extent did the music make you feel ,SCARED,30MonoWAV/30MonoT2.wav,2,1,4,14,,,,,0,2,2,13,0,2,2,11,,,,,,,,,1,1.1521427399998174,057,001,2019_May_23_1406,MusicAffectPsychophysiology2019,3.0.5,59.84455102589806,
To what extent did the music make you feel ,SAD,30MonoWAV/30MonoT2.wav,2,1,4,14,,,,,0,2,2,13,0,3,3,0,,,,,,,,,2,1.3352381390000119,057,001,2019_May_23_1406,MusicAffectPsychophysiology2019,3.0.5,59.84455102589806,
To what extent did the music make you feel ,ANXIOUS ,30MonoWAV/30MonoT2.wav,2,1,4,14,,,,,0,2,2,13,0,4,4,1,,,,,,,,,1,2.7680531959999826,057,001,2019_May_23_1406,MusicAffectPsychophysiology2019,3.0.5,59.84455102589806,
To what extent did the music make you feel ,GUILTY,30MonoWAV/30MonoT2.wav,2,1,4,14,,,,,0,2,2,13,0,5,5,5,,,,,,,,,1,0.8511167860001478,057,001,2019_May_23_1406,MusicAffectPsychophysiology2019,3.0.5,59.84455102589806,
To what extent did the music make you feel ,ALERT,30MonoWAV/30MonoT2.wav,2,1,4,14,,,,,0,2,2,13,0,6,6,8,,,,,,,,,2,1.8184143399998902,057,001,2019_May_23_1406,MusicAffectPsychophysiology2019,3.0.5,59.84455102589806,
To what extent did the music make you feel ,HAPPY,30MonoWAV/30MonoT2.wav,2,1,4,14,,,,,0,2,2,13,0,7,7,6,,,,,,,,,3,3.268659161999949,057,001,2019_May_23_1406,MusicAffectPsychophysiology2019,3.0.5,59.84455102589806,
To what extent did the music make you feel ,EXCITED,30MonoWAV/30MonoT2.wav,2,1,4,14,,,,,0,2,2,13,0,8,8,7,,,,,,,,,2,3.0678354409997155,057,001,2019_May_23_1406,MusicAffectPsychophysiology2019,3.0.5,59.84455102589806,
To what extent did the music make you feel ,ACTIVE,30MonoWAV/30MonoT2.wav,2,1,4,14,,,,,0,2,2,13,0,9,9,9,,,,,,,,,2,0.801366403999964,057,001,2019_May_23_1406,MusicAffectPsychophysiology2019,3.0.5,59.84455102589806,
To what extent did the music make you feel ,FRUSTRATED,30MonoWAV/30MonoT2.wav,2,1,4,14,,,,,0,2,2,13,0,10,10,3,,,,,,,,,2,0.7191422450000573,057,001,2019_May_23_1406,MusicAffectPsychophysiology2019,3.0.5,59.84455102589806,
To what extent did the music make you feel ,TENDER,30MonoWAV/30MonoT2.wav,2,1,4,14,,,,,0,2,2,13,0,11,11,10,,,,,,,,,3,1.7177870450000228,057,001,2019_May_23_1406,MusicAffectPsychophysiology2019,3.0.5,59.84455102589806,
,,30MonoWAV/30MonoT2.wav,2,1,4,14,,,,,0,2,2,13,,,,,,,,,,,,,,,057,001,2019_May_23_1406,MusicAffectPsychophysiology2019,3.0.5,59.84455102589806,
To what extent did the music make you feel ,ANGRY,30MonoWAV/30MonoF1.wav,1,2,2,1,,,,,0,3,3,0,0,0,0,2,,,4,3.9847846920001757,3,1.9349068450001141,3,1.5512219090001054,3,1.9018189380003605,057,001,2019_May_23_1406,MusicAffectPsychophysiology2019,3.0.5,59.84455102589806,
To what extent did the music make you feel ,EXCITED,30MonoWAV/30MonoF1.wav,1,2,2,1,,,,,0,3,3,0,0,1,1,7,,,,,,,,,3,0.9019152750001922,057,001,2019_May_23_1406,MusicAffectPsychophysiology2019,3.0.5,59.84455102589806,
To what extent did the music make you feel ,TENDER,30MonoWAV/30MonoF1.wav,1,2,2,1,,,,,0,3,3,0,0,2,2,10,,,,,,,,,2,0.9184170370003812,057,001,2019_May_23_1406,MusicAffectPsychophysiology2019,3.0.5,59.84455102589806,
To what extent did the music make you feel ,HAPPY,30MonoWAV/30MonoF1.wav,1,2,2,1,,,,,0,3,3,0,0,3,3,6,,,,,,,,,2,1.6352142450000429,057,001,2019_May_23_1406,MusicAffectPsychophysiology2019,3.0.5,59.84455102589806,
To what extent did the music make you feel ,FRUSTRATED,30MonoWAV/30MonoF1.wav,1,2,2,1,,,,,0,3,3,0,0,4,4,3,,,,,,,,,1,1.734859473999677,057,001,2019_May_23_1406,MusicAffectPsychophysiology2019,3.0.5,59.84455102589806,
To what extent did the music make you feel ,ACTIVE,30MonoWAV/30MonoF1.wav,1,2,2,1,,,,,0,3,3,0,0,5,5,9,,,,,,,,,3,1.4522003269999004,057,001,2019_May_23_1406,MusicAffectPsychophysiology2019,3.0.5,59.84455102589806,
To what extent did the music make you feel ,GUILTY,30MonoWAV/30MonoF1.wav,1,2,2,1,,,,,0,3,3,0,0,6,6,5,,,,,,,,,1,0.8855134180003006,057,001,2019_May_23_1406,MusicAffectPsychophysiology2019,3.0.5,59.84455102589806,
To what extent did the music make you feel ,SCARED,30MonoWAV/30MonoF1.wav,1,2,2,1,,,,,0,3,3,0,0,7,7,11,,,,,,,,,3,1.818341946000146,057,001,2019_May_23_1406,MusicAffectPsychophysiology2019,3.0.5,59.84455102589806,
To what extent did the music make you feel ,ASHAMED,30MonoWAV/30MonoF1.wav,1,2,2,1,,,,,0,3,3,0,0,8,8,4,,,,,,,,,2,1.351401254999928,057,001,2019_May_23_1406,MusicAffectPsychophysiology2019,3.0.5,59.84455102589806,
To what extent did the music make you feel ,SAD,30MonoWAV/30MonoF1.wav,1,2,2,1,,,,,0,3,3,0,0,9,9,0,,,,,,,,,2,1.020162681000329,057,001,2019_May_23_1406,MusicAffectPsychophysiology2019,3.0.5,59.84455102589806,
To what extent did the music make you feel ,ALERT,30MonoWAV/30MonoF1.wav,1,2,2,1,,,,,0,3,3,0,0,10,10,8,,,,,,,,,3,0.9511934420002035,057,001,2019_May_23_1406,MusicAffectPsychophysiology2019,3.0.5,59.84455102589806,
To what extent did the music make you feel ,ANXIOUS ,30MonoWAV/30MonoF1.wav,1,2,2,1,,,,,0,3,3,0,0,11,11,1,,,,,,,,,3,1.734494500999972,057,001,2019_May_23_1406,MusicAffectPsychophysiology2019,3.0.5,59.84455102589806,
,,30MonoWAV/30MonoF1.wav,1,2,2,1,,,,,0,3,3,0,,,,,,,,,,,,,,,057,001,2019_May_23_1406,MusicAffectPsychophysiology2019,3.0.5,59.84455102589806,
To what extent did the music make you feel ,FRUSTRATED,30MonoWAV/30MonoF3.wav,1,2,2,3,,,,,0,4,4,2,0,0,0,3,,,3,2.884530447999623,2,2.0351265459999013,2,1.6186349459999292,2,1.583360821000042,057,001,2019_May_23_1406,MusicAffectPsychophysiology2019,3.0.5,59.84455102589806,
To what extent did the music make you feel ,SAD,30MonoWAV/30MonoF3.wav,1,2,2,3,,,,,0,4,4,2,0,1,1,0,,,,,,,,,2,1.9212241469999753,057,001,2019_May_23_1406,MusicAffectPsychophysiology2019,3.0.5,59.84455102589806,
To what extent did the music make you feel ,ANGRY,30MonoWAV/30MonoF3.wav,1,2,2,3,,,,,0,4,4,2,0,2,2,2,,,,,,,,,2,1.1195326970000679,057,001,2019_May_23_1406,MusicAffectPsychophysiology2019,3.0.5,59.84455102589806,
To what extent did the music make you feel ,ACTIVE,30MonoWAV/30MonoF3.wav,1,2,2,3,,,,,0,4,4,2,0,3,3,9,,,,,,,,,3,1.0533225539998057,057,001,2019_May_23_1406,MusicAffectPsychophysiology2019,3.0.5,59.84455102589806,
To what extent did the music make you feel ,ASHAMED,30MonoWAV/30MonoF3.wav,1,2,2,3,,,,,0,4,4,2,0,4,4,4,,,,,,,,,2,0.9529665319996639,057,001,2019_May_23_1406,MusicAffectPsychophysiology2019,3.0.5,59.84455102589806,
To what extent did the music make you feel ,SCARED,30MonoWAV/30MonoF3.wav,1,2,2,3,,,,,0,4,4,2,0,5,5,11,,,,,,,,,2,5.426058990000001,057,001,2019_May_23_1406,MusicAffectPsychophysiology2019,3.0.5,59.84455102589806,
To what extent did the music make you feel ,EXCITED,30MonoWAV/30MonoF3.wav,1,2,2,3,,,,,0,4,4,2,0,6,6,7,,,,,,,,,2,1.5008410010000262,057,001,2019_May_23_1406,MusicAffectPsychophysiology2019,3.0.5,59.84455102589806,
To what extent did the music make you feel ,HAPPY,30MonoWAV/30MonoF3.wav,1,2,2,3,,,,,0,4,4,2,0,7,7,6,,,,,,,,,2,1.1017144480001662,057,001,2019_May_23_1406,MusicAffectPsychophysiology2019,3.0.5,59.84455102589806,
To what extent did the music make you feel ,TENDER,30MonoWAV/30MonoF3.wav,1,2,2,3,,,,,0,4,4,2,0,8,8,10,,,,,,,,,1,1.5028293770001255,057,001,2019_May_23_1406,MusicAffectPsychophysiology2019,3.0.5,59.84455102589806,
To what extent did the music make you feel ,ALERT,30MonoWAV/30MonoF3.wav,1,2,2,3,,,,,0,4,4,2,0,9,9,8,,,,,,,,,3,0.9681954339998811,057,001,2019_May_23_1406,MusicAffectPsychophysiology2019,3.0.5,59.84455102589806,
To what extent did the music make you feel ,GUILTY,30MonoWAV/30MonoF3.wav,1,2,2,3,,,,,0,4,4,2,0,10,10,5,,,,,,,,,2,0.9178872200000114,057,001,2019_May_23_1406,MusicAffectPsychophysiology2019,3.0.5,59.84455102589806,
To what extent did the music make you feel ,ANXIOUS ,30MonoWAV/30MonoF3.wav,1,2,2,3,,,,,0,4,4,2,0,11,11,1,,,,,,,,,3,1.6345900090000214,057,001,2019_May_23_1406,MusicAffectPsychophysiology2019,3.0.5,59.84455102589806,
,,30MonoWAV/30MonoF3.wav,1,2,2,3,,,,,0,4,4,2,,,,,,,,,,,,,,,057,001,2019_May_23_1406,MusicAffectPsychophysiology2019,3.0.5,59.84455102589806,
To what extent did the music make you feel ,SAD,30MonoWAV/30MonoF4.wav,1,2,2,4,,,,,0,5,5,3,0,0,0,0,,,4,2.6233713499996156,4,1.134989522000069,3,1.3354362540003422,2,1.4525597450001442,057,001,2019_May_23_1406,MusicAffectPsychophysiology2019,3.0.5,59.84455102589806,
To what extent did the music make you feel ,FRUSTRATED,30MonoWAV/30MonoF4.wav,1,2,2,4,,,,,0,5,5,3,0,1,1,3,,,,,,,,,2,1.0343060180002794,057,001,2019_May_23_1406,MusicAffectPsychophysiology2019,3.0.5,59.84455102589806,
To what extent did the music make you feel ,SCARED,30MonoWAV/30MonoF4.wav,1,2,2,4,,,,,0,5,5,3,0,2,2,11,,,,,,,,,2,0.8185482160001811,057,001,2019_May_23_1406,MusicAffectPsychophysiology2019,3.0.5,59.84455102589806,
To what extent did the music make you feel ,ANGRY,30MonoWAV/30MonoF4.wav,1,2,2,4,,,,,0,5,5,3,0,3,3,2,,,,,,,,,2,1.8343091739998272,057,001,2019_May_23_1406,MusicAffectPsychophysiology2019,3.0.5,59.84455102589806,
To what extent did the music make you feel ,ACTIVE,30MonoWAV/30MonoF4.wav,1,2,2,4,,,,,0,5,5,3,0,4,4,9,,,,,,,,,3,1.0667402550002407,057,001,2019_May_23_1406,MusicAffectPsychophysiology2019,3.0.5,59.84455102589806,
To what extent did the music make you feel ,GUILTY,30MonoWAV/30MonoF4.wav,1,2,2,4,,,,,0,5,5,3,0,5,5,5,,,,,,,,,1,0.9835971460001929,057,001,2019_May_23_1406,MusicAffectPsychophysiology2019,3.0.5,59.84455102589806,
To what extent did the music make you feel ,ASHAMED,30MonoWAV/30MonoF4.wav,1,2,2,4,,,,,0,5,5,3,0,6,6,4,,,,,,,,,1,0.952412349000042,057,001,2019_May_23_1406,MusicAffectPsychophysiology2019,3.0.5,59.84455102589806,
To what extent did the music make you feel ,TENDER,30MonoWAV/30MonoF4.wav,1,2,2,4,,,,,0,5,5,3,0,7,7,10,,,,,,,,,1,0.90163806999999,057,001,2019_May_23_1406,MusicAffectPsychophysiology2019,3.0.5,59.84455102589806,
To what extent did the music make you feel ,ALERT,30MonoWAV/30MonoF4.wav,1,2,2,4,,,,,0,5,5,3,0,8,8,8,,,,,,,,,4,1.0850642109999171,057,001,2019_May_23_1406,MusicAffectPsychophysiology2019,3.0.5,59.84455102589806,
To what extent did the music make you feel ,ANXIOUS ,30MonoWAV/30MonoF4.wav,1,2,2,4,,,,,0,5,5,3,0,9,9,1,,,,,,,,,3,1.5506475920001321,057,001,2019_May_23_1406,MusicAffectPsychophysiology2019,3.0.5,59.84455102589806,
To what extent did the music make you feel ,EXCITED,30MonoWAV/30MonoF4.wav,1,2,2,4,,,,,0,5,5,3,0,10,10,7,,,,,,,,,4,1.3012658520001423,057,001,2019_May_23_1406,MusicAffectPsychophysiology2019,3.0.5,59.84455102589806,
To what extent did the music make you feel ,HAPPY,30MonoWAV/30MonoF4.wav,1,2,2,4,,,,,0,5,5,3,0,11,11,6,,,,,,,,,2,1.4845311079998282,057,001,2019_May_23_1406,MusicAffectPsychophysiology2019,3.0.5,59.84455102589806,
,,30MonoWAV/30MonoF4.wav,1,2,2,4,,,,,0,5,5,3,,,,,,,,,,,,,,,057,001,2019_May_23_1406,MusicAffectPsychophysiology2019,3.0.5,59.84455102589806,
To what extent did the music make you feel ,TENDER,30MonoWAV/30MonoT1.wav,2,1,4,13,,,,,0,6,6,12,0,0,0,10,,,1,2.818032601000141,2,1.6347028319996753,2,1.3012525539998023,2,5.434969242000079,057,001,2019_May_23_1406,MusicAffectPsychophysiology2019,3.0.5,59.84455102589806,
To what extent did the music make you feel ,EXCITED,30MonoWAV/30MonoT1.wav,2,1,4,13,,,,,0,6,6,12,0,1,1,7,,,,,,,,,2,1.0175038209999911,057,001,2019_May_23_1406,MusicAffectPsychophysiology2019,3.0.5,59.84455102589806,
To what extent did the music make you feel ,FRUSTRATED,30MonoWAV/30MonoT1.wav,2,1,4,13,,,,,0,6,6,12,0,2,2,3,,,,,,,,,2,0.8175909410001623,057,001,2019_May_23_1406,MusicAffectPsychophysiology2019,3.0.5,59.84455102589806,
To what extent did the music make you feel ,ASHAMED,30MonoWAV/30MonoT1.wav,2,1,4,13,,,,,0,6,6,12,0,3,3,4,,,,,,,,,1,0.9516417970003204,057,001,2019_May_23_1406,MusicAffectPsychophysiology2019,3.0.5,59.84455102589806,
To what extent did the music make you feel ,ACTIVE,30MonoWAV/30MonoT1.wav,2,1,4,13,,,,,0,6,6,12,0,4,4,9,,,,,,,,,2,0.9676313049999408,057,001,2019_May_23_1406,MusicAffectPsychophysiology2019,3.0.5,59.84455102589806,
To what extent did the music make you feel ,ANXIOUS ,30MonoWAV/30MonoT1.wav,2,1,4,13,,,,,0,6,6,12,0,5,5,1,,,,,,,,,1,0.9353501709997545,057,001,2019_May_23_1406,MusicAffectPsychophysiology2019,3.0.5,59.84455102589806,
To what extent did the music make you feel ,ANGRY,30MonoWAV/30MonoT1.wav,2,1,4,13,,,,,0,6,6,12,0,6,6,2,,,,,,,,,1,0.7681845530000828,057,001,2019_May_23_1406,MusicAffectPsychophysiology2019,3.0.5,59.84455102589806,
To what extent did the music make you feel ,SAD,30MonoWAV/30MonoT1.wav,2,1,4,13,,,,,0,6,6,12,0,7,7,0,,,,,,,,,4,1.7855373110000983,057,001,2019_May_23_1406,MusicAffectPsychophysiology2019,3.0.5,59.84455102589806,
To what extent did the music make you feel ,GUILTY,30MonoWAV/30MonoT1.wav,2,1,4,13,,,,,0,6,6,12,0,8,8,5,,,,,,,,,1,1.2673348950002037,057,001,2019_May_23_1406,MusicAffectPsychophysiology2019,3.0.5,59.84455102589806,
To what extent did the music make you feel ,ALERT,30MonoWAV/30MonoT1.wav,2,1,4,13,,,,,0,6,6,12,0,9,9,8,,,,,,,,,2,1.935360590000073,057,001,2019_May_23_1406,MusicAffectPsychophysiology2019,3.0.5,59.84455102589806,
To what extent did the music make you feel ,SCARED,30MonoWAV/30MonoT1.wav,2,1,4,13,,,,,0,6,6,12,0,10,10,11,,,,,,,,,1,1.7515883050000411,057,001,2019_May_23_1406,MusicAffectPsychophysiology2019,3.0.5,59.84455102589806,
To what extent did the music make you feel ,HAPPY,30MonoWAV/30MonoT1.wav,2,1,4,13,,,,,0,6,6,12,0,11,11,6,,,,,,,,,2,1.1012472580000576,057,001,2019_May_23_1406,MusicAffectPsychophysiology2019,3.0.5,59.84455102589806,
,,30MonoWAV/30MonoT1.wav,2,1,4,13,,,,,0,6,6,12,,,,,,,,,,,,,,,057,001,2019_May_23_1406,MusicAffectPsychophysiology2019,3.0.5,59.84455102589806,
To what extent did the music make you feel ,ANXIOUS ,30MonoWAV/30MonoF2.wav,1,2,2,2,,,,,0,7,7,1,0,0,0,1,,,4,3.7419437129997277,1,1.5843603710000025,1,1.8352917559996058,5,1.873321462000149,057,001,2019_May_23_1406,MusicAffectPsychophysiology2019,3.0.5,59.84455102589806,
To what extent did the music make you feel ,ANGRY,30MonoWAV/30MonoF2.wav,1,2,2,2,,,,,0,7,7,1,0,1,1,2,,,,,,,,,3,2.2714476329997524,057,001,2019_May_23_1406,MusicAffectPsychophysiology2019,3.0.5,59.84455102589806,
To what extent did the music make you feel ,SAD,30MonoWAV/30MonoF2.wav,1,2,2,2,,,,,0,7,7,1,0,2,2,0,,,,,,,,,3,1.3024886090001928,057,001,2019_May_23_1406,MusicAffectPsychophysiology2019,3.0.5,59.84455102589806,
To what extent did the music make you feel ,GUILTY,30MonoWAV/30MonoF2.wav,1,2,2,2,,,,,0,7,7,1,0,3,3,5,,,,,,,,,3,1.420166099999733,057,001,2019_May_23_1406,MusicAffectPsychophysiology2019,3.0.5,59.84455102589806,
To what extent did the music make you feel ,FRUSTRATED,30MonoWAV/30MonoF2.wav,1,2,2,2,,,,,0,7,7,1,0,4,4,3,,,,,,,,,1,1.4185392519998459,057,001,2019_May_23_1406,MusicAffectPsychophysiology2019,3.0.5,59.84455102589806,
To what extent did the music make you feel ,TENDER,30MonoWAV/30MonoF2.wav,1,2,2,2,,,,,0,7,7,1,0,5,5,10,,,,,,,,,1,0.8568599109999013,057,001,2019_May_23_1406,MusicAffectPsychophysiology2019,3.0.5,59.84455102589806,
To what extent did the music make you feel ,ACTIVE,30MonoWAV/30MonoF2.wav,1,2,2,2,,,,,0,7,7,1,0,6,6,9,,,,,,,,,3,1.8015667109998503,057,001,2019_May_23_1406,MusicAffectPsychophysiology2019,3.0.5,59.84455102589806,
To what extent did the music make you feel ,ALERT,30MonoWAV/30MonoF2.wav,1,2,2,2,,,,,0,7,7,1,0,7,7,8,,,,,,,,,3,1.0345443140004136,057,001,2019_May_23_1406,MusicAffectPsychophysiology2019,3.0.5,59.84455102589806,
To what extent did the music make you feel ,ASHAMED,30MonoWAV/30MonoF2.wav,1,2,2,2,,,,,0,7,7,1,0,8,8,4,,,,,,,,,2,1.5850499920002221,057,001,2019_May_23_1406,MusicAffectPsychophysiology2019,3.0.5,59.84455102589806,
To what extent did the music make you feel ,HAPPY,30MonoWAV/30MonoF2.wav,1,2,2,2,,,,,0,7,7,1,0,9,9,6,,,,,,,,,1,1.7027553439997973,057,001,2019_May_23_1406,MusicAffectPsychophysiology2019,3.0.5,59.84455102589806,
To what extent did the music make you feel ,EXCITED,30MonoWAV/30MonoF2.wav,1,2,2,2,,,,,0,7,7,1,0,10,10,7,,,,,,,,,1,1.651212138000119,057,001,2019_May_23_1406,MusicAffectPsychophysiology2019,3.0.5,59.84455102589806,
To what extent did the music make you feel ,SCARED,30MonoWAV/30MonoF2.wav,1,2,2,2,,,,,0,7,7,1,0,11,11,11,,,,,,,,,5,2.0850711399998545,057,001,2019_May_23_1406,MusicAffectPsychophysiology2019,3.0.5,59.84455102589806,
,,30MonoWAV/30MonoF2.wav,1,2,2,2,,,,,0,7,7,1,,,,,,,,,,,,,,,057,001,2019_May_23_1406,MusicAffectPsychophysiology2019,3.0.5,59.84455102589806,
To what extent did the music make you feel ,SCARED,30MonoWAV/30MonoT3.wav,2,1,4,15,,,,,0,8,8,14,0,0,0,11,,,2,12.534126128000025,3,2.3846157000002677,2,1.587097162000191,1,1.8010963409997203,057,001,2019_May_23_1406,MusicAffectPsychophysiology2019,3.0.5,59.84455102589806,
To what extent did the music make you feel ,ALERT,30MonoWAV/30MonoT3.wav,2,1,4,15,,,,,0,8,8,14,0,1,1,8,,,,,,,,,1,0.9511038400000871,057,001,2019_May_23_1406,MusicAffectPsychophysiology2019,3.0.5,59.84455102589806,
To what extent did the music make you feel ,GUILTY,30MonoWAV/30MonoT3.wav,2,1,4,15,,,,,0,8,8,14,0,2,2,5,,,,,,,,,1,1.735776282000188,057,001,2019_May_23_1406,MusicAffectPsychophysiology2019,3.0.5,59.84455102589806,
To what extent did the music make you feel ,FRUSTRATED,30MonoWAV/30MonoT3.wav,2,1,4,15,,,,,0,8,8,14,0,3,3,3,,,,,,,,,1,0.8180248290000236,057,001,2019_May_23_1406,MusicAffectPsychophysiology2019,3.0.5,59.84455102589806,
To what extent did the music make you feel ,ACTIVE,30MonoWAV/30MonoT3.wav,2,1,4,15,,,,,0,8,8,14,0,4,4,9,,,,,,,,,2,1.1173932020001303,057,001,2019_May_23_1406,MusicAffectPsychophysiology2019,3.0.5,59.84455102589806,
To what extent did the music make you feel ,EXCITED,30MonoWAV/30MonoT3.wav,2,1,4,15,,,,,0,8,8,14,0,5,5,7,,,,,,,,,2,1.351540360999934,057,001,2019_May_23_1406,MusicAffectPsychophysiology2019,3.0.5,59.84455102589806,
To what extent did the music make you feel ,SAD,30MonoWAV/30MonoT3.wav,2,1,4,15,,,,,0,8,8,14,0,6,6,0,,,,,,,,,2,1.9332167320003464,057,001,2019_May_23_1406,MusicAffectPsychophysiology2019,3.0.5,59.84455102589806,
To what extent did the music make you feel ,ASHAMED,30MonoWAV/30MonoT3.wav,2,1,4,15,,,,,0,8,8,14,0,7,7,4,,,,,,,,,1,1.2349579719998474,057,001,2019_May_23_1406,MusicAffectPsychophysiology2019,3.0.5,59.84455102589806,
To what extent did the music make you feel ,HAPPY,30MonoWAV/30MonoT3.wav,2,1,4,15,,,,,0,8,8,14,0,8,8,6,,,,,,,,,3,1.466650517999824,057,001,2019_May_23_1406,MusicAffectPsychophysiology2019,3.0.5,59.84455102589806,
To what extent did the music make you feel ,ANGRY,30MonoWAV/30MonoT3.wav,2,1,4,15,,,,,0,8,8,14,0,9,9,2,,,,,,,,,1,0.902143752000029,057,001,2019_May_23_1406,MusicAffectPsychophysiology2019,3.0.5,59.84455102589806,
To what extent did the music make you feel ,TENDER,30MonoWAV/30MonoT3.wav,2,1,4,15,,,,,0,8,8,14,0,10,10,10,,,,,,,,,3,1.1185994050001682,057,001,2019_May_23_1406,MusicAffectPsychophysiology2019,3.0.5,59.84455102589806,
To what extent did the music make you feel ,ANXIOUS ,30MonoWAV/30MonoT3.wav,2,1,4,15,,,,,0,8,8,14,0,11,11,1,,,,,,,,,1,1.6194335870000032,057,001,2019_May_23_1406,MusicAffectPsychophysiology2019,3.0.5,59.84455102589806,
,,30MonoWAV/30MonoT3.wav,2,1,4,15,,,,,0,8,8,14,,,,,,,,,,,,,,,057,001,2019_May_23_1406,MusicAffectPsychophysiology2019,3.0.5,59.84455102589806,
To what extent did the music make you feel ,ANGRY,30MonoWAV/30MonoS1.wav,1,1,3,9,,,,,0,9,9,8,0,0,0,2,,,1,2.6170907979999356,3,1.5683050720003848,3,1.5497986469999887,1,1.61796035999987,057,001,2019_May_23_1406,MusicAffectPsychophysiology2019,3.0.5,59.84455102589806,
To what extent did the music make you feel ,GUILTY,30MonoWAV/30MonoS1.wav,1,1,3,9,,,,,0,9,9,8,0,1,1,5,,,,,,,,,1,1.302539324999998,057,001,2019_May_23_1406,MusicAffectPsychophysiology2019,3.0.5,59.84455102589806,
To what extent did the music make you feel ,TENDER,30MonoWAV/30MonoS1.wav,1,1,3,9,,,,,0,9,9,8,0,2,2,10,,,,,,,,,3,1.355150070000036,057,001,2019_May_23_1406,MusicAffectPsychophysiology2019,3.0.5,59.84455102589806,
To what extent did the music make you feel ,ALERT,30MonoWAV/30MonoS1.wav,1,1,3,9,,,,,0,9,9,8,0,3,3,8,,,,,,,,,2,3.7065614590001132,057,001,2019_May_23_1406,MusicAffectPsychophysiology2019,3.0.5,59.84455102589806,
To what extent did the music make you feel ,ACTIVE,30MonoWAV/30MonoS1.wav,1,1,3,9,,,,,0,9,9,8,0,4,4,9,,,,,,,,,2,1.1529830579997906,057,001,2019_May_23_1406,MusicAffectPsychophysiology2019,3.0.5,59.84455102589806,
To what extent did the music make you feel ,ASHAMED,30MonoWAV/30MonoS1.wav,1,1,3,9,,,,,0,9,9,8,0,5,5,4,,,,,,,,,1,0.9848496879999402,057,001,2019_May_23_1406,MusicAffectPsychophysiology2019,3.0.5,59.84455102589806,
To what extent did the music make you feel ,SAD,30MonoWAV/30MonoS1.wav,1,1,3,9,,,,,0,9,9,8,0,6,6,0,,,,,,,,,1,1.1736746370002038,057,001,2019_May_23_1406,MusicAffectPsychophysiology2019,3.0.5,59.84455102589806,
To what extent did the music make you feel ,EXCITED,30MonoWAV/30MonoS1.wav,1,1,3,9,,,,,0,9,9,8,0,7,7,7,,,,,,,,,1,1.0853262169998743,057,001,2019_May_23_1406,MusicAffectPsychophysiology2019,3.0.5,59.84455102589806,
To what extent did the music make you feel ,HAPPY,30MonoWAV/30MonoS1.wav,1,1,3,9,,,,,0,9,9,8,0,8,8,6,,,,,,,,,3,1.1515087019997736,057,001,2019_May_23_1406,MusicAffectPsychophysiology2019,3.0.5,59.84455102589806,
To what extent did the music make you feel ,SCARED,30MonoWAV/30MonoS1.wav,1,1,3,9,,,,,0,9,9,8,0,9,9,11,,,,,,,,,1,1.3175065159998667,057,001,2019_May_23_1406,MusicAffectPsychophysiology2019,3.0.5,59.84455102589806,
To what extent did the music make you feel ,ANXIOUS ,30MonoWAV/30MonoS1.wav,1,1,3,9,,,,,0,9,9,8,0,10,10,1,,,,,,,,,1,1.2859912990002158,057,001,2019_May_23_1406,MusicAffectPsychophysiology2019,3.0.5,59.84455102589806,
To what extent did the music make you feel ,FRUSTRATED,30MonoWAV/30MonoS1.wav,1,1,3,9,,,,,0,9,9,8,0,11,11,3,,,,,,,,,1,0.8687369559997933,057,001,2019_May_23_1406,MusicAffectPsychophysiology2019,3.0.5,59.84455102589806,
,,30MonoWAV/30MonoS1.wav,1,1,3,9,,,,,0,9,9,8,,,,,,,,,,,,,,,057,001,2019_May_23_1406,MusicAffectPsychophysiology2019,3.0.5,59.84455102589806,
To what extent did the music make you feel ,ANXIOUS ,30MonoWAV/30MonoH4.wav,2,2,1,8,,,,,0,10,10,7,0,0,0,1,,,4,2.7523244530002557,4,1.9010876859997552,4,1.1684905300003265,1,1.7995209050000085,057,001,2019_May_23_1406,MusicAffectPsychophysiology2019,3.0.5,59.84455102589806,
To what extent did the music make you feel ,GUILTY,30MonoWAV/30MonoH4.wav,2,2,1,8,,,,,0,10,10,7,0,1,1,5,,,,,,,,,1,0.8345629820000795,057,001,2019_May_23_1406,MusicAffectPsychophysiology2019,3.0.5,59.84455102589806,
To what extent did the music make you feel ,HAPPY,30MonoWAV/30MonoH4.wav,2,2,1,8,,,,,0,10,10,7,0,2,2,6,,,,,,,,,4,1.1017446189998736,057,001,2019_May_23_1406,MusicAffectPsychophysiology2019,3.0.5,59.84455102589806,
To what extent did the music make you feel ,ACTIVE,30MonoWAV/30MonoH4.wav,2,2,1,8,,,,,0,10,10,7,0,3,3,9,,,,,,,,,3,1.300943983000252,057,001,2019_May_23_1406,MusicAffectPsychophysiology2019,3.0.5,59.84455102589806,
To what extent did the music make you feel ,SAD,30MonoWAV/30MonoH4.wav,2,2,1,8,,,,,0,10,10,7,0,4,4,0,,,,,,,,,1,0.8858235789998616,057,001,2019_May_23_1406,MusicAffectPsychophysiology2019,3.0.5,59.84455102589806,
To what extent did the music make you feel ,ASHAMED,30MonoWAV/30MonoH4.wav,2,2,1,8,,,,,0,10,10,7,0,5,5,4,,,,,,,,,1,0.6512349730001006,057,001,2019_May_23_1406,MusicAffectPsychophysiology2019,3.0.5,59.84455102589806,
To what extent did the music make you feel ,EXCITED,30MonoWAV/30MonoH4.wav,2,2,1,8,,,,,0,10,10,7,0,6,6,7,,,,,,,,,3,2.1182666449999488,057,001,2019_May_23_1406,MusicAffectPsychophysiology2019,3.0.5,59.84455102589806,
To what extent did the music make you feel ,FRUSTRATED,30MonoWAV/30MonoH4.wav,2,2,1,8,,,,,0,10,10,7,0,7,7,3,,,,,,,,,1,0.7850443409997752,057,001,2019_May_23_1406,MusicAffectPsychophysiology2019,3.0.5,59.84455102589806,
To what extent did the music make you feel ,SCARED,30MonoWAV/30MonoH4.wav,2,2,1,8,,,,,0,10,10,7,0,8,8,11,,,,,,,,,1,0.7184953920000225,057,001,2019_May_23_1406,MusicAffectPsychophysiology2019,3.0.5,59.84455102589806,
To what extent did the music make you feel ,ANGRY,30MonoWAV/30MonoH4.wav,2,2,1,8,,,,,0,10,10,7,0,9,9,2,,,,,,,,,1,0.6516119520001666,057,001,2019_May_23_1406,MusicAffectPsychophysiology2019,3.0.5,59.84455102589806,
To what extent did the music make you feel ,TENDER,30MonoWAV/30MonoH4.wav,2,2,1,8,,,,,0,10,10,7,0,10,10,10,,,,,,,,,1,1.3000170599998455,057,001,2019_May_23_1406,MusicAffectPsychophysiology2019,3.0.5,59.84455102589806,
To what extent did the music make you feel ,ALERT,30MonoWAV/30MonoH4.wav,2,2,1,8,,,,,0,10,10,7,0,11,11,8,,,,,,,,,3,1.3009115679997194,057,001,2019_May_23_1406,MusicAffectPsychophysiology2019,3.0.5,59.84455102589806,
,,30MonoWAV/30MonoH4.wav,2,2,1,8,,,,,0,10,10,7,,,,,,,,,,,,,,,057,001,2019_May_23_1406,MusicAffectPsychophysiology2019,3.0.5,59.84455102589806,
To what extent did the music make you feel ,FRUSTRATED,30MonoWAV/30MonoT4.wav,2,1,4,16,,,,,0,11,11,15,0,0,0,3,,,3,2.554064273000222,4,1.4368043660001604,4,1.4192155969999476,1,1.0868994559996281,057,001,2019_May_23_1406,MusicAffectPsychophysiology2019,3.0.5,59.84455102589806,
To what extent did the music make you feel ,ALERT,30MonoWAV/30MonoT4.wav,2,1,4,16,,,,,0,11,11,15,0,1,1,8,,,,,,,,,2,1.7235429840002325,057,001,2019_May_23_1406,MusicAffectPsychophysiology2019,3.0.5,59.84455102589806,
To what extent did the music make you feel ,ANXIOUS ,30MonoWAV/30MonoT4.wav,2,1,4,16,,,,,0,11,11,15,0,2,2,1,,,,,,,,,1,2.8696063510001295,057,001,2019_May_23_1406,MusicAffectPsychophysiology2019,3.0.5,59.84455102589806,
To what extent did the music make you feel ,SAD,30MonoWAV/30MonoT4.wav,2,1,4,16,,,,,0,11,11,15,0,3,3,0,,,,,,,,,1,0.5678694260000157,057,001,2019_May_23_1406,MusicAffectPsychophysiology2019,3.0.5,59.84455102589806,
To what extent did the music make you feel ,ACTIVE,30MonoWAV/30MonoT4.wav,2,1,4,16,,,,,0,11,11,15,0,4,4,9,,,,,,,,,2,1.2018898279998211,057,001,2019_May_23_1406,MusicAffectPsychophysiology2019,3.0.5,59.84455102589806,
To what extent did the music make you feel ,HAPPY,30MonoWAV/30MonoT4.wav,2,1,4,16,,,,,0,11,11,15,0,5,5,6,,,,,,,,,4,1.5015808289999768,057,001,2019_May_23_1406,MusicAffectPsychophysiology2019,3.0.5,59.84455102589806,
To what extent did the music make you feel ,SCARED,30MonoWAV/30MonoT4.wav,2,1,4,16,,,,,0,11,11,15,0,6,6,11,,,,,,,,,2,1.4681565029995909,057,001,2019_May_23_1406,MusicAffectPsychophysiology2019,3.0.5,59.84455102589806,
To what extent did the music make you feel ,ANGRY,30MonoWAV/30MonoT4.wav,2,1,4,16,,,,,0,11,11,15,0,7,7,2,,,,,,,,,1,0.7851008020002155,057,001,2019_May_23_1406,MusicAffectPsychophysiology2019,3.0.5,59.84455102589806,
To what extent did the music make you feel ,ASHAMED,30MonoWAV/30MonoT4.wav,2,1,4,16,,,,,0,11,11,15,0,8,8,4,,,,,,,,,1,0.6349426489996404,057,001,2019_May_23_1406,MusicAffectPsychophysiology2019,3.0.5,59.84455102589806,
To what extent did the music make you feel ,TENDER,30MonoWAV/30MonoT4.wav,2,1,4,16,,,,,0,11,11,15,0,9,9,10,,,,,,,,,4,1.2519132269999318,057,001,2019_May_23_1406,MusicAffectPsychophysiology2019,3.0.5,59.84455102589806,
To what extent did the music make you feel ,EXCITED,30MonoWAV/30MonoT4.wav,2,1,4,16,,,,,0,11,11,15,0,10,10,7,,,,,,,,,2,1.3832764200001293,057,001,2019_May_23_1406,MusicAffectPsychophysiology2019,3.0.5,59.84455102589806,
To what extent did the music make you feel ,GUILTY,30MonoWAV/30MonoT4.wav,2,1,4,16,,,,,0,11,11,15,0,11,11,5,,,,,,,,,1,1.7187134999999216,057,001,2019_May_23_1406,MusicAffectPsychophysiology2019,3.0.5,59.84455102589806,
,,30MonoWAV/30MonoT4.wav,2,1,4,16,,,,,0,11,11,15,,,,,,,,,,,,,,,057,001,2019_May_23_1406,MusicAffectPsychophysiology2019,3.0.5,59.84455102589806,
To what extent did the music make you feel ,GUILTY,30MonoWAV/30MonoS4.wav,1,1,3,12,,,,,0,12,12,11,0,0,0,5,,,1,2.234313119000035,2,1.4684480259998054,2,1.4018017019998297,1,1.63459745199998,057,001,2019_May_23_1406,MusicAffectPsychophysiology2019,3.0.5,59.84455102589806,
To what extent did the music make you feel ,ANGRY,30MonoWAV/30MonoS4.wav,1,1,3,12,,,,,0,12,12,11,0,1,1,2,,,,,,,,,1,0.5851956370001972,057,001,2019_May_23_1406,MusicAffectPsychophysiology2019,3.0.5,59.84455102589806,
To what extent did the music make you feel ,FRUSTRATED,30MonoWAV/30MonoS4.wav,1,1,3,12,,,,,0,12,12,11,0,2,2,3,,,,,,,,,1,0.6182704349998858,057,001,2019_May_23_1406,MusicAffectPsychophysiology2019,3.0.5,59.84455102589806,
To what extent did the music make you feel ,EXCITED,30MonoWAV/30MonoS4.wav,1,1,3,12,,,,,0,12,12,11,0,3,3,7,,,,,,,,,1,1.4688522309998007,057,001,2019_May_23_1406,MusicAffectPsychophysiology2019,3.0.5,59.84455102589806,
To what extent did the music make you feel ,TENDER,30MonoWAV/30MonoS4.wav,1,1,3,12,,,,,0,12,12,11,0,4,4,10,,,,,,,,,3,1.2193866059997163,057,001,2019_May_23_1406,MusicAffectPsychophysiology2019,3.0.5,59.84455102589806,
To what extent did the music make you feel ,HAPPY,30MonoWAV/30MonoS4.wav,1,1,3,12,,,,,0,12,12,11,0,5,5,6,,,,,,,,,2,1.3501831820003645,057,001,2019_May_23_1406,MusicAffectPsychophysiology2019,3.0.5,59.84455102589806,
To what extent did the music make you feel ,SAD,30MonoWAV/30MonoS4.wav,1,1,3,12,,,,,0,12,12,11,0,6,6,0,,,,,,,,,3,1.0508407610000177,057,001,2019_May_23_1406,MusicAffectPsychophysiology2019,3.0.5,59.84455102589806,
To what extent did the music make you feel ,SCARED,30MonoWAV/30MonoS4.wav,1,1,3,12,,,,,0,12,12,11,0,7,7,11,,,,,,,,,1,0.9020500769997852,057,001,2019_May_23_1406,MusicAffectPsychophysiology2019,3.0.5,59.84455102589806,
To what extent did the music make you feel ,ACTIVE,30MonoWAV/30MonoS4.wav,1,1,3,12,,,,,0,12,12,11,0,8,8,9,,,,,,,,,1,0.835028260999934,057,001,2019_May_23_1406,MusicAffectPsychophysiology2019,3.0.5,59.84455102589806,
To what extent did the music make you feel ,ASHAMED,30MonoWAV/30MonoS4.wav,1,1,3,12,,,,,0,12,12,11,0,9,9,4,,,,,,,,,1,1.1002058909998595,057,001,2019_May_23_1406,MusicAffectPsychophysiology2019,3.0.5,59.84455102589806,
To what extent did the music make you feel ,ANXIOUS ,30MonoWAV/30MonoS4.wav,1,1,3,12,,,,,0,12,12,11,0,10,10,1,,,,,,,,,1,0.5677126569999018,057,001,2019_May_23_1406,MusicAffectPsychophysiology2019,3.0.5,59.84455102589806,
To what extent did the music make you feel ,ALERT,30MonoWAV/30MonoS4.wav,1,1,3,12,,,,,0,12,12,11,0,11,11,8,,,,,,,,,2,0.9846463560002121,057,001,2019_May_23_1406,MusicAffectPsychophysiology2019,3.0.5,59.84455102589806,
,,30MonoWAV/30MonoS4.wav,1,1,3,12,,,,,0,12,12,11,,,,,,,,,,,,,,,057,001,2019_May_23_1406,MusicAffectPsychophysiology2019,3.0.5,59.84455102589806,
To what extent did the music make you feel ,ALERT,30MonoWAV/30MonoH2.wav,2,2,1,6,,,,,0,13,13,5,0,0,0,8,,,3,3.756173626999953,3,1.2186067580000781,2,1.2354563010003403,3,1.9513848199999302,057,001,2019_May_23_1406,MusicAffectPsychophysiology2019,3.0.5,59.84455102589806,
To what extent did the music make you feel ,FRUSTRATED,30MonoWAV/30MonoH2.wav,2,2,1,6,,,,,0,13,13,5,0,1,1,3,,,,,,,,,1,1.8159586199999467,057,001,2019_May_23_1406,MusicAffectPsychophysiology2019,3.0.5,59.84455102589806,
To what extent did the music make you feel ,ANXIOUS ,30MonoWAV/30MonoH2.wav,2,2,1,6,,,,,0,13,13,5,0,2,2,1,,,,,,,,,1,0.6680744379996213,057,001,2019_May_23_1406,MusicAffectPsychophysiology2019,3.0.5,59.84455102589806,
To what extent did the music make you feel ,GUILTY,30MonoWAV/30MonoH2.wav,2,2,1,6,,,,,0,13,13,5,0,3,3,5,,,,,,,,,1,0.7172072610001123,057,001,2019_May_23_1406,MusicAffectPsychophysiology2019,3.0.5,59.84455102589806,
To what extent did the music make you feel ,SAD,30MonoWAV/30MonoH2.wav,2,2,1,6,,,,,0,13,13,5,0,4,4,0,,,,,,,,,1,0.7686104099998374,057,001,2019_May_23_1406,MusicAffectPsychophysiology2019,3.0.5,59.84455102589806,
To what extent did the music make you feel ,EXCITED,30MonoWAV/30MonoH2.wav,2,2,1,6,,,,,0,13,13,5,0,5,5,7,,,,,,,,,2,1.43465678199982,057,001,2019_May_23_1406,MusicAffectPsychophysiology2019,3.0.5,59.84455102589806,
To what extent did the music make you feel ,ACTIVE,30MonoWAV/30MonoH2.wav,2,2,1,6,,,,,0,13,13,5,0,6,6,9,,,,,,,,,3,1.0012130449999859,057,001,2019_May_23_1406,MusicAffectPsychophysiology2019,3.0.5,59.84455102589806,
To what extent did the music make you feel ,SCARED,30MonoWAV/30MonoH2.wav,2,2,1,6,,,,,0,13,13,5,0,7,7,11,,,,,,,,,1,1.635007330999997,057,001,2019_May_23_1406,MusicAffectPsychophysiology2019,3.0.5,59.84455102589806,
To what extent did the music make you feel ,ASHAMED,30MonoWAV/30MonoH2.wav,2,2,1,6,,,,,0,13,13,5,0,8,8,4,,,,,,,,,1,1.1508249890002844,057,001,2019_May_23_1406,MusicAffectPsychophysiology2019,3.0.5,59.84455102589806,
To what extent did the music make you feel ,HAPPY,30MonoWAV/30MonoH2.wav,2,2,1,6,,,,,0,13,13,5,0,9,9,6,,,,,,,,,3,1.002676115000213,057,001,2019_May_23_1406,MusicAffectPsychophysiology2019,3.0.5,59.84455102589806,
To what extent did the music make you feel ,ANGRY,30MonoWAV/30MonoH2.wav,2,2,1,6,,,,,0,13,13,5,0,10,10,2,,,,,,,,,1,2.051391335000062,057,001,2019_May_23_1406,MusicAffectPsychophysiology2019,3.0.5,59.84455102589806,
To what extent did the music make you feel ,TENDER,30MonoWAV/30MonoH2.wav,2,2,1,6,,,,,0,13,13,5,0,11,11,10,,,,,,,,,1,1.2183537109999634,057,001,2019_May_23_1406,MusicAffectPsychophysiology2019,3.0.5,59.84455102589806,
,,30MonoWAV/30MonoH2.wav,2,2,1,6,,,,,0,13,13,5,,,,,,,,,,,,,,,057,001,2019_May_23_1406,MusicAffectPsychophysiology2019,3.0.5,59.84455102589806,
To what extent did the music make you feel ,ACTIVE,30MonoWAV/30MonoH1.wav,2,2,1,5,,,,,0,14,14,4,0,0,0,9,,,3,2.53482753399976,4,2.3675410380001267,3,1.2855081160000736,3,1.201328568000008,057,001,2019_May_23_1406,MusicAffectPsychophysiology2019,3.0.5,59.84455102589806,
To what extent did the music make you feel ,ANXIOUS ,30MonoWAV/30MonoH1.wav,2,2,1,5,,,,,0,14,14,4,0,1,1,1,,,,,,,,,1,1.2692562960000942,057,001,2019_May_23_1406,MusicAffectPsychophysiology2019,3.0.5,59.84455102589806,
To what extent did the music make you feel ,ASHAMED,30MonoWAV/30MonoH1.wav,2,2,1,5,,,,,0,14,14,4,0,2,2,4,,,,,,,,,1,0.7851444499997342,057,001,2019_May_23_1406,MusicAffectPsychophysiology2019,3.0.5,59.84455102589806,
To what extent did the music make you feel ,SAD,30MonoWAV/30MonoH1.wav,2,2,1,5,,,,,0,14,14,4,0,3,3,0,,,,,,,,,1,0.7167776199999025,057,001,2019_May_23_1406,MusicAffectPsychophysiology2019,3.0.5,59.84455102589806,
To what extent did the music make you feel ,HAPPY,30MonoWAV/30MonoH1.wav,2,2,1,5,,,,,0,14,14,4,0,4,4,6,,,,,,,,,4,1.1349755539999933,057,001,2019_May_23_1406,MusicAffectPsychophysiology2019,3.0.5,59.84455102589806,
To what extent did the music make you feel ,FRUSTRATED,30MonoWAV/30MonoH1.wav,2,2,1,5,,,,,0,14,14,4,0,5,5,3,,,,,,,,,1,1.6014568350001355,057,001,2019_May_23_1406,MusicAffectPsychophysiology2019,3.0.5,59.84455102589806,
To what extent did the music make you feel ,SCARED,30MonoWAV/30MonoH1.wav,2,2,1,5,,,,,0,14,14,4,0,6,6,11,,,,,,,,,1,2.9355585809998956,057,001,2019_May_23_1406,MusicAffectPsychophysiology2019,3.0.5,59.84455102589806,
To what extent did the music make you feel ,ALERT,30MonoWAV/30MonoH1.wav,2,2,1,5,,,,,0,14,14,4,0,7,7,8,,,,,,,,,3,1.5510258990002512,057,001,2019_May_23_1406,MusicAffectPsychophysiology2019,3.0.5,59.84455102589806,
To what extent did the music make you feel ,ANGRY,30MonoWAV/30MonoH1.wav,2,2,1,5,,,,,0,14,14,4,0,8,8,2,,,,,,,,,1,0.5674944150000556,057,001,2019_May_23_1406,MusicAffectPsychophysiology2019,3.0.5,59.84455102589806,
To what extent did the music make you feel ,GUILTY,30MonoWAV/30MonoH1.wav,2,2,1,5,,,,,0,14,14,4,0,9,9,5,,,,,,,,,1,1.5534700120001617,057,001,2019_May_23_1406,MusicAffectPsychophysiology2019,3.0.5,59.84455102589806,
To what extent did the music make you feel ,TENDER,30MonoWAV/30MonoH1.wav,2,2,1,5,,,,,0,14,14,4,0,10,10,10,,,,,,,,,2,0.984581573000014,057,001,2019_May_23_1406,MusicAffectPsychophysiology2019,3.0.5,59.84455102589806,
To what extent did the music make you feel ,EXCITED,30MonoWAV/30MonoH1.wav,2,2,1,5,,,,,0,14,14,4,0,11,11,7,,,,,,,,,3,1.3550454640003409,057,001,2019_May_23_1406,MusicAffectPsychophysiology2019,3.0.5,59.84455102589806,
,,30MonoWAV/30MonoH1.wav,2,2,1,5,,,,,0,14,14,4,,,,,,,,,,,,,,,057,001,2019_May_23_1406,MusicAffectPsychophysiology2019,3.0.5,59.84455102589806,
To what extent did the music make you feel ,ALERT,30MonoWAV/30MonoH3.wav,2,2,1,7,,,,,0,15,15,6,0,0,0,8,,,3,4.76090196899986,3,1.5353085809997538,2,1.0190078390000963,3,1.7689939790002427,057,001,2019_May_23_1406,MusicAffectPsychophysiology2019,3.0.5,59.84455102589806,
To what extent did the music make you feel ,TENDER,30MonoWAV/30MonoH3.wav,2,2,1,7,,,,,0,15,15,6,0,1,1,10,,,,,,,,,2,1.702061324999704,057,001,2019_May_23_1406,MusicAffectPsychophysiology2019,3.0.5,59.84455102589806,
To what extent did the music make you feel ,HAPPY,30MonoWAV/30MonoH3.wav,2,2,1,7,,,,,0,15,15,6,0,2,2,6,,,,,,,,,3,1.0681438780002281,057,001,2019_May_23_1406,MusicAffectPsychophysiology2019,3.0.5,59.84455102589806,
To what extent did the music make you feel ,ACTIVE,30MonoWAV/30MonoH3.wav,2,2,1,7,,,,,0,15,15,6,0,3,3,9,,,,,,,,,3,0.9348933860001125,057,001,2019_May_23_1406,MusicAffectPsychophysiology2019,3.0.5,59.84455102589806,
To what extent did the music make you feel ,ANXIOUS ,30MonoWAV/30MonoH3.wav,2,2,1,7,,,,,0,15,15,6,0,4,4,1,,,,,,,,,1,1.1023991510000997,057,001,2019_May_23_1406,MusicAffectPsychophysiology2019,3.0.5,59.84455102589806,
To what extent did the music make you feel ,GUILTY,30MonoWAV/30MonoH3.wav,2,2,1,7,,,,,0,15,15,6,0,5,5,5,,,,,,,,,1,0.7671758420001424,057,001,2019_May_23_1406,MusicAffectPsychophysiology2019,3.0.5,59.84455102589806,
To what extent did the music make you feel ,SAD,30MonoWAV/30MonoH3.wav,2,2,1,7,,,,,0,15,15,6,0,6,6,0,,,,,,,,,1,0.7330594200002452,057,001,2019_May_23_1406,MusicAffectPsychophysiology2019,3.0.5,59.84455102589806,
To what extent did the music make you feel ,SCARED,30MonoWAV/30MonoH3.wav,2,2,1,7,,,,,0,15,15,6,0,7,7,11,,,,,,,,,1,0.8185924909998903,057,001,2019_May_23_1406,MusicAffectPsychophysiology2019,3.0.5,59.84455102589806,
To what extent did the music make you feel ,ASHAMED,30MonoWAV/30MonoH3.wav,2,2,1,7,,,,,0,15,15,6,0,8,8,4,,,,,,,,,1,0.7021266059996378,057,001,2019_May_23_1406,MusicAffectPsychophysiology2019,3.0.5,59.84455102589806,
To what extent did the music make you feel ,ANGRY,30MonoWAV/30MonoH3.wav,2,2,1,7,,,,,0,15,15,6,0,9,9,2,,,,,,,,,1,0.867753841999729,057,001,2019_May_23_1406,MusicAffectPsychophysiology2019,3.0.5,59.84455102589806,
To what extent did the music make you feel ,EXCITED,30MonoWAV/30MonoH3.wav,2,2,1,7,,,,,0,15,15,6,0,10,10,7,,,,,,,,,3,1.4861297430002196,057,001,2019_May_23_1406,MusicAffectPsychophysiology2019,3.0.5,59.84455102589806,
To what extent did the music make you feel ,FRUSTRATED,30MonoWAV/30MonoH3.wav,2,2,1,7,,,,,0,15,15,6,0,11,11,3,,,,,,,,,1,0.6684835799997018,057,001,2019_May_23_1406,MusicAffectPsychophysiology2019,3.0.5,59.84455102589806,
,,30MonoWAV/30MonoH3.wav,2,2,1,7,,,,,0,15,15,6,,,,,,,,,,,,,,,057,001,2019_May_23_1406,MusicAffectPsychophysiology2019,3.0.5,59.84455102589806,
To what extent did the music make you feel ,ALERT,30MonoWAV/30MonoH4.wav,2,2,1,8,,,,,1,0,16,7,0,0,0,8,,,3,4.087926121000237,3,1.1369277720000355,3,1.0859320970002955,2,1.5343246540001019,057,001,2019_May_23_1406,MusicAffectPsychophysiology2019,3.0.5,59.84455102589806,
To what extent did the music make you feel ,TENDER,30MonoWAV/30MonoH4.wav,2,2,1,8,,,,,1,0,16,7,0,1,1,10,,,,,,,,,2,2.134100272000069,057,001,2019_May_23_1406,MusicAffectPsychophysiology2019,3.0.5,59.84455102589806,
To what extent did the music make you feel ,ACTIVE,30MonoWAV/30MonoH4.wav,2,2,1,8,,,,,1,0,16,7,0,2,2,9,,,,,,,,,3,1.04993536100028,057,001,2019_May_23_1406,MusicAffectPsychophysiology2019,3.0.5,59.84455102589806,
To what extent did the music make you feel ,ANGRY,30MonoWAV/30MonoH4.wav,2,2,1,8,,,,,1,0,16,7,0,3,3,2,,,,,,,,,1,0.8171451209996121,057,001,2019_May_23_1406,MusicAffectPsychophysiology2019,3.0.5,59.84455102589806,
To what extent did the music make you feel ,GUILTY,30MonoWAV/30MonoH4.wav,2,2,1,8,,,,,1,0,16,7,0,4,4,5,,,,,,,,,1,0.8341226289999213,057,001,2019_May_23_1406,MusicAffectPsychophysiology2019,3.0.5,59.84455102589806,
To what extent did the music make you feel ,ASHAMED,30MonoWAV/30MonoH4.wav,2,2,1,8,,,,,1,0,16,7,0,5,5,4,,,,,,,,,1,2.036333015999844,057,001,2019_May_23_1406,MusicAffectPsychophysiology2019,3.0.5,59.84455102589806,
To what extent did the music make you feel ,EXCITED,30MonoWAV/30MonoH4.wav,2,2,1,8,,,,,1,0,16,7,0,6,6,7,,,,,,,,,3,2.18572010600019,057,001,2019_May_23_1406,MusicAffectPsychophysiology2019,3.0.5,59.84455102589806,
To what extent did the music make you feel ,SAD,30MonoWAV/30MonoH4.wav,2,2,1,8,,,,,1,0,16,7,0,7,7,0,,,,,,,,,2,0.9347294580002199,057,001,2019_May_23_1406,MusicAffectPsychophysiology2019,3.0.5,59.84455102589806,
To what extent did the music make you feel ,ANXIOUS ,30MonoWAV/30MonoH4.wav,2,2,1,8,,,,,1,0,16,7,0,8,8,1,,,,,,,,,2,0.001923694000197429,057,001,2019_May_23_1406,MusicAffectPsychophysiology2019,3.0.5,59.84455102589806,
To what extent did the music make you feel ,FRUSTRATED,30MonoWAV/30MonoH4.wav,2,2,1,8,,,,,1,0,16,7,0,9,9,3,,,,,,,,,1,1.9512533219999568,057,001,2019_May_23_1406,MusicAffectPsychophysiology2019,3.0.5,59.84455102589806,
To what extent did the music make you feel ,HAPPY,30MonoWAV/30MonoH4.wav,2,2,1,8,,,,,1,0,16,7,0,10,10,6,,,,,,,,,3,2.4178112459999284,057,001,2019_May_23_1406,MusicAffectPsychophysiology2019,3.0.5,59.84455102589806,
To what extent did the music make you feel ,SCARED,30MonoWAV/30MonoH4.wav,2,2,1,8,,,,,1,0,16,7,0,11,11,11,,,,,,,,,3,0.002093819999572588,057,001,2019_May_23_1406,MusicAffectPsychophysiology2019,3.0.5,59.84455102589806,
,,30MonoWAV/30MonoH4.wav,2,2,1,8,,,,,1,0,16,7,,,,,,,,,,,,,,,057,001,2019_May_23_1406,MusicAffectPsychophysiology2019,3.0.5,59.84455102589806,
To what extent did the music make you feel ,TENDER,30MonoWAV/30MonoH3.wav,2,2,1,7,,,,,1,1,17,6,0,0,0,10,,,3,3.071789003000049,3,1.5534599669999807,3,2.25424804100021,1,1.5349786309998308,057,001,2019_May_23_1406,MusicAffectPsychophysiology2019,3.0.5,59.84455102589806,
To what extent did the music make you feel ,EXCITED,30MonoWAV/30MonoH3.wav,2,2,1,7,,,,,1,1,17,6,0,1,1,7,,,,,,,,,4,1.1181110570000783,057,001,2019_May_23_1406,MusicAffectPsychophysiology2019,3.0.5,59.84455102589806,
To what extent did the music make you feel ,ACTIVE,30MonoWAV/30MonoH3.wav,2,2,1,7,,,,,1,1,17,6,0,2,2,9,,,,,,,,,4,1.0513459930002682,057,001,2019_May_23_1406,MusicAffectPsychophysiology2019,3.0.5,59.84455102589806,
To what extent did the music make you feel ,SAD,30MonoWAV/30MonoH3.wav,2,2,1,7,,,,,1,1,17,6,0,3,3,0,,,,,,,,,2,0.9857429809999303,057,001,2019_May_23_1406,MusicAffectPsychophysiology2019,3.0.5,59.84455102589806,
To what extent did the music make you feel ,FRUSTRATED,30MonoWAV/30MonoH3.wav,2,2,1,7,,,,,1,1,17,6,0,4,4,3,,,,,,,,,2,1.3843864049999866,057,001,2019_May_23_1406,MusicAffectPsychophysiology2019,3.0.5,59.84455102589806,
To what extent did the music make you feel ,ANGRY,30MonoWAV/30MonoH3.wav,2,2,1,7,,,,,1,1,17,6,0,5,5,2,,,,,,,,,1,1.669151719999718,057,001,2019_May_23_1406,MusicAffectPsychophysiology2019,3.0.5,59.84455102589806,
To what extent did the music make you feel ,ANXIOUS ,30MonoWAV/30MonoH3.wav,2,2,1,7,,,,,1,1,17,6,0,6,6,1,,,,,,,,,1,0.935999111000001,057,001,2019_May_23_1406,MusicAffectPsychophysiology2019,3.0.5,59.84455102589806,
To what extent did the music make you feel ,ALERT,30MonoWAV/30MonoH3.wav,2,2,1,7,,,,,1,1,17,6,0,7,7,8,,,,,,,,,3,1.1691592060001312,057,001,2019_May_23_1406,MusicAffectPsychophysiology2019,3.0.5,59.84455102589806,
To what extent did the music make you feel ,ASHAMED,30MonoWAV/30MonoH3.wav,2,2,1,7,,,,,1,1,17,6,0,8,8,4,,,,,,,,,1,1.4007414599996082,057,001,2019_May_23_1406,MusicAffectPsychophysiology2019,3.0.5,59.84455102589806,
To what extent did the music make you feel ,SCARED,30MonoWAV/30MonoH3.wav,2,2,1,7,,,,,1,1,17,6,0,9,9,11,,,,,,,,,1,2.3180574610000804,057,001,2019_May_23_1406,MusicAffectPsychophysiology2019,3.0.5,59.84455102589806,
To what extent did the music make you feel ,GUILTY,30MonoWAV/30MonoH3.wav,2,2,1,7,,,,,1,1,17,6,0,10,10,5,,,,,,,,,1,0.7851183320003656,057,001,2019_May_23_1406,MusicAffectPsychophysiology2019,3.0.5,59.84455102589806,
To what extent did the music make you feel ,HAPPY,30MonoWAV/30MonoH3.wav,2,2,1,7,,,,,1,1,17,6,0,11,11,6,,,,,,,,,3,1.134575914999914,057,001,2019_May_23_1406,MusicAffectPsychophysiology2019,3.0.5,59.84455102589806,
,,30MonoWAV/30MonoH3.wav,2,2,1,7,,,,,1,1,17,6,,,,,,,,,,,,,,,057,001,2019_May_23_1406,MusicAffectPsychophysiology2019,3.0.5,59.84455102589806,
To what extent did the music make you feel ,HAPPY,30MonoWAV/30MonoT4.wav,2,1,4,16,,,,,1,2,18,15,0,0,0,6,,,2,2.4010192410000855,3,1.3191380969997226,2,2.1846677759999693,3,0.9181417620002321,057,001,2019_May_23_1406,MusicAffectPsychophysiology2019,3.0.5,59.84455102589806,
To what extent did the music make you feel ,SAD,30MonoWAV/30MonoT4.wav,2,1,4,16,,,,,1,2,18,15,0,1,1,0,,,,,,,,,2,2.085542929999974,057,001,2019_May_23_1406,MusicAffectPsychophysiology2019,3.0.5,59.84455102589806,
To what extent did the music make you feel ,SCARED,30MonoWAV/30MonoT4.wav,2,1,4,16,,,,,1,2,18,15,0,2,2,11,,,,,,,,,1,1.5504385940002976,057,001,2019_May_23_1406,MusicAffectPsychophysiology2019,3.0.5,59.84455102589806,
To what extent did the music make you feel ,ANGRY,30MonoWAV/30MonoT4.wav,2,1,4,16,,,,,1,2,18,15,0,3,3,2,,,,,,,,,1,0.8367715579997821,057,001,2019_May_23_1406,MusicAffectPsychophysiology2019,3.0.5,59.84455102589806,
To what extent did the music make you feel ,GUILTY,30MonoWAV/30MonoT4.wav,2,1,4,16,,,,,1,2,18,15,0,4,4,5,,,,,,,,,1,0.5686117449999983,057,001,2019_May_23_1406,MusicAffectPsychophysiology2019,3.0.5,59.84455102589806,
To what extent did the music make you feel ,TENDER,30MonoWAV/30MonoT4.wav,2,1,4,16,,,,,1,2,18,15,0,5,5,10,,,,,,,,,2,0.8679391160003433,057,001,2019_May_23_1406,MusicAffectPsychophysiology2019,3.0.5,59.84455102589806,
To what extent did the music make you feel ,ACTIVE,30MonoWAV/30MonoT4.wav,2,1,4,16,,,,,1,2,18,15,0,6,6,9,,,,,,,,,2,4.567964853999911,057,001,2019_May_23_1406,MusicAffectPsychophysiology2019,3.0.5,59.84455102589806,
To what extent did the music make you feel ,FRUSTRATED,30MonoWAV/30MonoT4.wav,2,1,4,16,,,,,1,2,18,15,0,7,7,3,,,,,,,,,1,0.8348242990000472,057,001,2019_May_23_1406,MusicAffectPsychophysiology2019,3.0.5,59.84455102589806,
To what extent did the music make you feel ,EXCITED,30MonoWAV/30MonoT4.wav,2,1,4,16,,,,,1,2,18,15,0,8,8,7,,,,,,,,,2,2.6834135839999362,057,001,2019_May_23_1406,MusicAffectPsychophysiology2019,3.0.5,59.84455102589806,
To what extent did the music make you feel ,ANXIOUS ,30MonoWAV/30MonoT4.wav,2,1,4,16,,,,,1,2,18,15,0,9,9,1,,,,,,,,,1,3.018681323999772,057,001,2019_May_23_1406,MusicAffectPsychophysiology2019,3.0.5,59.84455102589806,
To what extent did the music make you feel ,ALERT,30MonoWAV/30MonoT4.wav,2,1,4,16,,,,,1,2,18,15,0,10,10,8,,,,,,,,,2,2.184935595999832,057,001,2019_May_23_1406,MusicAffectPsychophysiology2019,3.0.5,59.84455102589806,
To what extent did the music make you feel ,ASHAMED,30MonoWAV/30MonoT4.wav,2,1,4,16,,,,,1,2,18,15,0,11,11,4,,,,,,,,,1,1.3506897769998432,057,001,2019_May_23_1406,MusicAffectPsychophysiology2019,3.0.5,59.84455102589806,
,,30MonoWAV/30MonoT4.wav,2,1,4,16,,,,,1,2,18,15,,,,,,,,,,,,,,,057,001,2019_May_23_1406,MusicAffectPsychophysiology2019,3.0.5,59.84455102589806,
To what extent did the music make you feel ,TENDER,30MonoWAV/30MonoF2.wav,1,2,2,2,,,,,1,3,19,1,0,0,0,10,,,3,2.5185699230000864,1,1.451730064000003,1,1.3679340390003745,1,2.6852501530001973,057,001,2019_May_23_1406,MusicAffectPsychophysiology2019,3.0.5,59.84455102589806,
To what extent did the music make you feel ,ALERT,30MonoWAV/30MonoF2.wav,1,2,2,2,,,,,1,3,19,1,0,1,1,8,,,,,,,,,3,1.102073431000008,057,001,2019_May_23_1406,MusicAffectPsychophysiology2019,3.0.5,59.84455102589806,
To what extent did the music make you feel ,EXCITED,30MonoWAV/30MonoF2.wav,1,2,2,2,,,,,1,3,19,1,0,2,2,7,,,,,,,,,2,1.3167732729998534,057,001,2019_May_23_1406,MusicAffectPsychophysiology2019,3.0.5,59.84455102589806,
To what extent did the music make you feel ,FRUSTRATED,30MonoWAV/30MonoF2.wav,1,2,2,2,,,,,1,3,19,1,0,3,3,3,,,,,,,,,1,1.0357550759999867,057,001,2019_May_23_1406,MusicAffectPsychophysiology2019,3.0.5,59.84455102589806,
To what extent did the music make you feel ,SCARED,30MonoWAV/30MonoF2.wav,1,2,2,2,,,,,1,3,19,1,0,4,4,11,,,,,,,,,5,1.1016296550001243,057,001,2019_May_23_1406,MusicAffectPsychophysiology2019,3.0.5,59.84455102589806,
To what extent did the music make you feel ,ANXIOUS ,30MonoWAV/30MonoF2.wav,1,2,2,2,,,,,1,3,19,1,0,5,5,1,,,,,,,,,5,1.1178839059998609,057,001,2019_May_23_1406,MusicAffectPsychophysiology2019,3.0.5,59.84455102589806,
To what extent did the music make you feel ,ASHAMED,30MonoWAV/30MonoF2.wav,1,2,2,2,,,,,1,3,19,1,0,6,6,4,,,,,,,,,2,1.2348418990000027,057,001,2019_May_23_1406,MusicAffectPsychophysiology2019,3.0.5,59.84455102589806,
To what extent did the music make you feel ,GUILTY,30MonoWAV/30MonoF2.wav,1,2,2,2,,,,,1,3,19,1,0,7,7,5,,,,,,,,,1,1.268301233999864,057,001,2019_May_23_1406,MusicAffectPsychophysiology2019,3.0.5,59.84455102589806,
To what extent did the music make you feel ,HAPPY,30MonoWAV/30MonoF2.wav,1,2,2,2,,,,,1,3,19,1,0,8,8,6,,,,,,,,,1,1.2019323110002915,057,001,2019_May_23_1406,MusicAffectPsychophysiology2019,3.0.5,59.84455102589806,
To what extent did the music make you feel ,ACTIVE,30MonoWAV/30MonoF2.wav,1,2,2,2,,,,,1,3,19,1,0,9,9,9,,,,,,,,,3,1.2176175130002775,057,001,2019_May_23_1406,MusicAffectPsychophysiology2019,3.0.5,59.84455102589806,
To what extent did the music make you feel ,SAD,30MonoWAV/30MonoF2.wav,1,2,2,2,,,,,1,3,19,1,0,10,10,0,,,,,,,,,3,1.2184435789999952,057,001,2019_May_23_1406,MusicAffectPsychophysiology2019,3.0.5,59.84455102589806,
To what extent did the music make you feel ,ANGRY,30MonoWAV/30MonoF2.wav,1,2,2,2,,,,,1,3,19,1,0,11,11,2,,,,,,,,,2,1.2020321580002928,057,001,2019_May_23_1406,MusicAffectPsychophysiology2019,3.0.5,59.84455102589806,
,,30MonoWAV/30MonoF2.wav,1,2,2,2,,,,,1,3,19,1,,,,,,,,,,,,,,,057,001,2019_May_23_1406,MusicAffectPsychophysiology2019,3.0.5,59.84455102589806,
To what extent did the music make you feel ,EXCITED,30MonoWAV/30MonoS2.wav,1,1,3,10,,,,,1,4,20,9,0,0,0,7,,,2,3.438985730999775,3,1.036607050999919,3,0.8685508789999403,2,0.9697958860001563,057,001,2019_May_23_1406,MusicAffectPsychophysiology2019,3.0.5,59.84455102589806,
To what extent did the music make you feel ,ALERT,30MonoWAV/30MonoS2.wav,1,1,3,10,,,,,1,4,20,9,0,1,1,8,,,,,,,,,3,0.9225419969998256,057,001,2019_May_23_1406,MusicAffectPsychophysiology2019,3.0.5,59.84455102589806,
To what extent did the music make you feel ,SAD,30MonoWAV/30MonoS2.wav,1,1,3,10,,,,,1,4,20,9,0,2,2,0,,,,,,,,,2,1.8353778740001871,057,001,2019_May_23_1406,MusicAffectPsychophysiology2019,3.0.5,59.84455102589806,
To what extent did the music make you feel ,ANXIOUS ,30MonoWAV/30MonoS2.wav,1,1,3,10,,,,,1,4,20,9,0,3,3,1,,,,,,,,,2,1.518677726000078,057,001,2019_May_23_1406,MusicAffectPsychophysiology2019,3.0.5,59.84455102589806,
To what extent did the music make you feel ,HAPPY,30MonoWAV/30MonoS2.wav,1,1,3,10,,,,,1,4,20,9,0,4,4,6,,,,,,,,,2,1.5547008970002025,057,001,2019_May_23_1406,MusicAffectPsychophysiology2019,3.0.5,59.84455102589806,
To what extent did the music make you feel ,ANGRY,30MonoWAV/30MonoS2.wav,1,1,3,10,,,,,1,4,20,9,0,5,5,2,,,,,,,,,1,1.4703362069999457,057,001,2019_May_23_1406,MusicAffectPsychophysiology2019,3.0.5,59.84455102589806,
To what extent did the music make you feel ,SCARED,30MonoWAV/30MonoS2.wav,1,1,3,10,,,,,1,4,20,9,0,6,6,11,,,,,,,,,3,1.0532329910001863,057,001,2019_May_23_1406,MusicAffectPsychophysiology2019,3.0.5,59.84455102589806,
To what extent did the music make you feel ,ASHAMED,30MonoWAV/30MonoS2.wav,1,1,3,10,,,,,1,4,20,9,0,7,7,4,,,,,,,,,1,1.4372301690000313,057,001,2019_May_23_1406,MusicAffectPsychophysiology2019,3.0.5,59.84455102589806,
To what extent did the music make you feel ,GUILTY,30MonoWAV/30MonoS2.wav,1,1,3,10,,,,,1,4,20,9,0,8,8,5,,,,,,,,,1,0.6858118300001479,057,001,2019_May_23_1406,MusicAffectPsychophysiology2019,3.0.5,59.84455102589806,
To what extent did the music make you feel ,TENDER,30MonoWAV/30MonoS2.wav,1,1,3,10,,,,,1,4,20,9,0,9,9,10,,,,,,,,,3,1.2038403340002333,057,001,2019_May_23_1406,MusicAffectPsychophysiology2019,3.0.5,59.84455102589806,
To what extent did the music make you feel ,ACTIVE,30MonoWAV/30MonoS2.wav,1,1,3,10,,,,,1,4,20,9,0,10,10,9,,,,,,,,,2,1.0694304369999372,057,001,2019_May_23_1406,MusicAffectPsychophysiology2019,3.0.5,59.84455102589806,
To what extent did the music make you feel ,FRUSTRATED,30MonoWAV/30MonoS2.wav,1,1,3,10,,,,,1,4,20,9,0,11,11,3,,,,,,,,,1,0.823812328999793,057,001,2019_May_23_1406,MusicAffectPsychophysiology2019,3.0.5,59.84455102589806,
,,30MonoWAV/30MonoS2.wav,1,1,3,10,,,,,1,4,20,9,,,,,,,,,,,,,,,057,001,2019_May_23_1406,MusicAffectPsychophysiology2019,3.0.5,59.84455102589806,
To what extent did the music make you feel ,ANGRY,30MonoWAV/30MonoT3.wav,2,1,4,15,,,,,1,5,21,14,0,0,0,2,,,1,2.7687770020002063,3,1.5519012310001017,3,1.2684682000003704,1,1.2685149699996146,057,001,2019_May_23_1406,MusicAffectPsychophysiology2019,3.0.5,59.84455102589806,
To what extent did the music make you feel ,ALERT,30MonoWAV/30MonoT3.wav,2,1,4,15,,,,,1,5,21,14,0,1,1,8,,,,,,,,,2,3.6019448490001196,057,001,2019_May_23_1406,MusicAffectPsychophysiology2019,3.0.5,59.84455102589806,
To what extent did the music make you feel ,SAD,30MonoWAV/30MonoT3.wav,2,1,4,15,,,,,1,5,21,14,0,2,2,0,,,,,,,,,2,1.1686289990002479,057,001,2019_May_23_1406,MusicAffectPsychophysiology2019,3.0.5,59.84455102589806,
To what extent did the music make you feel ,EXCITED,30MonoWAV/30MonoT3.wav,2,1,4,15,,,,,1,5,21,14,0,3,3,7,,,,,,,,,2,1.151055837000058,057,001,2019_May_23_1406,MusicAffectPsychophysiology2019,3.0.5,59.84455102589806,
To what extent did the music make you feel ,TENDER,30MonoWAV/30MonoT3.wav,2,1,4,15,,,,,1,5,21,14,0,4,4,10,,,,,,,,,4,1.585004759000185,057,001,2019_May_23_1406,MusicAffectPsychophysiology2019,3.0.5,59.84455102589806,
To what extent did the music make you feel ,ACTIVE,30MonoWAV/30MonoT3.wav,2,1,4,15,,,,,1,5,21,14,0,5,5,9,,,,,,,,,3,1.8892973920001168,057,001,2019_May_23_1406,MusicAffectPsychophysiology2019,3.0.5,59.84455102589806,
To what extent did the music make you feel ,ANXIOUS ,30MonoWAV/30MonoT3.wav,2,1,4,15,,,,,1,5,21,14,0,6,6,1,,,,,,,,,1,1.8376556580001306,057,001,2019_May_23_1406,MusicAffectPsychophysiology2019,3.0.5,59.84455102589806,
To what extent did the music make you feel ,HAPPY,30MonoWAV/30MonoT3.wav,2,1,4,15,,,,,1,5,21,14,0,7,7,6,,,,,,,,,3,1.119049681999968,057,001,2019_May_23_1406,MusicAffectPsychophysiology2019,3.0.5,59.84455102589806,
To what extent did the music make you feel ,GUILTY,30MonoWAV/30MonoT3.wav,2,1,4,15,,,,,1,5,21,14,0,8,8,5,,,,,,,,,1,1.0205097580001166,057,001,2019_May_23_1406,MusicAffectPsychophysiology2019,3.0.5,59.84455102589806,
To what extent did the music make you feel ,SCARED,30MonoWAV/30MonoT3.wav,2,1,4,15,,,,,1,5,21,14,0,9,9,11,,,,,,,,,1,0.8700988979999238,057,001,2019_May_23_1406,MusicAffectPsychophysiology2019,3.0.5,59.84455102589806,
To what extent did the music make you feel ,FRUSTRATED,30MonoWAV/30MonoT3.wav,2,1,4,15,,,,,1,5,21,14,0,10,10,3,,,,,,,,,1,0.753152880000016,057,001,2019_May_23_1406,MusicAffectPsychophysiology2019,3.0.5,59.84455102589806,
To what extent did the music make you feel ,ASHAMED,30MonoWAV/30MonoT3.wav,2,1,4,15,,,,,1,5,21,14,0,11,11,4,,,,,,,,,1,0.9858295540002473,057,001,2019_May_23_1406,MusicAffectPsychophysiology2019,3.0.5,59.84455102589806,
,,30MonoWAV/30MonoT3.wav,2,1,4,15,,,,,1,5,21,14,,,,,,,,,,,,,,,057,001,2019_May_23_1406,MusicAffectPsychophysiology2019,3.0.5,59.84455102589806,
To what extent did the music make you feel ,FRUSTRATED,30MonoWAV/30MonoH2.wav,2,2,1,6,,,,,1,6,22,5,0,0,0,3,,,3,2.752571165000063,3,2.4007861830000365,2,1.135178630000155,2,2.0357294539999202,057,001,2019_May_23_1406,MusicAffectPsychophysiology2019,3.0.5,59.84455102589806,
To what extent did the music make you feel ,ALERT,30MonoWAV/30MonoH2.wav,2,2,1,6,,,,,1,6,22,5,0,1,1,8,,,,,,,,,2,2.834358911000436,057,001,2019_May_23_1406,MusicAffectPsychophysiology2019,3.0.5,59.84455102589806,
To what extent did the music make you feel ,GUILTY,30MonoWAV/30MonoH2.wav,2,2,1,6,,,,,1,6,22,5,0,2,2,5,,,,,,,,,1,0.9851257870000154,057,001,2019_May_23_1406,MusicAffectPsychophysiology2019,3.0.5,59.84455102589806,
To what extent did the music make you feel ,ANXIOUS ,30MonoWAV/30MonoH2.wav,2,2,1,6,,,,,1,6,22,5,0,3,3,1,,,,,,,,,2,1.2187879309999516,057,001,2019_May_23_1406,MusicAffectPsychophysiology2019,3.0.5,59.84455102589806,
To what extent did the music make you feel ,ACTIVE,30MonoWAV/30MonoH2.wav,2,2,1,6,,,,,1,6,22,5,0,4,4,9,,,,,,,,,3,0.9510789079999995,057,001,2019_May_23_1406,MusicAffectPsychophysiology2019,3.0.5,59.84455102589806,
To what extent did the music make you feel ,TENDER,30MonoWAV/30MonoH2.wav,2,2,1,6,,,,,1,6,22,5,0,5,5,10,,,,,,,,,2,1.768483433000256,057,001,2019_May_23_1406,MusicAffectPsychophysiology2019,3.0.5,59.84455102589806,
To what extent did the music make you feel ,ANGRY,30MonoWAV/30MonoH2.wav,2,2,1,6,,,,,1,6,22,5,0,6,6,2,,,,,,,,,2,1.618727029999718,057,001,2019_May_23_1406,MusicAffectPsychophysiology2019,3.0.5,59.84455102589806,
To what extent did the music make you feel ,SCARED,30MonoWAV/30MonoH2.wav,2,2,1,6,,,,,1,6,22,5,0,7,7,11,,,,,,,,,1,1.350132709999798,057,001,2019_May_23_1406,MusicAffectPsychophysiology2019,3.0.5,59.84455102589806,
To what extent did the music make you feel ,SAD,30MonoWAV/30MonoH2.wav,2,2,1,6,,,,,1,6,22,5,0,8,8,0,,,,,,,,,2,1.7683148300002358,057,001,2019_May_23_1406,MusicAffectPsychophysiology2019,3.0.5,59.84455102589806,
To what extent did the music make you feel ,HAPPY,30MonoWAV/30MonoH2.wav,2,2,1,6,,,,,1,6,22,5,0,9,9,6,,,,,,,,,3,0.8357411619999766,057,001,2019_May_23_1406,MusicAffectPsychophysiology2019,3.0.5,59.84455102589806,
To what extent did the music make you feel ,ASHAMED,30MonoWAV/30MonoH2.wav,2,2,1,6,,,,,1,6,22,5,0,10,10,4,,,,,,,,,2,1.3851724699998158,057,001,2019_May_23_1406,MusicAffectPsychophysiology2019,3.0.5,59.84455102589806,
To what extent did the music make you feel ,EXCITED,30MonoWAV/30MonoH2.wav,2,2,1,6,,,,,1,6,22,5,0,11,11,7,,,,,,,,,3,1.0181533889999628,057,001,2019_May_23_1406,MusicAffectPsychophysiology2019,3.0.5,59.84455102589806,
,,30MonoWAV/30MonoH2.wav,2,2,1,6,,,,,1,6,22,5,,,,,,,,,,,,,,,057,001,2019_May_23_1406,MusicAffectPsychophysiology2019,3.0.5,59.84455102589806,
To what extent did the music make you feel ,ASHAMED,30MonoWAV/30MonoF4.wav,1,2,2,4,,,,,1,7,23,3,0,0,0,4,,,4,3.101133828000002,3,1.4656755040000462,3,2.4508251479996943,2,5.834613326000181,057,001,2019_May_23_1406,MusicAffectPsychophysiology2019,3.0.5,59.84455102589806,
To what extent did the music make you feel ,ACTIVE,30MonoWAV/30MonoF4.wav,1,2,2,4,,,,,1,7,23,3,0,1,1,9,,,,,,,,,3,0.8512952679998307,057,001,2019_May_23_1406,MusicAffectPsychophysiology2019,3.0.5,59.84455102589806,
To what extent did the music make you feel ,ALERT,30MonoWAV/30MonoF4.wav,1,2,2,4,,,,,1,7,23,3,0,2,2,8,,,,,,,,,3,0.8024270709997836,057,001,2019_May_23_1406,MusicAffectPsychophysiology2019,3.0.5,59.84455102589806,
To what extent did the music make you feel ,GUILTY,30MonoWAV/30MonoF4.wav,1,2,2,4,,,,,1,7,23,3,0,3,3,5,,,,,,,,,1,0.8379358039996987,057,001,2019_May_23_1406,MusicAffectPsychophysiology2019,3.0.5,59.84455102589806,
To what extent did the music make you feel ,TENDER,30MonoWAV/30MonoF4.wav,1,2,2,4,,,,,1,7,23,3,0,4,4,10,,,,,,,,,1,1.2192361679999522,057,001,2019_May_23_1406,MusicAffectPsychophysiology2019,3.0.5,59.84455102589806,
To what extent did the music make you feel ,FRUSTRATED,30MonoWAV/30MonoF4.wav,1,2,2,4,,,,,1,7,23,3,0,5,5,3,,,,,,,,,2,1.4204902179999408,057,001,2019_May_23_1406,MusicAffectPsychophysiology2019,3.0.5,59.84455102589806,
To what extent did the music make you feel ,SCARED,30MonoWAV/30MonoF4.wav,1,2,2,4,,,,,1,7,23,3,0,6,6,11,,,,,,,,,2,4.627231630000097,057,001,2019_May_23_1406,MusicAffectPsychophysiology2019,3.0.5,59.84455102589806,
To what extent did the music make you feel ,SAD,30MonoWAV/30MonoF4.wav,1,2,2,4,,,,,1,7,23,3,0,7,7,0,,,,,,,,,2,1.2521216860000095,057,001,2019_May_23_1406,MusicAffectPsychophysiology2019,3.0.5,59.84455102589806,
To what extent did the music make you feel ,HAPPY,30MonoWAV/30MonoF4.wav,1,2,2,4,,,,,1,7,23,3,0,8,8,6,,,,,,,,,3,0.9834928650002439,057,001,2019_May_23_1406,MusicAffectPsychophysiology2019,3.0.5,59.84455102589806,
To what extent did the music make you feel ,ANXIOUS ,30MonoWAV/30MonoF4.wav,1,2,2,4,,,,,1,7,23,3,0,9,9,1,,,,,,,,,2,1.1197533500003374,057,001,2019_May_23_1406,MusicAffectPsychophysiology2019,3.0.5,59.84455102589806,
To what extent did the music make you feel ,ANGRY,30MonoWAV/30MonoF4.wav,1,2,2,4,,,,,1,7,23,3,0,10,10,2,,,,,,,,,2,0.8838939000002028,057,001,2019_May_23_1406,MusicAffectPsychophysiology2019,3.0.5,59.84455102589806,
To what extent did the music make you feel ,EXCITED,30MonoWAV/30MonoF4.wav,1,2,2,4,,,,,1,7,23,3,0,11,11,7,,,,,,,,,2,0.01752335699984542,057,001,2019_May_23_1406,MusicAffectPsychophysiology2019,3.0.5,59.84455102589806,
,,30MonoWAV/30MonoF4.wav,1,2,2,4,,,,,1,7,23,3,,,,,,,,,,,,,,,057,001,2019_May_23_1406,MusicAffectPsychophysiology2019,3.0.5,59.84455102589806,
To what extent did the music make you feel ,SCARED,30MonoWAV/30MonoS1.wav,1,1,3,9,,,,,1,8,24,8,0,0,0,11,,,1,3.7681390309999188,2,1.51857654000014,2,1.117630895000275,2,1.6511756869999772,057,001,2019_May_23_1406,MusicAffectPsychophysiology2019,3.0.5,59.84455102589806,
To what extent did the music make you feel ,ASHAMED,30MonoWAV/30MonoS1.wav,1,1,3,9,,,,,1,8,24,8,0,1,1,4,,,,,,,,,1,1.9523434430002453,057,001,2019_May_23_1406,MusicAffectPsychophysiology2019,3.0.5,59.84455102589806,
To what extent did the music make you feel ,GUILTY,30MonoWAV/30MonoS1.wav,1,1,3,9,,,,,1,8,24,8,0,2,2,5,,,,,,,,,1,3.7681306700001187,057,001,2019_May_23_1406,MusicAffectPsychophysiology2019,3.0.5,59.84455102589806,
To what extent did the music make you feel ,ACTIVE,30MonoWAV/30MonoS1.wav,1,1,3,9,,,,,1,8,24,8,0,3,3,9,,,,,,,,,2,1.0171732389999306,057,001,2019_May_23_1406,MusicAffectPsychophysiology2019,3.0.5,59.84455102589806,
To what extent did the music make you feel ,TENDER,30MonoWAV/30MonoS1.wav,1,1,3,9,,,,,1,8,24,8,0,4,4,10,,,,,,,,,2,1.118721325000024,057,001,2019_May_23_1406,MusicAffectPsychophysiology2019,3.0.5,59.84455102589806,
To what extent did the music make you feel ,FRUSTRATED,30MonoWAV/30MonoS1.wav,1,1,3,9,,,,,1,8,24,8,0,5,5,3,,,,,,,,,1,0.9196605080001063,057,001,2019_May_23_1406,MusicAffectPsychophysiology2019,3.0.5,59.84455102589806,
To what extent did the music make you feel ,ANGRY,30MonoWAV/30MonoS1.wav,1,1,3,9,,,,,1,8,24,8,0,6,6,2,,,,,,,,,1,1.0521148100001483,057,001,2019_May_23_1406,MusicAffectPsychophysiology2019,3.0.5,59.84455102589806,
To what extent did the music make you feel ,ALERT,30MonoWAV/30MonoS1.wav,1,1,3,9,,,,,1,8,24,8,0,7,7,8,,,,,,,,,1,1.0692705490000662,057,001,2019_May_23_1406,MusicAffectPsychophysiology2019,3.0.5,59.84455102589806,
To what extent did the music make you feel ,HAPPY,30MonoWAV/30MonoS1.wav,1,1,3,9,,,,,1,8,24,8,0,8,8,6,,,,,,,,,3,1.1013773550002952,057,001,2019_May_23_1406,MusicAffectPsychophysiology2019,3.0.5,59.84455102589806,
To what extent did the music make you feel ,ANXIOUS ,30MonoWAV/30MonoS1.wav,1,1,3,9,,,,,1,8,24,8,0,9,9,1,,,,,,,,,2,2.3026523959997576,057,001,2019_May_23_1406,MusicAffectPsychophysiology2019,3.0.5,59.84455102589806,
To what extent did the music make you feel ,SAD,30MonoWAV/30MonoS1.wav,1,1,3,9,,,,,1,8,24,8,0,10,10,0,,,,,,,,,3,0.9184368469996116,057,001,2019_May_23_1406,MusicAffectPsychophysiology2019,3.0.5,59.84455102589806,
To what extent did the music make you feel ,EXCITED,30MonoWAV/30MonoS1.wav,1,1,3,9,,,,,1,8,24,8,0,11,11,7,,,,,,,,,1,1.218842647999736,057,001,2019_May_23_1406,MusicAffectPsychophysiology2019,3.0.5,59.84455102589806,
,,30MonoWAV/30MonoS1.wav,1,1,3,9,,,,,1,8,24,8,,,,,,,,,,,,,,,057,001,2019_May_23_1406,MusicAffectPsychophysiology2019,3.0.5,59.84455102589806,
To what extent did the music make you feel ,FRUSTRATED,30MonoWAV/30MonoT2.wav,2,1,4,14,,,,,1,9,25,13,0,0,0,3,,,2,3.1847369970000727,3,1.466617633000169,2,1.0687446259998978,2,1.3686842730003264,057,001,2019_May_23_1406,MusicAffectPsychophysiology2019,3.0.5,59.84455102589806,
To what extent did the music make you feel ,GUILTY,30MonoWAV/30MonoT2.wav,2,1,4,14,,,,,1,9,25,13,0,1,1,5,,,,,,,,,1,1.3512740859996484,057,001,2019_May_23_1406,MusicAffectPsychophysiology2019,3.0.5,59.84455102589806,
To what extent did the music make you feel ,ACTIVE,30MonoWAV/30MonoT2.wav,2,1,4,14,,,,,1,9,25,13,0,2,2,9,,,,,,,,,2,1.0017206170000463,057,001,2019_May_23_1406,MusicAffectPsychophysiology2019,3.0.5,59.84455102589806,
To what extent did the music make you feel ,ASHAMED,30MonoWAV/30MonoT2.wav,2,1,4,14,,,,,1,9,25,13,0,3,3,4,,,,,,,,,1,0.9344766540002638,057,001,2019_May_23_1406,MusicAffectPsychophysiology2019,3.0.5,59.84455102589806,
To what extent did the music make you feel ,EXCITED,30MonoWAV/30MonoT2.wav,2,1,4,14,,,,,1,9,25,13,0,4,4,7,,,,,,,,,2,1.1849242220000633,057,001,2019_May_23_1406,MusicAffectPsychophysiology2019,3.0.5,59.84455102589806,
To what extent did the music make you feel ,ANXIOUS ,30MonoWAV/30MonoT2.wav,2,1,4,14,,,,,1,9,25,13,0,5,5,1,,,,,,,,,2,1.4000329309997142,057,001,2019_May_23_1406,MusicAffectPsychophysiology2019,3.0.5,59.84455102589806,
To what extent did the music make you feel ,SAD,30MonoWAV/30MonoT2.wav,2,1,4,14,,,,,1,9,25,13,0,6,6,0,,,,,,,,,2,1.834285601999909,057,001,2019_May_23_1406,MusicAffectPsychophysiology2019,3.0.5,59.84455102589806,
To what extent did the music make you feel ,SCARED,30MonoWAV/30MonoT2.wav,2,1,4,14,,,,,1,9,25,13,0,7,7,11,,,,,,,,,1,0.9187338199999431,057,001,2019_May_23_1406,MusicAffectPsychophysiology2019,3.0.5,59.84455102589806,
To what extent did the music make you feel ,ALERT,30MonoWAV/30MonoT2.wav,2,1,4,14,,,,,1,9,25,13,0,8,8,8,,,,,,,,,2,1.2679540999997698,057,001,2019_May_23_1406,MusicAffectPsychophysiology2019,3.0.5,59.84455102589806,
To what extent did the music make you feel ,HAPPY,30MonoWAV/30MonoT2.wav,2,1,4,14,,,,,1,9,25,13,0,9,9,6,,,,,,,,,3,1.001595628999894,057,001,2019_May_23_1406,MusicAffectPsychophysiology2019,3.0.5,59.84455102589806,
To what extent did the music make you feel ,TENDER,30MonoWAV/30MonoT2.wav,2,1,4,14,,,,,1,9,25,13,0,10,10,10,,,,,,,,,3,0.8844586700001855,057,001,2019_May_23_1406,MusicAffectPsychophysiology2019,3.0.5,59.84455102589806,
To what extent did the music make you feel ,ANGRY,30MonoWAV/30MonoT2.wav,2,1,4,14,,,,,1,9,25,13,0,11,11,2,,,,,,,,,2,1.0011666289997265,057,001,2019_May_23_1406,MusicAffectPsychophysiology2019,3.0.5,59.84455102589806,
,,30MonoWAV/30MonoT2.wav,2,1,4,14,,,,,1,9,25,13,,,,,,,,,,,,,,,057,001,2019_May_23_1406,MusicAffectPsychophysiology2019,3.0.5,59.84455102589806,
To what extent did the music make you feel ,ANGRY,30MonoWAV/30MonoH1.wav,2,2,1,5,,,,,1,10,26,4,0,0,0,2,,,3,2.5347241669996947,2,1.4842874470000424,2,1.2684928799999398,3,1.185335010000017,057,001,2019_May_23_1406,MusicAffectPsychophysiology2019,3.0.5,59.84455102589806,
To what extent did the music make you feel ,ASHAMED,30MonoWAV/30MonoH1.wav,2,2,1,5,,,,,1,10,26,4,0,1,1,4,,,,,,,,,2,1.0513683829999536,057,001,2019_May_23_1406,MusicAffectPsychophysiology2019,3.0.5,59.84455102589806,
To what extent did the music make you feel ,HAPPY,30MonoWAV/30MonoH1.wav,2,2,1,5,,,,,1,10,26,4,0,2,2,6,,,,,,,,,4,2.0007706830001553,057,001,2019_May_23_1406,MusicAffectPsychophysiology2019,3.0.5,59.84455102589806,
To what extent did the music make you feel ,TENDER,30MonoWAV/30MonoH1.wav,2,2,1,5,,,,,1,10,26,4,0,3,3,10,,,,,,,,,2,1.5519338970002536,057,001,2019_May_23_1406,MusicAffectPsychophysiology2019,3.0.5,59.84455102589806,
To what extent did the music make you feel ,EXCITED,30MonoWAV/30MonoH1.wav,2,2,1,5,,,,,1,10,26,4,0,4,4,7,,,,,,,,,2,0.9850062370001069,057,001,2019_May_23_1406,MusicAffectPsychophysiology2019,3.0.5,59.84455102589806,
To what extent did the music make you feel ,FRUSTRATED,30MonoWAV/30MonoH1.wav,2,2,1,5,,,,,1,10,26,4,0,5,5,3,,,,,,,,,3,0.8855794460000652,057,001,2019_May_23_1406,MusicAffectPsychophysiology2019,3.0.5,59.84455102589806,
To what extent did the music make you feel ,SAD,30MonoWAV/30MonoH1.wav,2,2,1,5,,,,,1,10,26,4,0,6,6,0,,,,,,,,,2,0.9845392739998715,057,001,2019_May_23_1406,MusicAffectPsychophysiology2019,3.0.5,59.84455102589806,
To what extent did the music make you feel ,SCARED,30MonoWAV/30MonoH1.wav,2,2,1,5,,,,,1,10,26,4,0,7,7,11,,,,,,,,,1,2.0343947040000785,057,001,2019_May_23_1406,MusicAffectPsychophysiology2019,3.0.5,59.84455102589806,
To what extent did the music make you feel ,ALERT,30MonoWAV/30MonoH1.wav,2,2,1,5,,,,,1,10,26,4,0,8,8,8,,,,,,,,,2,1.0019311410001137,057,001,2019_May_23_1406,MusicAffectPsychophysiology2019,3.0.5,59.84455102589806,
To what extent did the music make you feel ,GUILTY,30MonoWAV/30MonoH1.wav,2,2,1,5,,,,,1,10,26,4,0,9,9,5,,,,,,,,,1,0.8519665809999424,057,001,2019_May_23_1406,MusicAffectPsychophysiology2019,3.0.5,59.84455102589806,
To what extent did the music make you feel ,ACTIVE,30MonoWAV/30MonoH1.wav,2,2,1,5,,,,,1,10,26,4,0,10,10,9,,,,,,,,,2,1.2677422090000618,057,001,2019_May_23_1406,MusicAffectPsychophysiology2019,3.0.5,59.84455102589806,
To what extent did the music make you feel ,ANXIOUS ,30MonoWAV/30MonoH1.wav,2,2,1,5,,,,,1,10,26,4,0,11,11,1,,,,,,,,,2,1.118691667999883,057,001,2019_May_23_1406,MusicAffectPsychophysiology2019,3.0.5,59.84455102589806,
,,30MonoWAV/30MonoH1.wav,2,2,1,5,,,,,1,10,26,4,,,,,,,,,,,,,,,057,001,2019_May_23_1406,MusicAffectPsychophysiology2019,3.0.5,59.84455102589806,
To what extent did the music make you feel ,GUILTY,30MonoWAV/30MonoT1.wav,2,1,4,13,,,,,1,11,27,12,0,0,0,5,,,2,2.601981999000145,2,3.6192048240000076,2,1.8852090119999048,1,0.9012334369999735,057,001,2019_May_23_1406,MusicAffectPsychophysiology2019,3.0.5,59.84455102589806,
To what extent did the music make you feel ,ASHAMED,30MonoWAV/30MonoT1.wav,2,1,4,13,,,,,1,11,27,12,0,1,1,4,,,,,,,,,1,0.751352334999865,057,001,2019_May_23_1406,MusicAffectPsychophysiology2019,3.0.5,59.84455102589806,
To what extent did the music make you feel ,ACTIVE,30MonoWAV/30MonoT1.wav,2,1,4,13,,,,,1,11,27,12,0,2,2,9,,,,,,,,,2,0.7853006969999115,057,001,2019_May_23_1406,MusicAffectPsychophysiology2019,3.0.5,59.84455102589806,
To what extent did the music make you feel ,EXCITED,30MonoWAV/30MonoT1.wav,2,1,4,13,,,,,1,11,27,12,0,3,3,7,,,,,,,,,1,1.5179016389997741,057,001,2019_May_23_1406,MusicAffectPsychophysiology2019,3.0.5,59.84455102589806,
To what extent did the music make you feel ,ALERT,30MonoWAV/30MonoT1.wav,2,1,4,13,,,,,1,11,27,12,0,4,4,8,,,,,,,,,1,1.1340682000000015,057,001,2019_May_23_1406,MusicAffectPsychophysiology2019,3.0.5,59.84455102589806,
To what extent did the music make you feel ,SCARED,30MonoWAV/30MonoT1.wav,2,1,4,13,,,,,1,11,27,12,0,5,5,11,,,,,,,,,1,0.6848785379997935,057,001,2019_May_23_1406,MusicAffectPsychophysiology2019,3.0.5,59.84455102589806,
To what extent did the music make you feel ,FRUSTRATED,30MonoWAV/30MonoT1.wav,2,1,4,13,,,,,1,11,27,12,0,6,6,3,,,,,,,,,3,0.7688085820000197,057,001,2019_May_23_1406,MusicAffectPsychophysiology2019,3.0.5,59.84455102589806,
To what extent did the music make you feel ,SAD,30MonoWAV/30MonoT1.wav,2,1,4,13,,,,,1,11,27,12,0,7,7,0,,,,,,,,,2,0.9847110800001246,057,001,2019_May_23_1406,MusicAffectPsychophysiology2019,3.0.5,59.84455102589806,
To what extent did the music make you feel ,ANXIOUS ,30MonoWAV/30MonoT1.wav,2,1,4,13,,,,,1,11,27,12,0,8,8,1,,,,,,,,,1,1.20246728300026,057,001,2019_May_23_1406,MusicAffectPsychophysiology2019,3.0.5,59.84455102589806,
To what extent did the music make you feel ,TENDER,30MonoWAV/30MonoT1.wav,2,1,4,13,,,,,1,11,27,12,0,9,9,10,,,,,,,,,2,1.1682051499997215,057,001,2019_May_23_1406,MusicAffectPsychophysiology2019,3.0.5,59.84455102589806,
To what extent did the music make you feel ,HAPPY,30MonoWAV/30MonoT1.wav,2,1,4,13,,,,,1,11,27,12,0,10,10,6,,,,,,,,,3,0.8851531220002471,057,001,2019_May_23_1406,MusicAffectPsychophysiology2019,3.0.5,59.84455102589806,
To what extent did the music make you feel ,ANGRY,30MonoWAV/30MonoT1.wav,2,1,4,13,,,,,1,11,27,12,0,11,11,2,,,,,,,,,3,1.901632956999947,057,001,2019_May_23_1406,MusicAffectPsychophysiology2019,3.0.5,59.84455102589806,
,,30MonoWAV/30MonoT1.wav,2,1,4,13,,,,,1,11,27,12,,,,,,,,,,,,,,,057,001,2019_May_23_1406,MusicAffectPsychophysiology2019,3.0.5,59.84455102589806,
To what extent did the music make you feel ,ASHAMED,30MonoWAV/30MonoF1.wav,1,2,2,1,,,,,1,12,28,0,0,0,0,4,,,3,6.851541667999754,2,1.7676890779998757,3,1.2679943859998275,2,1.5016225720000875,057,001,2019_May_23_1406,MusicAffectPsychophysiology2019,3.0.5,59.84455102589806,
To what extent did the music make you feel ,SCARED,30MonoWAV/30MonoF1.wav,1,2,2,1,,,,,1,12,28,0,0,1,1,11,,,,,,,,,2,1.5157968900002743,057,001,2019_May_23_1406,MusicAffectPsychophysiology2019,3.0.5,59.84455102589806,
To what extent did the music make you feel ,ANGRY,30MonoWAV/30MonoF1.wav,1,2,2,1,,,,,1,12,28,0,0,2,2,2,,,,,,,,,2,3.1022022619999916,057,001,2019_May_23_1406,MusicAffectPsychophysiology2019,3.0.5,59.84455102589806,
To what extent did the music make you feel ,EXCITED,30MonoWAV/30MonoF1.wav,1,2,2,1,,,,,1,12,28,0,0,3,3,7,,,,,,,,,3,0.9845598560000326,057,001,2019_May_23_1406,MusicAffectPsychophysiology2019,3.0.5,59.84455102589806,
To what extent did the music make you feel ,FRUSTRATED,30MonoWAV/30MonoF1.wav,1,2,2,1,,,,,1,12,28,0,0,4,4,3,,,,,,,,,3,0.9519308130002173,057,001,2019_May_23_1406,MusicAffectPsychophysiology2019,3.0.5,59.84455102589806,
To what extent did the music make you feel ,TENDER,30MonoWAV/30MonoF1.wav,1,2,2,1,,,,,1,12,28,0,0,5,5,10,,,,,,,,,1,2.3849746500000037,057,001,2019_May_23_1406,MusicAffectPsychophysiology2019,3.0.5,59.84455102589806,
To what extent did the music make you feel ,SAD,30MonoWAV/30MonoF1.wav,1,2,2,1,,,,,1,12,28,0,0,6,6,0,,,,,,,,,2,1.1347620319997986,057,001,2019_May_23_1406,MusicAffectPsychophysiology2019,3.0.5,59.84455102589806,
To what extent did the music make you feel ,GUILTY,30MonoWAV/30MonoF1.wav,1,2,2,1,,,,,1,12,28,0,0,7,7,5,,,,,,,,,1,2.36857097300026,057,001,2019_May_23_1406,MusicAffectPsychophysiology2019,3.0.5,59.84455102589806,
To what extent did the music make you feel ,HAPPY,30MonoWAV/30MonoF1.wav,1,2,2,1,,,,,1,12,28,0,0,8,8,6,,,,,,,,,2,1.969930536999982,057,001,2019_May_23_1406,MusicAffectPsychophysiology2019,3.0.5,59.84455102589806,
To what extent did the music make you feel ,ANXIOUS ,30MonoWAV/30MonoF1.wav,1,2,2,1,,,,,1,12,28,0,0,9,9,1,,,,,,,,,2,1.7344284139999218,057,001,2019_May_23_1406,MusicAffectPsychophysiology2019,3.0.5,59.84455102589806,
To what extent did the music make you feel ,ALERT,30MonoWAV/30MonoF1.wav,1,2,2,1,,,,,1,12,28,0,0,10,10,8,,,,,,,,,3,1.0661667909998869,057,001,2019_May_23_1406,MusicAffectPsychophysiology2019,3.0.5,59.84455102589806,
To what extent did the music make you feel ,ACTIVE,30MonoWAV/30MonoF1.wav,1,2,2,1,,,,,1,12,28,0,0,11,11,9,,,,,,,,,3,1.0692841219997717,057,001,2019_May_23_1406,MusicAffectPsychophysiology2019,3.0.5,59.84455102589806,
,,30MonoWAV/30MonoF1.wav,1,2,2,1,,,,,1,12,28,0,,,,,,,,,,,,,,,057,001,2019_May_23_1406,MusicAffectPsychophysiology2019,3.0.5,59.84455102589806,
To what extent did the music make you feel ,GUILTY,30MonoWAV/30MonoS4.wav,1,1,3,12,,,,,1,13,29,11,0,0,0,5,,,1,2.3682674319998114,1,1.1015371390003565,2,1.8348731230003068,1,1.0684284150001986,057,001,2019_May_23_1406,MusicAffectPsychophysiology2019,3.0.5,59.84455102589806,
To what extent did the music make you feel ,SCARED,30MonoWAV/30MonoS4.wav,1,1,3,12,,,,,1,13,29,11,0,1,1,11,,,,,,,,,2,1.085134398000264,057,001,2019_May_23_1406,MusicAffectPsychophysiology2019,3.0.5,59.84455102589806,
To what extent did the music make you feel ,TENDER,30MonoWAV/30MonoS4.wav,1,1,3,12,,,,,1,13,29,11,0,2,2,10,,,,,,,,,2,0.8507815050002137,057,001,2019_May_23_1406,MusicAffectPsychophysiology2019,3.0.5,59.84455102589806,
To what extent did the music make you feel ,FRUSTRATED,30MonoWAV/30MonoS4.wav,1,1,3,12,,,,,1,13,29,11,0,3,3,3,,,,,,,,,3,1.7190871140001036,057,001,2019_May_23_1406,MusicAffectPsychophysiology2019,3.0.5,59.84455102589806,
To what extent did the music make you feel ,ALERT,30MonoWAV/30MonoS4.wav,1,1,3,12,,,,,1,13,29,11,0,4,4,8,,,,,,,,,2,1.069112375000259,057,001,2019_May_23_1406,MusicAffectPsychophysiology2019,3.0.5,59.84455102589806,
To what extent did the music make you feel ,ANGRY,30MonoWAV/30MonoS4.wav,1,1,3,12,,,,,1,13,29,11,0,5,5,2,,,,,,,,,2,1.0890946370000165,057,001,2019_May_23_1406,MusicAffectPsychophysiology2019,3.0.5,59.84455102589806,
To what extent did the music make you feel ,SAD,30MonoWAV/30MonoS4.wav,1,1,3,12,,,,,1,13,29,11,0,6,6,0,,,,,,,,,4,2.4876452089997656,057,001,2019_May_23_1406,MusicAffectPsychophysiology2019,3.0.5,59.84455102589806,
To what extent did the music make you feel ,EXCITED,30MonoWAV/30MonoS4.wav,1,1,3,12,,,,,1,13,29,11,0,7,7,7,,,,,,,,,2,2.304417182999714,057,001,2019_May_23_1406,MusicAffectPsychophysiology2019,3.0.5,59.84455102589806,
To what extent did the music make you feel ,ANXIOUS ,30MonoWAV/30MonoS4.wav,1,1,3,12,,,,,1,13,29,11,0,8,8,1,,,,,,,,,3,1.219847099999697,057,001,2019_May_23_1406,MusicAffectPsychophysiology2019,3.0.5,59.84455102589806,
To what extent did the music make you feel ,ACTIVE,30MonoWAV/30MonoS4.wav,1,1,3,12,,,,,1,13,29,11,0,9,9,9,,,,,,,,,2,1.1565549350002584,057,001,2019_May_23_1406,MusicAffectPsychophysiology2019,3.0.5,59.84455102589806,
To what extent did the music make you feel ,ASHAMED,30MonoWAV/30MonoS4.wav,1,1,3,12,,,,,1,13,29,11,0,10,10,4,,,,,,,,,1,1.0021607359999507,057,001,2019_May_23_1406,MusicAffectPsychophysiology2019,3.0.5,59.84455102589806,
To what extent did the music make you feel ,HAPPY,30MonoWAV/30MonoS4.wav,1,1,3,12,,,,,1,13,29,11,0,11,11,6,,,,,,,,,2,0.9688861380000162,057,001,2019_May_23_1406,MusicAffectPsychophysiology2019,3.0.5,59.84455102589806,
,,30MonoWAV/30MonoS4.wav,1,1,3,12,,,,,1,13,29,11,,,,,,,,,,,,,,,057,001,2019_May_23_1406,MusicAffectPsychophysiology2019,3.0.5,59.84455102589806,
To what extent did the music make you feel ,ANXIOUS ,30MonoWAV/30MonoF3.wav,1,2,2,3,,,,,1,14,30,2,0,0,0,1,,,3,2.3346905270000207,3,1.3856020840003112,3,1.5525845299998764,3,1.568254152999998,057,001,2019_May_23_1406,MusicAffectPsychophysiology2019,3.0.5,59.84455102589806,
To what extent did the music make you feel ,ALERT,30MonoWAV/30MonoF3.wav,1,2,2,3,,,,,1,14,30,2,0,1,1,8,,,,,,,,,3,2.532901586999742,057,001,2019_May_23_1406,MusicAffectPsychophysiology2019,3.0.5,59.84455102589806,
To what extent did the music make you feel ,FRUSTRATED,30MonoWAV/30MonoF3.wav,1,2,2,3,,,,,1,14,30,2,0,2,2,3,,,,,,,,,3,1.6524842520002494,057,001,2019_May_23_1406,MusicAffectPsychophysiology2019,3.0.5,59.84455102589806,
To what extent did the music make you feel ,ASHAMED,30MonoWAV/30MonoF3.wav,1,2,2,3,,,,,1,14,30,2,0,3,3,4,,,,,,,,,2,1.2991729229997873,057,001,2019_May_23_1406,MusicAffectPsychophysiology2019,3.0.5,59.84455102589806,
To what extent did the music make you feel ,ANGRY,30MonoWAV/30MonoF3.wav,1,2,2,3,,,,,1,14,30,2,0,4,4,2,,,,,,,,,2,2.185651850999875,057,001,2019_May_23_1406,MusicAffectPsychophysiology2019,3.0.5,59.84455102589806,
To what extent did the music make you feel ,ACTIVE,30MonoWAV/30MonoF3.wav,1,2,2,3,,,,,1,14,30,2,0,5,5,9,,,,,,,,,3,0.8356629619997875,057,001,2019_May_23_1406,MusicAffectPsychophysiology2019,3.0.5,59.84455102589806,
To what extent did the music make you feel ,SCARED,30MonoWAV/30MonoF3.wav,1,2,2,3,,,,,1,14,30,2,0,6,6,11,,,,,,,,,2,1.117783419999796,057,001,2019_May_23_1406,MusicAffectPsychophysiology2019,3.0.5,59.84455102589806,
To what extent did the music make you feel ,EXCITED,30MonoWAV/30MonoF3.wav,1,2,2,3,,,,,1,14,30,2,0,7,7,7,,,,,,,,,3,3.0347584619998997,057,001,2019_May_23_1406,MusicAffectPsychophysiology2019,3.0.5,59.84455102589806,
To what extent did the music make you feel ,HAPPY,30MonoWAV/30MonoF3.wav,1,2,2,3,,,,,1,14,30,2,0,8,8,6,,,,,,,,,3,1.1180891750000228,057,001,2019_May_23_1406,MusicAffectPsychophysiology2019,3.0.5,59.84455102589806,
To what extent did the music make you feel ,SAD,30MonoWAV/30MonoF3.wav,1,2,2,3,,,,,1,14,30,2,0,9,9,0,,,,,,,,,2,1.3182568749998609,057,001,2019_May_23_1406,MusicAffectPsychophysiology2019,3.0.5,59.84455102589806,
To what extent did the music make you feel ,TENDER,30MonoWAV/30MonoF3.wav,1,2,2,3,,,,,1,14,30,2,0,10,10,10,,,,,,,,,1,1.1183746909991896,057,001,2019_May_23_1406,MusicAffectPsychophysiology2019,3.0.5,59.84455102589806,
To what extent did the music make you feel ,GUILTY,30MonoWAV/30MonoF3.wav,1,2,2,3,,,,,1,14,30,2,0,11,11,5,,,,,,,,,1,0.951449116000731,057,001,2019_May_23_1406,MusicAffectPsychophysiology2019,3.0.5,59.84455102589806,
,,30MonoWAV/30MonoF3.wav,1,2,2,3,,,,,1,14,30,2,,,,,,,,,,,,,,,057,001,2019_May_23_1406,MusicAffectPsychophysiology2019,3.0.5,59.84455102589806,
To what extent did the music make you feel ,ANGRY,30MonoWAV/30MonoS3.wav,1,1,3,11,,,,,1,15,31,10,0,0,0,2,,,1,5.084851951999553,2,1.0014734329997736,2,1.1673095440000907,2,2.151815622999493,057,001,2019_May_23_1406,MusicAffectPsychophysiology2019,3.0.5,59.84455102589806,
To what extent did the music make you feel ,SAD,30MonoWAV/30MonoS3.wav,1,1,3,11,,,,,1,15,31,10,0,1,1,0,,,,,,,,,3,1.3687805460003801,057,001,2019_May_23_1406,MusicAffectPsychophysiology2019,3.0.5,59.84455102589806,
To what extent did the music make you feel ,ASHAMED,30MonoWAV/30MonoS3.wav,1,1,3,11,,,,,1,15,31,10,0,2,2,4,,,,,,,,,3,3.0008232600002884,057,001,2019_May_23_1406,MusicAffectPsychophysiology2019,3.0.5,59.84455102589806,
To what extent did the music make you feel ,ALERT,30MonoWAV/30MonoS3.wav,1,1,3,11,,,,,1,15,31,10,0,3,3,8,,,,,,,,,2,1.0834912390000682,057,001,2019_May_23_1406,MusicAffectPsychophysiology2019,3.0.5,59.84455102589806,
To what extent did the music make you feel ,FRUSTRATED,30MonoWAV/30MonoS3.wav,1,1,3,11,,,,,1,15,31,10,0,4,4,3,,,,,,,,,3,1.151609733999976,057,001,2019_May_23_1406,MusicAffectPsychophysiology2019,3.0.5,59.84455102589806,
To what extent did the music make you feel ,HAPPY,30MonoWAV/30MonoS3.wav,1,1,3,11,,,,,1,15,31,10,0,5,5,6,,,,,,,,,1,3.4181389900004433,057,001,2019_May_23_1406,MusicAffectPsychophysiology2019,3.0.5,59.84455102589806,
To what extent did the music make you feel ,ANXIOUS ,30MonoWAV/30MonoS3.wav,1,1,3,11,,,,,1,15,31,10,0,6,6,1,,,,,,,,,3,1.6163710219998393,057,001,2019_May_23_1406,MusicAffectPsychophysiology2019,3.0.5,59.84455102589806,
To what extent did the music make you feel ,SCARED,30MonoWAV/30MonoS3.wav,1,1,3,11,,,,,1,15,31,10,0,7,7,11,,,,,,,,,2,1.8009757869995155,057,001,2019_May_23_1406,MusicAffectPsychophysiology2019,3.0.5,59.84455102589806,
To what extent did the music make you feel ,GUILTY,30MonoWAV/30MonoS3.wav,1,1,3,11,,,,,1,15,31,10,0,8,8,5,,,,,,,,,1,1.902653855000608,057,001,2019_May_23_1406,MusicAffectPsychophysiology2019,3.0.5,59.84455102589806,
To what extent did the music make you feel ,ACTIVE,30MonoWAV/30MonoS3.wav,1,1,3,11,,,,,1,15,31,10,0,9,9,9,,,,,,,,,2,1.669399276999684,057,001,2019_May_23_1406,MusicAffectPsychophysiology2019,3.0.5,59.84455102589806,
To what extent did the music make you feel ,TENDER,30MonoWAV/30MonoS3.wav,1,1,3,11,,,,,1,15,31,10,0,10,10,10,,,,,,,,,3,1.5684292840005583,057,001,2019_May_23_1406,MusicAffectPsychophysiology2019,3.0.5,59.84455102589806,
To what extent did the music make you feel ,EXCITED,30MonoWAV/30MonoS3.wav,1,1,3,11,,,,,1,15,31,10,0,11,11,7,,,,,,,,,2,1.2192508730004192,057,001,2019_May_23_1406,MusicAffectPsychophysiology2019,3.0.5,59.84455102589806,
,,30MonoWAV/30MonoS3.wav,1,1,3,11,,,,,1,15,31,10,,,,,,,,,,,,,,,057,001,2019_May_23_1406,MusicAffectPsychophysiology2019,3.0.5,59.84455102589806,
