Instruction,Word,song,valence,arousal,affectcat,songmark,pracwords.thisRepN,pracwords.thisTrialN,pracwords.thisN,pracwords.thisIndex,songtrials.thisRepN,songtrials.thisTrialN,songtrials.thisN,songtrials.thisIndex,words.thisRepN,words.thisTrialN,words.thisN,words.thisIndex,begin.keys,begin.rt,arousalkey.keys,arousalkey.rt,valencekey.keys,valencekey.rt,likekey.keys,likekey.rt,WordResponse.keys,WordResponse.rt,key_resp_2.keys,key_resp_2.rt,participant,session,date,expName,psychopyVersion,frameRate,
,,,,,,,,,,,,,,,,,,,space,3.338448731000426,,,,,,,,,,,058,001,2019_May_23_1524,MusicAffectPsychophysiology2019,3.0.5,60.0264059760311,
,,,,,,,,,,,,,,,,,,,,,2,3.6349771179993695,,,,,,,,,058,001,2019_May_23_1524,MusicAffectPsychophysiology2019,3.0.5,60.0264059760311,
,,,,,,,,,,,,,,,,,,,,,,,3,3.534811883999282,,,,,,,058,001,2019_May_23_1524,MusicAffectPsychophysiology2019,3.0.5,60.0264059760311,
,,,,,,,,,,,,,,,,,,,,,,,,,2,2.3180885319998197,,,,,058,001,2019_May_23_1524,MusicAffectPsychophysiology2019,3.0.5,60.0264059760311,
To what extent did the music make you feel ,ASHAMED,,,,,,0,0,0,4,,,,,,,,,,,,,,,,,1,2.439656474000003,,,058,001,2019_May_23_1524,MusicAffectPsychophysiology2019,3.0.5,60.0264059760311,
To what extent did the music make you feel ,HAPPY,,,,,,0,1,1,6,,,,,,,,,,,,,,,,,2,1.2359758419997888,,,058,001,2019_May_23_1524,MusicAffectPsychophysiology2019,3.0.5,60.0264059760311,
To what extent did the music make you feel ,ACTIVE,,,,,,0,2,2,9,,,,,,,,,,,,,,,,,1,1.3031973929992091,,,058,001,2019_May_23_1524,MusicAffectPsychophysiology2019,3.0.5,60.0264059760311,
To what extent did the music make you feel ,FRUSTRATED,,,,,,0,3,3,3,,,,,,,,,,,,,,,,,1,1.06926067600034,,,058,001,2019_May_23_1524,MusicAffectPsychophysiology2019,3.0.5,60.0264059760311,
To what extent did the music make you feel ,ANGRY,,,,,,0,4,4,2,,,,,,,,,,,,,,,,,1,0.8699782140001844,,,058,001,2019_May_23_1524,MusicAffectPsychophysiology2019,3.0.5,60.0264059760311,
To what extent did the music make you feel ,SCARED,,,,,,0,5,5,11,,,,,,,,,,,,,,,,,1,1.1190922880005019,,,058,001,2019_May_23_1524,MusicAffectPsychophysiology2019,3.0.5,60.0264059760311,
To what extent did the music make you feel ,GUILTY,,,,,,0,6,6,5,,,,,,,,,,,,,,,,,1,0.7693063699998675,,,058,001,2019_May_23_1524,MusicAffectPsychophysiology2019,3.0.5,60.0264059760311,
To what extent did the music make you feel ,SAD,,,,,,0,7,7,0,,,,,,,,,,,,,,,,,1,0.6060147400003189,,,058,001,2019_May_23_1524,MusicAffectPsychophysiology2019,3.0.5,60.0264059760311,
To what extent did the music make you feel ,ALERT,,,,,,0,8,8,8,,,,,,,,,,,,,,,,,1,0.8690271750001557,,,058,001,2019_May_23_1524,MusicAffectPsychophysiology2019,3.0.5,60.0264059760311,
To what extent did the music make you feel ,EXCITED,,,,,,0,9,9,7,,,,,,,,,,,,,,,,,1,0.8353418469996541,,,058,001,2019_May_23_1524,MusicAffectPsychophysiology2019,3.0.5,60.0264059760311,
To what extent did the music make you feel ,TENDER,,,,,,0,10,10,10,,,,,,,,,,,,,,,,,4,2.1681479700000637,,,058,001,2019_May_23_1524,MusicAffectPsychophysiology2019,3.0.5,60.0264059760311,
To what extent did the music make you feel ,ANXIOUS ,,,,,,0,11,11,1,,,,,,,,,,,,,,,,,1,1.1021140289994946,,,058,001,2019_May_23_1524,MusicAffectPsychophysiology2019,3.0.5,60.0264059760311,
To what extent did the music make you feel ,SAD,30MonoWAV/30MonoF1.wav,1,2,2,1,,,,,0,0,0,0,0,0,0,0,,,3,4.635367205999501,1,3.317700708999837,2,2.566151355999864,1,2.3671239340001193,,,058,001,2019_May_23_1524,MusicAffectPsychophysiology2019,3.0.5,60.0264059760311,
To what extent did the music make you feel ,HAPPY,30MonoWAV/30MonoF1.wav,1,2,2,1,,,,,0,0,0,0,0,1,1,6,,,,,,,,,1,0.9025395540002137,,,058,001,2019_May_23_1524,MusicAffectPsychophysiology2019,3.0.5,60.0264059760311,
To what extent did the music make you feel ,ACTIVE,30MonoWAV/30MonoF1.wav,1,2,2,1,,,,,0,0,0,0,0,2,2,9,,,,,,,,,1,0.8681530060002842,,,058,001,2019_May_23_1524,MusicAffectPsychophysiology2019,3.0.5,60.0264059760311,
To what extent did the music make you feel ,TENDER,30MonoWAV/30MonoF1.wav,1,2,2,1,,,,,0,0,0,0,0,3,3,10,,,,,,,,,1,0.718029858000591,,,058,001,2019_May_23_1524,MusicAffectPsychophysiology2019,3.0.5,60.0264059760311,
To what extent did the music make you feel ,ANXIOUS ,30MonoWAV/30MonoF1.wav,1,2,2,1,,,,,0,0,0,0,0,4,4,1,,,,,,,,,3,1.4015590089993566,,,058,001,2019_May_23_1524,MusicAffectPsychophysiology2019,3.0.5,60.0264059760311,
To what extent did the music make you feel ,GUILTY,30MonoWAV/30MonoF1.wav,1,2,2,1,,,,,0,0,0,0,0,5,5,5,,,,,,,,,1,1.0662980879997122,,,058,001,2019_May_23_1524,MusicAffectPsychophysiology2019,3.0.5,60.0264059760311,
To what extent did the music make you feel ,FRUSTRATED,30MonoWAV/30MonoF1.wav,1,2,2,1,,,,,0,0,0,0,0,6,6,3,,,,,,,,,1,1.7013163179999538,,,058,001,2019_May_23_1524,MusicAffectPsychophysiology2019,3.0.5,60.0264059760311,
To what extent did the music make you feel ,ANGRY,30MonoWAV/30MonoF1.wav,1,2,2,1,,,,,0,0,0,0,0,7,7,2,,,,,,,,,4,2.10212447899994,,,058,001,2019_May_23_1524,MusicAffectPsychophysiology2019,3.0.5,60.0264059760311,
To what extent did the music make you feel ,SCARED,30MonoWAV/30MonoF1.wav,1,2,2,1,,,,,0,0,0,0,0,8,8,11,,,,,,,,,1,0.834416949000115,,,058,001,2019_May_23_1524,MusicAffectPsychophysiology2019,3.0.5,60.0264059760311,
To what extent did the music make you feel ,ALERT,30MonoWAV/30MonoF1.wav,1,2,2,1,,,,,0,0,0,0,0,9,9,8,,,,,,,,,1,1.4844285059998583,,,058,001,2019_May_23_1524,MusicAffectPsychophysiology2019,3.0.5,60.0264059760311,
To what extent did the music make you feel ,EXCITED,30MonoWAV/30MonoF1.wav,1,2,2,1,,,,,0,0,0,0,0,10,10,7,,,,,,,,,1,1.1013910319998104,,,058,001,2019_May_23_1524,MusicAffectPsychophysiology2019,3.0.5,60.0264059760311,
To what extent did the music make you feel ,ASHAMED,30MonoWAV/30MonoF1.wav,1,2,2,1,,,,,0,0,0,0,0,11,11,4,,,,,,,,,1,0.7017704580002828,,,058,001,2019_May_23_1524,MusicAffectPsychophysiology2019,3.0.5,60.0264059760311,
,,30MonoWAV/30MonoF1.wav,1,2,2,1,,,,,0,0,0,0,,,,,,,,,,,,,,,,,058,001,2019_May_23_1524,MusicAffectPsychophysiology2019,3.0.5,60.0264059760311,
To what extent did the music make you feel ,ACTIVE,30MonoWAV/30MonoF2.wav,1,2,2,2,,,,,0,1,1,1,0,0,0,9,,,2,2.6165972680000777,1,1.2198963400005596,3,1.8019776959999945,1,2.9516536340006496,,,058,001,2019_May_23_1524,MusicAffectPsychophysiology2019,3.0.5,60.0264059760311,
To what extent did the music make you feel ,HAPPY,30MonoWAV/30MonoF2.wav,1,2,2,2,,,,,0,1,1,1,0,1,1,6,,,,,,,,,1,0.5017226620002475,,,058,001,2019_May_23_1524,MusicAffectPsychophysiology2019,3.0.5,60.0264059760311,
To what extent did the music make you feel ,EXCITED,30MonoWAV/30MonoF2.wav,1,2,2,2,,,,,0,1,1,1,0,2,2,7,,,,,,,,,1,1.6013927690000855,,,058,001,2019_May_23_1524,MusicAffectPsychophysiology2019,3.0.5,60.0264059760311,
To what extent did the music make you feel ,SCARED,30MonoWAV/30MonoF2.wav,1,2,2,2,,,,,0,1,1,1,0,3,3,11,,,,,,,,,5,1.266990879000332,,,058,001,2019_May_23_1524,MusicAffectPsychophysiology2019,3.0.5,60.0264059760311,
To what extent did the music make you feel ,GUILTY,30MonoWAV/30MonoF2.wav,1,2,2,2,,,,,0,1,1,1,0,4,4,5,,,,,,,,,1,1.1516817389992866,,,058,001,2019_May_23_1524,MusicAffectPsychophysiology2019,3.0.5,60.0264059760311,
To what extent did the music make you feel ,ANXIOUS ,30MonoWAV/30MonoF2.wav,1,2,2,2,,,,,0,1,1,1,0,5,5,1,,,,,,,,,4,1.5020465569996304,,,058,001,2019_May_23_1524,MusicAffectPsychophysiology2019,3.0.5,60.0264059760311,
To what extent did the music make you feel ,TENDER,30MonoWAV/30MonoF2.wav,1,2,2,2,,,,,0,1,1,1,0,6,6,10,,,,,,,,,1,1.0349978439999177,,,058,001,2019_May_23_1524,MusicAffectPsychophysiology2019,3.0.5,60.0264059760311,
To what extent did the music make you feel ,ASHAMED,30MonoWAV/30MonoF2.wav,1,2,2,2,,,,,0,1,1,1,0,7,7,4,,,,,,,,,1,3.5509960110002794,,,058,001,2019_May_23_1524,MusicAffectPsychophysiology2019,3.0.5,60.0264059760311,
To what extent did the music make you feel ,FRUSTRATED,30MonoWAV/30MonoF2.wav,1,2,2,2,,,,,0,1,1,1,0,8,8,3,,,,,,,,,1,0.8686080409997885,,,058,001,2019_May_23_1524,MusicAffectPsychophysiology2019,3.0.5,60.0264059760311,
To what extent did the music make you feel ,ALERT,30MonoWAV/30MonoF2.wav,1,2,2,2,,,,,0,1,1,1,0,9,9,8,,,,,,,,,4,1.3847471850003785,,,058,001,2019_May_23_1524,MusicAffectPsychophysiology2019,3.0.5,60.0264059760311,
To what extent did the music make you feel ,ANGRY,30MonoWAV/30MonoF2.wav,1,2,2,2,,,,,0,1,1,1,0,10,10,2,,,,,,,,,3,1.9009936869997546,,,058,001,2019_May_23_1524,MusicAffectPsychophysiology2019,3.0.5,60.0264059760311,
To what extent did the music make you feel ,SAD,30MonoWAV/30MonoF2.wav,1,2,2,2,,,,,0,1,1,1,0,11,11,0,,,,,,,,,1,0.9015497229993343,,,058,001,2019_May_23_1524,MusicAffectPsychophysiology2019,3.0.5,60.0264059760311,
,,30MonoWAV/30MonoF2.wav,1,2,2,2,,,,,0,1,1,1,,,,,,,,,,,,,,,,,058,001,2019_May_23_1524,MusicAffectPsychophysiology2019,3.0.5,60.0264059760311,
To what extent did the music make you feel ,GUILTY,30MonoWAV/30MonoS1.wav,1,1,3,9,,,,,0,2,2,8,0,0,0,5,,,1,4.601096454000071,1,2.0845345899997483,1,2.817812082999808,1,3.301275054999678,,,058,001,2019_May_23_1524,MusicAffectPsychophysiology2019,3.0.5,60.0264059760311,
To what extent did the music make you feel ,TENDER,30MonoWAV/30MonoS1.wav,1,1,3,9,,,,,0,2,2,8,0,1,1,10,,,,,,,,,3,1.6520982689999073,,,058,001,2019_May_23_1524,MusicAffectPsychophysiology2019,3.0.5,60.0264059760311,
To what extent did the music make you feel ,HAPPY,30MonoWAV/30MonoS1.wav,1,1,3,9,,,,,0,2,2,8,0,2,2,6,,,,,,,,,1,0.852775481000208,,,058,001,2019_May_23_1524,MusicAffectPsychophysiology2019,3.0.5,60.0264059760311,
To what extent did the music make you feel ,ACTIVE,30MonoWAV/30MonoS1.wav,1,1,3,9,,,,,0,2,2,8,0,3,3,9,,,,,,,,,1,0.8171147070006555,,,058,001,2019_May_23_1524,MusicAffectPsychophysiology2019,3.0.5,60.0264059760311,
To what extent did the music make you feel ,ASHAMED,30MonoWAV/30MonoS1.wav,1,1,3,9,,,,,0,2,2,8,0,4,4,4,,,,,,,,,1,0.9509980459997678,,,058,001,2019_May_23_1524,MusicAffectPsychophysiology2019,3.0.5,60.0264059760311,
To what extent did the music make you feel ,EXCITED,30MonoWAV/30MonoS1.wav,1,1,3,9,,,,,0,2,2,8,0,5,5,7,,,,,,,,,1,0.7520577189998221,,,058,001,2019_May_23_1524,MusicAffectPsychophysiology2019,3.0.5,60.0264059760311,
To what extent did the music make you feel ,FRUSTRATED,30MonoWAV/30MonoS1.wav,1,1,3,9,,,,,0,2,2,8,0,6,6,3,,,,,,,,,1,0.8698591590000433,,,058,001,2019_May_23_1524,MusicAffectPsychophysiology2019,3.0.5,60.0264059760311,
To what extent did the music make you feel ,ANGRY,30MonoWAV/30MonoS1.wav,1,1,3,9,,,,,0,2,2,8,0,7,7,2,,,,,,,,,1,0.7682411040004808,,,058,001,2019_May_23_1524,MusicAffectPsychophysiology2019,3.0.5,60.0264059760311,
To what extent did the music make you feel ,ANXIOUS ,30MonoWAV/30MonoS1.wav,1,1,3,9,,,,,0,2,2,8,0,8,8,1,,,,,,,,,1,1.0686222370004543,,,058,001,2019_May_23_1524,MusicAffectPsychophysiology2019,3.0.5,60.0264059760311,
To what extent did the music make you feel ,SCARED,30MonoWAV/30MonoS1.wav,1,1,3,9,,,,,0,2,2,8,0,9,9,11,,,,,,,,,1,2.3842483779999384,,,058,001,2019_May_23_1524,MusicAffectPsychophysiology2019,3.0.5,60.0264059760311,
To what extent did the music make you feel ,ALERT,30MonoWAV/30MonoS1.wav,1,1,3,9,,,,,0,2,2,8,0,10,10,8,,,,,,,,,1,0.8511051810000936,,,058,001,2019_May_23_1524,MusicAffectPsychophysiology2019,3.0.5,60.0264059760311,
To what extent did the music make you feel ,SAD,30MonoWAV/30MonoS1.wav,1,1,3,9,,,,,0,2,2,8,0,11,11,0,,,,,,,,,5,2.3022144130000015,,,058,001,2019_May_23_1524,MusicAffectPsychophysiology2019,3.0.5,60.0264059760311,
,,30MonoWAV/30MonoS1.wav,1,1,3,9,,,,,0,2,2,8,,,,,,,,,,,,,,,,,058,001,2019_May_23_1524,MusicAffectPsychophysiology2019,3.0.5,60.0264059760311,
To what extent did the music make you feel ,ALERT,30MonoWAV/30MonoH3.wav,2,2,1,7,,,,,0,3,3,6,0,0,0,8,,,3,3.286133737000455,5,2.185425523000049,4,1.117642342000181,1,1.4349054490003255,,,058,001,2019_May_23_1524,MusicAffectPsychophysiology2019,3.0.5,60.0264059760311,
To what extent did the music make you feel ,FRUSTRATED,30MonoWAV/30MonoH3.wav,2,2,1,7,,,,,0,3,3,6,0,1,1,3,,,,,,,,,1,0.7517902379995576,,,058,001,2019_May_23_1524,MusicAffectPsychophysiology2019,3.0.5,60.0264059760311,
To what extent did the music make you feel ,ANGRY,30MonoWAV/30MonoH3.wav,2,2,1,7,,,,,0,3,3,6,0,2,2,2,,,,,,,,,1,0.6181206139999631,,,058,001,2019_May_23_1524,MusicAffectPsychophysiology2019,3.0.5,60.0264059760311,
To what extent did the music make you feel ,TENDER,30MonoWAV/30MonoH3.wav,2,2,1,7,,,,,0,3,3,6,0,3,3,10,,,,,,,,,2,1.7509015830000862,,,058,001,2019_May_23_1524,MusicAffectPsychophysiology2019,3.0.5,60.0264059760311,
To what extent did the music make you feel ,SCARED,30MonoWAV/30MonoH3.wav,2,2,1,7,,,,,0,3,3,6,0,4,4,11,,,,,,,,,1,0.8835409990006156,,,058,001,2019_May_23_1524,MusicAffectPsychophysiology2019,3.0.5,60.0264059760311,
To what extent did the music make you feel ,SAD,30MonoWAV/30MonoH3.wav,2,2,1,7,,,,,0,3,3,6,0,5,5,0,,,,,,,,,1,1.2515846609994696,,,058,001,2019_May_23_1524,MusicAffectPsychophysiology2019,3.0.5,60.0264059760311,
To what extent did the music make you feel ,ASHAMED,30MonoWAV/30MonoH3.wav,2,2,1,7,,,,,0,3,3,6,0,6,6,4,,,,,,,,,1,0.6686733429996821,,,058,001,2019_May_23_1524,MusicAffectPsychophysiology2019,3.0.5,60.0264059760311,
To what extent did the music make you feel ,GUILTY,30MonoWAV/30MonoH3.wav,2,2,1,7,,,,,0,3,3,6,0,7,7,5,,,,,,,,,1,0.6522722650006472,,,058,001,2019_May_23_1524,MusicAffectPsychophysiology2019,3.0.5,60.0264059760311,
To what extent did the music make you feel ,ANXIOUS ,30MonoWAV/30MonoH3.wav,2,2,1,7,,,,,0,3,3,6,0,8,8,1,,,,,,,,,1,0.6344010799994066,,,058,001,2019_May_23_1524,MusicAffectPsychophysiology2019,3.0.5,60.0264059760311,
To what extent did the music make you feel ,EXCITED,30MonoWAV/30MonoH3.wav,2,2,1,7,,,,,0,3,3,6,0,9,9,7,,,,,,,,,3,1.2026599999999235,,,058,001,2019_May_23_1524,MusicAffectPsychophysiology2019,3.0.5,60.0264059760311,
To what extent did the music make you feel ,ACTIVE,30MonoWAV/30MonoH3.wav,2,2,1,7,,,,,0,3,3,6,0,10,10,9,,,,,,,,,4,0.7513829389999955,,,058,001,2019_May_23_1524,MusicAffectPsychophysiology2019,3.0.5,60.0264059760311,
To what extent did the music make you feel ,HAPPY,30MonoWAV/30MonoH3.wav,2,2,1,7,,,,,0,3,3,6,0,11,11,6,,,,,,,,,5,2.0005973110000923,,,058,001,2019_May_23_1524,MusicAffectPsychophysiology2019,3.0.5,60.0264059760311,
,,30MonoWAV/30MonoH3.wav,2,2,1,7,,,,,0,3,3,6,,,,,,,,,,,,,,,,,058,001,2019_May_23_1524,MusicAffectPsychophysiology2019,3.0.5,60.0264059760311,
To what extent did the music make you feel ,ANGRY,30MonoWAV/30MonoT2.wav,2,1,4,14,,,,,0,4,4,13,0,0,0,2,,,3,2.235709833999863,5,2.5848845080008687,5,0.3857352239992906,1,2.2008852560002197,,,058,001,2019_May_23_1524,MusicAffectPsychophysiology2019,3.0.5,60.0264059760311,
To what extent did the music make you feel ,TENDER,30MonoWAV/30MonoT2.wav,2,1,4,14,,,,,0,4,4,13,0,1,1,10,,,,,,,,,4,1.5685751299997719,,,058,001,2019_May_23_1524,MusicAffectPsychophysiology2019,3.0.5,60.0264059760311,
To what extent did the music make you feel ,FRUSTRATED,30MonoWAV/30MonoT2.wav,2,1,4,14,,,,,0,4,4,13,0,2,2,3,,,,,,,,,1,1.6348485899998195,,,058,001,2019_May_23_1524,MusicAffectPsychophysiology2019,3.0.5,60.0264059760311,
To what extent did the music make you feel ,SAD,30MonoWAV/30MonoT2.wav,2,1,4,14,,,,,0,4,4,13,0,3,3,0,,,,,,,,,1,0.8849792740002158,,,058,001,2019_May_23_1524,MusicAffectPsychophysiology2019,3.0.5,60.0264059760311,
To what extent did the music make you feel ,EXCITED,30MonoWAV/30MonoT2.wav,2,1,4,14,,,,,0,4,4,13,0,4,4,7,,,,,,,,,1,2.1343589910002265,,,058,001,2019_May_23_1524,MusicAffectPsychophysiology2019,3.0.5,60.0264059760311,
To what extent did the music make you feel ,ALERT,30MonoWAV/30MonoT2.wav,2,1,4,14,,,,,0,4,4,13,0,5,5,8,,,,,,,,,1,0.9522022880000804,,,058,001,2019_May_23_1524,MusicAffectPsychophysiology2019,3.0.5,60.0264059760311,
To what extent did the music make you feel ,ASHAMED,30MonoWAV/30MonoT2.wav,2,1,4,14,,,,,0,4,4,13,0,6,6,4,,,,,,,,,1,1.7668155969995496,,,058,001,2019_May_23_1524,MusicAffectPsychophysiology2019,3.0.5,60.0264059760311,
To what extent did the music make you feel ,HAPPY,30MonoWAV/30MonoT2.wav,2,1,4,14,,,,,0,4,4,13,0,7,7,6,,,,,,,,,2,1.4514711069996338,,,058,001,2019_May_23_1524,MusicAffectPsychophysiology2019,3.0.5,60.0264059760311,
To what extent did the music make you feel ,GUILTY,30MonoWAV/30MonoT2.wav,2,1,4,14,,,,,0,4,4,13,0,8,8,5,,,,,,,,,1,1.3353794160002508,,,058,001,2019_May_23_1524,MusicAffectPsychophysiology2019,3.0.5,60.0264059760311,
To what extent did the music make you feel ,ACTIVE,30MonoWAV/30MonoT2.wav,2,1,4,14,,,,,0,4,4,13,0,9,9,9,,,,,,,,,1,1.16836985000009,,,058,001,2019_May_23_1524,MusicAffectPsychophysiology2019,3.0.5,60.0264059760311,
To what extent did the music make you feel ,SCARED,30MonoWAV/30MonoT2.wav,2,1,4,14,,,,,0,4,4,13,0,10,10,11,,,,,,,,,1,0.8341768899999806,,,058,001,2019_May_23_1524,MusicAffectPsychophysiology2019,3.0.5,60.0264059760311,
To what extent did the music make you feel ,ANXIOUS ,30MonoWAV/30MonoT2.wav,2,1,4,14,,,,,0,4,4,13,0,11,11,1,,,,,,,,,1,1.4340655269998024,,,058,001,2019_May_23_1524,MusicAffectPsychophysiology2019,3.0.5,60.0264059760311,
,,30MonoWAV/30MonoT2.wav,2,1,4,14,,,,,0,4,4,13,,,,,,,,,,,,,,,,,058,001,2019_May_23_1524,MusicAffectPsychophysiology2019,3.0.5,60.0264059760311,
To what extent did the music make you feel ,TENDER,30MonoWAV/30MonoT3.wav,2,1,4,15,,,,,0,5,5,14,0,0,0,10,,,1,4.451379881999856,3,3.618254156000148,2,4.460662522000348,2,51.504281511000045,,,058,001,2019_May_23_1524,MusicAffectPsychophysiology2019,3.0.5,60.0264059760311,
To what extent did the music make you feel ,ALERT,30MonoWAV/30MonoT3.wav,2,1,4,15,,,,,0,5,5,14,0,1,1,8,,,,,,,,,1,1.9003608189996157,,,058,001,2019_May_23_1524,MusicAffectPsychophysiology2019,3.0.5,60.0264059760311,
To what extent did the music make you feel ,ASHAMED,30MonoWAV/30MonoT3.wav,2,1,4,15,,,,,0,5,5,14,0,2,2,4,,,,,,,,,1,2.051059236000583,,,058,001,2019_May_23_1524,MusicAffectPsychophysiology2019,3.0.5,60.0264059760311,
To what extent did the music make you feel ,ANXIOUS ,30MonoWAV/30MonoT3.wav,2,1,4,15,,,,,0,5,5,14,0,3,3,1,,,,,,,,,1,2.0514418450002267,,,058,001,2019_May_23_1524,MusicAffectPsychophysiology2019,3.0.5,60.0264059760311,
To what extent did the music make you feel ,SCARED,30MonoWAV/30MonoT3.wav,2,1,4,15,,,,,0,5,5,14,0,4,4,11,,,,,,,,,1,1.3844263860000865,,,058,001,2019_May_23_1524,MusicAffectPsychophysiology2019,3.0.5,60.0264059760311,
To what extent did the music make you feel ,ANGRY,30MonoWAV/30MonoT3.wav,2,1,4,15,,,,,0,5,5,14,0,5,5,2,,,,,,,,,1,0.8352671929997086,,,058,001,2019_May_23_1524,MusicAffectPsychophysiology2019,3.0.5,60.0264059760311,
To what extent did the music make you feel ,ACTIVE,30MonoWAV/30MonoT3.wav,2,1,4,15,,,,,0,5,5,14,0,6,6,9,,,,,,,,,1,1.2683425710001757,,,058,001,2019_May_23_1524,MusicAffectPsychophysiology2019,3.0.5,60.0264059760311,
To what extent did the music make you feel ,EXCITED,30MonoWAV/30MonoT3.wav,2,1,4,15,,,,,0,5,5,14,0,7,7,7,,,,,,,,,1,0.7685338210003465,,,058,001,2019_May_23_1524,MusicAffectPsychophysiology2019,3.0.5,60.0264059760311,
To what extent did the music make you feel ,SAD,30MonoWAV/30MonoT3.wav,2,1,4,15,,,,,0,5,5,14,0,8,8,0,,,,,,,,,1,0.36768649900022865,,,058,001,2019_May_23_1524,MusicAffectPsychophysiology2019,3.0.5,60.0264059760311,
To what extent did the music make you feel ,FRUSTRATED,30MonoWAV/30MonoT3.wav,2,1,4,15,,,,,0,5,5,14,0,9,9,3,,,,,,,,,1,0.41830247399957443,,,058,001,2019_May_23_1524,MusicAffectPsychophysiology2019,3.0.5,60.0264059760311,
To what extent did the music make you feel ,GUILTY,30MonoWAV/30MonoT3.wav,2,1,4,15,,,,,0,5,5,14,0,10,10,5,,,,,,,,,1,0.8016905160002352,,,058,001,2019_May_23_1524,MusicAffectPsychophysiology2019,3.0.5,60.0264059760311,
To what extent did the music make you feel ,HAPPY,30MonoWAV/30MonoT3.wav,2,1,4,15,,,,,0,5,5,14,0,11,11,6,,,,,,,,,1,0.3849032879998049,,,058,001,2019_May_23_1524,MusicAffectPsychophysiology2019,3.0.5,60.0264059760311,
,,30MonoWAV/30MonoT3.wav,2,1,4,15,,,,,0,5,5,14,,,,,,,,,,,,,,,,,058,001,2019_May_23_1524,MusicAffectPsychophysiology2019,3.0.5,60.0264059760311,
To what extent did the music make you feel ,ALERT,30MonoWAV/30MonoH1.wav,2,2,1,5,,,,,0,6,6,4,0,0,0,8,,,5,3.2180712700001095,4,4.417958180999449,4,1.7723125990005428,5,2.420880871999543,,,058,001,2019_May_23_1524,MusicAffectPsychophysiology2019,3.0.5,60.0264059760311,
To what extent did the music make you feel ,FRUSTRATED,30MonoWAV/30MonoH1.wav,2,2,1,5,,,,,0,6,6,4,0,1,1,3,,,,,,,,,1,0.7528914310005348,,,058,001,2019_May_23_1524,MusicAffectPsychophysiology2019,3.0.5,60.0264059760311,
To what extent did the music make you feel ,SCARED,30MonoWAV/30MonoH1.wav,2,2,1,5,,,,,0,6,6,4,0,2,2,11,,,,,,,,,1,1.0023905299995022,,,058,001,2019_May_23_1524,MusicAffectPsychophysiology2019,3.0.5,60.0264059760311,
To what extent did the music make you feel ,ANGRY,30MonoWAV/30MonoH1.wav,2,2,1,5,,,,,0,6,6,4,0,3,3,2,,,,,,,,,1,0.8195470929995281,,,058,001,2019_May_23_1524,MusicAffectPsychophysiology2019,3.0.5,60.0264059760311,
To what extent did the music make you feel ,EXCITED,30MonoWAV/30MonoH1.wav,2,2,1,5,,,,,0,6,6,4,0,4,4,7,,,,,,,,,2,1.3035413030002019,,,058,001,2019_May_23_1524,MusicAffectPsychophysiology2019,3.0.5,60.0264059760311,
To what extent did the music make you feel ,ASHAMED,30MonoWAV/30MonoH1.wav,2,2,1,5,,,,,0,6,6,4,0,5,5,4,,,,,,,,,1,0.9560294860002614,,,058,001,2019_May_23_1524,MusicAffectPsychophysiology2019,3.0.5,60.0264059760311,
To what extent did the music make you feel ,ACTIVE,30MonoWAV/30MonoH1.wav,2,2,1,5,,,,,0,6,6,4,0,6,6,9,,,,,,,,,5,1.2505705660005333,,,058,001,2019_May_23_1524,MusicAffectPsychophysiology2019,3.0.5,60.0264059760311,
To what extent did the music make you feel ,SAD,30MonoWAV/30MonoH1.wav,2,2,1,5,,,,,0,6,6,4,0,7,7,0,,,,,,,,,1,3.918646617000377,,,058,001,2019_May_23_1524,MusicAffectPsychophysiology2019,3.0.5,60.0264059760311,
To what extent did the music make you feel ,HAPPY,30MonoWAV/30MonoH1.wav,2,2,1,5,,,,,0,6,6,4,0,8,8,6,,,,,,,,,3,1.3021807170007378,,,058,001,2019_May_23_1524,MusicAffectPsychophysiology2019,3.0.5,60.0264059760311,
To what extent did the music make you feel ,TENDER,30MonoWAV/30MonoH1.wav,2,2,1,5,,,,,0,6,6,4,0,9,9,10,,,,,,,,,2,1.9344919000004666,,,058,001,2019_May_23_1524,MusicAffectPsychophysiology2019,3.0.5,60.0264059760311,
To what extent did the music make you feel ,ANXIOUS ,30MonoWAV/30MonoH1.wav,2,2,1,5,,,,,0,6,6,4,0,10,10,1,,,,,,,,,1,2.6005519559994354,,,058,001,2019_May_23_1524,MusicAffectPsychophysiology2019,3.0.5,60.0264059760311,
To what extent did the music make you feel ,GUILTY,30MonoWAV/30MonoH1.wav,2,2,1,5,,,,,0,6,6,4,0,11,11,5,,,,,,,,,1,1.2678735380004582,,,058,001,2019_May_23_1524,MusicAffectPsychophysiology2019,3.0.5,60.0264059760311,
,,30MonoWAV/30MonoH1.wav,2,2,1,5,,,,,0,6,6,4,,,,,,,,,,,,,,,,,058,001,2019_May_23_1524,MusicAffectPsychophysiology2019,3.0.5,60.0264059760311,
To what extent did the music make you feel ,ANGRY,30MonoWAV/30MonoH4.wav,2,2,1,8,,,,,0,7,7,7,0,0,0,2,,,3,2.5185203640003238,2,2.2181892620001236,2,3.0515897920004136,1,3.3495725419998053,,,058,001,2019_May_23_1524,MusicAffectPsychophysiology2019,3.0.5,60.0264059760311,
To what extent did the music make you feel ,ANXIOUS ,30MonoWAV/30MonoH4.wav,2,2,1,8,,,,,0,7,7,7,0,1,1,1,,,,,,,,,2,2.1511460499996247,,,058,001,2019_May_23_1524,MusicAffectPsychophysiology2019,3.0.5,60.0264059760311,
To what extent did the music make you feel ,SCARED,30MonoWAV/30MonoH4.wav,2,2,1,8,,,,,0,7,7,7,0,2,2,11,,,,,,,,,1,1.0509015210000143,,,058,001,2019_May_23_1524,MusicAffectPsychophysiology2019,3.0.5,60.0264059760311,
To what extent did the music make you feel ,SAD,30MonoWAV/30MonoH4.wav,2,2,1,8,,,,,0,7,7,7,0,3,3,0,,,,,,,,,1,1.8691161349997856,,,058,001,2019_May_23_1524,MusicAffectPsychophysiology2019,3.0.5,60.0264059760311,
To what extent did the music make you feel ,FRUSTRATED,30MonoWAV/30MonoH4.wav,2,2,1,8,,,,,0,7,7,7,0,4,4,3,,,,,,,,,3,1.002386074000242,,,058,001,2019_May_23_1524,MusicAffectPsychophysiology2019,3.0.5,60.0264059760311,
To what extent did the music make you feel ,ASHAMED,30MonoWAV/30MonoH4.wav,2,2,1,8,,,,,0,7,7,7,0,5,5,4,,,,,,,,,1,1.1348169570001119,,,058,001,2019_May_23_1524,MusicAffectPsychophysiology2019,3.0.5,60.0264059760311,
To what extent did the music make you feel ,ALERT,30MonoWAV/30MonoH4.wav,2,2,1,8,,,,,0,7,7,7,0,6,6,8,,,,,,,,,1,1.3502267650001158,,,058,001,2019_May_23_1524,MusicAffectPsychophysiology2019,3.0.5,60.0264059760311,
To what extent did the music make you feel ,HAPPY,30MonoWAV/30MonoH4.wav,2,2,1,8,,,,,0,7,7,7,0,7,7,6,,,,,,,,,1,0.8685271240001384,,,058,001,2019_May_23_1524,MusicAffectPsychophysiology2019,3.0.5,60.0264059760311,
To what extent did the music make you feel ,ACTIVE,30MonoWAV/30MonoH4.wav,2,2,1,8,,,,,0,7,7,7,0,8,8,9,,,,,,,,,4,2.5851318210006866,,,058,001,2019_May_23_1524,MusicAffectPsychophysiology2019,3.0.5,60.0264059760311,
To what extent did the music make you feel ,TENDER,30MonoWAV/30MonoH4.wav,2,2,1,8,,,,,0,7,7,7,0,9,9,10,,,,,,,,,1,1.3174543710001672,,,058,001,2019_May_23_1524,MusicAffectPsychophysiology2019,3.0.5,60.0264059760311,
To what extent did the music make you feel ,EXCITED,30MonoWAV/30MonoH4.wav,2,2,1,8,,,,,0,7,7,7,0,10,10,7,,,,,,,,,1,1.7829267799997979,,,058,001,2019_May_23_1524,MusicAffectPsychophysiology2019,3.0.5,60.0264059760311,
To what extent did the music make you feel ,GUILTY,30MonoWAV/30MonoH4.wav,2,2,1,8,,,,,0,7,7,7,0,11,11,5,,,,,,,,,1,1.1344376629995168,,,058,001,2019_May_23_1524,MusicAffectPsychophysiology2019,3.0.5,60.0264059760311,
,,30MonoWAV/30MonoH4.wav,2,2,1,8,,,,,0,7,7,7,,,,,,,,,,,,,,,,,058,001,2019_May_23_1524,MusicAffectPsychophysiology2019,3.0.5,60.0264059760311,
To what extent did the music make you feel ,ANXIOUS ,30MonoWAV/30MonoS2.wav,1,1,3,10,,,,,0,8,8,9,0,0,0,1,,,1,2.337654003999887,3,3.0043616539996947,4,2.589009717999943,1,4.134567306000463,,,058,001,2019_May_23_1524,MusicAffectPsychophysiology2019,3.0.5,60.0264059760311,
To what extent did the music make you feel ,HAPPY,30MonoWAV/30MonoS2.wav,1,1,3,10,,,,,0,8,8,9,0,1,1,6,,,,,,,,,2,2.96866675199999,,,058,001,2019_May_23_1524,MusicAffectPsychophysiology2019,3.0.5,60.0264059760311,
To what extent did the music make you feel ,EXCITED,30MonoWAV/30MonoS2.wav,1,1,3,10,,,,,0,8,8,9,0,2,2,7,,,,,,,,,1,1.3348213559993383,,,058,001,2019_May_23_1524,MusicAffectPsychophysiology2019,3.0.5,60.0264059760311,
To what extent did the music make you feel ,ANGRY,30MonoWAV/30MonoS2.wav,1,1,3,10,,,,,0,8,8,9,0,3,3,2,,,,,,,,,1,1.1356315209995955,,,058,001,2019_May_23_1524,MusicAffectPsychophysiology2019,3.0.5,60.0264059760311,
To what extent did the music make you feel ,ALERT,30MonoWAV/30MonoS2.wav,1,1,3,10,,,,,0,8,8,9,0,4,4,8,,,,,,,,,1,1.0183419839995622,,,058,001,2019_May_23_1524,MusicAffectPsychophysiology2019,3.0.5,60.0264059760311,
To what extent did the music make you feel ,SCARED,30MonoWAV/30MonoS2.wav,1,1,3,10,,,,,0,8,8,9,0,5,5,11,,,,,,,,,1,1.984513008000249,,,058,001,2019_May_23_1524,MusicAffectPsychophysiology2019,3.0.5,60.0264059760311,
To what extent did the music make you feel ,ACTIVE,30MonoWAV/30MonoS2.wav,1,1,3,10,,,,,0,8,8,9,0,6,6,9,,,,,,,,,1,0.7187503770001058,,,058,001,2019_May_23_1524,MusicAffectPsychophysiology2019,3.0.5,60.0264059760311,
To what extent did the music make you feel ,ASHAMED,30MonoWAV/30MonoS2.wav,1,1,3,10,,,,,0,8,8,9,0,7,7,4,,,,,,,,,1,1.0347873230002733,,,058,001,2019_May_23_1524,MusicAffectPsychophysiology2019,3.0.5,60.0264059760311,
To what extent did the music make you feel ,TENDER,30MonoWAV/30MonoS2.wav,1,1,3,10,,,,,0,8,8,9,0,8,8,10,,,,,,,,,5,2.3184428780004964,,,058,001,2019_May_23_1524,MusicAffectPsychophysiology2019,3.0.5,60.0264059760311,
To what extent did the music make you feel ,FRUSTRATED,30MonoWAV/30MonoS2.wav,1,1,3,10,,,,,0,8,8,9,0,9,9,3,,,,,,,,,1,3.818010356999366,,,058,001,2019_May_23_1524,MusicAffectPsychophysiology2019,3.0.5,60.0264059760311,
To what extent did the music make you feel ,SAD,30MonoWAV/30MonoS2.wav,1,1,3,10,,,,,0,8,8,9,0,10,10,0,,,,,,,,,2,1.5352684899999076,,,058,001,2019_May_23_1524,MusicAffectPsychophysiology2019,3.0.5,60.0264059760311,
To what extent did the music make you feel ,GUILTY,30MonoWAV/30MonoS2.wav,1,1,3,10,,,,,0,8,8,9,0,11,11,5,,,,,,,,,1,3.1841016959997432,,,058,001,2019_May_23_1524,MusicAffectPsychophysiology2019,3.0.5,60.0264059760311,
,,30MonoWAV/30MonoS2.wav,1,1,3,10,,,,,0,8,8,9,,,,,,,,,,,,,,,,,058,001,2019_May_23_1524,MusicAffectPsychophysiology2019,3.0.5,60.0264059760311,
To what extent did the music make you feel ,ANGRY,30MonoWAV/30MonoT1.wav,2,1,4,13,,,,,0,9,9,12,0,0,0,2,,,1,3.168317202000253,1,1.3022969610001383,4,4.584723025999665,1,2.634364004999952,,,058,001,2019_May_23_1524,MusicAffectPsychophysiology2019,3.0.5,60.0264059760311,
To what extent did the music make you feel ,GUILTY,30MonoWAV/30MonoT1.wav,2,1,4,13,,,,,0,9,9,12,0,1,1,5,,,,,,,,,1,0.7185971649996645,,,058,001,2019_May_23_1524,MusicAffectPsychophysiology2019,3.0.5,60.0264059760311,
To what extent did the music make you feel ,SCARED,30MonoWAV/30MonoT1.wav,2,1,4,13,,,,,0,9,9,12,0,2,2,11,,,,,,,,,1,6.018156995000027,,,058,001,2019_May_23_1524,MusicAffectPsychophysiology2019,3.0.5,60.0264059760311,
To what extent did the music make you feel ,ACTIVE,30MonoWAV/30MonoT1.wav,2,1,4,13,,,,,0,9,9,12,0,3,3,9,,,,,,,,,1,1.2505354250006349,,,058,001,2019_May_23_1524,MusicAffectPsychophysiology2019,3.0.5,60.0264059760311,
To what extent did the music make you feel ,ALERT,30MonoWAV/30MonoT1.wav,2,1,4,13,,,,,0,9,9,12,0,4,4,8,,,,,,,,,1,1.5348566889997528,,,058,001,2019_May_23_1524,MusicAffectPsychophysiology2019,3.0.5,60.0264059760311,
To what extent did the music make you feel ,EXCITED,30MonoWAV/30MonoT1.wav,2,1,4,13,,,,,0,9,9,12,0,5,5,7,,,,,,,,,1,3.734357866999744,,,058,001,2019_May_23_1524,MusicAffectPsychophysiology2019,3.0.5,60.0264059760311,
To what extent did the music make you feel ,ANXIOUS ,30MonoWAV/30MonoT1.wav,2,1,4,13,,,,,0,9,9,12,0,6,6,1,,,,,,,,,1,1.651921296999717,,,058,001,2019_May_23_1524,MusicAffectPsychophysiology2019,3.0.5,60.0264059760311,
To what extent did the music make you feel ,SAD,30MonoWAV/30MonoT1.wav,2,1,4,13,,,,,0,9,9,12,0,7,7,0,,,,,,,,,3,2.3509044000002177,,,058,001,2019_May_23_1524,MusicAffectPsychophysiology2019,3.0.5,60.0264059760311,
To what extent did the music make you feel ,FRUSTRATED,30MonoWAV/30MonoT1.wav,2,1,4,13,,,,,0,9,9,12,0,8,8,3,,,,,,,,,1,1.2692059579994748,,,058,001,2019_May_23_1524,MusicAffectPsychophysiology2019,3.0.5,60.0264059760311,
To what extent did the music make you feel ,HAPPY,30MonoWAV/30MonoT1.wav,2,1,4,13,,,,,0,9,9,12,0,9,9,6,,,,,,,,,2,3.216793332000634,,,058,001,2019_May_23_1524,MusicAffectPsychophysiology2019,3.0.5,60.0264059760311,
To what extent did the music make you feel ,TENDER,30MonoWAV/30MonoT1.wav,2,1,4,13,,,,,0,9,9,12,0,10,10,10,,,,,,,,,4,1.385208921999947,,,058,001,2019_May_23_1524,MusicAffectPsychophysiology2019,3.0.5,60.0264059760311,
To what extent did the music make you feel ,ASHAMED,30MonoWAV/30MonoT1.wav,2,1,4,13,,,,,0,9,9,12,0,11,11,4,,,,,,,,,2,2.2184367039999415,,,058,001,2019_May_23_1524,MusicAffectPsychophysiology2019,3.0.5,60.0264059760311,
,,30MonoWAV/30MonoT1.wav,2,1,4,13,,,,,0,9,9,12,,,,,,,,,,,,,,,,,058,001,2019_May_23_1524,MusicAffectPsychophysiology2019,3.0.5,60.0264059760311,
To what extent did the music make you feel ,ANXIOUS ,30MonoWAV/30MonoT4.wav,2,1,4,16,,,,,0,10,10,15,0,0,0,1,,,2,3.684847917999832,2,2.701064142999712,1,1.1350040130000707,1,28.214801459999762,,,058,001,2019_May_23_1524,MusicAffectPsychophysiology2019,3.0.5,60.0264059760311,
To what extent did the music make you feel ,FRUSTRATED,30MonoWAV/30MonoT4.wav,2,1,4,16,,,,,0,10,10,15,0,1,1,3,,,,,,,,,1,1.0521475440000359,,,058,001,2019_May_23_1524,MusicAffectPsychophysiology2019,3.0.5,60.0264059760311,
To what extent did the music make you feel ,ANGRY,30MonoWAV/30MonoT4.wav,2,1,4,16,,,,,0,10,10,15,0,2,2,2,,,,,,,,,1,1.5177905410000676,,,058,001,2019_May_23_1524,MusicAffectPsychophysiology2019,3.0.5,60.0264059760311,
To what extent did the music make you feel ,HAPPY,30MonoWAV/30MonoT4.wav,2,1,4,16,,,,,0,10,10,15,0,3,3,6,,,,,,,,,1,1.3349114190004912,,,058,001,2019_May_23_1524,MusicAffectPsychophysiology2019,3.0.5,60.0264059760311,
To what extent did the music make you feel ,GUILTY,30MonoWAV/30MonoT4.wav,2,1,4,16,,,,,0,10,10,15,0,4,4,5,,,,,,,,,3,2.3691656480004895,,,058,001,2019_May_23_1524,MusicAffectPsychophysiology2019,3.0.5,60.0264059760311,
To what extent did the music make you feel ,TENDER,30MonoWAV/30MonoT4.wav,2,1,4,16,,,,,0,10,10,15,0,5,5,10,,,,,,,,,4,1.2182601459999205,,,058,001,2019_May_23_1524,MusicAffectPsychophysiology2019,3.0.5,60.0264059760311,
To what extent did the music make you feel ,ACTIVE,30MonoWAV/30MonoT4.wav,2,1,4,16,,,,,0,10,10,15,0,6,6,9,,,,,,,,,1,6.28348282999923,,,058,001,2019_May_23_1524,MusicAffectPsychophysiology2019,3.0.5,60.0264059760311,
To what extent did the music make you feel ,SAD,30MonoWAV/30MonoT4.wav,2,1,4,16,,,,,0,10,10,15,0,7,7,0,,,,,,,,,2,1.0848670559998936,,,058,001,2019_May_23_1524,MusicAffectPsychophysiology2019,3.0.5,60.0264059760311,
To what extent did the music make you feel ,ALERT,30MonoWAV/30MonoT4.wav,2,1,4,16,,,,,0,10,10,15,0,8,8,8,,,,,,,,,1,1.6999852710005143,,,058,001,2019_May_23_1524,MusicAffectPsychophysiology2019,3.0.5,60.0264059760311,
To what extent did the music make you feel ,SCARED,30MonoWAV/30MonoT4.wav,2,1,4,16,,,,,0,10,10,15,0,9,9,11,,,,,,,,,1,1.1362539460005792,,,058,001,2019_May_23_1524,MusicAffectPsychophysiology2019,3.0.5,60.0264059760311,
To what extent did the music make you feel ,EXCITED,30MonoWAV/30MonoT4.wav,2,1,4,16,,,,,0,10,10,15,0,10,10,7,,,,,,,,,1,0.852286653000192,,,058,001,2019_May_23_1524,MusicAffectPsychophysiology2019,3.0.5,60.0264059760311,
To what extent did the music make you feel ,ASHAMED,30MonoWAV/30MonoT4.wav,2,1,4,16,,,,,0,10,10,15,0,11,11,4,,,,,,,,,1,0.5357918179997796,,,058,001,2019_May_23_1524,MusicAffectPsychophysiology2019,3.0.5,60.0264059760311,
,,30MonoWAV/30MonoT4.wav,2,1,4,16,,,,,0,10,10,15,,,,,,,,,,,,,,,,,058,001,2019_May_23_1524,MusicAffectPsychophysiology2019,3.0.5,60.0264059760311,
To what extent did the music make you feel ,EXCITED,30MonoWAV/30MonoH2.wav,2,2,1,6,,,,,0,11,11,5,0,0,0,7,,,5,2.7826914119996218,4,1.3346380560005855,5,0.5850304750001669,4,1.5012106880003557,,,058,001,2019_May_23_1524,MusicAffectPsychophysiology2019,3.0.5,60.0264059760311,
To what extent did the music make you feel ,SCARED,30MonoWAV/30MonoH2.wav,2,2,1,6,,,,,0,11,11,5,0,1,1,11,,,,,,,,,1,0.8669370999996318,,,058,001,2019_May_23_1524,MusicAffectPsychophysiology2019,3.0.5,60.0264059760311,
To what extent did the music make you feel ,FRUSTRATED,30MonoWAV/30MonoH2.wav,2,2,1,6,,,,,0,11,11,5,0,2,2,3,,,,,,,,,1,0.568710106999788,,,058,001,2019_May_23_1524,MusicAffectPsychophysiology2019,3.0.5,60.0264059760311,
To what extent did the music make you feel ,GUILTY,30MonoWAV/30MonoH2.wav,2,2,1,6,,,,,0,11,11,5,0,3,3,5,,,,,,,,,1,0.5855796100004227,,,058,001,2019_May_23_1524,MusicAffectPsychophysiology2019,3.0.5,60.0264059760311,
To what extent did the music make you feel ,ANGRY,30MonoWAV/30MonoH2.wav,2,2,1,6,,,,,0,11,11,5,0,4,4,2,,,,,,,,,1,0.5677070300007472,,,058,001,2019_May_23_1524,MusicAffectPsychophysiology2019,3.0.5,60.0264059760311,
To what extent did the music make you feel ,TENDER,30MonoWAV/30MonoH2.wav,2,2,1,6,,,,,0,11,11,5,0,5,5,10,,,,,,,,,1,1.3192964259997098,,,058,001,2019_May_23_1524,MusicAffectPsychophysiology2019,3.0.5,60.0264059760311,
To what extent did the music make you feel ,HAPPY,30MonoWAV/30MonoH2.wav,2,2,1,6,,,,,0,11,11,5,0,6,6,6,,,,,,,,,4,0.9497369139999137,,,058,001,2019_May_23_1524,MusicAffectPsychophysiology2019,3.0.5,60.0264059760311,
To what extent did the music make you feel ,SAD,30MonoWAV/30MonoH2.wav,2,2,1,6,,,,,0,11,11,5,0,7,7,0,,,,,,,,,1,4.7177017910007635,,,058,001,2019_May_23_1524,MusicAffectPsychophysiology2019,3.0.5,60.0264059760311,
To what extent did the music make you feel ,ALERT,30MonoWAV/30MonoH2.wav,2,2,1,6,,,,,0,11,11,5,0,8,8,8,,,,,,,,,3,2.2823231980000855,,,058,001,2019_May_23_1524,MusicAffectPsychophysiology2019,3.0.5,60.0264059760311,
To what extent did the music make you feel ,ASHAMED,30MonoWAV/30MonoH2.wav,2,2,1,6,,,,,0,11,11,5,0,9,9,4,,,,,,,,,1,1.1181589240004541,,,058,001,2019_May_23_1524,MusicAffectPsychophysiology2019,3.0.5,60.0264059760311,
To what extent did the music make you feel ,ACTIVE,30MonoWAV/30MonoH2.wav,2,2,1,6,,,,,0,11,11,5,0,10,10,9,,,,,,,,,5,4.200480253000023,,,058,001,2019_May_23_1524,MusicAffectPsychophysiology2019,3.0.5,60.0264059760311,
To what extent did the music make you feel ,ANXIOUS ,30MonoWAV/30MonoH2.wav,2,2,1,6,,,,,0,11,11,5,0,11,11,1,,,,,,,,,4,0.849826158999349,,,058,001,2019_May_23_1524,MusicAffectPsychophysiology2019,3.0.5,60.0264059760311,
,,30MonoWAV/30MonoH2.wav,2,2,1,6,,,,,0,11,11,5,,,,,,,,,,,,,,,,,058,001,2019_May_23_1524,MusicAffectPsychophysiology2019,3.0.5,60.0264059760311,
To what extent did the music make you feel ,SCARED,30MonoWAV/30MonoS4.wav,1,1,3,12,,,,,0,12,12,11,0,0,0,11,,,1,11.1092586270006,1,1.467775416999757,1,1.0180657310002061,3,6.28302452600019,,,058,001,2019_May_23_1524,MusicAffectPsychophysiology2019,3.0.5,60.0264059760311,
To what extent did the music make you feel ,SAD,30MonoWAV/30MonoS4.wav,1,1,3,12,,,,,0,12,12,11,0,1,1,0,,,,,,,,,5,4.818000373999894,,,058,001,2019_May_23_1524,MusicAffectPsychophysiology2019,3.0.5,60.0264059760311,
To what extent did the music make you feel ,HAPPY,30MonoWAV/30MonoS4.wav,1,1,3,12,,,,,0,12,12,11,0,2,2,6,,,,,,,,,1,0.9017310039998847,,,058,001,2019_May_23_1524,MusicAffectPsychophysiology2019,3.0.5,60.0264059760311,
To what extent did the music make you feel ,EXCITED,30MonoWAV/30MonoS4.wav,1,1,3,12,,,,,0,12,12,11,0,3,3,7,,,,,,,,,1,1.2185124790003101,,,058,001,2019_May_23_1524,MusicAffectPsychophysiology2019,3.0.5,60.0264059760311,
To what extent did the music make you feel ,GUILTY,30MonoWAV/30MonoS4.wav,1,1,3,12,,,,,0,12,12,11,0,4,4,5,,,,,,,,,1,1.1179146049998963,,,058,001,2019_May_23_1524,MusicAffectPsychophysiology2019,3.0.5,60.0264059760311,
To what extent did the music make you feel ,ALERT,30MonoWAV/30MonoS4.wav,1,1,3,12,,,,,0,12,12,11,0,5,5,8,,,,,,,,,1,0.6850836450003044,,,058,001,2019_May_23_1524,MusicAffectPsychophysiology2019,3.0.5,60.0264059760311,
To what extent did the music make you feel ,ACTIVE,30MonoWAV/30MonoS4.wav,1,1,3,12,,,,,0,12,12,11,0,6,6,9,,,,,,,,,1,0.7352479990004213,,,058,001,2019_May_23_1524,MusicAffectPsychophysiology2019,3.0.5,60.0264059760311,
To what extent did the music make you feel ,FRUSTRATED,30MonoWAV/30MonoS4.wav,1,1,3,12,,,,,0,12,12,11,0,7,7,3,,,,,,,,,1,0.6015795510002135,,,058,001,2019_May_23_1524,MusicAffectPsychophysiology2019,3.0.5,60.0264059760311,
To what extent did the music make you feel ,ANGRY,30MonoWAV/30MonoS4.wav,1,1,3,12,,,,,0,12,12,11,0,8,8,2,,,,,,,,,1,8.483550746999754,,,058,001,2019_May_23_1524,MusicAffectPsychophysiology2019,3.0.5,60.0264059760311,
To what extent did the music make you feel ,ASHAMED,30MonoWAV/30MonoS4.wav,1,1,3,12,,,,,0,12,12,11,0,9,9,4,,,,,,,,,2,1.884642630999224,,,058,001,2019_May_23_1524,MusicAffectPsychophysiology2019,3.0.5,60.0264059760311,
To what extent did the music make you feel ,ANXIOUS ,30MonoWAV/30MonoS4.wav,1,1,3,12,,,,,0,12,12,11,0,10,10,1,,,,,,,,,1,0.7683309120002377,,,058,001,2019_May_23_1524,MusicAffectPsychophysiology2019,3.0.5,60.0264059760311,
To what extent did the music make you feel ,TENDER,30MonoWAV/30MonoS4.wav,1,1,3,12,,,,,0,12,12,11,0,11,11,10,,,,,,,,,4,1.1518873940003687,,,058,001,2019_May_23_1524,MusicAffectPsychophysiology2019,3.0.5,60.0264059760311,
,,30MonoWAV/30MonoS4.wav,1,1,3,12,,,,,0,12,12,11,,,,,,,,,,,,,,,,,058,001,2019_May_23_1524,MusicAffectPsychophysiology2019,3.0.5,60.0264059760311,
To what extent did the music make you feel ,SAD,30MonoWAV/30MonoS3.wav,1,1,3,11,,,,,0,13,13,10,0,0,0,0,,,1,2.3516699020001397,1,1.5191692809994493,3,0.9348783189998358,2,3.3519676389996675,,,058,001,2019_May_23_1524,MusicAffectPsychophysiology2019,3.0.5,60.0264059760311,
To what extent did the music make you feel ,SCARED,30MonoWAV/30MonoS3.wav,1,1,3,11,,,,,0,13,13,10,0,1,1,11,,,,,,,,,3,2.0840157369993904,,,058,001,2019_May_23_1524,MusicAffectPsychophysiology2019,3.0.5,60.0264059760311,
To what extent did the music make you feel ,EXCITED,30MonoWAV/30MonoS3.wav,1,1,3,11,,,,,0,13,13,10,0,2,2,7,,,,,,,,,1,2.817974696999954,,,058,001,2019_May_23_1524,MusicAffectPsychophysiology2019,3.0.5,60.0264059760311,
To what extent did the music make you feel ,TENDER,30MonoWAV/30MonoS3.wav,1,1,3,11,,,,,0,13,13,10,0,3,3,10,,,,,,,,,2,2.834399611000663,,,058,001,2019_May_23_1524,MusicAffectPsychophysiology2019,3.0.5,60.0264059760311,
To what extent did the music make you feel ,GUILTY,30MonoWAV/30MonoS3.wav,1,1,3,11,,,,,0,13,13,10,0,4,4,5,,,,,,,,,4,3.102619494999999,,,058,001,2019_May_23_1524,MusicAffectPsychophysiology2019,3.0.5,60.0264059760311,
To what extent did the music make you feel ,ANGRY,30MonoWAV/30MonoS3.wav,1,1,3,11,,,,,0,13,13,10,0,5,5,2,,,,,,,,,1,2.400849465000647,,,058,001,2019_May_23_1524,MusicAffectPsychophysiology2019,3.0.5,60.0264059760311,
To what extent did the music make you feel ,ACTIVE,30MonoWAV/30MonoS3.wav,1,1,3,11,,,,,0,13,13,10,0,6,6,9,,,,,,,,,1,31.13146086100005,,,058,001,2019_May_23_1524,MusicAffectPsychophysiology2019,3.0.5,60.0264059760311,
To what extent did the music make you feel ,ALERT,30MonoWAV/30MonoS3.wav,1,1,3,11,,,,,0,13,13,10,0,7,7,8,,,,,,,,,1,1.8023606040005689,,,058,001,2019_May_23_1524,MusicAffectPsychophysiology2019,3.0.5,60.0264059760311,
To what extent did the music make you feel ,ASHAMED,30MonoWAV/30MonoS3.wav,1,1,3,11,,,,,0,13,13,10,0,8,8,4,,,,,,,,,2,14.29882085600002,,,058,001,2019_May_23_1524,MusicAffectPsychophysiology2019,3.0.5,60.0264059760311,
To what extent did the music make you feel ,HAPPY,30MonoWAV/30MonoS3.wav,1,1,3,11,,,,,0,13,13,10,0,9,9,6,,,,,,,,,1,1.1344580590002806,,,058,001,2019_May_23_1524,MusicAffectPsychophysiology2019,3.0.5,60.0264059760311,
To what extent did the music make you feel ,ANXIOUS ,30MonoWAV/30MonoS3.wav,1,1,3,11,,,,,0,13,13,10,0,10,10,1,,,,,,,,,1,0.568625036999947,,,058,001,2019_May_23_1524,MusicAffectPsychophysiology2019,3.0.5,60.0264059760311,
To what extent did the music make you feel ,FRUSTRATED,30MonoWAV/30MonoS3.wav,1,1,3,11,,,,,0,13,13,10,0,11,11,3,,,,,,,,,1,0.551735588000156,,,058,001,2019_May_23_1524,MusicAffectPsychophysiology2019,3.0.5,60.0264059760311,
,,30MonoWAV/30MonoS3.wav,1,1,3,11,,,,,0,13,13,10,,,,,,,,,,,,,,,,,058,001,2019_May_23_1524,MusicAffectPsychophysiology2019,3.0.5,60.0264059760311,
To what extent did the music make you feel ,GUILTY,30MonoWAV/30MonoF3.wav,1,2,2,3,,,,,0,14,14,2,0,0,0,5,,,3,4.133010073999685,1,3.001470221999625,2,1.1519322249996549,1,3.968983101000049,,,058,001,2019_May_23_1524,MusicAffectPsychophysiology2019,3.0.5,60.0264059760311,
To what extent did the music make you feel ,ANXIOUS ,30MonoWAV/30MonoF3.wav,1,2,2,3,,,,,0,14,14,2,0,1,1,1,,,,,,,,,3,3.7847917859999143,,,058,001,2019_May_23_1524,MusicAffectPsychophysiology2019,3.0.5,60.0264059760311,
To what extent did the music make you feel ,ACTIVE,30MonoWAV/30MonoF3.wav,1,2,2,3,,,,,0,14,14,2,0,2,2,9,,,,,,,,,3,1.168560145999436,,,058,001,2019_May_23_1524,MusicAffectPsychophysiology2019,3.0.5,60.0264059760311,
To what extent did the music make you feel ,ANGRY,30MonoWAV/30MonoF3.wav,1,2,2,3,,,,,0,14,14,2,0,3,3,2,,,,,,,,,1,2.1017963229996894,,,058,001,2019_May_23_1524,MusicAffectPsychophysiology2019,3.0.5,60.0264059760311,
To what extent did the music make you feel ,HAPPY,30MonoWAV/30MonoF3.wav,1,2,2,3,,,,,0,14,14,2,0,4,4,6,,,,,,,,,1,1.4182130339995638,,,058,001,2019_May_23_1524,MusicAffectPsychophysiology2019,3.0.5,60.0264059760311,
To what extent did the music make you feel ,EXCITED,30MonoWAV/30MonoF3.wav,1,2,2,3,,,,,0,14,14,2,0,5,5,7,,,,,,,,,1,0.8504593249999743,,,058,001,2019_May_23_1524,MusicAffectPsychophysiology2019,3.0.5,60.0264059760311,
To what extent did the music make you feel ,ASHAMED,30MonoWAV/30MonoF3.wav,1,2,2,3,,,,,0,14,14,2,0,6,6,4,,,,,,,,,2,0.9693223530002797,,,058,001,2019_May_23_1524,MusicAffectPsychophysiology2019,3.0.5,60.0264059760311,
To what extent did the music make you feel ,SAD,30MonoWAV/30MonoF3.wav,1,2,2,3,,,,,0,14,14,2,0,7,7,0,,,,,,,,,3,1.002213576000031,,,058,001,2019_May_23_1524,MusicAffectPsychophysiology2019,3.0.5,60.0264059760311,
To what extent did the music make you feel ,SCARED,30MonoWAV/30MonoF3.wav,1,2,2,3,,,,,0,14,14,2,0,8,8,11,,,,,,,,,4,0.9012439340003766,,,058,001,2019_May_23_1524,MusicAffectPsychophysiology2019,3.0.5,60.0264059760311,
To what extent did the music make you feel ,FRUSTRATED,30MonoWAV/30MonoF3.wav,1,2,2,3,,,,,0,14,14,2,0,9,9,3,,,,,,,,,5,0.901837549999982,,,058,001,2019_May_23_1524,MusicAffectPsychophysiology2019,3.0.5,60.0264059760311,
To what extent did the music make you feel ,TENDER,30MonoWAV/30MonoF3.wav,1,2,2,3,,,,,0,14,14,2,0,10,10,10,,,,,,,,,1,0.9356374620001588,,,058,001,2019_May_23_1524,MusicAffectPsychophysiology2019,3.0.5,60.0264059760311,
To what extent did the music make you feel ,ALERT,30MonoWAV/30MonoF3.wav,1,2,2,3,,,,,0,14,14,2,0,11,11,8,,,,,,,,,2,0.8016275119998681,,,058,001,2019_May_23_1524,MusicAffectPsychophysiology2019,3.0.5,60.0264059760311,
,,30MonoWAV/30MonoF3.wav,1,2,2,3,,,,,0,14,14,2,,,,,,,,,,,,,,,,,058,001,2019_May_23_1524,MusicAffectPsychophysiology2019,3.0.5,60.0264059760311,
To what extent did the music make you feel ,TENDER,30MonoWAV/30MonoF4.wav,1,2,2,4,,,,,0,15,15,3,0,0,0,10,,,3,1.940974666999864,2,1.9009399760007,2,1.9197390389999782,1,1.5669151089996376,,,058,001,2019_May_23_1524,MusicAffectPsychophysiology2019,3.0.5,60.0264059760311,
To what extent did the music make you feel ,ANGRY,30MonoWAV/30MonoF4.wav,1,2,2,4,,,,,0,15,15,3,0,1,1,2,,,,,,,,,3,1.151758480999888,,,058,001,2019_May_23_1524,MusicAffectPsychophysiology2019,3.0.5,60.0264059760311,
To what extent did the music make you feel ,SCARED,30MonoWAV/30MonoF4.wav,1,2,2,4,,,,,0,15,15,3,0,2,2,11,,,,,,,,,4,1.6689011520002168,,,058,001,2019_May_23_1524,MusicAffectPsychophysiology2019,3.0.5,60.0264059760311,
To what extent did the music make you feel ,HAPPY,30MonoWAV/30MonoF4.wav,1,2,2,4,,,,,0,15,15,3,0,3,3,6,,,,,,,,,1,2.551733332999902,,,058,001,2019_May_23_1524,MusicAffectPsychophysiology2019,3.0.5,60.0264059760311,
To what extent did the music make you feel ,ACTIVE,30MonoWAV/30MonoF4.wav,1,2,2,4,,,,,0,15,15,3,0,4,4,9,,,,,,,,,3,2.15207340500001,,,058,001,2019_May_23_1524,MusicAffectPsychophysiology2019,3.0.5,60.0264059760311,
To what extent did the music make you feel ,SAD,30MonoWAV/30MonoF4.wav,1,2,2,4,,,,,0,15,15,3,0,5,5,0,,,,,,,,,2,25.248742478000167,,,058,001,2019_May_23_1524,MusicAffectPsychophysiology2019,3.0.5,60.0264059760311,
To what extent did the music make you feel ,ANXIOUS ,30MonoWAV/30MonoF4.wav,1,2,2,4,,,,,0,15,15,3,0,6,6,1,,,,,,,,,4,1.4346659040002123,,,058,001,2019_May_23_1524,MusicAffectPsychophysiology2019,3.0.5,60.0264059760311,
To what extent did the music make you feel ,GUILTY,30MonoWAV/30MonoF4.wav,1,2,2,4,,,,,0,15,15,3,0,7,7,5,,,,,,,,,3,0.9516524799992112,,,058,001,2019_May_23_1524,MusicAffectPsychophysiology2019,3.0.5,60.0264059760311,
To what extent did the music make you feel ,ALERT,30MonoWAV/30MonoF4.wav,1,2,2,4,,,,,0,15,15,3,0,8,8,8,,,,,,,,,5,1.352029974999823,,,058,001,2019_May_23_1524,MusicAffectPsychophysiology2019,3.0.5,60.0264059760311,
To what extent did the music make you feel ,ASHAMED,30MonoWAV/30MonoF4.wav,1,2,2,4,,,,,0,15,15,3,0,9,9,4,,,,,,,,,2,1.4345440959996267,,,058,001,2019_May_23_1524,MusicAffectPsychophysiology2019,3.0.5,60.0264059760311,
To what extent did the music make you feel ,EXCITED,30MonoWAV/30MonoF4.wav,1,2,2,4,,,,,0,15,15,3,0,10,10,7,,,,,,,,,3,2.702395160999913,,,058,001,2019_May_23_1524,MusicAffectPsychophysiology2019,3.0.5,60.0264059760311,
To what extent did the music make you feel ,FRUSTRATED,30MonoWAV/30MonoF4.wav,1,2,2,4,,,,,0,15,15,3,0,11,11,3,,,,,,,,,1,1.9017497679997177,,,058,001,2019_May_23_1524,MusicAffectPsychophysiology2019,3.0.5,60.0264059760311,
,,30MonoWAV/30MonoF4.wav,1,2,2,4,,,,,0,15,15,3,,,,,,,,,,,,,,,,,058,001,2019_May_23_1524,MusicAffectPsychophysiology2019,3.0.5,60.0264059760311,
To what extent did the music make you feel ,HAPPY,30MonoWAV/30MonoS4.wav,1,1,3,12,,,,,1,0,16,11,0,0,0,6,,,1,1.7019487330007905,3,1.1192418939999698,2,0.4351120359997367,1,1.1166750319998755,,,058,001,2019_May_23_1524,MusicAffectPsychophysiology2019,3.0.5,60.0264059760311,
To what extent did the music make you feel ,ASHAMED,30MonoWAV/30MonoS4.wav,1,1,3,12,,,,,1,0,16,11,0,1,1,4,,,,,,,,,4,1.0691302270006418,,,058,001,2019_May_23_1524,MusicAffectPsychophysiology2019,3.0.5,60.0264059760311,
To what extent did the music make you feel ,ALERT,30MonoWAV/30MonoS4.wav,1,1,3,12,,,,,1,0,16,11,0,2,2,8,,,,,,,,,1,1.0183545120007693,,,058,001,2019_May_23_1524,MusicAffectPsychophysiology2019,3.0.5,60.0264059760311,
To what extent did the music make you feel ,FRUSTRATED,30MonoWAV/30MonoS4.wav,1,1,3,12,,,,,1,0,16,11,0,3,3,3,,,,,,,,,1,1.2515311999995902,,,058,001,2019_May_23_1524,MusicAffectPsychophysiology2019,3.0.5,60.0264059760311,
To what extent did the music make you feel ,ANXIOUS ,30MonoWAV/30MonoS4.wav,1,1,3,12,,,,,1,0,16,11,0,4,4,1,,,,,,,,,2,1.35272122600054,,,058,001,2019_May_23_1524,MusicAffectPsychophysiology2019,3.0.5,60.0264059760311,
To what extent did the music make you feel ,TENDER,30MonoWAV/30MonoS4.wav,1,1,3,12,,,,,1,0,16,11,0,5,5,10,,,,,,,,,1,0.8836376870003733,,,058,001,2019_May_23_1524,MusicAffectPsychophysiology2019,3.0.5,60.0264059760311,
To what extent did the music make you feel ,ACTIVE,30MonoWAV/30MonoS4.wav,1,1,3,12,,,,,1,0,16,11,0,6,6,9,,,,,,,,,1,1.7863030349999462,,,058,001,2019_May_23_1524,MusicAffectPsychophysiology2019,3.0.5,60.0264059760311,
To what extent did the music make you feel ,SCARED,30MonoWAV/30MonoS4.wav,1,1,3,12,,,,,1,0,16,11,0,7,7,11,,,,,,,,,3,2.7015468390000024,,,058,001,2019_May_23_1524,MusicAffectPsychophysiology2019,3.0.5,60.0264059760311,
To what extent did the music make you feel ,ANGRY,30MonoWAV/30MonoS4.wav,1,1,3,12,,,,,1,0,16,11,0,8,8,2,,,,,,,,,1,1.2855525579998357,,,058,001,2019_May_23_1524,MusicAffectPsychophysiology2019,3.0.5,60.0264059760311,
To what extent did the music make you feel ,GUILTY,30MonoWAV/30MonoS4.wav,1,1,3,12,,,,,1,0,16,11,0,9,9,5,,,,,,,,,1,8.150487120000435,,,058,001,2019_May_23_1524,MusicAffectPsychophysiology2019,3.0.5,60.0264059760311,
To what extent did the music make you feel ,SAD,30MonoWAV/30MonoS4.wav,1,1,3,12,,,,,1,0,16,11,0,10,10,0,,,,,,,,,1,1.0517933979999725,,,058,001,2019_May_23_1524,MusicAffectPsychophysiology2019,3.0.5,60.0264059760311,
To what extent did the music make you feel ,EXCITED,30MonoWAV/30MonoS4.wav,1,1,3,12,,,,,1,0,16,11,0,11,11,7,,,,,,,,,2,0.8689364809997642,,,058,001,2019_May_23_1524,MusicAffectPsychophysiology2019,3.0.5,60.0264059760311,
,,30MonoWAV/30MonoS4.wav,1,1,3,12,,,,,1,0,16,11,,,,,,,,,,,,,,,,,058,001,2019_May_23_1524,MusicAffectPsychophysiology2019,3.0.5,60.0264059760311,
To what extent did the music make you feel ,ANXIOUS ,30MonoWAV/30MonoF1.wav,1,2,2,1,,,,,1,1,17,0,0,0,0,1,,,3,2.4684824519999893,2,1.2188087940003243,2,1.6682147179999447,1,1.4677304819997516,,,058,001,2019_May_23_1524,MusicAffectPsychophysiology2019,3.0.5,60.0264059760311,
To what extent did the music make you feel ,ALERT,30MonoWAV/30MonoF1.wav,1,2,2,1,,,,,1,1,17,0,0,1,1,8,,,,,,,,,4,1.1854484979994595,,,058,001,2019_May_23_1524,MusicAffectPsychophysiology2019,3.0.5,60.0264059760311,
To what extent did the music make you feel ,ASHAMED,30MonoWAV/30MonoF1.wav,1,2,2,1,,,,,1,1,17,0,0,2,2,4,,,,,,,,,1,0.9182524690004357,,,058,001,2019_May_23_1524,MusicAffectPsychophysiology2019,3.0.5,60.0264059760311,
To what extent did the music make you feel ,SAD,30MonoWAV/30MonoF1.wav,1,2,2,1,,,,,1,1,17,0,0,3,3,0,,,,,,,,,2,0.8677554699997927,,,058,001,2019_May_23_1524,MusicAffectPsychophysiology2019,3.0.5,60.0264059760311,
To what extent did the music make you feel ,GUILTY,30MonoWAV/30MonoF1.wav,1,2,2,1,,,,,1,1,17,0,0,4,4,5,,,,,,,,,1,1.118425949000084,,,058,001,2019_May_23_1524,MusicAffectPsychophysiology2019,3.0.5,60.0264059760311,
To what extent did the music make you feel ,SCARED,30MonoWAV/30MonoF1.wav,1,2,2,1,,,,,1,1,17,0,0,5,5,11,,,,,,,,,3,0.7828510049994293,,,058,001,2019_May_23_1524,MusicAffectPsychophysiology2019,3.0.5,60.0264059760311,
To what extent did the music make you feel ,HAPPY,30MonoWAV/30MonoF1.wav,1,2,2,1,,,,,1,1,17,0,0,6,6,6,,,,,,,,,1,1.1012113030001274,,,058,001,2019_May_23_1524,MusicAffectPsychophysiology2019,3.0.5,60.0264059760311,
To what extent did the music make you feel ,TENDER,30MonoWAV/30MonoF1.wav,1,2,2,1,,,,,1,1,17,0,0,7,7,10,,,,,,,,,2,0.9686658470000111,,,058,001,2019_May_23_1524,MusicAffectPsychophysiology2019,3.0.5,60.0264059760311,
To what extent did the music make you feel ,EXCITED,30MonoWAV/30MonoF1.wav,1,2,2,1,,,,,1,1,17,0,0,8,8,7,,,,,,,,,1,1.6823201409997637,,,058,001,2019_May_23_1524,MusicAffectPsychophysiology2019,3.0.5,60.0264059760311,
To what extent did the music make you feel ,FRUSTRATED,30MonoWAV/30MonoF1.wav,1,2,2,1,,,,,1,1,17,0,0,9,9,3,,,,,,,,,1,1.6845180420004908,,,058,001,2019_May_23_1524,MusicAffectPsychophysiology2019,3.0.5,60.0264059760311,
To what extent did the music make you feel ,ACTIVE,30MonoWAV/30MonoF1.wav,1,2,2,1,,,,,1,1,17,0,0,10,10,9,,,,,,,,,3,1.7186277330001758,,,058,001,2019_May_23_1524,MusicAffectPsychophysiology2019,3.0.5,60.0264059760311,
To what extent did the music make you feel ,ANGRY,30MonoWAV/30MonoF1.wav,1,2,2,1,,,,,1,1,17,0,0,11,11,2,,,,,,,,,1,1.9190052779995312,,,058,001,2019_May_23_1524,MusicAffectPsychophysiology2019,3.0.5,60.0264059760311,
,,30MonoWAV/30MonoF1.wav,1,2,2,1,,,,,1,1,17,0,,,,,,,,,,,,,,,,,058,001,2019_May_23_1524,MusicAffectPsychophysiology2019,3.0.5,60.0264059760311,
To what extent did the music make you feel ,ALERT,30MonoWAV/30MonoS3.wav,1,1,3,11,,,,,1,2,18,10,0,0,0,8,,,1,5.690758921999986,3,1.2176461570006722,1,2.218690093999612,1,6.18376274899947,,,058,001,2019_May_23_1524,MusicAffectPsychophysiology2019,3.0.5,60.0264059760311,
To what extent did the music make you feel ,HAPPY,30MonoWAV/30MonoS3.wav,1,1,3,11,,,,,1,2,18,10,0,1,1,6,,,,,,,,,1,2.484182017000421,,,058,001,2019_May_23_1524,MusicAffectPsychophysiology2019,3.0.5,60.0264059760311,
To what extent did the music make you feel ,TENDER,30MonoWAV/30MonoS3.wav,1,1,3,11,,,,,1,2,18,10,0,2,2,10,,,,,,,,,2,1.4370782820005843,,,058,001,2019_May_23_1524,MusicAffectPsychophysiology2019,3.0.5,60.0264059760311,
To what extent did the music make you feel ,ANXIOUS ,30MonoWAV/30MonoS3.wav,1,1,3,11,,,,,1,2,18,10,0,3,3,1,,,,,,,,,4,0.9683557230000588,,,058,001,2019_May_23_1524,MusicAffectPsychophysiology2019,3.0.5,60.0264059760311,
To what extent did the music make you feel ,EXCITED,30MonoWAV/30MonoS3.wav,1,1,3,11,,,,,1,2,18,10,0,4,4,7,,,,,,,,,1,0.8346854910005277,,,058,001,2019_May_23_1524,MusicAffectPsychophysiology2019,3.0.5,60.0264059760311,
To what extent did the music make you feel ,SAD,30MonoWAV/30MonoS3.wav,1,1,3,11,,,,,1,2,18,10,0,5,5,0,,,,,,,,,1,1.1183319949996076,,,058,001,2019_May_23_1524,MusicAffectPsychophysiology2019,3.0.5,60.0264059760311,
To what extent did the music make you feel ,FRUSTRATED,30MonoWAV/30MonoS3.wav,1,1,3,11,,,,,1,2,18,10,0,6,6,3,,,,,,,,,2,2.9857578130004185,,,058,001,2019_May_23_1524,MusicAffectPsychophysiology2019,3.0.5,60.0264059760311,
To what extent did the music make you feel ,SCARED,30MonoWAV/30MonoS3.wav,1,1,3,11,,,,,1,2,18,10,0,7,7,11,,,,,,,,,4,1.0352977249995092,,,058,001,2019_May_23_1524,MusicAffectPsychophysiology2019,3.0.5,60.0264059760311,
To what extent did the music make you feel ,ANGRY,30MonoWAV/30MonoS3.wav,1,1,3,11,,,,,1,2,18,10,0,8,8,2,,,,,,,,,2,1.3687305799994647,,,058,001,2019_May_23_1524,MusicAffectPsychophysiology2019,3.0.5,60.0264059760311,
To what extent did the music make you feel ,GUILTY,30MonoWAV/30MonoS3.wav,1,1,3,11,,,,,1,2,18,10,0,9,9,5,,,,,,,,,3,1.4863548029998128,,,058,001,2019_May_23_1524,MusicAffectPsychophysiology2019,3.0.5,60.0264059760311,
To what extent did the music make you feel ,ACTIVE,30MonoWAV/30MonoS3.wav,1,1,3,11,,,,,1,2,18,10,0,10,10,9,,,,,,,,,1,0.8027416840004662,,,058,001,2019_May_23_1524,MusicAffectPsychophysiology2019,3.0.5,60.0264059760311,
To what extent did the music make you feel ,ASHAMED,30MonoWAV/30MonoS3.wav,1,1,3,11,,,,,1,2,18,10,0,11,11,4,,,,,,,,,4,0.8509521030000542,,,058,001,2019_May_23_1524,MusicAffectPsychophysiology2019,3.0.5,60.0264059760311,
,,30MonoWAV/30MonoS3.wav,1,1,3,11,,,,,1,2,18,10,,,,,,,,,,,,,,,,,058,001,2019_May_23_1524,MusicAffectPsychophysiology2019,3.0.5,60.0264059760311,
To what extent did the music make you feel ,ALERT,30MonoWAV/30MonoH2.wav,2,2,1,6,,,,,1,3,19,5,0,0,0,8,,,2,3.951624059000096,1,6.900083933999667,1,6.5266784579998784,2,12.943207893999897,,,058,001,2019_May_23_1524,MusicAffectPsychophysiology2019,3.0.5,60.0264059760311,
To what extent did the music make you feel ,ANGRY,30MonoWAV/30MonoH2.wav,2,2,1,6,,,,,1,3,19,5,0,1,1,2,,,,,,,,,3,0.8025712879998537,,,058,001,2019_May_23_1524,MusicAffectPsychophysiology2019,3.0.5,60.0264059760311,
To what extent did the music make you feel ,ACTIVE,30MonoWAV/30MonoH2.wav,2,2,1,6,,,,,1,3,19,5,0,2,2,9,,,,,,,,,1,1.0020366509997984,,,058,001,2019_May_23_1524,MusicAffectPsychophysiology2019,3.0.5,60.0264059760311,
To what extent did the music make you feel ,HAPPY,30MonoWAV/30MonoH2.wav,2,2,1,6,,,,,1,3,19,5,0,3,3,6,,,,,,,,,2,1.1187261280001621,,,058,001,2019_May_23_1524,MusicAffectPsychophysiology2019,3.0.5,60.0264059760311,
To what extent did the music make you feel ,EXCITED,30MonoWAV/30MonoH2.wav,2,2,1,6,,,,,1,3,19,5,0,4,4,7,,,,,,,,,1,0.7685108590003438,,,058,001,2019_May_23_1524,MusicAffectPsychophysiology2019,3.0.5,60.0264059760311,
To what extent did the music make you feel ,TENDER,30MonoWAV/30MonoH2.wav,2,2,1,6,,,,,1,3,19,5,0,5,5,10,,,,,,,,,1,1.6518584639998153,,,058,001,2019_May_23_1524,MusicAffectPsychophysiology2019,3.0.5,60.0264059760311,
To what extent did the music make you feel ,ASHAMED,30MonoWAV/30MonoH2.wav,2,2,1,6,,,,,1,3,19,5,0,6,6,4,,,,,,,,,3,0.985203059000014,,,058,001,2019_May_23_1524,MusicAffectPsychophysiology2019,3.0.5,60.0264059760311,
To what extent did the music make you feel ,SCARED,30MonoWAV/30MonoH2.wav,2,2,1,6,,,,,1,3,19,5,0,7,7,11,,,,,,,,,4,0.9346754119997058,,,058,001,2019_May_23_1524,MusicAffectPsychophysiology2019,3.0.5,60.0264059760311,
To what extent did the music make you feel ,GUILTY,30MonoWAV/30MonoH2.wav,2,2,1,6,,,,,1,3,19,5,0,8,8,5,,,,,,,,,2,1.5020965510002497,,,058,001,2019_May_23_1524,MusicAffectPsychophysiology2019,3.0.5,60.0264059760311,
To what extent did the music make you feel ,ANXIOUS ,30MonoWAV/30MonoH2.wav,2,2,1,6,,,,,1,3,19,5,0,9,9,1,,,,,,,,,1,1.1010775989998365,,,058,001,2019_May_23_1524,MusicAffectPsychophysiology2019,3.0.5,60.0264059760311,
To what extent did the music make you feel ,FRUSTRATED,30MonoWAV/30MonoH2.wav,2,2,1,6,,,,,1,3,19,5,0,10,10,3,,,,,,,,,3,1.4857574210000166,,,058,001,2019_May_23_1524,MusicAffectPsychophysiology2019,3.0.5,60.0264059760311,
To what extent did the music make you feel ,SAD,30MonoWAV/30MonoH2.wav,2,2,1,6,,,,,1,3,19,5,0,11,11,0,,,,,,,,,2,1.3844752610002615,,,058,001,2019_May_23_1524,MusicAffectPsychophysiology2019,3.0.5,60.0264059760311,
,,30MonoWAV/30MonoH2.wav,2,2,1,6,,,,,1,3,19,5,,,,,,,,,,,,,,,,,058,001,2019_May_23_1524,MusicAffectPsychophysiology2019,3.0.5,60.0264059760311,
To what extent did the music make you feel ,EXCITED,30MonoWAV/30MonoS1.wav,1,1,3,9,,,,,1,4,20,8,0,0,0,7,,,1,0.6014771109994399,1,2.717707461999453,2,1.8176556620001065,1,1.1167811140003323,,,058,001,2019_May_23_1524,MusicAffectPsychophysiology2019,3.0.5,60.0264059760311,
To what extent did the music make you feel ,ANGRY,30MonoWAV/30MonoS1.wav,1,1,3,9,,,,,1,4,20,8,0,1,1,2,,,,,,,,,3,1.3010462080001162,,,058,001,2019_May_23_1524,MusicAffectPsychophysiology2019,3.0.5,60.0264059760311,
To what extent did the music make you feel ,FRUSTRATED,30MonoWAV/30MonoS1.wav,1,1,3,9,,,,,1,4,20,8,0,2,2,3,,,,,,,,,2,1.2686291820000406,,,058,001,2019_May_23_1524,MusicAffectPsychophysiology2019,3.0.5,60.0264059760311,
To what extent did the music make you feel ,HAPPY,30MonoWAV/30MonoS1.wav,1,1,3,9,,,,,1,4,20,8,0,3,3,6,,,,,,,,,1,0.7852780730008817,,,058,001,2019_May_23_1524,MusicAffectPsychophysiology2019,3.0.5,60.0264059760311,
To what extent did the music make you feel ,ASHAMED,30MonoWAV/30MonoS1.wav,1,1,3,9,,,,,1,4,20,8,0,4,4,4,,,,,,,,,2,1.301858521000213,,,058,001,2019_May_23_1524,MusicAffectPsychophysiology2019,3.0.5,60.0264059760311,
To what extent did the music make you feel ,TENDER,30MonoWAV/30MonoS1.wav,1,1,3,9,,,,,1,4,20,8,0,5,5,10,,,,,,,,,2,1.4182793980007773,,,058,001,2019_May_23_1524,MusicAffectPsychophysiology2019,3.0.5,60.0264059760311,
To what extent did the music make you feel ,ANXIOUS ,30MonoWAV/30MonoS1.wav,1,1,3,9,,,,,1,4,20,8,0,6,6,1,,,,,,,,,4,1.334506911999597,,,058,001,2019_May_23_1524,MusicAffectPsychophysiology2019,3.0.5,60.0264059760311,
To what extent did the music make you feel ,SCARED,30MonoWAV/30MonoS1.wav,1,1,3,9,,,,,1,4,20,8,0,7,7,11,,,,,,,,,5,0.8683948369998689,,,058,001,2019_May_23_1524,MusicAffectPsychophysiology2019,3.0.5,60.0264059760311,
To what extent did the music make you feel ,ALERT,30MonoWAV/30MonoS1.wav,1,1,3,9,,,,,1,4,20,8,0,8,8,8,,,,,,,,,1,1.2854813520007156,,,058,001,2019_May_23_1524,MusicAffectPsychophysiology2019,3.0.5,60.0264059760311,
To what extent did the music make you feel ,SAD,30MonoWAV/30MonoS1.wav,1,1,3,9,,,,,1,4,20,8,0,9,9,0,,,,,,,,,4,1.4824084980000407,,,058,001,2019_May_23_1524,MusicAffectPsychophysiology2019,3.0.5,60.0264059760311,
To what extent did the music make you feel ,GUILTY,30MonoWAV/30MonoS1.wav,1,1,3,9,,,,,1,4,20,8,0,10,10,5,,,,,,,,,3,1.218913784000506,,,058,001,2019_May_23_1524,MusicAffectPsychophysiology2019,3.0.5,60.0264059760311,
To what extent did the music make you feel ,ACTIVE,30MonoWAV/30MonoS1.wav,1,1,3,9,,,,,1,4,20,8,0,11,11,9,,,,,,,,,1,1.2013661840001078,,,058,001,2019_May_23_1524,MusicAffectPsychophysiology2019,3.0.5,60.0264059760311,
,,30MonoWAV/30MonoS1.wav,1,1,3,9,,,,,1,4,20,8,,,,,,,,,,,,,,,,,058,001,2019_May_23_1524,MusicAffectPsychophysiology2019,3.0.5,60.0264059760311,
To what extent did the music make you feel ,SAD,30MonoWAV/30MonoH4.wav,2,2,1,8,,,,,1,5,21,7,0,0,0,0,,,3,14.849046690999785,3,1.801808761000757,2,0.9350986740000735,2,1.8015955629998643,,,058,001,2019_May_23_1524,MusicAffectPsychophysiology2019,3.0.5,60.0264059760311,
To what extent did the music make you feel ,TENDER,30MonoWAV/30MonoH4.wav,2,2,1,8,,,,,1,5,21,7,0,1,1,10,,,,,,,,,2,0.8693223059999582,,,058,001,2019_May_23_1524,MusicAffectPsychophysiology2019,3.0.5,60.0264059760311,
To what extent did the music make you feel ,HAPPY,30MonoWAV/30MonoH4.wav,2,2,1,8,,,,,1,5,21,7,0,2,2,6,,,,,,,,,4,0.6514003190004587,,,058,001,2019_May_23_1524,MusicAffectPsychophysiology2019,3.0.5,60.0264059760311,
To what extent did the music make you feel ,GUILTY,30MonoWAV/30MonoH4.wav,2,2,1,8,,,,,1,5,21,7,0,3,3,5,,,,,,,,,2,1.3179830250001032,,,058,001,2019_May_23_1524,MusicAffectPsychophysiology2019,3.0.5,60.0264059760311,
To what extent did the music make you feel ,ASHAMED,30MonoWAV/30MonoH4.wav,2,2,1,8,,,,,1,5,21,7,0,4,4,4,,,,,,,,,2,1.0020421449999048,,,058,001,2019_May_23_1524,MusicAffectPsychophysiology2019,3.0.5,60.0264059760311,
To what extent did the music make you feel ,ALERT,30MonoWAV/30MonoH4.wav,2,2,1,8,,,,,1,5,21,7,0,5,5,8,,,,,,,,,4,1.7522045209998396,,,058,001,2019_May_23_1524,MusicAffectPsychophysiology2019,3.0.5,60.0264059760311,
To what extent did the music make you feel ,EXCITED,30MonoWAV/30MonoH4.wav,2,2,1,8,,,,,1,5,21,7,0,6,6,7,,,,,,,,,2,0.7515562509997835,,,058,001,2019_May_23_1524,MusicAffectPsychophysiology2019,3.0.5,60.0264059760311,
To what extent did the music make you feel ,FRUSTRATED,30MonoWAV/30MonoH4.wav,2,2,1,8,,,,,1,5,21,7,0,7,7,3,,,,,,,,,5,1.7845738269998037,,,058,001,2019_May_23_1524,MusicAffectPsychophysiology2019,3.0.5,60.0264059760311,
To what extent did the music make you feel ,ANGRY,30MonoWAV/30MonoH4.wav,2,2,1,8,,,,,1,5,21,7,0,8,8,2,,,,,,,,,2,0.8520383479999509,,,058,001,2019_May_23_1524,MusicAffectPsychophysiology2019,3.0.5,60.0264059760311,
To what extent did the music make you feel ,ANXIOUS ,30MonoWAV/30MonoH4.wav,2,2,1,8,,,,,1,5,21,7,0,9,9,1,,,,,,,,,4,0.8850686829991901,,,058,001,2019_May_23_1524,MusicAffectPsychophysiology2019,3.0.5,60.0264059760311,
To what extent did the music make you feel ,SCARED,30MonoWAV/30MonoH4.wav,2,2,1,8,,,,,1,5,21,7,0,10,10,11,,,,,,,,,2,3.868309407000197,,,058,001,2019_May_23_1524,MusicAffectPsychophysiology2019,3.0.5,60.0264059760311,
To what extent did the music make you feel ,ACTIVE,30MonoWAV/30MonoH4.wav,2,2,1,8,,,,,1,5,21,7,0,11,11,9,,,,,,,,,2,22.532937748999757,,,058,001,2019_May_23_1524,MusicAffectPsychophysiology2019,3.0.5,60.0264059760311,
,,30MonoWAV/30MonoH4.wav,2,2,1,8,,,,,1,5,21,7,,,,,,,,,,,,,,,,,058,001,2019_May_23_1524,MusicAffectPsychophysiology2019,3.0.5,60.0264059760311,
To what extent did the music make you feel ,ACTIVE,30MonoWAV/30MonoH3.wav,2,2,1,7,,,,,1,6,22,6,0,0,0,9,,,3,20.016588721999142,2,1.5852307969998947,2,2.101377717000105,3,1.2853760239995609,,,058,001,2019_May_23_1524,MusicAffectPsychophysiology2019,3.0.5,60.0264059760311,
To what extent did the music make you feel ,ANGRY,30MonoWAV/30MonoH3.wav,2,2,1,7,,,,,1,6,22,6,0,1,1,2,,,,,,,,,1,0.8685710999998264,,,058,001,2019_May_23_1524,MusicAffectPsychophysiology2019,3.0.5,60.0264059760311,
To what extent did the music make you feel ,SCARED,30MonoWAV/30MonoH3.wav,2,2,1,7,,,,,1,6,22,6,0,2,2,11,,,,,,,,,2,0.7328233110001747,,,058,001,2019_May_23_1524,MusicAffectPsychophysiology2019,3.0.5,60.0264059760311,
To what extent did the music make you feel ,ALERT,30MonoWAV/30MonoH3.wav,2,2,1,7,,,,,1,6,22,6,0,3,3,8,,,,,,,,,1,1.4841690550001658,,,058,001,2019_May_23_1524,MusicAffectPsychophysiology2019,3.0.5,60.0264059760311,
To what extent did the music make you feel ,HAPPY,30MonoWAV/30MonoH3.wav,2,2,1,7,,,,,1,6,22,6,0,4,4,6,,,,,,,,,1,1.1520655169997553,,,058,001,2019_May_23_1524,MusicAffectPsychophysiology2019,3.0.5,60.0264059760311,
To what extent did the music make you feel ,TENDER,30MonoWAV/30MonoH3.wav,2,2,1,7,,,,,1,6,22,6,0,5,5,10,,,,,,,,,2,0.968516482999803,,,058,001,2019_May_23_1524,MusicAffectPsychophysiology2019,3.0.5,60.0264059760311,
To what extent did the music make you feel ,FRUSTRATED,30MonoWAV/30MonoH3.wav,2,2,1,7,,,,,1,6,22,6,0,6,6,3,,,,,,,,,1,0.8689783600002556,,,058,001,2019_May_23_1524,MusicAffectPsychophysiology2019,3.0.5,60.0264059760311,
To what extent did the music make you feel ,GUILTY,30MonoWAV/30MonoH3.wav,2,2,1,7,,,,,1,6,22,6,0,7,7,5,,,,,,,,,2,0.7021569549997366,,,058,001,2019_May_23_1524,MusicAffectPsychophysiology2019,3.0.5,60.0264059760311,
To what extent did the music make you feel ,ASHAMED,30MonoWAV/30MonoH3.wav,2,2,1,7,,,,,1,6,22,6,0,8,8,4,,,,,,,,,1,0.8017741060002663,,,058,001,2019_May_23_1524,MusicAffectPsychophysiology2019,3.0.5,60.0264059760311,
To what extent did the music make you feel ,SAD,30MonoWAV/30MonoH3.wav,2,2,1,7,,,,,1,6,22,6,0,9,9,0,,,,,,,,,3,0.6513518880001357,,,058,001,2019_May_23_1524,MusicAffectPsychophysiology2019,3.0.5,60.0264059760311,
To what extent did the music make you feel ,ANXIOUS ,30MonoWAV/30MonoH3.wav,2,2,1,7,,,,,1,6,22,6,0,10,10,1,,,,,,,,,2,0.6189939270007017,,,058,001,2019_May_23_1524,MusicAffectPsychophysiology2019,3.0.5,60.0264059760311,
To what extent did the music make you feel ,EXCITED,30MonoWAV/30MonoH3.wav,2,2,1,7,,,,,1,6,22,6,0,11,11,7,,,,,,,,,4,1.091302366000491,,,058,001,2019_May_23_1524,MusicAffectPsychophysiology2019,3.0.5,60.0264059760311,
,,30MonoWAV/30MonoH3.wav,2,2,1,7,,,,,1,6,22,6,,,,,,,,,,,,,,,,,058,001,2019_May_23_1524,MusicAffectPsychophysiology2019,3.0.5,60.0264059760311,
To what extent did the music make you feel ,ASHAMED,30MonoWAV/30MonoT4.wav,2,1,4,16,,,,,1,7,23,15,0,0,0,4,,,1,3.7906791969999176,3,0.5190534829998796,4,2.1361552990001655,1,0.8191117919996032,,,058,001,2019_May_23_1524,MusicAffectPsychophysiology2019,3.0.5,60.0264059760311,
To what extent did the music make you feel ,ANGRY,30MonoWAV/30MonoT4.wav,2,1,4,16,,,,,1,7,23,15,0,1,1,2,,,,,,,,,1,1.0350819249997585,,,058,001,2019_May_23_1524,MusicAffectPsychophysiology2019,3.0.5,60.0264059760311,
To what extent did the music make you feel ,FRUSTRATED,30MonoWAV/30MonoT4.wav,2,1,4,16,,,,,1,7,23,15,0,2,2,3,,,,,,,,,1,0.7515837709997868,,,058,001,2019_May_23_1524,MusicAffectPsychophysiology2019,3.0.5,60.0264059760311,
To what extent did the music make you feel ,ALERT,30MonoWAV/30MonoT4.wav,2,1,4,16,,,,,1,7,23,15,0,3,3,8,,,,,,,,,1,0.9525256469996748,,,058,001,2019_May_23_1524,MusicAffectPsychophysiology2019,3.0.5,60.0264059760311,
To what extent did the music make you feel ,ANXIOUS ,30MonoWAV/30MonoT4.wav,2,1,4,16,,,,,1,7,23,15,0,4,4,1,,,,,,,,,1,0.6363933980001093,,,058,001,2019_May_23_1524,MusicAffectPsychophysiology2019,3.0.5,60.0264059760311,
To what extent did the music make you feel ,TENDER,30MonoWAV/30MonoT4.wav,2,1,4,16,,,,,1,7,23,15,0,5,5,10,,,,,,,,,4,1.115727099000651,,,058,001,2019_May_23_1524,MusicAffectPsychophysiology2019,3.0.5,60.0264059760311,
To what extent did the music make you feel ,GUILTY,30MonoWAV/30MonoT4.wav,2,1,4,16,,,,,1,7,23,15,0,6,6,5,,,,,,,,,1,0.8341255810000803,,,058,001,2019_May_23_1524,MusicAffectPsychophysiology2019,3.0.5,60.0264059760311,
To what extent did the music make you feel ,SCARED,30MonoWAV/30MonoT4.wav,2,1,4,16,,,,,1,7,23,15,0,7,7,11,,,,,,,,,1,0.7850911260002249,,,058,001,2019_May_23_1524,MusicAffectPsychophysiology2019,3.0.5,60.0264059760311,
To what extent did the music make you feel ,ACTIVE,30MonoWAV/30MonoT4.wav,2,1,4,16,,,,,1,7,23,15,0,8,8,9,,,,,,,,,1,1.0684766260001197,,,058,001,2019_May_23_1524,MusicAffectPsychophysiology2019,3.0.5,60.0264059760311,
To what extent did the music make you feel ,HAPPY,30MonoWAV/30MonoT4.wav,2,1,4,16,,,,,1,7,23,15,0,9,9,6,,,,,,,,,3,1.2185080050003307,,,058,001,2019_May_23_1524,MusicAffectPsychophysiology2019,3.0.5,60.0264059760311,
To what extent did the music make you feel ,EXCITED,30MonoWAV/30MonoT4.wav,2,1,4,16,,,,,1,7,23,15,0,10,10,7,,,,,,,,,4,0.9670540810002421,,,058,001,2019_May_23_1524,MusicAffectPsychophysiology2019,3.0.5,60.0264059760311,
To what extent did the music make you feel ,SAD,30MonoWAV/30MonoT4.wav,2,1,4,16,,,,,1,7,23,15,0,11,11,0,,,,,,,,,1,0.7019643780004117,,,058,001,2019_May_23_1524,MusicAffectPsychophysiology2019,3.0.5,60.0264059760311,
,,30MonoWAV/30MonoT4.wav,2,1,4,16,,,,,1,7,23,15,,,,,,,,,,,,,,,,,058,001,2019_May_23_1524,MusicAffectPsychophysiology2019,3.0.5,60.0264059760311,
To what extent did the music make you feel ,SAD,30MonoWAV/30MonoT3.wav,2,1,4,15,,,,,1,8,24,14,0,0,0,0,,,1,1.5034360680001555,3,1.1202787550000721,4,0.6523994890003451,1,0.9698304719995576,,,058,001,2019_May_23_1524,MusicAffectPsychophysiology2019,3.0.5,60.0264059760311,
To what extent did the music make you feel ,HAPPY,30MonoWAV/30MonoT3.wav,2,1,4,15,,,,,1,8,24,14,0,1,1,6,,,,,,,,,2,2.1876182590003737,,,058,001,2019_May_23_1524,MusicAffectPsychophysiology2019,3.0.5,60.0264059760311,
To what extent did the music make you feel ,EXCITED,30MonoWAV/30MonoT3.wav,2,1,4,15,,,,,1,8,24,14,0,2,2,7,,,,,,,,,3,1.3564035819999845,,,058,001,2019_May_23_1524,MusicAffectPsychophysiology2019,3.0.5,60.0264059760311,
To what extent did the music make you feel ,ACTIVE,30MonoWAV/30MonoT3.wav,2,1,4,15,,,,,1,8,24,14,0,3,3,9,,,,,,,,,1,1.0188083959992582,,,058,001,2019_May_23_1524,MusicAffectPsychophysiology2019,3.0.5,60.0264059760311,
To what extent did the music make you feel ,ASHAMED,30MonoWAV/30MonoT3.wav,2,1,4,15,,,,,1,8,24,14,0,4,4,4,,,,,,,,,2,1.0172554669998135,,,058,001,2019_May_23_1524,MusicAffectPsychophysiology2019,3.0.5,60.0264059760311,
To what extent did the music make you feel ,ANXIOUS ,30MonoWAV/30MonoT3.wav,2,1,4,15,,,,,1,8,24,14,0,5,5,1,,,,,,,,,1,2.1015148300002693,,,058,001,2019_May_23_1524,MusicAffectPsychophysiology2019,3.0.5,60.0264059760311,
To what extent did the music make you feel ,FRUSTRATED,30MonoWAV/30MonoT3.wav,2,1,4,15,,,,,1,8,24,14,0,6,6,3,,,,,,,,,2,3.017851418000646,,,058,001,2019_May_23_1524,MusicAffectPsychophysiology2019,3.0.5,60.0264059760311,
To what extent did the music make you feel ,GUILTY,30MonoWAV/30MonoT3.wav,2,1,4,15,,,,,1,8,24,14,0,7,7,5,,,,,,,,,3,3.6852763950000735,,,058,001,2019_May_23_1524,MusicAffectPsychophysiology2019,3.0.5,60.0264059760311,
To what extent did the music make you feel ,ANGRY,30MonoWAV/30MonoT3.wav,2,1,4,15,,,,,1,8,24,14,0,8,8,2,,,,,,,,,1,4.135048858999653,,,058,001,2019_May_23_1524,MusicAffectPsychophysiology2019,3.0.5,60.0264059760311,
To what extent did the music make you feel ,SCARED,30MonoWAV/30MonoT3.wav,2,1,4,15,,,,,1,8,24,14,0,9,9,11,,,,,,,,,1,2.7183712340001875,,,058,001,2019_May_23_1524,MusicAffectPsychophysiology2019,3.0.5,60.0264059760311,
To what extent did the music make you feel ,TENDER,30MonoWAV/30MonoT3.wav,2,1,4,15,,,,,1,8,24,14,0,10,10,10,,,,,,,,,3,4.350697407000553,,,058,001,2019_May_23_1524,MusicAffectPsychophysiology2019,3.0.5,60.0264059760311,
To what extent did the music make you feel ,ALERT,30MonoWAV/30MonoT3.wav,2,1,4,15,,,,,1,8,24,14,0,11,11,8,,,,,,,,,3,1.4177870919993438,,,058,001,2019_May_23_1524,MusicAffectPsychophysiology2019,3.0.5,60.0264059760311,
,,30MonoWAV/30MonoT3.wav,2,1,4,15,,,,,1,8,24,14,,,,,,,,,,,,,,,,,058,001,2019_May_23_1524,MusicAffectPsychophysiology2019,3.0.5,60.0264059760311,
To what extent did the music make you feel ,ASHAMED,30MonoWAV/30MonoF4.wav,1,2,2,4,,,,,1,9,25,3,0,0,0,4,,,4,44.19826365600056,3,1.5029472219994204,2,0.7525712999995449,1,1.3679887839998628,,,058,001,2019_May_23_1524,MusicAffectPsychophysiology2019,3.0.5,60.0264059760311,
To what extent did the music make you feel ,FRUSTRATED,30MonoWAV/30MonoF4.wav,1,2,2,4,,,,,1,9,25,3,0,1,1,3,,,,,,,,,3,0.8861631199997646,,,058,001,2019_May_23_1524,MusicAffectPsychophysiology2019,3.0.5,60.0264059760311,
To what extent did the music make you feel ,ANXIOUS ,30MonoWAV/30MonoF4.wav,1,2,2,4,,,,,1,9,25,3,0,2,2,1,,,,,,,,,1,0.9850009840001803,,,058,001,2019_May_23_1524,MusicAffectPsychophysiology2019,3.0.5,60.0264059760311,
To what extent did the music make you feel ,ACTIVE,30MonoWAV/30MonoF4.wav,1,2,2,4,,,,,1,9,25,3,0,3,3,9,,,,,,,,,1,1.2185643400007393,,,058,001,2019_May_23_1524,MusicAffectPsychophysiology2019,3.0.5,60.0264059760311,
To what extent did the music make you feel ,HAPPY,30MonoWAV/30MonoF4.wav,1,2,2,4,,,,,1,9,25,3,0,4,4,6,,,,,,,,,1,1.0336621380001816,,,058,001,2019_May_23_1524,MusicAffectPsychophysiology2019,3.0.5,60.0264059760311,
To what extent did the music make you feel ,TENDER,30MonoWAV/30MonoF4.wav,1,2,2,4,,,,,1,9,25,3,0,5,5,10,,,,,,,,,1,1.2517492450006102,,,058,001,2019_May_23_1524,MusicAffectPsychophysiology2019,3.0.5,60.0264059760311,
To what extent did the music make you feel ,SAD,30MonoWAV/30MonoF4.wav,1,2,2,4,,,,,1,9,25,3,0,6,6,0,,,,,,,,,2,0.9356976899998699,,,058,001,2019_May_23_1524,MusicAffectPsychophysiology2019,3.0.5,60.0264059760311,
To what extent did the music make you feel ,EXCITED,30MonoWAV/30MonoF4.wav,1,2,2,4,,,,,1,9,25,3,0,7,7,7,,,,,,,,,1,1.0185744349992092,,,058,001,2019_May_23_1524,MusicAffectPsychophysiology2019,3.0.5,60.0264059760311,
To what extent did the music make you feel ,ANGRY,30MonoWAV/30MonoF4.wav,1,2,2,4,,,,,1,9,25,3,0,8,8,2,,,,,,,,,4,1.6032017170000472,,,058,001,2019_May_23_1524,MusicAffectPsychophysiology2019,3.0.5,60.0264059760311,
To what extent did the music make you feel ,SCARED,30MonoWAV/30MonoF4.wav,1,2,2,4,,,,,1,9,25,3,0,9,9,11,,,,,,,,,2,1.085942742000043,,,058,001,2019_May_23_1524,MusicAffectPsychophysiology2019,3.0.5,60.0264059760311,
To what extent did the music make you feel ,GUILTY,30MonoWAV/30MonoF4.wav,1,2,2,4,,,,,1,9,25,3,0,10,10,5,,,,,,,,,1,6.568492231000164,,,058,001,2019_May_23_1524,MusicAffectPsychophysiology2019,3.0.5,60.0264059760311,
To what extent did the music make you feel ,ALERT,30MonoWAV/30MonoF4.wav,1,2,2,4,,,,,1,9,25,3,0,11,11,8,,,,,,,,,1,0.6020133179999902,,,058,001,2019_May_23_1524,MusicAffectPsychophysiology2019,3.0.5,60.0264059760311,
,,30MonoWAV/30MonoF4.wav,1,2,2,4,,,,,1,9,25,3,,,,,,,,,,,,,,,,,058,001,2019_May_23_1524,MusicAffectPsychophysiology2019,3.0.5,60.0264059760311,
To what extent did the music make you feel ,TENDER,30MonoWAV/30MonoS2.wav,1,1,3,10,,,,,1,10,26,9,0,0,0,10,,,1,3.050940867999998,3,1.768051335000564,3,2.7690189620007004,4,1.3177081820003878,,,058,001,2019_May_23_1524,MusicAffectPsychophysiology2019,3.0.5,60.0264059760311,
To what extent did the music make you feel ,GUILTY,30MonoWAV/30MonoS2.wav,1,1,3,10,,,,,1,10,26,9,0,1,1,5,,,,,,,,,2,1.1348098149992438,,,058,001,2019_May_23_1524,MusicAffectPsychophysiology2019,3.0.5,60.0264059760311,
To what extent did the music make you feel ,ACTIVE,30MonoWAV/30MonoS2.wav,1,1,3,10,,,,,1,10,26,9,0,2,2,9,,,,,,,,,1,0.8018483760006347,,,058,001,2019_May_23_1524,MusicAffectPsychophysiology2019,3.0.5,60.0264059760311,
To what extent did the music make you feel ,ALERT,30MonoWAV/30MonoS2.wav,1,1,3,10,,,,,1,10,26,9,0,3,3,8,,,,,,,,,1,2.601586920000045,,,058,001,2019_May_23_1524,MusicAffectPsychophysiology2019,3.0.5,60.0264059760311,
To what extent did the music make you feel ,EXCITED,30MonoWAV/30MonoS2.wav,1,1,3,10,,,,,1,10,26,9,0,4,4,7,,,,,,,,,1,0.7839462090005327,,,058,001,2019_May_23_1524,MusicAffectPsychophysiology2019,3.0.5,60.0264059760311,
To what extent did the music make you feel ,HAPPY,30MonoWAV/30MonoS2.wav,1,1,3,10,,,,,1,10,26,9,0,5,5,6,,,,,,,,,1,1.0348563529996682,,,058,001,2019_May_23_1524,MusicAffectPsychophysiology2019,3.0.5,60.0264059760311,
To what extent did the music make you feel ,ANXIOUS ,30MonoWAV/30MonoS2.wav,1,1,3,10,,,,,1,10,26,9,0,6,6,1,,,,,,,,,2,1.367162043999997,,,058,001,2019_May_23_1524,MusicAffectPsychophysiology2019,3.0.5,60.0264059760311,
To what extent did the music make you feel ,ASHAMED,30MonoWAV/30MonoS2.wav,1,1,3,10,,,,,1,10,26,9,0,7,7,4,,,,,,,,,3,1.1022594480000407,,,058,001,2019_May_23_1524,MusicAffectPsychophysiology2019,3.0.5,60.0264059760311,
To what extent did the music make you feel ,FRUSTRATED,30MonoWAV/30MonoS2.wav,1,1,3,10,,,,,1,10,26,9,0,8,8,3,,,,,,,,,2,1.80170748799992,,,058,001,2019_May_23_1524,MusicAffectPsychophysiology2019,3.0.5,60.0264059760311,
To what extent did the music make you feel ,SCARED,30MonoWAV/30MonoS2.wav,1,1,3,10,,,,,1,10,26,9,0,9,9,11,,,,,,,,,4,0.7358531629997742,,,058,001,2019_May_23_1524,MusicAffectPsychophysiology2019,3.0.5,60.0264059760311,
To what extent did the music make you feel ,SAD,30MonoWAV/30MonoS2.wav,1,1,3,10,,,,,1,10,26,9,0,10,10,0,,,,,,,,,3,0.9349804909998056,,,058,001,2019_May_23_1524,MusicAffectPsychophysiology2019,3.0.5,60.0264059760311,
To what extent did the music make you feel ,ANGRY,30MonoWAV/30MonoS2.wav,1,1,3,10,,,,,1,10,26,9,0,11,11,2,,,,,,,,,4,0.03598438300014095,,,058,001,2019_May_23_1524,MusicAffectPsychophysiology2019,3.0.5,60.0264059760311,
,,30MonoWAV/30MonoS2.wav,1,1,3,10,,,,,1,10,26,9,,,,,,,,,,,,,,,,,058,001,2019_May_23_1524,MusicAffectPsychophysiology2019,3.0.5,60.0264059760311,
To what extent did the music make you feel ,TENDER,30MonoWAV/30MonoT1.wav,2,1,4,13,,,,,1,11,27,12,0,0,0,10,,,1,1.8022812030003479,2,2.0684488759998203,3,0.8508989709998787,4,1.3028792790000807,,,058,001,2019_May_23_1524,MusicAffectPsychophysiology2019,3.0.5,60.0264059760311,
To what extent did the music make you feel ,HAPPY,30MonoWAV/30MonoT1.wav,2,1,4,13,,,,,1,11,27,12,0,1,1,6,,,,,,,,,2,1.1851227269999072,,,058,001,2019_May_23_1524,MusicAffectPsychophysiology2019,3.0.5,60.0264059760311,
To what extent did the music make you feel ,ACTIVE,30MonoWAV/30MonoT1.wav,2,1,4,13,,,,,1,11,27,12,0,2,2,9,,,,,,,,,1,0.9340683929995066,,,058,001,2019_May_23_1524,MusicAffectPsychophysiology2019,3.0.5,60.0264059760311,
To what extent did the music make you feel ,FRUSTRATED,30MonoWAV/30MonoT1.wav,2,1,4,13,,,,,1,11,27,12,0,3,3,3,,,,,,,,,1,1.668138504000126,,,058,001,2019_May_23_1524,MusicAffectPsychophysiology2019,3.0.5,60.0264059760311,
To what extent did the music make you feel ,EXCITED,30MonoWAV/30MonoT1.wav,2,1,4,13,,,,,1,11,27,12,0,4,4,7,,,,,,,,,2,2.585797158999412,,,058,001,2019_May_23_1524,MusicAffectPsychophysiology2019,3.0.5,60.0264059760311,
To what extent did the music make you feel ,SAD,30MonoWAV/30MonoT1.wav,2,1,4,13,,,,,1,11,27,12,0,5,5,0,,,,,,,,,4,0.9697473779997381,,,058,001,2019_May_23_1524,MusicAffectPsychophysiology2019,3.0.5,60.0264059760311,
To what extent did the music make you feel ,GUILTY,30MonoWAV/30MonoT1.wav,2,1,4,13,,,,,1,11,27,12,0,6,6,5,,,,,,,,,1,1.2513566620000347,,,058,001,2019_May_23_1524,MusicAffectPsychophysiology2019,3.0.5,60.0264059760311,
To what extent did the music make you feel ,ALERT,30MonoWAV/30MonoT1.wav,2,1,4,13,,,,,1,11,27,12,0,7,7,8,,,,,,,,,2,0.30151683100029913,,,058,001,2019_May_23_1524,MusicAffectPsychophysiology2019,3.0.5,60.0264059760311,
To what extent did the music make you feel ,ANXIOUS ,30MonoWAV/30MonoT1.wav,2,1,4,13,,,,,1,11,27,12,0,8,8,1,,,,,,,,,3,1.251228920000358,,,058,001,2019_May_23_1524,MusicAffectPsychophysiology2019,3.0.5,60.0264059760311,
To what extent did the music make you feel ,SCARED,30MonoWAV/30MonoT1.wav,2,1,4,13,,,,,1,11,27,12,0,9,9,11,,,,,,,,,2,1.6851983759997893,,,058,001,2019_May_23_1524,MusicAffectPsychophysiology2019,3.0.5,60.0264059760311,
To what extent did the music make you feel ,ANGRY,30MonoWAV/30MonoT1.wav,2,1,4,13,,,,,1,11,27,12,0,10,10,2,,,,,,,,,1,0.8006809939997765,,,058,001,2019_May_23_1524,MusicAffectPsychophysiology2019,3.0.5,60.0264059760311,
To what extent did the music make you feel ,ASHAMED,30MonoWAV/30MonoT1.wav,2,1,4,13,,,,,1,11,27,12,0,11,11,4,,,,,,,,,1,1.1846597680005289,,,058,001,2019_May_23_1524,MusicAffectPsychophysiology2019,3.0.5,60.0264059760311,
,,30MonoWAV/30MonoT1.wav,2,1,4,13,,,,,1,11,27,12,,,,,,,,,,,,,,,,,058,001,2019_May_23_1524,MusicAffectPsychophysiology2019,3.0.5,60.0264059760311,
To what extent did the music make you feel ,ASHAMED,30MonoWAV/30MonoH1.wav,2,2,1,5,,,,,1,12,28,4,0,0,0,4,,,5,1.7189390459989227,5,1.0693149780017848,5,0.48574180500145303,1,0.8847612110002956,,,058,001,2019_May_23_1524,MusicAffectPsychophysiology2019,3.0.5,60.0264059760311,
To what extent did the music make you feel ,EXCITED,30MonoWAV/30MonoH1.wav,2,2,1,5,,,,,1,12,28,4,0,1,1,7,,,,,,,,,5,0.9693406409987801,,,058,001,2019_May_23_1524,MusicAffectPsychophysiology2019,3.0.5,60.0264059760311,
To what extent did the music make you feel ,GUILTY,30MonoWAV/30MonoH1.wav,2,2,1,5,,,,,1,12,28,4,0,2,2,5,,,,,,,,,1,0.5849112640007661,,,058,001,2019_May_23_1524,MusicAffectPsychophysiology2019,3.0.5,60.0264059760311,
To what extent did the music make you feel ,TENDER,30MonoWAV/30MonoH1.wav,2,2,1,5,,,,,1,12,28,4,0,3,3,10,,,,,,,,,3,1.1180164029992739,,,058,001,2019_May_23_1524,MusicAffectPsychophysiology2019,3.0.5,60.0264059760311,
To what extent did the music make you feel ,SCARED,30MonoWAV/30MonoH1.wav,2,2,1,5,,,,,1,12,28,4,0,4,4,11,,,,,,,,,1,1.9018110770011845,,,058,001,2019_May_23_1524,MusicAffectPsychophysiology2019,3.0.5,60.0264059760311,
To what extent did the music make you feel ,ACTIVE,30MonoWAV/30MonoH1.wav,2,2,1,5,,,,,1,12,28,4,0,5,5,9,,,,,,,,,2,1.1683745669997734,,,058,001,2019_May_23_1524,MusicAffectPsychophysiology2019,3.0.5,60.0264059760311,
To what extent did the music make you feel ,ANGRY,30MonoWAV/30MonoH1.wav,2,2,1,5,,,,,1,12,28,4,0,6,6,2,,,,,,,,,1,1.4176660640005139,,,058,001,2019_May_23_1524,MusicAffectPsychophysiology2019,3.0.5,60.0264059760311,
To what extent did the music make you feel ,FRUSTRATED,30MonoWAV/30MonoH1.wav,2,2,1,5,,,,,1,12,28,4,0,7,7,3,,,,,,,,,1,1.085186321000947,,,058,001,2019_May_23_1524,MusicAffectPsychophysiology2019,3.0.5,60.0264059760311,
To what extent did the music make you feel ,SAD,30MonoWAV/30MonoH1.wav,2,2,1,5,,,,,1,12,28,4,0,8,8,0,,,,,,,,,1,0.9512646290004341,,,058,001,2019_May_23_1524,MusicAffectPsychophysiology2019,3.0.5,60.0264059760311,
To what extent did the music make you feel ,ALERT,30MonoWAV/30MonoH1.wav,2,2,1,5,,,,,1,12,28,4,0,9,9,8,,,,,,,,,1,1.251880367000922,,,058,001,2019_May_23_1524,MusicAffectPsychophysiology2019,3.0.5,60.0264059760311,
To what extent did the music make you feel ,ANXIOUS ,30MonoWAV/30MonoH1.wav,2,2,1,5,,,,,1,12,28,4,0,10,10,1,,,,,,,,,1,0.6028558609996253,,,058,001,2019_May_23_1524,MusicAffectPsychophysiology2019,3.0.5,60.0264059760311,
To what extent did the music make you feel ,HAPPY,30MonoWAV/30MonoH1.wav,2,2,1,5,,,,,1,12,28,4,0,11,11,6,,,,,,,,,4,1.1187941859989223,,,058,001,2019_May_23_1524,MusicAffectPsychophysiology2019,3.0.5,60.0264059760311,
,,30MonoWAV/30MonoH1.wav,2,2,1,5,,,,,1,12,28,4,,,,,,,,,,,,,,,,,058,001,2019_May_23_1524,MusicAffectPsychophysiology2019,3.0.5,60.0264059760311,
To what extent did the music make you feel ,EXCITED,30MonoWAV/30MonoF2.wav,1,2,2,2,,,,,1,13,29,1,0,0,0,7,,,1,0.6688054639998882,1,0.45164745900001435,1,0.8515615640008036,1,1.9009959290015104,,,058,001,2019_May_23_1524,MusicAffectPsychophysiology2019,3.0.5,60.0264059760311,
To what extent did the music make you feel ,SCARED,30MonoWAV/30MonoF2.wav,1,2,2,2,,,,,1,13,29,1,0,1,1,11,,,,,,,,,5,2.5848961699994106,,,058,001,2019_May_23_1524,MusicAffectPsychophysiology2019,3.0.5,60.0264059760311,
To what extent did the music make you feel ,ANXIOUS ,30MonoWAV/30MonoF2.wav,1,2,2,2,,,,,1,13,29,1,0,2,2,1,,,,,,,,,4,2.068425371000558,,,058,001,2019_May_23_1524,MusicAffectPsychophysiology2019,3.0.5,60.0264059760311,
To what extent did the music make you feel ,TENDER,30MonoWAV/30MonoF2.wav,1,2,2,2,,,,,1,13,29,1,0,3,3,10,,,,,,,,,2,1.7858541009991313,,,058,001,2019_May_23_1524,MusicAffectPsychophysiology2019,3.0.5,60.0264059760311,
To what extent did the music make you feel ,GUILTY,30MonoWAV/30MonoF2.wav,1,2,2,2,,,,,1,13,29,1,0,4,4,5,,,,,,,,,2,1.4525481020009465,,,058,001,2019_May_23_1524,MusicAffectPsychophysiology2019,3.0.5,60.0264059760311,
To what extent did the music make you feel ,HAPPY,30MonoWAV/30MonoF2.wav,1,2,2,2,,,,,1,13,29,1,0,5,5,6,,,,,,,,,1,0.6015541600008874,,,058,001,2019_May_23_1524,MusicAffectPsychophysiology2019,3.0.5,60.0264059760311,
To what extent did the music make you feel ,ALERT,30MonoWAV/30MonoF2.wav,1,2,2,2,,,,,1,13,29,1,0,6,6,8,,,,,,,,,4,1.0684345079989725,,,058,001,2019_May_23_1524,MusicAffectPsychophysiology2019,3.0.5,60.0264059760311,
To what extent did the music make you feel ,ANGRY,30MonoWAV/30MonoF2.wav,1,2,2,2,,,,,1,13,29,1,0,7,7,2,,,,,,,,,2,1.4356082820013398,,,058,001,2019_May_23_1524,MusicAffectPsychophysiology2019,3.0.5,60.0264059760311,
To what extent did the music make you feel ,FRUSTRATED,30MonoWAV/30MonoF2.wav,1,2,2,2,,,,,1,13,29,1,0,8,8,3,,,,,,,,,2,1.0184384349995526,,,058,001,2019_May_23_1524,MusicAffectPsychophysiology2019,3.0.5,60.0264059760311,
To what extent did the music make you feel ,ASHAMED,30MonoWAV/30MonoF2.wav,1,2,2,2,,,,,1,13,29,1,0,9,9,4,,,,,,,,,1,1.2026302340000257,,,058,001,2019_May_23_1524,MusicAffectPsychophysiology2019,3.0.5,60.0264059760311,
To what extent did the music make you feel ,SAD,30MonoWAV/30MonoF2.wav,1,2,2,2,,,,,1,13,29,1,0,10,10,0,,,,,,,,,1,1.0353304379987094,,,058,001,2019_May_23_1524,MusicAffectPsychophysiology2019,3.0.5,60.0264059760311,
To what extent did the music make you feel ,ACTIVE,30MonoWAV/30MonoF2.wav,1,2,2,2,,,,,1,13,29,1,0,11,11,9,,,,,,,,,2,1.0354918290013302,,,058,001,2019_May_23_1524,MusicAffectPsychophysiology2019,3.0.5,60.0264059760311,
,,30MonoWAV/30MonoF2.wav,1,2,2,2,,,,,1,13,29,1,,,,,,,,,,,,,,,,,058,001,2019_May_23_1524,MusicAffectPsychophysiology2019,3.0.5,60.0264059760311,
To what extent did the music make you feel ,EXCITED,30MonoWAV/30MonoT2.wav,2,1,4,14,,,,,1,14,30,13,0,0,0,7,,,3,2.589206380000178,4,0.967116949001138,3,0.8857380059998832,3,1.2365394469998137,,,058,001,2019_May_23_1524,MusicAffectPsychophysiology2019,3.0.5,60.0264059760311,
To what extent did the music make you feel ,ACTIVE,30MonoWAV/30MonoT2.wav,2,1,4,14,,,,,1,14,30,13,0,1,1,9,,,,,,,,,2,0.7517897729994729,,,058,001,2019_May_23_1524,MusicAffectPsychophysiology2019,3.0.5,60.0264059760311,
To what extent did the music make you feel ,HAPPY,30MonoWAV/30MonoT2.wav,2,1,4,14,,,,,1,14,30,13,0,2,2,6,,,,,,,,,4,0.768260963001012,,,058,001,2019_May_23_1524,MusicAffectPsychophysiology2019,3.0.5,60.0264059760311,
To what extent did the music make you feel ,ANGRY,30MonoWAV/30MonoT2.wav,2,1,4,14,,,,,1,14,30,13,0,3,3,2,,,,,,,,,1,0.7729185400003189,,,058,001,2019_May_23_1524,MusicAffectPsychophysiology2019,3.0.5,60.0264059760311,
To what extent did the music make you feel ,SCARED,30MonoWAV/30MonoT2.wav,2,1,4,14,,,,,1,14,30,13,0,4,4,11,,,,,,,,,1,0.5688718090004841,,,058,001,2019_May_23_1524,MusicAffectPsychophysiology2019,3.0.5,60.0264059760311,
To what extent did the music make you feel ,TENDER,30MonoWAV/30MonoT2.wav,2,1,4,14,,,,,1,14,30,13,0,5,5,10,,,,,,,,,1,0.5856603900010668,,,058,001,2019_May_23_1524,MusicAffectPsychophysiology2019,3.0.5,60.0264059760311,
To what extent did the music make you feel ,ALERT,30MonoWAV/30MonoT2.wav,2,1,4,14,,,,,1,14,30,13,0,6,6,8,,,,,,,,,1,0.48589254100079415,,,058,001,2019_May_23_1524,MusicAffectPsychophysiology2019,3.0.5,60.0264059760311,
To what extent did the music make you feel ,ASHAMED,30MonoWAV/30MonoT2.wav,2,1,4,14,,,,,1,14,30,13,0,7,7,4,,,,,,,,,1,0.5690472739988763,,,058,001,2019_May_23_1524,MusicAffectPsychophysiology2019,3.0.5,60.0264059760311,
To what extent did the music make you feel ,FRUSTRATED,30MonoWAV/30MonoT2.wav,2,1,4,14,,,,,1,14,30,13,0,8,8,3,,,,,,,,,1,0.46936211100000946,,,058,001,2019_May_23_1524,MusicAffectPsychophysiology2019,3.0.5,60.0264059760311,
To what extent did the music make you feel ,SAD,30MonoWAV/30MonoT2.wav,2,1,4,14,,,,,1,14,30,13,0,9,9,0,,,,,,,,,1,0.5018762580002658,,,058,001,2019_May_23_1524,MusicAffectPsychophysiology2019,3.0.5,60.0264059760311,
To what extent did the music make you feel ,ANXIOUS ,30MonoWAV/30MonoT2.wav,2,1,4,14,,,,,1,14,30,13,0,10,10,1,,,,,,,,,1,0.5527128699995956,,,058,001,2019_May_23_1524,MusicAffectPsychophysiology2019,3.0.5,60.0264059760311,
To what extent did the music make you feel ,GUILTY,30MonoWAV/30MonoT2.wav,2,1,4,14,,,,,1,14,30,13,0,11,11,5,,,,,,,,,1,0.4691276020002988,,,058,001,2019_May_23_1524,MusicAffectPsychophysiology2019,3.0.5,60.0264059760311,
,,30MonoWAV/30MonoT2.wav,2,1,4,14,,,,,1,14,30,13,,,,,,,,,,,,,,,,,058,001,2019_May_23_1524,MusicAffectPsychophysiology2019,3.0.5,60.0264059760311,
To what extent did the music make you feel ,SCARED,30MonoWAV/30MonoF3.wav,1,2,2,3,,,,,1,15,31,2,0,0,0,11,,,3,1.6187004319999687,2,0.7696089589990152,1,0.5690961330001301,1,2.5350239780000265,,,058,001,2019_May_23_1524,MusicAffectPsychophysiology2019,3.0.5,60.0264059760311,
To what extent did the music make you feel ,ACTIVE,30MonoWAV/30MonoF3.wav,1,2,2,3,,,,,1,15,31,2,0,1,1,9,,,,,,,,,2,0.8348266920002061,,,058,001,2019_May_23_1524,MusicAffectPsychophysiology2019,3.0.5,60.0264059760311,
To what extent did the music make you feel ,ALERT,30MonoWAV/30MonoF3.wav,1,2,2,3,,,,,1,15,31,2,0,2,2,8,,,,,,,,,3,0.8523196749993076,,,058,001,2019_May_23_1524,MusicAffectPsychophysiology2019,3.0.5,60.0264059760311,
To what extent did the music make you feel ,ASHAMED,30MonoWAV/30MonoF3.wav,1,2,2,3,,,,,1,15,31,2,0,3,3,4,,,,,,,,,1,0.8023554660012451,,,058,001,2019_May_23_1524,MusicAffectPsychophysiology2019,3.0.5,60.0264059760311,
To what extent did the music make you feel ,EXCITED,30MonoWAV/30MonoF3.wav,1,2,2,3,,,,,1,15,31,2,0,4,4,7,,,,,,,,,2,0.8334799549993477,,,058,001,2019_May_23_1524,MusicAffectPsychophysiology2019,3.0.5,60.0264059760311,
To what extent did the music make you feel ,FRUSTRATED,30MonoWAV/30MonoF3.wav,1,2,2,3,,,,,1,15,31,2,0,5,5,3,,,,,,,,,1,0.7679488800004037,,,058,001,2019_May_23_1524,MusicAffectPsychophysiology2019,3.0.5,60.0264059760311,
To what extent did the music make you feel ,TENDER,30MonoWAV/30MonoF3.wav,1,2,2,3,,,,,1,15,31,2,0,6,6,10,,,,,,,,,1,0.7187512349992176,,,058,001,2019_May_23_1524,MusicAffectPsychophysiology2019,3.0.5,60.0264059760311,
To what extent did the music make you feel ,GUILTY,30MonoWAV/30MonoF3.wav,1,2,2,3,,,,,1,15,31,2,0,7,7,5,,,,,,,,,1,0.8018804669991368,,,058,001,2019_May_23_1524,MusicAffectPsychophysiology2019,3.0.5,60.0264059760311,
To what extent did the music make you feel ,HAPPY,30MonoWAV/30MonoF3.wav,1,2,2,3,,,,,1,15,31,2,0,8,8,6,,,,,,,,,2,1.0018411180008115,,,058,001,2019_May_23_1524,MusicAffectPsychophysiology2019,3.0.5,60.0264059760311,
To what extent did the music make you feel ,ANXIOUS ,30MonoWAV/30MonoF3.wav,1,2,2,3,,,,,1,15,31,2,0,9,9,1,,,,,,,,,1,0.5852743699997518,,,058,001,2019_May_23_1524,MusicAffectPsychophysiology2019,3.0.5,60.0264059760311,
To what extent did the music make you feel ,ANGRY,30MonoWAV/30MonoF3.wav,1,2,2,3,,,,,1,15,31,2,0,10,10,2,,,,,,,,,3,0.9333946620008646,,,058,001,2019_May_23_1524,MusicAffectPsychophysiology2019,3.0.5,60.0264059760311,
To what extent did the music make you feel ,SAD,30MonoWAV/30MonoF3.wav,1,2,2,3,,,,,1,15,31,2,0,11,11,0,,,,,,,,,1,0.5020568130003085,,,058,001,2019_May_23_1524,MusicAffectPsychophysiology2019,3.0.5,60.0264059760311,
,,30MonoWAV/30MonoF3.wav,1,2,2,3,,,,,1,15,31,2,,,,,,,,,,,,,,,,,058,001,2019_May_23_1524,MusicAffectPsychophysiology2019,3.0.5,60.0264059760311,
,,,,,,,,,,,,,,,,,,,,,,,,,,,,,space,5.301796572999592,058,001,2019_May_23_1524,MusicAffectPsychophysiology2019,3.0.5,60.0264059760311,
