Instruction,Word,song,valence,arousal,affectcat,songmark,pracwords.thisRepN,pracwords.thisTrialN,pracwords.thisN,pracwords.thisIndex,songtrials.thisRepN,songtrials.thisTrialN,songtrials.thisN,songtrials.thisIndex,words.thisRepN,words.thisTrialN,words.thisN,words.thisIndex,begin.keys,begin.rt,arousalkey.keys,arousalkey.rt,valencekey.keys,valencekey.rt,likekey.keys,likekey.rt,WordResponse.keys,WordResponse.rt,key_resp_2.keys,key_resp_2.rt,participant,session,date,expName,psychopyVersion,frameRate,
,,,,,,,,,,,,,,,,,,,space,14.135213224999461,,,,,,,,,,,059,001,2019_May_23_1609,MusicAffectPsychophysiology2019,3.0.5,59.9549261259065,
,,,,,,,,,,,,,,,,,,,,,3,7.367187764999471,,,,,,,,,059,001,2019_May_23_1609,MusicAffectPsychophysiology2019,3.0.5,59.9549261259065,
,,,,,,,,,,,,,,,,,,,,,,,4,2.017823614000008,,,,,,,059,001,2019_May_23_1609,MusicAffectPsychophysiology2019,3.0.5,59.9549261259065,
,,,,,,,,,,,,,,,,,,,,,,,,,4,1.8529506429986213,,,,,059,001,2019_May_23_1609,MusicAffectPsychophysiology2019,3.0.5,59.9549261259065,
To what extent did the music make you feel ,SCARED,,,,,,0,0,0,11,,,,,,,,,,,,,,,,,1,3.583395314999507,,,059,001,2019_May_23_1609,MusicAffectPsychophysiology2019,3.0.5,59.9549261259065,
To what extent did the music make you feel ,ALERT,,,,,,0,1,1,8,,,,,,,,,,,,,,,,,2,1.818439937000221,,,059,001,2019_May_23_1609,MusicAffectPsychophysiology2019,3.0.5,59.9549261259065,
To what extent did the music make you feel ,GUILTY,,,,,,0,2,2,5,,,,,,,,,,,,,,,,,1,1.1849206339993543,,,059,001,2019_May_23_1609,MusicAffectPsychophysiology2019,3.0.5,59.9549261259065,
To what extent did the music make you feel ,ANGRY,,,,,,0,3,3,2,,,,,,,,,,,,,,,,,1,1.4847021260011388,,,059,001,2019_May_23_1609,MusicAffectPsychophysiology2019,3.0.5,59.9549261259065,
To what extent did the music make you feel ,ASHAMED,,,,,,0,4,4,4,,,,,,,,,,,,,,,,,1,2.6996645199997147,,,059,001,2019_May_23_1609,MusicAffectPsychophysiology2019,3.0.5,59.9549261259065,
To what extent did the music make you feel ,FRUSTRATED,,,,,,0,5,5,3,,,,,,,,,,,,,,,,,1,1.8508916070004489,,,059,001,2019_May_23_1609,MusicAffectPsychophysiology2019,3.0.5,59.9549261259065,
To what extent did the music make you feel ,ACTIVE,,,,,,0,6,6,9,,,,,,,,,,,,,,,,,3,2.3852184860006673,,,059,001,2019_May_23_1609,MusicAffectPsychophysiology2019,3.0.5,59.9549261259065,
To what extent did the music make you feel ,EXCITED,,,,,,0,7,7,7,,,,,,,,,,,,,,,,,4,1.5179664580009558,,,059,001,2019_May_23_1609,MusicAffectPsychophysiology2019,3.0.5,59.9549261259065,
To what extent did the music make you feel ,TENDER,,,,,,0,8,8,10,,,,,,,,,,,,,,,,,2,1.8342688329994417,,,059,001,2019_May_23_1609,MusicAffectPsychophysiology2019,3.0.5,59.9549261259065,
To what extent did the music make you feel ,SAD,,,,,,0,9,9,0,,,,,,,,,,,,,,,,,1,2.4178638760004105,,,059,001,2019_May_23_1609,MusicAffectPsychophysiology2019,3.0.5,59.9549261259065,
To what extent did the music make you feel ,ANXIOUS ,,,,,,0,10,10,1,,,,,,,,,,,,,,,,,1,3.5346682149993285,,,059,001,2019_May_23_1609,MusicAffectPsychophysiology2019,3.0.5,59.9549261259065,
To what extent did the music make you feel ,HAPPY,,,,,,0,11,11,6,,,,,,,,,,,,,,,,,4,3.718688203000056,,,059,001,2019_May_23_1609,MusicAffectPsychophysiology2019,3.0.5,59.9549261259065,
To what extent did the music make you feel ,HAPPY,30MonoWAV/30MonoS1.wav,1,1,3,9,,,,,0,0,0,8,0,0,0,6,,,2,3.9184197999984463,2,3.3511844580007164,3,2.168611429999146,2,1.9682030540006963,,,059,001,2019_May_23_1609,MusicAffectPsychophysiology2019,3.0.5,59.9549261259065,
To what extent did the music make you feel ,SCARED,30MonoWAV/30MonoS1.wav,1,1,3,9,,,,,0,0,0,8,0,1,1,11,,,,,,,,,1,2.151518752998527,,,059,001,2019_May_23_1609,MusicAffectPsychophysiology2019,3.0.5,59.9549261259065,
To what extent did the music make you feel ,SAD,30MonoWAV/30MonoS1.wav,1,1,3,9,,,,,0,0,0,8,0,2,2,0,,,,,,,,,2,1.4504414179991727,,,059,001,2019_May_23_1609,MusicAffectPsychophysiology2019,3.0.5,59.9549261259065,
To what extent did the music make you feel ,ALERT,30MonoWAV/30MonoS1.wav,1,1,3,9,,,,,0,0,0,8,0,3,3,8,,,,,,,,,3,2.901448275000803,,,059,001,2019_May_23_1609,MusicAffectPsychophysiology2019,3.0.5,59.9549261259065,
To what extent did the music make you feel ,ANXIOUS ,30MonoWAV/30MonoS1.wav,1,1,3,9,,,,,0,0,0,8,0,4,4,1,,,,,,,,,1,1.3008133219991578,,,059,001,2019_May_23_1609,MusicAffectPsychophysiology2019,3.0.5,59.9549261259065,
To what extent did the music make you feel ,GUILTY,30MonoWAV/30MonoS1.wav,1,1,3,9,,,,,0,0,0,8,0,5,5,5,,,,,,,,,1,0.9689025320003566,,,059,001,2019_May_23_1609,MusicAffectPsychophysiology2019,3.0.5,59.9549261259065,
To what extent did the music make you feel ,ACTIVE,30MonoWAV/30MonoS1.wav,1,1,3,9,,,,,0,0,0,8,0,6,6,9,,,,,,,,,2,3.1511353679998138,,,059,001,2019_May_23_1609,MusicAffectPsychophysiology2019,3.0.5,59.9549261259065,
To what extent did the music make you feel ,TENDER,30MonoWAV/30MonoS1.wav,1,1,3,9,,,,,0,0,0,8,0,7,7,10,,,,,,,,,1,1.501759132999723,,,059,001,2019_May_23_1609,MusicAffectPsychophysiology2019,3.0.5,59.9549261259065,
To what extent did the music make you feel ,FRUSTRATED,30MonoWAV/30MonoS1.wav,1,1,3,9,,,,,0,0,0,8,0,8,8,3,,,,,,,,,1,2.1191125760014984,,,059,001,2019_May_23_1609,MusicAffectPsychophysiology2019,3.0.5,59.9549261259065,
To what extent did the music make you feel ,ANGRY,30MonoWAV/30MonoS1.wav,1,1,3,9,,,,,0,0,0,8,0,9,9,2,,,,,,,,,1,2.70086098000138,,,059,001,2019_May_23_1609,MusicAffectPsychophysiology2019,3.0.5,59.9549261259065,
To what extent did the music make you feel ,EXCITED,30MonoWAV/30MonoS1.wav,1,1,3,9,,,,,0,0,0,8,0,10,10,7,,,,,,,,,1,2.4682593399993493,,,059,001,2019_May_23_1609,MusicAffectPsychophysiology2019,3.0.5,59.9549261259065,
To what extent did the music make you feel ,ASHAMED,30MonoWAV/30MonoS1.wav,1,1,3,9,,,,,0,0,0,8,0,11,11,4,,,,,,,,,1,2.507912278999356,,,059,001,2019_May_23_1609,MusicAffectPsychophysiology2019,3.0.5,59.9549261259065,
,,30MonoWAV/30MonoS1.wav,1,1,3,9,,,,,0,0,0,8,,,,,,,,,,,,,,,,,059,001,2019_May_23_1609,MusicAffectPsychophysiology2019,3.0.5,59.9549261259065,
To what extent did the music make you feel ,SCARED,30MonoWAV/30MonoF3.wav,1,2,2,3,,,,,0,1,1,2,0,0,0,11,,,3,5.784487715998694,2,2.3180786299999454,3,4.184131478999916,2,3.2179128879997734,,,059,001,2019_May_23_1609,MusicAffectPsychophysiology2019,3.0.5,59.9549261259065,
To what extent did the music make you feel ,ANGRY,30MonoWAV/30MonoF3.wav,1,2,2,3,,,,,0,1,1,2,0,1,1,2,,,,,,,,,1,1.2183294879996538,,,059,001,2019_May_23_1609,MusicAffectPsychophysiology2019,3.0.5,59.9549261259065,
To what extent did the music make you feel ,ANXIOUS ,30MonoWAV/30MonoF3.wav,1,2,2,3,,,,,0,1,1,2,0,2,2,1,,,,,,,,,2,1.067731796998487,,,059,001,2019_May_23_1609,MusicAffectPsychophysiology2019,3.0.5,59.9549261259065,
To what extent did the music make you feel ,FRUSTRATED,30MonoWAV/30MonoF3.wav,1,2,2,3,,,,,0,1,1,2,0,3,3,3,,,,,,,,,1,1.2519451419993857,,,059,001,2019_May_23_1609,MusicAffectPsychophysiology2019,3.0.5,59.9549261259065,
To what extent did the music make you feel ,HAPPY,30MonoWAV/30MonoF3.wav,1,2,2,3,,,,,0,1,1,2,0,4,4,6,,,,,,,,,1,2.1690856160003023,,,059,001,2019_May_23_1609,MusicAffectPsychophysiology2019,3.0.5,59.9549261259065,
To what extent did the music make you feel ,GUILTY,30MonoWAV/30MonoF3.wav,1,2,2,3,,,,,0,1,1,2,0,5,5,5,,,,,,,,,2,1.252006304999668,,,059,001,2019_May_23_1609,MusicAffectPsychophysiology2019,3.0.5,59.9549261259065,
To what extent did the music make you feel ,ASHAMED,30MonoWAV/30MonoF3.wav,1,2,2,3,,,,,0,1,1,2,0,6,6,4,,,,,,,,,1,1.0351035090006917,,,059,001,2019_May_23_1609,MusicAffectPsychophysiology2019,3.0.5,59.9549261259065,
To what extent did the music make you feel ,TENDER,30MonoWAV/30MonoF3.wav,1,2,2,3,,,,,0,1,1,2,0,7,7,10,,,,,,,,,1,2.0847112589999597,,,059,001,2019_May_23_1609,MusicAffectPsychophysiology2019,3.0.5,59.9549261259065,
To what extent did the music make you feel ,EXCITED,30MonoWAV/30MonoF3.wav,1,2,2,3,,,,,0,1,1,2,0,8,8,7,,,,,,,,,2,1.7674164210002345,,,059,001,2019_May_23_1609,MusicAffectPsychophysiology2019,3.0.5,59.9549261259065,
To what extent did the music make you feel ,SAD,30MonoWAV/30MonoF3.wav,1,2,2,3,,,,,0,1,1,2,0,9,9,0,,,,,,,,,1,0.8509160190005787,,,059,001,2019_May_23_1609,MusicAffectPsychophysiology2019,3.0.5,59.9549261259065,
To what extent did the music make you feel ,ALERT,30MonoWAV/30MonoF3.wav,1,2,2,3,,,,,0,1,1,2,0,10,10,8,,,,,,,,,3,1.4850694990000193,,,059,001,2019_May_23_1609,MusicAffectPsychophysiology2019,3.0.5,59.9549261259065,
To what extent did the music make you feel ,ACTIVE,30MonoWAV/30MonoF3.wav,1,2,2,3,,,,,0,1,1,2,0,11,11,9,,,,,,,,,2,3.2846582620004483,,,059,001,2019_May_23_1609,MusicAffectPsychophysiology2019,3.0.5,59.9549261259065,
,,30MonoWAV/30MonoF3.wav,1,2,2,3,,,,,0,1,1,2,,,,,,,,,,,,,,,,,059,001,2019_May_23_1609,MusicAffectPsychophysiology2019,3.0.5,59.9549261259065,
To what extent did the music make you feel ,ALERT,30MonoWAV/30MonoH4.wav,2,2,1,8,,,,,0,2,2,7,0,0,0,8,,,3,2.785281741998915,4,2.317218549000245,4,1.318601729000875,2,1.9514419340011955,,,059,001,2019_May_23_1609,MusicAffectPsychophysiology2019,3.0.5,59.9549261259065,
To what extent did the music make you feel ,ASHAMED,30MonoWAV/30MonoH4.wav,2,2,1,8,,,,,0,2,2,7,0,1,1,4,,,,,,,,,1,1.1349500239994086,,,059,001,2019_May_23_1609,MusicAffectPsychophysiology2019,3.0.5,59.9549261259065,
To what extent did the music make you feel ,EXCITED,30MonoWAV/30MonoH4.wav,2,2,1,8,,,,,0,2,2,7,0,2,2,7,,,,,,,,,3,1.3522370619994035,,,059,001,2019_May_23_1609,MusicAffectPsychophysiology2019,3.0.5,59.9549261259065,
To what extent did the music make you feel ,ANGRY,30MonoWAV/30MonoH4.wav,2,2,1,8,,,,,0,2,2,7,0,3,3,2,,,,,,,,,1,2.5682937419987866,,,059,001,2019_May_23_1609,MusicAffectPsychophysiology2019,3.0.5,59.9549261259065,
To what extent did the music make you feel ,HAPPY,30MonoWAV/30MonoH4.wav,2,2,1,8,,,,,0,2,2,7,0,4,4,6,,,,,,,,,4,1.1685859219996928,,,059,001,2019_May_23_1609,MusicAffectPsychophysiology2019,3.0.5,59.9549261259065,
To what extent did the music make you feel ,SCARED,30MonoWAV/30MonoH4.wav,2,2,1,8,,,,,0,2,2,7,0,5,5,11,,,,,,,,,1,1.6011253310007305,,,059,001,2019_May_23_1609,MusicAffectPsychophysiology2019,3.0.5,59.9549261259065,
To what extent did the music make you feel ,SAD,30MonoWAV/30MonoH4.wav,2,2,1,8,,,,,0,2,2,7,0,6,6,0,,,,,,,,,1,1.3350060650009254,,,059,001,2019_May_23_1609,MusicAffectPsychophysiology2019,3.0.5,59.9549261259065,
To what extent did the music make you feel ,GUILTY,30MonoWAV/30MonoH4.wav,2,2,1,8,,,,,0,2,2,7,0,7,7,5,,,,,,,,,1,1.335293152000304,,,059,001,2019_May_23_1609,MusicAffectPsychophysiology2019,3.0.5,59.9549261259065,
To what extent did the music make you feel ,TENDER,30MonoWAV/30MonoH4.wav,2,2,1,8,,,,,0,2,2,7,0,8,8,10,,,,,,,,,2,3.368357242001366,,,059,001,2019_May_23_1609,MusicAffectPsychophysiology2019,3.0.5,59.9549261259065,
To what extent did the music make you feel ,FRUSTRATED,30MonoWAV/30MonoH4.wav,2,2,1,8,,,,,0,2,2,7,0,9,9,3,,,,,,,,,1,2.0184110989994224,,,059,001,2019_May_23_1609,MusicAffectPsychophysiology2019,3.0.5,59.9549261259065,
To what extent did the music make you feel ,ACTIVE,30MonoWAV/30MonoH4.wav,2,2,1,8,,,,,0,2,2,7,0,10,10,9,,,,,,,,,4,2.16833295700053,,,059,001,2019_May_23_1609,MusicAffectPsychophysiology2019,3.0.5,59.9549261259065,
To what extent did the music make you feel ,ANXIOUS ,30MonoWAV/30MonoH4.wav,2,2,1,8,,,,,0,2,2,7,0,11,11,1,,,,,,,,,1,1.2521615770001517,,,059,001,2019_May_23_1609,MusicAffectPsychophysiology2019,3.0.5,59.9549261259065,
,,30MonoWAV/30MonoH4.wav,2,2,1,8,,,,,0,2,2,7,,,,,,,,,,,,,,,,,059,001,2019_May_23_1609,MusicAffectPsychophysiology2019,3.0.5,59.9549261259065,
To what extent did the music make you feel ,EXCITED,30MonoWAV/30MonoT2.wav,2,1,4,14,,,,,0,3,3,13,0,0,0,7,,,2,3.0549804140009655,3,2.603013870999348,4,3.316455655998652,2,1.8188536079996993,,,059,001,2019_May_23_1609,MusicAffectPsychophysiology2019,3.0.5,59.9549261259065,
To what extent did the music make you feel ,ALERT,30MonoWAV/30MonoT2.wav,2,1,4,14,,,,,0,3,3,13,0,1,1,8,,,,,,,,,1,1.3686224129996845,,,059,001,2019_May_23_1609,MusicAffectPsychophysiology2019,3.0.5,59.9549261259065,
To what extent did the music make you feel ,ASHAMED,30MonoWAV/30MonoT2.wav,2,1,4,14,,,,,0,3,3,13,0,2,2,4,,,,,,,,,1,3.2521446039991133,,,059,001,2019_May_23_1609,MusicAffectPsychophysiology2019,3.0.5,59.9549261259065,
To what extent did the music make you feel ,ANGRY,30MonoWAV/30MonoT2.wav,2,1,4,14,,,,,0,3,3,13,0,3,3,2,,,,,,,,,1,0.7027852299997903,,,059,001,2019_May_23_1609,MusicAffectPsychophysiology2019,3.0.5,59.9549261259065,
To what extent did the music make you feel ,SCARED,30MonoWAV/30MonoT2.wav,2,1,4,14,,,,,0,3,3,13,0,4,4,11,,,,,,,,,1,1.2001777610003046,,,059,001,2019_May_23_1609,MusicAffectPsychophysiology2019,3.0.5,59.9549261259065,
To what extent did the music make you feel ,HAPPY,30MonoWAV/30MonoT2.wav,2,1,4,14,,,,,0,3,3,13,0,5,5,6,,,,,,,,,4,2.086067637001179,,,059,001,2019_May_23_1609,MusicAffectPsychophysiology2019,3.0.5,59.9549261259065,
To what extent did the music make you feel ,ANXIOUS ,30MonoWAV/30MonoT2.wav,2,1,4,14,,,,,0,3,3,13,0,6,6,1,,,,,,,,,1,1.9353238130006503,,,059,001,2019_May_23_1609,MusicAffectPsychophysiology2019,3.0.5,59.9549261259065,
To what extent did the music make you feel ,ACTIVE,30MonoWAV/30MonoT2.wav,2,1,4,14,,,,,0,3,3,13,0,7,7,9,,,,,,,,,3,1.46774480699969,,,059,001,2019_May_23_1609,MusicAffectPsychophysiology2019,3.0.5,59.9549261259065,
To what extent did the music make you feel ,FRUSTRATED,30MonoWAV/30MonoT2.wav,2,1,4,14,,,,,0,3,3,13,0,8,8,3,,,,,,,,,1,1.8524393730003794,,,059,001,2019_May_23_1609,MusicAffectPsychophysiology2019,3.0.5,59.9549261259065,
To what extent did the music make you feel ,TENDER,30MonoWAV/30MonoT2.wav,2,1,4,14,,,,,0,3,3,13,0,9,9,10,,,,,,,,,2,1.6850192949987104,,,059,001,2019_May_23_1609,MusicAffectPsychophysiology2019,3.0.5,59.9549261259065,
To what extent did the music make you feel ,SAD,30MonoWAV/30MonoT2.wav,2,1,4,14,,,,,0,3,3,13,0,10,10,0,,,,,,,,,1,1.134169908000331,,,059,001,2019_May_23_1609,MusicAffectPsychophysiology2019,3.0.5,59.9549261259065,
To what extent did the music make you feel ,GUILTY,30MonoWAV/30MonoT2.wav,2,1,4,14,,,,,0,3,3,13,0,11,11,5,,,,,,,,,1,3.117861595001159,,,059,001,2019_May_23_1609,MusicAffectPsychophysiology2019,3.0.5,59.9549261259065,
,,30MonoWAV/30MonoT2.wav,2,1,4,14,,,,,0,3,3,13,,,,,,,,,,,,,,,,,059,001,2019_May_23_1609,MusicAffectPsychophysiology2019,3.0.5,59.9549261259065,
To what extent did the music make you feel ,GUILTY,30MonoWAV/30MonoT3.wav,2,1,4,15,,,,,0,4,4,14,0,0,0,5,,,2,3.422007573999508,2,2.103899352001463,3,1.7404683749991818,1,2.2678017750004074,,,059,001,2019_May_23_1609,MusicAffectPsychophysiology2019,3.0.5,59.9549261259065,
To what extent did the music make you feel ,ACTIVE,30MonoWAV/30MonoT3.wav,2,1,4,15,,,,,0,4,4,14,0,1,1,9,,,,,,,,,2,2.802046078000785,,,059,001,2019_May_23_1609,MusicAffectPsychophysiology2019,3.0.5,59.9549261259065,
To what extent did the music make you feel ,ANXIOUS ,30MonoWAV/30MonoT3.wav,2,1,4,15,,,,,0,4,4,14,0,2,2,1,,,,,,,,,2,1.306051371000649,,,059,001,2019_May_23_1609,MusicAffectPsychophysiology2019,3.0.5,59.9549261259065,
To what extent did the music make you feel ,ASHAMED,30MonoWAV/30MonoT3.wav,2,1,4,15,,,,,0,4,4,14,0,3,3,4,,,,,,,,,1,2.036933207000402,,,059,001,2019_May_23_1609,MusicAffectPsychophysiology2019,3.0.5,59.9549261259065,
To what extent did the music make you feel ,SAD,30MonoWAV/30MonoT3.wav,2,1,4,15,,,,,0,4,4,14,0,4,4,0,,,,,,,,,1,6.143796553998982,,,059,001,2019_May_23_1609,MusicAffectPsychophysiology2019,3.0.5,59.9549261259065,
To what extent did the music make you feel ,ALERT,30MonoWAV/30MonoT3.wav,2,1,4,15,,,,,0,4,4,14,0,5,5,8,,,,,,,,,1,4.934037665998403,,,059,001,2019_May_23_1609,MusicAffectPsychophysiology2019,3.0.5,59.9549261259065,
To what extent did the music make you feel ,ANGRY,30MonoWAV/30MonoT3.wav,2,1,4,15,,,,,0,4,4,14,0,6,6,2,,,,,,,,,1,1.3018250510012876,,,059,001,2019_May_23_1609,MusicAffectPsychophysiology2019,3.0.5,59.9549261259065,
To what extent did the music make you feel ,FRUSTRATED,30MonoWAV/30MonoT3.wav,2,1,4,15,,,,,0,4,4,14,0,7,7,3,,,,,,,,,1,1.41906899300011,,,059,001,2019_May_23_1609,MusicAffectPsychophysiology2019,3.0.5,59.9549261259065,
To what extent did the music make you feel ,SCARED,30MonoWAV/30MonoT3.wav,2,1,4,15,,,,,0,4,4,14,0,8,8,11,,,,,,,,,2,3.0679298590002873,,,059,001,2019_May_23_1609,MusicAffectPsychophysiology2019,3.0.5,59.9549261259065,
To what extent did the music make you feel ,EXCITED,30MonoWAV/30MonoT3.wav,2,1,4,15,,,,,0,4,4,14,0,9,9,7,,,,,,,,,2,1.502050553999652,,,059,001,2019_May_23_1609,MusicAffectPsychophysiology2019,3.0.5,59.9549261259065,
To what extent did the music make you feel ,TENDER,30MonoWAV/30MonoT3.wav,2,1,4,15,,,,,0,4,4,14,0,10,10,10,,,,,,,,,2,1.2008907569997973,,,059,001,2019_May_23_1609,MusicAffectPsychophysiology2019,3.0.5,59.9549261259065,
To what extent did the music make you feel ,HAPPY,30MonoWAV/30MonoT3.wav,2,1,4,15,,,,,0,4,4,14,0,11,11,6,,,,,,,,,2,1.766313882000759,,,059,001,2019_May_23_1609,MusicAffectPsychophysiology2019,3.0.5,59.9549261259065,
,,30MonoWAV/30MonoT3.wav,2,1,4,15,,,,,0,4,4,14,,,,,,,,,,,,,,,,,059,001,2019_May_23_1609,MusicAffectPsychophysiology2019,3.0.5,59.9549261259065,
To what extent did the music make you feel ,ANXIOUS ,30MonoWAV/30MonoS2.wav,1,1,3,10,,,,,0,5,5,9,0,0,0,1,,,1,2.48372200599988,2,1.4848008889985067,3,2.451130662999276,3,6.7189918189997115,,,059,001,2019_May_23_1609,MusicAffectPsychophysiology2019,3.0.5,59.9549261259065,
To what extent did the music make you feel ,ACTIVE,30MonoWAV/30MonoS2.wav,1,1,3,10,,,,,0,5,5,9,0,1,1,9,,,,,,,,,1,1.5846474380014115,,,059,001,2019_May_23_1609,MusicAffectPsychophysiology2019,3.0.5,59.9549261259065,
To what extent did the music make you feel ,ASHAMED,30MonoWAV/30MonoS2.wav,1,1,3,10,,,,,0,5,5,9,0,2,2,4,,,,,,,,,1,2.018708916999458,,,059,001,2019_May_23_1609,MusicAffectPsychophysiology2019,3.0.5,59.9549261259065,
To what extent did the music make you feel ,SCARED,30MonoWAV/30MonoS2.wav,1,1,3,10,,,,,0,5,5,9,0,3,3,11,,,,,,,,,2,1.0187335269984032,,,059,001,2019_May_23_1609,MusicAffectPsychophysiology2019,3.0.5,59.9549261259065,
To what extent did the music make you feel ,ANGRY,30MonoWAV/30MonoS2.wav,1,1,3,10,,,,,0,5,5,9,0,4,4,2,,,,,,,,,1,1.449828927999988,,,059,001,2019_May_23_1609,MusicAffectPsychophysiology2019,3.0.5,59.9549261259065,
To what extent did the music make you feel ,ALERT,30MonoWAV/30MonoS2.wav,1,1,3,10,,,,,0,5,5,9,0,5,5,8,,,,,,,,,3,1.8852792170000612,,,059,001,2019_May_23_1609,MusicAffectPsychophysiology2019,3.0.5,59.9549261259065,
To what extent did the music make you feel ,FRUSTRATED,30MonoWAV/30MonoS2.wav,1,1,3,10,,,,,0,5,5,9,0,6,6,3,,,,,,,,,1,1.7175091200006136,,,059,001,2019_May_23_1609,MusicAffectPsychophysiology2019,3.0.5,59.9549261259065,
To what extent did the music make you feel ,TENDER,30MonoWAV/30MonoS2.wav,1,1,3,10,,,,,0,5,5,9,0,7,7,10,,,,,,,,,2,1.5347806110003148,,,059,001,2019_May_23_1609,MusicAffectPsychophysiology2019,3.0.5,59.9549261259065,
To what extent did the music make you feel ,HAPPY,30MonoWAV/30MonoS2.wav,1,1,3,10,,,,,0,5,5,9,0,8,8,6,,,,,,,,,1,1.7521481109997694,,,059,001,2019_May_23_1609,MusicAffectPsychophysiology2019,3.0.5,59.9549261259065,
To what extent did the music make you feel ,GUILTY,30MonoWAV/30MonoS2.wav,1,1,3,10,,,,,0,5,5,9,0,9,9,5,,,,,,,,,1,3.5508363919998374,,,059,001,2019_May_23_1609,MusicAffectPsychophysiology2019,3.0.5,59.9549261259065,
To what extent did the music make you feel ,EXCITED,30MonoWAV/30MonoS2.wav,1,1,3,10,,,,,0,5,5,9,0,10,10,7,,,,,,,,,1,1.502633682999658,,,059,001,2019_May_23_1609,MusicAffectPsychophysiology2019,3.0.5,59.9549261259065,
To what extent did the music make you feel ,SAD,30MonoWAV/30MonoS2.wav,1,1,3,10,,,,,0,5,5,9,0,11,11,0,,,,,,,,,2,1.2348936420003156,,,059,001,2019_May_23_1609,MusicAffectPsychophysiology2019,3.0.5,59.9549261259065,
,,30MonoWAV/30MonoS2.wav,1,1,3,10,,,,,0,5,5,9,,,,,,,,,,,,,,,,,059,001,2019_May_23_1609,MusicAffectPsychophysiology2019,3.0.5,59.9549261259065,
To what extent did the music make you feel ,EXCITED,30MonoWAV/30MonoF4.wav,1,2,2,4,,,,,0,6,6,3,0,0,0,7,,,2,2.4522510839997267,1,3.9760805969999637,4,3.105472960000043,3,2.674045321999074,,,059,001,2019_May_23_1609,MusicAffectPsychophysiology2019,3.0.5,59.9549261259065,
To what extent did the music make you feel ,HAPPY,30MonoWAV/30MonoF4.wav,1,2,2,4,,,,,0,6,6,3,0,1,1,6,,,,,,,,,2,2.167990235999241,,,059,001,2019_May_23_1609,MusicAffectPsychophysiology2019,3.0.5,59.9549261259065,
To what extent did the music make you feel ,SCARED,30MonoWAV/30MonoF4.wav,1,2,2,4,,,,,0,6,6,3,0,2,2,11,,,,,,,,,2,2.085182361999614,,,059,001,2019_May_23_1609,MusicAffectPsychophysiology2019,3.0.5,59.9549261259065,
To what extent did the music make you feel ,FRUSTRATED,30MonoWAV/30MonoF4.wav,1,2,2,4,,,,,0,6,6,3,0,3,3,3,,,,,,,,,1,1.2515777400003572,,,059,001,2019_May_23_1609,MusicAffectPsychophysiology2019,3.0.5,59.9549261259065,
To what extent did the music make you feel ,ASHAMED,30MonoWAV/30MonoF4.wav,1,2,2,4,,,,,0,6,6,3,0,4,4,4,,,,,,,,,1,1.217988698001136,,,059,001,2019_May_23_1609,MusicAffectPsychophysiology2019,3.0.5,59.9549261259065,
To what extent did the music make you feel ,ANGRY,30MonoWAV/30MonoF4.wav,1,2,2,4,,,,,0,6,6,3,0,5,5,2,,,,,,,,,1,1.2352713130003394,,,059,001,2019_May_23_1609,MusicAffectPsychophysiology2019,3.0.5,59.9549261259065,
To what extent did the music make you feel ,TENDER,30MonoWAV/30MonoF4.wav,1,2,2,4,,,,,0,6,6,3,0,6,6,10,,,,,,,,,1,1.9683118590000959,,,059,001,2019_May_23_1609,MusicAffectPsychophysiology2019,3.0.5,59.9549261259065,
To what extent did the music make you feel ,ACTIVE,30MonoWAV/30MonoF4.wav,1,2,2,4,,,,,0,6,6,3,0,7,7,9,,,,,,,,,3,1.3023441690002073,,,059,001,2019_May_23_1609,MusicAffectPsychophysiology2019,3.0.5,59.9549261259065,
To what extent did the music make you feel ,ALERT,30MonoWAV/30MonoF4.wav,1,2,2,4,,,,,0,6,6,3,0,8,8,8,,,,,,,,,3,2.15263340599995,,,059,001,2019_May_23_1609,MusicAffectPsychophysiology2019,3.0.5,59.9549261259065,
To what extent did the music make you feel ,GUILTY,30MonoWAV/30MonoF4.wav,1,2,2,4,,,,,0,6,6,3,0,9,9,5,,,,,,,,,1,1.5004034550001961,,,059,001,2019_May_23_1609,MusicAffectPsychophysiology2019,3.0.5,59.9549261259065,
To what extent did the music make you feel ,ANXIOUS ,30MonoWAV/30MonoF4.wav,1,2,2,4,,,,,0,6,6,3,0,10,10,1,,,,,,,,,2,3.052127966999251,,,059,001,2019_May_23_1609,MusicAffectPsychophysiology2019,3.0.5,59.9549261259065,
To what extent did the music make you feel ,SAD,30MonoWAV/30MonoF4.wav,1,2,2,4,,,,,0,6,6,3,0,11,11,0,,,,,,,,,1,2.100699890999749,,,059,001,2019_May_23_1609,MusicAffectPsychophysiology2019,3.0.5,59.9549261259065,
,,30MonoWAV/30MonoF4.wav,1,2,2,4,,,,,0,6,6,3,,,,,,,,,,,,,,,,,059,001,2019_May_23_1609,MusicAffectPsychophysiology2019,3.0.5,59.9549261259065,
To what extent did the music make you feel ,GUILTY,30MonoWAV/30MonoF1.wav,1,2,2,1,,,,,0,7,7,0,0,0,0,5,,,2,5.917846385000303,1,2.0503141650006,2,2.782806621000418,1,1.2849556810015201,,,059,001,2019_May_23_1609,MusicAffectPsychophysiology2019,3.0.5,59.9549261259065,
To what extent did the music make you feel ,ACTIVE,30MonoWAV/30MonoF1.wav,1,2,2,1,,,,,0,7,7,0,0,1,1,9,,,,,,,,,2,1.1343293490008364,,,059,001,2019_May_23_1609,MusicAffectPsychophysiology2019,3.0.5,59.9549261259065,
To what extent did the music make you feel ,SAD,30MonoWAV/30MonoF1.wav,1,2,2,1,,,,,0,7,7,0,0,2,2,0,,,,,,,,,1,1.800562444001116,,,059,001,2019_May_23_1609,MusicAffectPsychophysiology2019,3.0.5,59.9549261259065,
To what extent did the music make you feel ,FRUSTRATED,30MonoWAV/30MonoF1.wav,1,2,2,1,,,,,0,7,7,0,0,3,3,3,,,,,,,,,2,1.219129791999876,,,059,001,2019_May_23_1609,MusicAffectPsychophysiology2019,3.0.5,59.9549261259065,
To what extent did the music make you feel ,TENDER,30MonoWAV/30MonoF1.wav,1,2,2,1,,,,,0,7,7,0,0,4,4,10,,,,,,,,,1,1.0678660590001527,,,059,001,2019_May_23_1609,MusicAffectPsychophysiology2019,3.0.5,59.9549261259065,
To what extent did the music make you feel ,ANGRY,30MonoWAV/30MonoF1.wav,1,2,2,1,,,,,0,7,7,0,0,5,5,2,,,,,,,,,2,2.3685277109998424,,,059,001,2019_May_23_1609,MusicAffectPsychophysiology2019,3.0.5,59.9549261259065,
To what extent did the music make you feel ,ANXIOUS ,30MonoWAV/30MonoF1.wav,1,2,2,1,,,,,0,7,7,0,0,6,6,1,,,,,,,,,3,2.5356525639999745,,,059,001,2019_May_23_1609,MusicAffectPsychophysiology2019,3.0.5,59.9549261259065,
To what extent did the music make you feel ,ASHAMED,30MonoWAV/30MonoF1.wav,1,2,2,1,,,,,0,7,7,0,0,7,7,4,,,,,,,,,1,2.0180192139996507,,,059,001,2019_May_23_1609,MusicAffectPsychophysiology2019,3.0.5,59.9549261259065,
To what extent did the music make you feel ,HAPPY,30MonoWAV/30MonoF1.wav,1,2,2,1,,,,,0,7,7,0,0,8,8,6,,,,,,,,,1,1.41752050300056,,,059,001,2019_May_23_1609,MusicAffectPsychophysiology2019,3.0.5,59.9549261259065,
To what extent did the music make you feel ,ALERT,30MonoWAV/30MonoF1.wav,1,2,2,1,,,,,0,7,7,0,0,9,9,8,,,,,,,,,3,1.5842496280001797,,,059,001,2019_May_23_1609,MusicAffectPsychophysiology2019,3.0.5,59.9549261259065,
To what extent did the music make you feel ,SCARED,30MonoWAV/30MonoF1.wav,1,2,2,1,,,,,0,7,7,0,0,10,10,11,,,,,,,,,2,1.233369004999986,,,059,001,2019_May_23_1609,MusicAffectPsychophysiology2019,3.0.5,59.9549261259065,
To what extent did the music make you feel ,EXCITED,30MonoWAV/30MonoF1.wav,1,2,2,1,,,,,0,7,7,0,0,11,11,7,,,,,,,,,1,1.3518453399992723,,,059,001,2019_May_23_1609,MusicAffectPsychophysiology2019,3.0.5,59.9549261259065,
,,30MonoWAV/30MonoF1.wav,1,2,2,1,,,,,0,7,7,0,,,,,,,,,,,,,,,,,059,001,2019_May_23_1609,MusicAffectPsychophysiology2019,3.0.5,59.9549261259065,
To what extent did the music make you feel ,ASHAMED,30MonoWAV/30MonoS3.wav,1,1,3,11,,,,,0,8,8,10,0,0,0,4,,,1,6.950939247999486,1,3.4354835730009654,1,3.5190244100012933,2,3.4666958270008763,,,059,001,2019_May_23_1609,MusicAffectPsychophysiology2019,3.0.5,59.9549261259065,
To what extent did the music make you feel ,ACTIVE,30MonoWAV/30MonoS3.wav,1,1,3,11,,,,,0,8,8,10,0,1,1,9,,,,,,,,,1,1.302203205999831,,,059,001,2019_May_23_1609,MusicAffectPsychophysiology2019,3.0.5,59.9549261259065,
To what extent did the music make you feel ,SAD,30MonoWAV/30MonoS3.wav,1,1,3,11,,,,,0,8,8,10,0,2,2,0,,,,,,,,,3,1.7515028369998618,,,059,001,2019_May_23_1609,MusicAffectPsychophysiology2019,3.0.5,59.9549261259065,
To what extent did the music make you feel ,ANXIOUS ,30MonoWAV/30MonoS3.wav,1,1,3,11,,,,,0,8,8,10,0,3,3,1,,,,,,,,,2,1.2349160649991973,,,059,001,2019_May_23_1609,MusicAffectPsychophysiology2019,3.0.5,59.9549261259065,
To what extent did the music make you feel ,FRUSTRATED,30MonoWAV/30MonoS3.wav,1,1,3,11,,,,,0,8,8,10,0,4,4,3,,,,,,,,,1,1.76739690300019,,,059,001,2019_May_23_1609,MusicAffectPsychophysiology2019,3.0.5,59.9549261259065,
To what extent did the music make you feel ,EXCITED,30MonoWAV/30MonoS3.wav,1,1,3,11,,,,,0,8,8,10,0,5,5,7,,,,,,,,,1,1.5502985380007885,,,059,001,2019_May_23_1609,MusicAffectPsychophysiology2019,3.0.5,59.9549261259065,
To what extent did the music make you feel ,ANGRY,30MonoWAV/30MonoS3.wav,1,1,3,11,,,,,0,8,8,10,0,6,6,2,,,,,,,,,1,1.3693820369990135,,,059,001,2019_May_23_1609,MusicAffectPsychophysiology2019,3.0.5,59.9549261259065,
To what extent did the music make you feel ,TENDER,30MonoWAV/30MonoS3.wav,1,1,3,11,,,,,0,8,8,10,0,7,7,10,,,,,,,,,2,1.4680933469990123,,,059,001,2019_May_23_1609,MusicAffectPsychophysiology2019,3.0.5,59.9549261259065,
To what extent did the music make you feel ,ALERT,30MonoWAV/30MonoS3.wav,1,1,3,11,,,,,0,8,8,10,0,8,8,8,,,,,,,,,4,2.517943243001355,,,059,001,2019_May_23_1609,MusicAffectPsychophysiology2019,3.0.5,59.9549261259065,
To what extent did the music make you feel ,HAPPY,30MonoWAV/30MonoS3.wav,1,1,3,11,,,,,0,8,8,10,0,9,9,6,,,,,,,,,1,4.01867575200049,,,059,001,2019_May_23_1609,MusicAffectPsychophysiology2019,3.0.5,59.9549261259065,
To what extent did the music make you feel ,GUILTY,30MonoWAV/30MonoS3.wav,1,1,3,11,,,,,0,8,8,10,0,10,10,5,,,,,,,,,2,2.1688321069996164,,,059,001,2019_May_23_1609,MusicAffectPsychophysiology2019,3.0.5,59.9549261259065,
To what extent did the music make you feel ,SCARED,30MonoWAV/30MonoS3.wav,1,1,3,11,,,,,0,8,8,10,0,11,11,11,,,,,,,,,3,1.4340379330005817,,,059,001,2019_May_23_1609,MusicAffectPsychophysiology2019,3.0.5,59.9549261259065,
,,30MonoWAV/30MonoS3.wav,1,1,3,11,,,,,0,8,8,10,,,,,,,,,,,,,,,,,059,001,2019_May_23_1609,MusicAffectPsychophysiology2019,3.0.5,59.9549261259065,
To what extent did the music make you feel ,TENDER,30MonoWAV/30MonoH1.wav,2,2,1,5,,,,,0,9,9,4,0,0,0,10,,,2,2.501702972000203,3,2.735500671000409,4,1.4019680350011186,2,4.483316539000953,,,059,001,2019_May_23_1609,MusicAffectPsychophysiology2019,3.0.5,59.9549261259065,
To what extent did the music make you feel ,FRUSTRATED,30MonoWAV/30MonoH1.wav,2,2,1,5,,,,,0,9,9,4,0,1,1,3,,,,,,,,,1,0.9339994849997311,,,059,001,2019_May_23_1609,MusicAffectPsychophysiology2019,3.0.5,59.9549261259065,
To what extent did the music make you feel ,ALERT,30MonoWAV/30MonoH1.wav,2,2,1,5,,,,,0,9,9,4,0,2,2,8,,,,,,,,,1,3.9686009180004476,,,059,001,2019_May_23_1609,MusicAffectPsychophysiology2019,3.0.5,59.9549261259065,
To what extent did the music make you feel ,ACTIVE,30MonoWAV/30MonoH1.wav,2,2,1,5,,,,,0,9,9,4,0,3,3,9,,,,,,,,,4,1.4841367779990833,,,059,001,2019_May_23_1609,MusicAffectPsychophysiology2019,3.0.5,59.9549261259065,
To what extent did the music make you feel ,SCARED,30MonoWAV/30MonoH1.wav,2,2,1,5,,,,,0,9,9,4,0,4,4,11,,,,,,,,,1,1.4014133179989585,,,059,001,2019_May_23_1609,MusicAffectPsychophysiology2019,3.0.5,59.9549261259065,
To what extent did the music make you feel ,SAD,30MonoWAV/30MonoH1.wav,2,2,1,5,,,,,0,9,9,4,0,5,5,0,,,,,,,,,1,1.6354093549998652,,,059,001,2019_May_23_1609,MusicAffectPsychophysiology2019,3.0.5,59.9549261259065,
To what extent did the music make you feel ,GUILTY,30MonoWAV/30MonoH1.wav,2,2,1,5,,,,,0,9,9,4,0,6,6,5,,,,,,,,,1,2.102682177001043,,,059,001,2019_May_23_1609,MusicAffectPsychophysiology2019,3.0.5,59.9549261259065,
To what extent did the music make you feel ,EXCITED,30MonoWAV/30MonoH1.wav,2,2,1,5,,,,,0,9,9,4,0,7,7,7,,,,,,,,,4,1.4341331960004027,,,059,001,2019_May_23_1609,MusicAffectPsychophysiology2019,3.0.5,59.9549261259065,
To what extent did the music make you feel ,ASHAMED,30MonoWAV/30MonoH1.wav,2,2,1,5,,,,,0,9,9,4,0,8,8,4,,,,,,,,,1,1.368456359999982,,,059,001,2019_May_23_1609,MusicAffectPsychophysiology2019,3.0.5,59.9549261259065,
To what extent did the music make you feel ,ANXIOUS ,30MonoWAV/30MonoH1.wav,2,2,1,5,,,,,0,9,9,4,0,9,9,1,,,,,,,,,2,1.3188562520008418,,,059,001,2019_May_23_1609,MusicAffectPsychophysiology2019,3.0.5,59.9549261259065,
To what extent did the music make you feel ,ANGRY,30MonoWAV/30MonoH1.wav,2,2,1,5,,,,,0,9,9,4,0,10,10,2,,,,,,,,,1,1.3190296930006298,,,059,001,2019_May_23_1609,MusicAffectPsychophysiology2019,3.0.5,59.9549261259065,
To what extent did the music make you feel ,HAPPY,30MonoWAV/30MonoH1.wav,2,2,1,5,,,,,0,9,9,4,0,11,11,6,,,,,,,,,3,3.101731798999026,,,059,001,2019_May_23_1609,MusicAffectPsychophysiology2019,3.0.5,59.9549261259065,
,,30MonoWAV/30MonoH1.wav,2,2,1,5,,,,,0,9,9,4,,,,,,,,,,,,,,,,,059,001,2019_May_23_1609,MusicAffectPsychophysiology2019,3.0.5,59.9549261259065,
To what extent did the music make you feel ,ANGRY,30MonoWAV/30MonoF2.wav,1,2,2,2,,,,,0,10,10,1,0,0,0,2,,,3,1.8169402179992176,1,2.7679751769992436,3,5.801167711999369,1,1.8841083600000275,,,059,001,2019_May_23_1609,MusicAffectPsychophysiology2019,3.0.5,59.9549261259065,
To what extent did the music make you feel ,GUILTY,30MonoWAV/30MonoF2.wav,1,2,2,2,,,,,0,10,10,1,0,1,1,5,,,,,,,,,2,1.101837718999377,,,059,001,2019_May_23_1609,MusicAffectPsychophysiology2019,3.0.5,59.9549261259065,
To what extent did the music make you feel ,EXCITED,30MonoWAV/30MonoF2.wav,1,2,2,2,,,,,0,10,10,1,0,2,2,7,,,,,,,,,1,1.3354668720003247,,,059,001,2019_May_23_1609,MusicAffectPsychophysiology2019,3.0.5,59.9549261259065,
To what extent did the music make you feel ,ASHAMED,30MonoWAV/30MonoF2.wav,1,2,2,2,,,,,0,10,10,1,0,3,3,4,,,,,,,,,2,1.0177476340013527,,,059,001,2019_May_23_1609,MusicAffectPsychophysiology2019,3.0.5,59.9549261259065,
To what extent did the music make you feel ,ANXIOUS ,30MonoWAV/30MonoF2.wav,1,2,2,2,,,,,0,10,10,1,0,4,4,1,,,,,,,,,4,2.4688631459994212,,,059,001,2019_May_23_1609,MusicAffectPsychophysiology2019,3.0.5,59.9549261259065,
To what extent did the music make you feel ,HAPPY,30MonoWAV/30MonoF2.wav,1,2,2,2,,,,,0,10,10,1,0,5,5,6,,,,,,,,,1,2.1680854669994005,,,059,001,2019_May_23_1609,MusicAffectPsychophysiology2019,3.0.5,59.9549261259065,
To what extent did the music make you feel ,SCARED,30MonoWAV/30MonoF2.wav,1,2,2,2,,,,,0,10,10,1,0,6,6,11,,,,,,,,,4,1.3514379119988007,,,059,001,2019_May_23_1609,MusicAffectPsychophysiology2019,3.0.5,59.9549261259065,
To what extent did the music make you feel ,ACTIVE,30MonoWAV/30MonoF2.wav,1,2,2,2,,,,,0,10,10,1,0,7,7,9,,,,,,,,,2,2.085703648001072,,,059,001,2019_May_23_1609,MusicAffectPsychophysiology2019,3.0.5,59.9549261259065,
To what extent did the music make you feel ,FRUSTRATED,30MonoWAV/30MonoF2.wav,1,2,2,2,,,,,0,10,10,1,0,8,8,3,,,,,,,,,1,1.2514778260010644,,,059,001,2019_May_23_1609,MusicAffectPsychophysiology2019,3.0.5,59.9549261259065,
To what extent did the music make you feel ,TENDER,30MonoWAV/30MonoF2.wav,1,2,2,2,,,,,0,10,10,1,0,9,9,10,,,,,,,,,1,1.1512663289995544,,,059,001,2019_May_23_1609,MusicAffectPsychophysiology2019,3.0.5,59.9549261259065,
To what extent did the music make you feel ,SAD,30MonoWAV/30MonoF2.wav,1,2,2,2,,,,,0,10,10,1,0,10,10,0,,,,,,,,,1,2.3499125830003322,,,059,001,2019_May_23_1609,MusicAffectPsychophysiology2019,3.0.5,59.9549261259065,
To what extent did the music make you feel ,ALERT,30MonoWAV/30MonoF2.wav,1,2,2,2,,,,,0,10,10,1,0,11,11,8,,,,,,,,,3,1.2321360580008331,,,059,001,2019_May_23_1609,MusicAffectPsychophysiology2019,3.0.5,59.9549261259065,
,,30MonoWAV/30MonoF2.wav,1,2,2,2,,,,,0,10,10,1,,,,,,,,,,,,,,,,,059,001,2019_May_23_1609,MusicAffectPsychophysiology2019,3.0.5,59.9549261259065,
To what extent did the music make you feel ,ALERT,30MonoWAV/30MonoT1.wav,2,1,4,13,,,,,0,11,11,12,0,0,0,8,,,1,4.167579109998769,2,1.7013997779995407,2,1.635670002000552,2,6.418505248000656,,,059,001,2019_May_23_1609,MusicAffectPsychophysiology2019,3.0.5,59.9549261259065,
To what extent did the music make you feel ,ANGRY,30MonoWAV/30MonoT1.wav,2,1,4,13,,,,,0,11,11,12,0,1,1,2,,,,,,,,,1,1.5353512889996637,,,059,001,2019_May_23_1609,MusicAffectPsychophysiology2019,3.0.5,59.9549261259065,
To what extent did the music make you feel ,SAD,30MonoWAV/30MonoT1.wav,2,1,4,13,,,,,0,11,11,12,0,2,2,0,,,,,,,,,2,1.2359384339997632,,,059,001,2019_May_23_1609,MusicAffectPsychophysiology2019,3.0.5,59.9549261259065,
To what extent did the music make you feel ,GUILTY,30MonoWAV/30MonoT1.wav,2,1,4,13,,,,,0,11,11,12,0,3,3,5,,,,,,,,,3,1.9686000390011031,,,059,001,2019_May_23_1609,MusicAffectPsychophysiology2019,3.0.5,59.9549261259065,
To what extent did the music make you feel ,ACTIVE,30MonoWAV/30MonoT1.wav,2,1,4,13,,,,,0,11,11,12,0,4,4,9,,,,,,,,,1,1.6849914810009068,,,059,001,2019_May_23_1609,MusicAffectPsychophysiology2019,3.0.5,59.9549261259065,
To what extent did the music make you feel ,ANXIOUS ,30MonoWAV/30MonoT1.wav,2,1,4,13,,,,,0,11,11,12,0,5,5,1,,,,,,,,,1,3.0009389229999215,,,059,001,2019_May_23_1609,MusicAffectPsychophysiology2019,3.0.5,59.9549261259065,
To what extent did the music make you feel ,HAPPY,30MonoWAV/30MonoT1.wav,2,1,4,13,,,,,0,11,11,12,0,6,6,6,,,,,,,,,2,2.335299763000876,,,059,001,2019_May_23_1609,MusicAffectPsychophysiology2019,3.0.5,59.9549261259065,
To what extent did the music make you feel ,SCARED,30MonoWAV/30MonoT1.wav,2,1,4,13,,,,,0,11,11,12,0,7,7,11,,,,,,,,,2,1.7503538820001268,,,059,001,2019_May_23_1609,MusicAffectPsychophysiology2019,3.0.5,59.9549261259065,
To what extent did the music make you feel ,FRUSTRATED,30MonoWAV/30MonoT1.wav,2,1,4,13,,,,,0,11,11,12,0,8,8,3,,,,,,,,,1,0.8681166909991589,,,059,001,2019_May_23_1609,MusicAffectPsychophysiology2019,3.0.5,59.9549261259065,
To what extent did the music make you feel ,EXCITED,30MonoWAV/30MonoT1.wav,2,1,4,13,,,,,0,11,11,12,0,9,9,7,,,,,,,,,2,1.0163546179992409,,,059,001,2019_May_23_1609,MusicAffectPsychophysiology2019,3.0.5,59.9549261259065,
To what extent did the music make you feel ,TENDER,30MonoWAV/30MonoT1.wav,2,1,4,13,,,,,0,11,11,12,0,10,10,10,,,,,,,,,1,1.7846260539990908,,,059,001,2019_May_23_1609,MusicAffectPsychophysiology2019,3.0.5,59.9549261259065,
To what extent did the music make you feel ,ASHAMED,30MonoWAV/30MonoT1.wav,2,1,4,13,,,,,0,11,11,12,0,11,11,4,,,,,,,,,1,2.484646711000096,,,059,001,2019_May_23_1609,MusicAffectPsychophysiology2019,3.0.5,59.9549261259065,
,,30MonoWAV/30MonoT1.wav,2,1,4,13,,,,,0,11,11,12,,,,,,,,,,,,,,,,,059,001,2019_May_23_1609,MusicAffectPsychophysiology2019,3.0.5,59.9549261259065,
To what extent did the music make you feel ,EXCITED,30MonoWAV/30MonoS4.wav,1,1,3,12,,,,,0,12,12,11,0,0,0,7,,,1,4.3015513209993514,1,1.7680814870000177,1,1.6505292910005664,1,1.2180534500002977,,,059,001,2019_May_23_1609,MusicAffectPsychophysiology2019,3.0.5,59.9549261259065,
To what extent did the music make you feel ,ALERT,30MonoWAV/30MonoS4.wav,1,1,3,12,,,,,0,12,12,11,0,1,1,8,,,,,,,,,2,1.2687745090006501,,,059,001,2019_May_23_1609,MusicAffectPsychophysiology2019,3.0.5,59.9549261259065,
To what extent did the music make you feel ,SAD,30MonoWAV/30MonoS4.wav,1,1,3,12,,,,,0,12,12,11,0,2,2,0,,,,,,,,,3,1.8683640229992307,,,059,001,2019_May_23_1609,MusicAffectPsychophysiology2019,3.0.5,59.9549261259065,
To what extent did the music make you feel ,GUILTY,30MonoWAV/30MonoS4.wav,1,1,3,12,,,,,0,12,12,11,0,3,3,5,,,,,,,,,2,1.0181668309996894,,,059,001,2019_May_23_1609,MusicAffectPsychophysiology2019,3.0.5,59.9549261259065,
To what extent did the music make you feel ,HAPPY,30MonoWAV/30MonoS4.wav,1,1,3,12,,,,,0,12,12,11,0,4,4,6,,,,,,,,,1,1.0019353280003997,,,059,001,2019_May_23_1609,MusicAffectPsychophysiology2019,3.0.5,59.9549261259065,
To what extent did the music make you feel ,SCARED,30MonoWAV/30MonoS4.wav,1,1,3,12,,,,,0,12,12,11,0,5,5,11,,,,,,,,,2,2.4678811300000234,,,059,001,2019_May_23_1609,MusicAffectPsychophysiology2019,3.0.5,59.9549261259065,
To what extent did the music make you feel ,ACTIVE,30MonoWAV/30MonoS4.wav,1,1,3,12,,,,,0,12,12,11,0,6,6,9,,,,,,,,,1,1.3496971460008353,,,059,001,2019_May_23_1609,MusicAffectPsychophysiology2019,3.0.5,59.9549261259065,
To what extent did the music make you feel ,ANXIOUS ,30MonoWAV/30MonoS4.wav,1,1,3,12,,,,,0,12,12,11,0,7,7,1,,,,,,,,,3,1.3018175409997639,,,059,001,2019_May_23_1609,MusicAffectPsychophysiology2019,3.0.5,59.9549261259065,
To what extent did the music make you feel ,TENDER,30MonoWAV/30MonoS4.wav,1,1,3,12,,,,,0,12,12,11,0,8,8,10,,,,,,,,,1,1.2342576629998803,,,059,001,2019_May_23_1609,MusicAffectPsychophysiology2019,3.0.5,59.9549261259065,
To what extent did the music make you feel ,ASHAMED,30MonoWAV/30MonoS4.wav,1,1,3,12,,,,,0,12,12,11,0,9,9,4,,,,,,,,,2,1.6325765479996335,,,059,001,2019_May_23_1609,MusicAffectPsychophysiology2019,3.0.5,59.9549261259065,
To what extent did the music make you feel ,FRUSTRATED,30MonoWAV/30MonoS4.wav,1,1,3,12,,,,,0,12,12,11,0,10,10,3,,,,,,,,,1,1.0014372500008903,,,059,001,2019_May_23_1609,MusicAffectPsychophysiology2019,3.0.5,59.9549261259065,
To what extent did the music make you feel ,ANGRY,30MonoWAV/30MonoS4.wav,1,1,3,12,,,,,0,12,12,11,0,11,11,2,,,,,,,,,1,1.6189842969997699,,,059,001,2019_May_23_1609,MusicAffectPsychophysiology2019,3.0.5,59.9549261259065,
,,30MonoWAV/30MonoS4.wav,1,1,3,12,,,,,0,12,12,11,,,,,,,,,,,,,,,,,059,001,2019_May_23_1609,MusicAffectPsychophysiology2019,3.0.5,59.9549261259065,
To what extent did the music make you feel ,ASHAMED,30MonoWAV/30MonoT4.wav,2,1,4,16,,,,,0,13,13,15,0,0,0,4,,,2,6.151313034999475,1,1.883571366999604,3,2.417799004999324,1,2.0681552160003775,,,059,001,2019_May_23_1609,MusicAffectPsychophysiology2019,3.0.5,59.9549261259065,
To what extent did the music make you feel ,TENDER,30MonoWAV/30MonoT4.wav,2,1,4,16,,,,,0,13,13,15,0,1,1,10,,,,,,,,,2,0.8861321339991264,,,059,001,2019_May_23_1609,MusicAffectPsychophysiology2019,3.0.5,59.9549261259065,
To what extent did the music make you feel ,ACTIVE,30MonoWAV/30MonoT4.wav,2,1,4,16,,,,,0,13,13,15,0,2,2,9,,,,,,,,,1,1.5847292609996657,,,059,001,2019_May_23_1609,MusicAffectPsychophysiology2019,3.0.5,59.9549261259065,
To what extent did the music make you feel ,ALERT,30MonoWAV/30MonoT4.wav,2,1,4,16,,,,,0,13,13,15,0,3,3,8,,,,,,,,,1,1.4187314480004716,,,059,001,2019_May_23_1609,MusicAffectPsychophysiology2019,3.0.5,59.9549261259065,
To what extent did the music make you feel ,SAD,30MonoWAV/30MonoT4.wav,2,1,4,16,,,,,0,13,13,15,0,4,4,0,,,,,,,,,2,1.6169364609995682,,,059,001,2019_May_23_1609,MusicAffectPsychophysiology2019,3.0.5,59.9549261259065,
To what extent did the music make you feel ,ANGRY,30MonoWAV/30MonoT4.wav,2,1,4,16,,,,,0,13,13,15,0,5,5,2,,,,,,,,,1,1.28479982799945,,,059,001,2019_May_23_1609,MusicAffectPsychophysiology2019,3.0.5,59.9549261259065,
To what extent did the music make you feel ,SCARED,30MonoWAV/30MonoT4.wav,2,1,4,16,,,,,0,13,13,15,0,6,6,11,,,,,,,,,1,1.1356576260004658,,,059,001,2019_May_23_1609,MusicAffectPsychophysiology2019,3.0.5,59.9549261259065,
To what extent did the music make you feel ,ANXIOUS ,30MonoWAV/30MonoT4.wav,2,1,4,16,,,,,0,13,13,15,0,7,7,1,,,,,,,,,1,2.501136751001468,,,059,001,2019_May_23_1609,MusicAffectPsychophysiology2019,3.0.5,59.9549261259065,
To what extent did the music make you feel ,GUILTY,30MonoWAV/30MonoT4.wav,2,1,4,16,,,,,0,13,13,15,0,8,8,5,,,,,,,,,2,1.0358685439987312,,,059,001,2019_May_23_1609,MusicAffectPsychophysiology2019,3.0.5,59.9549261259065,
To what extent did the music make you feel ,HAPPY,30MonoWAV/30MonoT4.wav,2,1,4,16,,,,,0,13,13,15,0,9,9,6,,,,,,,,,1,1.184472041000845,,,059,001,2019_May_23_1609,MusicAffectPsychophysiology2019,3.0.5,59.9549261259065,
To what extent did the music make you feel ,EXCITED,30MonoWAV/30MonoT4.wav,2,1,4,16,,,,,0,13,13,15,0,10,10,7,,,,,,,,,3,4.084907321999708,,,059,001,2019_May_23_1609,MusicAffectPsychophysiology2019,3.0.5,59.9549261259065,
To what extent did the music make you feel ,FRUSTRATED,30MonoWAV/30MonoT4.wav,2,1,4,16,,,,,0,13,13,15,0,11,11,3,,,,,,,,,1,0.9844867459996749,,,059,001,2019_May_23_1609,MusicAffectPsychophysiology2019,3.0.5,59.9549261259065,
,,30MonoWAV/30MonoT4.wav,2,1,4,16,,,,,0,13,13,15,,,,,,,,,,,,,,,,,059,001,2019_May_23_1609,MusicAffectPsychophysiology2019,3.0.5,59.9549261259065,
To what extent did the music make you feel ,SCARED,30MonoWAV/30MonoH3.wav,2,2,1,7,,,,,0,14,14,6,0,0,0,11,,,2,2.1738113760002307,2,7.4338330249993305,3,1.5349097749985958,1,1.635145399999601,,,059,001,2019_May_23_1609,MusicAffectPsychophysiology2019,3.0.5,59.9549261259065,
To what extent did the music make you feel ,ACTIVE,30MonoWAV/30MonoH3.wav,2,2,1,7,,,,,0,14,14,6,0,1,1,9,,,,,,,,,3,1.1352670310006943,,,059,001,2019_May_23_1609,MusicAffectPsychophysiology2019,3.0.5,59.9549261259065,
To what extent did the music make you feel ,ASHAMED,30MonoWAV/30MonoH3.wav,2,2,1,7,,,,,0,14,14,6,0,2,2,4,,,,,,,,,1,1.9195296769994457,,,059,001,2019_May_23_1609,MusicAffectPsychophysiology2019,3.0.5,59.9549261259065,
To what extent did the music make you feel ,GUILTY,30MonoWAV/30MonoH3.wav,2,2,1,7,,,,,0,14,14,6,0,3,3,5,,,,,,,,,1,0.8353840740001033,,,059,001,2019_May_23_1609,MusicAffectPsychophysiology2019,3.0.5,59.9549261259065,
To what extent did the music make you feel ,ANXIOUS ,30MonoWAV/30MonoH3.wav,2,2,1,7,,,,,0,14,14,6,0,4,4,1,,,,,,,,,2,2.134702749999633,,,059,001,2019_May_23_1609,MusicAffectPsychophysiology2019,3.0.5,59.9549261259065,
To what extent did the music make you feel ,HAPPY,30MonoWAV/30MonoH3.wav,2,2,1,7,,,,,0,14,14,6,0,5,5,6,,,,,,,,,3,1.8187763349997113,,,059,001,2019_May_23_1609,MusicAffectPsychophysiology2019,3.0.5,59.9549261259065,
To what extent did the music make you feel ,TENDER,30MonoWAV/30MonoH3.wav,2,2,1,7,,,,,0,14,14,6,0,6,6,10,,,,,,,,,1,2.2850549459999456,,,059,001,2019_May_23_1609,MusicAffectPsychophysiology2019,3.0.5,59.9549261259065,
To what extent did the music make you feel ,FRUSTRATED,30MonoWAV/30MonoH3.wav,2,2,1,7,,,,,0,14,14,6,0,7,7,3,,,,,,,,,1,1.1833957040016685,,,059,001,2019_May_23_1609,MusicAffectPsychophysiology2019,3.0.5,59.9549261259065,
To what extent did the music make you feel ,ANGRY,30MonoWAV/30MonoH3.wav,2,2,1,7,,,,,0,14,14,6,0,8,8,2,,,,,,,,,1,0.8181132570007321,,,059,001,2019_May_23_1609,MusicAffectPsychophysiology2019,3.0.5,59.9549261259065,
To what extent did the music make you feel ,EXCITED,30MonoWAV/30MonoH3.wav,2,2,1,7,,,,,0,14,14,6,0,9,9,7,,,,,,,,,4,1.5502831020003214,,,059,001,2019_May_23_1609,MusicAffectPsychophysiology2019,3.0.5,59.9549261259065,
To what extent did the music make you feel ,SAD,30MonoWAV/30MonoH3.wav,2,2,1,7,,,,,0,14,14,6,0,10,10,0,,,,,,,,,1,1.234984788001384,,,059,001,2019_May_23_1609,MusicAffectPsychophysiology2019,3.0.5,59.9549261259065,
To what extent did the music make you feel ,ALERT,30MonoWAV/30MonoH3.wav,2,2,1,7,,,,,0,14,14,6,0,11,11,8,,,,,,,,,3,3.266987101000268,,,059,001,2019_May_23_1609,MusicAffectPsychophysiology2019,3.0.5,59.9549261259065,
,,30MonoWAV/30MonoH3.wav,2,2,1,7,,,,,0,14,14,6,,,,,,,,,,,,,,,,,059,001,2019_May_23_1609,MusicAffectPsychophysiology2019,3.0.5,59.9549261259065,
To what extent did the music make you feel ,GUILTY,30MonoWAV/30MonoH2.wav,2,2,1,6,,,,,0,15,15,5,0,0,0,5,,,2,6.201489146998938,2,1.5676585710007203,3,1.0358217190005234,1,1.8341316999994888,,,059,001,2019_May_23_1609,MusicAffectPsychophysiology2019,3.0.5,59.9549261259065,
To what extent did the music make you feel ,ANGRY,30MonoWAV/30MonoH2.wav,2,2,1,6,,,,,0,15,15,5,0,1,1,2,,,,,,,,,1,1.3003687689997605,,,059,001,2019_May_23_1609,MusicAffectPsychophysiology2019,3.0.5,59.9549261259065,
To what extent did the music make you feel ,EXCITED,30MonoWAV/30MonoH2.wav,2,2,1,6,,,,,0,15,15,5,0,2,2,7,,,,,,,,,1,1.8685994190000201,,,059,001,2019_May_23_1609,MusicAffectPsychophysiology2019,3.0.5,59.9549261259065,
To what extent did the music make you feel ,ACTIVE,30MonoWAV/30MonoH2.wav,2,2,1,6,,,,,0,15,15,5,0,3,3,9,,,,,,,,,3,2.23436568499892,,,059,001,2019_May_23_1609,MusicAffectPsychophysiology2019,3.0.5,59.9549261259065,
To what extent did the music make you feel ,HAPPY,30MonoWAV/30MonoH2.wav,2,2,1,6,,,,,0,15,15,5,0,4,4,6,,,,,,,,,2,1.1350924970010965,,,059,001,2019_May_23_1609,MusicAffectPsychophysiology2019,3.0.5,59.9549261259065,
To what extent did the music make you feel ,SAD,30MonoWAV/30MonoH2.wav,2,2,1,6,,,,,0,15,15,5,0,5,5,0,,,,,,,,,1,2.1845703050003067,,,059,001,2019_May_23_1609,MusicAffectPsychophysiology2019,3.0.5,59.9549261259065,
To what extent did the music make you feel ,ALERT,30MonoWAV/30MonoH2.wav,2,2,1,6,,,,,0,15,15,5,0,6,6,8,,,,,,,,,3,1.8842732349985454,,,059,001,2019_May_23_1609,MusicAffectPsychophysiology2019,3.0.5,59.9549261259065,
To what extent did the music make you feel ,TENDER,30MonoWAV/30MonoH2.wav,2,2,1,6,,,,,0,15,15,5,0,7,7,10,,,,,,,,,1,1.284713731998636,,,059,001,2019_May_23_1609,MusicAffectPsychophysiology2019,3.0.5,59.9549261259065,
To what extent did the music make you feel ,ANXIOUS ,30MonoWAV/30MonoH2.wav,2,2,1,6,,,,,0,15,15,5,0,8,8,1,,,,,,,,,1,2.8675732070005324,,,059,001,2019_May_23_1609,MusicAffectPsychophysiology2019,3.0.5,59.9549261259065,
To what extent did the music make you feel ,FRUSTRATED,30MonoWAV/30MonoH2.wav,2,2,1,6,,,,,0,15,15,5,0,9,9,3,,,,,,,,,1,0.9510255209988827,,,059,001,2019_May_23_1609,MusicAffectPsychophysiology2019,3.0.5,59.9549261259065,
To what extent did the music make you feel ,SCARED,30MonoWAV/30MonoH2.wav,2,2,1,6,,,,,0,15,15,5,0,10,10,11,,,,,,,,,1,4.960742582999956,,,059,001,2019_May_23_1609,MusicAffectPsychophysiology2019,3.0.5,59.9549261259065,
To what extent did the music make you feel ,ASHAMED,30MonoWAV/30MonoH2.wav,2,2,1,6,,,,,0,15,15,5,0,11,11,4,,,,,,,,,1,0.8864496459991642,,,059,001,2019_May_23_1609,MusicAffectPsychophysiology2019,3.0.5,59.9549261259065,
,,30MonoWAV/30MonoH2.wav,2,2,1,6,,,,,0,15,15,5,,,,,,,,,,,,,,,,,059,001,2019_May_23_1609,MusicAffectPsychophysiology2019,3.0.5,59.9549261259065,
To what extent did the music make you feel ,ANXIOUS ,30MonoWAV/30MonoH4.wav,2,2,1,8,,,,,1,0,16,7,0,0,0,1,,,3,1.9681070830010867,4,2.33363264000036,4,1.3861444350004604,1,4.068502690999594,,,059,001,2019_May_23_1609,MusicAffectPsychophysiology2019,3.0.5,59.9549261259065,
To what extent did the music make you feel ,ALERT,30MonoWAV/30MonoH4.wav,2,2,1,8,,,,,1,0,16,7,0,1,1,8,,,,,,,,,2,1.6846835240012297,,,059,001,2019_May_23_1609,MusicAffectPsychophysiology2019,3.0.5,59.9549261259065,
To what extent did the music make you feel ,TENDER,30MonoWAV/30MonoH4.wav,2,2,1,8,,,,,1,0,16,7,0,2,2,10,,,,,,,,,2,1.4183478470004047,,,059,001,2019_May_23_1609,MusicAffectPsychophysiology2019,3.0.5,59.9549261259065,
To what extent did the music make you feel ,ACTIVE,30MonoWAV/30MonoH4.wav,2,2,1,8,,,,,1,0,16,7,0,3,3,9,,,,,,,,,3,1.6844170829990617,,,059,001,2019_May_23_1609,MusicAffectPsychophysiology2019,3.0.5,59.9549261259065,
To what extent did the music make you feel ,SCARED,30MonoWAV/30MonoH4.wav,2,2,1,8,,,,,1,0,16,7,0,4,4,11,,,,,,,,,1,1.2364331429998856,,,059,001,2019_May_23_1609,MusicAffectPsychophysiology2019,3.0.5,59.9549261259065,
To what extent did the music make you feel ,ANGRY,30MonoWAV/30MonoH4.wav,2,2,1,8,,,,,1,0,16,7,0,5,5,2,,,,,,,,,1,0.9682351650008059,,,059,001,2019_May_23_1609,MusicAffectPsychophysiology2019,3.0.5,59.9549261259065,
To what extent did the music make you feel ,FRUSTRATED,30MonoWAV/30MonoH4.wav,2,2,1,8,,,,,1,0,16,7,0,6,6,3,,,,,,,,,1,0.9352531189997535,,,059,001,2019_May_23_1609,MusicAffectPsychophysiology2019,3.0.5,59.9549261259065,
To what extent did the music make you feel ,EXCITED,30MonoWAV/30MonoH4.wav,2,2,1,8,,,,,1,0,16,7,0,7,7,7,,,,,,,,,3,2.100169179999284,,,059,001,2019_May_23_1609,MusicAffectPsychophysiology2019,3.0.5,59.9549261259065,
To what extent did the music make you feel ,GUILTY,30MonoWAV/30MonoH4.wav,2,2,1,8,,,,,1,0,16,7,0,8,8,5,,,,,,,,,1,0.9352927890013234,,,059,001,2019_May_23_1609,MusicAffectPsychophysiology2019,3.0.5,59.9549261259065,
To what extent did the music make you feel ,HAPPY,30MonoWAV/30MonoH4.wav,2,2,1,8,,,,,1,0,16,7,0,9,9,6,,,,,,,,,4,1.0691315200001554,,,059,001,2019_May_23_1609,MusicAffectPsychophysiology2019,3.0.5,59.9549261259065,
To what extent did the music make you feel ,SAD,30MonoWAV/30MonoH4.wav,2,2,1,8,,,,,1,0,16,7,0,10,10,0,,,,,,,,,1,0.95093536999957,,,059,001,2019_May_23_1609,MusicAffectPsychophysiology2019,3.0.5,59.9549261259065,
To what extent did the music make you feel ,ASHAMED,30MonoWAV/30MonoH4.wav,2,2,1,8,,,,,1,0,16,7,0,11,11,4,,,,,,,,,1,1.1354050619993359,,,059,001,2019_May_23_1609,MusicAffectPsychophysiology2019,3.0.5,59.9549261259065,
,,30MonoWAV/30MonoH4.wav,2,2,1,8,,,,,1,0,16,7,,,,,,,,,,,,,,,,,059,001,2019_May_23_1609,MusicAffectPsychophysiology2019,3.0.5,59.9549261259065,
To what extent did the music make you feel ,HAPPY,30MonoWAV/30MonoH2.wav,2,2,1,6,,,,,1,1,17,5,0,0,0,6,,,2,3.3518932339993626,3,1.7020485590001044,3,1.6173012070012192,3,1.6353012210001907,,,059,001,2019_May_23_1609,MusicAffectPsychophysiology2019,3.0.5,59.9549261259065,
To what extent did the music make you feel ,SAD,30MonoWAV/30MonoH2.wav,2,2,1,6,,,,,1,1,17,5,0,1,1,0,,,,,,,,,1,1.534576971000206,,,059,001,2019_May_23_1609,MusicAffectPsychophysiology2019,3.0.5,59.9549261259065,
To what extent did the music make you feel ,TENDER,30MonoWAV/30MonoH2.wav,2,2,1,6,,,,,1,1,17,5,0,2,2,10,,,,,,,,,1,1.1506203890003235,,,059,001,2019_May_23_1609,MusicAffectPsychophysiology2019,3.0.5,59.9549261259065,
To what extent did the music make you feel ,SCARED,30MonoWAV/30MonoH2.wav,2,2,1,6,,,,,1,1,17,5,0,3,3,11,,,,,,,,,1,0.9352672029999667,,,059,001,2019_May_23_1609,MusicAffectPsychophysiology2019,3.0.5,59.9549261259065,
To what extent did the music make you feel ,ALERT,30MonoWAV/30MonoH2.wav,2,2,1,6,,,,,1,1,17,5,0,4,4,8,,,,,,,,,2,0.9497641010002553,,,059,001,2019_May_23_1609,MusicAffectPsychophysiology2019,3.0.5,59.9549261259065,
To what extent did the music make you feel ,GUILTY,30MonoWAV/30MonoH2.wav,2,2,1,6,,,,,1,1,17,5,0,5,5,5,,,,,,,,,1,1.7853522000004887,,,059,001,2019_May_23_1609,MusicAffectPsychophysiology2019,3.0.5,59.9549261259065,
To what extent did the music make you feel ,ACTIVE,30MonoWAV/30MonoH2.wav,2,2,1,6,,,,,1,1,17,5,0,6,6,9,,,,,,,,,3,2.55149801099833,,,059,001,2019_May_23_1609,MusicAffectPsychophysiology2019,3.0.5,59.9549261259065,
To what extent did the music make you feel ,ANGRY,30MonoWAV/30MonoH2.wav,2,2,1,6,,,,,1,1,17,5,0,7,7,2,,,,,,,,,1,0.9016897279998375,,,059,001,2019_May_23_1609,MusicAffectPsychophysiology2019,3.0.5,59.9549261259065,
To what extent did the music make you feel ,ANXIOUS ,30MonoWAV/30MonoH2.wav,2,2,1,6,,,,,1,1,17,5,0,8,8,1,,,,,,,,,1,1.8178420379990712,,,059,001,2019_May_23_1609,MusicAffectPsychophysiology2019,3.0.5,59.9549261259065,
To what extent did the music make you feel ,ASHAMED,30MonoWAV/30MonoH2.wav,2,2,1,6,,,,,1,1,17,5,0,9,9,4,,,,,,,,,1,1.0684595799993986,,,059,001,2019_May_23_1609,MusicAffectPsychophysiology2019,3.0.5,59.9549261259065,
To what extent did the music make you feel ,FRUSTRATED,30MonoWAV/30MonoH2.wav,2,2,1,6,,,,,1,1,17,5,0,10,10,3,,,,,,,,,1,0.8163273539994407,,,059,001,2019_May_23_1609,MusicAffectPsychophysiology2019,3.0.5,59.9549261259065,
To what extent did the music make you feel ,EXCITED,30MonoWAV/30MonoH2.wav,2,2,1,6,,,,,1,1,17,5,0,11,11,7,,,,,,,,,2,2.0351686899994093,,,059,001,2019_May_23_1609,MusicAffectPsychophysiology2019,3.0.5,59.9549261259065,
,,30MonoWAV/30MonoH2.wav,2,2,1,6,,,,,1,1,17,5,,,,,,,,,,,,,,,,,059,001,2019_May_23_1609,MusicAffectPsychophysiology2019,3.0.5,59.9549261259065,
To what extent did the music make you feel ,EXCITED,30MonoWAV/30MonoS4.wav,1,1,3,12,,,,,1,2,18,11,0,0,0,7,,,1,7.493313954999394,1,1.820599853001113,2,1.9232935899999575,1,1.4681265330000315,,,059,001,2019_May_23_1609,MusicAffectPsychophysiology2019,3.0.5,59.9549261259065,
To what extent did the music make you feel ,ALERT,30MonoWAV/30MonoS4.wav,1,1,3,12,,,,,1,2,18,11,0,1,1,8,,,,,,,,,2,1.153847539999333,,,059,001,2019_May_23_1609,MusicAffectPsychophysiology2019,3.0.5,59.9549261259065,
To what extent did the music make you feel ,ANXIOUS ,30MonoWAV/30MonoS4.wav,1,1,3,12,,,,,1,2,18,11,0,2,2,1,,,,,,,,,2,3.0678474710002774,,,059,001,2019_May_23_1609,MusicAffectPsychophysiology2019,3.0.5,59.9549261259065,
To what extent did the music make you feel ,ACTIVE,30MonoWAV/30MonoS4.wav,1,1,3,12,,,,,1,2,18,11,0,3,3,9,,,,,,,,,1,1.151443382999787,,,059,001,2019_May_23_1609,MusicAffectPsychophysiology2019,3.0.5,59.9549261259065,
To what extent did the music make you feel ,SCARED,30MonoWAV/30MonoS4.wav,1,1,3,12,,,,,1,2,18,11,0,4,4,11,,,,,,,,,2,1.635312251999494,,,059,001,2019_May_23_1609,MusicAffectPsychophysiology2019,3.0.5,59.9549261259065,
To what extent did the music make you feel ,HAPPY,30MonoWAV/30MonoS4.wav,1,1,3,12,,,,,1,2,18,11,0,5,5,6,,,,,,,,,1,1.268342205999943,,,059,001,2019_May_23_1609,MusicAffectPsychophysiology2019,3.0.5,59.9549261259065,
To what extent did the music make you feel ,GUILTY,30MonoWAV/30MonoS4.wav,1,1,3,12,,,,,1,2,18,11,0,6,6,5,,,,,,,,,3,1.3853422669999418,,,059,001,2019_May_23_1609,MusicAffectPsychophysiology2019,3.0.5,59.9549261259065,
To what extent did the music make you feel ,ASHAMED,30MonoWAV/30MonoS4.wav,1,1,3,12,,,,,1,2,18,11,0,7,7,4,,,,,,,,,2,1.4013383589990553,,,059,001,2019_May_23_1609,MusicAffectPsychophysiology2019,3.0.5,59.9549261259065,
To what extent did the music make you feel ,TENDER,30MonoWAV/30MonoS4.wav,1,1,3,12,,,,,1,2,18,11,0,8,8,10,,,,,,,,,2,1.6350879419987905,,,059,001,2019_May_23_1609,MusicAffectPsychophysiology2019,3.0.5,59.9549261259065,
To what extent did the music make you feel ,FRUSTRATED,30MonoWAV/30MonoS4.wav,1,1,3,12,,,,,1,2,18,11,0,9,9,3,,,,,,,,,1,0.9170042010009638,,,059,001,2019_May_23_1609,MusicAffectPsychophysiology2019,3.0.5,59.9549261259065,
To what extent did the music make you feel ,ANGRY,30MonoWAV/30MonoS4.wav,1,1,3,12,,,,,1,2,18,11,0,10,10,2,,,,,,,,,1,1.01933801999985,,,059,001,2019_May_23_1609,MusicAffectPsychophysiology2019,3.0.5,59.9549261259065,
To what extent did the music make you feel ,SAD,30MonoWAV/30MonoS4.wav,1,1,3,12,,,,,1,2,18,11,0,11,11,0,,,,,,,,,4,1.7354462399998738,,,059,001,2019_May_23_1609,MusicAffectPsychophysiology2019,3.0.5,59.9549261259065,
,,30MonoWAV/30MonoS4.wav,1,1,3,12,,,,,1,2,18,11,,,,,,,,,,,,,,,,,059,001,2019_May_23_1609,MusicAffectPsychophysiology2019,3.0.5,59.9549261259065,
To what extent did the music make you feel ,ASHAMED,30MonoWAV/30MonoS2.wav,1,1,3,10,,,,,1,3,19,9,0,0,0,4,,,1,2.4520125110011577,1,2.418128350000188,2,2.0844638210000994,1,3.185147161999339,,,059,001,2019_May_23_1609,MusicAffectPsychophysiology2019,3.0.5,59.9549261259065,
To what extent did the music make you feel ,ANXIOUS ,30MonoWAV/30MonoS2.wav,1,1,3,10,,,,,1,3,19,9,0,1,1,1,,,,,,,,,2,1.333814015999451,,,059,001,2019_May_23_1609,MusicAffectPsychophysiology2019,3.0.5,59.9549261259065,
To what extent did the music make you feel ,SAD,30MonoWAV/30MonoS2.wav,1,1,3,10,,,,,1,3,19,9,0,2,2,0,,,,,,,,,4,1.86785421499917,,,059,001,2019_May_23_1609,MusicAffectPsychophysiology2019,3.0.5,59.9549261259065,
To what extent did the music make you feel ,FRUSTRATED,30MonoWAV/30MonoS2.wav,1,1,3,10,,,,,1,3,19,9,0,3,3,3,,,,,,,,,1,1.5687166810002964,,,059,001,2019_May_23_1609,MusicAffectPsychophysiology2019,3.0.5,59.9549261259065,
To what extent did the music make you feel ,ACTIVE,30MonoWAV/30MonoS2.wav,1,1,3,10,,,,,1,3,19,9,0,4,4,9,,,,,,,,,1,0.9183790130009584,,,059,001,2019_May_23_1609,MusicAffectPsychophysiology2019,3.0.5,59.9549261259065,
To what extent did the music make you feel ,GUILTY,30MonoWAV/30MonoS2.wav,1,1,3,10,,,,,1,3,19,9,0,5,5,5,,,,,,,,,3,1.284469039999749,,,059,001,2019_May_23_1609,MusicAffectPsychophysiology2019,3.0.5,59.9549261259065,
To what extent did the music make you feel ,HAPPY,30MonoWAV/30MonoS2.wav,1,1,3,10,,,,,1,3,19,9,0,6,6,6,,,,,,,,,1,2.23525093599892,,,059,001,2019_May_23_1609,MusicAffectPsychophysiology2019,3.0.5,59.9549261259065,
To what extent did the music make you feel ,TENDER,30MonoWAV/30MonoS2.wav,1,1,3,10,,,,,1,3,19,9,0,7,7,10,,,,,,,,,2,1.0022875880003994,,,059,001,2019_May_23_1609,MusicAffectPsychophysiology2019,3.0.5,59.9549261259065,
To what extent did the music make you feel ,ALERT,30MonoWAV/30MonoS2.wav,1,1,3,10,,,,,1,3,19,9,0,8,8,8,,,,,,,,,1,1.0679560859989579,,,059,001,2019_May_23_1609,MusicAffectPsychophysiology2019,3.0.5,59.9549261259065,
To what extent did the music make you feel ,SCARED,30MonoWAV/30MonoS2.wav,1,1,3,10,,,,,1,3,19,9,0,9,9,11,,,,,,,,,2,2.9514975780002715,,,059,001,2019_May_23_1609,MusicAffectPsychophysiology2019,3.0.5,59.9549261259065,
To what extent did the music make you feel ,EXCITED,30MonoWAV/30MonoS2.wav,1,1,3,10,,,,,1,3,19,9,0,10,10,7,,,,,,,,,1,1.1523973149996891,,,059,001,2019_May_23_1609,MusicAffectPsychophysiology2019,3.0.5,59.9549261259065,
To what extent did the music make you feel ,ANGRY,30MonoWAV/30MonoS2.wav,1,1,3,10,,,,,1,3,19,9,0,11,11,2,,,,,,,,,1,1.3188508399998682,,,059,001,2019_May_23_1609,MusicAffectPsychophysiology2019,3.0.5,59.9549261259065,
,,30MonoWAV/30MonoS2.wav,1,1,3,10,,,,,1,3,19,9,,,,,,,,,,,,,,,,,059,001,2019_May_23_1609,MusicAffectPsychophysiology2019,3.0.5,59.9549261259065,
To what extent did the music make you feel ,ACTIVE,30MonoWAV/30MonoS3.wav,1,1,3,11,,,,,1,4,20,10,0,0,0,9,,,1,2.4845140720008203,1,2.2678904610002064,2,3.667918825000015,1,1.2180719129992212,,,059,001,2019_May_23_1609,MusicAffectPsychophysiology2019,3.0.5,59.9549261259065,
To what extent did the music make you feel ,SAD,30MonoWAV/30MonoS3.wav,1,1,3,11,,,,,1,4,20,10,0,1,1,0,,,,,,,,,3,1.5014003589985805,,,059,001,2019_May_23_1609,MusicAffectPsychophysiology2019,3.0.5,59.9549261259065,
To what extent did the music make you feel ,ALERT,30MonoWAV/30MonoS3.wav,1,1,3,11,,,,,1,4,20,10,0,2,2,8,,,,,,,,,1,1.65114400299899,,,059,001,2019_May_23_1609,MusicAffectPsychophysiology2019,3.0.5,59.9549261259065,
To what extent did the music make you feel ,FRUSTRATED,30MonoWAV/30MonoS3.wav,1,1,3,11,,,,,1,4,20,10,0,3,3,3,,,,,,,,,2,1.485280803999558,,,059,001,2019_May_23_1609,MusicAffectPsychophysiology2019,3.0.5,59.9549261259065,
To what extent did the music make you feel ,ASHAMED,30MonoWAV/30MonoS3.wav,1,1,3,11,,,,,1,4,20,10,0,4,4,4,,,,,,,,,2,2.8006227590012713,,,059,001,2019_May_23_1609,MusicAffectPsychophysiology2019,3.0.5,59.9549261259065,
To what extent did the music make you feel ,EXCITED,30MonoWAV/30MonoS3.wav,1,1,3,11,,,,,1,4,20,10,0,5,5,7,,,,,,,,,1,1.1191100460000598,,,059,001,2019_May_23_1609,MusicAffectPsychophysiology2019,3.0.5,59.9549261259065,
To what extent did the music make you feel ,GUILTY,30MonoWAV/30MonoS3.wav,1,1,3,11,,,,,1,4,20,10,0,6,6,5,,,,,,,,,2,1.0679450900006486,,,059,001,2019_May_23_1609,MusicAffectPsychophysiology2019,3.0.5,59.9549261259065,
To what extent did the music make you feel ,HAPPY,30MonoWAV/30MonoS3.wav,1,1,3,11,,,,,1,4,20,10,0,7,7,6,,,,,,,,,1,0.8849683799999184,,,059,001,2019_May_23_1609,MusicAffectPsychophysiology2019,3.0.5,59.9549261259065,
To what extent did the music make you feel ,ANXIOUS ,30MonoWAV/30MonoS3.wav,1,1,3,11,,,,,1,4,20,10,0,8,8,1,,,,,,,,,3,1.7840402550009458,,,059,001,2019_May_23_1609,MusicAffectPsychophysiology2019,3.0.5,59.9549261259065,
To what extent did the music make you feel ,ANGRY,30MonoWAV/30MonoS3.wav,1,1,3,11,,,,,1,4,20,10,0,9,9,2,,,,,,,,,1,0.9179261670014967,,,059,001,2019_May_23_1609,MusicAffectPsychophysiology2019,3.0.5,59.9549261259065,
To what extent did the music make you feel ,SCARED,30MonoWAV/30MonoS3.wav,1,1,3,11,,,,,1,4,20,10,0,10,10,11,,,,,,,,,2,1.835444952999751,,,059,001,2019_May_23_1609,MusicAffectPsychophysiology2019,3.0.5,59.9549261259065,
To what extent did the music make you feel ,TENDER,30MonoWAV/30MonoS3.wav,1,1,3,11,,,,,1,4,20,10,0,11,11,10,,,,,,,,,1,1.983776201001092,,,059,001,2019_May_23_1609,MusicAffectPsychophysiology2019,3.0.5,59.9549261259065,
,,30MonoWAV/30MonoS3.wav,1,1,3,11,,,,,1,4,20,10,,,,,,,,,,,,,,,,,059,001,2019_May_23_1609,MusicAffectPsychophysiology2019,3.0.5,59.9549261259065,
To what extent did the music make you feel ,SCARED,30MonoWAV/30MonoS1.wav,1,1,3,9,,,,,1,5,21,8,0,0,0,11,,,1,3.98543590600093,1,3.968636461000642,2,5.052099991000432,1,1.3007802230004017,,,059,001,2019_May_23_1609,MusicAffectPsychophysiology2019,3.0.5,59.9549261259065,
To what extent did the music make you feel ,TENDER,30MonoWAV/30MonoS1.wav,1,1,3,9,,,,,1,5,21,8,0,1,1,10,,,,,,,,,2,1.6519628550013294,,,059,001,2019_May_23_1609,MusicAffectPsychophysiology2019,3.0.5,59.9549261259065,
To what extent did the music make you feel ,HAPPY,30MonoWAV/30MonoS1.wav,1,1,3,9,,,,,1,5,21,8,0,2,2,6,,,,,,,,,1,1.3351895659998263,,,059,001,2019_May_23_1609,MusicAffectPsychophysiology2019,3.0.5,59.9549261259065,
To what extent did the music make you feel ,ANXIOUS ,30MonoWAV/30MonoS1.wav,1,1,3,9,,,,,1,5,21,8,0,3,3,1,,,,,,,,,3,1.7850374529989494,,,059,001,2019_May_23_1609,MusicAffectPsychophysiology2019,3.0.5,59.9549261259065,
To what extent did the music make you feel ,ANGRY,30MonoWAV/30MonoS1.wav,1,1,3,9,,,,,1,5,21,8,0,4,4,2,,,,,,,,,1,1.5669650789986918,,,059,001,2019_May_23_1609,MusicAffectPsychophysiology2019,3.0.5,59.9549261259065,
To what extent did the music make you feel ,ALERT,30MonoWAV/30MonoS1.wav,1,1,3,9,,,,,1,5,21,8,0,5,5,8,,,,,,,,,2,1.1190221830001974,,,059,001,2019_May_23_1609,MusicAffectPsychophysiology2019,3.0.5,59.9549261259065,
To what extent did the music make you feel ,FRUSTRATED,30MonoWAV/30MonoS1.wav,1,1,3,9,,,,,1,5,21,8,0,6,6,3,,,,,,,,,1,1.1356187450001016,,,059,001,2019_May_23_1609,MusicAffectPsychophysiology2019,3.0.5,59.9549261259065,
To what extent did the music make you feel ,EXCITED,30MonoWAV/30MonoS1.wav,1,1,3,9,,,,,1,5,21,8,0,7,7,7,,,,,,,,,1,1.0180864129997644,,,059,001,2019_May_23_1609,MusicAffectPsychophysiology2019,3.0.5,59.9549261259065,
To what extent did the music make you feel ,GUILTY,30MonoWAV/30MonoS1.wav,1,1,3,9,,,,,1,5,21,8,0,8,8,5,,,,,,,,,3,1.6515451790000952,,,059,001,2019_May_23_1609,MusicAffectPsychophysiology2019,3.0.5,59.9549261259065,
To what extent did the music make you feel ,ASHAMED,30MonoWAV/30MonoS1.wav,1,1,3,9,,,,,1,5,21,8,0,9,9,4,,,,,,,,,2,1.5188667479997093,,,059,001,2019_May_23_1609,MusicAffectPsychophysiology2019,3.0.5,59.9549261259065,
To what extent did the music make you feel ,SAD,30MonoWAV/30MonoS1.wav,1,1,3,9,,,,,1,5,21,8,0,10,10,0,,,,,,,,,4,1.8012492100006057,,,059,001,2019_May_23_1609,MusicAffectPsychophysiology2019,3.0.5,59.9549261259065,
To what extent did the music make you feel ,ACTIVE,30MonoWAV/30MonoS1.wav,1,1,3,9,,,,,1,5,21,8,0,11,11,9,,,,,,,,,1,1.0015030020003906,,,059,001,2019_May_23_1609,MusicAffectPsychophysiology2019,3.0.5,59.9549261259065,
,,30MonoWAV/30MonoS1.wav,1,1,3,9,,,,,1,5,21,8,,,,,,,,,,,,,,,,,059,001,2019_May_23_1609,MusicAffectPsychophysiology2019,3.0.5,59.9549261259065,
To what extent did the music make you feel ,ANXIOUS ,30MonoWAV/30MonoH1.wav,2,2,1,5,,,,,1,6,22,4,0,0,0,1,,,4,5.343552741000167,4,5.101475223000307,4,1.3686536719997093,1,2.684259898000164,,,059,001,2019_May_23_1609,MusicAffectPsychophysiology2019,3.0.5,59.9549261259065,
To what extent did the music make you feel ,ACTIVE,30MonoWAV/30MonoH1.wav,2,2,1,5,,,,,1,6,22,4,0,1,1,9,,,,,,,,,3,5.0512698179991276,,,059,001,2019_May_23_1609,MusicAffectPsychophysiology2019,3.0.5,59.9549261259065,
To what extent did the music make you feel ,HAPPY,30MonoWAV/30MonoH1.wav,2,2,1,5,,,,,1,6,22,4,0,2,2,6,,,,,,,,,3,1.2002282920002472,,,059,001,2019_May_23_1609,MusicAffectPsychophysiology2019,3.0.5,59.9549261259065,
To what extent did the music make you feel ,FRUSTRATED,30MonoWAV/30MonoH1.wav,2,2,1,5,,,,,1,6,22,4,0,3,3,3,,,,,,,,,1,1.3017895259999932,,,059,001,2019_May_23_1609,MusicAffectPsychophysiology2019,3.0.5,59.9549261259065,
To what extent did the music make you feel ,EXCITED,30MonoWAV/30MonoH1.wav,2,2,1,5,,,,,1,6,22,4,0,4,4,7,,,,,,,,,3,1.901406908998979,,,059,001,2019_May_23_1609,MusicAffectPsychophysiology2019,3.0.5,59.9549261259065,
To what extent did the music make you feel ,TENDER,30MonoWAV/30MonoH1.wav,2,2,1,5,,,,,1,6,22,4,0,5,5,10,,,,,,,,,2,1.366738163998889,,,059,001,2019_May_23_1609,MusicAffectPsychophysiology2019,3.0.5,59.9549261259065,
To what extent did the music make you feel ,SAD,30MonoWAV/30MonoH1.wav,2,2,1,5,,,,,1,6,22,4,0,6,6,0,,,,,,,,,1,0.7184941410014289,,,059,001,2019_May_23_1609,MusicAffectPsychophysiology2019,3.0.5,59.9549261259065,
To what extent did the music make you feel ,ALERT,30MonoWAV/30MonoH1.wav,2,2,1,5,,,,,1,6,22,4,0,7,7,8,,,,,,,,,1,1.484619210999881,,,059,001,2019_May_23_1609,MusicAffectPsychophysiology2019,3.0.5,59.9549261259065,
To what extent did the music make you feel ,SCARED,30MonoWAV/30MonoH1.wav,2,2,1,5,,,,,1,6,22,4,0,8,8,11,,,,,,,,,1,1.6511073420006142,,,059,001,2019_May_23_1609,MusicAffectPsychophysiology2019,3.0.5,59.9549261259065,
To what extent did the music make you feel ,ASHAMED,30MonoWAV/30MonoH1.wav,2,2,1,5,,,,,1,6,22,4,0,9,9,4,,,,,,,,,1,1.568016153998542,,,059,001,2019_May_23_1609,MusicAffectPsychophysiology2019,3.0.5,59.9549261259065,
To what extent did the music make you feel ,GUILTY,30MonoWAV/30MonoH1.wav,2,2,1,5,,,,,1,6,22,4,0,10,10,5,,,,,,,,,1,0.8020304330002546,,,059,001,2019_May_23_1609,MusicAffectPsychophysiology2019,3.0.5,59.9549261259065,
To what extent did the music make you feel ,ANGRY,30MonoWAV/30MonoH1.wav,2,2,1,5,,,,,1,6,22,4,0,11,11,2,,,,,,,,,1,0.9685739500000636,,,059,001,2019_May_23_1609,MusicAffectPsychophysiology2019,3.0.5,59.9549261259065,
,,30MonoWAV/30MonoH1.wav,2,2,1,5,,,,,1,6,22,4,,,,,,,,,,,,,,,,,059,001,2019_May_23_1609,MusicAffectPsychophysiology2019,3.0.5,59.9549261259065,
To what extent did the music make you feel ,ANXIOUS ,30MonoWAV/30MonoT1.wav,2,1,4,13,,,,,1,7,23,12,0,0,0,1,,,1,11.83287239299898,2,1.2351638359996286,3,2.0344846740008506,1,1.4513042109992966,,,059,001,2019_May_23_1609,MusicAffectPsychophysiology2019,3.0.5,59.9549261259065,
To what extent did the music make you feel ,TENDER,30MonoWAV/30MonoT1.wav,2,1,4,13,,,,,1,7,23,12,0,1,1,10,,,,,,,,,2,1.4349444679992303,,,059,001,2019_May_23_1609,MusicAffectPsychophysiology2019,3.0.5,59.9549261259065,
To what extent did the music make you feel ,SAD,30MonoWAV/30MonoT1.wav,2,1,4,13,,,,,1,7,23,12,0,2,2,0,,,,,,,,,3,2.3681847320003726,,,059,001,2019_May_23_1609,MusicAffectPsychophysiology2019,3.0.5,59.9549261259065,
To what extent did the music make you feel ,EXCITED,30MonoWAV/30MonoT1.wav,2,1,4,13,,,,,1,7,23,12,0,3,3,7,,,,,,,,,1,1.1182417169984546,,,059,001,2019_May_23_1609,MusicAffectPsychophysiology2019,3.0.5,59.9549261259065,
To what extent did the music make you feel ,ALERT,30MonoWAV/30MonoT1.wav,2,1,4,13,,,,,1,7,23,12,0,4,4,8,,,,,,,,,1,1.2357138930001383,,,059,001,2019_May_23_1609,MusicAffectPsychophysiology2019,3.0.5,59.9549261259065,
To what extent did the music make you feel ,FRUSTRATED,30MonoWAV/30MonoT1.wav,2,1,4,13,,,,,1,7,23,12,0,5,5,3,,,,,,,,,1,1.185035369999241,,,059,001,2019_May_23_1609,MusicAffectPsychophysiology2019,3.0.5,59.9549261259065,
To what extent did the music make you feel ,SCARED,30MonoWAV/30MonoT1.wav,2,1,4,13,,,,,1,7,23,12,0,6,6,11,,,,,,,,,1,1.483089123001264,,,059,001,2019_May_23_1609,MusicAffectPsychophysiology2019,3.0.5,59.9549261259065,
To what extent did the music make you feel ,GUILTY,30MonoWAV/30MonoT1.wav,2,1,4,13,,,,,1,7,23,12,0,7,7,5,,,,,,,,,3,1.40178816200023,,,059,001,2019_May_23_1609,MusicAffectPsychophysiology2019,3.0.5,59.9549261259065,
To what extent did the music make you feel ,ACTIVE,30MonoWAV/30MonoT1.wav,2,1,4,13,,,,,1,7,23,12,0,8,8,9,,,,,,,,,1,1.3851040129993635,,,059,001,2019_May_23_1609,MusicAffectPsychophysiology2019,3.0.5,59.9549261259065,
To what extent did the music make you feel ,ASHAMED,30MonoWAV/30MonoT1.wav,2,1,4,13,,,,,1,7,23,12,0,9,9,4,,,,,,,,,1,1.1852214400005323,,,059,001,2019_May_23_1609,MusicAffectPsychophysiology2019,3.0.5,59.9549261259065,
To what extent did the music make you feel ,ANGRY,30MonoWAV/30MonoT1.wav,2,1,4,13,,,,,1,7,23,12,0,10,10,2,,,,,,,,,1,1.0677980550008215,,,059,001,2019_May_23_1609,MusicAffectPsychophysiology2019,3.0.5,59.9549261259065,
To what extent did the music make you feel ,HAPPY,30MonoWAV/30MonoT1.wav,2,1,4,13,,,,,1,7,23,12,0,11,11,6,,,,,,,,,1,1.2672065560000192,,,059,001,2019_May_23_1609,MusicAffectPsychophysiology2019,3.0.5,59.9549261259065,
,,30MonoWAV/30MonoT1.wav,2,1,4,13,,,,,1,7,23,12,,,,,,,,,,,,,,,,,059,001,2019_May_23_1609,MusicAffectPsychophysiology2019,3.0.5,59.9549261259065,
To what extent did the music make you feel ,SCARED,30MonoWAV/30MonoF1.wav,1,2,2,1,,,,,1,8,24,0,0,0,0,11,,,1,4.002459901999828,1,3.867068293999182,3,1.7998072790014703,2,1.6346605060007278,,,059,001,2019_May_23_1609,MusicAffectPsychophysiology2019,3.0.5,59.9549261259065,
To what extent did the music make you feel ,EXCITED,30MonoWAV/30MonoF1.wav,1,2,2,1,,,,,1,8,24,0,0,1,1,7,,,,,,,,,2,1.6692567030004284,,,059,001,2019_May_23_1609,MusicAffectPsychophysiology2019,3.0.5,59.9549261259065,
To what extent did the music make you feel ,TENDER,30MonoWAV/30MonoF1.wav,1,2,2,1,,,,,1,8,24,0,0,2,2,10,,,,,,,,,1,1.1840626699995482,,,059,001,2019_May_23_1609,MusicAffectPsychophysiology2019,3.0.5,59.9549261259065,
To what extent did the music make you feel ,ASHAMED,30MonoWAV/30MonoF1.wav,1,2,2,1,,,,,1,8,24,0,0,3,3,4,,,,,,,,,1,3.8343613289998757,,,059,001,2019_May_23_1609,MusicAffectPsychophysiology2019,3.0.5,59.9549261259065,
To what extent did the music make you feel ,SAD,30MonoWAV/30MonoF1.wav,1,2,2,1,,,,,1,8,24,0,0,4,4,0,,,,,,,,,1,1.7182850040007907,,,059,001,2019_May_23_1609,MusicAffectPsychophysiology2019,3.0.5,59.9549261259065,
To what extent did the music make you feel ,ALERT,30MonoWAV/30MonoF1.wav,1,2,2,1,,,,,1,8,24,0,0,5,5,8,,,,,,,,,3,1.8179448259998026,,,059,001,2019_May_23_1609,MusicAffectPsychophysiology2019,3.0.5,59.9549261259065,
To what extent did the music make you feel ,ACTIVE,30MonoWAV/30MonoF1.wav,1,2,2,1,,,,,1,8,24,0,0,6,6,9,,,,,,,,,2,1.384622853998735,,,059,001,2019_May_23_1609,MusicAffectPsychophysiology2019,3.0.5,59.9549261259065,
To what extent did the music make you feel ,ANGRY,30MonoWAV/30MonoF1.wav,1,2,2,1,,,,,1,8,24,0,0,7,7,2,,,,,,,,,2,2.667963525998857,,,059,001,2019_May_23_1609,MusicAffectPsychophysiology2019,3.0.5,59.9549261259065,
To what extent did the music make you feel ,HAPPY,30MonoWAV/30MonoF1.wav,1,2,2,1,,,,,1,8,24,0,0,8,8,6,,,,,,,,,1,1.1690016339998692,,,059,001,2019_May_23_1609,MusicAffectPsychophysiology2019,3.0.5,59.9549261259065,
To what extent did the music make you feel ,GUILTY,30MonoWAV/30MonoF1.wav,1,2,2,1,,,,,1,8,24,0,0,9,9,5,,,,,,,,,2,1.2685108510013379,,,059,001,2019_May_23_1609,MusicAffectPsychophysiology2019,3.0.5,59.9549261259065,
To what extent did the music make you feel ,ANXIOUS ,30MonoWAV/30MonoF1.wav,1,2,2,1,,,,,1,8,24,0,0,10,10,1,,,,,,,,,3,1.63443793100123,,,059,001,2019_May_23_1609,MusicAffectPsychophysiology2019,3.0.5,59.9549261259065,
To what extent did the music make you feel ,FRUSTRATED,30MonoWAV/30MonoF1.wav,1,2,2,1,,,,,1,8,24,0,0,11,11,3,,,,,,,,,2,0.03471202700166032,,,059,001,2019_May_23_1609,MusicAffectPsychophysiology2019,3.0.5,59.9549261259065,
,,30MonoWAV/30MonoF1.wav,1,2,2,1,,,,,1,8,24,0,,,,,,,,,,,,,,,,,059,001,2019_May_23_1609,MusicAffectPsychophysiology2019,3.0.5,59.9549261259065,
To what extent did the music make you feel ,ALERT,30MonoWAV/30MonoT3.wav,2,1,4,15,,,,,1,9,25,14,0,0,0,8,,,1,8.751772940999217,2,1.1009770000000572,2,1.9862598890013032,1,1.4521856179999304,,,059,001,2019_May_23_1609,MusicAffectPsychophysiology2019,3.0.5,59.9549261259065,
To what extent did the music make you feel ,EXCITED,30MonoWAV/30MonoT3.wav,2,1,4,15,,,,,1,9,25,14,0,1,1,7,,,,,,,,,1,2.0505514449996554,,,059,001,2019_May_23_1609,MusicAffectPsychophysiology2019,3.0.5,59.9549261259065,
To what extent did the music make you feel ,TENDER,30MonoWAV/30MonoT3.wav,2,1,4,15,,,,,1,9,25,14,0,2,2,10,,,,,,,,,3,1.4682388119999814,,,059,001,2019_May_23_1609,MusicAffectPsychophysiology2019,3.0.5,59.9549261259065,
To what extent did the music make you feel ,GUILTY,30MonoWAV/30MonoT3.wav,2,1,4,15,,,,,1,9,25,14,0,3,3,5,,,,,,,,,1,2.518441123998855,,,059,001,2019_May_23_1609,MusicAffectPsychophysiology2019,3.0.5,59.9549261259065,
To what extent did the music make you feel ,SCARED,30MonoWAV/30MonoT3.wav,2,1,4,15,,,,,1,9,25,14,0,4,4,11,,,,,,,,,1,1.1685185470014403,,,059,001,2019_May_23_1609,MusicAffectPsychophysiology2019,3.0.5,59.9549261259065,
To what extent did the music make you feel ,ANGRY,30MonoWAV/30MonoT3.wav,2,1,4,15,,,,,1,9,25,14,0,5,5,2,,,,,,,,,1,1.16709025199998,,,059,001,2019_May_23_1609,MusicAffectPsychophysiology2019,3.0.5,59.9549261259065,
To what extent did the music make you feel ,ANXIOUS ,30MonoWAV/30MonoT3.wav,2,1,4,15,,,,,1,9,25,14,0,6,6,1,,,,,,,,,2,1.3854842279997683,,,059,001,2019_May_23_1609,MusicAffectPsychophysiology2019,3.0.5,59.9549261259065,
To what extent did the music make you feel ,HAPPY,30MonoWAV/30MonoT3.wav,2,1,4,15,,,,,1,9,25,14,0,7,7,6,,,,,,,,,1,1.8339560690001235,,,059,001,2019_May_23_1609,MusicAffectPsychophysiology2019,3.0.5,59.9549261259065,
To what extent did the music make you feel ,SAD,30MonoWAV/30MonoT3.wav,2,1,4,15,,,,,1,9,25,14,0,8,8,0,,,,,,,,,3,2.1018142749999242,,,059,001,2019_May_23_1609,MusicAffectPsychophysiology2019,3.0.5,59.9549261259065,
To what extent did the music make you feel ,FRUSTRATED,30MonoWAV/30MonoT3.wav,2,1,4,15,,,,,1,9,25,14,0,9,9,3,,,,,,,,,1,1.3021108440007083,,,059,001,2019_May_23_1609,MusicAffectPsychophysiology2019,3.0.5,59.9549261259065,
To what extent did the music make you feel ,ASHAMED,30MonoWAV/30MonoT3.wav,2,1,4,15,,,,,1,9,25,14,0,10,10,4,,,,,,,,,1,2.751235699000972,,,059,001,2019_May_23_1609,MusicAffectPsychophysiology2019,3.0.5,59.9549261259065,
To what extent did the music make you feel ,ACTIVE,30MonoWAV/30MonoT3.wav,2,1,4,15,,,,,1,9,25,14,0,11,11,9,,,,,,,,,1,0.9683471820007981,,,059,001,2019_May_23_1609,MusicAffectPsychophysiology2019,3.0.5,59.9549261259065,
,,30MonoWAV/30MonoT3.wav,2,1,4,15,,,,,1,9,25,14,,,,,,,,,,,,,,,,,059,001,2019_May_23_1609,MusicAffectPsychophysiology2019,3.0.5,59.9549261259065,
To what extent did the music make you feel ,ACTIVE,30MonoWAV/30MonoH3.wav,2,2,1,7,,,,,1,10,26,6,0,0,0,9,,,3,2.169486587999927,3,1.3679928189994826,4,0.8349268319998373,4,1.849574317000588,,,059,001,2019_May_23_1609,MusicAffectPsychophysiology2019,3.0.5,59.9549261259065,
To what extent did the music make you feel ,TENDER,30MonoWAV/30MonoH3.wav,2,2,1,7,,,,,1,10,26,6,0,1,1,10,,,,,,,,,2,1.5843619759998546,,,059,001,2019_May_23_1609,MusicAffectPsychophysiology2019,3.0.5,59.9549261259065,
To what extent did the music make you feel ,SCARED,30MonoWAV/30MonoH3.wav,2,2,1,7,,,,,1,10,26,6,0,2,2,11,,,,,,,,,1,0.8854062789996533,,,059,001,2019_May_23_1609,MusicAffectPsychophysiology2019,3.0.5,59.9549261259065,
To what extent did the music make you feel ,ASHAMED,30MonoWAV/30MonoH3.wav,2,2,1,7,,,,,1,10,26,6,0,3,3,4,,,,,,,,,1,0.9012932810001075,,,059,001,2019_May_23_1609,MusicAffectPsychophysiology2019,3.0.5,59.9549261259065,
To what extent did the music make you feel ,HAPPY,30MonoWAV/30MonoH3.wav,2,2,1,7,,,,,1,10,26,6,0,4,4,6,,,,,,,,,4,1.318126079000649,,,059,001,2019_May_23_1609,MusicAffectPsychophysiology2019,3.0.5,59.9549261259065,
To what extent did the music make you feel ,GUILTY,30MonoWAV/30MonoH3.wav,2,2,1,7,,,,,1,10,26,6,0,5,5,5,,,,,,,,,1,1.1343762449996575,,,059,001,2019_May_23_1609,MusicAffectPsychophysiology2019,3.0.5,59.9549261259065,
To what extent did the music make you feel ,ANXIOUS ,30MonoWAV/30MonoH3.wav,2,2,1,7,,,,,1,10,26,6,0,6,6,1,,,,,,,,,1,0.885960712999804,,,059,001,2019_May_23_1609,MusicAffectPsychophysiology2019,3.0.5,59.9549261259065,
To what extent did the music make you feel ,ALERT,30MonoWAV/30MonoH3.wav,2,2,1,7,,,,,1,10,26,6,0,7,7,8,,,,,,,,,1,0.016947807000178727,,,059,001,2019_May_23_1609,MusicAffectPsychophysiology2019,3.0.5,59.9549261259065,
To what extent did the music make you feel ,SAD,30MonoWAV/30MonoH3.wav,2,2,1,7,,,,,1,10,26,6,0,8,8,0,,,,,,,,,1,1.0516007869991881,,,059,001,2019_May_23_1609,MusicAffectPsychophysiology2019,3.0.5,59.9549261259065,
To what extent did the music make you feel ,ANGRY,30MonoWAV/30MonoH3.wav,2,2,1,7,,,,,1,10,26,6,0,9,9,2,,,,,,,,,1,0.651986697999746,,,059,001,2019_May_23_1609,MusicAffectPsychophysiology2019,3.0.5,59.9549261259065,
To what extent did the music make you feel ,FRUSTRATED,30MonoWAV/30MonoH3.wav,2,2,1,7,,,,,1,10,26,6,0,10,10,3,,,,,,,,,1,0.7350775459999568,,,059,001,2019_May_23_1609,MusicAffectPsychophysiology2019,3.0.5,59.9549261259065,
To what extent did the music make you feel ,EXCITED,30MonoWAV/30MonoH3.wav,2,2,1,7,,,,,1,10,26,6,0,11,11,7,,,,,,,,,4,4.0514941929995985,,,059,001,2019_May_23_1609,MusicAffectPsychophysiology2019,3.0.5,59.9549261259065,
,,30MonoWAV/30MonoH3.wav,2,2,1,7,,,,,1,10,26,6,,,,,,,,,,,,,,,,,059,001,2019_May_23_1609,MusicAffectPsychophysiology2019,3.0.5,59.9549261259065,
To what extent did the music make you feel ,TENDER,30MonoWAV/30MonoT2.wav,2,1,4,14,,,,,1,11,27,13,0,0,0,10,,,2,2.452473901999838,3,0.7192538630006311,4,0.7330942520002282,4,3.1690919649990974,,,059,001,2019_May_23_1609,MusicAffectPsychophysiology2019,3.0.5,59.9549261259065,
To what extent did the music make you feel ,ACTIVE,30MonoWAV/30MonoT2.wav,2,1,4,14,,,,,1,11,27,13,0,1,1,9,,,,,,,,,2,1.5516226979998464,,,059,001,2019_May_23_1609,MusicAffectPsychophysiology2019,3.0.5,59.9549261259065,
To what extent did the music make you feel ,GUILTY,30MonoWAV/30MonoT2.wav,2,1,4,14,,,,,1,11,27,13,0,2,2,5,,,,,,,,,1,1.8174994319997495,,,059,001,2019_May_23_1609,MusicAffectPsychophysiology2019,3.0.5,59.9549261259065,
To what extent did the music make you feel ,EXCITED,30MonoWAV/30MonoT2.wav,2,1,4,14,,,,,1,11,27,13,0,3,3,7,,,,,,,,,3,2.2680228120007087,,,059,001,2019_May_23_1609,MusicAffectPsychophysiology2019,3.0.5,59.9549261259065,
To what extent did the music make you feel ,ANXIOUS ,30MonoWAV/30MonoT2.wav,2,1,4,14,,,,,1,11,27,13,0,4,4,1,,,,,,,,,1,0.7505836820000695,,,059,001,2019_May_23_1609,MusicAffectPsychophysiology2019,3.0.5,59.9549261259065,
To what extent did the music make you feel ,HAPPY,30MonoWAV/30MonoT2.wav,2,1,4,14,,,,,1,11,27,13,0,5,5,6,,,,,,,,,1,2.2683798569996725,,,059,001,2019_May_23_1609,MusicAffectPsychophysiology2019,3.0.5,59.9549261259065,
To what extent did the music make you feel ,FRUSTRATED,30MonoWAV/30MonoT2.wav,2,1,4,14,,,,,1,11,27,13,0,6,6,3,,,,,,,,,1,1.0522230120004679,,,059,001,2019_May_23_1609,MusicAffectPsychophysiology2019,3.0.5,59.9549261259065,
To what extent did the music make you feel ,ASHAMED,30MonoWAV/30MonoT2.wav,2,1,4,14,,,,,1,11,27,13,0,7,7,4,,,,,,,,,1,1.1682250630001363,,,059,001,2019_May_23_1609,MusicAffectPsychophysiology2019,3.0.5,59.9549261259065,
To what extent did the music make you feel ,SCARED,30MonoWAV/30MonoT2.wav,2,1,4,14,,,,,1,11,27,13,0,8,8,11,,,,,,,,,1,0.8173753459996078,,,059,001,2019_May_23_1609,MusicAffectPsychophysiology2019,3.0.5,59.9549261259065,
To what extent did the music make you feel ,ANGRY,30MonoWAV/30MonoT2.wav,2,1,4,14,,,,,1,11,27,13,0,9,9,2,,,,,,,,,1,0.7342237159991782,,,059,001,2019_May_23_1609,MusicAffectPsychophysiology2019,3.0.5,59.9549261259065,
To what extent did the music make you feel ,ALERT,30MonoWAV/30MonoT2.wav,2,1,4,14,,,,,1,11,27,13,0,10,10,8,,,,,,,,,1,1.1002703030007979,,,059,001,2019_May_23_1609,MusicAffectPsychophysiology2019,3.0.5,59.9549261259065,
To what extent did the music make you feel ,SAD,30MonoWAV/30MonoT2.wav,2,1,4,14,,,,,1,11,27,13,0,11,11,0,,,,,,,,,2,2.201705036999556,,,059,001,2019_May_23_1609,MusicAffectPsychophysiology2019,3.0.5,59.9549261259065,
,,30MonoWAV/30MonoT2.wav,2,1,4,14,,,,,1,11,27,13,,,,,,,,,,,,,,,,,059,001,2019_May_23_1609,MusicAffectPsychophysiology2019,3.0.5,59.9549261259065,
To what extent did the music make you feel ,ANXIOUS ,30MonoWAV/30MonoF2.wav,1,2,2,2,,,,,1,12,28,1,0,0,0,1,,,2,2.9243734950014186,1,2.0008785740010353,4,1.7855864619996282,3,3.1018068240009598,,,059,001,2019_May_23_1609,MusicAffectPsychophysiology2019,3.0.5,59.9549261259065,
To what extent did the music make you feel ,ASHAMED,30MonoWAV/30MonoF2.wav,1,2,2,2,,,,,1,12,28,1,0,1,1,4,,,,,,,,,1,5.9672246419995645,,,059,001,2019_May_23_1609,MusicAffectPsychophysiology2019,3.0.5,59.9549261259065,
To what extent did the music make you feel ,TENDER,30MonoWAV/30MonoF2.wav,1,2,2,2,,,,,1,12,28,1,0,2,2,10,,,,,,,,,1,0.9186425820007571,,,059,001,2019_May_23_1609,MusicAffectPsychophysiology2019,3.0.5,59.9549261259065,
To what extent did the music make you feel ,ALERT,30MonoWAV/30MonoF2.wav,1,2,2,2,,,,,1,12,28,1,0,3,3,8,,,,,,,,,4,1.8001031660005538,,,059,001,2019_May_23_1609,MusicAffectPsychophysiology2019,3.0.5,59.9549261259065,
To what extent did the music make you feel ,ACTIVE,30MonoWAV/30MonoF2.wav,1,2,2,2,,,,,1,12,28,1,0,4,4,9,,,,,,,,,2,1.5342555349998293,,,059,001,2019_May_23_1609,MusicAffectPsychophysiology2019,3.0.5,59.9549261259065,
To what extent did the music make you feel ,GUILTY,30MonoWAV/30MonoF2.wav,1,2,2,2,,,,,1,12,28,1,0,5,5,5,,,,,,,,,2,2.0839380360012,,,059,001,2019_May_23_1609,MusicAffectPsychophysiology2019,3.0.5,59.9549261259065,
To what extent did the music make you feel ,HAPPY,30MonoWAV/30MonoF2.wav,1,2,2,2,,,,,1,12,28,1,0,6,6,6,,,,,,,,,1,0.768113648000508,,,059,001,2019_May_23_1609,MusicAffectPsychophysiology2019,3.0.5,59.9549261259065,
To what extent did the music make you feel ,EXCITED,30MonoWAV/30MonoF2.wav,1,2,2,2,,,,,1,12,28,1,0,7,7,7,,,,,,,,,1,1.3849134659994888,,,059,001,2019_May_23_1609,MusicAffectPsychophysiology2019,3.0.5,59.9549261259065,
To what extent did the music make you feel ,SAD,30MonoWAV/30MonoF2.wav,1,2,2,2,,,,,1,12,28,1,0,8,8,0,,,,,,,,,1,1.3513656069990247,,,059,001,2019_May_23_1609,MusicAffectPsychophysiology2019,3.0.5,59.9549261259065,
To what extent did the music make you feel ,SCARED,30MonoWAV/30MonoF2.wav,1,2,2,2,,,,,1,12,28,1,0,9,9,11,,,,,,,,,3,1.4017008039991197,,,059,001,2019_May_23_1609,MusicAffectPsychophysiology2019,3.0.5,59.9549261259065,
To what extent did the music make you feel ,ANGRY,30MonoWAV/30MonoF2.wav,1,2,2,2,,,,,1,12,28,1,0,10,10,2,,,,,,,,,1,1.4176919300007285,,,059,001,2019_May_23_1609,MusicAffectPsychophysiology2019,3.0.5,59.9549261259065,
To what extent did the music make you feel ,FRUSTRATED,30MonoWAV/30MonoF2.wav,1,2,2,2,,,,,1,12,28,1,0,11,11,3,,,,,,,,,1,1.1518314979985007,,,059,001,2019_May_23_1609,MusicAffectPsychophysiology2019,3.0.5,59.9549261259065,
,,30MonoWAV/30MonoF2.wav,1,2,2,2,,,,,1,12,28,1,,,,,,,,,,,,,,,,,059,001,2019_May_23_1609,MusicAffectPsychophysiology2019,3.0.5,59.9549261259065,
To what extent did the music make you feel ,FRUSTRATED,30MonoWAV/30MonoT4.wav,2,1,4,16,,,,,1,13,29,15,0,0,0,3,,,2,4.367756469999222,2,1.4857447399990633,3,1.1516435029989225,1,1.6020397500014951,,,059,001,2019_May_23_1609,MusicAffectPsychophysiology2019,3.0.5,59.9549261259065,
To what extent did the music make you feel ,SAD,30MonoWAV/30MonoT4.wav,2,1,4,16,,,,,1,13,29,15,0,1,1,0,,,,,,,,,1,1.134269496998968,,,059,001,2019_May_23_1609,MusicAffectPsychophysiology2019,3.0.5,59.9549261259065,
To what extent did the music make you feel ,ACTIVE,30MonoWAV/30MonoT4.wav,2,1,4,16,,,,,1,13,29,15,0,2,2,9,,,,,,,,,1,1.9166336359994602,,,059,001,2019_May_23_1609,MusicAffectPsychophysiology2019,3.0.5,59.9549261259065,
To what extent did the music make you feel ,ALERT,30MonoWAV/30MonoT4.wav,2,1,4,16,,,,,1,13,29,15,0,3,3,8,,,,,,,,,1,1.0355135640002118,,,059,001,2019_May_23_1609,MusicAffectPsychophysiology2019,3.0.5,59.9549261259065,
To what extent did the music make you feel ,EXCITED,30MonoWAV/30MonoT4.wav,2,1,4,16,,,,,1,13,29,15,0,4,4,7,,,,,,,,,1,1.3187827839992678,,,059,001,2019_May_23_1609,MusicAffectPsychophysiology2019,3.0.5,59.9549261259065,
To what extent did the music make you feel ,HAPPY,30MonoWAV/30MonoT4.wav,2,1,4,16,,,,,1,13,29,15,0,5,5,6,,,,,,,,,1,1.2350735799991526,,,059,001,2019_May_23_1609,MusicAffectPsychophysiology2019,3.0.5,59.9549261259065,
To what extent did the music make you feel ,SCARED,30MonoWAV/30MonoT4.wav,2,1,4,16,,,,,1,13,29,15,0,6,6,11,,,,,,,,,2,1.1005144219998328,,,059,001,2019_May_23_1609,MusicAffectPsychophysiology2019,3.0.5,59.9549261259065,
To what extent did the music make you feel ,ASHAMED,30MonoWAV/30MonoT4.wav,2,1,4,16,,,,,1,13,29,15,0,7,7,4,,,,,,,,,1,1.1834529640000255,,,059,001,2019_May_23_1609,MusicAffectPsychophysiology2019,3.0.5,59.9549261259065,
To what extent did the music make you feel ,GUILTY,30MonoWAV/30MonoT4.wav,2,1,4,16,,,,,1,13,29,15,0,8,8,5,,,,,,,,,3,0.9175832769997214,,,059,001,2019_May_23_1609,MusicAffectPsychophysiology2019,3.0.5,59.9549261259065,
To what extent did the music make you feel ,TENDER,30MonoWAV/30MonoT4.wav,2,1,4,16,,,,,1,13,29,15,0,9,9,10,,,,,,,,,4,1.450126789000933,,,059,001,2019_May_23_1609,MusicAffectPsychophysiology2019,3.0.5,59.9549261259065,
To what extent did the music make you feel ,ANXIOUS ,30MonoWAV/30MonoT4.wav,2,1,4,16,,,,,1,13,29,15,0,10,10,1,,,,,,,,,2,2.08475958300005,,,059,001,2019_May_23_1609,MusicAffectPsychophysiology2019,3.0.5,59.9549261259065,
To what extent did the music make you feel ,ANGRY,30MonoWAV/30MonoT4.wav,2,1,4,16,,,,,1,13,29,15,0,11,11,2,,,,,,,,,1,1.5344600729986269,,,059,001,2019_May_23_1609,MusicAffectPsychophysiology2019,3.0.5,59.9549261259065,
,,30MonoWAV/30MonoT4.wav,2,1,4,16,,,,,1,13,29,15,,,,,,,,,,,,,,,,,059,001,2019_May_23_1609,MusicAffectPsychophysiology2019,3.0.5,59.9549261259065,
To what extent did the music make you feel ,HAPPY,30MonoWAV/30MonoF3.wav,1,2,2,3,,,,,1,14,30,2,0,0,0,6,,,2,2.1684814279997227,2,0.0017843329987954348,3,4.01817638600005,1,3.9182139960012137,,,059,001,2019_May_23_1609,MusicAffectPsychophysiology2019,3.0.5,59.9549261259065,
To what extent did the music make you feel ,SAD,30MonoWAV/30MonoF3.wav,1,2,2,3,,,,,1,14,30,2,0,1,1,0,,,,,,,,,1,1.284272963001058,,,059,001,2019_May_23_1609,MusicAffectPsychophysiology2019,3.0.5,59.9549261259065,
To what extent did the music make you feel ,ALERT,30MonoWAV/30MonoF3.wav,1,2,2,3,,,,,1,14,30,2,0,2,2,8,,,,,,,,,3,1.983059239000795,,,059,001,2019_May_23_1609,MusicAffectPsychophysiology2019,3.0.5,59.9549261259065,
To what extent did the music make you feel ,SCARED,30MonoWAV/30MonoF3.wav,1,2,2,3,,,,,1,14,30,2,0,3,3,11,,,,,,,,,2,1.435140963001686,,,059,001,2019_May_23_1609,MusicAffectPsychophysiology2019,3.0.5,59.9549261259065,
To what extent did the music make you feel ,ANGRY,30MonoWAV/30MonoF3.wav,1,2,2,3,,,,,1,14,30,2,0,4,4,2,,,,,,,,,1,1.0689947769988066,,,059,001,2019_May_23_1609,MusicAffectPsychophysiology2019,3.0.5,59.9549261259065,
To what extent did the music make you feel ,ANXIOUS ,30MonoWAV/30MonoF3.wav,1,2,2,3,,,,,1,14,30,2,0,5,5,1,,,,,,,,,4,2.1677123160006886,,,059,001,2019_May_23_1609,MusicAffectPsychophysiology2019,3.0.5,59.9549261259065,
To what extent did the music make you feel ,ASHAMED,30MonoWAV/30MonoF3.wav,1,2,2,3,,,,,1,14,30,2,0,6,6,4,,,,,,,,,2,3.0349340089996986,,,059,001,2019_May_23_1609,MusicAffectPsychophysiology2019,3.0.5,59.9549261259065,
To what extent did the music make you feel ,EXCITED,30MonoWAV/30MonoF3.wav,1,2,2,3,,,,,1,14,30,2,0,7,7,7,,,,,,,,,3,1.100743691000389,,,059,001,2019_May_23_1609,MusicAffectPsychophysiology2019,3.0.5,59.9549261259065,
To what extent did the music make you feel ,GUILTY,30MonoWAV/30MonoF3.wav,1,2,2,3,,,,,1,14,30,2,0,8,8,5,,,,,,,,,2,1.1523991909998585,,,059,001,2019_May_23_1609,MusicAffectPsychophysiology2019,3.0.5,59.9549261259065,
To what extent did the music make you feel ,FRUSTRATED,30MonoWAV/30MonoF3.wav,1,2,2,3,,,,,1,14,30,2,0,9,9,3,,,,,,,,,1,1.0853129170009197,,,059,001,2019_May_23_1609,MusicAffectPsychophysiology2019,3.0.5,59.9549261259065,
To what extent did the music make you feel ,ACTIVE,30MonoWAV/30MonoF3.wav,1,2,2,3,,,,,1,14,30,2,0,10,10,9,,,,,,,,,2,1.117603433000113,,,059,001,2019_May_23_1609,MusicAffectPsychophysiology2019,3.0.5,59.9549261259065,
To what extent did the music make you feel ,TENDER,30MonoWAV/30MonoF3.wav,1,2,2,3,,,,,1,14,30,2,0,11,11,10,,,,,,,,,1,1.1024619640011224,,,059,001,2019_May_23_1609,MusicAffectPsychophysiology2019,3.0.5,59.9549261259065,
,,30MonoWAV/30MonoF3.wav,1,2,2,3,,,,,1,14,30,2,,,,,,,,,,,,,,,,,059,001,2019_May_23_1609,MusicAffectPsychophysiology2019,3.0.5,59.9549261259065,
To what extent did the music make you feel ,SCARED,30MonoWAV/30MonoF4.wav,1,2,2,4,,,,,1,15,31,3,0,0,0,11,,,2,5.368487293000726,2,1.833942911000122,4,2.1025497499995254,2,1.500766888999351,,,059,001,2019_May_23_1609,MusicAffectPsychophysiology2019,3.0.5,59.9549261259065,
To what extent did the music make you feel ,FRUSTRATED,30MonoWAV/30MonoF4.wav,1,2,2,4,,,,,1,15,31,3,0,1,1,3,,,,,,,,,1,0.8690834320004797,,,059,001,2019_May_23_1609,MusicAffectPsychophysiology2019,3.0.5,59.9549261259065,
To what extent did the music make you feel ,ACTIVE,30MonoWAV/30MonoF4.wav,1,2,2,4,,,,,1,15,31,3,0,2,2,9,,,,,,,,,4,1.701194948000193,,,059,001,2019_May_23_1609,MusicAffectPsychophysiology2019,3.0.5,59.9549261259065,
To what extent did the music make you feel ,ANXIOUS ,30MonoWAV/30MonoF4.wav,1,2,2,4,,,,,1,15,31,3,0,3,3,1,,,,,,,,,1,1.2844915189998574,,,059,001,2019_May_23_1609,MusicAffectPsychophysiology2019,3.0.5,59.9549261259065,
To what extent did the music make you feel ,HAPPY,30MonoWAV/30MonoF4.wav,1,2,2,4,,,,,1,15,31,3,0,4,4,6,,,,,,,,,3,1.651941899999656,,,059,001,2019_May_23_1609,MusicAffectPsychophysiology2019,3.0.5,59.9549261259065,
To what extent did the music make you feel ,ASHAMED,30MonoWAV/30MonoF4.wav,1,2,2,4,,,,,1,15,31,3,0,5,5,4,,,,,,,,,1,1.1018652340007975,,,059,001,2019_May_23_1609,MusicAffectPsychophysiology2019,3.0.5,59.9549261259065,
To what extent did the music make you feel ,ALERT,30MonoWAV/30MonoF4.wav,1,2,2,4,,,,,1,15,31,3,0,6,6,8,,,,,,,,,3,1.717918334999922,,,059,001,2019_May_23_1609,MusicAffectPsychophysiology2019,3.0.5,59.9549261259065,
To what extent did the music make you feel ,SAD,30MonoWAV/30MonoF4.wav,1,2,2,4,,,,,1,15,31,3,0,7,7,0,,,,,,,,,1,1.0525603059995774,,,059,001,2019_May_23_1609,MusicAffectPsychophysiology2019,3.0.5,59.9549261259065,
To what extent did the music make you feel ,GUILTY,30MonoWAV/30MonoF4.wav,1,2,2,4,,,,,1,15,31,3,0,8,8,5,,,,,,,,,1,1.2171311430010974,,,059,001,2019_May_23_1609,MusicAffectPsychophysiology2019,3.0.5,59.9549261259065,
To what extent did the music make you feel ,ANGRY,30MonoWAV/30MonoF4.wav,1,2,2,4,,,,,1,15,31,3,0,9,9,2,,,,,,,,,1,0.8362034130004758,,,059,001,2019_May_23_1609,MusicAffectPsychophysiology2019,3.0.5,59.9549261259065,
To what extent did the music make you feel ,TENDER,30MonoWAV/30MonoF4.wav,1,2,2,4,,,,,1,15,31,3,0,10,10,10,,,,,,,,,1,1.7018038909991446,,,059,001,2019_May_23_1609,MusicAffectPsychophysiology2019,3.0.5,59.9549261259065,
To what extent did the music make you feel ,EXCITED,30MonoWAV/30MonoF4.wav,1,2,2,4,,,,,1,15,31,3,0,11,11,7,,,,,,,,,4,2.5515546099995845,,,059,001,2019_May_23_1609,MusicAffectPsychophysiology2019,3.0.5,59.9549261259065,
,,30MonoWAV/30MonoF4.wav,1,2,2,4,,,,,1,15,31,3,,,,,,,,,,,,,,,,,059,001,2019_May_23_1609,MusicAffectPsychophysiology2019,3.0.5,59.9549261259065,
,,,,,,,,,,,,,,,,,,,,,,,,,,,,,space,6.485070406999512,059,001,2019_May_23_1609,MusicAffectPsychophysiology2019,3.0.5,59.9549261259065,
