Instruction,Word,song,valence,arousal,affectcat,songmark,pracwords.thisRepN,pracwords.thisTrialN,pracwords.thisN,pracwords.thisIndex,songtrials.thisRepN,songtrials.thisTrialN,songtrials.thisN,songtrials.thisIndex,words.thisRepN,words.thisTrialN,words.thisN,words.thisIndex,begin.keys,begin.rt,arousalkey.keys,arousalkey.rt,valencekey.keys,valencekey.rt,likekey.keys,likekey.rt,WordResponse.keys,WordResponse.rt,key_resp_2.keys,key_resp_2.rt,participant,session,date,expName,psychopyVersion,frameRate,
,,,,,,,,,,,,,,,,,,,space,11.296889482997358,,,,,,,,,,,060,001,2019_May_27_1009,MusicAffectPsychophysiology2019,3.0.5,59.97932033053783,
,,,,,,,,,,,,,,,,,,,,,4,5.68429945400203,,,,,,,,,060,001,2019_May_27_1009,MusicAffectPsychophysiology2019,3.0.5,59.97932033053783,
,,,,,,,,,,,,,,,,,,,,,,,4,3.9511215950005862,,,,,,,060,001,2019_May_27_1009,MusicAffectPsychophysiology2019,3.0.5,59.97932033053783,
,,,,,,,,,,,,,,,,,,,,,,,,,3,6.417409411002154,,,,,060,001,2019_May_27_1009,MusicAffectPsychophysiology2019,3.0.5,59.97932033053783,
To what extent did the music make you feel ,ASHAMED,,,,,,0,0,0,4,,,,,,,,,,,,,,,,,1,6.434886089999054,,,060,001,2019_May_27_1009,MusicAffectPsychophysiology2019,3.0.5,59.97932033053783,
To what extent did the music make you feel ,EXCITED,,,,,,0,1,1,7,,,,,,,,,,,,,,,,,3,2.7520244810002623,,,060,001,2019_May_27_1009,MusicAffectPsychophysiology2019,3.0.5,59.97932033053783,
To what extent did the music make you feel ,FRUSTRATED,,,,,,0,2,2,3,,,,,,,,,,,,,,,,,1,2.0019568390016502,,,060,001,2019_May_27_1009,MusicAffectPsychophysiology2019,3.0.5,59.97932033053783,
To what extent did the music make you feel ,ALERT,,,,,,0,3,3,8,,,,,,,,,,,,,,,,,3,3.017839266998635,,,060,001,2019_May_27_1009,MusicAffectPsychophysiology2019,3.0.5,59.97932033053783,
To what extent did the music make you feel ,ANXIOUS ,,,,,,0,4,4,1,,,,,,,,,,,,,,,,,1,1.6517292270000326,,,060,001,2019_May_27_1009,MusicAffectPsychophysiology2019,3.0.5,59.97932033053783,
To what extent did the music make you feel ,TENDER,,,,,,0,5,5,10,,,,,,,,,,,,,,,,,1,2.7676565980000305,,,060,001,2019_May_27_1009,MusicAffectPsychophysiology2019,3.0.5,59.97932033053783,
To what extent did the music make you feel ,ACTIVE,,,,,,0,6,6,9,,,,,,,,,,,,,,,,,4,2.568928626998968,,,060,001,2019_May_27_1009,MusicAffectPsychophysiology2019,3.0.5,59.97932033053783,
To what extent did the music make you feel ,SAD,,,,,,0,7,7,0,,,,,,,,,,,,,,,,,1,1.551318589001312,,,060,001,2019_May_27_1009,MusicAffectPsychophysiology2019,3.0.5,59.97932033053783,
To what extent did the music make you feel ,GUILTY,,,,,,0,8,8,5,,,,,,,,,,,,,,,,,1,1.5686085380002623,,,060,001,2019_May_27_1009,MusicAffectPsychophysiology2019,3.0.5,59.97932033053783,
To what extent did the music make you feel ,HAPPY,,,,,,0,9,9,6,,,,,,,,,,,,,,,,,4,2.235546265997982,,,060,001,2019_May_27_1009,MusicAffectPsychophysiology2019,3.0.5,59.97932033053783,
To what extent did the music make you feel ,SCARED,,,,,,0,10,10,11,,,,,,,,,,,,,,,,,1,1.2845474000023387,,,060,001,2019_May_27_1009,MusicAffectPsychophysiology2019,3.0.5,59.97932033053783,
To what extent did the music make you feel ,ANGRY,,,,,,0,11,11,2,,,,,,,,,,,,,,,,,1,1.3344965289979882,,,060,001,2019_May_27_1009,MusicAffectPsychophysiology2019,3.0.5,59.97932033053783,
To what extent did the music make you feel ,HAPPY,30MonoWAV/30MonoT4.wav,2,1,4,16,,,,,0,0,0,15,0,0,0,6,,,3,4.64087362400096,3,4.840662968003016,3,5.052241448000132,3,6.018427833001624,,,060,001,2019_May_27_1009,MusicAffectPsychophysiology2019,3.0.5,59.97932033053783,
To what extent did the music make you feel ,GUILTY,30MonoWAV/30MonoT4.wav,2,1,4,16,,,,,0,0,0,15,0,1,1,5,,,,,,,,,1,1.768063848001475,,,060,001,2019_May_27_1009,MusicAffectPsychophysiology2019,3.0.5,59.97932033053783,
To what extent did the music make you feel ,EXCITED,30MonoWAV/30MonoT4.wav,2,1,4,16,,,,,0,0,0,15,0,2,2,7,,,,,,,,,2,2.384511050000583,,,060,001,2019_May_27_1009,MusicAffectPsychophysiology2019,3.0.5,59.97932033053783,
To what extent did the music make you feel ,ASHAMED,30MonoWAV/30MonoT4.wav,2,1,4,16,,,,,0,0,0,15,0,3,3,4,,,,,,,,,1,1.0187929179992352,,,060,001,2019_May_27_1009,MusicAffectPsychophysiology2019,3.0.5,59.97932033053783,
To what extent did the music make you feel ,ANXIOUS ,30MonoWAV/30MonoT4.wav,2,1,4,16,,,,,0,0,0,15,0,4,4,1,,,,,,,,,1,1.3346562920014549,,,060,001,2019_May_27_1009,MusicAffectPsychophysiology2019,3.0.5,59.97932033053783,
To what extent did the music make you feel ,ACTIVE,30MonoWAV/30MonoT4.wav,2,1,4,16,,,,,0,0,0,15,0,5,5,9,,,,,,,,,3,2.6189078470015374,,,060,001,2019_May_27_1009,MusicAffectPsychophysiology2019,3.0.5,59.97932033053783,
To what extent did the music make you feel ,ANGRY,30MonoWAV/30MonoT4.wav,2,1,4,16,,,,,0,0,0,15,0,6,6,2,,,,,,,,,1,0.8343058060017938,,,060,001,2019_May_27_1009,MusicAffectPsychophysiology2019,3.0.5,59.97932033053783,
To what extent did the music make you feel ,SCARED,30MonoWAV/30MonoT4.wav,2,1,4,16,,,,,0,0,0,15,0,7,7,11,,,,,,,,,1,2.7007300309996936,,,060,001,2019_May_27_1009,MusicAffectPsychophysiology2019,3.0.5,59.97932033053783,
To what extent did the music make you feel ,SAD,30MonoWAV/30MonoT4.wav,2,1,4,16,,,,,0,0,0,15,0,8,8,0,,,,,,,,,1,0.8352858329999435,,,060,001,2019_May_27_1009,MusicAffectPsychophysiology2019,3.0.5,59.97932033053783,
To what extent did the music make you feel ,FRUSTRATED,30MonoWAV/30MonoT4.wav,2,1,4,16,,,,,0,0,0,15,0,9,9,3,,,,,,,,,1,0.8025833889987553,,,060,001,2019_May_27_1009,MusicAffectPsychophysiology2019,3.0.5,59.97932033053783,
To what extent did the music make you feel ,TENDER,30MonoWAV/30MonoT4.wav,2,1,4,16,,,,,0,0,0,15,0,10,10,10,,,,,,,,,1,0.8192092720018991,,,060,001,2019_May_27_1009,MusicAffectPsychophysiology2019,3.0.5,59.97932033053783,
To what extent did the music make you feel ,ALERT,30MonoWAV/30MonoT4.wav,2,1,4,16,,,,,0,0,0,15,0,11,11,8,,,,,,,,,3,3.1348886209998454,,,060,001,2019_May_27_1009,MusicAffectPsychophysiology2019,3.0.5,59.97932033053783,
,,30MonoWAV/30MonoT4.wav,2,1,4,16,,,,,0,0,0,15,,,,,,,,,,,,,,,,,060,001,2019_May_27_1009,MusicAffectPsychophysiology2019,3.0.5,59.97932033053783,
To what extent did the music make you feel ,ALERT,30MonoWAV/30MonoS2.wav,1,1,3,10,,,,,0,1,1,9,0,0,0,8,,,1,4.584548062997783,2,4.648778663002304,2,2.2017032920011843,1,8.567118041999493,,,060,001,2019_May_27_1009,MusicAffectPsychophysiology2019,3.0.5,59.97932033053783,
To what extent did the music make you feel ,ASHAMED,30MonoWAV/30MonoS2.wav,1,1,3,10,,,,,0,1,1,9,0,1,1,4,,,,,,,,,1,2.0502683619997697,,,060,001,2019_May_27_1009,MusicAffectPsychophysiology2019,3.0.5,59.97932033053783,
To what extent did the music make you feel ,ACTIVE,30MonoWAV/30MonoS2.wav,1,1,3,10,,,,,0,1,1,9,0,2,2,9,,,,,,,,,1,1.7848393079984817,,,060,001,2019_May_27_1009,MusicAffectPsychophysiology2019,3.0.5,59.97932033053783,
To what extent did the music make you feel ,HAPPY,30MonoWAV/30MonoS2.wav,1,1,3,10,,,,,0,1,1,9,0,3,3,6,,,,,,,,,2,2.9180806529984693,,,060,001,2019_May_27_1009,MusicAffectPsychophysiology2019,3.0.5,59.97932033053783,
To what extent did the music make you feel ,SAD,30MonoWAV/30MonoS2.wav,1,1,3,10,,,,,0,1,1,9,0,4,4,0,,,,,,,,,1,0.9017363899984048,,,060,001,2019_May_27_1009,MusicAffectPsychophysiology2019,3.0.5,59.97932033053783,
To what extent did the music make you feel ,TENDER,30MonoWAV/30MonoS2.wav,1,1,3,10,,,,,0,1,1,9,0,5,5,10,,,,,,,,,1,2.3685970270016696,,,060,001,2019_May_27_1009,MusicAffectPsychophysiology2019,3.0.5,59.97932033053783,
To what extent did the music make you feel ,EXCITED,30MonoWAV/30MonoS2.wav,1,1,3,10,,,,,0,1,1,9,0,6,6,7,,,,,,,,,2,1.5520688670003437,,,060,001,2019_May_27_1009,MusicAffectPsychophysiology2019,3.0.5,59.97932033053783,
To what extent did the music make you feel ,FRUSTRATED,30MonoWAV/30MonoS2.wav,1,1,3,10,,,,,0,1,1,9,0,7,7,3,,,,,,,,,1,0.9011942170000111,,,060,001,2019_May_27_1009,MusicAffectPsychophysiology2019,3.0.5,59.97932033053783,
To what extent did the music make you feel ,ANXIOUS ,30MonoWAV/30MonoS2.wav,1,1,3,10,,,,,0,1,1,9,0,8,8,1,,,,,,,,,1,1.0508498780000082,,,060,001,2019_May_27_1009,MusicAffectPsychophysiology2019,3.0.5,59.97932033053783,
To what extent did the music make you feel ,SCARED,30MonoWAV/30MonoS2.wav,1,1,3,10,,,,,0,1,1,9,0,9,9,11,,,,,,,,,1,0.8515680199998314,,,060,001,2019_May_27_1009,MusicAffectPsychophysiology2019,3.0.5,59.97932033053783,
To what extent did the music make you feel ,GUILTY,30MonoWAV/30MonoS2.wav,1,1,3,10,,,,,0,1,1,9,0,10,10,5,,,,,,,,,1,1.5174643860009382,,,060,001,2019_May_27_1009,MusicAffectPsychophysiology2019,3.0.5,59.97932033053783,
To what extent did the music make you feel ,ANGRY,30MonoWAV/30MonoS2.wav,1,1,3,10,,,,,0,1,1,9,0,11,11,2,,,,,,,,,1,7.767245326002012,,,060,001,2019_May_27_1009,MusicAffectPsychophysiology2019,3.0.5,59.97932033053783,
,,30MonoWAV/30MonoS2.wav,1,1,3,10,,,,,0,1,1,9,,,,,,,,,,,,,,,,,060,001,2019_May_27_1009,MusicAffectPsychophysiology2019,3.0.5,59.97932033053783,
To what extent did the music make you feel ,ANXIOUS ,30MonoWAV/30MonoH1.wav,2,2,1,5,,,,,0,2,2,4,0,0,0,1,,,3,4.401637805000064,4,3.968640728999162,3,3.1847658769984264,1,1.3021748089995526,,,060,001,2019_May_27_1009,MusicAffectPsychophysiology2019,3.0.5,59.97932033053783,
To what extent did the music make you feel ,HAPPY,30MonoWAV/30MonoH1.wav,2,2,1,5,,,,,0,2,2,4,0,1,1,6,,,,,,,,,4,1.5174326189990097,,,060,001,2019_May_27_1009,MusicAffectPsychophysiology2019,3.0.5,59.97932033053783,
To what extent did the music make you feel ,GUILTY,30MonoWAV/30MonoH1.wav,2,2,1,5,,,,,0,2,2,4,0,2,2,5,,,,,,,,,1,1.0526025819999631,,,060,001,2019_May_27_1009,MusicAffectPsychophysiology2019,3.0.5,59.97932033053783,
To what extent did the music make you feel ,TENDER,30MonoWAV/30MonoH1.wav,2,2,1,5,,,,,0,2,2,4,0,3,3,10,,,,,,,,,1,1.2182834859995637,,,060,001,2019_May_27_1009,MusicAffectPsychophysiology2019,3.0.5,59.97932033053783,
To what extent did the music make you feel ,FRUSTRATED,30MonoWAV/30MonoH1.wav,2,2,1,5,,,,,0,2,2,4,0,4,4,3,,,,,,,,,1,0.8017399730015313,,,060,001,2019_May_27_1009,MusicAffectPsychophysiology2019,3.0.5,59.97932033053783,
To what extent did the music make you feel ,ACTIVE,30MonoWAV/30MonoH1.wav,2,2,1,5,,,,,0,2,2,4,0,5,5,9,,,,,,,,,4,1.4349279020025278,,,060,001,2019_May_27_1009,MusicAffectPsychophysiology2019,3.0.5,59.97932033053783,
To what extent did the music make you feel ,SAD,30MonoWAV/30MonoH1.wav,2,2,1,5,,,,,0,2,2,4,0,6,6,0,,,,,,,,,1,0.8177841379983875,,,060,001,2019_May_27_1009,MusicAffectPsychophysiology2019,3.0.5,59.97932033053783,
To what extent did the music make you feel ,SCARED,30MonoWAV/30MonoH1.wav,2,2,1,5,,,,,0,2,2,4,0,7,7,11,,,,,,,,,1,2.5017757520035957,,,060,001,2019_May_27_1009,MusicAffectPsychophysiology2019,3.0.5,59.97932033053783,
To what extent did the music make you feel ,ASHAMED,30MonoWAV/30MonoH1.wav,2,2,1,5,,,,,0,2,2,4,0,8,8,4,,,,,,,,,1,0.6848810000010417,,,060,001,2019_May_27_1009,MusicAffectPsychophysiology2019,3.0.5,59.97932033053783,
To what extent did the music make you feel ,EXCITED,30MonoWAV/30MonoH1.wav,2,2,1,5,,,,,0,2,2,4,0,9,9,7,,,,,,,,,4,1.235333755997999,,,060,001,2019_May_27_1009,MusicAffectPsychophysiology2019,3.0.5,59.97932033053783,
To what extent did the music make you feel ,ALERT,30MonoWAV/30MonoH1.wav,2,2,1,5,,,,,0,2,2,4,0,10,10,8,,,,,,,,,4,2.883526408000762,,,060,001,2019_May_27_1009,MusicAffectPsychophysiology2019,3.0.5,59.97932033053783,
To what extent did the music make you feel ,ANGRY,30MonoWAV/30MonoH1.wav,2,2,1,5,,,,,0,2,2,4,0,11,11,2,,,,,,,,,1,0.9356001399974048,,,060,001,2019_May_27_1009,MusicAffectPsychophysiology2019,3.0.5,59.97932033053783,
,,30MonoWAV/30MonoH1.wav,2,2,1,5,,,,,0,2,2,4,,,,,,,,,,,,,,,,,060,001,2019_May_27_1009,MusicAffectPsychophysiology2019,3.0.5,59.97932033053783,
To what extent did the music make you feel ,FRUSTRATED,30MonoWAV/30MonoS4.wav,1,1,3,12,,,,,0,3,3,11,0,0,0,3,,,1,3.6341080849997525,2,4.717276830000628,2,2.168426754000393,1,1.2846444310016523,,,060,001,2019_May_27_1009,MusicAffectPsychophysiology2019,3.0.5,59.97932033053783,
To what extent did the music make you feel ,ANXIOUS ,30MonoWAV/30MonoS4.wav,1,1,3,12,,,,,0,3,3,11,0,1,1,1,,,,,,,,,2,1.6849932039986015,,,060,001,2019_May_27_1009,MusicAffectPsychophysiology2019,3.0.5,59.97932033053783,
To what extent did the music make you feel ,SAD,30MonoWAV/30MonoS4.wav,1,1,3,12,,,,,0,3,3,11,0,2,2,0,,,,,,,,,2,3.7835003299987875,,,060,001,2019_May_27_1009,MusicAffectPsychophysiology2019,3.0.5,59.97932033053783,
To what extent did the music make you feel ,GUILTY,30MonoWAV/30MonoS4.wav,1,1,3,12,,,,,0,3,3,11,0,3,3,5,,,,,,,,,1,1.0177008810023835,,,060,001,2019_May_27_1009,MusicAffectPsychophysiology2019,3.0.5,59.97932033053783,
To what extent did the music make you feel ,ALERT,30MonoWAV/30MonoS4.wav,1,1,3,12,,,,,0,3,3,11,0,4,4,8,,,,,,,,,1,2.6176646019994223,,,060,001,2019_May_27_1009,MusicAffectPsychophysiology2019,3.0.5,59.97932033053783,
To what extent did the music make you feel ,TENDER,30MonoWAV/30MonoS4.wav,1,1,3,12,,,,,0,3,3,11,0,5,5,10,,,,,,,,,1,1.6174872900010087,,,060,001,2019_May_27_1009,MusicAffectPsychophysiology2019,3.0.5,59.97932033053783,
To what extent did the music make you feel ,EXCITED,30MonoWAV/30MonoS4.wav,1,1,3,12,,,,,0,3,3,11,0,6,6,7,,,,,,,,,1,2.1843156239992823,,,060,001,2019_May_27_1009,MusicAffectPsychophysiology2019,3.0.5,59.97932033053783,
To what extent did the music make you feel ,ASHAMED,30MonoWAV/30MonoS4.wav,1,1,3,12,,,,,0,3,3,11,0,7,7,4,,,,,,,,,2,1.7183904770026857,,,060,001,2019_May_27_1009,MusicAffectPsychophysiology2019,3.0.5,59.97932033053783,
To what extent did the music make you feel ,HAPPY,30MonoWAV/30MonoS4.wav,1,1,3,12,,,,,0,3,3,11,0,8,8,6,,,,,,,,,2,7.917488080001931,,,060,001,2019_May_27_1009,MusicAffectPsychophysiology2019,3.0.5,59.97932033053783,
To what extent did the music make you feel ,ANGRY,30MonoWAV/30MonoS4.wav,1,1,3,12,,,,,0,3,3,11,0,9,9,2,,,,,,,,,1,0.8695511000005354,,,060,001,2019_May_27_1009,MusicAffectPsychophysiology2019,3.0.5,59.97932033053783,
To what extent did the music make you feel ,ACTIVE,30MonoWAV/30MonoS4.wav,1,1,3,12,,,,,0,3,3,11,0,10,10,9,,,,,,,,,1,1.9674960560005275,,,060,001,2019_May_27_1009,MusicAffectPsychophysiology2019,3.0.5,59.97932033053783,
To what extent did the music make you feel ,SCARED,30MonoWAV/30MonoS4.wav,1,1,3,12,,,,,0,3,3,11,0,11,11,11,,,,,,,,,2,3.152289389003272,,,060,001,2019_May_27_1009,MusicAffectPsychophysiology2019,3.0.5,59.97932033053783,
,,30MonoWAV/30MonoS4.wav,1,1,3,12,,,,,0,3,3,11,,,,,,,,,,,,,,,,,060,001,2019_May_27_1009,MusicAffectPsychophysiology2019,3.0.5,59.97932033053783,
To what extent did the music make you feel ,GUILTY,30MonoWAV/30MonoT1.wav,2,1,4,13,,,,,0,4,4,12,0,0,0,5,,,1,3.5055802759998187,3,5.289325795001787,3,2.5734408060015994,1,1.6538193689993932,,,060,001,2019_May_27_1009,MusicAffectPsychophysiology2019,3.0.5,59.97932033053783,
To what extent did the music make you feel ,ALERT,30MonoWAV/30MonoT1.wav,2,1,4,13,,,,,0,4,4,12,0,1,1,8,,,,,,,,,2,2.052625282001827,,,060,001,2019_May_27_1009,MusicAffectPsychophysiology2019,3.0.5,59.97932033053783,
To what extent did the music make you feel ,ANXIOUS ,30MonoWAV/30MonoT1.wav,2,1,4,13,,,,,0,4,4,12,0,2,2,1,,,,,,,,,1,0.8695617379999021,,,060,001,2019_May_27_1009,MusicAffectPsychophysiology2019,3.0.5,59.97932033053783,
To what extent did the music make you feel ,SCARED,30MonoWAV/30MonoT1.wav,2,1,4,13,,,,,0,4,4,12,0,3,3,11,,,,,,,,,1,0.8695355630006816,,,060,001,2019_May_27_1009,MusicAffectPsychophysiology2019,3.0.5,59.97932033053783,
To what extent did the music make you feel ,FRUSTRATED,30MonoWAV/30MonoT1.wav,2,1,4,13,,,,,0,4,4,12,0,4,4,3,,,,,,,,,1,0.756033646997821,,,060,001,2019_May_27_1009,MusicAffectPsychophysiology2019,3.0.5,59.97932033053783,
To what extent did the music make you feel ,HAPPY,30MonoWAV/30MonoT1.wav,2,1,4,13,,,,,0,4,4,12,0,5,5,6,,,,,,,,,2,1.201320445001329,,,060,001,2019_May_27_1009,MusicAffectPsychophysiology2019,3.0.5,59.97932033053783,
To what extent did the music make you feel ,TENDER,30MonoWAV/30MonoT1.wav,2,1,4,13,,,,,0,4,4,12,0,6,6,10,,,,,,,,,1,0.6005306240003847,,,060,001,2019_May_27_1009,MusicAffectPsychophysiology2019,3.0.5,59.97932033053783,
To what extent did the music make you feel ,ASHAMED,30MonoWAV/30MonoT1.wav,2,1,4,13,,,,,0,4,4,12,0,7,7,4,,,,,,,,,1,1.2696071559985285,,,060,001,2019_May_27_1009,MusicAffectPsychophysiology2019,3.0.5,59.97932033053783,
To what extent did the music make you feel ,ANGRY,30MonoWAV/30MonoT1.wav,2,1,4,13,,,,,0,4,4,12,0,8,8,2,,,,,,,,,1,0.8505409019999206,,,060,001,2019_May_27_1009,MusicAffectPsychophysiology2019,3.0.5,59.97932033053783,
To what extent did the music make you feel ,SAD,30MonoWAV/30MonoT1.wav,2,1,4,13,,,,,0,4,4,12,0,9,9,0,,,,,,,,,1,3.9689785219998157,,,060,001,2019_May_27_1009,MusicAffectPsychophysiology2019,3.0.5,59.97932033053783,
To what extent did the music make you feel ,ACTIVE,30MonoWAV/30MonoT1.wav,2,1,4,13,,,,,0,4,4,12,0,10,10,9,,,,,,,,,1,1.7680754629982403,,,060,001,2019_May_27_1009,MusicAffectPsychophysiology2019,3.0.5,59.97932033053783,
To what extent did the music make you feel ,EXCITED,30MonoWAV/30MonoT1.wav,2,1,4,13,,,,,0,4,4,12,0,11,11,7,,,,,,,,,1,2.1668037679992267,,,060,001,2019_May_27_1009,MusicAffectPsychophysiology2019,3.0.5,59.97932033053783,
,,30MonoWAV/30MonoT1.wav,2,1,4,13,,,,,0,4,4,12,,,,,,,,,,,,,,,,,060,001,2019_May_27_1009,MusicAffectPsychophysiology2019,3.0.5,59.97932033053783,
To what extent did the music make you feel ,HAPPY,30MonoWAV/30MonoF4.wav,1,2,2,4,,,,,0,5,5,3,0,0,0,6,,,3,3.986653848998685,2,3.1050501960016845,1,5.974887727999885,2,5.6030142579984386,,,060,001,2019_May_27_1009,MusicAffectPsychophysiology2019,3.0.5,59.97932033053783,
To what extent did the music make you feel ,FRUSTRATED,30MonoWAV/30MonoF4.wav,1,2,2,4,,,,,0,5,5,3,0,1,1,3,,,,,,,,,1,1.4515298309997888,,,060,001,2019_May_27_1009,MusicAffectPsychophysiology2019,3.0.5,59.97932033053783,
To what extent did the music make you feel ,TENDER,30MonoWAV/30MonoF4.wav,1,2,2,4,,,,,0,5,5,3,0,2,2,10,,,,,,,,,1,0.7690011680024327,,,060,001,2019_May_27_1009,MusicAffectPsychophysiology2019,3.0.5,59.97932033053783,
To what extent did the music make you feel ,ACTIVE,30MonoWAV/30MonoF4.wav,1,2,2,4,,,,,0,5,5,3,0,3,3,9,,,,,,,,,3,1.5511330070003169,,,060,001,2019_May_27_1009,MusicAffectPsychophysiology2019,3.0.5,59.97932033053783,
To what extent did the music make you feel ,GUILTY,30MonoWAV/30MonoF4.wav,1,2,2,4,,,,,0,5,5,3,0,4,4,5,,,,,,,,,1,0.8513493639984517,,,060,001,2019_May_27_1009,MusicAffectPsychophysiology2019,3.0.5,59.97932033053783,
To what extent did the music make you feel ,ANXIOUS ,30MonoWAV/30MonoF4.wav,1,2,2,4,,,,,0,5,5,3,0,5,5,1,,,,,,,,,2,2.301995778998389,,,060,001,2019_May_27_1009,MusicAffectPsychophysiology2019,3.0.5,59.97932033053783,
To what extent did the music make you feel ,EXCITED,30MonoWAV/30MonoF4.wav,1,2,2,4,,,,,0,5,5,3,0,6,6,7,,,,,,,,,2,1.4844291189983778,,,060,001,2019_May_27_1009,MusicAffectPsychophysiology2019,3.0.5,59.97932033053783,
To what extent did the music make you feel ,SCARED,30MonoWAV/30MonoF4.wav,1,2,2,4,,,,,0,5,5,3,0,7,7,11,,,,,,,,,1,1.335368464999192,,,060,001,2019_May_27_1009,MusicAffectPsychophysiology2019,3.0.5,59.97932033053783,
To what extent did the music make you feel ,ANGRY,30MonoWAV/30MonoF4.wav,1,2,2,4,,,,,0,5,5,3,0,8,8,2,,,,,,,,,1,2.884855051001068,,,060,001,2019_May_27_1009,MusicAffectPsychophysiology2019,3.0.5,59.97932033053783,
To what extent did the music make you feel ,ASHAMED,30MonoWAV/30MonoF4.wav,1,2,2,4,,,,,0,5,5,3,0,9,9,4,,,,,,,,,1,0.7852977700022166,,,060,001,2019_May_27_1009,MusicAffectPsychophysiology2019,3.0.5,59.97932033053783,
To what extent did the music make you feel ,ALERT,30MonoWAV/30MonoF4.wav,1,2,2,4,,,,,0,5,5,3,0,10,10,8,,,,,,,,,4,2.917601350000041,,,060,001,2019_May_27_1009,MusicAffectPsychophysiology2019,3.0.5,59.97932033053783,
To what extent did the music make you feel ,SAD,30MonoWAV/30MonoF4.wav,1,2,2,4,,,,,0,5,5,3,0,11,11,0,,,,,,,,,1,1.4011643910016573,,,060,001,2019_May_27_1009,MusicAffectPsychophysiology2019,3.0.5,59.97932033053783,
,,30MonoWAV/30MonoF4.wav,1,2,2,4,,,,,0,5,5,3,,,,,,,,,,,,,,,,,060,001,2019_May_27_1009,MusicAffectPsychophysiology2019,3.0.5,59.97932033053783,
To what extent did the music make you feel ,SAD,30MonoWAV/30MonoH3.wav,2,2,1,7,,,,,0,6,6,6,0,0,0,0,,,3,6.184038593997684,4,2.301539471001888,3,2.7850400729985267,1,1.2356002330016054,,,060,001,2019_May_27_1009,MusicAffectPsychophysiology2019,3.0.5,59.97932033053783,
To what extent did the music make you feel ,ACTIVE,30MonoWAV/30MonoH3.wav,2,2,1,7,,,,,0,6,6,6,0,1,1,9,,,,,,,,,4,2.4182479470000544,,,060,001,2019_May_27_1009,MusicAffectPsychophysiology2019,3.0.5,59.97932033053783,
To what extent did the music make you feel ,SCARED,30MonoWAV/30MonoH3.wav,2,2,1,7,,,,,0,6,6,6,0,2,2,11,,,,,,,,,1,0.9170706339973549,,,060,001,2019_May_27_1009,MusicAffectPsychophysiology2019,3.0.5,59.97932033053783,
To what extent did the music make you feel ,GUILTY,30MonoWAV/30MonoH3.wav,2,2,1,7,,,,,0,6,6,6,0,3,3,5,,,,,,,,,1,0.8854502650028735,,,060,001,2019_May_27_1009,MusicAffectPsychophysiology2019,3.0.5,59.97932033053783,
To what extent did the music make you feel ,ASHAMED,30MonoWAV/30MonoH3.wav,2,2,1,7,,,,,0,6,6,6,0,4,4,4,,,,,,,,,1,0.6360743299992464,,,060,001,2019_May_27_1009,MusicAffectPsychophysiology2019,3.0.5,59.97932033053783,
To what extent did the music make you feel ,ALERT,30MonoWAV/30MonoH3.wav,2,2,1,7,,,,,0,6,6,6,0,5,5,8,,,,,,,,,4,1.1357871670006716,,,060,001,2019_May_27_1009,MusicAffectPsychophysiology2019,3.0.5,59.97932033053783,
To what extent did the music make you feel ,TENDER,30MonoWAV/30MonoH3.wav,2,2,1,7,,,,,0,6,6,6,0,6,6,10,,,,,,,,,1,0.751110378998419,,,060,001,2019_May_27_1009,MusicAffectPsychophysiology2019,3.0.5,59.97932033053783,
To what extent did the music make you feel ,ANGRY,30MonoWAV/30MonoH3.wav,2,2,1,7,,,,,0,6,6,6,0,7,7,2,,,,,,,,,1,1.1179572289984208,,,060,001,2019_May_27_1009,MusicAffectPsychophysiology2019,3.0.5,59.97932033053783,
To what extent did the music make you feel ,FRUSTRATED,30MonoWAV/30MonoH3.wav,2,2,1,7,,,,,0,6,6,6,0,8,8,3,,,,,,,,,1,0.8180216789987753,,,060,001,2019_May_27_1009,MusicAffectPsychophysiology2019,3.0.5,59.97932033053783,
To what extent did the music make you feel ,HAPPY,30MonoWAV/30MonoH3.wav,2,2,1,7,,,,,0,6,6,6,0,9,9,6,,,,,,,,,4,1.067962384000566,,,060,001,2019_May_27_1009,MusicAffectPsychophysiology2019,3.0.5,59.97932033053783,
To what extent did the music make you feel ,EXCITED,30MonoWAV/30MonoH3.wav,2,2,1,7,,,,,0,6,6,6,0,10,10,7,,,,,,,,,3,3.833585516000312,,,060,001,2019_May_27_1009,MusicAffectPsychophysiology2019,3.0.5,59.97932033053783,
To what extent did the music make you feel ,ANXIOUS ,30MonoWAV/30MonoH3.wav,2,2,1,7,,,,,0,6,6,6,0,11,11,1,,,,,,,,,1,1.0517549339965626,,,060,001,2019_May_27_1009,MusicAffectPsychophysiology2019,3.0.5,59.97932033053783,
,,30MonoWAV/30MonoH3.wav,2,2,1,7,,,,,0,6,6,6,,,,,,,,,,,,,,,,,060,001,2019_May_27_1009,MusicAffectPsychophysiology2019,3.0.5,59.97932033053783,
To what extent did the music make you feel ,HAPPY,30MonoWAV/30MonoH4.wav,2,2,1,8,,,,,0,7,7,7,0,0,0,6,,,4,2.835457598001085,4,2.2843545019968587,4,2.069160862996796,4,2.831915984999796,,,060,001,2019_May_27_1009,MusicAffectPsychophysiology2019,3.0.5,59.97932033053783,
To what extent did the music make you feel ,EXCITED,30MonoWAV/30MonoH4.wav,2,2,1,8,,,,,0,7,7,7,0,1,1,7,,,,,,,,,3,1.485526910997578,,,060,001,2019_May_27_1009,MusicAffectPsychophysiology2019,3.0.5,59.97932033053783,
To what extent did the music make you feel ,ALERT,30MonoWAV/30MonoH4.wav,2,2,1,8,,,,,0,7,7,7,0,2,2,8,,,,,,,,,4,1.184971062997647,,,060,001,2019_May_27_1009,MusicAffectPsychophysiology2019,3.0.5,59.97932033053783,
To what extent did the music make you feel ,SCARED,30MonoWAV/30MonoH4.wav,2,2,1,8,,,,,0,7,7,7,0,3,3,11,,,,,,,,,1,0.8843888970004627,,,060,001,2019_May_27_1009,MusicAffectPsychophysiology2019,3.0.5,59.97932033053783,
To what extent did the music make you feel ,ASHAMED,30MonoWAV/30MonoH4.wav,2,2,1,8,,,,,0,7,7,7,0,4,4,4,,,,,,,,,1,0.8523148839994974,,,060,001,2019_May_27_1009,MusicAffectPsychophysiology2019,3.0.5,59.97932033053783,
To what extent did the music make you feel ,FRUSTRATED,30MonoWAV/30MonoH4.wav,2,2,1,8,,,,,0,7,7,7,0,5,5,3,,,,,,,,,1,0.7007315500013647,,,060,001,2019_May_27_1009,MusicAffectPsychophysiology2019,3.0.5,59.97932033053783,
To what extent did the music make you feel ,SAD,30MonoWAV/30MonoH4.wav,2,2,1,8,,,,,0,7,7,7,0,6,6,0,,,,,,,,,1,0.7840909689984983,,,060,001,2019_May_27_1009,MusicAffectPsychophysiology2019,3.0.5,59.97932033053783,
To what extent did the music make you feel ,ANXIOUS ,30MonoWAV/30MonoH4.wav,2,2,1,8,,,,,0,7,7,7,0,7,7,1,,,,,,,,,1,0.7517000699990604,,,060,001,2019_May_27_1009,MusicAffectPsychophysiology2019,3.0.5,59.97932033053783,
To what extent did the music make you feel ,ANGRY,30MonoWAV/30MonoH4.wav,2,2,1,8,,,,,0,7,7,7,0,8,8,2,,,,,,,,,1,0.61637146999783,,,060,001,2019_May_27_1009,MusicAffectPsychophysiology2019,3.0.5,59.97932033053783,
To what extent did the music make you feel ,TENDER,30MonoWAV/30MonoH4.wav,2,2,1,8,,,,,0,7,7,7,0,9,9,10,,,,,,,,,1,0.6176076520023344,,,060,001,2019_May_27_1009,MusicAffectPsychophysiology2019,3.0.5,59.97932033053783,
To what extent did the music make you feel ,ACTIVE,30MonoWAV/30MonoH4.wav,2,2,1,8,,,,,0,7,7,7,0,10,10,9,,,,,,,,,4,2.5852987530015525,,,060,001,2019_May_27_1009,MusicAffectPsychophysiology2019,3.0.5,59.97932033053783,
To what extent did the music make you feel ,GUILTY,30MonoWAV/30MonoH4.wav,2,2,1,8,,,,,0,7,7,7,0,11,11,5,,,,,,,,,1,0.8522032090004359,,,060,001,2019_May_27_1009,MusicAffectPsychophysiology2019,3.0.5,59.97932033053783,
,,30MonoWAV/30MonoH4.wav,2,2,1,8,,,,,0,7,7,7,,,,,,,,,,,,,,,,,060,001,2019_May_27_1009,MusicAffectPsychophysiology2019,3.0.5,59.97932033053783,
To what extent did the music make you feel ,SCARED,30MonoWAV/30MonoH2.wav,2,2,1,6,,,,,0,8,8,5,0,0,0,11,,,2,4.818088838997937,3,2.267493772000307,3,3.435306691997539,1,1.3010040420012956,,,060,001,2019_May_27_1009,MusicAffectPsychophysiology2019,3.0.5,59.97932033053783,
To what extent did the music make you feel ,SAD,30MonoWAV/30MonoH2.wav,2,2,1,6,,,,,0,8,8,5,0,1,1,0,,,,,,,,,1,0.5865189030009788,,,060,001,2019_May_27_1009,MusicAffectPsychophysiology2019,3.0.5,59.97932033053783,
To what extent did the music make you feel ,ANXIOUS ,30MonoWAV/30MonoH2.wav,2,2,1,6,,,,,0,8,8,5,0,2,2,1,,,,,,,,,1,1.201927871999942,,,060,001,2019_May_27_1009,MusicAffectPsychophysiology2019,3.0.5,59.97932033053783,
To what extent did the music make you feel ,HAPPY,30MonoWAV/30MonoH2.wav,2,2,1,6,,,,,0,8,8,5,0,3,3,6,,,,,,,,,3,1.3521042979991762,,,060,001,2019_May_27_1009,MusicAffectPsychophysiology2019,3.0.5,59.97932033053783,
To what extent did the music make you feel ,TENDER,30MonoWAV/30MonoH2.wav,2,2,1,6,,,,,0,8,8,5,0,4,4,10,,,,,,,,,1,0.7848263400010183,,,060,001,2019_May_27_1009,MusicAffectPsychophysiology2019,3.0.5,59.97932033053783,
To what extent did the music make you feel ,EXCITED,30MonoWAV/30MonoH2.wav,2,2,1,6,,,,,0,8,8,5,0,5,5,7,,,,,,,,,2,2.417708629000117,,,060,001,2019_May_27_1009,MusicAffectPsychophysiology2019,3.0.5,59.97932033053783,
To what extent did the music make you feel ,GUILTY,30MonoWAV/30MonoH2.wav,2,2,1,6,,,,,0,8,8,5,0,6,6,5,,,,,,,,,1,1.4687225990019215,,,060,001,2019_May_27_1009,MusicAffectPsychophysiology2019,3.0.5,59.97932033053783,
To what extent did the music make you feel ,ACTIVE,30MonoWAV/30MonoH2.wav,2,2,1,6,,,,,0,8,8,5,0,7,7,9,,,,,,,,,3,1.4505989079989376,,,060,001,2019_May_27_1009,MusicAffectPsychophysiology2019,3.0.5,59.97932033053783,
To what extent did the music make you feel ,ANGRY,30MonoWAV/30MonoH2.wav,2,2,1,6,,,,,0,8,8,5,0,8,8,2,,,,,,,,,1,3.518202650000603,,,060,001,2019_May_27_1009,MusicAffectPsychophysiology2019,3.0.5,59.97932033053783,
To what extent did the music make you feel ,ASHAMED,30MonoWAV/30MonoH2.wav,2,2,1,6,,,,,0,8,8,5,0,9,9,4,,,,,,,,,1,0.5671879860019544,,,060,001,2019_May_27_1009,MusicAffectPsychophysiology2019,3.0.5,59.97932033053783,
To what extent did the music make you feel ,ALERT,30MonoWAV/30MonoH2.wav,2,2,1,6,,,,,0,8,8,5,0,10,10,8,,,,,,,,,3,2.034528809999756,,,060,001,2019_May_27_1009,MusicAffectPsychophysiology2019,3.0.5,59.97932033053783,
To what extent did the music make you feel ,FRUSTRATED,30MonoWAV/30MonoH2.wav,2,2,1,6,,,,,0,8,8,5,0,11,11,3,,,,,,,,,1,1.019108487998892,,,060,001,2019_May_27_1009,MusicAffectPsychophysiology2019,3.0.5,59.97932033053783,
,,30MonoWAV/30MonoH2.wav,2,2,1,6,,,,,0,8,8,5,,,,,,,,,,,,,,,,,060,001,2019_May_27_1009,MusicAffectPsychophysiology2019,3.0.5,59.97932033053783,
To what extent did the music make you feel ,ANXIOUS ,30MonoWAV/30MonoF2.wav,1,2,2,2,,,,,0,9,9,1,0,0,0,1,,,2,5.143749016999209,1,3.3839348110013816,1,2.3187198170016927,4,3.284278661998542,,,060,001,2019_May_27_1009,MusicAffectPsychophysiology2019,3.0.5,59.97932033053783,
To what extent did the music make you feel ,EXCITED,30MonoWAV/30MonoF2.wav,1,2,2,2,,,,,0,9,9,1,0,1,1,7,,,,,,,,,1,3.9181455739999365,,,060,001,2019_May_27_1009,MusicAffectPsychophysiology2019,3.0.5,59.97932033053783,
To what extent did the music make you feel ,GUILTY,30MonoWAV/30MonoF2.wav,1,2,2,2,,,,,0,9,9,1,0,2,2,5,,,,,,,,,1,0.8182799460009846,,,060,001,2019_May_27_1009,MusicAffectPsychophysiology2019,3.0.5,59.97932033053783,
To what extent did the music make you feel ,SCARED,30MonoWAV/30MonoF2.wav,1,2,2,2,,,,,0,9,9,1,0,3,3,11,,,,,,,,,3,2.8518975880033395,,,060,001,2019_May_27_1009,MusicAffectPsychophysiology2019,3.0.5,59.97932033053783,
To what extent did the music make you feel ,HAPPY,30MonoWAV/30MonoF2.wav,1,2,2,2,,,,,0,9,9,1,0,4,4,6,,,,,,,,,1,3.1684871750003367,,,060,001,2019_May_27_1009,MusicAffectPsychophysiology2019,3.0.5,59.97932033053783,
To what extent did the music make you feel ,ACTIVE,30MonoWAV/30MonoF2.wav,1,2,2,2,,,,,0,9,9,1,0,5,5,9,,,,,,,,,1,1.1511352470006386,,,060,001,2019_May_27_1009,MusicAffectPsychophysiology2019,3.0.5,59.97932033053783,
To what extent did the music make you feel ,ASHAMED,30MonoWAV/30MonoF2.wav,1,2,2,2,,,,,0,9,9,1,0,6,6,4,,,,,,,,,1,0.950936469998851,,,060,001,2019_May_27_1009,MusicAffectPsychophysiology2019,3.0.5,59.97932033053783,
To what extent did the music make you feel ,ALERT,30MonoWAV/30MonoF2.wav,1,2,2,2,,,,,0,9,9,1,0,7,7,8,,,,,,,,,4,2.2840791089984123,,,060,001,2019_May_27_1009,MusicAffectPsychophysiology2019,3.0.5,59.97932033053783,
To what extent did the music make you feel ,TENDER,30MonoWAV/30MonoF2.wav,1,2,2,2,,,,,0,9,9,1,0,8,8,10,,,,,,,,,1,1.5683128780001425,,,060,001,2019_May_27_1009,MusicAffectPsychophysiology2019,3.0.5,59.97932033053783,
To what extent did the music make you feel ,FRUSTRATED,30MonoWAV/30MonoF2.wav,1,2,2,2,,,,,0,9,9,1,0,9,9,3,,,,,,,,,1,2.1023899530009658,,,060,001,2019_May_27_1009,MusicAffectPsychophysiology2019,3.0.5,59.97932033053783,
To what extent did the music make you feel ,ANGRY,30MonoWAV/30MonoF2.wav,1,2,2,2,,,,,0,9,9,1,0,10,10,2,,,,,,,,,1,0.9001911330014991,,,060,001,2019_May_27_1009,MusicAffectPsychophysiology2019,3.0.5,59.97932033053783,
To what extent did the music make you feel ,SAD,30MonoWAV/30MonoF2.wav,1,2,2,2,,,,,0,9,9,1,0,11,11,0,,,,,,,,,2,1.4686184399979538,,,060,001,2019_May_27_1009,MusicAffectPsychophysiology2019,3.0.5,59.97932033053783,
,,30MonoWAV/30MonoF2.wav,1,2,2,2,,,,,0,9,9,1,,,,,,,,,,,,,,,,,060,001,2019_May_27_1009,MusicAffectPsychophysiology2019,3.0.5,59.97932033053783,
To what extent did the music make you feel ,ALERT,30MonoWAV/30MonoS3.wav,1,1,3,11,,,,,0,10,10,10,0,0,0,8,,,1,5.034347851000348,1,2.3682148809966748,1,1.6682907989998057,1,2.718823428000178,,,060,001,2019_May_27_1009,MusicAffectPsychophysiology2019,3.0.5,59.97932033053783,
To what extent did the music make you feel ,EXCITED,30MonoWAV/30MonoS3.wav,1,1,3,11,,,,,0,10,10,10,0,1,1,7,,,,,,,,,1,1.26851480500045,,,060,001,2019_May_27_1009,MusicAffectPsychophysiology2019,3.0.5,59.97932033053783,
To what extent did the music make you feel ,HAPPY,30MonoWAV/30MonoS3.wav,1,1,3,11,,,,,0,10,10,10,0,2,2,6,,,,,,,,,1,1.4854570099996636,,,060,001,2019_May_27_1009,MusicAffectPsychophysiology2019,3.0.5,59.97932033053783,
To what extent did the music make you feel ,ANGRY,30MonoWAV/30MonoS3.wav,1,1,3,11,,,,,0,10,10,10,0,3,3,2,,,,,,,,,1,0.9667195999973046,,,060,001,2019_May_27_1009,MusicAffectPsychophysiology2019,3.0.5,59.97932033053783,
To what extent did the music make you feel ,SCARED,30MonoWAV/30MonoS3.wav,1,1,3,11,,,,,0,10,10,10,0,4,4,11,,,,,,,,,3,2.0015629880035704,,,060,001,2019_May_27_1009,MusicAffectPsychophysiology2019,3.0.5,59.97932033053783,
To what extent did the music make you feel ,SAD,30MonoWAV/30MonoS3.wav,1,1,3,11,,,,,0,10,10,10,0,5,5,0,,,,,,,,,3,1.2508277720007754,,,060,001,2019_May_27_1009,MusicAffectPsychophysiology2019,3.0.5,59.97932033053783,
To what extent did the music make you feel ,FRUSTRATED,30MonoWAV/30MonoS3.wav,1,1,3,11,,,,,0,10,10,10,0,6,6,3,,,,,,,,,1,1.1682677220014739,,,060,001,2019_May_27_1009,MusicAffectPsychophysiology2019,3.0.5,59.97932033053783,
To what extent did the music make you feel ,TENDER,30MonoWAV/30MonoS3.wav,1,1,3,11,,,,,0,10,10,10,0,7,7,10,,,,,,,,,2,1.9683646930025134,,,060,001,2019_May_27_1009,MusicAffectPsychophysiology2019,3.0.5,59.97932033053783,
To what extent did the music make you feel ,ANXIOUS ,30MonoWAV/30MonoS3.wav,1,1,3,11,,,,,0,10,10,10,0,8,8,1,,,,,,,,,2,1.9671050990000367,,,060,001,2019_May_27_1009,MusicAffectPsychophysiology2019,3.0.5,59.97932033053783,
To what extent did the music make you feel ,GUILTY,30MonoWAV/30MonoS3.wav,1,1,3,11,,,,,0,10,10,10,0,9,9,5,,,,,,,,,1,1.5501428370007488,,,060,001,2019_May_27_1009,MusicAffectPsychophysiology2019,3.0.5,59.97932033053783,
To what extent did the music make you feel ,ACTIVE,30MonoWAV/30MonoS3.wav,1,1,3,11,,,,,0,10,10,10,0,10,10,9,,,,,,,,,1,1.6348219600004086,,,060,001,2019_May_27_1009,MusicAffectPsychophysiology2019,3.0.5,59.97932033053783,
To what extent did the music make you feel ,ASHAMED,30MonoWAV/30MonoS3.wav,1,1,3,11,,,,,0,10,10,10,0,11,11,4,,,,,,,,,1,1.0670531150026363,,,060,001,2019_May_27_1009,MusicAffectPsychophysiology2019,3.0.5,59.97932033053783,
,,30MonoWAV/30MonoS3.wav,1,1,3,11,,,,,0,10,10,10,,,,,,,,,,,,,,,,,060,001,2019_May_27_1009,MusicAffectPsychophysiology2019,3.0.5,59.97932033053783,
To what extent did the music make you feel ,SCARED,30MonoWAV/30MonoS1.wav,1,1,3,9,,,,,0,11,11,8,0,0,0,11,,,1,3.41869713000051,1,2.3521699350021663,1,1.5009850349997578,2,1.618976907000615,,,060,001,2019_May_27_1009,MusicAffectPsychophysiology2019,3.0.5,59.97932033053783,
To what extent did the music make you feel ,EXCITED,30MonoWAV/30MonoS1.wav,1,1,3,9,,,,,0,11,11,8,0,1,1,7,,,,,,,,,1,1.0514725239991094,,,060,001,2019_May_27_1009,MusicAffectPsychophysiology2019,3.0.5,59.97932033053783,
To what extent did the music make you feel ,ANXIOUS ,30MonoWAV/30MonoS1.wav,1,1,3,9,,,,,0,11,11,8,0,2,2,1,,,,,,,,,2,1.2682408720029343,,,060,001,2019_May_27_1009,MusicAffectPsychophysiology2019,3.0.5,59.97932033053783,
To what extent did the music make you feel ,ALERT,30MonoWAV/30MonoS1.wav,1,1,3,9,,,,,0,11,11,8,0,3,3,8,,,,,,,,,1,1.0832117479985754,,,060,001,2019_May_27_1009,MusicAffectPsychophysiology2019,3.0.5,59.97932033053783,
To what extent did the music make you feel ,SAD,30MonoWAV/30MonoS1.wav,1,1,3,9,,,,,0,11,11,8,0,4,4,0,,,,,,,,,3,2.151817509002285,,,060,001,2019_May_27_1009,MusicAffectPsychophysiology2019,3.0.5,59.97932033053783,
To what extent did the music make you feel ,ANGRY,30MonoWAV/30MonoS1.wav,1,1,3,9,,,,,0,11,11,8,0,5,5,2,,,,,,,,,1,0.8348361640018993,,,060,001,2019_May_27_1009,MusicAffectPsychophysiology2019,3.0.5,59.97932033053783,
To what extent did the music make you feel ,TENDER,30MonoWAV/30MonoS1.wav,1,1,3,9,,,,,0,11,11,8,0,6,6,10,,,,,,,,,1,1.5010204239988525,,,060,001,2019_May_27_1009,MusicAffectPsychophysiology2019,3.0.5,59.97932033053783,
To what extent did the music make you feel ,ACTIVE,30MonoWAV/30MonoS1.wav,1,1,3,9,,,,,0,11,11,8,0,7,7,9,,,,,,,,,1,1.3019837320025545,,,060,001,2019_May_27_1009,MusicAffectPsychophysiology2019,3.0.5,59.97932033053783,
To what extent did the music make you feel ,FRUSTRATED,30MonoWAV/30MonoS1.wav,1,1,3,9,,,,,0,11,11,8,0,8,8,3,,,,,,,,,1,0.7352810429983947,,,060,001,2019_May_27_1009,MusicAffectPsychophysiology2019,3.0.5,59.97932033053783,
To what extent did the music make you feel ,GUILTY,30MonoWAV/30MonoS1.wav,1,1,3,9,,,,,0,11,11,8,0,9,9,5,,,,,,,,,1,0.6165170079984819,,,060,001,2019_May_27_1009,MusicAffectPsychophysiology2019,3.0.5,59.97932033053783,
To what extent did the music make you feel ,ASHAMED,30MonoWAV/30MonoS1.wav,1,1,3,9,,,,,0,11,11,8,0,10,10,4,,,,,,,,,2,1.085366201998113,,,060,001,2019_May_27_1009,MusicAffectPsychophysiology2019,3.0.5,59.97932033053783,
To what extent did the music make you feel ,HAPPY,30MonoWAV/30MonoS1.wav,1,1,3,9,,,,,0,11,11,8,0,11,11,6,,,,,,,,,1,0.9016798699994979,,,060,001,2019_May_27_1009,MusicAffectPsychophysiology2019,3.0.5,59.97932033053783,
,,30MonoWAV/30MonoS1.wav,1,1,3,9,,,,,0,11,11,8,,,,,,,,,,,,,,,,,060,001,2019_May_27_1009,MusicAffectPsychophysiology2019,3.0.5,59.97932033053783,
To what extent did the music make you feel ,ANXIOUS ,30MonoWAV/30MonoF1.wav,1,2,2,1,,,,,0,12,12,0,0,0,0,1,,,3,2.8856865060006385,2,3.2842813250026666,2,2.65168117599751,3,2.8024336859998584,,,060,001,2019_May_27_1009,MusicAffectPsychophysiology2019,3.0.5,59.97932033053783,
To what extent did the music make you feel ,ACTIVE,30MonoWAV/30MonoF1.wav,1,2,2,1,,,,,0,12,12,0,0,1,1,9,,,,,,,,,3,1.3518907020006736,,,060,001,2019_May_27_1009,MusicAffectPsychophysiology2019,3.0.5,59.97932033053783,
To what extent did the music make you feel ,GUILTY,30MonoWAV/30MonoF1.wav,1,2,2,1,,,,,0,12,12,0,0,2,2,5,,,,,,,,,1,1.1841922189996694,,,060,001,2019_May_27_1009,MusicAffectPsychophysiology2019,3.0.5,59.97932033053783,
To what extent did the music make you feel ,FRUSTRATED,30MonoWAV/30MonoF1.wav,1,2,2,1,,,,,0,12,12,0,0,3,3,3,,,,,,,,,1,0.9182252739992691,,,060,001,2019_May_27_1009,MusicAffectPsychophysiology2019,3.0.5,59.97932033053783,
To what extent did the music make you feel ,ASHAMED,30MonoWAV/30MonoF1.wav,1,2,2,1,,,,,0,12,12,0,0,4,4,4,,,,,,,,,1,0.7345745700004045,,,060,001,2019_May_27_1009,MusicAffectPsychophysiology2019,3.0.5,59.97932033053783,
To what extent did the music make you feel ,ANGRY,30MonoWAV/30MonoF1.wav,1,2,2,1,,,,,0,12,12,0,0,5,5,2,,,,,,,,,1,0.8854102219993365,,,060,001,2019_May_27_1009,MusicAffectPsychophysiology2019,3.0.5,59.97932033053783,
To what extent did the music make you feel ,SCARED,30MonoWAV/30MonoF1.wav,1,2,2,1,,,,,0,12,12,0,0,6,6,11,,,,,,,,,2,1.4354796039988287,,,060,001,2019_May_27_1009,MusicAffectPsychophysiology2019,3.0.5,59.97932033053783,
To what extent did the music make you feel ,SAD,30MonoWAV/30MonoF1.wav,1,2,2,1,,,,,0,12,12,0,0,7,7,0,,,,,,,,,1,1.068504077000398,,,060,001,2019_May_27_1009,MusicAffectPsychophysiology2019,3.0.5,59.97932033053783,
To what extent did the music make you feel ,TENDER,30MonoWAV/30MonoF1.wav,1,2,2,1,,,,,0,12,12,0,0,8,8,10,,,,,,,,,1,1.821134871999675,,,060,001,2019_May_27_1009,MusicAffectPsychophysiology2019,3.0.5,59.97932033053783,
To what extent did the music make you feel ,HAPPY,30MonoWAV/30MonoF1.wav,1,2,2,1,,,,,0,12,12,0,0,9,9,6,,,,,,,,,1,3.305895978999615,,,060,001,2019_May_27_1009,MusicAffectPsychophysiology2019,3.0.5,59.97932033053783,
To what extent did the music make you feel ,ALERT,30MonoWAV/30MonoF1.wav,1,2,2,1,,,,,0,12,12,0,0,10,10,8,,,,,,,,,4,1.8868963250024535,,,060,001,2019_May_27_1009,MusicAffectPsychophysiology2019,3.0.5,59.97932033053783,
To what extent did the music make you feel ,EXCITED,30MonoWAV/30MonoF1.wav,1,2,2,1,,,,,0,12,12,0,0,11,11,7,,,,,,,,,2,1.7372342050002771,,,060,001,2019_May_27_1009,MusicAffectPsychophysiology2019,3.0.5,59.97932033053783,
,,30MonoWAV/30MonoF1.wav,1,2,2,1,,,,,0,12,12,0,,,,,,,,,,,,,,,,,060,001,2019_May_27_1009,MusicAffectPsychophysiology2019,3.0.5,59.97932033053783,
To what extent did the music make you feel ,ASHAMED,30MonoWAV/30MonoT2.wav,2,1,4,14,,,,,0,13,13,13,0,0,0,4,,,1,3.618412862000696,2,2.9514436240024224,2,1.6347494689980522,1,1.1995519599986437,,,060,001,2019_May_27_1009,MusicAffectPsychophysiology2019,3.0.5,59.97932033053783,
To what extent did the music make you feel ,TENDER,30MonoWAV/30MonoT2.wav,2,1,4,14,,,,,0,13,13,13,0,1,1,10,,,,,,,,,2,5.60223763400063,,,060,001,2019_May_27_1009,MusicAffectPsychophysiology2019,3.0.5,59.97932033053783,
To what extent did the music make you feel ,HAPPY,30MonoWAV/30MonoT2.wav,2,1,4,14,,,,,0,13,13,13,0,2,2,6,,,,,,,,,2,1.5008524619988748,,,060,001,2019_May_27_1009,MusicAffectPsychophysiology2019,3.0.5,59.97932033053783,
To what extent did the music make you feel ,EXCITED,30MonoWAV/30MonoT2.wav,2,1,4,14,,,,,0,13,13,13,0,3,3,7,,,,,,,,,1,1.802098603999184,,,060,001,2019_May_27_1009,MusicAffectPsychophysiology2019,3.0.5,59.97932033053783,
To what extent did the music make you feel ,GUILTY,30MonoWAV/30MonoT2.wav,2,1,4,14,,,,,0,13,13,13,0,4,4,5,,,,,,,,,1,0.7004989779998141,,,060,001,2019_May_27_1009,MusicAffectPsychophysiology2019,3.0.5,59.97932033053783,
To what extent did the music make you feel ,ANGRY,30MonoWAV/30MonoT2.wav,2,1,4,14,,,,,0,13,13,13,0,5,5,2,,,,,,,,,1,0.5683794999968086,,,060,001,2019_May_27_1009,MusicAffectPsychophysiology2019,3.0.5,59.97932033053783,
To what extent did the music make you feel ,ACTIVE,30MonoWAV/30MonoT2.wav,2,1,4,14,,,,,0,13,13,13,0,6,6,9,,,,,,,,,1,0.785118670999509,,,060,001,2019_May_27_1009,MusicAffectPsychophysiology2019,3.0.5,59.97932033053783,
To what extent did the music make you feel ,FRUSTRATED,30MonoWAV/30MonoT2.wav,2,1,4,14,,,,,0,13,13,13,0,7,7,3,,,,,,,,,1,0.7512580209986481,,,060,001,2019_May_27_1009,MusicAffectPsychophysiology2019,3.0.5,59.97932033053783,
To what extent did the music make you feel ,ANXIOUS ,30MonoWAV/30MonoT2.wav,2,1,4,14,,,,,0,13,13,13,0,8,8,1,,,,,,,,,1,1.2854449130027206,,,060,001,2019_May_27_1009,MusicAffectPsychophysiology2019,3.0.5,59.97932033053783,
To what extent did the music make you feel ,ALERT,30MonoWAV/30MonoT2.wav,2,1,4,14,,,,,0,13,13,13,0,9,9,8,,,,,,,,,1,1.0355245620012283,,,060,001,2019_May_27_1009,MusicAffectPsychophysiology2019,3.0.5,59.97932033053783,
To what extent did the music make you feel ,SCARED,30MonoWAV/30MonoT2.wav,2,1,4,14,,,,,0,13,13,13,0,10,10,11,,,,,,,,,2,1.9174276699995971,,,060,001,2019_May_27_1009,MusicAffectPsychophysiology2019,3.0.5,59.97932033053783,
To what extent did the music make you feel ,SAD,30MonoWAV/30MonoT2.wav,2,1,4,14,,,,,0,13,13,13,0,11,11,0,,,,,,,,,2,0.8355546460006735,,,060,001,2019_May_27_1009,MusicAffectPsychophysiology2019,3.0.5,59.97932033053783,
,,30MonoWAV/30MonoT2.wav,2,1,4,14,,,,,0,13,13,13,,,,,,,,,,,,,,,,,060,001,2019_May_27_1009,MusicAffectPsychophysiology2019,3.0.5,59.97932033053783,
To what extent did the music make you feel ,ALERT,30MonoWAV/30MonoF3.wav,1,2,2,3,,,,,0,14,14,2,0,0,0,8,,,2,3.0688959789986257,2,3.185270374000538,1,1.8855683189976844,2,2.9339492990002327,,,060,001,2019_May_27_1009,MusicAffectPsychophysiology2019,3.0.5,59.97932033053783,
To what extent did the music make you feel ,SAD,30MonoWAV/30MonoF3.wav,1,2,2,3,,,,,0,14,14,2,0,1,1,0,,,,,,,,,1,0.9015993909997633,,,060,001,2019_May_27_1009,MusicAffectPsychophysiology2019,3.0.5,59.97932033053783,
To what extent did the music make you feel ,ANGRY,30MonoWAV/30MonoF3.wav,1,2,2,3,,,,,0,14,14,2,0,2,2,2,,,,,,,,,1,0.7504455119997147,,,060,001,2019_May_27_1009,MusicAffectPsychophysiology2019,3.0.5,59.97932033053783,
To what extent did the music make you feel ,HAPPY,30MonoWAV/30MonoF3.wav,1,2,2,3,,,,,0,14,14,2,0,3,3,6,,,,,,,,,2,1.7519229399986216,,,060,001,2019_May_27_1009,MusicAffectPsychophysiology2019,3.0.5,59.97932033053783,
To what extent did the music make you feel ,TENDER,30MonoWAV/30MonoF3.wav,1,2,2,3,,,,,0,14,14,2,0,4,4,10,,,,,,,,,1,0.8352505639995798,,,060,001,2019_May_27_1009,MusicAffectPsychophysiology2019,3.0.5,59.97932033053783,
To what extent did the music make you feel ,FRUSTRATED,30MonoWAV/30MonoF3.wav,1,2,2,3,,,,,0,14,14,2,0,5,5,3,,,,,,,,,1,0.7193722370029718,,,060,001,2019_May_27_1009,MusicAffectPsychophysiology2019,3.0.5,59.97932033053783,
To what extent did the music make you feel ,GUILTY,30MonoWAV/30MonoF3.wav,1,2,2,3,,,,,0,14,14,2,0,6,6,5,,,,,,,,,1,0.8502077049997752,,,060,001,2019_May_27_1009,MusicAffectPsychophysiology2019,3.0.5,59.97932033053783,
To what extent did the music make you feel ,ANXIOUS ,30MonoWAV/30MonoF3.wav,1,2,2,3,,,,,0,14,14,2,0,7,7,1,,,,,,,,,3,1.4187698560017452,,,060,001,2019_May_27_1009,MusicAffectPsychophysiology2019,3.0.5,59.97932033053783,
To what extent did the music make you feel ,ASHAMED,30MonoWAV/30MonoF3.wav,1,2,2,3,,,,,0,14,14,2,0,8,8,4,,,,,,,,,1,0.8508161560021108,,,060,001,2019_May_27_1009,MusicAffectPsychophysiology2019,3.0.5,59.97932033053783,
To what extent did the music make you feel ,EXCITED,30MonoWAV/30MonoF3.wav,1,2,2,3,,,,,0,14,14,2,0,9,9,7,,,,,,,,,1,1.5174735700020392,,,060,001,2019_May_27_1009,MusicAffectPsychophysiology2019,3.0.5,59.97932033053783,
To what extent did the music make you feel ,ACTIVE,30MonoWAV/30MonoF3.wav,1,2,2,3,,,,,0,14,14,2,0,10,10,9,,,,,,,,,1,1.3029902180023782,,,060,001,2019_May_27_1009,MusicAffectPsychophysiology2019,3.0.5,59.97932033053783,
To what extent did the music make you feel ,SCARED,30MonoWAV/30MonoF3.wav,1,2,2,3,,,,,0,14,14,2,0,11,11,11,,,,,,,,,2,2.8515012049974757,,,060,001,2019_May_27_1009,MusicAffectPsychophysiology2019,3.0.5,59.97932033053783,
,,30MonoWAV/30MonoF3.wav,1,2,2,3,,,,,0,14,14,2,,,,,,,,,,,,,,,,,060,001,2019_May_27_1009,MusicAffectPsychophysiology2019,3.0.5,59.97932033053783,
To what extent did the music make you feel ,FRUSTRATED,30MonoWAV/30MonoT3.wav,2,1,4,15,,,,,0,15,15,14,0,0,0,3,,,1,4.4009139760019025,2,2.7848562319995835,2,1.2683862390003924,1,0.8543061320015113,,,060,001,2019_May_27_1009,MusicAffectPsychophysiology2019,3.0.5,59.97932033053783,
To what extent did the music make you feel ,TENDER,30MonoWAV/30MonoT3.wav,2,1,4,15,,,,,0,15,15,14,0,1,1,10,,,,,,,,,3,1.4516902869982005,,,060,001,2019_May_27_1009,MusicAffectPsychophysiology2019,3.0.5,59.97932033053783,
To what extent did the music make you feel ,ASHAMED,30MonoWAV/30MonoT3.wav,2,1,4,15,,,,,0,15,15,14,0,2,2,4,,,,,,,,,1,0.8181957810011227,,,060,001,2019_May_27_1009,MusicAffectPsychophysiology2019,3.0.5,59.97932033053783,
To what extent did the music make you feel ,ACTIVE,30MonoWAV/30MonoT3.wav,2,1,4,15,,,,,0,15,15,14,0,3,3,9,,,,,,,,,1,1.5346474840007431,,,060,001,2019_May_27_1009,MusicAffectPsychophysiology2019,3.0.5,59.97932033053783,
To what extent did the music make you feel ,EXCITED,30MonoWAV/30MonoT3.wav,2,1,4,15,,,,,0,15,15,14,0,4,4,7,,,,,,,,,1,0.934823444000358,,,060,001,2019_May_27_1009,MusicAffectPsychophysiology2019,3.0.5,59.97932033053783,
To what extent did the music make you feel ,ALERT,30MonoWAV/30MonoT3.wav,2,1,4,15,,,,,0,15,15,14,0,5,5,8,,,,,,,,,1,0.7677974809994339,,,060,001,2019_May_27_1009,MusicAffectPsychophysiology2019,3.0.5,59.97932033053783,
To what extent did the music make you feel ,ANXIOUS ,30MonoWAV/30MonoT3.wav,2,1,4,15,,,,,0,15,15,14,0,6,6,1,,,,,,,,,1,1.3689113840009668,,,060,001,2019_May_27_1009,MusicAffectPsychophysiology2019,3.0.5,59.97932033053783,
To what extent did the music make you feel ,SAD,30MonoWAV/30MonoT3.wav,2,1,4,15,,,,,0,15,15,14,0,7,7,0,,,,,,,,,2,2.2187218270009907,,,060,001,2019_May_27_1009,MusicAffectPsychophysiology2019,3.0.5,59.97932033053783,
To what extent did the music make you feel ,HAPPY,30MonoWAV/30MonoT3.wav,2,1,4,15,,,,,0,15,15,14,0,8,8,6,,,,,,,,,1,0.8840386449992366,,,060,001,2019_May_27_1009,MusicAffectPsychophysiology2019,3.0.5,59.97932033053783,
To what extent did the music make you feel ,GUILTY,30MonoWAV/30MonoT3.wav,2,1,4,15,,,,,0,15,15,14,0,9,9,5,,,,,,,,,1,1.2018214380004792,,,060,001,2019_May_27_1009,MusicAffectPsychophysiology2019,3.0.5,59.97932033053783,
To what extent did the music make you feel ,SCARED,30MonoWAV/30MonoT3.wav,2,1,4,15,,,,,0,15,15,14,0,10,10,11,,,,,,,,,1,1.1017423199991754,,,060,001,2019_May_27_1009,MusicAffectPsychophysiology2019,3.0.5,59.97932033053783,
To what extent did the music make you feel ,ANGRY,30MonoWAV/30MonoT3.wav,2,1,4,15,,,,,0,15,15,14,0,11,11,2,,,,,,,,,1,0.7004982229991583,,,060,001,2019_May_27_1009,MusicAffectPsychophysiology2019,3.0.5,59.97932033053783,
,,30MonoWAV/30MonoT3.wav,2,1,4,15,,,,,0,15,15,14,,,,,,,,,,,,,,,,,060,001,2019_May_27_1009,MusicAffectPsychophysiology2019,3.0.5,59.97932033053783,
To what extent did the music make you feel ,ASHAMED,30MonoWAV/30MonoS2.wav,1,1,3,10,,,,,1,0,16,9,0,0,0,4,,,1,2.9514914290011802,2,2.2519276960010757,3,2.2675588710008014,1,2.2181693099992117,,,060,001,2019_May_27_1009,MusicAffectPsychophysiology2019,3.0.5,59.97932033053783,
To what extent did the music make you feel ,ALERT,30MonoWAV/30MonoS2.wav,1,1,3,10,,,,,1,0,16,9,0,1,1,8,,,,,,,,,1,0.8687956189969555,,,060,001,2019_May_27_1009,MusicAffectPsychophysiology2019,3.0.5,59.97932033053783,
To what extent did the music make you feel ,GUILTY,30MonoWAV/30MonoS2.wav,1,1,3,10,,,,,1,0,16,9,0,2,2,5,,,,,,,,,1,0.6189135120002902,,,060,001,2019_May_27_1009,MusicAffectPsychophysiology2019,3.0.5,59.97932033053783,
To what extent did the music make you feel ,SAD,30MonoWAV/30MonoS2.wav,1,1,3,10,,,,,1,0,16,9,0,3,3,0,,,,,,,,,2,1.068694969999342,,,060,001,2019_May_27_1009,MusicAffectPsychophysiology2019,3.0.5,59.97932033053783,
To what extent did the music make you feel ,EXCITED,30MonoWAV/30MonoS2.wav,1,1,3,10,,,,,1,0,16,9,0,4,4,7,,,,,,,,,1,0.7512655020000238,,,060,001,2019_May_27_1009,MusicAffectPsychophysiology2019,3.0.5,59.97932033053783,
To what extent did the music make you feel ,TENDER,30MonoWAV/30MonoS2.wav,1,1,3,10,,,,,1,0,16,9,0,5,5,10,,,,,,,,,2,1.5680359400030284,,,060,001,2019_May_27_1009,MusicAffectPsychophysiology2019,3.0.5,59.97932033053783,
To what extent did the music make you feel ,ANXIOUS ,30MonoWAV/30MonoS2.wav,1,1,3,10,,,,,1,0,16,9,0,6,6,1,,,,,,,,,2,2.152227924998442,,,060,001,2019_May_27_1009,MusicAffectPsychophysiology2019,3.0.5,59.97932033053783,
To what extent did the music make you feel ,ACTIVE,30MonoWAV/30MonoS2.wav,1,1,3,10,,,,,1,0,16,9,0,7,7,9,,,,,,,,,1,1.2673679789986636,,,060,001,2019_May_27_1009,MusicAffectPsychophysiology2019,3.0.5,59.97932033053783,
To what extent did the music make you feel ,SCARED,30MonoWAV/30MonoS2.wav,1,1,3,10,,,,,1,0,16,9,0,8,8,11,,,,,,,,,1,1.3514895609987434,,,060,001,2019_May_27_1009,MusicAffectPsychophysiology2019,3.0.5,59.97932033053783,
To what extent did the music make you feel ,HAPPY,30MonoWAV/30MonoS2.wav,1,1,3,10,,,,,1,0,16,9,0,9,9,6,,,,,,,,,2,1.4852801550005097,,,060,001,2019_May_27_1009,MusicAffectPsychophysiology2019,3.0.5,59.97932033053783,
To what extent did the music make you feel ,ANGRY,30MonoWAV/30MonoS2.wav,1,1,3,10,,,,,1,0,16,9,0,10,10,2,,,,,,,,,1,4.068222491001507,,,060,001,2019_May_27_1009,MusicAffectPsychophysiology2019,3.0.5,59.97932033053783,
To what extent did the music make you feel ,FRUSTRATED,30MonoWAV/30MonoS2.wav,1,1,3,10,,,,,1,0,16,9,0,11,11,3,,,,,,,,,1,1.7859796779994213,,,060,001,2019_May_27_1009,MusicAffectPsychophysiology2019,3.0.5,59.97932033053783,
,,30MonoWAV/30MonoS2.wav,1,1,3,10,,,,,1,0,16,9,,,,,,,,,,,,,,,,,060,001,2019_May_27_1009,MusicAffectPsychophysiology2019,3.0.5,59.97932033053783,
To what extent did the music make you feel ,ANXIOUS ,30MonoWAV/30MonoT4.wav,2,1,4,16,,,,,1,1,17,15,0,0,0,1,,,3,2.85328672399919,3,2.472043449000921,2,2.399821906001307,1,1.5015125159989111,,,060,001,2019_May_27_1009,MusicAffectPsychophysiology2019,3.0.5,59.97932033053783,
To what extent did the music make you feel ,ACTIVE,30MonoWAV/30MonoT4.wav,2,1,4,16,,,,,1,1,17,15,0,1,1,9,,,,,,,,,3,1.2828367880028964,,,060,001,2019_May_27_1009,MusicAffectPsychophysiology2019,3.0.5,59.97932033053783,
To what extent did the music make you feel ,ALERT,30MonoWAV/30MonoT4.wav,2,1,4,16,,,,,1,1,17,15,0,2,2,8,,,,,,,,,3,1.1191140339979029,,,060,001,2019_May_27_1009,MusicAffectPsychophysiology2019,3.0.5,59.97932033053783,
To what extent did the music make you feel ,ASHAMED,30MonoWAV/30MonoT4.wav,2,1,4,16,,,,,1,1,17,15,0,3,3,4,,,,,,,,,1,1.101514848000079,,,060,001,2019_May_27_1009,MusicAffectPsychophysiology2019,3.0.5,59.97932033053783,
To what extent did the music make you feel ,SAD,30MonoWAV/30MonoT4.wav,2,1,4,16,,,,,1,1,17,15,0,4,4,0,,,,,,,,,1,0.9849881689988251,,,060,001,2019_May_27_1009,MusicAffectPsychophysiology2019,3.0.5,59.97932033053783,
To what extent did the music make you feel ,EXCITED,30MonoWAV/30MonoT4.wav,2,1,4,16,,,,,1,1,17,15,0,5,5,7,,,,,,,,,2,1.3173184150000452,,,060,001,2019_May_27_1009,MusicAffectPsychophysiology2019,3.0.5,59.97932033053783,
To what extent did the music make you feel ,FRUSTRATED,30MonoWAV/30MonoT4.wav,2,1,4,16,,,,,1,1,17,15,0,6,6,3,,,,,,,,,1,0.8340894740031217,,,060,001,2019_May_27_1009,MusicAffectPsychophysiology2019,3.0.5,59.97932033053783,
To what extent did the music make you feel ,HAPPY,30MonoWAV/30MonoT4.wav,2,1,4,16,,,,,1,1,17,15,0,7,7,6,,,,,,,,,2,1.4514974730009271,,,060,001,2019_May_27_1009,MusicAffectPsychophysiology2019,3.0.5,59.97932033053783,
To what extent did the music make you feel ,ANGRY,30MonoWAV/30MonoT4.wav,2,1,4,16,,,,,1,1,17,15,0,8,8,2,,,,,,,,,1,0.7011964060002356,,,060,001,2019_May_27_1009,MusicAffectPsychophysiology2019,3.0.5,59.97932033053783,
To what extent did the music make you feel ,SCARED,30MonoWAV/30MonoT4.wav,2,1,4,16,,,,,1,1,17,15,0,9,9,11,,,,,,,,,1,0.701877257997694,,,060,001,2019_May_27_1009,MusicAffectPsychophysiology2019,3.0.5,59.97932033053783,
To what extent did the music make you feel ,TENDER,30MonoWAV/30MonoT4.wav,2,1,4,16,,,,,1,1,17,15,0,10,10,10,,,,,,,,,1,0.802486417000182,,,060,001,2019_May_27_1009,MusicAffectPsychophysiology2019,3.0.5,59.97932033053783,
To what extent did the music make you feel ,GUILTY,30MonoWAV/30MonoT4.wav,2,1,4,16,,,,,1,1,17,15,0,11,11,5,,,,,,,,,1,0.8334148680005455,,,060,001,2019_May_27_1009,MusicAffectPsychophysiology2019,3.0.5,59.97932033053783,
,,30MonoWAV/30MonoT4.wav,2,1,4,16,,,,,1,1,17,15,,,,,,,,,,,,,,,,,060,001,2019_May_27_1009,MusicAffectPsychophysiology2019,3.0.5,59.97932033053783,
To what extent did the music make you feel ,SAD,30MonoWAV/30MonoT2.wav,2,1,4,14,,,,,1,2,18,13,0,0,0,0,,,1,7.734302759999991,2,2.033914116997039,2,1.317012760999205,2,2.1513564640008553,,,060,001,2019_May_27_1009,MusicAffectPsychophysiology2019,3.0.5,59.97932033053783,
To what extent did the music make you feel ,ASHAMED,30MonoWAV/30MonoT2.wav,2,1,4,14,,,,,1,2,18,13,0,1,1,4,,,,,,,,,1,0.9192262409997056,,,060,001,2019_May_27_1009,MusicAffectPsychophysiology2019,3.0.5,59.97932033053783,
To what extent did the music make you feel ,ALERT,30MonoWAV/30MonoT2.wav,2,1,4,14,,,,,1,2,18,13,0,2,2,8,,,,,,,,,1,1.1682329430004756,,,060,001,2019_May_27_1009,MusicAffectPsychophysiology2019,3.0.5,59.97932033053783,
To what extent did the music make you feel ,TENDER,30MonoWAV/30MonoT2.wav,2,1,4,14,,,,,1,2,18,13,0,3,3,10,,,,,,,,,2,1.1171547129997634,,,060,001,2019_May_27_1009,MusicAffectPsychophysiology2019,3.0.5,59.97932033053783,
To what extent did the music make you feel ,GUILTY,30MonoWAV/30MonoT2.wav,2,1,4,14,,,,,1,2,18,13,0,4,4,5,,,,,,,,,1,0.6850334000009752,,,060,001,2019_May_27_1009,MusicAffectPsychophysiology2019,3.0.5,59.97932033053783,
To what extent did the music make you feel ,EXCITED,30MonoWAV/30MonoT2.wav,2,1,4,14,,,,,1,2,18,13,0,5,5,7,,,,,,,,,1,1.0848426630000176,,,060,001,2019_May_27_1009,MusicAffectPsychophysiology2019,3.0.5,59.97932033053783,
To what extent did the music make you feel ,HAPPY,30MonoWAV/30MonoT2.wav,2,1,4,14,,,,,1,2,18,13,0,6,6,6,,,,,,,,,2,1.1669201589975273,,,060,001,2019_May_27_1009,MusicAffectPsychophysiology2019,3.0.5,59.97932033053783,
To what extent did the music make you feel ,ANGRY,30MonoWAV/30MonoT2.wav,2,1,4,14,,,,,1,2,18,13,0,7,7,2,,,,,,,,,1,0.6006378330021107,,,060,001,2019_May_27_1009,MusicAffectPsychophysiology2019,3.0.5,59.97932033053783,
To what extent did the music make you feel ,SCARED,30MonoWAV/30MonoT2.wav,2,1,4,14,,,,,1,2,18,13,0,8,8,11,,,,,,,,,1,1.0685420759982662,,,060,001,2019_May_27_1009,MusicAffectPsychophysiology2019,3.0.5,59.97932033053783,
To what extent did the music make you feel ,ANXIOUS ,30MonoWAV/30MonoT2.wav,2,1,4,14,,,,,1,2,18,13,0,9,9,1,,,,,,,,,1,0.7852339399978518,,,060,001,2019_May_27_1009,MusicAffectPsychophysiology2019,3.0.5,59.97932033053783,
To what extent did the music make you feel ,ACTIVE,30MonoWAV/30MonoT2.wav,2,1,4,14,,,,,1,2,18,13,0,10,10,9,,,,,,,,,1,1.051899833000789,,,060,001,2019_May_27_1009,MusicAffectPsychophysiology2019,3.0.5,59.97932033053783,
To what extent did the music make you feel ,FRUSTRATED,30MonoWAV/30MonoT2.wav,2,1,4,14,,,,,1,2,18,13,0,11,11,3,,,,,,,,,1,0.8180821249989094,,,060,001,2019_May_27_1009,MusicAffectPsychophysiology2019,3.0.5,59.97932033053783,
,,30MonoWAV/30MonoT2.wav,2,1,4,14,,,,,1,2,18,13,,,,,,,,,,,,,,,,,060,001,2019_May_27_1009,MusicAffectPsychophysiology2019,3.0.5,59.97932033053783,
To what extent did the music make you feel ,SCARED,30MonoWAV/30MonoF1.wav,1,2,2,1,,,,,1,3,19,0,0,0,0,11,,,2,3.0182896929982235,1,2.2019740539981285,1,1.167632787997718,2,1.8842042710020905,,,060,001,2019_May_27_1009,MusicAffectPsychophysiology2019,3.0.5,59.97932033053783,
To what extent did the music make you feel ,ASHAMED,30MonoWAV/30MonoF1.wav,1,2,2,1,,,,,1,3,19,0,0,1,1,4,,,,,,,,,1,0.8194933890008542,,,060,001,2019_May_27_1009,MusicAffectPsychophysiology2019,3.0.5,59.97932033053783,
To what extent did the music make you feel ,ANXIOUS ,30MonoWAV/30MonoF1.wav,1,2,2,1,,,,,1,3,19,0,0,2,2,1,,,,,,,,,2,1.0348474259990326,,,060,001,2019_May_27_1009,MusicAffectPsychophysiology2019,3.0.5,59.97932033053783,
To what extent did the music make you feel ,HAPPY,30MonoWAV/30MonoF1.wav,1,2,2,1,,,,,1,3,19,0,0,3,3,6,,,,,,,,,1,2.1851208270018105,,,060,001,2019_May_27_1009,MusicAffectPsychophysiology2019,3.0.5,59.97932033053783,
To what extent did the music make you feel ,FRUSTRATED,30MonoWAV/30MonoF1.wav,1,2,2,1,,,,,1,3,19,0,0,4,4,3,,,,,,,,,1,0.8358431399974506,,,060,001,2019_May_27_1009,MusicAffectPsychophysiology2019,3.0.5,59.97932033053783,
To what extent did the music make you feel ,TENDER,30MonoWAV/30MonoF1.wav,1,2,2,1,,,,,1,3,19,0,0,5,5,10,,,,,,,,,1,0.7171724979998544,,,060,001,2019_May_27_1009,MusicAffectPsychophysiology2019,3.0.5,59.97932033053783,
To what extent did the music make you feel ,ALERT,30MonoWAV/30MonoF1.wav,1,2,2,1,,,,,1,3,19,0,0,6,6,8,,,,,,,,,3,2.0688445790001424,,,060,001,2019_May_27_1009,MusicAffectPsychophysiology2019,3.0.5,59.97932033053783,
To what extent did the music make you feel ,GUILTY,30MonoWAV/30MonoF1.wav,1,2,2,1,,,,,1,3,19,0,0,7,7,5,,,,,,,,,1,2.201053887998569,,,060,001,2019_May_27_1009,MusicAffectPsychophysiology2019,3.0.5,59.97932033053783,
To what extent did the music make you feel ,ANGRY,30MonoWAV/30MonoF1.wav,1,2,2,1,,,,,1,3,19,0,0,8,8,2,,,,,,,,,1,1.0185027939987776,,,060,001,2019_May_27_1009,MusicAffectPsychophysiology2019,3.0.5,59.97932033053783,
To what extent did the music make you feel ,SAD,30MonoWAV/30MonoF1.wav,1,2,2,1,,,,,1,3,19,0,0,9,9,0,,,,,,,,,1,1.9014761180005735,,,060,001,2019_May_27_1009,MusicAffectPsychophysiology2019,3.0.5,59.97932033053783,
To what extent did the music make you feel ,EXCITED,30MonoWAV/30MonoF1.wav,1,2,2,1,,,,,1,3,19,0,0,10,10,7,,,,,,,,,2,1.3854808700016292,,,060,001,2019_May_27_1009,MusicAffectPsychophysiology2019,3.0.5,59.97932033053783,
To what extent did the music make you feel ,ACTIVE,30MonoWAV/30MonoF1.wav,1,2,2,1,,,,,1,3,19,0,0,11,11,9,,,,,,,,,2,1.0353992380005366,,,060,001,2019_May_27_1009,MusicAffectPsychophysiology2019,3.0.5,59.97932033053783,
,,30MonoWAV/30MonoF1.wav,1,2,2,1,,,,,1,3,19,0,,,,,,,,,,,,,,,,,060,001,2019_May_27_1009,MusicAffectPsychophysiology2019,3.0.5,59.97932033053783,
To what extent did the music make you feel ,ALERT,30MonoWAV/30MonoT3.wav,2,1,4,15,,,,,1,4,20,14,0,0,0,8,,,1,2.7838531770030386,2,2.201898564999283,2,1.5842043150005338,1,1.7003493629999866,,,060,001,2019_May_27_1009,MusicAffectPsychophysiology2019,3.0.5,59.97932033053783,
To what extent did the music make you feel ,EXCITED,30MonoWAV/30MonoT3.wav,2,1,4,15,,,,,1,4,20,14,0,1,1,7,,,,,,,,,1,1.9690969540024525,,,060,001,2019_May_27_1009,MusicAffectPsychophysiology2019,3.0.5,59.97932033053783,
To what extent did the music make you feel ,SAD,30MonoWAV/30MonoT3.wav,2,1,4,15,,,,,1,4,20,14,0,2,2,0,,,,,,,,,2,2.518323718002648,,,060,001,2019_May_27_1009,MusicAffectPsychophysiology2019,3.0.5,59.97932033053783,
To what extent did the music make you feel ,FRUSTRATED,30MonoWAV/30MonoT3.wav,2,1,4,15,,,,,1,4,20,14,0,3,3,3,,,,,,,,,1,0.5849594040009833,,,060,001,2019_May_27_1009,MusicAffectPsychophysiology2019,3.0.5,59.97932033053783,
To what extent did the music make you feel ,HAPPY,30MonoWAV/30MonoT3.wav,2,1,4,15,,,,,1,4,20,14,0,4,4,6,,,,,,,,,1,1.1013060039986158,,,060,001,2019_May_27_1009,MusicAffectPsychophysiology2019,3.0.5,59.97932033053783,
To what extent did the music make you feel ,ACTIVE,30MonoWAV/30MonoT3.wav,2,1,4,15,,,,,1,4,20,14,0,5,5,9,,,,,,,,,1,1.6515385189995868,,,060,001,2019_May_27_1009,MusicAffectPsychophysiology2019,3.0.5,59.97932033053783,
To what extent did the music make you feel ,TENDER,30MonoWAV/30MonoT3.wav,2,1,4,15,,,,,1,4,20,14,0,6,6,10,,,,,,,,,3,2.4183571040011884,,,060,001,2019_May_27_1009,MusicAffectPsychophysiology2019,3.0.5,59.97932033053783,
To what extent did the music make you feel ,SCARED,30MonoWAV/30MonoT3.wav,2,1,4,15,,,,,1,4,20,14,0,7,7,11,,,,,,,,,1,1.0185740050001186,,,060,001,2019_May_27_1009,MusicAffectPsychophysiology2019,3.0.5,59.97932033053783,
To what extent did the music make you feel ,ASHAMED,30MonoWAV/30MonoT3.wav,2,1,4,15,,,,,1,4,20,14,0,8,8,4,,,,,,,,,1,1.03490751299978,,,060,001,2019_May_27_1009,MusicAffectPsychophysiology2019,3.0.5,59.97932033053783,
To what extent did the music make you feel ,GUILTY,30MonoWAV/30MonoT3.wav,2,1,4,15,,,,,1,4,20,14,0,9,9,5,,,,,,,,,1,0.6855570539992186,,,060,001,2019_May_27_1009,MusicAffectPsychophysiology2019,3.0.5,59.97932033053783,
To what extent did the music make you feel ,ANXIOUS ,30MonoWAV/30MonoT3.wav,2,1,4,15,,,,,1,4,20,14,0,10,10,1,,,,,,,,,1,0.9185231759984163,,,060,001,2019_May_27_1009,MusicAffectPsychophysiology2019,3.0.5,59.97932033053783,
To what extent did the music make you feel ,ANGRY,30MonoWAV/30MonoT3.wav,2,1,4,15,,,,,1,4,20,14,0,11,11,2,,,,,,,,,1,0.6516844159996253,,,060,001,2019_May_27_1009,MusicAffectPsychophysiology2019,3.0.5,59.97932033053783,
,,30MonoWAV/30MonoT3.wav,2,1,4,15,,,,,1,4,20,14,,,,,,,,,,,,,,,,,060,001,2019_May_27_1009,MusicAffectPsychophysiology2019,3.0.5,59.97932033053783,
To what extent did the music make you feel ,ANGRY,30MonoWAV/30MonoH1.wav,2,2,1,5,,,,,1,5,21,4,0,0,0,2,,,3,2.802245334998588,3,1.7178226510004606,4,2.183947536002961,1,1.9012351460005448,,,060,001,2019_May_27_1009,MusicAffectPsychophysiology2019,3.0.5,59.97932033053783,
To what extent did the music make you feel ,ANXIOUS ,30MonoWAV/30MonoH1.wav,2,2,1,5,,,,,1,5,21,4,0,1,1,1,,,,,,,,,1,0.6857442550026462,,,060,001,2019_May_27_1009,MusicAffectPsychophysiology2019,3.0.5,59.97932033053783,
To what extent did the music make you feel ,ACTIVE,30MonoWAV/30MonoH1.wav,2,2,1,5,,,,,1,5,21,4,0,2,2,9,,,,,,,,,3,2.2014244380006858,,,060,001,2019_May_27_1009,MusicAffectPsychophysiology2019,3.0.5,59.97932033053783,
To what extent did the music make you feel ,SAD,30MonoWAV/30MonoH1.wav,2,2,1,5,,,,,1,5,21,4,0,3,3,0,,,,,,,,,1,1.9359489609996672,,,060,001,2019_May_27_1009,MusicAffectPsychophysiology2019,3.0.5,59.97932033053783,
To what extent did the music make you feel ,GUILTY,30MonoWAV/30MonoH1.wav,2,2,1,5,,,,,1,5,21,4,0,4,4,5,,,,,,,,,1,0.6687686379991646,,,060,001,2019_May_27_1009,MusicAffectPsychophysiology2019,3.0.5,59.97932033053783,
To what extent did the music make you feel ,EXCITED,30MonoWAV/30MonoH1.wav,2,2,1,5,,,,,1,5,21,4,0,5,5,7,,,,,,,,,3,1.8018800350000674,,,060,001,2019_May_27_1009,MusicAffectPsychophysiology2019,3.0.5,59.97932033053783,
To what extent did the music make you feel ,FRUSTRATED,30MonoWAV/30MonoH1.wav,2,2,1,5,,,,,1,5,21,4,0,6,6,3,,,,,,,,,1,0.9689661119991797,,,060,001,2019_May_27_1009,MusicAffectPsychophysiology2019,3.0.5,59.97932033053783,
To what extent did the music make you feel ,ALERT,30MonoWAV/30MonoH1.wav,2,2,1,5,,,,,1,5,21,4,0,7,7,8,,,,,,,,,4,2.1684168520005187,,,060,001,2019_May_27_1009,MusicAffectPsychophysiology2019,3.0.5,59.97932033053783,
To what extent did the music make you feel ,TENDER,30MonoWAV/30MonoH1.wav,2,2,1,5,,,,,1,5,21,4,0,8,8,10,,,,,,,,,1,1.0518699739986914,,,060,001,2019_May_27_1009,MusicAffectPsychophysiology2019,3.0.5,59.97932033053783,
To what extent did the music make you feel ,HAPPY,30MonoWAV/30MonoH1.wav,2,2,1,5,,,,,1,5,21,4,0,9,9,6,,,,,,,,,4,1.985198821999802,,,060,001,2019_May_27_1009,MusicAffectPsychophysiology2019,3.0.5,59.97932033053783,
To what extent did the music make you feel ,ASHAMED,30MonoWAV/30MonoH1.wav,2,2,1,5,,,,,1,5,21,4,0,10,10,4,,,,,,,,,1,1.2023550949998025,,,060,001,2019_May_27_1009,MusicAffectPsychophysiology2019,3.0.5,59.97932033053783,
To what extent did the music make you feel ,SCARED,30MonoWAV/30MonoH1.wav,2,2,1,5,,,,,1,5,21,4,0,11,11,11,,,,,,,,,1,0.7514667340001324,,,060,001,2019_May_27_1009,MusicAffectPsychophysiology2019,3.0.5,59.97932033053783,
,,30MonoWAV/30MonoH1.wav,2,2,1,5,,,,,1,5,21,4,,,,,,,,,,,,,,,,,060,001,2019_May_27_1009,MusicAffectPsychophysiology2019,3.0.5,59.97932033053783,
To what extent did the music make you feel ,ANXIOUS ,30MonoWAV/30MonoS4.wav,1,1,3,12,,,,,1,6,22,11,0,0,0,1,,,1,2.484270450000622,1,1.8029136190016288,2,1.8016807240019261,2,1.5025627489994804,,,060,001,2019_May_27_1009,MusicAffectPsychophysiology2019,3.0.5,59.97932033053783,
To what extent did the music make you feel ,EXCITED,30MonoWAV/30MonoS4.wav,1,1,3,12,,,,,1,6,22,11,0,1,1,7,,,,,,,,,1,1.0856412330031162,,,060,001,2019_May_27_1009,MusicAffectPsychophysiology2019,3.0.5,59.97932033053783,
To what extent did the music make you feel ,ACTIVE,30MonoWAV/30MonoS4.wav,1,1,3,12,,,,,1,6,22,11,0,2,2,9,,,,,,,,,1,0.817006080000283,,,060,001,2019_May_27_1009,MusicAffectPsychophysiology2019,3.0.5,59.97932033053783,
To what extent did the music make you feel ,GUILTY,30MonoWAV/30MonoS4.wav,1,1,3,12,,,,,1,6,22,11,0,3,3,5,,,,,,,,,2,1.2181872600012866,,,060,001,2019_May_27_1009,MusicAffectPsychophysiology2019,3.0.5,59.97932033053783,
To what extent did the music make you feel ,FRUSTRATED,30MonoWAV/30MonoS4.wav,1,1,3,12,,,,,1,6,22,11,0,4,4,3,,,,,,,,,1,0.917848855999182,,,060,001,2019_May_27_1009,MusicAffectPsychophysiology2019,3.0.5,59.97932033053783,
To what extent did the music make you feel ,ALERT,30MonoWAV/30MonoS4.wav,1,1,3,12,,,,,1,6,22,11,0,5,5,8,,,,,,,,,1,1.3516551169996092,,,060,001,2019_May_27_1009,MusicAffectPsychophysiology2019,3.0.5,59.97932033053783,
To what extent did the music make you feel ,HAPPY,30MonoWAV/30MonoS4.wav,1,1,3,12,,,,,1,6,22,11,0,6,6,6,,,,,,,,,1,0.8667402390019561,,,060,001,2019_May_27_1009,MusicAffectPsychophysiology2019,3.0.5,59.97932033053783,
To what extent did the music make you feel ,TENDER,30MonoWAV/30MonoS4.wav,1,1,3,12,,,,,1,6,22,11,0,7,7,10,,,,,,,,,3,2.6169596660001844,,,060,001,2019_May_27_1009,MusicAffectPsychophysiology2019,3.0.5,59.97932033053783,
To what extent did the music make you feel ,SAD,30MonoWAV/30MonoS4.wav,1,1,3,12,,,,,1,6,22,11,0,8,8,0,,,,,,,,,3,1.135166919000767,,,060,001,2019_May_27_1009,MusicAffectPsychophysiology2019,3.0.5,59.97932033053783,
To what extent did the music make you feel ,ANGRY,30MonoWAV/30MonoS4.wav,1,1,3,12,,,,,1,6,22,11,0,9,9,2,,,,,,,,,1,1.2516578919967287,,,060,001,2019_May_27_1009,MusicAffectPsychophysiology2019,3.0.5,59.97932033053783,
To what extent did the music make you feel ,SCARED,30MonoWAV/30MonoS4.wav,1,1,3,12,,,,,1,6,22,11,0,10,10,11,,,,,,,,,1,1.0524761310007307,,,060,001,2019_May_27_1009,MusicAffectPsychophysiology2019,3.0.5,59.97932033053783,
To what extent did the music make you feel ,ASHAMED,30MonoWAV/30MonoS4.wav,1,1,3,12,,,,,1,6,22,11,0,11,11,4,,,,,,,,,1,1.2506812589999754,,,060,001,2019_May_27_1009,MusicAffectPsychophysiology2019,3.0.5,59.97932033053783,
,,30MonoWAV/30MonoS4.wav,1,1,3,12,,,,,1,6,22,11,,,,,,,,,,,,,,,,,060,001,2019_May_27_1009,MusicAffectPsychophysiology2019,3.0.5,59.97932033053783,
To what extent did the music make you feel ,FRUSTRATED,30MonoWAV/30MonoH3.wav,2,2,1,7,,,,,1,7,23,6,0,0,0,3,,,3,2.468480343999545,3,2.167829462003283,4,1.4850963099997898,1,1.07285607599988,,,060,001,2019_May_27_1009,MusicAffectPsychophysiology2019,3.0.5,59.97932033053783,
To what extent did the music make you feel ,SCARED,30MonoWAV/30MonoH3.wav,2,2,1,7,,,,,1,7,23,6,0,1,1,11,,,,,,,,,1,0.6663270790013485,,,060,001,2019_May_27_1009,MusicAffectPsychophysiology2019,3.0.5,59.97932033053783,
To what extent did the music make you feel ,ANXIOUS ,30MonoWAV/30MonoH3.wav,2,2,1,7,,,,,1,7,23,6,0,2,2,1,,,,,,,,,1,0.7022420299981604,,,060,001,2019_May_27_1009,MusicAffectPsychophysiology2019,3.0.5,59.97932033053783,
To what extent did the music make you feel ,ALERT,30MonoWAV/30MonoH3.wav,2,2,1,7,,,,,1,7,23,6,0,3,3,8,,,,,,,,,3,2.284848740000598,,,060,001,2019_May_27_1009,MusicAffectPsychophysiology2019,3.0.5,59.97932033053783,
To what extent did the music make you feel ,ASHAMED,30MonoWAV/30MonoH3.wav,2,2,1,7,,,,,1,7,23,6,0,4,4,4,,,,,,,,,1,0.8018021440002485,,,060,001,2019_May_27_1009,MusicAffectPsychophysiology2019,3.0.5,59.97932033053783,
To what extent did the music make you feel ,TENDER,30MonoWAV/30MonoH3.wav,2,2,1,7,,,,,1,7,23,6,0,5,5,10,,,,,,,,,2,1.7687747479976679,,,060,001,2019_May_27_1009,MusicAffectPsychophysiology2019,3.0.5,59.97932033053783,
To what extent did the music make you feel ,EXCITED,30MonoWAV/30MonoH3.wav,2,2,1,7,,,,,1,7,23,6,0,6,6,7,,,,,,,,,3,1.6681827280008292,,,060,001,2019_May_27_1009,MusicAffectPsychophysiology2019,3.0.5,59.97932033053783,
To what extent did the music make you feel ,GUILTY,30MonoWAV/30MonoH3.wav,2,2,1,7,,,,,1,7,23,6,0,7,7,5,,,,,,,,,1,0.9853614429994195,,,060,001,2019_May_27_1009,MusicAffectPsychophysiology2019,3.0.5,59.97932033053783,
To what extent did the music make you feel ,ANGRY,30MonoWAV/30MonoH3.wav,2,2,1,7,,,,,1,7,23,6,0,8,8,2,,,,,,,,,1,1.002456963997247,,,060,001,2019_May_27_1009,MusicAffectPsychophysiology2019,3.0.5,59.97932033053783,
To what extent did the music make you feel ,HAPPY,30MonoWAV/30MonoH3.wav,2,2,1,7,,,,,1,7,23,6,0,9,9,6,,,,,,,,,4,1.284968365001987,,,060,001,2019_May_27_1009,MusicAffectPsychophysiology2019,3.0.5,59.97932033053783,
To what extent did the music make you feel ,ACTIVE,30MonoWAV/30MonoH3.wav,2,2,1,7,,,,,1,7,23,6,0,10,10,9,,,,,,,,,3,1.6341579489999276,,,060,001,2019_May_27_1009,MusicAffectPsychophysiology2019,3.0.5,59.97932033053783,
To what extent did the music make you feel ,SAD,30MonoWAV/30MonoH3.wav,2,2,1,7,,,,,1,7,23,6,0,11,11,0,,,,,,,,,1,0.9522575899973162,,,060,001,2019_May_27_1009,MusicAffectPsychophysiology2019,3.0.5,59.97932033053783,
,,30MonoWAV/30MonoH3.wav,2,2,1,7,,,,,1,7,23,6,,,,,,,,,,,,,,,,,060,001,2019_May_27_1009,MusicAffectPsychophysiology2019,3.0.5,59.97932033053783,
To what extent did the music make you feel ,SCARED,30MonoWAV/30MonoF3.wav,1,2,2,3,,,,,1,8,24,2,0,0,0,11,,,1,5.051580469000328,2,1.6513827109993144,1,1.900866412997857,1,2.818269920997409,,,060,001,2019_May_27_1009,MusicAffectPsychophysiology2019,3.0.5,59.97932033053783,
To what extent did the music make you feel ,ANGRY,30MonoWAV/30MonoF3.wav,1,2,2,3,,,,,1,8,24,2,0,1,1,2,,,,,,,,,1,0.9348482589994092,,,060,001,2019_May_27_1009,MusicAffectPsychophysiology2019,3.0.5,59.97932033053783,
To what extent did the music make you feel ,ALERT,30MonoWAV/30MonoF3.wav,1,2,2,3,,,,,1,8,24,2,0,2,2,8,,,,,,,,,2,1.1177779499994358,,,060,001,2019_May_27_1009,MusicAffectPsychophysiology2019,3.0.5,59.97932033053783,
To what extent did the music make you feel ,ANXIOUS ,30MonoWAV/30MonoF3.wav,1,2,2,3,,,,,1,8,24,2,0,3,3,1,,,,,,,,,2,1.0025244019998354,,,060,001,2019_May_27_1009,MusicAffectPsychophysiology2019,3.0.5,59.97932033053783,
To what extent did the music make you feel ,FRUSTRATED,30MonoWAV/30MonoF3.wav,1,2,2,3,,,,,1,8,24,2,0,4,4,3,,,,,,,,,1,0.7168042699995567,,,060,001,2019_May_27_1009,MusicAffectPsychophysiology2019,3.0.5,59.97932033053783,
To what extent did the music make you feel ,HAPPY,30MonoWAV/30MonoF3.wav,1,2,2,3,,,,,1,8,24,2,0,5,5,6,,,,,,,,,2,1.218718729000102,,,060,001,2019_May_27_1009,MusicAffectPsychophysiology2019,3.0.5,59.97932033053783,
To what extent did the music make you feel ,EXCITED,30MonoWAV/30MonoF3.wav,1,2,2,3,,,,,1,8,24,2,0,6,6,7,,,,,,,,,2,1.2185126170006697,,,060,001,2019_May_27_1009,MusicAffectPsychophysiology2019,3.0.5,59.97932033053783,
To what extent did the music make you feel ,ASHAMED,30MonoWAV/30MonoF3.wav,1,2,2,3,,,,,1,8,24,2,0,7,7,4,,,,,,,,,1,0.834387228002015,,,060,001,2019_May_27_1009,MusicAffectPsychophysiology2019,3.0.5,59.97932033053783,
To what extent did the music make you feel ,ACTIVE,30MonoWAV/30MonoF3.wav,1,2,2,3,,,,,1,8,24,2,0,8,8,9,,,,,,,,,1,1.4179881630007003,,,060,001,2019_May_27_1009,MusicAffectPsychophysiology2019,3.0.5,59.97932033053783,
To what extent did the music make you feel ,TENDER,30MonoWAV/30MonoF3.wav,1,2,2,3,,,,,1,8,24,2,0,9,9,10,,,,,,,,,1,1.0185026670005755,,,060,001,2019_May_27_1009,MusicAffectPsychophysiology2019,3.0.5,59.97932033053783,
To what extent did the music make you feel ,GUILTY,30MonoWAV/30MonoF3.wav,1,2,2,3,,,,,1,8,24,2,0,10,10,5,,,,,,,,,1,1.2513234930011095,,,060,001,2019_May_27_1009,MusicAffectPsychophysiology2019,3.0.5,59.97932033053783,
To what extent did the music make you feel ,SAD,30MonoWAV/30MonoF3.wav,1,2,2,3,,,,,1,8,24,2,0,11,11,0,,,,,,,,,1,1.4684041290020104,,,060,001,2019_May_27_1009,MusicAffectPsychophysiology2019,3.0.5,59.97932033053783,
,,30MonoWAV/30MonoF3.wav,1,2,2,3,,,,,1,8,24,2,,,,,,,,,,,,,,,,,060,001,2019_May_27_1009,MusicAffectPsychophysiology2019,3.0.5,59.97932033053783,
To what extent did the music make you feel ,FRUSTRATED,30MonoWAV/30MonoT1.wav,2,1,4,13,,,,,1,9,25,12,0,0,0,3,,,1,2.318741831997613,2,4.101390509000339,2,1.5020412220001162,1,0.8017418269992049,,,060,001,2019_May_27_1009,MusicAffectPsychophysiology2019,3.0.5,59.97932033053783,
To what extent did the music make you feel ,ANXIOUS ,30MonoWAV/30MonoT1.wav,2,1,4,13,,,,,1,9,25,12,0,1,1,1,,,,,,,,,1,0.8851226900005713,,,060,001,2019_May_27_1009,MusicAffectPsychophysiology2019,3.0.5,59.97932033053783,
To what extent did the music make you feel ,ACTIVE,30MonoWAV/30MonoT1.wav,2,1,4,13,,,,,1,9,25,12,0,2,2,9,,,,,,,,,1,1.0509489860014583,,,060,001,2019_May_27_1009,MusicAffectPsychophysiology2019,3.0.5,59.97932033053783,
To what extent did the music make you feel ,ASHAMED,30MonoWAV/30MonoT1.wav,2,1,4,13,,,,,1,9,25,12,0,3,3,4,,,,,,,,,1,0.685483461998956,,,060,001,2019_May_27_1009,MusicAffectPsychophysiology2019,3.0.5,59.97932033053783,
To what extent did the music make you feel ,HAPPY,30MonoWAV/30MonoT1.wav,2,1,4,13,,,,,1,9,25,12,0,4,4,6,,,,,,,,,2,1.1681669379977393,,,060,001,2019_May_27_1009,MusicAffectPsychophysiology2019,3.0.5,59.97932033053783,
To what extent did the music make you feel ,TENDER,30MonoWAV/30MonoT1.wav,2,1,4,13,,,,,1,9,25,12,0,5,5,10,,,,,,,,,2,1.2677904579977621,,,060,001,2019_May_27_1009,MusicAffectPsychophysiology2019,3.0.5,59.97932033053783,
To what extent did the music make you feel ,ANGRY,30MonoWAV/30MonoT1.wav,2,1,4,13,,,,,1,9,25,12,0,6,6,2,,,,,,,,,1,0.9517847670031188,,,060,001,2019_May_27_1009,MusicAffectPsychophysiology2019,3.0.5,59.97932033053783,
To what extent did the music make you feel ,SCARED,30MonoWAV/30MonoT1.wav,2,1,4,13,,,,,1,9,25,12,0,7,7,11,,,,,,,,,1,0.8682490329993016,,,060,001,2019_May_27_1009,MusicAffectPsychophysiology2019,3.0.5,59.97932033053783,
To what extent did the music make you feel ,EXCITED,30MonoWAV/30MonoT1.wav,2,1,4,13,,,,,1,9,25,12,0,8,8,7,,,,,,,,,1,0.867820113999187,,,060,001,2019_May_27_1009,MusicAffectPsychophysiology2019,3.0.5,59.97932033053783,
To what extent did the music make you feel ,GUILTY,30MonoWAV/30MonoT1.wav,2,1,4,13,,,,,1,9,25,12,0,9,9,5,,,,,,,,,1,0.6848741659996449,,,060,001,2019_May_27_1009,MusicAffectPsychophysiology2019,3.0.5,59.97932033053783,
To what extent did the music make you feel ,SAD,30MonoWAV/30MonoT1.wav,2,1,4,13,,,,,1,9,25,12,0,10,10,0,,,,,,,,,2,1.0182980979989225,,,060,001,2019_May_27_1009,MusicAffectPsychophysiology2019,3.0.5,59.97932033053783,
To what extent did the music make you feel ,ALERT,30MonoWAV/30MonoT1.wav,2,1,4,13,,,,,1,9,25,12,0,11,11,8,,,,,,,,,1,1.3183991400001105,,,060,001,2019_May_27_1009,MusicAffectPsychophysiology2019,3.0.5,59.97932033053783,
,,30MonoWAV/30MonoT1.wav,2,1,4,13,,,,,1,9,25,12,,,,,,,,,,,,,,,,,060,001,2019_May_27_1009,MusicAffectPsychophysiology2019,3.0.5,59.97932033053783,
To what extent did the music make you feel ,ASHAMED,30MonoWAV/30MonoH4.wav,2,2,1,8,,,,,1,10,26,7,0,0,0,4,,,4,5.116697319997911,3,2.168054330999439,4,1.7178531240024313,1,2.051655335999385,,,060,001,2019_May_27_1009,MusicAffectPsychophysiology2019,3.0.5,59.97932033053783,
To what extent did the music make you feel ,SCARED,30MonoWAV/30MonoH4.wav,2,2,1,8,,,,,1,10,26,7,0,1,1,11,,,,,,,,,1,0.5682162329976563,,,060,001,2019_May_27_1009,MusicAffectPsychophysiology2019,3.0.5,59.97932033053783,
To what extent did the music make you feel ,ANXIOUS ,30MonoWAV/30MonoH4.wav,2,2,1,8,,,,,1,10,26,7,0,2,2,1,,,,,,,,,1,0.8017084320017602,,,060,001,2019_May_27_1009,MusicAffectPsychophysiology2019,3.0.5,59.97932033053783,
To what extent did the music make you feel ,ACTIVE,30MonoWAV/30MonoH4.wav,2,2,1,8,,,,,1,10,26,7,0,3,3,9,,,,,,,,,4,1.069191417998809,,,060,001,2019_May_27_1009,MusicAffectPsychophysiology2019,3.0.5,59.97932033053783,
To what extent did the music make you feel ,SAD,30MonoWAV/30MonoH4.wav,2,2,1,8,,,,,1,10,26,7,0,4,4,0,,,,,,,,,1,0.7352925570012303,,,060,001,2019_May_27_1009,MusicAffectPsychophysiology2019,3.0.5,59.97932033053783,
To what extent did the music make you feel ,EXCITED,30MonoWAV/30MonoH4.wav,2,2,1,8,,,,,1,10,26,7,0,5,5,7,,,,,,,,,4,1.333823069002392,,,060,001,2019_May_27_1009,MusicAffectPsychophysiology2019,3.0.5,59.97932033053783,
To what extent did the music make you feel ,GUILTY,30MonoWAV/30MonoH4.wav,2,2,1,8,,,,,1,10,26,7,0,6,6,5,,,,,,,,,1,0.7518979950000357,,,060,001,2019_May_27_1009,MusicAffectPsychophysiology2019,3.0.5,59.97932033053783,
To what extent did the music make you feel ,TENDER,30MonoWAV/30MonoH4.wav,2,2,1,8,,,,,1,10,26,7,0,7,7,10,,,,,,,,,1,1.3689451220016053,,,060,001,2019_May_27_1009,MusicAffectPsychophysiology2019,3.0.5,59.97932033053783,
To what extent did the music make you feel ,FRUSTRATED,30MonoWAV/30MonoH4.wav,2,2,1,8,,,,,1,10,26,7,0,8,8,3,,,,,,,,,1,1.635406608998892,,,060,001,2019_May_27_1009,MusicAffectPsychophysiology2019,3.0.5,59.97932033053783,
To what extent did the music make you feel ,HAPPY,30MonoWAV/30MonoH4.wav,2,2,1,8,,,,,1,10,26,7,0,9,9,6,,,,,,,,,4,1.0678413169989653,,,060,001,2019_May_27_1009,MusicAffectPsychophysiology2019,3.0.5,59.97932033053783,
To what extent did the music make you feel ,ANGRY,30MonoWAV/30MonoH4.wav,2,2,1,8,,,,,1,10,26,7,0,10,10,2,,,,,,,,,1,0.7184321569984604,,,060,001,2019_May_27_1009,MusicAffectPsychophysiology2019,3.0.5,59.97932033053783,
To what extent did the music make you feel ,ALERT,30MonoWAV/30MonoH4.wav,2,2,1,8,,,,,1,10,26,7,0,11,11,8,,,,,,,,,4,1.2514599169990106,,,060,001,2019_May_27_1009,MusicAffectPsychophysiology2019,3.0.5,59.97932033053783,
,,30MonoWAV/30MonoH4.wav,2,2,1,8,,,,,1,10,26,7,,,,,,,,,,,,,,,,,060,001,2019_May_27_1009,MusicAffectPsychophysiology2019,3.0.5,59.97932033053783,
To what extent did the music make you feel ,SCARED,30MonoWAV/30MonoF4.wav,1,2,2,4,,,,,1,11,27,3,0,0,0,11,,,3,4.834874628999387,2,1.9011720529997547,1,2.266996733000269,2,2.7013205630028096,,,060,001,2019_May_27_1009,MusicAffectPsychophysiology2019,3.0.5,59.97932033053783,
To what extent did the music make you feel ,ALERT,30MonoWAV/30MonoF4.wav,1,2,2,4,,,,,1,11,27,3,0,1,1,8,,,,,,,,,3,1.4681789400019625,,,060,001,2019_May_27_1009,MusicAffectPsychophysiology2019,3.0.5,59.97932033053783,
To what extent did the music make you feel ,FRUSTRATED,30MonoWAV/30MonoF4.wav,1,2,2,4,,,,,1,11,27,3,0,2,2,3,,,,,,,,,1,1.3683159160027571,,,060,001,2019_May_27_1009,MusicAffectPsychophysiology2019,3.0.5,59.97932033053783,
To what extent did the music make you feel ,ASHAMED,30MonoWAV/30MonoF4.wav,1,2,2,4,,,,,1,11,27,3,0,3,3,4,,,,,,,,,1,0.7347051199976704,,,060,001,2019_May_27_1009,MusicAffectPsychophysiology2019,3.0.5,59.97932033053783,
To what extent did the music make you feel ,EXCITED,30MonoWAV/30MonoF4.wav,1,2,2,4,,,,,1,11,27,3,0,4,4,7,,,,,,,,,2,1.3190580450027483,,,060,001,2019_May_27_1009,MusicAffectPsychophysiology2019,3.0.5,59.97932033053783,
To what extent did the music make you feel ,ANGRY,30MonoWAV/30MonoF4.wav,1,2,2,4,,,,,1,11,27,3,0,5,5,2,,,,,,,,,1,0.7362293530022725,,,060,001,2019_May_27_1009,MusicAffectPsychophysiology2019,3.0.5,59.97932033053783,
To what extent did the music make you feel ,ANXIOUS ,30MonoWAV/30MonoF4.wav,1,2,2,4,,,,,1,11,27,3,0,6,6,1,,,,,,,,,3,1.3014946249968489,,,060,001,2019_May_27_1009,MusicAffectPsychophysiology2019,3.0.5,59.97932033053783,
To what extent did the music make you feel ,HAPPY,30MonoWAV/30MonoF4.wav,1,2,2,4,,,,,1,11,27,3,0,7,7,6,,,,,,,,,1,1.568310313999973,,,060,001,2019_May_27_1009,MusicAffectPsychophysiology2019,3.0.5,59.97932033053783,
To what extent did the music make you feel ,GUILTY,30MonoWAV/30MonoF4.wav,1,2,2,4,,,,,1,11,27,3,0,8,8,5,,,,,,,,,2,1.834531443000742,,,060,001,2019_May_27_1009,MusicAffectPsychophysiology2019,3.0.5,59.97932033053783,
To what extent did the music make you feel ,ACTIVE,30MonoWAV/30MonoF4.wav,1,2,2,4,,,,,1,11,27,3,0,9,9,9,,,,,,,,,3,1.3186585990006279,,,060,001,2019_May_27_1009,MusicAffectPsychophysiology2019,3.0.5,59.97932033053783,
To what extent did the music make you feel ,SAD,30MonoWAV/30MonoF4.wav,1,2,2,4,,,,,1,11,27,3,0,10,10,0,,,,,,,,,2,1.3689404260003357,,,060,001,2019_May_27_1009,MusicAffectPsychophysiology2019,3.0.5,59.97932033053783,
To what extent did the music make you feel ,TENDER,30MonoWAV/30MonoF4.wav,1,2,2,4,,,,,1,11,27,3,0,11,11,10,,,,,,,,,1,1.6682515339998645,,,060,001,2019_May_27_1009,MusicAffectPsychophysiology2019,3.0.5,59.97932033053783,
,,30MonoWAV/30MonoF4.wav,1,2,2,4,,,,,1,11,27,3,,,,,,,,,,,,,,,,,060,001,2019_May_27_1009,MusicAffectPsychophysiology2019,3.0.5,59.97932033053783,
To what extent did the music make you feel ,TENDER,30MonoWAV/30MonoF2.wav,1,2,2,2,,,,,1,12,28,1,0,0,0,10,,,2,3.7225920269993367,1,2.137168309000117,1,1.201519489997736,1,1.1863970929989591,,,060,001,2019_May_27_1009,MusicAffectPsychophysiology2019,3.0.5,59.97932033053783,
To what extent did the music make you feel ,ANGRY,30MonoWAV/30MonoF2.wav,1,2,2,2,,,,,1,12,28,1,0,1,1,2,,,,,,,,,1,0.7691546249989187,,,060,001,2019_May_27_1009,MusicAffectPsychophysiology2019,3.0.5,59.97932033053783,
To what extent did the music make you feel ,FRUSTRATED,30MonoWAV/30MonoF2.wav,1,2,2,2,,,,,1,12,28,1,0,2,2,3,,,,,,,,,1,0.6355424659996061,,,060,001,2019_May_27_1009,MusicAffectPsychophysiology2019,3.0.5,59.97932033053783,
To what extent did the music make you feel ,HAPPY,30MonoWAV/30MonoF2.wav,1,2,2,2,,,,,1,12,28,1,0,3,3,6,,,,,,,,,1,1.8203135930016288,,,060,001,2019_May_27_1009,MusicAffectPsychophysiology2019,3.0.5,59.97932033053783,
To what extent did the music make you feel ,ACTIVE,30MonoWAV/30MonoF2.wav,1,2,2,2,,,,,1,12,28,1,0,4,4,9,,,,,,,,,2,1.070166714998777,,,060,001,2019_May_27_1009,MusicAffectPsychophysiology2019,3.0.5,59.97932033053783,
To what extent did the music make you feel ,EXCITED,30MonoWAV/30MonoF2.wav,1,2,2,2,,,,,1,12,28,1,0,5,5,7,,,,,,,,,2,1.151383454001916,,,060,001,2019_May_27_1009,MusicAffectPsychophysiology2019,3.0.5,59.97932033053783,
To what extent did the music make you feel ,SCARED,30MonoWAV/30MonoF2.wav,1,2,2,2,,,,,1,12,28,1,0,6,6,11,,,,,,,,,4,2.185543945997779,,,060,001,2019_May_27_1009,MusicAffectPsychophysiology2019,3.0.5,59.97932033053783,
To what extent did the music make you feel ,ASHAMED,30MonoWAV/30MonoF2.wav,1,2,2,2,,,,,1,12,28,1,0,7,7,4,,,,,,,,,1,1.4182005660004506,,,060,001,2019_May_27_1009,MusicAffectPsychophysiology2019,3.0.5,59.97932033053783,
To what extent did the music make you feel ,SAD,30MonoWAV/30MonoF2.wav,1,2,2,2,,,,,1,12,28,1,0,8,8,0,,,,,,,,,1,1.5511951000007684,,,060,001,2019_May_27_1009,MusicAffectPsychophysiology2019,3.0.5,59.97932033053783,
To what extent did the music make you feel ,ALERT,30MonoWAV/30MonoF2.wav,1,2,2,2,,,,,1,12,28,1,0,9,9,8,,,,,,,,,4,1.6347087640024256,,,060,001,2019_May_27_1009,MusicAffectPsychophysiology2019,3.0.5,59.97932033053783,
To what extent did the music make you feel ,ANXIOUS ,30MonoWAV/30MonoF2.wav,1,2,2,2,,,,,1,12,28,1,0,10,10,1,,,,,,,,,4,3.1675731130017084,,,060,001,2019_May_27_1009,MusicAffectPsychophysiology2019,3.0.5,59.97932033053783,
To what extent did the music make you feel ,GUILTY,30MonoWAV/30MonoF2.wav,1,2,2,2,,,,,1,12,28,1,0,11,11,5,,,,,,,,,1,1.135451333000674,,,060,001,2019_May_27_1009,MusicAffectPsychophysiology2019,3.0.5,59.97932033053783,
,,30MonoWAV/30MonoF2.wav,1,2,2,2,,,,,1,12,28,1,,,,,,,,,,,,,,,,,060,001,2019_May_27_1009,MusicAffectPsychophysiology2019,3.0.5,59.97932033053783,
To what extent did the music make you feel ,ASHAMED,30MonoWAV/30MonoH2.wav,2,2,1,6,,,,,1,13,29,5,0,0,0,4,,,2,4.4348757909974665,2,1.4019077190023381,1,2.4180400539989932,1,0.9840691789977427,,,060,001,2019_May_27_1009,MusicAffectPsychophysiology2019,3.0.5,59.97932033053783,
To what extent did the music make you feel ,SCARED,30MonoWAV/30MonoH2.wav,2,2,1,6,,,,,1,13,29,5,0,1,1,11,,,,,,,,,1,1.1008237160021963,,,060,001,2019_May_27_1009,MusicAffectPsychophysiology2019,3.0.5,59.97932033053783,
To what extent did the music make you feel ,TENDER,30MonoWAV/30MonoH2.wav,2,2,1,6,,,,,1,13,29,5,0,2,2,10,,,,,,,,,1,1.4517446639983973,,,060,001,2019_May_27_1009,MusicAffectPsychophysiology2019,3.0.5,59.97932033053783,
To what extent did the music make you feel ,GUILTY,30MonoWAV/30MonoH2.wav,2,2,1,6,,,,,1,13,29,5,0,3,3,5,,,,,,,,,1,0.8013608619985462,,,060,001,2019_May_27_1009,MusicAffectPsychophysiology2019,3.0.5,59.97932033053783,
To what extent did the music make you feel ,ANXIOUS ,30MonoWAV/30MonoH2.wav,2,2,1,6,,,,,1,13,29,5,0,4,4,1,,,,,,,,,2,1.0857296799986216,,,060,001,2019_May_27_1009,MusicAffectPsychophysiology2019,3.0.5,59.97932033053783,
To what extent did the music make you feel ,HAPPY,30MonoWAV/30MonoH2.wav,2,2,1,6,,,,,1,13,29,5,0,5,5,6,,,,,,,,,2,1.1689836129989999,,,060,001,2019_May_27_1009,MusicAffectPsychophysiology2019,3.0.5,59.97932033053783,
To what extent did the music make you feel ,SAD,30MonoWAV/30MonoH2.wav,2,2,1,6,,,,,1,13,29,5,0,6,6,0,,,,,,,,,1,0.9358373590002884,,,060,001,2019_May_27_1009,MusicAffectPsychophysiology2019,3.0.5,59.97932033053783,
To what extent did the music make you feel ,ALERT,30MonoWAV/30MonoH2.wav,2,2,1,6,,,,,1,13,29,5,0,7,7,8,,,,,,,,,2,1.1349805539975932,,,060,001,2019_May_27_1009,MusicAffectPsychophysiology2019,3.0.5,59.97932033053783,
To what extent did the music make you feel ,EXCITED,30MonoWAV/30MonoH2.wav,2,2,1,6,,,,,1,13,29,5,0,8,8,7,,,,,,,,,2,1.4355627590011864,,,060,001,2019_May_27_1009,MusicAffectPsychophysiology2019,3.0.5,59.97932033053783,
To what extent did the music make you feel ,ACTIVE,30MonoWAV/30MonoH2.wav,2,2,1,6,,,,,1,13,29,5,0,9,9,9,,,,,,,,,2,1.0677033369975106,,,060,001,2019_May_27_1009,MusicAffectPsychophysiology2019,3.0.5,59.97932033053783,
To what extent did the music make you feel ,FRUSTRATED,30MonoWAV/30MonoH2.wav,2,2,1,6,,,,,1,13,29,5,0,10,10,3,,,,,,,,,1,0.8856291849988338,,,060,001,2019_May_27_1009,MusicAffectPsychophysiology2019,3.0.5,59.97932033053783,
To what extent did the music make you feel ,ANGRY,30MonoWAV/30MonoH2.wav,2,2,1,6,,,,,1,13,29,5,0,11,11,2,,,,,,,,,1,0.9023141170000599,,,060,001,2019_May_27_1009,MusicAffectPsychophysiology2019,3.0.5,59.97932033053783,
,,30MonoWAV/30MonoH2.wav,2,2,1,6,,,,,1,13,29,5,,,,,,,,,,,,,,,,,060,001,2019_May_27_1009,MusicAffectPsychophysiology2019,3.0.5,59.97932033053783,
To what extent did the music make you feel ,GUILTY,30MonoWAV/30MonoS3.wav,1,1,3,11,,,,,1,14,30,10,0,0,0,5,,,1,2.735419552998792,1,1.7011215660022572,1,0.9855314270025701,2,1.5857113300007768,,,060,001,2019_May_27_1009,MusicAffectPsychophysiology2019,3.0.5,59.97932033053783,
To what extent did the music make you feel ,EXCITED,30MonoWAV/30MonoS3.wav,1,1,3,11,,,,,1,14,30,10,0,1,1,7,,,,,,,,,1,0.9015905649976048,,,060,001,2019_May_27_1009,MusicAffectPsychophysiology2019,3.0.5,59.97932033053783,
To what extent did the music make you feel ,ACTIVE,30MonoWAV/30MonoS3.wav,1,1,3,11,,,,,1,14,30,10,0,2,2,9,,,,,,,,,1,0.9993642890003684,,,060,001,2019_May_27_1009,MusicAffectPsychophysiology2019,3.0.5,59.97932033053783,
To what extent did the music make you feel ,ASHAMED,30MonoWAV/30MonoS3.wav,1,1,3,11,,,,,1,14,30,10,0,3,3,4,,,,,,,,,2,1.1858372429996962,,,060,001,2019_May_27_1009,MusicAffectPsychophysiology2019,3.0.5,59.97932033053783,
To what extent did the music make you feel ,FRUSTRATED,30MonoWAV/30MonoS3.wav,1,1,3,11,,,,,1,14,30,10,0,4,4,3,,,,,,,,,1,0.7661017809987243,,,060,001,2019_May_27_1009,MusicAffectPsychophysiology2019,3.0.5,59.97932033053783,
To what extent did the music make you feel ,HAPPY,30MonoWAV/30MonoS3.wav,1,1,3,11,,,,,1,14,30,10,0,5,5,6,,,,,,,,,1,1.8681726830000116,,,060,001,2019_May_27_1009,MusicAffectPsychophysiology2019,3.0.5,59.97932033053783,
To what extent did the music make you feel ,SAD,30MonoWAV/30MonoS3.wav,1,1,3,11,,,,,1,14,30,10,0,6,6,0,,,,,,,,,2,0.7692812370005413,,,060,001,2019_May_27_1009,MusicAffectPsychophysiology2019,3.0.5,59.97932033053783,
To what extent did the music make you feel ,SCARED,30MonoWAV/30MonoS3.wav,1,1,3,11,,,,,1,14,30,10,0,7,7,11,,,,,,,,,2,1.5183476100028201,,,060,001,2019_May_27_1009,MusicAffectPsychophysiology2019,3.0.5,59.97932033053783,
To what extent did the music make you feel ,ALERT,30MonoWAV/30MonoS3.wav,1,1,3,11,,,,,1,14,30,10,0,8,8,8,,,,,,,,,1,1.4505700070003513,,,060,001,2019_May_27_1009,MusicAffectPsychophysiology2019,3.0.5,59.97932033053783,
To what extent did the music make you feel ,TENDER,30MonoWAV/30MonoS3.wav,1,1,3,11,,,,,1,14,30,10,0,9,9,10,,,,,,,,,2,1.5187539309990825,,,060,001,2019_May_27_1009,MusicAffectPsychophysiology2019,3.0.5,59.97932033053783,
To what extent did the music make you feel ,ANGRY,30MonoWAV/30MonoS3.wav,1,1,3,11,,,,,1,14,30,10,0,10,10,2,,,,,,,,,1,0.8014934089987946,,,060,001,2019_May_27_1009,MusicAffectPsychophysiology2019,3.0.5,59.97932033053783,
To what extent did the music make you feel ,ANXIOUS ,30MonoWAV/30MonoS3.wav,1,1,3,11,,,,,1,14,30,10,0,11,11,1,,,,,,,,,2,1.1179488169982505,,,060,001,2019_May_27_1009,MusicAffectPsychophysiology2019,3.0.5,59.97932033053783,
,,30MonoWAV/30MonoS3.wav,1,1,3,11,,,,,1,14,30,10,,,,,,,,,,,,,,,,,060,001,2019_May_27_1009,MusicAffectPsychophysiology2019,3.0.5,59.97932033053783,
To what extent did the music make you feel ,FRUSTRATED,30MonoWAV/30MonoS1.wav,1,1,3,9,,,,,1,15,31,8,0,0,0,3,,,1,2.4177451210016443,2,2.2362488599974313,2,1.5345056119986111,1,0.968400338999345,,,060,001,2019_May_27_1009,MusicAffectPsychophysiology2019,3.0.5,59.97932033053783,
To what extent did the music make you feel ,ANXIOUS ,30MonoWAV/30MonoS1.wav,1,1,3,9,,,,,1,15,31,8,0,1,1,1,,,,,,,,,3,1.5854676439994364,,,060,001,2019_May_27_1009,MusicAffectPsychophysiology2019,3.0.5,59.97932033053783,
To what extent did the music make you feel ,ANGRY,30MonoWAV/30MonoS1.wav,1,1,3,9,,,,,1,15,31,8,0,2,2,2,,,,,,,,,2,1.0679465579996759,,,060,001,2019_May_27_1009,MusicAffectPsychophysiology2019,3.0.5,59.97932033053783,
To what extent did the music make you feel ,EXCITED,30MonoWAV/30MonoS1.wav,1,1,3,9,,,,,1,15,31,8,0,3,3,7,,,,,,,,,1,4.434545399999479,,,060,001,2019_May_27_1009,MusicAffectPsychophysiology2019,3.0.5,59.97932033053783,
To what extent did the music make you feel ,ACTIVE,30MonoWAV/30MonoS1.wav,1,1,3,9,,,,,1,15,31,8,0,4,4,9,,,,,,,,,1,1.0835311179980636,,,060,001,2019_May_27_1009,MusicAffectPsychophysiology2019,3.0.5,59.97932033053783,
To what extent did the music make you feel ,GUILTY,30MonoWAV/30MonoS1.wav,1,1,3,9,,,,,1,15,31,8,0,5,5,5,,,,,,,,,2,1.0530813069999567,,,060,001,2019_May_27_1009,MusicAffectPsychophysiology2019,3.0.5,59.97932033053783,
To what extent did the music make you feel ,ALERT,30MonoWAV/30MonoS1.wav,1,1,3,9,,,,,1,15,31,8,0,6,6,8,,,,,,,,,2,1.517676694002148,,,060,001,2019_May_27_1009,MusicAffectPsychophysiology2019,3.0.5,59.97932033053783,
To what extent did the music make you feel ,SCARED,30MonoWAV/30MonoS1.wav,1,1,3,9,,,,,1,15,31,8,0,7,7,11,,,,,,,,,2,2.085321411002951,,,060,001,2019_May_27_1009,MusicAffectPsychophysiology2019,3.0.5,59.97932033053783,
To what extent did the music make you feel ,ASHAMED,30MonoWAV/30MonoS1.wav,1,1,3,9,,,,,1,15,31,8,0,8,8,4,,,,,,,,,2,1.0349288299985346,,,060,001,2019_May_27_1009,MusicAffectPsychophysiology2019,3.0.5,59.97932033053783,
To what extent did the music make you feel ,SAD,30MonoWAV/30MonoS1.wav,1,1,3,9,,,,,1,15,31,8,0,9,9,0,,,,,,,,,2,2.501523503997305,,,060,001,2019_May_27_1009,MusicAffectPsychophysiology2019,3.0.5,59.97932033053783,
To what extent did the music make you feel ,HAPPY,30MonoWAV/30MonoS1.wav,1,1,3,9,,,,,1,15,31,8,0,10,10,6,,,,,,,,,1,0.7356115879993013,,,060,001,2019_May_27_1009,MusicAffectPsychophysiology2019,3.0.5,59.97932033053783,
To what extent did the music make you feel ,TENDER,30MonoWAV/30MonoS1.wav,1,1,3,9,,,,,1,15,31,8,0,11,11,10,,,,,,,,,2,0.900776042999496,,,060,001,2019_May_27_1009,MusicAffectPsychophysiology2019,3.0.5,59.97932033053783,
,,30MonoWAV/30MonoS1.wav,1,1,3,9,,,,,1,15,31,8,,,,,,,,,,,,,,,,,060,001,2019_May_27_1009,MusicAffectPsychophysiology2019,3.0.5,59.97932033053783,
,,,,,,,,,,,,,,,,,,,,,,,,,,,,,space,5.585738866000611,060,001,2019_May_27_1009,MusicAffectPsychophysiology2019,3.0.5,59.97932033053783,
