Instruction,Word,song,valence,arousal,affectcat,songmark,pracwords.thisRepN,pracwords.thisTrialN,pracwords.thisN,pracwords.thisIndex,songtrials.thisRepN,songtrials.thisTrialN,songtrials.thisN,songtrials.thisIndex,words.thisRepN,words.thisTrialN,words.thisN,words.thisIndex,begin.keys,begin.rt,arousalkey.keys,arousalkey.rt,valencekey.keys,valencekey.rt,likekey.keys,likekey.rt,WordResponse.keys,WordResponse.rt,key_resp_2.keys,key_resp_2.rt,participant,session,date,expName,psychopyVersion,frameRate,
,,,,,,,,,,,,,,,,,,,space,5.815535685000214,,,,,,,,,,,061,001,2019_May_27_1107,MusicAffectPsychophysiology2019,3.0.5,60.05074263735705,
,,,,,,,,,,,,,,,,,,,,,5,3.118923308000376,,,,,,,,,061,001,2019_May_27_1107,MusicAffectPsychophysiology2019,3.0.5,60.05074263735705,
,,,,,,,,,,,,,,,,,,,,,,,5,2.2512662329972954,,,,,,,061,001,2019_May_27_1107,MusicAffectPsychophysiology2019,3.0.5,60.05074263735705,
,,,,,,,,,,,,,,,,,,,,,,,,,5,1.8684138919998077,,,,,061,001,2019_May_27_1107,MusicAffectPsychophysiology2019,3.0.5,60.05074263735705,
To what extent did the music make you feel ,SAD,,,,,,0,0,0,0,,,,,,,,,,,,,,,,,1,2.1681608270009747,,,061,001,2019_May_27_1107,MusicAffectPsychophysiology2019,3.0.5,60.05074263735705,
To what extent did the music make you feel ,HAPPY,,,,,,0,1,1,6,,,,,,,,,,,,,,,,,5,2.018211267000879,,,061,001,2019_May_27_1107,MusicAffectPsychophysiology2019,3.0.5,60.05074263735705,
To what extent did the music make you feel ,ASHAMED,,,,,,0,2,2,4,,,,,,,,,,,,,,,,,1,1.451546062999114,,,061,001,2019_May_27_1107,MusicAffectPsychophysiology2019,3.0.5,60.05074263735705,
To what extent did the music make you feel ,ACTIVE,,,,,,0,3,3,9,,,,,,,,,,,,,,,,,5,1.416440506996878,,,061,001,2019_May_27_1107,MusicAffectPsychophysiology2019,3.0.5,60.05074263735705,
To what extent did the music make you feel ,FRUSTRATED,,,,,,0,4,4,3,,,,,,,,,,,,,,,,,1,1.2525471820044913,,,061,001,2019_May_27_1107,MusicAffectPsychophysiology2019,3.0.5,60.05074263735705,
To what extent did the music make you feel ,SCARED,,,,,,0,5,5,11,,,,,,,,,,,,,,,,,1,1.2011345900027663,,,061,001,2019_May_27_1107,MusicAffectPsychophysiology2019,3.0.5,60.05074263735705,
To what extent did the music make you feel ,GUILTY,,,,,,0,6,6,5,,,,,,,,,,,,,,,,,1,0.7190491420042235,,,061,001,2019_May_27_1107,MusicAffectPsychophysiology2019,3.0.5,60.05074263735705,
To what extent did the music make you feel ,ANGRY,,,,,,0,7,7,2,,,,,,,,,,,,,,,,,1,0.6189539909973973,,,061,001,2019_May_27_1107,MusicAffectPsychophysiology2019,3.0.5,60.05074263735705,
To what extent did the music make you feel ,ANXIOUS ,,,,,,0,8,8,1,,,,,,,,,,,,,,,,,1,0.7508964739972726,,,061,001,2019_May_27_1107,MusicAffectPsychophysiology2019,3.0.5,60.05074263735705,
To what extent did the music make you feel ,ALERT,,,,,,0,9,9,8,,,,,,,,,,,,,,,,,4,2.289807232002204,,,061,001,2019_May_27_1107,MusicAffectPsychophysiology2019,3.0.5,60.05074263735705,
To what extent did the music make you feel ,TENDER,,,,,,0,10,10,10,,,,,,,,,,,,,,,,,1,1.4038019479994546,,,061,001,2019_May_27_1107,MusicAffectPsychophysiology2019,3.0.5,60.05074263735705,
To what extent did the music make you feel ,EXCITED,,,,,,0,11,11,7,,,,,,,,,,,,,,,,,5,1.327283406004426,,,061,001,2019_May_27_1107,MusicAffectPsychophysiology2019,3.0.5,60.05074263735705,
To what extent did the music make you feel ,ANXIOUS ,30MonoWAV/30MonoT4.wav,2,1,4,16,,,,,0,0,0,15,0,0,0,1,,,4,2.7518703089954215,4,2.1845669289978105,3,1.5846640719973948,1,1.5524652829990373,,,061,001,2019_May_27_1107,MusicAffectPsychophysiology2019,3.0.5,60.05074263735705,
To what extent did the music make you feel ,ANGRY,30MonoWAV/30MonoT4.wav,2,1,4,16,,,,,0,0,0,15,0,1,1,2,,,,,,,,,1,0.986169323005015,,,061,001,2019_May_27_1107,MusicAffectPsychophysiology2019,3.0.5,60.05074263735705,
To what extent did the music make you feel ,ASHAMED,30MonoWAV/30MonoT4.wav,2,1,4,16,,,,,0,0,0,15,0,2,2,4,,,,,,,,,1,0.6355450179980835,,,061,001,2019_May_27_1107,MusicAffectPsychophysiology2019,3.0.5,60.05074263735705,
To what extent did the music make you feel ,SAD,30MonoWAV/30MonoT4.wav,2,1,4,16,,,,,0,0,0,15,0,3,3,0,,,,,,,,,1,0.650680332997581,,,061,001,2019_May_27_1107,MusicAffectPsychophysiology2019,3.0.5,60.05074263735705,
To what extent did the music make you feel ,ALERT,30MonoWAV/30MonoT4.wav,2,1,4,16,,,,,0,0,0,15,0,4,4,8,,,,,,,,,1,0.6170180670014815,,,061,001,2019_May_27_1107,MusicAffectPsychophysiology2019,3.0.5,60.05074263735705,
To what extent did the music make you feel ,SCARED,30MonoWAV/30MonoT4.wav,2,1,4,16,,,,,0,0,0,15,0,5,5,11,,,,,,,,,1,0.8361291530018207,,,061,001,2019_May_27_1107,MusicAffectPsychophysiology2019,3.0.5,60.05074263735705,
To what extent did the music make you feel ,EXCITED,30MonoWAV/30MonoT4.wav,2,1,4,16,,,,,0,0,0,15,0,6,6,7,,,,,,,,,3,2.151480669002922,,,061,001,2019_May_27_1107,MusicAffectPsychophysiology2019,3.0.5,60.05074263735705,
To what extent did the music make you feel ,FRUSTRATED,30MonoWAV/30MonoT4.wav,2,1,4,16,,,,,0,0,0,15,0,7,7,3,,,,,,,,,1,1.101476868003374,,,061,001,2019_May_27_1107,MusicAffectPsychophysiology2019,3.0.5,60.05074263735705,
To what extent did the music make you feel ,TENDER,30MonoWAV/30MonoT4.wav,2,1,4,16,,,,,0,0,0,15,0,8,8,10,,,,,,,,,1,0.9683467579961871,,,061,001,2019_May_27_1107,MusicAffectPsychophysiology2019,3.0.5,60.05074263735705,
To what extent did the music make you feel ,ACTIVE,30MonoWAV/30MonoT4.wav,2,1,4,16,,,,,0,0,0,15,0,9,9,9,,,,,,,,,3,2.7181430230048136,,,061,001,2019_May_27_1107,MusicAffectPsychophysiology2019,3.0.5,60.05074263735705,
To what extent did the music make you feel ,HAPPY,30MonoWAV/30MonoT4.wav,2,1,4,16,,,,,0,0,0,15,0,10,10,6,,,,,,,,,3,1.7857733209966682,,,061,001,2019_May_27_1107,MusicAffectPsychophysiology2019,3.0.5,60.05074263735705,
To what extent did the music make you feel ,GUILTY,30MonoWAV/30MonoT4.wav,2,1,4,16,,,,,0,0,0,15,0,11,11,5,,,,,,,,,1,1.434089659996971,,,061,001,2019_May_27_1107,MusicAffectPsychophysiology2019,3.0.5,60.05074263735705,
,,30MonoWAV/30MonoT4.wav,2,1,4,16,,,,,0,0,0,15,,,,,,,,,,,,,,,,,061,001,2019_May_27_1107,MusicAffectPsychophysiology2019,3.0.5,60.05074263735705,
To what extent did the music make you feel ,HAPPY,30MonoWAV/30MonoH1.wav,2,2,1,5,,,,,0,1,1,4,0,0,0,6,,,3,2.8022781430045143,3,2.517102858000726,4,2.4523363600019366,2,3.750809165998362,,,061,001,2019_May_27_1107,MusicAffectPsychophysiology2019,3.0.5,60.05074263735705,
To what extent did the music make you feel ,GUILTY,30MonoWAV/30MonoH1.wav,2,2,1,5,,,,,0,1,1,4,0,1,1,5,,,,,,,,,1,1.5011391759981052,,,061,001,2019_May_27_1107,MusicAffectPsychophysiology2019,3.0.5,60.05074263735705,
To what extent did the music make you feel ,ALERT,30MonoWAV/30MonoH1.wav,2,2,1,5,,,,,0,1,1,4,0,2,2,8,,,,,,,,,2,2.218658758996753,,,061,001,2019_May_27_1107,MusicAffectPsychophysiology2019,3.0.5,60.05074263735705,
To what extent did the music make you feel ,ASHAMED,30MonoWAV/30MonoH1.wav,2,2,1,5,,,,,0,1,1,4,0,3,3,4,,,,,,,,,2,1.952773419994628,,,061,001,2019_May_27_1107,MusicAffectPsychophysiology2019,3.0.5,60.05074263735705,
To what extent did the music make you feel ,EXCITED,30MonoWAV/30MonoH1.wav,2,2,1,5,,,,,0,1,1,4,0,4,4,7,,,,,,,,,3,1.7349414350028383,,,061,001,2019_May_27_1107,MusicAffectPsychophysiology2019,3.0.5,60.05074263735705,
To what extent did the music make you feel ,ACTIVE,30MonoWAV/30MonoH1.wav,2,2,1,5,,,,,0,1,1,4,0,5,5,9,,,,,,,,,2,1.717791060997115,,,061,001,2019_May_27_1107,MusicAffectPsychophysiology2019,3.0.5,60.05074263735705,
To what extent did the music make you feel ,ANGRY,30MonoWAV/30MonoH1.wav,2,2,1,5,,,,,0,1,1,4,0,6,6,2,,,,,,,,,1,0.9514846780002699,,,061,001,2019_May_27_1107,MusicAffectPsychophysiology2019,3.0.5,60.05074263735705,
To what extent did the music make you feel ,ANXIOUS ,30MonoWAV/30MonoH1.wav,2,2,1,5,,,,,0,1,1,4,0,7,7,1,,,,,,,,,1,0.9689995490043657,,,061,001,2019_May_27_1107,MusicAffectPsychophysiology2019,3.0.5,60.05074263735705,
To what extent did the music make you feel ,FRUSTRATED,30MonoWAV/30MonoH1.wav,2,2,1,5,,,,,0,1,1,4,0,8,8,3,,,,,,,,,1,0.9016010069972253,,,061,001,2019_May_27_1107,MusicAffectPsychophysiology2019,3.0.5,60.05074263735705,
To what extent did the music make you feel ,SCARED,30MonoWAV/30MonoH1.wav,2,2,1,5,,,,,0,1,1,4,0,9,9,11,,,,,,,,,1,1.0510563659991021,,,061,001,2019_May_27_1107,MusicAffectPsychophysiology2019,3.0.5,60.05074263735705,
To what extent did the music make you feel ,SAD,30MonoWAV/30MonoH1.wav,2,2,1,5,,,,,0,1,1,4,0,10,10,0,,,,,,,,,1,0.9670101829979103,,,061,001,2019_May_27_1107,MusicAffectPsychophysiology2019,3.0.5,60.05074263735705,
To what extent did the music make you feel ,TENDER,30MonoWAV/30MonoH1.wav,2,2,1,5,,,,,0,1,1,4,0,11,11,10,,,,,,,,,2,1.5848561620005057,,,061,001,2019_May_27_1107,MusicAffectPsychophysiology2019,3.0.5,60.05074263735705,
,,30MonoWAV/30MonoH1.wav,2,2,1,5,,,,,0,1,1,4,,,,,,,,,,,,,,,,,061,001,2019_May_27_1107,MusicAffectPsychophysiology2019,3.0.5,60.05074263735705,
To what extent did the music make you feel ,ACTIVE,30MonoWAV/30MonoH4.wav,2,2,1,8,,,,,0,2,2,7,0,0,0,9,,,4,2.3847870159952436,4,2.1678948780026985,3,2.6015894069932983,5,1.9022214280048502,,,061,001,2019_May_27_1107,MusicAffectPsychophysiology2019,3.0.5,60.05074263735705,
To what extent did the music make you feel ,SAD,30MonoWAV/30MonoH4.wav,2,2,1,8,,,,,0,2,2,7,0,1,1,0,,,,,,,,,1,1.0525313739999547,,,061,001,2019_May_27_1107,MusicAffectPsychophysiology2019,3.0.5,60.05074263735705,
To what extent did the music make you feel ,ASHAMED,30MonoWAV/30MonoH4.wav,2,2,1,8,,,,,0,2,2,7,0,2,2,4,,,,,,,,,1,1.0839155200010282,,,061,001,2019_May_27_1107,MusicAffectPsychophysiology2019,3.0.5,60.05074263735705,
To what extent did the music make you feel ,ANXIOUS ,30MonoWAV/30MonoH4.wav,2,2,1,8,,,,,0,2,2,7,0,3,3,1,,,,,,,,,1,0.6343973460025154,,,061,001,2019_May_27_1107,MusicAffectPsychophysiology2019,3.0.5,60.05074263735705,
To what extent did the music make you feel ,HAPPY,30MonoWAV/30MonoH4.wav,2,2,1,8,,,,,0,2,2,7,0,4,4,6,,,,,,,,,4,1.4174801420012955,,,061,001,2019_May_27_1107,MusicAffectPsychophysiology2019,3.0.5,60.05074263735705,
To what extent did the music make you feel ,GUILTY,30MonoWAV/30MonoH4.wav,2,2,1,8,,,,,0,2,2,7,0,5,5,5,,,,,,,,,1,1.101435771000979,,,061,001,2019_May_27_1107,MusicAffectPsychophysiology2019,3.0.5,60.05074263735705,
To what extent did the music make you feel ,SCARED,30MonoWAV/30MonoH4.wav,2,2,1,8,,,,,0,2,2,7,0,6,6,11,,,,,,,,,1,0.8353621650021523,,,061,001,2019_May_27_1107,MusicAffectPsychophysiology2019,3.0.5,60.05074263735705,
To what extent did the music make you feel ,ANGRY,30MonoWAV/30MonoH4.wav,2,2,1,8,,,,,0,2,2,7,0,7,7,2,,,,,,,,,1,0.6188115229961113,,,061,001,2019_May_27_1107,MusicAffectPsychophysiology2019,3.0.5,60.05074263735705,
To what extent did the music make you feel ,ALERT,30MonoWAV/30MonoH4.wav,2,2,1,8,,,,,0,2,2,7,0,8,8,8,,,,,,,,,4,1.251028769002005,,,061,001,2019_May_27_1107,MusicAffectPsychophysiology2019,3.0.5,60.05074263735705,
To what extent did the music make you feel ,EXCITED,30MonoWAV/30MonoH4.wav,2,2,1,8,,,,,0,2,2,7,0,9,9,7,,,,,,,,,5,1.385095782999997,,,061,001,2019_May_27_1107,MusicAffectPsychophysiology2019,3.0.5,60.05074263735705,
To what extent did the music make you feel ,TENDER,30MonoWAV/30MonoH4.wav,2,2,1,8,,,,,0,2,2,7,0,10,10,10,,,,,,,,,1,1.534848002003855,,,061,001,2019_May_27_1107,MusicAffectPsychophysiology2019,3.0.5,60.05074263735705,
To what extent did the music make you feel ,FRUSTRATED,30MonoWAV/30MonoH4.wav,2,2,1,8,,,,,0,2,2,7,0,11,11,3,,,,,,,,,1,1.8841287410032237,,,061,001,2019_May_27_1107,MusicAffectPsychophysiology2019,3.0.5,60.05074263735705,
,,30MonoWAV/30MonoH4.wav,2,2,1,8,,,,,0,2,2,7,,,,,,,,,,,,,,,,,061,001,2019_May_27_1107,MusicAffectPsychophysiology2019,3.0.5,60.05074263735705,
To what extent did the music make you feel ,GUILTY,30MonoWAV/30MonoT2.wav,2,1,4,14,,,,,0,3,3,13,0,0,0,5,,,2,4.118125245004194,3,2.9172456359956414,4,2.019296130994917,1,2.0178232479956932,,,061,001,2019_May_27_1107,MusicAffectPsychophysiology2019,3.0.5,60.05074263735705,
To what extent did the music make you feel ,ACTIVE,30MonoWAV/30MonoT2.wav,2,1,4,14,,,,,0,3,3,13,0,1,1,9,,,,,,,,,2,2.0520511550057563,,,061,001,2019_May_27_1107,MusicAffectPsychophysiology2019,3.0.5,60.05074263735705,
To what extent did the music make you feel ,ANXIOUS ,30MonoWAV/30MonoT2.wav,2,1,4,14,,,,,0,3,3,13,0,2,2,1,,,,,,,,,2,3.2844284550010343,,,061,001,2019_May_27_1107,MusicAffectPsychophysiology2019,3.0.5,60.05074263735705,
To what extent did the music make you feel ,FRUSTRATED,30MonoWAV/30MonoT2.wav,2,1,4,14,,,,,0,3,3,13,0,3,3,3,,,,,,,,,1,1.468453954999859,,,061,001,2019_May_27_1107,MusicAffectPsychophysiology2019,3.0.5,60.05074263735705,
To what extent did the music make you feel ,EXCITED,30MonoWAV/30MonoT2.wav,2,1,4,14,,,,,0,3,3,13,0,4,4,7,,,,,,,,,2,1.6183410489975358,,,061,001,2019_May_27_1107,MusicAffectPsychophysiology2019,3.0.5,60.05074263735705,
To what extent did the music make you feel ,TENDER,30MonoWAV/30MonoT2.wav,2,1,4,14,,,,,0,3,3,13,0,5,5,10,,,,,,,,,3,1.8350802739951178,,,061,001,2019_May_27_1107,MusicAffectPsychophysiology2019,3.0.5,60.05074263735705,
To what extent did the music make you feel ,SCARED,30MonoWAV/30MonoT2.wav,2,1,4,14,,,,,0,3,3,13,0,6,6,11,,,,,,,,,1,1.483926387001702,,,061,001,2019_May_27_1107,MusicAffectPsychophysiology2019,3.0.5,60.05074263735705,
To what extent did the music make you feel ,ANGRY,30MonoWAV/30MonoT2.wav,2,1,4,14,,,,,0,3,3,13,0,7,7,2,,,,,,,,,1,0.9006086769950343,,,061,001,2019_May_27_1107,MusicAffectPsychophysiology2019,3.0.5,60.05074263735705,
To what extent did the music make you feel ,ASHAMED,30MonoWAV/30MonoT2.wav,2,1,4,14,,,,,0,3,3,13,0,8,8,4,,,,,,,,,1,1.1682073449992458,,,061,001,2019_May_27_1107,MusicAffectPsychophysiology2019,3.0.5,60.05074263735705,
To what extent did the music make you feel ,ALERT,30MonoWAV/30MonoT2.wav,2,1,4,14,,,,,0,3,3,13,0,9,9,8,,,,,,,,,2,1.69968327999959,,,061,001,2019_May_27_1107,MusicAffectPsychophysiology2019,3.0.5,60.05074263735705,
To what extent did the music make you feel ,HAPPY,30MonoWAV/30MonoT2.wav,2,1,4,14,,,,,0,3,3,13,0,10,10,6,,,,,,,,,1,0.8846671330029494,,,061,001,2019_May_27_1107,MusicAffectPsychophysiology2019,3.0.5,60.05074263735705,
To what extent did the music make you feel ,SAD,30MonoWAV/30MonoT2.wav,2,1,4,14,,,,,0,3,3,13,0,11,11,0,,,,,,,,,3,1.6355125420013792,,,061,001,2019_May_27_1107,MusicAffectPsychophysiology2019,3.0.5,60.05074263735705,
,,30MonoWAV/30MonoT2.wav,2,1,4,14,,,,,0,3,3,13,,,,,,,,,,,,,,,,,061,001,2019_May_27_1107,MusicAffectPsychophysiology2019,3.0.5,60.05074263735705,
To what extent did the music make you feel ,FRUSTRATED,30MonoWAV/30MonoF1.wav,1,2,2,1,,,,,0,4,4,0,0,0,0,3,,,2,2.9674437110006693,1,1.8176189310033806,1,1.8512950479998835,2,1.9994407370031695,,,061,001,2019_May_27_1107,MusicAffectPsychophysiology2019,3.0.5,60.05074263735705,
To what extent did the music make you feel ,ASHAMED,30MonoWAV/30MonoF1.wav,1,2,2,1,,,,,0,4,4,0,0,1,1,4,,,,,,,,,1,1.302165725006489,,,061,001,2019_May_27_1107,MusicAffectPsychophysiology2019,3.0.5,60.05074263735705,
To what extent did the music make you feel ,GUILTY,30MonoWAV/30MonoF1.wav,1,2,2,1,,,,,0,4,4,0,0,2,2,5,,,,,,,,,1,1.3014588890000596,,,061,001,2019_May_27_1107,MusicAffectPsychophysiology2019,3.0.5,60.05074263735705,
To what extent did the music make you feel ,SCARED,30MonoWAV/30MonoF1.wav,1,2,2,1,,,,,0,4,4,0,0,3,3,11,,,,,,,,,3,1.7846567920059897,,,061,001,2019_May_27_1107,MusicAffectPsychophysiology2019,3.0.5,60.05074263735705,
To what extent did the music make you feel ,ACTIVE,30MonoWAV/30MonoF1.wav,1,2,2,1,,,,,0,4,4,0,0,4,4,9,,,,,,,,,3,1.5181309430045076,,,061,001,2019_May_27_1107,MusicAffectPsychophysiology2019,3.0.5,60.05074263735705,
To what extent did the music make you feel ,SAD,30MonoWAV/30MonoF1.wav,1,2,2,1,,,,,0,4,4,0,0,5,5,0,,,,,,,,,2,1.4674585179964197,,,061,001,2019_May_27_1107,MusicAffectPsychophysiology2019,3.0.5,60.05074263735705,
To what extent did the music make you feel ,EXCITED,30MonoWAV/30MonoF1.wav,1,2,2,1,,,,,0,4,4,0,0,6,6,7,,,,,,,,,1,1.7337041209975723,,,061,001,2019_May_27_1107,MusicAffectPsychophysiology2019,3.0.5,60.05074263735705,
To what extent did the music make you feel ,ANXIOUS ,30MonoWAV/30MonoF1.wav,1,2,2,1,,,,,0,4,4,0,0,7,7,1,,,,,,,,,4,1.718172084998514,,,061,001,2019_May_27_1107,MusicAffectPsychophysiology2019,3.0.5,60.05074263735705,
To what extent did the music make you feel ,ALERT,30MonoWAV/30MonoF1.wav,1,2,2,1,,,,,0,4,4,0,0,8,8,8,,,,,,,,,3,1.7007947549936944,,,061,001,2019_May_27_1107,MusicAffectPsychophysiology2019,3.0.5,60.05074263735705,
To what extent did the music make you feel ,HAPPY,30MonoWAV/30MonoF1.wav,1,2,2,1,,,,,0,4,4,0,0,9,9,6,,,,,,,,,1,1.283396131999325,,,061,001,2019_May_27_1107,MusicAffectPsychophysiology2019,3.0.5,60.05074263735705,
To what extent did the music make you feel ,TENDER,30MonoWAV/30MonoF1.wav,1,2,2,1,,,,,0,4,4,0,0,10,10,10,,,,,,,,,2,1.0353584650001721,,,061,001,2019_May_27_1107,MusicAffectPsychophysiology2019,3.0.5,60.05074263735705,
To what extent did the music make you feel ,ANGRY,30MonoWAV/30MonoF1.wav,1,2,2,1,,,,,0,4,4,0,0,11,11,2,,,,,,,,,3,1.3853485369982081,,,061,001,2019_May_27_1107,MusicAffectPsychophysiology2019,3.0.5,60.05074263735705,
,,30MonoWAV/30MonoF1.wav,1,2,2,1,,,,,0,4,4,0,,,,,,,,,,,,,,,,,061,001,2019_May_27_1107,MusicAffectPsychophysiology2019,3.0.5,60.05074263735705,
To what extent did the music make you feel ,GUILTY,30MonoWAV/30MonoF3.wav,1,2,2,3,,,,,0,5,5,2,0,0,0,5,,,2,2.551529484000639,2,2.219282216996362,4,1.568364211001608,3,3.002509491001547,,,061,001,2019_May_27_1107,MusicAffectPsychophysiology2019,3.0.5,60.05074263735705,
To what extent did the music make you feel ,TENDER,30MonoWAV/30MonoF3.wav,1,2,2,3,,,,,0,5,5,2,0,1,1,10,,,,,,,,,3,1.1527309579978464,,,061,001,2019_May_27_1107,MusicAffectPsychophysiology2019,3.0.5,60.05074263735705,
To what extent did the music make you feel ,ACTIVE,30MonoWAV/30MonoF3.wav,1,2,2,3,,,,,0,5,5,2,0,2,2,9,,,,,,,,,2,1.9183856160016148,,,061,001,2019_May_27_1107,MusicAffectPsychophysiology2019,3.0.5,60.05074263735705,
To what extent did the music make you feel ,ANXIOUS ,30MonoWAV/30MonoF3.wav,1,2,2,3,,,,,0,5,5,2,0,3,3,1,,,,,,,,,4,1.4681674360035686,,,061,001,2019_May_27_1107,MusicAffectPsychophysiology2019,3.0.5,60.05074263735705,
To what extent did the music make you feel ,EXCITED,30MonoWAV/30MonoF3.wav,1,2,2,3,,,,,0,5,5,2,0,4,4,7,,,,,,,,,1,1.48490538400074,,,061,001,2019_May_27_1107,MusicAffectPsychophysiology2019,3.0.5,60.05074263735705,
To what extent did the music make you feel ,SCARED,30MonoWAV/30MonoF3.wav,1,2,2,3,,,,,0,5,5,2,0,5,5,11,,,,,,,,,4,1.5851353559992276,,,061,001,2019_May_27_1107,MusicAffectPsychophysiology2019,3.0.5,60.05074263735705,
To what extent did the music make you feel ,ANGRY,30MonoWAV/30MonoF3.wav,1,2,2,3,,,,,0,5,5,2,0,6,6,2,,,,,,,,,1,1.4516258709991234,,,061,001,2019_May_27_1107,MusicAffectPsychophysiology2019,3.0.5,60.05074263735705,
To what extent did the music make you feel ,SAD,30MonoWAV/30MonoF3.wav,1,2,2,3,,,,,0,5,5,2,0,7,7,0,,,,,,,,,2,1.4344195910016424,,,061,001,2019_May_27_1107,MusicAffectPsychophysiology2019,3.0.5,60.05074263735705,
To what extent did the music make you feel ,ALERT,30MonoWAV/30MonoF3.wav,1,2,2,3,,,,,0,5,5,2,0,8,8,8,,,,,,,,,3,1.8013133109998307,,,061,001,2019_May_27_1107,MusicAffectPsychophysiology2019,3.0.5,60.05074263735705,
To what extent did the music make you feel ,FRUSTRATED,30MonoWAV/30MonoF3.wav,1,2,2,3,,,,,0,5,5,2,0,9,9,3,,,,,,,,,2,1.8516549760024645,,,061,001,2019_May_27_1107,MusicAffectPsychophysiology2019,3.0.5,60.05074263735705,
To what extent did the music make you feel ,ASHAMED,30MonoWAV/30MonoF3.wav,1,2,2,3,,,,,0,5,5,2,0,10,10,4,,,,,,,,,3,1.2849848120022216,,,061,001,2019_May_27_1107,MusicAffectPsychophysiology2019,3.0.5,60.05074263735705,
To what extent did the music make you feel ,HAPPY,30MonoWAV/30MonoF3.wav,1,2,2,3,,,,,0,5,5,2,0,11,11,6,,,,,,,,,1,1.2997729280032218,,,061,001,2019_May_27_1107,MusicAffectPsychophysiology2019,3.0.5,60.05074263735705,
,,30MonoWAV/30MonoF3.wav,1,2,2,3,,,,,0,5,5,2,,,,,,,,,,,,,,,,,061,001,2019_May_27_1107,MusicAffectPsychophysiology2019,3.0.5,60.05074263735705,
To what extent did the music make you feel ,ANGRY,30MonoWAV/30MonoH3.wav,2,2,1,7,,,,,0,6,6,6,0,0,0,2,,,4,2.8510276619999786,4,1.9846216910009389,2,1.351429663001909,1,1.3190782189994934,,,061,001,2019_May_27_1107,MusicAffectPsychophysiology2019,3.0.5,60.05074263735705,
To what extent did the music make you feel ,SAD,30MonoWAV/30MonoH3.wav,2,2,1,7,,,,,0,6,6,6,0,1,1,0,,,,,,,,,2,1.6691184849987621,,,061,001,2019_May_27_1107,MusicAffectPsychophysiology2019,3.0.5,60.05074263735705,
To what extent did the music make you feel ,GUILTY,30MonoWAV/30MonoH3.wav,2,2,1,7,,,,,0,6,6,6,0,2,2,5,,,,,,,,,1,1.2179690780030796,,,061,001,2019_May_27_1107,MusicAffectPsychophysiology2019,3.0.5,60.05074263735705,
To what extent did the music make you feel ,TENDER,30MonoWAV/30MonoH3.wav,2,2,1,7,,,,,0,6,6,6,0,3,3,10,,,,,,,,,2,1.0686319660017034,,,061,001,2019_May_27_1107,MusicAffectPsychophysiology2019,3.0.5,60.05074263735705,
To what extent did the music make you feel ,ACTIVE,30MonoWAV/30MonoH3.wav,2,2,1,7,,,,,0,6,6,6,0,4,4,9,,,,,,,,,3,2.451455236005131,,,061,001,2019_May_27_1107,MusicAffectPsychophysiology2019,3.0.5,60.05074263735705,
To what extent did the music make you feel ,FRUSTRATED,30MonoWAV/30MonoH3.wav,2,2,1,7,,,,,0,6,6,6,0,5,5,3,,,,,,,,,1,1.2515556549988105,,,061,001,2019_May_27_1107,MusicAffectPsychophysiology2019,3.0.5,60.05074263735705,
To what extent did the music make you feel ,ANXIOUS ,30MonoWAV/30MonoH3.wav,2,2,1,7,,,,,0,6,6,6,0,6,6,1,,,,,,,,,2,1.102549672999885,,,061,001,2019_May_27_1107,MusicAffectPsychophysiology2019,3.0.5,60.05074263735705,
To what extent did the music make you feel ,HAPPY,30MonoWAV/30MonoH3.wav,2,2,1,7,,,,,0,6,6,6,0,7,7,6,,,,,,,,,4,1.7349691449999227,,,061,001,2019_May_27_1107,MusicAffectPsychophysiology2019,3.0.5,60.05074263735705,
To what extent did the music make you feel ,ALERT,30MonoWAV/30MonoH3.wav,2,2,1,7,,,,,0,6,6,6,0,8,8,8,,,,,,,,,4,1.251485282999056,,,061,001,2019_May_27_1107,MusicAffectPsychophysiology2019,3.0.5,60.05074263735705,
To what extent did the music make you feel ,EXCITED,30MonoWAV/30MonoH3.wav,2,2,1,7,,,,,0,6,6,6,0,9,9,7,,,,,,,,,5,1.3841944960004184,,,061,001,2019_May_27_1107,MusicAffectPsychophysiology2019,3.0.5,60.05074263735705,
To what extent did the music make you feel ,SCARED,30MonoWAV/30MonoH3.wav,2,2,1,7,,,,,0,6,6,6,0,10,10,11,,,,,,,,,2,1.3848840100035886,,,061,001,2019_May_27_1107,MusicAffectPsychophysiology2019,3.0.5,60.05074263735705,
To what extent did the music make you feel ,ASHAMED,30MonoWAV/30MonoH3.wav,2,2,1,7,,,,,0,6,6,6,0,11,11,4,,,,,,,,,1,1.0677112819976173,,,061,001,2019_May_27_1107,MusicAffectPsychophysiology2019,3.0.5,60.05074263735705,
,,30MonoWAV/30MonoH3.wav,2,2,1,7,,,,,0,6,6,6,,,,,,,,,,,,,,,,,061,001,2019_May_27_1107,MusicAffectPsychophysiology2019,3.0.5,60.05074263735705,
To what extent did the music make you feel ,SAD,30MonoWAV/30MonoT3.wav,2,1,4,15,,,,,0,7,7,14,0,0,0,0,,,3,3.034634928997548,2,2.1189512880009715,4,1.334592879997217,3,1.985624123000889,,,061,001,2019_May_27_1107,MusicAffectPsychophysiology2019,3.0.5,60.05074263735705,
To what extent did the music make you feel ,ACTIVE,30MonoWAV/30MonoT3.wav,2,1,4,15,,,,,0,7,7,14,0,1,1,9,,,,,,,,,2,1.384984586002247,,,061,001,2019_May_27_1107,MusicAffectPsychophysiology2019,3.0.5,60.05074263735705,
To what extent did the music make you feel ,EXCITED,30MonoWAV/30MonoT3.wav,2,1,4,15,,,,,0,7,7,14,0,2,2,7,,,,,,,,,1,1.4849115680044633,,,061,001,2019_May_27_1107,MusicAffectPsychophysiology2019,3.0.5,60.05074263735705,
To what extent did the music make you feel ,ANXIOUS ,30MonoWAV/30MonoT3.wav,2,1,4,15,,,,,0,7,7,14,0,3,3,1,,,,,,,,,3,1.350126358003763,,,061,001,2019_May_27_1107,MusicAffectPsychophysiology2019,3.0.5,60.05074263735705,
To what extent did the music make you feel ,ANGRY,30MonoWAV/30MonoT3.wav,2,1,4,15,,,,,0,7,7,14,0,4,4,2,,,,,,,,,1,1.0861707189978915,,,061,001,2019_May_27_1107,MusicAffectPsychophysiology2019,3.0.5,60.05074263735705,
To what extent did the music make you feel ,FRUSTRATED,30MonoWAV/30MonoT3.wav,2,1,4,15,,,,,0,7,7,14,0,5,5,3,,,,,,,,,1,1.301447002995701,,,061,001,2019_May_27_1107,MusicAffectPsychophysiology2019,3.0.5,60.05074263735705,
To what extent did the music make you feel ,SCARED,30MonoWAV/30MonoT3.wav,2,1,4,15,,,,,0,7,7,14,0,6,6,11,,,,,,,,,3,1.1683208699978422,,,061,001,2019_May_27_1107,MusicAffectPsychophysiology2019,3.0.5,60.05074263735705,
To what extent did the music make you feel ,GUILTY,30MonoWAV/30MonoT3.wav,2,1,4,15,,,,,0,7,7,14,0,7,7,5,,,,,,,,,2,1.4006019400039804,,,061,001,2019_May_27_1107,MusicAffectPsychophysiology2019,3.0.5,60.05074263735705,
To what extent did the music make you feel ,ALERT,30MonoWAV/30MonoT3.wav,2,1,4,15,,,,,0,7,7,14,0,8,8,8,,,,,,,,,2,1.5518812329974025,,,061,001,2019_May_27_1107,MusicAffectPsychophysiology2019,3.0.5,60.05074263735705,
To what extent did the music make you feel ,TENDER,30MonoWAV/30MonoT3.wav,2,1,4,15,,,,,0,7,7,14,0,9,9,10,,,,,,,,,3,1.3353968619994703,,,061,001,2019_May_27_1107,MusicAffectPsychophysiology2019,3.0.5,60.05074263735705,
To what extent did the music make you feel ,HAPPY,30MonoWAV/30MonoT3.wav,2,1,4,15,,,,,0,7,7,14,0,10,10,6,,,,,,,,,2,2.317382044995611,,,061,001,2019_May_27_1107,MusicAffectPsychophysiology2019,3.0.5,60.05074263735705,
To what extent did the music make you feel ,ASHAMED,30MonoWAV/30MonoT3.wav,2,1,4,15,,,,,0,7,7,14,0,11,11,4,,,,,,,,,1,1.084706121000636,,,061,001,2019_May_27_1107,MusicAffectPsychophysiology2019,3.0.5,60.05074263735705,
,,30MonoWAV/30MonoT3.wav,2,1,4,15,,,,,0,7,7,14,,,,,,,,,,,,,,,,,061,001,2019_May_27_1107,MusicAffectPsychophysiology2019,3.0.5,60.05074263735705,
To what extent did the music make you feel ,FRUSTRATED,30MonoWAV/30MonoF2.wav,1,2,2,2,,,,,0,8,8,1,0,0,0,3,,,2,3.8521681269994588,1,1.2683368960060761,1,1.6348691650055116,1,2.0503195529963705,,,061,001,2019_May_27_1107,MusicAffectPsychophysiology2019,3.0.5,60.05074263735705,
To what extent did the music make you feel ,GUILTY,30MonoWAV/30MonoF2.wav,1,2,2,2,,,,,0,8,8,1,0,1,1,5,,,,,,,,,3,1.684962742998323,,,061,001,2019_May_27_1107,MusicAffectPsychophysiology2019,3.0.5,60.05074263735705,
To what extent did the music make you feel ,SAD,30MonoWAV/30MonoF2.wav,1,2,2,2,,,,,0,8,8,1,0,2,2,0,,,,,,,,,4,1.8678237299973262,,,061,001,2019_May_27_1107,MusicAffectPsychophysiology2019,3.0.5,60.05074263735705,
To what extent did the music make you feel ,EXCITED,30MonoWAV/30MonoF2.wav,1,2,2,2,,,,,0,8,8,1,0,3,3,7,,,,,,,,,2,1.6682647709967569,,,061,001,2019_May_27_1107,MusicAffectPsychophysiology2019,3.0.5,60.05074263735705,
To what extent did the music make you feel ,ANGRY,30MonoWAV/30MonoF2.wav,1,2,2,2,,,,,0,8,8,1,0,4,4,2,,,,,,,,,1,1.1855825049933628,,,061,001,2019_May_27_1107,MusicAffectPsychophysiology2019,3.0.5,60.05074263735705,
To what extent did the music make you feel ,TENDER,30MonoWAV/30MonoF2.wav,1,2,2,2,,,,,0,8,8,1,0,5,5,10,,,,,,,,,3,1.53584384900023,,,061,001,2019_May_27_1107,MusicAffectPsychophysiology2019,3.0.5,60.05074263735705,
To what extent did the music make you feel ,ACTIVE,30MonoWAV/30MonoF2.wav,1,2,2,2,,,,,0,8,8,1,0,6,6,9,,,,,,,,,4,1.3014837259979686,,,061,001,2019_May_27_1107,MusicAffectPsychophysiology2019,3.0.5,60.05074263735705,
To what extent did the music make you feel ,ALERT,30MonoWAV/30MonoF2.wav,1,2,2,2,,,,,0,8,8,1,0,7,7,8,,,,,,,,,5,1.3518951910009491,,,061,001,2019_May_27_1107,MusicAffectPsychophysiology2019,3.0.5,60.05074263735705,
To what extent did the music make you feel ,ASHAMED,30MonoWAV/30MonoF2.wav,1,2,2,2,,,,,0,8,8,1,0,8,8,4,,,,,,,,,1,1.5349549890015624,,,061,001,2019_May_27_1107,MusicAffectPsychophysiology2019,3.0.5,60.05074263735705,
To what extent did the music make you feel ,SCARED,30MonoWAV/30MonoF2.wav,1,2,2,2,,,,,0,8,8,1,0,9,9,11,,,,,,,,,5,1.5347236289962893,,,061,001,2019_May_27_1107,MusicAffectPsychophysiology2019,3.0.5,60.05074263735705,
To what extent did the music make you feel ,ANXIOUS ,30MonoWAV/30MonoF2.wav,1,2,2,2,,,,,0,8,8,1,0,10,10,1,,,,,,,,,5,1.1349226589954924,,,061,001,2019_May_27_1107,MusicAffectPsychophysiology2019,3.0.5,60.05074263735705,
To what extent did the music make you feel ,HAPPY,30MonoWAV/30MonoF2.wav,1,2,2,2,,,,,0,8,8,1,0,11,11,6,,,,,,,,,1,1.2350926090002758,,,061,001,2019_May_27_1107,MusicAffectPsychophysiology2019,3.0.5,60.05074263735705,
,,30MonoWAV/30MonoF2.wav,1,2,2,2,,,,,0,8,8,1,,,,,,,,,,,,,,,,,061,001,2019_May_27_1107,MusicAffectPsychophysiology2019,3.0.5,60.05074263735705,
To what extent did the music make you feel ,ALERT,30MonoWAV/30MonoT1.wav,2,1,4,13,,,,,0,9,9,12,0,0,0,8,,,2,2.3523830710037146,3,2.0347002019989304,4,1.385608302000037,2,2.335293306001404,,,061,001,2019_May_27_1107,MusicAffectPsychophysiology2019,3.0.5,60.05074263735705,
To what extent did the music make you feel ,ANGRY,30MonoWAV/30MonoT1.wav,2,1,4,13,,,,,0,9,9,12,0,1,1,2,,,,,,,,,1,0.8842654609979945,,,061,001,2019_May_27_1107,MusicAffectPsychophysiology2019,3.0.5,60.05074263735705,
To what extent did the music make you feel ,SAD,30MonoWAV/30MonoT1.wav,2,1,4,13,,,,,0,9,9,12,0,2,2,0,,,,,,,,,2,1.3000884639986907,,,061,001,2019_May_27_1107,MusicAffectPsychophysiology2019,3.0.5,60.05074263735705,
To what extent did the music make you feel ,TENDER,30MonoWAV/30MonoT1.wav,2,1,4,13,,,,,0,9,9,12,0,3,3,10,,,,,,,,,3,1.5200095230029547,,,061,001,2019_May_27_1107,MusicAffectPsychophysiology2019,3.0.5,60.05074263735705,
To what extent did the music make you feel ,GUILTY,30MonoWAV/30MonoT1.wav,2,1,4,13,,,,,0,9,9,12,0,4,4,5,,,,,,,,,1,1.5184350620038458,,,061,001,2019_May_27_1107,MusicAffectPsychophysiology2019,3.0.5,60.05074263735705,
To what extent did the music make you feel ,FRUSTRATED,30MonoWAV/30MonoT1.wav,2,1,4,13,,,,,0,9,9,12,0,5,5,3,,,,,,,,,1,0.8852499880013056,,,061,001,2019_May_27_1107,MusicAffectPsychophysiology2019,3.0.5,60.05074263735705,
To what extent did the music make you feel ,HAPPY,30MonoWAV/30MonoT1.wav,2,1,4,13,,,,,0,9,9,12,0,6,6,6,,,,,,,,,2,1.4514449319976848,,,061,001,2019_May_27_1107,MusicAffectPsychophysiology2019,3.0.5,60.05074263735705,
To what extent did the music make you feel ,ACTIVE,30MonoWAV/30MonoT1.wav,2,1,4,13,,,,,0,9,9,12,0,7,7,9,,,,,,,,,1,1.4522437370033003,,,061,001,2019_May_27_1107,MusicAffectPsychophysiology2019,3.0.5,60.05074263735705,
To what extent did the music make you feel ,EXCITED,30MonoWAV/30MonoT1.wav,2,1,4,13,,,,,0,9,9,12,0,8,8,7,,,,,,,,,2,1.6512738509991323,,,061,001,2019_May_27_1107,MusicAffectPsychophysiology2019,3.0.5,60.05074263735705,
To what extent did the music make you feel ,SCARED,30MonoWAV/30MonoT1.wav,2,1,4,13,,,,,0,9,9,12,0,9,9,11,,,,,,,,,2,1.5350457599997753,,,061,001,2019_May_27_1107,MusicAffectPsychophysiology2019,3.0.5,60.05074263735705,
To what extent did the music make you feel ,ANXIOUS ,30MonoWAV/30MonoT1.wav,2,1,4,13,,,,,0,9,9,12,0,10,10,1,,,,,,,,,2,1.6014321830007248,,,061,001,2019_May_27_1107,MusicAffectPsychophysiology2019,3.0.5,60.05074263735705,
To what extent did the music make you feel ,ASHAMED,30MonoWAV/30MonoT1.wav,2,1,4,13,,,,,0,9,9,12,0,11,11,4,,,,,,,,,1,1.4516639339999529,,,061,001,2019_May_27_1107,MusicAffectPsychophysiology2019,3.0.5,60.05074263735705,
,,30MonoWAV/30MonoT1.wav,2,1,4,13,,,,,0,9,9,12,,,,,,,,,,,,,,,,,061,001,2019_May_27_1107,MusicAffectPsychophysiology2019,3.0.5,60.05074263735705,
To what extent did the music make you feel ,TENDER,30MonoWAV/30MonoS1.wav,1,1,3,9,,,,,0,10,10,8,0,0,0,10,,,1,2.0846383579992107,1,1.7017540799934068,4,1.2510270739949192,4,1.7513457039967761,,,061,001,2019_May_27_1107,MusicAffectPsychophysiology2019,3.0.5,60.05074263735705,
To what extent did the music make you feel ,GUILTY,30MonoWAV/30MonoS1.wav,1,1,3,9,,,,,0,10,10,8,0,1,1,5,,,,,,,,,3,2.1852485109993722,,,061,001,2019_May_27_1107,MusicAffectPsychophysiology2019,3.0.5,60.05074263735705,
To what extent did the music make you feel ,ALERT,30MonoWAV/30MonoS1.wav,1,1,3,9,,,,,0,10,10,8,0,2,2,8,,,,,,,,,1,1.316680367999652,,,061,001,2019_May_27_1107,MusicAffectPsychophysiology2019,3.0.5,60.05074263735705,
To what extent did the music make you feel ,EXCITED,30MonoWAV/30MonoS1.wav,1,1,3,9,,,,,0,10,10,8,0,3,3,7,,,,,,,,,1,1.0354108809988247,,,061,001,2019_May_27_1107,MusicAffectPsychophysiology2019,3.0.5,60.05074263735705,
To what extent did the music make you feel ,HAPPY,30MonoWAV/30MonoS1.wav,1,1,3,9,,,,,0,10,10,8,0,4,4,6,,,,,,,,,1,0.951636249999865,,,061,001,2019_May_27_1107,MusicAffectPsychophysiology2019,3.0.5,60.05074263735705,
To what extent did the music make you feel ,SAD,30MonoWAV/30MonoS1.wav,1,1,3,9,,,,,0,10,10,8,0,5,5,0,,,,,,,,,4,1.4356523570022546,,,061,001,2019_May_27_1107,MusicAffectPsychophysiology2019,3.0.5,60.05074263735705,
To what extent did the music make you feel ,SCARED,30MonoWAV/30MonoS1.wav,1,1,3,9,,,,,0,10,10,8,0,6,6,11,,,,,,,,,2,2.367236727004638,,,061,001,2019_May_27_1107,MusicAffectPsychophysiology2019,3.0.5,60.05074263735705,
To what extent did the music make you feel ,ANGRY,30MonoWAV/30MonoS1.wav,1,1,3,9,,,,,0,10,10,8,0,7,7,2,,,,,,,,,1,1.118254593005986,,,061,001,2019_May_27_1107,MusicAffectPsychophysiology2019,3.0.5,60.05074263735705,
To what extent did the music make you feel ,ANXIOUS ,30MonoWAV/30MonoS1.wav,1,1,3,9,,,,,0,10,10,8,0,8,8,1,,,,,,,,,3,1.2011503060057294,,,061,001,2019_May_27_1107,MusicAffectPsychophysiology2019,3.0.5,60.05074263735705,
To what extent did the music make you feel ,ASHAMED,30MonoWAV/30MonoS1.wav,1,1,3,9,,,,,0,10,10,8,0,9,9,4,,,,,,,,,2,1.0845191510015866,,,061,001,2019_May_27_1107,MusicAffectPsychophysiology2019,3.0.5,60.05074263735705,
To what extent did the music make you feel ,FRUSTRATED,30MonoWAV/30MonoS1.wav,1,1,3,9,,,,,0,10,10,8,0,10,10,3,,,,,,,,,1,0.9511857409961522,,,061,001,2019_May_27_1107,MusicAffectPsychophysiology2019,3.0.5,60.05074263735705,
To what extent did the music make you feel ,ACTIVE,30MonoWAV/30MonoS1.wav,1,1,3,9,,,,,0,10,10,8,0,11,11,9,,,,,,,,,1,1.03499277800438,,,061,001,2019_May_27_1107,MusicAffectPsychophysiology2019,3.0.5,60.05074263735705,
,,30MonoWAV/30MonoS1.wav,1,1,3,9,,,,,0,10,10,8,,,,,,,,,,,,,,,,,061,001,2019_May_27_1107,MusicAffectPsychophysiology2019,3.0.5,60.05074263735705,
To what extent did the music make you feel ,SAD,30MonoWAV/30MonoS3.wav,1,1,3,11,,,,,0,11,11,10,0,0,0,0,,,1,2.7509757119987626,1,1.08498365500418,2,1.9348385710036382,5,1.8855972710007336,,,061,001,2019_May_27_1107,MusicAffectPsychophysiology2019,3.0.5,60.05074263735705,
To what extent did the music make you feel ,ALERT,30MonoWAV/30MonoS3.wav,1,1,3,11,,,,,0,11,11,10,0,1,1,8,,,,,,,,,1,1.4854055379983038,,,061,001,2019_May_27_1107,MusicAffectPsychophysiology2019,3.0.5,60.05074263735705,
To what extent did the music make you feel ,ANGRY,30MonoWAV/30MonoS3.wav,1,1,3,11,,,,,0,11,11,10,0,2,2,2,,,,,,,,,1,0.9515307269975892,,,061,001,2019_May_27_1107,MusicAffectPsychophysiology2019,3.0.5,60.05074263735705,
To what extent did the music make you feel ,GUILTY,30MonoWAV/30MonoS3.wav,1,1,3,11,,,,,0,11,11,10,0,3,3,5,,,,,,,,,3,1.1524671750012203,,,061,001,2019_May_27_1107,MusicAffectPsychophysiology2019,3.0.5,60.05074263735705,
To what extent did the music make you feel ,FRUSTRATED,30MonoWAV/30MonoS3.wav,1,1,3,11,,,,,0,11,11,10,0,4,4,3,,,,,,,,,1,1.7185301709978376,,,061,001,2019_May_27_1107,MusicAffectPsychophysiology2019,3.0.5,60.05074263735705,
To what extent did the music make you feel ,EXCITED,30MonoWAV/30MonoS3.wav,1,1,3,11,,,,,0,11,11,10,0,5,5,7,,,,,,,,,1,1.6024490510026226,,,061,001,2019_May_27_1107,MusicAffectPsychophysiology2019,3.0.5,60.05074263735705,
To what extent did the music make you feel ,TENDER,30MonoWAV/30MonoS3.wav,1,1,3,11,,,,,0,11,11,10,0,6,6,10,,,,,,,,,3,1.051114558998961,,,061,001,2019_May_27_1107,MusicAffectPsychophysiology2019,3.0.5,60.05074263735705,
To what extent did the music make you feel ,ACTIVE,30MonoWAV/30MonoS3.wav,1,1,3,11,,,,,0,11,11,10,0,7,7,9,,,,,,,,,1,1.1017002340013278,,,061,001,2019_May_27_1107,MusicAffectPsychophysiology2019,3.0.5,60.05074263735705,
To what extent did the music make you feel ,ANXIOUS ,30MonoWAV/30MonoS3.wav,1,1,3,11,,,,,0,11,11,10,0,8,8,1,,,,,,,,,4,1.4342636010042042,,,061,001,2019_May_27_1107,MusicAffectPsychophysiology2019,3.0.5,60.05074263735705,
To what extent did the music make you feel ,HAPPY,30MonoWAV/30MonoS3.wav,1,1,3,11,,,,,0,11,11,10,0,9,9,6,,,,,,,,,1,1.0174832409975352,,,061,001,2019_May_27_1107,MusicAffectPsychophysiology2019,3.0.5,60.05074263735705,
To what extent did the music make you feel ,ASHAMED,30MonoWAV/30MonoS3.wav,1,1,3,11,,,,,0,11,11,10,0,10,10,4,,,,,,,,,3,1.2685378280002624,,,061,001,2019_May_27_1107,MusicAffectPsychophysiology2019,3.0.5,60.05074263735705,
To what extent did the music make you feel ,SCARED,30MonoWAV/30MonoS3.wav,1,1,3,11,,,,,0,11,11,10,0,11,11,11,,,,,,,,,4,1.584810424996249,,,061,001,2019_May_27_1107,MusicAffectPsychophysiology2019,3.0.5,60.05074263735705,
,,30MonoWAV/30MonoS3.wav,1,1,3,11,,,,,0,11,11,10,,,,,,,,,,,,,,,,,061,001,2019_May_27_1107,MusicAffectPsychophysiology2019,3.0.5,60.05074263735705,
To what extent did the music make you feel ,TENDER,30MonoWAV/30MonoH2.wav,2,2,1,6,,,,,0,12,12,5,0,0,0,10,,,4,2.2354392139968695,4,1.2857704639973235,2,1.1184804199947393,1,1.3668409380043158,,,061,001,2019_May_27_1107,MusicAffectPsychophysiology2019,3.0.5,60.05074263735705,
To what extent did the music make you feel ,ANXIOUS ,30MonoWAV/30MonoH2.wav,2,2,1,6,,,,,0,12,12,5,0,1,1,1,,,,,,,,,1,0.7186903179972433,,,061,001,2019_May_27_1107,MusicAffectPsychophysiology2019,3.0.5,60.05074263735705,
To what extent did the music make you feel ,ALERT,30MonoWAV/30MonoH2.wav,2,2,1,6,,,,,0,12,12,5,0,2,2,8,,,,,,,,,4,1.6684287899988703,,,061,001,2019_May_27_1107,MusicAffectPsychophysiology2019,3.0.5,60.05074263735705,
To what extent did the music make you feel ,ASHAMED,30MonoWAV/30MonoH2.wav,2,2,1,6,,,,,0,12,12,5,0,3,3,4,,,,,,,,,1,0.9350286459957715,,,061,001,2019_May_27_1107,MusicAffectPsychophysiology2019,3.0.5,60.05074263735705,
To what extent did the music make you feel ,FRUSTRATED,30MonoWAV/30MonoH2.wav,2,2,1,6,,,,,0,12,12,5,0,4,4,3,,,,,,,,,1,1.0692562440017355,,,061,001,2019_May_27_1107,MusicAffectPsychophysiology2019,3.0.5,60.05074263735705,
To what extent did the music make you feel ,ANGRY,30MonoWAV/30MonoH2.wav,2,2,1,6,,,,,0,12,12,5,0,5,5,2,,,,,,,,,1,0.48509059099887963,,,061,001,2019_May_27_1107,MusicAffectPsychophysiology2019,3.0.5,60.05074263735705,
To what extent did the music make you feel ,GUILTY,30MonoWAV/30MonoH2.wav,2,2,1,6,,,,,0,12,12,5,0,6,6,5,,,,,,,,,1,0.7521171159969526,,,061,001,2019_May_27_1107,MusicAffectPsychophysiology2019,3.0.5,60.05074263735705,
To what extent did the music make you feel ,SCARED,30MonoWAV/30MonoH2.wav,2,2,1,6,,,,,0,12,12,5,0,7,7,11,,,,,,,,,1,1.5672010619964567,,,061,001,2019_May_27_1107,MusicAffectPsychophysiology2019,3.0.5,60.05074263735705,
To what extent did the music make you feel ,HAPPY,30MonoWAV/30MonoH2.wav,2,2,1,6,,,,,0,12,12,5,0,8,8,6,,,,,,,,,4,1.5199069189984584,,,061,001,2019_May_27_1107,MusicAffectPsychophysiology2019,3.0.5,60.05074263735705,
To what extent did the music make you feel ,EXCITED,30MonoWAV/30MonoH2.wav,2,2,1,6,,,,,0,12,12,5,0,9,9,7,,,,,,,,,4,1.1007286839958397,,,061,001,2019_May_27_1107,MusicAffectPsychophysiology2019,3.0.5,60.05074263735705,
To what extent did the music make you feel ,SAD,30MonoWAV/30MonoH2.wav,2,2,1,6,,,,,0,12,12,5,0,10,10,0,,,,,,,,,1,1.1024592999965535,,,061,001,2019_May_27_1107,MusicAffectPsychophysiology2019,3.0.5,60.05074263735705,
To what extent did the music make you feel ,ACTIVE,30MonoWAV/30MonoH2.wav,2,2,1,6,,,,,0,12,12,5,0,11,11,9,,,,,,,,,4,1.1352601339967805,,,061,001,2019_May_27_1107,MusicAffectPsychophysiology2019,3.0.5,60.05074263735705,
,,30MonoWAV/30MonoH2.wav,2,2,1,6,,,,,0,12,12,5,,,,,,,,,,,,,,,,,061,001,2019_May_27_1107,MusicAffectPsychophysiology2019,3.0.5,60.05074263735705,
To what extent did the music make you feel ,FRUSTRATED,30MonoWAV/30MonoS2.wav,1,1,3,10,,,,,0,13,13,9,0,0,0,3,,,1,2.3189551570030744,1,3.8007236789999297,3,1.3856839660002152,1,1.9487819120040513,,,061,001,2019_May_27_1107,MusicAffectPsychophysiology2019,3.0.5,60.05074263735705,
To what extent did the music make you feel ,ANGRY,30MonoWAV/30MonoS2.wav,1,1,3,10,,,,,0,13,13,9,0,1,1,2,,,,,,,,,1,1.03510219900636,,,061,001,2019_May_27_1107,MusicAffectPsychophysiology2019,3.0.5,60.05074263735705,
To what extent did the music make you feel ,ASHAMED,30MonoWAV/30MonoS2.wav,1,1,3,10,,,,,0,13,13,9,0,2,2,4,,,,,,,,,3,1.7349416029974236,,,061,001,2019_May_27_1107,MusicAffectPsychophysiology2019,3.0.5,60.05074263735705,
To what extent did the music make you feel ,GUILTY,30MonoWAV/30MonoS2.wav,1,1,3,10,,,,,0,13,13,9,0,3,3,5,,,,,,,,,3,1.034447995996743,,,061,001,2019_May_27_1107,MusicAffectPsychophysiology2019,3.0.5,60.05074263735705,
To what extent did the music make you feel ,ANXIOUS ,30MonoWAV/30MonoS2.wav,1,1,3,10,,,,,0,13,13,9,0,4,4,1,,,,,,,,,4,1.4493514420028077,,,061,001,2019_May_27_1107,MusicAffectPsychophysiology2019,3.0.5,60.05074263735705,
To what extent did the music make you feel ,HAPPY,30MonoWAV/30MonoS2.wav,1,1,3,10,,,,,0,13,13,9,0,5,5,6,,,,,,,,,1,1.3016497919961694,,,061,001,2019_May_27_1107,MusicAffectPsychophysiology2019,3.0.5,60.05074263735705,
To what extent did the music make you feel ,EXCITED,30MonoWAV/30MonoS2.wav,1,1,3,10,,,,,0,13,13,9,0,6,6,7,,,,,,,,,1,0.9524823340034345,,,061,001,2019_May_27_1107,MusicAffectPsychophysiology2019,3.0.5,60.05074263735705,
To what extent did the music make you feel ,TENDER,30MonoWAV/30MonoS2.wav,1,1,3,10,,,,,0,13,13,9,0,7,7,10,,,,,,,,,3,1.1661750100029167,,,061,001,2019_May_27_1107,MusicAffectPsychophysiology2019,3.0.5,60.05074263735705,
To what extent did the music make you feel ,ACTIVE,30MonoWAV/30MonoS2.wav,1,1,3,10,,,,,0,13,13,9,0,8,8,9,,,,,,,,,1,1.9185625150057604,,,061,001,2019_May_27_1107,MusicAffectPsychophysiology2019,3.0.5,60.05074263735705,
To what extent did the music make you feel ,SCARED,30MonoWAV/30MonoS2.wav,1,1,3,10,,,,,0,13,13,9,0,9,9,11,,,,,,,,,4,1.301925175001088,,,061,001,2019_May_27_1107,MusicAffectPsychophysiology2019,3.0.5,60.05074263735705,
To what extent did the music make you feel ,SAD,30MonoWAV/30MonoS2.wav,1,1,3,10,,,,,0,13,13,9,0,10,10,0,,,,,,,,,4,1.001070101003279,,,061,001,2019_May_27_1107,MusicAffectPsychophysiology2019,3.0.5,60.05074263735705,
To what extent did the music make you feel ,ALERT,30MonoWAV/30MonoS2.wav,1,1,3,10,,,,,0,13,13,9,0,11,11,8,,,,,,,,,2,1.4680531339981826,,,061,001,2019_May_27_1107,MusicAffectPsychophysiology2019,3.0.5,60.05074263735705,
,,30MonoWAV/30MonoS2.wav,1,1,3,10,,,,,0,13,13,9,,,,,,,,,,,,,,,,,061,001,2019_May_27_1107,MusicAffectPsychophysiology2019,3.0.5,60.05074263735705,
To what extent did the music make you feel ,GUILTY,30MonoWAV/30MonoF4.wav,1,2,2,4,,,,,0,14,14,3,0,0,0,5,,,5,2.0686175849987194,3,1.5174468879995402,2,1.367388521997782,1,2.1347396520068287,,,061,001,2019_May_27_1107,MusicAffectPsychophysiology2019,3.0.5,60.05074263735705,
To what extent did the music make you feel ,ASHAMED,30MonoWAV/30MonoF4.wav,1,2,2,4,,,,,0,14,14,3,0,1,1,4,,,,,,,,,1,0.8016881189978449,,,061,001,2019_May_27_1107,MusicAffectPsychophysiology2019,3.0.5,60.05074263735705,
To what extent did the music make you feel ,HAPPY,30MonoWAV/30MonoF4.wav,1,2,2,4,,,,,0,14,14,3,0,2,2,6,,,,,,,,,3,1.351238237999496,,,061,001,2019_May_27_1107,MusicAffectPsychophysiology2019,3.0.5,60.05074263735705,
To what extent did the music make you feel ,FRUSTRATED,30MonoWAV/30MonoF4.wav,1,2,2,4,,,,,0,14,14,3,0,3,3,3,,,,,,,,,1,1.7509989039972425,,,061,001,2019_May_27_1107,MusicAffectPsychophysiology2019,3.0.5,60.05074263735705,
To what extent did the music make you feel ,ANXIOUS ,30MonoWAV/30MonoF4.wav,1,2,2,4,,,,,0,14,14,3,0,4,4,1,,,,,,,,,2,1.0351355349994265,,,061,001,2019_May_27_1107,MusicAffectPsychophysiology2019,3.0.5,60.05074263735705,
To what extent did the music make you feel ,ANGRY,30MonoWAV/30MonoF4.wav,1,2,2,4,,,,,0,14,14,3,0,5,5,2,,,,,,,,,1,1.418686078999599,,,061,001,2019_May_27_1107,MusicAffectPsychophysiology2019,3.0.5,60.05074263735705,
To what extent did the music make you feel ,EXCITED,30MonoWAV/30MonoF4.wav,1,2,2,4,,,,,0,14,14,3,0,6,6,7,,,,,,,,,3,1.234596785994654,,,061,001,2019_May_27_1107,MusicAffectPsychophysiology2019,3.0.5,60.05074263735705,
To what extent did the music make you feel ,ACTIVE,30MonoWAV/30MonoF4.wav,1,2,2,4,,,,,0,14,14,3,0,7,7,9,,,,,,,,,4,1.2018620489980094,,,061,001,2019_May_27_1107,MusicAffectPsychophysiology2019,3.0.5,60.05074263735705,
To what extent did the music make you feel ,SCARED,30MonoWAV/30MonoF4.wav,1,2,2,4,,,,,0,14,14,3,0,8,8,11,,,,,,,,,2,1.2673578630056,,,061,001,2019_May_27_1107,MusicAffectPsychophysiology2019,3.0.5,60.05074263735705,
To what extent did the music make you feel ,ALERT,30MonoWAV/30MonoF4.wav,1,2,2,4,,,,,0,14,14,3,0,9,9,8,,,,,,,,,5,1.5019588730065152,,,061,001,2019_May_27_1107,MusicAffectPsychophysiology2019,3.0.5,60.05074263735705,
To what extent did the music make you feel ,SAD,30MonoWAV/30MonoF4.wav,1,2,2,4,,,,,0,14,14,3,0,10,10,0,,,,,,,,,1,1.7518734650002443,,,061,001,2019_May_27_1107,MusicAffectPsychophysiology2019,3.0.5,60.05074263735705,
To what extent did the music make you feel ,TENDER,30MonoWAV/30MonoF4.wav,1,2,2,4,,,,,0,14,14,3,0,11,11,10,,,,,,,,,2,1.2229285220018937,,,061,001,2019_May_27_1107,MusicAffectPsychophysiology2019,3.0.5,60.05074263735705,
,,30MonoWAV/30MonoF4.wav,1,2,2,4,,,,,0,14,14,3,,,,,,,,,,,,,,,,,061,001,2019_May_27_1107,MusicAffectPsychophysiology2019,3.0.5,60.05074263735705,
To what extent did the music make you feel ,ANGRY,30MonoWAV/30MonoS4.wav,1,1,3,12,,,,,0,15,15,11,0,0,0,2,,,2,3.6020890779982437,2,1.3847217770016869,3,2.0515205889969366,1,1.3526145919968258,,,061,001,2019_May_27_1107,MusicAffectPsychophysiology2019,3.0.5,60.05074263735705,
To what extent did the music make you feel ,ALERT,30MonoWAV/30MonoS4.wav,1,1,3,12,,,,,0,15,15,11,0,1,1,8,,,,,,,,,1,0.9523413970018737,,,061,001,2019_May_27_1107,MusicAffectPsychophysiology2019,3.0.5,60.05074263735705,
To what extent did the music make you feel ,ANXIOUS ,30MonoWAV/30MonoS4.wav,1,1,3,12,,,,,0,15,15,11,0,2,2,1,,,,,,,,,4,1.4017048770037945,,,061,001,2019_May_27_1107,MusicAffectPsychophysiology2019,3.0.5,60.05074263735705,
To what extent did the music make you feel ,SAD,30MonoWAV/30MonoS4.wav,1,1,3,12,,,,,0,15,15,11,0,3,3,0,,,,,,,,,4,1.0349906249975902,,,061,001,2019_May_27_1107,MusicAffectPsychophysiology2019,3.0.5,60.05074263735705,
To what extent did the music make you feel ,GUILTY,30MonoWAV/30MonoS4.wav,1,1,3,12,,,,,0,15,15,11,0,4,4,5,,,,,,,,,3,1.4515055720039527,,,061,001,2019_May_27_1107,MusicAffectPsychophysiology2019,3.0.5,60.05074263735705,
To what extent did the music make you feel ,ASHAMED,30MonoWAV/30MonoS4.wav,1,1,3,12,,,,,0,15,15,11,0,5,5,4,,,,,,,,,4,1.0503488239992294,,,061,001,2019_May_27_1107,MusicAffectPsychophysiology2019,3.0.5,60.05074263735705,
To what extent did the music make you feel ,FRUSTRATED,30MonoWAV/30MonoS4.wav,1,1,3,12,,,,,0,15,15,11,0,6,6,3,,,,,,,,,1,1.1515399199997773,,,061,001,2019_May_27_1107,MusicAffectPsychophysiology2019,3.0.5,60.05074263735705,
To what extent did the music make you feel ,HAPPY,30MonoWAV/30MonoS4.wav,1,1,3,12,,,,,0,15,15,11,0,7,7,6,,,,,,,,,1,0.8026251960036461,,,061,001,2019_May_27_1107,MusicAffectPsychophysiology2019,3.0.5,60.05074263735705,
To what extent did the music make you feel ,TENDER,30MonoWAV/30MonoS4.wav,1,1,3,12,,,,,0,15,15,11,0,8,8,10,,,,,,,,,3,1.4021277670035488,,,061,001,2019_May_27_1107,MusicAffectPsychophysiology2019,3.0.5,60.05074263735705,
To what extent did the music make you feel ,SCARED,30MonoWAV/30MonoS4.wav,1,1,3,12,,,,,0,15,15,11,0,9,9,11,,,,,,,,,4,1.0842593499983195,,,061,001,2019_May_27_1107,MusicAffectPsychophysiology2019,3.0.5,60.05074263735705,
To what extent did the music make you feel ,ACTIVE,30MonoWAV/30MonoS4.wav,1,1,3,12,,,,,0,15,15,11,0,10,10,9,,,,,,,,,1,2.1191032139977324,,,061,001,2019_May_27_1107,MusicAffectPsychophysiology2019,3.0.5,60.05074263735705,
To what extent did the music make you feel ,EXCITED,30MonoWAV/30MonoS4.wav,1,1,3,12,,,,,0,15,15,11,0,11,11,7,,,,,,,,,1,1.0183698149994598,,,061,001,2019_May_27_1107,MusicAffectPsychophysiology2019,3.0.5,60.05074263735705,
,,30MonoWAV/30MonoS4.wav,1,1,3,12,,,,,0,15,15,11,,,,,,,,,,,,,,,,,061,001,2019_May_27_1107,MusicAffectPsychophysiology2019,3.0.5,60.05074263735705,
To what extent did the music make you feel ,ANXIOUS ,30MonoWAV/30MonoT1.wav,2,1,4,13,,,,,1,0,16,12,0,0,0,1,,,2,2.2677047370016226,3,1.2675808319982025,3,2.2347422070015455,2,1.3688476309980615,,,061,001,2019_May_27_1107,MusicAffectPsychophysiology2019,3.0.5,60.05074263735705,
To what extent did the music make you feel ,ASHAMED,30MonoWAV/30MonoT1.wav,2,1,4,13,,,,,1,0,16,12,0,1,1,4,,,,,,,,,1,1.0839544770060456,,,061,001,2019_May_27_1107,MusicAffectPsychophysiology2019,3.0.5,60.05074263735705,
To what extent did the music make you feel ,ANGRY,30MonoWAV/30MonoT1.wav,2,1,4,13,,,,,1,0,16,12,0,2,2,2,,,,,,,,,1,1.3497348769960809,,,061,001,2019_May_27_1107,MusicAffectPsychophysiology2019,3.0.5,60.05074263735705,
To what extent did the music make you feel ,ACTIVE,30MonoWAV/30MonoT1.wav,2,1,4,13,,,,,1,0,16,12,0,3,3,9,,,,,,,,,1,1.434412782000436,,,061,001,2019_May_27_1107,MusicAffectPsychophysiology2019,3.0.5,60.05074263735705,
To what extent did the music make you feel ,HAPPY,30MonoWAV/30MonoT1.wav,2,1,4,13,,,,,1,0,16,12,0,4,4,6,,,,,,,,,1,1.4344901259973994,,,061,001,2019_May_27_1107,MusicAffectPsychophysiology2019,3.0.5,60.05074263735705,
To what extent did the music make you feel ,GUILTY,30MonoWAV/30MonoT1.wav,2,1,4,13,,,,,1,0,16,12,0,5,5,5,,,,,,,,,1,1.202292187997955,,,061,001,2019_May_27_1107,MusicAffectPsychophysiology2019,3.0.5,60.05074263735705,
To what extent did the music make you feel ,TENDER,30MonoWAV/30MonoT1.wav,2,1,4,13,,,,,1,0,16,12,0,6,6,10,,,,,,,,,4,1.501621408999199,,,061,001,2019_May_27_1107,MusicAffectPsychophysiology2019,3.0.5,60.05074263735705,
To what extent did the music make you feel ,FRUSTRATED,30MonoWAV/30MonoT1.wav,2,1,4,13,,,,,1,0,16,12,0,7,7,3,,,,,,,,,1,1.2017652689974057,,,061,001,2019_May_27_1107,MusicAffectPsychophysiology2019,3.0.5,60.05074263735705,
To what extent did the music make you feel ,EXCITED,30MonoWAV/30MonoT1.wav,2,1,4,13,,,,,1,0,16,12,0,8,8,7,,,,,,,,,1,1.1351092430049903,,,061,001,2019_May_27_1107,MusicAffectPsychophysiology2019,3.0.5,60.05074263735705,
To what extent did the music make you feel ,SCARED,30MonoWAV/30MonoT1.wav,2,1,4,13,,,,,1,0,16,12,0,9,9,11,,,,,,,,,2,1.518940643996757,,,061,001,2019_May_27_1107,MusicAffectPsychophysiology2019,3.0.5,60.05074263735705,
To what extent did the music make you feel ,ALERT,30MonoWAV/30MonoT1.wav,2,1,4,13,,,,,1,0,16,12,0,10,10,8,,,,,,,,,1,1.199477898000623,,,061,001,2019_May_27_1107,MusicAffectPsychophysiology2019,3.0.5,60.05074263735705,
To what extent did the music make you feel ,SAD,30MonoWAV/30MonoT1.wav,2,1,4,13,,,,,1,0,16,12,0,11,11,0,,,,,,,,,2,0.918558730998484,,,061,001,2019_May_27_1107,MusicAffectPsychophysiology2019,3.0.5,60.05074263735705,
,,30MonoWAV/30MonoT1.wav,2,1,4,13,,,,,1,0,16,12,,,,,,,,,,,,,,,,,061,001,2019_May_27_1107,MusicAffectPsychophysiology2019,3.0.5,60.05074263735705,
To what extent did the music make you feel ,ANGRY,30MonoWAV/30MonoS3.wav,1,1,3,11,,,,,1,1,17,10,0,0,0,2,,,2,2.08532114099944,2,0.867672988002596,2,1.2510570009981166,1,1.217234563002421,,,061,001,2019_May_27_1107,MusicAffectPsychophysiology2019,3.0.5,60.05074263735705,
To what extent did the music make you feel ,EXCITED,30MonoWAV/30MonoS3.wav,1,1,3,11,,,,,1,1,17,10,0,1,1,7,,,,,,,,,1,0.8687225909961853,,,061,001,2019_May_27_1107,MusicAffectPsychophysiology2019,3.0.5,60.05074263735705,
To what extent did the music make you feel ,GUILTY,30MonoWAV/30MonoS3.wav,1,1,3,11,,,,,1,1,17,10,0,2,2,5,,,,,,,,,3,1.2689297920005629,,,061,001,2019_May_27_1107,MusicAffectPsychophysiology2019,3.0.5,60.05074263735705,
To what extent did the music make you feel ,TENDER,30MonoWAV/30MonoS3.wav,1,1,3,11,,,,,1,1,17,10,0,3,3,10,,,,,,,,,4,1.0500586550042499,,,061,001,2019_May_27_1107,MusicAffectPsychophysiology2019,3.0.5,60.05074263735705,
To what extent did the music make you feel ,ALERT,30MonoWAV/30MonoS3.wav,1,1,3,11,,,,,1,1,17,10,0,4,4,8,,,,,,,,,2,1.152698159996362,,,061,001,2019_May_27_1107,MusicAffectPsychophysiology2019,3.0.5,60.05074263735705,
To what extent did the music make you feel ,ACTIVE,30MonoWAV/30MonoS3.wav,1,1,3,11,,,,,1,1,17,10,0,5,5,9,,,,,,,,,1,1.1351979489991209,,,061,001,2019_May_27_1107,MusicAffectPsychophysiology2019,3.0.5,60.05074263735705,
To what extent did the music make you feel ,SAD,30MonoWAV/30MonoS3.wav,1,1,3,11,,,,,1,1,17,10,0,6,6,0,,,,,,,,,3,1.2683152520039584,,,061,001,2019_May_27_1107,MusicAffectPsychophysiology2019,3.0.5,60.05074263735705,
To what extent did the music make you feel ,ASHAMED,30MonoWAV/30MonoS3.wav,1,1,3,11,,,,,1,1,17,10,0,7,7,4,,,,,,,,,4,1.2681043729971861,,,061,001,2019_May_27_1107,MusicAffectPsychophysiology2019,3.0.5,60.05074263735705,
To what extent did the music make you feel ,HAPPY,30MonoWAV/30MonoS3.wav,1,1,3,11,,,,,1,1,17,10,0,8,8,6,,,,,,,,,1,1.4185959200040088,,,061,001,2019_May_27_1107,MusicAffectPsychophysiology2019,3.0.5,60.05074263735705,
To what extent did the music make you feel ,FRUSTRATED,30MonoWAV/30MonoS3.wav,1,1,3,11,,,,,1,1,17,10,0,9,9,3,,,,,,,,,1,1.1851270029947045,,,061,001,2019_May_27_1107,MusicAffectPsychophysiology2019,3.0.5,60.05074263735705,
To what extent did the music make you feel ,SCARED,30MonoWAV/30MonoS3.wav,1,1,3,11,,,,,1,1,17,10,0,10,10,11,,,,,,,,,2,1.2351073709942284,,,061,001,2019_May_27_1107,MusicAffectPsychophysiology2019,3.0.5,60.05074263735705,
To what extent did the music make you feel ,ANXIOUS ,30MonoWAV/30MonoS3.wav,1,1,3,11,,,,,1,1,17,10,0,11,11,1,,,,,,,,,4,1.1174951479988522,,,061,001,2019_May_27_1107,MusicAffectPsychophysiology2019,3.0.5,60.05074263735705,
,,30MonoWAV/30MonoS3.wav,1,1,3,11,,,,,1,1,17,10,,,,,,,,,,,,,,,,,061,001,2019_May_27_1107,MusicAffectPsychophysiology2019,3.0.5,60.05074263735705,
To what extent did the music make you feel ,ACTIVE,30MonoWAV/30MonoH4.wav,2,2,1,8,,,,,1,2,18,7,0,0,0,9,,,4,2.0362974789968575,4,1.252251523997984,3,1.803012383999885,4,1.2508396019984502,,,061,001,2019_May_27_1107,MusicAffectPsychophysiology2019,3.0.5,60.05074263735705,
To what extent did the music make you feel ,ALERT,30MonoWAV/30MonoH4.wav,2,2,1,8,,,,,1,2,18,7,0,1,1,8,,,,,,,,,4,1.1023576040024636,,,061,001,2019_May_27_1107,MusicAffectPsychophysiology2019,3.0.5,60.05074263735705,
To what extent did the music make you feel ,GUILTY,30MonoWAV/30MonoH4.wav,2,2,1,8,,,,,1,2,18,7,0,2,2,5,,,,,,,,,1,1.0012856750036008,,,061,001,2019_May_27_1107,MusicAffectPsychophysiology2019,3.0.5,60.05074263735705,
To what extent did the music make you feel ,EXCITED,30MonoWAV/30MonoH4.wav,2,2,1,8,,,,,1,2,18,7,0,3,3,7,,,,,,,,,4,1.0859372260019882,,,061,001,2019_May_27_1107,MusicAffectPsychophysiology2019,3.0.5,60.05074263735705,
To what extent did the music make you feel ,ANXIOUS ,30MonoWAV/30MonoH4.wav,2,2,1,8,,,,,1,2,18,7,0,4,4,1,,,,,,,,,1,0.8353330809986801,,,061,001,2019_May_27_1107,MusicAffectPsychophysiology2019,3.0.5,60.05074263735705,
To what extent did the music make you feel ,ANGRY,30MonoWAV/30MonoH4.wav,2,2,1,8,,,,,1,2,18,7,0,5,5,2,,,,,,,,,1,0.9176640789955854,,,061,001,2019_May_27_1107,MusicAffectPsychophysiology2019,3.0.5,60.05074263735705,
To what extent did the music make you feel ,HAPPY,30MonoWAV/30MonoH4.wav,2,2,1,8,,,,,1,2,18,7,0,6,6,6,,,,,,,,,4,1.08476132999931,,,061,001,2019_May_27_1107,MusicAffectPsychophysiology2019,3.0.5,60.05074263735705,
To what extent did the music make you feel ,SAD,30MonoWAV/30MonoH4.wav,2,2,1,8,,,,,1,2,18,7,0,7,7,0,,,,,,,,,1,1.0179479720027302,,,061,001,2019_May_27_1107,MusicAffectPsychophysiology2019,3.0.5,60.05074263735705,
To what extent did the music make you feel ,TENDER,30MonoWAV/30MonoH4.wav,2,2,1,8,,,,,1,2,18,7,0,8,8,10,,,,,,,,,1,1.3185010310044163,,,061,001,2019_May_27_1107,MusicAffectPsychophysiology2019,3.0.5,60.05074263735705,
To what extent did the music make you feel ,ASHAMED,30MonoWAV/30MonoH4.wav,2,2,1,8,,,,,1,2,18,7,0,9,9,4,,,,,,,,,1,0.6844308500003535,,,061,001,2019_May_27_1107,MusicAffectPsychophysiology2019,3.0.5,60.05074263735705,
To what extent did the music make you feel ,FRUSTRATED,30MonoWAV/30MonoH4.wav,2,2,1,8,,,,,1,2,18,7,0,10,10,3,,,,,,,,,1,0.5852506099981838,,,061,001,2019_May_27_1107,MusicAffectPsychophysiology2019,3.0.5,60.05074263735705,
To what extent did the music make you feel ,SCARED,30MonoWAV/30MonoH4.wav,2,2,1,8,,,,,1,2,18,7,0,11,11,11,,,,,,,,,1,0.751542714999232,,,061,001,2019_May_27_1107,MusicAffectPsychophysiology2019,3.0.5,60.05074263735705,
,,30MonoWAV/30MonoH4.wav,2,2,1,8,,,,,1,2,18,7,,,,,,,,,,,,,,,,,061,001,2019_May_27_1107,MusicAffectPsychophysiology2019,3.0.5,60.05074263735705,
To what extent did the music make you feel ,ASHAMED,30MonoWAV/30MonoH1.wav,2,2,1,5,,,,,1,3,19,4,0,0,0,4,,,4,2.0024179050014936,3,1.1680389730026945,2,1.2342479360013385,1,1.5508626500013634,,,061,001,2019_May_27_1107,MusicAffectPsychophysiology2019,3.0.5,60.05074263735705,
To what extent did the music make you feel ,SAD,30MonoWAV/30MonoH1.wav,2,2,1,5,,,,,1,3,19,4,0,1,1,0,,,,,,,,,1,0.6693526140006725,,,061,001,2019_May_27_1107,MusicAffectPsychophysiology2019,3.0.5,60.05074263735705,
To what extent did the music make you feel ,GUILTY,30MonoWAV/30MonoH1.wav,2,2,1,5,,,,,1,3,19,4,0,2,2,5,,,,,,,,,2,1.0861056799985818,,,061,001,2019_May_27_1107,MusicAffectPsychophysiology2019,3.0.5,60.05074263735705,
To what extent did the music make you feel ,ALERT,30MonoWAV/30MonoH1.wav,2,2,1,5,,,,,1,3,19,4,0,3,3,8,,,,,,,,,3,1.2685604350044741,,,061,001,2019_May_27_1107,MusicAffectPsychophysiology2019,3.0.5,60.05074263735705,
To what extent did the music make you feel ,SCARED,30MonoWAV/30MonoH1.wav,2,2,1,5,,,,,1,3,19,4,0,4,4,11,,,,,,,,,1,2.2526052059984067,,,061,001,2019_May_27_1107,MusicAffectPsychophysiology2019,3.0.5,60.05074263735705,
To what extent did the music make you feel ,TENDER,30MonoWAV/30MonoH1.wav,2,2,1,5,,,,,1,3,19,4,0,5,5,10,,,,,,,,,1,1.0179354709980544,,,061,001,2019_May_27_1107,MusicAffectPsychophysiology2019,3.0.5,60.05074263735705,
To what extent did the music make you feel ,EXCITED,30MonoWAV/30MonoH1.wav,2,2,1,5,,,,,1,3,19,4,0,6,6,7,,,,,,,,,3,1.3186915679980302,,,061,001,2019_May_27_1107,MusicAffectPsychophysiology2019,3.0.5,60.05074263735705,
To what extent did the music make you feel ,HAPPY,30MonoWAV/30MonoH1.wav,2,2,1,5,,,,,1,3,19,4,0,7,7,6,,,,,,,,,3,1.4015803990041604,,,061,001,2019_May_27_1107,MusicAffectPsychophysiology2019,3.0.5,60.05074263735705,
To what extent did the music make you feel ,ANXIOUS ,30MonoWAV/30MonoH1.wav,2,2,1,5,,,,,1,3,19,4,0,8,8,1,,,,,,,,,2,1.2515476669941563,,,061,001,2019_May_27_1107,MusicAffectPsychophysiology2019,3.0.5,60.05074263735705,
To what extent did the music make you feel ,ANGRY,30MonoWAV/30MonoH1.wav,2,2,1,5,,,,,1,3,19,4,0,9,9,2,,,,,,,,,1,1.1182327089991304,,,061,001,2019_May_27_1107,MusicAffectPsychophysiology2019,3.0.5,60.05074263735705,
To what extent did the music make you feel ,FRUSTRATED,30MonoWAV/30MonoH1.wav,2,2,1,5,,,,,1,3,19,4,0,10,10,3,,,,,,,,,1,1.050081371999113,,,061,001,2019_May_27_1107,MusicAffectPsychophysiology2019,3.0.5,60.05074263735705,
To what extent did the music make you feel ,ACTIVE,30MonoWAV/30MonoH1.wav,2,2,1,5,,,,,1,3,19,4,0,11,11,9,,,,,,,,,4,1.4669527570003993,,,061,001,2019_May_27_1107,MusicAffectPsychophysiology2019,3.0.5,60.05074263735705,
,,30MonoWAV/30MonoH1.wav,2,2,1,5,,,,,1,3,19,4,,,,,,,,,,,,,,,,,061,001,2019_May_27_1107,MusicAffectPsychophysiology2019,3.0.5,60.05074263735705,
To what extent did the music make you feel ,EXCITED,30MonoWAV/30MonoS1.wav,1,1,3,9,,,,,1,4,20,8,0,0,0,7,,,2,2.1851276750021498,2,1.8184368889997131,3,0.7834330260011484,2,1.3514653090023785,,,061,001,2019_May_27_1107,MusicAffectPsychophysiology2019,3.0.5,60.05074263735705,
To what extent did the music make you feel ,SAD,30MonoWAV/30MonoS1.wav,1,1,3,9,,,,,1,4,20,8,0,1,1,0,,,,,,,,,4,1.919568662000529,,,061,001,2019_May_27_1107,MusicAffectPsychophysiology2019,3.0.5,60.05074263735705,
To what extent did the music make you feel ,GUILTY,30MonoWAV/30MonoS1.wav,1,1,3,9,,,,,1,4,20,8,0,2,2,5,,,,,,,,,2,1.6684904040012043,,,061,001,2019_May_27_1107,MusicAffectPsychophysiology2019,3.0.5,60.05074263735705,
To what extent did the music make you feel ,FRUSTRATED,30MonoWAV/30MonoS1.wav,1,1,3,9,,,,,1,4,20,8,0,3,3,3,,,,,,,,,1,1.4021130459950655,,,061,001,2019_May_27_1107,MusicAffectPsychophysiology2019,3.0.5,60.05074263735705,
To what extent did the music make you feel ,ANXIOUS ,30MonoWAV/30MonoS1.wav,1,1,3,9,,,,,1,4,20,8,0,4,4,1,,,,,,,,,3,1.218359030004649,,,061,001,2019_May_27_1107,MusicAffectPsychophysiology2019,3.0.5,60.05074263735705,
To what extent did the music make you feel ,ALERT,30MonoWAV/30MonoS1.wav,1,1,3,9,,,,,1,4,20,8,0,5,5,8,,,,,,,,,2,1.1011102720003692,,,061,001,2019_May_27_1107,MusicAffectPsychophysiology2019,3.0.5,60.05074263735705,
To what extent did the music make you feel ,ACTIVE,30MonoWAV/30MonoS1.wav,1,1,3,9,,,,,1,4,20,8,0,6,6,9,,,,,,,,,1,1.100549967995903,,,061,001,2019_May_27_1107,MusicAffectPsychophysiology2019,3.0.5,60.05074263735705,
To what extent did the music make you feel ,TENDER,30MonoWAV/30MonoS1.wav,1,1,3,9,,,,,1,4,20,8,0,7,7,10,,,,,,,,,4,1.4679463389984448,,,061,001,2019_May_27_1107,MusicAffectPsychophysiology2019,3.0.5,60.05074263735705,
To what extent did the music make you feel ,ANGRY,30MonoWAV/30MonoS1.wav,1,1,3,9,,,,,1,4,20,8,0,8,8,2,,,,,,,,,1,1.051900830003433,,,061,001,2019_May_27_1107,MusicAffectPsychophysiology2019,3.0.5,60.05074263735705,
To what extent did the music make you feel ,HAPPY,30MonoWAV/30MonoS1.wav,1,1,3,9,,,,,1,4,20,8,0,9,9,6,,,,,,,,,2,1.2682692689995747,,,061,001,2019_May_27_1107,MusicAffectPsychophysiology2019,3.0.5,60.05074263735705,
To what extent did the music make you feel ,ASHAMED,30MonoWAV/30MonoS1.wav,1,1,3,9,,,,,1,4,20,8,0,10,10,4,,,,,,,,,2,1.9321610300030443,,,061,001,2019_May_27_1107,MusicAffectPsychophysiology2019,3.0.5,60.05074263735705,
To what extent did the music make you feel ,SCARED,30MonoWAV/30MonoS1.wav,1,1,3,9,,,,,1,4,20,8,0,11,11,11,,,,,,,,,2,2.1524626389946206,,,061,001,2019_May_27_1107,MusicAffectPsychophysiology2019,3.0.5,60.05074263735705,
,,30MonoWAV/30MonoS1.wav,1,1,3,9,,,,,1,4,20,8,,,,,,,,,,,,,,,,,061,001,2019_May_27_1107,MusicAffectPsychophysiology2019,3.0.5,60.05074263735705,
To what extent did the music make you feel ,ACTIVE,30MonoWAV/30MonoH3.wav,2,2,1,7,,,,,1,5,21,6,0,0,0,9,,,4,2.3684647289992427,4,1.3342696299951058,2,1.3680791720034904,4,1.3520943179973983,,,061,001,2019_May_27_1107,MusicAffectPsychophysiology2019,3.0.5,60.05074263735705,
To what extent did the music make you feel ,SCARED,30MonoWAV/30MonoH3.wav,2,2,1,7,,,,,1,5,21,6,0,1,1,11,,,,,,,,,1,1.034098994001397,,,061,001,2019_May_27_1107,MusicAffectPsychophysiology2019,3.0.5,60.05074263735705,
To what extent did the music make you feel ,ALERT,30MonoWAV/30MonoH3.wav,2,2,1,7,,,,,1,5,21,6,0,2,2,8,,,,,,,,,4,1.0365692870036582,,,061,001,2019_May_27_1107,MusicAffectPsychophysiology2019,3.0.5,60.05074263735705,
To what extent did the music make you feel ,HAPPY,30MonoWAV/30MonoH3.wav,2,2,1,7,,,,,1,5,21,6,0,3,3,6,,,,,,,,,4,0.9856261479944806,,,061,001,2019_May_27_1107,MusicAffectPsychophysiology2019,3.0.5,60.05074263735705,
To what extent did the music make you feel ,ANGRY,30MonoWAV/30MonoH3.wav,2,2,1,7,,,,,1,5,21,6,0,4,4,2,,,,,,,,,1,0.9684330380041501,,,061,001,2019_May_27_1107,MusicAffectPsychophysiology2019,3.0.5,60.05074263735705,
To what extent did the music make you feel ,SAD,30MonoWAV/30MonoH3.wav,2,2,1,7,,,,,1,5,21,6,0,5,5,0,,,,,,,,,1,1.3358104990038555,,,061,001,2019_May_27_1107,MusicAffectPsychophysiology2019,3.0.5,60.05074263735705,
To what extent did the music make you feel ,FRUSTRATED,30MonoWAV/30MonoH3.wav,2,2,1,7,,,,,1,5,21,6,0,6,6,3,,,,,,,,,1,0.5519345779975993,,,061,001,2019_May_27_1107,MusicAffectPsychophysiology2019,3.0.5,60.05074263735705,
To what extent did the music make you feel ,ASHAMED,30MonoWAV/30MonoH3.wav,2,2,1,7,,,,,1,5,21,6,0,7,7,4,,,,,,,,,1,0.5343840920031653,,,061,001,2019_May_27_1107,MusicAffectPsychophysiology2019,3.0.5,60.05074263735705,
To what extent did the music make you feel ,GUILTY,30MonoWAV/30MonoH3.wav,2,2,1,7,,,,,1,5,21,6,0,8,8,5,,,,,,,,,1,0.6524697370041395,,,061,001,2019_May_27_1107,MusicAffectPsychophysiology2019,3.0.5,60.05074263735705,
To what extent did the music make you feel ,EXCITED,30MonoWAV/30MonoH3.wav,2,2,1,7,,,,,1,5,21,6,0,9,9,7,,,,,,,,,4,1.001661422997131,,,061,001,2019_May_27_1107,MusicAffectPsychophysiology2019,3.0.5,60.05074263735705,
To what extent did the music make you feel ,ANXIOUS ,30MonoWAV/30MonoH3.wav,2,2,1,7,,,,,1,5,21,6,0,10,10,1,,,,,,,,,1,0.9845295999984955,,,061,001,2019_May_27_1107,MusicAffectPsychophysiology2019,3.0.5,60.05074263735705,
To what extent did the music make you feel ,TENDER,30MonoWAV/30MonoH3.wav,2,2,1,7,,,,,1,5,21,6,0,11,11,10,,,,,,,,,1,1.2838983860056032,,,061,001,2019_May_27_1107,MusicAffectPsychophysiology2019,3.0.5,60.05074263735705,
,,30MonoWAV/30MonoH3.wav,2,2,1,7,,,,,1,5,21,6,,,,,,,,,,,,,,,,,061,001,2019_May_27_1107,MusicAffectPsychophysiology2019,3.0.5,60.05074263735705,
To what extent did the music make you feel ,TENDER,30MonoWAV/30MonoF3.wav,1,2,2,3,,,,,1,6,22,2,0,0,0,10,,,3,3.3556203529951745,2,1.1852848810012802,4,1.4349569129990414,1,1.5850688539940165,,,061,001,2019_May_27_1107,MusicAffectPsychophysiology2019,3.0.5,60.05074263735705,
To what extent did the music make you feel ,GUILTY,30MonoWAV/30MonoF3.wav,1,2,2,3,,,,,1,6,22,2,0,1,1,5,,,,,,,,,3,1.5346946810022928,,,061,001,2019_May_27_1107,MusicAffectPsychophysiology2019,3.0.5,60.05074263735705,
To what extent did the music make you feel ,FRUSTRATED,30MonoWAV/30MonoF3.wav,1,2,2,3,,,,,1,6,22,2,0,2,2,3,,,,,,,,,1,1.1018681790010305,,,061,001,2019_May_27_1107,MusicAffectPsychophysiology2019,3.0.5,60.05074263735705,
To what extent did the music make you feel ,ANGRY,30MonoWAV/30MonoF3.wav,1,2,2,3,,,,,1,6,22,2,0,3,3,2,,,,,,,,,1,1.0004224320000503,,,061,001,2019_May_27_1107,MusicAffectPsychophysiology2019,3.0.5,60.05074263735705,
To what extent did the music make you feel ,SCARED,30MonoWAV/30MonoF3.wav,1,2,2,3,,,,,1,6,22,2,0,4,4,11,,,,,,,,,4,1.3675408670023899,,,061,001,2019_May_27_1107,MusicAffectPsychophysiology2019,3.0.5,60.05074263735705,
To what extent did the music make you feel ,ASHAMED,30MonoWAV/30MonoF3.wav,1,2,2,3,,,,,1,6,22,2,0,5,5,4,,,,,,,,,1,1.2510602890033624,,,061,001,2019_May_27_1107,MusicAffectPsychophysiology2019,3.0.5,60.05074263735705,
To what extent did the music make you feel ,EXCITED,30MonoWAV/30MonoF3.wav,1,2,2,3,,,,,1,6,22,2,0,6,6,7,,,,,,,,,1,0.8349996489996556,,,061,001,2019_May_27_1107,MusicAffectPsychophysiology2019,3.0.5,60.05074263735705,
To what extent did the music make you feel ,ALERT,30MonoWAV/30MonoF3.wav,1,2,2,3,,,,,1,6,22,2,0,7,7,8,,,,,,,,,3,1.3187220390027505,,,061,001,2019_May_27_1107,MusicAffectPsychophysiology2019,3.0.5,60.05074263735705,
To what extent did the music make you feel ,ANXIOUS ,30MonoWAV/30MonoF3.wav,1,2,2,3,,,,,1,6,22,2,0,8,8,1,,,,,,,,,4,1.1361881899938453,,,061,001,2019_May_27_1107,MusicAffectPsychophysiology2019,3.0.5,60.05074263735705,
To what extent did the music make you feel ,HAPPY,30MonoWAV/30MonoF3.wav,1,2,2,3,,,,,1,6,22,2,0,9,9,6,,,,,,,,,1,1.2513930329951108,,,061,001,2019_May_27_1107,MusicAffectPsychophysiology2019,3.0.5,60.05074263735705,
To what extent did the music make you feel ,SAD,30MonoWAV/30MonoF3.wav,1,2,2,3,,,,,1,6,22,2,0,10,10,0,,,,,,,,,1,1.2344700890025706,,,061,001,2019_May_27_1107,MusicAffectPsychophysiology2019,3.0.5,60.05074263735705,
To what extent did the music make you feel ,ACTIVE,30MonoWAV/30MonoF3.wav,1,2,2,3,,,,,1,6,22,2,0,11,11,9,,,,,,,,,3,1.4187283189967275,,,061,001,2019_May_27_1107,MusicAffectPsychophysiology2019,3.0.5,60.05074263735705,
,,30MonoWAV/30MonoF3.wav,1,2,2,3,,,,,1,6,22,2,,,,,,,,,,,,,,,,,061,001,2019_May_27_1107,MusicAffectPsychophysiology2019,3.0.5,60.05074263735705,
To what extent did the music make you feel ,SCARED,30MonoWAV/30MonoF2.wav,1,2,2,2,,,,,1,7,23,1,0,0,0,11,,,3,2.618093876000785,1,1.1687064110010397,3,1.4181500619961298,4,1.2349457439995604,,,061,001,2019_May_27_1107,MusicAffectPsychophysiology2019,3.0.5,60.05074263735705,
To what extent did the music make you feel ,ANGRY,30MonoWAV/30MonoF2.wav,1,2,2,2,,,,,1,7,23,1,0,1,1,2,,,,,,,,,1,1.1024700449997908,,,061,001,2019_May_27_1107,MusicAffectPsychophysiology2019,3.0.5,60.05074263735705,
To what extent did the music make you feel ,GUILTY,30MonoWAV/30MonoF2.wav,1,2,2,2,,,,,1,7,23,1,0,2,2,5,,,,,,,,,1,0.8677121000000625,,,061,001,2019_May_27_1107,MusicAffectPsychophysiology2019,3.0.5,60.05074263735705,
To what extent did the music make you feel ,ASHAMED,30MonoWAV/30MonoF2.wav,1,2,2,2,,,,,1,7,23,1,0,3,3,4,,,,,,,,,2,1.3352922769990982,,,061,001,2019_May_27_1107,MusicAffectPsychophysiology2019,3.0.5,60.05074263735705,
To what extent did the music make you feel ,ALERT,30MonoWAV/30MonoF2.wav,1,2,2,2,,,,,1,7,23,1,0,4,4,8,,,,,,,,,5,1.2854082980047679,,,061,001,2019_May_27_1107,MusicAffectPsychophysiology2019,3.0.5,60.05074263735705,
To what extent did the music make you feel ,FRUSTRATED,30MonoWAV/30MonoF2.wav,1,2,2,2,,,,,1,7,23,1,0,5,5,3,,,,,,,,,1,1.168335695998394,,,061,001,2019_May_27_1107,MusicAffectPsychophysiology2019,3.0.5,60.05074263735705,
To what extent did the music make you feel ,TENDER,30MonoWAV/30MonoF2.wav,1,2,2,2,,,,,1,7,23,1,0,6,6,10,,,,,,,,,1,1.151615019000019,,,061,001,2019_May_27_1107,MusicAffectPsychophysiology2019,3.0.5,60.05074263735705,
To what extent did the music make you feel ,HAPPY,30MonoWAV/30MonoF2.wav,1,2,2,2,,,,,1,7,23,1,0,7,7,6,,,,,,,,,1,0.7681970580015332,,,061,001,2019_May_27_1107,MusicAffectPsychophysiology2019,3.0.5,60.05074263735705,
To what extent did the music make you feel ,ANXIOUS ,30MonoWAV/30MonoF2.wav,1,2,2,2,,,,,1,7,23,1,0,8,8,1,,,,,,,,,5,1.2513646439983859,,,061,001,2019_May_27_1107,MusicAffectPsychophysiology2019,3.0.5,60.05074263735705,
To what extent did the music make you feel ,SAD,30MonoWAV/30MonoF2.wav,1,2,2,2,,,,,1,7,23,1,0,9,9,0,,,,,,,,,3,2.302355763997184,,,061,001,2019_May_27_1107,MusicAffectPsychophysiology2019,3.0.5,60.05074263735705,
To what extent did the music make you feel ,ACTIVE,30MonoWAV/30MonoF2.wav,1,2,2,2,,,,,1,7,23,1,0,10,10,9,,,,,,,,,2,1.167283195994969,,,061,001,2019_May_27_1107,MusicAffectPsychophysiology2019,3.0.5,60.05074263735705,
To what extent did the music make you feel ,EXCITED,30MonoWAV/30MonoF2.wav,1,2,2,2,,,,,1,7,23,1,0,11,11,7,,,,,,,,,1,0.8351253530054237,,,061,001,2019_May_27_1107,MusicAffectPsychophysiology2019,3.0.5,60.05074263735705,
,,30MonoWAV/30MonoF2.wav,1,2,2,2,,,,,1,7,23,1,,,,,,,,,,,,,,,,,061,001,2019_May_27_1107,MusicAffectPsychophysiology2019,3.0.5,60.05074263735705,
To what extent did the music make you feel ,ALERT,30MonoWAV/30MonoS4.wav,1,1,3,12,,,,,1,8,24,11,0,0,0,8,,,1,1.9856804869996267,1,0.7846184669979266,2,0.9509125399999903,1,1.5513346160005312,,,061,001,2019_May_27_1107,MusicAffectPsychophysiology2019,3.0.5,60.05074263735705,
To what extent did the music make you feel ,ANGRY,30MonoWAV/30MonoS4.wav,1,1,3,12,,,,,1,8,24,11,0,1,1,2,,,,,,,,,1,1.034111433000362,,,061,001,2019_May_27_1107,MusicAffectPsychophysiology2019,3.0.5,60.05074263735705,
To what extent did the music make you feel ,SAD,30MonoWAV/30MonoS4.wav,1,1,3,12,,,,,1,8,24,11,0,2,2,0,,,,,,,,,4,1.5010328620046494,,,061,001,2019_May_27_1107,MusicAffectPsychophysiology2019,3.0.5,60.05074263735705,
To what extent did the music make you feel ,ASHAMED,30MonoWAV/30MonoS4.wav,1,1,3,12,,,,,1,8,24,11,0,3,3,4,,,,,,,,,2,1.0183488789989497,,,061,001,2019_May_27_1107,MusicAffectPsychophysiology2019,3.0.5,60.05074263735705,
To what extent did the music make you feel ,SCARED,30MonoWAV/30MonoS4.wav,1,1,3,12,,,,,1,8,24,11,0,4,4,11,,,,,,,,,2,1.6514933069993276,,,061,001,2019_May_27_1107,MusicAffectPsychophysiology2019,3.0.5,60.05074263735705,
To what extent did the music make you feel ,ANXIOUS ,30MonoWAV/30MonoS4.wav,1,1,3,12,,,,,1,8,24,11,0,5,5,1,,,,,,,,,4,1.2025587629977963,,,061,001,2019_May_27_1107,MusicAffectPsychophysiology2019,3.0.5,60.05074263735705,
To what extent did the music make you feel ,FRUSTRATED,30MonoWAV/30MonoS4.wav,1,1,3,12,,,,,1,8,24,11,0,6,6,3,,,,,,,,,1,1.2177291059997515,,,061,001,2019_May_27_1107,MusicAffectPsychophysiology2019,3.0.5,60.05074263735705,
To what extent did the music make you feel ,HAPPY,30MonoWAV/30MonoS4.wav,1,1,3,12,,,,,1,8,24,11,0,7,7,6,,,,,,,,,1,0.7353352979989722,,,061,001,2019_May_27_1107,MusicAffectPsychophysiology2019,3.0.5,60.05074263735705,
To what extent did the music make you feel ,GUILTY,30MonoWAV/30MonoS4.wav,1,1,3,12,,,,,1,8,24,11,0,8,8,5,,,,,,,,,2,1.3852036550015328,,,061,001,2019_May_27_1107,MusicAffectPsychophysiology2019,3.0.5,60.05074263735705,
To what extent did the music make you feel ,TENDER,30MonoWAV/30MonoS4.wav,1,1,3,12,,,,,1,8,24,11,0,9,9,10,,,,,,,,,5,1.5023273039987544,,,061,001,2019_May_27_1107,MusicAffectPsychophysiology2019,3.0.5,60.05074263735705,
To what extent did the music make you feel ,ACTIVE,30MonoWAV/30MonoS4.wav,1,1,3,12,,,,,1,8,24,11,0,10,10,9,,,,,,,,,1,1.0518194860051153,,,061,001,2019_May_27_1107,MusicAffectPsychophysiology2019,3.0.5,60.05074263735705,
To what extent did the music make you feel ,EXCITED,30MonoWAV/30MonoS4.wav,1,1,3,12,,,,,1,8,24,11,0,11,11,7,,,,,,,,,1,0.8015476520013181,,,061,001,2019_May_27_1107,MusicAffectPsychophysiology2019,3.0.5,60.05074263735705,
,,30MonoWAV/30MonoS4.wav,1,1,3,12,,,,,1,8,24,11,,,,,,,,,,,,,,,,,061,001,2019_May_27_1107,MusicAffectPsychophysiology2019,3.0.5,60.05074263735705,
To what extent did the music make you feel ,EXCITED,30MonoWAV/30MonoT3.wav,2,1,4,15,,,,,1,9,25,14,0,0,0,7,,,2,2.16827465499955,2,1.5343607800023165,3,1.2848882830003276,1,1.6174217499938095,,,061,001,2019_May_27_1107,MusicAffectPsychophysiology2019,3.0.5,60.05074263735705,
To what extent did the music make you feel ,SAD,30MonoWAV/30MonoT3.wav,2,1,4,15,,,,,1,9,25,14,0,1,1,0,,,,,,,,,2,1.2848390479994123,,,061,001,2019_May_27_1107,MusicAffectPsychophysiology2019,3.0.5,60.05074263735705,
To what extent did the music make you feel ,ANGRY,30MonoWAV/30MonoT3.wav,2,1,4,15,,,,,1,9,25,14,0,2,2,2,,,,,,,,,1,1.5015950460001477,,,061,001,2019_May_27_1107,MusicAffectPsychophysiology2019,3.0.5,60.05074263735705,
To what extent did the music make you feel ,ASHAMED,30MonoWAV/30MonoT3.wav,2,1,4,15,,,,,1,9,25,14,0,3,3,4,,,,,,,,,1,1.385275045002345,,,061,001,2019_May_27_1107,MusicAffectPsychophysiology2019,3.0.5,60.05074263735705,
To what extent did the music make you feel ,ALERT,30MonoWAV/30MonoT3.wav,2,1,4,15,,,,,1,9,25,14,0,4,4,8,,,,,,,,,1,1.084844252000039,,,061,001,2019_May_27_1107,MusicAffectPsychophysiology2019,3.0.5,60.05074263735705,
To what extent did the music make you feel ,SCARED,30MonoWAV/30MonoT3.wav,2,1,4,15,,,,,1,9,25,14,0,5,5,11,,,,,,,,,3,1.6846343029974378,,,061,001,2019_May_27_1107,MusicAffectPsychophysiology2019,3.0.5,60.05074263735705,
To what extent did the music make you feel ,ACTIVE,30MonoWAV/30MonoT3.wav,2,1,4,15,,,,,1,9,25,14,0,6,6,9,,,,,,,,,1,1.2187762339963228,,,061,001,2019_May_27_1107,MusicAffectPsychophysiology2019,3.0.5,60.05074263735705,
To what extent did the music make you feel ,ANXIOUS ,30MonoWAV/30MonoT3.wav,2,1,4,15,,,,,1,9,25,14,0,7,7,1,,,,,,,,,4,1.151417720997415,,,061,001,2019_May_27_1107,MusicAffectPsychophysiology2019,3.0.5,60.05074263735705,
To what extent did the music make you feel ,TENDER,30MonoWAV/30MonoT3.wav,2,1,4,15,,,,,1,9,25,14,0,8,8,10,,,,,,,,,3,1.1512128580070566,,,061,001,2019_May_27_1107,MusicAffectPsychophysiology2019,3.0.5,60.05074263735705,
To what extent did the music make you feel ,FRUSTRATED,30MonoWAV/30MonoT3.wav,2,1,4,15,,,,,1,9,25,14,0,9,9,3,,,,,,,,,1,0.9166491389987641,,,061,001,2019_May_27_1107,MusicAffectPsychophysiology2019,3.0.5,60.05074263735705,
To what extent did the music make you feel ,GUILTY,30MonoWAV/30MonoT3.wav,2,1,4,15,,,,,1,9,25,14,0,10,10,5,,,,,,,,,2,1.2683005259968922,,,061,001,2019_May_27_1107,MusicAffectPsychophysiology2019,3.0.5,60.05074263735705,
To what extent did the music make you feel ,HAPPY,30MonoWAV/30MonoT3.wav,2,1,4,15,,,,,1,9,25,14,0,11,11,6,,,,,,,,,1,0.5340507359942421,,,061,001,2019_May_27_1107,MusicAffectPsychophysiology2019,3.0.5,60.05074263735705,
,,30MonoWAV/30MonoT3.wav,2,1,4,15,,,,,1,9,25,14,,,,,,,,,,,,,,,,,061,001,2019_May_27_1107,MusicAffectPsychophysiology2019,3.0.5,60.05074263735705,
To what extent did the music make you feel ,EXCITED,30MonoWAV/30MonoH2.wav,2,2,1,6,,,,,1,10,26,5,0,0,0,7,,,4,2.100674708999577,4,0.9685301089994027,3,2.085198100998241,4,1.6174831079988508,,,061,001,2019_May_27_1107,MusicAffectPsychophysiology2019,3.0.5,60.05074263735705,
To what extent did the music make you feel ,TENDER,30MonoWAV/30MonoH2.wav,2,2,1,6,,,,,1,10,26,5,0,1,1,10,,,,,,,,,1,1.5679640029993607,,,061,001,2019_May_27_1107,MusicAffectPsychophysiology2019,3.0.5,60.05074263735705,
To what extent did the music make you feel ,ASHAMED,30MonoWAV/30MonoH2.wav,2,2,1,6,,,,,1,10,26,5,0,2,2,4,,,,,,,,,1,0.8012491219997173,,,061,001,2019_May_27_1107,MusicAffectPsychophysiology2019,3.0.5,60.05074263735705,
To what extent did the music make you feel ,GUILTY,30MonoWAV/30MonoH2.wav,2,2,1,6,,,,,1,10,26,5,0,3,3,5,,,,,,,,,1,0.769302434004203,,,061,001,2019_May_27_1107,MusicAffectPsychophysiology2019,3.0.5,60.05074263735705,
To what extent did the music make you feel ,ACTIVE,30MonoWAV/30MonoH2.wav,2,2,1,6,,,,,1,10,26,5,0,4,4,9,,,,,,,,,4,0.9839714170011575,,,061,001,2019_May_27_1107,MusicAffectPsychophysiology2019,3.0.5,60.05074263735705,
To what extent did the music make you feel ,SAD,30MonoWAV/30MonoH2.wav,2,2,1,6,,,,,1,10,26,5,0,5,5,0,,,,,,,,,1,0.8182320470004925,,,061,001,2019_May_27_1107,MusicAffectPsychophysiology2019,3.0.5,60.05074263735705,
To what extent did the music make you feel ,ANXIOUS ,30MonoWAV/30MonoH2.wav,2,2,1,6,,,,,1,10,26,5,0,6,6,1,,,,,,,,,1,1.1190493629983393,,,061,001,2019_May_27_1107,MusicAffectPsychophysiology2019,3.0.5,60.05074263735705,
To what extent did the music make you feel ,ANGRY,30MonoWAV/30MonoH2.wav,2,2,1,6,,,,,1,10,26,5,0,7,7,2,,,,,,,,,1,1.116551642997365,,,061,001,2019_May_27_1107,MusicAffectPsychophysiology2019,3.0.5,60.05074263735705,
To what extent did the music make you feel ,FRUSTRATED,30MonoWAV/30MonoH2.wav,2,2,1,6,,,,,1,10,26,5,0,8,8,3,,,,,,,,,1,0.5505102249953779,,,061,001,2019_May_27_1107,MusicAffectPsychophysiology2019,3.0.5,60.05074263735705,
To what extent did the music make you feel ,SCARED,30MonoWAV/30MonoH2.wav,2,2,1,6,,,,,1,10,26,5,0,9,9,11,,,,,,,,,1,0.5682495120054227,,,061,001,2019_May_27_1107,MusicAffectPsychophysiology2019,3.0.5,60.05074263735705,
To what extent did the music make you feel ,ALERT,30MonoWAV/30MonoH2.wav,2,2,1,6,,,,,1,10,26,5,0,10,10,8,,,,,,,,,4,1.0662645200063707,,,061,001,2019_May_27_1107,MusicAffectPsychophysiology2019,3.0.5,60.05074263735705,
To what extent did the music make you feel ,HAPPY,30MonoWAV/30MonoH2.wav,2,2,1,6,,,,,1,10,26,5,0,11,11,6,,,,,,,,,4,1.035943540999142,,,061,001,2019_May_27_1107,MusicAffectPsychophysiology2019,3.0.5,60.05074263735705,
,,30MonoWAV/30MonoH2.wav,2,2,1,6,,,,,1,10,26,5,,,,,,,,,,,,,,,,,061,001,2019_May_27_1107,MusicAffectPsychophysiology2019,3.0.5,60.05074263735705,
To what extent did the music make you feel ,SCARED,30MonoWAV/30MonoF4.wav,1,2,2,4,,,,,1,11,27,3,0,0,0,11,,,4,2.0867509329982568,2,1.2516709830015316,2,1.302248405001592,2,1.7163669009969453,,,061,001,2019_May_27_1107,MusicAffectPsychophysiology2019,3.0.5,60.05074263735705,
To what extent did the music make you feel ,SAD,30MonoWAV/30MonoF4.wav,1,2,2,4,,,,,1,11,27,3,0,1,1,0,,,,,,,,,1,0.9357408590003615,,,061,001,2019_May_27_1107,MusicAffectPsychophysiology2019,3.0.5,60.05074263735705,
To what extent did the music make you feel ,HAPPY,30MonoWAV/30MonoF4.wav,1,2,2,4,,,,,1,11,27,3,0,2,2,6,,,,,,,,,3,1.3687599479962955,,,061,001,2019_May_27_1107,MusicAffectPsychophysiology2019,3.0.5,60.05074263735705,
To what extent did the music make you feel ,ANXIOUS ,30MonoWAV/30MonoF4.wav,1,2,2,4,,,,,1,11,27,3,0,3,3,1,,,,,,,,,4,1.2518100939996657,,,061,001,2019_May_27_1107,MusicAffectPsychophysiology2019,3.0.5,60.05074263735705,
To what extent did the music make you feel ,GUILTY,30MonoWAV/30MonoF4.wav,1,2,2,4,,,,,1,11,27,3,0,4,4,5,,,,,,,,,2,1.3194242760000634,,,061,001,2019_May_27_1107,MusicAffectPsychophysiology2019,3.0.5,60.05074263735705,
To what extent did the music make you feel ,FRUSTRATED,30MonoWAV/30MonoF4.wav,1,2,2,4,,,,,1,11,27,3,0,5,5,3,,,,,,,,,1,0.769911253999453,,,061,001,2019_May_27_1107,MusicAffectPsychophysiology2019,3.0.5,60.05074263735705,
To what extent did the music make you feel ,ACTIVE,30MonoWAV/30MonoF4.wav,1,2,2,4,,,,,1,11,27,3,0,6,6,9,,,,,,,,,3,1.5190017749991966,,,061,001,2019_May_27_1107,MusicAffectPsychophysiology2019,3.0.5,60.05074263735705,
To what extent did the music make you feel ,EXCITED,30MonoWAV/30MonoF4.wav,1,2,2,4,,,,,1,11,27,3,0,7,7,7,,,,,,,,,3,1.084899993998988,,,061,001,2019_May_27_1107,MusicAffectPsychophysiology2019,3.0.5,60.05074263735705,
To what extent did the music make you feel ,ASHAMED,30MonoWAV/30MonoF4.wav,1,2,2,4,,,,,1,11,27,3,0,8,8,4,,,,,,,,,2,1.0020340230039437,,,061,001,2019_May_27_1107,MusicAffectPsychophysiology2019,3.0.5,60.05074263735705,
To what extent did the music make you feel ,ANGRY,30MonoWAV/30MonoF4.wav,1,2,2,4,,,,,1,11,27,3,0,9,9,2,,,,,,,,,1,1.0514432190029765,,,061,001,2019_May_27_1107,MusicAffectPsychophysiology2019,3.0.5,60.05074263735705,
To what extent did the music make you feel ,ALERT,30MonoWAV/30MonoF4.wav,1,2,2,4,,,,,1,11,27,3,0,10,10,8,,,,,,,,,4,1.2519849930031342,,,061,001,2019_May_27_1107,MusicAffectPsychophysiology2019,3.0.5,60.05074263735705,
To what extent did the music make you feel ,TENDER,30MonoWAV/30MonoF4.wav,1,2,2,4,,,,,1,11,27,3,0,11,11,10,,,,,,,,,1,0.8187381770039792,,,061,001,2019_May_27_1107,MusicAffectPsychophysiology2019,3.0.5,60.05074263735705,
,,30MonoWAV/30MonoF4.wav,1,2,2,4,,,,,1,11,27,3,,,,,,,,,,,,,,,,,061,001,2019_May_27_1107,MusicAffectPsychophysiology2019,3.0.5,60.05074263735705,
To what extent did the music make you feel ,HAPPY,30MonoWAV/30MonoT2.wav,2,1,4,14,,,,,1,12,28,13,0,0,0,6,,,3,1.8194455999982893,5,1.7186599060005392,5,1.4326200529976632,5,1.6017641719954554,,,061,001,2019_May_27_1107,MusicAffectPsychophysiology2019,3.0.5,60.05074263735705,
To what extent did the music make you feel ,ANXIOUS ,30MonoWAV/30MonoT2.wav,2,1,4,14,,,,,1,12,28,13,0,1,1,1,,,,,,,,,1,1.334885401003703,,,061,001,2019_May_27_1107,MusicAffectPsychophysiology2019,3.0.5,60.05074263735705,
To what extent did the music make you feel ,EXCITED,30MonoWAV/30MonoT2.wav,2,1,4,14,,,,,1,12,28,13,0,2,2,7,,,,,,,,,4,1.1688716110002133,,,061,001,2019_May_27_1107,MusicAffectPsychophysiology2019,3.0.5,60.05074263735705,
To what extent did the music make you feel ,SCARED,30MonoWAV/30MonoT2.wav,2,1,4,14,,,,,1,12,28,13,0,3,3,11,,,,,,,,,1,0.8680669110035524,,,061,001,2019_May_27_1107,MusicAffectPsychophysiology2019,3.0.5,60.05074263735705,
To what extent did the music make you feel ,FRUSTRATED,30MonoWAV/30MonoT2.wav,2,1,4,14,,,,,1,12,28,13,0,4,4,3,,,,,,,,,1,0.5686231900035636,,,061,001,2019_May_27_1107,MusicAffectPsychophysiology2019,3.0.5,60.05074263735705,
To what extent did the music make you feel ,ALERT,30MonoWAV/30MonoT2.wav,2,1,4,14,,,,,1,12,28,13,0,5,5,8,,,,,,,,,2,1.4354124090023106,,,061,001,2019_May_27_1107,MusicAffectPsychophysiology2019,3.0.5,60.05074263735705,
To what extent did the music make you feel ,SAD,30MonoWAV/30MonoT2.wav,2,1,4,14,,,,,1,12,28,13,0,6,6,0,,,,,,,,,1,0.6180878169980133,,,061,001,2019_May_27_1107,MusicAffectPsychophysiology2019,3.0.5,60.05074263735705,
To what extent did the music make you feel ,TENDER,30MonoWAV/30MonoT2.wav,2,1,4,14,,,,,1,12,28,13,0,7,7,10,,,,,,,,,5,1.5854909080007928,,,061,001,2019_May_27_1107,MusicAffectPsychophysiology2019,3.0.5,60.05074263735705,
To what extent did the music make you feel ,ASHAMED,30MonoWAV/30MonoT2.wav,2,1,4,14,,,,,1,12,28,13,0,8,8,4,,,,,,,,,1,0.9513285480061313,,,061,001,2019_May_27_1107,MusicAffectPsychophysiology2019,3.0.5,60.05074263735705,
To what extent did the music make you feel ,ACTIVE,30MonoWAV/30MonoT2.wav,2,1,4,14,,,,,1,12,28,13,0,9,9,9,,,,,,,,,2,0.985129873995902,,,061,001,2019_May_27_1107,MusicAffectPsychophysiology2019,3.0.5,60.05074263735705,
To what extent did the music make you feel ,GUILTY,30MonoWAV/30MonoT2.wav,2,1,4,14,,,,,1,12,28,13,0,10,10,5,,,,,,,,,1,0.6349441279962775,,,061,001,2019_May_27_1107,MusicAffectPsychophysiology2019,3.0.5,60.05074263735705,
To what extent did the music make you feel ,ANGRY,30MonoWAV/30MonoT2.wav,2,1,4,14,,,,,1,12,28,13,0,11,11,2,,,,,,,,,1,0.7685614329966484,,,061,001,2019_May_27_1107,MusicAffectPsychophysiology2019,3.0.5,60.05074263735705,
,,30MonoWAV/30MonoT2.wav,2,1,4,14,,,,,1,12,28,13,,,,,,,,,,,,,,,,,061,001,2019_May_27_1107,MusicAffectPsychophysiology2019,3.0.5,60.05074263735705,
To what extent did the music make you feel ,TENDER,30MonoWAV/30MonoF1.wav,1,2,2,1,,,,,1,13,29,0,0,0,0,10,,,4,2.868055999002536,1,1.368164462997811,1,0.9345991150039481,1,1.3848983620046056,,,061,001,2019_May_27_1107,MusicAffectPsychophysiology2019,3.0.5,60.05074263735705,
To what extent did the music make you feel ,SCARED,30MonoWAV/30MonoF1.wav,1,2,2,1,,,,,1,13,29,0,0,1,1,11,,,,,,,,,4,1.0844857419942855,,,061,001,2019_May_27_1107,MusicAffectPsychophysiology2019,3.0.5,60.05074263735705,
To what extent did the music make you feel ,ANXIOUS ,30MonoWAV/30MonoF1.wav,1,2,2,1,,,,,1,13,29,0,0,2,2,1,,,,,,,,,4,0.8023765109974192,,,061,001,2019_May_27_1107,MusicAffectPsychophysiology2019,3.0.5,60.05074263735705,
To what extent did the music make you feel ,HAPPY,30MonoWAV/30MonoF1.wav,1,2,2,1,,,,,1,13,29,0,0,3,3,6,,,,,,,,,1,0.9178611620009178,,,061,001,2019_May_27_1107,MusicAffectPsychophysiology2019,3.0.5,60.05074263735705,
To what extent did the music make you feel ,SAD,30MonoWAV/30MonoF1.wav,1,2,2,1,,,,,1,13,29,0,0,4,4,0,,,,,,,,,2,1.484876461996464,,,061,001,2019_May_27_1107,MusicAffectPsychophysiology2019,3.0.5,60.05074263735705,
To what extent did the music make you feel ,GUILTY,30MonoWAV/30MonoF1.wav,1,2,2,1,,,,,1,13,29,0,0,5,5,5,,,,,,,,,2,1.3509543709951686,,,061,001,2019_May_27_1107,MusicAffectPsychophysiology2019,3.0.5,60.05074263735705,
To what extent did the music make you feel ,ALERT,30MonoWAV/30MonoF1.wav,1,2,2,1,,,,,1,13,29,0,0,6,6,8,,,,,,,,,4,1.6514112099976046,,,061,001,2019_May_27_1107,MusicAffectPsychophysiology2019,3.0.5,60.05074263735705,
To what extent did the music make you feel ,FRUSTRATED,30MonoWAV/30MonoF1.wav,1,2,2,1,,,,,1,13,29,0,0,7,7,3,,,,,,,,,1,1.468232398001419,,,061,001,2019_May_27_1107,MusicAffectPsychophysiology2019,3.0.5,60.05074263735705,
To what extent did the music make you feel ,EXCITED,30MonoWAV/30MonoF1.wav,1,2,2,1,,,,,1,13,29,0,0,8,8,7,,,,,,,,,1,0.801663557998836,,,061,001,2019_May_27_1107,MusicAffectPsychophysiology2019,3.0.5,60.05074263735705,
To what extent did the music make you feel ,ANGRY,30MonoWAV/30MonoF1.wav,1,2,2,1,,,,,1,13,29,0,0,9,9,2,,,,,,,,,1,0.9503140209999401,,,061,001,2019_May_27_1107,MusicAffectPsychophysiology2019,3.0.5,60.05074263735705,
To what extent did the music make you feel ,ACTIVE,30MonoWAV/30MonoF1.wav,1,2,2,1,,,,,1,13,29,0,0,10,10,9,,,,,,,,,1,0.851981589999923,,,061,001,2019_May_27_1107,MusicAffectPsychophysiology2019,3.0.5,60.05074263735705,
To what extent did the music make you feel ,ASHAMED,30MonoWAV/30MonoF1.wav,1,2,2,1,,,,,1,13,29,0,0,11,11,4,,,,,,,,,1,1.001448208000511,,,061,001,2019_May_27_1107,MusicAffectPsychophysiology2019,3.0.5,60.05074263735705,
,,30MonoWAV/30MonoF1.wav,1,2,2,1,,,,,1,13,29,0,,,,,,,,,,,,,,,,,061,001,2019_May_27_1107,MusicAffectPsychophysiology2019,3.0.5,60.05074263735705,
To what extent did the music make you feel ,GUILTY,30MonoWAV/30MonoT4.wav,2,1,4,16,,,,,1,14,30,15,0,0,0,5,,,3,3.032829176001542,5,1.1188017369931913,4,1.6668218880004133,1,1.2681700410030317,,,061,001,2019_May_27_1107,MusicAffectPsychophysiology2019,3.0.5,60.05074263735705,
To what extent did the music make you feel ,FRUSTRATED,30MonoWAV/30MonoT4.wav,2,1,4,16,,,,,1,14,30,15,0,1,1,3,,,,,,,,,1,0.7349913330035633,,,061,001,2019_May_27_1107,MusicAffectPsychophysiology2019,3.0.5,60.05074263735705,
To what extent did the music make you feel ,ACTIVE,30MonoWAV/30MonoT4.wav,2,1,4,16,,,,,1,14,30,15,0,2,2,9,,,,,,,,,2,0.9186877079991973,,,061,001,2019_May_27_1107,MusicAffectPsychophysiology2019,3.0.5,60.05074263735705,
To what extent did the music make you feel ,ANXIOUS ,30MonoWAV/30MonoT4.wav,2,1,4,16,,,,,1,14,30,15,0,3,3,1,,,,,,,,,1,0.6011164010051289,,,061,001,2019_May_27_1107,MusicAffectPsychophysiology2019,3.0.5,60.05074263735705,
To what extent did the music make you feel ,SAD,30MonoWAV/30MonoT4.wav,2,1,4,16,,,,,1,14,30,15,0,4,4,0,,,,,,,,,1,0.8022568989981664,,,061,001,2019_May_27_1107,MusicAffectPsychophysiology2019,3.0.5,60.05074263735705,
To what extent did the music make you feel ,ANGRY,30MonoWAV/30MonoT4.wav,2,1,4,16,,,,,1,14,30,15,0,5,5,2,,,,,,,,,1,0.41828442699625157,,,061,001,2019_May_27_1107,MusicAffectPsychophysiology2019,3.0.5,60.05074263735705,
To what extent did the music make you feel ,HAPPY,30MonoWAV/30MonoT4.wav,2,1,4,16,,,,,1,14,30,15,0,6,6,6,,,,,,,,,5,1.135569639998721,,,061,001,2019_May_27_1107,MusicAffectPsychophysiology2019,3.0.5,60.05074263735705,
To what extent did the music make you feel ,ALERT,30MonoWAV/30MonoT4.wav,2,1,4,16,,,,,1,14,30,15,0,7,7,8,,,,,,,,,2,1.8008115659977193,,,061,001,2019_May_27_1107,MusicAffectPsychophysiology2019,3.0.5,60.05074263735705,
To what extent did the music make you feel ,TENDER,30MonoWAV/30MonoT4.wav,2,1,4,16,,,,,1,14,30,15,0,8,8,10,,,,,,,,,3,0.9502993800051627,,,061,001,2019_May_27_1107,MusicAffectPsychophysiology2019,3.0.5,60.05074263735705,
To what extent did the music make you feel ,SCARED,30MonoWAV/30MonoT4.wav,2,1,4,16,,,,,1,14,30,15,0,9,9,11,,,,,,,,,1,1.1837549999982002,,,061,001,2019_May_27_1107,MusicAffectPsychophysiology2019,3.0.5,60.05074263735705,
To what extent did the music make you feel ,EXCITED,30MonoWAV/30MonoT4.wav,2,1,4,16,,,,,1,14,30,15,0,10,10,7,,,,,,,,,3,1.2169988759997068,,,061,001,2019_May_27_1107,MusicAffectPsychophysiology2019,3.0.5,60.05074263735705,
To what extent did the music make you feel ,ASHAMED,30MonoWAV/30MonoT4.wav,2,1,4,16,,,,,1,14,30,15,0,11,11,4,,,,,,,,,1,1.3516795149989775,,,061,001,2019_May_27_1107,MusicAffectPsychophysiology2019,3.0.5,60.05074263735705,
,,30MonoWAV/30MonoT4.wav,2,1,4,16,,,,,1,14,30,15,,,,,,,,,,,,,,,,,061,001,2019_May_27_1107,MusicAffectPsychophysiology2019,3.0.5,60.05074263735705,
To what extent did the music make you feel ,GUILTY,30MonoWAV/30MonoS2.wav,1,1,3,10,,,,,1,15,31,9,0,0,0,5,,,2,1.970095978002064,2,1.4182184399978723,3,1.2352808859941433,3,1.7180133069996373,,,061,001,2019_May_27_1107,MusicAffectPsychophysiology2019,3.0.5,60.05074263735705,
To what extent did the music make you feel ,HAPPY,30MonoWAV/30MonoS2.wav,1,1,3,10,,,,,1,15,31,9,0,1,1,6,,,,,,,,,1,1.0183011070039356,,,061,001,2019_May_27_1107,MusicAffectPsychophysiology2019,3.0.5,60.05074263735705,
To what extent did the music make you feel ,ANGRY,30MonoWAV/30MonoS2.wav,1,1,3,10,,,,,1,15,31,9,0,2,2,2,,,,,,,,,1,0.9855190749949543,,,061,001,2019_May_27_1107,MusicAffectPsychophysiology2019,3.0.5,60.05074263735705,
To what extent did the music make you feel ,EXCITED,30MonoWAV/30MonoS2.wav,1,1,3,10,,,,,1,15,31,9,0,3,3,7,,,,,,,,,1,0.7842181270025321,,,061,001,2019_May_27_1107,MusicAffectPsychophysiology2019,3.0.5,60.05074263735705,
To what extent did the music make you feel ,ACTIVE,30MonoWAV/30MonoS2.wav,1,1,3,10,,,,,1,15,31,9,0,4,4,9,,,,,,,,,1,0.9519398159973207,,,061,001,2019_May_27_1107,MusicAffectPsychophysiology2019,3.0.5,60.05074263735705,
To what extent did the music make you feel ,ASHAMED,30MonoWAV/30MonoS2.wav,1,1,3,10,,,,,1,15,31,9,0,5,5,4,,,,,,,,,3,1.2684315480000805,,,061,001,2019_May_27_1107,MusicAffectPsychophysiology2019,3.0.5,60.05074263735705,
To what extent did the music make you feel ,SAD,30MonoWAV/30MonoS2.wav,1,1,3,10,,,,,1,15,31,9,0,6,6,0,,,,,,,,,2,1.2353760360056185,,,061,001,2019_May_27_1107,MusicAffectPsychophysiology2019,3.0.5,60.05074263735705,
To what extent did the music make you feel ,TENDER,30MonoWAV/30MonoS2.wav,1,1,3,10,,,,,1,15,31,9,0,7,7,10,,,,,,,,,4,1.533580383998924,,,061,001,2019_May_27_1107,MusicAffectPsychophysiology2019,3.0.5,60.05074263735705,
To what extent did the music make you feel ,ANXIOUS ,30MonoWAV/30MonoS2.wav,1,1,3,10,,,,,1,15,31,9,0,8,8,1,,,,,,,,,3,1.1356611999945017,,,061,001,2019_May_27_1107,MusicAffectPsychophysiology2019,3.0.5,60.05074263735705,
To what extent did the music make you feel ,FRUSTRATED,30MonoWAV/30MonoS2.wav,1,1,3,10,,,,,1,15,31,9,0,9,9,3,,,,,,,,,1,2.602354609996837,,,061,001,2019_May_27_1107,MusicAffectPsychophysiology2019,3.0.5,60.05074263735705,
To what extent did the music make you feel ,ALERT,30MonoWAV/30MonoS2.wav,1,1,3,10,,,,,1,15,31,9,0,10,10,8,,,,,,,,,1,1.500389761000406,,,061,001,2019_May_27_1107,MusicAffectPsychophysiology2019,3.0.5,60.05074263735705,
To what extent did the music make you feel ,SCARED,30MonoWAV/30MonoS2.wav,1,1,3,10,,,,,1,15,31,9,0,11,11,11,,,,,,,,,2,0.9671411529998295,,,061,001,2019_May_27_1107,MusicAffectPsychophysiology2019,3.0.5,60.05074263735705,
,,30MonoWAV/30MonoS2.wav,1,1,3,10,,,,,1,15,31,9,,,,,,,,,,,,,,,,,061,001,2019_May_27_1107,MusicAffectPsychophysiology2019,3.0.5,60.05074263735705,
,,,,,,,,,,,,,,,,,,,,,,,,,,,,,space,3.9694396580016473,061,001,2019_May_27_1107,MusicAffectPsychophysiology2019,3.0.5,60.05074263735705,
