Instruction,Word,song,valence,arousal,affectcat,songmark,pracwords.thisRepN,pracwords.thisTrialN,pracwords.thisN,pracwords.thisIndex,songtrials.thisRepN,songtrials.thisTrialN,songtrials.thisN,songtrials.thisIndex,words.thisRepN,words.thisTrialN,words.thisN,words.thisIndex,begin.keys,begin.rt,arousalkey.keys,arousalkey.rt,valencekey.keys,valencekey.rt,likekey.keys,likekey.rt,WordResponse.keys,WordResponse.rt,key_resp_2.keys,key_resp_2.rt,participant,session,date,expName,psychopyVersion,frameRate,
,,,,,,,,,,,,,,,,,,,k,3.5375784110001405,,,,,,,,,,,062,001,2019_May_27_1403,MusicAffectPsychophysiology2019,3.0.5,60.50598627328441,
,,,,,,,,,,,,,,,,,,,,,3,11.050266089005163,,,,,,,,,062,001,2019_May_27_1403,MusicAffectPsychophysiology2019,3.0.5,60.50598627328441,
,,,,,,,,,,,,,,,,,,,,,,,4,3.518151942997065,,,,,,,062,001,2019_May_27_1403,MusicAffectPsychophysiology2019,3.0.5,60.50598627328441,
,,,,,,,,,,,,,,,,,,,,,,,,,3,4.917872680998698,,,,,062,001,2019_May_27_1403,MusicAffectPsychophysiology2019,3.0.5,60.50598627328441,
To what extent did the music make you feel ,EXCITED,,,,,,0,0,0,7,,,,,,,,,,,,,,,,,2,6.254078928999661,,,062,001,2019_May_27_1403,MusicAffectPsychophysiology2019,3.0.5,60.50598627328441,
To what extent did the music make you feel ,TENDER,,,,,,0,1,1,10,,,,,,,,,,,,,,,,,3,2.5853444559979835,,,062,001,2019_May_27_1403,MusicAffectPsychophysiology2019,3.0.5,60.50598627328441,
To what extent did the music make you feel ,ANGRY,,,,,,0,2,2,2,,,,,,,,,,,,,,,,,1,2.816992603999097,,,062,001,2019_May_27_1403,MusicAffectPsychophysiology2019,3.0.5,60.50598627328441,
To what extent did the music make you feel ,ALERT,,,,,,0,3,3,8,,,,,,,,,,,,,,,,,2,2.7996033830058877,,,062,001,2019_May_27_1403,MusicAffectPsychophysiology2019,3.0.5,60.50598627328441,
To what extent did the music make you feel ,SAD,,,,,,0,4,4,0,,,,,,,,,,,,,,,,,2,2.7855570559986518,,,062,001,2019_May_27_1403,MusicAffectPsychophysiology2019,3.0.5,60.50598627328441,
To what extent did the music make you feel ,FRUSTRATED,,,,,,0,5,5,3,,,,,,,,,,,,,,,,,2,3.4181252849957673,,,062,001,2019_May_27_1403,MusicAffectPsychophysiology2019,3.0.5,60.50598627328441,
To what extent did the music make you feel ,GUILTY,,,,,,0,6,6,5,,,,,,,,,,,,,,,,,1,1.9339996540002176,,,062,001,2019_May_27_1403,MusicAffectPsychophysiology2019,3.0.5,60.50598627328441,
To what extent did the music make you feel ,HAPPY,,,,,,0,7,7,6,,,,,,,,,,,,,,,,,3,1.4851302550014225,,,062,001,2019_May_27_1403,MusicAffectPsychophysiology2019,3.0.5,60.50598627328441,
To what extent did the music make you feel ,ASHAMED,,,,,,0,8,8,4,,,,,,,,,,,,,,,,,1,1.835028549998242,,,062,001,2019_May_27_1403,MusicAffectPsychophysiology2019,3.0.5,60.50598627328441,
To what extent did the music make you feel ,SCARED,,,,,,0,9,9,11,,,,,,,,,,,,,,,,,1,3.267854719000752,,,062,001,2019_May_27_1403,MusicAffectPsychophysiology2019,3.0.5,60.50598627328441,
To what extent did the music make you feel ,ACTIVE,,,,,,0,10,10,9,,,,,,,,,,,,,,,,,3,1.5684389550006017,,,062,001,2019_May_27_1403,MusicAffectPsychophysiology2019,3.0.5,60.50598627328441,
To what extent did the music make you feel ,ANXIOUS ,,,,,,0,11,11,1,,,,,,,,,,,,,,,,,2,1.5343168219988002,,,062,001,2019_May_27_1403,MusicAffectPsychophysiology2019,3.0.5,60.50598627328441,
To what extent did the music make you feel ,ACTIVE,30MonoWAV/30MonoT4.wav,2,1,4,16,,,,,0,0,0,15,0,0,0,9,,,3,3.7179409919990576,4,1.8853205010018428,3,2.5671587600008934,3,2.3855109920041286,,,062,001,2019_May_27_1403,MusicAffectPsychophysiology2019,3.0.5,60.50598627328441,
To what extent did the music make you feel ,ASHAMED,30MonoWAV/30MonoT4.wav,2,1,4,16,,,,,0,0,0,15,0,1,1,4,,,,,,,,,1,1.5845469650012092,,,062,001,2019_May_27_1403,MusicAffectPsychophysiology2019,3.0.5,60.50598627328441,
To what extent did the music make you feel ,FRUSTRATED,30MonoWAV/30MonoT4.wav,2,1,4,16,,,,,0,0,0,15,0,2,2,3,,,,,,,,,2,2.085278605001804,,,062,001,2019_May_27_1403,MusicAffectPsychophysiology2019,3.0.5,60.50598627328441,
To what extent did the music make you feel ,SCARED,30MonoWAV/30MonoT4.wav,2,1,4,16,,,,,0,0,0,15,0,3,3,11,,,,,,,,,1,1.1347635150013957,,,062,001,2019_May_27_1403,MusicAffectPsychophysiology2019,3.0.5,60.50598627328441,
To what extent did the music make you feel ,ALERT,30MonoWAV/30MonoT4.wav,2,1,4,16,,,,,0,0,0,15,0,4,4,8,,,,,,,,,1,0.9356425289952313,,,062,001,2019_May_27_1403,MusicAffectPsychophysiology2019,3.0.5,60.50598627328441,
To what extent did the music make you feel ,SAD,30MonoWAV/30MonoT4.wav,2,1,4,16,,,,,0,0,0,15,0,5,5,0,,,,,,,,,1,1.0850475330007612,,,062,001,2019_May_27_1403,MusicAffectPsychophysiology2019,3.0.5,60.50598627328441,
To what extent did the music make you feel ,ANXIOUS ,30MonoWAV/30MonoT4.wav,2,1,4,16,,,,,0,0,0,15,0,6,6,1,,,,,,,,,2,1.0161214359977748,,,062,001,2019_May_27_1403,MusicAffectPsychophysiology2019,3.0.5,60.50598627328441,
To what extent did the music make you feel ,EXCITED,30MonoWAV/30MonoT4.wav,2,1,4,16,,,,,0,0,0,15,0,7,7,7,,,,,,,,,2,1.4014147490015603,,,062,001,2019_May_27_1403,MusicAffectPsychophysiology2019,3.0.5,60.50598627328441,
To what extent did the music make you feel ,HAPPY,30MonoWAV/30MonoT4.wav,2,1,4,16,,,,,0,0,0,15,0,8,8,6,,,,,,,,,3,2.0848524530010764,,,062,001,2019_May_27_1403,MusicAffectPsychophysiology2019,3.0.5,60.50598627328441,
To what extent did the music make you feel ,TENDER,30MonoWAV/30MonoT4.wav,2,1,4,16,,,,,0,0,0,15,0,9,9,10,,,,,,,,,2,1.4511977850052062,,,062,001,2019_May_27_1403,MusicAffectPsychophysiology2019,3.0.5,60.50598627328441,
To what extent did the music make you feel ,ANGRY,30MonoWAV/30MonoT4.wav,2,1,4,16,,,,,0,0,0,15,0,10,10,2,,,,,,,,,2,1.351465293999354,,,062,001,2019_May_27_1403,MusicAffectPsychophysiology2019,3.0.5,60.50598627328441,
To what extent did the music make you feel ,GUILTY,30MonoWAV/30MonoT4.wav,2,1,4,16,,,,,0,0,0,15,0,11,11,5,,,,,,,,,1,1.1522636259978754,,,062,001,2019_May_27_1403,MusicAffectPsychophysiology2019,3.0.5,60.50598627328441,
,,30MonoWAV/30MonoT4.wav,2,1,4,16,,,,,0,0,0,15,,,,,,,,,,,,,,,,,062,001,2019_May_27_1403,MusicAffectPsychophysiology2019,3.0.5,60.50598627328441,
To what extent did the music make you feel ,TENDER,30MonoWAV/30MonoH2.wav,2,2,1,6,,,,,0,1,1,5,0,0,0,10,,,3,6.391411675998825,4,2.9186663560030865,3,3.1002206039993325,3,2.301446028002829,,,062,001,2019_May_27_1403,MusicAffectPsychophysiology2019,3.0.5,60.50598627328441,
To what extent did the music make you feel ,ALERT,30MonoWAV/30MonoH2.wav,2,2,1,6,,,,,0,1,1,5,0,1,1,8,,,,,,,,,3,1.9501778740013833,,,062,001,2019_May_27_1403,MusicAffectPsychophysiology2019,3.0.5,60.50598627328441,
To what extent did the music make you feel ,SCARED,30MonoWAV/30MonoH2.wav,2,2,1,6,,,,,0,1,1,5,0,2,2,11,,,,,,,,,3,1.668818794998515,,,062,001,2019_May_27_1403,MusicAffectPsychophysiology2019,3.0.5,60.50598627328441,
To what extent did the music make you feel ,ACTIVE,30MonoWAV/30MonoH2.wav,2,2,1,6,,,,,0,1,1,5,0,3,3,9,,,,,,,,,4,2.1348477469946374,,,062,001,2019_May_27_1403,MusicAffectPsychophysiology2019,3.0.5,60.50598627328441,
To what extent did the music make you feel ,ASHAMED,30MonoWAV/30MonoH2.wav,2,2,1,6,,,,,0,1,1,5,0,4,4,4,,,,,,,,,1,1.834246455997345,,,062,001,2019_May_27_1403,MusicAffectPsychophysiology2019,3.0.5,60.50598627328441,
To what extent did the music make you feel ,ANGRY,30MonoWAV/30MonoH2.wav,2,2,1,6,,,,,0,1,1,5,0,5,5,2,,,,,,,,,1,1.0000255430059042,,,062,001,2019_May_27_1403,MusicAffectPsychophysiology2019,3.0.5,60.50598627328441,
To what extent did the music make you feel ,ANXIOUS ,30MonoWAV/30MonoH2.wav,2,2,1,6,,,,,0,1,1,5,0,6,6,1,,,,,,,,,1,1.1685144689981826,,,062,001,2019_May_27_1403,MusicAffectPsychophysiology2019,3.0.5,60.50598627328441,
To what extent did the music make you feel ,GUILTY,30MonoWAV/30MonoH2.wav,2,2,1,6,,,,,0,1,1,5,0,7,7,5,,,,,,,,,1,0.8521429009997519,,,062,001,2019_May_27_1403,MusicAffectPsychophysiology2019,3.0.5,60.50598627328441,
To what extent did the music make you feel ,SAD,30MonoWAV/30MonoH2.wav,2,2,1,6,,,,,0,1,1,5,0,8,8,0,,,,,,,,,1,0.9850603099985165,,,062,001,2019_May_27_1403,MusicAffectPsychophysiology2019,3.0.5,60.50598627328441,
To what extent did the music make you feel ,HAPPY,30MonoWAV/30MonoH2.wav,2,2,1,6,,,,,0,1,1,5,0,9,9,6,,,,,,,,,3,1.8677596540001105,,,062,001,2019_May_27_1403,MusicAffectPsychophysiology2019,3.0.5,60.50598627328441,
To what extent did the music make you feel ,EXCITED,30MonoWAV/30MonoH2.wav,2,2,1,6,,,,,0,1,1,5,0,10,10,7,,,,,,,,,2,1.449825873998634,,,062,001,2019_May_27_1403,MusicAffectPsychophysiology2019,3.0.5,60.50598627328441,
To what extent did the music make you feel ,FRUSTRATED,30MonoWAV/30MonoH2.wav,2,2,1,6,,,,,0,1,1,5,0,11,11,3,,,,,,,,,1,2.4168443080052384,,,062,001,2019_May_27_1403,MusicAffectPsychophysiology2019,3.0.5,60.50598627328441,
,,30MonoWAV/30MonoH2.wav,2,2,1,6,,,,,0,1,1,5,,,,,,,,,,,,,,,,,062,001,2019_May_27_1403,MusicAffectPsychophysiology2019,3.0.5,60.50598627328441,
To what extent did the music make you feel ,FRUSTRATED,30MonoWAV/30MonoH1.wav,2,2,1,5,,,,,0,2,2,4,0,0,0,3,,,3,2.801731501996983,4,2.167947877998813,3,3.668305325998517,2,2.1183178670034977,,,062,001,2019_May_27_1403,MusicAffectPsychophysiology2019,3.0.5,60.50598627328441,
To what extent did the music make you feel ,SCARED,30MonoWAV/30MonoH1.wav,2,2,1,5,,,,,0,2,2,4,0,1,1,11,,,,,,,,,1,2.5356524840026395,,,062,001,2019_May_27_1403,MusicAffectPsychophysiology2019,3.0.5,60.50598627328441,
To what extent did the music make you feel ,TENDER,30MonoWAV/30MonoH1.wav,2,2,1,5,,,,,0,2,2,4,0,2,2,10,,,,,,,,,2,2.885190879998845,,,062,001,2019_May_27_1403,MusicAffectPsychophysiology2019,3.0.5,60.50598627328441,
To what extent did the music make you feel ,HAPPY,30MonoWAV/30MonoH1.wav,2,2,1,5,,,,,0,2,2,4,0,3,3,6,,,,,,,,,3,2.1015294960016035,,,062,001,2019_May_27_1403,MusicAffectPsychophysiology2019,3.0.5,60.50598627328441,
To what extent did the music make you feel ,ANGRY,30MonoWAV/30MonoH1.wav,2,2,1,5,,,,,0,2,2,4,0,4,4,2,,,,,,,,,1,1.8348313460010104,,,062,001,2019_May_27_1403,MusicAffectPsychophysiology2019,3.0.5,60.50598627328441,
To what extent did the music make you feel ,SAD,30MonoWAV/30MonoH1.wav,2,2,1,5,,,,,0,2,2,4,0,5,5,0,,,,,,,,,2,2.0668625269972836,,,062,001,2019_May_27_1403,MusicAffectPsychophysiology2019,3.0.5,60.50598627328441,
To what extent did the music make you feel ,GUILTY,30MonoWAV/30MonoH1.wav,2,2,1,5,,,,,0,2,2,4,0,6,6,5,,,,,,,,,1,1.33627109000372,,,062,001,2019_May_27_1403,MusicAffectPsychophysiology2019,3.0.5,60.50598627328441,
To what extent did the music make you feel ,ACTIVE,30MonoWAV/30MonoH1.wav,2,2,1,5,,,,,0,2,2,4,0,7,7,9,,,,,,,,,3,1.3179772709991084,,,062,001,2019_May_27_1403,MusicAffectPsychophysiology2019,3.0.5,60.50598627328441,
To what extent did the music make you feel ,ANXIOUS ,30MonoWAV/30MonoH1.wav,2,2,1,5,,,,,0,2,2,4,0,8,8,1,,,,,,,,,2,3.1169475200003944,,,062,001,2019_May_27_1403,MusicAffectPsychophysiology2019,3.0.5,60.50598627328441,
To what extent did the music make you feel ,EXCITED,30MonoWAV/30MonoH1.wav,2,2,1,5,,,,,0,2,2,4,0,9,9,7,,,,,,,,,4,1.252434706002532,,,062,001,2019_May_27_1403,MusicAffectPsychophysiology2019,3.0.5,60.50598627328441,
To what extent did the music make you feel ,ALERT,30MonoWAV/30MonoH1.wav,2,2,1,5,,,,,0,2,2,4,0,10,10,8,,,,,,,,,1,1.2849055490005412,,,062,001,2019_May_27_1403,MusicAffectPsychophysiology2019,3.0.5,60.50598627328441,
To what extent did the music make you feel ,ASHAMED,30MonoWAV/30MonoH1.wav,2,2,1,5,,,,,0,2,2,4,0,11,11,4,,,,,,,,,1,0.9016602759948,,,062,001,2019_May_27_1403,MusicAffectPsychophysiology2019,3.0.5,60.50598627328441,
,,30MonoWAV/30MonoH1.wav,2,2,1,5,,,,,0,2,2,4,,,,,,,,,,,,,,,,,062,001,2019_May_27_1403,MusicAffectPsychophysiology2019,3.0.5,60.50598627328441,
To what extent did the music make you feel ,ASHAMED,30MonoWAV/30MonoF2.wav,1,2,2,2,,,,,0,3,3,1,0,0,0,4,,,4,5.951584868998907,2,2.5342625039993436,1,2.1182781789975706,2,3.7672481920017162,,,062,001,2019_May_27_1403,MusicAffectPsychophysiology2019,3.0.5,60.50598627328441,
To what extent did the music make you feel ,HAPPY,30MonoWAV/30MonoF2.wav,1,2,2,2,,,,,0,3,3,1,0,1,1,6,,,,,,,,,1,2.9362596930004656,,,062,001,2019_May_27_1403,MusicAffectPsychophysiology2019,3.0.5,60.50598627328441,
To what extent did the music make you feel ,ANXIOUS ,30MonoWAV/30MonoF2.wav,1,2,2,2,,,,,0,3,3,1,0,2,2,1,,,,,,,,,4,2.401404051001009,,,062,001,2019_May_27_1403,MusicAffectPsychophysiology2019,3.0.5,60.50598627328441,
To what extent did the music make you feel ,SAD,30MonoWAV/30MonoF2.wav,1,2,2,2,,,,,0,3,3,1,0,3,3,0,,,,,,,,,2,1.634946657999535,,,062,001,2019_May_27_1403,MusicAffectPsychophysiology2019,3.0.5,60.50598627328441,
To what extent did the music make you feel ,EXCITED,30MonoWAV/30MonoF2.wav,1,2,2,2,,,,,0,3,3,1,0,4,4,7,,,,,,,,,1,3.1849424579995684,,,062,001,2019_May_27_1403,MusicAffectPsychophysiology2019,3.0.5,60.50598627328441,
To what extent did the music make you feel ,TENDER,30MonoWAV/30MonoF2.wav,1,2,2,2,,,,,0,3,3,1,0,5,5,10,,,,,,,,,2,1.5848795780038927,,,062,001,2019_May_27_1403,MusicAffectPsychophysiology2019,3.0.5,60.50598627328441,
To what extent did the music make you feel ,ACTIVE,30MonoWAV/30MonoF2.wav,1,2,2,2,,,,,0,3,3,1,0,6,6,9,,,,,,,,,2,1.847992096998496,,,062,001,2019_May_27_1403,MusicAffectPsychophysiology2019,3.0.5,60.50598627328441,
To what extent did the music make you feel ,ANGRY,30MonoWAV/30MonoF2.wav,1,2,2,2,,,,,0,3,3,1,0,7,7,2,,,,,,,,,2,2.6184275439954945,,,062,001,2019_May_27_1403,MusicAffectPsychophysiology2019,3.0.5,60.50598627328441,
To what extent did the music make you feel ,ALERT,30MonoWAV/30MonoF2.wav,1,2,2,2,,,,,0,3,3,1,0,8,8,8,,,,,,,,,2,1.168441036999866,,,062,001,2019_May_27_1403,MusicAffectPsychophysiology2019,3.0.5,60.50598627328441,
To what extent did the music make you feel ,FRUSTRATED,30MonoWAV/30MonoF2.wav,1,2,2,2,,,,,0,3,3,1,0,9,9,3,,,,,,,,,2,0.9182631260046037,,,062,001,2019_May_27_1403,MusicAffectPsychophysiology2019,3.0.5,60.50598627328441,
To what extent did the music make you feel ,GUILTY,30MonoWAV/30MonoF2.wav,1,2,2,2,,,,,0,3,3,1,0,10,10,5,,,,,,,,,2,1.7675536120004836,,,062,001,2019_May_27_1403,MusicAffectPsychophysiology2019,3.0.5,60.50598627328441,
To what extent did the music make you feel ,SCARED,30MonoWAV/30MonoF2.wav,1,2,2,2,,,,,0,3,3,1,0,11,11,11,,,,,,,,,3,4.218012964003719,,,062,001,2019_May_27_1403,MusicAffectPsychophysiology2019,3.0.5,60.50598627328441,
,,30MonoWAV/30MonoF2.wav,1,2,2,2,,,,,0,3,3,1,,,,,,,,,,,,,,,,,062,001,2019_May_27_1403,MusicAffectPsychophysiology2019,3.0.5,60.50598627328441,
To what extent did the music make you feel ,FRUSTRATED,30MonoWAV/30MonoT3.wav,2,1,4,15,,,,,0,4,4,14,0,0,0,3,,,4,6.550323793999269,4,1.601926426999853,3,2.782165308999538,1,1.252411730994936,,,062,001,2019_May_27_1403,MusicAffectPsychophysiology2019,3.0.5,60.50598627328441,
To what extent did the music make you feel ,ACTIVE,30MonoWAV/30MonoT3.wav,2,1,4,15,,,,,0,4,4,14,0,1,1,9,,,,,,,,,3,1.986432372003037,,,062,001,2019_May_27_1403,MusicAffectPsychophysiology2019,3.0.5,60.50598627328441,
To what extent did the music make you feel ,SAD,30MonoWAV/30MonoT3.wav,2,1,4,15,,,,,0,4,4,14,0,2,2,0,,,,,,,,,2,1.4181922179996036,,,062,001,2019_May_27_1403,MusicAffectPsychophysiology2019,3.0.5,60.50598627328441,
To what extent did the music make you feel ,ASHAMED,30MonoWAV/30MonoT3.wav,2,1,4,15,,,,,0,4,4,14,0,3,3,4,,,,,,,,,1,1.2687046999999438,,,062,001,2019_May_27_1403,MusicAffectPsychophysiology2019,3.0.5,60.50598627328441,
To what extent did the music make you feel ,SCARED,30MonoWAV/30MonoT3.wav,2,1,4,15,,,,,0,4,4,14,0,4,4,11,,,,,,,,,1,1.0850238440034445,,,062,001,2019_May_27_1403,MusicAffectPsychophysiology2019,3.0.5,60.50598627328441,
To what extent did the music make you feel ,GUILTY,30MonoWAV/30MonoT3.wav,2,1,4,15,,,,,0,4,4,14,0,5,5,5,,,,,,,,,1,0.9852439629976288,,,062,001,2019_May_27_1403,MusicAffectPsychophysiology2019,3.0.5,60.50598627328441,
To what extent did the music make you feel ,ANGRY,30MonoWAV/30MonoT3.wav,2,1,4,15,,,,,0,4,4,14,0,6,6,2,,,,,,,,,1,1.8347152130008908,,,062,001,2019_May_27_1403,MusicAffectPsychophysiology2019,3.0.5,60.50598627328441,
To what extent did the music make you feel ,ANXIOUS ,30MonoWAV/30MonoT3.wav,2,1,4,15,,,,,0,4,4,14,0,7,7,1,,,,,,,,,2,1.7686900530025014,,,062,001,2019_May_27_1403,MusicAffectPsychophysiology2019,3.0.5,60.50598627328441,
To what extent did the music make you feel ,HAPPY,30MonoWAV/30MonoT3.wav,2,1,4,15,,,,,0,4,4,14,0,8,8,6,,,,,,,,,3,2.40163401299651,,,062,001,2019_May_27_1403,MusicAffectPsychophysiology2019,3.0.5,60.50598627328441,
To what extent did the music make you feel ,ALERT,30MonoWAV/30MonoT3.wav,2,1,4,15,,,,,0,4,4,14,0,9,9,8,,,,,,,,,1,1.7850562109961174,,,062,001,2019_May_27_1403,MusicAffectPsychophysiology2019,3.0.5,60.50598627328441,
To what extent did the music make you feel ,TENDER,30MonoWAV/30MonoT3.wav,2,1,4,15,,,,,0,4,4,14,0,10,10,10,,,,,,,,,2,1.535487043998728,,,062,001,2019_May_27_1403,MusicAffectPsychophysiology2019,3.0.5,60.50598627328441,
To what extent did the music make you feel ,EXCITED,30MonoWAV/30MonoT3.wav,2,1,4,15,,,,,0,4,4,14,0,11,11,7,,,,,,,,,2,1.6185161449975567,,,062,001,2019_May_27_1403,MusicAffectPsychophysiology2019,3.0.5,60.50598627328441,
,,30MonoWAV/30MonoT3.wav,2,1,4,15,,,,,0,4,4,14,,,,,,,,,,,,,,,,,062,001,2019_May_27_1403,MusicAffectPsychophysiology2019,3.0.5,60.50598627328441,
To what extent did the music make you feel ,ALERT,30MonoWAV/30MonoS1.wav,1,1,3,9,,,,,0,5,5,8,0,0,0,8,,,2,3.4848722579990863,2,3.300527535000583,2,1.7524203320062952,2,3.4847255860004225,,,062,001,2019_May_27_1403,MusicAffectPsychophysiology2019,3.0.5,60.50598627328441,
To what extent did the music make you feel ,FRUSTRATED,30MonoWAV/30MonoS1.wav,1,1,3,9,,,,,0,5,5,8,0,1,1,3,,,,,,,,,2,1.1686292469967157,,,062,001,2019_May_27_1403,MusicAffectPsychophysiology2019,3.0.5,60.50598627328441,
To what extent did the music make you feel ,HAPPY,30MonoWAV/30MonoS1.wav,1,1,3,9,,,,,0,5,5,8,0,2,2,6,,,,,,,,,2,1.0517309849965386,,,062,001,2019_May_27_1403,MusicAffectPsychophysiology2019,3.0.5,60.50598627328441,
To what extent did the music make you feel ,ASHAMED,30MonoWAV/30MonoS1.wav,1,1,3,9,,,,,0,5,5,8,0,3,3,4,,,,,,,,,3,4.051819681997586,,,062,001,2019_May_27_1403,MusicAffectPsychophysiology2019,3.0.5,60.50598627328441,
To what extent did the music make you feel ,ANXIOUS ,30MonoWAV/30MonoS1.wav,1,1,3,9,,,,,0,5,5,8,0,4,4,1,,,,,,,,,3,1.7177192739982274,,,062,001,2019_May_27_1403,MusicAffectPsychophysiology2019,3.0.5,60.50598627328441,
To what extent did the music make you feel ,TENDER,30MonoWAV/30MonoS1.wav,1,1,3,9,,,,,0,5,5,8,0,5,5,10,,,,,,,,,2,1.1676288759990712,,,062,001,2019_May_27_1403,MusicAffectPsychophysiology2019,3.0.5,60.50598627328441,
To what extent did the music make you feel ,ANGRY,30MonoWAV/30MonoS1.wav,1,1,3,9,,,,,0,5,5,8,0,6,6,2,,,,,,,,,1,1.9178294399971492,,,062,001,2019_May_27_1403,MusicAffectPsychophysiology2019,3.0.5,60.50598627328441,
To what extent did the music make you feel ,SAD,30MonoWAV/30MonoS1.wav,1,1,3,9,,,,,0,5,5,8,0,7,7,0,,,,,,,,,3,3.5344614340065164,,,062,001,2019_May_27_1403,MusicAffectPsychophysiology2019,3.0.5,60.50598627328441,
To what extent did the music make you feel ,GUILTY,30MonoWAV/30MonoS1.wav,1,1,3,9,,,,,0,5,5,8,0,8,8,5,,,,,,,,,2,1.684596059996693,,,062,001,2019_May_27_1403,MusicAffectPsychophysiology2019,3.0.5,60.50598627328441,
To what extent did the music make you feel ,ACTIVE,30MonoWAV/30MonoS1.wav,1,1,3,9,,,,,0,5,5,8,0,9,9,9,,,,,,,,,2,3.6010555460015894,,,062,001,2019_May_27_1403,MusicAffectPsychophysiology2019,3.0.5,60.50598627328441,
To what extent did the music make you feel ,EXCITED,30MonoWAV/30MonoS1.wav,1,1,3,9,,,,,0,5,5,8,0,10,10,7,,,,,,,,,1,1.7827614880006877,,,062,001,2019_May_27_1403,MusicAffectPsychophysiology2019,3.0.5,60.50598627328441,
To what extent did the music make you feel ,SCARED,30MonoWAV/30MonoS1.wav,1,1,3,9,,,,,0,5,5,8,0,11,11,11,,,,,,,,,2,1.4186281109941774,,,062,001,2019_May_27_1403,MusicAffectPsychophysiology2019,3.0.5,60.50598627328441,
,,30MonoWAV/30MonoS1.wav,1,1,3,9,,,,,0,5,5,8,,,,,,,,,,,,,,,,,062,001,2019_May_27_1403,MusicAffectPsychophysiology2019,3.0.5,60.50598627328441,
To what extent did the music make you feel ,SAD,30MonoWAV/30MonoT2.wav,2,1,4,14,,,,,0,6,6,13,0,0,0,0,,,3,2.650348798997584,3,2.185058308998123,3,3.6850056929979473,2,1.7687366970058065,,,062,001,2019_May_27_1403,MusicAffectPsychophysiology2019,3.0.5,60.50598627328441,
To what extent did the music make you feel ,EXCITED,30MonoWAV/30MonoT2.wav,2,1,4,14,,,,,0,6,6,13,0,1,1,7,,,,,,,,,2,1.286055574004422,,,062,001,2019_May_27_1403,MusicAffectPsychophysiology2019,3.0.5,60.50598627328441,
To what extent did the music make you feel ,GUILTY,30MonoWAV/30MonoT2.wav,2,1,4,14,,,,,0,6,6,13,0,2,2,5,,,,,,,,,1,1.3514578100002836,,,062,001,2019_May_27_1403,MusicAffectPsychophysiology2019,3.0.5,60.50598627328441,
To what extent did the music make you feel ,ANXIOUS ,30MonoWAV/30MonoT2.wav,2,1,4,14,,,,,0,6,6,13,0,3,3,1,,,,,,,,,2,1.1023120489990106,,,062,001,2019_May_27_1403,MusicAffectPsychophysiology2019,3.0.5,60.50598627328441,
To what extent did the music make you feel ,ACTIVE,30MonoWAV/30MonoT2.wav,2,1,4,14,,,,,0,6,6,13,0,4,4,9,,,,,,,,,2,2.5337193710001884,,,062,001,2019_May_27_1403,MusicAffectPsychophysiology2019,3.0.5,60.50598627328441,
To what extent did the music make you feel ,SCARED,30MonoWAV/30MonoT2.wav,2,1,4,14,,,,,0,6,6,13,0,5,5,11,,,,,,,,,1,1.3681644600001164,,,062,001,2019_May_27_1403,MusicAffectPsychophysiology2019,3.0.5,60.50598627328441,
To what extent did the music make you feel ,ANGRY,30MonoWAV/30MonoT2.wav,2,1,4,14,,,,,0,6,6,13,0,6,6,2,,,,,,,,,1,1.1517396080016624,,,062,001,2019_May_27_1403,MusicAffectPsychophysiology2019,3.0.5,60.50598627328441,
To what extent did the music make you feel ,TENDER,30MonoWAV/30MonoT2.wav,2,1,4,14,,,,,0,6,6,13,0,7,7,10,,,,,,,,,1,0.8676058009950793,,,062,001,2019_May_27_1403,MusicAffectPsychophysiology2019,3.0.5,60.50598627328441,
To what extent did the music make you feel ,FRUSTRATED,30MonoWAV/30MonoT2.wav,2,1,4,14,,,,,0,6,6,13,0,8,8,3,,,,,,,,,2,1.501109799995902,,,062,001,2019_May_27_1403,MusicAffectPsychophysiology2019,3.0.5,60.50598627328441,
To what extent did the music make you feel ,HAPPY,30MonoWAV/30MonoT2.wav,2,1,4,14,,,,,0,6,6,13,0,9,9,6,,,,,,,,,2,1.8352486360017792,,,062,001,2019_May_27_1403,MusicAffectPsychophysiology2019,3.0.5,60.50598627328441,
To what extent did the music make you feel ,ASHAMED,30MonoWAV/30MonoT2.wav,2,1,4,14,,,,,0,6,6,13,0,10,10,4,,,,,,,,,1,2.467955254003755,,,062,001,2019_May_27_1403,MusicAffectPsychophysiology2019,3.0.5,60.50598627328441,
To what extent did the music make you feel ,ALERT,30MonoWAV/30MonoT2.wav,2,1,4,14,,,,,0,6,6,13,0,11,11,8,,,,,,,,,1,2.96811631500168,,,062,001,2019_May_27_1403,MusicAffectPsychophysiology2019,3.0.5,60.50598627328441,
,,30MonoWAV/30MonoT2.wav,2,1,4,14,,,,,0,6,6,13,,,,,,,,,,,,,,,,,062,001,2019_May_27_1403,MusicAffectPsychophysiology2019,3.0.5,60.50598627328441,
To what extent did the music make you feel ,SCARED,30MonoWAV/30MonoF1.wav,1,2,2,1,,,,,0,7,7,0,0,0,0,11,,,2,3.3347198229967034,2,2.716473339998629,2,2.0017398960044375,2,1.4357690780016128,,,062,001,2019_May_27_1403,MusicAffectPsychophysiology2019,3.0.5,60.50598627328441,
To what extent did the music make you feel ,EXCITED,30MonoWAV/30MonoF1.wav,1,2,2,1,,,,,0,7,7,0,0,1,1,7,,,,,,,,,2,2.8180001849978,,,062,001,2019_May_27_1403,MusicAffectPsychophysiology2019,3.0.5,60.50598627328441,
To what extent did the music make you feel ,ALERT,30MonoWAV/30MonoF1.wav,1,2,2,1,,,,,0,7,7,0,0,2,2,8,,,,,,,,,2,1.901363400000264,,,062,001,2019_May_27_1403,MusicAffectPsychophysiology2019,3.0.5,60.50598627328441,
To what extent did the music make you feel ,FRUSTRATED,30MonoWAV/30MonoF1.wav,1,2,2,1,,,,,0,7,7,0,0,3,3,3,,,,,,,,,3,1.4842788609967101,,,062,001,2019_May_27_1403,MusicAffectPsychophysiology2019,3.0.5,60.50598627328441,
To what extent did the music make you feel ,ANXIOUS ,30MonoWAV/30MonoF1.wav,1,2,2,1,,,,,0,7,7,0,0,4,4,1,,,,,,,,,3,1.2019970479959738,,,062,001,2019_May_27_1403,MusicAffectPsychophysiology2019,3.0.5,60.50598627328441,
To what extent did the music make you feel ,SAD,30MonoWAV/30MonoF1.wav,1,2,2,1,,,,,0,7,7,0,0,5,5,0,,,,,,,,,4,1.4348027480009478,,,062,001,2019_May_27_1403,MusicAffectPsychophysiology2019,3.0.5,60.50598627328441,
To what extent did the music make you feel ,TENDER,30MonoWAV/30MonoF1.wav,1,2,2,1,,,,,0,7,7,0,0,6,6,10,,,,,,,,,3,1.984666438998829,,,062,001,2019_May_27_1403,MusicAffectPsychophysiology2019,3.0.5,60.50598627328441,
To what extent did the music make you feel ,ACTIVE,30MonoWAV/30MonoF1.wav,1,2,2,1,,,,,0,7,7,0,0,7,7,9,,,,,,,,,2,2.234131231001811,,,062,001,2019_May_27_1403,MusicAffectPsychophysiology2019,3.0.5,60.50598627328441,
To what extent did the music make you feel ,ANGRY,30MonoWAV/30MonoF1.wav,1,2,2,1,,,,,0,7,7,0,0,8,8,2,,,,,,,,,4,2.5678988939980627,,,062,001,2019_May_27_1403,MusicAffectPsychophysiology2019,3.0.5,60.50598627328441,
To what extent did the music make you feel ,HAPPY,30MonoWAV/30MonoF1.wav,1,2,2,1,,,,,0,7,7,0,0,9,9,6,,,,,,,,,2,2.251574611997057,,,062,001,2019_May_27_1403,MusicAffectPsychophysiology2019,3.0.5,60.50598627328441,
To what extent did the music make you feel ,GUILTY,30MonoWAV/30MonoF1.wav,1,2,2,1,,,,,0,7,7,0,0,10,10,5,,,,,,,,,1,1.9513740900001721,,,062,001,2019_May_27_1403,MusicAffectPsychophysiology2019,3.0.5,60.50598627328441,
To what extent did the music make you feel ,ASHAMED,30MonoWAV/30MonoF1.wav,1,2,2,1,,,,,0,7,7,0,0,11,11,4,,,,,,,,,2,4.817663039000763,,,062,001,2019_May_27_1403,MusicAffectPsychophysiology2019,3.0.5,60.50598627328441,
,,30MonoWAV/30MonoF1.wav,1,2,2,1,,,,,0,7,7,0,,,,,,,,,,,,,,,,,062,001,2019_May_27_1403,MusicAffectPsychophysiology2019,3.0.5,60.50598627328441,
To what extent did the music make you feel ,TENDER,30MonoWAV/30MonoS3.wav,1,1,3,11,,,,,0,8,8,10,0,0,0,10,,,2,3.50234971500322,2,1.119128564001585,2,1.669525037999847,2,3.8023041089982144,,,062,001,2019_May_27_1403,MusicAffectPsychophysiology2019,3.0.5,60.50598627328441,
To what extent did the music make you feel ,FRUSTRATED,30MonoWAV/30MonoS3.wav,1,1,3,11,,,,,0,8,8,10,0,1,1,3,,,,,,,,,2,1.2854985559970373,,,062,001,2019_May_27_1403,MusicAffectPsychophysiology2019,3.0.5,60.50598627328441,
To what extent did the music make you feel ,SAD,30MonoWAV/30MonoS3.wav,1,1,3,11,,,,,0,8,8,10,0,2,2,0,,,,,,,,,3,2.584973513003206,,,062,001,2019_May_27_1403,MusicAffectPsychophysiology2019,3.0.5,60.50598627328441,
To what extent did the music make you feel ,ANGRY,30MonoWAV/30MonoS3.wav,1,1,3,11,,,,,0,8,8,10,0,3,3,2,,,,,,,,,4,1.0689418699985254,,,062,001,2019_May_27_1403,MusicAffectPsychophysiology2019,3.0.5,60.50598627328441,
To what extent did the music make you feel ,SCARED,30MonoWAV/30MonoS3.wav,1,1,3,11,,,,,0,8,8,10,0,4,4,11,,,,,,,,,4,1.167999265002436,,,062,001,2019_May_27_1403,MusicAffectPsychophysiology2019,3.0.5,60.50598627328441,
To what extent did the music make you feel ,ACTIVE,30MonoWAV/30MonoS3.wav,1,1,3,11,,,,,0,8,8,10,0,5,5,9,,,,,,,,,2,1.0676023420019192,,,062,001,2019_May_27_1403,MusicAffectPsychophysiology2019,3.0.5,60.50598627328441,
To what extent did the music make you feel ,ALERT,30MonoWAV/30MonoS3.wav,1,1,3,11,,,,,0,8,8,10,0,6,6,8,,,,,,,,,3,2.785151541000232,,,062,001,2019_May_27_1403,MusicAffectPsychophysiology2019,3.0.5,60.50598627328441,
To what extent did the music make you feel ,EXCITED,30MonoWAV/30MonoS3.wav,1,1,3,11,,,,,0,8,8,10,0,7,7,7,,,,,,,,,2,1.549349341999914,,,062,001,2019_May_27_1403,MusicAffectPsychophysiology2019,3.0.5,60.50598627328441,
To what extent did the music make you feel ,HAPPY,30MonoWAV/30MonoS3.wav,1,1,3,11,,,,,0,8,8,10,0,8,8,6,,,,,,,,,2,1.2843406590036466,,,062,001,2019_May_27_1403,MusicAffectPsychophysiology2019,3.0.5,60.50598627328441,
To what extent did the music make you feel ,ASHAMED,30MonoWAV/30MonoS3.wav,1,1,3,11,,,,,0,8,8,10,0,9,9,4,,,,,,,,,2,1.9688387670030352,,,062,001,2019_May_27_1403,MusicAffectPsychophysiology2019,3.0.5,60.50598627328441,
To what extent did the music make you feel ,GUILTY,30MonoWAV/30MonoS3.wav,1,1,3,11,,,,,0,8,8,10,0,10,10,5,,,,,,,,,2,0.9931127980016754,,,062,001,2019_May_27_1403,MusicAffectPsychophysiology2019,3.0.5,60.50598627328441,
To what extent did the music make you feel ,ANXIOUS ,30MonoWAV/30MonoS3.wav,1,1,3,11,,,,,0,8,8,10,0,11,11,1,,,,,,,,,2,1.954067272003158,,,062,001,2019_May_27_1403,MusicAffectPsychophysiology2019,3.0.5,60.50598627328441,
,,30MonoWAV/30MonoS3.wav,1,1,3,11,,,,,0,8,8,10,,,,,,,,,,,,,,,,,062,001,2019_May_27_1403,MusicAffectPsychophysiology2019,3.0.5,60.50598627328441,
To what extent did the music make you feel ,SAD,30MonoWAV/30MonoH4.wav,2,2,1,8,,,,,0,9,9,7,0,0,0,0,,,4,1.852960736003297,4,1.8519701659970451,3,2.5186621690008906,1,1.6520749650007929,,,062,001,2019_May_27_1403,MusicAffectPsychophysiology2019,3.0.5,60.50598627328441,
To what extent did the music make you feel ,SCARED,30MonoWAV/30MonoH4.wav,2,2,1,8,,,,,0,9,9,7,0,1,1,11,,,,,,,,,1,0.9683034159970703,,,062,001,2019_May_27_1403,MusicAffectPsychophysiology2019,3.0.5,60.50598627328441,
To what extent did the music make you feel ,ANXIOUS ,30MonoWAV/30MonoH4.wav,2,2,1,8,,,,,0,9,9,7,0,2,2,1,,,,,,,,,1,1.1014451759983785,,,062,001,2019_May_27_1403,MusicAffectPsychophysiology2019,3.0.5,60.50598627328441,
To what extent did the music make you feel ,TENDER,30MonoWAV/30MonoH4.wav,2,2,1,8,,,,,0,9,9,7,0,3,3,10,,,,,,,,,2,1.5663227509940043,,,062,001,2019_May_27_1403,MusicAffectPsychophysiology2019,3.0.5,60.50598627328441,
To what extent did the music make you feel ,ANGRY,30MonoWAV/30MonoH4.wav,2,2,1,8,,,,,0,9,9,7,0,4,4,2,,,,,,,,,1,1.0352073120011482,,,062,001,2019_May_27_1403,MusicAffectPsychophysiology2019,3.0.5,60.50598627328441,
To what extent did the music make you feel ,GUILTY,30MonoWAV/30MonoH4.wav,2,2,1,8,,,,,0,9,9,7,0,5,5,5,,,,,,,,,1,0.9676711089996388,,,062,001,2019_May_27_1403,MusicAffectPsychophysiology2019,3.0.5,60.50598627328441,
To what extent did the music make you feel ,ALERT,30MonoWAV/30MonoH4.wav,2,2,1,8,,,,,0,9,9,7,0,6,6,8,,,,,,,,,1,0.8696302710013697,,,062,001,2019_May_27_1403,MusicAffectPsychophysiology2019,3.0.5,60.50598627328441,
To what extent did the music make you feel ,ASHAMED,30MonoWAV/30MonoH4.wav,2,2,1,8,,,,,0,9,9,7,0,7,7,4,,,,,,,,,1,0.8014305840042653,,,062,001,2019_May_27_1403,MusicAffectPsychophysiology2019,3.0.5,60.50598627328441,
To what extent did the music make you feel ,ACTIVE,30MonoWAV/30MonoH4.wav,2,2,1,8,,,,,0,9,9,7,0,8,8,9,,,,,,,,,3,1.7190547670033993,,,062,001,2019_May_27_1403,MusicAffectPsychophysiology2019,3.0.5,60.50598627328441,
To what extent did the music make you feel ,HAPPY,30MonoWAV/30MonoH4.wav,2,2,1,8,,,,,0,9,9,7,0,9,9,6,,,,,,,,,3,1.5075121599948034,,,062,001,2019_May_27_1403,MusicAffectPsychophysiology2019,3.0.5,60.50598627328441,
To what extent did the music make you feel ,FRUSTRATED,30MonoWAV/30MonoH4.wav,2,2,1,8,,,,,0,9,9,7,0,10,10,3,,,,,,,,,2,1.2371317880024435,,,062,001,2019_May_27_1403,MusicAffectPsychophysiology2019,3.0.5,60.50598627328441,
To what extent did the music make you feel ,EXCITED,30MonoWAV/30MonoH4.wav,2,2,1,8,,,,,0,9,9,7,0,11,11,7,,,,,,,,,3,1.3031277949994546,,,062,001,2019_May_27_1403,MusicAffectPsychophysiology2019,3.0.5,60.50598627328441,
,,30MonoWAV/30MonoH4.wav,2,2,1,8,,,,,0,9,9,7,,,,,,,,,,,,,,,,,062,001,2019_May_27_1403,MusicAffectPsychophysiology2019,3.0.5,60.50598627328441,
To what extent did the music make you feel ,GUILTY,30MonoWAV/30MonoT1.wav,2,1,4,13,,,,,0,10,10,12,0,0,0,5,,,2,3.2510463540020282,2,1.735586983995745,2,1.2690015320040402,2,1.4005739389976952,,,062,001,2019_May_27_1403,MusicAffectPsychophysiology2019,3.0.5,60.50598627328441,
To what extent did the music make you feel ,TENDER,30MonoWAV/30MonoT1.wav,2,1,4,13,,,,,0,10,10,12,0,1,1,10,,,,,,,,,2,1.5347765239930595,,,062,001,2019_May_27_1403,MusicAffectPsychophysiology2019,3.0.5,60.50598627328441,
To what extent did the music make you feel ,FRUSTRATED,30MonoWAV/30MonoT1.wav,2,1,4,13,,,,,0,10,10,12,0,2,2,3,,,,,,,,,2,0.9001625589953619,,,062,001,2019_May_27_1403,MusicAffectPsychophysiology2019,3.0.5,60.50598627328441,
To what extent did the music make you feel ,EXCITED,30MonoWAV/30MonoT1.wav,2,1,4,13,,,,,0,10,10,12,0,3,3,7,,,,,,,,,2,0.9516043980038376,,,062,001,2019_May_27_1403,MusicAffectPsychophysiology2019,3.0.5,60.50598627328441,
To what extent did the music make you feel ,ANXIOUS ,30MonoWAV/30MonoT1.wav,2,1,4,13,,,,,0,10,10,12,0,4,4,1,,,,,,,,,4,3.6851816800044617,,,062,001,2019_May_27_1403,MusicAffectPsychophysiology2019,3.0.5,60.50598627328441,
To what extent did the music make you feel ,SAD,30MonoWAV/30MonoT1.wav,2,1,4,13,,,,,0,10,10,12,0,5,5,0,,,,,,,,,4,1.0845827070006635,,,062,001,2019_May_27_1403,MusicAffectPsychophysiology2019,3.0.5,60.50598627328441,
To what extent did the music make you feel ,ANGRY,30MonoWAV/30MonoT1.wav,2,1,4,13,,,,,0,10,10,12,0,6,6,2,,,,,,,,,2,1.9683063070042408,,,062,001,2019_May_27_1403,MusicAffectPsychophysiology2019,3.0.5,60.50598627328441,
To what extent did the music make you feel ,SCARED,30MonoWAV/30MonoT1.wav,2,1,4,13,,,,,0,10,10,12,0,7,7,11,,,,,,,,,1,1.3009137160042883,,,062,001,2019_May_27_1403,MusicAffectPsychophysiology2019,3.0.5,60.50598627328441,
To what extent did the music make you feel ,ALERT,30MonoWAV/30MonoT1.wav,2,1,4,13,,,,,0,10,10,12,0,8,8,8,,,,,,,,,1,1.0689330240056734,,,062,001,2019_May_27_1403,MusicAffectPsychophysiology2019,3.0.5,60.50598627328441,
To what extent did the music make you feel ,ASHAMED,30MonoWAV/30MonoT1.wav,2,1,4,13,,,,,0,10,10,12,0,9,9,4,,,,,,,,,1,1.1181889830040745,,,062,001,2019_May_27_1403,MusicAffectPsychophysiology2019,3.0.5,60.50598627328441,
To what extent did the music make you feel ,HAPPY,30MonoWAV/30MonoT1.wav,2,1,4,13,,,,,0,10,10,12,0,10,10,6,,,,,,,,,2,1.151451038000232,,,062,001,2019_May_27_1403,MusicAffectPsychophysiology2019,3.0.5,60.50598627328441,
To what extent did the music make you feel ,ACTIVE,30MonoWAV/30MonoT1.wav,2,1,4,13,,,,,0,10,10,12,0,11,11,9,,,,,,,,,2,1.200803325002198,,,062,001,2019_May_27_1403,MusicAffectPsychophysiology2019,3.0.5,60.50598627328441,
,,30MonoWAV/30MonoT1.wav,2,1,4,13,,,,,0,10,10,12,,,,,,,,,,,,,,,,,062,001,2019_May_27_1403,MusicAffectPsychophysiology2019,3.0.5,60.50598627328441,
To what extent did the music make you feel ,GUILTY,30MonoWAV/30MonoF3.wav,1,2,2,3,,,,,0,11,11,2,0,0,0,5,,,3,2.9678107500003534,2,1.9513789670018014,2,1.8678892259995337,1,2.3175638129978324,,,062,001,2019_May_27_1403,MusicAffectPsychophysiology2019,3.0.5,60.50598627328441,
To what extent did the music make you feel ,ALERT,30MonoWAV/30MonoF3.wav,1,2,2,3,,,,,0,11,11,2,0,1,1,8,,,,,,,,,1,0.851872890998493,,,062,001,2019_May_27_1403,MusicAffectPsychophysiology2019,3.0.5,60.50598627328441,
To what extent did the music make you feel ,FRUSTRATED,30MonoWAV/30MonoF3.wav,1,2,2,3,,,,,0,11,11,2,0,2,2,3,,,,,,,,,1,0.7027628010037006,,,062,001,2019_May_27_1403,MusicAffectPsychophysiology2019,3.0.5,60.50598627328441,
To what extent did the music make you feel ,SCARED,30MonoWAV/30MonoF3.wav,1,2,2,3,,,,,0,11,11,2,0,3,3,11,,,,,,,,,2,1.318507996002154,,,062,001,2019_May_27_1403,MusicAffectPsychophysiology2019,3.0.5,60.50598627328441,
To what extent did the music make you feel ,HAPPY,30MonoWAV/30MonoF3.wav,1,2,2,3,,,,,0,11,11,2,0,4,4,6,,,,,,,,,2,1.3016877670015674,,,062,001,2019_May_27_1403,MusicAffectPsychophysiology2019,3.0.5,60.50598627328441,
To what extent did the music make you feel ,ACTIVE,30MonoWAV/30MonoF3.wav,1,2,2,3,,,,,0,11,11,2,0,5,5,9,,,,,,,,,2,0.9518342619994655,,,062,001,2019_May_27_1403,MusicAffectPsychophysiology2019,3.0.5,60.50598627328441,
To what extent did the music make you feel ,ASHAMED,30MonoWAV/30MonoF3.wav,1,2,2,3,,,,,0,11,11,2,0,6,6,4,,,,,,,,,1,1.2684260870009894,,,062,001,2019_May_27_1403,MusicAffectPsychophysiology2019,3.0.5,60.50598627328441,
To what extent did the music make you feel ,EXCITED,30MonoWAV/30MonoF3.wav,1,2,2,3,,,,,0,11,11,2,0,7,7,7,,,,,,,,,2,1.6515024330001324,,,062,001,2019_May_27_1403,MusicAffectPsychophysiology2019,3.0.5,60.50598627328441,
To what extent did the music make you feel ,SAD,30MonoWAV/30MonoF3.wav,1,2,2,3,,,,,0,11,11,2,0,8,8,0,,,,,,,,,3,1.2692675070065889,,,062,001,2019_May_27_1403,MusicAffectPsychophysiology2019,3.0.5,60.50598627328441,
To what extent did the music make you feel ,TENDER,30MonoWAV/30MonoF3.wav,1,2,2,3,,,,,0,11,11,2,0,9,9,10,,,,,,,,,3,1.26644514399959,,,062,001,2019_May_27_1403,MusicAffectPsychophysiology2019,3.0.5,60.50598627328441,
To what extent did the music make you feel ,ANGRY,30MonoWAV/30MonoF3.wav,1,2,2,3,,,,,0,11,11,2,0,10,10,2,,,,,,,,,2,1.5352008789996034,,,062,001,2019_May_27_1403,MusicAffectPsychophysiology2019,3.0.5,60.50598627328441,
To what extent did the music make you feel ,ANXIOUS ,30MonoWAV/30MonoF3.wav,1,2,2,3,,,,,0,11,11,2,0,11,11,1,,,,,,,,,4,1.7008252189989435,,,062,001,2019_May_27_1403,MusicAffectPsychophysiology2019,3.0.5,60.50598627328441,
,,30MonoWAV/30MonoF3.wav,1,2,2,3,,,,,0,11,11,2,,,,,,,,,,,,,,,,,062,001,2019_May_27_1403,MusicAffectPsychophysiology2019,3.0.5,60.50598627328441,
To what extent did the music make you feel ,SAD,30MonoWAV/30MonoS4.wav,1,1,3,12,,,,,0,12,12,11,0,0,0,0,,,2,2.4012340720000793,1,2.9353222060017288,1,1.6347489030013094,4,1.701441828001407,,,062,001,2019_May_27_1403,MusicAffectPsychophysiology2019,3.0.5,60.50598627328441,
To what extent did the music make you feel ,FRUSTRATED,30MonoWAV/30MonoS4.wav,1,1,3,12,,,,,0,12,12,11,0,1,1,3,,,,,,,,,4,1.6185336779963109,,,062,001,2019_May_27_1403,MusicAffectPsychophysiology2019,3.0.5,60.50598627328441,
To what extent did the music make you feel ,ASHAMED,30MonoWAV/30MonoS4.wav,1,1,3,12,,,,,0,12,12,11,0,2,2,4,,,,,,,,,3,1.7681060410031932,,,062,001,2019_May_27_1403,MusicAffectPsychophysiology2019,3.0.5,60.50598627328441,
To what extent did the music make you feel ,SCARED,30MonoWAV/30MonoS4.wav,1,1,3,12,,,,,0,12,12,11,0,3,3,11,,,,,,,,,4,1.0515390890068375,,,062,001,2019_May_27_1403,MusicAffectPsychophysiology2019,3.0.5,60.50598627328441,
To what extent did the music make you feel ,ACTIVE,30MonoWAV/30MonoS4.wav,1,1,3,12,,,,,0,12,12,11,0,4,4,9,,,,,,,,,1,1.4507735169972875,,,062,001,2019_May_27_1403,MusicAffectPsychophysiology2019,3.0.5,60.50598627328441,
To what extent did the music make you feel ,GUILTY,30MonoWAV/30MonoS4.wav,1,1,3,12,,,,,0,12,12,11,0,5,5,5,,,,,,,,,3,1.6513591709954198,,,062,001,2019_May_27_1403,MusicAffectPsychophysiology2019,3.0.5,60.50598627328441,
To what extent did the music make you feel ,TENDER,30MonoWAV/30MonoS4.wav,1,1,3,12,,,,,0,12,12,11,0,6,6,10,,,,,,,,,3,1.018282237004314,,,062,001,2019_May_27_1403,MusicAffectPsychophysiology2019,3.0.5,60.50598627328441,
To what extent did the music make you feel ,ALERT,30MonoWAV/30MonoS4.wav,1,1,3,12,,,,,0,12,12,11,0,7,7,8,,,,,,,,,3,1.569567561004078,,,062,001,2019_May_27_1403,MusicAffectPsychophysiology2019,3.0.5,60.50598627328441,
To what extent did the music make you feel ,ANXIOUS ,30MonoWAV/30MonoS4.wav,1,1,3,12,,,,,0,12,12,11,0,8,8,1,,,,,,,,,4,1.1349075359976268,,,062,001,2019_May_27_1403,MusicAffectPsychophysiology2019,3.0.5,60.50598627328441,
To what extent did the music make you feel ,ANGRY,30MonoWAV/30MonoS4.wav,1,1,3,12,,,,,0,12,12,11,0,9,9,2,,,,,,,,,3,1.9850243540058727,,,062,001,2019_May_27_1403,MusicAffectPsychophysiology2019,3.0.5,60.50598627328441,
To what extent did the music make you feel ,HAPPY,30MonoWAV/30MonoS4.wav,1,1,3,12,,,,,0,12,12,11,0,10,10,6,,,,,,,,,1,1.1860061469997163,,,062,001,2019_May_27_1403,MusicAffectPsychophysiology2019,3.0.5,60.50598627328441,
To what extent did the music make you feel ,EXCITED,30MonoWAV/30MonoS4.wav,1,1,3,12,,,,,0,12,12,11,0,11,11,7,,,,,,,,,2,1.7852934199981974,,,062,001,2019_May_27_1403,MusicAffectPsychophysiology2019,3.0.5,60.50598627328441,
,,30MonoWAV/30MonoS4.wav,1,1,3,12,,,,,0,12,12,11,,,,,,,,,,,,,,,,,062,001,2019_May_27_1403,MusicAffectPsychophysiology2019,3.0.5,60.50598627328441,
To what extent did the music make you feel ,SCARED,30MonoWAV/30MonoS2.wav,1,1,3,10,,,,,0,13,13,9,0,0,0,11,,,1,2.6342097429951536,2,1.1179751669988036,1,1.4678529770026216,2,2.851891264996084,,,062,001,2019_May_27_1403,MusicAffectPsychophysiology2019,3.0.5,60.50598627328441,
To what extent did the music make you feel ,ACTIVE,30MonoWAV/30MonoS2.wav,1,1,3,10,,,,,0,13,13,9,0,1,1,9,,,,,,,,,2,1.202591626002686,,,062,001,2019_May_27_1403,MusicAffectPsychophysiology2019,3.0.5,60.50598627328441,
To what extent did the music make you feel ,ANXIOUS ,30MonoWAV/30MonoS2.wav,1,1,3,10,,,,,0,13,13,9,0,2,2,1,,,,,,,,,4,1.4521957839970128,,,062,001,2019_May_27_1403,MusicAffectPsychophysiology2019,3.0.5,60.50598627328441,
To what extent did the music make you feel ,SAD,30MonoWAV/30MonoS2.wav,1,1,3,10,,,,,0,13,13,9,0,3,3,0,,,,,,,,,4,1.6834843780015945,,,062,001,2019_May_27_1403,MusicAffectPsychophysiology2019,3.0.5,60.50598627328441,
To what extent did the music make you feel ,ANGRY,30MonoWAV/30MonoS2.wav,1,1,3,10,,,,,0,13,13,9,0,4,4,2,,,,,,,,,3,1.3004486069985433,,,062,001,2019_May_27_1403,MusicAffectPsychophysiology2019,3.0.5,60.50598627328441,
To what extent did the music make you feel ,TENDER,30MonoWAV/30MonoS2.wav,1,1,3,10,,,,,0,13,13,9,0,5,5,10,,,,,,,,,2,1.3014044029987417,,,062,001,2019_May_27_1403,MusicAffectPsychophysiology2019,3.0.5,60.50598627328441,
To what extent did the music make you feel ,FRUSTRATED,30MonoWAV/30MonoS2.wav,1,1,3,10,,,,,0,13,13,9,0,6,6,3,,,,,,,,,3,1.1017021229999955,,,062,001,2019_May_27_1403,MusicAffectPsychophysiology2019,3.0.5,60.50598627328441,
To what extent did the music make you feel ,HAPPY,30MonoWAV/30MonoS2.wav,1,1,3,10,,,,,0,13,13,9,0,7,7,6,,,,,,,,,1,1.2334939880020102,,,062,001,2019_May_27_1403,MusicAffectPsychophysiology2019,3.0.5,60.50598627328441,
To what extent did the music make you feel ,GUILTY,30MonoWAV/30MonoS2.wav,1,1,3,10,,,,,0,13,13,9,0,8,8,5,,,,,,,,,2,1.105187326000305,,,062,001,2019_May_27_1403,MusicAffectPsychophysiology2019,3.0.5,60.50598627328441,
To what extent did the music make you feel ,EXCITED,30MonoWAV/30MonoS2.wav,1,1,3,10,,,,,0,13,13,9,0,9,9,7,,,,,,,,,2,1.2023630600015167,,,062,001,2019_May_27_1403,MusicAffectPsychophysiology2019,3.0.5,60.50598627328441,
To what extent did the music make you feel ,ALERT,30MonoWAV/30MonoS2.wav,1,1,3,10,,,,,0,13,13,9,0,10,10,8,,,,,,,,,1,1.0526503449946176,,,062,001,2019_May_27_1403,MusicAffectPsychophysiology2019,3.0.5,60.50598627328441,
To what extent did the music make you feel ,ASHAMED,30MonoWAV/30MonoS2.wav,1,1,3,10,,,,,0,13,13,9,0,11,11,4,,,,,,,,,3,1.6204637850023573,,,062,001,2019_May_27_1403,MusicAffectPsychophysiology2019,3.0.5,60.50598627328441,
,,30MonoWAV/30MonoS2.wav,1,1,3,10,,,,,0,13,13,9,,,,,,,,,,,,,,,,,062,001,2019_May_27_1403,MusicAffectPsychophysiology2019,3.0.5,60.50598627328441,
To what extent did the music make you feel ,TENDER,30MonoWAV/30MonoF4.wav,1,2,2,4,,,,,0,14,14,3,0,0,0,10,,,3,3.6499768670037156,1,3.9014074860024266,1,1.6179292259985232,3,2.250382851001632,,,062,001,2019_May_27_1403,MusicAffectPsychophysiology2019,3.0.5,60.50598627328441,
To what extent did the music make you feel ,HAPPY,30MonoWAV/30MonoF4.wav,1,2,2,4,,,,,0,14,14,3,0,1,1,6,,,,,,,,,1,1.134337964002043,,,062,001,2019_May_27_1403,MusicAffectPsychophysiology2019,3.0.5,60.50598627328441,
To what extent did the music make you feel ,ANGRY,30MonoWAV/30MonoF4.wav,1,2,2,4,,,,,0,14,14,3,0,2,2,2,,,,,,,,,4,1.0485428079991834,,,062,001,2019_May_27_1403,MusicAffectPsychophysiology2019,3.0.5,60.50598627328441,
To what extent did the music make you feel ,ASHAMED,30MonoWAV/30MonoF4.wav,1,2,2,4,,,,,0,14,14,3,0,3,3,4,,,,,,,,,3,1.0182682919985382,,,062,001,2019_May_27_1403,MusicAffectPsychophysiology2019,3.0.5,60.50598627328441,
To what extent did the music make you feel ,SCARED,30MonoWAV/30MonoF4.wav,1,2,2,4,,,,,0,14,14,3,0,4,4,11,,,,,,,,,4,0.8360254910003277,,,062,001,2019_May_27_1403,MusicAffectPsychophysiology2019,3.0.5,60.50598627328441,
To what extent did the music make you feel ,ACTIVE,30MonoWAV/30MonoF4.wav,1,2,2,4,,,,,0,14,14,3,0,5,5,9,,,,,,,,,2,1.2523008280040813,,,062,001,2019_May_27_1403,MusicAffectPsychophysiology2019,3.0.5,60.50598627328441,
To what extent did the music make you feel ,FRUSTRATED,30MonoWAV/30MonoF4.wav,1,2,2,4,,,,,0,14,14,3,0,6,6,3,,,,,,,,,3,0.9691521499989904,,,062,001,2019_May_27_1403,MusicAffectPsychophysiology2019,3.0.5,60.50598627328441,
To what extent did the music make you feel ,SAD,30MonoWAV/30MonoF4.wav,1,2,2,4,,,,,0,14,14,3,0,7,7,0,,,,,,,,,4,1.3009792270022444,,,062,001,2019_May_27_1403,MusicAffectPsychophysiology2019,3.0.5,60.50598627328441,
To what extent did the music make you feel ,ANXIOUS ,30MonoWAV/30MonoF4.wav,1,2,2,4,,,,,0,14,14,3,0,8,8,1,,,,,,,,,4,0.7681740829939372,,,062,001,2019_May_27_1403,MusicAffectPsychophysiology2019,3.0.5,60.50598627328441,
To what extent did the music make you feel ,ALERT,30MonoWAV/30MonoF4.wav,1,2,2,4,,,,,0,14,14,3,0,9,9,8,,,,,,,,,1,1.2191415050037904,,,062,001,2019_May_27_1403,MusicAffectPsychophysiology2019,3.0.5,60.50598627328441,
To what extent did the music make you feel ,EXCITED,30MonoWAV/30MonoF4.wav,1,2,2,4,,,,,0,14,14,3,0,10,10,7,,,,,,,,,2,0.9341949139998178,,,062,001,2019_May_27_1403,MusicAffectPsychophysiology2019,3.0.5,60.50598627328441,
To what extent did the music make you feel ,GUILTY,30MonoWAV/30MonoF4.wav,1,2,2,4,,,,,0,14,14,3,0,11,11,5,,,,,,,,,1,1.633980883001641,,,062,001,2019_May_27_1403,MusicAffectPsychophysiology2019,3.0.5,60.50598627328441,
,,30MonoWAV/30MonoF4.wav,1,2,2,4,,,,,0,14,14,3,,,,,,,,,,,,,,,,,062,001,2019_May_27_1403,MusicAffectPsychophysiology2019,3.0.5,60.50598627328441,
To what extent did the music make you feel ,ANXIOUS ,30MonoWAV/30MonoH3.wav,2,2,1,7,,,,,0,15,15,6,0,0,0,1,,,3,2.752108075997967,3,1.054779708996648,2,1.50335285699839,4,1.353267958998913,,,062,001,2019_May_27_1403,MusicAffectPsychophysiology2019,3.0.5,60.50598627328441,
To what extent did the music make you feel ,GUILTY,30MonoWAV/30MonoH3.wav,2,2,1,7,,,,,0,15,15,6,0,1,1,5,,,,,,,,,2,1.687498298000719,,,062,001,2019_May_27_1403,MusicAffectPsychophysiology2019,3.0.5,60.50598627328441,
To what extent did the music make you feel ,SCARED,30MonoWAV/30MonoH3.wav,2,2,1,7,,,,,0,15,15,6,0,2,2,11,,,,,,,,,3,1.1526132360013435,,,062,001,2019_May_27_1403,MusicAffectPsychophysiology2019,3.0.5,60.50598627328441,
To what extent did the music make you feel ,SAD,30MonoWAV/30MonoH3.wav,2,2,1,7,,,,,0,15,15,6,0,3,3,0,,,,,,,,,2,2.7572072800030583,,,062,001,2019_May_27_1403,MusicAffectPsychophysiology2019,3.0.5,60.50598627328441,
To what extent did the music make you feel ,ANGRY,30MonoWAV/30MonoH3.wav,2,2,1,7,,,,,0,15,15,6,0,4,4,2,,,,,,,,,3,0.9854603479980142,,,062,001,2019_May_27_1403,MusicAffectPsychophysiology2019,3.0.5,60.50598627328441,
To what extent did the music make you feel ,TENDER,30MonoWAV/30MonoH3.wav,2,2,1,7,,,,,0,15,15,6,0,5,5,10,,,,,,,,,2,0.7684501530020498,,,062,001,2019_May_27_1403,MusicAffectPsychophysiology2019,3.0.5,60.50598627328441,
To what extent did the music make you feel ,EXCITED,30MonoWAV/30MonoH3.wav,2,2,1,7,,,,,0,15,15,6,0,6,6,7,,,,,,,,,3,1.5187393649976002,,,062,001,2019_May_27_1403,MusicAffectPsychophysiology2019,3.0.5,60.50598627328441,
To what extent did the music make you feel ,FRUSTRATED,30MonoWAV/30MonoH3.wav,2,2,1,7,,,,,0,15,15,6,0,7,7,3,,,,,,,,,2,0.8685515340039274,,,062,001,2019_May_27_1403,MusicAffectPsychophysiology2019,3.0.5,60.50598627328441,
To what extent did the music make you feel ,ACTIVE,30MonoWAV/30MonoH3.wav,2,2,1,7,,,,,0,15,15,6,0,8,8,9,,,,,,,,,2,1.1185218030004762,,,062,001,2019_May_27_1403,MusicAffectPsychophysiology2019,3.0.5,60.50598627328441,
To what extent did the music make you feel ,ASHAMED,30MonoWAV/30MonoH3.wav,2,2,1,7,,,,,0,15,15,6,0,9,9,4,,,,,,,,,2,1.0854323730018223,,,062,001,2019_May_27_1403,MusicAffectPsychophysiology2019,3.0.5,60.50598627328441,
To what extent did the music make you feel ,ALERT,30MonoWAV/30MonoH3.wav,2,2,1,7,,,,,0,15,15,6,0,10,10,8,,,,,,,,,1,1.1004057269965415,,,062,001,2019_May_27_1403,MusicAffectPsychophysiology2019,3.0.5,60.50598627328441,
To what extent did the music make you feel ,HAPPY,30MonoWAV/30MonoH3.wav,2,2,1,7,,,,,0,15,15,6,0,11,11,6,,,,,,,,,3,0.7675116720056394,,,062,001,2019_May_27_1403,MusicAffectPsychophysiology2019,3.0.5,60.50598627328441,
,,30MonoWAV/30MonoH3.wav,2,2,1,7,,,,,0,15,15,6,,,,,,,,,,,,,,,,,062,001,2019_May_27_1403,MusicAffectPsychophysiology2019,3.0.5,60.50598627328441,
To what extent did the music make you feel ,FRUSTRATED,30MonoWAV/30MonoS4.wav,1,1,3,12,,,,,1,0,16,11,0,0,0,3,,,1,2.268170964998717,1,1.0850168010001653,1,1.4684244839954772,1,1.2353499039963936,,,062,001,2019_May_27_1403,MusicAffectPsychophysiology2019,3.0.5,60.50598627328441,
To what extent did the music make you feel ,HAPPY,30MonoWAV/30MonoS4.wav,1,1,3,12,,,,,1,0,16,11,0,1,1,6,,,,,,,,,1,1.717919756003539,,,062,001,2019_May_27_1403,MusicAffectPsychophysiology2019,3.0.5,60.50598627328441,
To what extent did the music make you feel ,ANGRY,30MonoWAV/30MonoS4.wav,1,1,3,12,,,,,1,0,16,11,0,2,2,2,,,,,,,,,4,1.518163815002481,,,062,001,2019_May_27_1403,MusicAffectPsychophysiology2019,3.0.5,60.50598627328441,
To what extent did the music make you feel ,ASHAMED,30MonoWAV/30MonoS4.wav,1,1,3,12,,,,,1,0,16,11,0,3,3,4,,,,,,,,,2,1.534777127999405,,,062,001,2019_May_27_1403,MusicAffectPsychophysiology2019,3.0.5,60.50598627328441,
To what extent did the music make you feel ,GUILTY,30MonoWAV/30MonoS4.wav,1,1,3,12,,,,,1,0,16,11,0,4,4,5,,,,,,,,,2,0.9684156450020964,,,062,001,2019_May_27_1403,MusicAffectPsychophysiology2019,3.0.5,60.50598627328441,
To what extent did the music make you feel ,ALERT,30MonoWAV/30MonoS4.wav,1,1,3,12,,,,,1,0,16,11,0,5,5,8,,,,,,,,,2,0.8187335280017578,,,062,001,2019_May_27_1403,MusicAffectPsychophysiology2019,3.0.5,60.50598627328441,
To what extent did the music make you feel ,ACTIVE,30MonoWAV/30MonoS4.wav,1,1,3,12,,,,,1,0,16,11,0,6,6,9,,,,,,,,,1,1.9013121349998983,,,062,001,2019_May_27_1403,MusicAffectPsychophysiology2019,3.0.5,60.50598627328441,
To what extent did the music make you feel ,SAD,30MonoWAV/30MonoS4.wav,1,1,3,12,,,,,1,0,16,11,0,7,7,0,,,,,,,,,4,1.124059825000586,,,062,001,2019_May_27_1403,MusicAffectPsychophysiology2019,3.0.5,60.50598627328441,
To what extent did the music make you feel ,EXCITED,30MonoWAV/30MonoS4.wav,1,1,3,12,,,,,1,0,16,11,0,8,8,7,,,,,,,,,1,3.3508509660023265,,,062,001,2019_May_27_1403,MusicAffectPsychophysiology2019,3.0.5,60.50598627328441,
To what extent did the music make you feel ,ANXIOUS ,30MonoWAV/30MonoS4.wav,1,1,3,12,,,,,1,0,16,11,0,9,9,1,,,,,,,,,4,1.234793804003857,,,062,001,2019_May_27_1403,MusicAffectPsychophysiology2019,3.0.5,60.50598627328441,
To what extent did the music make you feel ,SCARED,30MonoWAV/30MonoS4.wav,1,1,3,12,,,,,1,0,16,11,0,10,10,11,,,,,,,,,4,1.0845404249994317,,,062,001,2019_May_27_1403,MusicAffectPsychophysiology2019,3.0.5,60.50598627328441,
To what extent did the music make you feel ,TENDER,30MonoWAV/30MonoS4.wav,1,1,3,12,,,,,1,0,16,11,0,11,11,10,,,,,,,,,3,1.433771431002242,,,062,001,2019_May_27_1403,MusicAffectPsychophysiology2019,3.0.5,60.50598627328441,
,,30MonoWAV/30MonoS4.wav,1,1,3,12,,,,,1,0,16,11,,,,,,,,,,,,,,,,,062,001,2019_May_27_1403,MusicAffectPsychophysiology2019,3.0.5,60.50598627328441,
To what extent did the music make you feel ,FRUSTRATED,30MonoWAV/30MonoS3.wav,1,1,3,11,,,,,1,1,17,10,0,0,0,3,,,2,3.223367849997885,2,0.9364272210004856,2,1.6190280150040053,2,3.3011301389997243,,,062,001,2019_May_27_1403,MusicAffectPsychophysiology2019,3.0.5,60.50598627328441,
To what extent did the music make you feel ,ASHAMED,30MonoWAV/30MonoS3.wav,1,1,3,11,,,,,1,1,17,10,0,1,1,4,,,,,,,,,2,1.2520377480032039,,,062,001,2019_May_27_1403,MusicAffectPsychophysiology2019,3.0.5,60.50598627328441,
To what extent did the music make you feel ,ANXIOUS ,30MonoWAV/30MonoS3.wav,1,1,3,11,,,,,1,1,17,10,0,2,2,1,,,,,,,,,4,1.034424746001605,,,062,001,2019_May_27_1403,MusicAffectPsychophysiology2019,3.0.5,60.50598627328441,
To what extent did the music make you feel ,GUILTY,30MonoWAV/30MonoS3.wav,1,1,3,11,,,,,1,1,17,10,0,3,3,5,,,,,,,,,3,1.18378149199998,,,062,001,2019_May_27_1403,MusicAffectPsychophysiology2019,3.0.5,60.50598627328441,
To what extent did the music make you feel ,HAPPY,30MonoWAV/30MonoS3.wav,1,1,3,11,,,,,1,1,17,10,0,4,4,6,,,,,,,,,1,1.1685984249998,,,062,001,2019_May_27_1403,MusicAffectPsychophysiology2019,3.0.5,60.50598627328441,
To what extent did the music make you feel ,ALERT,30MonoWAV/30MonoS3.wav,1,1,3,11,,,,,1,1,17,10,0,5,5,8,,,,,,,,,2,1.2191565379980602,,,062,001,2019_May_27_1403,MusicAffectPsychophysiology2019,3.0.5,60.50598627328441,
To what extent did the music make you feel ,ANGRY,30MonoWAV/30MonoS3.wav,1,1,3,11,,,,,1,1,17,10,0,6,6,2,,,,,,,,,3,1.3854798210013541,,,062,001,2019_May_27_1403,MusicAffectPsychophysiology2019,3.0.5,60.50598627328441,
To what extent did the music make you feel ,SCARED,30MonoWAV/30MonoS3.wav,1,1,3,11,,,,,1,1,17,10,0,7,7,11,,,,,,,,,4,0.9339538230051403,,,062,001,2019_May_27_1403,MusicAffectPsychophysiology2019,3.0.5,60.50598627328441,
To what extent did the music make you feel ,EXCITED,30MonoWAV/30MonoS3.wav,1,1,3,11,,,,,1,1,17,10,0,8,8,7,,,,,,,,,2,1.78533118100313,,,062,001,2019_May_27_1403,MusicAffectPsychophysiology2019,3.0.5,60.50598627328441,
To what extent did the music make you feel ,SAD,30MonoWAV/30MonoS3.wav,1,1,3,11,,,,,1,1,17,10,0,9,9,0,,,,,,,,,4,1.3853791500005173,,,062,001,2019_May_27_1403,MusicAffectPsychophysiology2019,3.0.5,60.50598627328441,
To what extent did the music make you feel ,TENDER,30MonoWAV/30MonoS3.wav,1,1,3,11,,,,,1,1,17,10,0,10,10,10,,,,,,,,,3,1.2358501379931113,,,062,001,2019_May_27_1403,MusicAffectPsychophysiology2019,3.0.5,60.50598627328441,
To what extent did the music make you feel ,ACTIVE,30MonoWAV/30MonoS3.wav,1,1,3,11,,,,,1,1,17,10,0,11,11,9,,,,,,,,,1,2.6353426499990746,,,062,001,2019_May_27_1403,MusicAffectPsychophysiology2019,3.0.5,60.50598627328441,
,,30MonoWAV/30MonoS3.wav,1,1,3,11,,,,,1,1,17,10,,,,,,,,,,,,,,,,,062,001,2019_May_27_1403,MusicAffectPsychophysiology2019,3.0.5,60.50598627328441,
To what extent did the music make you feel ,ASHAMED,30MonoWAV/30MonoH2.wav,2,2,1,6,,,,,1,2,18,5,0,0,0,4,,,3,2.168672312000126,2,0.9187240739993285,2,3.952904189005494,1,1.9632189770054538,,,062,001,2019_May_27_1403,MusicAffectPsychophysiology2019,3.0.5,60.50598627328441,
To what extent did the music make you feel ,SAD,30MonoWAV/30MonoH2.wav,2,2,1,6,,,,,1,2,18,5,0,1,1,0,,,,,,,,,2,1.4853683010005625,,,062,001,2019_May_27_1403,MusicAffectPsychophysiology2019,3.0.5,60.50598627328441,
To what extent did the music make you feel ,EXCITED,30MonoWAV/30MonoH2.wav,2,2,1,6,,,,,1,2,18,5,0,2,2,7,,,,,,,,,2,1.5848709319980117,,,062,001,2019_May_27_1403,MusicAffectPsychophysiology2019,3.0.5,60.50598627328441,
To what extent did the music make you feel ,GUILTY,30MonoWAV/30MonoH2.wav,2,2,1,6,,,,,1,2,18,5,0,3,3,5,,,,,,,,,1,0.8682679099947563,,,062,001,2019_May_27_1403,MusicAffectPsychophysiology2019,3.0.5,60.50598627328441,
To what extent did the music make you feel ,HAPPY,30MonoWAV/30MonoH2.wav,2,2,1,6,,,,,1,2,18,5,0,4,4,6,,,,,,,,,2,0.934940088998701,,,062,001,2019_May_27_1403,MusicAffectPsychophysiology2019,3.0.5,60.50598627328441,
To what extent did the music make you feel ,ANGRY,30MonoWAV/30MonoH2.wav,2,2,1,6,,,,,1,2,18,5,0,5,5,2,,,,,,,,,3,1.2357885300007183,,,062,001,2019_May_27_1403,MusicAffectPsychophysiology2019,3.0.5,60.50598627328441,
To what extent did the music make you feel ,ALERT,30MonoWAV/30MonoH2.wav,2,2,1,6,,,,,1,2,18,5,0,6,6,8,,,,,,,,,2,0.9185283150000032,,,062,001,2019_May_27_1403,MusicAffectPsychophysiology2019,3.0.5,60.50598627328441,
To what extent did the music make you feel ,TENDER,30MonoWAV/30MonoH2.wav,2,2,1,6,,,,,1,2,18,5,0,7,7,10,,,,,,,,,3,0.7856991770022432,,,062,001,2019_May_27_1403,MusicAffectPsychophysiology2019,3.0.5,60.50598627328441,
To what extent did the music make you feel ,SCARED,30MonoWAV/30MonoH2.wav,2,2,1,6,,,,,1,2,18,5,0,8,8,11,,,,,,,,,3,1.3015019060039776,,,062,001,2019_May_27_1403,MusicAffectPsychophysiology2019,3.0.5,60.50598627328441,
To what extent did the music make you feel ,ANXIOUS ,30MonoWAV/30MonoH2.wav,2,2,1,6,,,,,1,2,18,5,0,9,9,1,,,,,,,,,2,1.6023162269993918,,,062,001,2019_May_27_1403,MusicAffectPsychophysiology2019,3.0.5,60.50598627328441,
To what extent did the music make you feel ,ACTIVE,30MonoWAV/30MonoH2.wav,2,2,1,6,,,,,1,2,18,5,0,10,10,9,,,,,,,,,2,1.2190906190007809,,,062,001,2019_May_27_1403,MusicAffectPsychophysiology2019,3.0.5,60.50598627328441,
To what extent did the music make you feel ,FRUSTRATED,30MonoWAV/30MonoH2.wav,2,2,1,6,,,,,1,2,18,5,0,11,11,3,,,,,,,,,1,0.9176811149955029,,,062,001,2019_May_27_1403,MusicAffectPsychophysiology2019,3.0.5,60.50598627328441,
,,30MonoWAV/30MonoH2.wav,2,2,1,6,,,,,1,2,18,5,,,,,,,,,,,,,,,,,062,001,2019_May_27_1403,MusicAffectPsychophysiology2019,3.0.5,60.50598627328441,
To what extent did the music make you feel ,ASHAMED,30MonoWAV/30MonoS2.wav,1,1,3,10,,,,,1,3,19,9,0,0,0,4,,,2,2.2734985220013186,2,1.551112124005158,2,1.535776332995738,2,1.4511011189970304,,,062,001,2019_May_27_1403,MusicAffectPsychophysiology2019,3.0.5,60.50598627328441,
To what extent did the music make you feel ,EXCITED,30MonoWAV/30MonoS2.wav,1,1,3,10,,,,,1,3,19,9,0,1,1,7,,,,,,,,,2,0.7851437940043979,,,062,001,2019_May_27_1403,MusicAffectPsychophysiology2019,3.0.5,60.50598627328441,
To what extent did the music make you feel ,TENDER,30MonoWAV/30MonoS2.wav,1,1,3,10,,,,,1,3,19,9,0,2,2,10,,,,,,,,,2,3.0838631709993933,,,062,001,2019_May_27_1403,MusicAffectPsychophysiology2019,3.0.5,60.50598627328441,
To what extent did the music make you feel ,GUILTY,30MonoWAV/30MonoS2.wav,1,1,3,10,,,,,1,3,19,9,0,3,3,5,,,,,,,,,2,1.0200386110009276,,,062,001,2019_May_27_1403,MusicAffectPsychophysiology2019,3.0.5,60.50598627328441,
To what extent did the music make you feel ,SAD,30MonoWAV/30MonoS2.wav,1,1,3,10,,,,,1,3,19,9,0,4,4,0,,,,,,,,,3,1.268827609004802,,,062,001,2019_May_27_1403,MusicAffectPsychophysiology2019,3.0.5,60.50598627328441,
To what extent did the music make you feel ,ANGRY,30MonoWAV/30MonoS2.wav,1,1,3,10,,,,,1,3,19,9,0,5,5,2,,,,,,,,,4,1.0018521349993534,,,062,001,2019_May_27_1403,MusicAffectPsychophysiology2019,3.0.5,60.50598627328441,
To what extent did the music make you feel ,SCARED,30MonoWAV/30MonoS2.wav,1,1,3,10,,,,,1,3,19,9,0,6,6,11,,,,,,,,,3,1.1360400530029438,,,062,001,2019_May_27_1403,MusicAffectPsychophysiology2019,3.0.5,60.50598627328441,
To what extent did the music make you feel ,ALERT,30MonoWAV/30MonoS2.wav,1,1,3,10,,,,,1,3,19,9,0,7,7,8,,,,,,,,,2,1.0001615150031284,,,062,001,2019_May_27_1403,MusicAffectPsychophysiology2019,3.0.5,60.50598627328441,
To what extent did the music make you feel ,ANXIOUS ,30MonoWAV/30MonoS2.wav,1,1,3,10,,,,,1,3,19,9,0,8,8,1,,,,,,,,,4,1.7854568690017913,,,062,001,2019_May_27_1403,MusicAffectPsychophysiology2019,3.0.5,60.50598627328441,
To what extent did the music make you feel ,ACTIVE,30MonoWAV/30MonoS2.wav,1,1,3,10,,,,,1,3,19,9,0,9,9,9,,,,,,,,,2,1.3022564229977434,,,062,001,2019_May_27_1403,MusicAffectPsychophysiology2019,3.0.5,60.50598627328441,
To what extent did the music make you feel ,HAPPY,30MonoWAV/30MonoS2.wav,1,1,3,10,,,,,1,3,19,9,0,10,10,6,,,,,,,,,1,1.4356000620027771,,,062,001,2019_May_27_1403,MusicAffectPsychophysiology2019,3.0.5,60.50598627328441,
To what extent did the music make you feel ,FRUSTRATED,30MonoWAV/30MonoS2.wav,1,1,3,10,,,,,1,3,19,9,0,11,11,3,,,,,,,,,2,1.0183057350004674,,,062,001,2019_May_27_1403,MusicAffectPsychophysiology2019,3.0.5,60.50598627328441,
,,30MonoWAV/30MonoS2.wav,1,1,3,10,,,,,1,3,19,9,,,,,,,,,,,,,,,,,062,001,2019_May_27_1403,MusicAffectPsychophysiology2019,3.0.5,60.50598627328441,
To what extent did the music make you feel ,ALERT,30MonoWAV/30MonoH3.wav,2,2,1,7,,,,,1,4,20,6,0,0,0,8,,,4,2.084889416000806,4,1.434748731997388,3,1.5844575930022984,3,1.8196766120017855,,,062,001,2019_May_27_1403,MusicAffectPsychophysiology2019,3.0.5,60.50598627328441,
To what extent did the music make you feel ,ACTIVE,30MonoWAV/30MonoH3.wav,2,2,1,7,,,,,1,4,20,6,0,1,1,9,,,,,,,,,4,1.11837360500067,,,062,001,2019_May_27_1403,MusicAffectPsychophysiology2019,3.0.5,60.50598627328441,
To what extent did the music make you feel ,HAPPY,30MonoWAV/30MonoH3.wav,2,2,1,7,,,,,1,4,20,6,0,2,2,6,,,,,,,,,3,1.1654215369999292,,,062,001,2019_May_27_1403,MusicAffectPsychophysiology2019,3.0.5,60.50598627328441,
To what extent did the music make you feel ,ANGRY,30MonoWAV/30MonoH3.wav,2,2,1,7,,,,,1,4,20,6,0,3,3,2,,,,,,,,,2,1.268657788001292,,,062,001,2019_May_27_1403,MusicAffectPsychophysiology2019,3.0.5,60.50598627328441,
To what extent did the music make you feel ,FRUSTRATED,30MonoWAV/30MonoH3.wav,2,2,1,7,,,,,1,4,20,6,0,4,4,3,,,,,,,,,2,1.0351842520030914,,,062,001,2019_May_27_1403,MusicAffectPsychophysiology2019,3.0.5,60.50598627328441,
To what extent did the music make you feel ,SAD,30MonoWAV/30MonoH3.wav,2,2,1,7,,,,,1,4,20,6,0,5,5,0,,,,,,,,,1,1.252017970000452,,,062,001,2019_May_27_1403,MusicAffectPsychophysiology2019,3.0.5,60.50598627328441,
To what extent did the music make you feel ,ASHAMED,30MonoWAV/30MonoH3.wav,2,2,1,7,,,,,1,4,20,6,0,6,6,4,,,,,,,,,1,0.8351635729995905,,,062,001,2019_May_27_1403,MusicAffectPsychophysiology2019,3.0.5,60.50598627328441,
To what extent did the music make you feel ,TENDER,30MonoWAV/30MonoH3.wav,2,2,1,7,,,,,1,4,20,6,0,7,7,10,,,,,,,,,1,0.8020282210054575,,,062,001,2019_May_27_1403,MusicAffectPsychophysiology2019,3.0.5,60.50598627328441,
To what extent did the music make you feel ,ANXIOUS ,30MonoWAV/30MonoH3.wav,2,2,1,7,,,,,1,4,20,6,0,8,8,1,,,,,,,,,2,1.7025524600030622,,,062,001,2019_May_27_1403,MusicAffectPsychophysiology2019,3.0.5,60.50598627328441,
To what extent did the music make you feel ,EXCITED,30MonoWAV/30MonoH3.wav,2,2,1,7,,,,,1,4,20,6,0,9,9,7,,,,,,,,,2,1.216587801995047,,,062,001,2019_May_27_1403,MusicAffectPsychophysiology2019,3.0.5,60.50598627328441,
To what extent did the music make you feel ,SCARED,30MonoWAV/30MonoH3.wav,2,2,1,7,,,,,1,4,20,6,0,10,10,11,,,,,,,,,1,1.6011028900029487,,,062,001,2019_May_27_1403,MusicAffectPsychophysiology2019,3.0.5,60.50598627328441,
To what extent did the music make you feel ,GUILTY,30MonoWAV/30MonoH3.wav,2,2,1,7,,,,,1,4,20,6,0,11,11,5,,,,,,,,,1,0.8527074770026957,,,062,001,2019_May_27_1403,MusicAffectPsychophysiology2019,3.0.5,60.50598627328441,
,,30MonoWAV/30MonoH3.wav,2,2,1,7,,,,,1,4,20,6,,,,,,,,,,,,,,,,,062,001,2019_May_27_1403,MusicAffectPsychophysiology2019,3.0.5,60.50598627328441,
To what extent did the music make you feel ,GUILTY,30MonoWAV/30MonoF3.wav,1,2,2,3,,,,,1,5,21,2,0,0,0,5,,,2,2.053603167994879,2,0.20148614099889528,2,1.0035018309936277,2,1.4869155289998162,,,062,001,2019_May_27_1403,MusicAffectPsychophysiology2019,3.0.5,60.50598627328441,
To what extent did the music make you feel ,ASHAMED,30MonoWAV/30MonoF3.wav,1,2,2,3,,,,,1,5,21,2,0,1,1,4,,,,,,,,,2,0.787003391997132,,,062,001,2019_May_27_1403,MusicAffectPsychophysiology2019,3.0.5,60.50598627328441,
To what extent did the music make you feel ,HAPPY,30MonoWAV/30MonoF3.wav,1,2,2,3,,,,,1,5,21,2,0,2,2,6,,,,,,,,,2,0.9387176329983049,,,062,001,2019_May_27_1403,MusicAffectPsychophysiology2019,3.0.5,60.50598627328441,
To what extent did the music make you feel ,TENDER,30MonoWAV/30MonoF3.wav,1,2,2,3,,,,,1,5,21,2,0,3,3,10,,,,,,,,,2,0.7191472749982495,,,062,001,2019_May_27_1403,MusicAffectPsychophysiology2019,3.0.5,60.50598627328441,
To what extent did the music make you feel ,ANXIOUS ,30MonoWAV/30MonoF3.wav,1,2,2,3,,,,,1,5,21,2,0,4,4,1,,,,,,,,,3,1.9510928099989542,,,062,001,2019_May_27_1403,MusicAffectPsychophysiology2019,3.0.5,60.50598627328441,
To what extent did the music make you feel ,FRUSTRATED,30MonoWAV/30MonoF3.wav,1,2,2,3,,,,,1,5,21,2,0,5,5,3,,,,,,,,,4,0.8851137429955998,,,062,001,2019_May_27_1403,MusicAffectPsychophysiology2019,3.0.5,60.50598627328441,
To what extent did the music make you feel ,ANGRY,30MonoWAV/30MonoF3.wav,1,2,2,3,,,,,1,5,21,2,0,6,6,2,,,,,,,,,3,1.5015135339999688,,,062,001,2019_May_27_1403,MusicAffectPsychophysiology2019,3.0.5,60.50598627328441,
To what extent did the music make you feel ,SCARED,30MonoWAV/30MonoF3.wav,1,2,2,3,,,,,1,5,21,2,0,7,7,11,,,,,,,,,3,1.2230468679990736,,,062,001,2019_May_27_1403,MusicAffectPsychophysiology2019,3.0.5,60.50598627328441,
To what extent did the music make you feel ,ALERT,30MonoWAV/30MonoF3.wav,1,2,2,3,,,,,1,5,21,2,0,8,8,8,,,,,,,,,2,0.9844569409979158,,,062,001,2019_May_27_1403,MusicAffectPsychophysiology2019,3.0.5,60.50598627328441,
To what extent did the music make you feel ,SAD,30MonoWAV/30MonoF3.wav,1,2,2,3,,,,,1,5,21,2,0,9,9,0,,,,,,,,,3,0.8524998590000905,,,062,001,2019_May_27_1403,MusicAffectPsychophysiology2019,3.0.5,60.50598627328441,
To what extent did the music make you feel ,EXCITED,30MonoWAV/30MonoF3.wav,1,2,2,3,,,,,1,5,21,2,0,10,10,7,,,,,,,,,2,1.2031320450041676,,,062,001,2019_May_27_1403,MusicAffectPsychophysiology2019,3.0.5,60.50598627328441,
To what extent did the music make you feel ,ACTIVE,30MonoWAV/30MonoF3.wav,1,2,2,3,,,,,1,5,21,2,0,11,11,9,,,,,,,,,2,1.2196943410017411,,,062,001,2019_May_27_1403,MusicAffectPsychophysiology2019,3.0.5,60.50598627328441,
,,30MonoWAV/30MonoF3.wav,1,2,2,3,,,,,1,5,21,2,,,,,,,,,,,,,,,,,062,001,2019_May_27_1403,MusicAffectPsychophysiology2019,3.0.5,60.50598627328441,
To what extent did the music make you feel ,ASHAMED,30MonoWAV/30MonoT2.wav,2,1,4,14,,,,,1,6,22,13,0,0,0,4,,,3,1.5669912900048075,3,0.5678630910042557,3,0.2681157820043154,1,1.4358128009989741,,,062,001,2019_May_27_1403,MusicAffectPsychophysiology2019,3.0.5,60.50598627328441,
To what extent did the music make you feel ,TENDER,30MonoWAV/30MonoT2.wav,2,1,4,14,,,,,1,6,22,13,0,1,1,10,,,,,,,,,2,0.7353186649997951,,,062,001,2019_May_27_1403,MusicAffectPsychophysiology2019,3.0.5,60.50598627328441,
To what extent did the music make you feel ,FRUSTRATED,30MonoWAV/30MonoT2.wav,2,1,4,14,,,,,1,6,22,13,0,2,2,3,,,,,,,,,1,1.2014900310023222,,,062,001,2019_May_27_1403,MusicAffectPsychophysiology2019,3.0.5,60.50598627328441,
To what extent did the music make you feel ,ANXIOUS ,30MonoWAV/30MonoT2.wav,2,1,4,14,,,,,1,6,22,13,0,3,3,1,,,,,,,,,3,0.868354726000689,,,062,001,2019_May_27_1403,MusicAffectPsychophysiology2019,3.0.5,60.50598627328441,
To what extent did the music make you feel ,HAPPY,30MonoWAV/30MonoT2.wav,2,1,4,14,,,,,1,6,22,13,0,4,4,6,,,,,,,,,3,2.0338102980022086,,,062,001,2019_May_27_1403,MusicAffectPsychophysiology2019,3.0.5,60.50598627328441,
To what extent did the music make you feel ,GUILTY,30MonoWAV/30MonoT2.wav,2,1,4,14,,,,,1,6,22,13,0,5,5,5,,,,,,,,,2,0.8178433300054166,,,062,001,2019_May_27_1403,MusicAffectPsychophysiology2019,3.0.5,60.50598627328441,
To what extent did the music make you feel ,SAD,30MonoWAV/30MonoT2.wav,2,1,4,14,,,,,1,6,22,13,0,6,6,0,,,,,,,,,2,1.2356580569976359,,,062,001,2019_May_27_1403,MusicAffectPsychophysiology2019,3.0.5,60.50598627328441,
To what extent did the music make you feel ,ALERT,30MonoWAV/30MonoT2.wav,2,1,4,14,,,,,1,6,22,13,0,7,7,8,,,,,,,,,1,0.7851725889995578,,,062,001,2019_May_27_1403,MusicAffectPsychophysiology2019,3.0.5,60.50598627328441,
To what extent did the music make you feel ,SCARED,30MonoWAV/30MonoT2.wav,2,1,4,14,,,,,1,6,22,13,0,8,8,11,,,,,,,,,1,1.0517716920003295,,,062,001,2019_May_27_1403,MusicAffectPsychophysiology2019,3.0.5,60.50598627328441,
To what extent did the music make you feel ,ACTIVE,30MonoWAV/30MonoT2.wav,2,1,4,14,,,,,1,6,22,13,0,9,9,9,,,,,,,,,2,1.1187396489985986,,,062,001,2019_May_27_1403,MusicAffectPsychophysiology2019,3.0.5,60.50598627328441,
To what extent did the music make you feel ,EXCITED,30MonoWAV/30MonoT2.wav,2,1,4,14,,,,,1,6,22,13,0,10,10,7,,,,,,,,,2,1.6514523160003591,,,062,001,2019_May_27_1403,MusicAffectPsychophysiology2019,3.0.5,60.50598627328441,
To what extent did the music make you feel ,ANGRY,30MonoWAV/30MonoT2.wav,2,1,4,14,,,,,1,6,22,13,0,11,11,2,,,,,,,,,1,1.0023446129998774,,,062,001,2019_May_27_1403,MusicAffectPsychophysiology2019,3.0.5,60.50598627328441,
,,30MonoWAV/30MonoT2.wav,2,1,4,14,,,,,1,6,22,13,,,,,,,,,,,,,,,,,062,001,2019_May_27_1403,MusicAffectPsychophysiology2019,3.0.5,60.50598627328441,
To what extent did the music make you feel ,SCARED,30MonoWAV/30MonoF2.wav,1,2,2,2,,,,,1,7,23,1,0,0,0,11,,,1,3.372310627004481,1,0.369078518000606,1,0.20138485999632394,1,1.001493935000326,,,062,001,2019_May_27_1403,MusicAffectPsychophysiology2019,3.0.5,60.50598627328441,
To what extent did the music make you feel ,HAPPY,30MonoWAV/30MonoF2.wav,1,2,2,2,,,,,1,7,23,1,0,1,1,6,,,,,,,,,1,1.571943305003515,,,062,001,2019_May_27_1403,MusicAffectPsychophysiology2019,3.0.5,60.50598627328441,
To what extent did the music make you feel ,SAD,30MonoWAV/30MonoF2.wav,1,2,2,2,,,,,1,7,23,1,0,2,2,0,,,,,,,,,4,1.4515437220034073,,,062,001,2019_May_27_1403,MusicAffectPsychophysiology2019,3.0.5,60.50598627328441,
To what extent did the music make you feel ,GUILTY,30MonoWAV/30MonoF2.wav,1,2,2,2,,,,,1,7,23,1,0,3,3,5,,,,,,,,,1,1.3350534540004446,,,062,001,2019_May_27_1403,MusicAffectPsychophysiology2019,3.0.5,60.50598627328441,
To what extent did the music make you feel ,ACTIVE,30MonoWAV/30MonoF2.wav,1,2,2,2,,,,,1,7,23,1,0,4,4,9,,,,,,,,,1,1.100378016999457,,,062,001,2019_May_27_1403,MusicAffectPsychophysiology2019,3.0.5,60.50598627328441,
To what extent did the music make you feel ,TENDER,30MonoWAV/30MonoF2.wav,1,2,2,2,,,,,1,7,23,1,0,5,5,10,,,,,,,,,1,0.8513119790004566,,,062,001,2019_May_27_1403,MusicAffectPsychophysiology2019,3.0.5,60.50598627328441,
To what extent did the music make you feel ,ALERT,30MonoWAV/30MonoF2.wav,1,2,2,2,,,,,1,7,23,1,0,6,6,8,,,,,,,,,1,0.9182928390000598,,,062,001,2019_May_27_1403,MusicAffectPsychophysiology2019,3.0.5,60.50598627328441,
To what extent did the music make you feel ,FRUSTRATED,30MonoWAV/30MonoF2.wav,1,2,2,2,,,,,1,7,23,1,0,7,7,3,,,,,,,,,4,1.7186027380012092,,,062,001,2019_May_27_1403,MusicAffectPsychophysiology2019,3.0.5,60.50598627328441,
To what extent did the music make you feel ,ANGRY,30MonoWAV/30MonoF2.wav,1,2,2,2,,,,,1,7,23,1,0,8,8,2,,,,,,,,,4,1.7182741450014873,,,062,001,2019_May_27_1403,MusicAffectPsychophysiology2019,3.0.5,60.50598627328441,
To what extent did the music make you feel ,ASHAMED,30MonoWAV/30MonoF2.wav,1,2,2,2,,,,,1,7,23,1,0,9,9,4,,,,,,,,,3,1.1352242979992297,,,062,001,2019_May_27_1403,MusicAffectPsychophysiology2019,3.0.5,60.50598627328441,
To what extent did the music make you feel ,ANXIOUS ,30MonoWAV/30MonoF2.wav,1,2,2,2,,,,,1,7,23,1,0,10,10,1,,,,,,,,,4,1.20072444199468,,,062,001,2019_May_27_1403,MusicAffectPsychophysiology2019,3.0.5,60.50598627328441,
To what extent did the music make you feel ,EXCITED,30MonoWAV/30MonoF2.wav,1,2,2,2,,,,,1,7,23,1,0,11,11,7,,,,,,,,,1,1.2683212729971274,,,062,001,2019_May_27_1403,MusicAffectPsychophysiology2019,3.0.5,60.50598627328441,
,,30MonoWAV/30MonoF2.wav,1,2,2,2,,,,,1,7,23,1,,,,,,,,,,,,,,,,,062,001,2019_May_27_1403,MusicAffectPsychophysiology2019,3.0.5,60.50598627328441,
To what extent did the music make you feel ,EXCITED,30MonoWAV/30MonoH4.wav,2,2,1,8,,,,,1,8,24,7,0,0,0,7,,,4,3.166822592000244,3,0.8853607730052317,3,0.5847535870052525,3,1.6512861080045695,,,062,001,2019_May_27_1403,MusicAffectPsychophysiology2019,3.0.5,60.50598627328441,
To what extent did the music make you feel ,FRUSTRATED,30MonoWAV/30MonoH4.wav,2,2,1,8,,,,,1,8,24,7,0,1,1,3,,,,,,,,,2,0.9349868490025983,,,062,001,2019_May_27_1403,MusicAffectPsychophysiology2019,3.0.5,60.50598627328441,
To what extent did the music make you feel ,ANXIOUS ,30MonoWAV/30MonoH4.wav,2,2,1,8,,,,,1,8,24,7,0,2,2,1,,,,,,,,,2,1.1017942990001757,,,062,001,2019_May_27_1403,MusicAffectPsychophysiology2019,3.0.5,60.50598627328441,
To what extent did the music make you feel ,TENDER,30MonoWAV/30MonoH4.wav,2,2,1,8,,,,,1,8,24,7,0,3,3,10,,,,,,,,,2,1.0016141989981406,,,062,001,2019_May_27_1403,MusicAffectPsychophysiology2019,3.0.5,60.50598627328441,
To what extent did the music make you feel ,ALERT,30MonoWAV/30MonoH4.wav,2,2,1,8,,,,,1,8,24,7,0,4,4,8,,,,,,,,,2,0.7690392499935115,,,062,001,2019_May_27_1403,MusicAffectPsychophysiology2019,3.0.5,60.50598627328441,
To what extent did the music make you feel ,SAD,30MonoWAV/30MonoH4.wav,2,2,1,8,,,,,1,8,24,7,0,5,5,0,,,,,,,,,2,0.9356036090030102,,,062,001,2019_May_27_1403,MusicAffectPsychophysiology2019,3.0.5,60.50598627328441,
To what extent did the music make you feel ,HAPPY,30MonoWAV/30MonoH4.wav,2,2,1,8,,,,,1,8,24,7,0,6,6,6,,,,,,,,,3,1.3508269140002085,,,062,001,2019_May_27_1403,MusicAffectPsychophysiology2019,3.0.5,60.50598627328441,
To what extent did the music make you feel ,ANGRY,30MonoWAV/30MonoH4.wav,2,2,1,8,,,,,1,8,24,7,0,7,7,2,,,,,,,,,2,1.4014538569972501,,,062,001,2019_May_27_1403,MusicAffectPsychophysiology2019,3.0.5,60.50598627328441,
To what extent did the music make you feel ,SCARED,30MonoWAV/30MonoH4.wav,2,2,1,8,,,,,1,8,24,7,0,8,8,11,,,,,,,,,1,0.901596009003697,,,062,001,2019_May_27_1403,MusicAffectPsychophysiology2019,3.0.5,60.50598627328441,
To what extent did the music make you feel ,ASHAMED,30MonoWAV/30MonoH4.wav,2,2,1,8,,,,,1,8,24,7,0,9,9,4,,,,,,,,,1,0.7190406149966293,,,062,001,2019_May_27_1403,MusicAffectPsychophysiology2019,3.0.5,60.50598627328441,
To what extent did the music make you feel ,GUILTY,30MonoWAV/30MonoH4.wav,2,2,1,8,,,,,1,8,24,7,0,10,10,5,,,,,,,,,1,0.6019960869962233,,,062,001,2019_May_27_1403,MusicAffectPsychophysiology2019,3.0.5,60.50598627328441,
To what extent did the music make you feel ,ACTIVE,30MonoWAV/30MonoH4.wav,2,2,1,8,,,,,1,8,24,7,0,11,11,9,,,,,,,,,3,1.051216812003986,,,062,001,2019_May_27_1403,MusicAffectPsychophysiology2019,3.0.5,60.50598627328441,
,,30MonoWAV/30MonoH4.wav,2,2,1,8,,,,,1,8,24,7,,,,,,,,,,,,,,,,,062,001,2019_May_27_1403,MusicAffectPsychophysiology2019,3.0.5,60.50598627328441,
To what extent did the music make you feel ,EXCITED,30MonoWAV/30MonoT3.wav,2,1,4,15,,,,,1,9,25,14,0,0,0,7,,,3,2.185739273998479,3,1.2353369799966458,3,1.9999600579976686,2,1.4187980189963127,,,062,001,2019_May_27_1403,MusicAffectPsychophysiology2019,3.0.5,60.50598627328441,
To what extent did the music make you feel ,ANXIOUS ,30MonoWAV/30MonoT3.wav,2,1,4,15,,,,,1,9,25,14,0,1,1,1,,,,,,,,,2,2.118193162998068,,,062,001,2019_May_27_1403,MusicAffectPsychophysiology2019,3.0.5,60.50598627328441,
To what extent did the music make you feel ,ANGRY,30MonoWAV/30MonoT3.wav,2,1,4,15,,,,,1,9,25,14,0,2,2,2,,,,,,,,,2,1.4191176070016809,,,062,001,2019_May_27_1403,MusicAffectPsychophysiology2019,3.0.5,60.50598627328441,
To what extent did the music make you feel ,ALERT,30MonoWAV/30MonoT3.wav,2,1,4,15,,,,,1,9,25,14,0,3,3,8,,,,,,,,,2,0.701623256005405,,,062,001,2019_May_27_1403,MusicAffectPsychophysiology2019,3.0.5,60.50598627328441,
To what extent did the music make you feel ,TENDER,30MonoWAV/30MonoT3.wav,2,1,4,15,,,,,1,9,25,14,0,4,4,10,,,,,,,,,2,0.801572638003563,,,062,001,2019_May_27_1403,MusicAffectPsychophysiology2019,3.0.5,60.50598627328441,
To what extent did the music make you feel ,ASHAMED,30MonoWAV/30MonoT3.wav,2,1,4,15,,,,,1,9,25,14,0,5,5,4,,,,,,,,,1,1.2343634700009716,,,062,001,2019_May_27_1403,MusicAffectPsychophysiology2019,3.0.5,60.50598627328441,
To what extent did the music make you feel ,ACTIVE,30MonoWAV/30MonoT3.wav,2,1,4,15,,,,,1,9,25,14,0,6,6,9,,,,,,,,,2,1.234694334998494,,,062,001,2019_May_27_1403,MusicAffectPsychophysiology2019,3.0.5,60.50598627328441,
To what extent did the music make you feel ,SAD,30MonoWAV/30MonoT3.wav,2,1,4,15,,,,,1,9,25,14,0,7,7,0,,,,,,,,,2,1.634919340001943,,,062,001,2019_May_27_1403,MusicAffectPsychophysiology2019,3.0.5,60.50598627328441,
To what extent did the music make you feel ,HAPPY,30MonoWAV/30MonoT3.wav,2,1,4,15,,,,,1,9,25,14,0,8,8,6,,,,,,,,,2,2.018830233006156,,,062,001,2019_May_27_1403,MusicAffectPsychophysiology2019,3.0.5,60.50598627328441,
To what extent did the music make you feel ,SCARED,30MonoWAV/30MonoT3.wav,2,1,4,15,,,,,1,9,25,14,0,9,9,11,,,,,,,,,2,1.8514671130033094,,,062,001,2019_May_27_1403,MusicAffectPsychophysiology2019,3.0.5,60.50598627328441,
To what extent did the music make you feel ,FRUSTRATED,30MonoWAV/30MonoT3.wav,2,1,4,15,,,,,1,9,25,14,0,10,10,3,,,,,,,,,2,0.9191267320056795,,,062,001,2019_May_27_1403,MusicAffectPsychophysiology2019,3.0.5,60.50598627328441,
To what extent did the music make you feel ,GUILTY,30MonoWAV/30MonoT3.wav,2,1,4,15,,,,,1,9,25,14,0,11,11,5,,,,,,,,,1,1.1019868910007062,,,062,001,2019_May_27_1403,MusicAffectPsychophysiology2019,3.0.5,60.50598627328441,
,,30MonoWAV/30MonoT3.wav,2,1,4,15,,,,,1,9,25,14,,,,,,,,,,,,,,,,,062,001,2019_May_27_1403,MusicAffectPsychophysiology2019,3.0.5,60.50598627328441,
To what extent did the music make you feel ,HAPPY,30MonoWAV/30MonoH1.wav,2,2,1,5,,,,,1,10,26,4,0,0,0,6,,,3,2.4048354030019254,3,2.089674928000022,3,1.7021297620012774,3,1.1184601749991998,,,062,001,2019_May_27_1403,MusicAffectPsychophysiology2019,3.0.5,60.50598627328441,
To what extent did the music make you feel ,FRUSTRATED,30MonoWAV/30MonoH1.wav,2,2,1,5,,,,,1,10,26,4,0,1,1,3,,,,,,,,,2,0.8349427779976395,,,062,001,2019_May_27_1403,MusicAffectPsychophysiology2019,3.0.5,60.50598627328441,
To what extent did the music make you feel ,SCARED,30MonoWAV/30MonoH1.wav,2,2,1,5,,,,,1,10,26,4,0,2,2,11,,,,,,,,,2,1.1859371009995812,,,062,001,2019_May_27_1403,MusicAffectPsychophysiology2019,3.0.5,60.50598627328441,
To what extent did the music make you feel ,SAD,30MonoWAV/30MonoH1.wav,2,2,1,5,,,,,1,10,26,4,0,3,3,0,,,,,,,,,2,1.0344882820063503,,,062,001,2019_May_27_1403,MusicAffectPsychophysiology2019,3.0.5,60.50598627328441,
To what extent did the music make you feel ,ALERT,30MonoWAV/30MonoH1.wav,2,2,1,5,,,,,1,10,26,4,0,4,4,8,,,,,,,,,2,1.8517948309963685,,,062,001,2019_May_27_1403,MusicAffectPsychophysiology2019,3.0.5,60.50598627328441,
To what extent did the music make you feel ,ACTIVE,30MonoWAV/30MonoH1.wav,2,2,1,5,,,,,1,10,26,4,0,5,5,9,,,,,,,,,3,0.8850725689990213,,,062,001,2019_May_27_1403,MusicAffectPsychophysiology2019,3.0.5,60.50598627328441,
To what extent did the music make you feel ,TENDER,30MonoWAV/30MonoH1.wav,2,2,1,5,,,,,1,10,26,4,0,6,6,10,,,,,,,,,2,0.9008875850049662,,,062,001,2019_May_27_1403,MusicAffectPsychophysiology2019,3.0.5,60.50598627328441,
To what extent did the music make you feel ,ANGRY,30MonoWAV/30MonoH1.wav,2,2,1,5,,,,,1,10,26,4,0,7,7,2,,,,,,,,,1,1.0691232229946763,,,062,001,2019_May_27_1403,MusicAffectPsychophysiology2019,3.0.5,60.50598627328441,
To what extent did the music make you feel ,ANXIOUS ,30MonoWAV/30MonoH1.wav,2,2,1,5,,,,,1,10,26,4,0,8,8,1,,,,,,,,,1,0.6354313650008407,,,062,001,2019_May_27_1403,MusicAffectPsychophysiology2019,3.0.5,60.50598627328441,
To what extent did the music make you feel ,EXCITED,30MonoWAV/30MonoH1.wav,2,2,1,5,,,,,1,10,26,4,0,9,9,7,,,,,,,,,3,1.169185357997776,,,062,001,2019_May_27_1403,MusicAffectPsychophysiology2019,3.0.5,60.50598627328441,
To what extent did the music make you feel ,ASHAMED,30MonoWAV/30MonoH1.wav,2,2,1,5,,,,,1,10,26,4,0,10,10,4,,,,,,,,,2,0.9505565360013861,,,062,001,2019_May_27_1403,MusicAffectPsychophysiology2019,3.0.5,60.50598627328441,
To what extent did the music make you feel ,GUILTY,30MonoWAV/30MonoH1.wav,2,2,1,5,,,,,1,10,26,4,0,11,11,5,,,,,,,,,2,0.7340379820016096,,,062,001,2019_May_27_1403,MusicAffectPsychophysiology2019,3.0.5,60.50598627328441,
,,30MonoWAV/30MonoH1.wav,2,2,1,5,,,,,1,10,26,4,,,,,,,,,,,,,,,,,062,001,2019_May_27_1403,MusicAffectPsychophysiology2019,3.0.5,60.50598627328441,
To what extent did the music make you feel ,TENDER,30MonoWAV/30MonoT4.wav,2,1,4,16,,,,,1,11,27,15,0,0,0,10,,,3,1.9510019279987318,3,0.851241876000131,3,1.3014856340014376,2,1.1021070970018627,,,062,001,2019_May_27_1403,MusicAffectPsychophysiology2019,3.0.5,60.50598627328441,
To what extent did the music make you feel ,ASHAMED,30MonoWAV/30MonoT4.wav,2,1,4,16,,,,,1,11,27,15,0,1,1,4,,,,,,,,,2,0.7854003320026095,,,062,001,2019_May_27_1403,MusicAffectPsychophysiology2019,3.0.5,60.50598627328441,
To what extent did the music make you feel ,GUILTY,30MonoWAV/30MonoT4.wav,2,1,4,16,,,,,1,11,27,15,0,2,2,5,,,,,,,,,1,0.7685551739996299,,,062,001,2019_May_27_1403,MusicAffectPsychophysiology2019,3.0.5,60.50598627328441,
To what extent did the music make you feel ,SAD,30MonoWAV/30MonoT4.wav,2,1,4,16,,,,,1,11,27,15,0,3,3,0,,,,,,,,,1,0.8352964549994795,,,062,001,2019_May_27_1403,MusicAffectPsychophysiology2019,3.0.5,60.50598627328441,
To what extent did the music make you feel ,HAPPY,30MonoWAV/30MonoT4.wav,2,1,4,16,,,,,1,11,27,15,0,4,4,6,,,,,,,,,2,1.8334463749997667,,,062,001,2019_May_27_1403,MusicAffectPsychophysiology2019,3.0.5,60.50598627328441,
To what extent did the music make you feel ,ANXIOUS ,30MonoWAV/30MonoT4.wav,2,1,4,16,,,,,1,11,27,15,0,5,5,1,,,,,,,,,2,1.2848111389976111,,,062,001,2019_May_27_1403,MusicAffectPsychophysiology2019,3.0.5,60.50598627328441,
To what extent did the music make you feel ,EXCITED,30MonoWAV/30MonoT4.wav,2,1,4,16,,,,,1,11,27,15,0,6,6,7,,,,,,,,,2,1.9012122959975386,,,062,001,2019_May_27_1403,MusicAffectPsychophysiology2019,3.0.5,60.50598627328441,
To what extent did the music make you feel ,ALERT,30MonoWAV/30MonoT4.wav,2,1,4,16,,,,,1,11,27,15,0,7,7,8,,,,,,,,,1,0.8015638279975974,,,062,001,2019_May_27_1403,MusicAffectPsychophysiology2019,3.0.5,60.50598627328441,
To what extent did the music make you feel ,ANGRY,30MonoWAV/30MonoT4.wav,2,1,4,16,,,,,1,11,27,15,0,8,8,2,,,,,,,,,2,3.0355157580052037,,,062,001,2019_May_27_1403,MusicAffectPsychophysiology2019,3.0.5,60.50598627328441,
To what extent did the music make you feel ,FRUSTRATED,30MonoWAV/30MonoT4.wav,2,1,4,16,,,,,1,11,27,15,0,9,9,3,,,,,,,,,1,0.8342539229997783,,,062,001,2019_May_27_1403,MusicAffectPsychophysiology2019,3.0.5,60.50598627328441,
To what extent did the music make you feel ,SCARED,30MonoWAV/30MonoT4.wav,2,1,4,16,,,,,1,11,27,15,0,10,10,11,,,,,,,,,1,0.7016160920029506,,,062,001,2019_May_27_1403,MusicAffectPsychophysiology2019,3.0.5,60.50598627328441,
To what extent did the music make you feel ,ACTIVE,30MonoWAV/30MonoT4.wav,2,1,4,16,,,,,1,11,27,15,0,11,11,9,,,,,,,,,2,1.5846061880001798,,,062,001,2019_May_27_1403,MusicAffectPsychophysiology2019,3.0.5,60.50598627328441,
,,30MonoWAV/30MonoT4.wav,2,1,4,16,,,,,1,11,27,15,,,,,,,,,,,,,,,,,062,001,2019_May_27_1403,MusicAffectPsychophysiology2019,3.0.5,60.50598627328441,
To what extent did the music make you feel ,SAD,30MonoWAV/30MonoS1.wav,1,1,3,9,,,,,1,12,28,8,0,0,0,0,,,2,2.402712695002265,2,0.9187460210014251,2,0.6684891519980738,1,1.9687033939990215,,,062,001,2019_May_27_1403,MusicAffectPsychophysiology2019,3.0.5,60.50598627328441,
To what extent did the music make you feel ,ANGRY,30MonoWAV/30MonoS1.wav,1,1,3,9,,,,,1,12,28,8,0,1,1,2,,,,,,,,,3,2.401239004000672,,,062,001,2019_May_27_1403,MusicAffectPsychophysiology2019,3.0.5,60.50598627328441,
To what extent did the music make you feel ,TENDER,30MonoWAV/30MonoS1.wav,1,1,3,9,,,,,1,12,28,8,0,2,2,10,,,,,,,,,3,0.9340058019952266,,,062,001,2019_May_27_1403,MusicAffectPsychophysiology2019,3.0.5,60.50598627328441,
To what extent did the music make you feel ,SCARED,30MonoWAV/30MonoS1.wav,1,1,3,9,,,,,1,12,28,8,0,3,3,11,,,,,,,,,4,1.284979135998583,,,062,001,2019_May_27_1403,MusicAffectPsychophysiology2019,3.0.5,60.50598627328441,
To what extent did the music make you feel ,GUILTY,30MonoWAV/30MonoS1.wav,1,1,3,9,,,,,1,12,28,8,0,4,4,5,,,,,,,,,3,0.9011126939949463,,,062,001,2019_May_27_1403,MusicAffectPsychophysiology2019,3.0.5,60.50598627328441,
To what extent did the music make you feel ,HAPPY,30MonoWAV/30MonoS1.wav,1,1,3,9,,,,,1,12,28,8,0,5,5,6,,,,,,,,,1,3.201895611004147,,,062,001,2019_May_27_1403,MusicAffectPsychophysiology2019,3.0.5,60.50598627328441,
To what extent did the music make you feel ,ASHAMED,30MonoWAV/30MonoS1.wav,1,1,3,9,,,,,1,12,28,8,0,6,6,4,,,,,,,,,2,0.9188626649993239,,,062,001,2019_May_27_1403,MusicAffectPsychophysiology2019,3.0.5,60.50598627328441,
To what extent did the music make you feel ,ACTIVE,30MonoWAV/30MonoS1.wav,1,1,3,9,,,,,1,12,28,8,0,7,7,9,,,,,,,,,2,1.334766154002864,,,062,001,2019_May_27_1403,MusicAffectPsychophysiology2019,3.0.5,60.50598627328441,
To what extent did the music make you feel ,ANXIOUS ,30MonoWAV/30MonoS1.wav,1,1,3,9,,,,,1,12,28,8,0,8,8,1,,,,,,,,,3,1.4228129320035805,,,062,001,2019_May_27_1403,MusicAffectPsychophysiology2019,3.0.5,60.50598627328441,
To what extent did the music make you feel ,ALERT,30MonoWAV/30MonoS1.wav,1,1,3,9,,,,,1,12,28,8,0,9,9,8,,,,,,,,,2,0.9344759500017972,,,062,001,2019_May_27_1403,MusicAffectPsychophysiology2019,3.0.5,60.50598627328441,
To what extent did the music make you feel ,FRUSTRATED,30MonoWAV/30MonoS1.wav,1,1,3,9,,,,,1,12,28,8,0,10,10,3,,,,,,,,,3,0.9869411340041552,,,062,001,2019_May_27_1403,MusicAffectPsychophysiology2019,3.0.5,60.50598627328441,
To what extent did the music make you feel ,EXCITED,30MonoWAV/30MonoS1.wav,1,1,3,9,,,,,1,12,28,8,0,11,11,7,,,,,,,,,2,2.3547751320002135,,,062,001,2019_May_27_1403,MusicAffectPsychophysiology2019,3.0.5,60.50598627328441,
,,30MonoWAV/30MonoS1.wav,1,1,3,9,,,,,1,12,28,8,,,,,,,,,,,,,,,,,062,001,2019_May_27_1403,MusicAffectPsychophysiology2019,3.0.5,60.50598627328441,
To what extent did the music make you feel ,SAD,30MonoWAV/30MonoT1.wav,2,1,4,13,,,,,1,13,29,12,0,0,0,0,,,3,3.318419896000705,2,0.6848862549959449,3,0.9016041419963585,2,1.8853325579984812,,,062,001,2019_May_27_1403,MusicAffectPsychophysiology2019,3.0.5,60.50598627328441,
To what extent did the music make you feel ,ANGRY,30MonoWAV/30MonoT1.wav,2,1,4,13,,,,,1,13,29,12,0,1,1,2,,,,,,,,,1,1.7520900449962937,,,062,001,2019_May_27_1403,MusicAffectPsychophysiology2019,3.0.5,60.50598627328441,
To what extent did the music make you feel ,ALERT,30MonoWAV/30MonoT1.wav,2,1,4,13,,,,,1,13,29,12,0,2,2,8,,,,,,,,,2,0.8181216129960376,,,062,001,2019_May_27_1403,MusicAffectPsychophysiology2019,3.0.5,60.50598627328441,
To what extent did the music make you feel ,SCARED,30MonoWAV/30MonoT1.wav,2,1,4,13,,,,,1,13,29,12,0,3,3,11,,,,,,,,,2,1.5183325540056103,,,062,001,2019_May_27_1403,MusicAffectPsychophysiology2019,3.0.5,60.50598627328441,
To what extent did the music make you feel ,HAPPY,30MonoWAV/30MonoT1.wav,2,1,4,13,,,,,1,13,29,12,0,4,4,6,,,,,,,,,2,1.3512550899977214,,,062,001,2019_May_27_1403,MusicAffectPsychophysiology2019,3.0.5,60.50598627328441,
To what extent did the music make you feel ,ANXIOUS ,30MonoWAV/30MonoT1.wav,2,1,4,13,,,,,1,13,29,12,0,5,5,1,,,,,,,,,4,1.3826649830007227,,,062,001,2019_May_27_1403,MusicAffectPsychophysiology2019,3.0.5,60.50598627328441,
To what extent did the music make you feel ,GUILTY,30MonoWAV/30MonoT1.wav,2,1,4,13,,,,,1,13,29,12,0,6,6,5,,,,,,,,,3,0.969207620000816,,,062,001,2019_May_27_1403,MusicAffectPsychophysiology2019,3.0.5,60.50598627328441,
To what extent did the music make you feel ,FRUSTRATED,30MonoWAV/30MonoT1.wav,2,1,4,13,,,,,1,13,29,12,0,7,7,3,,,,,,,,,2,1.1180356530021527,,,062,001,2019_May_27_1403,MusicAffectPsychophysiology2019,3.0.5,60.50598627328441,
To what extent did the music make you feel ,ACTIVE,30MonoWAV/30MonoT1.wav,2,1,4,13,,,,,1,13,29,12,0,8,8,9,,,,,,,,,2,2.6847516799971345,,,062,001,2019_May_27_1403,MusicAffectPsychophysiology2019,3.0.5,60.50598627328441,
To what extent did the music make you feel ,TENDER,30MonoWAV/30MonoT1.wav,2,1,4,13,,,,,1,13,29,12,0,9,9,10,,,,,,,,,2,0.9014636529973359,,,062,001,2019_May_27_1403,MusicAffectPsychophysiology2019,3.0.5,60.50598627328441,
To what extent did the music make you feel ,EXCITED,30MonoWAV/30MonoT1.wav,2,1,4,13,,,,,1,13,29,12,0,10,10,7,,,,,,,,,2,1.4024817270037602,,,062,001,2019_May_27_1403,MusicAffectPsychophysiology2019,3.0.5,60.50598627328441,
To what extent did the music make you feel ,ASHAMED,30MonoWAV/30MonoT1.wav,2,1,4,13,,,,,1,13,29,12,0,11,11,4,,,,,,,,,3,1.3015527700044913,,,062,001,2019_May_27_1403,MusicAffectPsychophysiology2019,3.0.5,60.50598627328441,
,,30MonoWAV/30MonoT1.wav,2,1,4,13,,,,,1,13,29,12,,,,,,,,,,,,,,,,,062,001,2019_May_27_1403,MusicAffectPsychophysiology2019,3.0.5,60.50598627328441,
To what extent did the music make you feel ,ASHAMED,30MonoWAV/30MonoF4.wav,1,2,2,4,,,,,1,14,30,3,0,0,0,4,,,2,2.8018132590004825,2,2.7511512049968587,2,0.46852004100219347,2,1.4849502879951615,,,062,001,2019_May_27_1403,MusicAffectPsychophysiology2019,3.0.5,60.50598627328441,
To what extent did the music make you feel ,ALERT,30MonoWAV/30MonoF4.wav,1,2,2,4,,,,,1,14,30,3,0,1,1,8,,,,,,,,,2,0.7184615310034133,,,062,001,2019_May_27_1403,MusicAffectPsychophysiology2019,3.0.5,60.50598627328441,
To what extent did the music make you feel ,HAPPY,30MonoWAV/30MonoF4.wav,1,2,2,4,,,,,1,14,30,3,0,2,2,6,,,,,,,,,1,0.9340531880006893,,,062,001,2019_May_27_1403,MusicAffectPsychophysiology2019,3.0.5,60.50598627328441,
To what extent did the music make you feel ,ACTIVE,30MonoWAV/30MonoF4.wav,1,2,2,4,,,,,1,14,30,3,0,3,3,9,,,,,,,,,2,1.0349007019976852,,,062,001,2019_May_27_1403,MusicAffectPsychophysiology2019,3.0.5,60.50598627328441,
To what extent did the music make you feel ,GUILTY,30MonoWAV/30MonoF4.wav,1,2,2,4,,,,,1,14,30,3,0,4,4,5,,,,,,,,,2,1.1361055290035438,,,062,001,2019_May_27_1403,MusicAffectPsychophysiology2019,3.0.5,60.50598627328441,
To what extent did the music make you feel ,SCARED,30MonoWAV/30MonoF4.wav,1,2,2,4,,,,,1,14,30,3,0,5,5,11,,,,,,,,,4,2.3358501070033526,,,062,001,2019_May_27_1403,MusicAffectPsychophysiology2019,3.0.5,60.50598627328441,
To what extent did the music make you feel ,ANXIOUS ,30MonoWAV/30MonoF4.wav,1,2,2,4,,,,,1,14,30,3,0,6,6,1,,,,,,,,,3,0.0005938889953540638,,,062,001,2019_May_27_1403,MusicAffectPsychophysiology2019,3.0.5,60.50598627328441,
To what extent did the music make you feel ,SAD,30MonoWAV/30MonoF4.wav,1,2,2,4,,,,,1,14,30,3,0,7,7,0,,,,,,,,,4,1.9338467920024414,,,062,001,2019_May_27_1403,MusicAffectPsychophysiology2019,3.0.5,60.50598627328441,
To what extent did the music make you feel ,EXCITED,30MonoWAV/30MonoF4.wav,1,2,2,4,,,,,1,14,30,3,0,8,8,7,,,,,,,,,2,1.2514764640000067,,,062,001,2019_May_27_1403,MusicAffectPsychophysiology2019,3.0.5,60.50598627328441,
To what extent did the music make you feel ,TENDER,30MonoWAV/30MonoF4.wav,1,2,2,4,,,,,1,14,30,3,0,9,9,10,,,,,,,,,2,0.884651792999648,,,062,001,2019_May_27_1403,MusicAffectPsychophysiology2019,3.0.5,60.50598627328441,
To what extent did the music make you feel ,ANGRY,30MonoWAV/30MonoF4.wav,1,2,2,4,,,,,1,14,30,3,0,10,10,2,,,,,,,,,3,1.205973295000149,,,062,001,2019_May_27_1403,MusicAffectPsychophysiology2019,3.0.5,60.50598627328441,
To what extent did the music make you feel ,FRUSTRATED,30MonoWAV/30MonoF4.wav,1,2,2,4,,,,,1,14,30,3,0,11,11,3,,,,,,,,,3,1.003367645003891,,,062,001,2019_May_27_1403,MusicAffectPsychophysiology2019,3.0.5,60.50598627328441,
,,30MonoWAV/30MonoF4.wav,1,2,2,4,,,,,1,14,30,3,,,,,,,,,,,,,,,,,062,001,2019_May_27_1403,MusicAffectPsychophysiology2019,3.0.5,60.50598627328441,
To what extent did the music make you feel ,FRUSTRATED,30MonoWAV/30MonoF1.wav,1,2,2,1,,,,,1,15,31,0,0,0,0,3,,,2,2.1682270290039014,2,1.1340424090012675,2,0.5856211709979107,3,1.5341429990003235,,,062,001,2019_May_27_1403,MusicAffectPsychophysiology2019,3.0.5,60.50598627328441,
To what extent did the music make you feel ,EXCITED,30MonoWAV/30MonoF1.wav,1,2,2,1,,,,,1,15,31,0,0,1,1,7,,,,,,,,,2,1.0691416539993952,,,062,001,2019_May_27_1403,MusicAffectPsychophysiology2019,3.0.5,60.50598627328441,
To what extent did the music make you feel ,SAD,30MonoWAV/30MonoF1.wav,1,2,2,1,,,,,1,15,31,0,0,2,2,0,,,,,,,,,2,1.4355009920036537,,,062,001,2019_May_27_1403,MusicAffectPsychophysiology2019,3.0.5,60.50598627328441,
To what extent did the music make you feel ,ASHAMED,30MonoWAV/30MonoF1.wav,1,2,2,1,,,,,1,15,31,0,0,3,3,4,,,,,,,,,1,0.9175365169940051,,,062,001,2019_May_27_1403,MusicAffectPsychophysiology2019,3.0.5,60.50598627328441,
To what extent did the music make you feel ,SCARED,30MonoWAV/30MonoF1.wav,1,2,2,1,,,,,1,15,31,0,0,4,4,11,,,,,,,,,4,1.1840836429983028,,,062,001,2019_May_27_1403,MusicAffectPsychophysiology2019,3.0.5,60.50598627328441,
To what extent did the music make you feel ,HAPPY,30MonoWAV/30MonoF1.wav,1,2,2,1,,,,,1,15,31,0,0,5,5,6,,,,,,,,,1,2.1349934509999002,,,062,001,2019_May_27_1403,MusicAffectPsychophysiology2019,3.0.5,60.50598627328441,
To what extent did the music make you feel ,ANGRY,30MonoWAV/30MonoF1.wav,1,2,2,1,,,,,1,15,31,0,0,6,6,2,,,,,,,,,3,1.1680987029976677,,,062,001,2019_May_27_1403,MusicAffectPsychophysiology2019,3.0.5,60.50598627328441,
To what extent did the music make you feel ,TENDER,30MonoWAV/30MonoF1.wav,1,2,2,1,,,,,1,15,31,0,0,7,7,10,,,,,,,,,2,0.8345278839988168,,,062,001,2019_May_27_1403,MusicAffectPsychophysiology2019,3.0.5,60.50598627328441,
To what extent did the music make you feel ,ANXIOUS ,30MonoWAV/30MonoF1.wav,1,2,2,1,,,,,1,15,31,0,0,8,8,1,,,,,,,,,4,1.1845071549978456,,,062,001,2019_May_27_1403,MusicAffectPsychophysiology2019,3.0.5,60.50598627328441,
To what extent did the music make you feel ,ALERT,30MonoWAV/30MonoF1.wav,1,2,2,1,,,,,1,15,31,0,0,9,9,8,,,,,,,,,3,0.9013536709971959,,,062,001,2019_May_27_1403,MusicAffectPsychophysiology2019,3.0.5,60.50598627328441,
To what extent did the music make you feel ,ACTIVE,30MonoWAV/30MonoF1.wav,1,2,2,1,,,,,1,15,31,0,0,10,10,9,,,,,,,,,2,0.934196680005698,,,062,001,2019_May_27_1403,MusicAffectPsychophysiology2019,3.0.5,60.50598627328441,
To what extent did the music make you feel ,GUILTY,30MonoWAV/30MonoF1.wav,1,2,2,1,,,,,1,15,31,0,0,11,11,5,,,,,,,,,2,1.2186232270032633,,,062,001,2019_May_27_1403,MusicAffectPsychophysiology2019,3.0.5,60.50598627328441,
,,30MonoWAV/30MonoF1.wav,1,2,2,1,,,,,1,15,31,0,,,,,,,,,,,,,,,,,062,001,2019_May_27_1403,MusicAffectPsychophysiology2019,3.0.5,60.50598627328441,
,,,,,,,,,,,,,,,,,,,,,,,,,,,,,space,298.34900966100395,062,001,2019_May_27_1403,MusicAffectPsychophysiology2019,3.0.5,60.50598627328441,
