Instruction,Word,song,valence,arousal,affectcat,songmark,pracwords.thisRepN,pracwords.thisTrialN,pracwords.thisN,pracwords.thisIndex,songtrials.thisRepN,songtrials.thisTrialN,songtrials.thisN,songtrials.thisIndex,words.thisRepN,words.thisTrialN,words.thisN,words.thisIndex,begin.keys,begin.rt,arousalkey.keys,arousalkey.rt,valencekey.keys,valencekey.rt,likekey.keys,likekey.rt,WordResponse.keys,WordResponse.rt,key_resp_2.keys,key_resp_2.rt,participant,session,date,expName,psychopyVersion,frameRate,
,,,,,,,,,,,,,,,,,,,space,13.043382435003878,,,,,,,,,,,063,001,2019_May_27_1508,MusicAffectPsychophysiology2019,3.0.5,59.90967238935127,
,,,,,,,,,,,,,,,,,,,,,4,6.150005755000166,,,,,,,,,063,001,2019_May_27_1508,MusicAffectPsychophysiology2019,3.0.5,59.90967238935127,
,,,,,,,,,,,,,,,,,,,,,,,5,2.367631788998551,,,,,,,063,001,2019_May_27_1508,MusicAffectPsychophysiology2019,3.0.5,59.90967238935127,
,,,,,,,,,,,,,,,,,,,,,,,,,5,3.618134698997892,,,,,063,001,2019_May_27_1508,MusicAffectPsychophysiology2019,3.0.5,59.90967238935127,
To what extent did the music make you feel ,GUILTY,,,,,,0,0,0,5,,,,,,,,,,,,,,,,,1,7.843294208003499,,,063,001,2019_May_27_1508,MusicAffectPsychophysiology2019,3.0.5,59.90967238935127,
To what extent did the music make you feel ,SAD,,,,,,0,1,1,0,,,,,,,,,,,,,,,,,2,6.601540096002282,,,063,001,2019_May_27_1508,MusicAffectPsychophysiology2019,3.0.5,59.90967238935127,
To what extent did the music make you feel ,TENDER,,,,,,0,2,2,10,,,,,,,,,,,,,,,,,4,2.2671891070058336,,,063,001,2019_May_27_1508,MusicAffectPsychophysiology2019,3.0.5,59.90967238935127,
To what extent did the music make you feel ,ANXIOUS ,,,,,,0,3,3,1,,,,,,,,,,,,,,,,,1,2.101632621997851,,,063,001,2019_May_27_1508,MusicAffectPsychophysiology2019,3.0.5,59.90967238935127,
To what extent did the music make you feel ,ANGRY,,,,,,0,4,4,2,,,,,,,,,,,,,,,,,1,1.502756882997346,,,063,001,2019_May_27_1508,MusicAffectPsychophysiology2019,3.0.5,59.90967238935127,
To what extent did the music make you feel ,HAPPY,,,,,,0,5,5,6,,,,,,,,,,,,,,,,,5,1.667030207994685,,,063,001,2019_May_27_1508,MusicAffectPsychophysiology2019,3.0.5,59.90967238935127,
To what extent did the music make you feel ,EXCITED,,,,,,0,6,6,7,,,,,,,,,,,,,,,,,4,2.167300520995923,,,063,001,2019_May_27_1508,MusicAffectPsychophysiology2019,3.0.5,59.90967238935127,
To what extent did the music make you feel ,FRUSTRATED,,,,,,0,7,7,3,,,,,,,,,,,,,,,,,1,1.6350581020014943,,,063,001,2019_May_27_1508,MusicAffectPsychophysiology2019,3.0.5,59.90967238935127,
To what extent did the music make you feel ,SCARED,,,,,,0,8,8,11,,,,,,,,,,,,,,,,,1,1.001823698003136,,,063,001,2019_May_27_1508,MusicAffectPsychophysiology2019,3.0.5,59.90967238935127,
To what extent did the music make you feel ,ACTIVE,,,,,,0,9,9,9,,,,,,,,,,,,,,,,,3,1.7185422640031902,,,063,001,2019_May_27_1508,MusicAffectPsychophysiology2019,3.0.5,59.90967238935127,
To what extent did the music make you feel ,ASHAMED,,,,,,0,10,10,4,,,,,,,,,,,,,,,,,1,1.7180593489974854,,,063,001,2019_May_27_1508,MusicAffectPsychophysiology2019,3.0.5,59.90967238935127,
To what extent did the music make you feel ,ALERT,,,,,,0,11,11,8,,,,,,,,,,,,,,,,,5,2.201642140003969,,,063,001,2019_May_27_1508,MusicAffectPsychophysiology2019,3.0.5,59.90967238935127,
To what extent did the music make you feel ,ANGRY,30MonoWAV/30MonoH1.wav,2,2,1,5,,,,,0,0,0,4,0,0,0,2,,,3,4.017234583996469,3,4.468157589995826,3,3.4564616610005032,2,2.3884957150003174,,,063,001,2019_May_27_1508,MusicAffectPsychophysiology2019,3.0.5,59.90967238935127,
To what extent did the music make you feel ,GUILTY,30MonoWAV/30MonoH1.wav,2,2,1,5,,,,,0,0,0,4,0,1,1,5,,,,,,,,,1,4.1592412760001025,,,063,001,2019_May_27_1508,MusicAffectPsychophysiology2019,3.0.5,59.90967238935127,
To what extent did the music make you feel ,FRUSTRATED,30MonoWAV/30MonoH1.wav,2,2,1,5,,,,,0,0,0,4,0,2,2,3,,,,,,,,,2,1.9176117950046319,,,063,001,2019_May_27_1508,MusicAffectPsychophysiology2019,3.0.5,59.90967238935127,
To what extent did the music make you feel ,EXCITED,30MonoWAV/30MonoH1.wav,2,2,1,5,,,,,0,0,0,4,0,3,3,7,,,,,,,,,3,4.2023012610006845,,,063,001,2019_May_27_1508,MusicAffectPsychophysiology2019,3.0.5,59.90967238935127,
To what extent did the music make you feel ,ALERT,30MonoWAV/30MonoH1.wav,2,2,1,5,,,,,0,0,0,4,0,4,4,8,,,,,,,,,3,2.7851424229957047,,,063,001,2019_May_27_1508,MusicAffectPsychophysiology2019,3.0.5,59.90967238935127,
To what extent did the music make you feel ,SAD,30MonoWAV/30MonoH1.wav,2,2,1,5,,,,,0,0,0,4,0,5,5,0,,,,,,,,,4,3.0831418149973615,,,063,001,2019_May_27_1508,MusicAffectPsychophysiology2019,3.0.5,59.90967238935127,
To what extent did the music make you feel ,ANXIOUS ,30MonoWAV/30MonoH1.wav,2,2,1,5,,,,,0,0,0,4,0,6,6,1,,,,,,,,,2,1.3507704719959293,,,063,001,2019_May_27_1508,MusicAffectPsychophysiology2019,3.0.5,59.90967238935127,
To what extent did the music make you feel ,ASHAMED,30MonoWAV/30MonoH1.wav,2,2,1,5,,,,,0,0,0,4,0,7,7,4,,,,,,,,,1,1.368094720004592,,,063,001,2019_May_27_1508,MusicAffectPsychophysiology2019,3.0.5,59.90967238935127,
To what extent did the music make you feel ,TENDER,30MonoWAV/30MonoH1.wav,2,2,1,5,,,,,0,0,0,4,0,8,8,10,,,,,,,,,4,2.01950485999987,,,063,001,2019_May_27_1508,MusicAffectPsychophysiology2019,3.0.5,59.90967238935127,
To what extent did the music make you feel ,ACTIVE,30MonoWAV/30MonoH1.wav,2,2,1,5,,,,,0,0,0,4,0,9,9,9,,,,,,,,,4,3.0152268719975837,,,063,001,2019_May_27_1508,MusicAffectPsychophysiology2019,3.0.5,59.90967238935127,
To what extent did the music make you feel ,HAPPY,30MonoWAV/30MonoH1.wav,2,2,1,5,,,,,0,0,0,4,0,10,10,6,,,,,,,,,3,2.2685349699968356,,,063,001,2019_May_27_1508,MusicAffectPsychophysiology2019,3.0.5,59.90967238935127,
To what extent did the music make you feel ,SCARED,30MonoWAV/30MonoH1.wav,2,2,1,5,,,,,0,0,0,4,0,11,11,11,,,,,,,,,1,2.1333794640013366,,,063,001,2019_May_27_1508,MusicAffectPsychophysiology2019,3.0.5,59.90967238935127,
,,30MonoWAV/30MonoH1.wav,2,2,1,5,,,,,0,0,0,4,,,,,,,,,,,,,,,,,063,001,2019_May_27_1508,MusicAffectPsychophysiology2019,3.0.5,59.90967238935127,
To what extent did the music make you feel ,EXCITED,30MonoWAV/30MonoT3.wav,2,1,4,15,,,,,0,1,1,14,0,0,0,7,,,2,6.540148435000447,3,4.823930574995757,4,2.8384700800015708,3,2.102837048994843,,,063,001,2019_May_27_1508,MusicAffectPsychophysiology2019,3.0.5,59.90967238935127,
To what extent did the music make you feel ,HAPPY,30MonoWAV/30MonoT3.wav,2,1,4,15,,,,,0,1,1,14,0,1,1,6,,,,,,,,,4,2.0191151719991467,,,063,001,2019_May_27_1508,MusicAffectPsychophysiology2019,3.0.5,59.90967238935127,
To what extent did the music make you feel ,SCARED,30MonoWAV/30MonoT3.wav,2,1,4,15,,,,,0,1,1,14,0,2,2,11,,,,,,,,,1,1.2345620089981821,,,063,001,2019_May_27_1508,MusicAffectPsychophysiology2019,3.0.5,59.90967238935127,
To what extent did the music make you feel ,ANGRY,30MonoWAV/30MonoT3.wav,2,1,4,15,,,,,0,1,1,14,0,3,3,2,,,,,,,,,1,1.2686387789945002,,,063,001,2019_May_27_1508,MusicAffectPsychophysiology2019,3.0.5,59.90967238935127,
To what extent did the music make you feel ,TENDER,30MonoWAV/30MonoT3.wav,2,1,4,15,,,,,0,1,1,14,0,4,4,10,,,,,,,,,4,1.5019717030008906,,,063,001,2019_May_27_1508,MusicAffectPsychophysiology2019,3.0.5,59.90967238935127,
To what extent did the music make you feel ,ALERT,30MonoWAV/30MonoT3.wav,2,1,4,15,,,,,0,1,1,14,0,5,5,8,,,,,,,,,3,1.7519161259988323,,,063,001,2019_May_27_1508,MusicAffectPsychophysiology2019,3.0.5,59.90967238935127,
To what extent did the music make you feel ,ANXIOUS ,30MonoWAV/30MonoT3.wav,2,1,4,15,,,,,0,1,1,14,0,6,6,1,,,,,,,,,2,3.051707423001062,,,063,001,2019_May_27_1508,MusicAffectPsychophysiology2019,3.0.5,59.90967238935127,
To what extent did the music make you feel ,ACTIVE,30MonoWAV/30MonoT3.wav,2,1,4,15,,,,,0,1,1,14,0,7,7,9,,,,,,,,,2,2.5506906009977683,,,063,001,2019_May_27_1508,MusicAffectPsychophysiology2019,3.0.5,59.90967238935127,
To what extent did the music make you feel ,ASHAMED,30MonoWAV/30MonoT3.wav,2,1,4,15,,,,,0,1,1,14,0,8,8,4,,,,,,,,,1,1.2683156810016953,,,063,001,2019_May_27_1508,MusicAffectPsychophysiology2019,3.0.5,59.90967238935127,
To what extent did the music make you feel ,FRUSTRATED,30MonoWAV/30MonoT3.wav,2,1,4,15,,,,,0,1,1,14,0,9,9,3,,,,,,,,,1,3.341259747998265,,,063,001,2019_May_27_1508,MusicAffectPsychophysiology2019,3.0.5,59.90967238935127,
To what extent did the music make you feel ,SAD,30MonoWAV/30MonoT3.wav,2,1,4,15,,,,,0,1,1,14,0,10,10,0,,,,,,,,,2,2.170587129003252,,,063,001,2019_May_27_1508,MusicAffectPsychophysiology2019,3.0.5,59.90967238935127,
To what extent did the music make you feel ,GUILTY,30MonoWAV/30MonoT3.wav,2,1,4,15,,,,,0,1,1,14,0,11,11,5,,,,,,,,,1,1.2030227439972805,,,063,001,2019_May_27_1508,MusicAffectPsychophysiology2019,3.0.5,59.90967238935127,
,,30MonoWAV/30MonoT3.wav,2,1,4,15,,,,,0,1,1,14,,,,,,,,,,,,,,,,,063,001,2019_May_27_1508,MusicAffectPsychophysiology2019,3.0.5,59.90967238935127,
To what extent did the music make you feel ,GUILTY,30MonoWAV/30MonoS4.wav,1,1,3,12,,,,,0,2,2,11,0,0,0,5,,,2,5.38428902799933,2,4.901706589997048,3,3.716842296998948,2,2.251874157002021,,,063,001,2019_May_27_1508,MusicAffectPsychophysiology2019,3.0.5,59.90967238935127,
To what extent did the music make you feel ,FRUSTRATED,30MonoWAV/30MonoS4.wav,1,1,3,12,,,,,0,2,2,11,0,1,1,3,,,,,,,,,2,1.7725955519999843,,,063,001,2019_May_27_1508,MusicAffectPsychophysiology2019,3.0.5,59.90967238935127,
To what extent did the music make you feel ,ANGRY,30MonoWAV/30MonoS4.wav,1,1,3,12,,,,,0,2,2,11,0,2,2,2,,,,,,,,,1,1.8705512160013313,,,063,001,2019_May_27_1508,MusicAffectPsychophysiology2019,3.0.5,59.90967238935127,
To what extent did the music make you feel ,HAPPY,30MonoWAV/30MonoS4.wav,1,1,3,12,,,,,0,2,2,11,0,3,3,6,,,,,,,,,1,3.289172728997073,,,063,001,2019_May_27_1508,MusicAffectPsychophysiology2019,3.0.5,59.90967238935127,
To what extent did the music make you feel ,EXCITED,30MonoWAV/30MonoS4.wav,1,1,3,12,,,,,0,2,2,11,0,4,4,7,,,,,,,,,1,2.9407997779999278,,,063,001,2019_May_27_1508,MusicAffectPsychophysiology2019,3.0.5,59.90967238935127,
To what extent did the music make you feel ,ACTIVE,30MonoWAV/30MonoS4.wav,1,1,3,12,,,,,0,2,2,11,0,5,5,9,,,,,,,,,1,2.934980700003507,,,063,001,2019_May_27_1508,MusicAffectPsychophysiology2019,3.0.5,59.90967238935127,
To what extent did the music make you feel ,TENDER,30MonoWAV/30MonoS4.wav,1,1,3,12,,,,,0,2,2,11,0,6,6,10,,,,,,,,,4,2.985189890001493,,,063,001,2019_May_27_1508,MusicAffectPsychophysiology2019,3.0.5,59.90967238935127,
To what extent did the music make you feel ,ASHAMED,30MonoWAV/30MonoS4.wav,1,1,3,12,,,,,0,2,2,11,0,7,7,4,,,,,,,,,1,1.152310994999425,,,063,001,2019_May_27_1508,MusicAffectPsychophysiology2019,3.0.5,59.90967238935127,
To what extent did the music make you feel ,SCARED,30MonoWAV/30MonoS4.wav,1,1,3,12,,,,,0,2,2,11,0,8,8,11,,,,,,,,,1,1.6346829070025706,,,063,001,2019_May_27_1508,MusicAffectPsychophysiology2019,3.0.5,59.90967238935127,
To what extent did the music make you feel ,ALERT,30MonoWAV/30MonoS4.wav,1,1,3,12,,,,,0,2,2,11,0,9,9,8,,,,,,,,,1,1.8014134469995042,,,063,001,2019_May_27_1508,MusicAffectPsychophysiology2019,3.0.5,59.90967238935127,
To what extent did the music make you feel ,SAD,30MonoWAV/30MonoS4.wav,1,1,3,12,,,,,0,2,2,11,0,10,10,0,,,,,,,,,3,2.469019729003776,,,063,001,2019_May_27_1508,MusicAffectPsychophysiology2019,3.0.5,59.90967238935127,
To what extent did the music make you feel ,ANXIOUS ,30MonoWAV/30MonoS4.wav,1,1,3,12,,,,,0,2,2,11,0,11,11,1,,,,,,,,,1,1.1353293360007228,,,063,001,2019_May_27_1508,MusicAffectPsychophysiology2019,3.0.5,59.90967238935127,
,,30MonoWAV/30MonoS4.wav,1,1,3,12,,,,,0,2,2,11,,,,,,,,,,,,,,,,,063,001,2019_May_27_1508,MusicAffectPsychophysiology2019,3.0.5,59.90967238935127,
To what extent did the music make you feel ,FRUSTRATED,30MonoWAV/30MonoT4.wav,2,1,4,16,,,,,0,3,3,15,0,0,0,3,,,2,5.751170160001493,2,2.734178365994012,1,1.917700115001935,3,2.984592150001845,,,063,001,2019_May_27_1508,MusicAffectPsychophysiology2019,3.0.5,59.90967238935127,
To what extent did the music make you feel ,ANGRY,30MonoWAV/30MonoT4.wav,2,1,4,16,,,,,0,3,3,15,0,1,1,2,,,,,,,,,2,2.3740494000012404,,,063,001,2019_May_27_1508,MusicAffectPsychophysiology2019,3.0.5,59.90967238935127,
To what extent did the music make you feel ,HAPPY,30MonoWAV/30MonoT4.wav,2,1,4,16,,,,,0,3,3,15,0,2,2,6,,,,,,,,,2,3.021499821996258,,,063,001,2019_May_27_1508,MusicAffectPsychophysiology2019,3.0.5,59.90967238935127,
To what extent did the music make you feel ,SAD,30MonoWAV/30MonoT4.wav,2,1,4,16,,,,,0,3,3,15,0,3,3,0,,,,,,,,,2,4.0912012760018115,,,063,001,2019_May_27_1508,MusicAffectPsychophysiology2019,3.0.5,59.90967238935127,
To what extent did the music make you feel ,EXCITED,30MonoWAV/30MonoT4.wav,2,1,4,16,,,,,0,3,3,15,0,4,4,7,,,,,,,,,3,1.5681735910038697,,,063,001,2019_May_27_1508,MusicAffectPsychophysiology2019,3.0.5,59.90967238935127,
To what extent did the music make you feel ,SCARED,30MonoWAV/30MonoT4.wav,2,1,4,16,,,,,0,3,3,15,0,5,5,11,,,,,,,,,1,1.0350219899992226,,,063,001,2019_May_27_1508,MusicAffectPsychophysiology2019,3.0.5,59.90967238935127,
To what extent did the music make you feel ,ASHAMED,30MonoWAV/30MonoT4.wav,2,1,4,16,,,,,0,3,3,15,0,6,6,4,,,,,,,,,2,3.801549363997765,,,063,001,2019_May_27_1508,MusicAffectPsychophysiology2019,3.0.5,59.90967238935127,
To what extent did the music make you feel ,ALERT,30MonoWAV/30MonoT4.wav,2,1,4,16,,,,,0,3,3,15,0,7,7,8,,,,,,,,,2,2.301750708997133,,,063,001,2019_May_27_1508,MusicAffectPsychophysiology2019,3.0.5,59.90967238935127,
To what extent did the music make you feel ,ACTIVE,30MonoWAV/30MonoT4.wav,2,1,4,16,,,,,0,3,3,15,0,8,8,9,,,,,,,,,2,3.584817255999951,,,063,001,2019_May_27_1508,MusicAffectPsychophysiology2019,3.0.5,59.90967238935127,
To what extent did the music make you feel ,GUILTY,30MonoWAV/30MonoT4.wav,2,1,4,16,,,,,0,3,3,15,0,9,9,5,,,,,,,,,2,1.9000414120018831,,,063,001,2019_May_27_1508,MusicAffectPsychophysiology2019,3.0.5,59.90967238935127,
To what extent did the music make you feel ,ANXIOUS ,30MonoWAV/30MonoT4.wav,2,1,4,16,,,,,0,3,3,15,0,10,10,1,,,,,,,,,1,1.0361021700009587,,,063,001,2019_May_27_1508,MusicAffectPsychophysiology2019,3.0.5,59.90967238935127,
To what extent did the music make you feel ,TENDER,30MonoWAV/30MonoT4.wav,2,1,4,16,,,,,0,3,3,15,0,11,11,10,,,,,,,,,1,1.6685183149966178,,,063,001,2019_May_27_1508,MusicAffectPsychophysiology2019,3.0.5,59.90967238935127,
,,30MonoWAV/30MonoT4.wav,2,1,4,16,,,,,0,3,3,15,,,,,,,,,,,,,,,,,063,001,2019_May_27_1508,MusicAffectPsychophysiology2019,3.0.5,59.90967238935127,
To what extent did the music make you feel ,EXCITED,30MonoWAV/30MonoH4.wav,2,2,1,8,,,,,0,4,4,7,0,0,0,7,,,3,3.738860236000619,3,3.556410336001136,3,2.0179684059985448,4,3.0516997129961965,,,063,001,2019_May_27_1508,MusicAffectPsychophysiology2019,3.0.5,59.90967238935127,
To what extent did the music make you feel ,TENDER,30MonoWAV/30MonoH4.wav,2,2,1,8,,,,,0,4,4,7,0,1,1,10,,,,,,,,,1,1.5516938739965553,,,063,001,2019_May_27_1508,MusicAffectPsychophysiology2019,3.0.5,59.90967238935127,
To what extent did the music make you feel ,ASHAMED,30MonoWAV/30MonoH4.wav,2,2,1,8,,,,,0,4,4,7,0,2,2,4,,,,,,,,,1,0.9504205779958284,,,063,001,2019_May_27_1508,MusicAffectPsychophysiology2019,3.0.5,59.90967238935127,
To what extent did the music make you feel ,FRUSTRATED,30MonoWAV/30MonoH4.wav,2,2,1,8,,,,,0,4,4,7,0,3,3,3,,,,,,,,,1,2.0846541350038024,,,063,001,2019_May_27_1508,MusicAffectPsychophysiology2019,3.0.5,59.90967238935127,
To what extent did the music make you feel ,ALERT,30MonoWAV/30MonoH4.wav,2,2,1,8,,,,,0,4,4,7,0,4,4,8,,,,,,,,,4,1.4023697089942289,,,063,001,2019_May_27_1508,MusicAffectPsychophysiology2019,3.0.5,59.90967238935127,
To what extent did the music make you feel ,ANXIOUS ,30MonoWAV/30MonoH4.wav,2,2,1,8,,,,,0,4,4,7,0,5,5,1,,,,,,,,,2,1.8511418209964177,,,063,001,2019_May_27_1508,MusicAffectPsychophysiology2019,3.0.5,59.90967238935127,
To what extent did the music make you feel ,GUILTY,30MonoWAV/30MonoH4.wav,2,2,1,8,,,,,0,4,4,7,0,6,6,5,,,,,,,,,1,1.2518423620058456,,,063,001,2019_May_27_1508,MusicAffectPsychophysiology2019,3.0.5,59.90967238935127,
To what extent did the music make you feel ,HAPPY,30MonoWAV/30MonoH4.wav,2,2,1,8,,,,,0,4,4,7,0,7,7,6,,,,,,,,,4,1.7689753230006318,,,063,001,2019_May_27_1508,MusicAffectPsychophysiology2019,3.0.5,59.90967238935127,
To what extent did the music make you feel ,SAD,30MonoWAV/30MonoH4.wav,2,2,1,8,,,,,0,4,4,7,0,8,8,0,,,,,,,,,1,1.3853128949995153,,,063,001,2019_May_27_1508,MusicAffectPsychophysiology2019,3.0.5,59.90967238935127,
To what extent did the music make you feel ,ANGRY,30MonoWAV/30MonoH4.wav,2,2,1,8,,,,,0,4,4,7,0,9,9,2,,,,,,,,,1,1.5004106199994567,,,063,001,2019_May_27_1508,MusicAffectPsychophysiology2019,3.0.5,59.90967238935127,
To what extent did the music make you feel ,ACTIVE,30MonoWAV/30MonoH4.wav,2,2,1,8,,,,,0,4,4,7,0,10,10,9,,,,,,,,,4,1.318238890999055,,,063,001,2019_May_27_1508,MusicAffectPsychophysiology2019,3.0.5,59.90967238935127,
To what extent did the music make you feel ,SCARED,30MonoWAV/30MonoH4.wav,2,2,1,8,,,,,0,4,4,7,0,11,11,11,,,,,,,,,1,1.1847736639974755,,,063,001,2019_May_27_1508,MusicAffectPsychophysiology2019,3.0.5,59.90967238935127,
,,30MonoWAV/30MonoH4.wav,2,2,1,8,,,,,0,4,4,7,,,,,,,,,,,,,,,,,063,001,2019_May_27_1508,MusicAffectPsychophysiology2019,3.0.5,59.90967238935127,
To what extent did the music make you feel ,TENDER,30MonoWAV/30MonoF4.wav,1,2,2,4,,,,,0,5,5,3,0,0,0,10,,,4,5.251702066001599,2,3.025061981003091,2,2.5378835130031803,1,2.0074566210023477,,,063,001,2019_May_27_1508,MusicAffectPsychophysiology2019,3.0.5,59.90967238935127,
To what extent did the music make you feel ,ALERT,30MonoWAV/30MonoF4.wav,1,2,2,4,,,,,0,5,5,3,0,1,1,8,,,,,,,,,5,1.9684845969968592,,,063,001,2019_May_27_1508,MusicAffectPsychophysiology2019,3.0.5,59.90967238935127,
To what extent did the music make you feel ,FRUSTRATED,30MonoWAV/30MonoF4.wav,1,2,2,4,,,,,0,5,5,3,0,2,2,3,,,,,,,,,1,1.901633216002665,,,063,001,2019_May_27_1508,MusicAffectPsychophysiology2019,3.0.5,59.90967238935127,
To what extent did the music make you feel ,ANXIOUS ,30MonoWAV/30MonoF4.wav,1,2,2,4,,,,,0,5,5,3,0,3,3,1,,,,,,,,,3,1.5680691070010653,,,063,001,2019_May_27_1508,MusicAffectPsychophysiology2019,3.0.5,59.90967238935127,
To what extent did the music make you feel ,SAD,30MonoWAV/30MonoF4.wav,1,2,2,4,,,,,0,5,5,3,0,4,4,0,,,,,,,,,1,1.9679962410009466,,,063,001,2019_May_27_1508,MusicAffectPsychophysiology2019,3.0.5,59.90967238935127,
To what extent did the music make you feel ,SCARED,30MonoWAV/30MonoF4.wav,1,2,2,4,,,,,0,5,5,3,0,5,5,11,,,,,,,,,2,2.1183689999961643,,,063,001,2019_May_27_1508,MusicAffectPsychophysiology2019,3.0.5,59.90967238935127,
To what extent did the music make you feel ,HAPPY,30MonoWAV/30MonoF4.wav,1,2,2,4,,,,,0,5,5,3,0,6,6,6,,,,,,,,,1,3.235473982000258,,,063,001,2019_May_27_1508,MusicAffectPsychophysiology2019,3.0.5,59.90967238935127,
To what extent did the music make you feel ,ASHAMED,30MonoWAV/30MonoF4.wav,1,2,2,4,,,,,0,5,5,3,0,7,7,4,,,,,,,,,1,1.7355404420013656,,,063,001,2019_May_27_1508,MusicAffectPsychophysiology2019,3.0.5,59.90967238935127,
To what extent did the music make you feel ,GUILTY,30MonoWAV/30MonoF4.wav,1,2,2,4,,,,,0,5,5,3,0,8,8,5,,,,,,,,,2,1.5509967830003006,,,063,001,2019_May_27_1508,MusicAffectPsychophysiology2019,3.0.5,59.90967238935127,
To what extent did the music make you feel ,ANGRY,30MonoWAV/30MonoF4.wav,1,2,2,4,,,,,0,5,5,3,0,9,9,2,,,,,,,,,3,3.235552848993393,,,063,001,2019_May_27_1508,MusicAffectPsychophysiology2019,3.0.5,59.90967238935127,
To what extent did the music make you feel ,EXCITED,30MonoWAV/30MonoF4.wav,1,2,2,4,,,,,0,5,5,3,0,10,10,7,,,,,,,,,3,2.184037635997811,,,063,001,2019_May_27_1508,MusicAffectPsychophysiology2019,3.0.5,59.90967238935127,
To what extent did the music make you feel ,ACTIVE,30MonoWAV/30MonoF4.wav,1,2,2,4,,,,,0,5,5,3,0,11,11,9,,,,,,,,,4,1.3687171869969461,,,063,001,2019_May_27_1508,MusicAffectPsychophysiology2019,3.0.5,59.90967238935127,
,,30MonoWAV/30MonoF4.wav,1,2,2,4,,,,,0,5,5,3,,,,,,,,,,,,,,,,,063,001,2019_May_27_1508,MusicAffectPsychophysiology2019,3.0.5,59.90967238935127,
To what extent did the music make you feel ,FRUSTRATED,30MonoWAV/30MonoF3.wav,1,2,2,3,,,,,0,6,6,2,0,0,0,3,,,3,8.38394313200115,3,3.0348277849989245,2,2.2509399379996466,3,2.651943485994707,,,063,001,2019_May_27_1508,MusicAffectPsychophysiology2019,3.0.5,59.90967238935127,
To what extent did the music make you feel ,SAD,30MonoWAV/30MonoF3.wav,1,2,2,3,,,,,0,6,6,2,0,1,1,0,,,,,,,,,2,2.317872930005251,,,063,001,2019_May_27_1508,MusicAffectPsychophysiology2019,3.0.5,59.90967238935127,
To what extent did the music make you feel ,ALERT,30MonoWAV/30MonoF3.wav,1,2,2,3,,,,,0,6,6,2,0,2,2,8,,,,,,,,,2,2.8015345849998994,,,063,001,2019_May_27_1508,MusicAffectPsychophysiology2019,3.0.5,59.90967238935127,
To what extent did the music make you feel ,HAPPY,30MonoWAV/30MonoF3.wav,1,2,2,3,,,,,0,6,6,2,0,3,3,6,,,,,,,,,2,1.5505921660005697,,,063,001,2019_May_27_1508,MusicAffectPsychophysiology2019,3.0.5,59.90967238935127,
To what extent did the music make you feel ,GUILTY,30MonoWAV/30MonoF3.wav,1,2,2,3,,,,,0,6,6,2,0,4,4,5,,,,,,,,,2,2.2521802580013173,,,063,001,2019_May_27_1508,MusicAffectPsychophysiology2019,3.0.5,59.90967238935127,
To what extent did the music make you feel ,ASHAMED,30MonoWAV/30MonoF3.wav,1,2,2,3,,,,,0,6,6,2,0,5,5,4,,,,,,,,,1,2.03465255399351,,,063,001,2019_May_27_1508,MusicAffectPsychophysiology2019,3.0.5,59.90967238935127,
To what extent did the music make you feel ,TENDER,30MonoWAV/30MonoF3.wav,1,2,2,3,,,,,0,6,6,2,0,6,6,10,,,,,,,,,1,1.6338914799998747,,,063,001,2019_May_27_1508,MusicAffectPsychophysiology2019,3.0.5,59.90967238935127,
To what extent did the music make you feel ,EXCITED,30MonoWAV/30MonoF3.wav,1,2,2,3,,,,,0,6,6,2,0,7,7,7,,,,,,,,,2,1.9015774549989146,,,063,001,2019_May_27_1508,MusicAffectPsychophysiology2019,3.0.5,59.90967238935127,
To what extent did the music make you feel ,ANXIOUS ,30MonoWAV/30MonoF3.wav,1,2,2,3,,,,,0,6,6,2,0,8,8,1,,,,,,,,,3,1.6836686759997974,,,063,001,2019_May_27_1508,MusicAffectPsychophysiology2019,3.0.5,59.90967238935127,
To what extent did the music make you feel ,SCARED,30MonoWAV/30MonoF3.wav,1,2,2,3,,,,,0,6,6,2,0,9,9,11,,,,,,,,,2,1.7519907970054192,,,063,001,2019_May_27_1508,MusicAffectPsychophysiology2019,3.0.5,59.90967238935127,
To what extent did the music make you feel ,ANGRY,30MonoWAV/30MonoF3.wav,1,2,2,3,,,,,0,6,6,2,0,10,10,2,,,,,,,,,3,2.784919459998491,,,063,001,2019_May_27_1508,MusicAffectPsychophysiology2019,3.0.5,59.90967238935127,
To what extent did the music make you feel ,ACTIVE,30MonoWAV/30MonoF3.wav,1,2,2,3,,,,,0,6,6,2,0,11,11,9,,,,,,,,,3,4.667766728998686,,,063,001,2019_May_27_1508,MusicAffectPsychophysiology2019,3.0.5,59.90967238935127,
,,30MonoWAV/30MonoF3.wav,1,2,2,3,,,,,0,6,6,2,,,,,,,,,,,,,,,,,063,001,2019_May_27_1508,MusicAffectPsychophysiology2019,3.0.5,59.90967238935127,
To what extent did the music make you feel ,EXCITED,30MonoWAV/30MonoF1.wav,1,2,2,1,,,,,0,7,7,0,0,0,0,7,,,3,10.150576803003787,1,2.268666508003662,1,2.4189288729976397,1,3.5000450299994554,,,063,001,2019_May_27_1508,MusicAffectPsychophysiology2019,3.0.5,59.90967238935127,
To what extent did the music make you feel ,FRUSTRATED,30MonoWAV/30MonoF1.wav,1,2,2,1,,,,,0,7,7,0,0,1,1,3,,,,,,,,,4,1.419016797997756,,,063,001,2019_May_27_1508,MusicAffectPsychophysiology2019,3.0.5,59.90967238935127,
To what extent did the music make you feel ,SCARED,30MonoWAV/30MonoF1.wav,1,2,2,1,,,,,0,7,7,0,0,2,2,11,,,,,,,,,2,1.517724528996041,,,063,001,2019_May_27_1508,MusicAffectPsychophysiology2019,3.0.5,59.90967238935127,
To what extent did the music make you feel ,GUILTY,30MonoWAV/30MonoF1.wav,1,2,2,1,,,,,0,7,7,0,0,3,3,5,,,,,,,,,1,1.1010562920055236,,,063,001,2019_May_27_1508,MusicAffectPsychophysiology2019,3.0.5,59.90967238935127,
To what extent did the music make you feel ,TENDER,30MonoWAV/30MonoF1.wav,1,2,2,1,,,,,0,7,7,0,0,4,4,10,,,,,,,,,1,1.4016698849954992,,,063,001,2019_May_27_1508,MusicAffectPsychophysiology2019,3.0.5,59.90967238935127,
To what extent did the music make you feel ,ASHAMED,30MonoWAV/30MonoF1.wav,1,2,2,1,,,,,0,7,7,0,0,5,5,4,,,,,,,,,2,3.2338868799997726,,,063,001,2019_May_27_1508,MusicAffectPsychophysiology2019,3.0.5,59.90967238935127,
To what extent did the music make you feel ,HAPPY,30MonoWAV/30MonoF1.wav,1,2,2,1,,,,,0,7,7,0,0,6,6,6,,,,,,,,,1,1.3184334090037737,,,063,001,2019_May_27_1508,MusicAffectPsychophysiology2019,3.0.5,59.90967238935127,
To what extent did the music make you feel ,ALERT,30MonoWAV/30MonoF1.wav,1,2,2,1,,,,,0,7,7,0,0,7,7,8,,,,,,,,,3,4.069564546000038,,,063,001,2019_May_27_1508,MusicAffectPsychophysiology2019,3.0.5,59.90967238935127,
To what extent did the music make you feel ,ANGRY,30MonoWAV/30MonoF1.wav,1,2,2,1,,,,,0,7,7,0,0,8,8,2,,,,,,,,,4,2.8166175829974236,,,063,001,2019_May_27_1508,MusicAffectPsychophysiology2019,3.0.5,59.90967238935127,
To what extent did the music make you feel ,ACTIVE,30MonoWAV/30MonoF1.wav,1,2,2,1,,,,,0,7,7,0,0,9,9,9,,,,,,,,,4,4.084042906994,,,063,001,2019_May_27_1508,MusicAffectPsychophysiology2019,3.0.5,59.90967238935127,
To what extent did the music make you feel ,ANXIOUS ,30MonoWAV/30MonoF1.wav,1,2,2,1,,,,,0,7,7,0,0,10,10,1,,,,,,,,,4,2.5181384239986073,,,063,001,2019_May_27_1508,MusicAffectPsychophysiology2019,3.0.5,59.90967238935127,
To what extent did the music make you feel ,SAD,30MonoWAV/30MonoF1.wav,1,2,2,1,,,,,0,7,7,0,0,11,11,0,,,,,,,,,1,2.0518319039983908,,,063,001,2019_May_27_1508,MusicAffectPsychophysiology2019,3.0.5,59.90967238935127,
,,30MonoWAV/30MonoF1.wav,1,2,2,1,,,,,0,7,7,0,,,,,,,,,,,,,,,,,063,001,2019_May_27_1508,MusicAffectPsychophysiology2019,3.0.5,59.90967238935127,
To what extent did the music make you feel ,TENDER,30MonoWAV/30MonoS2.wav,1,1,3,10,,,,,0,8,8,9,0,0,0,10,,,2,4.419119127000158,3,3.4515067329994054,4,2.401575292002235,4,2.350067403000139,,,063,001,2019_May_27_1508,MusicAffectPsychophysiology2019,3.0.5,59.90967238935127,
To what extent did the music make you feel ,GUILTY,30MonoWAV/30MonoS2.wav,1,1,3,10,,,,,0,8,8,9,0,1,1,5,,,,,,,,,2,1.9520622020063456,,,063,001,2019_May_27_1508,MusicAffectPsychophysiology2019,3.0.5,59.90967238935127,
To what extent did the music make you feel ,ANGRY,30MonoWAV/30MonoS2.wav,1,1,3,10,,,,,0,8,8,9,0,2,2,2,,,,,,,,,1,1.218040561005182,,,063,001,2019_May_27_1508,MusicAffectPsychophysiology2019,3.0.5,59.90967238935127,
To what extent did the music make you feel ,ACTIVE,30MonoWAV/30MonoS2.wav,1,1,3,10,,,,,0,8,8,9,0,3,3,9,,,,,,,,,2,1.351120618004643,,,063,001,2019_May_27_1508,MusicAffectPsychophysiology2019,3.0.5,59.90967238935127,
To what extent did the music make you feel ,ANXIOUS ,30MonoWAV/30MonoS2.wav,1,1,3,10,,,,,0,8,8,9,0,4,4,1,,,,,,,,,1,1.418233465999947,,,063,001,2019_May_27_1508,MusicAffectPsychophysiology2019,3.0.5,59.90967238935127,
To what extent did the music make you feel ,SAD,30MonoWAV/30MonoS2.wav,1,1,3,10,,,,,0,8,8,9,0,5,5,0,,,,,,,,,3,1.618322481001087,,,063,001,2019_May_27_1508,MusicAffectPsychophysiology2019,3.0.5,59.90967238935127,
To what extent did the music make you feel ,HAPPY,30MonoWAV/30MonoS2.wav,1,1,3,10,,,,,0,8,8,9,0,6,6,6,,,,,,,,,2,2.3338280790048884,,,063,001,2019_May_27_1508,MusicAffectPsychophysiology2019,3.0.5,59.90967238935127,
To what extent did the music make you feel ,ASHAMED,30MonoWAV/30MonoS2.wav,1,1,3,10,,,,,0,8,8,9,0,7,7,4,,,,,,,,,1,1.46826254100597,,,063,001,2019_May_27_1508,MusicAffectPsychophysiology2019,3.0.5,59.90967238935127,
To what extent did the music make you feel ,ALERT,30MonoWAV/30MonoS2.wav,1,1,3,10,,,,,0,8,8,9,0,8,8,8,,,,,,,,,3,4.218037439997715,,,063,001,2019_May_27_1508,MusicAffectPsychophysiology2019,3.0.5,59.90967238935127,
To what extent did the music make you feel ,FRUSTRATED,30MonoWAV/30MonoS2.wav,1,1,3,10,,,,,0,8,8,9,0,9,9,3,,,,,,,,,1,2.718017671999405,,,063,001,2019_May_27_1508,MusicAffectPsychophysiology2019,3.0.5,59.90967238935127,
To what extent did the music make you feel ,EXCITED,30MonoWAV/30MonoS2.wav,1,1,3,10,,,,,0,8,8,9,0,10,10,7,,,,,,,,,2,3.2338678689993685,,,063,001,2019_May_27_1508,MusicAffectPsychophysiology2019,3.0.5,59.90967238935127,
To what extent did the music make you feel ,SCARED,30MonoWAV/30MonoS2.wav,1,1,3,10,,,,,0,8,8,9,0,11,11,11,,,,,,,,,1,1.2681628099962836,,,063,001,2019_May_27_1508,MusicAffectPsychophysiology2019,3.0.5,59.90967238935127,
,,30MonoWAV/30MonoS2.wav,1,1,3,10,,,,,0,8,8,9,,,,,,,,,,,,,,,,,063,001,2019_May_27_1508,MusicAffectPsychophysiology2019,3.0.5,59.90967238935127,
To what extent did the music make you feel ,SAD,30MonoWAV/30MonoF2.wav,1,2,2,2,,,,,0,9,9,1,0,0,0,0,,,3,3.2848826169938548,1,2.186087473994121,1,1.567540834999818,3,3.6683210319970385,,,063,001,2019_May_27_1508,MusicAffectPsychophysiology2019,3.0.5,59.90967238935127,
To what extent did the music make you feel ,EXCITED,30MonoWAV/30MonoF2.wav,1,2,2,2,,,,,0,9,9,1,0,1,1,7,,,,,,,,,1,3.4176901940008975,,,063,001,2019_May_27_1508,MusicAffectPsychophysiology2019,3.0.5,59.90967238935127,
To what extent did the music make you feel ,ASHAMED,30MonoWAV/30MonoF2.wav,1,2,2,2,,,,,0,9,9,1,0,2,2,4,,,,,,,,,2,1.0514609950041631,,,063,001,2019_May_27_1508,MusicAffectPsychophysiology2019,3.0.5,59.90967238935127,
To what extent did the music make you feel ,ANGRY,30MonoWAV/30MonoF2.wav,1,2,2,2,,,,,0,9,9,1,0,3,3,2,,,,,,,,,3,1.684997905002092,,,063,001,2019_May_27_1508,MusicAffectPsychophysiology2019,3.0.5,59.90967238935127,
To what extent did the music make you feel ,ALERT,30MonoWAV/30MonoF2.wav,1,2,2,2,,,,,0,9,9,1,0,4,4,8,,,,,,,,,5,1.668924170997343,,,063,001,2019_May_27_1508,MusicAffectPsychophysiology2019,3.0.5,59.90967238935127,
To what extent did the music make you feel ,FRUSTRATED,30MonoWAV/30MonoF2.wav,1,2,2,2,,,,,0,9,9,1,0,5,5,3,,,,,,,,,5,3.1015563019973342,,,063,001,2019_May_27_1508,MusicAffectPsychophysiology2019,3.0.5,59.90967238935127,
To what extent did the music make you feel ,SCARED,30MonoWAV/30MonoF2.wav,1,2,2,2,,,,,0,9,9,1,0,6,6,11,,,,,,,,,5,1.5350251589989057,,,063,001,2019_May_27_1508,MusicAffectPsychophysiology2019,3.0.5,59.90967238935127,
To what extent did the music make you feel ,GUILTY,30MonoWAV/30MonoF2.wav,1,2,2,2,,,,,0,9,9,1,0,7,7,5,,,,,,,,,2,2.0190657810017,,,063,001,2019_May_27_1508,MusicAffectPsychophysiology2019,3.0.5,59.90967238935127,
To what extent did the music make you feel ,HAPPY,30MonoWAV/30MonoF2.wav,1,2,2,2,,,,,0,9,9,1,0,8,8,6,,,,,,,,,1,2.018101032001141,,,063,001,2019_May_27_1508,MusicAffectPsychophysiology2019,3.0.5,59.90967238935127,
To what extent did the music make you feel ,TENDER,30MonoWAV/30MonoF2.wav,1,2,2,2,,,,,0,9,9,1,0,9,9,10,,,,,,,,,1,1.4513605249958346,,,063,001,2019_May_27_1508,MusicAffectPsychophysiology2019,3.0.5,59.90967238935127,
To what extent did the music make you feel ,ACTIVE,30MonoWAV/30MonoF2.wav,1,2,2,2,,,,,0,9,9,1,0,10,10,9,,,,,,,,,5,2.0350285200038343,,,063,001,2019_May_27_1508,MusicAffectPsychophysiology2019,3.0.5,59.90967238935127,
To what extent did the music make you feel ,ANXIOUS ,30MonoWAV/30MonoF2.wav,1,2,2,2,,,,,0,9,9,1,0,11,11,1,,,,,,,,,5,0.6013849200026016,,,063,001,2019_May_27_1508,MusicAffectPsychophysiology2019,3.0.5,59.90967238935127,
,,30MonoWAV/30MonoF2.wav,1,2,2,2,,,,,0,9,9,1,,,,,,,,,,,,,,,,,063,001,2019_May_27_1508,MusicAffectPsychophysiology2019,3.0.5,59.90967238935127,
To what extent did the music make you feel ,FRUSTRATED,30MonoWAV/30MonoT2.wav,2,1,4,14,,,,,0,10,10,13,0,0,0,3,,,5,2.9517089130022214,5,1.5683279540025978,5,1.7017110740052885,1,1.4418823569940287,,,063,001,2019_May_27_1508,MusicAffectPsychophysiology2019,3.0.5,59.90967238935127,
To what extent did the music make you feel ,ASHAMED,30MonoWAV/30MonoT2.wav,2,1,4,14,,,,,0,10,10,13,0,1,1,4,,,,,,,,,1,0.9349057060026098,,,063,001,2019_May_27_1508,MusicAffectPsychophysiology2019,3.0.5,59.90967238935127,
To what extent did the music make you feel ,ANXIOUS ,30MonoWAV/30MonoT2.wav,2,1,4,14,,,,,0,10,10,13,0,2,2,1,,,,,,,,,1,1.2675145499961218,,,063,001,2019_May_27_1508,MusicAffectPsychophysiology2019,3.0.5,59.90967238935127,
To what extent did the music make you feel ,ALERT,30MonoWAV/30MonoT2.wav,2,1,4,14,,,,,0,10,10,13,0,3,3,8,,,,,,,,,5,3.0349375840014545,,,063,001,2019_May_27_1508,MusicAffectPsychophysiology2019,3.0.5,59.90967238935127,
To what extent did the music make you feel ,GUILTY,30MonoWAV/30MonoT2.wav,2,1,4,14,,,,,0,10,10,13,0,4,4,5,,,,,,,,,1,1.3021722230041632,,,063,001,2019_May_27_1508,MusicAffectPsychophysiology2019,3.0.5,59.90967238935127,
To what extent did the music make you feel ,TENDER,30MonoWAV/30MonoT2.wav,2,1,4,14,,,,,0,10,10,13,0,5,5,10,,,,,,,,,4,2.0680018290004227,,,063,001,2019_May_27_1508,MusicAffectPsychophysiology2019,3.0.5,59.90967238935127,
To what extent did the music make you feel ,SAD,30MonoWAV/30MonoT2.wav,2,1,4,14,,,,,0,10,10,13,0,6,6,0,,,,,,,,,1,1.5015651680005249,,,063,001,2019_May_27_1508,MusicAffectPsychophysiology2019,3.0.5,59.90967238935127,
To what extent did the music make you feel ,SCARED,30MonoWAV/30MonoT2.wav,2,1,4,14,,,,,0,10,10,13,0,7,7,11,,,,,,,,,1,1.3862392040027771,,,063,001,2019_May_27_1508,MusicAffectPsychophysiology2019,3.0.5,59.90967238935127,
To what extent did the music make you feel ,HAPPY,30MonoWAV/30MonoT2.wav,2,1,4,14,,,,,0,10,10,13,0,8,8,6,,,,,,,,,5,2.018668910000997,,,063,001,2019_May_27_1508,MusicAffectPsychophysiology2019,3.0.5,59.90967238935127,
To what extent did the music make you feel ,ANGRY,30MonoWAV/30MonoT2.wav,2,1,4,14,,,,,0,10,10,13,0,9,9,2,,,,,,,,,1,1.184769284001959,,,063,001,2019_May_27_1508,MusicAffectPsychophysiology2019,3.0.5,59.90967238935127,
To what extent did the music make you feel ,ACTIVE,30MonoWAV/30MonoT2.wav,2,1,4,14,,,,,0,10,10,13,0,10,10,9,,,,,,,,,5,3.167616769998858,,,063,001,2019_May_27_1508,MusicAffectPsychophysiology2019,3.0.5,59.90967238935127,
To what extent did the music make you feel ,EXCITED,30MonoWAV/30MonoT2.wav,2,1,4,14,,,,,0,10,10,13,0,11,11,7,,,,,,,,,5,0.918832277006004,,,063,001,2019_May_27_1508,MusicAffectPsychophysiology2019,3.0.5,59.90967238935127,
,,30MonoWAV/30MonoT2.wav,2,1,4,14,,,,,0,10,10,13,,,,,,,,,,,,,,,,,063,001,2019_May_27_1508,MusicAffectPsychophysiology2019,3.0.5,59.90967238935127,
To what extent did the music make you feel ,ACTIVE,30MonoWAV/30MonoS1.wav,1,1,3,9,,,,,0,11,11,8,0,0,0,9,,,2,6.229363019003358,3,6.168463134999911,3,2.5339347230037674,2,2.9693599689999246,,,063,001,2019_May_27_1508,MusicAffectPsychophysiology2019,3.0.5,59.90967238935127,
To what extent did the music make you feel ,ANGRY,30MonoWAV/30MonoS1.wav,1,1,3,9,,,,,0,11,11,8,0,1,1,2,,,,,,,,,1,1.6684046080044936,,,063,001,2019_May_27_1508,MusicAffectPsychophysiology2019,3.0.5,59.90967238935127,
To what extent did the music make you feel ,GUILTY,30MonoWAV/30MonoS1.wav,1,1,3,9,,,,,0,11,11,8,0,2,2,5,,,,,,,,,2,2.0853155410004547,,,063,001,2019_May_27_1508,MusicAffectPsychophysiology2019,3.0.5,59.90967238935127,
To what extent did the music make you feel ,HAPPY,30MonoWAV/30MonoS1.wav,1,1,3,9,,,,,0,11,11,8,0,3,3,6,,,,,,,,,3,3.9176205240000854,,,063,001,2019_May_27_1508,MusicAffectPsychophysiology2019,3.0.5,59.90967238935127,
To what extent did the music make you feel ,EXCITED,30MonoWAV/30MonoS1.wav,1,1,3,9,,,,,0,11,11,8,0,4,4,7,,,,,,,,,2,3.034428458006005,,,063,001,2019_May_27_1508,MusicAffectPsychophysiology2019,3.0.5,59.90967238935127,
To what extent did the music make you feel ,ASHAMED,30MonoWAV/30MonoS1.wav,1,1,3,9,,,,,0,11,11,8,0,5,5,4,,,,,,,,,1,1.6352827539958525,,,063,001,2019_May_27_1508,MusicAffectPsychophysiology2019,3.0.5,59.90967238935127,
To what extent did the music make you feel ,FRUSTRATED,30MonoWAV/30MonoS1.wav,1,1,3,9,,,,,0,11,11,8,0,6,6,3,,,,,,,,,2,1.9016970520024188,,,063,001,2019_May_27_1508,MusicAffectPsychophysiology2019,3.0.5,59.90967238935127,
To what extent did the music make you feel ,ALERT,30MonoWAV/30MonoS1.wav,1,1,3,9,,,,,0,11,11,8,0,7,7,8,,,,,,,,,3,1.967664096999215,,,063,001,2019_May_27_1508,MusicAffectPsychophysiology2019,3.0.5,59.90967238935127,
To what extent did the music make you feel ,SAD,30MonoWAV/30MonoS1.wav,1,1,3,9,,,,,0,11,11,8,0,8,8,0,,,,,,,,,3,3.9688279520050855,,,063,001,2019_May_27_1508,MusicAffectPsychophysiology2019,3.0.5,59.90967238935127,
To what extent did the music make you feel ,SCARED,30MonoWAV/30MonoS1.wav,1,1,3,9,,,,,0,11,11,8,0,9,9,11,,,,,,,,,1,1.518331762003072,,,063,001,2019_May_27_1508,MusicAffectPsychophysiology2019,3.0.5,59.90967238935127,
To what extent did the music make you feel ,TENDER,30MonoWAV/30MonoS1.wav,1,1,3,9,,,,,0,11,11,8,0,10,10,10,,,,,,,,,4,1.7689574070027447,,,063,001,2019_May_27_1508,MusicAffectPsychophysiology2019,3.0.5,59.90967238935127,
To what extent did the music make you feel ,ANXIOUS ,30MonoWAV/30MonoS1.wav,1,1,3,9,,,,,0,11,11,8,0,11,11,1,,,,,,,,,1,1.6853351980025764,,,063,001,2019_May_27_1508,MusicAffectPsychophysiology2019,3.0.5,59.90967238935127,
,,30MonoWAV/30MonoS1.wav,1,1,3,9,,,,,0,11,11,8,,,,,,,,,,,,,,,,,063,001,2019_May_27_1508,MusicAffectPsychophysiology2019,3.0.5,59.90967238935127,
To what extent did the music make you feel ,GUILTY,30MonoWAV/30MonoH3.wav,2,2,1,7,,,,,0,12,12,6,0,0,0,5,,,5,2.6181038779977825,4,2.369293869000103,4,2.785157281003194,1,2.0680909549992066,,,063,001,2019_May_27_1508,MusicAffectPsychophysiology2019,3.0.5,59.90967238935127,
To what extent did the music make you feel ,TENDER,30MonoWAV/30MonoH3.wav,2,2,1,7,,,,,0,12,12,6,0,1,1,10,,,,,,,,,2,1.785194522002712,,,063,001,2019_May_27_1508,MusicAffectPsychophysiology2019,3.0.5,59.90967238935127,
To what extent did the music make you feel ,HAPPY,30MonoWAV/30MonoH3.wav,2,2,1,7,,,,,0,12,12,6,0,2,2,6,,,,,,,,,5,1.9852362669989816,,,063,001,2019_May_27_1508,MusicAffectPsychophysiology2019,3.0.5,59.90967238935127,
To what extent did the music make you feel ,ACTIVE,30MonoWAV/30MonoH3.wav,2,2,1,7,,,,,0,12,12,6,0,3,3,9,,,,,,,,,5,1.0522485100009362,,,063,001,2019_May_27_1508,MusicAffectPsychophysiology2019,3.0.5,59.90967238935127,
To what extent did the music make you feel ,ANGRY,30MonoWAV/30MonoH3.wav,2,2,1,7,,,,,0,12,12,6,0,4,4,2,,,,,,,,,1,1.5336207350046607,,,063,001,2019_May_27_1508,MusicAffectPsychophysiology2019,3.0.5,59.90967238935127,
To what extent did the music make you feel ,SCARED,30MonoWAV/30MonoH3.wav,2,2,1,7,,,,,0,12,12,6,0,5,5,11,,,,,,,,,1,1.5187503170018317,,,063,001,2019_May_27_1508,MusicAffectPsychophysiology2019,3.0.5,59.90967238935127,
To what extent did the music make you feel ,ASHAMED,30MonoWAV/30MonoH3.wav,2,2,1,7,,,,,0,12,12,6,0,6,6,4,,,,,,,,,1,1.5680357789970003,,,063,001,2019_May_27_1508,MusicAffectPsychophysiology2019,3.0.5,59.90967238935127,
To what extent did the music make you feel ,EXCITED,30MonoWAV/30MonoH3.wav,2,2,1,7,,,,,0,12,12,6,0,7,7,7,,,,,,,,,4,1.550807967003493,,,063,001,2019_May_27_1508,MusicAffectPsychophysiology2019,3.0.5,59.90967238935127,
To what extent did the music make you feel ,ANXIOUS ,30MonoWAV/30MonoH3.wav,2,2,1,7,,,,,0,12,12,6,0,8,8,1,,,,,,,,,1,3.5845403030034504,,,063,001,2019_May_27_1508,MusicAffectPsychophysiology2019,3.0.5,59.90967238935127,
To what extent did the music make you feel ,SAD,30MonoWAV/30MonoH3.wav,2,2,1,7,,,,,0,12,12,6,0,9,9,0,,,,,,,,,1,2.317734402997303,,,063,001,2019_May_27_1508,MusicAffectPsychophysiology2019,3.0.5,59.90967238935127,
To what extent did the music make you feel ,FRUSTRATED,30MonoWAV/30MonoH3.wav,2,2,1,7,,,,,0,12,12,6,0,10,10,3,,,,,,,,,2,2.5858225240008323,,,063,001,2019_May_27_1508,MusicAffectPsychophysiology2019,3.0.5,59.90967238935127,
To what extent did the music make you feel ,ALERT,30MonoWAV/30MonoH3.wav,2,2,1,7,,,,,0,12,12,6,0,11,11,8,,,,,,,,,4,3.1022522839994053,,,063,001,2019_May_27_1508,MusicAffectPsychophysiology2019,3.0.5,59.90967238935127,
,,30MonoWAV/30MonoH3.wav,2,2,1,7,,,,,0,12,12,6,,,,,,,,,,,,,,,,,063,001,2019_May_27_1508,MusicAffectPsychophysiology2019,3.0.5,59.90967238935127,
To what extent did the music make you feel ,HAPPY,30MonoWAV/30MonoT1.wav,2,1,4,13,,,,,0,13,13,12,0,0,0,6,,,4,3.9007325380007387,5,1.9686800540002878,5,1.6680956100026378,5,2.4686003059978248,,,063,001,2019_May_27_1508,MusicAffectPsychophysiology2019,3.0.5,59.90967238935127,
To what extent did the music make you feel ,ALERT,30MonoWAV/30MonoT1.wav,2,1,4,13,,,,,0,13,13,12,0,1,1,8,,,,,,,,,4,1.3354137779970188,,,063,001,2019_May_27_1508,MusicAffectPsychophysiology2019,3.0.5,59.90967238935127,
To what extent did the music make you feel ,ACTIVE,30MonoWAV/30MonoT1.wav,2,1,4,13,,,,,0,13,13,12,0,2,2,9,,,,,,,,,4,1.3156778780030436,,,063,001,2019_May_27_1508,MusicAffectPsychophysiology2019,3.0.5,59.90967238935127,
To what extent did the music make you feel ,EXCITED,30MonoWAV/30MonoT1.wav,2,1,4,13,,,,,0,13,13,12,0,3,3,7,,,,,,,,,4,1.6353859119990375,,,063,001,2019_May_27_1508,MusicAffectPsychophysiology2019,3.0.5,59.90967238935127,
To what extent did the music make you feel ,ASHAMED,30MonoWAV/30MonoT1.wav,2,1,4,13,,,,,0,13,13,12,0,4,4,4,,,,,,,,,1,1.6519694770031492,,,063,001,2019_May_27_1508,MusicAffectPsychophysiology2019,3.0.5,59.90967238935127,
To what extent did the music make you feel ,GUILTY,30MonoWAV/30MonoT1.wav,2,1,4,13,,,,,0,13,13,12,0,5,5,5,,,,,,,,,1,1.3521220189941232,,,063,001,2019_May_27_1508,MusicAffectPsychophysiology2019,3.0.5,59.90967238935127,
To what extent did the music make you feel ,SAD,30MonoWAV/30MonoT1.wav,2,1,4,13,,,,,0,13,13,12,0,6,6,0,,,,,,,,,2,1.5679321350035025,,,063,001,2019_May_27_1508,MusicAffectPsychophysiology2019,3.0.5,59.90967238935127,
To what extent did the music make you feel ,FRUSTRATED,30MonoWAV/30MonoT1.wav,2,1,4,13,,,,,0,13,13,12,0,7,7,3,,,,,,,,,1,1.5006406719985534,,,063,001,2019_May_27_1508,MusicAffectPsychophysiology2019,3.0.5,59.90967238935127,
To what extent did the music make you feel ,SCARED,30MonoWAV/30MonoT1.wav,2,1,4,13,,,,,0,13,13,12,0,8,8,11,,,,,,,,,1,1.9028449340039515,,,063,001,2019_May_27_1508,MusicAffectPsychophysiology2019,3.0.5,59.90967238935127,
To what extent did the music make you feel ,TENDER,30MonoWAV/30MonoT1.wav,2,1,4,13,,,,,0,13,13,12,0,9,9,10,,,,,,,,,4,1.785419745996478,,,063,001,2019_May_27_1508,MusicAffectPsychophysiology2019,3.0.5,59.90967238935127,
To what extent did the music make you feel ,ANGRY,30MonoWAV/30MonoT1.wav,2,1,4,13,,,,,0,13,13,12,0,10,10,2,,,,,,,,,1,1.3861175010024454,,,063,001,2019_May_27_1508,MusicAffectPsychophysiology2019,3.0.5,59.90967238935127,
To what extent did the music make you feel ,ANXIOUS ,30MonoWAV/30MonoT1.wav,2,1,4,13,,,,,0,13,13,12,0,11,11,1,,,,,,,,,1,2.251784129999578,,,063,001,2019_May_27_1508,MusicAffectPsychophysiology2019,3.0.5,59.90967238935127,
,,30MonoWAV/30MonoT1.wav,2,1,4,13,,,,,0,13,13,12,,,,,,,,,,,,,,,,,063,001,2019_May_27_1508,MusicAffectPsychophysiology2019,3.0.5,59.90967238935127,
To what extent did the music make you feel ,TENDER,30MonoWAV/30MonoH2.wav,2,2,1,6,,,,,0,14,14,5,0,0,0,10,,,5,2.834176240998204,5,1.8524248589965282,5,1.600242544998764,4,1.7186914269987028,,,063,001,2019_May_27_1508,MusicAffectPsychophysiology2019,3.0.5,59.90967238935127,
To what extent did the music make you feel ,ALERT,30MonoWAV/30MonoH2.wav,2,2,1,6,,,,,0,14,14,5,0,1,1,8,,,,,,,,,4,3.05110748399602,,,063,001,2019_May_27_1508,MusicAffectPsychophysiology2019,3.0.5,59.90967238935127,
To what extent did the music make you feel ,SCARED,30MonoWAV/30MonoH2.wav,2,2,1,6,,,,,0,14,14,5,0,2,2,11,,,,,,,,,1,1.2860742469929392,,,063,001,2019_May_27_1508,MusicAffectPsychophysiology2019,3.0.5,59.90967238935127,
To what extent did the music make you feel ,EXCITED,30MonoWAV/30MonoH2.wav,2,2,1,6,,,,,0,14,14,5,0,3,3,7,,,,,,,,,4,2.2526612889996613,,,063,001,2019_May_27_1508,MusicAffectPsychophysiology2019,3.0.5,59.90967238935127,
To what extent did the music make you feel ,ANGRY,30MonoWAV/30MonoH2.wav,2,2,1,6,,,,,0,14,14,5,0,4,4,2,,,,,,,,,1,1.117670972002088,,,063,001,2019_May_27_1508,MusicAffectPsychophysiology2019,3.0.5,59.90967238935127,
To what extent did the music make you feel ,ACTIVE,30MonoWAV/30MonoH2.wav,2,2,1,6,,,,,0,14,14,5,0,5,5,9,,,,,,,,,4,2.6191313289964455,,,063,001,2019_May_27_1508,MusicAffectPsychophysiology2019,3.0.5,59.90967238935127,
To what extent did the music make you feel ,FRUSTRATED,30MonoWAV/30MonoH2.wav,2,2,1,6,,,,,0,14,14,5,0,6,6,3,,,,,,,,,1,1.4187349150015507,,,063,001,2019_May_27_1508,MusicAffectPsychophysiology2019,3.0.5,59.90967238935127,
To what extent did the music make you feel ,ANXIOUS ,30MonoWAV/30MonoH2.wav,2,2,1,6,,,,,0,14,14,5,0,7,7,1,,,,,,,,,1,1.217701487003069,,,063,001,2019_May_27_1508,MusicAffectPsychophysiology2019,3.0.5,59.90967238935127,
To what extent did the music make you feel ,GUILTY,30MonoWAV/30MonoH2.wav,2,2,1,6,,,,,0,14,14,5,0,8,8,5,,,,,,,,,1,0.7522348649945343,,,063,001,2019_May_27_1508,MusicAffectPsychophysiology2019,3.0.5,59.90967238935127,
To what extent did the music make you feel ,HAPPY,30MonoWAV/30MonoH2.wav,2,2,1,6,,,,,0,14,14,5,0,9,9,6,,,,,,,,,5,1.3182465069985483,,,063,001,2019_May_27_1508,MusicAffectPsychophysiology2019,3.0.5,59.90967238935127,
To what extent did the music make you feel ,SAD,30MonoWAV/30MonoH2.wav,2,2,1,6,,,,,0,14,14,5,0,10,10,0,,,,,,,,,1,1.2175776380026946,,,063,001,2019_May_27_1508,MusicAffectPsychophysiology2019,3.0.5,59.90967238935127,
To what extent did the music make you feel ,ASHAMED,30MonoWAV/30MonoH2.wav,2,2,1,6,,,,,0,14,14,5,0,11,11,4,,,,,,,,,1,1.2013229930016678,,,063,001,2019_May_27_1508,MusicAffectPsychophysiology2019,3.0.5,59.90967238935127,
,,30MonoWAV/30MonoH2.wav,2,2,1,6,,,,,0,14,14,5,,,,,,,,,,,,,,,,,063,001,2019_May_27_1508,MusicAffectPsychophysiology2019,3.0.5,59.90967238935127,
To what extent did the music make you feel ,SAD,30MonoWAV/30MonoS3.wav,1,1,3,11,,,,,0,15,15,10,0,0,0,0,,,1,7.493549770995742,2,6.392307095004071,3,2.4684980590027408,4,4.375933944997087,,,063,001,2019_May_27_1508,MusicAffectPsychophysiology2019,3.0.5,59.90967238935127,
To what extent did the music make you feel ,ANGRY,30MonoWAV/30MonoS3.wav,1,1,3,11,,,,,0,15,15,10,0,1,1,2,,,,,,,,,2,1.4033330789970933,,,063,001,2019_May_27_1508,MusicAffectPsychophysiology2019,3.0.5,59.90967238935127,
To what extent did the music make you feel ,ACTIVE,30MonoWAV/30MonoS3.wav,1,1,3,11,,,,,0,15,15,10,0,2,2,9,,,,,,,,,2,1.3035300440024002,,,063,001,2019_May_27_1508,MusicAffectPsychophysiology2019,3.0.5,59.90967238935127,
To what extent did the music make you feel ,ALERT,30MonoWAV/30MonoS3.wav,1,1,3,11,,,,,0,15,15,10,0,3,3,8,,,,,,,,,2,1.5069598839982064,,,063,001,2019_May_27_1508,MusicAffectPsychophysiology2019,3.0.5,59.90967238935127,
To what extent did the music make you feel ,ANXIOUS ,30MonoWAV/30MonoS3.wav,1,1,3,11,,,,,0,15,15,10,0,4,4,1,,,,,,,,,2,2.1333761519999825,,,063,001,2019_May_27_1508,MusicAffectPsychophysiology2019,3.0.5,59.90967238935127,
To what extent did the music make you feel ,FRUSTRATED,30MonoWAV/30MonoS3.wav,1,1,3,11,,,,,0,15,15,10,0,5,5,3,,,,,,,,,2,1.6021421440018457,,,063,001,2019_May_27_1508,MusicAffectPsychophysiology2019,3.0.5,59.90967238935127,
To what extent did the music make you feel ,HAPPY,30MonoWAV/30MonoS3.wav,1,1,3,11,,,,,0,15,15,10,0,6,6,6,,,,,,,,,2,2.218659653000941,,,063,001,2019_May_27_1508,MusicAffectPsychophysiology2019,3.0.5,59.90967238935127,
To what extent did the music make you feel ,TENDER,30MonoWAV/30MonoS3.wav,1,1,3,11,,,,,0,15,15,10,0,7,7,10,,,,,,,,,5,3.2682225500029745,,,063,001,2019_May_27_1508,MusicAffectPsychophysiology2019,3.0.5,59.90967238935127,
To what extent did the music make you feel ,SCARED,30MonoWAV/30MonoS3.wav,1,1,3,11,,,,,0,15,15,10,0,8,8,11,,,,,,,,,2,1.2847948990020086,,,063,001,2019_May_27_1508,MusicAffectPsychophysiology2019,3.0.5,59.90967238935127,
To what extent did the music make you feel ,ASHAMED,30MonoWAV/30MonoS3.wav,1,1,3,11,,,,,0,15,15,10,0,9,9,4,,,,,,,,,3,2.501494009004091,,,063,001,2019_May_27_1508,MusicAffectPsychophysiology2019,3.0.5,59.90967238935127,
To what extent did the music make you feel ,GUILTY,30MonoWAV/30MonoS3.wav,1,1,3,11,,,,,0,15,15,10,0,10,10,5,,,,,,,,,3,3.8507634159977897,,,063,001,2019_May_27_1508,MusicAffectPsychophysiology2019,3.0.5,59.90967238935127,
To what extent did the music make you feel ,EXCITED,30MonoWAV/30MonoS3.wav,1,1,3,11,,,,,0,15,15,10,0,11,11,7,,,,,,,,,1,1.4525408019981114,,,063,001,2019_May_27_1508,MusicAffectPsychophysiology2019,3.0.5,59.90967238935127,
,,30MonoWAV/30MonoS3.wav,1,1,3,11,,,,,0,15,15,10,,,,,,,,,,,,,,,,,063,001,2019_May_27_1508,MusicAffectPsychophysiology2019,3.0.5,59.90967238935127,
To what extent did the music make you feel ,ASHAMED,30MonoWAV/30MonoS2.wav,1,1,3,10,,,,,1,0,16,9,0,0,0,4,,,2,2.9355530190005084,3,1.5855357660038862,4,2.36702032800531,2,1.385568831996352,,,063,001,2019_May_27_1508,MusicAffectPsychophysiology2019,3.0.5,59.90967238935127,
To what extent did the music make you feel ,SCARED,30MonoWAV/30MonoS2.wav,1,1,3,10,,,,,1,0,16,9,0,1,1,11,,,,,,,,,1,1.8355573249937152,,,063,001,2019_May_27_1508,MusicAffectPsychophysiology2019,3.0.5,59.90967238935127,
To what extent did the music make you feel ,TENDER,30MonoWAV/30MonoS2.wav,1,1,3,10,,,,,1,0,16,9,0,2,2,10,,,,,,,,,3,1.5183278129989048,,,063,001,2019_May_27_1508,MusicAffectPsychophysiology2019,3.0.5,59.90967238935127,
To what extent did the music make you feel ,EXCITED,30MonoWAV/30MonoS2.wav,1,1,3,10,,,,,1,0,16,9,0,3,3,7,,,,,,,,,2,2.3177902010065736,,,063,001,2019_May_27_1508,MusicAffectPsychophysiology2019,3.0.5,59.90967238935127,
To what extent did the music make you feel ,FRUSTRATED,30MonoWAV/30MonoS2.wav,1,1,3,10,,,,,1,0,16,9,0,4,4,3,,,,,,,,,2,4.5856976580034825,,,063,001,2019_May_27_1508,MusicAffectPsychophysiology2019,3.0.5,59.90967238935127,
To what extent did the music make you feel ,ANXIOUS ,30MonoWAV/30MonoS2.wav,1,1,3,10,,,,,1,0,16,9,0,5,5,1,,,,,,,,,2,2.601383547000296,,,063,001,2019_May_27_1508,MusicAffectPsychophysiology2019,3.0.5,59.90967238935127,
To what extent did the music make you feel ,ANGRY,30MonoWAV/30MonoS2.wav,1,1,3,10,,,,,1,0,16,9,0,6,6,2,,,,,,,,,1,1.3511128989994177,,,063,001,2019_May_27_1508,MusicAffectPsychophysiology2019,3.0.5,59.90967238935127,
To what extent did the music make you feel ,ACTIVE,30MonoWAV/30MonoS2.wav,1,1,3,10,,,,,1,0,16,9,0,7,7,9,,,,,,,,,2,1.5689162909984589,,,063,001,2019_May_27_1508,MusicAffectPsychophysiology2019,3.0.5,59.90967238935127,
To what extent did the music make you feel ,HAPPY,30MonoWAV/30MonoS2.wav,1,1,3,10,,,,,1,0,16,9,0,8,8,6,,,,,,,,,2,2.9676915319942054,,,063,001,2019_May_27_1508,MusicAffectPsychophysiology2019,3.0.5,59.90967238935127,
To what extent did the music make you feel ,GUILTY,30MonoWAV/30MonoS2.wav,1,1,3,10,,,,,1,0,16,9,0,9,9,5,,,,,,,,,2,1.651837486999284,,,063,001,2019_May_27_1508,MusicAffectPsychophysiology2019,3.0.5,59.90967238935127,
To what extent did the music make you feel ,SAD,30MonoWAV/30MonoS2.wav,1,1,3,10,,,,,1,0,16,9,0,10,10,0,,,,,,,,,3,2.9851015399981407,,,063,001,2019_May_27_1508,MusicAffectPsychophysiology2019,3.0.5,59.90967238935127,
To what extent did the music make you feel ,ALERT,30MonoWAV/30MonoS2.wav,1,1,3,10,,,,,1,0,16,9,0,11,11,8,,,,,,,,,4,4.11754622800072,,,063,001,2019_May_27_1508,MusicAffectPsychophysiology2019,3.0.5,59.90967238935127,
,,30MonoWAV/30MonoS2.wav,1,1,3,10,,,,,1,0,16,9,,,,,,,,,,,,,,,,,063,001,2019_May_27_1508,MusicAffectPsychophysiology2019,3.0.5,59.90967238935127,
To what extent did the music make you feel ,GUILTY,30MonoWAV/30MonoT3.wav,2,1,4,15,,,,,1,1,17,14,0,0,0,5,,,3,3.4887566399993375,3,0.23522736299491953,3,3.4738261759994202,2,3.501617059999262,,,063,001,2019_May_27_1508,MusicAffectPsychophysiology2019,3.0.5,59.90967238935127,
To what extent did the music make you feel ,ANGRY,30MonoWAV/30MonoT3.wav,2,1,4,15,,,,,1,1,17,14,0,1,1,2,,,,,,,,,2,2.3732475220022025,,,063,001,2019_May_27_1508,MusicAffectPsychophysiology2019,3.0.5,59.90967238935127,
To what extent did the music make you feel ,EXCITED,30MonoWAV/30MonoT3.wav,2,1,4,15,,,,,1,1,17,14,0,2,2,7,,,,,,,,,3,3.1378556349955034,,,063,001,2019_May_27_1508,MusicAffectPsychophysiology2019,3.0.5,59.90967238935127,
To what extent did the music make you feel ,TENDER,30MonoWAV/30MonoT3.wav,2,1,4,15,,,,,1,1,17,14,0,3,3,10,,,,,,,,,2,2.170103307995305,,,063,001,2019_May_27_1508,MusicAffectPsychophysiology2019,3.0.5,59.90967238935127,
To what extent did the music make you feel ,SAD,30MonoWAV/30MonoT3.wav,2,1,4,15,,,,,1,1,17,14,0,4,4,0,,,,,,,,,2,1.7574406100029591,,,063,001,2019_May_27_1508,MusicAffectPsychophysiology2019,3.0.5,59.90967238935127,
To what extent did the music make you feel ,ASHAMED,30MonoWAV/30MonoT3.wav,2,1,4,15,,,,,1,1,17,14,0,5,5,4,,,,,,,,,1,1.1169224639961612,,,063,001,2019_May_27_1508,MusicAffectPsychophysiology2019,3.0.5,59.90967238935127,
To what extent did the music make you feel ,HAPPY,30MonoWAV/30MonoT3.wav,2,1,4,15,,,,,1,1,17,14,0,6,6,6,,,,,,,,,2,2.318460411996057,,,063,001,2019_May_27_1508,MusicAffectPsychophysiology2019,3.0.5,59.90967238935127,
To what extent did the music make you feel ,FRUSTRATED,30MonoWAV/30MonoT3.wav,2,1,4,15,,,,,1,1,17,14,0,7,7,3,,,,,,,,,3,1.4014869579987135,,,063,001,2019_May_27_1508,MusicAffectPsychophysiology2019,3.0.5,59.90967238935127,
To what extent did the music make you feel ,ALERT,30MonoWAV/30MonoT3.wav,2,1,4,15,,,,,1,1,17,14,0,8,8,8,,,,,,,,,2,2.7345751320026466,,,063,001,2019_May_27_1508,MusicAffectPsychophysiology2019,3.0.5,59.90967238935127,
To what extent did the music make you feel ,SCARED,30MonoWAV/30MonoT3.wav,2,1,4,15,,,,,1,1,17,14,0,9,9,11,,,,,,,,,1,1.3020972719968995,,,063,001,2019_May_27_1508,MusicAffectPsychophysiology2019,3.0.5,59.90967238935127,
To what extent did the music make you feel ,ACTIVE,30MonoWAV/30MonoT3.wav,2,1,4,15,,,,,1,1,17,14,0,10,10,9,,,,,,,,,2,1.8498387950021424,,,063,001,2019_May_27_1508,MusicAffectPsychophysiology2019,3.0.5,59.90967238935127,
To what extent did the music make you feel ,ANXIOUS ,30MonoWAV/30MonoT3.wav,2,1,4,15,,,,,1,1,17,14,0,11,11,1,,,,,,,,,1,1.501690655000857,,,063,001,2019_May_27_1508,MusicAffectPsychophysiology2019,3.0.5,59.90967238935127,
,,30MonoWAV/30MonoT3.wav,2,1,4,15,,,,,1,1,17,14,,,,,,,,,,,,,,,,,063,001,2019_May_27_1508,MusicAffectPsychophysiology2019,3.0.5,59.90967238935127,
To what extent did the music make you feel ,GUILTY,30MonoWAV/30MonoS1.wav,1,1,3,9,,,,,1,2,18,8,0,0,0,5,,,3,2.9857803340055398,3,4.334304334995977,4,1.7671628919997602,2,2.0193450820006547,,,063,001,2019_May_27_1508,MusicAffectPsychophysiology2019,3.0.5,59.90967238935127,
To what extent did the music make you feel ,EXCITED,30MonoWAV/30MonoS1.wav,1,1,3,9,,,,,1,2,18,8,0,1,1,7,,,,,,,,,3,2.283900469003129,,,063,001,2019_May_27_1508,MusicAffectPsychophysiology2019,3.0.5,59.90967238935127,
To what extent did the music make you feel ,HAPPY,30MonoWAV/30MonoS1.wav,1,1,3,9,,,,,1,2,18,8,0,2,2,6,,,,,,,,,3,1.7012495859962655,,,063,001,2019_May_27_1508,MusicAffectPsychophysiology2019,3.0.5,59.90967238935127,
To what extent did the music make you feel ,SCARED,30MonoWAV/30MonoS1.wav,1,1,3,9,,,,,1,2,18,8,0,3,3,11,,,,,,,,,1,1.6692118020000635,,,063,001,2019_May_27_1508,MusicAffectPsychophysiology2019,3.0.5,59.90967238935127,
To what extent did the music make you feel ,FRUSTRATED,30MonoWAV/30MonoS1.wav,1,1,3,9,,,,,1,2,18,8,0,4,4,3,,,,,,,,,2,1.9679972810045,,,063,001,2019_May_27_1508,MusicAffectPsychophysiology2019,3.0.5,59.90967238935127,
To what extent did the music make you feel ,ASHAMED,30MonoWAV/30MonoS1.wav,1,1,3,9,,,,,1,2,18,8,0,5,5,4,,,,,,,,,1,1.3015341560021625,,,063,001,2019_May_27_1508,MusicAffectPsychophysiology2019,3.0.5,59.90967238935127,
To what extent did the music make you feel ,ACTIVE,30MonoWAV/30MonoS1.wav,1,1,3,9,,,,,1,2,18,8,0,6,6,9,,,,,,,,,3,1.7853512399960891,,,063,001,2019_May_27_1508,MusicAffectPsychophysiology2019,3.0.5,59.90967238935127,
To what extent did the music make you feel ,ANXIOUS ,30MonoWAV/30MonoS1.wav,1,1,3,9,,,,,1,2,18,8,0,7,7,1,,,,,,,,,2,3.5006992739945417,,,063,001,2019_May_27_1508,MusicAffectPsychophysiology2019,3.0.5,59.90967238935127,
To what extent did the music make you feel ,SAD,30MonoWAV/30MonoS1.wav,1,1,3,9,,,,,1,2,18,8,0,8,8,0,,,,,,,,,2,1.6686099610014935,,,063,001,2019_May_27_1508,MusicAffectPsychophysiology2019,3.0.5,59.90967238935127,
To what extent did the music make you feel ,TENDER,30MonoWAV/30MonoS1.wav,1,1,3,9,,,,,1,2,18,8,0,9,9,10,,,,,,,,,4,2.385062454995932,,,063,001,2019_May_27_1508,MusicAffectPsychophysiology2019,3.0.5,59.90967238935127,
To what extent did the music make you feel ,ALERT,30MonoWAV/30MonoS1.wav,1,1,3,9,,,,,1,2,18,8,0,10,10,8,,,,,,,,,3,2.882972722996783,,,063,001,2019_May_27_1508,MusicAffectPsychophysiology2019,3.0.5,59.90967238935127,
To what extent did the music make you feel ,ANGRY,30MonoWAV/30MonoS1.wav,1,1,3,9,,,,,1,2,18,8,0,11,11,2,,,,,,,,,1,1.9997976899976493,,,063,001,2019_May_27_1508,MusicAffectPsychophysiology2019,3.0.5,59.90967238935127,
,,30MonoWAV/30MonoS1.wav,1,1,3,9,,,,,1,2,18,8,,,,,,,,,,,,,,,,,063,001,2019_May_27_1508,MusicAffectPsychophysiology2019,3.0.5,59.90967238935127,
To what extent did the music make you feel ,ACTIVE,30MonoWAV/30MonoH2.wav,2,2,1,6,,,,,1,3,19,5,0,0,0,9,,,5,2.601472886999545,5,1.017808659998991,5,1.084355218001292,5,2.418348450999474,,,063,001,2019_May_27_1508,MusicAffectPsychophysiology2019,3.0.5,59.90967238935127,
To what extent did the music make you feel ,EXCITED,30MonoWAV/30MonoH2.wav,2,2,1,6,,,,,1,3,19,5,0,1,1,7,,,,,,,,,5,1.7003194220014848,,,063,001,2019_May_27_1508,MusicAffectPsychophysiology2019,3.0.5,59.90967238935127,
To what extent did the music make you feel ,ANXIOUS ,30MonoWAV/30MonoH2.wav,2,2,1,6,,,,,1,3,19,5,0,2,2,1,,,,,,,,,1,1.1357535620045383,,,063,001,2019_May_27_1508,MusicAffectPsychophysiology2019,3.0.5,59.90967238935127,
To what extent did the music make you feel ,SCARED,30MonoWAV/30MonoH2.wav,2,2,1,6,,,,,1,3,19,5,0,3,3,11,,,,,,,,,1,1.1180205390046467,,,063,001,2019_May_27_1508,MusicAffectPsychophysiology2019,3.0.5,59.90967238935127,
To what extent did the music make you feel ,ALERT,30MonoWAV/30MonoH2.wav,2,2,1,6,,,,,1,3,19,5,0,4,4,8,,,,,,,,,5,2.2358702899946366,,,063,001,2019_May_27_1508,MusicAffectPsychophysiology2019,3.0.5,59.90967238935127,
To what extent did the music make you feel ,HAPPY,30MonoWAV/30MonoH2.wav,2,2,1,6,,,,,1,3,19,5,0,5,5,6,,,,,,,,,5,1.1504490510051255,,,063,001,2019_May_27_1508,MusicAffectPsychophysiology2019,3.0.5,59.90967238935127,
To what extent did the music make you feel ,ASHAMED,30MonoWAV/30MonoH2.wav,2,2,1,6,,,,,1,3,19,5,0,6,6,4,,,,,,,,,1,1.3345825030046399,,,063,001,2019_May_27_1508,MusicAffectPsychophysiology2019,3.0.5,59.90967238935127,
To what extent did the music make you feel ,FRUSTRATED,30MonoWAV/30MonoH2.wav,2,2,1,6,,,,,1,3,19,5,0,7,7,3,,,,,,,,,1,1.4520365659991512,,,063,001,2019_May_27_1508,MusicAffectPsychophysiology2019,3.0.5,59.90967238935127,
To what extent did the music make you feel ,TENDER,30MonoWAV/30MonoH2.wav,2,2,1,6,,,,,1,3,19,5,0,8,8,10,,,,,,,,,3,3.318590889997722,,,063,001,2019_May_27_1508,MusicAffectPsychophysiology2019,3.0.5,59.90967238935127,
To what extent did the music make you feel ,GUILTY,30MonoWAV/30MonoH2.wav,2,2,1,6,,,,,1,3,19,5,0,9,9,5,,,,,,,,,1,1.8685878480027895,,,063,001,2019_May_27_1508,MusicAffectPsychophysiology2019,3.0.5,59.90967238935127,
To what extent did the music make you feel ,ANGRY,30MonoWAV/30MonoH2.wav,2,2,1,6,,,,,1,3,19,5,0,10,10,2,,,,,,,,,1,1.118637020001188,,,063,001,2019_May_27_1508,MusicAffectPsychophysiology2019,3.0.5,59.90967238935127,
To what extent did the music make you feel ,SAD,30MonoWAV/30MonoH2.wav,2,2,1,6,,,,,1,3,19,5,0,11,11,0,,,,,,,,,1,1.500995172005787,,,063,001,2019_May_27_1508,MusicAffectPsychophysiology2019,3.0.5,59.90967238935127,
,,30MonoWAV/30MonoH2.wav,2,2,1,6,,,,,1,3,19,5,,,,,,,,,,,,,,,,,063,001,2019_May_27_1508,MusicAffectPsychophysiology2019,3.0.5,59.90967238935127,
To what extent did the music make you feel ,EXCITED,30MonoWAV/30MonoF4.wav,1,2,2,4,,,,,1,4,20,3,0,0,0,7,,,5,3.668192329998419,3,3.9515475029984373,2,3.051363661994401,3,2.934045158996014,,,063,001,2019_May_27_1508,MusicAffectPsychophysiology2019,3.0.5,59.90967238935127,
To what extent did the music make you feel ,ANXIOUS ,30MonoWAV/30MonoF4.wav,1,2,2,4,,,,,1,4,20,3,0,1,1,1,,,,,,,,,4,1.4679767539928434,,,063,001,2019_May_27_1508,MusicAffectPsychophysiology2019,3.0.5,59.90967238935127,
To what extent did the music make you feel ,SCARED,30MonoWAV/30MonoF4.wav,1,2,2,4,,,,,1,4,20,3,0,2,2,11,,,,,,,,,3,1.4509846869987086,,,063,001,2019_May_27_1508,MusicAffectPsychophysiology2019,3.0.5,59.90967238935127,
To what extent did the music make you feel ,TENDER,30MonoWAV/30MonoF4.wav,1,2,2,4,,,,,1,4,20,3,0,3,3,10,,,,,,,,,1,1.1997243320001871,,,063,001,2019_May_27_1508,MusicAffectPsychophysiology2019,3.0.5,59.90967238935127,
To what extent did the music make you feel ,GUILTY,30MonoWAV/30MonoF4.wav,1,2,2,4,,,,,1,4,20,3,0,4,4,5,,,,,,,,,2,1.5343102580009145,,,063,001,2019_May_27_1508,MusicAffectPsychophysiology2019,3.0.5,59.90967238935127,
To what extent did the music make you feel ,ACTIVE,30MonoWAV/30MonoF4.wav,1,2,2,4,,,,,1,4,20,3,0,5,5,9,,,,,,,,,5,1.3186703949977527,,,063,001,2019_May_27_1508,MusicAffectPsychophysiology2019,3.0.5,59.90967238935127,
To what extent did the music make you feel ,SAD,30MonoWAV/30MonoF4.wav,1,2,2,4,,,,,1,4,20,3,0,6,6,0,,,,,,,,,1,1.351972869997553,,,063,001,2019_May_27_1508,MusicAffectPsychophysiology2019,3.0.5,59.90967238935127,
To what extent did the music make you feel ,ASHAMED,30MonoWAV/30MonoF4.wav,1,2,2,4,,,,,1,4,20,3,0,7,7,4,,,,,,,,,2,2.584701892999874,,,063,001,2019_May_27_1508,MusicAffectPsychophysiology2019,3.0.5,59.90967238935127,
To what extent did the music make you feel ,FRUSTRATED,30MonoWAV/30MonoF4.wav,1,2,2,4,,,,,1,4,20,3,0,8,8,3,,,,,,,,,2,1.6666339889998198,,,063,001,2019_May_27_1508,MusicAffectPsychophysiology2019,3.0.5,59.90967238935127,
To what extent did the music make you feel ,ALERT,30MonoWAV/30MonoF4.wav,1,2,2,4,,,,,1,4,20,3,0,9,9,8,,,,,,,,,5,1.5024112009996315,,,063,001,2019_May_27_1508,MusicAffectPsychophysiology2019,3.0.5,59.90967238935127,
To what extent did the music make you feel ,HAPPY,30MonoWAV/30MonoF4.wav,1,2,2,4,,,,,1,4,20,3,0,10,10,6,,,,,,,,,2,1.5515554540033918,,,063,001,2019_May_27_1508,MusicAffectPsychophysiology2019,3.0.5,59.90967238935127,
To what extent did the music make you feel ,ANGRY,30MonoWAV/30MonoF4.wav,1,2,2,4,,,,,1,4,20,3,0,11,11,2,,,,,,,,,4,1.4684516320048715,,,063,001,2019_May_27_1508,MusicAffectPsychophysiology2019,3.0.5,59.90967238935127,
,,30MonoWAV/30MonoF4.wav,1,2,2,4,,,,,1,4,20,3,,,,,,,,,,,,,,,,,063,001,2019_May_27_1508,MusicAffectPsychophysiology2019,3.0.5,59.90967238935127,
To what extent did the music make you feel ,EXCITED,30MonoWAV/30MonoT2.wav,2,1,4,14,,,,,1,5,21,13,0,0,0,7,,,4,2.433397059001436,5,2.450591009997879,4,1.217700770997908,4,1.6850208890027716,,,063,001,2019_May_27_1508,MusicAffectPsychophysiology2019,3.0.5,59.90967238935127,
To what extent did the music make you feel ,ASHAMED,30MonoWAV/30MonoT2.wav,2,1,4,14,,,,,1,5,21,13,0,1,1,4,,,,,,,,,1,1.2007306539962883,,,063,001,2019_May_27_1508,MusicAffectPsychophysiology2019,3.0.5,59.90967238935127,
To what extent did the music make you feel ,ALERT,30MonoWAV/30MonoT2.wav,2,1,4,14,,,,,1,5,21,13,0,2,2,8,,,,,,,,,4,2.9010008010009187,,,063,001,2019_May_27_1508,MusicAffectPsychophysiology2019,3.0.5,59.90967238935127,
To what extent did the music make you feel ,SAD,30MonoWAV/30MonoT2.wav,2,1,4,14,,,,,1,5,21,13,0,3,3,0,,,,,,,,,1,1.116663251996215,,,063,001,2019_May_27_1508,MusicAffectPsychophysiology2019,3.0.5,59.90967238935127,
To what extent did the music make you feel ,ANGRY,30MonoWAV/30MonoT2.wav,2,1,4,14,,,,,1,5,21,13,0,4,4,2,,,,,,,,,1,1.2011210060009034,,,063,001,2019_May_27_1508,MusicAffectPsychophysiology2019,3.0.5,59.90967238935127,
To what extent did the music make you feel ,GUILTY,30MonoWAV/30MonoT2.wav,2,1,4,14,,,,,1,5,21,13,0,5,5,5,,,,,,,,,1,0.6850284579995787,,,063,001,2019_May_27_1508,MusicAffectPsychophysiology2019,3.0.5,59.90967238935127,
To what extent did the music make you feel ,ANXIOUS ,30MonoWAV/30MonoT2.wav,2,1,4,14,,,,,1,5,21,13,0,6,6,1,,,,,,,,,1,1.0683450619981159,,,063,001,2019_May_27_1508,MusicAffectPsychophysiology2019,3.0.5,59.90967238935127,
To what extent did the music make you feel ,TENDER,30MonoWAV/30MonoT2.wav,2,1,4,14,,,,,1,5,21,13,0,7,7,10,,,,,,,,,3,3.433539297999232,,,063,001,2019_May_27_1508,MusicAffectPsychophysiology2019,3.0.5,59.90967238935127,
To what extent did the music make you feel ,ACTIVE,30MonoWAV/30MonoT2.wav,2,1,4,14,,,,,1,5,21,13,0,8,8,9,,,,,,,,,3,2.4193393559980905,,,063,001,2019_May_27_1508,MusicAffectPsychophysiology2019,3.0.5,59.90967238935127,
To what extent did the music make you feel ,SCARED,30MonoWAV/30MonoT2.wav,2,1,4,14,,,,,1,5,21,13,0,9,9,11,,,,,,,,,1,1.1351639600034105,,,063,001,2019_May_27_1508,MusicAffectPsychophysiology2019,3.0.5,59.90967238935127,
To what extent did the music make you feel ,HAPPY,30MonoWAV/30MonoT2.wav,2,1,4,14,,,,,1,5,21,13,0,10,10,6,,,,,,,,,4,1.7020444820009288,,,063,001,2019_May_27_1508,MusicAffectPsychophysiology2019,3.0.5,59.90967238935127,
To what extent did the music make you feel ,FRUSTRATED,30MonoWAV/30MonoT2.wav,2,1,4,14,,,,,1,5,21,13,0,11,11,3,,,,,,,,,1,1.2351960919986595,,,063,001,2019_May_27_1508,MusicAffectPsychophysiology2019,3.0.5,59.90967238935127,
,,30MonoWAV/30MonoT2.wav,2,1,4,14,,,,,1,5,21,13,,,,,,,,,,,,,,,,,063,001,2019_May_27_1508,MusicAffectPsychophysiology2019,3.0.5,59.90967238935127,
To what extent did the music make you feel ,GUILTY,30MonoWAV/30MonoH1.wav,2,2,1,5,,,,,1,6,22,4,0,0,0,5,,,5,2.2175486300038756,5,1.0868974940021872,5,0.9680199979993631,1,1.2181685350005864,,,063,001,2019_May_27_1508,MusicAffectPsychophysiology2019,3.0.5,59.90967238935127,
To what extent did the music make you feel ,ANGRY,30MonoWAV/30MonoH1.wav,2,2,1,5,,,,,1,6,22,4,0,1,1,2,,,,,,,,,1,1.2019139469994116,,,063,001,2019_May_27_1508,MusicAffectPsychophysiology2019,3.0.5,59.90967238935127,
To what extent did the music make you feel ,ACTIVE,30MonoWAV/30MonoH1.wav,2,2,1,5,,,,,1,6,22,4,0,2,2,9,,,,,,,,,5,1.385133998002857,,,063,001,2019_May_27_1508,MusicAffectPsychophysiology2019,3.0.5,59.90967238935127,
To what extent did the music make you feel ,ASHAMED,30MonoWAV/30MonoH1.wav,2,2,1,5,,,,,1,6,22,4,0,3,3,4,,,,,,,,,1,1.1192013870022492,,,063,001,2019_May_27_1508,MusicAffectPsychophysiology2019,3.0.5,59.90967238935127,
To what extent did the music make you feel ,SCARED,30MonoWAV/30MonoH1.wav,2,2,1,5,,,,,1,6,22,4,0,4,4,11,,,,,,,,,1,1.0852909729946987,,,063,001,2019_May_27_1508,MusicAffectPsychophysiology2019,3.0.5,59.90967238935127,
To what extent did the music make you feel ,ANXIOUS ,30MonoWAV/30MonoH1.wav,2,2,1,5,,,,,1,6,22,4,0,5,5,1,,,,,,,,,1,0.9189955669935443,,,063,001,2019_May_27_1508,MusicAffectPsychophysiology2019,3.0.5,59.90967238935127,
To what extent did the music make you feel ,FRUSTRATED,30MonoWAV/30MonoH1.wav,2,2,1,5,,,,,1,6,22,4,0,6,6,3,,,,,,,,,1,0.6860064290012815,,,063,001,2019_May_27_1508,MusicAffectPsychophysiology2019,3.0.5,59.90967238935127,
To what extent did the music make you feel ,HAPPY,30MonoWAV/30MonoH1.wav,2,2,1,5,,,,,1,6,22,4,0,7,7,6,,,,,,,,,5,1.6331814429941005,,,063,001,2019_May_27_1508,MusicAffectPsychophysiology2019,3.0.5,59.90967238935127,
To what extent did the music make you feel ,ALERT,30MonoWAV/30MonoH1.wav,2,2,1,5,,,,,1,6,22,4,0,8,8,8,,,,,,,,,5,1.1186288879980566,,,063,001,2019_May_27_1508,MusicAffectPsychophysiology2019,3.0.5,59.90967238935127,
To what extent did the music make you feel ,SAD,30MonoWAV/30MonoH1.wav,2,2,1,5,,,,,1,6,22,4,0,9,9,0,,,,,,,,,1,1.301156875997549,,,063,001,2019_May_27_1508,MusicAffectPsychophysiology2019,3.0.5,59.90967238935127,
To what extent did the music make you feel ,TENDER,30MonoWAV/30MonoH1.wav,2,2,1,5,,,,,1,6,22,4,0,10,10,10,,,,,,,,,4,2.0178591560033965,,,063,001,2019_May_27_1508,MusicAffectPsychophysiology2019,3.0.5,59.90967238935127,
To what extent did the music make you feel ,EXCITED,30MonoWAV/30MonoH1.wav,2,2,1,5,,,,,1,6,22,4,0,11,11,7,,,,,,,,,5,1.1019248070006142,,,063,001,2019_May_27_1508,MusicAffectPsychophysiology2019,3.0.5,59.90967238935127,
,,30MonoWAV/30MonoH1.wav,2,2,1,5,,,,,1,6,22,4,,,,,,,,,,,,,,,,,063,001,2019_May_27_1508,MusicAffectPsychophysiology2019,3.0.5,59.90967238935127,
To what extent did the music make you feel ,ACTIVE,30MonoWAV/30MonoF3.wav,1,2,2,3,,,,,1,7,23,2,0,0,0,9,,,4,3.867968058002589,2,1.8359371059996192,2,2.1180799219946493,3,2.2353126220041304,,,063,001,2019_May_27_1508,MusicAffectPsychophysiology2019,3.0.5,59.90967238935127,
To what extent did the music make you feel ,SAD,30MonoWAV/30MonoF3.wav,1,2,2,3,,,,,1,7,23,2,0,1,1,0,,,,,,,,,2,1.4227110840001842,,,063,001,2019_May_27_1508,MusicAffectPsychophysiology2019,3.0.5,59.90967238935127,
To what extent did the music make you feel ,ANGRY,30MonoWAV/30MonoF3.wav,1,2,2,3,,,,,1,7,23,2,0,2,2,2,,,,,,,,,3,1.3034947749983985,,,063,001,2019_May_27_1508,MusicAffectPsychophysiology2019,3.0.5,59.90967238935127,
To what extent did the music make you feel ,SCARED,30MonoWAV/30MonoF3.wav,1,2,2,3,,,,,1,7,23,2,0,3,3,11,,,,,,,,,2,1.6868068760013557,,,063,001,2019_May_27_1508,MusicAffectPsychophysiology2019,3.0.5,59.90967238935127,
To what extent did the music make you feel ,ALERT,30MonoWAV/30MonoF3.wav,1,2,2,3,,,,,1,7,23,2,0,4,4,8,,,,,,,,,2,4.727112145999854,,,063,001,2019_May_27_1508,MusicAffectPsychophysiology2019,3.0.5,59.90967238935127,
To what extent did the music make you feel ,HAPPY,30MonoWAV/30MonoF3.wav,1,2,2,3,,,,,1,7,23,2,0,5,5,6,,,,,,,,,1,1.935182347006048,,,063,001,2019_May_27_1508,MusicAffectPsychophysiology2019,3.0.5,59.90967238935127,
To what extent did the music make you feel ,ASHAMED,30MonoWAV/30MonoF3.wav,1,2,2,3,,,,,1,7,23,2,0,6,6,4,,,,,,,,,1,1.1186572539954796,,,063,001,2019_May_27_1508,MusicAffectPsychophysiology2019,3.0.5,59.90967238935127,
To what extent did the music make you feel ,ANXIOUS ,30MonoWAV/30MonoF3.wav,1,2,2,3,,,,,1,7,23,2,0,7,7,1,,,,,,,,,3,2.2355971279976075,,,063,001,2019_May_27_1508,MusicAffectPsychophysiology2019,3.0.5,59.90967238935127,
To what extent did the music make you feel ,FRUSTRATED,30MonoWAV/30MonoF3.wav,1,2,2,3,,,,,1,7,23,2,0,8,8,3,,,,,,,,,4,2.1017856710022897,,,063,001,2019_May_27_1508,MusicAffectPsychophysiology2019,3.0.5,59.90967238935127,
To what extent did the music make you feel ,TENDER,30MonoWAV/30MonoF3.wav,1,2,2,3,,,,,1,7,23,2,0,9,9,10,,,,,,,,,1,1.3015834760008147,,,063,001,2019_May_27_1508,MusicAffectPsychophysiology2019,3.0.5,59.90967238935127,
To what extent did the music make you feel ,EXCITED,30MonoWAV/30MonoF3.wav,1,2,2,3,,,,,1,7,23,2,0,10,10,7,,,,,,,,,2,2.1511783269961597,,,063,001,2019_May_27_1508,MusicAffectPsychophysiology2019,3.0.5,59.90967238935127,
To what extent did the music make you feel ,GUILTY,30MonoWAV/30MonoF3.wav,1,2,2,3,,,,,1,7,23,2,0,11,11,5,,,,,,,,,1,0.967956337997748,,,063,001,2019_May_27_1508,MusicAffectPsychophysiology2019,3.0.5,59.90967238935127,
,,30MonoWAV/30MonoF3.wav,1,2,2,3,,,,,1,7,23,2,,,,,,,,,,,,,,,,,063,001,2019_May_27_1508,MusicAffectPsychophysiology2019,3.0.5,59.90967238935127,
To what extent did the music make you feel ,GUILTY,30MonoWAV/30MonoH3.wav,2,2,1,7,,,,,1,8,24,6,0,0,0,5,,,4,2.5019077209944953,4,2.4525344189969474,2,1.635555203007243,1,1.552592813000956,,,063,001,2019_May_27_1508,MusicAffectPsychophysiology2019,3.0.5,59.90967238935127,
To what extent did the music make you feel ,ASHAMED,30MonoWAV/30MonoH3.wav,2,2,1,7,,,,,1,8,24,6,0,1,1,4,,,,,,,,,1,1.6191937259936822,,,063,001,2019_May_27_1508,MusicAffectPsychophysiology2019,3.0.5,59.90967238935127,
To what extent did the music make you feel ,SAD,30MonoWAV/30MonoH3.wav,2,2,1,7,,,,,1,8,24,6,0,2,2,0,,,,,,,,,2,1.368151909999142,,,063,001,2019_May_27_1508,MusicAffectPsychophysiology2019,3.0.5,59.90967238935127,
To what extent did the music make you feel ,ANGRY,30MonoWAV/30MonoH3.wav,2,2,1,7,,,,,1,8,24,6,0,3,3,2,,,,,,,,,2,1.1501999110041652,,,063,001,2019_May_27_1508,MusicAffectPsychophysiology2019,3.0.5,59.90967238935127,
To what extent did the music make you feel ,HAPPY,30MonoWAV/30MonoH3.wav,2,2,1,7,,,,,1,8,24,6,0,4,4,6,,,,,,,,,3,1.735895416000858,,,063,001,2019_May_27_1508,MusicAffectPsychophysiology2019,3.0.5,59.90967238935127,
To what extent did the music make you feel ,ALERT,30MonoWAV/30MonoH3.wav,2,2,1,7,,,,,1,8,24,6,0,5,5,8,,,,,,,,,2,2.1353427009962616,,,063,001,2019_May_27_1508,MusicAffectPsychophysiology2019,3.0.5,59.90967238935127,
To what extent did the music make you feel ,TENDER,30MonoWAV/30MonoH3.wav,2,2,1,7,,,,,1,8,24,6,0,6,6,10,,,,,,,,,1,1.2166250049995142,,,063,001,2019_May_27_1508,MusicAffectPsychophysiology2019,3.0.5,59.90967238935127,
To what extent did the music make you feel ,FRUSTRATED,30MonoWAV/30MonoH3.wav,2,2,1,7,,,,,1,8,24,6,0,7,7,3,,,,,,,,,3,1.5347952349984553,,,063,001,2019_May_27_1508,MusicAffectPsychophysiology2019,3.0.5,59.90967238935127,
To what extent did the music make you feel ,ACTIVE,30MonoWAV/30MonoH3.wav,2,2,1,7,,,,,1,8,24,6,0,8,8,9,,,,,,,,,2,2.1683335060006357,,,063,001,2019_May_27_1508,MusicAffectPsychophysiology2019,3.0.5,59.90967238935127,
To what extent did the music make you feel ,EXCITED,30MonoWAV/30MonoH3.wav,2,2,1,7,,,,,1,8,24,6,0,9,9,7,,,,,,,,,2,1.6685780949992477,,,063,001,2019_May_27_1508,MusicAffectPsychophysiology2019,3.0.5,59.90967238935127,
To what extent did the music make you feel ,ANXIOUS ,30MonoWAV/30MonoH3.wav,2,2,1,7,,,,,1,8,24,6,0,10,10,1,,,,,,,,,3,1.8519022160035092,,,063,001,2019_May_27_1508,MusicAffectPsychophysiology2019,3.0.5,59.90967238935127,
To what extent did the music make you feel ,SCARED,30MonoWAV/30MonoH3.wav,2,2,1,7,,,,,1,8,24,6,0,11,11,11,,,,,,,,,1,1.3856810110009974,,,063,001,2019_May_27_1508,MusicAffectPsychophysiology2019,3.0.5,59.90967238935127,
,,30MonoWAV/30MonoH3.wav,2,2,1,7,,,,,1,8,24,6,,,,,,,,,,,,,,,,,063,001,2019_May_27_1508,MusicAffectPsychophysiology2019,3.0.5,59.90967238935127,
To what extent did the music make you feel ,ASHAMED,30MonoWAV/30MonoS3.wav,1,1,3,11,,,,,1,9,25,10,0,0,0,4,,,2,4.033571239000594,2,2.250548670999706,4,3.533990265998,3,2.7193615340001998,,,063,001,2019_May_27_1508,MusicAffectPsychophysiology2019,3.0.5,59.90967238935127,
To what extent did the music make you feel ,ACTIVE,30MonoWAV/30MonoS3.wav,1,1,3,11,,,,,1,9,25,10,0,1,1,9,,,,,,,,,2,1.7551175449989387,,,063,001,2019_May_27_1508,MusicAffectPsychophysiology2019,3.0.5,59.90967238935127,
To what extent did the music make you feel ,ANXIOUS ,30MonoWAV/30MonoS3.wav,1,1,3,11,,,,,1,9,25,10,0,2,2,1,,,,,,,,,1,2.570854049998161,,,063,001,2019_May_27_1508,MusicAffectPsychophysiology2019,3.0.5,59.90967238935127,
To what extent did the music make you feel ,SCARED,30MonoWAV/30MonoS3.wav,1,1,3,11,,,,,1,9,25,10,0,3,3,11,,,,,,,,,2,0.9692889079960878,,,063,001,2019_May_27_1508,MusicAffectPsychophysiology2019,3.0.5,59.90967238935127,
To what extent did the music make you feel ,HAPPY,30MonoWAV/30MonoS3.wav,1,1,3,11,,,,,1,9,25,10,0,4,4,6,,,,,,,,,2,1.3539399360015523,,,063,001,2019_May_27_1508,MusicAffectPsychophysiology2019,3.0.5,59.90967238935127,
To what extent did the music make you feel ,ALERT,30MonoWAV/30MonoS3.wav,1,1,3,11,,,,,1,9,25,10,0,5,5,8,,,,,,,,,2,3.2402999520054436,,,063,001,2019_May_27_1508,MusicAffectPsychophysiology2019,3.0.5,59.90967238935127,
To what extent did the music make you feel ,FRUSTRATED,30MonoWAV/30MonoS3.wav,1,1,3,11,,,,,1,9,25,10,0,6,6,3,,,,,,,,,2,1.5838954229984665,,,063,001,2019_May_27_1508,MusicAffectPsychophysiology2019,3.0.5,59.90967238935127,
To what extent did the music make you feel ,EXCITED,30MonoWAV/30MonoS3.wav,1,1,3,11,,,,,1,9,25,10,0,7,7,7,,,,,,,,,1,1.7358196360000875,,,063,001,2019_May_27_1508,MusicAffectPsychophysiology2019,3.0.5,59.90967238935127,
To what extent did the music make you feel ,TENDER,30MonoWAV/30MonoS3.wav,1,1,3,11,,,,,1,9,25,10,0,8,8,10,,,,,,,,,3,3.383546723998734,,,063,001,2019_May_27_1508,MusicAffectPsychophysiology2019,3.0.5,59.90967238935127,
To what extent did the music make you feel ,GUILTY,30MonoWAV/30MonoS3.wav,1,1,3,11,,,,,1,9,25,10,0,9,9,5,,,,,,,,,3,2.7176178910012823,,,063,001,2019_May_27_1508,MusicAffectPsychophysiology2019,3.0.5,59.90967238935127,
To what extent did the music make you feel ,ANGRY,30MonoWAV/30MonoS3.wav,1,1,3,11,,,,,1,9,25,10,0,10,10,2,,,,,,,,,1,2.751188922993606,,,063,001,2019_May_27_1508,MusicAffectPsychophysiology2019,3.0.5,59.90967238935127,
To what extent did the music make you feel ,SAD,30MonoWAV/30MonoS3.wav,1,1,3,11,,,,,1,9,25,10,0,11,11,0,,,,,,,,,3,2.1507393549982226,,,063,001,2019_May_27_1508,MusicAffectPsychophysiology2019,3.0.5,59.90967238935127,
,,30MonoWAV/30MonoS3.wav,1,1,3,11,,,,,1,9,25,10,,,,,,,,,,,,,,,,,063,001,2019_May_27_1508,MusicAffectPsychophysiology2019,3.0.5,59.90967238935127,
To what extent did the music make you feel ,ANXIOUS ,30MonoWAV/30MonoF2.wav,1,2,2,2,,,,,1,10,26,1,0,0,0,1,,,2,3.7851788740008487,1,1.9845671840012074,1,1.3516673400008585,4,2.951151821005624,,,063,001,2019_May_27_1508,MusicAffectPsychophysiology2019,3.0.5,59.90967238935127,
To what extent did the music make you feel ,ASHAMED,30MonoWAV/30MonoF2.wav,1,2,2,2,,,,,1,10,26,1,0,1,1,4,,,,,,,,,1,1.2699997140007326,,,063,001,2019_May_27_1508,MusicAffectPsychophysiology2019,3.0.5,59.90967238935127,
To what extent did the music make you feel ,TENDER,30MonoWAV/30MonoF2.wav,1,2,2,2,,,,,1,10,26,1,0,2,2,10,,,,,,,,,1,1.2357500459984294,,,063,001,2019_May_27_1508,MusicAffectPsychophysiology2019,3.0.5,59.90967238935127,
To what extent did the music make you feel ,ALERT,30MonoWAV/30MonoF2.wav,1,2,2,2,,,,,1,10,26,1,0,3,3,8,,,,,,,,,4,2.001721776003251,,,063,001,2019_May_27_1508,MusicAffectPsychophysiology2019,3.0.5,59.90967238935127,
To what extent did the music make you feel ,HAPPY,30MonoWAV/30MonoF2.wav,1,2,2,2,,,,,1,10,26,1,0,4,4,6,,,,,,,,,1,1.451573799997277,,,063,001,2019_May_27_1508,MusicAffectPsychophysiology2019,3.0.5,59.90967238935127,
To what extent did the music make you feel ,EXCITED,30MonoWAV/30MonoF2.wav,1,2,2,2,,,,,1,10,26,1,0,5,5,7,,,,,,,,,1,1.4012798289986677,,,063,001,2019_May_27_1508,MusicAffectPsychophysiology2019,3.0.5,59.90967238935127,
To what extent did the music make you feel ,ANGRY,30MonoWAV/30MonoF2.wav,1,2,2,2,,,,,1,10,26,1,0,6,6,2,,,,,,,,,3,1.3019418959956965,,,063,001,2019_May_27_1508,MusicAffectPsychophysiology2019,3.0.5,59.90967238935127,
To what extent did the music make you feel ,SAD,30MonoWAV/30MonoF2.wav,1,2,2,2,,,,,1,10,26,1,0,7,7,0,,,,,,,,,3,2.5514756579941604,,,063,001,2019_May_27_1508,MusicAffectPsychophysiology2019,3.0.5,59.90967238935127,
To what extent did the music make you feel ,SCARED,30MonoWAV/30MonoF2.wav,1,2,2,2,,,,,1,10,26,1,0,8,8,11,,,,,,,,,4,2.801833075005561,,,063,001,2019_May_27_1508,MusicAffectPsychophysiology2019,3.0.5,59.90967238935127,
To what extent did the music make you feel ,ACTIVE,30MonoWAV/30MonoF2.wav,1,2,2,2,,,,,1,10,26,1,0,9,9,9,,,,,,,,,1,1.1685211849980988,,,063,001,2019_May_27_1508,MusicAffectPsychophysiology2019,3.0.5,59.90967238935127,
To what extent did the music make you feel ,FRUSTRATED,30MonoWAV/30MonoF2.wav,1,2,2,2,,,,,1,10,26,1,0,10,10,3,,,,,,,,,3,1.434850578996702,,,063,001,2019_May_27_1508,MusicAffectPsychophysiology2019,3.0.5,59.90967238935127,
To what extent did the music make you feel ,GUILTY,30MonoWAV/30MonoF2.wav,1,2,2,2,,,,,1,10,26,1,0,11,11,5,,,,,,,,,1,1.484741941007087,,,063,001,2019_May_27_1508,MusicAffectPsychophysiology2019,3.0.5,59.90967238935127,
,,30MonoWAV/30MonoF2.wav,1,2,2,2,,,,,1,10,26,1,,,,,,,,,,,,,,,,,063,001,2019_May_27_1508,MusicAffectPsychophysiology2019,3.0.5,59.90967238935127,
To what extent did the music make you feel ,ANGRY,30MonoWAV/30MonoT4.wav,2,1,4,16,,,,,1,11,27,15,0,0,0,2,,,3,4.241191562003223,4,3.585093007000978,3,1.8694892690036795,1,1.6018741009975201,,,063,001,2019_May_27_1508,MusicAffectPsychophysiology2019,3.0.5,59.90967238935127,
To what extent did the music make you feel ,FRUSTRATED,30MonoWAV/30MonoT4.wav,2,1,4,16,,,,,1,11,27,15,0,1,1,3,,,,,,,,,2,1.2847474529989995,,,063,001,2019_May_27_1508,MusicAffectPsychophysiology2019,3.0.5,59.90967238935127,
To what extent did the music make you feel ,ASHAMED,30MonoWAV/30MonoT4.wav,2,1,4,16,,,,,1,11,27,15,0,2,2,4,,,,,,,,,1,1.2681024040066404,,,063,001,2019_May_27_1508,MusicAffectPsychophysiology2019,3.0.5,59.90967238935127,
To what extent did the music make you feel ,ACTIVE,30MonoWAV/30MonoT4.wav,2,1,4,16,,,,,1,11,27,15,0,3,3,9,,,,,,,,,3,1.5184226810015389,,,063,001,2019_May_27_1508,MusicAffectPsychophysiology2019,3.0.5,59.90967238935127,
To what extent did the music make you feel ,ALERT,30MonoWAV/30MonoT4.wav,2,1,4,16,,,,,1,11,27,15,0,4,4,8,,,,,,,,,4,1.7175210820059874,,,063,001,2019_May_27_1508,MusicAffectPsychophysiology2019,3.0.5,59.90967238935127,
To what extent did the music make you feel ,SCARED,30MonoWAV/30MonoT4.wav,2,1,4,16,,,,,1,11,27,15,0,5,5,11,,,,,,,,,1,1.1505229639951722,,,063,001,2019_May_27_1508,MusicAffectPsychophysiology2019,3.0.5,59.90967238935127,
To what extent did the music make you feel ,ANXIOUS ,30MonoWAV/30MonoT4.wav,2,1,4,16,,,,,1,11,27,15,0,6,6,1,,,,,,,,,1,1.803121368997381,,,063,001,2019_May_27_1508,MusicAffectPsychophysiology2019,3.0.5,59.90967238935127,
To what extent did the music make you feel ,HAPPY,30MonoWAV/30MonoT4.wav,2,1,4,16,,,,,1,11,27,15,0,7,7,6,,,,,,,,,3,1.5680844570015324,,,063,001,2019_May_27_1508,MusicAffectPsychophysiology2019,3.0.5,59.90967238935127,
To what extent did the music make you feel ,EXCITED,30MonoWAV/30MonoT4.wav,2,1,4,16,,,,,1,11,27,15,0,8,8,7,,,,,,,,,3,1.3848685409975587,,,063,001,2019_May_27_1508,MusicAffectPsychophysiology2019,3.0.5,59.90967238935127,
To what extent did the music make you feel ,SAD,30MonoWAV/30MonoT4.wav,2,1,4,16,,,,,1,11,27,15,0,9,9,0,,,,,,,,,1,1.1016799709977931,,,063,001,2019_May_27_1508,MusicAffectPsychophysiology2019,3.0.5,59.90967238935127,
To what extent did the music make you feel ,GUILTY,30MonoWAV/30MonoT4.wav,2,1,4,16,,,,,1,11,27,15,0,10,10,5,,,,,,,,,1,1.7353537640010472,,,063,001,2019_May_27_1508,MusicAffectPsychophysiology2019,3.0.5,59.90967238935127,
To what extent did the music make you feel ,TENDER,30MonoWAV/30MonoT4.wav,2,1,4,16,,,,,1,11,27,15,0,11,11,10,,,,,,,,,3,1.3834566330042435,,,063,001,2019_May_27_1508,MusicAffectPsychophysiology2019,3.0.5,59.90967238935127,
,,30MonoWAV/30MonoT4.wav,2,1,4,16,,,,,1,11,27,15,,,,,,,,,,,,,,,,,063,001,2019_May_27_1508,MusicAffectPsychophysiology2019,3.0.5,59.90967238935127,
To what extent did the music make you feel ,GUILTY,30MonoWAV/30MonoH4.wav,2,2,1,8,,,,,1,12,28,7,0,0,0,5,,,3,5.635708682006225,2,2.6686269499987247,2,1.6341195370041532,1,1.1851851870014798,,,063,001,2019_May_27_1508,MusicAffectPsychophysiology2019,3.0.5,59.90967238935127,
To what extent did the music make you feel ,SCARED,30MonoWAV/30MonoH4.wav,2,2,1,8,,,,,1,12,28,7,0,1,1,11,,,,,,,,,1,1.0519766180004808,,,063,001,2019_May_27_1508,MusicAffectPsychophysiology2019,3.0.5,59.90967238935127,
To what extent did the music make you feel ,ANGRY,30MonoWAV/30MonoH4.wav,2,2,1,8,,,,,1,12,28,7,0,2,2,2,,,,,,,,,2,1.152099406994239,,,063,001,2019_May_27_1508,MusicAffectPsychophysiology2019,3.0.5,59.90967238935127,
To what extent did the music make you feel ,HAPPY,30MonoWAV/30MonoH4.wav,2,2,1,8,,,,,1,12,28,7,0,3,3,6,,,,,,,,,2,1.4508138599994709,,,063,001,2019_May_27_1508,MusicAffectPsychophysiology2019,3.0.5,59.90967238935127,
To what extent did the music make you feel ,ANXIOUS ,30MonoWAV/30MonoH4.wav,2,2,1,8,,,,,1,12,28,7,0,4,4,1,,,,,,,,,1,1.2854484429990407,,,063,001,2019_May_27_1508,MusicAffectPsychophysiology2019,3.0.5,59.90967238935127,
To what extent did the music make you feel ,EXCITED,30MonoWAV/30MonoH4.wav,2,2,1,8,,,,,1,12,28,7,0,5,5,7,,,,,,,,,2,1.4686816399989766,,,063,001,2019_May_27_1508,MusicAffectPsychophysiology2019,3.0.5,59.90967238935127,
To what extent did the music make you feel ,ASHAMED,30MonoWAV/30MonoH4.wav,2,2,1,8,,,,,1,12,28,7,0,6,6,4,,,,,,,,,1,1.3166798489983194,,,063,001,2019_May_27_1508,MusicAffectPsychophysiology2019,3.0.5,59.90967238935127,
To what extent did the music make you feel ,SAD,30MonoWAV/30MonoH4.wav,2,2,1,8,,,,,1,12,28,7,0,7,7,0,,,,,,,,,2,1.3512958339997567,,,063,001,2019_May_27_1508,MusicAffectPsychophysiology2019,3.0.5,59.90967238935127,
To what extent did the music make you feel ,FRUSTRATED,30MonoWAV/30MonoH4.wav,2,2,1,8,,,,,1,12,28,7,0,8,8,3,,,,,,,,,2,1.2683799279984669,,,063,001,2019_May_27_1508,MusicAffectPsychophysiology2019,3.0.5,59.90967238935127,
To what extent did the music make you feel ,ALERT,30MonoWAV/30MonoH4.wav,2,2,1,8,,,,,1,12,28,7,0,9,9,8,,,,,,,,,2,2.434100167003635,,,063,001,2019_May_27_1508,MusicAffectPsychophysiology2019,3.0.5,59.90967238935127,
To what extent did the music make you feel ,ACTIVE,30MonoWAV/30MonoH4.wav,2,2,1,8,,,,,1,12,28,7,0,10,10,9,,,,,,,,,2,2.4182548930039047,,,063,001,2019_May_27_1508,MusicAffectPsychophysiology2019,3.0.5,59.90967238935127,
To what extent did the music make you feel ,TENDER,30MonoWAV/30MonoH4.wav,2,2,1,8,,,,,1,12,28,7,0,11,11,10,,,,,,,,,1,1.2844996269996045,,,063,001,2019_May_27_1508,MusicAffectPsychophysiology2019,3.0.5,59.90967238935127,
,,30MonoWAV/30MonoH4.wav,2,2,1,8,,,,,1,12,28,7,,,,,,,,,,,,,,,,,063,001,2019_May_27_1508,MusicAffectPsychophysiology2019,3.0.5,59.90967238935127,
To what extent did the music make you feel ,ANGRY,30MonoWAV/30MonoF1.wav,1,2,2,1,,,,,1,13,29,0,0,0,0,2,,,3,3.233563187000982,1,1.9184293360012816,1,1.801456508001138,3,2.051716239002417,,,063,001,2019_May_27_1508,MusicAffectPsychophysiology2019,3.0.5,59.90967238935127,
To what extent did the music make you feel ,HAPPY,30MonoWAV/30MonoF1.wav,1,2,2,1,,,,,1,13,29,0,0,1,1,6,,,,,,,,,1,1.4177363560011145,,,063,001,2019_May_27_1508,MusicAffectPsychophysiology2019,3.0.5,59.90967238935127,
To what extent did the music make you feel ,EXCITED,30MonoWAV/30MonoF1.wav,1,2,2,1,,,,,1,13,29,0,0,2,2,7,,,,,,,,,1,1.4682968210036051,,,063,001,2019_May_27_1508,MusicAffectPsychophysiology2019,3.0.5,59.90967238935127,
To what extent did the music make you feel ,SCARED,30MonoWAV/30MonoF1.wav,1,2,2,1,,,,,1,13,29,0,0,3,3,11,,,,,,,,,2,1.3686698660021648,,,063,001,2019_May_27_1508,MusicAffectPsychophysiology2019,3.0.5,59.90967238935127,
To what extent did the music make you feel ,TENDER,30MonoWAV/30MonoF1.wav,1,2,2,1,,,,,1,13,29,0,0,4,4,10,,,,,,,,,1,0.938557610999851,,,063,001,2019_May_27_1508,MusicAffectPsychophysiology2019,3.0.5,59.90967238935127,
To what extent did the music make you feel ,ASHAMED,30MonoWAV/30MonoF1.wav,1,2,2,1,,,,,1,13,29,0,0,5,5,4,,,,,,,,,2,1.6196113780024461,,,063,001,2019_May_27_1508,MusicAffectPsychophysiology2019,3.0.5,59.90967238935127,
To what extent did the music make you feel ,SAD,30MonoWAV/30MonoF1.wav,1,2,2,1,,,,,1,13,29,0,0,6,6,0,,,,,,,,,3,1.2531435409982805,,,063,001,2019_May_27_1508,MusicAffectPsychophysiology2019,3.0.5,59.90967238935127,
To what extent did the music make you feel ,ALERT,30MonoWAV/30MonoF1.wav,1,2,2,1,,,,,1,13,29,0,0,7,7,8,,,,,,,,,2,1.4700087970049935,,,063,001,2019_May_27_1508,MusicAffectPsychophysiology2019,3.0.5,59.90967238935127,
To what extent did the music make you feel ,GUILTY,30MonoWAV/30MonoF1.wav,1,2,2,1,,,,,1,13,29,0,0,8,8,5,,,,,,,,,2,1.5863796920020832,,,063,001,2019_May_27_1508,MusicAffectPsychophysiology2019,3.0.5,59.90967238935127,
To what extent did the music make you feel ,ANXIOUS ,30MonoWAV/30MonoF1.wav,1,2,2,1,,,,,1,13,29,0,0,9,9,1,,,,,,,,,4,2.2898059400031343,,,063,001,2019_May_27_1508,MusicAffectPsychophysiology2019,3.0.5,59.90967238935127,
To what extent did the music make you feel ,FRUSTRATED,30MonoWAV/30MonoF1.wav,1,2,2,1,,,,,1,13,29,0,0,10,10,3,,,,,,,,,3,1.269055570999626,,,063,001,2019_May_27_1508,MusicAffectPsychophysiology2019,3.0.5,59.90967238935127,
To what extent did the music make you feel ,ACTIVE,30MonoWAV/30MonoF1.wav,1,2,2,1,,,,,1,13,29,0,0,11,11,9,,,,,,,,,2,1.335484754999925,,,063,001,2019_May_27_1508,MusicAffectPsychophysiology2019,3.0.5,59.90967238935127,
,,30MonoWAV/30MonoF1.wav,1,2,2,1,,,,,1,13,29,0,,,,,,,,,,,,,,,,,063,001,2019_May_27_1508,MusicAffectPsychophysiology2019,3.0.5,59.90967238935127,
To what extent did the music make you feel ,GUILTY,30MonoWAV/30MonoT1.wav,2,1,4,13,,,,,1,14,30,12,0,0,0,5,,,2,4.667350044997875,4,2.7185447619995102,4,1.6183784509994439,2,1.4692840529969544,,,063,001,2019_May_27_1508,MusicAffectPsychophysiology2019,3.0.5,59.90967238935127,
To what extent did the music make you feel ,FRUSTRATED,30MonoWAV/30MonoT1.wav,2,1,4,13,,,,,1,14,30,12,0,1,1,3,,,,,,,,,1,1.0174295800024993,,,063,001,2019_May_27_1508,MusicAffectPsychophysiology2019,3.0.5,59.90967238935127,
To what extent did the music make you feel ,ASHAMED,30MonoWAV/30MonoT1.wav,2,1,4,13,,,,,1,14,30,12,0,2,2,4,,,,,,,,,1,2.01811539499613,,,063,001,2019_May_27_1508,MusicAffectPsychophysiology2019,3.0.5,59.90967238935127,
To what extent did the music make you feel ,ACTIVE,30MonoWAV/30MonoT1.wav,2,1,4,13,,,,,1,14,30,12,0,3,3,9,,,,,,,,,2,1.4344948750003823,,,063,001,2019_May_27_1508,MusicAffectPsychophysiology2019,3.0.5,59.90967238935127,
To what extent did the music make you feel ,SCARED,30MonoWAV/30MonoT1.wav,2,1,4,13,,,,,1,14,30,12,0,4,4,11,,,,,,,,,1,0.9494171010010177,,,063,001,2019_May_27_1508,MusicAffectPsychophysiology2019,3.0.5,59.90967238935127,
To what extent did the music make you feel ,SAD,30MonoWAV/30MonoT1.wav,2,1,4,13,,,,,1,14,30,12,0,5,5,0,,,,,,,,,2,1.0681124280017684,,,063,001,2019_May_27_1508,MusicAffectPsychophysiology2019,3.0.5,59.90967238935127,
To what extent did the music make you feel ,EXCITED,30MonoWAV/30MonoT1.wav,2,1,4,13,,,,,1,14,30,12,0,6,6,7,,,,,,,,,3,1.3679577050061198,,,063,001,2019_May_27_1508,MusicAffectPsychophysiology2019,3.0.5,59.90967238935127,
To what extent did the music make you feel ,TENDER,30MonoWAV/30MonoT1.wav,2,1,4,13,,,,,1,14,30,12,0,7,7,10,,,,,,,,,4,1.635399040998891,,,063,001,2019_May_27_1508,MusicAffectPsychophysiology2019,3.0.5,59.90967238935127,
To what extent did the music make you feel ,HAPPY,30MonoWAV/30MonoT1.wav,2,1,4,13,,,,,1,14,30,12,0,8,8,6,,,,,,,,,4,2.4679528470005607,,,063,001,2019_May_27_1508,MusicAffectPsychophysiology2019,3.0.5,59.90967238935127,
To what extent did the music make you feel ,ANXIOUS ,30MonoWAV/30MonoT1.wav,2,1,4,13,,,,,1,14,30,12,0,9,9,1,,,,,,,,,1,1.1345822820003377,,,063,001,2019_May_27_1508,MusicAffectPsychophysiology2019,3.0.5,59.90967238935127,
To what extent did the music make you feel ,ANGRY,30MonoWAV/30MonoT1.wav,2,1,4,13,,,,,1,14,30,12,0,10,10,2,,,,,,,,,1,1.1350884540006518,,,063,001,2019_May_27_1508,MusicAffectPsychophysiology2019,3.0.5,59.90967238935127,
To what extent did the music make you feel ,ALERT,30MonoWAV/30MonoT1.wav,2,1,4,13,,,,,1,14,30,12,0,11,11,8,,,,,,,,,3,1.8346966320023057,,,063,001,2019_May_27_1508,MusicAffectPsychophysiology2019,3.0.5,59.90967238935127,
,,30MonoWAV/30MonoT1.wav,2,1,4,13,,,,,1,14,30,12,,,,,,,,,,,,,,,,,063,001,2019_May_27_1508,MusicAffectPsychophysiology2019,3.0.5,59.90967238935127,
To what extent did the music make you feel ,HAPPY,30MonoWAV/30MonoS4.wav,1,1,3,12,,,,,1,15,31,11,0,0,0,6,,,1,3.5686864070012234,2,1.1168181039975025,3,1.9196954720027861,2,3.5007686230019317,,,063,001,2019_May_27_1508,MusicAffectPsychophysiology2019,3.0.5,59.90967238935127,
To what extent did the music make you feel ,TENDER,30MonoWAV/30MonoS4.wav,1,1,3,12,,,,,1,15,31,11,0,1,1,10,,,,,,,,,4,1.8343286979943514,,,063,001,2019_May_27_1508,MusicAffectPsychophysiology2019,3.0.5,59.90967238935127,
To what extent did the music make you feel ,EXCITED,30MonoWAV/30MonoS4.wav,1,1,3,12,,,,,1,15,31,11,0,2,2,7,,,,,,,,,1,2.018471805000445,,,063,001,2019_May_27_1508,MusicAffectPsychophysiology2019,3.0.5,59.90967238935127,
To what extent did the music make you feel ,GUILTY,30MonoWAV/30MonoS4.wav,1,1,3,12,,,,,1,15,31,11,0,3,3,5,,,,,,,,,2,0.9659333739982685,,,063,001,2019_May_27_1508,MusicAffectPsychophysiology2019,3.0.5,59.90967238935127,
To what extent did the music make you feel ,SCARED,30MonoWAV/30MonoS4.wav,1,1,3,12,,,,,1,15,31,11,0,4,4,11,,,,,,,,,1,1.5679747960020904,,,063,001,2019_May_27_1508,MusicAffectPsychophysiology2019,3.0.5,59.90967238935127,
To what extent did the music make you feel ,ASHAMED,30MonoWAV/30MonoS4.wav,1,1,3,12,,,,,1,15,31,11,0,5,5,4,,,,,,,,,2,1.5335477050030022,,,063,001,2019_May_27_1508,MusicAffectPsychophysiology2019,3.0.5,59.90967238935127,
To what extent did the music make you feel ,SAD,30MonoWAV/30MonoS4.wav,1,1,3,12,,,,,1,15,31,11,0,6,6,0,,,,,,,,,3,1.2514593880041502,,,063,001,2019_May_27_1508,MusicAffectPsychophysiology2019,3.0.5,59.90967238935127,
To what extent did the music make you feel ,ANGRY,30MonoWAV/30MonoS4.wav,1,1,3,12,,,,,1,15,31,11,0,7,7,2,,,,,,,,,1,1.8851525370046147,,,063,001,2019_May_27_1508,MusicAffectPsychophysiology2019,3.0.5,59.90967238935127,
To what extent did the music make you feel ,ACTIVE,30MonoWAV/30MonoS4.wav,1,1,3,12,,,,,1,15,31,11,0,8,8,9,,,,,,,,,2,1.517553402998601,,,063,001,2019_May_27_1508,MusicAffectPsychophysiology2019,3.0.5,59.90967238935127,
To what extent did the music make you feel ,ANXIOUS ,30MonoWAV/30MonoS4.wav,1,1,3,12,,,,,1,15,31,11,0,9,9,1,,,,,,,,,1,1.1690133969968883,,,063,001,2019_May_27_1508,MusicAffectPsychophysiology2019,3.0.5,59.90967238935127,
To what extent did the music make you feel ,ALERT,30MonoWAV/30MonoS4.wav,1,1,3,12,,,,,1,15,31,11,0,10,10,8,,,,,,,,,2,0.9659400429954985,,,063,001,2019_May_27_1508,MusicAffectPsychophysiology2019,3.0.5,59.90967238935127,
To what extent did the music make you feel ,FRUSTRATED,30MonoWAV/30MonoS4.wav,1,1,3,12,,,,,1,15,31,11,0,11,11,3,,,,,,,,,1,1.1179189999966184,,,063,001,2019_May_27_1508,MusicAffectPsychophysiology2019,3.0.5,59.90967238935127,
,,30MonoWAV/30MonoS4.wav,1,1,3,12,,,,,1,15,31,11,,,,,,,,,,,,,,,,,063,001,2019_May_27_1508,MusicAffectPsychophysiology2019,3.0.5,59.90967238935127,
,,,,,,,,,,,,,,,,,,,,,,,,,,,,,space,9.85276368099585,063,001,2019_May_27_1508,MusicAffectPsychophysiology2019,3.0.5,59.90967238935127,
