Instruction,Word,song,valence,arousal,affectcat,songmark,pracwords.thisRepN,pracwords.thisTrialN,pracwords.thisN,pracwords.thisIndex,songtrials.thisRepN,songtrials.thisTrialN,songtrials.thisN,songtrials.thisIndex,words.thisRepN,words.thisTrialN,words.thisN,words.thisIndex,begin.keys,begin.rt,arousalkey.keys,arousalkey.rt,valencekey.keys,valencekey.rt,likekey.keys,likekey.rt,WordResponse.keys,WordResponse.rt,key_resp_2.keys,key_resp_2.rt,participant,session,date,expName,psychopyVersion,frameRate,
,,,,,,,,,,,,,,,,,,,space,8.618098127997655,,,,,,,,,,,064,001,2019_May_27_1609,MusicAffectPsychophysiology2019,3.0.5,60.08395904253013,
,,,,,,,,,,,,,,,,,,,,,3,5.8416454889957095,,,,,,,,,064,001,2019_May_27_1609,MusicAffectPsychophysiology2019,3.0.5,60.08395904253013,
,,,,,,,,,,,,,,,,,,,,,,,3,3.4715624430027674,,,,,,,064,001,2019_May_27_1609,MusicAffectPsychophysiology2019,3.0.5,60.08395904253013,
,,,,,,,,,,,,,,,,,,,,,,,,,2,2.808179742998618,,,,,064,001,2019_May_27_1609,MusicAffectPsychophysiology2019,3.0.5,60.08395904253013,
To what extent did the music make you feel ,SCARED,,,,,,0,0,0,11,,,,,,,,,,,,,,,,,1,3.8046043750000536,,,064,001,2019_May_27_1609,MusicAffectPsychophysiology2019,3.0.5,60.08395904253013,
To what extent did the music make you feel ,ACTIVE,,,,,,0,1,1,9,,,,,,,,,,,,,,,,,2,5.235057303005306,,,064,001,2019_May_27_1609,MusicAffectPsychophysiology2019,3.0.5,60.08395904253013,
To what extent did the music make you feel ,FRUSTRATED,,,,,,0,2,2,3,,,,,,,,,,,,,,,,,1,2.9014773570015677,,,064,001,2019_May_27_1609,MusicAffectPsychophysiology2019,3.0.5,60.08395904253013,
To what extent did the music make you feel ,ASHAMED,,,,,,0,3,3,4,,,,,,,,,,,,,,,,,1,3.9346178709965898,,,064,001,2019_May_27_1609,MusicAffectPsychophysiology2019,3.0.5,60.08395904253013,
To what extent did the music make you feel ,GUILTY,,,,,,0,4,4,5,,,,,,,,,,,,,,,,,1,3.834560996001528,,,064,001,2019_May_27_1609,MusicAffectPsychophysiology2019,3.0.5,60.08395904253013,
To what extent did the music make you feel ,ANGRY,,,,,,0,5,5,2,,,,,,,,,,,,,,,,,1,1.9842546450017835,,,064,001,2019_May_27_1609,MusicAffectPsychophysiology2019,3.0.5,60.08395904253013,
To what extent did the music make you feel ,HAPPY,,,,,,0,6,6,6,,,,,,,,,,,,,,,,,3,3.434678081997845,,,064,001,2019_May_27_1609,MusicAffectPsychophysiology2019,3.0.5,60.08395904253013,
To what extent did the music make you feel ,TENDER,,,,,,0,7,7,10,,,,,,,,,,,,,,,,,4,2.7349595859996043,,,064,001,2019_May_27_1609,MusicAffectPsychophysiology2019,3.0.5,60.08395904253013,
To what extent did the music make you feel ,EXCITED,,,,,,0,8,8,7,,,,,,,,,,,,,,,,,2,3.101342146997922,,,064,001,2019_May_27_1609,MusicAffectPsychophysiology2019,3.0.5,60.08395904253013,
To what extent did the music make you feel ,SAD,,,,,,0,9,9,0,,,,,,,,,,,,,,,,,2,2.4184756579998066,,,064,001,2019_May_27_1609,MusicAffectPsychophysiology2019,3.0.5,60.08395904253013,
To what extent did the music make you feel ,ANXIOUS ,,,,,,0,10,10,1,,,,,,,,,,,,,,,,,1,3.635112278003362,,,064,001,2019_May_27_1609,MusicAffectPsychophysiology2019,3.0.5,60.08395904253013,
To what extent did the music make you feel ,ALERT,,,,,,0,11,11,8,,,,,,,,,,,,,,,,,1,4.267579291998118,,,064,001,2019_May_27_1609,MusicAffectPsychophysiology2019,3.0.5,60.08395904253013,
To what extent did the music make you feel ,ANXIOUS ,30MonoWAV/30MonoS2.wav,1,1,3,10,,,,,0,0,0,9,0,0,0,1,,,1,4.868482007004786,1,4.401600093995512,2,3.1678441659969394,1,4.051961001001473,,,064,001,2019_May_27_1609,MusicAffectPsychophysiology2019,3.0.5,60.08395904253013,
To what extent did the music make you feel ,ACTIVE,30MonoWAV/30MonoS2.wav,1,1,3,10,,,,,0,0,0,9,0,1,1,9,,,,,,,,,1,1.6837997159964289,,,064,001,2019_May_27_1609,MusicAffectPsychophysiology2019,3.0.5,60.08395904253013,
To what extent did the music make you feel ,GUILTY,30MonoWAV/30MonoS2.wav,1,1,3,10,,,,,0,0,0,9,0,2,2,5,,,,,,,,,1,1.3997658500011312,,,064,001,2019_May_27_1609,MusicAffectPsychophysiology2019,3.0.5,60.08395904253013,
To what extent did the music make you feel ,HAPPY,30MonoWAV/30MonoS2.wav,1,1,3,10,,,,,0,0,0,9,0,3,3,6,,,,,,,,,1,2.235012110999378,,,064,001,2019_May_27_1609,MusicAffectPsychophysiology2019,3.0.5,60.08395904253013,
To what extent did the music make you feel ,SAD,30MonoWAV/30MonoS2.wav,1,1,3,10,,,,,0,0,0,9,0,4,4,0,,,,,,,,,3,3.700122589005332,,,064,001,2019_May_27_1609,MusicAffectPsychophysiology2019,3.0.5,60.08395904253013,
To what extent did the music make you feel ,ASHAMED,30MonoWAV/30MonoS2.wav,1,1,3,10,,,,,0,0,0,9,0,5,5,4,,,,,,,,,1,4.734659296002064,,,064,001,2019_May_27_1609,MusicAffectPsychophysiology2019,3.0.5,60.08395904253013,
To what extent did the music make you feel ,SCARED,30MonoWAV/30MonoS2.wav,1,1,3,10,,,,,0,0,0,9,0,6,6,11,,,,,,,,,2,2.8345905219975975,,,064,001,2019_May_27_1609,MusicAffectPsychophysiology2019,3.0.5,60.08395904253013,
To what extent did the music make you feel ,FRUSTRATED,30MonoWAV/30MonoS2.wav,1,1,3,10,,,,,0,0,0,9,0,7,7,3,,,,,,,,,1,3.483555434999289,,,064,001,2019_May_27_1609,MusicAffectPsychophysiology2019,3.0.5,60.08395904253013,
To what extent did the music make you feel ,ALERT,30MonoWAV/30MonoS2.wav,1,1,3,10,,,,,0,0,0,9,0,8,8,8,,,,,,,,,1,4.016756604003604,,,064,001,2019_May_27_1609,MusicAffectPsychophysiology2019,3.0.5,60.08395904253013,
To what extent did the music make you feel ,ANGRY,30MonoWAV/30MonoS2.wav,1,1,3,10,,,,,0,0,0,9,0,9,9,2,,,,,,,,,1,1.6012681020001764,,,064,001,2019_May_27_1609,MusicAffectPsychophysiology2019,3.0.5,60.08395904253013,
To what extent did the music make you feel ,EXCITED,30MonoWAV/30MonoS2.wav,1,1,3,10,,,,,0,0,0,9,0,10,10,7,,,,,,,,,1,2.234496078999655,,,064,001,2019_May_27_1609,MusicAffectPsychophysiology2019,3.0.5,60.08395904253013,
To what extent did the music make you feel ,TENDER,30MonoWAV/30MonoS2.wav,1,1,3,10,,,,,0,0,0,9,0,11,11,10,,,,,,,,,2,4.8012298210014706,,,064,001,2019_May_27_1609,MusicAffectPsychophysiology2019,3.0.5,60.08395904253013,
,,30MonoWAV/30MonoS2.wav,1,1,3,10,,,,,0,0,0,9,,,,,,,,,,,,,,,,,064,001,2019_May_27_1609,MusicAffectPsychophysiology2019,3.0.5,60.08395904253013,
To what extent did the music make you feel ,EXCITED,30MonoWAV/30MonoT4.wav,2,1,4,16,,,,,0,1,1,15,0,0,0,7,,,3,4.635004997006035,4,3.717588886000158,2,4.6352127919963095,4,7.834634394996101,,,064,001,2019_May_27_1609,MusicAffectPsychophysiology2019,3.0.5,60.08395904253013,
To what extent did the music make you feel ,FRUSTRATED,30MonoWAV/30MonoT4.wav,2,1,4,16,,,,,0,1,1,15,0,1,1,3,,,,,,,,,1,4.183972667000489,,,064,001,2019_May_27_1609,MusicAffectPsychophysiology2019,3.0.5,60.08395904253013,
To what extent did the music make you feel ,HAPPY,30MonoWAV/30MonoT4.wav,2,1,4,16,,,,,0,1,1,15,0,2,2,6,,,,,,,,,3,2.201274418999674,,,064,001,2019_May_27_1609,MusicAffectPsychophysiology2019,3.0.5,60.08395904253013,
To what extent did the music make you feel ,ASHAMED,30MonoWAV/30MonoT4.wav,2,1,4,16,,,,,0,1,1,15,0,3,3,4,,,,,,,,,1,1.76666021499841,,,064,001,2019_May_27_1609,MusicAffectPsychophysiology2019,3.0.5,60.08395904253013,
To what extent did the music make you feel ,ANGRY,30MonoWAV/30MonoT4.wav,2,1,4,16,,,,,0,1,1,15,0,4,4,2,,,,,,,,,1,1.6178845660033403,,,064,001,2019_May_27_1609,MusicAffectPsychophysiology2019,3.0.5,60.08395904253013,
To what extent did the music make you feel ,ACTIVE,30MonoWAV/30MonoT4.wav,2,1,4,16,,,,,0,1,1,15,0,5,5,9,,,,,,,,,4,5.534994059999008,,,064,001,2019_May_27_1609,MusicAffectPsychophysiology2019,3.0.5,60.08395904253013,
To what extent did the music make you feel ,ALERT,30MonoWAV/30MonoT4.wav,2,1,4,16,,,,,0,1,1,15,0,6,6,8,,,,,,,,,3,3.534733858999971,,,064,001,2019_May_27_1609,MusicAffectPsychophysiology2019,3.0.5,60.08395904253013,
To what extent did the music make you feel ,ANXIOUS ,30MonoWAV/30MonoT4.wav,2,1,4,16,,,,,0,1,1,15,0,7,7,1,,,,,,,,,1,1.4847108879985171,,,064,001,2019_May_27_1609,MusicAffectPsychophysiology2019,3.0.5,60.08395904253013,
To what extent did the music make you feel ,TENDER,30MonoWAV/30MonoT4.wav,2,1,4,16,,,,,0,1,1,15,0,8,8,10,,,,,,,,,3,5.717723128000216,,,064,001,2019_May_27_1609,MusicAffectPsychophysiology2019,3.0.5,60.08395904253013,
To what extent did the music make you feel ,SAD,30MonoWAV/30MonoT4.wav,2,1,4,16,,,,,0,1,1,15,0,9,9,0,,,,,,,,,1,5.100608364002255,,,064,001,2019_May_27_1609,MusicAffectPsychophysiology2019,3.0.5,60.08395904253013,
To what extent did the music make you feel ,GUILTY,30MonoWAV/30MonoT4.wav,2,1,4,16,,,,,0,1,1,15,0,10,10,5,,,,,,,,,1,0.7018599340008222,,,064,001,2019_May_27_1609,MusicAffectPsychophysiology2019,3.0.5,60.08395904253013,
To what extent did the music make you feel ,SCARED,30MonoWAV/30MonoT4.wav,2,1,4,16,,,,,0,1,1,15,0,11,11,11,,,,,,,,,1,0.8667269130019122,,,064,001,2019_May_27_1609,MusicAffectPsychophysiology2019,3.0.5,60.08395904253013,
,,30MonoWAV/30MonoT4.wav,2,1,4,16,,,,,0,1,1,15,,,,,,,,,,,,,,,,,064,001,2019_May_27_1609,MusicAffectPsychophysiology2019,3.0.5,60.08395904253013,
To what extent did the music make you feel ,EXCITED,30MonoWAV/30MonoF4.wav,1,2,2,4,,,,,0,2,2,3,0,0,0,7,,,4,8.667978878998838,1,3.4681548610024038,1,3.1011785299997428,1,3.96820062900224,,,064,001,2019_May_27_1609,MusicAffectPsychophysiology2019,3.0.5,60.08395904253013,
To what extent did the music make you feel ,SAD,30MonoWAV/30MonoF4.wav,1,2,2,4,,,,,0,2,2,3,0,1,1,0,,,,,,,,,2,1.9512575830012793,,,064,001,2019_May_27_1609,MusicAffectPsychophysiology2019,3.0.5,60.08395904253013,
To what extent did the music make you feel ,HAPPY,30MonoWAV/30MonoF4.wav,1,2,2,4,,,,,0,2,2,3,0,2,2,6,,,,,,,,,1,2.1514827630016953,,,064,001,2019_May_27_1609,MusicAffectPsychophysiology2019,3.0.5,60.08395904253013,
To what extent did the music make you feel ,ALERT,30MonoWAV/30MonoF4.wav,1,2,2,4,,,,,0,2,2,3,0,3,3,8,,,,,,,,,4,3.2190135690034367,,,064,001,2019_May_27_1609,MusicAffectPsychophysiology2019,3.0.5,60.08395904253013,
To what extent did the music make you feel ,ANGRY,30MonoWAV/30MonoF4.wav,1,2,2,4,,,,,0,2,2,3,0,4,4,2,,,,,,,,,1,2.433885633996397,,,064,001,2019_May_27_1609,MusicAffectPsychophysiology2019,3.0.5,60.08395904253013,
To what extent did the music make you feel ,SCARED,30MonoWAV/30MonoF4.wav,1,2,2,4,,,,,0,2,2,3,0,5,5,11,,,,,,,,,4,3.7338011220053886,,,064,001,2019_May_27_1609,MusicAffectPsychophysiology2019,3.0.5,60.08395904253013,
To what extent did the music make you feel ,ASHAMED,30MonoWAV/30MonoF4.wav,1,2,2,4,,,,,0,2,2,3,0,6,6,4,,,,,,,,,2,2.2020396829975653,,,064,001,2019_May_27_1609,MusicAffectPsychophysiology2019,3.0.5,60.08395904253013,
To what extent did the music make you feel ,ANXIOUS ,30MonoWAV/30MonoF4.wav,1,2,2,4,,,,,0,2,2,3,0,7,7,1,,,,,,,,,5,4.501063538999006,,,064,001,2019_May_27_1609,MusicAffectPsychophysiology2019,3.0.5,60.08395904253013,
To what extent did the music make you feel ,TENDER,30MonoWAV/30MonoF4.wav,1,2,2,4,,,,,0,2,2,3,0,8,8,10,,,,,,,,,1,2.5015417100003106,,,064,001,2019_May_27_1609,MusicAffectPsychophysiology2019,3.0.5,60.08395904253013,
To what extent did the music make you feel ,GUILTY,30MonoWAV/30MonoF4.wav,1,2,2,4,,,,,0,2,2,3,0,9,9,5,,,,,,,,,2,1.851783678001084,,,064,001,2019_May_27_1609,MusicAffectPsychophysiology2019,3.0.5,60.08395904253013,
To what extent did the music make you feel ,FRUSTRATED,30MonoWAV/30MonoF4.wav,1,2,2,4,,,,,0,2,2,3,0,10,10,3,,,,,,,,,1,1.1688846990000457,,,064,001,2019_May_27_1609,MusicAffectPsychophysiology2019,3.0.5,60.08395904253013,
To what extent did the music make you feel ,ACTIVE,30MonoWAV/30MonoF4.wav,1,2,2,4,,,,,0,2,2,3,0,11,11,9,,,,,,,,,3,4.066657919000136,,,064,001,2019_May_27_1609,MusicAffectPsychophysiology2019,3.0.5,60.08395904253013,
,,30MonoWAV/30MonoF4.wav,1,2,2,4,,,,,0,2,2,3,,,,,,,,,,,,,,,,,064,001,2019_May_27_1609,MusicAffectPsychophysiology2019,3.0.5,60.08395904253013,
To what extent did the music make you feel ,GUILTY,30MonoWAV/30MonoF2.wav,1,2,2,2,,,,,0,3,3,1,0,0,0,5,,,3,4.96788017200015,1,1.9686488599982113,1,1.434527583005547,1,3.2013769440018223,,,064,001,2019_May_27_1609,MusicAffectPsychophysiology2019,3.0.5,60.08395904253013,
To what extent did the music make you feel ,TENDER,30MonoWAV/30MonoF2.wav,1,2,2,2,,,,,0,3,3,1,0,1,1,10,,,,,,,,,1,0.7677194110001437,,,064,001,2019_May_27_1609,MusicAffectPsychophysiology2019,3.0.5,60.08395904253013,
To what extent did the music make you feel ,ASHAMED,30MonoWAV/30MonoF2.wav,1,2,2,2,,,,,0,3,3,1,0,2,2,4,,,,,,,,,1,3.033489898996777,,,064,001,2019_May_27_1609,MusicAffectPsychophysiology2019,3.0.5,60.08395904253013,
To what extent did the music make you feel ,SAD,30MonoWAV/30MonoF2.wav,1,2,2,2,,,,,0,3,3,1,0,3,3,0,,,,,,,,,3,2.635611208002956,,,064,001,2019_May_27_1609,MusicAffectPsychophysiology2019,3.0.5,60.08395904253013,
To what extent did the music make you feel ,FRUSTRATED,30MonoWAV/30MonoF2.wav,1,2,2,2,,,,,0,3,3,1,0,4,4,3,,,,,,,,,3,4.185399237998354,,,064,001,2019_May_27_1609,MusicAffectPsychophysiology2019,3.0.5,60.08395904253013,
To what extent did the music make you feel ,ANXIOUS ,30MonoWAV/30MonoF2.wav,1,2,2,2,,,,,0,3,3,1,0,5,5,1,,,,,,,,,5,3.4014073539947276,,,064,001,2019_May_27_1609,MusicAffectPsychophysiology2019,3.0.5,60.08395904253013,
To what extent did the music make you feel ,SCARED,30MonoWAV/30MonoF2.wav,1,2,2,2,,,,,0,3,3,1,0,6,6,11,,,,,,,,,4,1.7350509930038243,,,064,001,2019_May_27_1609,MusicAffectPsychophysiology2019,3.0.5,60.08395904253013,
To what extent did the music make you feel ,HAPPY,30MonoWAV/30MonoF2.wav,1,2,2,2,,,,,0,3,3,1,0,7,7,6,,,,,,,,,1,1.9178010199975688,,,064,001,2019_May_27_1609,MusicAffectPsychophysiology2019,3.0.5,60.08395904253013,
To what extent did the music make you feel ,ALERT,30MonoWAV/30MonoF2.wav,1,2,2,2,,,,,0,3,3,1,0,8,8,8,,,,,,,,,4,2.718749144994945,,,064,001,2019_May_27_1609,MusicAffectPsychophysiology2019,3.0.5,60.08395904253013,
To what extent did the music make you feel ,ANGRY,30MonoWAV/30MonoF2.wav,1,2,2,2,,,,,0,3,3,1,0,9,9,2,,,,,,,,,1,1.3835293439988163,,,064,001,2019_May_27_1609,MusicAffectPsychophysiology2019,3.0.5,60.08395904253013,
To what extent did the music make you feel ,ACTIVE,30MonoWAV/30MonoF2.wav,1,2,2,2,,,,,0,3,3,1,0,10,10,9,,,,,,,,,3,2.0665503120035282,,,064,001,2019_May_27_1609,MusicAffectPsychophysiology2019,3.0.5,60.08395904253013,
To what extent did the music make you feel ,EXCITED,30MonoWAV/30MonoF2.wav,1,2,2,2,,,,,0,3,3,1,0,11,11,7,,,,,,,,,1,3.151083208002092,,,064,001,2019_May_27_1609,MusicAffectPsychophysiology2019,3.0.5,60.08395904253013,
,,30MonoWAV/30MonoF2.wav,1,2,2,2,,,,,0,3,3,1,,,,,,,,,,,,,,,,,064,001,2019_May_27_1609,MusicAffectPsychophysiology2019,3.0.5,60.08395904253013,
To what extent did the music make you feel ,SCARED,30MonoWAV/30MonoH2.wav,2,2,1,6,,,,,0,4,4,5,0,0,0,11,,,4,4.5857958350025,4,4.2513580759987235,3,2.768676471001527,1,3.051510535995476,,,064,001,2019_May_27_1609,MusicAffectPsychophysiology2019,3.0.5,60.08395904253013,
To what extent did the music make you feel ,ANXIOUS ,30MonoWAV/30MonoH2.wav,2,2,1,6,,,,,0,4,4,5,0,1,1,1,,,,,,,,,1,1.5854708089973428,,,064,001,2019_May_27_1609,MusicAffectPsychophysiology2019,3.0.5,60.08395904253013,
To what extent did the music make you feel ,ACTIVE,30MonoWAV/30MonoH2.wav,2,2,1,6,,,,,0,4,4,5,0,2,2,9,,,,,,,,,3,3.250999182004307,,,064,001,2019_May_27_1609,MusicAffectPsychophysiology2019,3.0.5,60.08395904253013,
To what extent did the music make you feel ,GUILTY,30MonoWAV/30MonoH2.wav,2,2,1,6,,,,,0,4,4,5,0,3,3,5,,,,,,,,,1,2.135359108004195,,,064,001,2019_May_27_1609,MusicAffectPsychophysiology2019,3.0.5,60.08395904253013,
To what extent did the music make you feel ,ALERT,30MonoWAV/30MonoH2.wav,2,2,1,6,,,,,0,4,4,5,0,4,4,8,,,,,,,,,4,3.450929966995318,,,064,001,2019_May_27_1609,MusicAffectPsychophysiology2019,3.0.5,60.08395904253013,
To what extent did the music make you feel ,ANGRY,30MonoWAV/30MonoH2.wav,2,2,1,6,,,,,0,4,4,5,0,5,5,2,,,,,,,,,1,1.8315711929972167,,,064,001,2019_May_27_1609,MusicAffectPsychophysiology2019,3.0.5,60.08395904253013,
To what extent did the music make you feel ,EXCITED,30MonoWAV/30MonoH2.wav,2,2,1,6,,,,,0,4,4,5,0,6,6,7,,,,,,,,,3,3.286176952999085,,,064,001,2019_May_27_1609,MusicAffectPsychophysiology2019,3.0.5,60.08395904253013,
To what extent did the music make you feel ,TENDER,30MonoWAV/30MonoH2.wav,2,2,1,6,,,,,0,4,4,5,0,7,7,10,,,,,,,,,4,2.107014604000142,,,064,001,2019_May_27_1609,MusicAffectPsychophysiology2019,3.0.5,60.08395904253013,
To what extent did the music make you feel ,SAD,30MonoWAV/30MonoH2.wav,2,2,1,6,,,,,0,4,4,5,0,8,8,0,,,,,,,,,1,2.8214363160004723,,,064,001,2019_May_27_1609,MusicAffectPsychophysiology2019,3.0.5,60.08395904253013,
To what extent did the music make you feel ,FRUSTRATED,30MonoWAV/30MonoH2.wav,2,2,1,6,,,,,0,4,4,5,0,9,9,3,,,,,,,,,1,0.8859871460008435,,,064,001,2019_May_27_1609,MusicAffectPsychophysiology2019,3.0.5,60.08395904253013,
To what extent did the music make you feel ,HAPPY,30MonoWAV/30MonoH2.wav,2,2,1,6,,,,,0,4,4,5,0,10,10,6,,,,,,,,,3,3.0068160599985276,,,064,001,2019_May_27_1609,MusicAffectPsychophysiology2019,3.0.5,60.08395904253013,
To what extent did the music make you feel ,ASHAMED,30MonoWAV/30MonoH2.wav,2,2,1,6,,,,,0,4,4,5,0,11,11,4,,,,,,,,,1,1.4021029720024671,,,064,001,2019_May_27_1609,MusicAffectPsychophysiology2019,3.0.5,60.08395904253013,
,,30MonoWAV/30MonoH2.wav,2,2,1,6,,,,,0,4,4,5,,,,,,,,,,,,,,,,,064,001,2019_May_27_1609,MusicAffectPsychophysiology2019,3.0.5,60.08395904253013,
To what extent did the music make you feel ,EXCITED,30MonoWAV/30MonoH4.wav,2,2,1,8,,,,,0,5,5,7,0,0,0,7,,,4,3.3523191429994768,4,2.1846093220010516,4,3.584405413996137,4,4.303028440997878,,,064,001,2019_May_27_1609,MusicAffectPsychophysiology2019,3.0.5,60.08395904253013,
To what extent did the music make you feel ,ALERT,30MonoWAV/30MonoH4.wav,2,2,1,8,,,,,0,5,5,7,0,1,1,8,,,,,,,,,3,1.4012618400010979,,,064,001,2019_May_27_1609,MusicAffectPsychophysiology2019,3.0.5,60.08395904253013,
To what extent did the music make you feel ,FRUSTRATED,30MonoWAV/30MonoH4.wav,2,2,1,8,,,,,0,5,5,7,0,2,2,3,,,,,,,,,1,1.852284963002603,,,064,001,2019_May_27_1609,MusicAffectPsychophysiology2019,3.0.5,60.08395904253013,
To what extent did the music make you feel ,ANXIOUS ,30MonoWAV/30MonoH4.wav,2,2,1,8,,,,,0,5,5,7,0,3,3,1,,,,,,,,,1,1.368570575999911,,,064,001,2019_May_27_1609,MusicAffectPsychophysiology2019,3.0.5,60.08395904253013,
To what extent did the music make you feel ,HAPPY,30MonoWAV/30MonoH4.wav,2,2,1,8,,,,,0,5,5,7,0,4,4,6,,,,,,,,,4,3.8013007270055823,,,064,001,2019_May_27_1609,MusicAffectPsychophysiology2019,3.0.5,60.08395904253013,
To what extent did the music make you feel ,ANGRY,30MonoWAV/30MonoH4.wav,2,2,1,8,,,,,0,5,5,7,0,5,5,2,,,,,,,,,1,1.168424543000583,,,064,001,2019_May_27_1609,MusicAffectPsychophysiology2019,3.0.5,60.08395904253013,
To what extent did the music make you feel ,TENDER,30MonoWAV/30MonoH4.wav,2,2,1,8,,,,,0,5,5,7,0,6,6,10,,,,,,,,,3,2.0841730659958557,,,064,001,2019_May_27_1609,MusicAffectPsychophysiology2019,3.0.5,60.08395904253013,
To what extent did the music make you feel ,GUILTY,30MonoWAV/30MonoH4.wav,2,2,1,8,,,,,0,5,5,7,0,7,7,5,,,,,,,,,1,1.6017944000050193,,,064,001,2019_May_27_1609,MusicAffectPsychophysiology2019,3.0.5,60.08395904253013,
To what extent did the music make you feel ,ACTIVE,30MonoWAV/30MonoH4.wav,2,2,1,8,,,,,0,5,5,7,0,8,8,9,,,,,,,,,4,1.9066650380045758,,,064,001,2019_May_27_1609,MusicAffectPsychophysiology2019,3.0.5,60.08395904253013,
To what extent did the music make you feel ,SCARED,30MonoWAV/30MonoH4.wav,2,2,1,8,,,,,0,5,5,7,0,9,9,11,,,,,,,,,1,1.670540439998149,,,064,001,2019_May_27_1609,MusicAffectPsychophysiology2019,3.0.5,60.08395904253013,
To what extent did the music make you feel ,SAD,30MonoWAV/30MonoH4.wav,2,2,1,8,,,,,0,5,5,7,0,10,10,0,,,,,,,,,1,2.171343310001248,,,064,001,2019_May_27_1609,MusicAffectPsychophysiology2019,3.0.5,60.08395904253013,
To what extent did the music make you feel ,ASHAMED,30MonoWAV/30MonoH4.wav,2,2,1,8,,,,,0,5,5,7,0,11,11,4,,,,,,,,,1,1.8019831609999528,,,064,001,2019_May_27_1609,MusicAffectPsychophysiology2019,3.0.5,60.08395904253013,
,,30MonoWAV/30MonoH4.wav,2,2,1,8,,,,,0,5,5,7,,,,,,,,,,,,,,,,,064,001,2019_May_27_1609,MusicAffectPsychophysiology2019,3.0.5,60.08395904253013,
To what extent did the music make you feel ,ASHAMED,30MonoWAV/30MonoH1.wav,2,2,1,5,,,,,0,6,6,4,0,0,0,4,,,3,3.00331183399976,4,3.4681326759964577,3,3.0829709919999004,1,2.7356485909986077,,,064,001,2019_May_27_1609,MusicAffectPsychophysiology2019,3.0.5,60.08395904253013,
To what extent did the music make you feel ,ANGRY,30MonoWAV/30MonoH1.wav,2,2,1,5,,,,,0,6,6,4,0,1,1,2,,,,,,,,,1,1.0518587629994727,,,064,001,2019_May_27_1609,MusicAffectPsychophysiology2019,3.0.5,60.08395904253013,
To what extent did the music make you feel ,HAPPY,30MonoWAV/30MonoH1.wav,2,2,1,5,,,,,0,6,6,4,0,2,2,6,,,,,,,,,3,1.9515968940031598,,,064,001,2019_May_27_1609,MusicAffectPsychophysiology2019,3.0.5,60.08395904253013,
To what extent did the music make you feel ,ALERT,30MonoWAV/30MonoH1.wav,2,2,1,5,,,,,0,6,6,4,0,3,3,8,,,,,,,,,3,2.418040076001489,,,064,001,2019_May_27_1609,MusicAffectPsychophysiology2019,3.0.5,60.08395904253013,
To what extent did the music make you feel ,ANXIOUS ,30MonoWAV/30MonoH1.wav,2,2,1,5,,,,,0,6,6,4,0,4,4,1,,,,,,,,,2,5.634258717000193,,,064,001,2019_May_27_1609,MusicAffectPsychophysiology2019,3.0.5,60.08395904253013,
To what extent did the music make you feel ,FRUSTRATED,30MonoWAV/30MonoH1.wav,2,2,1,5,,,,,0,6,6,4,0,5,5,3,,,,,,,,,1,0.9341233300001477,,,064,001,2019_May_27_1609,MusicAffectPsychophysiology2019,3.0.5,60.08395904253013,
To what extent did the music make you feel ,SAD,30MonoWAV/30MonoH1.wav,2,2,1,5,,,,,0,6,6,4,0,6,6,0,,,,,,,,,1,1.7499854940033401,,,064,001,2019_May_27_1609,MusicAffectPsychophysiology2019,3.0.5,60.08395904253013,
To what extent did the music make you feel ,GUILTY,30MonoWAV/30MonoH1.wav,2,2,1,5,,,,,0,6,6,4,0,7,7,5,,,,,,,,,1,1.485499661997892,,,064,001,2019_May_27_1609,MusicAffectPsychophysiology2019,3.0.5,60.08395904253013,
To what extent did the music make you feel ,EXCITED,30MonoWAV/30MonoH1.wav,2,2,1,5,,,,,0,6,6,4,0,8,8,7,,,,,,,,,3,3.96727323000232,,,064,001,2019_May_27_1609,MusicAffectPsychophysiology2019,3.0.5,60.08395904253013,
To what extent did the music make you feel ,TENDER,30MonoWAV/30MonoH1.wav,2,2,1,5,,,,,0,6,6,4,0,9,9,10,,,,,,,,,1,2.75176872999873,,,064,001,2019_May_27_1609,MusicAffectPsychophysiology2019,3.0.5,60.08395904253013,
To what extent did the music make you feel ,ACTIVE,30MonoWAV/30MonoH1.wav,2,2,1,5,,,,,0,6,6,4,0,10,10,9,,,,,,,,,4,2.9012143279978773,,,064,001,2019_May_27_1609,MusicAffectPsychophysiology2019,3.0.5,60.08395904253013,
To what extent did the music make you feel ,SCARED,30MonoWAV/30MonoH1.wav,2,2,1,5,,,,,0,6,6,4,0,11,11,11,,,,,,,,,1,1.9030081890014117,,,064,001,2019_May_27_1609,MusicAffectPsychophysiology2019,3.0.5,60.08395904253013,
,,30MonoWAV/30MonoH1.wav,2,2,1,5,,,,,0,6,6,4,,,,,,,,,,,,,,,,,064,001,2019_May_27_1609,MusicAffectPsychophysiology2019,3.0.5,60.08395904253013,
To what extent did the music make you feel ,ALERT,30MonoWAV/30MonoF3.wav,1,2,2,3,,,,,0,7,7,2,0,0,0,8,,,2,3.700699191998865,1,4.751596395006345,3,4.485075386997778,4,4.4180406169980415,,,064,001,2019_May_27_1609,MusicAffectPsychophysiology2019,3.0.5,60.08395904253013,
To what extent did the music make you feel ,HAPPY,30MonoWAV/30MonoF3.wav,1,2,2,3,,,,,0,7,7,2,0,1,1,6,,,,,,,,,1,3.884702055998787,,,064,001,2019_May_27_1609,MusicAffectPsychophysiology2019,3.0.5,60.08395904253013,
To what extent did the music make you feel ,ASHAMED,30MonoWAV/30MonoF3.wav,1,2,2,3,,,,,0,7,7,2,0,2,2,4,,,,,,,,,1,2.468575079998118,,,064,001,2019_May_27_1609,MusicAffectPsychophysiology2019,3.0.5,60.08395904253013,
To what extent did the music make you feel ,EXCITED,30MonoWAV/30MonoF3.wav,1,2,2,3,,,,,0,7,7,2,0,3,3,7,,,,,,,,,1,2.0028831569943577,,,064,001,2019_May_27_1609,MusicAffectPsychophysiology2019,3.0.5,60.08395904253013,
To what extent did the music make you feel ,SAD,30MonoWAV/30MonoF3.wav,1,2,2,3,,,,,0,7,7,2,0,4,4,0,,,,,,,,,2,1.6349775659982697,,,064,001,2019_May_27_1609,MusicAffectPsychophysiology2019,3.0.5,60.08395904253013,
To what extent did the music make you feel ,GUILTY,30MonoWAV/30MonoF3.wav,1,2,2,3,,,,,0,7,7,2,0,5,5,5,,,,,,,,,3,4.082270576996962,,,064,001,2019_May_27_1609,MusicAffectPsychophysiology2019,3.0.5,60.08395904253013,
To what extent did the music make you feel ,TENDER,30MonoWAV/30MonoF3.wav,1,2,2,3,,,,,0,7,7,2,0,6,6,10,,,,,,,,,1,1.650823229996604,,,064,001,2019_May_27_1609,MusicAffectPsychophysiology2019,3.0.5,60.08395904253013,
To what extent did the music make you feel ,FRUSTRATED,30MonoWAV/30MonoF3.wav,1,2,2,3,,,,,0,7,7,2,0,7,7,3,,,,,,,,,2,2.4676449640028295,,,064,001,2019_May_27_1609,MusicAffectPsychophysiology2019,3.0.5,60.08395904253013,
To what extent did the music make you feel ,SCARED,30MonoWAV/30MonoF3.wav,1,2,2,3,,,,,0,7,7,2,0,8,8,11,,,,,,,,,3,1.9174374399954104,,,064,001,2019_May_27_1609,MusicAffectPsychophysiology2019,3.0.5,60.08395904253013,
To what extent did the music make you feel ,ANGRY,30MonoWAV/30MonoF3.wav,1,2,2,3,,,,,0,7,7,2,0,9,9,2,,,,,,,,,1,1.318272850003268,,,064,001,2019_May_27_1609,MusicAffectPsychophysiology2019,3.0.5,60.08395904253013,
To what extent did the music make you feel ,ACTIVE,30MonoWAV/30MonoF3.wav,1,2,2,3,,,,,0,7,7,2,0,10,10,9,,,,,,,,,2,4.182538615998055,,,064,001,2019_May_27_1609,MusicAffectPsychophysiology2019,3.0.5,60.08395904253013,
To what extent did the music make you feel ,ANXIOUS ,30MonoWAV/30MonoF3.wav,1,2,2,3,,,,,0,7,7,2,0,11,11,1,,,,,,,,,3,3.9345910030024243,,,064,001,2019_May_27_1609,MusicAffectPsychophysiology2019,3.0.5,60.08395904253013,
,,30MonoWAV/30MonoF3.wav,1,2,2,3,,,,,0,7,7,2,,,,,,,,,,,,,,,,,064,001,2019_May_27_1609,MusicAffectPsychophysiology2019,3.0.5,60.08395904253013,
To what extent did the music make you feel ,FRUSTRATED,30MonoWAV/30MonoS3.wav,1,1,3,11,,,,,0,8,8,10,0,0,0,3,,,1,7.219392910999886,1,2.0021699110002373,1,2.5674702239994076,2,6.034446639001544,,,064,001,2019_May_27_1609,MusicAffectPsychophysiology2019,3.0.5,60.08395904253013,
To what extent did the music make you feel ,HAPPY,30MonoWAV/30MonoS3.wav,1,1,3,11,,,,,0,8,8,10,0,1,1,6,,,,,,,,,1,1.9679245419974905,,,064,001,2019_May_27_1609,MusicAffectPsychophysiology2019,3.0.5,60.08395904253013,
To what extent did the music make you feel ,ANXIOUS ,30MonoWAV/30MonoS3.wav,1,1,3,11,,,,,0,8,8,10,0,2,2,1,,,,,,,,,3,2.1343376570002874,,,064,001,2019_May_27_1609,MusicAffectPsychophysiology2019,3.0.5,60.08395904253013,
To what extent did the music make you feel ,ALERT,30MonoWAV/30MonoS3.wav,1,1,3,11,,,,,0,8,8,10,0,3,3,8,,,,,,,,,1,3.835366323000926,,,064,001,2019_May_27_1609,MusicAffectPsychophysiology2019,3.0.5,60.08395904253013,
To what extent did the music make you feel ,SAD,30MonoWAV/30MonoS3.wav,1,1,3,11,,,,,0,8,8,10,0,4,4,0,,,,,,,,,2,1.2023188849998405,,,064,001,2019_May_27_1609,MusicAffectPsychophysiology2019,3.0.5,60.08395904253013,
To what extent did the music make you feel ,EXCITED,30MonoWAV/30MonoS3.wav,1,1,3,11,,,,,0,8,8,10,0,5,5,7,,,,,,,,,1,1.8843673640003544,,,064,001,2019_May_27_1609,MusicAffectPsychophysiology2019,3.0.5,60.08395904253013,
To what extent did the music make you feel ,GUILTY,30MonoWAV/30MonoS3.wav,1,1,3,11,,,,,0,8,8,10,0,6,6,5,,,,,,,,,1,4.901739794993773,,,064,001,2019_May_27_1609,MusicAffectPsychophysiology2019,3.0.5,60.08395904253013,
To what extent did the music make you feel ,SCARED,30MonoWAV/30MonoS3.wav,1,1,3,11,,,,,0,8,8,10,0,7,7,11,,,,,,,,,2,2.3337121209988254,,,064,001,2019_May_27_1609,MusicAffectPsychophysiology2019,3.0.5,60.08395904253013,
To what extent did the music make you feel ,ANGRY,30MonoWAV/30MonoS3.wav,1,1,3,11,,,,,0,8,8,10,0,8,8,2,,,,,,,,,1,1.2684819269998115,,,064,001,2019_May_27_1609,MusicAffectPsychophysiology2019,3.0.5,60.08395904253013,
To what extent did the music make you feel ,ACTIVE,30MonoWAV/30MonoS3.wav,1,1,3,11,,,,,0,8,8,10,0,9,9,9,,,,,,,,,1,4.485214910004288,,,064,001,2019_May_27_1609,MusicAffectPsychophysiology2019,3.0.5,60.08395904253013,
To what extent did the music make you feel ,TENDER,30MonoWAV/30MonoS3.wav,1,1,3,11,,,,,0,8,8,10,0,10,10,10,,,,,,,,,1,1.1184162249992369,,,064,001,2019_May_27_1609,MusicAffectPsychophysiology2019,3.0.5,60.08395904253013,
To what extent did the music make you feel ,ASHAMED,30MonoWAV/30MonoS3.wav,1,1,3,11,,,,,0,8,8,10,0,11,11,4,,,,,,,,,1,1.867270508002548,,,064,001,2019_May_27_1609,MusicAffectPsychophysiology2019,3.0.5,60.08395904253013,
,,30MonoWAV/30MonoS3.wav,1,1,3,11,,,,,0,8,8,10,,,,,,,,,,,,,,,,,064,001,2019_May_27_1609,MusicAffectPsychophysiology2019,3.0.5,60.08395904253013,
To what extent did the music make you feel ,EXCITED,30MonoWAV/30MonoS4.wav,1,1,3,12,,,,,0,9,9,11,0,0,0,7,,,2,5.617746520001674,2,3.0675528299980215,4,2.3674776979969465,1,2.0849286089942325,,,064,001,2019_May_27_1609,MusicAffectPsychophysiology2019,3.0.5,60.08395904253013,
To what extent did the music make you feel ,ALERT,30MonoWAV/30MonoS4.wav,1,1,3,12,,,,,0,9,9,11,0,1,1,8,,,,,,,,,2,2.967221074999543,,,064,001,2019_May_27_1609,MusicAffectPsychophysiology2019,3.0.5,60.08395904253013,
To what extent did the music make you feel ,SCARED,30MonoWAV/30MonoS4.wav,1,1,3,12,,,,,0,9,9,11,0,2,2,11,,,,,,,,,1,4.8176679629978025,,,064,001,2019_May_27_1609,MusicAffectPsychophysiology2019,3.0.5,60.08395904253013,
To what extent did the music make you feel ,ACTIVE,30MonoWAV/30MonoS4.wav,1,1,3,12,,,,,0,9,9,11,0,3,3,9,,,,,,,,,1,2.3517801400012104,,,064,001,2019_May_27_1609,MusicAffectPsychophysiology2019,3.0.5,60.08395904253013,
To what extent did the music make you feel ,ANGRY,30MonoWAV/30MonoS4.wav,1,1,3,12,,,,,0,9,9,11,0,4,4,2,,,,,,,,,1,3.551582102001703,,,064,001,2019_May_27_1609,MusicAffectPsychophysiology2019,3.0.5,60.08395904253013,
To what extent did the music make you feel ,TENDER,30MonoWAV/30MonoS4.wav,1,1,3,12,,,,,0,9,9,11,0,5,5,10,,,,,,,,,4,2.384797738006455,,,064,001,2019_May_27_1609,MusicAffectPsychophysiology2019,3.0.5,60.08395904253013,
To what extent did the music make you feel ,ASHAMED,30MonoWAV/30MonoS4.wav,1,1,3,12,,,,,0,9,9,11,0,6,6,4,,,,,,,,,1,1.2510854930005735,,,064,001,2019_May_27_1609,MusicAffectPsychophysiology2019,3.0.5,60.08395904253013,
To what extent did the music make you feel ,HAPPY,30MonoWAV/30MonoS4.wav,1,1,3,12,,,,,0,9,9,11,0,7,7,6,,,,,,,,,1,4.334619583001768,,,064,001,2019_May_27_1609,MusicAffectPsychophysiology2019,3.0.5,60.08395904253013,
To what extent did the music make you feel ,GUILTY,30MonoWAV/30MonoS4.wav,1,1,3,12,,,,,0,9,9,11,0,8,8,5,,,,,,,,,1,1.1178851970034884,,,064,001,2019_May_27_1609,MusicAffectPsychophysiology2019,3.0.5,60.08395904253013,
To what extent did the music make you feel ,SAD,30MonoWAV/30MonoS4.wav,1,1,3,12,,,,,0,9,9,11,0,9,9,0,,,,,,,,,4,2.7016556239977945,,,064,001,2019_May_27_1609,MusicAffectPsychophysiology2019,3.0.5,60.08395904253013,
To what extent did the music make you feel ,FRUSTRATED,30MonoWAV/30MonoS4.wav,1,1,3,12,,,,,0,9,9,11,0,10,10,3,,,,,,,,,1,1.6021177170041483,,,064,001,2019_May_27_1609,MusicAffectPsychophysiology2019,3.0.5,60.08395904253013,
To what extent did the music make you feel ,ANXIOUS ,30MonoWAV/30MonoS4.wav,1,1,3,12,,,,,0,9,9,11,0,11,11,1,,,,,,,,,1,1.7183060109964572,,,064,001,2019_May_27_1609,MusicAffectPsychophysiology2019,3.0.5,60.08395904253013,
,,30MonoWAV/30MonoS4.wav,1,1,3,12,,,,,0,9,9,11,,,,,,,,,,,,,,,,,064,001,2019_May_27_1609,MusicAffectPsychophysiology2019,3.0.5,60.08395904253013,
To what extent did the music make you feel ,EXCITED,30MonoWAV/30MonoF1.wav,1,2,2,1,,,,,0,10,10,0,0,0,0,7,,,3,4.652035694001825,1,2.2016678110012435,1,2.434393096002168,1,5.951309865005896,,,064,001,2019_May_27_1609,MusicAffectPsychophysiology2019,3.0.5,60.08395904253013,
To what extent did the music make you feel ,ACTIVE,30MonoWAV/30MonoF1.wav,1,2,2,1,,,,,0,10,10,0,0,1,1,9,,,,,,,,,4,2.6682151929999236,,,064,001,2019_May_27_1609,MusicAffectPsychophysiology2019,3.0.5,60.08395904253013,
To what extent did the music make you feel ,ANGRY,30MonoWAV/30MonoF1.wav,1,2,2,1,,,,,0,10,10,0,0,2,2,2,,,,,,,,,2,2.7023886300012236,,,064,001,2019_May_27_1609,MusicAffectPsychophysiology2019,3.0.5,60.08395904253013,
To what extent did the music make you feel ,TENDER,30MonoWAV/30MonoF1.wav,1,2,2,1,,,,,0,10,10,0,0,3,3,10,,,,,,,,,1,1.1682568949981942,,,064,001,2019_May_27_1609,MusicAffectPsychophysiology2019,3.0.5,60.08395904253013,
To what extent did the music make you feel ,ASHAMED,30MonoWAV/30MonoF1.wav,1,2,2,1,,,,,0,10,10,0,0,4,4,4,,,,,,,,,1,1.4847713179988205,,,064,001,2019_May_27_1609,MusicAffectPsychophysiology2019,3.0.5,60.08395904253013,
To what extent did the music make you feel ,ALERT,30MonoWAV/30MonoF1.wav,1,2,2,1,,,,,0,10,10,0,0,5,5,8,,,,,,,,,4,1.6182096959964838,,,064,001,2019_May_27_1609,MusicAffectPsychophysiology2019,3.0.5,60.08395904253013,
To what extent did the music make you feel ,ANXIOUS ,30MonoWAV/30MonoF1.wav,1,2,2,1,,,,,0,10,10,0,0,6,6,1,,,,,,,,,5,3.0832162239967147,,,064,001,2019_May_27_1609,MusicAffectPsychophysiology2019,3.0.5,60.08395904253013,
To what extent did the music make you feel ,SAD,30MonoWAV/30MonoF1.wav,1,2,2,1,,,,,0,10,10,0,0,7,7,0,,,,,,,,,2,3.8356054130053963,,,064,001,2019_May_27_1609,MusicAffectPsychophysiology2019,3.0.5,60.08395904253013,
To what extent did the music make you feel ,HAPPY,30MonoWAV/30MonoF1.wav,1,2,2,1,,,,,0,10,10,0,0,8,8,6,,,,,,,,,1,1.051160836002964,,,064,001,2019_May_27_1609,MusicAffectPsychophysiology2019,3.0.5,60.08395904253013,
To what extent did the music make you feel ,GUILTY,30MonoWAV/30MonoF1.wav,1,2,2,1,,,,,0,10,10,0,0,9,9,5,,,,,,,,,3,2.268741587999102,,,064,001,2019_May_27_1609,MusicAffectPsychophysiology2019,3.0.5,60.08395904253013,
To what extent did the music make you feel ,FRUSTRATED,30MonoWAV/30MonoF1.wav,1,2,2,1,,,,,0,10,10,0,0,10,10,3,,,,,,,,,3,2.001288694998948,,,064,001,2019_May_27_1609,MusicAffectPsychophysiology2019,3.0.5,60.08395904253013,
To what extent did the music make you feel ,SCARED,30MonoWAV/30MonoF1.wav,1,2,2,1,,,,,0,10,10,0,0,11,11,11,,,,,,,,,4,2.5181380540016107,,,064,001,2019_May_27_1609,MusicAffectPsychophysiology2019,3.0.5,60.08395904253013,
,,30MonoWAV/30MonoF1.wav,1,2,2,1,,,,,0,10,10,0,,,,,,,,,,,,,,,,,064,001,2019_May_27_1609,MusicAffectPsychophysiology2019,3.0.5,60.08395904253013,
To what extent did the music make you feel ,ALERT,30MonoWAV/30MonoT1.wav,2,1,4,13,,,,,0,11,11,12,0,0,0,8,,,1,4.400899458996719,3,5.100923122998211,3,1.8344939529997646,2,2.834656475002703,,,064,001,2019_May_27_1609,MusicAffectPsychophysiology2019,3.0.5,60.08395904253013,
To what extent did the music make you feel ,EXCITED,30MonoWAV/30MonoT1.wav,2,1,4,13,,,,,0,11,11,12,0,1,1,7,,,,,,,,,3,1.8850472479971359,,,064,001,2019_May_27_1609,MusicAffectPsychophysiology2019,3.0.5,60.08395904253013,
To what extent did the music make you feel ,HAPPY,30MonoWAV/30MonoT1.wav,2,1,4,13,,,,,0,11,11,12,0,2,2,6,,,,,,,,,3,1.1186391590017593,,,064,001,2019_May_27_1609,MusicAffectPsychophysiology2019,3.0.5,60.08395904253013,
To what extent did the music make you feel ,ASHAMED,30MonoWAV/30MonoT1.wav,2,1,4,13,,,,,0,11,11,12,0,3,3,4,,,,,,,,,1,1.0847816170062288,,,064,001,2019_May_27_1609,MusicAffectPsychophysiology2019,3.0.5,60.08395904253013,
To what extent did the music make you feel ,GUILTY,30MonoWAV/30MonoT1.wav,2,1,4,13,,,,,0,11,11,12,0,4,4,5,,,,,,,,,1,2.3014316449989565,,,064,001,2019_May_27_1609,MusicAffectPsychophysiology2019,3.0.5,60.08395904253013,
To what extent did the music make you feel ,SAD,30MonoWAV/30MonoT1.wav,2,1,4,13,,,,,0,11,11,12,0,5,5,0,,,,,,,,,2,1.5851819849995081,,,064,001,2019_May_27_1609,MusicAffectPsychophysiology2019,3.0.5,60.08395904253013,
To what extent did the music make you feel ,TENDER,30MonoWAV/30MonoT1.wav,2,1,4,13,,,,,0,11,11,12,0,6,6,10,,,,,,,,,4,3.2493516899994574,,,064,001,2019_May_27_1609,MusicAffectPsychophysiology2019,3.0.5,60.08395904253013,
To what extent did the music make you feel ,SCARED,30MonoWAV/30MonoT1.wav,2,1,4,13,,,,,0,11,11,12,0,7,7,11,,,,,,,,,1,1.2519503430012264,,,064,001,2019_May_27_1609,MusicAffectPsychophysiology2019,3.0.5,60.08395904253013,
To what extent did the music make you feel ,ANXIOUS ,30MonoWAV/30MonoT1.wav,2,1,4,13,,,,,0,11,11,12,0,8,8,1,,,,,,,,,1,1.4678150869949604,,,064,001,2019_May_27_1609,MusicAffectPsychophysiology2019,3.0.5,60.08395904253013,
To what extent did the music make you feel ,FRUSTRATED,30MonoWAV/30MonoT1.wav,2,1,4,13,,,,,0,11,11,12,0,9,9,3,,,,,,,,,1,0.8350752309997915,,,064,001,2019_May_27_1609,MusicAffectPsychophysiology2019,3.0.5,60.08395904253013,
To what extent did the music make you feel ,ANGRY,30MonoWAV/30MonoT1.wav,2,1,4,13,,,,,0,11,11,12,0,10,10,2,,,,,,,,,1,1.0860305620008148,,,064,001,2019_May_27_1609,MusicAffectPsychophysiology2019,3.0.5,60.08395904253013,
To what extent did the music make you feel ,ACTIVE,30MonoWAV/30MonoT1.wav,2,1,4,13,,,,,0,11,11,12,0,11,11,9,,,,,,,,,1,2.451946870001848,,,064,001,2019_May_27_1609,MusicAffectPsychophysiology2019,3.0.5,60.08395904253013,
,,30MonoWAV/30MonoT1.wav,2,1,4,13,,,,,0,11,11,12,,,,,,,,,,,,,,,,,064,001,2019_May_27_1609,MusicAffectPsychophysiology2019,3.0.5,60.08395904253013,
To what extent did the music make you feel ,ACTIVE,30MonoWAV/30MonoT3.wav,2,1,4,15,,,,,0,12,12,14,0,0,0,9,,,3,5.151642776996596,4,2.735442683006113,4,2.9840851849949104,3,5.2001537940013804,,,064,001,2019_May_27_1609,MusicAffectPsychophysiology2019,3.0.5,60.08395904253013,
To what extent did the music make you feel ,ANXIOUS ,30MonoWAV/30MonoT3.wav,2,1,4,15,,,,,0,12,12,14,0,1,1,1,,,,,,,,,1,1.468385220003256,,,064,001,2019_May_27_1609,MusicAffectPsychophysiology2019,3.0.5,60.08395904253013,
To what extent did the music make you feel ,EXCITED,30MonoWAV/30MonoT3.wav,2,1,4,15,,,,,0,12,12,14,0,2,2,7,,,,,,,,,2,4.868573398998706,,,064,001,2019_May_27_1609,MusicAffectPsychophysiology2019,3.0.5,60.08395904253013,
To what extent did the music make you feel ,SAD,30MonoWAV/30MonoT3.wav,2,1,4,15,,,,,0,12,12,14,0,3,3,0,,,,,,,,,1,1.9343103159990278,,,064,001,2019_May_27_1609,MusicAffectPsychophysiology2019,3.0.5,60.08395904253013,
To what extent did the music make you feel ,SCARED,30MonoWAV/30MonoT3.wav,2,1,4,15,,,,,0,12,12,14,0,4,4,11,,,,,,,,,1,1.000797988002887,,,064,001,2019_May_27_1609,MusicAffectPsychophysiology2019,3.0.5,60.08395904253013,
To what extent did the music make you feel ,HAPPY,30MonoWAV/30MonoT3.wav,2,1,4,15,,,,,0,12,12,14,0,5,5,6,,,,,,,,,4,2.4515061249985592,,,064,001,2019_May_27_1609,MusicAffectPsychophysiology2019,3.0.5,60.08395904253013,
To what extent did the music make you feel ,FRUSTRATED,30MonoWAV/30MonoT3.wav,2,1,4,15,,,,,0,12,12,14,0,6,6,3,,,,,,,,,1,1.2021534669984248,,,064,001,2019_May_27_1609,MusicAffectPsychophysiology2019,3.0.5,60.08395904253013,
To what extent did the music make you feel ,ASHAMED,30MonoWAV/30MonoT3.wav,2,1,4,15,,,,,0,12,12,14,0,7,7,4,,,,,,,,,1,0.917283012997359,,,064,001,2019_May_27_1609,MusicAffectPsychophysiology2019,3.0.5,60.08395904253013,
To what extent did the music make you feel ,TENDER,30MonoWAV/30MonoT3.wav,2,1,4,15,,,,,0,12,12,14,0,8,8,10,,,,,,,,,3,1.9182935480057495,,,064,001,2019_May_27_1609,MusicAffectPsychophysiology2019,3.0.5,60.08395904253013,
To what extent did the music make you feel ,ANGRY,30MonoWAV/30MonoT3.wav,2,1,4,15,,,,,0,12,12,14,0,9,9,2,,,,,,,,,1,1.735135993003496,,,064,001,2019_May_27_1609,MusicAffectPsychophysiology2019,3.0.5,60.08395904253013,
To what extent did the music make you feel ,ALERT,30MonoWAV/30MonoT3.wav,2,1,4,15,,,,,0,12,12,14,0,10,10,8,,,,,,,,,4,3.401193958001386,,,064,001,2019_May_27_1609,MusicAffectPsychophysiology2019,3.0.5,60.08395904253013,
To what extent did the music make you feel ,GUILTY,30MonoWAV/30MonoT3.wav,2,1,4,15,,,,,0,12,12,14,0,11,11,5,,,,,,,,,1,0.968745427999238,,,064,001,2019_May_27_1609,MusicAffectPsychophysiology2019,3.0.5,60.08395904253013,
,,30MonoWAV/30MonoT3.wav,2,1,4,15,,,,,0,12,12,14,,,,,,,,,,,,,,,,,064,001,2019_May_27_1609,MusicAffectPsychophysiology2019,3.0.5,60.08395904253013,
To what extent did the music make you feel ,ANXIOUS ,30MonoWAV/30MonoS1.wav,1,1,3,9,,,,,0,13,13,8,0,0,0,1,,,2,4.834038629000133,2,3.2338900409959024,3,2.6183301510027377,2,6.150150766996376,,,064,001,2019_May_27_1609,MusicAffectPsychophysiology2019,3.0.5,60.08395904253013,
To what extent did the music make you feel ,FRUSTRATED,30MonoWAV/30MonoS1.wav,1,1,3,9,,,,,0,13,13,8,0,1,1,3,,,,,,,,,1,0.751666247000685,,,064,001,2019_May_27_1609,MusicAffectPsychophysiology2019,3.0.5,60.08395904253013,
To what extent did the music make you feel ,ANGRY,30MonoWAV/30MonoS1.wav,1,1,3,9,,,,,0,13,13,8,0,2,2,2,,,,,,,,,1,0.9682428479936789,,,064,001,2019_May_27_1609,MusicAffectPsychophysiology2019,3.0.5,60.08395904253013,
To what extent did the music make you feel ,ALERT,30MonoWAV/30MonoS1.wav,1,1,3,9,,,,,0,13,13,8,0,3,3,8,,,,,,,,,4,4.1662620620045345,,,064,001,2019_May_27_1609,MusicAffectPsychophysiology2019,3.0.5,60.08395904253013,
To what extent did the music make you feel ,ACTIVE,30MonoWAV/30MonoS1.wav,1,1,3,9,,,,,0,13,13,8,0,4,4,9,,,,,,,,,3,1.3998370760018588,,,064,001,2019_May_27_1609,MusicAffectPsychophysiology2019,3.0.5,60.08395904253013,
To what extent did the music make you feel ,GUILTY,30MonoWAV/30MonoS1.wav,1,1,3,9,,,,,0,13,13,8,0,5,5,5,,,,,,,,,1,1.1351196030009305,,,064,001,2019_May_27_1609,MusicAffectPsychophysiology2019,3.0.5,60.08395904253013,
To what extent did the music make you feel ,ASHAMED,30MonoWAV/30MonoS1.wav,1,1,3,9,,,,,0,13,13,8,0,6,6,4,,,,,,,,,1,1.334766819003562,,,064,001,2019_May_27_1609,MusicAffectPsychophysiology2019,3.0.5,60.08395904253013,
To what extent did the music make you feel ,HAPPY,30MonoWAV/30MonoS1.wav,1,1,3,9,,,,,0,13,13,8,0,7,7,6,,,,,,,,,1,4.818966922000982,,,064,001,2019_May_27_1609,MusicAffectPsychophysiology2019,3.0.5,60.08395904253013,
To what extent did the music make you feel ,EXCITED,30MonoWAV/30MonoS1.wav,1,1,3,9,,,,,0,13,13,8,0,8,8,7,,,,,,,,,2,5.682994246002636,,,064,001,2019_May_27_1609,MusicAffectPsychophysiology2019,3.0.5,60.08395904253013,
To what extent did the music make you feel ,SAD,30MonoWAV/30MonoS1.wav,1,1,3,9,,,,,0,13,13,8,0,9,9,0,,,,,,,,,1,5.2501913479936775,,,064,001,2019_May_27_1609,MusicAffectPsychophysiology2019,3.0.5,60.08395904253013,
To what extent did the music make you feel ,SCARED,30MonoWAV/30MonoS1.wav,1,1,3,9,,,,,0,13,13,8,0,10,10,11,,,,,,,,,2,2.7357123649999266,,,064,001,2019_May_27_1609,MusicAffectPsychophysiology2019,3.0.5,60.08395904253013,
To what extent did the music make you feel ,TENDER,30MonoWAV/30MonoS1.wav,1,1,3,9,,,,,0,13,13,8,0,11,11,10,,,,,,,,,1,1.633323725000082,,,064,001,2019_May_27_1609,MusicAffectPsychophysiology2019,3.0.5,60.08395904253013,
,,30MonoWAV/30MonoS1.wav,1,1,3,9,,,,,0,13,13,8,,,,,,,,,,,,,,,,,064,001,2019_May_27_1609,MusicAffectPsychophysiology2019,3.0.5,60.08395904253013,
To what extent did the music make you feel ,ANGRY,30MonoWAV/30MonoT2.wav,2,1,4,14,,,,,0,14,14,13,0,0,0,2,,,2,3.8263057240037597,3,1.8502248299992061,3,3.2354569279996213,1,1.901567093002086,,,064,001,2019_May_27_1609,MusicAffectPsychophysiology2019,3.0.5,60.08395904253013,
To what extent did the music make you feel ,ASHAMED,30MonoWAV/30MonoT2.wav,2,1,4,14,,,,,0,14,14,13,0,1,1,4,,,,,,,,,1,1.1348374869994586,,,064,001,2019_May_27_1609,MusicAffectPsychophysiology2019,3.0.5,60.08395904253013,
To what extent did the music make you feel ,EXCITED,30MonoWAV/30MonoT2.wav,2,1,4,14,,,,,0,14,14,13,0,2,2,7,,,,,,,,,3,2.1517412809989764,,,064,001,2019_May_27_1609,MusicAffectPsychophysiology2019,3.0.5,60.08395904253013,
To what extent did the music make you feel ,ALERT,30MonoWAV/30MonoT2.wav,2,1,4,14,,,,,0,14,14,13,0,3,3,8,,,,,,,,,3,1.3162979170010658,,,064,001,2019_May_27_1609,MusicAffectPsychophysiology2019,3.0.5,60.08395904253013,
To what extent did the music make you feel ,SAD,30MonoWAV/30MonoT2.wav,2,1,4,14,,,,,0,14,14,13,0,4,4,0,,,,,,,,,2,2.5515582430016366,,,064,001,2019_May_27_1609,MusicAffectPsychophysiology2019,3.0.5,60.08395904253013,
To what extent did the music make you feel ,SCARED,30MonoWAV/30MonoT2.wav,2,1,4,14,,,,,0,14,14,13,0,5,5,11,,,,,,,,,1,1.2511213079997106,,,064,001,2019_May_27_1609,MusicAffectPsychophysiology2019,3.0.5,60.08395904253013,
To what extent did the music make you feel ,FRUSTRATED,30MonoWAV/30MonoT2.wav,2,1,4,14,,,,,0,14,14,13,0,6,6,3,,,,,,,,,1,1.268513929004257,,,064,001,2019_May_27_1609,MusicAffectPsychophysiology2019,3.0.5,60.08395904253013,
To what extent did the music make you feel ,TENDER,30MonoWAV/30MonoT2.wav,2,1,4,14,,,,,0,14,14,13,0,7,7,10,,,,,,,,,4,2.3188793109948165,,,064,001,2019_May_27_1609,MusicAffectPsychophysiology2019,3.0.5,60.08395904253013,
To what extent did the music make you feel ,ANXIOUS ,30MonoWAV/30MonoT2.wav,2,1,4,14,,,,,0,14,14,13,0,8,8,1,,,,,,,,,1,1.5176178800029447,,,064,001,2019_May_27_1609,MusicAffectPsychophysiology2019,3.0.5,60.08395904253013,
To what extent did the music make you feel ,ACTIVE,30MonoWAV/30MonoT2.wav,2,1,4,14,,,,,0,14,14,13,0,9,9,9,,,,,,,,,2,1.6340191339986632,,,064,001,2019_May_27_1609,MusicAffectPsychophysiology2019,3.0.5,60.08395904253013,
To what extent did the music make you feel ,HAPPY,30MonoWAV/30MonoT2.wav,2,1,4,14,,,,,0,14,14,13,0,10,10,6,,,,,,,,,3,2.3677392469980987,,,064,001,2019_May_27_1609,MusicAffectPsychophysiology2019,3.0.5,60.08395904253013,
To what extent did the music make you feel ,GUILTY,30MonoWAV/30MonoT2.wav,2,1,4,14,,,,,0,14,14,13,0,11,11,5,,,,,,,,,1,1.152023258000554,,,064,001,2019_May_27_1609,MusicAffectPsychophysiology2019,3.0.5,60.08395904253013,
,,30MonoWAV/30MonoT2.wav,2,1,4,14,,,,,0,14,14,13,,,,,,,,,,,,,,,,,064,001,2019_May_27_1609,MusicAffectPsychophysiology2019,3.0.5,60.08395904253013,
To what extent did the music make you feel ,GUILTY,30MonoWAV/30MonoH3.wav,2,2,1,7,,,,,0,15,15,6,0,0,0,5,,,4,3.034901204002381,4,3.0017095599978347,2,3.351804705998802,1,1.6174846799985971,,,064,001,2019_May_27_1609,MusicAffectPsychophysiology2019,3.0.5,60.08395904253013,
To what extent did the music make you feel ,ALERT,30MonoWAV/30MonoH3.wav,2,2,1,7,,,,,0,15,15,6,0,1,1,8,,,,,,,,,3,1.5176445910037728,,,064,001,2019_May_27_1609,MusicAffectPsychophysiology2019,3.0.5,60.08395904253013,
To what extent did the music make you feel ,ASHAMED,30MonoWAV/30MonoH3.wav,2,2,1,7,,,,,0,15,15,6,0,2,2,4,,,,,,,,,1,1.5353314410021994,,,064,001,2019_May_27_1609,MusicAffectPsychophysiology2019,3.0.5,60.08395904253013,
To what extent did the music make you feel ,ANGRY,30MonoWAV/30MonoH3.wav,2,2,1,7,,,,,0,15,15,6,0,3,3,2,,,,,,,,,1,0.9359117430067272,,,064,001,2019_May_27_1609,MusicAffectPsychophysiology2019,3.0.5,60.08395904253013,
To what extent did the music make you feel ,ANXIOUS ,30MonoWAV/30MonoH3.wav,2,2,1,7,,,,,0,15,15,6,0,4,4,1,,,,,,,,,1,1.2679740769963246,,,064,001,2019_May_27_1609,MusicAffectPsychophysiology2019,3.0.5,60.08395904253013,
To what extent did the music make you feel ,SAD,30MonoWAV/30MonoH3.wav,2,2,1,7,,,,,0,15,15,6,0,5,5,0,,,,,,,,,1,0.752282767003635,,,064,001,2019_May_27_1609,MusicAffectPsychophysiology2019,3.0.5,60.08395904253013,
To what extent did the music make you feel ,ACTIVE,30MonoWAV/30MonoH3.wav,2,2,1,7,,,,,0,15,15,6,0,6,6,9,,,,,,,,,3,1.4680056360011804,,,064,001,2019_May_27_1609,MusicAffectPsychophysiology2019,3.0.5,60.08395904253013,
To what extent did the music make you feel ,HAPPY,30MonoWAV/30MonoH3.wav,2,2,1,7,,,,,0,15,15,6,0,7,7,6,,,,,,,,,4,2.900952301999496,,,064,001,2019_May_27_1609,MusicAffectPsychophysiology2019,3.0.5,60.08395904253013,
To what extent did the music make you feel ,TENDER,30MonoWAV/30MonoH3.wav,2,2,1,7,,,,,0,15,15,6,0,8,8,10,,,,,,,,,3,1.3849297299966565,,,064,001,2019_May_27_1609,MusicAffectPsychophysiology2019,3.0.5,60.08395904253013,
To what extent did the music make you feel ,SCARED,30MonoWAV/30MonoH3.wav,2,2,1,7,,,,,0,15,15,6,0,9,9,11,,,,,,,,,1,2.301729302002059,,,064,001,2019_May_27_1609,MusicAffectPsychophysiology2019,3.0.5,60.08395904253013,
To what extent did the music make you feel ,EXCITED,30MonoWAV/30MonoH3.wav,2,2,1,7,,,,,0,15,15,6,0,10,10,7,,,,,,,,,4,1.8022062119998736,,,064,001,2019_May_27_1609,MusicAffectPsychophysiology2019,3.0.5,60.08395904253013,
To what extent did the music make you feel ,FRUSTRATED,30MonoWAV/30MonoH3.wav,2,2,1,7,,,,,0,15,15,6,0,11,11,3,,,,,,,,,1,1.0022533209994435,,,064,001,2019_May_27_1609,MusicAffectPsychophysiology2019,3.0.5,60.08395904253013,
,,30MonoWAV/30MonoH3.wav,2,2,1,7,,,,,0,15,15,6,,,,,,,,,,,,,,,,,064,001,2019_May_27_1609,MusicAffectPsychophysiology2019,3.0.5,60.08395904253013,
To what extent did the music make you feel ,ANXIOUS ,30MonoWAV/30MonoH1.wav,2,2,1,5,,,,,1,0,16,4,0,0,0,1,,,3,3.018040323004243,2,2.035520960998838,2,1.9523476630056393,2,1.717572884997935,,,064,001,2019_May_27_1609,MusicAffectPsychophysiology2019,3.0.5,60.08395904253013,
To what extent did the music make you feel ,ANGRY,30MonoWAV/30MonoH1.wav,2,2,1,5,,,,,1,0,16,4,0,1,1,2,,,,,,,,,1,1.20153305799613,,,064,001,2019_May_27_1609,MusicAffectPsychophysiology2019,3.0.5,60.08395904253013,
To what extent did the music make you feel ,ALERT,30MonoWAV/30MonoH1.wav,2,2,1,5,,,,,1,0,16,4,0,2,2,8,,,,,,,,,3,2.601891076999891,,,064,001,2019_May_27_1609,MusicAffectPsychophysiology2019,3.0.5,60.08395904253013,
To what extent did the music make you feel ,HAPPY,30MonoWAV/30MonoH1.wav,2,2,1,5,,,,,1,0,16,4,0,3,3,6,,,,,,,,,2,4.61780752499908,,,064,001,2019_May_27_1609,MusicAffectPsychophysiology2019,3.0.5,60.08395904253013,
To what extent did the music make you feel ,TENDER,30MonoWAV/30MonoH1.wav,2,2,1,5,,,,,1,0,16,4,0,4,4,10,,,,,,,,,1,1.9677919300011126,,,064,001,2019_May_27_1609,MusicAffectPsychophysiology2019,3.0.5,60.08395904253013,
To what extent did the music make you feel ,ACTIVE,30MonoWAV/30MonoH1.wav,2,2,1,5,,,,,1,0,16,4,0,5,5,9,,,,,,,,,3,4.952317793002294,,,064,001,2019_May_27_1609,MusicAffectPsychophysiology2019,3.0.5,60.08395904253013,
To what extent did the music make you feel ,ASHAMED,30MonoWAV/30MonoH1.wav,2,2,1,5,,,,,1,0,16,4,0,6,6,4,,,,,,,,,1,1.4013536760030547,,,064,001,2019_May_27_1609,MusicAffectPsychophysiology2019,3.0.5,60.08395904253013,
To what extent did the music make you feel ,GUILTY,30MonoWAV/30MonoH1.wav,2,2,1,5,,,,,1,0,16,4,0,7,7,5,,,,,,,,,2,9.599470797998947,,,064,001,2019_May_27_1609,MusicAffectPsychophysiology2019,3.0.5,60.08395904253013,
To what extent did the music make you feel ,EXCITED,30MonoWAV/30MonoH1.wav,2,2,1,5,,,,,1,0,16,4,0,8,8,7,,,,,,,,,3,1.4686033510006382,,,064,001,2019_May_27_1609,MusicAffectPsychophysiology2019,3.0.5,60.08395904253013,
To what extent did the music make you feel ,FRUSTRATED,30MonoWAV/30MonoH1.wav,2,2,1,5,,,,,1,0,16,4,0,9,9,3,,,,,,,,,1,1.568865413995809,,,064,001,2019_May_27_1609,MusicAffectPsychophysiology2019,3.0.5,60.08395904253013,
To what extent did the music make you feel ,SCARED,30MonoWAV/30MonoH1.wav,2,2,1,5,,,,,1,0,16,4,0,10,10,11,,,,,,,,,1,3.4338819699987653,,,064,001,2019_May_27_1609,MusicAffectPsychophysiology2019,3.0.5,60.08395904253013,
To what extent did the music make you feel ,SAD,30MonoWAV/30MonoH1.wav,2,2,1,5,,,,,1,0,16,4,0,11,11,0,,,,,,,,,1,0.851382435997948,,,064,001,2019_May_27_1609,MusicAffectPsychophysiology2019,3.0.5,60.08395904253013,
,,30MonoWAV/30MonoH1.wav,2,2,1,5,,,,,1,0,16,4,,,,,,,,,,,,,,,,,064,001,2019_May_27_1609,MusicAffectPsychophysiology2019,3.0.5,60.08395904253013,
To what extent did the music make you feel ,EXCITED,30MonoWAV/30MonoH2.wav,2,2,1,6,,,,,1,1,17,5,0,0,0,7,,,3,3.3840444899979047,3,2.3054859210024006,2,1.4032605570027954,3,3.3547745260002557,,,064,001,2019_May_27_1609,MusicAffectPsychophysiology2019,3.0.5,60.08395904253013,
To what extent did the music make you feel ,GUILTY,30MonoWAV/30MonoH2.wav,2,2,1,6,,,,,1,1,17,5,0,1,1,5,,,,,,,,,1,3.109042402000341,,,064,001,2019_May_27_1609,MusicAffectPsychophysiology2019,3.0.5,60.08395904253013,
To what extent did the music make you feel ,SCARED,30MonoWAV/30MonoH2.wav,2,2,1,6,,,,,1,1,17,5,0,2,2,11,,,,,,,,,1,2.6353417380014434,,,064,001,2019_May_27_1609,MusicAffectPsychophysiology2019,3.0.5,60.08395904253013,
To what extent did the music make you feel ,ANGRY,30MonoWAV/30MonoH2.wav,2,2,1,6,,,,,1,1,17,5,0,3,3,2,,,,,,,,,1,1.5525307389980298,,,064,001,2019_May_27_1609,MusicAffectPsychophysiology2019,3.0.5,60.08395904253013,
To what extent did the music make you feel ,ALERT,30MonoWAV/30MonoH2.wav,2,2,1,6,,,,,1,1,17,5,0,4,4,8,,,,,,,,,3,1.484639825001068,,,064,001,2019_May_27_1609,MusicAffectPsychophysiology2019,3.0.5,60.08395904253013,
To what extent did the music make you feel ,ACTIVE,30MonoWAV/30MonoH2.wav,2,2,1,6,,,,,1,1,17,5,0,5,5,9,,,,,,,,,3,1.8009788560011657,,,064,001,2019_May_27_1609,MusicAffectPsychophysiology2019,3.0.5,60.08395904253013,
To what extent did the music make you feel ,ASHAMED,30MonoWAV/30MonoH2.wav,2,2,1,6,,,,,1,1,17,5,0,6,6,4,,,,,,,,,1,1.7513119059949531,,,064,001,2019_May_27_1609,MusicAffectPsychophysiology2019,3.0.5,60.08395904253013,
To what extent did the music make you feel ,FRUSTRATED,30MonoWAV/30MonoH2.wav,2,2,1,6,,,,,1,1,17,5,0,7,7,3,,,,,,,,,1,2.5518222419996164,,,064,001,2019_May_27_1609,MusicAffectPsychophysiology2019,3.0.5,60.08395904253013,
To what extent did the music make you feel ,ANXIOUS ,30MonoWAV/30MonoH2.wav,2,2,1,6,,,,,1,1,17,5,0,8,8,1,,,,,,,,,2,1.2845237839937909,,,064,001,2019_May_27_1609,MusicAffectPsychophysiology2019,3.0.5,60.08395904253013,
To what extent did the music make you feel ,HAPPY,30MonoWAV/30MonoH2.wav,2,2,1,6,,,,,1,1,17,5,0,9,9,6,,,,,,,,,2,3.7509015169998747,,,064,001,2019_May_27_1609,MusicAffectPsychophysiology2019,3.0.5,60.08395904253013,
To what extent did the music make you feel ,SAD,30MonoWAV/30MonoH2.wav,2,2,1,6,,,,,1,1,17,5,0,10,10,0,,,,,,,,,1,1.4347796900037793,,,064,001,2019_May_27_1609,MusicAffectPsychophysiology2019,3.0.5,60.08395904253013,
To what extent did the music make you feel ,TENDER,30MonoWAV/30MonoH2.wav,2,2,1,6,,,,,1,1,17,5,0,11,11,10,,,,,,,,,1,0.885148034998565,,,064,001,2019_May_27_1609,MusicAffectPsychophysiology2019,3.0.5,60.08395904253013,
,,30MonoWAV/30MonoH2.wav,2,2,1,6,,,,,1,1,17,5,,,,,,,,,,,,,,,,,064,001,2019_May_27_1609,MusicAffectPsychophysiology2019,3.0.5,60.08395904253013,
To what extent did the music make you feel ,SAD,30MonoWAV/30MonoT2.wav,2,1,4,14,,,,,1,2,18,13,0,0,0,0,,,3,3.6600263790023746,4,1.835198754000885,4,1.6007701199996518,2,3.035266340004455,,,064,001,2019_May_27_1609,MusicAffectPsychophysiology2019,3.0.5,60.08395904253013,
To what extent did the music make you feel ,HAPPY,30MonoWAV/30MonoT2.wav,2,1,4,14,,,,,1,2,18,13,0,1,1,6,,,,,,,,,3,2.335568492002494,,,064,001,2019_May_27_1609,MusicAffectPsychophysiology2019,3.0.5,60.08395904253013,
To what extent did the music make you feel ,ALERT,30MonoWAV/30MonoT2.wav,2,1,4,14,,,,,1,2,18,13,0,2,2,8,,,,,,,,,3,1.8345170899992809,,,064,001,2019_May_27_1609,MusicAffectPsychophysiology2019,3.0.5,60.08395904253013,
To what extent did the music make you feel ,TENDER,30MonoWAV/30MonoT2.wav,2,1,4,14,,,,,1,2,18,13,0,3,3,10,,,,,,,,,4,1.3023505140008638,,,064,001,2019_May_27_1609,MusicAffectPsychophysiology2019,3.0.5,60.08395904253013,
To what extent did the music make you feel ,ANGRY,30MonoWAV/30MonoT2.wav,2,1,4,14,,,,,1,2,18,13,0,4,4,2,,,,,,,,,1,1.2344136460014852,,,064,001,2019_May_27_1609,MusicAffectPsychophysiology2019,3.0.5,60.08395904253013,
To what extent did the music make you feel ,ANXIOUS ,30MonoWAV/30MonoT2.wav,2,1,4,14,,,,,1,2,18,13,0,5,5,1,,,,,,,,,1,1.3007718149965513,,,064,001,2019_May_27_1609,MusicAffectPsychophysiology2019,3.0.5,60.08395904253013,
To what extent did the music make you feel ,SCARED,30MonoWAV/30MonoT2.wav,2,1,4,14,,,,,1,2,18,13,0,6,6,11,,,,,,,,,1,0.6687313880029251,,,064,001,2019_May_27_1609,MusicAffectPsychophysiology2019,3.0.5,60.08395904253013,
To what extent did the music make you feel ,ASHAMED,30MonoWAV/30MonoT2.wav,2,1,4,14,,,,,1,2,18,13,0,7,7,4,,,,,,,,,1,0.9843723840021994,,,064,001,2019_May_27_1609,MusicAffectPsychophysiology2019,3.0.5,60.08395904253013,
To what extent did the music make you feel ,EXCITED,30MonoWAV/30MonoT2.wav,2,1,4,14,,,,,1,2,18,13,0,8,8,7,,,,,,,,,2,1.9513795919992845,,,064,001,2019_May_27_1609,MusicAffectPsychophysiology2019,3.0.5,60.08395904253013,
To what extent did the music make you feel ,FRUSTRATED,30MonoWAV/30MonoT2.wav,2,1,4,14,,,,,1,2,18,13,0,9,9,3,,,,,,,,,1,0.6351286749995779,,,064,001,2019_May_27_1609,MusicAffectPsychophysiology2019,3.0.5,60.08395904253013,
To what extent did the music make you feel ,GUILTY,30MonoWAV/30MonoT2.wav,2,1,4,14,,,,,1,2,18,13,0,10,10,5,,,,,,,,,1,0.766329179998138,,,064,001,2019_May_27_1609,MusicAffectPsychophysiology2019,3.0.5,60.08395904253013,
To what extent did the music make you feel ,ACTIVE,30MonoWAV/30MonoT2.wav,2,1,4,14,,,,,1,2,18,13,0,11,11,9,,,,,,,,,2,1.568485772004351,,,064,001,2019_May_27_1609,MusicAffectPsychophysiology2019,3.0.5,60.08395904253013,
,,30MonoWAV/30MonoT2.wav,2,1,4,14,,,,,1,2,18,13,,,,,,,,,,,,,,,,,064,001,2019_May_27_1609,MusicAffectPsychophysiology2019,3.0.5,60.08395904253013,
To what extent did the music make you feel ,ANXIOUS ,30MonoWAV/30MonoH3.wav,2,2,1,7,,,,,1,3,19,6,0,0,0,1,,,4,4.3170561869992525,4,2.402898856002139,2,2.0688498290037387,1,7.118063925998285,,,064,001,2019_May_27_1609,MusicAffectPsychophysiology2019,3.0.5,60.08395904253013,
To what extent did the music make you feel ,GUILTY,30MonoWAV/30MonoH3.wav,2,2,1,7,,,,,1,3,19,6,0,1,1,5,,,,,,,,,1,0.9680710890024784,,,064,001,2019_May_27_1609,MusicAffectPsychophysiology2019,3.0.5,60.08395904253013,
To what extent did the music make you feel ,EXCITED,30MonoWAV/30MonoH3.wav,2,2,1,7,,,,,1,3,19,6,0,2,2,7,,,,,,,,,4,2.234650201004115,,,064,001,2019_May_27_1609,MusicAffectPsychophysiology2019,3.0.5,60.08395904253013,
To what extent did the music make you feel ,TENDER,30MonoWAV/30MonoH3.wav,2,2,1,7,,,,,1,3,19,6,0,3,3,10,,,,,,,,,3,1.9174482939997688,,,064,001,2019_May_27_1609,MusicAffectPsychophysiology2019,3.0.5,60.08395904253013,
To what extent did the music make you feel ,SCARED,30MonoWAV/30MonoH3.wav,2,2,1,7,,,,,1,3,19,6,0,4,4,11,,,,,,,,,1,1.2186118970057578,,,064,001,2019_May_27_1609,MusicAffectPsychophysiology2019,3.0.5,60.08395904253013,
To what extent did the music make you feel ,HAPPY,30MonoWAV/30MonoH3.wav,2,2,1,7,,,,,1,3,19,6,0,5,5,6,,,,,,,,,2,1.4843862569978228,,,064,001,2019_May_27_1609,MusicAffectPsychophysiology2019,3.0.5,60.08395904253013,
To what extent did the music make you feel ,ACTIVE,30MonoWAV/30MonoH3.wav,2,2,1,7,,,,,1,3,19,6,0,6,6,9,,,,,,,,,3,1.6678903350039036,,,064,001,2019_May_27_1609,MusicAffectPsychophysiology2019,3.0.5,60.08395904253013,
To what extent did the music make you feel ,ANGRY,30MonoWAV/30MonoH3.wav,2,2,1,7,,,,,1,3,19,6,0,7,7,2,,,,,,,,,1,1.4022133379985462,,,064,001,2019_May_27_1609,MusicAffectPsychophysiology2019,3.0.5,60.08395904253013,
To what extent did the music make you feel ,ASHAMED,30MonoWAV/30MonoH3.wav,2,2,1,7,,,,,1,3,19,6,0,8,8,4,,,,,,,,,1,1.4352503419941058,,,064,001,2019_May_27_1609,MusicAffectPsychophysiology2019,3.0.5,60.08395904253013,
To what extent did the music make you feel ,FRUSTRATED,30MonoWAV/30MonoH3.wav,2,2,1,7,,,,,1,3,19,6,0,9,9,3,,,,,,,,,1,0.9386342680008966,,,064,001,2019_May_27_1609,MusicAffectPsychophysiology2019,3.0.5,60.08395904253013,
To what extent did the music make you feel ,ALERT,30MonoWAV/30MonoH3.wav,2,2,1,7,,,,,1,3,19,6,0,10,10,8,,,,,,,,,3,2.318509911005094,,,064,001,2019_May_27_1609,MusicAffectPsychophysiology2019,3.0.5,60.08395904253013,
To what extent did the music make you feel ,SAD,30MonoWAV/30MonoH3.wav,2,2,1,7,,,,,1,3,19,6,0,11,11,0,,,,,,,,,1,1.4179319480026606,,,064,001,2019_May_27_1609,MusicAffectPsychophysiology2019,3.0.5,60.08395904253013,
,,30MonoWAV/30MonoH3.wav,2,2,1,7,,,,,1,3,19,6,,,,,,,,,,,,,,,,,064,001,2019_May_27_1609,MusicAffectPsychophysiology2019,3.0.5,60.08395904253013,
To what extent did the music make you feel ,ANGRY,30MonoWAV/30MonoS4.wav,1,1,3,12,,,,,1,4,20,11,0,0,0,2,,,1,2.585096731003432,2,1.6350613359973067,4,2.1344307030012715,1,2.9180496190019767,,,064,001,2019_May_27_1609,MusicAffectPsychophysiology2019,3.0.5,60.08395904253013,
To what extent did the music make you feel ,ANXIOUS ,30MonoWAV/30MonoS4.wav,1,1,3,12,,,,,1,4,20,11,0,1,1,1,,,,,,,,,2,1.3357091490033781,,,064,001,2019_May_27_1609,MusicAffectPsychophysiology2019,3.0.5,60.08395904253013,
To what extent did the music make you feel ,ASHAMED,30MonoWAV/30MonoS4.wav,1,1,3,12,,,,,1,4,20,11,0,2,2,4,,,,,,,,,1,1.3358126599996467,,,064,001,2019_May_27_1609,MusicAffectPsychophysiology2019,3.0.5,60.08395904253013,
To what extent did the music make you feel ,ALERT,30MonoWAV/30MonoS4.wav,1,1,3,12,,,,,1,4,20,11,0,3,3,8,,,,,,,,,1,2.2517870649971883,,,064,001,2019_May_27_1609,MusicAffectPsychophysiology2019,3.0.5,60.08395904253013,
To what extent did the music make you feel ,TENDER,30MonoWAV/30MonoS4.wav,1,1,3,12,,,,,1,4,20,11,0,4,4,10,,,,,,,,,3,1.5849604590039235,,,064,001,2019_May_27_1609,MusicAffectPsychophysiology2019,3.0.5,60.08395904253013,
To what extent did the music make you feel ,ACTIVE,30MonoWAV/30MonoS4.wav,1,1,3,12,,,,,1,4,20,11,0,5,5,9,,,,,,,,,1,1.950703946997237,,,064,001,2019_May_27_1609,MusicAffectPsychophysiology2019,3.0.5,60.08395904253013,
To what extent did the music make you feel ,HAPPY,30MonoWAV/30MonoS4.wav,1,1,3,12,,,,,1,4,20,11,0,6,6,6,,,,,,,,,1,6.267568597999343,,,064,001,2019_May_27_1609,MusicAffectPsychophysiology2019,3.0.5,60.08395904253013,
To what extent did the music make you feel ,SAD,30MonoWAV/30MonoS4.wav,1,1,3,12,,,,,1,4,20,11,0,7,7,0,,,,,,,,,4,1.70160183400003,,,064,001,2019_May_27_1609,MusicAffectPsychophysiology2019,3.0.5,60.08395904253013,
To what extent did the music make you feel ,EXCITED,30MonoWAV/30MonoS4.wav,1,1,3,12,,,,,1,4,20,11,0,8,8,7,,,,,,,,,1,1.3519199680013116,,,064,001,2019_May_27_1609,MusicAffectPsychophysiology2019,3.0.5,60.08395904253013,
To what extent did the music make you feel ,FRUSTRATED,30MonoWAV/30MonoS4.wav,1,1,3,12,,,,,1,4,20,11,0,9,9,3,,,,,,,,,1,0.9851348719967064,,,064,001,2019_May_27_1609,MusicAffectPsychophysiology2019,3.0.5,60.08395904253013,
To what extent did the music make you feel ,SCARED,30MonoWAV/30MonoS4.wav,1,1,3,12,,,,,1,4,20,11,0,10,10,11,,,,,,,,,1,1.9671656650025398,,,064,001,2019_May_27_1609,MusicAffectPsychophysiology2019,3.0.5,60.08395904253013,
To what extent did the music make you feel ,GUILTY,30MonoWAV/30MonoS4.wav,1,1,3,12,,,,,1,4,20,11,0,11,11,5,,,,,,,,,1,3.1180546120012878,,,064,001,2019_May_27_1609,MusicAffectPsychophysiology2019,3.0.5,60.08395904253013,
,,30MonoWAV/30MonoS4.wav,1,1,3,12,,,,,1,4,20,11,,,,,,,,,,,,,,,,,064,001,2019_May_27_1609,MusicAffectPsychophysiology2019,3.0.5,60.08395904253013,
To what extent did the music make you feel ,ALERT,30MonoWAV/30MonoS3.wav,1,1,3,11,,,,,1,5,21,10,0,0,0,8,,,2,5.318003314001544,1,1.7520961990012438,2,2.2677129130024696,2,3.5688642319946666,,,064,001,2019_May_27_1609,MusicAffectPsychophysiology2019,3.0.5,60.08395904253013,
To what extent did the music make you feel ,HAPPY,30MonoWAV/30MonoS3.wav,1,1,3,11,,,,,1,5,21,10,0,1,1,6,,,,,,,,,1,1.4847088319947943,,,064,001,2019_May_27_1609,MusicAffectPsychophysiology2019,3.0.5,60.08395904253013,
To what extent did the music make you feel ,GUILTY,30MonoWAV/30MonoS3.wav,1,1,3,11,,,,,1,5,21,10,0,2,2,5,,,,,,,,,1,4.518430823998642,,,064,001,2019_May_27_1609,MusicAffectPsychophysiology2019,3.0.5,60.08395904253013,
To what extent did the music make you feel ,TENDER,30MonoWAV/30MonoS3.wav,1,1,3,11,,,,,1,5,21,10,0,3,3,10,,,,,,,,,1,1.2686655040015467,,,064,001,2019_May_27_1609,MusicAffectPsychophysiology2019,3.0.5,60.08395904253013,
To what extent did the music make you feel ,ACTIVE,30MonoWAV/30MonoS3.wav,1,1,3,11,,,,,1,5,21,10,0,4,4,9,,,,,,,,,2,2.852464524003153,,,064,001,2019_May_27_1609,MusicAffectPsychophysiology2019,3.0.5,60.08395904253013,
To what extent did the music make you feel ,EXCITED,30MonoWAV/30MonoS3.wav,1,1,3,11,,,,,1,5,21,10,0,5,5,7,,,,,,,,,1,1.5844094880012562,,,064,001,2019_May_27_1609,MusicAffectPsychophysiology2019,3.0.5,60.08395904253013,
To what extent did the music make you feel ,FRUSTRATED,30MonoWAV/30MonoS3.wav,1,1,3,11,,,,,1,5,21,10,0,6,6,3,,,,,,,,,2,3.0514603789997636,,,064,001,2019_May_27_1609,MusicAffectPsychophysiology2019,3.0.5,60.08395904253013,
To what extent did the music make you feel ,SAD,30MonoWAV/30MonoS3.wav,1,1,3,11,,,,,1,5,21,10,0,7,7,0,,,,,,,,,3,2.816695838002488,,,064,001,2019_May_27_1609,MusicAffectPsychophysiology2019,3.0.5,60.08395904253013,
To what extent did the music make you feel ,SCARED,30MonoWAV/30MonoS3.wav,1,1,3,11,,,,,1,5,21,10,0,8,8,11,,,,,,,,,2,1.9502992600027937,,,064,001,2019_May_27_1609,MusicAffectPsychophysiology2019,3.0.5,60.08395904253013,
To what extent did the music make you feel ,ANGRY,30MonoWAV/30MonoS3.wav,1,1,3,11,,,,,1,5,21,10,0,9,9,2,,,,,,,,,2,3.0844136659943615,,,064,001,2019_May_27_1609,MusicAffectPsychophysiology2019,3.0.5,60.08395904253013,
To what extent did the music make you feel ,ANXIOUS ,30MonoWAV/30MonoS3.wav,1,1,3,11,,,,,1,5,21,10,0,10,10,1,,,,,,,,,3,2.0842625000004773,,,064,001,2019_May_27_1609,MusicAffectPsychophysiology2019,3.0.5,60.08395904253013,
To what extent did the music make you feel ,ASHAMED,30MonoWAV/30MonoS3.wav,1,1,3,11,,,,,1,5,21,10,0,11,11,4,,,,,,,,,2,3.717936651002674,,,064,001,2019_May_27_1609,MusicAffectPsychophysiology2019,3.0.5,60.08395904253013,
,,30MonoWAV/30MonoS3.wav,1,1,3,11,,,,,1,5,21,10,,,,,,,,,,,,,,,,,064,001,2019_May_27_1609,MusicAffectPsychophysiology2019,3.0.5,60.08395904253013,
To what extent did the music make you feel ,FRUSTRATED,30MonoWAV/30MonoS2.wav,1,1,3,10,,,,,1,6,22,9,0,0,0,3,,,1,2.500960342003964,1,1.6686239049959113,1,1.151728542005003,2,6.566488394004409,,,064,001,2019_May_27_1609,MusicAffectPsychophysiology2019,3.0.5,60.08395904253013,
To what extent did the music make you feel ,ANGRY,30MonoWAV/30MonoS2.wav,1,1,3,10,,,,,1,6,22,9,0,1,1,2,,,,,,,,,1,1.4011624140039203,,,064,001,2019_May_27_1609,MusicAffectPsychophysiology2019,3.0.5,60.08395904253013,
To what extent did the music make you feel ,EXCITED,30MonoWAV/30MonoS2.wav,1,1,3,10,,,,,1,6,22,9,0,2,2,7,,,,,,,,,1,0.9682783569951425,,,064,001,2019_May_27_1609,MusicAffectPsychophysiology2019,3.0.5,60.08395904253013,
To what extent did the music make you feel ,HAPPY,30MonoWAV/30MonoS2.wav,1,1,3,10,,,,,1,6,22,9,0,3,3,6,,,,,,,,,1,1.2180330709961709,,,064,001,2019_May_27_1609,MusicAffectPsychophysiology2019,3.0.5,60.08395904253013,
To what extent did the music make you feel ,ALERT,30MonoWAV/30MonoS2.wav,1,1,3,10,,,,,1,6,22,9,0,4,4,8,,,,,,,,,1,2.4847371549985837,,,064,001,2019_May_27_1609,MusicAffectPsychophysiology2019,3.0.5,60.08395904253013,
To what extent did the music make you feel ,ASHAMED,30MonoWAV/30MonoS2.wav,1,1,3,10,,,,,1,6,22,9,0,5,5,4,,,,,,,,,2,2.1188629739990574,,,064,001,2019_May_27_1609,MusicAffectPsychophysiology2019,3.0.5,60.08395904253013,
To what extent did the music make you feel ,ANXIOUS ,30MonoWAV/30MonoS2.wav,1,1,3,10,,,,,1,6,22,9,0,6,6,1,,,,,,,,,2,1.566462162998505,,,064,001,2019_May_27_1609,MusicAffectPsychophysiology2019,3.0.5,60.08395904253013,
To what extent did the music make you feel ,GUILTY,30MonoWAV/30MonoS2.wav,1,1,3,10,,,,,1,6,22,9,0,7,7,5,,,,,,,,,2,1.1849314869978116,,,064,001,2019_May_27_1609,MusicAffectPsychophysiology2019,3.0.5,60.08395904253013,
To what extent did the music make you feel ,SAD,30MonoWAV/30MonoS2.wav,1,1,3,10,,,,,1,6,22,9,0,8,8,0,,,,,,,,,3,1.835468106000917,,,064,001,2019_May_27_1609,MusicAffectPsychophysiology2019,3.0.5,60.08395904253013,
To what extent did the music make you feel ,SCARED,30MonoWAV/30MonoS2.wav,1,1,3,10,,,,,1,6,22,9,0,9,9,11,,,,,,,,,1,1.6007454090067768,,,064,001,2019_May_27_1609,MusicAffectPsychophysiology2019,3.0.5,60.08395904253013,
To what extent did the music make you feel ,ACTIVE,30MonoWAV/30MonoS2.wav,1,1,3,10,,,,,1,6,22,9,0,10,10,9,,,,,,,,,1,1.5349070920055965,,,064,001,2019_May_27_1609,MusicAffectPsychophysiology2019,3.0.5,60.08395904253013,
To what extent did the music make you feel ,TENDER,30MonoWAV/30MonoS2.wav,1,1,3,10,,,,,1,6,22,9,0,11,11,10,,,,,,,,,2,4.001454373996239,,,064,001,2019_May_27_1609,MusicAffectPsychophysiology2019,3.0.5,60.08395904253013,
,,30MonoWAV/30MonoS2.wav,1,1,3,10,,,,,1,6,22,9,,,,,,,,,,,,,,,,,064,001,2019_May_27_1609,MusicAffectPsychophysiology2019,3.0.5,60.08395904253013,
To what extent did the music make you feel ,GUILTY,30MonoWAV/30MonoT4.wav,2,1,4,16,,,,,1,7,23,15,0,0,0,5,,,3,3.9506684570005746,3,5.051019617996644,2,1.9847928220042377,1,2.3674067739993916,,,064,001,2019_May_27_1609,MusicAffectPsychophysiology2019,3.0.5,60.08395904253013,
To what extent did the music make you feel ,ANXIOUS ,30MonoWAV/30MonoT4.wav,2,1,4,16,,,,,1,7,23,15,0,1,1,1,,,,,,,,,1,1.1680578009982128,,,064,001,2019_May_27_1609,MusicAffectPsychophysiology2019,3.0.5,60.08395904253013,
To what extent did the music make you feel ,ALERT,30MonoWAV/30MonoT4.wav,2,1,4,16,,,,,1,7,23,15,0,2,2,8,,,,,,,,,3,2.151899083997705,,,064,001,2019_May_27_1609,MusicAffectPsychophysiology2019,3.0.5,60.08395904253013,
To what extent did the music make you feel ,ANGRY,30MonoWAV/30MonoT4.wav,2,1,4,16,,,,,1,7,23,15,0,3,3,2,,,,,,,,,1,1.0014713660057168,,,064,001,2019_May_27_1609,MusicAffectPsychophysiology2019,3.0.5,60.08395904253013,
To what extent did the music make you feel ,SCARED,30MonoWAV/30MonoT4.wav,2,1,4,16,,,,,1,7,23,15,0,4,4,11,,,,,,,,,1,2.2504580820022966,,,064,001,2019_May_27_1609,MusicAffectPsychophysiology2019,3.0.5,60.08395904253013,
To what extent did the music make you feel ,FRUSTRATED,30MonoWAV/30MonoT4.wav,2,1,4,16,,,,,1,7,23,15,0,5,5,3,,,,,,,,,1,1.1180166579943034,,,064,001,2019_May_27_1609,MusicAffectPsychophysiology2019,3.0.5,60.08395904253013,
To what extent did the music make you feel ,HAPPY,30MonoWAV/30MonoT4.wav,2,1,4,16,,,,,1,7,23,15,0,6,6,6,,,,,,,,,3,1.1517357240009005,,,064,001,2019_May_27_1609,MusicAffectPsychophysiology2019,3.0.5,60.08395904253013,
To what extent did the music make you feel ,EXCITED,30MonoWAV/30MonoT4.wav,2,1,4,16,,,,,1,7,23,15,0,7,7,7,,,,,,,,,3,1.8676276550031616,,,064,001,2019_May_27_1609,MusicAffectPsychophysiology2019,3.0.5,60.08395904253013,
To what extent did the music make you feel ,TENDER,30MonoWAV/30MonoT4.wav,2,1,4,16,,,,,1,7,23,15,0,8,8,10,,,,,,,,,3,1.4844764250010485,,,064,001,2019_May_27_1609,MusicAffectPsychophysiology2019,3.0.5,60.08395904253013,
To what extent did the music make you feel ,ASHAMED,30MonoWAV/30MonoT4.wav,2,1,4,16,,,,,1,7,23,15,0,9,9,4,,,,,,,,,1,2.819896551001875,,,064,001,2019_May_27_1609,MusicAffectPsychophysiology2019,3.0.5,60.08395904253013,
To what extent did the music make you feel ,SAD,30MonoWAV/30MonoT4.wav,2,1,4,16,,,,,1,7,23,15,0,10,10,0,,,,,,,,,2,5.667016179999337,,,064,001,2019_May_27_1609,MusicAffectPsychophysiology2019,3.0.5,60.08395904253013,
To what extent did the music make you feel ,ACTIVE,30MonoWAV/30MonoT4.wav,2,1,4,16,,,,,1,7,23,15,0,11,11,9,,,,,,,,,2,1.8517302179971011,,,064,001,2019_May_27_1609,MusicAffectPsychophysiology2019,3.0.5,60.08395904253013,
,,30MonoWAV/30MonoT4.wav,2,1,4,16,,,,,1,7,23,15,,,,,,,,,,,,,,,,,064,001,2019_May_27_1609,MusicAffectPsychophysiology2019,3.0.5,60.08395904253013,
To what extent did the music make you feel ,SAD,30MonoWAV/30MonoH4.wav,2,2,1,8,,,,,1,8,24,7,0,0,0,0,,,4,4.119068202002381,4,1.7346396780048963,4,1.7021263579954393,1,1.8854369670007145,,,064,001,2019_May_27_1609,MusicAffectPsychophysiology2019,3.0.5,60.08395904253013,
To what extent did the music make you feel ,HAPPY,30MonoWAV/30MonoH4.wav,2,2,1,8,,,,,1,8,24,7,0,1,1,6,,,,,,,,,4,2.7847515260000364,,,064,001,2019_May_27_1609,MusicAffectPsychophysiology2019,3.0.5,60.08395904253013,
To what extent did the music make you feel ,ANGRY,30MonoWAV/30MonoH4.wav,2,2,1,8,,,,,1,8,24,7,0,2,2,2,,,,,,,,,1,1.3003298370022094,,,064,001,2019_May_27_1609,MusicAffectPsychophysiology2019,3.0.5,60.08395904253013,
To what extent did the music make you feel ,EXCITED,30MonoWAV/30MonoH4.wav,2,2,1,8,,,,,1,8,24,7,0,3,3,7,,,,,,,,,4,1.1525771629967494,,,064,001,2019_May_27_1609,MusicAffectPsychophysiology2019,3.0.5,60.08395904253013,
To what extent did the music make you feel ,ACTIVE,30MonoWAV/30MonoH4.wav,2,2,1,8,,,,,1,8,24,7,0,4,4,9,,,,,,,,,3,4.834735732001718,,,064,001,2019_May_27_1609,MusicAffectPsychophysiology2019,3.0.5,60.08395904253013,
To what extent did the music make you feel ,ANXIOUS ,30MonoWAV/30MonoH4.wav,2,2,1,8,,,,,1,8,24,7,0,5,5,1,,,,,,,,,1,1.7348590520050493,,,064,001,2019_May_27_1609,MusicAffectPsychophysiology2019,3.0.5,60.08395904253013,
To what extent did the music make you feel ,GUILTY,30MonoWAV/30MonoH4.wav,2,2,1,8,,,,,1,8,24,7,0,6,6,5,,,,,,,,,1,0.7168329729975085,,,064,001,2019_May_27_1609,MusicAffectPsychophysiology2019,3.0.5,60.08395904253013,
To what extent did the music make you feel ,SCARED,30MonoWAV/30MonoH4.wav,2,2,1,8,,,,,1,8,24,7,0,7,7,11,,,,,,,,,1,0.63494941299723,,,064,001,2019_May_27_1609,MusicAffectPsychophysiology2019,3.0.5,60.08395904253013,
To what extent did the music make you feel ,FRUSTRATED,30MonoWAV/30MonoH4.wav,2,2,1,8,,,,,1,8,24,7,0,8,8,3,,,,,,,,,1,0.6183548999979394,,,064,001,2019_May_27_1609,MusicAffectPsychophysiology2019,3.0.5,60.08395904253013,
To what extent did the music make you feel ,ASHAMED,30MonoWAV/30MonoH4.wav,2,2,1,8,,,,,1,8,24,7,0,9,9,4,,,,,,,,,1,0.6355562539974926,,,064,001,2019_May_27_1609,MusicAffectPsychophysiology2019,3.0.5,60.08395904253013,
To what extent did the music make you feel ,TENDER,30MonoWAV/30MonoH4.wav,2,2,1,8,,,,,1,8,24,7,0,10,10,10,,,,,,,,,2,1.1348592020003707,,,064,001,2019_May_27_1609,MusicAffectPsychophysiology2019,3.0.5,60.08395904253013,
To what extent did the music make you feel ,ALERT,30MonoWAV/30MonoH4.wav,2,2,1,8,,,,,1,8,24,7,0,11,11,8,,,,,,,,,3,1.3163207389952731,,,064,001,2019_May_27_1609,MusicAffectPsychophysiology2019,3.0.5,60.08395904253013,
,,30MonoWAV/30MonoH4.wav,2,2,1,8,,,,,1,8,24,7,,,,,,,,,,,,,,,,,064,001,2019_May_27_1609,MusicAffectPsychophysiology2019,3.0.5,60.08395904253013,
To what extent did the music make you feel ,ASHAMED,30MonoWAV/30MonoT3.wav,2,1,4,15,,,,,1,9,25,14,0,0,0,4,,,3,4.051545064001402,4,1.734683987997414,5,2.1687458039959893,1,3.5338639890032937,,,064,001,2019_May_27_1609,MusicAffectPsychophysiology2019,3.0.5,60.08395904253013,
To what extent did the music make you feel ,EXCITED,30MonoWAV/30MonoT3.wav,2,1,4,15,,,,,1,9,25,14,0,1,1,7,,,,,,,,,3,2.966901332998532,,,064,001,2019_May_27_1609,MusicAffectPsychophysiology2019,3.0.5,60.08395904253013,
To what extent did the music make you feel ,SCARED,30MonoWAV/30MonoT3.wav,2,1,4,15,,,,,1,9,25,14,0,2,2,11,,,,,,,,,1,1.3507676789959078,,,064,001,2019_May_27_1609,MusicAffectPsychophysiology2019,3.0.5,60.08395904253013,
To what extent did the music make you feel ,ANXIOUS ,30MonoWAV/30MonoT3.wav,2,1,4,15,,,,,1,9,25,14,0,3,3,1,,,,,,,,,1,1.0681432080018567,,,064,001,2019_May_27_1609,MusicAffectPsychophysiology2019,3.0.5,60.08395904253013,
To what extent did the music make you feel ,ACTIVE,30MonoWAV/30MonoT3.wav,2,1,4,15,,,,,1,9,25,14,0,4,4,9,,,,,,,,,4,1.5850892950038542,,,064,001,2019_May_27_1609,MusicAffectPsychophysiology2019,3.0.5,60.08395904253013,
To what extent did the music make you feel ,TENDER,30MonoWAV/30MonoT3.wav,2,1,4,15,,,,,1,9,25,14,0,5,5,10,,,,,,,,,4,1.151694120002503,,,064,001,2019_May_27_1609,MusicAffectPsychophysiology2019,3.0.5,60.08395904253013,
To what extent did the music make you feel ,HAPPY,30MonoWAV/30MonoT3.wav,2,1,4,15,,,,,1,9,25,14,0,6,6,6,,,,,,,,,4,1.1851746680040378,,,064,001,2019_May_27_1609,MusicAffectPsychophysiology2019,3.0.5,60.08395904253013,
To what extent did the music make you feel ,ALERT,30MonoWAV/30MonoT3.wav,2,1,4,15,,,,,1,9,25,14,0,7,7,8,,,,,,,,,3,1.200579188996926,,,064,001,2019_May_27_1609,MusicAffectPsychophysiology2019,3.0.5,60.08395904253013,
To what extent did the music make you feel ,SAD,30MonoWAV/30MonoT3.wav,2,1,4,15,,,,,1,9,25,14,0,8,8,0,,,,,,,,,1,2.667697393997514,,,064,001,2019_May_27_1609,MusicAffectPsychophysiology2019,3.0.5,60.08395904253013,
To what extent did the music make you feel ,ANGRY,30MonoWAV/30MonoT3.wav,2,1,4,15,,,,,1,9,25,14,0,9,9,2,,,,,,,,,1,0.6514749089983525,,,064,001,2019_May_27_1609,MusicAffectPsychophysiology2019,3.0.5,60.08395904253013,
To what extent did the music make you feel ,FRUSTRATED,30MonoWAV/30MonoT3.wav,2,1,4,15,,,,,1,9,25,14,0,10,10,3,,,,,,,,,1,0.7681463849949068,,,064,001,2019_May_27_1609,MusicAffectPsychophysiology2019,3.0.5,60.08395904253013,
To what extent did the music make you feel ,GUILTY,30MonoWAV/30MonoT3.wav,2,1,4,15,,,,,1,9,25,14,0,11,11,5,,,,,,,,,1,0.9847229389997665,,,064,001,2019_May_27_1609,MusicAffectPsychophysiology2019,3.0.5,60.08395904253013,
,,30MonoWAV/30MonoT3.wav,2,1,4,15,,,,,1,9,25,14,,,,,,,,,,,,,,,,,064,001,2019_May_27_1609,MusicAffectPsychophysiology2019,3.0.5,60.08395904253013,
To what extent did the music make you feel ,ACTIVE,30MonoWAV/30MonoF4.wav,1,2,2,4,,,,,1,10,26,3,0,0,0,9,,,3,3.686417340002663,1,1.9509334670001408,1,1.585537060003844,3,3.1183980999994674,,,064,001,2019_May_27_1609,MusicAffectPsychophysiology2019,3.0.5,60.08395904253013,
To what extent did the music make you feel ,ANXIOUS ,30MonoWAV/30MonoF4.wav,1,2,2,4,,,,,1,10,26,3,0,1,1,1,,,,,,,,,5,3.1856032830037293,,,064,001,2019_May_27_1609,MusicAffectPsychophysiology2019,3.0.5,60.08395904253013,
To what extent did the music make you feel ,SCARED,30MonoWAV/30MonoF4.wav,1,2,2,4,,,,,1,10,26,3,0,2,2,11,,,,,,,,,3,3.9175944220041856,,,064,001,2019_May_27_1609,MusicAffectPsychophysiology2019,3.0.5,60.08395904253013,
To what extent did the music make you feel ,ANGRY,30MonoWAV/30MonoF4.wav,1,2,2,4,,,,,1,10,26,3,0,3,3,2,,,,,,,,,1,2.967063245996542,,,064,001,2019_May_27_1609,MusicAffectPsychophysiology2019,3.0.5,60.08395904253013,
To what extent did the music make you feel ,TENDER,30MonoWAV/30MonoF4.wav,1,2,2,4,,,,,1,10,26,3,0,4,4,10,,,,,,,,,1,1.0025047719973372,,,064,001,2019_May_27_1609,MusicAffectPsychophysiology2019,3.0.5,60.08395904253013,
To what extent did the music make you feel ,ALERT,30MonoWAV/30MonoF4.wav,1,2,2,4,,,,,1,10,26,3,0,5,5,8,,,,,,,,,3,4.501244079001481,,,064,001,2019_May_27_1609,MusicAffectPsychophysiology2019,3.0.5,60.08395904253013,
To what extent did the music make you feel ,SAD,30MonoWAV/30MonoF4.wav,1,2,2,4,,,,,1,10,26,3,0,6,6,0,,,,,,,,,2,2.319197463002638,,,064,001,2019_May_27_1609,MusicAffectPsychophysiology2019,3.0.5,60.08395904253013,
To what extent did the music make you feel ,FRUSTRATED,30MonoWAV/30MonoF4.wav,1,2,2,4,,,,,1,10,26,3,0,7,7,3,,,,,,,,,4,3.83451434699964,,,064,001,2019_May_27_1609,MusicAffectPsychophysiology2019,3.0.5,60.08395904253013,
To what extent did the music make you feel ,GUILTY,30MonoWAV/30MonoF4.wav,1,2,2,4,,,,,1,10,26,3,0,8,8,5,,,,,,,,,2,2.0180800090020057,,,064,001,2019_May_27_1609,MusicAffectPsychophysiology2019,3.0.5,60.08395904253013,
To what extent did the music make you feel ,HAPPY,30MonoWAV/30MonoF4.wav,1,2,2,4,,,,,1,10,26,3,0,9,9,6,,,,,,,,,1,1.751405358001648,,,064,001,2019_May_27_1609,MusicAffectPsychophysiology2019,3.0.5,60.08395904253013,
To what extent did the music make you feel ,EXCITED,30MonoWAV/30MonoF4.wav,1,2,2,4,,,,,1,10,26,3,0,10,10,7,,,,,,,,,1,1.2189682230018661,,,064,001,2019_May_27_1609,MusicAffectPsychophysiology2019,3.0.5,60.08395904253013,
To what extent did the music make you feel ,ASHAMED,30MonoWAV/30MonoF4.wav,1,2,2,4,,,,,1,10,26,3,0,11,11,4,,,,,,,,,2,1.5523629500021343,,,064,001,2019_May_27_1609,MusicAffectPsychophysiology2019,3.0.5,60.08395904253013,
,,30MonoWAV/30MonoF4.wav,1,2,2,4,,,,,1,10,26,3,,,,,,,,,,,,,,,,,064,001,2019_May_27_1609,MusicAffectPsychophysiology2019,3.0.5,60.08395904253013,
To what extent did the music make you feel ,FRUSTRATED,30MonoWAV/30MonoF3.wav,1,2,2,3,,,,,1,11,27,2,0,0,0,3,,,2,4.101881091002724,1,4.88462172599975,4,2.0848728329947335,2,3.8281171639973763,,,064,001,2019_May_27_1609,MusicAffectPsychophysiology2019,3.0.5,60.08395904253013,
To what extent did the music make you feel ,SCARED,30MonoWAV/30MonoF3.wav,1,2,2,3,,,,,1,11,27,2,0,1,1,11,,,,,,,,,3,1.7183881099990685,,,064,001,2019_May_27_1609,MusicAffectPsychophysiology2019,3.0.5,60.08395904253013,
To what extent did the music make you feel ,ACTIVE,30MonoWAV/30MonoF3.wav,1,2,2,3,,,,,1,11,27,2,0,2,2,9,,,,,,,,,3,1.5691874260010081,,,064,001,2019_May_27_1609,MusicAffectPsychophysiology2019,3.0.5,60.08395904253013,
To what extent did the music make you feel ,EXCITED,30MonoWAV/30MonoF3.wav,1,2,2,3,,,,,1,11,27,2,0,3,3,7,,,,,,,,,1,1.303016639998532,,,064,001,2019_May_27_1609,MusicAffectPsychophysiology2019,3.0.5,60.08395904253013,
To what extent did the music make you feel ,TENDER,30MonoWAV/30MonoF3.wav,1,2,2,3,,,,,1,11,27,2,0,4,4,10,,,,,,,,,1,0.9016930660000071,,,064,001,2019_May_27_1609,MusicAffectPsychophysiology2019,3.0.5,60.08395904253013,
To what extent did the music make you feel ,SAD,30MonoWAV/30MonoF3.wav,1,2,2,3,,,,,1,11,27,2,0,5,5,0,,,,,,,,,1,2.9518789959984133,,,064,001,2019_May_27_1609,MusicAffectPsychophysiology2019,3.0.5,60.08395904253013,
To what extent did the music make you feel ,ANGRY,30MonoWAV/30MonoF3.wav,1,2,2,3,,,,,1,11,27,2,0,6,6,2,,,,,,,,,1,1.4356768170036958,,,064,001,2019_May_27_1609,MusicAffectPsychophysiology2019,3.0.5,60.08395904253013,
To what extent did the music make you feel ,ASHAMED,30MonoWAV/30MonoF3.wav,1,2,2,3,,,,,1,11,27,2,0,7,7,4,,,,,,,,,1,1.1177300329945865,,,064,001,2019_May_27_1609,MusicAffectPsychophysiology2019,3.0.5,60.08395904253013,
To what extent did the music make you feel ,HAPPY,30MonoWAV/30MonoF3.wav,1,2,2,3,,,,,1,11,27,2,0,8,8,6,,,,,,,,,1,1.684842843998922,,,064,001,2019_May_27_1609,MusicAffectPsychophysiology2019,3.0.5,60.08395904253013,
To what extent did the music make you feel ,GUILTY,30MonoWAV/30MonoF3.wav,1,2,2,3,,,,,1,11,27,2,0,9,9,5,,,,,,,,,3,2.302152260999719,,,064,001,2019_May_27_1609,MusicAffectPsychophysiology2019,3.0.5,60.08395904253013,
To what extent did the music make you feel ,ANXIOUS ,30MonoWAV/30MonoF3.wav,1,2,2,3,,,,,1,11,27,2,0,10,10,1,,,,,,,,,3,1.7163323079948896,,,064,001,2019_May_27_1609,MusicAffectPsychophysiology2019,3.0.5,60.08395904253013,
To what extent did the music make you feel ,ALERT,30MonoWAV/30MonoF3.wav,1,2,2,3,,,,,1,11,27,2,0,11,11,8,,,,,,,,,4,3.170372751999821,,,064,001,2019_May_27_1609,MusicAffectPsychophysiology2019,3.0.5,60.08395904253013,
,,30MonoWAV/30MonoF3.wav,1,2,2,3,,,,,1,11,27,2,,,,,,,,,,,,,,,,,064,001,2019_May_27_1609,MusicAffectPsychophysiology2019,3.0.5,60.08395904253013,
To what extent did the music make you feel ,SCARED,30MonoWAV/30MonoF2.wav,1,2,2,2,,,,,1,12,28,1,0,0,0,11,,,2,5.384855268996034,1,1.2180378339980962,1,1.2700908549959422,4,3.301327717003005,,,064,001,2019_May_27_1609,MusicAffectPsychophysiology2019,3.0.5,60.08395904253013,
To what extent did the music make you feel ,HAPPY,30MonoWAV/30MonoF2.wav,1,2,2,2,,,,,1,12,28,1,0,1,1,6,,,,,,,,,1,1.0852325589949032,,,064,001,2019_May_27_1609,MusicAffectPsychophysiology2019,3.0.5,60.08395904253013,
To what extent did the music make you feel ,ACTIVE,30MonoWAV/30MonoF2.wav,1,2,2,2,,,,,1,12,28,1,0,2,2,9,,,,,,,,,2,1.8350998669993714,,,064,001,2019_May_27_1609,MusicAffectPsychophysiology2019,3.0.5,60.08395904253013,
To what extent did the music make you feel ,ALERT,30MonoWAV/30MonoF2.wav,1,2,2,2,,,,,1,12,28,1,0,3,3,8,,,,,,,,,4,1.4850193340025726,,,064,001,2019_May_27_1609,MusicAffectPsychophysiology2019,3.0.5,60.08395904253013,
To what extent did the music make you feel ,FRUSTRATED,30MonoWAV/30MonoF2.wav,1,2,2,2,,,,,1,12,28,1,0,4,4,3,,,,,,,,,3,4.117785673006438,,,064,001,2019_May_27_1609,MusicAffectPsychophysiology2019,3.0.5,60.08395904253013,
To what extent did the music make you feel ,ANXIOUS ,30MonoWAV/30MonoF2.wav,1,2,2,2,,,,,1,12,28,1,0,5,5,1,,,,,,,,,5,1.8010127599991392,,,064,001,2019_May_27_1609,MusicAffectPsychophysiology2019,3.0.5,60.08395904253013,
To what extent did the music make you feel ,ASHAMED,30MonoWAV/30MonoF2.wav,1,2,2,2,,,,,1,12,28,1,0,6,6,4,,,,,,,,,1,2.235140582000895,,,064,001,2019_May_27_1609,MusicAffectPsychophysiology2019,3.0.5,60.08395904253013,
To what extent did the music make you feel ,SAD,30MonoWAV/30MonoF2.wav,1,2,2,2,,,,,1,12,28,1,0,7,7,0,,,,,,,,,2,1.6352290990034817,,,064,001,2019_May_27_1609,MusicAffectPsychophysiology2019,3.0.5,60.08395904253013,
To what extent did the music make you feel ,GUILTY,30MonoWAV/30MonoF2.wav,1,2,2,2,,,,,1,12,28,1,0,8,8,5,,,,,,,,,2,2.1678489900004934,,,064,001,2019_May_27_1609,MusicAffectPsychophysiology2019,3.0.5,60.08395904253013,
To what extent did the music make you feel ,ANGRY,30MonoWAV/30MonoF2.wav,1,2,2,2,,,,,1,12,28,1,0,9,9,2,,,,,,,,,1,2.8835555300029228,,,064,001,2019_May_27_1609,MusicAffectPsychophysiology2019,3.0.5,60.08395904253013,
To what extent did the music make you feel ,EXCITED,30MonoWAV/30MonoF2.wav,1,2,2,2,,,,,1,12,28,1,0,10,10,7,,,,,,,,,1,1.1837973400033661,,,064,001,2019_May_27_1609,MusicAffectPsychophysiology2019,3.0.5,60.08395904253013,
To what extent did the music make you feel ,TENDER,30MonoWAV/30MonoF2.wav,1,2,2,2,,,,,1,12,28,1,0,11,11,10,,,,,,,,,1,0.7501350629972876,,,064,001,2019_May_27_1609,MusicAffectPsychophysiology2019,3.0.5,60.08395904253013,
,,30MonoWAV/30MonoF2.wav,1,2,2,2,,,,,1,12,28,1,,,,,,,,,,,,,,,,,064,001,2019_May_27_1609,MusicAffectPsychophysiology2019,3.0.5,60.08395904253013,
To what extent did the music make you feel ,HAPPY,30MonoWAV/30MonoS1.wav,1,1,3,9,,,,,1,13,29,8,0,0,0,6,,,1,4.084137265002937,1,1.7015995559995645,1,3.0175977899998543,1,1.6348046009952668,,,064,001,2019_May_27_1609,MusicAffectPsychophysiology2019,3.0.5,60.08395904253013,
To what extent did the music make you feel ,SAD,30MonoWAV/30MonoS1.wav,1,1,3,9,,,,,1,13,29,8,0,1,1,0,,,,,,,,,3,1.2847787170030642,,,064,001,2019_May_27_1609,MusicAffectPsychophysiology2019,3.0.5,60.08395904253013,
To what extent did the music make you feel ,ASHAMED,30MonoWAV/30MonoS1.wav,1,1,3,9,,,,,1,13,29,8,0,2,2,4,,,,,,,,,3,3.6843943700005184,,,064,001,2019_May_27_1609,MusicAffectPsychophysiology2019,3.0.5,60.08395904253013,
To what extent did the music make you feel ,GUILTY,30MonoWAV/30MonoS1.wav,1,1,3,9,,,,,1,13,29,8,0,3,3,5,,,,,,,,,2,1.0854938109987415,,,064,001,2019_May_27_1609,MusicAffectPsychophysiology2019,3.0.5,60.08395904253013,
To what extent did the music make you feel ,SCARED,30MonoWAV/30MonoS1.wav,1,1,3,9,,,,,1,13,29,8,0,4,4,11,,,,,,,,,2,2.035160163002729,,,064,001,2019_May_27_1609,MusicAffectPsychophysiology2019,3.0.5,60.08395904253013,
To what extent did the music make you feel ,FRUSTRATED,30MonoWAV/30MonoS1.wav,1,1,3,9,,,,,1,13,29,8,0,5,5,3,,,,,,,,,1,1.6359579039999517,,,064,001,2019_May_27_1609,MusicAffectPsychophysiology2019,3.0.5,60.08395904253013,
To what extent did the music make you feel ,TENDER,30MonoWAV/30MonoS1.wav,1,1,3,9,,,,,1,13,29,8,0,6,6,10,,,,,,,,,1,1.1018899429982412,,,064,001,2019_May_27_1609,MusicAffectPsychophysiology2019,3.0.5,60.08395904253013,
To what extent did the music make you feel ,ANGRY,30MonoWAV/30MonoS1.wav,1,1,3,9,,,,,1,13,29,8,0,7,7,2,,,,,,,,,1,1.235558009997476,,,064,001,2019_May_27_1609,MusicAffectPsychophysiology2019,3.0.5,60.08395904253013,
To what extent did the music make you feel ,ANXIOUS ,30MonoWAV/30MonoS1.wav,1,1,3,9,,,,,1,13,29,8,0,8,8,1,,,,,,,,,3,1.3511379429983208,,,064,001,2019_May_27_1609,MusicAffectPsychophysiology2019,3.0.5,60.08395904253013,
To what extent did the music make you feel ,ACTIVE,30MonoWAV/30MonoS1.wav,1,1,3,9,,,,,1,13,29,8,0,9,9,9,,,,,,,,,1,3.319210840993037,,,064,001,2019_May_27_1609,MusicAffectPsychophysiology2019,3.0.5,60.08395904253013,
To what extent did the music make you feel ,ALERT,30MonoWAV/30MonoS1.wav,1,1,3,9,,,,,1,13,29,8,0,10,10,8,,,,,,,,,1,1.7682768529994064,,,064,001,2019_May_27_1609,MusicAffectPsychophysiology2019,3.0.5,60.08395904253013,
To what extent did the music make you feel ,EXCITED,30MonoWAV/30MonoS1.wav,1,1,3,9,,,,,1,13,29,8,0,11,11,7,,,,,,,,,1,5.400741971003299,,,064,001,2019_May_27_1609,MusicAffectPsychophysiology2019,3.0.5,60.08395904253013,
,,30MonoWAV/30MonoS1.wav,1,1,3,9,,,,,1,13,29,8,,,,,,,,,,,,,,,,,064,001,2019_May_27_1609,MusicAffectPsychophysiology2019,3.0.5,60.08395904253013,
To what extent did the music make you feel ,ANGRY,30MonoWAV/30MonoT1.wav,2,1,4,13,,,,,1,14,30,12,0,0,0,2,,,1,3.470112404000247,3,2.552137398997729,2,1.9853322290000506,1,2.0513419039998553,,,064,001,2019_May_27_1609,MusicAffectPsychophysiology2019,3.0.5,60.08395904253013,
To what extent did the music make you feel ,SAD,30MonoWAV/30MonoT1.wav,2,1,4,13,,,,,1,14,30,12,0,1,1,0,,,,,,,,,2,1.9183932409941917,,,064,001,2019_May_27_1609,MusicAffectPsychophysiology2019,3.0.5,60.08395904253013,
To what extent did the music make you feel ,HAPPY,30MonoWAV/30MonoT1.wav,2,1,4,13,,,,,1,14,30,12,0,2,2,6,,,,,,,,,2,3.468431050001527,,,064,001,2019_May_27_1609,MusicAffectPsychophysiology2019,3.0.5,60.08395904253013,
To what extent did the music make you feel ,ALERT,30MonoWAV/30MonoT1.wav,2,1,4,13,,,,,1,14,30,12,0,3,3,8,,,,,,,,,3,1.8348725250034477,,,064,001,2019_May_27_1609,MusicAffectPsychophysiology2019,3.0.5,60.08395904253013,
To what extent did the music make you feel ,FRUSTRATED,30MonoWAV/30MonoT1.wav,2,1,4,13,,,,,1,14,30,12,0,4,4,3,,,,,,,,,1,3.717985896000755,,,064,001,2019_May_27_1609,MusicAffectPsychophysiology2019,3.0.5,60.08395904253013,
To what extent did the music make you feel ,ACTIVE,30MonoWAV/30MonoT1.wav,2,1,4,13,,,,,1,14,30,12,0,5,5,9,,,,,,,,,2,1.3348155860003317,,,064,001,2019_May_27_1609,MusicAffectPsychophysiology2019,3.0.5,60.08395904253013,
To what extent did the music make you feel ,GUILTY,30MonoWAV/30MonoT1.wav,2,1,4,13,,,,,1,14,30,12,0,6,6,5,,,,,,,,,1,0.8351518799972837,,,064,001,2019_May_27_1609,MusicAffectPsychophysiology2019,3.0.5,60.08395904253013,
To what extent did the music make you feel ,ASHAMED,30MonoWAV/30MonoT1.wav,2,1,4,13,,,,,1,14,30,12,0,7,7,4,,,,,,,,,1,2.168109643003845,,,064,001,2019_May_27_1609,MusicAffectPsychophysiology2019,3.0.5,60.08395904253013,
To what extent did the music make you feel ,TENDER,30MonoWAV/30MonoT1.wav,2,1,4,13,,,,,1,14,30,12,0,8,8,10,,,,,,,,,2,3.751612682004634,,,064,001,2019_May_27_1609,MusicAffectPsychophysiology2019,3.0.5,60.08395904253013,
To what extent did the music make you feel ,SCARED,30MonoWAV/30MonoT1.wav,2,1,4,13,,,,,1,14,30,12,0,9,9,11,,,,,,,,,1,1.184829740996065,,,064,001,2019_May_27_1609,MusicAffectPsychophysiology2019,3.0.5,60.08395904253013,
To what extent did the music make you feel ,EXCITED,30MonoWAV/30MonoT1.wav,2,1,4,13,,,,,1,14,30,12,0,10,10,7,,,,,,,,,2,1.4524840310041327,,,064,001,2019_May_27_1609,MusicAffectPsychophysiology2019,3.0.5,60.08395904253013,
To what extent did the music make you feel ,ANXIOUS ,30MonoWAV/30MonoT1.wav,2,1,4,13,,,,,1,14,30,12,0,11,11,1,,,,,,,,,1,0.9358260680019157,,,064,001,2019_May_27_1609,MusicAffectPsychophysiology2019,3.0.5,60.08395904253013,
,,30MonoWAV/30MonoT1.wav,2,1,4,13,,,,,1,14,30,12,,,,,,,,,,,,,,,,,064,001,2019_May_27_1609,MusicAffectPsychophysiology2019,3.0.5,60.08395904253013,
To what extent did the music make you feel ,ANGRY,30MonoWAV/30MonoF1.wav,1,2,2,1,,,,,1,15,31,0,0,0,0,2,,,3,4.367396583002119,1,1.219263790997502,1,1.2020575790011208,1,2.7347333559955587,,,064,001,2019_May_27_1609,MusicAffectPsychophysiology2019,3.0.5,60.08395904253013,
To what extent did the music make you feel ,ALERT,30MonoWAV/30MonoF1.wav,1,2,2,1,,,,,1,15,31,0,0,1,1,8,,,,,,,,,4,2.402306996998959,,,064,001,2019_May_27_1609,MusicAffectPsychophysiology2019,3.0.5,60.08395904253013,
To what extent did the music make you feel ,FRUSTRATED,30MonoWAV/30MonoF1.wav,1,2,2,1,,,,,1,15,31,0,0,2,2,3,,,,,,,,,2,1.751989117001358,,,064,001,2019_May_27_1609,MusicAffectPsychophysiology2019,3.0.5,60.08395904253013,
To what extent did the music make you feel ,GUILTY,30MonoWAV/30MonoF1.wav,1,2,2,1,,,,,1,15,31,0,0,3,3,5,,,,,,,,,2,1.3354300249993685,,,064,001,2019_May_27_1609,MusicAffectPsychophysiology2019,3.0.5,60.08395904253013,
To what extent did the music make you feel ,TENDER,30MonoWAV/30MonoF1.wav,1,2,2,1,,,,,1,15,31,0,0,4,4,10,,,,,,,,,1,0.9851541719981469,,,064,001,2019_May_27_1609,MusicAffectPsychophysiology2019,3.0.5,60.08395904253013,
To what extent did the music make you feel ,ASHAMED,30MonoWAV/30MonoF1.wav,1,2,2,1,,,,,1,15,31,0,0,5,5,4,,,,,,,,,1,2.5683606100064935,,,064,001,2019_May_27_1609,MusicAffectPsychophysiology2019,3.0.5,60.08395904253013,
To what extent did the music make you feel ,SCARED,30MonoWAV/30MonoF1.wav,1,2,2,1,,,,,1,15,31,0,0,6,6,11,,,,,,,,,4,3.700774409000587,,,064,001,2019_May_27_1609,MusicAffectPsychophysiology2019,3.0.5,60.08395904253013,
To what extent did the music make you feel ,ACTIVE,30MonoWAV/30MonoF1.wav,1,2,2,1,,,,,1,15,31,0,0,7,7,9,,,,,,,,,3,2.0346794040015084,,,064,001,2019_May_27_1609,MusicAffectPsychophysiology2019,3.0.5,60.08395904253013,
To what extent did the music make you feel ,EXCITED,30MonoWAV/30MonoF1.wav,1,2,2,1,,,,,1,15,31,0,0,8,8,7,,,,,,,,,1,1.5530731280014152,,,064,001,2019_May_27_1609,MusicAffectPsychophysiology2019,3.0.5,60.08395904253013,
To what extent did the music make you feel ,ANXIOUS ,30MonoWAV/30MonoF1.wav,1,2,2,1,,,,,1,15,31,0,0,9,9,1,,,,,,,,,5,1.5681818629964255,,,064,001,2019_May_27_1609,MusicAffectPsychophysiology2019,3.0.5,60.08395904253013,
To what extent did the music make you feel ,HAPPY,30MonoWAV/30MonoF1.wav,1,2,2,1,,,,,1,15,31,0,0,10,10,6,,,,,,,,,1,1.3848084679993917,,,064,001,2019_May_27_1609,MusicAffectPsychophysiology2019,3.0.5,60.08395904253013,
To what extent did the music make you feel ,SAD,30MonoWAV/30MonoF1.wav,1,2,2,1,,,,,1,15,31,0,0,11,11,0,,,,,,,,,3,1.3680657730001258,,,064,001,2019_May_27_1609,MusicAffectPsychophysiology2019,3.0.5,60.08395904253013,
,,30MonoWAV/30MonoF1.wav,1,2,2,1,,,,,1,15,31,0,,,,,,,,,,,,,,,,,064,001,2019_May_27_1609,MusicAffectPsychophysiology2019,3.0.5,60.08395904253013,
,,,,,,,,,,,,,,,,,,,,,,,,,,,,,space,6.036247709998861,064,001,2019_May_27_1609,MusicAffectPsychophysiology2019,3.0.5,60.08395904253013,
