Instruction,Word,song,valence,arousal,affectcat,songmark,pracwords.thisRepN,pracwords.thisTrialN,pracwords.thisN,pracwords.thisIndex,songtrials.thisRepN,songtrials.thisTrialN,songtrials.thisN,songtrials.thisIndex,words.thisRepN,words.thisTrialN,words.thisN,words.thisIndex,begin.keys,begin.rt,arousalkey.keys,arousalkey.rt,valencekey.keys,valencekey.rt,likekey.keys,likekey.rt,WordResponse.keys,WordResponse.rt,key_resp_2.keys,key_resp_2.rt,participant,session,date,expName,psychopyVersion,frameRate,
,,,,,,,,,,,,,,,,,,,space,12.452016613999149,,,,,,,,,,,065,001,2019_May_28_1212,MusicAffectPsychophysiology2019,3.0.5,58.86431095420871,
,,,,,,,,,,,,,,,,,,,,,3,3.923179119999986,,,,,,,,,065,001,2019_May_28_1212,MusicAffectPsychophysiology2019,3.0.5,58.86431095420871,
,,,,,,,,,,,,,,,,,,,,,,,4,3.1011577879980905,,,,,,,065,001,2019_May_28_1212,MusicAffectPsychophysiology2019,3.0.5,58.86431095420871,
,,,,,,,,,,,,,,,,,,,,,,,,,4,3.5184351969946874,,,,,065,001,2019_May_28_1212,MusicAffectPsychophysiology2019,3.0.5,58.86431095420871,
To what extent did the music make you feel ,SAD,,,,,,0,0,0,0,,,,,,,,,,,,,,,,,1,2.800079212000128,,,065,001,2019_May_28_1212,MusicAffectPsychophysiology2019,3.0.5,58.86431095420871,
To what extent did the music make you feel ,FRUSTRATED,,,,,,0,1,1,3,,,,,,,,,,,,,,,,,1,1.0020817399999942,,,065,001,2019_May_28_1212,MusicAffectPsychophysiology2019,3.0.5,58.86431095420871,
To what extent did the music make you feel ,ASHAMED,,,,,,0,2,2,4,,,,,,,,,,,,,,,,,1,0.8510263110001688,,,065,001,2019_May_28_1212,MusicAffectPsychophysiology2019,3.0.5,58.86431095420871,
To what extent did the music make you feel ,HAPPY,,,,,,0,3,3,6,,,,,,,,,,,,,,,,,4,1.7681001750024734,,,065,001,2019_May_28_1212,MusicAffectPsychophysiology2019,3.0.5,58.86431095420871,
To what extent did the music make you feel ,ALERT,,,,,,0,4,4,8,,,,,,,,,,,,,,,,,4,2.5850879740028176,,,065,001,2019_May_28_1212,MusicAffectPsychophysiology2019,3.0.5,58.86431095420871,
To what extent did the music make you feel ,TENDER,,,,,,0,5,5,10,,,,,,,,,,,,,,,,,4,2.7338867360012955,,,065,001,2019_May_28_1212,MusicAffectPsychophysiology2019,3.0.5,58.86431095420871,
To what extent did the music make you feel ,ANXIOUS ,,,,,,0,6,6,1,,,,,,,,,,,,,,,,,1,1.469472056000086,,,065,001,2019_May_28_1212,MusicAffectPsychophysiology2019,3.0.5,58.86431095420871,
To what extent did the music make you feel ,ANGRY,,,,,,0,7,7,2,,,,,,,,,,,,,,,,,1,0.8189752219986985,,,065,001,2019_May_28_1212,MusicAffectPsychophysiology2019,3.0.5,58.86431095420871,
To what extent did the music make you feel ,ACTIVE,,,,,,0,8,8,9,,,,,,,,,,,,,,,,,3,1.7848286460066447,,,065,001,2019_May_28_1212,MusicAffectPsychophysiology2019,3.0.5,58.86431095420871,
To what extent did the music make you feel ,SCARED,,,,,,0,9,9,11,,,,,,,,,,,,,,,,,1,1.318923487997381,,,065,001,2019_May_28_1212,MusicAffectPsychophysiology2019,3.0.5,58.86431095420871,
To what extent did the music make you feel ,EXCITED,,,,,,0,10,10,7,,,,,,,,,,,,,,,,,2,4.3341165379970334,,,065,001,2019_May_28_1212,MusicAffectPsychophysiology2019,3.0.5,58.86431095420871,
To what extent did the music make you feel ,GUILTY,,,,,,0,11,11,5,,,,,,,,,,,,,,,,,1,1.5178999940035283,,,065,001,2019_May_28_1212,MusicAffectPsychophysiology2019,3.0.5,58.86431095420871,
To what extent did the music make you feel ,ACTIVE,30MonoWAV/30MonoF2.wav,1,2,2,2,,,,,0,0,0,1,0,0,0,9,,,4,3.5183349040016765,1,3.0009996719963965,1,1.633133306997479,4,3.817694384000788,,,065,001,2019_May_28_1212,MusicAffectPsychophysiology2019,3.0.5,58.86431095420871,
To what extent did the music make you feel ,ASHAMED,30MonoWAV/30MonoF2.wav,1,2,2,2,,,,,0,0,0,1,0,1,1,4,,,,,,,,,1,1.469012264002231,,,065,001,2019_May_28_1212,MusicAffectPsychophysiology2019,3.0.5,58.86431095420871,
To what extent did the music make you feel ,SCARED,30MonoWAV/30MonoF2.wav,1,2,2,2,,,,,0,0,0,1,0,2,2,11,,,,,,,,,2,3.6181847260013456,,,065,001,2019_May_28_1212,MusicAffectPsychophysiology2019,3.0.5,58.86431095420871,
To what extent did the music make you feel ,ANXIOUS ,30MonoWAV/30MonoF2.wav,1,2,2,2,,,,,0,0,0,1,0,3,3,1,,,,,,,,,4,2.1341014510035166,,,065,001,2019_May_28_1212,MusicAffectPsychophysiology2019,3.0.5,58.86431095420871,
To what extent did the music make you feel ,EXCITED,30MonoWAV/30MonoF2.wav,1,2,2,2,,,,,0,0,0,1,0,4,4,7,,,,,,,,,1,1.9364310039964039,,,065,001,2019_May_28_1212,MusicAffectPsychophysiology2019,3.0.5,58.86431095420871,
To what extent did the music make you feel ,GUILTY,30MonoWAV/30MonoF2.wav,1,2,2,2,,,,,0,0,0,1,0,5,5,5,,,,,,,,,1,0.9341627670000889,,,065,001,2019_May_28_1212,MusicAffectPsychophysiology2019,3.0.5,58.86431095420871,
To what extent did the music make you feel ,TENDER,30MonoWAV/30MonoF2.wav,1,2,2,2,,,,,0,0,0,1,0,6,6,10,,,,,,,,,1,1.384661247000622,,,065,001,2019_May_28_1212,MusicAffectPsychophysiology2019,3.0.5,58.86431095420871,
To what extent did the music make you feel ,ALERT,30MonoWAV/30MonoF2.wav,1,2,2,2,,,,,0,0,0,1,0,7,7,8,,,,,,,,,4,2.0018131570031983,,,065,001,2019_May_28_1212,MusicAffectPsychophysiology2019,3.0.5,58.86431095420871,
To what extent did the music make you feel ,HAPPY,30MonoWAV/30MonoF2.wav,1,2,2,2,,,,,0,0,0,1,0,8,8,6,,,,,,,,,1,1.3527162310056156,,,065,001,2019_May_28_1212,MusicAffectPsychophysiology2019,3.0.5,58.86431095420871,
To what extent did the music make you feel ,SAD,30MonoWAV/30MonoF2.wav,1,2,2,2,,,,,0,0,0,1,0,9,9,0,,,,,,,,,1,1.767215223997482,,,065,001,2019_May_28_1212,MusicAffectPsychophysiology2019,3.0.5,58.86431095420871,
To what extent did the music make you feel ,FRUSTRATED,30MonoWAV/30MonoF2.wav,1,2,2,2,,,,,0,0,0,1,0,10,10,3,,,,,,,,,1,1.0015093539986992,,,065,001,2019_May_28_1212,MusicAffectPsychophysiology2019,3.0.5,58.86431095420871,
To what extent did the music make you feel ,ANGRY,30MonoWAV/30MonoF2.wav,1,2,2,2,,,,,0,0,0,1,0,11,11,2,,,,,,,,,1,0.8848207949995412,,,065,001,2019_May_28_1212,MusicAffectPsychophysiology2019,3.0.5,58.86431095420871,
,,30MonoWAV/30MonoF2.wav,1,2,2,2,,,,,0,0,0,1,,,,,,,,,,,,,,,,,065,001,2019_May_28_1212,MusicAffectPsychophysiology2019,3.0.5,58.86431095420871,
To what extent did the music make you feel ,HAPPY,30MonoWAV/30MonoT2.wav,2,1,4,14,,,,,0,1,1,13,0,0,0,6,,,2,4.951699324999936,5,2.0511924520033062,5,2.4342508999980055,2,3.3178717010014225,,,065,001,2019_May_28_1212,MusicAffectPsychophysiology2019,3.0.5,58.86431095420871,
To what extent did the music make you feel ,FRUSTRATED,30MonoWAV/30MonoT2.wav,2,1,4,14,,,,,0,1,1,13,0,1,1,3,,,,,,,,,1,0.8186935589983477,,,065,001,2019_May_28_1212,MusicAffectPsychophysiology2019,3.0.5,58.86431095420871,
To what extent did the music make you feel ,SAD,30MonoWAV/30MonoT2.wav,2,1,4,14,,,,,0,1,1,13,0,2,2,0,,,,,,,,,1,0.7179534710012376,,,065,001,2019_May_28_1212,MusicAffectPsychophysiology2019,3.0.5,58.86431095420871,
To what extent did the music make you feel ,EXCITED,30MonoWAV/30MonoT2.wav,2,1,4,14,,,,,0,1,1,13,0,3,3,7,,,,,,,,,1,0.968811550999817,,,065,001,2019_May_28_1212,MusicAffectPsychophysiology2019,3.0.5,58.86431095420871,
To what extent did the music make you feel ,ANGRY,30MonoWAV/30MonoT2.wav,2,1,4,14,,,,,0,1,1,13,0,4,4,2,,,,,,,,,1,0.9849060359993018,,,065,001,2019_May_28_1212,MusicAffectPsychophysiology2019,3.0.5,58.86431095420871,
To what extent did the music make you feel ,ANXIOUS ,30MonoWAV/30MonoT2.wav,2,1,4,14,,,,,0,1,1,13,0,5,5,1,,,,,,,,,1,0.8354010960028972,,,065,001,2019_May_28_1212,MusicAffectPsychophysiology2019,3.0.5,58.86431095420871,
To what extent did the music make you feel ,TENDER,30MonoWAV/30MonoT2.wav,2,1,4,14,,,,,0,1,1,13,0,6,6,10,,,,,,,,,4,1.8848788140021497,,,065,001,2019_May_28_1212,MusicAffectPsychophysiology2019,3.0.5,58.86431095420871,
To what extent did the music make you feel ,SCARED,30MonoWAV/30MonoT2.wav,2,1,4,14,,,,,0,1,1,13,0,7,7,11,,,,,,,,,1,1.085443321004277,,,065,001,2019_May_28_1212,MusicAffectPsychophysiology2019,3.0.5,58.86431095420871,
To what extent did the music make you feel ,GUILTY,30MonoWAV/30MonoT2.wav,2,1,4,14,,,,,0,1,1,13,0,8,8,5,,,,,,,,,1,0.9688574469982996,,,065,001,2019_May_28_1212,MusicAffectPsychophysiology2019,3.0.5,58.86431095420871,
To what extent did the music make you feel ,ALERT,30MonoWAV/30MonoT2.wav,2,1,4,14,,,,,0,1,1,13,0,9,9,8,,,,,,,,,1,1.102206109004328,,,065,001,2019_May_28_1212,MusicAffectPsychophysiology2019,3.0.5,58.86431095420871,
To what extent did the music make you feel ,ASHAMED,30MonoWAV/30MonoT2.wav,2,1,4,14,,,,,0,1,1,13,0,10,10,4,,,,,,,,,1,0.7004313649958931,,,065,001,2019_May_28_1212,MusicAffectPsychophysiology2019,3.0.5,58.86431095420871,
To what extent did the music make you feel ,ACTIVE,30MonoWAV/30MonoT2.wav,2,1,4,14,,,,,0,1,1,13,0,11,11,9,,,,,,,,,1,0.8849889620032627,,,065,001,2019_May_28_1212,MusicAffectPsychophysiology2019,3.0.5,58.86431095420871,
,,30MonoWAV/30MonoT2.wav,2,1,4,14,,,,,0,1,1,13,,,,,,,,,,,,,,,,,065,001,2019_May_28_1212,MusicAffectPsychophysiology2019,3.0.5,58.86431095420871,
To what extent did the music make you feel ,GUILTY,30MonoWAV/30MonoF4.wav,1,2,2,4,,,,,0,2,2,3,0,0,0,5,,,4,4.4867750800040085,2,3.7017572690019733,4,2.0685804349996033,1,1.7511838080026791,,,065,001,2019_May_28_1212,MusicAffectPsychophysiology2019,3.0.5,58.86431095420871,
To what extent did the music make you feel ,TENDER,30MonoWAV/30MonoF4.wav,1,2,2,4,,,,,0,2,2,3,0,1,1,10,,,,,,,,,1,1.0180138330033515,,,065,001,2019_May_28_1212,MusicAffectPsychophysiology2019,3.0.5,58.86431095420871,
To what extent did the music make you feel ,HAPPY,30MonoWAV/30MonoF4.wav,1,2,2,4,,,,,0,2,2,3,0,2,2,6,,,,,,,,,1,1.3837273129975074,,,065,001,2019_May_28_1212,MusicAffectPsychophysiology2019,3.0.5,58.86431095420871,
To what extent did the music make you feel ,SAD,30MonoWAV/30MonoF4.wav,1,2,2,4,,,,,0,2,2,3,0,3,3,0,,,,,,,,,1,0.7853697789978469,,,065,001,2019_May_28_1212,MusicAffectPsychophysiology2019,3.0.5,58.86431095420871,
To what extent did the music make you feel ,ANXIOUS ,30MonoWAV/30MonoF4.wav,1,2,2,4,,,,,0,2,2,3,0,4,4,1,,,,,,,,,1,2.8197741910043987,,,065,001,2019_May_28_1212,MusicAffectPsychophysiology2019,3.0.5,58.86431095420871,
To what extent did the music make you feel ,EXCITED,30MonoWAV/30MonoF4.wav,1,2,2,4,,,,,0,2,2,3,0,5,5,7,,,,,,,,,5,3.067589537000458,,,065,001,2019_May_28_1212,MusicAffectPsychophysiology2019,3.0.5,58.86431095420871,
To what extent did the music make you feel ,ACTIVE,30MonoWAV/30MonoF4.wav,1,2,2,4,,,,,0,2,2,3,0,6,6,9,,,,,,,,,4,1.585009780996188,,,065,001,2019_May_28_1212,MusicAffectPsychophysiology2019,3.0.5,58.86431095420871,
To what extent did the music make you feel ,ANGRY,30MonoWAV/30MonoF4.wav,1,2,2,4,,,,,0,2,2,3,0,7,7,2,,,,,,,,,1,1.235448567000276,,,065,001,2019_May_28_1212,MusicAffectPsychophysiology2019,3.0.5,58.86431095420871,
To what extent did the music make you feel ,SCARED,30MonoWAV/30MonoF4.wav,1,2,2,4,,,,,0,2,2,3,0,8,8,11,,,,,,,,,1,1.3014829480016488,,,065,001,2019_May_28_1212,MusicAffectPsychophysiology2019,3.0.5,58.86431095420871,
To what extent did the music make you feel ,ASHAMED,30MonoWAV/30MonoF4.wav,1,2,2,4,,,,,0,2,2,3,0,9,9,4,,,,,,,,,1,0.8854621339996811,,,065,001,2019_May_28_1212,MusicAffectPsychophysiology2019,3.0.5,58.86431095420871,
To what extent did the music make you feel ,FRUSTRATED,30MonoWAV/30MonoF4.wav,1,2,2,4,,,,,0,2,2,3,0,10,10,3,,,,,,,,,1,0.9347608309981297,,,065,001,2019_May_28_1212,MusicAffectPsychophysiology2019,3.0.5,58.86431095420871,
To what extent did the music make you feel ,ALERT,30MonoWAV/30MonoF4.wav,1,2,2,4,,,,,0,2,2,3,0,11,11,8,,,,,,,,,4,2.1848977400004514,,,065,001,2019_May_28_1212,MusicAffectPsychophysiology2019,3.0.5,58.86431095420871,
,,30MonoWAV/30MonoF4.wav,1,2,2,4,,,,,0,2,2,3,,,,,,,,,,,,,,,,,065,001,2019_May_28_1212,MusicAffectPsychophysiology2019,3.0.5,58.86431095420871,
To what extent did the music make you feel ,ASHAMED,30MonoWAV/30MonoH1.wav,2,2,1,5,,,,,0,3,3,4,0,0,0,4,,,4,3.001996910003072,4,2.733976014998916,5,0.9187119400012307,1,1.335926986001141,,,065,001,2019_May_28_1212,MusicAffectPsychophysiology2019,3.0.5,58.86431095420871,
To what extent did the music make you feel ,HAPPY,30MonoWAV/30MonoH1.wav,2,2,1,5,,,,,0,3,3,4,0,1,1,6,,,,,,,,,4,2.9692190119967563,,,065,001,2019_May_28_1212,MusicAffectPsychophysiology2019,3.0.5,58.86431095420871,
To what extent did the music make you feel ,ANGRY,30MonoWAV/30MonoH1.wav,2,2,1,5,,,,,0,3,3,4,0,2,2,2,,,,,,,,,1,1.9353447149987915,,,065,001,2019_May_28_1212,MusicAffectPsychophysiology2019,3.0.5,58.86431095420871,
To what extent did the music make you feel ,ANXIOUS ,30MonoWAV/30MonoH1.wav,2,2,1,5,,,,,0,3,3,4,0,3,3,1,,,,,,,,,1,0.9355508939988795,,,065,001,2019_May_28_1212,MusicAffectPsychophysiology2019,3.0.5,58.86431095420871,
To what extent did the music make you feel ,TENDER,30MonoWAV/30MonoH1.wav,2,2,1,5,,,,,0,3,3,4,0,4,4,10,,,,,,,,,2,2.3158629559984547,,,065,001,2019_May_28_1212,MusicAffectPsychophysiology2019,3.0.5,58.86431095420871,
To what extent did the music make you feel ,SAD,30MonoWAV/30MonoH1.wav,2,2,1,5,,,,,0,3,3,4,0,5,5,0,,,,,,,,,1,0.8011841180050396,,,065,001,2019_May_28_1212,MusicAffectPsychophysiology2019,3.0.5,58.86431095420871,
To what extent did the music make you feel ,SCARED,30MonoWAV/30MonoH1.wav,2,2,1,5,,,,,0,3,3,4,0,6,6,11,,,,,,,,,1,0.985977621996426,,,065,001,2019_May_28_1212,MusicAffectPsychophysiology2019,3.0.5,58.86431095420871,
To what extent did the music make you feel ,GUILTY,30MonoWAV/30MonoH1.wav,2,2,1,5,,,,,0,3,3,4,0,7,7,5,,,,,,,,,1,0.9028686040037428,,,065,001,2019_May_28_1212,MusicAffectPsychophysiology2019,3.0.5,58.86431095420871,
To what extent did the music make you feel ,EXCITED,30MonoWAV/30MonoH1.wav,2,2,1,5,,,,,0,3,3,4,0,8,8,7,,,,,,,,,4,1.633865269002854,,,065,001,2019_May_28_1212,MusicAffectPsychophysiology2019,3.0.5,58.86431095420871,
To what extent did the music make you feel ,FRUSTRATED,30MonoWAV/30MonoH1.wav,2,2,1,5,,,,,0,3,3,4,0,9,9,3,,,,,,,,,1,1.5678606130022672,,,065,001,2019_May_28_1212,MusicAffectPsychophysiology2019,3.0.5,58.86431095420871,
To what extent did the music make you feel ,ACTIVE,30MonoWAV/30MonoH1.wav,2,2,1,5,,,,,0,3,3,4,0,10,10,9,,,,,,,,,5,1.9357376690022647,,,065,001,2019_May_28_1212,MusicAffectPsychophysiology2019,3.0.5,58.86431095420871,
To what extent did the music make you feel ,ALERT,30MonoWAV/30MonoH1.wav,2,2,1,5,,,,,0,3,3,4,0,11,11,8,,,,,,,,,3,3.9018789410038153,,,065,001,2019_May_28_1212,MusicAffectPsychophysiology2019,3.0.5,58.86431095420871,
,,30MonoWAV/30MonoH1.wav,2,2,1,5,,,,,0,3,3,4,,,,,,,,,,,,,,,,,065,001,2019_May_28_1212,MusicAffectPsychophysiology2019,3.0.5,58.86431095420871,
To what extent did the music make you feel ,SAD,30MonoWAV/30MonoF3.wav,1,2,2,3,,,,,0,4,4,2,0,0,0,0,,,3,6.3345216999950935,1,2.590852355999232,2,4.072742989999824,1,1.236648233003507,,,065,001,2019_May_28_1212,MusicAffectPsychophysiology2019,3.0.5,58.86431095420871,
To what extent did the music make you feel ,ANXIOUS ,30MonoWAV/30MonoF3.wav,1,2,2,3,,,,,0,4,4,2,0,1,1,1,,,,,,,,,3,2.089267443996505,,,065,001,2019_May_28_1212,MusicAffectPsychophysiology2019,3.0.5,58.86431095420871,
To what extent did the music make you feel ,ANGRY,30MonoWAV/30MonoF3.wav,1,2,2,3,,,,,0,4,4,2,0,2,2,2,,,,,,,,,1,1.1846168759948341,,,065,001,2019_May_28_1212,MusicAffectPsychophysiology2019,3.0.5,58.86431095420871,
To what extent did the music make you feel ,FRUSTRATED,30MonoWAV/30MonoF3.wav,1,2,2,3,,,,,0,4,4,2,0,3,3,3,,,,,,,,,1,0.950790449998749,,,065,001,2019_May_28_1212,MusicAffectPsychophysiology2019,3.0.5,58.86431095420871,
To what extent did the music make you feel ,GUILTY,30MonoWAV/30MonoF3.wav,1,2,2,3,,,,,0,4,4,2,0,4,4,5,,,,,,,,,1,0.8521770379957161,,,065,001,2019_May_28_1212,MusicAffectPsychophysiology2019,3.0.5,58.86431095420871,
To what extent did the music make you feel ,EXCITED,30MonoWAV/30MonoF3.wav,1,2,2,3,,,,,0,4,4,2,0,5,5,7,,,,,,,,,1,1.9681117729996913,,,065,001,2019_May_28_1212,MusicAffectPsychophysiology2019,3.0.5,58.86431095420871,
To what extent did the music make you feel ,HAPPY,30MonoWAV/30MonoF3.wav,1,2,2,3,,,,,0,4,4,2,0,6,6,6,,,,,,,,,1,1.0174872019997565,,,065,001,2019_May_28_1212,MusicAffectPsychophysiology2019,3.0.5,58.86431095420871,
To what extent did the music make you feel ,ALERT,30MonoWAV/30MonoF3.wav,1,2,2,3,,,,,0,4,4,2,0,7,7,8,,,,,,,,,4,2.45154268299666,,,065,001,2019_May_28_1212,MusicAffectPsychophysiology2019,3.0.5,58.86431095420871,
To what extent did the music make you feel ,TENDER,30MonoWAV/30MonoF3.wav,1,2,2,3,,,,,0,4,4,2,0,8,8,10,,,,,,,,,1,0.8683324640005594,,,065,001,2019_May_28_1212,MusicAffectPsychophysiology2019,3.0.5,58.86431095420871,
To what extent did the music make you feel ,ASHAMED,30MonoWAV/30MonoF3.wav,1,2,2,3,,,,,0,4,4,2,0,9,9,4,,,,,,,,,1,0.8674958139963564,,,065,001,2019_May_28_1212,MusicAffectPsychophysiology2019,3.0.5,58.86431095420871,
To what extent did the music make you feel ,ACTIVE,30MonoWAV/30MonoF3.wav,1,2,2,3,,,,,0,4,4,2,0,10,10,9,,,,,,,,,3,1.732716131999041,,,065,001,2019_May_28_1212,MusicAffectPsychophysiology2019,3.0.5,58.86431095420871,
To what extent did the music make you feel ,SCARED,30MonoWAV/30MonoF3.wav,1,2,2,3,,,,,0,4,4,2,0,11,11,11,,,,,,,,,2,1.7651489700001548,,,065,001,2019_May_28_1212,MusicAffectPsychophysiology2019,3.0.5,58.86431095420871,
,,30MonoWAV/30MonoF3.wav,1,2,2,3,,,,,0,4,4,2,,,,,,,,,,,,,,,,,065,001,2019_May_28_1212,MusicAffectPsychophysiology2019,3.0.5,58.86431095420871,
To what extent did the music make you feel ,ANXIOUS ,30MonoWAV/30MonoS4.wav,1,1,3,12,,,,,0,5,5,11,0,0,0,1,,,1,3.015594439995766,1,3.718586155999219,4,2.6185501769941766,1,1.469025974998658,,,065,001,2019_May_28_1212,MusicAffectPsychophysiology2019,3.0.5,58.86431095420871,
To what extent did the music make you feel ,TENDER,30MonoWAV/30MonoS4.wav,1,1,3,12,,,,,0,5,5,11,0,1,1,10,,,,,,,,,2,1.9674180749934749,,,065,001,2019_May_28_1212,MusicAffectPsychophysiology2019,3.0.5,58.86431095420871,
To what extent did the music make you feel ,SAD,30MonoWAV/30MonoS4.wav,1,1,3,12,,,,,0,5,5,11,0,2,2,0,,,,,,,,,3,3.051871599003789,,,065,001,2019_May_28_1212,MusicAffectPsychophysiology2019,3.0.5,58.86431095420871,
To what extent did the music make you feel ,ACTIVE,30MonoWAV/30MonoS4.wav,1,1,3,12,,,,,0,5,5,11,0,3,3,9,,,,,,,,,1,2.668230309005594,,,065,001,2019_May_28_1212,MusicAffectPsychophysiology2019,3.0.5,58.86431095420871,
To what extent did the music make you feel ,ALERT,30MonoWAV/30MonoS4.wav,1,1,3,12,,,,,0,5,5,11,0,4,4,8,,,,,,,,,1,0.8848479269945528,,,065,001,2019_May_28_1212,MusicAffectPsychophysiology2019,3.0.5,58.86431095420871,
To what extent did the music make you feel ,ASHAMED,30MonoWAV/30MonoS4.wav,1,1,3,12,,,,,0,5,5,11,0,5,5,4,,,,,,,,,1,1.6523392960007186,,,065,001,2019_May_28_1212,MusicAffectPsychophysiology2019,3.0.5,58.86431095420871,
To what extent did the music make you feel ,EXCITED,30MonoWAV/30MonoS4.wav,1,1,3,12,,,,,0,5,5,11,0,6,6,7,,,,,,,,,1,1.5661433069981285,,,065,001,2019_May_28_1212,MusicAffectPsychophysiology2019,3.0.5,58.86431095420871,
To what extent did the music make you feel ,FRUSTRATED,30MonoWAV/30MonoS4.wav,1,1,3,12,,,,,0,5,5,11,0,7,7,3,,,,,,,,,1,1.1179472049989272,,,065,001,2019_May_28_1212,MusicAffectPsychophysiology2019,3.0.5,58.86431095420871,
To what extent did the music make you feel ,SCARED,30MonoWAV/30MonoS4.wav,1,1,3,12,,,,,0,5,5,11,0,8,8,11,,,,,,,,,1,1.485448710001947,,,065,001,2019_May_28_1212,MusicAffectPsychophysiology2019,3.0.5,58.86431095420871,
To what extent did the music make you feel ,GUILTY,30MonoWAV/30MonoS4.wav,1,1,3,12,,,,,0,5,5,11,0,9,9,5,,,,,,,,,1,0.9162966919975588,,,065,001,2019_May_28_1212,MusicAffectPsychophysiology2019,3.0.5,58.86431095420871,
To what extent did the music make you feel ,HAPPY,30MonoWAV/30MonoS4.wav,1,1,3,12,,,,,0,5,5,11,0,10,10,6,,,,,,,,,1,1.7007232300020405,,,065,001,2019_May_28_1212,MusicAffectPsychophysiology2019,3.0.5,58.86431095420871,
To what extent did the music make you feel ,ANGRY,30MonoWAV/30MonoS4.wav,1,1,3,12,,,,,0,5,5,11,0,11,11,2,,,,,,,,,1,1.16893413499929,,,065,001,2019_May_28_1212,MusicAffectPsychophysiology2019,3.0.5,58.86431095420871,
,,30MonoWAV/30MonoS4.wav,1,1,3,12,,,,,0,5,5,11,,,,,,,,,,,,,,,,,065,001,2019_May_28_1212,MusicAffectPsychophysiology2019,3.0.5,58.86431095420871,
To what extent did the music make you feel ,ASHAMED,30MonoWAV/30MonoH2.wav,2,2,1,6,,,,,0,6,6,5,0,0,0,4,,,3,2.8168486490030773,3,2.6012649959957344,3,2.017622913001105,1,1.7183143660004134,,,065,001,2019_May_28_1212,MusicAffectPsychophysiology2019,3.0.5,58.86431095420871,
To what extent did the music make you feel ,ANXIOUS ,30MonoWAV/30MonoH2.wav,2,2,1,6,,,,,0,6,6,5,0,1,1,1,,,,,,,,,1,2.451786693003669,,,065,001,2019_May_28_1212,MusicAffectPsychophysiology2019,3.0.5,58.86431095420871,
To what extent did the music make you feel ,EXCITED,30MonoWAV/30MonoH2.wav,2,2,1,6,,,,,0,6,6,5,0,2,2,7,,,,,,,,,3,1.6680676589967334,,,065,001,2019_May_28_1212,MusicAffectPsychophysiology2019,3.0.5,58.86431095420871,
To what extent did the music make you feel ,HAPPY,30MonoWAV/30MonoH2.wav,2,2,1,6,,,,,0,6,6,5,0,3,3,6,,,,,,,,,2,1.3848697939974954,,,065,001,2019_May_28_1212,MusicAffectPsychophysiology2019,3.0.5,58.86431095420871,
To what extent did the music make you feel ,ALERT,30MonoWAV/30MonoH2.wav,2,2,1,6,,,,,0,6,6,5,0,4,4,8,,,,,,,,,3,1.6012312009988818,,,065,001,2019_May_28_1212,MusicAffectPsychophysiology2019,3.0.5,58.86431095420871,
To what extent did the music make you feel ,ACTIVE,30MonoWAV/30MonoH2.wav,2,2,1,6,,,,,0,6,6,5,0,5,5,9,,,,,,,,,3,1.684370946000854,,,065,001,2019_May_28_1212,MusicAffectPsychophysiology2019,3.0.5,58.86431095420871,
To what extent did the music make you feel ,FRUSTRATED,30MonoWAV/30MonoH2.wav,2,2,1,6,,,,,0,6,6,5,0,6,6,3,,,,,,,,,1,0.9854571289979503,,,065,001,2019_May_28_1212,MusicAffectPsychophysiology2019,3.0.5,58.86431095420871,
To what extent did the music make you feel ,TENDER,30MonoWAV/30MonoH2.wav,2,2,1,6,,,,,0,6,6,5,0,7,7,10,,,,,,,,,1,0.9688855970016448,,,065,001,2019_May_28_1212,MusicAffectPsychophysiology2019,3.0.5,58.86431095420871,
To what extent did the music make you feel ,GUILTY,30MonoWAV/30MonoH2.wav,2,2,1,6,,,,,0,6,6,5,0,8,8,5,,,,,,,,,1,1.1681396509957267,,,065,001,2019_May_28_1212,MusicAffectPsychophysiology2019,3.0.5,58.86431095420871,
To what extent did the music make you feel ,SAD,30MonoWAV/30MonoH2.wav,2,2,1,6,,,,,0,6,6,5,0,9,9,0,,,,,,,,,1,1.184665930995834,,,065,001,2019_May_28_1212,MusicAffectPsychophysiology2019,3.0.5,58.86431095420871,
To what extent did the music make you feel ,SCARED,30MonoWAV/30MonoH2.wav,2,2,1,6,,,,,0,6,6,5,0,10,10,11,,,,,,,,,1,1.035349509002117,,,065,001,2019_May_28_1212,MusicAffectPsychophysiology2019,3.0.5,58.86431095420871,
To what extent did the music make you feel ,ANGRY,30MonoWAV/30MonoH2.wav,2,2,1,6,,,,,0,6,6,5,0,11,11,2,,,,,,,,,1,0.9683903999975882,,,065,001,2019_May_28_1212,MusicAffectPsychophysiology2019,3.0.5,58.86431095420871,
,,30MonoWAV/30MonoH2.wav,2,2,1,6,,,,,0,6,6,5,,,,,,,,,,,,,,,,,065,001,2019_May_28_1212,MusicAffectPsychophysiology2019,3.0.5,58.86431095420871,
To what extent did the music make you feel ,ASHAMED,30MonoWAV/30MonoH4.wav,2,2,1,8,,,,,0,7,7,7,0,0,0,4,,,4,2.851999133999925,4,1.7360309939977014,4,2.1682836420004605,1,1.9518741260035313,,,065,001,2019_May_28_1212,MusicAffectPsychophysiology2019,3.0.5,58.86431095420871,
To what extent did the music make you feel ,EXCITED,30MonoWAV/30MonoH4.wav,2,2,1,8,,,,,0,7,7,7,0,1,1,7,,,,,,,,,4,3.7009721049980726,,,065,001,2019_May_28_1212,MusicAffectPsychophysiology2019,3.0.5,58.86431095420871,
To what extent did the music make you feel ,GUILTY,30MonoWAV/30MonoH4.wav,2,2,1,8,,,,,0,7,7,7,0,2,2,5,,,,,,,,,1,0.8347575670049991,,,065,001,2019_May_28_1212,MusicAffectPsychophysiology2019,3.0.5,58.86431095420871,
To what extent did the music make you feel ,TENDER,30MonoWAV/30MonoH4.wav,2,2,1,8,,,,,0,7,7,7,0,3,3,10,,,,,,,,,1,1.317501073004678,,,065,001,2019_May_28_1212,MusicAffectPsychophysiology2019,3.0.5,58.86431095420871,
To what extent did the music make you feel ,ALERT,30MonoWAV/30MonoH4.wav,2,2,1,8,,,,,0,7,7,7,0,4,4,8,,,,,,,,,3,3.6343119309967733,,,065,001,2019_May_28_1212,MusicAffectPsychophysiology2019,3.0.5,58.86431095420871,
To what extent did the music make you feel ,ANXIOUS ,30MonoWAV/30MonoH4.wav,2,2,1,8,,,,,0,7,7,7,0,5,5,1,,,,,,,,,1,1.1833869040056015,,,065,001,2019_May_28_1212,MusicAffectPsychophysiology2019,3.0.5,58.86431095420871,
To what extent did the music make you feel ,FRUSTRATED,30MonoWAV/30MonoH4.wav,2,2,1,8,,,,,0,7,7,7,0,6,6,3,,,,,,,,,1,1.1342793739968329,,,065,001,2019_May_28_1212,MusicAffectPsychophysiology2019,3.0.5,58.86431095420871,
To what extent did the music make you feel ,HAPPY,30MonoWAV/30MonoH4.wav,2,2,1,8,,,,,0,7,7,7,0,7,7,6,,,,,,,,,1,0.8349962060019607,,,065,001,2019_May_28_1212,MusicAffectPsychophysiology2019,3.0.5,58.86431095420871,
To what extent did the music make you feel ,ACTIVE,30MonoWAV/30MonoH4.wav,2,2,1,8,,,,,0,7,7,7,0,8,8,9,,,,,,,,,4,4.668584942999587,,,065,001,2019_May_28_1212,MusicAffectPsychophysiology2019,3.0.5,58.86431095420871,
To what extent did the music make you feel ,SAD,30MonoWAV/30MonoH4.wav,2,2,1,8,,,,,0,7,7,7,0,9,9,0,,,,,,,,,1,4.066907313994307,,,065,001,2019_May_28_1212,MusicAffectPsychophysiology2019,3.0.5,58.86431095420871,
To what extent did the music make you feel ,SCARED,30MonoWAV/30MonoH4.wav,2,2,1,8,,,,,0,7,7,7,0,10,10,11,,,,,,,,,1,1.3359222619983484,,,065,001,2019_May_28_1212,MusicAffectPsychophysiology2019,3.0.5,58.86431095420871,
To what extent did the music make you feel ,ANGRY,30MonoWAV/30MonoH4.wav,2,2,1,8,,,,,0,7,7,7,0,11,11,2,,,,,,,,,1,0.8180369609981426,,,065,001,2019_May_28_1212,MusicAffectPsychophysiology2019,3.0.5,58.86431095420871,
,,30MonoWAV/30MonoH4.wav,2,2,1,8,,,,,0,7,7,7,,,,,,,,,,,,,,,,,065,001,2019_May_28_1212,MusicAffectPsychophysiology2019,3.0.5,58.86431095420871,
To what extent did the music make you feel ,SAD,30MonoWAV/30MonoS2.wav,1,1,3,10,,,,,0,8,8,9,0,0,0,0,,,1,2.351407835005375,1,1.2516094710008474,3,2.251408894000633,3,4.434873031997995,,,065,001,2019_May_28_1212,MusicAffectPsychophysiology2019,3.0.5,58.86431095420871,
To what extent did the music make you feel ,ASHAMED,30MonoWAV/30MonoS2.wav,1,1,3,10,,,,,0,8,8,9,0,1,1,4,,,,,,,,,1,2.9168148250028025,,,065,001,2019_May_28_1212,MusicAffectPsychophysiology2019,3.0.5,58.86431095420871,
To what extent did the music make you feel ,ANXIOUS ,30MonoWAV/30MonoS2.wav,1,1,3,10,,,,,0,8,8,9,0,2,2,1,,,,,,,,,1,1.7003055969980778,,,065,001,2019_May_28_1212,MusicAffectPsychophysiology2019,3.0.5,58.86431095420871,
To what extent did the music make you feel ,ANGRY,30MonoWAV/30MonoS2.wav,1,1,3,10,,,,,0,8,8,9,0,3,3,2,,,,,,,,,1,0.686118458994315,,,065,001,2019_May_28_1212,MusicAffectPsychophysiology2019,3.0.5,58.86431095420871,
To what extent did the music make you feel ,SCARED,30MonoWAV/30MonoS2.wav,1,1,3,10,,,,,0,8,8,9,0,4,4,11,,,,,,,,,1,0.6683316620037658,,,065,001,2019_May_28_1212,MusicAffectPsychophysiology2019,3.0.5,58.86431095420871,
To what extent did the music make you feel ,TENDER,30MonoWAV/30MonoS2.wav,1,1,3,10,,,,,0,8,8,9,0,5,5,10,,,,,,,,,1,2.3671952950026025,,,065,001,2019_May_28_1212,MusicAffectPsychophysiology2019,3.0.5,58.86431095420871,
To what extent did the music make you feel ,HAPPY,30MonoWAV/30MonoS2.wav,1,1,3,10,,,,,0,8,8,9,0,6,6,6,,,,,,,,,1,0.9363187060007476,,,065,001,2019_May_28_1212,MusicAffectPsychophysiology2019,3.0.5,58.86431095420871,
To what extent did the music make you feel ,ACTIVE,30MonoWAV/30MonoS2.wav,1,1,3,10,,,,,0,8,8,9,0,7,7,9,,,,,,,,,1,0.9349120229962864,,,065,001,2019_May_28_1212,MusicAffectPsychophysiology2019,3.0.5,58.86431095420871,
To what extent did the music make you feel ,FRUSTRATED,30MonoWAV/30MonoS2.wav,1,1,3,10,,,,,0,8,8,9,0,8,8,3,,,,,,,,,1,1.3510075009980937,,,065,001,2019_May_28_1212,MusicAffectPsychophysiology2019,3.0.5,58.86431095420871,
To what extent did the music make you feel ,EXCITED,30MonoWAV/30MonoS2.wav,1,1,3,10,,,,,0,8,8,9,0,9,9,7,,,,,,,,,1,1.2003044359953492,,,065,001,2019_May_28_1212,MusicAffectPsychophysiology2019,3.0.5,58.86431095420871,
To what extent did the music make you feel ,ALERT,30MonoWAV/30MonoS2.wav,1,1,3,10,,,,,0,8,8,9,0,10,10,8,,,,,,,,,1,0.8845434620016022,,,065,001,2019_May_28_1212,MusicAffectPsychophysiology2019,3.0.5,58.86431095420871,
To what extent did the music make you feel ,GUILTY,30MonoWAV/30MonoS2.wav,1,1,3,10,,,,,0,8,8,9,0,11,11,5,,,,,,,,,1,3.085572530995705,,,065,001,2019_May_28_1212,MusicAffectPsychophysiology2019,3.0.5,58.86431095420871,
,,30MonoWAV/30MonoS2.wav,1,1,3,10,,,,,0,8,8,9,,,,,,,,,,,,,,,,,065,001,2019_May_28_1212,MusicAffectPsychophysiology2019,3.0.5,58.86431095420871,
To what extent did the music make you feel ,HAPPY,30MonoWAV/30MonoS3.wav,1,1,3,11,,,,,0,9,9,10,0,0,0,6,,,1,2.3854392349967384,1,2.2680785529955756,4,2.468321410000499,1,3.2185392880055588,,,065,001,2019_May_28_1212,MusicAffectPsychophysiology2019,3.0.5,58.86431095420871,
To what extent did the music make you feel ,EXCITED,30MonoWAV/30MonoS3.wav,1,1,3,11,,,,,0,9,9,10,0,1,1,7,,,,,,,,,1,1.5860006599978078,,,065,001,2019_May_28_1212,MusicAffectPsychophysiology2019,3.0.5,58.86431095420871,
To what extent did the music make you feel ,SAD,30MonoWAV/30MonoS3.wav,1,1,3,11,,,,,0,9,9,10,0,2,2,0,,,,,,,,,3,2.3489786490026745,,,065,001,2019_May_28_1212,MusicAffectPsychophysiology2019,3.0.5,58.86431095420871,
To what extent did the music make you feel ,ANXIOUS ,30MonoWAV/30MonoS3.wav,1,1,3,11,,,,,0,9,9,10,0,3,3,1,,,,,,,,,2,2.700270929999533,,,065,001,2019_May_28_1212,MusicAffectPsychophysiology2019,3.0.5,58.86431095420871,
To what extent did the music make you feel ,SCARED,30MonoWAV/30MonoS3.wav,1,1,3,11,,,,,0,9,9,10,0,4,4,11,,,,,,,,,1,1.5032938119984465,,,065,001,2019_May_28_1212,MusicAffectPsychophysiology2019,3.0.5,58.86431095420871,
To what extent did the music make you feel ,GUILTY,30MonoWAV/30MonoS3.wav,1,1,3,11,,,,,0,9,9,10,0,5,5,5,,,,,,,,,1,2.9154229769992526,,,065,001,2019_May_28_1212,MusicAffectPsychophysiology2019,3.0.5,58.86431095420871,
To what extent did the music make you feel ,TENDER,30MonoWAV/30MonoS3.wav,1,1,3,11,,,,,0,9,9,10,0,6,6,10,,,,,,,,,1,0.7668689170022844,,,065,001,2019_May_28_1212,MusicAffectPsychophysiology2019,3.0.5,58.86431095420871,
To what extent did the music make you feel ,ASHAMED,30MonoWAV/30MonoS3.wav,1,1,3,11,,,,,0,9,9,10,0,7,7,4,,,,,,,,,1,1.2002263929971377,,,065,001,2019_May_28_1212,MusicAffectPsychophysiology2019,3.0.5,58.86431095420871,
To what extent did the music make you feel ,ACTIVE,30MonoWAV/30MonoS3.wav,1,1,3,11,,,,,0,9,9,10,0,8,8,9,,,,,,,,,1,1.7824401940015377,,,065,001,2019_May_28_1212,MusicAffectPsychophysiology2019,3.0.5,58.86431095420871,
To what extent did the music make you feel ,FRUSTRATED,30MonoWAV/30MonoS3.wav,1,1,3,11,,,,,0,9,9,10,0,9,9,3,,,,,,,,,1,1.234303880999505,,,065,001,2019_May_28_1212,MusicAffectPsychophysiology2019,3.0.5,58.86431095420871,
To what extent did the music make you feel ,ANGRY,30MonoWAV/30MonoS3.wav,1,1,3,11,,,,,0,9,9,10,0,10,10,2,,,,,,,,,1,3.5845346040005097,,,065,001,2019_May_28_1212,MusicAffectPsychophysiology2019,3.0.5,58.86431095420871,
To what extent did the music make you feel ,ALERT,30MonoWAV/30MonoS3.wav,1,1,3,11,,,,,0,9,9,10,0,11,11,8,,,,,,,,,1,1.2003981259986176,,,065,001,2019_May_28_1212,MusicAffectPsychophysiology2019,3.0.5,58.86431095420871,
,,30MonoWAV/30MonoS3.wav,1,1,3,11,,,,,0,9,9,10,,,,,,,,,,,,,,,,,065,001,2019_May_28_1212,MusicAffectPsychophysiology2019,3.0.5,58.86431095420871,
To what extent did the music make you feel ,ANGRY,30MonoWAV/30MonoF1.wav,1,2,2,1,,,,,0,10,10,0,0,0,0,2,,,5,3.318583720996685,1,1.3182685740030138,2,3.619045346000348,1,2.2513982840027893,,,065,001,2019_May_28_1212,MusicAffectPsychophysiology2019,3.0.5,58.86431095420871,
To what extent did the music make you feel ,SCARED,30MonoWAV/30MonoF1.wav,1,2,2,1,,,,,0,10,10,0,0,1,1,11,,,,,,,,,2,1.4847813670057803,,,065,001,2019_May_28_1212,MusicAffectPsychophysiology2019,3.0.5,58.86431095420871,
To what extent did the music make you feel ,EXCITED,30MonoWAV/30MonoF1.wav,1,2,2,1,,,,,0,10,10,0,0,2,2,7,,,,,,,,,2,1.7186065170026268,,,065,001,2019_May_28_1212,MusicAffectPsychophysiology2019,3.0.5,58.86431095420871,
To what extent did the music make you feel ,TENDER,30MonoWAV/30MonoF1.wav,1,2,2,1,,,,,0,10,10,0,0,3,3,10,,,,,,,,,1,0.8372394739999436,,,065,001,2019_May_28_1212,MusicAffectPsychophysiology2019,3.0.5,58.86431095420871,
To what extent did the music make you feel ,GUILTY,30MonoWAV/30MonoF1.wav,1,2,2,1,,,,,0,10,10,0,0,4,4,5,,,,,,,,,1,2.2685424930023146,,,065,001,2019_May_28_1212,MusicAffectPsychophysiology2019,3.0.5,58.86431095420871,
To what extent did the music make you feel ,HAPPY,30MonoWAV/30MonoF1.wav,1,2,2,1,,,,,0,10,10,0,0,5,5,6,,,,,,,,,1,1.132921090000309,,,065,001,2019_May_28_1212,MusicAffectPsychophysiology2019,3.0.5,58.86431095420871,
To what extent did the music make you feel ,ASHAMED,30MonoWAV/30MonoF1.wav,1,2,2,1,,,,,0,10,10,0,0,6,6,4,,,,,,,,,1,1.0003713879996212,,,065,001,2019_May_28_1212,MusicAffectPsychophysiology2019,3.0.5,58.86431095420871,
To what extent did the music make you feel ,ALERT,30MonoWAV/30MonoF1.wav,1,2,2,1,,,,,0,10,10,0,0,7,7,8,,,,,,,,,4,2.0006449189968407,,,065,001,2019_May_28_1212,MusicAffectPsychophysiology2019,3.0.5,58.86431095420871,
To what extent did the music make you feel ,ANXIOUS ,30MonoWAV/30MonoF1.wav,1,2,2,1,,,,,0,10,10,0,0,8,8,1,,,,,,,,,3,1.2343739850039128,,,065,001,2019_May_28_1212,MusicAffectPsychophysiology2019,3.0.5,58.86431095420871,
To what extent did the music make you feel ,FRUSTRATED,30MonoWAV/30MonoF1.wav,1,2,2,1,,,,,0,10,10,0,0,9,9,3,,,,,,,,,1,1.3015433730033692,,,065,001,2019_May_28_1212,MusicAffectPsychophysiology2019,3.0.5,58.86431095420871,
To what extent did the music make you feel ,ACTIVE,30MonoWAV/30MonoF1.wav,1,2,2,1,,,,,0,10,10,0,0,10,10,9,,,,,,,,,3,2.3517562269989867,,,065,001,2019_May_28_1212,MusicAffectPsychophysiology2019,3.0.5,58.86431095420871,
To what extent did the music make you feel ,SAD,30MonoWAV/30MonoF1.wav,1,2,2,1,,,,,0,10,10,0,0,11,11,0,,,,,,,,,1,2.851267933001509,,,065,001,2019_May_28_1212,MusicAffectPsychophysiology2019,3.0.5,58.86431095420871,
,,30MonoWAV/30MonoF1.wav,1,2,2,1,,,,,0,10,10,0,,,,,,,,,,,,,,,,,065,001,2019_May_28_1212,MusicAffectPsychophysiology2019,3.0.5,58.86431095420871,
To what extent did the music make you feel ,EXCITED,30MonoWAV/30MonoT4.wav,2,1,4,16,,,,,0,11,11,15,0,0,0,7,,,2,3.569064798000909,5,1.7851664359986898,5,1.085051583002496,2,2.784037964003801,,,065,001,2019_May_28_1212,MusicAffectPsychophysiology2019,3.0.5,58.86431095420871,
To what extent did the music make you feel ,ASHAMED,30MonoWAV/30MonoT4.wav,2,1,4,16,,,,,0,11,11,15,0,1,1,4,,,,,,,,,1,0.835288854999817,,,065,001,2019_May_28_1212,MusicAffectPsychophysiology2019,3.0.5,58.86431095420871,
To what extent did the music make you feel ,SAD,30MonoWAV/30MonoT4.wav,2,1,4,16,,,,,0,11,11,15,0,2,2,0,,,,,,,,,1,1.0010237120004604,,,065,001,2019_May_28_1212,MusicAffectPsychophysiology2019,3.0.5,58.86431095420871,
To what extent did the music make you feel ,SCARED,30MonoWAV/30MonoT4.wav,2,1,4,16,,,,,0,11,11,15,0,3,3,11,,,,,,,,,1,1.0182773229971644,,,065,001,2019_May_28_1212,MusicAffectPsychophysiology2019,3.0.5,58.86431095420871,
To what extent did the music make you feel ,ANGRY,30MonoWAV/30MonoT4.wav,2,1,4,16,,,,,0,11,11,15,0,4,4,2,,,,,,,,,1,1.1334083330002613,,,065,001,2019_May_28_1212,MusicAffectPsychophysiology2019,3.0.5,58.86431095420871,
To what extent did the music make you feel ,FRUSTRATED,30MonoWAV/30MonoT4.wav,2,1,4,16,,,,,0,11,11,15,0,5,5,3,,,,,,,,,1,0.8182157219998771,,,065,001,2019_May_28_1212,MusicAffectPsychophysiology2019,3.0.5,58.86431095420871,
To what extent did the music make you feel ,ALERT,30MonoWAV/30MonoT4.wav,2,1,4,16,,,,,0,11,11,15,0,6,6,8,,,,,,,,,2,1.235272502002772,,,065,001,2019_May_28_1212,MusicAffectPsychophysiology2019,3.0.5,58.86431095420871,
To what extent did the music make you feel ,TENDER,30MonoWAV/30MonoT4.wav,2,1,4,16,,,,,0,11,11,15,0,7,7,10,,,,,,,,,3,3.6349273930027266,,,065,001,2019_May_28_1212,MusicAffectPsychophysiology2019,3.0.5,58.86431095420871,
To what extent did the music make you feel ,ANXIOUS ,30MonoWAV/30MonoT4.wav,2,1,4,16,,,,,0,11,11,15,0,8,8,1,,,,,,,,,1,2.319610919999832,,,065,001,2019_May_28_1212,MusicAffectPsychophysiology2019,3.0.5,58.86431095420871,
To what extent did the music make you feel ,HAPPY,30MonoWAV/30MonoT4.wav,2,1,4,16,,,,,0,11,11,15,0,9,9,6,,,,,,,,,4,3.1333307629975025,,,065,001,2019_May_28_1212,MusicAffectPsychophysiology2019,3.0.5,58.86431095420871,
To what extent did the music make you feel ,ACTIVE,30MonoWAV/30MonoT4.wav,2,1,4,16,,,,,0,11,11,15,0,10,10,9,,,,,,,,,2,1.501260444005311,,,065,001,2019_May_28_1212,MusicAffectPsychophysiology2019,3.0.5,58.86431095420871,
To what extent did the music make you feel ,GUILTY,30MonoWAV/30MonoT4.wav,2,1,4,16,,,,,0,11,11,15,0,11,11,5,,,,,,,,,1,1.2350038389995461,,,065,001,2019_May_28_1212,MusicAffectPsychophysiology2019,3.0.5,58.86431095420871,
,,30MonoWAV/30MonoT4.wav,2,1,4,16,,,,,0,11,11,15,,,,,,,,,,,,,,,,,065,001,2019_May_28_1212,MusicAffectPsychophysiology2019,3.0.5,58.86431095420871,
To what extent did the music make you feel ,HAPPY,30MonoWAV/30MonoS1.wav,1,1,3,9,,,,,0,12,12,8,0,0,0,6,,,1,2.3179817219934193,1,2.634396679000929,3,1.9015633239978342,1,2.4346603829981177,,,065,001,2019_May_28_1212,MusicAffectPsychophysiology2019,3.0.5,58.86431095420871,
To what extent did the music make you feel ,ALERT,30MonoWAV/30MonoS1.wav,1,1,3,9,,,,,0,12,12,8,0,1,1,8,,,,,,,,,1,1.051550213000155,,,065,001,2019_May_28_1212,MusicAffectPsychophysiology2019,3.0.5,58.86431095420871,
To what extent did the music make you feel ,ANXIOUS ,30MonoWAV/30MonoS1.wav,1,1,3,9,,,,,0,12,12,8,0,2,2,1,,,,,,,,,1,1.618498855998041,,,065,001,2019_May_28_1212,MusicAffectPsychophysiology2019,3.0.5,58.86431095420871,
To what extent did the music make you feel ,GUILTY,30MonoWAV/30MonoS1.wav,1,1,3,9,,,,,0,12,12,8,0,3,3,5,,,,,,,,,2,2.5001014259978547,,,065,001,2019_May_28_1212,MusicAffectPsychophysiology2019,3.0.5,58.86431095420871,
To what extent did the music make you feel ,ACTIVE,30MonoWAV/30MonoS1.wav,1,1,3,9,,,,,0,12,12,8,0,4,4,9,,,,,,,,,1,2.651618395000696,,,065,001,2019_May_28_1212,MusicAffectPsychophysiology2019,3.0.5,58.86431095420871,
To what extent did the music make you feel ,FRUSTRATED,30MonoWAV/30MonoS1.wav,1,1,3,9,,,,,0,12,12,8,0,5,5,3,,,,,,,,,1,1.1177772679948248,,,065,001,2019_May_28_1212,MusicAffectPsychophysiology2019,3.0.5,58.86431095420871,
To what extent did the music make you feel ,EXCITED,30MonoWAV/30MonoS1.wav,1,1,3,9,,,,,0,12,12,8,0,6,6,7,,,,,,,,,1,1.4849520339994342,,,065,001,2019_May_28_1212,MusicAffectPsychophysiology2019,3.0.5,58.86431095420871,
To what extent did the music make you feel ,ASHAMED,30MonoWAV/30MonoS1.wav,1,1,3,9,,,,,0,12,12,8,0,7,7,4,,,,,,,,,2,1.150974475996918,,,065,001,2019_May_28_1212,MusicAffectPsychophysiology2019,3.0.5,58.86431095420871,
To what extent did the music make you feel ,TENDER,30MonoWAV/30MonoS1.wav,1,1,3,9,,,,,0,12,12,8,0,8,8,10,,,,,,,,,1,1.3846336999995401,,,065,001,2019_May_28_1212,MusicAffectPsychophysiology2019,3.0.5,58.86431095420871,
To what extent did the music make you feel ,ANGRY,30MonoWAV/30MonoS1.wav,1,1,3,9,,,,,0,12,12,8,0,9,9,2,,,,,,,,,1,1.0352066150007886,,,065,001,2019_May_28_1212,MusicAffectPsychophysiology2019,3.0.5,58.86431095420871,
To what extent did the music make you feel ,SCARED,30MonoWAV/30MonoS1.wav,1,1,3,9,,,,,0,12,12,8,0,10,10,11,,,,,,,,,1,1.0186748289997922,,,065,001,2019_May_28_1212,MusicAffectPsychophysiology2019,3.0.5,58.86431095420871,
To what extent did the music make you feel ,SAD,30MonoWAV/30MonoS1.wav,1,1,3,9,,,,,0,12,12,8,0,11,11,0,,,,,,,,,3,2.6841253180027707,,,065,001,2019_May_28_1212,MusicAffectPsychophysiology2019,3.0.5,58.86431095420871,
,,30MonoWAV/30MonoS1.wav,1,1,3,9,,,,,0,12,12,8,,,,,,,,,,,,,,,,,065,001,2019_May_28_1212,MusicAffectPsychophysiology2019,3.0.5,58.86431095420871,
To what extent did the music make you feel ,ACTIVE,30MonoWAV/30MonoT3.wav,2,1,4,15,,,,,0,13,13,14,0,0,0,9,,,2,3.15466543599905,4,3.222303476999514,3,1.339863200999389,1,1.9665425150014926,,,065,001,2019_May_28_1212,MusicAffectPsychophysiology2019,3.0.5,58.86431095420871,
To what extent did the music make you feel ,ANGRY,30MonoWAV/30MonoT3.wav,2,1,4,15,,,,,0,13,13,14,0,1,1,2,,,,,,,,,1,0.6859738929997548,,,065,001,2019_May_28_1212,MusicAffectPsychophysiology2019,3.0.5,58.86431095420871,
To what extent did the music make you feel ,SCARED,30MonoWAV/30MonoT3.wav,2,1,4,15,,,,,0,13,13,14,0,2,2,11,,,,,,,,,1,0.7847055390011519,,,065,001,2019_May_28_1212,MusicAffectPsychophysiology2019,3.0.5,58.86431095420871,
To what extent did the music make you feel ,SAD,30MonoWAV/30MonoT3.wav,2,1,4,15,,,,,0,13,13,14,0,3,3,0,,,,,,,,,1,0.819012397005281,,,065,001,2019_May_28_1212,MusicAffectPsychophysiology2019,3.0.5,58.86431095420871,
To what extent did the music make you feel ,GUILTY,30MonoWAV/30MonoT3.wav,2,1,4,15,,,,,0,13,13,14,0,4,4,5,,,,,,,,,1,0.8682651740018628,,,065,001,2019_May_28_1212,MusicAffectPsychophysiology2019,3.0.5,58.86431095420871,
To what extent did the music make you feel ,TENDER,30MonoWAV/30MonoT3.wav,2,1,4,15,,,,,0,13,13,14,0,5,5,10,,,,,,,,,3,2.06771622600354,,,065,001,2019_May_28_1212,MusicAffectPsychophysiology2019,3.0.5,58.86431095420871,
To what extent did the music make you feel ,ASHAMED,30MonoWAV/30MonoT3.wav,2,1,4,15,,,,,0,13,13,14,0,6,6,4,,,,,,,,,1,1.0183035130030476,,,065,001,2019_May_28_1212,MusicAffectPsychophysiology2019,3.0.5,58.86431095420871,
To what extent did the music make you feel ,ALERT,30MonoWAV/30MonoT3.wav,2,1,4,15,,,,,0,13,13,14,0,7,7,8,,,,,,,,,1,0.8350434490057523,,,065,001,2019_May_28_1212,MusicAffectPsychophysiology2019,3.0.5,58.86431095420871,
To what extent did the music make you feel ,FRUSTRATED,30MonoWAV/30MonoT3.wav,2,1,4,15,,,,,0,13,13,14,0,8,8,3,,,,,,,,,1,1.4188376469974173,,,065,001,2019_May_28_1212,MusicAffectPsychophysiology2019,3.0.5,58.86431095420871,
To what extent did the music make you feel ,ANXIOUS ,30MonoWAV/30MonoT3.wav,2,1,4,15,,,,,0,13,13,14,0,9,9,1,,,,,,,,,1,0.7685309180014883,,,065,001,2019_May_28_1212,MusicAffectPsychophysiology2019,3.0.5,58.86431095420871,
To what extent did the music make you feel ,EXCITED,30MonoWAV/30MonoT3.wav,2,1,4,15,,,,,0,13,13,14,0,10,10,7,,,,,,,,,1,0.96825692600396,,,065,001,2019_May_28_1212,MusicAffectPsychophysiology2019,3.0.5,58.86431095420871,
To what extent did the music make you feel ,HAPPY,30MonoWAV/30MonoT3.wav,2,1,4,15,,,,,0,13,13,14,0,11,11,6,,,,,,,,,2,1.6356017799989786,,,065,001,2019_May_28_1212,MusicAffectPsychophysiology2019,3.0.5,58.86431095420871,
,,30MonoWAV/30MonoT3.wav,2,1,4,15,,,,,0,13,13,14,,,,,,,,,,,,,,,,,065,001,2019_May_28_1212,MusicAffectPsychophysiology2019,3.0.5,58.86431095420871,
To what extent did the music make you feel ,SCARED,30MonoWAV/30MonoH3.wav,2,2,1,7,,,,,0,14,14,6,0,0,0,11,,,4,5.068743490999623,4,3.1023773299966706,3,2.084506088998751,1,1.3677292030042736,,,065,001,2019_May_28_1212,MusicAffectPsychophysiology2019,3.0.5,58.86431095420871,
To what extent did the music make you feel ,ACTIVE,30MonoWAV/30MonoH3.wav,2,2,1,7,,,,,0,14,14,6,0,1,1,9,,,,,,,,,4,2.0520953529994586,,,065,001,2019_May_28_1212,MusicAffectPsychophysiology2019,3.0.5,58.86431095420871,
To what extent did the music make you feel ,ANXIOUS ,30MonoWAV/30MonoH3.wav,2,2,1,7,,,,,0,14,14,6,0,2,2,1,,,,,,,,,1,1.2528491789998952,,,065,001,2019_May_28_1212,MusicAffectPsychophysiology2019,3.0.5,58.86431095420871,
To what extent did the music make you feel ,GUILTY,30MonoWAV/30MonoH3.wav,2,2,1,7,,,,,0,14,14,6,0,3,3,5,,,,,,,,,1,0.8186527409998234,,,065,001,2019_May_28_1212,MusicAffectPsychophysiology2019,3.0.5,58.86431095420871,
To what extent did the music make you feel ,TENDER,30MonoWAV/30MonoH3.wav,2,2,1,7,,,,,0,14,14,6,0,4,4,10,,,,,,,,,1,1.152513918998011,,,065,001,2019_May_28_1212,MusicAffectPsychophysiology2019,3.0.5,58.86431095420871,
To what extent did the music make you feel ,ALERT,30MonoWAV/30MonoH3.wav,2,2,1,7,,,,,0,14,14,6,0,5,5,8,,,,,,,,,4,1.3850204430054873,,,065,001,2019_May_28_1212,MusicAffectPsychophysiology2019,3.0.5,58.86431095420871,
To what extent did the music make you feel ,HAPPY,30MonoWAV/30MonoH3.wav,2,2,1,7,,,,,0,14,14,6,0,6,6,6,,,,,,,,,2,4.135081643995363,,,065,001,2019_May_28_1212,MusicAffectPsychophysiology2019,3.0.5,58.86431095420871,
To what extent did the music make you feel ,ASHAMED,30MonoWAV/30MonoH3.wav,2,2,1,7,,,,,0,14,14,6,0,7,7,4,,,,,,,,,1,1.0349170940025942,,,065,001,2019_May_28_1212,MusicAffectPsychophysiology2019,3.0.5,58.86431095420871,
To what extent did the music make you feel ,SAD,30MonoWAV/30MonoH3.wav,2,2,1,7,,,,,0,14,14,6,0,8,8,0,,,,,,,,,1,0.9667582620022586,,,065,001,2019_May_28_1212,MusicAffectPsychophysiology2019,3.0.5,58.86431095420871,
To what extent did the music make you feel ,FRUSTRATED,30MonoWAV/30MonoH3.wav,2,2,1,7,,,,,0,14,14,6,0,9,9,3,,,,,,,,,1,0.8188562579962309,,,065,001,2019_May_28_1212,MusicAffectPsychophysiology2019,3.0.5,58.86431095420871,
To what extent did the music make you feel ,ANGRY,30MonoWAV/30MonoH3.wav,2,2,1,7,,,,,0,14,14,6,0,10,10,2,,,,,,,,,1,0.98478926000098,,,065,001,2019_May_28_1212,MusicAffectPsychophysiology2019,3.0.5,58.86431095420871,
To what extent did the music make you feel ,EXCITED,30MonoWAV/30MonoH3.wav,2,2,1,7,,,,,0,14,14,6,0,11,11,7,,,,,,,,,3,2.069324135998613,,,065,001,2019_May_28_1212,MusicAffectPsychophysiology2019,3.0.5,58.86431095420871,
,,30MonoWAV/30MonoH3.wav,2,2,1,7,,,,,0,14,14,6,,,,,,,,,,,,,,,,,065,001,2019_May_28_1212,MusicAffectPsychophysiology2019,3.0.5,58.86431095420871,
To what extent did the music make you feel ,SAD,30MonoWAV/30MonoT1.wav,2,1,4,13,,,,,0,15,15,12,0,0,0,0,,,2,3.3843624500004807,5,2.0352145159995416,4,1.0675350700039417,1,1.40221064400248,,,065,001,2019_May_28_1212,MusicAffectPsychophysiology2019,3.0.5,58.86431095420871,
To what extent did the music make you feel ,GUILTY,30MonoWAV/30MonoT1.wav,2,1,4,13,,,,,0,15,15,12,0,1,1,5,,,,,,,,,1,0.9518188920046668,,,065,001,2019_May_28_1212,MusicAffectPsychophysiology2019,3.0.5,58.86431095420871,
To what extent did the music make you feel ,ALERT,30MonoWAV/30MonoT1.wav,2,1,4,13,,,,,0,15,15,12,0,2,2,8,,,,,,,,,1,0.8849395559955155,,,065,001,2019_May_28_1212,MusicAffectPsychophysiology2019,3.0.5,58.86431095420871,
To what extent did the music make you feel ,ANXIOUS ,30MonoWAV/30MonoT1.wav,2,1,4,13,,,,,0,15,15,12,0,3,3,1,,,,,,,,,1,0.8342756229976658,,,065,001,2019_May_28_1212,MusicAffectPsychophysiology2019,3.0.5,58.86431095420871,
To what extent did the music make you feel ,TENDER,30MonoWAV/30MonoT1.wav,2,1,4,13,,,,,0,15,15,12,0,4,4,10,,,,,,,,,4,1.4355845359968953,,,065,001,2019_May_28_1212,MusicAffectPsychophysiology2019,3.0.5,58.86431095420871,
To what extent did the music make you feel ,SCARED,30MonoWAV/30MonoT1.wav,2,1,4,13,,,,,0,15,15,12,0,5,5,11,,,,,,,,,1,1.835349747998407,,,065,001,2019_May_28_1212,MusicAffectPsychophysiology2019,3.0.5,58.86431095420871,
To what extent did the music make you feel ,ANGRY,30MonoWAV/30MonoT1.wav,2,1,4,13,,,,,0,15,15,12,0,6,6,2,,,,,,,,,1,0.7854724120043102,,,065,001,2019_May_28_1212,MusicAffectPsychophysiology2019,3.0.5,58.86431095420871,
To what extent did the music make you feel ,ASHAMED,30MonoWAV/30MonoT1.wav,2,1,4,13,,,,,0,15,15,12,0,7,7,4,,,,,,,,,1,1.0018189979964518,,,065,001,2019_May_28_1212,MusicAffectPsychophysiology2019,3.0.5,58.86431095420871,
To what extent did the music make you feel ,ACTIVE,30MonoWAV/30MonoT1.wav,2,1,4,13,,,,,0,15,15,12,0,8,8,9,,,,,,,,,1,1.518522086997109,,,065,001,2019_May_28_1212,MusicAffectPsychophysiology2019,3.0.5,58.86431095420871,
To what extent did the music make you feel ,EXCITED,30MonoWAV/30MonoT1.wav,2,1,4,13,,,,,0,15,15,12,0,9,9,7,,,,,,,,,1,0.8848346849990776,,,065,001,2019_May_28_1212,MusicAffectPsychophysiology2019,3.0.5,58.86431095420871,
To what extent did the music make you feel ,FRUSTRATED,30MonoWAV/30MonoT1.wav,2,1,4,13,,,,,0,15,15,12,0,10,10,3,,,,,,,,,1,1.5022789369977545,,,065,001,2019_May_28_1212,MusicAffectPsychophysiology2019,3.0.5,58.86431095420871,
To what extent did the music make you feel ,HAPPY,30MonoWAV/30MonoT1.wav,2,1,4,13,,,,,0,15,15,12,0,11,11,6,,,,,,,,,3,1.6010140979997232,,,065,001,2019_May_28_1212,MusicAffectPsychophysiology2019,3.0.5,58.86431095420871,
,,30MonoWAV/30MonoT1.wav,2,1,4,13,,,,,0,15,15,12,,,,,,,,,,,,,,,,,065,001,2019_May_28_1212,MusicAffectPsychophysiology2019,3.0.5,58.86431095420871,
To what extent did the music make you feel ,ANGRY,30MonoWAV/30MonoF1.wav,1,2,2,1,,,,,1,0,16,0,0,0,0,2,,,5,2.9505733780024457,1,2.8510246650039335,2,2.3017368869986967,1,1.4683788729962544,,,065,001,2019_May_28_1212,MusicAffectPsychophysiology2019,3.0.5,58.86431095420871,
To what extent did the music make you feel ,ANXIOUS ,30MonoWAV/30MonoF1.wav,1,2,2,1,,,,,1,0,16,0,0,1,1,1,,,,,,,,,3,3.701922079002543,,,065,001,2019_May_28_1212,MusicAffectPsychophysiology2019,3.0.5,58.86431095420871,
To what extent did the music make you feel ,ALERT,30MonoWAV/30MonoF1.wav,1,2,2,1,,,,,1,0,16,0,0,2,2,8,,,,,,,,,4,1.6679992179997498,,,065,001,2019_May_28_1212,MusicAffectPsychophysiology2019,3.0.5,58.86431095420871,
To what extent did the music make you feel ,ASHAMED,30MonoWAV/30MonoF1.wav,1,2,2,1,,,,,1,0,16,0,0,3,3,4,,,,,,,,,1,1.533220291006728,,,065,001,2019_May_28_1212,MusicAffectPsychophysiology2019,3.0.5,58.86431095420871,
To what extent did the music make you feel ,ACTIVE,30MonoWAV/30MonoF1.wav,1,2,2,1,,,,,1,0,16,0,0,4,4,9,,,,,,,,,3,2.352225939001073,,,065,001,2019_May_28_1212,MusicAffectPsychophysiology2019,3.0.5,58.86431095420871,
To what extent did the music make you feel ,HAPPY,30MonoWAV/30MonoF1.wav,1,2,2,1,,,,,1,0,16,0,0,5,5,6,,,,,,,,,1,1.36889609300124,,,065,001,2019_May_28_1212,MusicAffectPsychophysiology2019,3.0.5,58.86431095420871,
To what extent did the music make you feel ,EXCITED,30MonoWAV/30MonoF1.wav,1,2,2,1,,,,,1,0,16,0,0,6,6,7,,,,,,,,,2,1.5017178769994644,,,065,001,2019_May_28_1212,MusicAffectPsychophysiology2019,3.0.5,58.86431095420871,
To what extent did the music make you feel ,SAD,30MonoWAV/30MonoF1.wav,1,2,2,1,,,,,1,0,16,0,0,7,7,0,,,,,,,,,1,1.7690248629951384,,,065,001,2019_May_28_1212,MusicAffectPsychophysiology2019,3.0.5,58.86431095420871,
To what extent did the music make you feel ,SCARED,30MonoWAV/30MonoF1.wav,1,2,2,1,,,,,1,0,16,0,0,8,8,11,,,,,,,,,2,2.102491502999328,,,065,001,2019_May_28_1212,MusicAffectPsychophysiology2019,3.0.5,58.86431095420871,
To what extent did the music make you feel ,FRUSTRATED,30MonoWAV/30MonoF1.wav,1,2,2,1,,,,,1,0,16,0,0,9,9,3,,,,,,,,,1,1.4851107770009548,,,065,001,2019_May_28_1212,MusicAffectPsychophysiology2019,3.0.5,58.86431095420871,
To what extent did the music make you feel ,GUILTY,30MonoWAV/30MonoF1.wav,1,2,2,1,,,,,1,0,16,0,0,10,10,5,,,,,,,,,1,1.06951741699595,,,065,001,2019_May_28_1212,MusicAffectPsychophysiology2019,3.0.5,58.86431095420871,
To what extent did the music make you feel ,TENDER,30MonoWAV/30MonoF1.wav,1,2,2,1,,,,,1,0,16,0,0,11,11,10,,,,,,,,,1,0.951269028999377,,,065,001,2019_May_28_1212,MusicAffectPsychophysiology2019,3.0.5,58.86431095420871,
,,30MonoWAV/30MonoF1.wav,1,2,2,1,,,,,1,0,16,0,,,,,,,,,,,,,,,,,065,001,2019_May_28_1212,MusicAffectPsychophysiology2019,3.0.5,58.86431095420871,
To what extent did the music make you feel ,SCARED,30MonoWAV/30MonoT2.wav,2,1,4,14,,,,,1,1,17,13,0,0,0,11,,,2,2.518969406999531,4,1.4843443680001656,3,1.2510844179996639,1,1.6019414879992837,,,065,001,2019_May_28_1212,MusicAffectPsychophysiology2019,3.0.5,58.86431095420871,
To what extent did the music make you feel ,TENDER,30MonoWAV/30MonoT2.wav,2,1,4,14,,,,,1,1,17,13,0,1,1,10,,,,,,,,,2,2.5848045899983845,,,065,001,2019_May_28_1212,MusicAffectPsychophysiology2019,3.0.5,58.86431095420871,
To what extent did the music make you feel ,ACTIVE,30MonoWAV/30MonoT2.wav,2,1,4,14,,,,,1,1,17,13,0,2,2,9,,,,,,,,,2,1.3346538080004393,,,065,001,2019_May_28_1212,MusicAffectPsychophysiology2019,3.0.5,58.86431095420871,
To what extent did the music make you feel ,ANGRY,30MonoWAV/30MonoT2.wav,2,1,4,14,,,,,1,1,17,13,0,3,3,2,,,,,,,,,1,1.0019260059998487,,,065,001,2019_May_28_1212,MusicAffectPsychophysiology2019,3.0.5,58.86431095420871,
To what extent did the music make you feel ,FRUSTRATED,30MonoWAV/30MonoT2.wav,2,1,4,14,,,,,1,1,17,13,0,4,4,3,,,,,,,,,1,0.9853866179983015,,,065,001,2019_May_28_1212,MusicAffectPsychophysiology2019,3.0.5,58.86431095420871,
To what extent did the music make you feel ,SAD,30MonoWAV/30MonoT2.wav,2,1,4,14,,,,,1,1,17,13,0,5,5,0,,,,,,,,,1,0.9182062039981247,,,065,001,2019_May_28_1212,MusicAffectPsychophysiology2019,3.0.5,58.86431095420871,
To what extent did the music make you feel ,GUILTY,30MonoWAV/30MonoT2.wav,2,1,4,14,,,,,1,1,17,13,0,6,6,5,,,,,,,,,1,1.9006626100017456,,,065,001,2019_May_28_1212,MusicAffectPsychophysiology2019,3.0.5,58.86431095420871,
To what extent did the music make you feel ,ANXIOUS ,30MonoWAV/30MonoT2.wav,2,1,4,14,,,,,1,1,17,13,0,7,7,1,,,,,,,,,1,1.0364365650020773,,,065,001,2019_May_28_1212,MusicAffectPsychophysiology2019,3.0.5,58.86431095420871,
To what extent did the music make you feel ,HAPPY,30MonoWAV/30MonoT2.wav,2,1,4,14,,,,,1,1,17,13,0,8,8,6,,,,,,,,,3,2.3687891580048017,,,065,001,2019_May_28_1212,MusicAffectPsychophysiology2019,3.0.5,58.86431095420871,
To what extent did the music make you feel ,ASHAMED,30MonoWAV/30MonoT2.wav,2,1,4,14,,,,,1,1,17,13,0,9,9,4,,,,,,,,,1,3.0019621760002337,,,065,001,2019_May_28_1212,MusicAffectPsychophysiology2019,3.0.5,58.86431095420871,
To what extent did the music make you feel ,EXCITED,30MonoWAV/30MonoT2.wav,2,1,4,14,,,,,1,1,17,13,0,10,10,7,,,,,,,,,1,1.1356829430005746,,,065,001,2019_May_28_1212,MusicAffectPsychophysiology2019,3.0.5,58.86431095420871,
To what extent did the music make you feel ,ALERT,30MonoWAV/30MonoT2.wav,2,1,4,14,,,,,1,1,17,13,0,11,11,8,,,,,,,,,1,1.218572056000994,,,065,001,2019_May_28_1212,MusicAffectPsychophysiology2019,3.0.5,58.86431095420871,
,,30MonoWAV/30MonoT2.wav,2,1,4,14,,,,,1,1,17,13,,,,,,,,,,,,,,,,,065,001,2019_May_28_1212,MusicAffectPsychophysiology2019,3.0.5,58.86431095420871,
To what extent did the music make you feel ,FRUSTRATED,30MonoWAV/30MonoF3.wav,1,2,2,3,,,,,1,2,18,2,0,0,0,3,,,4,2.9014950080018025,1,1.0016993649987853,1,2.1168431829937617,1,1.1517759560010745,,,065,001,2019_May_28_1212,MusicAffectPsychophysiology2019,3.0.5,58.86431095420871,
To what extent did the music make you feel ,ANGRY,30MonoWAV/30MonoF3.wav,1,2,2,3,,,,,1,2,18,2,0,1,1,2,,,,,,,,,1,0.9016624500000034,,,065,001,2019_May_28_1212,MusicAffectPsychophysiology2019,3.0.5,58.86431095420871,
To what extent did the music make you feel ,GUILTY,30MonoWAV/30MonoF3.wav,1,2,2,3,,,,,1,2,18,2,0,2,2,5,,,,,,,,,1,0.9849119720020099,,,065,001,2019_May_28_1212,MusicAffectPsychophysiology2019,3.0.5,58.86431095420871,
To what extent did the music make you feel ,ASHAMED,30MonoWAV/30MonoF3.wav,1,2,2,3,,,,,1,2,18,2,0,3,3,4,,,,,,,,,1,0.8843604320063605,,,065,001,2019_May_28_1212,MusicAffectPsychophysiology2019,3.0.5,58.86431095420871,
To what extent did the music make you feel ,TENDER,30MonoWAV/30MonoF3.wav,1,2,2,3,,,,,1,2,18,2,0,4,4,10,,,,,,,,,1,0.8519206830023904,,,065,001,2019_May_28_1212,MusicAffectPsychophysiology2019,3.0.5,58.86431095420871,
To what extent did the music make you feel ,ACTIVE,30MonoWAV/30MonoF3.wav,1,2,2,3,,,,,1,2,18,2,0,5,5,9,,,,,,,,,2,2.418313793001289,,,065,001,2019_May_28_1212,MusicAffectPsychophysiology2019,3.0.5,58.86431095420871,
To what extent did the music make you feel ,ALERT,30MonoWAV/30MonoF3.wav,1,2,2,3,,,,,1,2,18,2,0,6,6,8,,,,,,,,,3,1.384392852000019,,,065,001,2019_May_28_1212,MusicAffectPsychophysiology2019,3.0.5,58.86431095420871,
To what extent did the music make you feel ,SAD,30MonoWAV/30MonoF3.wav,1,2,2,3,,,,,1,2,18,2,0,7,7,0,,,,,,,,,1,1.15332784599741,,,065,001,2019_May_28_1212,MusicAffectPsychophysiology2019,3.0.5,58.86431095420871,
To what extent did the music make you feel ,HAPPY,30MonoWAV/30MonoF3.wav,1,2,2,3,,,,,1,2,18,2,0,8,8,6,,,,,,,,,1,2.1188994830008596,,,065,001,2019_May_28_1212,MusicAffectPsychophysiology2019,3.0.5,58.86431095420871,
To what extent did the music make you feel ,ANXIOUS ,30MonoWAV/30MonoF3.wav,1,2,2,3,,,,,1,2,18,2,0,9,9,1,,,,,,,,,3,2.718320946005406,,,065,001,2019_May_28_1212,MusicAffectPsychophysiology2019,3.0.5,58.86431095420871,
To what extent did the music make you feel ,EXCITED,30MonoWAV/30MonoF3.wav,1,2,2,3,,,,,1,2,18,2,0,10,10,7,,,,,,,,,1,1.8017904000007547,,,065,001,2019_May_28_1212,MusicAffectPsychophysiology2019,3.0.5,58.86431095420871,
To what extent did the music make you feel ,SCARED,30MonoWAV/30MonoF3.wav,1,2,2,3,,,,,1,2,18,2,0,11,11,11,,,,,,,,,2,1.7346429720055312,,,065,001,2019_May_28_1212,MusicAffectPsychophysiology2019,3.0.5,58.86431095420871,
,,30MonoWAV/30MonoF3.wav,1,2,2,3,,,,,1,2,18,2,,,,,,,,,,,,,,,,,065,001,2019_May_28_1212,MusicAffectPsychophysiology2019,3.0.5,58.86431095420871,
To what extent did the music make you feel ,ACTIVE,30MonoWAV/30MonoH4.wav,2,2,1,8,,,,,1,3,19,7,0,0,0,9,,,4,2.39950571499503,4,1.7855281679949258,4,1.9355781369959004,3,3.6023866920004366,,,065,001,2019_May_28_1212,MusicAffectPsychophysiology2019,3.0.5,58.86431095420871,
To what extent did the music make you feel ,FRUSTRATED,30MonoWAV/30MonoH4.wav,2,2,1,8,,,,,1,3,19,7,0,1,1,3,,,,,,,,,1,1.5844975430009072,,,065,001,2019_May_28_1212,MusicAffectPsychophysiology2019,3.0.5,58.86431095420871,
To what extent did the music make you feel ,EXCITED,30MonoWAV/30MonoH4.wav,2,2,1,8,,,,,1,3,19,7,0,2,2,7,,,,,,,,,4,1.8176706899976125,,,065,001,2019_May_28_1212,MusicAffectPsychophysiology2019,3.0.5,58.86431095420871,
To what extent did the music make you feel ,TENDER,30MonoWAV/30MonoH4.wav,2,2,1,8,,,,,1,3,19,7,0,3,3,10,,,,,,,,,1,0.9680788980040234,,,065,001,2019_May_28_1212,MusicAffectPsychophysiology2019,3.0.5,58.86431095420871,
To what extent did the music make you feel ,ASHAMED,30MonoWAV/30MonoH4.wav,2,2,1,8,,,,,1,3,19,7,0,4,4,4,,,,,,,,,1,0.9515024789943709,,,065,001,2019_May_28_1212,MusicAffectPsychophysiology2019,3.0.5,58.86431095420871,
To what extent did the music make you feel ,GUILTY,30MonoWAV/30MonoH4.wav,2,2,1,8,,,,,1,3,19,7,0,5,5,5,,,,,,,,,1,0.8351277949986979,,,065,001,2019_May_28_1212,MusicAffectPsychophysiology2019,3.0.5,58.86431095420871,
To what extent did the music make you feel ,ALERT,30MonoWAV/30MonoH4.wav,2,2,1,8,,,,,1,3,19,7,0,6,6,8,,,,,,,,,3,1.7021571730001597,,,065,001,2019_May_28_1212,MusicAffectPsychophysiology2019,3.0.5,58.86431095420871,
To what extent did the music make you feel ,ANGRY,30MonoWAV/30MonoH4.wav,2,2,1,8,,,,,1,3,19,7,0,7,7,2,,,,,,,,,1,1.2830192199980957,,,065,001,2019_May_28_1212,MusicAffectPsychophysiology2019,3.0.5,58.86431095420871,
To what extent did the music make you feel ,SAD,30MonoWAV/30MonoH4.wav,2,2,1,8,,,,,1,3,19,7,0,8,8,0,,,,,,,,,1,0.7517616740005906,,,065,001,2019_May_28_1212,MusicAffectPsychophysiology2019,3.0.5,58.86431095420871,
To what extent did the music make you feel ,ANXIOUS ,30MonoWAV/30MonoH4.wav,2,2,1,8,,,,,1,3,19,7,0,9,9,1,,,,,,,,,1,1.849885911004094,,,065,001,2019_May_28_1212,MusicAffectPsychophysiology2019,3.0.5,58.86431095420871,
To what extent did the music make you feel ,HAPPY,30MonoWAV/30MonoH4.wav,2,2,1,8,,,,,1,3,19,7,0,10,10,6,,,,,,,,,4,1.4347846539967577,,,065,001,2019_May_28_1212,MusicAffectPsychophysiology2019,3.0.5,58.86431095420871,
To what extent did the music make you feel ,SCARED,30MonoWAV/30MonoH4.wav,2,2,1,8,,,,,1,3,19,7,0,11,11,11,,,,,,,,,1,3.034435455003404,,,065,001,2019_May_28_1212,MusicAffectPsychophysiology2019,3.0.5,58.86431095420871,
,,30MonoWAV/30MonoH4.wav,2,2,1,8,,,,,1,3,19,7,,,,,,,,,,,,,,,,,065,001,2019_May_28_1212,MusicAffectPsychophysiology2019,3.0.5,58.86431095420871,
To what extent did the music make you feel ,ALERT,30MonoWAV/30MonoH2.wav,2,2,1,6,,,,,1,4,20,5,0,0,0,8,,,3,2.102265563000401,3,1.551594488999399,3,1.1523002880057902,2,3.1321918909961823,,,065,001,2019_May_28_1212,MusicAffectPsychophysiology2019,3.0.5,58.86431095420871,
To what extent did the music make you feel ,EXCITED,30MonoWAV/30MonoH2.wav,2,2,1,6,,,,,1,4,20,5,0,1,1,7,,,,,,,,,2,3.1495774180002627,,,065,001,2019_May_28_1212,MusicAffectPsychophysiology2019,3.0.5,58.86431095420871,
To what extent did the music make you feel ,SCARED,30MonoWAV/30MonoH2.wav,2,2,1,6,,,,,1,4,20,5,0,2,2,11,,,,,,,,,1,0.8203623190056533,,,065,001,2019_May_28_1212,MusicAffectPsychophysiology2019,3.0.5,58.86431095420871,
To what extent did the music make you feel ,GUILTY,30MonoWAV/30MonoH2.wav,2,2,1,6,,,,,1,4,20,5,0,3,3,5,,,,,,,,,1,2.6684324630041374,,,065,001,2019_May_28_1212,MusicAffectPsychophysiology2019,3.0.5,58.86431095420871,
To what extent did the music make you feel ,ANXIOUS ,30MonoWAV/30MonoH2.wav,2,2,1,6,,,,,1,4,20,5,0,4,4,1,,,,,,,,,1,0.9183910899955663,,,065,001,2019_May_28_1212,MusicAffectPsychophysiology2019,3.0.5,58.86431095420871,
To what extent did the music make you feel ,ASHAMED,30MonoWAV/30MonoH2.wav,2,2,1,6,,,,,1,4,20,5,0,5,5,4,,,,,,,,,1,1.1018491400027415,,,065,001,2019_May_28_1212,MusicAffectPsychophysiology2019,3.0.5,58.86431095420871,
To what extent did the music make you feel ,SAD,30MonoWAV/30MonoH2.wav,2,2,1,6,,,,,1,4,20,5,0,6,6,0,,,,,,,,,1,0.6348018940043403,,,065,001,2019_May_28_1212,MusicAffectPsychophysiology2019,3.0.5,58.86431095420871,
To what extent did the music make you feel ,HAPPY,30MonoWAV/30MonoH2.wav,2,2,1,6,,,,,1,4,20,5,0,7,7,6,,,,,,,,,1,1.602481557005376,,,065,001,2019_May_28_1212,MusicAffectPsychophysiology2019,3.0.5,58.86431095420871,
To what extent did the music make you feel ,TENDER,30MonoWAV/30MonoH2.wav,2,2,1,6,,,,,1,4,20,5,0,8,8,10,,,,,,,,,1,1.2351081870001508,,,065,001,2019_May_28_1212,MusicAffectPsychophysiology2019,3.0.5,58.86431095420871,
To what extent did the music make you feel ,FRUSTRATED,30MonoWAV/30MonoH2.wav,2,2,1,6,,,,,1,4,20,5,0,9,9,3,,,,,,,,,1,0.9833097890004865,,,065,001,2019_May_28_1212,MusicAffectPsychophysiology2019,3.0.5,58.86431095420871,
To what extent did the music make you feel ,ANGRY,30MonoWAV/30MonoH2.wav,2,2,1,6,,,,,1,4,20,5,0,10,10,2,,,,,,,,,1,1.102276734993211,,,065,001,2019_May_28_1212,MusicAffectPsychophysiology2019,3.0.5,58.86431095420871,
To what extent did the music make you feel ,ACTIVE,30MonoWAV/30MonoH2.wav,2,2,1,6,,,,,1,4,20,5,0,11,11,9,,,,,,,,,3,1.685308971995255,,,065,001,2019_May_28_1212,MusicAffectPsychophysiology2019,3.0.5,58.86431095420871,
,,30MonoWAV/30MonoH2.wav,2,2,1,6,,,,,1,4,20,5,,,,,,,,,,,,,,,,,065,001,2019_May_28_1212,MusicAffectPsychophysiology2019,3.0.5,58.86431095420871,
To what extent did the music make you feel ,ACTIVE,30MonoWAV/30MonoS1.wav,1,1,3,9,,,,,1,5,21,8,0,0,0,9,,,2,3.984949300000153,1,3.550636129002669,3,2.0016522119985893,1,1.53519681400212,,,065,001,2019_May_28_1212,MusicAffectPsychophysiology2019,3.0.5,58.86431095420871,
To what extent did the music make you feel ,HAPPY,30MonoWAV/30MonoS1.wav,1,1,3,9,,,,,1,5,21,8,0,1,1,6,,,,,,,,,1,1.4182127120002406,,,065,001,2019_May_28_1212,MusicAffectPsychophysiology2019,3.0.5,58.86431095420871,
To what extent did the music make you feel ,ASHAMED,30MonoWAV/30MonoS1.wav,1,1,3,9,,,,,1,5,21,8,0,2,2,4,,,,,,,,,1,1.8520801060003578,,,065,001,2019_May_28_1212,MusicAffectPsychophysiology2019,3.0.5,58.86431095420871,
To what extent did the music make you feel ,FRUSTRATED,30MonoWAV/30MonoS1.wav,1,1,3,9,,,,,1,5,21,8,0,3,3,3,,,,,,,,,1,1.1348893250033143,,,065,001,2019_May_28_1212,MusicAffectPsychophysiology2019,3.0.5,58.86431095420871,
To what extent did the music make you feel ,ANXIOUS ,30MonoWAV/30MonoS1.wav,1,1,3,9,,,,,1,5,21,8,0,4,4,1,,,,,,,,,1,1.5166534000018146,,,065,001,2019_May_28_1212,MusicAffectPsychophysiology2019,3.0.5,58.86431095420871,
To what extent did the music make you feel ,GUILTY,30MonoWAV/30MonoS1.wav,1,1,3,9,,,,,1,5,21,8,0,5,5,5,,,,,,,,,2,1.6353453699994134,,,065,001,2019_May_28_1212,MusicAffectPsychophysiology2019,3.0.5,58.86431095420871,
To what extent did the music make you feel ,SCARED,30MonoWAV/30MonoS1.wav,1,1,3,9,,,,,1,5,21,8,0,6,6,11,,,,,,,,,1,1.768660285997612,,,065,001,2019_May_28_1212,MusicAffectPsychophysiology2019,3.0.5,58.86431095420871,
To what extent did the music make you feel ,SAD,30MonoWAV/30MonoS1.wav,1,1,3,9,,,,,1,5,21,8,0,7,7,0,,,,,,,,,4,2.2349258520043804,,,065,001,2019_May_28_1212,MusicAffectPsychophysiology2019,3.0.5,58.86431095420871,
To what extent did the music make you feel ,ANGRY,30MonoWAV/30MonoS1.wav,1,1,3,9,,,,,1,5,21,8,0,8,8,2,,,,,,,,,1,2.3013978040035,,,065,001,2019_May_28_1212,MusicAffectPsychophysiology2019,3.0.5,58.86431095420871,
To what extent did the music make you feel ,TENDER,30MonoWAV/30MonoS1.wav,1,1,3,9,,,,,1,5,21,8,0,9,9,10,,,,,,,,,2,1.7681765150045976,,,065,001,2019_May_28_1212,MusicAffectPsychophysiology2019,3.0.5,58.86431095420871,
To what extent did the music make you feel ,EXCITED,30MonoWAV/30MonoS1.wav,1,1,3,9,,,,,1,5,21,8,0,10,10,7,,,,,,,,,1,2.8180849599957583,,,065,001,2019_May_28_1212,MusicAffectPsychophysiology2019,3.0.5,58.86431095420871,
To what extent did the music make you feel ,ALERT,30MonoWAV/30MonoS1.wav,1,1,3,9,,,,,1,5,21,8,0,11,11,8,,,,,,,,,1,1.2845084579967079,,,065,001,2019_May_28_1212,MusicAffectPsychophysiology2019,3.0.5,58.86431095420871,
,,30MonoWAV/30MonoS1.wav,1,1,3,9,,,,,1,5,21,8,,,,,,,,,,,,,,,,,065,001,2019_May_28_1212,MusicAffectPsychophysiology2019,3.0.5,58.86431095420871,
To what extent did the music make you feel ,EXCITED,30MonoWAV/30MonoF2.wav,1,2,2,2,,,,,1,6,22,1,0,0,0,7,,,3,3.188610745004553,1,1.4170864150000853,1,1.5346785619985894,1,1.6347062659988296,,,065,001,2019_May_28_1212,MusicAffectPsychophysiology2019,3.0.5,58.86431095420871,
To what extent did the music make you feel ,SCARED,30MonoWAV/30MonoF2.wav,1,2,2,2,,,,,1,6,22,1,0,1,1,11,,,,,,,,,2,1.5192074380029226,,,065,001,2019_May_28_1212,MusicAffectPsychophysiology2019,3.0.5,58.86431095420871,
To what extent did the music make you feel ,HAPPY,30MonoWAV/30MonoF2.wav,1,2,2,2,,,,,1,6,22,1,0,2,2,6,,,,,,,,,1,0.8685676070017507,,,065,001,2019_May_28_1212,MusicAffectPsychophysiology2019,3.0.5,58.86431095420871,
To what extent did the music make you feel ,ACTIVE,30MonoWAV/30MonoF2.wav,1,2,2,2,,,,,1,6,22,1,0,3,3,9,,,,,,,,,2,2.7843274420010857,,,065,001,2019_May_28_1212,MusicAffectPsychophysiology2019,3.0.5,58.86431095420871,
To what extent did the music make you feel ,ASHAMED,30MonoWAV/30MonoF2.wav,1,2,2,2,,,,,1,6,22,1,0,4,4,4,,,,,,,,,1,0.9847980479971739,,,065,001,2019_May_28_1212,MusicAffectPsychophysiology2019,3.0.5,58.86431095420871,
To what extent did the music make you feel ,ANXIOUS ,30MonoWAV/30MonoF2.wav,1,2,2,2,,,,,1,6,22,1,0,5,5,1,,,,,,,,,4,2.9186379549937556,,,065,001,2019_May_28_1212,MusicAffectPsychophysiology2019,3.0.5,58.86431095420871,
To what extent did the music make you feel ,ANGRY,30MonoWAV/30MonoF2.wav,1,2,2,2,,,,,1,6,22,1,0,6,6,2,,,,,,,,,1,1.568689480998728,,,065,001,2019_May_28_1212,MusicAffectPsychophysiology2019,3.0.5,58.86431095420871,
To what extent did the music make you feel ,SAD,30MonoWAV/30MonoF2.wav,1,2,2,2,,,,,1,6,22,1,0,7,7,0,,,,,,,,,1,0.9848610970002483,,,065,001,2019_May_28_1212,MusicAffectPsychophysiology2019,3.0.5,58.86431095420871,
To what extent did the music make you feel ,ALERT,30MonoWAV/30MonoF2.wav,1,2,2,2,,,,,1,6,22,1,0,8,8,8,,,,,,,,,3,1.3338909530066303,,,065,001,2019_May_28_1212,MusicAffectPsychophysiology2019,3.0.5,58.86431095420871,
To what extent did the music make you feel ,TENDER,30MonoWAV/30MonoF2.wav,1,2,2,2,,,,,1,6,22,1,0,9,9,10,,,,,,,,,1,0.868711221999547,,,065,001,2019_May_28_1212,MusicAffectPsychophysiology2019,3.0.5,58.86431095420871,
To what extent did the music make you feel ,FRUSTRATED,30MonoWAV/30MonoF2.wav,1,2,2,2,,,,,1,6,22,1,0,10,10,3,,,,,,,,,1,1.0018454669989296,,,065,001,2019_May_28_1212,MusicAffectPsychophysiology2019,3.0.5,58.86431095420871,
To what extent did the music make you feel ,GUILTY,30MonoWAV/30MonoF2.wav,1,2,2,2,,,,,1,6,22,1,0,11,11,5,,,,,,,,,1,0.9851229979976779,,,065,001,2019_May_28_1212,MusicAffectPsychophysiology2019,3.0.5,58.86431095420871,
,,30MonoWAV/30MonoF2.wav,1,2,2,2,,,,,1,6,22,1,,,,,,,,,,,,,,,,,065,001,2019_May_28_1212,MusicAffectPsychophysiology2019,3.0.5,58.86431095420871,
To what extent did the music make you feel ,SAD,30MonoWAV/30MonoS2.wav,1,1,3,10,,,,,1,7,23,9,0,0,0,0,,,1,2.1168895489972783,1,2.7694640709960368,3,3.4346765549998963,3,2.901613838999765,,,065,001,2019_May_28_1212,MusicAffectPsychophysiology2019,3.0.5,58.86431095420871,
To what extent did the music make you feel ,ANXIOUS ,30MonoWAV/30MonoS2.wav,1,1,3,10,,,,,1,7,23,9,0,1,1,1,,,,,,,,,1,2.001074886000424,,,065,001,2019_May_28_1212,MusicAffectPsychophysiology2019,3.0.5,58.86431095420871,
To what extent did the music make you feel ,FRUSTRATED,30MonoWAV/30MonoS2.wav,1,1,3,10,,,,,1,7,23,9,0,2,2,3,,,,,,,,,1,1.0836407490060083,,,065,001,2019_May_28_1212,MusicAffectPsychophysiology2019,3.0.5,58.86431095420871,
To what extent did the music make you feel ,HAPPY,30MonoWAV/30MonoS2.wav,1,1,3,10,,,,,1,7,23,9,0,3,3,6,,,,,,,,,1,1.1338535260001663,,,065,001,2019_May_28_1212,MusicAffectPsychophysiology2019,3.0.5,58.86431095420871,
To what extent did the music make you feel ,GUILTY,30MonoWAV/30MonoS2.wav,1,1,3,10,,,,,1,7,23,9,0,4,4,5,,,,,,,,,1,0.9004410929992446,,,065,001,2019_May_28_1212,MusicAffectPsychophysiology2019,3.0.5,58.86431095420871,
To what extent did the music make you feel ,ANGRY,30MonoWAV/30MonoS2.wav,1,1,3,10,,,,,1,7,23,9,0,5,5,2,,,,,,,,,1,0.8508241070012446,,,065,001,2019_May_28_1212,MusicAffectPsychophysiology2019,3.0.5,58.86431095420871,
To what extent did the music make you feel ,ALERT,30MonoWAV/30MonoS2.wav,1,1,3,10,,,,,1,7,23,9,0,6,6,8,,,,,,,,,1,1.4857124999980442,,,065,001,2019_May_28_1212,MusicAffectPsychophysiology2019,3.0.5,58.86431095420871,
To what extent did the music make you feel ,ASHAMED,30MonoWAV/30MonoS2.wav,1,1,3,10,,,,,1,7,23,9,0,7,7,4,,,,,,,,,1,2.4680757129972335,,,065,001,2019_May_28_1212,MusicAffectPsychophysiology2019,3.0.5,58.86431095420871,
To what extent did the music make you feel ,TENDER,30MonoWAV/30MonoS2.wav,1,1,3,10,,,,,1,7,23,9,0,8,8,10,,,,,,,,,1,1.0514803219994064,,,065,001,2019_May_28_1212,MusicAffectPsychophysiology2019,3.0.5,58.86431095420871,
To what extent did the music make you feel ,SCARED,30MonoWAV/30MonoS2.wav,1,1,3,10,,,,,1,7,23,9,0,9,9,11,,,,,,,,,1,1.5523132870002883,,,065,001,2019_May_28_1212,MusicAffectPsychophysiology2019,3.0.5,58.86431095420871,
To what extent did the music make you feel ,ACTIVE,30MonoWAV/30MonoS2.wav,1,1,3,10,,,,,1,7,23,9,0,10,10,9,,,,,,,,,1,1.3347753060006653,,,065,001,2019_May_28_1212,MusicAffectPsychophysiology2019,3.0.5,58.86431095420871,
To what extent did the music make you feel ,EXCITED,30MonoWAV/30MonoS2.wav,1,1,3,10,,,,,1,7,23,9,0,11,11,7,,,,,,,,,1,1.1523365850007394,,,065,001,2019_May_28_1212,MusicAffectPsychophysiology2019,3.0.5,58.86431095420871,
,,30MonoWAV/30MonoS2.wav,1,1,3,10,,,,,1,7,23,9,,,,,,,,,,,,,,,,,065,001,2019_May_28_1212,MusicAffectPsychophysiology2019,3.0.5,58.86431095420871,
To what extent did the music make you feel ,GUILTY,30MonoWAV/30MonoS3.wav,1,1,3,11,,,,,1,8,24,10,0,0,0,5,,,1,2.8003244799983804,1,1.1193024270032765,2,2.534828299001674,2,1.8000492290011607,,,065,001,2019_May_28_1212,MusicAffectPsychophysiology2019,3.0.5,58.86431095420871,
To what extent did the music make you feel ,EXCITED,30MonoWAV/30MonoS3.wav,1,1,3,11,,,,,1,8,24,10,0,1,1,7,,,,,,,,,1,1.5347723250015406,,,065,001,2019_May_28_1212,MusicAffectPsychophysiology2019,3.0.5,58.86431095420871,
To what extent did the music make you feel ,SCARED,30MonoWAV/30MonoS3.wav,1,1,3,11,,,,,1,8,24,10,0,2,2,11,,,,,,,,,1,1.4346546230008244,,,065,001,2019_May_28_1212,MusicAffectPsychophysiology2019,3.0.5,58.86431095420871,
To what extent did the music make you feel ,ACTIVE,30MonoWAV/30MonoS3.wav,1,1,3,11,,,,,1,8,24,10,0,3,3,9,,,,,,,,,1,2.817836472997442,,,065,001,2019_May_28_1212,MusicAffectPsychophysiology2019,3.0.5,58.86431095420871,
To what extent did the music make you feel ,ANGRY,30MonoWAV/30MonoS3.wav,1,1,3,11,,,,,1,8,24,10,0,4,4,2,,,,,,,,,1,1.1518691390010645,,,065,001,2019_May_28_1212,MusicAffectPsychophysiology2019,3.0.5,58.86431095420871,
To what extent did the music make you feel ,HAPPY,30MonoWAV/30MonoS3.wav,1,1,3,11,,,,,1,8,24,10,0,5,5,6,,,,,,,,,1,0.851925900002243,,,065,001,2019_May_28_1212,MusicAffectPsychophysiology2019,3.0.5,58.86431095420871,
To what extent did the music make you feel ,ALERT,30MonoWAV/30MonoS3.wav,1,1,3,11,,,,,1,8,24,10,0,6,6,8,,,,,,,,,1,2.5358652579961927,,,065,001,2019_May_28_1212,MusicAffectPsychophysiology2019,3.0.5,58.86431095420871,
To what extent did the music make you feel ,ANXIOUS ,30MonoWAV/30MonoS3.wav,1,1,3,11,,,,,1,8,24,10,0,7,7,1,,,,,,,,,1,1.1016885150020244,,,065,001,2019_May_28_1212,MusicAffectPsychophysiology2019,3.0.5,58.86431095420871,
To what extent did the music make you feel ,SAD,30MonoWAV/30MonoS3.wav,1,1,3,11,,,,,1,8,24,10,0,8,8,0,,,,,,,,,4,2.0508679050035425,,,065,001,2019_May_28_1212,MusicAffectPsychophysiology2019,3.0.5,58.86431095420871,
To what extent did the music make you feel ,ASHAMED,30MonoWAV/30MonoS3.wav,1,1,3,11,,,,,1,8,24,10,0,9,9,4,,,,,,,,,1,2.484787645000324,,,065,001,2019_May_28_1212,MusicAffectPsychophysiology2019,3.0.5,58.86431095420871,
To what extent did the music make you feel ,FRUSTRATED,30MonoWAV/30MonoS3.wav,1,1,3,11,,,,,1,8,24,10,0,10,10,3,,,,,,,,,1,1.150488472005236,,,065,001,2019_May_28_1212,MusicAffectPsychophysiology2019,3.0.5,58.86431095420871,
To what extent did the music make you feel ,TENDER,30MonoWAV/30MonoS3.wav,1,1,3,11,,,,,1,8,24,10,0,11,11,10,,,,,,,,,1,0.802148651004245,,,065,001,2019_May_28_1212,MusicAffectPsychophysiology2019,3.0.5,58.86431095420871,
,,30MonoWAV/30MonoS3.wav,1,1,3,11,,,,,1,8,24,10,,,,,,,,,,,,,,,,,065,001,2019_May_28_1212,MusicAffectPsychophysiology2019,3.0.5,58.86431095420871,
To what extent did the music make you feel ,SCARED,30MonoWAV/30MonoT3.wav,2,1,4,15,,,,,1,9,25,14,0,0,0,11,,,1,2.2366915730017354,3,1.3540293050027685,3,1.9693127810023725,1,1.2205259530019248,,,065,001,2019_May_28_1212,MusicAffectPsychophysiology2019,3.0.5,58.86431095420871,
To what extent did the music make you feel ,ANGRY,30MonoWAV/30MonoT3.wav,2,1,4,15,,,,,1,9,25,14,0,1,1,2,,,,,,,,,1,0.7388777730011498,,,065,001,2019_May_28_1212,MusicAffectPsychophysiology2019,3.0.5,58.86431095420871,
To what extent did the music make you feel ,EXCITED,30MonoWAV/30MonoT3.wav,2,1,4,15,,,,,1,9,25,14,0,2,2,7,,,,,,,,,1,0.849753423994116,,,065,001,2019_May_28_1212,MusicAffectPsychophysiology2019,3.0.5,58.86431095420871,
To what extent did the music make you feel ,ASHAMED,30MonoWAV/30MonoT3.wav,2,1,4,15,,,,,1,9,25,14,0,3,3,4,,,,,,,,,1,0.9493884399998933,,,065,001,2019_May_28_1212,MusicAffectPsychophysiology2019,3.0.5,58.86431095420871,
To what extent did the music make you feel ,TENDER,30MonoWAV/30MonoT3.wav,2,1,4,15,,,,,1,9,25,14,0,4,4,10,,,,,,,,,3,1.786238830005459,,,065,001,2019_May_28_1212,MusicAffectPsychophysiology2019,3.0.5,58.86431095420871,
To what extent did the music make you feel ,ANXIOUS ,30MonoWAV/30MonoT3.wav,2,1,4,15,,,,,1,9,25,14,0,5,5,1,,,,,,,,,1,0.9352601409991621,,,065,001,2019_May_28_1212,MusicAffectPsychophysiology2019,3.0.5,58.86431095420871,
To what extent did the music make you feel ,HAPPY,30MonoWAV/30MonoT3.wav,2,1,4,15,,,,,1,9,25,14,0,6,6,6,,,,,,,,,2,1.5059778889990412,,,065,001,2019_May_28_1212,MusicAffectPsychophysiology2019,3.0.5,58.86431095420871,
To what extent did the music make you feel ,ALERT,30MonoWAV/30MonoT3.wav,2,1,4,15,,,,,1,9,25,14,0,7,7,8,,,,,,,,,1,1.2699107340013143,,,065,001,2019_May_28_1212,MusicAffectPsychophysiology2019,3.0.5,58.86431095420871,
To what extent did the music make you feel ,ACTIVE,30MonoWAV/30MonoT3.wav,2,1,4,15,,,,,1,9,25,14,0,8,8,9,,,,,,,,,1,1.0529257079979288,,,065,001,2019_May_28_1212,MusicAffectPsychophysiology2019,3.0.5,58.86431095420871,
To what extent did the music make you feel ,SAD,30MonoWAV/30MonoT3.wav,2,1,4,15,,,,,1,9,25,14,0,9,9,0,,,,,,,,,2,5.459312147002493,,,065,001,2019_May_28_1212,MusicAffectPsychophysiology2019,3.0.5,58.86431095420871,
To what extent did the music make you feel ,GUILTY,30MonoWAV/30MonoT3.wav,2,1,4,15,,,,,1,9,25,14,0,10,10,5,,,,,,,,,1,3.0687968429992907,,,065,001,2019_May_28_1212,MusicAffectPsychophysiology2019,3.0.5,58.86431095420871,
To what extent did the music make you feel ,FRUSTRATED,30MonoWAV/30MonoT3.wav,2,1,4,15,,,,,1,9,25,14,0,11,11,3,,,,,,,,,1,0.7689969279963407,,,065,001,2019_May_28_1212,MusicAffectPsychophysiology2019,3.0.5,58.86431095420871,
,,30MonoWAV/30MonoT3.wav,2,1,4,15,,,,,1,9,25,14,,,,,,,,,,,,,,,,,065,001,2019_May_28_1212,MusicAffectPsychophysiology2019,3.0.5,58.86431095420871,
To what extent did the music make you feel ,SCARED,30MonoWAV/30MonoT1.wav,2,1,4,13,,,,,1,10,26,12,0,0,0,11,,,2,3.3527283430012176,4,2.100711218001379,4,1.0356556609986,1,1.0205023769958643,,,065,001,2019_May_28_1212,MusicAffectPsychophysiology2019,3.0.5,58.86431095420871,
To what extent did the music make you feel ,TENDER,30MonoWAV/30MonoT1.wav,2,1,4,13,,,,,1,10,26,12,0,1,1,10,,,,,,,,,3,2.100740310997935,,,065,001,2019_May_28_1212,MusicAffectPsychophysiology2019,3.0.5,58.86431095420871,
To what extent did the music make you feel ,GUILTY,30MonoWAV/30MonoT1.wav,2,1,4,13,,,,,1,10,26,12,0,2,2,5,,,,,,,,,1,0.7512469130015234,,,065,001,2019_May_28_1212,MusicAffectPsychophysiology2019,3.0.5,58.86431095420871,
To what extent did the music make you feel ,ANGRY,30MonoWAV/30MonoT1.wav,2,1,4,13,,,,,1,10,26,12,0,3,3,2,,,,,,,,,1,1.1527730599991628,,,065,001,2019_May_28_1212,MusicAffectPsychophysiology2019,3.0.5,58.86431095420871,
To what extent did the music make you feel ,SAD,30MonoWAV/30MonoT1.wav,2,1,4,13,,,,,1,10,26,12,0,4,4,0,,,,,,,,,1,1.0183657290035626,,,065,001,2019_May_28_1212,MusicAffectPsychophysiology2019,3.0.5,58.86431095420871,
To what extent did the music make you feel ,ANXIOUS ,30MonoWAV/30MonoT1.wav,2,1,4,13,,,,,1,10,26,12,0,5,5,1,,,,,,,,,1,0.8018081120026181,,,065,001,2019_May_28_1212,MusicAffectPsychophysiology2019,3.0.5,58.86431095420871,
To what extent did the music make you feel ,ASHAMED,30MonoWAV/30MonoT1.wav,2,1,4,13,,,,,1,10,26,12,0,6,6,4,,,,,,,,,1,0.6521033440003521,,,065,001,2019_May_28_1212,MusicAffectPsychophysiology2019,3.0.5,58.86431095420871,
To what extent did the music make you feel ,ALERT,30MonoWAV/30MonoT1.wav,2,1,4,13,,,,,1,10,26,12,0,7,7,8,,,,,,,,,1,1.351471413996478,,,065,001,2019_May_28_1212,MusicAffectPsychophysiology2019,3.0.5,58.86431095420871,
To what extent did the music make you feel ,ACTIVE,30MonoWAV/30MonoT1.wav,2,1,4,13,,,,,1,10,26,12,0,8,8,9,,,,,,,,,1,1.5180791220045649,,,065,001,2019_May_28_1212,MusicAffectPsychophysiology2019,3.0.5,58.86431095420871,
To what extent did the music make you feel ,HAPPY,30MonoWAV/30MonoT1.wav,2,1,4,13,,,,,1,10,26,12,0,9,9,6,,,,,,,,,4,1.3841739199997392,,,065,001,2019_May_28_1212,MusicAffectPsychophysiology2019,3.0.5,58.86431095420871,
To what extent did the music make you feel ,EXCITED,30MonoWAV/30MonoT1.wav,2,1,4,13,,,,,1,10,26,12,0,10,10,7,,,,,,,,,1,1.217472700001963,,,065,001,2019_May_28_1212,MusicAffectPsychophysiology2019,3.0.5,58.86431095420871,
To what extent did the music make you feel ,FRUSTRATED,30MonoWAV/30MonoT1.wav,2,1,4,13,,,,,1,10,26,12,0,11,11,3,,,,,,,,,1,0.617627587998868,,,065,001,2019_May_28_1212,MusicAffectPsychophysiology2019,3.0.5,58.86431095420871,
,,30MonoWAV/30MonoT1.wav,2,1,4,13,,,,,1,10,26,12,,,,,,,,,,,,,,,,,065,001,2019_May_28_1212,MusicAffectPsychophysiology2019,3.0.5,58.86431095420871,
To what extent did the music make you feel ,SAD,30MonoWAV/30MonoT4.wav,2,1,4,16,,,,,1,11,27,15,0,0,0,0,,,3,3.1022744930014596,4,1.5346081280004,4,1.1852133409993257,1,1.8354247469978873,,,065,001,2019_May_28_1212,MusicAffectPsychophysiology2019,3.0.5,58.86431095420871,
To what extent did the music make you feel ,GUILTY,30MonoWAV/30MonoT4.wav,2,1,4,16,,,,,1,11,27,15,0,1,1,5,,,,,,,,,1,0.5852385859980131,,,065,001,2019_May_28_1212,MusicAffectPsychophysiology2019,3.0.5,58.86431095420871,
To what extent did the music make you feel ,ASHAMED,30MonoWAV/30MonoT4.wav,2,1,4,16,,,,,1,11,27,15,0,2,2,4,,,,,,,,,1,0.8350079060037388,,,065,001,2019_May_28_1212,MusicAffectPsychophysiology2019,3.0.5,58.86431095420871,
To what extent did the music make you feel ,ANXIOUS ,30MonoWAV/30MonoT4.wav,2,1,4,16,,,,,1,11,27,15,0,3,3,1,,,,,,,,,1,0.8517263910034671,,,065,001,2019_May_28_1212,MusicAffectPsychophysiology2019,3.0.5,58.86431095420871,
To what extent did the music make you feel ,ANGRY,30MonoWAV/30MonoT4.wav,2,1,4,16,,,,,1,11,27,15,0,4,4,2,,,,,,,,,1,0.7512806900049327,,,065,001,2019_May_28_1212,MusicAffectPsychophysiology2019,3.0.5,58.86431095420871,
To what extent did the music make you feel ,TENDER,30MonoWAV/30MonoT4.wav,2,1,4,16,,,,,1,11,27,15,0,5,5,10,,,,,,,,,4,1.2194214229966747,,,065,001,2019_May_28_1212,MusicAffectPsychophysiology2019,3.0.5,58.86431095420871,
To what extent did the music make you feel ,SCARED,30MonoWAV/30MonoT4.wav,2,1,4,16,,,,,1,11,27,15,0,6,6,11,,,,,,,,,1,1.0189162659953581,,,065,001,2019_May_28_1212,MusicAffectPsychophysiology2019,3.0.5,58.86431095420871,
To what extent did the music make you feel ,ALERT,30MonoWAV/30MonoT4.wav,2,1,4,16,,,,,1,11,27,15,0,7,7,8,,,,,,,,,1,2.2181484320026357,,,065,001,2019_May_28_1212,MusicAffectPsychophysiology2019,3.0.5,58.86431095420871,
To what extent did the music make you feel ,ACTIVE,30MonoWAV/30MonoT4.wav,2,1,4,16,,,,,1,11,27,15,0,8,8,9,,,,,,,,,1,0.9513923080012319,,,065,001,2019_May_28_1212,MusicAffectPsychophysiology2019,3.0.5,58.86431095420871,
To what extent did the music make you feel ,EXCITED,30MonoWAV/30MonoT4.wav,2,1,4,16,,,,,1,11,27,15,0,9,9,7,,,,,,,,,1,1.118149016998359,,,065,001,2019_May_28_1212,MusicAffectPsychophysiology2019,3.0.5,58.86431095420871,
To what extent did the music make you feel ,FRUSTRATED,30MonoWAV/30MonoT4.wav,2,1,4,16,,,,,1,11,27,15,0,10,10,3,,,,,,,,,1,1.0016768899949966,,,065,001,2019_May_28_1212,MusicAffectPsychophysiology2019,3.0.5,58.86431095420871,
To what extent did the music make you feel ,HAPPY,30MonoWAV/30MonoT4.wav,2,1,4,16,,,,,1,11,27,15,0,11,11,6,,,,,,,,,3,2.1185018039977876,,,065,001,2019_May_28_1212,MusicAffectPsychophysiology2019,3.0.5,58.86431095420871,
,,30MonoWAV/30MonoT4.wav,2,1,4,16,,,,,1,11,27,15,,,,,,,,,,,,,,,,,065,001,2019_May_28_1212,MusicAffectPsychophysiology2019,3.0.5,58.86431095420871,
To what extent did the music make you feel ,ACTIVE,30MonoWAV/30MonoS4.wav,1,1,3,12,,,,,1,12,28,11,0,0,0,9,,,1,2.2341833809987293,1,1.068131979998725,3,2.6848884580031154,1,1.0677793270006077,,,065,001,2019_May_28_1212,MusicAffectPsychophysiology2019,3.0.5,58.86431095420871,
To what extent did the music make you feel ,ANGRY,30MonoWAV/30MonoS4.wav,1,1,3,12,,,,,1,12,28,11,0,1,1,2,,,,,,,,,1,0.7348465569957625,,,065,001,2019_May_28_1212,MusicAffectPsychophysiology2019,3.0.5,58.86431095420871,
To what extent did the music make you feel ,FRUSTRATED,30MonoWAV/30MonoS4.wav,1,1,3,12,,,,,1,12,28,11,0,2,2,3,,,,,,,,,1,1.9186147500004154,,,065,001,2019_May_28_1212,MusicAffectPsychophysiology2019,3.0.5,58.86431095420871,
To what extent did the music make you feel ,ALERT,30MonoWAV/30MonoS4.wav,1,1,3,12,,,,,1,12,28,11,0,3,3,8,,,,,,,,,1,0.7692795800030581,,,065,001,2019_May_28_1212,MusicAffectPsychophysiology2019,3.0.5,58.86431095420871,
To what extent did the music make you feel ,ANXIOUS ,30MonoWAV/30MonoS4.wav,1,1,3,12,,,,,1,12,28,11,0,4,4,1,,,,,,,,,1,1.1523616509948624,,,065,001,2019_May_28_1212,MusicAffectPsychophysiology2019,3.0.5,58.86431095420871,
To what extent did the music make you feel ,ASHAMED,30MonoWAV/30MonoS4.wav,1,1,3,12,,,,,1,12,28,11,0,5,5,4,,,,,,,,,1,2.734913278000022,,,065,001,2019_May_28_1212,MusicAffectPsychophysiology2019,3.0.5,58.86431095420871,
To what extent did the music make you feel ,EXCITED,30MonoWAV/30MonoS4.wav,1,1,3,12,,,,,1,12,28,11,0,6,6,7,,,,,,,,,1,1.1522430250042817,,,065,001,2019_May_28_1212,MusicAffectPsychophysiology2019,3.0.5,58.86431095420871,
To what extent did the music make you feel ,GUILTY,30MonoWAV/30MonoS4.wav,1,1,3,12,,,,,1,12,28,11,0,7,7,5,,,,,,,,,1,1.4025536170011037,,,065,001,2019_May_28_1212,MusicAffectPsychophysiology2019,3.0.5,58.86431095420871,
To what extent did the music make you feel ,SAD,30MonoWAV/30MonoS4.wav,1,1,3,12,,,,,1,12,28,11,0,8,8,0,,,,,,,,,4,2.3743890059995465,,,065,001,2019_May_28_1212,MusicAffectPsychophysiology2019,3.0.5,58.86431095420871,
To what extent did the music make you feel ,HAPPY,30MonoWAV/30MonoS4.wav,1,1,3,12,,,,,1,12,28,11,0,9,9,6,,,,,,,,,1,2.4213851879976573,,,065,001,2019_May_28_1212,MusicAffectPsychophysiology2019,3.0.5,58.86431095420871,
To what extent did the music make you feel ,SCARED,30MonoWAV/30MonoS4.wav,1,1,3,12,,,,,1,12,28,11,0,10,10,11,,,,,,,,,1,0.8693874609962222,,,065,001,2019_May_28_1212,MusicAffectPsychophysiology2019,3.0.5,58.86431095420871,
To what extent did the music make you feel ,TENDER,30MonoWAV/30MonoS4.wav,1,1,3,12,,,,,1,12,28,11,0,11,11,10,,,,,,,,,2,1.234939937996387,,,065,001,2019_May_28_1212,MusicAffectPsychophysiology2019,3.0.5,58.86431095420871,
,,30MonoWAV/30MonoS4.wav,1,1,3,12,,,,,1,12,28,11,,,,,,,,,,,,,,,,,065,001,2019_May_28_1212,MusicAffectPsychophysiology2019,3.0.5,58.86431095420871,
To what extent did the music make you feel ,ALERT,30MonoWAV/30MonoF4.wav,1,2,2,4,,,,,1,13,29,3,0,0,0,8,,,4,3.1179671840000083,1,1.3856711469998118,2,1.667835277999984,4,2.0684373949989094,,,065,001,2019_May_28_1212,MusicAffectPsychophysiology2019,3.0.5,58.86431095420871,
To what extent did the music make you feel ,EXCITED,30MonoWAV/30MonoF4.wav,1,2,2,4,,,,,1,13,29,3,0,1,1,7,,,,,,,,,2,1.7690944549976848,,,065,001,2019_May_28_1212,MusicAffectPsychophysiology2019,3.0.5,58.86431095420871,
To what extent did the music make you feel ,ASHAMED,30MonoWAV/30MonoF4.wav,1,2,2,4,,,,,1,13,29,3,0,2,2,4,,,,,,,,,1,0.8177299109956948,,,065,001,2019_May_28_1212,MusicAffectPsychophysiology2019,3.0.5,58.86431095420871,
To what extent did the music make you feel ,ANGRY,30MonoWAV/30MonoF4.wav,1,2,2,4,,,,,1,13,29,3,0,3,3,2,,,,,,,,,1,1.0854453639985877,,,065,001,2019_May_28_1212,MusicAffectPsychophysiology2019,3.0.5,58.86431095420871,
To what extent did the music make you feel ,FRUSTRATED,30MonoWAV/30MonoF4.wav,1,2,2,4,,,,,1,13,29,3,0,4,4,3,,,,,,,,,1,0.6673683379995055,,,065,001,2019_May_28_1212,MusicAffectPsychophysiology2019,3.0.5,58.86431095420871,
To what extent did the music make you feel ,ANXIOUS ,30MonoWAV/30MonoF4.wav,1,2,2,4,,,,,1,13,29,3,0,5,5,1,,,,,,,,,2,1.1690256920046522,,,065,001,2019_May_28_1212,MusicAffectPsychophysiology2019,3.0.5,58.86431095420871,
To what extent did the music make you feel ,GUILTY,30MonoWAV/30MonoF4.wav,1,2,2,4,,,,,1,13,29,3,0,6,6,5,,,,,,,,,1,0.8662571829991066,,,065,001,2019_May_28_1212,MusicAffectPsychophysiology2019,3.0.5,58.86431095420871,
To what extent did the music make you feel ,SAD,30MonoWAV/30MonoF4.wav,1,2,2,4,,,,,1,13,29,3,0,7,7,0,,,,,,,,,1,0.9853740749967983,,,065,001,2019_May_28_1212,MusicAffectPsychophysiology2019,3.0.5,58.86431095420871,
To what extent did the music make you feel ,HAPPY,30MonoWAV/30MonoF4.wav,1,2,2,4,,,,,1,13,29,3,0,8,8,6,,,,,,,,,1,0.9855269129984663,,,065,001,2019_May_28_1212,MusicAffectPsychophysiology2019,3.0.5,58.86431095420871,
To what extent did the music make you feel ,SCARED,30MonoWAV/30MonoF4.wav,1,2,2,4,,,,,1,13,29,3,0,9,9,11,,,,,,,,,2,1.402378195001802,,,065,001,2019_May_28_1212,MusicAffectPsychophysiology2019,3.0.5,58.86431095420871,
To what extent did the music make you feel ,ACTIVE,30MonoWAV/30MonoF4.wav,1,2,2,4,,,,,1,13,29,3,0,10,10,9,,,,,,,,,4,1.3676493530001608,,,065,001,2019_May_28_1212,MusicAffectPsychophysiology2019,3.0.5,58.86431095420871,
To what extent did the music make you feel ,TENDER,30MonoWAV/30MonoF4.wav,1,2,2,4,,,,,1,13,29,3,0,11,11,10,,,,,,,,,1,1.8352317300013965,,,065,001,2019_May_28_1212,MusicAffectPsychophysiology2019,3.0.5,58.86431095420871,
,,30MonoWAV/30MonoF4.wav,1,2,2,4,,,,,1,13,29,3,,,,,,,,,,,,,,,,,065,001,2019_May_28_1212,MusicAffectPsychophysiology2019,3.0.5,58.86431095420871,
To what extent did the music make you feel ,EXCITED,30MonoWAV/30MonoH1.wav,2,2,1,5,,,,,1,14,30,4,0,0,0,7,,,3,4.068932860005589,4,1.518142970999179,4,0.802020322997123,2,2.8514066159987124,,,065,001,2019_May_28_1212,MusicAffectPsychophysiology2019,3.0.5,58.86431095420871,
To what extent did the music make you feel ,ALERT,30MonoWAV/30MonoH1.wav,2,2,1,5,,,,,1,14,30,4,0,1,1,8,,,,,,,,,2,2.183218816993758,,,065,001,2019_May_28_1212,MusicAffectPsychophysiology2019,3.0.5,58.86431095420871,
To what extent did the music make you feel ,ANGRY,30MonoWAV/30MonoH1.wav,2,2,1,5,,,,,1,14,30,4,0,2,2,2,,,,,,,,,1,1.1352876070013735,,,065,001,2019_May_28_1212,MusicAffectPsychophysiology2019,3.0.5,58.86431095420871,
To what extent did the music make you feel ,SCARED,30MonoWAV/30MonoH1.wav,2,2,1,5,,,,,1,14,30,4,0,3,3,11,,,,,,,,,1,0.8852256099999067,,,065,001,2019_May_28_1212,MusicAffectPsychophysiology2019,3.0.5,58.86431095420871,
To what extent did the music make you feel ,ACTIVE,30MonoWAV/30MonoH1.wav,2,2,1,5,,,,,1,14,30,4,0,4,4,9,,,,,,,,,3,3.5181982219946804,,,065,001,2019_May_28_1212,MusicAffectPsychophysiology2019,3.0.5,58.86431095420871,
To what extent did the music make you feel ,GUILTY,30MonoWAV/30MonoH1.wav,2,2,1,5,,,,,1,14,30,4,0,5,5,5,,,,,,,,,1,0.835197355998389,,,065,001,2019_May_28_1212,MusicAffectPsychophysiology2019,3.0.5,58.86431095420871,
To what extent did the music make you feel ,ANXIOUS ,30MonoWAV/30MonoH1.wav,2,2,1,5,,,,,1,14,30,4,0,6,6,1,,,,,,,,,1,0.9335309239977505,,,065,001,2019_May_28_1212,MusicAffectPsychophysiology2019,3.0.5,58.86431095420871,
To what extent did the music make you feel ,ASHAMED,30MonoWAV/30MonoH1.wav,2,2,1,5,,,,,1,14,30,4,0,7,7,4,,,,,,,,,1,1.051837560000422,,,065,001,2019_May_28_1212,MusicAffectPsychophysiology2019,3.0.5,58.86431095420871,
To what extent did the music make you feel ,FRUSTRATED,30MonoWAV/30MonoH1.wav,2,2,1,5,,,,,1,14,30,4,0,8,8,3,,,,,,,,,1,0.7854142130017863,,,065,001,2019_May_28_1212,MusicAffectPsychophysiology2019,3.0.5,58.86431095420871,
To what extent did the music make you feel ,HAPPY,30MonoWAV/30MonoH1.wav,2,2,1,5,,,,,1,14,30,4,0,9,9,6,,,,,,,,,4,3.185368553000444,,,065,001,2019_May_28_1212,MusicAffectPsychophysiology2019,3.0.5,58.86431095420871,
To what extent did the music make you feel ,TENDER,30MonoWAV/30MonoH1.wav,2,2,1,5,,,,,1,14,30,4,0,10,10,10,,,,,,,,,1,1.368279075002647,,,065,001,2019_May_28_1212,MusicAffectPsychophysiology2019,3.0.5,58.86431095420871,
To what extent did the music make you feel ,SAD,30MonoWAV/30MonoH1.wav,2,2,1,5,,,,,1,14,30,4,0,11,11,0,,,,,,,,,1,2.1013972439977806,,,065,001,2019_May_28_1212,MusicAffectPsychophysiology2019,3.0.5,58.86431095420871,
,,30MonoWAV/30MonoH1.wav,2,2,1,5,,,,,1,14,30,4,,,,,,,,,,,,,,,,,065,001,2019_May_28_1212,MusicAffectPsychophysiology2019,3.0.5,58.86431095420871,
To what extent did the music make you feel ,GUILTY,30MonoWAV/30MonoH3.wav,2,2,1,7,,,,,1,15,31,6,0,0,0,5,,,5,2.1843011520031723,5,1.3189318509976147,3,1.5183012089983094,1,1.2516520889985259,,,065,001,2019_May_28_1212,MusicAffectPsychophysiology2019,3.0.5,58.86431095420871,
To what extent did the music make you feel ,ACTIVE,30MonoWAV/30MonoH3.wav,2,2,1,7,,,,,1,15,31,6,0,1,1,9,,,,,,,,,4,1.5016246829982265,,,065,001,2019_May_28_1212,MusicAffectPsychophysiology2019,3.0.5,58.86431095420871,
To what extent did the music make you feel ,ANGRY,30MonoWAV/30MonoH3.wav,2,2,1,7,,,,,1,15,31,6,0,2,2,2,,,,,,,,,1,1.0353729339985875,,,065,001,2019_May_28_1212,MusicAffectPsychophysiology2019,3.0.5,58.86431095420871,
To what extent did the music make you feel ,SAD,30MonoWAV/30MonoH3.wav,2,2,1,7,,,,,1,15,31,6,0,3,3,0,,,,,,,,,1,1.0026874640025198,,,065,001,2019_May_28_1212,MusicAffectPsychophysiology2019,3.0.5,58.86431095420871,
To what extent did the music make you feel ,EXCITED,30MonoWAV/30MonoH3.wav,2,2,1,7,,,,,1,15,31,6,0,4,4,7,,,,,,,,,4,1.3500411889981478,,,065,001,2019_May_28_1212,MusicAffectPsychophysiology2019,3.0.5,58.86431095420871,
To what extent did the music make you feel ,ALERT,30MonoWAV/30MonoH3.wav,2,2,1,7,,,,,1,15,31,6,0,5,5,8,,,,,,,,,4,1.5183177509970847,,,065,001,2019_May_28_1212,MusicAffectPsychophysiology2019,3.0.5,58.86431095420871,
To what extent did the music make you feel ,ASHAMED,30MonoWAV/30MonoH3.wav,2,2,1,7,,,,,1,15,31,6,0,6,6,4,,,,,,,,,1,2.101452185997914,,,065,001,2019_May_28_1212,MusicAffectPsychophysiology2019,3.0.5,58.86431095420871,
To what extent did the music make you feel ,TENDER,30MonoWAV/30MonoH3.wav,2,2,1,7,,,,,1,15,31,6,0,7,7,10,,,,,,,,,1,0.9515708269973402,,,065,001,2019_May_28_1212,MusicAffectPsychophysiology2019,3.0.5,58.86431095420871,
To what extent did the music make you feel ,ANXIOUS ,30MonoWAV/30MonoH3.wav,2,2,1,7,,,,,1,15,31,6,0,8,8,1,,,,,,,,,1,0.9001618179972866,,,065,001,2019_May_28_1212,MusicAffectPsychophysiology2019,3.0.5,58.86431095420871,
To what extent did the music make you feel ,SCARED,30MonoWAV/30MonoH3.wav,2,2,1,7,,,,,1,15,31,6,0,9,9,11,,,,,,,,,1,0.8514264710029238,,,065,001,2019_May_28_1212,MusicAffectPsychophysiology2019,3.0.5,58.86431095420871,
To what extent did the music make you feel ,HAPPY,30MonoWAV/30MonoH3.wav,2,2,1,7,,,,,1,15,31,6,0,10,10,6,,,,,,,,,2,1.8183538130033412,,,065,001,2019_May_28_1212,MusicAffectPsychophysiology2019,3.0.5,58.86431095420871,
To what extent did the music make you feel ,FRUSTRATED,30MonoWAV/30MonoH3.wav,2,2,1,7,,,,,1,15,31,6,0,11,11,3,,,,,,,,,1,1.0860172199973022,,,065,001,2019_May_28_1212,MusicAffectPsychophysiology2019,3.0.5,58.86431095420871,
,,30MonoWAV/30MonoH3.wav,2,2,1,7,,,,,1,15,31,6,,,,,,,,,,,,,,,,,065,001,2019_May_28_1212,MusicAffectPsychophysiology2019,3.0.5,58.86431095420871,
,,,,,,,,,,,,,,,,,,,,,,,,,,,,,space,4.2847382170002675,065,001,2019_May_28_1212,MusicAffectPsychophysiology2019,3.0.5,58.86431095420871,
