Instruction,Word,song,valence,arousal,affectcat,songmark,pracwords.thisRepN,pracwords.thisTrialN,pracwords.thisN,pracwords.thisIndex,songtrials.thisRepN,songtrials.thisTrialN,songtrials.thisN,songtrials.thisIndex,words.thisRepN,words.thisTrialN,words.thisN,words.thisIndex,begin.keys,begin.rt,arousalkey.keys,arousalkey.rt,valencekey.keys,valencekey.rt,likekey.keys,likekey.rt,WordResponse.keys,WordResponse.rt,key_resp_2.keys,key_resp_2.rt,participant,session,date,expName,psychopyVersion,frameRate,
,,,,,,,,,,,,,,,,,,,space,15.518919025002106,,,,,,,,,,,066,001,2019_May_28_1502,MusicAffectPsychophysiology2019,3.0.5,60.12485587820348,
,,,,,,,,,,,,,,,,,,,,,4,8.717588618004811,,,,,,,,,066,001,2019_May_28_1502,MusicAffectPsychophysiology2019,3.0.5,60.12485587820348,
,,,,,,,,,,,,,,,,,,,,,,,3,3.8177590960040106,,,,,,,066,001,2019_May_28_1502,MusicAffectPsychophysiology2019,3.0.5,60.12485587820348,
,,,,,,,,,,,,,,,,,,,,,,,,,3,2.7689681470001233,,,,,066,001,2019_May_28_1502,MusicAffectPsychophysiology2019,3.0.5,60.12485587820348,
To what extent did the music make you feel ,SAD,,,,,,0,0,0,0,,,,,,,,,,,,,,,,,1,4.268290783998964,,,066,001,2019_May_28_1502,MusicAffectPsychophysiology2019,3.0.5,60.12485587820348,
To what extent did the music make you feel ,TENDER,,,,,,0,1,1,10,,,,,,,,,,,,,,,,,2,4.402091260999441,,,066,001,2019_May_28_1502,MusicAffectPsychophysiology2019,3.0.5,60.12485587820348,
To what extent did the music make you feel ,FRUSTRATED,,,,,,0,2,2,3,,,,,,,,,,,,,,,,,2,2.1349684839951806,,,066,001,2019_May_28_1502,MusicAffectPsychophysiology2019,3.0.5,60.12485587820348,
To what extent did the music make you feel ,EXCITED,,,,,,0,3,3,7,,,,,,,,,,,,,,,,,3,3.20176468599675,,,066,001,2019_May_28_1502,MusicAffectPsychophysiology2019,3.0.5,60.12485587820348,
To what extent did the music make you feel ,ANGRY,,,,,,0,4,4,2,,,,,,,,,,,,,,,,,1,2.534320778999245,,,066,001,2019_May_28_1502,MusicAffectPsychophysiology2019,3.0.5,60.12485587820348,
To what extent did the music make you feel ,GUILTY,,,,,,0,5,5,5,,,,,,,,,,,,,,,,,1,1.018155564997869,,,066,001,2019_May_28_1502,MusicAffectPsychophysiology2019,3.0.5,60.12485587820348,
To what extent did the music make you feel ,ASHAMED,,,,,,0,6,6,4,,,,,,,,,,,,,,,,,1,7.051187568999012,,,066,001,2019_May_28_1502,MusicAffectPsychophysiology2019,3.0.5,60.12485587820348,
To what extent did the music make you feel ,ACTIVE,,,,,,0,7,7,9,,,,,,,,,,,,,,,,,3,3.9178264729998773,,,066,001,2019_May_28_1502,MusicAffectPsychophysiology2019,3.0.5,60.12485587820348,
To what extent did the music make you feel ,SCARED,,,,,,0,8,8,11,,,,,,,,,,,,,,,,,2,2.668014533999667,,,066,001,2019_May_28_1502,MusicAffectPsychophysiology2019,3.0.5,60.12485587820348,
To what extent did the music make you feel ,HAPPY,,,,,,0,9,9,6,,,,,,,,,,,,,,,,,3,1.401911510998616,,,066,001,2019_May_28_1502,MusicAffectPsychophysiology2019,3.0.5,60.12485587820348,
To what extent did the music make you feel ,ALERT,,,,,,0,10,10,8,,,,,,,,,,,,,,,,,3,1.9844482820044504,,,066,001,2019_May_28_1502,MusicAffectPsychophysiology2019,3.0.5,60.12485587820348,
To what extent did the music make you feel ,ANXIOUS ,,,,,,0,11,11,1,,,,,,,,,,,,,,,,,2,2.3671375359990634,,,066,001,2019_May_28_1502,MusicAffectPsychophysiology2019,3.0.5,60.12485587820348,
To what extent did the music make you feel ,EXCITED,30MonoWAV/30MonoT2.wav,2,1,4,14,,,,,0,0,0,13,0,0,0,7,,,1,4.133571721002227,3,3.5510189659980824,4,2.8505100420006784,1,4.251520694997453,,,066,001,2019_May_28_1502,MusicAffectPsychophysiology2019,3.0.5,60.12485587820348,
To what extent did the music make you feel ,ANGRY,30MonoWAV/30MonoT2.wav,2,1,4,14,,,,,0,0,0,13,0,1,1,2,,,,,,,,,1,0.8342038049959228,,,066,001,2019_May_28_1502,MusicAffectPsychophysiology2019,3.0.5,60.12485587820348,
To what extent did the music make you feel ,TENDER,30MonoWAV/30MonoT2.wav,2,1,4,14,,,,,0,0,0,13,0,2,2,10,,,,,,,,,4,3.034544472997368,,,066,001,2019_May_28_1502,MusicAffectPsychophysiology2019,3.0.5,60.12485587820348,
To what extent did the music make you feel ,ASHAMED,30MonoWAV/30MonoT2.wav,2,1,4,14,,,,,0,0,0,13,0,3,3,4,,,,,,,,,1,1.4341845039962209,,,066,001,2019_May_28_1502,MusicAffectPsychophysiology2019,3.0.5,60.12485587820348,
To what extent did the music make you feel ,GUILTY,30MonoWAV/30MonoT2.wav,2,1,4,14,,,,,0,0,0,13,0,4,4,5,,,,,,,,,1,0.7674013869982446,,,066,001,2019_May_28_1502,MusicAffectPsychophysiology2019,3.0.5,60.12485587820348,
To what extent did the music make you feel ,ANXIOUS ,30MonoWAV/30MonoT2.wav,2,1,4,14,,,,,0,0,0,13,0,5,5,1,,,,,,,,,1,1.186144430997956,,,066,001,2019_May_28_1502,MusicAffectPsychophysiology2019,3.0.5,60.12485587820348,
To what extent did the music make you feel ,SAD,30MonoWAV/30MonoT2.wav,2,1,4,14,,,,,0,0,0,13,0,6,6,0,,,,,,,,,2,2.4861612249951577,,,066,001,2019_May_28_1502,MusicAffectPsychophysiology2019,3.0.5,60.12485587820348,
To what extent did the music make you feel ,ALERT,30MonoWAV/30MonoT2.wav,2,1,4,14,,,,,0,0,0,13,0,7,7,8,,,,,,,,,1,1.1014794769944274,,,066,001,2019_May_28_1502,MusicAffectPsychophysiology2019,3.0.5,60.12485587820348,
To what extent did the music make you feel ,ACTIVE,30MonoWAV/30MonoT2.wav,2,1,4,14,,,,,0,0,0,13,0,8,8,9,,,,,,,,,1,1.3349474920032662,,,066,001,2019_May_28_1502,MusicAffectPsychophysiology2019,3.0.5,60.12485587820348,
To what extent did the music make you feel ,FRUSTRATED,30MonoWAV/30MonoT2.wav,2,1,4,14,,,,,0,0,0,13,0,9,9,3,,,,,,,,,1,1.1854553949960973,,,066,001,2019_May_28_1502,MusicAffectPsychophysiology2019,3.0.5,60.12485587820348,
To what extent did the music make you feel ,SCARED,30MonoWAV/30MonoT2.wav,2,1,4,14,,,,,0,0,0,13,0,10,10,11,,,,,,,,,1,1.002334452001378,,,066,001,2019_May_28_1502,MusicAffectPsychophysiology2019,3.0.5,60.12485587820348,
To what extent did the music make you feel ,HAPPY,30MonoWAV/30MonoT2.wav,2,1,4,14,,,,,0,0,0,13,0,11,11,6,,,,,,,,,3,2.2841133940019063,,,066,001,2019_May_28_1502,MusicAffectPsychophysiology2019,3.0.5,60.12485587820348,
,,30MonoWAV/30MonoT2.wav,2,1,4,14,,,,,0,0,0,13,,,,,,,,,,,,,,,,,066,001,2019_May_28_1502,MusicAffectPsychophysiology2019,3.0.5,60.12485587820348,
To what extent did the music make you feel ,EXCITED,30MonoWAV/30MonoT3.wav,2,1,4,15,,,,,0,1,1,14,0,0,0,7,,,2,4.000885377005034,2,2.7355932439968456,2,1.601756233998458,1,2.4673950979995425,,,066,001,2019_May_28_1502,MusicAffectPsychophysiology2019,3.0.5,60.12485587820348,
To what extent did the music make you feel ,TENDER,30MonoWAV/30MonoT3.wav,2,1,4,15,,,,,0,1,1,14,0,1,1,10,,,,,,,,,2,1.1514478139943094,,,066,001,2019_May_28_1502,MusicAffectPsychophysiology2019,3.0.5,60.12485587820348,
To what extent did the music make you feel ,ALERT,30MonoWAV/30MonoT3.wav,2,1,4,15,,,,,0,1,1,14,0,2,2,8,,,,,,,,,2,1.2854143119984656,,,066,001,2019_May_28_1502,MusicAffectPsychophysiology2019,3.0.5,60.12485587820348,
To what extent did the music make you feel ,ANXIOUS ,30MonoWAV/30MonoT3.wav,2,1,4,15,,,,,0,1,1,14,0,3,3,1,,,,,,,,,2,0.8012836929992773,,,066,001,2019_May_28_1502,MusicAffectPsychophysiology2019,3.0.5,60.12485587820348,
To what extent did the music make you feel ,SAD,30MonoWAV/30MonoT3.wav,2,1,4,15,,,,,0,1,1,14,0,4,4,0,,,,,,,,,2,1.1694069920049515,,,066,001,2019_May_28_1502,MusicAffectPsychophysiology2019,3.0.5,60.12485587820348,
To what extent did the music make you feel ,SCARED,30MonoWAV/30MonoT3.wav,2,1,4,15,,,,,0,1,1,14,0,5,5,11,,,,,,,,,2,1.069369585995446,,,066,001,2019_May_28_1502,MusicAffectPsychophysiology2019,3.0.5,60.12485587820348,
To what extent did the music make you feel ,ASHAMED,30MonoWAV/30MonoT3.wav,2,1,4,15,,,,,0,1,1,14,0,6,6,4,,,,,,,,,1,0.9178184510019491,,,066,001,2019_May_28_1502,MusicAffectPsychophysiology2019,3.0.5,60.12485587820348,
To what extent did the music make you feel ,HAPPY,30MonoWAV/30MonoT3.wav,2,1,4,15,,,,,0,1,1,14,0,7,7,6,,,,,,,,,2,1.284440010000253,,,066,001,2019_May_28_1502,MusicAffectPsychophysiology2019,3.0.5,60.12485587820348,
To what extent did the music make you feel ,GUILTY,30MonoWAV/30MonoT3.wav,2,1,4,15,,,,,0,1,1,14,0,8,8,5,,,,,,,,,1,1.9522189519993844,,,066,001,2019_May_28_1502,MusicAffectPsychophysiology2019,3.0.5,60.12485587820348,
To what extent did the music make you feel ,ACTIVE,30MonoWAV/30MonoT3.wav,2,1,4,15,,,,,0,1,1,14,0,9,9,9,,,,,,,,,1,0.8349792559965863,,,066,001,2019_May_28_1502,MusicAffectPsychophysiology2019,3.0.5,60.12485587820348,
To what extent did the music make you feel ,FRUSTRATED,30MonoWAV/30MonoT3.wav,2,1,4,15,,,,,0,1,1,14,0,10,10,3,,,,,,,,,1,1.650379143000464,,,066,001,2019_May_28_1502,MusicAffectPsychophysiology2019,3.0.5,60.12485587820348,
To what extent did the music make you feel ,ANGRY,30MonoWAV/30MonoT3.wav,2,1,4,15,,,,,0,1,1,14,0,11,11,2,,,,,,,,,1,0.5989928679991863,,,066,001,2019_May_28_1502,MusicAffectPsychophysiology2019,3.0.5,60.12485587820348,
,,30MonoWAV/30MonoT3.wav,2,1,4,15,,,,,0,1,1,14,,,,,,,,,,,,,,,,,066,001,2019_May_28_1502,MusicAffectPsychophysiology2019,3.0.5,60.12485587820348,
To what extent did the music make you feel ,SAD,30MonoWAV/30MonoS4.wav,1,1,3,12,,,,,0,2,2,11,0,0,0,0,,,2,5.683915255001921,2,3.5691161240029032,2,1.8184998209981131,2,1.200615955000103,,,066,001,2019_May_28_1502,MusicAffectPsychophysiology2019,3.0.5,60.12485587820348,
To what extent did the music make you feel ,HAPPY,30MonoWAV/30MonoS4.wav,1,1,3,12,,,,,0,2,2,11,0,1,1,6,,,,,,,,,2,3.567669226002181,,,066,001,2019_May_28_1502,MusicAffectPsychophysiology2019,3.0.5,60.12485587820348,
To what extent did the music make you feel ,TENDER,30MonoWAV/30MonoS4.wav,1,1,3,12,,,,,0,2,2,11,0,2,2,10,,,,,,,,,2,1.0848789630035753,,,066,001,2019_May_28_1502,MusicAffectPsychophysiology2019,3.0.5,60.12485587820348,
To what extent did the music make you feel ,ANGRY,30MonoWAV/30MonoS4.wav,1,1,3,12,,,,,0,2,2,11,0,3,3,2,,,,,,,,,1,0.851791952001804,,,066,001,2019_May_28_1502,MusicAffectPsychophysiology2019,3.0.5,60.12485587820348,
To what extent did the music make you feel ,ALERT,30MonoWAV/30MonoS4.wav,1,1,3,12,,,,,0,2,2,11,0,4,4,8,,,,,,,,,1,0.7515287610003725,,,066,001,2019_May_28_1502,MusicAffectPsychophysiology2019,3.0.5,60.12485587820348,
To what extent did the music make you feel ,EXCITED,30MonoWAV/30MonoS4.wav,1,1,3,12,,,,,0,2,2,11,0,5,5,7,,,,,,,,,1,1.5516280910014757,,,066,001,2019_May_28_1502,MusicAffectPsychophysiology2019,3.0.5,60.12485587820348,
To what extent did the music make you feel ,SCARED,30MonoWAV/30MonoS4.wav,1,1,3,12,,,,,0,2,2,11,0,6,6,11,,,,,,,,,1,1.1004613300028723,,,066,001,2019_May_28_1502,MusicAffectPsychophysiology2019,3.0.5,60.12485587820348,
To what extent did the music make you feel ,ANXIOUS ,30MonoWAV/30MonoS4.wav,1,1,3,12,,,,,0,2,2,11,0,7,7,1,,,,,,,,,2,1.2176820630047587,,,066,001,2019_May_28_1502,MusicAffectPsychophysiology2019,3.0.5,60.12485587820348,
To what extent did the music make you feel ,ASHAMED,30MonoWAV/30MonoS4.wav,1,1,3,12,,,,,0,2,2,11,0,8,8,4,,,,,,,,,1,0.9496590399940033,,,066,001,2019_May_28_1502,MusicAffectPsychophysiology2019,3.0.5,60.12485587820348,
To what extent did the music make you feel ,FRUSTRATED,30MonoWAV/30MonoS4.wav,1,1,3,12,,,,,0,2,2,11,0,9,9,3,,,,,,,,,1,0.968496198001958,,,066,001,2019_May_28_1502,MusicAffectPsychophysiology2019,3.0.5,60.12485587820348,
To what extent did the music make you feel ,GUILTY,30MonoWAV/30MonoS4.wav,1,1,3,12,,,,,0,2,2,11,0,10,10,5,,,,,,,,,1,0.6499269580017426,,,066,001,2019_May_28_1502,MusicAffectPsychophysiology2019,3.0.5,60.12485587820348,
To what extent did the music make you feel ,ACTIVE,30MonoWAV/30MonoS4.wav,1,1,3,12,,,,,0,2,2,11,0,11,11,9,,,,,,,,,1,0.9180191830018885,,,066,001,2019_May_28_1502,MusicAffectPsychophysiology2019,3.0.5,60.12485587820348,
,,30MonoWAV/30MonoS4.wav,1,1,3,12,,,,,0,2,2,11,,,,,,,,,,,,,,,,,066,001,2019_May_28_1502,MusicAffectPsychophysiology2019,3.0.5,60.12485587820348,
To what extent did the music make you feel ,TENDER,30MonoWAV/30MonoH4.wav,2,2,1,8,,,,,0,3,3,7,0,0,0,10,,,5,2.8015317050012527,5,1.1849804439989384,5,0.9013463810042595,1,1.9022610359970713,,,066,001,2019_May_28_1502,MusicAffectPsychophysiology2019,3.0.5,60.12485587820348,
To what extent did the music make you feel ,ANXIOUS ,30MonoWAV/30MonoH4.wav,2,2,1,8,,,,,0,3,3,7,0,1,1,1,,,,,,,,,1,0.802060497997445,,,066,001,2019_May_28_1502,MusicAffectPsychophysiology2019,3.0.5,60.12485587820348,
To what extent did the music make you feel ,HAPPY,30MonoWAV/30MonoH4.wav,2,2,1,8,,,,,0,3,3,7,0,2,2,6,,,,,,,,,5,1.500714223999239,,,066,001,2019_May_28_1502,MusicAffectPsychophysiology2019,3.0.5,60.12485587820348,
To what extent did the music make you feel ,EXCITED,30MonoWAV/30MonoH4.wav,2,2,1,8,,,,,0,3,3,7,0,3,3,7,,,,,,,,,5,0.7518171929987147,,,066,001,2019_May_28_1502,MusicAffectPsychophysiology2019,3.0.5,60.12485587820348,
To what extent did the music make you feel ,ANGRY,30MonoWAV/30MonoH4.wav,2,2,1,8,,,,,0,3,3,7,0,4,4,2,,,,,,,,,1,1.4181988639975316,,,066,001,2019_May_28_1502,MusicAffectPsychophysiology2019,3.0.5,60.12485587820348,
To what extent did the music make you feel ,SAD,30MonoWAV/30MonoH4.wav,2,2,1,8,,,,,0,3,3,7,0,5,5,0,,,,,,,,,1,0.5503682709968416,,,066,001,2019_May_28_1502,MusicAffectPsychophysiology2019,3.0.5,60.12485587820348,
To what extent did the music make you feel ,FRUSTRATED,30MonoWAV/30MonoH4.wav,2,2,1,8,,,,,0,3,3,7,0,6,6,3,,,,,,,,,1,0.6858327219961211,,,066,001,2019_May_28_1502,MusicAffectPsychophysiology2019,3.0.5,60.12485587820348,
To what extent did the music make you feel ,ACTIVE,30MonoWAV/30MonoH4.wav,2,2,1,8,,,,,0,3,3,7,0,7,7,9,,,,,,,,,5,1.5351815019967034,,,066,001,2019_May_28_1502,MusicAffectPsychophysiology2019,3.0.5,60.12485587820348,
To what extent did the music make you feel ,ALERT,30MonoWAV/30MonoH4.wav,2,2,1,8,,,,,0,3,3,7,0,8,8,8,,,,,,,,,5,2.319110887001443,,,066,001,2019_May_28_1502,MusicAffectPsychophysiology2019,3.0.5,60.12485587820348,
To what extent did the music make you feel ,ASHAMED,30MonoWAV/30MonoH4.wav,2,2,1,8,,,,,0,3,3,7,0,9,9,4,,,,,,,,,1,1.185449119999248,,,066,001,2019_May_28_1502,MusicAffectPsychophysiology2019,3.0.5,60.12485587820348,
To what extent did the music make you feel ,GUILTY,30MonoWAV/30MonoH4.wav,2,2,1,8,,,,,0,3,3,7,0,10,10,5,,,,,,,,,1,0.63361190300202,,,066,001,2019_May_28_1502,MusicAffectPsychophysiology2019,3.0.5,60.12485587820348,
To what extent did the music make you feel ,SCARED,30MonoWAV/30MonoH4.wav,2,2,1,8,,,,,0,3,3,7,0,11,11,11,,,,,,,,,1,0.8841182429969194,,,066,001,2019_May_28_1502,MusicAffectPsychophysiology2019,3.0.5,60.12485587820348,
,,30MonoWAV/30MonoH4.wav,2,2,1,8,,,,,0,3,3,7,,,,,,,,,,,,,,,,,066,001,2019_May_28_1502,MusicAffectPsychophysiology2019,3.0.5,60.12485587820348,
To what extent did the music make you feel ,TENDER,30MonoWAV/30MonoF4.wav,1,2,2,4,,,,,0,4,4,3,0,0,0,10,,,4,3.9197307849972276,1,2.851260718998674,3,3.351178176999383,1,1.3846960379960365,,,066,001,2019_May_28_1502,MusicAffectPsychophysiology2019,3.0.5,60.12485587820348,
To what extent did the music make you feel ,ACTIVE,30MonoWAV/30MonoF4.wav,1,2,2,4,,,,,0,4,4,3,0,1,1,9,,,,,,,,,5,2.2675643710026634,,,066,001,2019_May_28_1502,MusicAffectPsychophysiology2019,3.0.5,60.12485587820348,
To what extent did the music make you feel ,HAPPY,30MonoWAV/30MonoF4.wav,1,2,2,4,,,,,0,4,4,3,0,2,2,6,,,,,,,,,1,1.6522845910003525,,,066,001,2019_May_28_1502,MusicAffectPsychophysiology2019,3.0.5,60.12485587820348,
To what extent did the music make you feel ,SAD,30MonoWAV/30MonoF4.wav,1,2,2,4,,,,,0,4,4,3,0,3,3,0,,,,,,,,,1,0.6855463360043359,,,066,001,2019_May_28_1502,MusicAffectPsychophysiology2019,3.0.5,60.12485587820348,
To what extent did the music make you feel ,ALERT,30MonoWAV/30MonoF4.wav,1,2,2,4,,,,,0,4,4,3,0,4,4,8,,,,,,,,,5,1.2187623080026242,,,066,001,2019_May_28_1502,MusicAffectPsychophysiology2019,3.0.5,60.12485587820348,
To what extent did the music make you feel ,ASHAMED,30MonoWAV/30MonoF4.wav,1,2,2,4,,,,,0,4,4,3,0,5,5,4,,,,,,,,,1,2.6016333070001565,,,066,001,2019_May_28_1502,MusicAffectPsychophysiology2019,3.0.5,60.12485587820348,
To what extent did the music make you feel ,ANXIOUS ,30MonoWAV/30MonoF4.wav,1,2,2,4,,,,,0,4,4,3,0,6,6,1,,,,,,,,,4,2.0522378790046787,,,066,001,2019_May_28_1502,MusicAffectPsychophysiology2019,3.0.5,60.12485587820348,
To what extent did the music make you feel ,ANGRY,30MonoWAV/30MonoF4.wav,1,2,2,4,,,,,0,4,4,3,0,7,7,2,,,,,,,,,2,2.568118107999908,,,066,001,2019_May_28_1502,MusicAffectPsychophysiology2019,3.0.5,60.12485587820348,
To what extent did the music make you feel ,FRUSTRATED,30MonoWAV/30MonoF4.wav,1,2,2,4,,,,,0,4,4,3,0,8,8,3,,,,,,,,,2,0.8346618349969503,,,066,001,2019_May_28_1502,MusicAffectPsychophysiology2019,3.0.5,60.12485587820348,
To what extent did the music make you feel ,GUILTY,30MonoWAV/30MonoF4.wav,1,2,2,4,,,,,0,4,4,3,0,9,9,5,,,,,,,,,1,0.9007703340030275,,,066,001,2019_May_28_1502,MusicAffectPsychophysiology2019,3.0.5,60.12485587820348,
To what extent did the music make you feel ,EXCITED,30MonoWAV/30MonoF4.wav,1,2,2,4,,,,,0,4,4,3,0,10,10,7,,,,,,,,,3,2.1695438969982206,,,066,001,2019_May_28_1502,MusicAffectPsychophysiology2019,3.0.5,60.12485587820348,
To what extent did the music make you feel ,SCARED,30MonoWAV/30MonoF4.wav,1,2,2,4,,,,,0,4,4,3,0,11,11,11,,,,,,,,,4,2.350908233995142,,,066,001,2019_May_28_1502,MusicAffectPsychophysiology2019,3.0.5,60.12485587820348,
,,30MonoWAV/30MonoF4.wav,1,2,2,4,,,,,0,4,4,3,,,,,,,,,,,,,,,,,066,001,2019_May_28_1502,MusicAffectPsychophysiology2019,3.0.5,60.12485587820348,
To what extent did the music make you feel ,SAD,30MonoWAV/30MonoT1.wav,2,1,4,13,,,,,0,5,5,12,0,0,0,0,,,1,2.868230282998411,3,3.0503334000022733,3,1.1853047360054916,2,2.349201905002701,,,066,001,2019_May_28_1502,MusicAffectPsychophysiology2019,3.0.5,60.12485587820348,
To what extent did the music make you feel ,TENDER,30MonoWAV/30MonoT1.wav,2,1,4,13,,,,,0,5,5,12,0,1,1,10,,,,,,,,,4,1.9830160060009803,,,066,001,2019_May_28_1502,MusicAffectPsychophysiology2019,3.0.5,60.12485587820348,
To what extent did the music make you feel ,ALERT,30MonoWAV/30MonoT1.wav,2,1,4,13,,,,,0,5,5,12,0,2,2,8,,,,,,,,,1,2.3344187430047896,,,066,001,2019_May_28_1502,MusicAffectPsychophysiology2019,3.0.5,60.12485587820348,
To what extent did the music make you feel ,HAPPY,30MonoWAV/30MonoT1.wav,2,1,4,13,,,,,0,5,5,12,0,3,3,6,,,,,,,,,3,1.4512519239942776,,,066,001,2019_May_28_1502,MusicAffectPsychophysiology2019,3.0.5,60.12485587820348,
To what extent did the music make you feel ,ANGRY,30MonoWAV/30MonoT1.wav,2,1,4,13,,,,,0,5,5,12,0,4,4,2,,,,,,,,,1,1.2013916229989263,,,066,001,2019_May_28_1502,MusicAffectPsychophysiology2019,3.0.5,60.12485587820348,
To what extent did the music make you feel ,FRUSTRATED,30MonoWAV/30MonoT1.wav,2,1,4,13,,,,,0,5,5,12,0,5,5,3,,,,,,,,,1,0.6514040109977941,,,066,001,2019_May_28_1502,MusicAffectPsychophysiology2019,3.0.5,60.12485587820348,
To what extent did the music make you feel ,SCARED,30MonoWAV/30MonoT1.wav,2,1,4,13,,,,,0,5,5,12,0,6,6,11,,,,,,,,,1,1.867288790999737,,,066,001,2019_May_28_1502,MusicAffectPsychophysiology2019,3.0.5,60.12485587820348,
To what extent did the music make you feel ,ANXIOUS ,30MonoWAV/30MonoT1.wav,2,1,4,13,,,,,0,5,5,12,0,7,7,1,,,,,,,,,1,1.0519923730025766,,,066,001,2019_May_28_1502,MusicAffectPsychophysiology2019,3.0.5,60.12485587820348,
To what extent did the music make you feel ,ACTIVE,30MonoWAV/30MonoT1.wav,2,1,4,13,,,,,0,5,5,12,0,8,8,9,,,,,,,,,2,1.8686651530006202,,,066,001,2019_May_28_1502,MusicAffectPsychophysiology2019,3.0.5,60.12485587820348,
To what extent did the music make you feel ,EXCITED,30MonoWAV/30MonoT1.wav,2,1,4,13,,,,,0,5,5,12,0,9,9,7,,,,,,,,,2,1.2682442400036962,,,066,001,2019_May_28_1502,MusicAffectPsychophysiology2019,3.0.5,60.12485587820348,
To what extent did the music make you feel ,GUILTY,30MonoWAV/30MonoT1.wav,2,1,4,13,,,,,0,5,5,12,0,10,10,5,,,,,,,,,1,1.1349383060005493,,,066,001,2019_May_28_1502,MusicAffectPsychophysiology2019,3.0.5,60.12485587820348,
To what extent did the music make you feel ,ASHAMED,30MonoWAV/30MonoT1.wav,2,1,4,13,,,,,0,5,5,12,0,11,11,4,,,,,,,,,1,0.8514245889964513,,,066,001,2019_May_28_1502,MusicAffectPsychophysiology2019,3.0.5,60.12485587820348,
,,30MonoWAV/30MonoT1.wav,2,1,4,13,,,,,0,5,5,12,,,,,,,,,,,,,,,,,066,001,2019_May_28_1502,MusicAffectPsychophysiology2019,3.0.5,60.12485587820348,
To what extent did the music make you feel ,EXCITED,30MonoWAV/30MonoH3.wav,2,2,1,7,,,,,0,6,6,6,0,0,0,7,,,4,2.51832144799846,4,1.0519175020017428,3,1.951345620000211,4,1.1682694499977515,,,066,001,2019_May_28_1502,MusicAffectPsychophysiology2019,3.0.5,60.12485587820348,
To what extent did the music make you feel ,ANXIOUS ,30MonoWAV/30MonoH3.wav,2,2,1,7,,,,,0,6,6,6,0,1,1,1,,,,,,,,,1,1.3850969259947306,,,066,001,2019_May_28_1502,MusicAffectPsychophysiology2019,3.0.5,60.12485587820348,
To what extent did the music make you feel ,ALERT,30MonoWAV/30MonoH3.wav,2,2,1,7,,,,,0,6,6,6,0,2,2,8,,,,,,,,,3,1.88460810000106,,,066,001,2019_May_28_1502,MusicAffectPsychophysiology2019,3.0.5,60.12485587820348,
To what extent did the music make you feel ,ANGRY,30MonoWAV/30MonoH3.wav,2,2,1,7,,,,,0,6,6,6,0,3,3,2,,,,,,,,,1,1.2501506350017735,,,066,001,2019_May_28_1502,MusicAffectPsychophysiology2019,3.0.5,60.12485587820348,
To what extent did the music make you feel ,SCARED,30MonoWAV/30MonoH3.wav,2,2,1,7,,,,,0,6,6,6,0,4,4,11,,,,,,,,,1,1.0675516100018285,,,066,001,2019_May_28_1502,MusicAffectPsychophysiology2019,3.0.5,60.12485587820348,
To what extent did the music make you feel ,GUILTY,30MonoWAV/30MonoH3.wav,2,2,1,7,,,,,0,6,6,6,0,5,5,5,,,,,,,,,1,0.8181489410053473,,,066,001,2019_May_28_1502,MusicAffectPsychophysiology2019,3.0.5,60.12485587820348,
To what extent did the music make you feel ,ASHAMED,30MonoWAV/30MonoH3.wav,2,2,1,7,,,,,0,6,6,6,0,6,6,4,,,,,,,,,1,0.7339105149949319,,,066,001,2019_May_28_1502,MusicAffectPsychophysiology2019,3.0.5,60.12485587820348,
To what extent did the music make you feel ,ACTIVE,30MonoWAV/30MonoH3.wav,2,2,1,7,,,,,0,6,6,6,0,7,7,9,,,,,,,,,4,1.7019657539931359,,,066,001,2019_May_28_1502,MusicAffectPsychophysiology2019,3.0.5,60.12485587820348,
To what extent did the music make you feel ,HAPPY,30MonoWAV/30MonoH3.wav,2,2,1,7,,,,,0,6,6,6,0,8,8,6,,,,,,,,,4,2.1506169569984195,,,066,001,2019_May_28_1502,MusicAffectPsychophysiology2019,3.0.5,60.12485587820348,
To what extent did the music make you feel ,TENDER,30MonoWAV/30MonoH3.wav,2,2,1,7,,,,,0,6,6,6,0,9,9,10,,,,,,,,,3,1.9697286230002646,,,066,001,2019_May_28_1502,MusicAffectPsychophysiology2019,3.0.5,60.12485587820348,
To what extent did the music make you feel ,SAD,30MonoWAV/30MonoH3.wav,2,2,1,7,,,,,0,6,6,6,0,10,10,0,,,,,,,,,1,2.1176664240047103,,,066,001,2019_May_28_1502,MusicAffectPsychophysiology2019,3.0.5,60.12485587820348,
To what extent did the music make you feel ,FRUSTRATED,30MonoWAV/30MonoH3.wav,2,2,1,7,,,,,0,6,6,6,0,11,11,3,,,,,,,,,1,0.6679445859990665,,,066,001,2019_May_28_1502,MusicAffectPsychophysiology2019,3.0.5,60.12485587820348,
,,30MonoWAV/30MonoH3.wav,2,2,1,7,,,,,0,6,6,6,,,,,,,,,,,,,,,,,066,001,2019_May_28_1502,MusicAffectPsychophysiology2019,3.0.5,60.12485587820348,
To what extent did the music make you feel ,ANXIOUS ,30MonoWAV/30MonoF3.wav,1,2,2,3,,,,,0,7,7,2,0,0,0,1,,,3,3.5919247019992326,1,3.134243647000403,2,3.2014403540015337,3,2.734824851999292,,,066,001,2019_May_28_1502,MusicAffectPsychophysiology2019,3.0.5,60.12485587820348,
To what extent did the music make you feel ,GUILTY,30MonoWAV/30MonoF3.wav,1,2,2,3,,,,,0,7,7,2,0,1,1,5,,,,,,,,,2,1.9857496159966104,,,066,001,2019_May_28_1502,MusicAffectPsychophysiology2019,3.0.5,60.12485587820348,
To what extent did the music make you feel ,FRUSTRATED,30MonoWAV/30MonoF3.wav,1,2,2,3,,,,,0,7,7,2,0,2,2,3,,,,,,,,,1,1.8177766709995922,,,066,001,2019_May_28_1502,MusicAffectPsychophysiology2019,3.0.5,60.12485587820348,
To what extent did the music make you feel ,HAPPY,30MonoWAV/30MonoF3.wav,1,2,2,3,,,,,0,7,7,2,0,3,3,6,,,,,,,,,1,1.8516783070008387,,,066,001,2019_May_28_1502,MusicAffectPsychophysiology2019,3.0.5,60.12485587820348,
To what extent did the music make you feel ,SAD,30MonoWAV/30MonoF3.wav,1,2,2,3,,,,,0,7,7,2,0,4,4,0,,,,,,,,,1,2.7012956690014107,,,066,001,2019_May_28_1502,MusicAffectPsychophysiology2019,3.0.5,60.12485587820348,
To what extent did the music make you feel ,TENDER,30MonoWAV/30MonoF3.wav,1,2,2,3,,,,,0,7,7,2,0,5,5,10,,,,,,,,,1,0.7682005820024642,,,066,001,2019_May_28_1502,MusicAffectPsychophysiology2019,3.0.5,60.12485587820348,
To what extent did the music make you feel ,ANGRY,30MonoWAV/30MonoF3.wav,1,2,2,3,,,,,0,7,7,2,0,6,6,2,,,,,,,,,2,1.2397197230020538,,,066,001,2019_May_28_1502,MusicAffectPsychophysiology2019,3.0.5,60.12485587820348,
To what extent did the music make you feel ,ASHAMED,30MonoWAV/30MonoF3.wav,1,2,2,3,,,,,0,7,7,2,0,7,7,4,,,,,,,,,2,2.453880051994929,,,066,001,2019_May_28_1502,MusicAffectPsychophysiology2019,3.0.5,60.12485587820348,
To what extent did the music make you feel ,EXCITED,30MonoWAV/30MonoF3.wav,1,2,2,3,,,,,0,7,7,2,0,8,8,7,,,,,,,,,2,2.1545446470045135,,,066,001,2019_May_28_1502,MusicAffectPsychophysiology2019,3.0.5,60.12485587820348,
To what extent did the music make you feel ,ALERT,30MonoWAV/30MonoF3.wav,1,2,2,3,,,,,0,7,7,2,0,9,9,8,,,,,,,,,4,1.8203772229971946,,,066,001,2019_May_28_1502,MusicAffectPsychophysiology2019,3.0.5,60.12485587820348,
To what extent did the music make you feel ,SCARED,30MonoWAV/30MonoF3.wav,1,2,2,3,,,,,0,7,7,2,0,10,10,11,,,,,,,,,3,1.5227094069996383,,,066,001,2019_May_28_1502,MusicAffectPsychophysiology2019,3.0.5,60.12485587820348,
To what extent did the music make you feel ,ACTIVE,30MonoWAV/30MonoF3.wav,1,2,2,3,,,,,0,7,7,2,0,11,11,9,,,,,,,,,3,1.450513037001656,,,066,001,2019_May_28_1502,MusicAffectPsychophysiology2019,3.0.5,60.12485587820348,
,,30MonoWAV/30MonoF3.wav,1,2,2,3,,,,,0,7,7,2,,,,,,,,,,,,,,,,,066,001,2019_May_28_1502,MusicAffectPsychophysiology2019,3.0.5,60.12485587820348,
To what extent did the music make you feel ,ANXIOUS ,30MonoWAV/30MonoF1.wav,1,2,2,1,,,,,0,8,8,0,0,0,0,1,,,3,4.318314365002152,1,1.9515529700001935,1,1.184632820004481,4,2.018015697001829,,,066,001,2019_May_28_1502,MusicAffectPsychophysiology2019,3.0.5,60.12485587820348,
To what extent did the music make you feel ,SAD,30MonoWAV/30MonoF1.wav,1,2,2,1,,,,,0,8,8,0,0,1,1,0,,,,,,,,,1,1.4361872430017684,,,066,001,2019_May_28_1502,MusicAffectPsychophysiology2019,3.0.5,60.12485587820348,
To what extent did the music make you feel ,ALERT,30MonoWAV/30MonoF1.wav,1,2,2,1,,,,,0,8,8,0,0,2,2,8,,,,,,,,,4,1.5181240980018629,,,066,001,2019_May_28_1502,MusicAffectPsychophysiology2019,3.0.5,60.12485587820348,
To what extent did the music make you feel ,GUILTY,30MonoWAV/30MonoF1.wav,1,2,2,1,,,,,0,8,8,0,0,3,3,5,,,,,,,,,1,2.6006972749964916,,,066,001,2019_May_28_1502,MusicAffectPsychophysiology2019,3.0.5,60.12485587820348,
To what extent did the music make you feel ,SCARED,30MonoWAV/30MonoF1.wav,1,2,2,1,,,,,0,8,8,0,0,4,4,11,,,,,,,,,4,1.7667602340006852,,,066,001,2019_May_28_1502,MusicAffectPsychophysiology2019,3.0.5,60.12485587820348,
To what extent did the music make you feel ,ANGRY,30MonoWAV/30MonoF1.wav,1,2,2,1,,,,,0,8,8,0,0,5,5,2,,,,,,,,,3,2.6674451799990493,,,066,001,2019_May_28_1502,MusicAffectPsychophysiology2019,3.0.5,60.12485587820348,
To what extent did the music make you feel ,ACTIVE,30MonoWAV/30MonoF1.wav,1,2,2,1,,,,,0,8,8,0,0,6,6,9,,,,,,,,,4,2.1345416719996138,,,066,001,2019_May_28_1502,MusicAffectPsychophysiology2019,3.0.5,60.12485587820348,
To what extent did the music make you feel ,TENDER,30MonoWAV/30MonoF1.wav,1,2,2,1,,,,,0,8,8,0,0,7,7,10,,,,,,,,,1,2.6184379490005085,,,066,001,2019_May_28_1502,MusicAffectPsychophysiology2019,3.0.5,60.12485587820348,
To what extent did the music make you feel ,EXCITED,30MonoWAV/30MonoF1.wav,1,2,2,1,,,,,0,8,8,0,0,8,8,7,,,,,,,,,1,2.3684282730027917,,,066,001,2019_May_28_1502,MusicAffectPsychophysiology2019,3.0.5,60.12485587820348,
To what extent did the music make you feel ,FRUSTRATED,30MonoWAV/30MonoF1.wav,1,2,2,1,,,,,0,8,8,0,0,9,9,3,,,,,,,,,1,0.9177439780032728,,,066,001,2019_May_28_1502,MusicAffectPsychophysiology2019,3.0.5,60.12485587820348,
To what extent did the music make you feel ,HAPPY,30MonoWAV/30MonoF1.wav,1,2,2,1,,,,,0,8,8,0,0,10,10,6,,,,,,,,,1,0.8015363939994131,,,066,001,2019_May_28_1502,MusicAffectPsychophysiology2019,3.0.5,60.12485587820348,
To what extent did the music make you feel ,ASHAMED,30MonoWAV/30MonoF1.wav,1,2,2,1,,,,,0,8,8,0,0,11,11,4,,,,,,,,,1,0.68489566900098,,,066,001,2019_May_28_1502,MusicAffectPsychophysiology2019,3.0.5,60.12485587820348,
,,30MonoWAV/30MonoF1.wav,1,2,2,1,,,,,0,8,8,0,,,,,,,,,,,,,,,,,066,001,2019_May_28_1502,MusicAffectPsychophysiology2019,3.0.5,60.12485587820348,
To what extent did the music make you feel ,HAPPY,30MonoWAV/30MonoS2.wav,1,1,3,10,,,,,0,9,9,9,0,0,0,6,,,1,3.367369157000212,2,3.238765317000798,2,2.554683677997673,1,1.9871168219979154,,,066,001,2019_May_28_1502,MusicAffectPsychophysiology2019,3.0.5,60.12485587820348,
To what extent did the music make you feel ,ALERT,30MonoWAV/30MonoS2.wav,1,1,3,10,,,,,0,9,9,9,0,1,1,8,,,,,,,,,1,0.8177857999980915,,,066,001,2019_May_28_1502,MusicAffectPsychophysiology2019,3.0.5,60.12485587820348,
To what extent did the music make you feel ,EXCITED,30MonoWAV/30MonoS2.wav,1,1,3,10,,,,,0,9,9,9,0,2,2,7,,,,,,,,,1,0.9352019490033854,,,066,001,2019_May_28_1502,MusicAffectPsychophysiology2019,3.0.5,60.12485587820348,
To what extent did the music make you feel ,SAD,30MonoWAV/30MonoS2.wav,1,1,3,10,,,,,0,9,9,9,0,3,3,0,,,,,,,,,2,1.0866310549972695,,,066,001,2019_May_28_1502,MusicAffectPsychophysiology2019,3.0.5,60.12485587820348,
To what extent did the music make you feel ,ASHAMED,30MonoWAV/30MonoS2.wav,1,1,3,10,,,,,0,9,9,9,0,4,4,4,,,,,,,,,2,1.6232093020007596,,,066,001,2019_May_28_1502,MusicAffectPsychophysiology2019,3.0.5,60.12485587820348,
To what extent did the music make you feel ,ACTIVE,30MonoWAV/30MonoS2.wav,1,1,3,10,,,,,0,9,9,9,0,5,5,9,,,,,,,,,1,1.3341145509984926,,,066,001,2019_May_28_1502,MusicAffectPsychophysiology2019,3.0.5,60.12485587820348,
To what extent did the music make you feel ,ANGRY,30MonoWAV/30MonoS2.wav,1,1,3,10,,,,,0,9,9,9,0,6,6,2,,,,,,,,,1,0.9855908739991719,,,066,001,2019_May_28_1502,MusicAffectPsychophysiology2019,3.0.5,60.12485587820348,
To what extent did the music make you feel ,ANXIOUS ,30MonoWAV/30MonoS2.wav,1,1,3,10,,,,,0,9,9,9,0,7,7,1,,,,,,,,,1,0.7837750740000047,,,066,001,2019_May_28_1502,MusicAffectPsychophysiology2019,3.0.5,60.12485587820348,
To what extent did the music make you feel ,TENDER,30MonoWAV/30MonoS2.wav,1,1,3,10,,,,,0,9,9,9,0,8,8,10,,,,,,,,,2,1.6353134449964273,,,066,001,2019_May_28_1502,MusicAffectPsychophysiology2019,3.0.5,60.12485587820348,
To what extent did the music make you feel ,GUILTY,30MonoWAV/30MonoS2.wav,1,1,3,10,,,,,0,9,9,9,0,9,9,5,,,,,,,,,2,1.1852098500021384,,,066,001,2019_May_28_1502,MusicAffectPsychophysiology2019,3.0.5,60.12485587820348,
To what extent did the music make you feel ,SCARED,30MonoWAV/30MonoS2.wav,1,1,3,10,,,,,0,9,9,9,0,10,10,11,,,,,,,,,2,1.0182410120032728,,,066,001,2019_May_28_1502,MusicAffectPsychophysiology2019,3.0.5,60.12485587820348,
To what extent did the music make you feel ,FRUSTRATED,30MonoWAV/30MonoS2.wav,1,1,3,10,,,,,0,9,9,9,0,11,11,3,,,,,,,,,1,1.4686711899994407,,,066,001,2019_May_28_1502,MusicAffectPsychophysiology2019,3.0.5,60.12485587820348,
,,30MonoWAV/30MonoS2.wav,1,1,3,10,,,,,0,9,9,9,,,,,,,,,,,,,,,,,066,001,2019_May_28_1502,MusicAffectPsychophysiology2019,3.0.5,60.12485587820348,
To what extent did the music make you feel ,SCARED,30MonoWAV/30MonoH1.wav,2,2,1,5,,,,,0,10,10,4,0,0,0,11,,,4,2.988495222001802,4,0.1856691899956786,4,1.9683334399960586,1,1.5517807959986385,,,066,001,2019_May_28_1502,MusicAffectPsychophysiology2019,3.0.5,60.12485587820348,
To what extent did the music make you feel ,GUILTY,30MonoWAV/30MonoH1.wav,2,2,1,5,,,,,0,10,10,4,0,1,1,5,,,,,,,,,1,0.5511400959949242,,,066,001,2019_May_28_1502,MusicAffectPsychophysiology2019,3.0.5,60.12485587820348,
To what extent did the music make you feel ,ANXIOUS ,30MonoWAV/30MonoH1.wav,2,2,1,5,,,,,0,10,10,4,0,2,2,1,,,,,,,,,1,0.8347376169986092,,,066,001,2019_May_28_1502,MusicAffectPsychophysiology2019,3.0.5,60.12485587820348,
To what extent did the music make you feel ,ASHAMED,30MonoWAV/30MonoH1.wav,2,2,1,5,,,,,0,10,10,4,0,3,3,4,,,,,,,,,1,0.7842721220004023,,,066,001,2019_May_28_1502,MusicAffectPsychophysiology2019,3.0.5,60.12485587820348,
To what extent did the music make you feel ,TENDER,30MonoWAV/30MonoH1.wav,2,2,1,5,,,,,0,10,10,4,0,4,4,10,,,,,,,,,3,1.934688337998523,,,066,001,2019_May_28_1502,MusicAffectPsychophysiology2019,3.0.5,60.12485587820348,
To what extent did the music make you feel ,ALERT,30MonoWAV/30MonoH1.wav,2,2,1,5,,,,,0,10,10,4,0,5,5,8,,,,,,,,,3,2.401128705998417,,,066,001,2019_May_28_1502,MusicAffectPsychophysiology2019,3.0.5,60.12485587820348,
To what extent did the music make you feel ,EXCITED,30MonoWAV/30MonoH1.wav,2,2,1,5,,,,,0,10,10,4,0,6,6,7,,,,,,,,,5,2.600738040993747,,,066,001,2019_May_28_1502,MusicAffectPsychophysiology2019,3.0.5,60.12485587820348,
To what extent did the music make you feel ,FRUSTRATED,30MonoWAV/30MonoH1.wav,2,2,1,5,,,,,0,10,10,4,0,7,7,3,,,,,,,,,1,1.3194138769977144,,,066,001,2019_May_28_1502,MusicAffectPsychophysiology2019,3.0.5,60.12485587820348,
To what extent did the music make you feel ,ACTIVE,30MonoWAV/30MonoH1.wav,2,2,1,5,,,,,0,10,10,4,0,8,8,9,,,,,,,,,5,1.2353038920045947,,,066,001,2019_May_28_1502,MusicAffectPsychophysiology2019,3.0.5,60.12485587820348,
To what extent did the music make you feel ,SAD,30MonoWAV/30MonoH1.wav,2,2,1,5,,,,,0,10,10,4,0,9,9,0,,,,,,,,,1,1.2513351180023164,,,066,001,2019_May_28_1502,MusicAffectPsychophysiology2019,3.0.5,60.12485587820348,
To what extent did the music make you feel ,ANGRY,30MonoWAV/30MonoH1.wav,2,2,1,5,,,,,0,10,10,4,0,10,10,2,,,,,,,,,1,0.9501316039968515,,,066,001,2019_May_28_1502,MusicAffectPsychophysiology2019,3.0.5,60.12485587820348,
To what extent did the music make you feel ,HAPPY,30MonoWAV/30MonoH1.wav,2,2,1,5,,,,,0,10,10,4,0,11,11,6,,,,,,,,,4,1.417880906999926,,,066,001,2019_May_28_1502,MusicAffectPsychophysiology2019,3.0.5,60.12485587820348,
,,30MonoWAV/30MonoH1.wav,2,2,1,5,,,,,0,10,10,4,,,,,,,,,,,,,,,,,066,001,2019_May_28_1502,MusicAffectPsychophysiology2019,3.0.5,60.12485587820348,
To what extent did the music make you feel ,GUILTY,30MonoWAV/30MonoH2.wav,2,2,1,6,,,,,0,11,11,5,0,0,0,5,,,2,5.4178383909966215,1,1.6356944450017181,1,0.8563261559975217,1,1.4698511340029654,,,066,001,2019_May_28_1502,MusicAffectPsychophysiology2019,3.0.5,60.12485587820348,
To what extent did the music make you feel ,FRUSTRATED,30MonoWAV/30MonoH2.wav,2,2,1,6,,,,,0,11,11,5,0,1,1,3,,,,,,,,,1,1.7870628099990427,,,066,001,2019_May_28_1502,MusicAffectPsychophysiology2019,3.0.5,60.12485587820348,
To what extent did the music make you feel ,ANGRY,30MonoWAV/30MonoH2.wav,2,2,1,6,,,,,0,11,11,5,0,2,2,2,,,,,,,,,1,1.1529793869995046,,,066,001,2019_May_28_1502,MusicAffectPsychophysiology2019,3.0.5,60.12485587820348,
To what extent did the music make you feel ,SAD,30MonoWAV/30MonoH2.wav,2,2,1,6,,,,,0,11,11,5,0,3,3,0,,,,,,,,,1,0.9358844649977982,,,066,001,2019_May_28_1502,MusicAffectPsychophysiology2019,3.0.5,60.12485587820348,
To what extent did the music make you feel ,EXCITED,30MonoWAV/30MonoH2.wav,2,2,1,6,,,,,0,11,11,5,0,4,4,7,,,,,,,,,1,1.356567492999602,,,066,001,2019_May_28_1502,MusicAffectPsychophysiology2019,3.0.5,60.12485587820348,
To what extent did the music make you feel ,ANXIOUS ,30MonoWAV/30MonoH2.wav,2,2,1,6,,,,,0,11,11,5,0,5,5,1,,,,,,,,,1,1.2687111900013406,,,066,001,2019_May_28_1502,MusicAffectPsychophysiology2019,3.0.5,60.12485587820348,
To what extent did the music make you feel ,HAPPY,30MonoWAV/30MonoH2.wav,2,2,1,6,,,,,0,11,11,5,0,6,6,6,,,,,,,,,1,0.9519400369972573,,,066,001,2019_May_28_1502,MusicAffectPsychophysiology2019,3.0.5,60.12485587820348,
To what extent did the music make you feel ,SCARED,30MonoWAV/30MonoH2.wav,2,2,1,6,,,,,0,11,11,5,0,7,7,11,,,,,,,,,1,2.5531591500039212,,,066,001,2019_May_28_1502,MusicAffectPsychophysiology2019,3.0.5,60.12485587820348,
To what extent did the music make you feel ,ASHAMED,30MonoWAV/30MonoH2.wav,2,2,1,6,,,,,0,11,11,5,0,8,8,4,,,,,,,,,1,1.0692886750039179,,,066,001,2019_May_28_1502,MusicAffectPsychophysiology2019,3.0.5,60.12485587820348,
To what extent did the music make you feel ,ACTIVE,30MonoWAV/30MonoH2.wav,2,2,1,6,,,,,0,11,11,5,0,9,9,9,,,,,,,,,1,0.8840790079993894,,,066,001,2019_May_28_1502,MusicAffectPsychophysiology2019,3.0.5,60.12485587820348,
To what extent did the music make you feel ,TENDER,30MonoWAV/30MonoH2.wav,2,2,1,6,,,,,0,11,11,5,0,10,10,10,,,,,,,,,1,0.902387132999138,,,066,001,2019_May_28_1502,MusicAffectPsychophysiology2019,3.0.5,60.12485587820348,
To what extent did the music make you feel ,ALERT,30MonoWAV/30MonoH2.wav,2,2,1,6,,,,,0,11,11,5,0,11,11,8,,,,,,,,,1,1.1524886940023862,,,066,001,2019_May_28_1502,MusicAffectPsychophysiology2019,3.0.5,60.12485587820348,
,,30MonoWAV/30MonoH2.wav,2,2,1,6,,,,,0,11,11,5,,,,,,,,,,,,,,,,,066,001,2019_May_28_1502,MusicAffectPsychophysiology2019,3.0.5,60.12485587820348,
To what extent did the music make you feel ,ALERT,30MonoWAV/30MonoS1.wav,1,1,3,9,,,,,0,12,12,8,0,0,0,8,,,1,3.1179983760011964,1,5.685143800001242,1,2.117776202998357,2,3.2353868819991476,,,066,001,2019_May_28_1502,MusicAffectPsychophysiology2019,3.0.5,60.12485587820348,
To what extent did the music make you feel ,FRUSTRATED,30MonoWAV/30MonoS1.wav,1,1,3,9,,,,,0,12,12,8,0,1,1,3,,,,,,,,,2,1.6018576299975393,,,066,001,2019_May_28_1502,MusicAffectPsychophysiology2019,3.0.5,60.12485587820348,
To what extent did the music make you feel ,GUILTY,30MonoWAV/30MonoS1.wav,1,1,3,9,,,,,0,12,12,8,0,2,2,5,,,,,,,,,2,2.185170062999532,,,066,001,2019_May_28_1502,MusicAffectPsychophysiology2019,3.0.5,60.12485587820348,
To what extent did the music make you feel ,ASHAMED,30MonoWAV/30MonoS1.wav,1,1,3,9,,,,,0,12,12,8,0,3,3,4,,,,,,,,,2,1.1844100730013452,,,066,001,2019_May_28_1502,MusicAffectPsychophysiology2019,3.0.5,60.12485587820348,
To what extent did the music make you feel ,SAD,30MonoWAV/30MonoS1.wav,1,1,3,9,,,,,0,12,12,8,0,4,4,0,,,,,,,,,2,1.2507689289996051,,,066,001,2019_May_28_1502,MusicAffectPsychophysiology2019,3.0.5,60.12485587820348,
To what extent did the music make you feel ,SCARED,30MonoWAV/30MonoS1.wav,1,1,3,9,,,,,0,12,12,8,0,5,5,11,,,,,,,,,2,1.0680730679960106,,,066,001,2019_May_28_1502,MusicAffectPsychophysiology2019,3.0.5,60.12485587820348,
To what extent did the music make you feel ,ACTIVE,30MonoWAV/30MonoS1.wav,1,1,3,9,,,,,0,12,12,8,0,6,6,9,,,,,,,,,2,2.468575286999112,,,066,001,2019_May_28_1502,MusicAffectPsychophysiology2019,3.0.5,60.12485587820348,
To what extent did the music make you feel ,ANXIOUS ,30MonoWAV/30MonoS1.wav,1,1,3,9,,,,,0,12,12,8,0,7,7,1,,,,,,,,,2,0.968247295000765,,,066,001,2019_May_28_1502,MusicAffectPsychophysiology2019,3.0.5,60.12485587820348,
To what extent did the music make you feel ,EXCITED,30MonoWAV/30MonoS1.wav,1,1,3,9,,,,,0,12,12,8,0,8,8,7,,,,,,,,,1,2.234190479000972,,,066,001,2019_May_28_1502,MusicAffectPsychophysiology2019,3.0.5,60.12485587820348,
To what extent did the music make you feel ,HAPPY,30MonoWAV/30MonoS1.wav,1,1,3,9,,,,,0,12,12,8,0,9,9,6,,,,,,,,,1,2.2859974340026383,,,066,001,2019_May_28_1502,MusicAffectPsychophysiology2019,3.0.5,60.12485587820348,
To what extent did the music make you feel ,TENDER,30MonoWAV/30MonoS1.wav,1,1,3,9,,,,,0,12,12,8,0,10,10,10,,,,,,,,,2,1.0837180059970706,,,066,001,2019_May_28_1502,MusicAffectPsychophysiology2019,3.0.5,60.12485587820348,
To what extent did the music make you feel ,ANGRY,30MonoWAV/30MonoS1.wav,1,1,3,9,,,,,0,12,12,8,0,11,11,2,,,,,,,,,1,1.5025289280019933,,,066,001,2019_May_28_1502,MusicAffectPsychophysiology2019,3.0.5,60.12485587820348,
,,30MonoWAV/30MonoS1.wav,1,1,3,9,,,,,0,12,12,8,,,,,,,,,,,,,,,,,066,001,2019_May_28_1502,MusicAffectPsychophysiology2019,3.0.5,60.12485587820348,
To what extent did the music make you feel ,ASHAMED,30MonoWAV/30MonoF2.wav,1,2,2,2,,,,,0,13,13,1,0,0,0,4,,,3,4.002084580999508,1,1.7854852640011813,1,0.71862952200172,2,2.3850300049962243,,,066,001,2019_May_28_1502,MusicAffectPsychophysiology2019,3.0.5,60.12485587820348,
To what extent did the music make you feel ,ANXIOUS ,30MonoWAV/30MonoF2.wav,1,2,2,2,,,,,0,13,13,1,0,1,1,1,,,,,,,,,4,2.788828780001495,,,066,001,2019_May_28_1502,MusicAffectPsychophysiology2019,3.0.5,60.12485587820348,
To what extent did the music make you feel ,SCARED,30MonoWAV/30MonoF2.wav,1,2,2,2,,,,,0,13,13,1,0,2,2,11,,,,,,,,,4,2.1873797129956074,,,066,001,2019_May_28_1502,MusicAffectPsychophysiology2019,3.0.5,60.12485587820348,
To what extent did the music make you feel ,FRUSTRATED,30MonoWAV/30MonoF2.wav,1,2,2,2,,,,,0,13,13,1,0,3,3,3,,,,,,,,,1,1.2185087139951065,,,066,001,2019_May_28_1502,MusicAffectPsychophysiology2019,3.0.5,60.12485587820348,
To what extent did the music make you feel ,GUILTY,30MonoWAV/30MonoF2.wav,1,2,2,2,,,,,0,13,13,1,0,4,4,5,,,,,,,,,1,2.1195246930001304,,,066,001,2019_May_28_1502,MusicAffectPsychophysiology2019,3.0.5,60.12485587820348,
To what extent did the music make you feel ,ALERT,30MonoWAV/30MonoF2.wav,1,2,2,2,,,,,0,13,13,1,0,5,5,8,,,,,,,,,4,1.1196195440061274,,,066,001,2019_May_28_1502,MusicAffectPsychophysiology2019,3.0.5,60.12485587820348,
To what extent did the music make you feel ,TENDER,30MonoWAV/30MonoF2.wav,1,2,2,2,,,,,0,13,13,1,0,6,6,10,,,,,,,,,1,0.8561715559990262,,,066,001,2019_May_28_1502,MusicAffectPsychophysiology2019,3.0.5,60.12485587820348,
To what extent did the music make you feel ,ACTIVE,30MonoWAV/30MonoF2.wav,1,2,2,2,,,,,0,13,13,1,0,7,7,9,,,,,,,,,4,0.9686360499981674,,,066,001,2019_May_28_1502,MusicAffectPsychophysiology2019,3.0.5,60.12485587820348,
To what extent did the music make you feel ,ANGRY,30MonoWAV/30MonoF2.wav,1,2,2,2,,,,,0,13,13,1,0,8,8,2,,,,,,,,,1,1.4018569429972558,,,066,001,2019_May_28_1502,MusicAffectPsychophysiology2019,3.0.5,60.12485587820348,
To what extent did the music make you feel ,SAD,30MonoWAV/30MonoF2.wav,1,2,2,2,,,,,0,13,13,1,0,9,9,0,,,,,,,,,1,0.7023557580032502,,,066,001,2019_May_28_1502,MusicAffectPsychophysiology2019,3.0.5,60.12485587820348,
To what extent did the music make you feel ,HAPPY,30MonoWAV/30MonoF2.wav,1,2,2,2,,,,,0,13,13,1,0,10,10,6,,,,,,,,,1,2.0514768900029594,,,066,001,2019_May_28_1502,MusicAffectPsychophysiology2019,3.0.5,60.12485587820348,
To what extent did the music make you feel ,EXCITED,30MonoWAV/30MonoF2.wav,1,2,2,2,,,,,0,13,13,1,0,11,11,7,,,,,,,,,1,1.4184164899997995,,,066,001,2019_May_28_1502,MusicAffectPsychophysiology2019,3.0.5,60.12485587820348,
,,30MonoWAV/30MonoF2.wav,1,2,2,2,,,,,0,13,13,1,,,,,,,,,,,,,,,,,066,001,2019_May_28_1502,MusicAffectPsychophysiology2019,3.0.5,60.12485587820348,
To what extent did the music make you feel ,ANGRY,30MonoWAV/30MonoT4.wav,2,1,4,16,,,,,0,14,14,15,0,0,0,2,,,1,4.426334846000827,2,2.9511014849995263,2,2.168047808998381,1,1.3673389639952802,,,066,001,2019_May_28_1502,MusicAffectPsychophysiology2019,3.0.5,60.12485587820348,
To what extent did the music make you feel ,SCARED,30MonoWAV/30MonoT4.wav,2,1,4,16,,,,,0,14,14,15,0,1,1,11,,,,,,,,,2,2.1862518659982015,,,066,001,2019_May_28_1502,MusicAffectPsychophysiology2019,3.0.5,60.12485587820348,
To what extent did the music make you feel ,SAD,30MonoWAV/30MonoT4.wav,2,1,4,16,,,,,0,14,14,15,0,2,2,0,,,,,,,,,2,1.0188855579981464,,,066,001,2019_May_28_1502,MusicAffectPsychophysiology2019,3.0.5,60.12485587820348,
To what extent did the music make you feel ,GUILTY,30MonoWAV/30MonoT4.wav,2,1,4,16,,,,,0,14,14,15,0,3,3,5,,,,,,,,,1,2.90223301199876,,,066,001,2019_May_28_1502,MusicAffectPsychophysiology2019,3.0.5,60.12485587820348,
To what extent did the music make you feel ,FRUSTRATED,30MonoWAV/30MonoT4.wav,2,1,4,16,,,,,0,14,14,15,0,4,4,3,,,,,,,,,1,1.0008128230037983,,,066,001,2019_May_28_1502,MusicAffectPsychophysiology2019,3.0.5,60.12485587820348,
To what extent did the music make you feel ,ANXIOUS ,30MonoWAV/30MonoT4.wav,2,1,4,16,,,,,0,14,14,15,0,5,5,1,,,,,,,,,2,1.1185619719981332,,,066,001,2019_May_28_1502,MusicAffectPsychophysiology2019,3.0.5,60.12485587820348,
To what extent did the music make you feel ,ALERT,30MonoWAV/30MonoT4.wav,2,1,4,16,,,,,0,14,14,15,0,6,6,8,,,,,,,,,2,2.2863770189942443,,,066,001,2019_May_28_1502,MusicAffectPsychophysiology2019,3.0.5,60.12485587820348,
To what extent did the music make you feel ,EXCITED,30MonoWAV/30MonoT4.wav,2,1,4,16,,,,,0,14,14,15,0,7,7,7,,,,,,,,,1,3.73438104899833,,,066,001,2019_May_28_1502,MusicAffectPsychophysiology2019,3.0.5,60.12485587820348,
To what extent did the music make you feel ,HAPPY,30MonoWAV/30MonoT4.wav,2,1,4,16,,,,,0,14,14,15,0,8,8,6,,,,,,,,,1,0.8018083289935021,,,066,001,2019_May_28_1502,MusicAffectPsychophysiology2019,3.0.5,60.12485587820348,
To what extent did the music make you feel ,TENDER,30MonoWAV/30MonoT4.wav,2,1,4,16,,,,,0,14,14,15,0,9,9,10,,,,,,,,,2,3.849867684999481,,,066,001,2019_May_28_1502,MusicAffectPsychophysiology2019,3.0.5,60.12485587820348,
To what extent did the music make you feel ,ASHAMED,30MonoWAV/30MonoT4.wav,2,1,4,16,,,,,0,14,14,15,0,10,10,4,,,,,,,,,1,1.3519803029994364,,,066,001,2019_May_28_1502,MusicAffectPsychophysiology2019,3.0.5,60.12485587820348,
To what extent did the music make you feel ,ACTIVE,30MonoWAV/30MonoT4.wav,2,1,4,16,,,,,0,14,14,15,0,11,11,9,,,,,,,,,1,2.884670109997387,,,066,001,2019_May_28_1502,MusicAffectPsychophysiology2019,3.0.5,60.12485587820348,
,,30MonoWAV/30MonoT4.wav,2,1,4,16,,,,,0,14,14,15,,,,,,,,,,,,,,,,,066,001,2019_May_28_1502,MusicAffectPsychophysiology2019,3.0.5,60.12485587820348,
To what extent did the music make you feel ,ALERT,30MonoWAV/30MonoS3.wav,1,1,3,11,,,,,0,15,15,10,0,0,0,8,,,1,3.135237465998216,1,1.368556000998069,2,2.719254097995872,3,2.4847628619972966,,,066,001,2019_May_28_1502,MusicAffectPsychophysiology2019,3.0.5,60.12485587820348,
To what extent did the music make you feel ,ACTIVE,30MonoWAV/30MonoS3.wav,1,1,3,11,,,,,0,15,15,10,0,1,1,9,,,,,,,,,3,1.0523038250030368,,,066,001,2019_May_28_1502,MusicAffectPsychophysiology2019,3.0.5,60.12485587820348,
To what extent did the music make you feel ,EXCITED,30MonoWAV/30MonoS3.wav,1,1,3,11,,,,,0,15,15,10,0,2,2,7,,,,,,,,,1,1.251682002999587,,,066,001,2019_May_28_1502,MusicAffectPsychophysiology2019,3.0.5,60.12485587820348,
To what extent did the music make you feel ,ANGRY,30MonoWAV/30MonoS3.wav,1,1,3,11,,,,,0,15,15,10,0,3,3,2,,,,,,,,,1,1.3029354589962168,,,066,001,2019_May_28_1502,MusicAffectPsychophysiology2019,3.0.5,60.12485587820348,
To what extent did the music make you feel ,SCARED,30MonoWAV/30MonoS3.wav,1,1,3,11,,,,,0,15,15,10,0,4,4,11,,,,,,,,,3,1.2187663040022017,,,066,001,2019_May_28_1502,MusicAffectPsychophysiology2019,3.0.5,60.12485587820348,
To what extent did the music make you feel ,FRUSTRATED,30MonoWAV/30MonoS3.wav,1,1,3,11,,,,,0,15,15,10,0,5,5,3,,,,,,,,,1,1.0351792910005315,,,066,001,2019_May_28_1502,MusicAffectPsychophysiology2019,3.0.5,60.12485587820348,
To what extent did the music make you feel ,SAD,30MonoWAV/30MonoS3.wav,1,1,3,11,,,,,0,15,15,10,0,6,6,0,,,,,,,,,2,3.6511223780034925,,,066,001,2019_May_28_1502,MusicAffectPsychophysiology2019,3.0.5,60.12485587820348,
To what extent did the music make you feel ,ANXIOUS ,30MonoWAV/30MonoS3.wav,1,1,3,11,,,,,0,15,15,10,0,7,7,1,,,,,,,,,2,1.3684092979965499,,,066,001,2019_May_28_1502,MusicAffectPsychophysiology2019,3.0.5,60.12485587820348,
To what extent did the music make you feel ,GUILTY,30MonoWAV/30MonoS3.wav,1,1,3,11,,,,,0,15,15,10,0,8,8,5,,,,,,,,,1,1.1835213379963534,,,066,001,2019_May_28_1502,MusicAffectPsychophysiology2019,3.0.5,60.12485587820348,
To what extent did the music make you feel ,HAPPY,30MonoWAV/30MonoS3.wav,1,1,3,11,,,,,0,15,15,10,0,9,9,6,,,,,,,,,1,1.0032057729986263,,,066,001,2019_May_28_1502,MusicAffectPsychophysiology2019,3.0.5,60.12485587820348,
To what extent did the music make you feel ,ASHAMED,30MonoWAV/30MonoS3.wav,1,1,3,11,,,,,0,15,15,10,0,10,10,4,,,,,,,,,1,0.9349460309967981,,,066,001,2019_May_28_1502,MusicAffectPsychophysiology2019,3.0.5,60.12485587820348,
To what extent did the music make you feel ,TENDER,30MonoWAV/30MonoS3.wav,1,1,3,11,,,,,0,15,15,10,0,11,11,10,,,,,,,,,2,1.401647922997654,,,066,001,2019_May_28_1502,MusicAffectPsychophysiology2019,3.0.5,60.12485587820348,
,,30MonoWAV/30MonoS3.wav,1,1,3,11,,,,,0,15,15,10,,,,,,,,,,,,,,,,,066,001,2019_May_28_1502,MusicAffectPsychophysiology2019,3.0.5,60.12485587820348,
To what extent did the music make you feel ,EXCITED,30MonoWAV/30MonoH4.wav,2,2,1,8,,,,,1,0,16,7,0,0,0,7,,,4,2.5021884409943596,3,3.231947839005443,4,1.35177579500305,3,2.568525624999893,,,066,001,2019_May_28_1502,MusicAffectPsychophysiology2019,3.0.5,60.12485587820348,
To what extent did the music make you feel ,SAD,30MonoWAV/30MonoH4.wav,2,2,1,8,,,,,1,0,16,7,0,1,1,0,,,,,,,,,1,1.468501147995994,,,066,001,2019_May_28_1502,MusicAffectPsychophysiology2019,3.0.5,60.12485587820348,
To what extent did the music make you feel ,HAPPY,30MonoWAV/30MonoH4.wav,2,2,1,8,,,,,1,0,16,7,0,2,2,6,,,,,,,,,3,2.6516207400054554,,,066,001,2019_May_28_1502,MusicAffectPsychophysiology2019,3.0.5,60.12485587820348,
To what extent did the music make you feel ,ASHAMED,30MonoWAV/30MonoH4.wav,2,2,1,8,,,,,1,0,16,7,0,3,3,4,,,,,,,,,1,1.417677822006226,,,066,001,2019_May_28_1502,MusicAffectPsychophysiology2019,3.0.5,60.12485587820348,
To what extent did the music make you feel ,TENDER,30MonoWAV/30MonoH4.wav,2,2,1,8,,,,,1,0,16,7,0,4,4,10,,,,,,,,,2,3.751166859001387,,,066,001,2019_May_28_1502,MusicAffectPsychophysiology2019,3.0.5,60.12485587820348,
To what extent did the music make you feel ,ALERT,30MonoWAV/30MonoH4.wav,2,2,1,8,,,,,1,0,16,7,0,5,5,8,,,,,,,,,3,2.1348113310014014,,,066,001,2019_May_28_1502,MusicAffectPsychophysiology2019,3.0.5,60.12485587820348,
To what extent did the music make you feel ,ANGRY,30MonoWAV/30MonoH4.wav,2,2,1,8,,,,,1,0,16,7,0,6,6,2,,,,,,,,,1,1.351256210997235,,,066,001,2019_May_28_1502,MusicAffectPsychophysiology2019,3.0.5,60.12485587820348,
To what extent did the music make you feel ,ANXIOUS ,30MonoWAV/30MonoH4.wav,2,2,1,8,,,,,1,0,16,7,0,7,7,1,,,,,,,,,1,2.501671625999734,,,066,001,2019_May_28_1502,MusicAffectPsychophysiology2019,3.0.5,60.12485587820348,
To what extent did the music make you feel ,SCARED,30MonoWAV/30MonoH4.wav,2,2,1,8,,,,,1,0,16,7,0,8,8,11,,,,,,,,,1,0.6353471959955641,,,066,001,2019_May_28_1502,MusicAffectPsychophysiology2019,3.0.5,60.12485587820348,
To what extent did the music make you feel ,GUILTY,30MonoWAV/30MonoH4.wav,2,2,1,8,,,,,1,0,16,7,0,9,9,5,,,,,,,,,1,0.568418593997194,,,066,001,2019_May_28_1502,MusicAffectPsychophysiology2019,3.0.5,60.12485587820348,
To what extent did the music make you feel ,ACTIVE,30MonoWAV/30MonoH4.wav,2,2,1,8,,,,,1,0,16,7,0,10,10,9,,,,,,,,,3,1.9520278060008422,,,066,001,2019_May_28_1502,MusicAffectPsychophysiology2019,3.0.5,60.12485587820348,
To what extent did the music make you feel ,FRUSTRATED,30MonoWAV/30MonoH4.wav,2,2,1,8,,,,,1,0,16,7,0,11,11,3,,,,,,,,,1,1.8672772440040717,,,066,001,2019_May_28_1502,MusicAffectPsychophysiology2019,3.0.5,60.12485587820348,
,,30MonoWAV/30MonoH4.wav,2,2,1,8,,,,,1,0,16,7,,,,,,,,,,,,,,,,,066,001,2019_May_28_1502,MusicAffectPsychophysiology2019,3.0.5,60.12485587820348,
To what extent did the music make you feel ,FRUSTRATED,30MonoWAV/30MonoF1.wav,1,2,2,1,,,,,1,1,17,0,0,0,0,3,,,3,5.669510054998682,1,2.568404666999413,1,2.5015175420048763,1,2.002310440002475,,,066,001,2019_May_28_1502,MusicAffectPsychophysiology2019,3.0.5,60.12485587820348,
To what extent did the music make you feel ,ANXIOUS ,30MonoWAV/30MonoF1.wav,1,2,2,1,,,,,1,1,17,0,0,1,1,1,,,,,,,,,2,1.3512087689960026,,,066,001,2019_May_28_1502,MusicAffectPsychophysiology2019,3.0.5,60.12485587820348,
To what extent did the music make you feel ,ANGRY,30MonoWAV/30MonoF1.wav,1,2,2,1,,,,,1,1,17,0,0,2,2,2,,,,,,,,,1,1.2349922349967528,,,066,001,2019_May_28_1502,MusicAffectPsychophysiology2019,3.0.5,60.12485587820348,
To what extent did the music make you feel ,TENDER,30MonoWAV/30MonoF1.wav,1,2,2,1,,,,,1,1,17,0,0,3,3,10,,,,,,,,,1,1.3681040040028165,,,066,001,2019_May_28_1502,MusicAffectPsychophysiology2019,3.0.5,60.12485587820348,
To what extent did the music make you feel ,HAPPY,30MonoWAV/30MonoF1.wav,1,2,2,1,,,,,1,1,17,0,0,4,4,6,,,,,,,,,1,0.8344219930004328,,,066,001,2019_May_28_1502,MusicAffectPsychophysiology2019,3.0.5,60.12485587820348,
To what extent did the music make you feel ,EXCITED,30MonoWAV/30MonoF1.wav,1,2,2,1,,,,,1,1,17,0,0,5,5,7,,,,,,,,,1,5.017857133003417,,,066,001,2019_May_28_1502,MusicAffectPsychophysiology2019,3.0.5,60.12485587820348,
To what extent did the music make you feel ,ALERT,30MonoWAV/30MonoF1.wav,1,2,2,1,,,,,1,1,17,0,0,6,6,8,,,,,,,,,3,3.2007327920000535,,,066,001,2019_May_28_1502,MusicAffectPsychophysiology2019,3.0.5,60.12485587820348,
To what extent did the music make you feel ,ASHAMED,30MonoWAV/30MonoF1.wav,1,2,2,1,,,,,1,1,17,0,0,7,7,4,,,,,,,,,1,3.0494625520004774,,,066,001,2019_May_28_1502,MusicAffectPsychophysiology2019,3.0.5,60.12485587820348,
To what extent did the music make you feel ,ACTIVE,30MonoWAV/30MonoF1.wav,1,2,2,1,,,,,1,1,17,0,0,8,8,9,,,,,,,,,2,2.0014100249973126,,,066,001,2019_May_28_1502,MusicAffectPsychophysiology2019,3.0.5,60.12485587820348,
To what extent did the music make you feel ,SCARED,30MonoWAV/30MonoF1.wav,1,2,2,1,,,,,1,1,17,0,0,9,9,11,,,,,,,,,2,1.2355139490027796,,,066,001,2019_May_28_1502,MusicAffectPsychophysiology2019,3.0.5,60.12485587820348,
To what extent did the music make you feel ,GUILTY,30MonoWAV/30MonoF1.wav,1,2,2,1,,,,,1,1,17,0,0,10,10,5,,,,,,,,,1,2.0844504889973905,,,066,001,2019_May_28_1502,MusicAffectPsychophysiology2019,3.0.5,60.12485587820348,
To what extent did the music make you feel ,SAD,30MonoWAV/30MonoF1.wav,1,2,2,1,,,,,1,1,17,0,0,11,11,0,,,,,,,,,1,1.0344192659977125,,,066,001,2019_May_28_1502,MusicAffectPsychophysiology2019,3.0.5,60.12485587820348,
,,30MonoWAV/30MonoF1.wav,1,2,2,1,,,,,1,1,17,0,,,,,,,,,,,,,,,,,066,001,2019_May_28_1502,MusicAffectPsychophysiology2019,3.0.5,60.12485587820348,
To what extent did the music make you feel ,SCARED,30MonoWAV/30MonoT3.wav,2,1,4,15,,,,,1,2,18,14,0,0,0,11,,,1,3.084821557000396,1,2.0016658610038576,1,1.3513942940044217,2,3.618374406003568,,,066,001,2019_May_28_1502,MusicAffectPsychophysiology2019,3.0.5,60.12485587820348,
To what extent did the music make you feel ,GUILTY,30MonoWAV/30MonoT3.wav,2,1,4,15,,,,,1,2,18,14,0,1,1,5,,,,,,,,,1,0.9691868959998828,,,066,001,2019_May_28_1502,MusicAffectPsychophysiology2019,3.0.5,60.12485587820348,
To what extent did the music make you feel ,HAPPY,30MonoWAV/30MonoT3.wav,2,1,4,15,,,,,1,2,18,14,0,2,2,6,,,,,,,,,2,2.634282646999054,,,066,001,2019_May_28_1502,MusicAffectPsychophysiology2019,3.0.5,60.12485587820348,
To what extent did the music make you feel ,ALERT,30MonoWAV/30MonoT3.wav,2,1,4,15,,,,,1,2,18,14,0,3,3,8,,,,,,,,,2,1.8181290020002052,,,066,001,2019_May_28_1502,MusicAffectPsychophysiology2019,3.0.5,60.12485587820348,
To what extent did the music make you feel ,SAD,30MonoWAV/30MonoT3.wav,2,1,4,15,,,,,1,2,18,14,0,4,4,0,,,,,,,,,2,1.0849603579990799,,,066,001,2019_May_28_1502,MusicAffectPsychophysiology2019,3.0.5,60.12485587820348,
To what extent did the music make you feel ,ASHAMED,30MonoWAV/30MonoT3.wav,2,1,4,15,,,,,1,2,18,14,0,5,5,4,,,,,,,,,1,0.7519337780031492,,,066,001,2019_May_28_1502,MusicAffectPsychophysiology2019,3.0.5,60.12485587820348,
To what extent did the music make you feel ,FRUSTRATED,30MonoWAV/30MonoT3.wav,2,1,4,15,,,,,1,2,18,14,0,6,6,3,,,,,,,,,1,0.8850059420001344,,,066,001,2019_May_28_1502,MusicAffectPsychophysiology2019,3.0.5,60.12485587820348,
To what extent did the music make you feel ,ANXIOUS ,30MonoWAV/30MonoT3.wav,2,1,4,15,,,,,1,2,18,14,0,7,7,1,,,,,,,,,2,0.9350236950049293,,,066,001,2019_May_28_1502,MusicAffectPsychophysiology2019,3.0.5,60.12485587820348,
To what extent did the music make you feel ,EXCITED,30MonoWAV/30MonoT3.wav,2,1,4,15,,,,,1,2,18,14,0,8,8,7,,,,,,,,,1,1.5519629679984064,,,066,001,2019_May_28_1502,MusicAffectPsychophysiology2019,3.0.5,60.12485587820348,
To what extent did the music make you feel ,ACTIVE,30MonoWAV/30MonoT3.wav,2,1,4,15,,,,,1,2,18,14,0,9,9,9,,,,,,,,,1,1.0852419410002767,,,066,001,2019_May_28_1502,MusicAffectPsychophysiology2019,3.0.5,60.12485587820348,
To what extent did the music make you feel ,ANGRY,30MonoWAV/30MonoT3.wav,2,1,4,15,,,,,1,2,18,14,0,10,10,2,,,,,,,,,1,1.350036875999649,,,066,001,2019_May_28_1502,MusicAffectPsychophysiology2019,3.0.5,60.12485587820348,
To what extent did the music make you feel ,TENDER,30MonoWAV/30MonoT3.wav,2,1,4,15,,,,,1,2,18,14,0,11,11,10,,,,,,,,,2,1.1012308659992414,,,066,001,2019_May_28_1502,MusicAffectPsychophysiology2019,3.0.5,60.12485587820348,
,,30MonoWAV/30MonoT3.wav,2,1,4,15,,,,,1,2,18,14,,,,,,,,,,,,,,,,,066,001,2019_May_28_1502,MusicAffectPsychophysiology2019,3.0.5,60.12485587820348,
To what extent did the music make you feel ,HAPPY,30MonoWAV/30MonoT2.wav,2,1,4,14,,,,,1,3,19,13,0,0,0,6,,,1,5.286428432998946,3,2.40193636600452,2,1.8180104240018409,3,2.5345566589967348,,,066,001,2019_May_28_1502,MusicAffectPsychophysiology2019,3.0.5,60.12485587820348,
To what extent did the music make you feel ,TENDER,30MonoWAV/30MonoT2.wav,2,1,4,14,,,,,1,3,19,13,0,1,1,10,,,,,,,,,3,1.0855027560028248,,,066,001,2019_May_28_1502,MusicAffectPsychophysiology2019,3.0.5,60.12485587820348,
To what extent did the music make you feel ,ALERT,30MonoWAV/30MonoT2.wav,2,1,4,14,,,,,1,3,19,13,0,2,2,8,,,,,,,,,1,2.117567338005756,,,066,001,2019_May_28_1502,MusicAffectPsychophysiology2019,3.0.5,60.12485587820348,
To what extent did the music make you feel ,ANXIOUS ,30MonoWAV/30MonoT2.wav,2,1,4,14,,,,,1,3,19,13,0,3,3,1,,,,,,,,,1,1.1016258460003883,,,066,001,2019_May_28_1502,MusicAffectPsychophysiology2019,3.0.5,60.12485587820348,
To what extent did the music make you feel ,FRUSTRATED,30MonoWAV/30MonoT2.wav,2,1,4,14,,,,,1,3,19,13,0,4,4,3,,,,,,,,,1,1.1018438819955918,,,066,001,2019_May_28_1502,MusicAffectPsychophysiology2019,3.0.5,60.12485587820348,
To what extent did the music make you feel ,ANGRY,30MonoWAV/30MonoT2.wav,2,1,4,14,,,,,1,3,19,13,0,5,5,2,,,,,,,,,1,0.6021965499967337,,,066,001,2019_May_28_1502,MusicAffectPsychophysiology2019,3.0.5,60.12485587820348,
To what extent did the music make you feel ,ACTIVE,30MonoWAV/30MonoT2.wav,2,1,4,14,,,,,1,3,19,13,0,6,6,9,,,,,,,,,1,1.4675575319997733,,,066,001,2019_May_28_1502,MusicAffectPsychophysiology2019,3.0.5,60.12485587820348,
To what extent did the music make you feel ,SAD,30MonoWAV/30MonoT2.wav,2,1,4,14,,,,,1,3,19,13,0,7,7,0,,,,,,,,,2,1.3353305780037772,,,066,001,2019_May_28_1502,MusicAffectPsychophysiology2019,3.0.5,60.12485587820348,
To what extent did the music make you feel ,SCARED,30MonoWAV/30MonoT2.wav,2,1,4,14,,,,,1,3,19,13,0,8,8,11,,,,,,,,,1,0.7838873960063211,,,066,001,2019_May_28_1502,MusicAffectPsychophysiology2019,3.0.5,60.12485587820348,
To what extent did the music make you feel ,GUILTY,30MonoWAV/30MonoT2.wav,2,1,4,14,,,,,1,3,19,13,0,9,9,5,,,,,,,,,1,2.9837902509971173,,,066,001,2019_May_28_1502,MusicAffectPsychophysiology2019,3.0.5,60.12485587820348,
To what extent did the music make you feel ,EXCITED,30MonoWAV/30MonoT2.wav,2,1,4,14,,,,,1,3,19,13,0,10,10,7,,,,,,,,,1,1.1348637880000751,,,066,001,2019_May_28_1502,MusicAffectPsychophysiology2019,3.0.5,60.12485587820348,
To what extent did the music make you feel ,ASHAMED,30MonoWAV/30MonoT2.wav,2,1,4,14,,,,,1,3,19,13,0,11,11,4,,,,,,,,,1,0.7182188680017134,,,066,001,2019_May_28_1502,MusicAffectPsychophysiology2019,3.0.5,60.12485587820348,
,,30MonoWAV/30MonoT2.wav,2,1,4,14,,,,,1,3,19,13,,,,,,,,,,,,,,,,,066,001,2019_May_28_1502,MusicAffectPsychophysiology2019,3.0.5,60.12485587820348,
To what extent did the music make you feel ,ASHAMED,30MonoWAV/30MonoS3.wav,1,1,3,11,,,,,1,4,20,10,0,0,0,4,,,1,4.30121794599836,1,3.0690499920019647,1,1.3862311089978903,1,1.968488974001957,,,066,001,2019_May_28_1502,MusicAffectPsychophysiology2019,3.0.5,60.12485587820348,
To what extent did the music make you feel ,ANGRY,30MonoWAV/30MonoS3.wav,1,1,3,11,,,,,1,4,20,10,0,1,1,2,,,,,,,,,1,0.8180716520000715,,,066,001,2019_May_28_1502,MusicAffectPsychophysiology2019,3.0.5,60.12485587820348,
To what extent did the music make you feel ,EXCITED,30MonoWAV/30MonoS3.wav,1,1,3,11,,,,,1,4,20,10,0,2,2,7,,,,,,,,,1,1.384972371000913,,,066,001,2019_May_28_1502,MusicAffectPsychophysiology2019,3.0.5,60.12485587820348,
To what extent did the music make you feel ,TENDER,30MonoWAV/30MonoS3.wav,1,1,3,11,,,,,1,4,20,10,0,3,3,10,,,,,,,,,1,1.402329753000231,,,066,001,2019_May_28_1502,MusicAffectPsychophysiology2019,3.0.5,60.12485587820348,
To what extent did the music make you feel ,SAD,30MonoWAV/30MonoS3.wav,1,1,3,11,,,,,1,4,20,10,0,4,4,0,,,,,,,,,2,1.9856684469996253,,,066,001,2019_May_28_1502,MusicAffectPsychophysiology2019,3.0.5,60.12485587820348,
To what extent did the music make you feel ,SCARED,30MonoWAV/30MonoS3.wav,1,1,3,11,,,,,1,4,20,10,0,5,5,11,,,,,,,,,1,1.6490241509964108,,,066,001,2019_May_28_1502,MusicAffectPsychophysiology2019,3.0.5,60.12485587820348,
To what extent did the music make you feel ,ANXIOUS ,30MonoWAV/30MonoS3.wav,1,1,3,11,,,,,1,4,20,10,0,6,6,1,,,,,,,,,1,2.485312956996495,,,066,001,2019_May_28_1502,MusicAffectPsychophysiology2019,3.0.5,60.12485587820348,
To what extent did the music make you feel ,GUILTY,30MonoWAV/30MonoS3.wav,1,1,3,11,,,,,1,4,20,10,0,7,7,5,,,,,,,,,1,2.1840878529983456,,,066,001,2019_May_28_1502,MusicAffectPsychophysiology2019,3.0.5,60.12485587820348,
To what extent did the music make you feel ,HAPPY,30MonoWAV/30MonoS3.wav,1,1,3,11,,,,,1,4,20,10,0,8,8,6,,,,,,,,,1,1.3672922729965649,,,066,001,2019_May_28_1502,MusicAffectPsychophysiology2019,3.0.5,60.12485587820348,
To what extent did the music make you feel ,ALERT,30MonoWAV/30MonoS3.wav,1,1,3,11,,,,,1,4,20,10,0,9,9,8,,,,,,,,,2,1.985586393995618,,,066,001,2019_May_28_1502,MusicAffectPsychophysiology2019,3.0.5,60.12485587820348,
To what extent did the music make you feel ,FRUSTRATED,30MonoWAV/30MonoS3.wav,1,1,3,11,,,,,1,4,20,10,0,10,10,3,,,,,,,,,1,1.4343951550035854,,,066,001,2019_May_28_1502,MusicAffectPsychophysiology2019,3.0.5,60.12485587820348,
To what extent did the music make you feel ,ACTIVE,30MonoWAV/30MonoS3.wav,1,1,3,11,,,,,1,4,20,10,0,11,11,9,,,,,,,,,1,1.2846011360015837,,,066,001,2019_May_28_1502,MusicAffectPsychophysiology2019,3.0.5,60.12485587820348,
,,30MonoWAV/30MonoS3.wav,1,1,3,11,,,,,1,4,20,10,,,,,,,,,,,,,,,,,066,001,2019_May_28_1502,MusicAffectPsychophysiology2019,3.0.5,60.12485587820348,
To what extent did the music make you feel ,ASHAMED,30MonoWAV/30MonoH2.wav,2,2,1,6,,,,,1,5,21,5,0,0,0,4,,,2,2.5587444369957666,2,1.683640852003009,2,1.3368923849993735,1,1.1689338520009187,,,066,001,2019_May_28_1502,MusicAffectPsychophysiology2019,3.0.5,60.12485587820348,
To what extent did the music make you feel ,SAD,30MonoWAV/30MonoH2.wav,2,2,1,6,,,,,1,5,21,5,0,1,1,0,,,,,,,,,1,0.5516391299970564,,,066,001,2019_May_28_1502,MusicAffectPsychophysiology2019,3.0.5,60.12485587820348,
To what extent did the music make you feel ,SCARED,30MonoWAV/30MonoH2.wav,2,2,1,6,,,,,1,5,21,5,0,2,2,11,,,,,,,,,1,0.9684261889997288,,,066,001,2019_May_28_1502,MusicAffectPsychophysiology2019,3.0.5,60.12485587820348,
To what extent did the music make you feel ,ANXIOUS ,30MonoWAV/30MonoH2.wav,2,2,1,6,,,,,1,5,21,5,0,3,3,1,,,,,,,,,1,0.7355662580011995,,,066,001,2019_May_28_1502,MusicAffectPsychophysiology2019,3.0.5,60.12485587820348,
To what extent did the music make you feel ,TENDER,30MonoWAV/30MonoH2.wav,2,2,1,6,,,,,1,5,21,5,0,4,4,10,,,,,,,,,2,1.6851659050007584,,,066,001,2019_May_28_1502,MusicAffectPsychophysiology2019,3.0.5,60.12485587820348,
To what extent did the music make you feel ,EXCITED,30MonoWAV/30MonoH2.wav,2,2,1,6,,,,,1,5,21,5,0,5,5,7,,,,,,,,,3,0.9844507750021876,,,066,001,2019_May_28_1502,MusicAffectPsychophysiology2019,3.0.5,60.12485587820348,
To what extent did the music make you feel ,ALERT,30MonoWAV/30MonoH2.wav,2,2,1,6,,,,,1,5,21,5,0,6,6,8,,,,,,,,,3,1.3690019249988836,,,066,001,2019_May_28_1502,MusicAffectPsychophysiology2019,3.0.5,60.12485587820348,
To what extent did the music make you feel ,FRUSTRATED,30MonoWAV/30MonoH2.wav,2,2,1,6,,,,,1,5,21,5,0,7,7,3,,,,,,,,,1,1.5191135049972218,,,066,001,2019_May_28_1502,MusicAffectPsychophysiology2019,3.0.5,60.12485587820348,
To what extent did the music make you feel ,GUILTY,30MonoWAV/30MonoH2.wav,2,2,1,6,,,,,1,5,21,5,0,8,8,5,,,,,,,,,1,0.7682659700003569,,,066,001,2019_May_28_1502,MusicAffectPsychophysiology2019,3.0.5,60.12485587820348,
To what extent did the music make you feel ,ANGRY,30MonoWAV/30MonoH2.wav,2,2,1,6,,,,,1,5,21,5,0,9,9,2,,,,,,,,,1,0.6512453620016458,,,066,001,2019_May_28_1502,MusicAffectPsychophysiology2019,3.0.5,60.12485587820348,
To what extent did the music make you feel ,HAPPY,30MonoWAV/30MonoH2.wav,2,2,1,6,,,,,1,5,21,5,0,10,10,6,,,,,,,,,2,1.1344321509968722,,,066,001,2019_May_28_1502,MusicAffectPsychophysiology2019,3.0.5,60.12485587820348,
To what extent did the music make you feel ,ACTIVE,30MonoWAV/30MonoH2.wav,2,2,1,6,,,,,1,5,21,5,0,11,11,9,,,,,,,,,2,1.13507418899826,,,066,001,2019_May_28_1502,MusicAffectPsychophysiology2019,3.0.5,60.12485587820348,
,,30MonoWAV/30MonoH2.wav,2,2,1,6,,,,,1,5,21,5,,,,,,,,,,,,,,,,,066,001,2019_May_28_1502,MusicAffectPsychophysiology2019,3.0.5,60.12485587820348,
To what extent did the music make you feel ,ACTIVE,30MonoWAV/30MonoH3.wav,2,2,1,7,,,,,1,6,22,6,0,0,0,9,,,3,2.46822506999888,3,1.3522340670024278,3,0.800796439005353,3,0.9852065140003106,,,066,001,2019_May_28_1502,MusicAffectPsychophysiology2019,3.0.5,60.12485587820348,
To what extent did the music make you feel ,ASHAMED,30MonoWAV/30MonoH3.wav,2,2,1,7,,,,,1,6,22,6,0,1,1,4,,,,,,,,,1,1.0836644660012098,,,066,001,2019_May_28_1502,MusicAffectPsychophysiology2019,3.0.5,60.12485587820348,
To what extent did the music make you feel ,SCARED,30MonoWAV/30MonoH3.wav,2,2,1,7,,,,,1,6,22,6,0,2,2,11,,,,,,,,,1,0.9519181170035154,,,066,001,2019_May_28_1502,MusicAffectPsychophysiology2019,3.0.5,60.12485587820348,
To what extent did the music make you feel ,TENDER,30MonoWAV/30MonoH3.wav,2,2,1,7,,,,,1,6,22,6,0,3,3,10,,,,,,,,,2,1.0342359539936297,,,066,001,2019_May_28_1502,MusicAffectPsychophysiology2019,3.0.5,60.12485587820348,
To what extent did the music make you feel ,ANGRY,30MonoWAV/30MonoH3.wav,2,2,1,7,,,,,1,6,22,6,0,4,4,2,,,,,,,,,1,1.4177821920020506,,,066,001,2019_May_28_1502,MusicAffectPsychophysiology2019,3.0.5,60.12485587820348,
To what extent did the music make you feel ,ANXIOUS ,30MonoWAV/30MonoH3.wav,2,2,1,7,,,,,1,6,22,6,0,5,5,1,,,,,,,,,1,1.084823254001094,,,066,001,2019_May_28_1502,MusicAffectPsychophysiology2019,3.0.5,60.12485587820348,
To what extent did the music make you feel ,EXCITED,30MonoWAV/30MonoH3.wav,2,2,1,7,,,,,1,6,22,6,0,6,6,7,,,,,,,,,3,1.3015496650041314,,,066,001,2019_May_28_1502,MusicAffectPsychophysiology2019,3.0.5,60.12485587820348,
To what extent did the music make you feel ,SAD,30MonoWAV/30MonoH3.wav,2,2,1,7,,,,,1,6,22,6,0,7,7,0,,,,,,,,,1,1.0022305520033115,,,066,001,2019_May_28_1502,MusicAffectPsychophysiology2019,3.0.5,60.12485587820348,
To what extent did the music make you feel ,ALERT,30MonoWAV/30MonoH3.wav,2,2,1,7,,,,,1,6,22,6,0,8,8,8,,,,,,,,,3,1.0679176449993975,,,066,001,2019_May_28_1502,MusicAffectPsychophysiology2019,3.0.5,60.12485587820348,
To what extent did the music make you feel ,FRUSTRATED,30MonoWAV/30MonoH3.wav,2,2,1,7,,,,,1,6,22,6,0,9,9,3,,,,,,,,,1,0.9341852770012338,,,066,001,2019_May_28_1502,MusicAffectPsychophysiology2019,3.0.5,60.12485587820348,
To what extent did the music make you feel ,HAPPY,30MonoWAV/30MonoH3.wav,2,2,1,7,,,,,1,6,22,6,0,10,10,6,,,,,,,,,3,1.1184065350025776,,,066,001,2019_May_28_1502,MusicAffectPsychophysiology2019,3.0.5,60.12485587820348,
To what extent did the music make you feel ,GUILTY,30MonoWAV/30MonoH3.wav,2,2,1,7,,,,,1,6,22,6,0,11,11,5,,,,,,,,,1,1.1508870769976056,,,066,001,2019_May_28_1502,MusicAffectPsychophysiology2019,3.0.5,60.12485587820348,
,,30MonoWAV/30MonoH3.wav,2,2,1,7,,,,,1,6,22,6,,,,,,,,,,,,,,,,,066,001,2019_May_28_1502,MusicAffectPsychophysiology2019,3.0.5,60.12485587820348,
To what extent did the music make you feel ,HAPPY,30MonoWAV/30MonoF2.wav,1,2,2,2,,,,,1,7,23,1,0,0,0,6,,,3,3.0845692080038134,1,1.901659324998036,2,1.9517963509933907,1,1.7001459739985876,,,066,001,2019_May_28_1502,MusicAffectPsychophysiology2019,3.0.5,60.12485587820348,
To what extent did the music make you feel ,ANXIOUS ,30MonoWAV/30MonoF2.wav,1,2,2,2,,,,,1,7,23,1,0,1,1,1,,,,,,,,,3,1.2178857079998124,,,066,001,2019_May_28_1502,MusicAffectPsychophysiology2019,3.0.5,60.12485587820348,
To what extent did the music make you feel ,TENDER,30MonoWAV/30MonoF2.wav,1,2,2,2,,,,,1,7,23,1,0,2,2,10,,,,,,,,,1,1.0180125589977251,,,066,001,2019_May_28_1502,MusicAffectPsychophysiology2019,3.0.5,60.12485587820348,
To what extent did the music make you feel ,SCARED,30MonoWAV/30MonoF2.wav,1,2,2,2,,,,,1,7,23,1,0,3,3,11,,,,,,,,,2,1.1164840370038291,,,066,001,2019_May_28_1502,MusicAffectPsychophysiology2019,3.0.5,60.12485587820348,
To what extent did the music make you feel ,ASHAMED,30MonoWAV/30MonoF2.wav,1,2,2,2,,,,,1,7,23,1,0,4,4,4,,,,,,,,,1,1.0509426919961697,,,066,001,2019_May_28_1502,MusicAffectPsychophysiology2019,3.0.5,60.12485587820348,
To what extent did the music make you feel ,ACTIVE,30MonoWAV/30MonoF2.wav,1,2,2,2,,,,,1,7,23,1,0,5,5,9,,,,,,,,,2,1.7501309729996137,,,066,001,2019_May_28_1502,MusicAffectPsychophysiology2019,3.0.5,60.12485587820348,
To what extent did the music make you feel ,ALERT,30MonoWAV/30MonoF2.wav,1,2,2,2,,,,,1,7,23,1,0,6,6,8,,,,,,,,,3,0.9349308859964367,,,066,001,2019_May_28_1502,MusicAffectPsychophysiology2019,3.0.5,60.12485587820348,
To what extent did the music make you feel ,GUILTY,30MonoWAV/30MonoF2.wav,1,2,2,2,,,,,1,7,23,1,0,7,7,5,,,,,,,,,1,1.4521693069982575,,,066,001,2019_May_28_1502,MusicAffectPsychophysiology2019,3.0.5,60.12485587820348,
To what extent did the music make you feel ,ANGRY,30MonoWAV/30MonoF2.wav,1,2,2,2,,,,,1,7,23,1,0,8,8,2,,,,,,,,,1,1.084718462996534,,,066,001,2019_May_28_1502,MusicAffectPsychophysiology2019,3.0.5,60.12485587820348,
To what extent did the music make you feel ,EXCITED,30MonoWAV/30MonoF2.wav,1,2,2,2,,,,,1,7,23,1,0,9,9,7,,,,,,,,,1,1.7356289569943328,,,066,001,2019_May_28_1502,MusicAffectPsychophysiology2019,3.0.5,60.12485587820348,
To what extent did the music make you feel ,SAD,30MonoWAV/30MonoF2.wav,1,2,2,2,,,,,1,7,23,1,0,10,10,0,,,,,,,,,1,1.1681952029975946,,,066,001,2019_May_28_1502,MusicAffectPsychophysiology2019,3.0.5,60.12485587820348,
To what extent did the music make you feel ,FRUSTRATED,30MonoWAV/30MonoF2.wav,1,2,2,2,,,,,1,7,23,1,0,11,11,3,,,,,,,,,1,0.7182421690013143,,,066,001,2019_May_28_1502,MusicAffectPsychophysiology2019,3.0.5,60.12485587820348,
,,30MonoWAV/30MonoF2.wav,1,2,2,2,,,,,1,7,23,1,,,,,,,,,,,,,,,,,066,001,2019_May_28_1502,MusicAffectPsychophysiology2019,3.0.5,60.12485587820348,
To what extent did the music make you feel ,SCARED,30MonoWAV/30MonoT1.wav,2,1,4,13,,,,,1,8,24,12,0,0,0,11,,,2,4.405276411998784,2,1.1361450129988953,2,0.6683913219967508,1,1.0139756479984499,,,066,001,2019_May_28_1502,MusicAffectPsychophysiology2019,3.0.5,60.12485587820348,
To what extent did the music make you feel ,ASHAMED,30MonoWAV/30MonoT1.wav,2,1,4,13,,,,,1,8,24,12,0,1,1,4,,,,,,,,,1,0.6680461040014052,,,066,001,2019_May_28_1502,MusicAffectPsychophysiology2019,3.0.5,60.12485587820348,
To what extent did the music make you feel ,ANGRY,30MonoWAV/30MonoT1.wav,2,1,4,13,,,,,1,8,24,12,0,2,2,2,,,,,,,,,1,0.48483601300540613,,,066,001,2019_May_28_1502,MusicAffectPsychophysiology2019,3.0.5,60.12485587820348,
To what extent did the music make you feel ,ALERT,30MonoWAV/30MonoT1.wav,2,1,4,13,,,,,1,8,24,12,0,3,3,8,,,,,,,,,2,1.0679909819955355,,,066,001,2019_May_28_1502,MusicAffectPsychophysiology2019,3.0.5,60.12485587820348,
To what extent did the music make you feel ,EXCITED,30MonoWAV/30MonoT1.wav,2,1,4,13,,,,,1,8,24,12,0,4,4,7,,,,,,,,,2,1.0006519439994008,,,066,001,2019_May_28_1502,MusicAffectPsychophysiology2019,3.0.5,60.12485587820348,
To what extent did the music make you feel ,GUILTY,30MonoWAV/30MonoT1.wav,2,1,4,13,,,,,1,8,24,12,0,5,5,5,,,,,,,,,1,1.2170972390013048,,,066,001,2019_May_28_1502,MusicAffectPsychophysiology2019,3.0.5,60.12485587820348,
To what extent did the music make you feel ,ANXIOUS ,30MonoWAV/30MonoT1.wav,2,1,4,13,,,,,1,8,24,12,0,6,6,1,,,,,,,,,1,0.9027557169974898,,,066,001,2019_May_28_1502,MusicAffectPsychophysiology2019,3.0.5,60.12485587820348,
To what extent did the music make you feel ,ACTIVE,30MonoWAV/30MonoT1.wav,2,1,4,13,,,,,1,8,24,12,0,7,7,9,,,,,,,,,3,1.1355896039967774,,,066,001,2019_May_28_1502,MusicAffectPsychophysiology2019,3.0.5,60.12485587820348,
To what extent did the music make you feel ,FRUSTRATED,30MonoWAV/30MonoT1.wav,2,1,4,13,,,,,1,8,24,12,0,8,8,3,,,,,,,,,1,1.7837605380045716,,,066,001,2019_May_28_1502,MusicAffectPsychophysiology2019,3.0.5,60.12485587820348,
To what extent did the music make you feel ,HAPPY,30MonoWAV/30MonoT1.wav,2,1,4,13,,,,,1,8,24,12,0,9,9,6,,,,,,,,,2,2.001754103002895,,,066,001,2019_May_28_1502,MusicAffectPsychophysiology2019,3.0.5,60.12485587820348,
To what extent did the music make you feel ,TENDER,30MonoWAV/30MonoT1.wav,2,1,4,13,,,,,1,8,24,12,0,10,10,10,,,,,,,,,3,1.3846829969988903,,,066,001,2019_May_28_1502,MusicAffectPsychophysiology2019,3.0.5,60.12485587820348,
To what extent did the music make you feel ,SAD,30MonoWAV/30MonoT1.wav,2,1,4,13,,,,,1,8,24,12,0,11,11,0,,,,,,,,,1,1.3515812429977814,,,066,001,2019_May_28_1502,MusicAffectPsychophysiology2019,3.0.5,60.12485587820348,
,,30MonoWAV/30MonoT1.wav,2,1,4,13,,,,,1,8,24,12,,,,,,,,,,,,,,,,,066,001,2019_May_28_1502,MusicAffectPsychophysiology2019,3.0.5,60.12485587820348,
To what extent did the music make you feel ,FRUSTRATED,30MonoWAV/30MonoF4.wav,1,2,2,4,,,,,1,9,25,3,0,0,0,3,,,3,4.633805623998342,1,2.084037826003623,1,1.5680780789989512,1,1.2186598730040714,,,066,001,2019_May_28_1502,MusicAffectPsychophysiology2019,3.0.5,60.12485587820348,
To what extent did the music make you feel ,EXCITED,30MonoWAV/30MonoF4.wav,1,2,2,4,,,,,1,9,25,3,0,1,1,7,,,,,,,,,2,1.1681930880004074,,,066,001,2019_May_28_1502,MusicAffectPsychophysiology2019,3.0.5,60.12485587820348,
To what extent did the music make you feel ,ANXIOUS ,30MonoWAV/30MonoF4.wav,1,2,2,4,,,,,1,9,25,3,0,2,2,1,,,,,,,,,3,1.3518167500005802,,,066,001,2019_May_28_1502,MusicAffectPsychophysiology2019,3.0.5,60.12485587820348,
To what extent did the music make you feel ,SAD,30MonoWAV/30MonoF4.wav,1,2,2,4,,,,,1,9,25,3,0,3,3,0,,,,,,,,,1,0.885306414005754,,,066,001,2019_May_28_1502,MusicAffectPsychophysiology2019,3.0.5,60.12485587820348,
To what extent did the music make you feel ,ACTIVE,30MonoWAV/30MonoF4.wav,1,2,2,4,,,,,1,9,25,3,0,4,4,9,,,,,,,,,2,2.501777019999281,,,066,001,2019_May_28_1502,MusicAffectPsychophysiology2019,3.0.5,60.12485587820348,
To what extent did the music make you feel ,GUILTY,30MonoWAV/30MonoF4.wav,1,2,2,4,,,,,1,9,25,3,0,5,5,5,,,,,,,,,1,0.7026883260041359,,,066,001,2019_May_28_1502,MusicAffectPsychophysiology2019,3.0.5,60.12485587820348,
To what extent did the music make you feel ,ANGRY,30MonoWAV/30MonoF4.wav,1,2,2,4,,,,,1,9,25,3,0,6,6,2,,,,,,,,,1,0.8351549339931807,,,066,001,2019_May_28_1502,MusicAffectPsychophysiology2019,3.0.5,60.12485587820348,
To what extent did the music make you feel ,SCARED,30MonoWAV/30MonoF4.wav,1,2,2,4,,,,,1,9,25,3,0,7,7,11,,,,,,,,,2,0.784713233995717,,,066,001,2019_May_28_1502,MusicAffectPsychophysiology2019,3.0.5,60.12485587820348,
To what extent did the music make you feel ,ASHAMED,30MonoWAV/30MonoF4.wav,1,2,2,4,,,,,1,9,25,3,0,8,8,4,,,,,,,,,1,0.7184214330045506,,,066,001,2019_May_28_1502,MusicAffectPsychophysiology2019,3.0.5,60.12485587820348,
To what extent did the music make you feel ,HAPPY,30MonoWAV/30MonoF4.wav,1,2,2,4,,,,,1,9,25,3,0,9,9,6,,,,,,,,,1,0.9016752749957959,,,066,001,2019_May_28_1502,MusicAffectPsychophysiology2019,3.0.5,60.12485587820348,
To what extent did the music make you feel ,ALERT,30MonoWAV/30MonoF4.wav,1,2,2,4,,,,,1,9,25,3,0,10,10,8,,,,,,,,,3,1.5506383690008079,,,066,001,2019_May_28_1502,MusicAffectPsychophysiology2019,3.0.5,60.12485587820348,
To what extent did the music make you feel ,TENDER,30MonoWAV/30MonoF4.wav,1,2,2,4,,,,,1,9,25,3,0,11,11,10,,,,,,,,,1,1.0515977239992935,,,066,001,2019_May_28_1502,MusicAffectPsychophysiology2019,3.0.5,60.12485587820348,
,,30MonoWAV/30MonoF4.wav,1,2,2,4,,,,,1,9,25,3,,,,,,,,,,,,,,,,,066,001,2019_May_28_1502,MusicAffectPsychophysiology2019,3.0.5,60.12485587820348,
To what extent did the music make you feel ,ALERT,30MonoWAV/30MonoS2.wav,1,1,3,10,,,,,1,10,26,9,0,0,0,8,,,1,2.9353700319989002,2,2.2514926380026736,2,1.5335172359991702,1,2.8859656900021946,,,066,001,2019_May_28_1502,MusicAffectPsychophysiology2019,3.0.5,60.12485587820348,
To what extent did the music make you feel ,FRUSTRATED,30MonoWAV/30MonoS2.wav,1,1,3,10,,,,,1,10,26,9,0,1,1,3,,,,,,,,,1,1.1856327409986989,,,066,001,2019_May_28_1502,MusicAffectPsychophysiology2019,3.0.5,60.12485587820348,
To what extent did the music make you feel ,GUILTY,30MonoWAV/30MonoS2.wav,1,1,3,10,,,,,1,10,26,9,0,2,2,5,,,,,,,,,2,1.206067796003481,,,066,001,2019_May_28_1502,MusicAffectPsychophysiology2019,3.0.5,60.12485587820348,
To what extent did the music make you feel ,HAPPY,30MonoWAV/30MonoS2.wav,1,1,3,10,,,,,1,10,26,9,0,3,3,6,,,,,,,,,1,1.2376200470025651,,,066,001,2019_May_28_1502,MusicAffectPsychophysiology2019,3.0.5,60.12485587820348,
To what extent did the music make you feel ,ANGRY,30MonoWAV/30MonoS2.wav,1,1,3,10,,,,,1,10,26,9,0,4,4,2,,,,,,,,,1,1.1024692200007848,,,066,001,2019_May_28_1502,MusicAffectPsychophysiology2019,3.0.5,60.12485587820348,
To what extent did the music make you feel ,TENDER,30MonoWAV/30MonoS2.wav,1,1,3,10,,,,,1,10,26,9,0,5,5,10,,,,,,,,,2,0.9862612619981519,,,066,001,2019_May_28_1502,MusicAffectPsychophysiology2019,3.0.5,60.12485587820348,
To what extent did the music make you feel ,SAD,30MonoWAV/30MonoS2.wav,1,1,3,10,,,,,1,10,26,9,0,6,6,0,,,,,,,,,2,1.001796012998966,,,066,001,2019_May_28_1502,MusicAffectPsychophysiology2019,3.0.5,60.12485587820348,
To what extent did the music make you feel ,EXCITED,30MonoWAV/30MonoS2.wav,1,1,3,10,,,,,1,10,26,9,0,7,7,7,,,,,,,,,1,1.0530184640010702,,,066,001,2019_May_28_1502,MusicAffectPsychophysiology2019,3.0.5,60.12485587820348,
To what extent did the music make you feel ,SCARED,30MonoWAV/30MonoS2.wav,1,1,3,10,,,,,1,10,26,9,0,8,8,11,,,,,,,,,2,1.92231826200441,,,066,001,2019_May_28_1502,MusicAffectPsychophysiology2019,3.0.5,60.12485587820348,
To what extent did the music make you feel ,ANXIOUS ,30MonoWAV/30MonoS2.wav,1,1,3,10,,,,,1,10,26,9,0,9,9,1,,,,,,,,,1,1.0336771470028907,,,066,001,2019_May_28_1502,MusicAffectPsychophysiology2019,3.0.5,60.12485587820348,
To what extent did the music make you feel ,ASHAMED,30MonoWAV/30MonoS2.wav,1,1,3,10,,,,,1,10,26,9,0,10,10,4,,,,,,,,,2,1.8358015100020566,,,066,001,2019_May_28_1502,MusicAffectPsychophysiology2019,3.0.5,60.12485587820348,
To what extent did the music make you feel ,ACTIVE,30MonoWAV/30MonoS2.wav,1,1,3,10,,,,,1,10,26,9,0,11,11,9,,,,,,,,,1,1.1013695069996174,,,066,001,2019_May_28_1502,MusicAffectPsychophysiology2019,3.0.5,60.12485587820348,
,,30MonoWAV/30MonoS2.wav,1,1,3,10,,,,,1,10,26,9,,,,,,,,,,,,,,,,,066,001,2019_May_28_1502,MusicAffectPsychophysiology2019,3.0.5,60.12485587820348,
To what extent did the music make you feel ,SCARED,30MonoWAV/30MonoS4.wav,1,1,3,12,,,,,1,11,27,11,0,0,0,11,,,1,2.6184736829964095,1,2.4176921640028013,1,1.4835532560027787,1,1.0027126639979542,,,066,001,2019_May_28_1502,MusicAffectPsychophysiology2019,3.0.5,60.12485587820348,
To what extent did the music make you feel ,TENDER,30MonoWAV/30MonoS4.wav,1,1,3,12,,,,,1,11,27,11,0,1,1,10,,,,,,,,,1,1.0018574279965833,,,066,001,2019_May_28_1502,MusicAffectPsychophysiology2019,3.0.5,60.12485587820348,
To what extent did the music make you feel ,GUILTY,30MonoWAV/30MonoS4.wav,1,1,3,12,,,,,1,11,27,11,0,2,2,5,,,,,,,,,1,0.5683979649984394,,,066,001,2019_May_28_1502,MusicAffectPsychophysiology2019,3.0.5,60.12485587820348,
To what extent did the music make you feel ,ANGRY,30MonoWAV/30MonoS4.wav,1,1,3,12,,,,,1,11,27,11,0,3,3,2,,,,,,,,,1,0.7848221509993891,,,066,001,2019_May_28_1502,MusicAffectPsychophysiology2019,3.0.5,60.12485587820348,
To what extent did the music make you feel ,ANXIOUS ,30MonoWAV/30MonoS4.wav,1,1,3,12,,,,,1,11,27,11,0,4,4,1,,,,,,,,,1,0.618182225000055,,,066,001,2019_May_28_1502,MusicAffectPsychophysiology2019,3.0.5,60.12485587820348,
To what extent did the music make you feel ,ASHAMED,30MonoWAV/30MonoS4.wav,1,1,3,12,,,,,1,11,27,11,0,5,5,4,,,,,,,,,1,0.48547396800131537,,,066,001,2019_May_28_1502,MusicAffectPsychophysiology2019,3.0.5,60.12485587820348,
To what extent did the music make you feel ,ACTIVE,30MonoWAV/30MonoS4.wav,1,1,3,12,,,,,1,11,27,11,0,6,6,9,,,,,,,,,1,0.4684878990010475,,,066,001,2019_May_28_1502,MusicAffectPsychophysiology2019,3.0.5,60.12485587820348,
To what extent did the music make you feel ,ALERT,30MonoWAV/30MonoS4.wav,1,1,3,12,,,,,1,11,27,11,0,7,7,8,,,,,,,,,1,0.451521844996023,,,066,001,2019_May_28_1502,MusicAffectPsychophysiology2019,3.0.5,60.12485587820348,
To what extent did the music make you feel ,SAD,30MonoWAV/30MonoS4.wav,1,1,3,12,,,,,1,11,27,11,0,8,8,0,,,,,,,,,1,0.5185900989963557,,,066,001,2019_May_28_1502,MusicAffectPsychophysiology2019,3.0.5,60.12485587820348,
To what extent did the music make you feel ,FRUSTRATED,30MonoWAV/30MonoS4.wav,1,1,3,12,,,,,1,11,27,11,0,9,9,3,,,,,,,,,1,0.4179342679999536,,,066,001,2019_May_28_1502,MusicAffectPsychophysiology2019,3.0.5,60.12485587820348,
To what extent did the music make you feel ,HAPPY,30MonoWAV/30MonoS4.wav,1,1,3,12,,,,,1,11,27,11,0,10,10,6,,,,,,,,,1,0.5349856750035542,,,066,001,2019_May_28_1502,MusicAffectPsychophysiology2019,3.0.5,60.12485587820348,
To what extent did the music make you feel ,EXCITED,30MonoWAV/30MonoS4.wav,1,1,3,12,,,,,1,11,27,11,0,11,11,7,,,,,,,,,1,0.43463755099946866,,,066,001,2019_May_28_1502,MusicAffectPsychophysiology2019,3.0.5,60.12485587820348,
,,30MonoWAV/30MonoS4.wav,1,1,3,12,,,,,1,11,27,11,,,,,,,,,,,,,,,,,066,001,2019_May_28_1502,MusicAffectPsychophysiology2019,3.0.5,60.12485587820348,
To what extent did the music make you feel ,ASHAMED,30MonoWAV/30MonoH1.wav,2,2,1,5,,,,,1,12,28,4,0,0,0,4,,,3,4.166265830994234,3,0.8686664909982937,3,0.8690586129960138,1,1.735551382000267,,,066,001,2019_May_28_1502,MusicAffectPsychophysiology2019,3.0.5,60.12485587820348,
To what extent did the music make you feel ,EXCITED,30MonoWAV/30MonoH1.wav,2,2,1,5,,,,,1,12,28,4,0,1,1,7,,,,,,,,,3,1.4843637119993218,,,066,001,2019_May_28_1502,MusicAffectPsychophysiology2019,3.0.5,60.12485587820348,
To what extent did the music make you feel ,ALERT,30MonoWAV/30MonoH1.wav,2,2,1,5,,,,,1,12,28,4,0,2,2,8,,,,,,,,,2,2.117866793007124,,,066,001,2019_May_28_1502,MusicAffectPsychophysiology2019,3.0.5,60.12485587820348,
To what extent did the music make you feel ,FRUSTRATED,30MonoWAV/30MonoH1.wav,2,2,1,5,,,,,1,12,28,4,0,3,3,3,,,,,,,,,1,1.1184416439937195,,,066,001,2019_May_28_1502,MusicAffectPsychophysiology2019,3.0.5,60.12485587820348,
To what extent did the music make you feel ,HAPPY,30MonoWAV/30MonoH1.wav,2,2,1,5,,,,,1,12,28,4,0,4,4,6,,,,,,,,,3,1.9189510009964579,,,066,001,2019_May_28_1502,MusicAffectPsychophysiology2019,3.0.5,60.12485587820348,
To what extent did the music make you feel ,ANGRY,30MonoWAV/30MonoH1.wav,2,2,1,5,,,,,1,12,28,4,0,5,5,2,,,,,,,,,1,1.4025825220014667,,,066,001,2019_May_28_1502,MusicAffectPsychophysiology2019,3.0.5,60.12485587820348,
To what extent did the music make you feel ,ANXIOUS ,30MonoWAV/30MonoH1.wav,2,2,1,5,,,,,1,12,28,4,0,6,6,1,,,,,,,,,1,1.7844285870014573,,,066,001,2019_May_28_1502,MusicAffectPsychophysiology2019,3.0.5,60.12485587820348,
To what extent did the music make you feel ,GUILTY,30MonoWAV/30MonoH1.wav,2,2,1,5,,,,,1,12,28,4,0,7,7,5,,,,,,,,,1,0.7020598570015864,,,066,001,2019_May_28_1502,MusicAffectPsychophysiology2019,3.0.5,60.12485587820348,
To what extent did the music make you feel ,SCARED,30MonoWAV/30MonoH1.wav,2,2,1,5,,,,,1,12,28,4,0,8,8,11,,,,,,,,,1,0.8349848060024669,,,066,001,2019_May_28_1502,MusicAffectPsychophysiology2019,3.0.5,60.12485587820348,
To what extent did the music make you feel ,ACTIVE,30MonoWAV/30MonoH1.wav,2,2,1,5,,,,,1,12,28,4,0,9,9,9,,,,,,,,,2,1.6021280160057358,,,066,001,2019_May_28_1502,MusicAffectPsychophysiology2019,3.0.5,60.12485587820348,
To what extent did the music make you feel ,SAD,30MonoWAV/30MonoH1.wav,2,2,1,5,,,,,1,12,28,4,0,10,10,0,,,,,,,,,1,0.8844733430014458,,,066,001,2019_May_28_1502,MusicAffectPsychophysiology2019,3.0.5,60.12485587820348,
To what extent did the music make you feel ,TENDER,30MonoWAV/30MonoH1.wav,2,2,1,5,,,,,1,12,28,4,0,11,11,10,,,,,,,,,2,1.1847817060042871,,,066,001,2019_May_28_1502,MusicAffectPsychophysiology2019,3.0.5,60.12485587820348,
,,30MonoWAV/30MonoH1.wav,2,2,1,5,,,,,1,12,28,4,,,,,,,,,,,,,,,,,066,001,2019_May_28_1502,MusicAffectPsychophysiology2019,3.0.5,60.12485587820348,
To what extent did the music make you feel ,SAD,30MonoWAV/30MonoF3.wav,1,2,2,3,,,,,1,13,29,2,0,0,0,0,,,2,3.0347122340026544,1,1.9021415329989395,1,1.784966876002727,1,1.3020180800012895,,,066,001,2019_May_28_1502,MusicAffectPsychophysiology2019,3.0.5,60.12485587820348,
To what extent did the music make you feel ,ACTIVE,30MonoWAV/30MonoF3.wav,1,2,2,3,,,,,1,13,29,2,0,1,1,9,,,,,,,,,2,1.3154163099970901,,,066,001,2019_May_28_1502,MusicAffectPsychophysiology2019,3.0.5,60.12485587820348,
To what extent did the music make you feel ,TENDER,30MonoWAV/30MonoF3.wav,1,2,2,3,,,,,1,13,29,2,0,2,2,10,,,,,,,,,1,1.3349086859961972,,,066,001,2019_May_28_1502,MusicAffectPsychophysiology2019,3.0.5,60.12485587820348,
To what extent did the music make you feel ,ASHAMED,30MonoWAV/30MonoF3.wav,1,2,2,3,,,,,1,13,29,2,0,3,3,4,,,,,,,,,1,0.8681239270008518,,,066,001,2019_May_28_1502,MusicAffectPsychophysiology2019,3.0.5,60.12485587820348,
To what extent did the music make you feel ,ANGRY,30MonoWAV/30MonoF3.wav,1,2,2,3,,,,,1,13,29,2,0,4,4,2,,,,,,,,,1,0.7857937650042004,,,066,001,2019_May_28_1502,MusicAffectPsychophysiology2019,3.0.5,60.12485587820348,
To what extent did the music make you feel ,ANXIOUS ,30MonoWAV/30MonoF3.wav,1,2,2,3,,,,,1,13,29,2,0,5,5,1,,,,,,,,,2,0.9845570170000428,,,066,001,2019_May_28_1502,MusicAffectPsychophysiology2019,3.0.5,60.12485587820348,
To what extent did the music make you feel ,EXCITED,30MonoWAV/30MonoF3.wav,1,2,2,3,,,,,1,13,29,2,0,6,6,7,,,,,,,,,2,0.8522600139986025,,,066,001,2019_May_28_1502,MusicAffectPsychophysiology2019,3.0.5,60.12485587820348,
To what extent did the music make you feel ,GUILTY,30MonoWAV/30MonoF3.wav,1,2,2,3,,,,,1,13,29,2,0,7,7,5,,,,,,,,,1,0.71839722799632,,,066,001,2019_May_28_1502,MusicAffectPsychophysiology2019,3.0.5,60.12485587820348,
To what extent did the music make you feel ,SCARED,30MonoWAV/30MonoF3.wav,1,2,2,3,,,,,1,13,29,2,0,8,8,11,,,,,,,,,2,1.1344578939970233,,,066,001,2019_May_28_1502,MusicAffectPsychophysiology2019,3.0.5,60.12485587820348,
To what extent did the music make you feel ,HAPPY,30MonoWAV/30MonoF3.wav,1,2,2,3,,,,,1,13,29,2,0,9,9,6,,,,,,,,,2,1.5206423599956906,,,066,001,2019_May_28_1502,MusicAffectPsychophysiology2019,3.0.5,60.12485587820348,
To what extent did the music make you feel ,FRUSTRATED,30MonoWAV/30MonoF3.wav,1,2,2,3,,,,,1,13,29,2,0,10,10,3,,,,,,,,,1,1.0518854910042137,,,066,001,2019_May_28_1502,MusicAffectPsychophysiology2019,3.0.5,60.12485587820348,
To what extent did the music make you feel ,ALERT,30MonoWAV/30MonoF3.wav,1,2,2,3,,,,,1,13,29,2,0,11,11,8,,,,,,,,,2,1.416280003002612,,,066,001,2019_May_28_1502,MusicAffectPsychophysiology2019,3.0.5,60.12485587820348,
,,30MonoWAV/30MonoF3.wav,1,2,2,3,,,,,1,13,29,2,,,,,,,,,,,,,,,,,066,001,2019_May_28_1502,MusicAffectPsychophysiology2019,3.0.5,60.12485587820348,
To what extent did the music make you feel ,SAD,30MonoWAV/30MonoT4.wav,2,1,4,16,,,,,1,14,30,15,0,0,0,0,,,1,2.9689936739960103,1,2.299169862999406,1,1.7522482390049845,1,3.5841297049992136,,,066,001,2019_May_28_1502,MusicAffectPsychophysiology2019,3.0.5,60.12485587820348,
To what extent did the music make you feel ,EXCITED,30MonoWAV/30MonoT4.wav,2,1,4,16,,,,,1,14,30,15,0,1,1,7,,,,,,,,,1,1.6178857189952396,,,066,001,2019_May_28_1502,MusicAffectPsychophysiology2019,3.0.5,60.12485587820348,
To what extent did the music make you feel ,GUILTY,30MonoWAV/30MonoT4.wav,2,1,4,16,,,,,1,14,30,15,0,2,2,5,,,,,,,,,1,1.0843890640026075,,,066,001,2019_May_28_1502,MusicAffectPsychophysiology2019,3.0.5,60.12485587820348,
To what extent did the music make you feel ,ANXIOUS ,30MonoWAV/30MonoT4.wav,2,1,4,16,,,,,1,14,30,15,0,3,3,1,,,,,,,,,1,0.7684181139993598,,,066,001,2019_May_28_1502,MusicAffectPsychophysiology2019,3.0.5,60.12485587820348,
To what extent did the music make you feel ,ANGRY,30MonoWAV/30MonoT4.wav,2,1,4,16,,,,,1,14,30,15,0,4,4,2,,,,,,,,,1,0.6858676619958715,,,066,001,2019_May_28_1502,MusicAffectPsychophysiology2019,3.0.5,60.12485587820348,
To what extent did the music make you feel ,ASHAMED,30MonoWAV/30MonoT4.wav,2,1,4,16,,,,,1,14,30,15,0,5,5,4,,,,,,,,,1,0.7844569099979708,,,066,001,2019_May_28_1502,MusicAffectPsychophysiology2019,3.0.5,60.12485587820348,
To what extent did the music make you feel ,FRUSTRATED,30MonoWAV/30MonoT4.wav,2,1,4,16,,,,,1,14,30,15,0,6,6,3,,,,,,,,,1,0.5181304500001715,,,066,001,2019_May_28_1502,MusicAffectPsychophysiology2019,3.0.5,60.12485587820348,
To what extent did the music make you feel ,ALERT,30MonoWAV/30MonoT4.wav,2,1,4,16,,,,,1,14,30,15,0,7,7,8,,,,,,,,,1,2.102213997000945,,,066,001,2019_May_28_1502,MusicAffectPsychophysiology2019,3.0.5,60.12485587820348,
To what extent did the music make you feel ,SCARED,30MonoWAV/30MonoT4.wav,2,1,4,16,,,,,1,14,30,15,0,8,8,11,,,,,,,,,1,0.9668975070017041,,,066,001,2019_May_28_1502,MusicAffectPsychophysiology2019,3.0.5,60.12485587820348,
To what extent did the music make you feel ,HAPPY,30MonoWAV/30MonoT4.wav,2,1,4,16,,,,,1,14,30,15,0,9,9,6,,,,,,,,,2,1.2352646250001271,,,066,001,2019_May_28_1502,MusicAffectPsychophysiology2019,3.0.5,60.12485587820348,
To what extent did the music make you feel ,ACTIVE,30MonoWAV/30MonoT4.wav,2,1,4,16,,,,,1,14,30,15,0,10,10,9,,,,,,,,,2,1.1687155640029232,,,066,001,2019_May_28_1502,MusicAffectPsychophysiology2019,3.0.5,60.12485587820348,
To what extent did the music make you feel ,TENDER,30MonoWAV/30MonoT4.wav,2,1,4,16,,,,,1,14,30,15,0,11,11,10,,,,,,,,,2,0.6853080630025943,,,066,001,2019_May_28_1502,MusicAffectPsychophysiology2019,3.0.5,60.12485587820348,
,,30MonoWAV/30MonoT4.wav,2,1,4,16,,,,,1,14,30,15,,,,,,,,,,,,,,,,,066,001,2019_May_28_1502,MusicAffectPsychophysiology2019,3.0.5,60.12485587820348,
To what extent did the music make you feel ,SAD,30MonoWAV/30MonoS1.wav,1,1,3,9,,,,,1,15,31,8,0,0,0,0,,,1,3.2516995159967337,1,0.7186565779993543,1,0.9177045269971131,1,0.8850403360047494,,,066,001,2019_May_28_1502,MusicAffectPsychophysiology2019,3.0.5,60.12485587820348,
To what extent did the music make you feel ,FRUSTRATED,30MonoWAV/30MonoS1.wav,1,1,3,9,,,,,1,15,31,8,0,1,1,3,,,,,,,,,1,0.6517766929973732,,,066,001,2019_May_28_1502,MusicAffectPsychophysiology2019,3.0.5,60.12485587820348,
To what extent did the music make you feel ,HAPPY,30MonoWAV/30MonoS1.wav,1,1,3,9,,,,,1,15,31,8,0,2,2,6,,,,,,,,,1,1.0364320640001097,,,066,001,2019_May_28_1502,MusicAffectPsychophysiology2019,3.0.5,60.12485587820348,
To what extent did the music make you feel ,TENDER,30MonoWAV/30MonoS1.wav,1,1,3,9,,,,,1,15,31,8,0,3,3,10,,,,,,,,,1,0.48480798300442984,,,066,001,2019_May_28_1502,MusicAffectPsychophysiology2019,3.0.5,60.12485587820348,
To what extent did the music make you feel ,ALERT,30MonoWAV/30MonoS1.wav,1,1,3,9,,,,,1,15,31,8,0,4,4,8,,,,,,,,,1,1.7839687260056962,,,066,001,2019_May_28_1502,MusicAffectPsychophysiology2019,3.0.5,60.12485587820348,
To what extent did the music make you feel ,GUILTY,30MonoWAV/30MonoS1.wav,1,1,3,9,,,,,1,15,31,8,0,5,5,5,,,,,,,,,1,0.8202940749979462,,,066,001,2019_May_28_1502,MusicAffectPsychophysiology2019,3.0.5,60.12485587820348,
To what extent did the music make you feel ,ANXIOUS ,30MonoWAV/30MonoS1.wav,1,1,3,9,,,,,1,15,31,8,0,6,6,1,,,,,,,,,1,0.5356878829989,,,066,001,2019_May_28_1502,MusicAffectPsychophysiology2019,3.0.5,60.12485587820348,
To what extent did the music make you feel ,ANGRY,30MonoWAV/30MonoS1.wav,1,1,3,9,,,,,1,15,31,8,0,7,7,2,,,,,,,,,1,0.435724470000423,,,066,001,2019_May_28_1502,MusicAffectPsychophysiology2019,3.0.5,60.12485587820348,
To what extent did the music make you feel ,ACTIVE,30MonoWAV/30MonoS1.wav,1,1,3,9,,,,,1,15,31,8,0,8,8,9,,,,,,,,,1,0.38543324100464815,,,066,001,2019_May_28_1502,MusicAffectPsychophysiology2019,3.0.5,60.12485587820348,
To what extent did the music make you feel ,SCARED,30MonoWAV/30MonoS1.wav,1,1,3,9,,,,,1,15,31,8,0,9,9,11,,,,,,,,,1,0.3517594549994101,,,066,001,2019_May_28_1502,MusicAffectPsychophysiology2019,3.0.5,60.12485587820348,
To what extent did the music make you feel ,ASHAMED,30MonoWAV/30MonoS1.wav,1,1,3,9,,,,,1,15,31,8,0,10,10,4,,,,,,,,,1,0.35227726100129075,,,066,001,2019_May_28_1502,MusicAffectPsychophysiology2019,3.0.5,60.12485587820348,
To what extent did the music make you feel ,EXCITED,30MonoWAV/30MonoS1.wav,1,1,3,9,,,,,1,15,31,8,0,11,11,7,,,,,,,,,1,0.3355866869969759,,,066,001,2019_May_28_1502,MusicAffectPsychophysiology2019,3.0.5,60.12485587820348,
,,30MonoWAV/30MonoS1.wav,1,1,3,9,,,,,1,15,31,8,,,,,,,,,,,,,,,,,066,001,2019_May_28_1502,MusicAffectPsychophysiology2019,3.0.5,60.12485587820348,
,,,,,,,,,,,,,,,,,,,,,,,,,,,,,space,3.76788525700249,066,001,2019_May_28_1502,MusicAffectPsychophysiology2019,3.0.5,60.12485587820348,
