Instruction,Word,song,valence,arousal,affectcat,songmark,pracwords.thisRepN,pracwords.thisTrialN,pracwords.thisN,pracwords.thisIndex,songtrials.thisRepN,songtrials.thisTrialN,songtrials.thisN,songtrials.thisIndex,words.thisRepN,words.thisTrialN,words.thisN,words.thisIndex,begin.keys,begin.rt,arousalkey.keys,arousalkey.rt,valencekey.keys,valencekey.rt,likekey.keys,likekey.rt,WordResponse.keys,WordResponse.rt,participant,session,date,expName,psychopyVersion,frameRate,
,,,,,,,,,,,,,,,,,,,num_enter,17.305441930002416,,,,,,,,,067,001,2019_May_28_1610,MusicAffectPsychophysiology2019,3.0.5,59.9319546966717,
,,,,,,,,,,,,,,,,,,,,,2,7.241371267999057,,,,,,,067,001,2019_May_28_1610,MusicAffectPsychophysiology2019,3.0.5,59.9319546966717,
,,,,,,,,,,,,,,,,,,,,,,,4,3.7729216699954122,,,,,067,001,2019_May_28_1610,MusicAffectPsychophysiology2019,3.0.5,59.9319546966717,
,,,,,,,,,,,,,,,,,,,,,,,,,4,3.6416016739967745,,,067,001,2019_May_28_1610,MusicAffectPsychophysiology2019,3.0.5,59.9319546966717,
To what extent did the music make you feel ,ASHAMED,,,,,,0,0,0,4,,,,,,,,,,,,,,,,,1,8.16878474799887,067,001,2019_May_28_1610,MusicAffectPsychophysiology2019,3.0.5,59.9319546966717,
To what extent did the music make you feel ,ACTIVE,,,,,,0,1,1,9,,,,,,,,,,,,,,,,,4,2.7511172919985256,067,001,2019_May_28_1610,MusicAffectPsychophysiology2019,3.0.5,59.9319546966717,
To what extent did the music make you feel ,GUILTY,,,,,,0,2,2,5,,,,,,,,,,,,,,,,,1,2.418145233998075,067,001,2019_May_28_1610,MusicAffectPsychophysiology2019,3.0.5,59.9319546966717,
To what extent did the music make you feel ,ANGRY,,,,,,0,3,3,2,,,,,,,,,,,,,,,,,1,1.5341794970008777,067,001,2019_May_28_1610,MusicAffectPsychophysiology2019,3.0.5,59.9319546966717,
To what extent did the music make you feel ,SCARED,,,,,,0,4,4,11,,,,,,,,,,,,,,,,,1,1.6851099480045377,067,001,2019_May_28_1610,MusicAffectPsychophysiology2019,3.0.5,59.9319546966717,
To what extent did the music make you feel ,SAD,,,,,,0,5,5,0,,,,,,,,,,,,,,,,,2,2.033711146003043,067,001,2019_May_28_1610,MusicAffectPsychophysiology2019,3.0.5,59.9319546966717,
To what extent did the music make you feel ,HAPPY,,,,,,0,6,6,6,,,,,,,,,,,,,,,,,4,2.0509729030018207,067,001,2019_May_28_1610,MusicAffectPsychophysiology2019,3.0.5,59.9319546966717,
To what extent did the music make you feel ,ANXIOUS ,,,,,,0,7,7,1,,,,,,,,,,,,,,,,,2,1.6018592980035464,067,001,2019_May_28_1610,MusicAffectPsychophysiology2019,3.0.5,59.9319546966717,
To what extent did the music make you feel ,TENDER,,,,,,0,8,8,10,,,,,,,,,,,,,,,,,3,2.101443150997511,067,001,2019_May_28_1610,MusicAffectPsychophysiology2019,3.0.5,59.9319546966717,
To what extent did the music make you feel ,ALERT,,,,,,0,9,9,8,,,,,,,,,,,,,,,,,3,3.050262484997802,067,001,2019_May_28_1610,MusicAffectPsychophysiology2019,3.0.5,59.9319546966717,
To what extent did the music make you feel ,EXCITED,,,,,,0,10,10,7,,,,,,,,,,,,,,,,,4,1.2681625990007888,067,001,2019_May_28_1610,MusicAffectPsychophysiology2019,3.0.5,59.9319546966717,
To what extent did the music make you feel ,FRUSTRATED,,,,,,0,11,11,3,,,,,,,,,,,,,,,,,1,1.4180920509970747,067,001,2019_May_28_1610,MusicAffectPsychophysiology2019,3.0.5,59.9319546966717,
To what extent did the music make you feel ,GUILTY,30MonoWAV/30MonoH4.wav,2,2,1,8,,,,,0,0,0,7,0,0,0,5,,,5,4.618918958003633,4,2.4192256790047395,2,3.5503896759983036,1,1.6519473340013064,067,001,2019_May_28_1610,MusicAffectPsychophysiology2019,3.0.5,59.9319546966717,
To what extent did the music make you feel ,SAD,30MonoWAV/30MonoH4.wav,2,2,1,8,,,,,0,0,0,7,0,1,1,0,,,,,,,,,1,0.701237768997089,067,001,2019_May_28_1610,MusicAffectPsychophysiology2019,3.0.5,59.9319546966717,
To what extent did the music make you feel ,EXCITED,30MonoWAV/30MonoH4.wav,2,2,1,8,,,,,0,0,0,7,0,2,2,7,,,,,,,,,3,1.6519498550042044,067,001,2019_May_28_1610,MusicAffectPsychophysiology2019,3.0.5,59.9319546966717,
To what extent did the music make you feel ,TENDER,30MonoWAV/30MonoH4.wav,2,2,1,8,,,,,0,0,0,7,0,3,3,10,,,,,,,,,1,2.5519985780047136,067,001,2019_May_28_1610,MusicAffectPsychophysiology2019,3.0.5,59.9319546966717,
To what extent did the music make you feel ,HAPPY,30MonoWAV/30MonoH4.wav,2,2,1,8,,,,,0,0,0,7,0,4,4,6,,,,,,,,,4,1.7518510250010877,067,001,2019_May_28_1610,MusicAffectPsychophysiology2019,3.0.5,59.9319546966717,
To what extent did the music make you feel ,ACTIVE,30MonoWAV/30MonoH4.wav,2,2,1,8,,,,,0,0,0,7,0,5,5,9,,,,,,,,,4,1.2022042499957024,067,001,2019_May_28_1610,MusicAffectPsychophysiology2019,3.0.5,59.9319546966717,
To what extent did the music make you feel ,ALERT,30MonoWAV/30MonoH4.wav,2,2,1,8,,,,,0,0,0,7,0,6,6,8,,,,,,,,,4,1.0182264270042651,067,001,2019_May_28_1610,MusicAffectPsychophysiology2019,3.0.5,59.9319546966717,
To what extent did the music make you feel ,ASHAMED,30MonoWAV/30MonoH4.wav,2,2,1,8,,,,,0,0,0,7,0,7,7,4,,,,,,,,,1,2.4175187180007924,067,001,2019_May_28_1610,MusicAffectPsychophysiology2019,3.0.5,59.9319546966717,
To what extent did the music make you feel ,ANGRY,30MonoWAV/30MonoH4.wav,2,2,1,8,,,,,0,0,0,7,0,8,8,2,,,,,,,,,1,1.4011922380013857,067,001,2019_May_28_1610,MusicAffectPsychophysiology2019,3.0.5,59.9319546966717,
To what extent did the music make you feel ,FRUSTRATED,30MonoWAV/30MonoH4.wav,2,2,1,8,,,,,0,0,0,7,0,9,9,3,,,,,,,,,1,1.351307070995972,067,001,2019_May_28_1610,MusicAffectPsychophysiology2019,3.0.5,59.9319546966717,
To what extent did the music make you feel ,ANXIOUS ,30MonoWAV/30MonoH4.wav,2,2,1,8,,,,,0,0,0,7,0,10,10,1,,,,,,,,,1,0.7025483210018137,067,001,2019_May_28_1610,MusicAffectPsychophysiology2019,3.0.5,59.9319546966717,
To what extent did the music make you feel ,SCARED,30MonoWAV/30MonoH4.wav,2,2,1,8,,,,,0,0,0,7,0,11,11,11,,,,,,,,,1,0.7013108609971823,067,001,2019_May_28_1610,MusicAffectPsychophysiology2019,3.0.5,59.9319546966717,
,,30MonoWAV/30MonoH4.wav,2,2,1,8,,,,,0,0,0,7,,,,,,,,,,,,,,,067,001,2019_May_28_1610,MusicAffectPsychophysiology2019,3.0.5,59.9319546966717,
To what extent did the music make you feel ,ANXIOUS ,30MonoWAV/30MonoH1.wav,2,2,1,5,,,,,0,1,1,4,0,0,0,1,,,3,3.4177788579982007,3,1.6679220119985985,2,2.8674038700046367,3,3.0013739919959335,067,001,2019_May_28_1610,MusicAffectPsychophysiology2019,3.0.5,59.9319546966717,
To what extent did the music make you feel ,SCARED,30MonoWAV/30MonoH1.wav,2,2,1,5,,,,,0,1,1,4,0,1,1,11,,,,,,,,,3,1.1693168900019373,067,001,2019_May_28_1610,MusicAffectPsychophysiology2019,3.0.5,59.9319546966717,
To what extent did the music make you feel ,SAD,30MonoWAV/30MonoH1.wav,2,2,1,5,,,,,0,1,1,4,0,2,2,0,,,,,,,,,2,1.3519520109985024,067,001,2019_May_28_1610,MusicAffectPsychophysiology2019,3.0.5,59.9319546966717,
To what extent did the music make you feel ,ACTIVE,30MonoWAV/30MonoH1.wav,2,2,1,5,,,,,0,1,1,4,0,3,3,9,,,,,,,,,2,1.8014766139967833,067,001,2019_May_28_1610,MusicAffectPsychophysiology2019,3.0.5,59.9319546966717,
To what extent did the music make you feel ,GUILTY,30MonoWAV/30MonoH1.wav,2,2,1,5,,,,,0,1,1,4,0,4,4,5,,,,,,,,,2,1.1181697819993133,067,001,2019_May_28_1610,MusicAffectPsychophysiology2019,3.0.5,59.9319546966717,
To what extent did the music make you feel ,HAPPY,30MonoWAV/30MonoH1.wav,2,2,1,5,,,,,0,1,1,4,0,5,5,6,,,,,,,,,2,1.3012795590038877,067,001,2019_May_28_1610,MusicAffectPsychophysiology2019,3.0.5,59.9319546966717,
To what extent did the music make you feel ,TENDER,30MonoWAV/30MonoH1.wav,2,2,1,5,,,,,0,1,1,4,0,6,6,10,,,,,,,,,2,1.2521304930050974,067,001,2019_May_28_1610,MusicAffectPsychophysiology2019,3.0.5,59.9319546966717,
To what extent did the music make you feel ,FRUSTRATED,30MonoWAV/30MonoH1.wav,2,2,1,5,,,,,0,1,1,4,0,7,7,3,,,,,,,,,1,1.3514466990018263,067,001,2019_May_28_1610,MusicAffectPsychophysiology2019,3.0.5,59.9319546966717,
To what extent did the music make you feel ,ASHAMED,30MonoWAV/30MonoH1.wav,2,2,1,5,,,,,0,1,1,4,0,8,8,4,,,,,,,,,1,1.2847702170038247,067,001,2019_May_28_1610,MusicAffectPsychophysiology2019,3.0.5,59.9319546966717,
To what extent did the music make you feel ,ALERT,30MonoWAV/30MonoH1.wav,2,2,1,5,,,,,0,1,1,4,0,9,9,8,,,,,,,,,1,0.9343587069961359,067,001,2019_May_28_1610,MusicAffectPsychophysiology2019,3.0.5,59.9319546966717,
To what extent did the music make you feel ,ANGRY,30MonoWAV/30MonoH1.wav,2,2,1,5,,,,,0,1,1,4,0,10,10,2,,,,,,,,,1,1.9849951899959706,067,001,2019_May_28_1610,MusicAffectPsychophysiology2019,3.0.5,59.9319546966717,
To what extent did the music make you feel ,EXCITED,30MonoWAV/30MonoH1.wav,2,2,1,5,,,,,0,1,1,4,0,11,11,7,,,,,,,,,2,1.3350018730052398,067,001,2019_May_28_1610,MusicAffectPsychophysiology2019,3.0.5,59.9319546966717,
,,30MonoWAV/30MonoH1.wav,2,2,1,5,,,,,0,1,1,4,,,,,,,,,,,,,,,067,001,2019_May_28_1610,MusicAffectPsychophysiology2019,3.0.5,59.9319546966717,
To what extent did the music make you feel ,TENDER,30MonoWAV/30MonoT1.wav,2,1,4,13,,,,,0,2,2,12,0,0,0,10,,,1,2.9517612389972783,3,3.0182563580019632,2,1.8014804149934207,3,1.8512079729989637,067,001,2019_May_28_1610,MusicAffectPsychophysiology2019,3.0.5,59.9319546966717,
To what extent did the music make you feel ,ANGRY,30MonoWAV/30MonoT1.wav,2,1,4,13,,,,,0,2,2,12,0,1,1,2,,,,,,,,,1,1.5860026630034554,067,001,2019_May_28_1610,MusicAffectPsychophysiology2019,3.0.5,59.9319546966717,
To what extent did the music make you feel ,ANXIOUS ,30MonoWAV/30MonoT1.wav,2,1,4,13,,,,,0,2,2,12,0,2,2,1,,,,,,,,,1,0.9026931400003377,067,001,2019_May_28_1610,MusicAffectPsychophysiology2019,3.0.5,59.9319546966717,
To what extent did the music make you feel ,HAPPY,30MonoWAV/30MonoT1.wav,2,1,4,13,,,,,0,2,2,12,0,3,3,6,,,,,,,,,2,1.4185606989994994,067,001,2019_May_28_1610,MusicAffectPsychophysiology2019,3.0.5,59.9319546966717,
To what extent did the music make you feel ,FRUSTRATED,30MonoWAV/30MonoT1.wav,2,1,4,13,,,,,0,2,2,12,0,4,4,3,,,,,,,,,1,1.1500621890008915,067,001,2019_May_28_1610,MusicAffectPsychophysiology2019,3.0.5,59.9319546966717,
To what extent did the music make you feel ,ALERT,30MonoWAV/30MonoT1.wav,2,1,4,13,,,,,0,2,2,12,0,5,5,8,,,,,,,,,1,1.3186905889961054,067,001,2019_May_28_1610,MusicAffectPsychophysiology2019,3.0.5,59.9319546966717,
To what extent did the music make you feel ,ASHAMED,30MonoWAV/30MonoT1.wav,2,1,4,13,,,,,0,2,2,12,0,6,6,4,,,,,,,,,1,0.8677081620044191,067,001,2019_May_28_1610,MusicAffectPsychophysiology2019,3.0.5,59.9319546966717,
To what extent did the music make you feel ,SAD,30MonoWAV/30MonoT1.wav,2,1,4,13,,,,,0,2,2,12,0,7,7,0,,,,,,,,,2,1.3017613459960558,067,001,2019_May_28_1610,MusicAffectPsychophysiology2019,3.0.5,59.9319546966717,
To what extent did the music make you feel ,GUILTY,30MonoWAV/30MonoT1.wav,2,1,4,13,,,,,0,2,2,12,0,8,8,5,,,,,,,,,1,0.9847257260043989,067,001,2019_May_28_1610,MusicAffectPsychophysiology2019,3.0.5,59.9319546966717,
To what extent did the music make you feel ,ACTIVE,30MonoWAV/30MonoT1.wav,2,1,4,13,,,,,0,2,2,12,0,9,9,9,,,,,,,,,1,1.7498272280063247,067,001,2019_May_28_1610,MusicAffectPsychophysiology2019,3.0.5,59.9319546966717,
To what extent did the music make you feel ,SCARED,30MonoWAV/30MonoT1.wav,2,1,4,13,,,,,0,2,2,12,0,10,10,11,,,,,,,,,2,1.0192943460060633,067,001,2019_May_28_1610,MusicAffectPsychophysiology2019,3.0.5,59.9319546966717,
To what extent did the music make you feel ,EXCITED,30MonoWAV/30MonoT1.wav,2,1,4,13,,,,,0,2,2,12,0,11,11,7,,,,,,,,,1,2.035322557996551,067,001,2019_May_28_1610,MusicAffectPsychophysiology2019,3.0.5,59.9319546966717,
,,30MonoWAV/30MonoT1.wav,2,1,4,13,,,,,0,2,2,12,,,,,,,,,,,,,,,067,001,2019_May_28_1610,MusicAffectPsychophysiology2019,3.0.5,59.9319546966717,
To what extent did the music make you feel ,ANGRY,30MonoWAV/30MonoS2.wav,1,1,3,10,,,,,0,3,3,9,0,0,0,2,,,1,3.484717537998222,2,2.834910190998926,1,1.6189641739983927,1,1.6507577509983093,067,001,2019_May_28_1610,MusicAffectPsychophysiology2019,3.0.5,59.9319546966717,
To what extent did the music make you feel ,SAD,30MonoWAV/30MonoS2.wav,1,1,3,10,,,,,0,3,3,9,0,1,1,0,,,,,,,,,2,1.1844011059947661,067,001,2019_May_28_1610,MusicAffectPsychophysiology2019,3.0.5,59.9319546966717,
To what extent did the music make you feel ,GUILTY,30MonoWAV/30MonoS2.wav,1,1,3,10,,,,,0,3,3,9,0,2,2,5,,,,,,,,,2,1.0675797479998437,067,001,2019_May_28_1610,MusicAffectPsychophysiology2019,3.0.5,59.9319546966717,
To what extent did the music make you feel ,ACTIVE,30MonoWAV/30MonoS2.wav,1,1,3,10,,,,,0,3,3,9,0,3,3,9,,,,,,,,,1,1.083418754999002,067,001,2019_May_28_1610,MusicAffectPsychophysiology2019,3.0.5,59.9319546966717,
To what extent did the music make you feel ,TENDER,30MonoWAV/30MonoS2.wav,1,1,3,10,,,,,0,3,3,9,0,4,4,10,,,,,,,,,2,0.8854768899982446,067,001,2019_May_28_1610,MusicAffectPsychophysiology2019,3.0.5,59.9319546966717,
To what extent did the music make you feel ,SCARED,30MonoWAV/30MonoS2.wav,1,1,3,10,,,,,0,3,3,9,0,5,5,11,,,,,,,,,2,1.1851561160001438,067,001,2019_May_28_1610,MusicAffectPsychophysiology2019,3.0.5,59.9319546966717,
To what extent did the music make you feel ,ANXIOUS ,30MonoWAV/30MonoS2.wav,1,1,3,10,,,,,0,3,3,9,0,6,6,1,,,,,,,,,1,1.5517213700004504,067,001,2019_May_28_1610,MusicAffectPsychophysiology2019,3.0.5,59.9319546966717,
To what extent did the music make you feel ,FRUSTRATED,30MonoWAV/30MonoS2.wav,1,1,3,10,,,,,0,3,3,9,0,7,7,3,,,,,,,,,1,1.0515185529948212,067,001,2019_May_28_1610,MusicAffectPsychophysiology2019,3.0.5,59.9319546966717,
To what extent did the music make you feel ,HAPPY,30MonoWAV/30MonoS2.wav,1,1,3,10,,,,,0,3,3,9,0,8,8,6,,,,,,,,,1,1.1517461390030803,067,001,2019_May_28_1610,MusicAffectPsychophysiology2019,3.0.5,59.9319546966717,
To what extent did the music make you feel ,ALERT,30MonoWAV/30MonoS2.wav,1,1,3,10,,,,,0,3,3,9,0,9,9,8,,,,,,,,,1,1.3510226259968476,067,001,2019_May_28_1610,MusicAffectPsychophysiology2019,3.0.5,59.9319546966717,
To what extent did the music make you feel ,ASHAMED,30MonoWAV/30MonoS2.wav,1,1,3,10,,,,,0,3,3,9,0,10,10,4,,,,,,,,,2,1.3682894840021618,067,001,2019_May_28_1610,MusicAffectPsychophysiology2019,3.0.5,59.9319546966717,
To what extent did the music make you feel ,EXCITED,30MonoWAV/30MonoS2.wav,1,1,3,10,,,,,0,3,3,9,0,11,11,7,,,,,,,,,1,1.0347958909987938,067,001,2019_May_28_1610,MusicAffectPsychophysiology2019,3.0.5,59.9319546966717,
,,30MonoWAV/30MonoS2.wav,1,1,3,10,,,,,0,3,3,9,,,,,,,,,,,,,,,067,001,2019_May_28_1610,MusicAffectPsychophysiology2019,3.0.5,59.9319546966717,
To what extent did the music make you feel ,ACTIVE,30MonoWAV/30MonoF4.wav,1,2,2,4,,,,,0,4,4,3,0,0,0,9,,,3,3.9174560269893846,2,2.4688231330073904,2,1.2002923550026026,4,3.0015560550091323,067,001,2019_May_28_1610,MusicAffectPsychophysiology2019,3.0.5,59.9319546966717,
To what extent did the music make you feel ,HAPPY,30MonoWAV/30MonoF4.wav,1,2,2,4,,,,,0,4,4,3,0,1,1,6,,,,,,,,,3,2.201140586999827,067,001,2019_May_28_1610,MusicAffectPsychophysiology2019,3.0.5,59.9319546966717,
To what extent did the music make you feel ,ASHAMED,30MonoWAV/30MonoF4.wav,1,2,2,4,,,,,0,4,4,3,0,2,2,4,,,,,,,,,1,2.0346451439982047,067,001,2019_May_28_1610,MusicAffectPsychophysiology2019,3.0.5,59.9319546966717,
To what extent did the music make you feel ,ANGRY,30MonoWAV/30MonoF4.wav,1,2,2,4,,,,,0,4,4,3,0,3,3,2,,,,,,,,,1,1.251704491005512,067,001,2019_May_28_1610,MusicAffectPsychophysiology2019,3.0.5,59.9319546966717,
To what extent did the music make you feel ,SCARED,30MonoWAV/30MonoF4.wav,1,2,2,4,,,,,0,4,4,3,0,4,4,11,,,,,,,,,4,2.5180034119985066,067,001,2019_May_28_1610,MusicAffectPsychophysiology2019,3.0.5,59.9319546966717,
To what extent did the music make you feel ,ANXIOUS ,30MonoWAV/30MonoF4.wav,1,2,2,4,,,,,0,4,4,3,0,5,5,1,,,,,,,,,4,1.0185672079969663,067,001,2019_May_28_1610,MusicAffectPsychophysiology2019,3.0.5,59.9319546966717,
To what extent did the music make you feel ,GUILTY,30MonoWAV/30MonoF4.wav,1,2,2,4,,,,,0,4,4,3,0,6,6,5,,,,,,,,,1,1.534951858993736,067,001,2019_May_28_1610,MusicAffectPsychophysiology2019,3.0.5,59.9319546966717,
To what extent did the music make you feel ,SAD,30MonoWAV/30MonoF4.wav,1,2,2,4,,,,,0,4,4,3,0,7,7,0,,,,,,,,,1,1.3345833949861117,067,001,2019_May_28_1610,MusicAffectPsychophysiology2019,3.0.5,59.9319546966717,
To what extent did the music make you feel ,ALERT,30MonoWAV/30MonoF4.wav,1,2,2,4,,,,,0,4,4,3,0,8,8,8,,,,,,,,,4,2.4190322010108503,067,001,2019_May_28_1610,MusicAffectPsychophysiology2019,3.0.5,59.9319546966717,
To what extent did the music make you feel ,TENDER,30MonoWAV/30MonoF4.wav,1,2,2,4,,,,,0,4,4,3,0,9,9,10,,,,,,,,,1,1.58493589500722,067,001,2019_May_28_1610,MusicAffectPsychophysiology2019,3.0.5,59.9319546966717,
To what extent did the music make you feel ,EXCITED,30MonoWAV/30MonoF4.wav,1,2,2,4,,,,,0,4,4,3,0,10,10,7,,,,,,,,,2,2.084713809992536,067,001,2019_May_28_1610,MusicAffectPsychophysiology2019,3.0.5,59.9319546966717,
To what extent did the music make you feel ,FRUSTRATED,30MonoWAV/30MonoF4.wav,1,2,2,4,,,,,0,4,4,3,0,11,11,3,,,,,,,,,1,1.2515339870005846,067,001,2019_May_28_1610,MusicAffectPsychophysiology2019,3.0.5,59.9319546966717,
,,30MonoWAV/30MonoF4.wav,1,2,2,4,,,,,0,4,4,3,,,,,,,,,,,,,,,067,001,2019_May_28_1610,MusicAffectPsychophysiology2019,3.0.5,59.9319546966717,
To what extent did the music make you feel ,HAPPY,30MonoWAV/30MonoT2.wav,2,1,4,14,,,,,0,5,5,13,0,0,0,6,,,2,3.367591949994676,4,3.405298519995995,2,1.5372583540010964,2,1.9041778929968132,067,001,2019_May_28_1610,MusicAffectPsychophysiology2019,3.0.5,59.9319546966717,
To what extent did the music make you feel ,ASHAMED,30MonoWAV/30MonoT2.wav,2,1,4,14,,,,,0,5,5,13,0,1,1,4,,,,,,,,,1,1.286842159999651,067,001,2019_May_28_1610,MusicAffectPsychophysiology2019,3.0.5,59.9319546966717,
To what extent did the music make you feel ,ANXIOUS ,30MonoWAV/30MonoT2.wav,2,1,4,14,,,,,0,5,5,13,0,2,2,1,,,,,,,,,1,0.6690929590113228,067,001,2019_May_28_1610,MusicAffectPsychophysiology2019,3.0.5,59.9319546966717,
To what extent did the music make you feel ,SAD,30MonoWAV/30MonoT2.wav,2,1,4,14,,,,,0,5,5,13,0,3,3,0,,,,,,,,,1,1.005678886998794,067,001,2019_May_28_1610,MusicAffectPsychophysiology2019,3.0.5,59.9319546966717,
To what extent did the music make you feel ,EXCITED,30MonoWAV/30MonoT2.wav,2,1,4,14,,,,,0,5,5,13,0,4,4,7,,,,,,,,,1,1.0656675929931225,067,001,2019_May_28_1610,MusicAffectPsychophysiology2019,3.0.5,59.9319546966717,
To what extent did the music make you feel ,FRUSTRATED,30MonoWAV/30MonoT2.wav,2,1,4,14,,,,,0,5,5,13,0,5,5,3,,,,,,,,,1,0.817868083002395,067,001,2019_May_28_1610,MusicAffectPsychophysiology2019,3.0.5,59.9319546966717,
To what extent did the music make you feel ,ACTIVE,30MonoWAV/30MonoT2.wav,2,1,4,14,,,,,0,5,5,13,0,6,6,9,,,,,,,,,2,1.4353216029994655,067,001,2019_May_28_1610,MusicAffectPsychophysiology2019,3.0.5,59.9319546966717,
To what extent did the music make you feel ,ALERT,30MonoWAV/30MonoT2.wav,2,1,4,14,,,,,0,5,5,13,0,7,7,8,,,,,,,,,1,1.2011640760028968,067,001,2019_May_28_1610,MusicAffectPsychophysiology2019,3.0.5,59.9319546966717,
To what extent did the music make you feel ,SCARED,30MonoWAV/30MonoT2.wav,2,1,4,14,,,,,0,5,5,13,0,8,8,11,,,,,,,,,1,1.3841699509939644,067,001,2019_May_28_1610,MusicAffectPsychophysiology2019,3.0.5,59.9319546966717,
To what extent did the music make you feel ,ANGRY,30MonoWAV/30MonoT2.wav,2,1,4,14,,,,,0,5,5,13,0,9,9,2,,,,,,,,,1,0.8667494580004131,067,001,2019_May_28_1610,MusicAffectPsychophysiology2019,3.0.5,59.9319546966717,
To what extent did the music make you feel ,TENDER,30MonoWAV/30MonoT2.wav,2,1,4,14,,,,,0,5,5,13,0,10,10,10,,,,,,,,,3,1.3512331859965343,067,001,2019_May_28_1610,MusicAffectPsychophysiology2019,3.0.5,59.9319546966717,
To what extent did the music make you feel ,GUILTY,30MonoWAV/30MonoT2.wav,2,1,4,14,,,,,0,5,5,13,0,11,11,5,,,,,,,,,1,1.7009742180089233,067,001,2019_May_28_1610,MusicAffectPsychophysiology2019,3.0.5,59.9319546966717,
,,30MonoWAV/30MonoT2.wav,2,1,4,14,,,,,0,5,5,13,,,,,,,,,,,,,,,067,001,2019_May_28_1610,MusicAffectPsychophysiology2019,3.0.5,59.9319546966717,
To what extent did the music make you feel ,FRUSTRATED,30MonoWAV/30MonoT3.wav,2,1,4,15,,,,,0,6,6,14,0,0,0,3,,,1,2.967307280996465,4,2.534221466004965,2,1.6011694179906044,1,1.0177168670052197,067,001,2019_May_28_1610,MusicAffectPsychophysiology2019,3.0.5,59.9319546966717,
To what extent did the music make you feel ,ALERT,30MonoWAV/30MonoT3.wav,2,1,4,15,,,,,0,6,6,14,0,1,1,8,,,,,,,,,1,0.768221887992695,067,001,2019_May_28_1610,MusicAffectPsychophysiology2019,3.0.5,59.9319546966717,
To what extent did the music make you feel ,HAPPY,30MonoWAV/30MonoT3.wav,2,1,4,15,,,,,0,6,6,14,0,2,2,6,,,,,,,,,2,1.3014071109937504,067,001,2019_May_28_1610,MusicAffectPsychophysiology2019,3.0.5,59.9319546966717,
To what extent did the music make you feel ,ASHAMED,30MonoWAV/30MonoT3.wav,2,1,4,15,,,,,0,6,6,14,0,3,3,4,,,,,,,,,1,1.0516321299946867,067,001,2019_May_28_1610,MusicAffectPsychophysiology2019,3.0.5,59.9319546966717,
To what extent did the music make you feel ,SAD,30MonoWAV/30MonoT3.wav,2,1,4,15,,,,,0,6,6,14,0,4,4,0,,,,,,,,,2,1.3350178399996366,067,001,2019_May_28_1610,MusicAffectPsychophysiology2019,3.0.5,59.9319546966717,
To what extent did the music make you feel ,ACTIVE,30MonoWAV/30MonoT3.wav,2,1,4,15,,,,,0,6,6,14,0,5,5,9,,,,,,,,,1,0.9171777789888438,067,001,2019_May_28_1610,MusicAffectPsychophysiology2019,3.0.5,59.9319546966717,
To what extent did the music make you feel ,ANGRY,30MonoWAV/30MonoT3.wav,2,1,4,15,,,,,0,6,6,14,0,6,6,2,,,,,,,,,1,1.816053816000931,067,001,2019_May_28_1610,MusicAffectPsychophysiology2019,3.0.5,59.9319546966717,
To what extent did the music make you feel ,ANXIOUS ,30MonoWAV/30MonoT3.wav,2,1,4,15,,,,,0,6,6,14,0,7,7,1,,,,,,,,,2,1.3190461880003568,067,001,2019_May_28_1610,MusicAffectPsychophysiology2019,3.0.5,59.9319546966717,
To what extent did the music make you feel ,GUILTY,30MonoWAV/30MonoT3.wav,2,1,4,15,,,,,0,6,6,14,0,8,8,5,,,,,,,,,2,1.6842595880007138,067,001,2019_May_28_1610,MusicAffectPsychophysiology2019,3.0.5,59.9319546966717,
To what extent did the music make you feel ,SCARED,30MonoWAV/30MonoT3.wav,2,1,4,15,,,,,0,6,6,14,0,9,9,11,,,,,,,,,2,1.0854973109962884,067,001,2019_May_28_1610,MusicAffectPsychophysiology2019,3.0.5,59.9319546966717,
To what extent did the music make you feel ,EXCITED,30MonoWAV/30MonoT3.wav,2,1,4,15,,,,,0,6,6,14,0,10,10,7,,,,,,,,,1,2.0177358759974595,067,001,2019_May_28_1610,MusicAffectPsychophysiology2019,3.0.5,59.9319546966717,
To what extent did the music make you feel ,TENDER,30MonoWAV/30MonoT3.wav,2,1,4,15,,,,,0,6,6,14,0,11,11,10,,,,,,,,,2,0.8518062319926685,067,001,2019_May_28_1610,MusicAffectPsychophysiology2019,3.0.5,59.9319546966717,
,,30MonoWAV/30MonoT3.wav,2,1,4,15,,,,,0,6,6,14,,,,,,,,,,,,,,,067,001,2019_May_28_1610,MusicAffectPsychophysiology2019,3.0.5,59.9319546966717,
To what extent did the music make you feel ,SAD,30MonoWAV/30MonoF3.wav,1,2,2,3,,,,,0,7,7,2,0,0,0,0,,,3,4.9845746790088015,2,1.9187373720051255,2,1.1343394040013663,1,4.4347567570075626,067,001,2019_May_28_1610,MusicAffectPsychophysiology2019,3.0.5,59.9319546966717,
To what extent did the music make you feel ,TENDER,30MonoWAV/30MonoF3.wav,1,2,2,3,,,,,0,7,7,2,0,1,1,10,,,,,,,,,1,0.8353062480018707,067,001,2019_May_28_1610,MusicAffectPsychophysiology2019,3.0.5,59.9319546966717,
To what extent did the music make you feel ,GUILTY,30MonoWAV/30MonoF3.wav,1,2,2,3,,,,,0,7,7,2,0,2,2,5,,,,,,,,,1,0.7356372240028577,067,001,2019_May_28_1610,MusicAffectPsychophysiology2019,3.0.5,59.9319546966717,
To what extent did the music make you feel ,ALERT,30MonoWAV/30MonoF3.wav,1,2,2,3,,,,,0,7,7,2,0,3,3,8,,,,,,,,,3,1.2509803190041566,067,001,2019_May_28_1610,MusicAffectPsychophysiology2019,3.0.5,59.9319546966717,
To what extent did the music make you feel ,FRUSTRATED,30MonoWAV/30MonoF3.wav,1,2,2,3,,,,,0,7,7,2,0,4,4,3,,,,,,,,,2,3.4182384360028664,067,001,2019_May_28_1610,MusicAffectPsychophysiology2019,3.0.5,59.9319546966717,
To what extent did the music make you feel ,ANXIOUS ,30MonoWAV/30MonoF3.wav,1,2,2,3,,,,,0,7,7,2,0,5,5,1,,,,,,,,,2,0.8011457319953479,067,001,2019_May_28_1610,MusicAffectPsychophysiology2019,3.0.5,59.9319546966717,
To what extent did the music make you feel ,EXCITED,30MonoWAV/30MonoF3.wav,1,2,2,3,,,,,0,7,7,2,0,6,6,7,,,,,,,,,3,1.0688285989890574,067,001,2019_May_28_1610,MusicAffectPsychophysiology2019,3.0.5,59.9319546966717,
To what extent did the music make you feel ,SCARED,30MonoWAV/30MonoF3.wav,1,2,2,3,,,,,0,7,7,2,0,7,7,11,,,,,,,,,2,1.034302973013837,067,001,2019_May_28_1610,MusicAffectPsychophysiology2019,3.0.5,59.9319546966717,
To what extent did the music make you feel ,ANGRY,30MonoWAV/30MonoF3.wav,1,2,2,3,,,,,0,7,7,2,0,8,8,2,,,,,,,,,2,1.316851213996415,067,001,2019_May_28_1610,MusicAffectPsychophysiology2019,3.0.5,59.9319546966717,
To what extent did the music make you feel ,ACTIVE,30MonoWAV/30MonoF3.wav,1,2,2,3,,,,,0,7,7,2,0,9,9,9,,,,,,,,,3,1.1849744809878757,067,001,2019_May_28_1610,MusicAffectPsychophysiology2019,3.0.5,59.9319546966717,
To what extent did the music make you feel ,HAPPY,30MonoWAV/30MonoF3.wav,1,2,2,3,,,,,0,7,7,2,0,10,10,6,,,,,,,,,2,1.8510887560114497,067,001,2019_May_28_1610,MusicAffectPsychophysiology2019,3.0.5,59.9319546966717,
To what extent did the music make you feel ,ASHAMED,30MonoWAV/30MonoF3.wav,1,2,2,3,,,,,0,7,7,2,0,11,11,4,,,,,,,,,1,1.5350835459976224,067,001,2019_May_28_1610,MusicAffectPsychophysiology2019,3.0.5,59.9319546966717,
,,30MonoWAV/30MonoF3.wav,1,2,2,3,,,,,0,7,7,2,,,,,,,,,,,,,,,067,001,2019_May_28_1610,MusicAffectPsychophysiology2019,3.0.5,59.9319546966717,
To what extent did the music make you feel ,ANXIOUS ,30MonoWAV/30MonoS1.wav,1,1,3,9,,,,,0,8,8,8,0,0,0,1,,,1,5.068849378003506,2,0.9689951990003465,2,1.266870806008228,2,1.2848924380086828,067,001,2019_May_28_1610,MusicAffectPsychophysiology2019,3.0.5,59.9319546966717,
To what extent did the music make you feel ,FRUSTRATED,30MonoWAV/30MonoS1.wav,1,1,3,9,,,,,0,8,8,8,0,1,1,3,,,,,,,,,1,1.0020917199872201,067,001,2019_May_28_1610,MusicAffectPsychophysiology2019,3.0.5,59.9319546966717,
To what extent did the music make you feel ,ANGRY,30MonoWAV/30MonoS1.wav,1,1,3,9,,,,,0,8,8,8,0,2,2,2,,,,,,,,,1,0.9846290670102462,067,001,2019_May_28_1610,MusicAffectPsychophysiology2019,3.0.5,59.9319546966717,
To what extent did the music make you feel ,ACTIVE,30MonoWAV/30MonoS1.wav,1,1,3,9,,,,,0,8,8,8,0,3,3,9,,,,,,,,,1,0.9846664740034612,067,001,2019_May_28_1610,MusicAffectPsychophysiology2019,3.0.5,59.9319546966717,
To what extent did the music make you feel ,GUILTY,30MonoWAV/30MonoS1.wav,1,1,3,9,,,,,0,8,8,8,0,4,4,5,,,,,,,,,2,1.0031797319970792,067,001,2019_May_28_1610,MusicAffectPsychophysiology2019,3.0.5,59.9319546966717,
To what extent did the music make you feel ,ASHAMED,30MonoWAV/30MonoS1.wav,1,1,3,9,,,,,0,8,8,8,0,5,5,4,,,,,,,,,2,0.8685403569979826,067,001,2019_May_28_1610,MusicAffectPsychophysiology2019,3.0.5,59.9319546966717,
To what extent did the music make you feel ,SCARED,30MonoWAV/30MonoS1.wav,1,1,3,9,,,,,0,8,8,8,0,6,6,11,,,,,,,,,2,1.6679721870023059,067,001,2019_May_28_1610,MusicAffectPsychophysiology2019,3.0.5,59.9319546966717,
To what extent did the music make you feel ,SAD,30MonoWAV/30MonoS1.wav,1,1,3,9,,,,,0,8,8,8,0,7,7,0,,,,,,,,,2,1.1189998979971278,067,001,2019_May_28_1610,MusicAffectPsychophysiology2019,3.0.5,59.9319546966717,
To what extent did the music make you feel ,TENDER,30MonoWAV/30MonoS1.wav,1,1,3,9,,,,,0,8,8,8,0,8,8,10,,,,,,,,,3,2.868213834008202,067,001,2019_May_28_1610,MusicAffectPsychophysiology2019,3.0.5,59.9319546966717,
To what extent did the music make you feel ,ALERT,30MonoWAV/30MonoS1.wav,1,1,3,9,,,,,0,8,8,8,0,9,9,8,,,,,,,,,1,2.251500587008195,067,001,2019_May_28_1610,MusicAffectPsychophysiology2019,3.0.5,59.9319546966717,
To what extent did the music make you feel ,HAPPY,30MonoWAV/30MonoS1.wav,1,1,3,9,,,,,0,8,8,8,0,10,10,6,,,,,,,,,2,1.8009083009965252,067,001,2019_May_28_1610,MusicAffectPsychophysiology2019,3.0.5,59.9319546966717,
To what extent did the music make you feel ,EXCITED,30MonoWAV/30MonoS1.wav,1,1,3,9,,,,,0,8,8,8,0,11,11,7,,,,,,,,,1,1.2361425749986665,067,001,2019_May_28_1610,MusicAffectPsychophysiology2019,3.0.5,59.9319546966717,
,,30MonoWAV/30MonoS1.wav,1,1,3,9,,,,,0,8,8,8,,,,,,,,,,,,,,,067,001,2019_May_28_1610,MusicAffectPsychophysiology2019,3.0.5,59.9319546966717,
To what extent did the music make you feel ,ALERT,30MonoWAV/30MonoT4.wav,2,1,4,16,,,,,0,9,9,15,0,0,0,8,,,3,3.4153414079919457,3,2.134578003999195,2,1.5018921840091934,3,1.3023556050029583,067,001,2019_May_28_1610,MusicAffectPsychophysiology2019,3.0.5,59.9319546966717,
To what extent did the music make you feel ,ANGRY,30MonoWAV/30MonoT4.wav,2,1,4,16,,,,,0,9,9,15,0,1,1,2,,,,,,,,,1,1.2176586220011814,067,001,2019_May_28_1610,MusicAffectPsychophysiology2019,3.0.5,59.9319546966717,
To what extent did the music make you feel ,EXCITED,30MonoWAV/30MonoT4.wav,2,1,4,16,,,,,0,9,9,15,0,2,2,7,,,,,,,,,3,2.4020628970029065,067,001,2019_May_28_1610,MusicAffectPsychophysiology2019,3.0.5,59.9319546966717,
To what extent did the music make you feel ,TENDER,30MonoWAV/30MonoT4.wav,2,1,4,16,,,,,0,9,9,15,0,3,3,10,,,,,,,,,3,1.3355450389935868,067,001,2019_May_28_1610,MusicAffectPsychophysiology2019,3.0.5,59.9319546966717,
To what extent did the music make you feel ,HAPPY,30MonoWAV/30MonoT4.wav,2,1,4,16,,,,,0,9,9,15,0,4,4,6,,,,,,,,,4,0.9352870220027398,067,001,2019_May_28_1610,MusicAffectPsychophysiology2019,3.0.5,59.9319546966717,
To what extent did the music make you feel ,FRUSTRATED,30MonoWAV/30MonoT4.wav,2,1,4,16,,,,,0,9,9,15,0,5,5,3,,,,,,,,,1,2.0689298290089937,067,001,2019_May_28_1610,MusicAffectPsychophysiology2019,3.0.5,59.9319546966717,
To what extent did the music make you feel ,ANXIOUS ,30MonoWAV/30MonoT4.wav,2,1,4,16,,,,,0,9,9,15,0,6,6,1,,,,,,,,,1,1.3515300269937143,067,001,2019_May_28_1610,MusicAffectPsychophysiology2019,3.0.5,59.9319546966717,
To what extent did the music make you feel ,GUILTY,30MonoWAV/30MonoT4.wav,2,1,4,16,,,,,0,9,9,15,0,7,7,5,,,,,,,,,1,0.9016956920095254,067,001,2019_May_28_1610,MusicAffectPsychophysiology2019,3.0.5,59.9319546966717,
To what extent did the music make you feel ,SCARED,30MonoWAV/30MonoT4.wav,2,1,4,16,,,,,0,9,9,15,0,8,8,11,,,,,,,,,1,0.6846523779968265,067,001,2019_May_28_1610,MusicAffectPsychophysiology2019,3.0.5,59.9319546966717,
To what extent did the music make you feel ,SAD,30MonoWAV/30MonoT4.wav,2,1,4,16,,,,,0,9,9,15,0,9,9,0,,,,,,,,,1,0.6683429929980775,067,001,2019_May_28_1610,MusicAffectPsychophysiology2019,3.0.5,59.9319546966717,
To what extent did the music make you feel ,ASHAMED,30MonoWAV/30MonoT4.wav,2,1,4,16,,,,,0,9,9,15,0,10,10,4,,,,,,,,,1,0.867281268001534,067,001,2019_May_28_1610,MusicAffectPsychophysiology2019,3.0.5,59.9319546966717,
To what extent did the music make you feel ,ACTIVE,30MonoWAV/30MonoT4.wav,2,1,4,16,,,,,0,9,9,15,0,11,11,9,,,,,,,,,4,2.0826934309880016,067,001,2019_May_28_1610,MusicAffectPsychophysiology2019,3.0.5,59.9319546966717,
,,30MonoWAV/30MonoT4.wav,2,1,4,16,,,,,0,9,9,15,,,,,,,,,,,,,,,067,001,2019_May_28_1610,MusicAffectPsychophysiology2019,3.0.5,59.9319546966717,
To what extent did the music make you feel ,ANGRY,30MonoWAV/30MonoS4.wav,1,1,3,12,,,,,0,10,10,11,0,0,0,2,,,1,3.018174255004851,3,2.6010535940004047,2,1.4684148599917535,1,2.4842393029975938,067,001,2019_May_28_1610,MusicAffectPsychophysiology2019,3.0.5,59.9319546966717,
To what extent did the music make you feel ,ACTIVE,30MonoWAV/30MonoS4.wav,1,1,3,12,,,,,0,10,10,11,0,1,1,9,,,,,,,,,1,1.1842409540113294,067,001,2019_May_28_1610,MusicAffectPsychophysiology2019,3.0.5,59.9319546966717,
To what extent did the music make you feel ,ALERT,30MonoWAV/30MonoS4.wav,1,1,3,12,,,,,0,10,10,11,0,2,2,8,,,,,,,,,1,0.7696410469943658,067,001,2019_May_28_1610,MusicAffectPsychophysiology2019,3.0.5,59.9319546966717,
To what extent did the music make you feel ,HAPPY,30MonoWAV/30MonoS4.wav,1,1,3,12,,,,,0,10,10,11,0,3,3,6,,,,,,,,,2,1.7354160540126031,067,001,2019_May_28_1610,MusicAffectPsychophysiology2019,3.0.5,59.9319546966717,
To what extent did the music make you feel ,FRUSTRATED,30MonoWAV/30MonoS4.wav,1,1,3,12,,,,,0,10,10,11,0,4,4,3,,,,,,,,,1,1.1687776819890132,067,001,2019_May_28_1610,MusicAffectPsychophysiology2019,3.0.5,59.9319546966717,
To what extent did the music make you feel ,SAD,30MonoWAV/30MonoS4.wav,1,1,3,12,,,,,0,10,10,11,0,5,5,0,,,,,,,,,4,2.002832906000549,067,001,2019_May_28_1610,MusicAffectPsychophysiology2019,3.0.5,59.9319546966717,
To what extent did the music make you feel ,TENDER,30MonoWAV/30MonoS4.wav,1,1,3,12,,,,,0,10,10,11,0,6,6,10,,,,,,,,,4,1.0840941710048355,067,001,2019_May_28_1610,MusicAffectPsychophysiology2019,3.0.5,59.9319546966717,
To what extent did the music make you feel ,ASHAMED,30MonoWAV/30MonoS4.wav,1,1,3,12,,,,,0,10,10,11,0,7,7,4,,,,,,,,,2,1.7353122500062454,067,001,2019_May_28_1610,MusicAffectPsychophysiology2019,3.0.5,59.9319546966717,
To what extent did the music make you feel ,EXCITED,30MonoWAV/30MonoS4.wav,1,1,3,12,,,,,0,10,10,11,0,8,8,7,,,,,,,,,1,1.234333261003485,067,001,2019_May_28_1610,MusicAffectPsychophysiology2019,3.0.5,59.9319546966717,
To what extent did the music make you feel ,SCARED,30MonoWAV/30MonoS4.wav,1,1,3,12,,,,,0,10,10,11,0,9,9,11,,,,,,,,,2,0.96880051100743,067,001,2019_May_28_1610,MusicAffectPsychophysiology2019,3.0.5,59.9319546966717,
To what extent did the music make you feel ,GUILTY,30MonoWAV/30MonoS4.wav,1,1,3,12,,,,,0,10,10,11,0,10,10,5,,,,,,,,,2,1.0503608569997596,067,001,2019_May_28_1610,MusicAffectPsychophysiology2019,3.0.5,59.9319546966717,
To what extent did the music make you feel ,ANXIOUS ,30MonoWAV/30MonoS4.wav,1,1,3,12,,,,,0,10,10,11,0,11,11,1,,,,,,,,,2,0.9675391880009556,067,001,2019_May_28_1610,MusicAffectPsychophysiology2019,3.0.5,59.9319546966717,
,,30MonoWAV/30MonoS4.wav,1,1,3,12,,,,,0,10,10,11,,,,,,,,,,,,,,,067,001,2019_May_28_1610,MusicAffectPsychophysiology2019,3.0.5,59.9319546966717,
To what extent did the music make you feel ,HAPPY,30MonoWAV/30MonoS3.wav,1,1,3,11,,,,,0,11,11,10,0,0,0,6,,,2,3.9391885770019144,2,1.8205967719986802,2,1.7198914010077715,2,1.6558712779951748,067,001,2019_May_28_1610,MusicAffectPsychophysiology2019,3.0.5,59.9319546966717,
To what extent did the music make you feel ,GUILTY,30MonoWAV/30MonoS3.wav,1,1,3,11,,,,,0,11,11,10,0,1,1,5,,,,,,,,,3,1.6351345360017149,067,001,2019_May_28_1610,MusicAffectPsychophysiology2019,3.0.5,59.9319546966717,
To what extent did the music make you feel ,SAD,30MonoWAV/30MonoS3.wav,1,1,3,11,,,,,0,11,11,10,0,2,2,0,,,,,,,,,3,0.901817049991223,067,001,2019_May_28_1610,MusicAffectPsychophysiology2019,3.0.5,59.9319546966717,
To what extent did the music make you feel ,ANXIOUS ,30MonoWAV/30MonoS3.wav,1,1,3,11,,,,,0,11,11,10,0,3,3,1,,,,,,,,,2,1.5850384980003582,067,001,2019_May_28_1610,MusicAffectPsychophysiology2019,3.0.5,59.9319546966717,
To what extent did the music make you feel ,ALERT,30MonoWAV/30MonoS3.wav,1,1,3,11,,,,,0,11,11,10,0,4,4,8,,,,,,,,,2,1.5514564070035703,067,001,2019_May_28_1610,MusicAffectPsychophysiology2019,3.0.5,59.9319546966717,
To what extent did the music make you feel ,ASHAMED,30MonoWAV/30MonoS3.wav,1,1,3,11,,,,,0,11,11,10,0,5,5,4,,,,,,,,,2,1.1851718179968884,067,001,2019_May_28_1610,MusicAffectPsychophysiology2019,3.0.5,59.9319546966717,
To what extent did the music make you feel ,TENDER,30MonoWAV/30MonoS3.wav,1,1,3,11,,,,,0,11,11,10,0,6,6,10,,,,,,,,,2,1.3351265590026742,067,001,2019_May_28_1610,MusicAffectPsychophysiology2019,3.0.5,59.9319546966717,
To what extent did the music make you feel ,FRUSTRATED,30MonoWAV/30MonoS3.wav,1,1,3,11,,,,,0,11,11,10,0,7,7,3,,,,,,,,,1,1.65110578299209,067,001,2019_May_28_1610,MusicAffectPsychophysiology2019,3.0.5,59.9319546966717,
To what extent did the music make you feel ,EXCITED,30MonoWAV/30MonoS3.wav,1,1,3,11,,,,,0,11,11,10,0,8,8,7,,,,,,,,,1,1.6338336640037596,067,001,2019_May_28_1610,MusicAffectPsychophysiology2019,3.0.5,59.9319546966717,
To what extent did the music make you feel ,ANGRY,30MonoWAV/30MonoS3.wav,1,1,3,11,,,,,0,11,11,10,0,9,9,2,,,,,,,,,1,1.0848009920009645,067,001,2019_May_28_1610,MusicAffectPsychophysiology2019,3.0.5,59.9319546966717,
To what extent did the music make you feel ,ACTIVE,30MonoWAV/30MonoS3.wav,1,1,3,11,,,,,0,11,11,10,0,10,10,9,,,,,,,,,3,1.8009223800036125,067,001,2019_May_28_1610,MusicAffectPsychophysiology2019,3.0.5,59.9319546966717,
To what extent did the music make you feel ,SCARED,30MonoWAV/30MonoS3.wav,1,1,3,11,,,,,0,11,11,10,0,11,11,11,,,,,,,,,3,1.218189181003254,067,001,2019_May_28_1610,MusicAffectPsychophysiology2019,3.0.5,59.9319546966717,
,,30MonoWAV/30MonoS3.wav,1,1,3,11,,,,,0,11,11,10,,,,,,,,,,,,,,,067,001,2019_May_28_1610,MusicAffectPsychophysiology2019,3.0.5,59.9319546966717,
To what extent did the music make you feel ,FRUSTRATED,30MonoWAV/30MonoF1.wav,1,2,2,1,,,,,0,12,12,0,0,0,0,3,,,3,3.6520646319986554,2,1.517839977008407,2,1.1021266110037686,3,1.752327306996449,067,001,2019_May_28_1610,MusicAffectPsychophysiology2019,3.0.5,59.9319546966717,
To what extent did the music make you feel ,ANGRY,30MonoWAV/30MonoF1.wav,1,2,2,1,,,,,0,12,12,0,0,1,1,2,,,,,,,,,3,1.001300080009969,067,001,2019_May_28_1610,MusicAffectPsychophysiology2019,3.0.5,59.9319546966717,
To what extent did the music make you feel ,HAPPY,30MonoWAV/30MonoF1.wav,1,2,2,1,,,,,0,12,12,0,0,2,2,6,,,,,,,,,2,1.2838256910035852,067,001,2019_May_28_1610,MusicAffectPsychophysiology2019,3.0.5,59.9319546966717,
To what extent did the music make you feel ,SCARED,30MonoWAV/30MonoF1.wav,1,2,2,1,,,,,0,12,12,0,0,3,3,11,,,,,,,,,3,1.0685793190059485,067,001,2019_May_28_1610,MusicAffectPsychophysiology2019,3.0.5,59.9319546966717,
To what extent did the music make you feel ,ASHAMED,30MonoWAV/30MonoF1.wav,1,2,2,1,,,,,0,12,12,0,0,4,4,4,,,,,,,,,2,1.1051423309982056,067,001,2019_May_28_1610,MusicAffectPsychophysiology2019,3.0.5,59.9319546966717,
To what extent did the music make you feel ,ALERT,30MonoWAV/30MonoF1.wav,1,2,2,1,,,,,0,12,12,0,0,5,5,8,,,,,,,,,3,1.0349042109883158,067,001,2019_May_28_1610,MusicAffectPsychophysiology2019,3.0.5,59.9319546966717,
To what extent did the music make you feel ,TENDER,30MonoWAV/30MonoF1.wav,1,2,2,1,,,,,0,12,12,0,0,6,6,10,,,,,,,,,2,1.4856604550004704,067,001,2019_May_28_1610,MusicAffectPsychophysiology2019,3.0.5,59.9319546966717,
To what extent did the music make you feel ,ANXIOUS ,30MonoWAV/30MonoF1.wav,1,2,2,1,,,,,0,12,12,0,0,7,7,1,,,,,,,,,3,1.2034354700008407,067,001,2019_May_28_1610,MusicAffectPsychophysiology2019,3.0.5,59.9319546966717,
To what extent did the music make you feel ,EXCITED,30MonoWAV/30MonoF1.wav,1,2,2,1,,,,,0,12,12,0,0,8,8,7,,,,,,,,,3,1.2192053210019367,067,001,2019_May_28_1610,MusicAffectPsychophysiology2019,3.0.5,59.9319546966717,
To what extent did the music make you feel ,ACTIVE,30MonoWAV/30MonoF1.wav,1,2,2,1,,,,,0,12,12,0,0,9,9,9,,,,,,,,,4,1.2200741559936432,067,001,2019_May_28_1610,MusicAffectPsychophysiology2019,3.0.5,59.9319546966717,
To what extent did the music make you feel ,SAD,30MonoWAV/30MonoF1.wav,1,2,2,1,,,,,0,12,12,0,0,10,10,0,,,,,,,,,2,4.290001089000725,067,001,2019_May_28_1610,MusicAffectPsychophysiology2019,3.0.5,59.9319546966717,
To what extent did the music make you feel ,GUILTY,30MonoWAV/30MonoF1.wav,1,2,2,1,,,,,0,12,12,0,0,11,11,5,,,,,,,,,2,1.1685729820019333,067,001,2019_May_28_1610,MusicAffectPsychophysiology2019,3.0.5,59.9319546966717,
,,30MonoWAV/30MonoF1.wav,1,2,2,1,,,,,0,12,12,0,,,,,,,,,,,,,,,067,001,2019_May_28_1610,MusicAffectPsychophysiology2019,3.0.5,59.9319546966717,
To what extent did the music make you feel ,HAPPY,30MonoWAV/30MonoH2.wav,2,2,1,6,,,,,0,13,13,5,0,0,0,6,,,4,3.9844303730060346,3,2.334513320005499,2,1.7683474000077695,3,1.301472699007718,067,001,2019_May_28_1610,MusicAffectPsychophysiology2019,3.0.5,59.9319546966717,
To what extent did the music make you feel ,SCARED,30MonoWAV/30MonoH2.wav,2,2,1,6,,,,,0,13,13,5,0,1,1,11,,,,,,,,,2,1.1167080059967702,067,001,2019_May_28_1610,MusicAffectPsychophysiology2019,3.0.5,59.9319546966717,
To what extent did the music make you feel ,ALERT,30MonoWAV/30MonoH2.wav,2,2,1,6,,,,,0,13,13,5,0,2,2,8,,,,,,,,,3,1.4521999139979016,067,001,2019_May_28_1610,MusicAffectPsychophysiology2019,3.0.5,59.9319546966717,
To what extent did the music make you feel ,GUILTY,30MonoWAV/30MonoH2.wav,2,2,1,6,,,,,0,13,13,5,0,3,3,5,,,,,,,,,2,0.8356155689980369,067,001,2019_May_28_1610,MusicAffectPsychophysiology2019,3.0.5,59.9319546966717,
To what extent did the music make you feel ,SAD,30MonoWAV/30MonoH2.wav,2,2,1,6,,,,,0,13,13,5,0,4,4,0,,,,,,,,,1,1.2015685670048697,067,001,2019_May_28_1610,MusicAffectPsychophysiology2019,3.0.5,59.9319546966717,
To what extent did the music make you feel ,FRUSTRATED,30MonoWAV/30MonoH2.wav,2,2,1,6,,,,,0,13,13,5,0,5,5,3,,,,,,,,,1,0.9681919459981145,067,001,2019_May_28_1610,MusicAffectPsychophysiology2019,3.0.5,59.9319546966717,
To what extent did the music make you feel ,TENDER,30MonoWAV/30MonoH2.wav,2,2,1,6,,,,,0,13,13,5,0,6,6,10,,,,,,,,,1,0.8690159940015292,067,001,2019_May_28_1610,MusicAffectPsychophysiology2019,3.0.5,59.9319546966717,
To what extent did the music make you feel ,ACTIVE,30MonoWAV/30MonoH2.wav,2,2,1,6,,,,,0,13,13,5,0,7,7,9,,,,,,,,,4,2.268170637995354,067,001,2019_May_28_1610,MusicAffectPsychophysiology2019,3.0.5,59.9319546966717,
To what extent did the music make you feel ,ANXIOUS ,30MonoWAV/30MonoH2.wav,2,2,1,6,,,,,0,13,13,5,0,8,8,1,,,,,,,,,2,1.7019336380035384,067,001,2019_May_28_1610,MusicAffectPsychophysiology2019,3.0.5,59.9319546966717,
To what extent did the music make you feel ,EXCITED,30MonoWAV/30MonoH2.wav,2,2,1,6,,,,,0,13,13,5,0,9,9,7,,,,,,,,,2,1.0656239480013028,067,001,2019_May_28_1610,MusicAffectPsychophysiology2019,3.0.5,59.9319546966717,
To what extent did the music make you feel ,ASHAMED,30MonoWAV/30MonoH2.wav,2,2,1,6,,,,,0,13,13,5,0,10,10,4,,,,,,,,,1,1.1526409219950438,067,001,2019_May_28_1610,MusicAffectPsychophysiology2019,3.0.5,59.9319546966717,
To what extent did the music make you feel ,ANGRY,30MonoWAV/30MonoH2.wav,2,2,1,6,,,,,0,13,13,5,0,11,11,2,,,,,,,,,1,1.284913940995466,067,001,2019_May_28_1610,MusicAffectPsychophysiology2019,3.0.5,59.9319546966717,
,,30MonoWAV/30MonoH2.wav,2,2,1,6,,,,,0,13,13,5,,,,,,,,,,,,,,,067,001,2019_May_28_1610,MusicAffectPsychophysiology2019,3.0.5,59.9319546966717,
To what extent did the music make you feel ,EXCITED,30MonoWAV/30MonoH3.wav,2,2,1,7,,,,,0,14,14,6,0,0,0,7,,,5,4.117205643007765,3,2.0524752289929893,2,1.4343474519992014,4,1.3518487890105462,067,001,2019_May_28_1610,MusicAffectPsychophysiology2019,3.0.5,59.9319546966717,
To what extent did the music make you feel ,FRUSTRATED,30MonoWAV/30MonoH3.wav,2,2,1,7,,,,,0,14,14,6,0,1,1,3,,,,,,,,,2,2.035432769000181,067,001,2019_May_28_1610,MusicAffectPsychophysiology2019,3.0.5,59.9319546966717,
To what extent did the music make you feel ,GUILTY,30MonoWAV/30MonoH3.wav,2,2,1,7,,,,,0,14,14,6,0,2,2,5,,,,,,,,,2,0.9182457660062937,067,001,2019_May_28_1610,MusicAffectPsychophysiology2019,3.0.5,59.9319546966717,
To what extent did the music make you feel ,ANGRY,30MonoWAV/30MonoH3.wav,2,2,1,7,,,,,0,14,14,6,0,3,3,2,,,,,,,,,2,1.2354728339996655,067,001,2019_May_28_1610,MusicAffectPsychophysiology2019,3.0.5,59.9319546966717,
To what extent did the music make you feel ,TENDER,30MonoWAV/30MonoH3.wav,2,2,1,7,,,,,0,14,14,6,0,4,4,10,,,,,,,,,1,0.8020831970061408,067,001,2019_May_28_1610,MusicAffectPsychophysiology2019,3.0.5,59.9319546966717,
To what extent did the music make you feel ,ANXIOUS ,30MonoWAV/30MonoH3.wav,2,2,1,7,,,,,0,14,14,6,0,5,5,1,,,,,,,,,2,1.2014015460008522,067,001,2019_May_28_1610,MusicAffectPsychophysiology2019,3.0.5,59.9319546966717,
To what extent did the music make you feel ,SAD,30MonoWAV/30MonoH3.wav,2,2,1,7,,,,,0,14,14,6,0,6,6,0,,,,,,,,,1,0.9687739710061578,067,001,2019_May_28_1610,MusicAffectPsychophysiology2019,3.0.5,59.9319546966717,
To what extent did the music make you feel ,ASHAMED,30MonoWAV/30MonoH3.wav,2,2,1,7,,,,,0,14,14,6,0,7,7,4,,,,,,,,,1,1.0513300530001288,067,001,2019_May_28_1610,MusicAffectPsychophysiology2019,3.0.5,59.9319546966717,
To what extent did the music make you feel ,ACTIVE,30MonoWAV/30MonoH3.wav,2,2,1,7,,,,,0,14,14,6,0,8,8,9,,,,,,,,,3,2.101522330005537,067,001,2019_May_28_1610,MusicAffectPsychophysiology2019,3.0.5,59.9319546966717,
To what extent did the music make you feel ,HAPPY,30MonoWAV/30MonoH3.wav,2,2,1,7,,,,,0,14,14,6,0,9,9,6,,,,,,,,,3,1.5180092160007916,067,001,2019_May_28_1610,MusicAffectPsychophysiology2019,3.0.5,59.9319546966717,
To what extent did the music make you feel ,SCARED,30MonoWAV/30MonoH3.wav,2,2,1,7,,,,,0,14,14,6,0,10,10,11,,,,,,,,,1,1.3013759489986114,067,001,2019_May_28_1610,MusicAffectPsychophysiology2019,3.0.5,59.9319546966717,
To what extent did the music make you feel ,ALERT,30MonoWAV/30MonoH3.wav,2,2,1,7,,,,,0,14,14,6,0,11,11,8,,,,,,,,,4,1.6358606569992844,067,001,2019_May_28_1610,MusicAffectPsychophysiology2019,3.0.5,59.9319546966717,
,,30MonoWAV/30MonoH3.wav,2,2,1,7,,,,,0,14,14,6,,,,,,,,,,,,,,,067,001,2019_May_28_1610,MusicAffectPsychophysiology2019,3.0.5,59.9319546966717,
To what extent did the music make you feel ,ACTIVE,30MonoWAV/30MonoF2.wav,1,2,2,2,,,,,0,15,15,1,0,0,0,9,,,4,3.0520852979971096,2,1.7192845249956008,2,1.267882146014017,3,2.268010260988376,067,001,2019_May_28_1610,MusicAffectPsychophysiology2019,3.0.5,59.9319546966717,
To what extent did the music make you feel ,EXCITED,30MonoWAV/30MonoF2.wav,1,2,2,2,,,,,0,15,15,1,0,1,1,7,,,,,,,,,3,1.6502915780001786,067,001,2019_May_28_1610,MusicAffectPsychophysiology2019,3.0.5,59.9319546966717,
To what extent did the music make you feel ,HAPPY,30MonoWAV/30MonoF2.wav,1,2,2,2,,,,,0,15,15,1,0,2,2,6,,,,,,,,,2,1.0179352599952836,067,001,2019_May_28_1610,MusicAffectPsychophysiology2019,3.0.5,59.9319546966717,
To what extent did the music make you feel ,ANXIOUS ,30MonoWAV/30MonoF2.wav,1,2,2,2,,,,,0,15,15,1,0,3,3,1,,,,,,,,,5,1.8173048210010165,067,001,2019_May_28_1610,MusicAffectPsychophysiology2019,3.0.5,59.9319546966717,
To what extent did the music make you feel ,GUILTY,30MonoWAV/30MonoF2.wav,1,2,2,2,,,,,0,15,15,1,0,4,4,5,,,,,,,,,2,1.3187508940027328,067,001,2019_May_28_1610,MusicAffectPsychophysiology2019,3.0.5,59.9319546966717,
To what extent did the music make you feel ,SCARED,30MonoWAV/30MonoF2.wav,1,2,2,2,,,,,0,15,15,1,0,5,5,11,,,,,,,,,4,1.567839448005543,067,001,2019_May_28_1610,MusicAffectPsychophysiology2019,3.0.5,59.9319546966717,
To what extent did the music make you feel ,FRUSTRATED,30MonoWAV/30MonoF2.wav,1,2,2,2,,,,,0,15,15,1,0,6,6,3,,,,,,,,,1,1.2690522769989911,067,001,2019_May_28_1610,MusicAffectPsychophysiology2019,3.0.5,59.9319546966717,
To what extent did the music make you feel ,ALERT,30MonoWAV/30MonoF2.wav,1,2,2,2,,,,,0,15,15,1,0,7,7,8,,,,,,,,,4,1.5343913680117112,067,001,2019_May_28_1610,MusicAffectPsychophysiology2019,3.0.5,59.9319546966717,
To what extent did the music make you feel ,ASHAMED,30MonoWAV/30MonoF2.wav,1,2,2,2,,,,,0,15,15,1,0,8,8,4,,,,,,,,,1,1.2832565760036232,067,001,2019_May_28_1610,MusicAffectPsychophysiology2019,3.0.5,59.9319546966717,
To what extent did the music make you feel ,TENDER,30MonoWAV/30MonoF2.wav,1,2,2,2,,,,,0,15,15,1,0,9,9,10,,,,,,,,,1,0.918396777997259,067,001,2019_May_28_1610,MusicAffectPsychophysiology2019,3.0.5,59.9319546966717,
To what extent did the music make you feel ,ANGRY,30MonoWAV/30MonoF2.wav,1,2,2,2,,,,,0,15,15,1,0,10,10,2,,,,,,,,,2,1.2356409710046137,067,001,2019_May_28_1610,MusicAffectPsychophysiology2019,3.0.5,59.9319546966717,
To what extent did the music make you feel ,SAD,30MonoWAV/30MonoF2.wav,1,2,2,2,,,,,0,15,15,1,0,11,11,0,,,,,,,,,2,1.217988978009089,067,001,2019_May_28_1610,MusicAffectPsychophysiology2019,3.0.5,59.9319546966717,
,,30MonoWAV/30MonoF2.wav,1,2,2,2,,,,,0,15,15,1,,,,,,,,,,,,,,,067,001,2019_May_28_1610,MusicAffectPsychophysiology2019,3.0.5,59.9319546966717,
To what extent did the music make you feel ,ANGRY,30MonoWAV/30MonoS1.wav,1,1,3,9,,,,,1,0,16,8,0,0,0,2,,,1,4.118274877007934,2,1.2496389770094538,2,0.9994604359962977,1,1.3018540959892562,067,001,2019_May_28_1610,MusicAffectPsychophysiology2019,3.0.5,59.9319546966717,
To what extent did the music make you feel ,ASHAMED,30MonoWAV/30MonoS1.wav,1,1,3,9,,,,,1,0,16,8,0,1,1,4,,,,,,,,,1,1.2524317589995917,067,001,2019_May_28_1610,MusicAffectPsychophysiology2019,3.0.5,59.9319546966717,
To what extent did the music make you feel ,ACTIVE,30MonoWAV/30MonoS1.wav,1,1,3,9,,,,,1,0,16,8,0,2,2,9,,,,,,,,,1,0.8351723480009241,067,001,2019_May_28_1610,MusicAffectPsychophysiology2019,3.0.5,59.9319546966717,
To what extent did the music make you feel ,SCARED,30MonoWAV/30MonoS1.wav,1,1,3,9,,,,,1,0,16,8,0,3,3,11,,,,,,,,,2,1.2518181490013376,067,001,2019_May_28_1610,MusicAffectPsychophysiology2019,3.0.5,59.9319546966717,
To what extent did the music make you feel ,HAPPY,30MonoWAV/30MonoS1.wav,1,1,3,9,,,,,1,0,16,8,0,4,4,6,,,,,,,,,2,0.8850151020014891,067,001,2019_May_28_1610,MusicAffectPsychophysiology2019,3.0.5,59.9319546966717,
To what extent did the music make you feel ,ALERT,30MonoWAV/30MonoS1.wav,1,1,3,9,,,,,1,0,16,8,0,5,5,8,,,,,,,,,3,0.935588677006308,067,001,2019_May_28_1610,MusicAffectPsychophysiology2019,3.0.5,59.9319546966717,
To what extent did the music make you feel ,ANXIOUS ,30MonoWAV/30MonoS1.wav,1,1,3,9,,,,,1,0,16,8,0,6,6,1,,,,,,,,,3,1.2691210570046678,067,001,2019_May_28_1610,MusicAffectPsychophysiology2019,3.0.5,59.9319546966717,
To what extent did the music make you feel ,GUILTY,30MonoWAV/30MonoS1.wav,1,1,3,9,,,,,1,0,16,8,0,7,7,5,,,,,,,,,2,1.1669983150059124,067,001,2019_May_28_1610,MusicAffectPsychophysiology2019,3.0.5,59.9319546966717,
To what extent did the music make you feel ,TENDER,30MonoWAV/30MonoS1.wav,1,1,3,9,,,,,1,0,16,8,0,8,8,10,,,,,,,,,3,1.0850392749998719,067,001,2019_May_28_1610,MusicAffectPsychophysiology2019,3.0.5,59.9319546966717,
To what extent did the music make you feel ,SAD,30MonoWAV/30MonoS1.wav,1,1,3,9,,,,,1,0,16,8,0,9,9,0,,,,,,,,,3,1.2833532660006313,067,001,2019_May_28_1610,MusicAffectPsychophysiology2019,3.0.5,59.9319546966717,
To what extent did the music make you feel ,FRUSTRATED,30MonoWAV/30MonoS1.wav,1,1,3,9,,,,,1,0,16,8,0,10,10,3,,,,,,,,,1,1.1675060949928593,067,001,2019_May_28_1610,MusicAffectPsychophysiology2019,3.0.5,59.9319546966717,
To what extent did the music make you feel ,EXCITED,30MonoWAV/30MonoS1.wav,1,1,3,9,,,,,1,0,16,8,0,11,11,7,,,,,,,,,1,1.3668000439938623,067,001,2019_May_28_1610,MusicAffectPsychophysiology2019,3.0.5,59.9319546966717,
,,30MonoWAV/30MonoS1.wav,1,1,3,9,,,,,1,0,16,8,,,,,,,,,,,,,,,067,001,2019_May_28_1610,MusicAffectPsychophysiology2019,3.0.5,59.9319546966717,
To what extent did the music make you feel ,EXCITED,30MonoWAV/30MonoF4.wav,1,2,2,4,,,,,1,1,17,3,0,0,0,7,,,4,3.485013951009023,2,2.867970099003287,2,1.0182840899942676,2,1.3025204449950252,067,001,2019_May_28_1610,MusicAffectPsychophysiology2019,3.0.5,59.9319546966717,
To what extent did the music make you feel ,FRUSTRATED,30MonoWAV/30MonoF4.wav,1,2,2,4,,,,,1,1,17,3,0,1,1,3,,,,,,,,,3,1.167153758011409,067,001,2019_May_28_1610,MusicAffectPsychophysiology2019,3.0.5,59.9319546966717,
To what extent did the music make you feel ,SCARED,30MonoWAV/30MonoF4.wav,1,2,2,4,,,,,1,1,17,3,0,2,2,11,,,,,,,,,3,1.1855909440055257,067,001,2019_May_28_1610,MusicAffectPsychophysiology2019,3.0.5,59.9319546966717,
To what extent did the music make you feel ,ANGRY,30MonoWAV/30MonoF4.wav,1,2,2,4,,,,,1,1,17,3,0,3,3,2,,,,,,,,,3,1.0343567570089363,067,001,2019_May_28_1610,MusicAffectPsychophysiology2019,3.0.5,59.9319546966717,
To what extent did the music make you feel ,GUILTY,30MonoWAV/30MonoF4.wav,1,2,2,4,,,,,1,1,17,3,0,4,4,5,,,,,,,,,1,1.3682045970053878,067,001,2019_May_28_1610,MusicAffectPsychophysiology2019,3.0.5,59.9319546966717,
To what extent did the music make you feel ,ANXIOUS ,30MonoWAV/30MonoF4.wav,1,2,2,4,,,,,1,1,17,3,0,5,5,1,,,,,,,,,4,2.2510840440081665,067,001,2019_May_28_1610,MusicAffectPsychophysiology2019,3.0.5,59.9319546966717,
To what extent did the music make you feel ,TENDER,30MonoWAV/30MonoF4.wav,1,2,2,4,,,,,1,1,17,3,0,6,6,10,,,,,,,,,2,1.2849000950081972,067,001,2019_May_28_1610,MusicAffectPsychophysiology2019,3.0.5,59.9319546966717,
To what extent did the music make you feel ,SAD,30MonoWAV/30MonoF4.wav,1,2,2,4,,,,,1,1,17,3,0,7,7,0,,,,,,,,,2,1.2330954189965269,067,001,2019_May_28_1610,MusicAffectPsychophysiology2019,3.0.5,59.9319546966717,
To what extent did the music make you feel ,HAPPY,30MonoWAV/30MonoF4.wav,1,2,2,4,,,,,1,1,17,3,0,8,8,6,,,,,,,,,2,1.9683949059981387,067,001,2019_May_28_1610,MusicAffectPsychophysiology2019,3.0.5,59.9319546966717,
To what extent did the music make you feel ,ALERT,30MonoWAV/30MonoF4.wav,1,2,2,4,,,,,1,1,17,3,0,9,9,8,,,,,,,,,3,1.050745940010529,067,001,2019_May_28_1610,MusicAffectPsychophysiology2019,3.0.5,59.9319546966717,
To what extent did the music make you feel ,ASHAMED,30MonoWAV/30MonoF4.wav,1,2,2,4,,,,,1,1,17,3,0,10,10,4,,,,,,,,,2,1.3014939830027288,067,001,2019_May_28_1610,MusicAffectPsychophysiology2019,3.0.5,59.9319546966717,
To what extent did the music make you feel ,ACTIVE,30MonoWAV/30MonoF4.wav,1,2,2,4,,,,,1,1,17,3,0,11,11,9,,,,,,,,,3,0.9181148460047552,067,001,2019_May_28_1610,MusicAffectPsychophysiology2019,3.0.5,59.9319546966717,
,,30MonoWAV/30MonoF4.wav,1,2,2,4,,,,,1,1,17,3,,,,,,,,,,,,,,,067,001,2019_May_28_1610,MusicAffectPsychophysiology2019,3.0.5,59.9319546966717,
To what extent did the music make you feel ,SCARED,30MonoWAV/30MonoF3.wav,1,2,2,3,,,,,1,2,18,2,0,0,0,11,,,3,2.684179474992561,2,1.5850900390069,2,0.984986427007243,3,1.1177904899959685,067,001,2019_May_28_1610,MusicAffectPsychophysiology2019,3.0.5,59.9319546966717,
To what extent did the music make you feel ,EXCITED,30MonoWAV/30MonoF3.wav,1,2,2,3,,,,,1,2,18,2,0,1,1,7,,,,,,,,,3,1.2013262510008644,067,001,2019_May_28_1610,MusicAffectPsychophysiology2019,3.0.5,59.9319546966717,
To what extent did the music make you feel ,ASHAMED,30MonoWAV/30MonoF3.wav,1,2,2,3,,,,,1,2,18,2,0,2,2,4,,,,,,,,,2,1.1359189800132299,067,001,2019_May_28_1610,MusicAffectPsychophysiology2019,3.0.5,59.9319546966717,
To what extent did the music make you feel ,SAD,30MonoWAV/30MonoF3.wav,1,2,2,3,,,,,1,2,18,2,0,3,3,0,,,,,,,,,2,1.1007312110014027,067,001,2019_May_28_1610,MusicAffectPsychophysiology2019,3.0.5,59.9319546966717,
To what extent did the music make you feel ,FRUSTRATED,30MonoWAV/30MonoF3.wav,1,2,2,3,,,,,1,2,18,2,0,4,4,3,,,,,,,,,1,1.5006307479925454,067,001,2019_May_28_1610,MusicAffectPsychophysiology2019,3.0.5,59.9319546966717,
To what extent did the music make you feel ,ANXIOUS ,30MonoWAV/30MonoF3.wav,1,2,2,3,,,,,1,2,18,2,0,5,5,1,,,,,,,,,4,1.8357593370019458,067,001,2019_May_28_1610,MusicAffectPsychophysiology2019,3.0.5,59.9319546966717,
To what extent did the music make you feel ,GUILTY,30MonoWAV/30MonoF3.wav,1,2,2,3,,,,,1,2,18,2,0,6,6,5,,,,,,,,,2,4.134795873003895,067,001,2019_May_28_1610,MusicAffectPsychophysiology2019,3.0.5,59.9319546966717,
To what extent did the music make you feel ,TENDER,30MonoWAV/30MonoF3.wav,1,2,2,3,,,,,1,2,18,2,0,7,7,10,,,,,,,,,1,1.535464883010718,067,001,2019_May_28_1610,MusicAffectPsychophysiology2019,3.0.5,59.9319546966717,
To what extent did the music make you feel ,ALERT,30MonoWAV/30MonoF3.wav,1,2,2,3,,,,,1,2,18,2,0,8,8,8,,,,,,,,,3,0.8185296479932731,067,001,2019_May_28_1610,MusicAffectPsychophysiology2019,3.0.5,59.9319546966717,
To what extent did the music make you feel ,ANGRY,30MonoWAV/30MonoF3.wav,1,2,2,3,,,,,1,2,18,2,0,9,9,2,,,,,,,,,2,1.834446905006189,067,001,2019_May_28_1610,MusicAffectPsychophysiology2019,3.0.5,59.9319546966717,
To what extent did the music make you feel ,ACTIVE,30MonoWAV/30MonoF3.wav,1,2,2,3,,,,,1,2,18,2,0,10,10,9,,,,,,,,,3,0.9516292889893521,067,001,2019_May_28_1610,MusicAffectPsychophysiology2019,3.0.5,59.9319546966717,
To what extent did the music make you feel ,HAPPY,30MonoWAV/30MonoF3.wav,1,2,2,3,,,,,1,2,18,2,0,11,11,6,,,,,,,,,2,0.9344429300108459,067,001,2019_May_28_1610,MusicAffectPsychophysiology2019,3.0.5,59.9319546966717,
,,30MonoWAV/30MonoF3.wav,1,2,2,3,,,,,1,2,18,2,,,,,,,,,,,,,,,067,001,2019_May_28_1610,MusicAffectPsychophysiology2019,3.0.5,59.9319546966717,
To what extent did the music make you feel ,SCARED,30MonoWAV/30MonoT3.wav,2,1,4,15,,,,,1,3,19,14,0,0,0,11,,,1,3.4510751089983387,4,3.7685377999878256,2,1.8501869189931313,1,1.8699469280109042,067,001,2019_May_28_1610,MusicAffectPsychophysiology2019,3.0.5,59.9319546966717,
To what extent did the music make you feel ,HAPPY,30MonoWAV/30MonoT3.wav,2,1,4,15,,,,,1,3,19,14,0,1,1,6,,,,,,,,,2,1.1543075450026663,067,001,2019_May_28_1610,MusicAffectPsychophysiology2019,3.0.5,59.9319546966717,
To what extent did the music make you feel ,ANGRY,30MonoWAV/30MonoT3.wav,2,1,4,15,,,,,1,3,19,14,0,2,2,2,,,,,,,,,1,0.8689389120117994,067,001,2019_May_28_1610,MusicAffectPsychophysiology2019,3.0.5,59.9319546966717,
To what extent did the music make you feel ,EXCITED,30MonoWAV/30MonoT3.wav,2,1,4,15,,,,,1,3,19,14,0,3,3,7,,,,,,,,,1,1.686828557998524,067,001,2019_May_28_1610,MusicAffectPsychophysiology2019,3.0.5,59.9319546966717,
To what extent did the music make you feel ,ACTIVE,30MonoWAV/30MonoT3.wav,2,1,4,15,,,,,1,3,19,14,0,4,4,9,,,,,,,,,2,1.3527729470079066,067,001,2019_May_28_1610,MusicAffectPsychophysiology2019,3.0.5,59.9319546966717,
To what extent did the music make you feel ,ASHAMED,30MonoWAV/30MonoT3.wav,2,1,4,15,,,,,1,3,19,14,0,5,5,4,,,,,,,,,1,1.086079154003528,067,001,2019_May_28_1610,MusicAffectPsychophysiology2019,3.0.5,59.9319546966717,
To what extent did the music make you feel ,GUILTY,30MonoWAV/30MonoT3.wav,2,1,4,15,,,,,1,3,19,14,0,6,6,5,,,,,,,,,1,0.8359341729956213,067,001,2019_May_28_1610,MusicAffectPsychophysiology2019,3.0.5,59.9319546966717,
To what extent did the music make you feel ,SAD,30MonoWAV/30MonoT3.wav,2,1,4,15,,,,,1,3,19,14,0,7,7,0,,,,,,,,,2,1.40327096398687,067,001,2019_May_28_1610,MusicAffectPsychophysiology2019,3.0.5,59.9319546966717,
To what extent did the music make you feel ,FRUSTRATED,30MonoWAV/30MonoT3.wav,2,1,4,15,,,,,1,3,19,14,0,8,8,3,,,,,,,,,1,1.02413082899875,067,001,2019_May_28_1610,MusicAffectPsychophysiology2019,3.0.5,59.9319546966717,
To what extent did the music make you feel ,ANXIOUS ,30MonoWAV/30MonoT3.wav,2,1,4,15,,,,,1,3,19,14,0,9,9,1,,,,,,,,,1,0.9338926420023199,067,001,2019_May_28_1610,MusicAffectPsychophysiology2019,3.0.5,59.9319546966717,
To what extent did the music make you feel ,TENDER,30MonoWAV/30MonoT3.wav,2,1,4,15,,,,,1,3,19,14,0,10,10,10,,,,,,,,,3,1.500618520003627,067,001,2019_May_28_1610,MusicAffectPsychophysiology2019,3.0.5,59.9319546966717,
To what extent did the music make you feel ,ALERT,30MonoWAV/30MonoT3.wav,2,1,4,15,,,,,1,3,19,14,0,11,11,8,,,,,,,,,2,1.2867064009915339,067,001,2019_May_28_1610,MusicAffectPsychophysiology2019,3.0.5,59.9319546966717,
,,30MonoWAV/30MonoT3.wav,2,1,4,15,,,,,1,3,19,14,,,,,,,,,,,,,,,067,001,2019_May_28_1610,MusicAffectPsychophysiology2019,3.0.5,59.9319546966717,
To what extent did the music make you feel ,FRUSTRATED,30MonoWAV/30MonoH4.wav,2,2,1,8,,,,,1,4,20,7,0,0,0,3,,,4,3.351096738988417,4,1.4169813629996497,2,1.5179426319955382,1,1.051395335001871,067,001,2019_May_28_1610,MusicAffectPsychophysiology2019,3.0.5,59.9319546966717,
To what extent did the music make you feel ,ALERT,30MonoWAV/30MonoH4.wav,2,2,1,8,,,,,1,4,20,7,0,1,1,8,,,,,,,,,4,1.8347522379917791,067,001,2019_May_28_1610,MusicAffectPsychophysiology2019,3.0.5,59.9319546966717,
To what extent did the music make you feel ,EXCITED,30MonoWAV/30MonoH4.wav,2,2,1,8,,,,,1,4,20,7,0,2,2,7,,,,,,,,,4,1.285206446002121,067,001,2019_May_28_1610,MusicAffectPsychophysiology2019,3.0.5,59.9319546966717,
To what extent did the music make you feel ,ASHAMED,30MonoWAV/30MonoH4.wav,2,2,1,8,,,,,1,4,20,7,0,3,3,4,,,,,,,,,1,1.6182041409920203,067,001,2019_May_28_1610,MusicAffectPsychophysiology2019,3.0.5,59.9319546966717,
To what extent did the music make you feel ,GUILTY,30MonoWAV/30MonoH4.wav,2,2,1,8,,,,,1,4,20,7,0,4,4,5,,,,,,,,,1,0.8688117349956883,067,001,2019_May_28_1610,MusicAffectPsychophysiology2019,3.0.5,59.9319546966717,
To what extent did the music make you feel ,ANGRY,30MonoWAV/30MonoH4.wav,2,2,1,8,,,,,1,4,20,7,0,5,5,2,,,,,,,,,1,0.765119131989195,067,001,2019_May_28_1610,MusicAffectPsychophysiology2019,3.0.5,59.9319546966717,
To what extent did the music make you feel ,HAPPY,30MonoWAV/30MonoH4.wav,2,2,1,8,,,,,1,4,20,7,0,6,6,6,,,,,,,,,3,1.8013884560059523,067,001,2019_May_28_1610,MusicAffectPsychophysiology2019,3.0.5,59.9319546966717,
To what extent did the music make you feel ,SCARED,30MonoWAV/30MonoH4.wav,2,2,1,8,,,,,1,4,20,7,0,7,7,11,,,,,,,,,2,1.8014021730050445,067,001,2019_May_28_1610,MusicAffectPsychophysiology2019,3.0.5,59.9319546966717,
To what extent did the music make you feel ,ACTIVE,30MonoWAV/30MonoH4.wav,2,2,1,8,,,,,1,4,20,7,0,8,8,9,,,,,,,,,4,1.3173648649972165,067,001,2019_May_28_1610,MusicAffectPsychophysiology2019,3.0.5,59.9319546966717,
To what extent did the music make you feel ,TENDER,30MonoWAV/30MonoH4.wav,2,2,1,8,,,,,1,4,20,7,0,9,9,10,,,,,,,,,1,1.4677941669942811,067,001,2019_May_28_1610,MusicAffectPsychophysiology2019,3.0.5,59.9319546966717,
To what extent did the music make you feel ,SAD,30MonoWAV/30MonoH4.wav,2,2,1,8,,,,,1,4,20,7,0,10,10,0,,,,,,,,,1,0.9349653939862037,067,001,2019_May_28_1610,MusicAffectPsychophysiology2019,3.0.5,59.9319546966717,
To what extent did the music make you feel ,ANXIOUS ,30MonoWAV/30MonoH4.wav,2,2,1,8,,,,,1,4,20,7,0,11,11,1,,,,,,,,,2,1.5338923450035509,067,001,2019_May_28_1610,MusicAffectPsychophysiology2019,3.0.5,59.9319546966717,
,,30MonoWAV/30MonoH4.wav,2,2,1,8,,,,,1,4,20,7,,,,,,,,,,,,,,,067,001,2019_May_28_1610,MusicAffectPsychophysiology2019,3.0.5,59.9319546966717,
To what extent did the music make you feel ,ACTIVE,30MonoWAV/30MonoS3.wav,1,1,3,11,,,,,1,5,21,10,0,0,0,9,,,3,3.3006361309962813,2,2.234538636999787,2,1.0674971469998127,2,0.9182989840046503,067,001,2019_May_28_1610,MusicAffectPsychophysiology2019,3.0.5,59.9319546966717,
To what extent did the music make you feel ,GUILTY,30MonoWAV/30MonoS3.wav,1,1,3,11,,,,,1,5,21,10,0,1,1,5,,,,,,,,,1,0.9326805640012026,067,001,2019_May_28_1610,MusicAffectPsychophysiology2019,3.0.5,59.9319546966717,
To what extent did the music make you feel ,SAD,30MonoWAV/30MonoS3.wav,1,1,3,11,,,,,1,5,21,10,0,2,2,0,,,,,,,,,2,0.9847848199860891,067,001,2019_May_28_1610,MusicAffectPsychophysiology2019,3.0.5,59.9319546966717,
To what extent did the music make you feel ,ANGRY,30MonoWAV/30MonoS3.wav,1,1,3,11,,,,,1,5,21,10,0,3,3,2,,,,,,,,,1,1.0695885199966142,067,001,2019_May_28_1610,MusicAffectPsychophysiology2019,3.0.5,59.9319546966717,
To what extent did the music make you feel ,FRUSTRATED,30MonoWAV/30MonoS3.wav,1,1,3,11,,,,,1,5,21,10,0,4,4,3,,,,,,,,,1,0.8190520980133442,067,001,2019_May_28_1610,MusicAffectPsychophysiology2019,3.0.5,59.9319546966717,
To what extent did the music make you feel ,HAPPY,30MonoWAV/30MonoS3.wav,1,1,3,11,,,,,1,5,21,10,0,5,5,6,,,,,,,,,1,1.6349658300023293,067,001,2019_May_28_1610,MusicAffectPsychophysiology2019,3.0.5,59.9319546966717,
To what extent did the music make you feel ,ASHAMED,30MonoWAV/30MonoS3.wav,1,1,3,11,,,,,1,5,21,10,0,6,6,4,,,,,,,,,3,1.8679113399994094,067,001,2019_May_28_1610,MusicAffectPsychophysiology2019,3.0.5,59.9319546966717,
To what extent did the music make you feel ,ANXIOUS ,30MonoWAV/30MonoS3.wav,1,1,3,11,,,,,1,5,21,10,0,7,7,1,,,,,,,,,3,0.9181634100095835,067,001,2019_May_28_1610,MusicAffectPsychophysiology2019,3.0.5,59.9319546966717,
To what extent did the music make you feel ,ALERT,30MonoWAV/30MonoS3.wav,1,1,3,11,,,,,1,5,21,10,0,8,8,8,,,,,,,,,3,1.0178656890057027,067,001,2019_May_28_1610,MusicAffectPsychophysiology2019,3.0.5,59.9319546966717,
To what extent did the music make you feel ,EXCITED,30MonoWAV/30MonoS3.wav,1,1,3,11,,,,,1,5,21,10,0,9,9,7,,,,,,,,,2,1.451190465988475,067,001,2019_May_28_1610,MusicAffectPsychophysiology2019,3.0.5,59.9319546966717,
To what extent did the music make you feel ,TENDER,30MonoWAV/30MonoS3.wav,1,1,3,11,,,,,1,5,21,10,0,10,10,10,,,,,,,,,2,1.0685609339998337,067,001,2019_May_28_1610,MusicAffectPsychophysiology2019,3.0.5,59.9319546966717,
To what extent did the music make you feel ,SCARED,30MonoWAV/30MonoS3.wav,1,1,3,11,,,,,1,5,21,10,0,11,11,11,,,,,,,,,3,1.3850228630035417,067,001,2019_May_28_1610,MusicAffectPsychophysiology2019,3.0.5,59.9319546966717,
,,30MonoWAV/30MonoS3.wav,1,1,3,11,,,,,1,5,21,10,,,,,,,,,,,,,,,067,001,2019_May_28_1610,MusicAffectPsychophysiology2019,3.0.5,59.9319546966717,
To what extent did the music make you feel ,TENDER,30MonoWAV/30MonoH2.wav,2,2,1,6,,,,,1,6,22,5,0,0,0,10,,,4,3.601430028997129,4,1.2687424650066532,2,1.4513695209898287,3,1.3361285999999382,067,001,2019_May_28_1610,MusicAffectPsychophysiology2019,3.0.5,59.9319546966717,
To what extent did the music make you feel ,SCARED,30MonoWAV/30MonoH2.wav,2,2,1,6,,,,,1,6,22,5,0,1,1,11,,,,,,,,,2,1.3843179499963298,067,001,2019_May_28_1610,MusicAffectPsychophysiology2019,3.0.5,59.9319546966717,
To what extent did the music make you feel ,ACTIVE,30MonoWAV/30MonoH2.wav,2,2,1,6,,,,,1,6,22,5,0,2,2,9,,,,,,,,,3,1.135111618990777,067,001,2019_May_28_1610,MusicAffectPsychophysiology2019,3.0.5,59.9319546966717,
To what extent did the music make you feel ,FRUSTRATED,30MonoWAV/30MonoH2.wav,2,2,1,6,,,,,1,6,22,5,0,3,3,3,,,,,,,,,1,0.9852464739960851,067,001,2019_May_28_1610,MusicAffectPsychophysiology2019,3.0.5,59.9319546966717,
To what extent did the music make you feel ,EXCITED,30MonoWAV/30MonoH2.wav,2,2,1,6,,,,,1,6,22,5,0,4,4,7,,,,,,,,,4,1.385930885997368,067,001,2019_May_28_1610,MusicAffectPsychophysiology2019,3.0.5,59.9319546966717,
To what extent did the music make you feel ,ANXIOUS ,30MonoWAV/30MonoH2.wav,2,2,1,6,,,,,1,6,22,5,0,5,5,1,,,,,,,,,3,1.4182929230009904,067,001,2019_May_28_1610,MusicAffectPsychophysiology2019,3.0.5,59.9319546966717,
To what extent did the music make you feel ,ANGRY,30MonoWAV/30MonoH2.wav,2,2,1,6,,,,,1,6,22,5,0,6,6,2,,,,,,,,,1,1.218499693000922,067,001,2019_May_28_1610,MusicAffectPsychophysiology2019,3.0.5,59.9319546966717,
To what extent did the music make you feel ,SAD,30MonoWAV/30MonoH2.wav,2,2,1,6,,,,,1,6,22,5,0,7,7,0,,,,,,,,,1,1.1177582579985028,067,001,2019_May_28_1610,MusicAffectPsychophysiology2019,3.0.5,59.9319546966717,
To what extent did the music make you feel ,GUILTY,30MonoWAV/30MonoH2.wav,2,2,1,6,,,,,1,6,22,5,0,8,8,5,,,,,,,,,1,1.1339716890070122,067,001,2019_May_28_1610,MusicAffectPsychophysiology2019,3.0.5,59.9319546966717,
To what extent did the music make you feel ,HAPPY,30MonoWAV/30MonoH2.wav,2,2,1,6,,,,,1,6,22,5,0,9,9,6,,,,,,,,,3,1.2521466170001077,067,001,2019_May_28_1610,MusicAffectPsychophysiology2019,3.0.5,59.9319546966717,
To what extent did the music make you feel ,ALERT,30MonoWAV/30MonoH2.wav,2,2,1,6,,,,,1,6,22,5,0,10,10,8,,,,,,,,,4,1.3843557060026797,067,001,2019_May_28_1610,MusicAffectPsychophysiology2019,3.0.5,59.9319546966717,
To what extent did the music make you feel ,ASHAMED,30MonoWAV/30MonoH2.wav,2,2,1,6,,,,,1,6,22,5,0,11,11,4,,,,,,,,,2,1.2344886390055763,067,001,2019_May_28_1610,MusicAffectPsychophysiology2019,3.0.5,59.9319546966717,
,,30MonoWAV/30MonoH2.wav,2,2,1,6,,,,,1,6,22,5,,,,,,,,,,,,,,,067,001,2019_May_28_1610,MusicAffectPsychophysiology2019,3.0.5,59.9319546966717,
To what extent did the music make you feel ,GUILTY,30MonoWAV/30MonoF2.wav,1,2,2,2,,,,,1,7,23,1,0,0,0,5,,,3,2.8359018250048393,2,0.9851165139989462,2,1.268277109003975,2,1.5184140089986613,067,001,2019_May_28_1610,MusicAffectPsychophysiology2019,3.0.5,59.9319546966717,
To what extent did the music make you feel ,EXCITED,30MonoWAV/30MonoF2.wav,1,2,2,2,,,,,1,7,23,1,0,1,1,7,,,,,,,,,2,1.23512003099313,067,001,2019_May_28_1610,MusicAffectPsychophysiology2019,3.0.5,59.9319546966717,
To what extent did the music make you feel ,ASHAMED,30MonoWAV/30MonoF2.wav,1,2,2,2,,,,,1,7,23,1,0,2,2,4,,,,,,,,,2,0.9179765330045484,067,001,2019_May_28_1610,MusicAffectPsychophysiology2019,3.0.5,59.9319546966717,
To what extent did the music make you feel ,TENDER,30MonoWAV/30MonoF2.wav,1,2,2,2,,,,,1,7,23,1,0,3,3,10,,,,,,,,,1,1.1177358529967023,067,001,2019_May_28_1610,MusicAffectPsychophysiology2019,3.0.5,59.9319546966717,
To what extent did the music make you feel ,ALERT,30MonoWAV/30MonoF2.wav,1,2,2,2,,,,,1,7,23,1,0,4,4,8,,,,,,,,,4,1.7344771169882733,067,001,2019_May_28_1610,MusicAffectPsychophysiology2019,3.0.5,59.9319546966717,
To what extent did the music make you feel ,SCARED,30MonoWAV/30MonoF2.wav,1,2,2,2,,,,,1,7,23,1,0,5,5,11,,,,,,,,,4,1.3014757010096218,067,001,2019_May_28_1610,MusicAffectPsychophysiology2019,3.0.5,59.9319546966717,
To what extent did the music make you feel ,ANXIOUS ,30MonoWAV/30MonoF2.wav,1,2,2,2,,,,,1,7,23,1,0,6,6,1,,,,,,,,,5,1.1011581540078623,067,001,2019_May_28_1610,MusicAffectPsychophysiology2019,3.0.5,59.9319546966717,
To what extent did the music make you feel ,ANGRY,30MonoWAV/30MonoF2.wav,1,2,2,2,,,,,1,7,23,1,0,7,7,2,,,,,,,,,1,1.4350065470061963,067,001,2019_May_28_1610,MusicAffectPsychophysiology2019,3.0.5,59.9319546966717,
To what extent did the music make you feel ,FRUSTRATED,30MonoWAV/30MonoF2.wav,1,2,2,2,,,,,1,7,23,1,0,8,8,3,,,,,,,,,2,1.2511703670024872,067,001,2019_May_28_1610,MusicAffectPsychophysiology2019,3.0.5,59.9319546966717,
To what extent did the music make you feel ,ACTIVE,30MonoWAV/30MonoF2.wav,1,2,2,2,,,,,1,7,23,1,0,9,9,9,,,,,,,,,3,1.1346523250103928,067,001,2019_May_28_1610,MusicAffectPsychophysiology2019,3.0.5,59.9319546966717,
To what extent did the music make you feel ,HAPPY,30MonoWAV/30MonoF2.wav,1,2,2,2,,,,,1,7,23,1,0,10,10,6,,,,,,,,,2,1.1682690550078405,067,001,2019_May_28_1610,MusicAffectPsychophysiology2019,3.0.5,59.9319546966717,
To what extent did the music make you feel ,SAD,30MonoWAV/30MonoF2.wav,1,2,2,2,,,,,1,7,23,1,0,11,11,0,,,,,,,,,2,1.068039151999983,067,001,2019_May_28_1610,MusicAffectPsychophysiology2019,3.0.5,59.9319546966717,
,,30MonoWAV/30MonoF2.wav,1,2,2,2,,,,,1,7,23,1,,,,,,,,,,,,,,,067,001,2019_May_28_1610,MusicAffectPsychophysiology2019,3.0.5,59.9319546966717,
To what extent did the music make you feel ,HAPPY,30MonoWAV/30MonoS4.wav,1,1,3,12,,,,,1,8,24,11,0,0,0,6,,,1,4.534919885001727,2,1.2016054229898145,2,1.6230632059887284,2,1.6370588410063647,067,001,2019_May_28_1610,MusicAffectPsychophysiology2019,3.0.5,59.9319546966717,
To what extent did the music make you feel ,ASHAMED,30MonoWAV/30MonoS4.wav,1,1,3,12,,,,,1,8,24,11,0,1,1,4,,,,,,,,,3,1.2185355149995303,067,001,2019_May_28_1610,MusicAffectPsychophysiology2019,3.0.5,59.9319546966717,
To what extent did the music make you feel ,SAD,30MonoWAV/30MonoS4.wav,1,1,3,12,,,,,1,8,24,11,0,2,2,0,,,,,,,,,4,1.4866995899938047,067,001,2019_May_28_1610,MusicAffectPsychophysiology2019,3.0.5,59.9319546966717,
To what extent did the music make you feel ,TENDER,30MonoWAV/30MonoS4.wav,1,1,3,12,,,,,1,8,24,11,0,3,3,10,,,,,,,,,4,1.0026689429942053,067,001,2019_May_28_1610,MusicAffectPsychophysiology2019,3.0.5,59.9319546966717,
To what extent did the music make you feel ,ANXIOUS ,30MonoWAV/30MonoS4.wav,1,1,3,12,,,,,1,8,24,11,0,4,4,1,,,,,,,,,3,0.9060928640101338,067,001,2019_May_28_1610,MusicAffectPsychophysiology2019,3.0.5,59.9319546966717,
To what extent did the music make you feel ,ANGRY,30MonoWAV/30MonoS4.wav,1,1,3,12,,,,,1,8,24,11,0,5,5,2,,,,,,,,,1,1.152432818998932,067,001,2019_May_28_1610,MusicAffectPsychophysiology2019,3.0.5,59.9319546966717,
To what extent did the music make you feel ,ACTIVE,30MonoWAV/30MonoS4.wav,1,1,3,12,,,,,1,8,24,11,0,6,6,9,,,,,,,,,1,1.1184657320118276,067,001,2019_May_28_1610,MusicAffectPsychophysiology2019,3.0.5,59.9319546966717,
To what extent did the music make you feel ,FRUSTRATED,30MonoWAV/30MonoS4.wav,1,1,3,12,,,,,1,8,24,11,0,7,7,3,,,,,,,,,2,1.5356794109975453,067,001,2019_May_28_1610,MusicAffectPsychophysiology2019,3.0.5,59.9319546966717,
To what extent did the music make you feel ,EXCITED,30MonoWAV/30MonoS4.wav,1,1,3,12,,,,,1,8,24,11,0,8,8,7,,,,,,,,,1,1.301552275006543,067,001,2019_May_28_1610,MusicAffectPsychophysiology2019,3.0.5,59.9319546966717,
To what extent did the music make you feel ,SCARED,30MonoWAV/30MonoS4.wav,1,1,3,12,,,,,1,8,24,11,0,9,9,11,,,,,,,,,3,1.0681333559914492,067,001,2019_May_28_1610,MusicAffectPsychophysiology2019,3.0.5,59.9319546966717,
To what extent did the music make you feel ,GUILTY,30MonoWAV/30MonoS4.wav,1,1,3,12,,,,,1,8,24,11,0,10,10,5,,,,,,,,,3,1.018185816006735,067,001,2019_May_28_1610,MusicAffectPsychophysiology2019,3.0.5,59.9319546966717,
To what extent did the music make you feel ,ALERT,30MonoWAV/30MonoS4.wav,1,1,3,12,,,,,1,8,24,11,0,11,11,8,,,,,,,,,2,1.135101282998221,067,001,2019_May_28_1610,MusicAffectPsychophysiology2019,3.0.5,59.9319546966717,
,,30MonoWAV/30MonoS4.wav,1,1,3,12,,,,,1,8,24,11,,,,,,,,,,,,,,,067,001,2019_May_28_1610,MusicAffectPsychophysiology2019,3.0.5,59.9319546966717,
To what extent did the music make you feel ,ANGRY,30MonoWAV/30MonoH1.wav,2,2,1,5,,,,,1,9,25,4,0,0,0,2,,,3,2.9681659100024262,3,1.3349972379946848,2,1.4185398019908462,1,1.483421222990728,067,001,2019_May_28_1610,MusicAffectPsychophysiology2019,3.0.5,59.9319546966717,
To what extent did the music make you feel ,ALERT,30MonoWAV/30MonoH1.wav,2,2,1,5,,,,,1,9,25,4,0,1,1,8,,,,,,,,,3,2.0678425330115715,067,001,2019_May_28_1610,MusicAffectPsychophysiology2019,3.0.5,59.9319546966717,
To what extent did the music make you feel ,SCARED,30MonoWAV/30MonoH1.wav,2,2,1,5,,,,,1,9,25,4,0,2,2,11,,,,,,,,,2,1.3181702450092416,067,001,2019_May_28_1610,MusicAffectPsychophysiology2019,3.0.5,59.9319546966717,
To what extent did the music make you feel ,HAPPY,30MonoWAV/30MonoH1.wav,2,2,1,5,,,,,1,9,25,4,0,3,3,6,,,,,,,,,4,1.6337321940081893,067,001,2019_May_28_1610,MusicAffectPsychophysiology2019,3.0.5,59.9319546966717,
To what extent did the music make you feel ,EXCITED,30MonoWAV/30MonoH1.wav,2,2,1,5,,,,,1,9,25,4,0,4,4,7,,,,,,,,,4,1.7330814209999517,067,001,2019_May_28_1610,MusicAffectPsychophysiology2019,3.0.5,59.9319546966717,
To what extent did the music make you feel ,SAD,30MonoWAV/30MonoH1.wav,2,2,1,5,,,,,1,9,25,4,0,5,5,0,,,,,,,,,2,1.201755226997193,067,001,2019_May_28_1610,MusicAffectPsychophysiology2019,3.0.5,59.9319546966717,
To what extent did the music make you feel ,TENDER,30MonoWAV/30MonoH1.wav,2,2,1,5,,,,,1,9,25,4,0,6,6,10,,,,,,,,,2,1.602442574003362,067,001,2019_May_28_1610,MusicAffectPsychophysiology2019,3.0.5,59.9319546966717,
To what extent did the music make you feel ,ACTIVE,30MonoWAV/30MonoH1.wav,2,2,1,5,,,,,1,9,25,4,0,7,7,9,,,,,,,,,5,2.1826081649924163,067,001,2019_May_28_1610,MusicAffectPsychophysiology2019,3.0.5,59.9319546966717,
To what extent did the music make you feel ,ASHAMED,30MonoWAV/30MonoH1.wav,2,2,1,5,,,,,1,9,25,4,0,8,8,4,,,,,,,,,2,2.10133647499606,067,001,2019_May_28_1610,MusicAffectPsychophysiology2019,3.0.5,59.9319546966717,
To what extent did the music make you feel ,GUILTY,30MonoWAV/30MonoH1.wav,2,2,1,5,,,,,1,9,25,4,0,9,9,5,,,,,,,,,2,0.8013371220004046,067,001,2019_May_28_1610,MusicAffectPsychophysiology2019,3.0.5,59.9319546966717,
To what extent did the music make you feel ,FRUSTRATED,30MonoWAV/30MonoH1.wav,2,2,1,5,,,,,1,9,25,4,0,10,10,3,,,,,,,,,1,2.2339325500070117,067,001,2019_May_28_1610,MusicAffectPsychophysiology2019,3.0.5,59.9319546966717,
To what extent did the music make you feel ,ANXIOUS ,30MonoWAV/30MonoH1.wav,2,2,1,5,,,,,1,9,25,4,0,11,11,1,,,,,,,,,2,1.5517838969972217,067,001,2019_May_28_1610,MusicAffectPsychophysiology2019,3.0.5,59.9319546966717,
,,30MonoWAV/30MonoH1.wav,2,2,1,5,,,,,1,9,25,4,,,,,,,,,,,,,,,067,001,2019_May_28_1610,MusicAffectPsychophysiology2019,3.0.5,59.9319546966717,
To what extent did the music make you feel ,FRUSTRATED,30MonoWAV/30MonoT2.wav,2,1,4,14,,,,,1,10,26,13,0,0,0,3,,,5,4.001731895012199,5,1.0187658590002684,2,1.951198929004022,1,1.1288315469864756,067,001,2019_May_28_1610,MusicAffectPsychophysiology2019,3.0.5,59.9319546966717,
To what extent did the music make you feel ,ACTIVE,30MonoWAV/30MonoT2.wav,2,1,4,14,,,,,1,10,26,13,0,1,1,9,,,,,,,,,3,1.60962278599618,067,001,2019_May_28_1610,MusicAffectPsychophysiology2019,3.0.5,59.9319546966717,
To what extent did the music make you feel ,SCARED,30MonoWAV/30MonoT2.wav,2,1,4,14,,,,,1,10,26,13,0,2,2,11,,,,,,,,,2,1.0869879650126677,067,001,2019_May_28_1610,MusicAffectPsychophysiology2019,3.0.5,59.9319546966717,
To what extent did the music make you feel ,SAD,30MonoWAV/30MonoT2.wav,2,1,4,14,,,,,1,10,26,13,0,3,3,0,,,,,,,,,2,0.9692293699918082,067,001,2019_May_28_1610,MusicAffectPsychophysiology2019,3.0.5,59.9319546966717,
To what extent did the music make you feel ,ALERT,30MonoWAV/30MonoT2.wav,2,1,4,14,,,,,1,10,26,13,0,4,4,8,,,,,,,,,2,1.8391963530011708,067,001,2019_May_28_1610,MusicAffectPsychophysiology2019,3.0.5,59.9319546966717,
To what extent did the music make you feel ,GUILTY,30MonoWAV/30MonoT2.wav,2,1,4,14,,,,,1,10,26,13,0,5,5,5,,,,,,,,,1,1.1163016729988158,067,001,2019_May_28_1610,MusicAffectPsychophysiology2019,3.0.5,59.9319546966717,
To what extent did the music make you feel ,ANGRY,30MonoWAV/30MonoT2.wav,2,1,4,14,,,,,1,10,26,13,0,6,6,2,,,,,,,,,1,0.8344292499969015,067,001,2019_May_28_1610,MusicAffectPsychophysiology2019,3.0.5,59.9319546966717,
To what extent did the music make you feel ,ANXIOUS ,30MonoWAV/30MonoT2.wav,2,1,4,14,,,,,1,10,26,13,0,7,7,1,,,,,,,,,2,1.1853054779930972,067,001,2019_May_28_1610,MusicAffectPsychophysiology2019,3.0.5,59.9319546966717,
To what extent did the music make you feel ,ASHAMED,30MonoWAV/30MonoT2.wav,2,1,4,14,,,,,1,10,26,13,0,8,8,4,,,,,,,,,1,0.9350694930035388,067,001,2019_May_28_1610,MusicAffectPsychophysiology2019,3.0.5,59.9319546966717,
To what extent did the music make you feel ,EXCITED,30MonoWAV/30MonoT2.wav,2,1,4,14,,,,,1,10,26,13,0,9,9,7,,,,,,,,,4,1.672171166006592,067,001,2019_May_28_1610,MusicAffectPsychophysiology2019,3.0.5,59.9319546966717,
To what extent did the music make you feel ,TENDER,30MonoWAV/30MonoT2.wav,2,1,4,14,,,,,1,10,26,13,0,10,10,10,,,,,,,,,3,1.4205419460049598,067,001,2019_May_28_1610,MusicAffectPsychophysiology2019,3.0.5,59.9319546966717,
To what extent did the music make you feel ,HAPPY,30MonoWAV/30MonoT2.wav,2,1,4,14,,,,,1,10,26,13,0,11,11,6,,,,,,,,,4,1.5702933150023455,067,001,2019_May_28_1610,MusicAffectPsychophysiology2019,3.0.5,59.9319546966717,
,,30MonoWAV/30MonoT2.wav,2,1,4,14,,,,,1,10,26,13,,,,,,,,,,,,,,,067,001,2019_May_28_1610,MusicAffectPsychophysiology2019,3.0.5,59.9319546966717,
To what extent did the music make you feel ,ALERT,30MonoWAV/30MonoT4.wav,2,1,4,16,,,,,1,11,27,15,0,0,0,8,,,5,3.367985612989287,4,1.5503988150012447,2,1.3850964890007162,3,3.602037582997582,067,001,2019_May_28_1610,MusicAffectPsychophysiology2019,3.0.5,59.9319546966717,
To what extent did the music make you feel ,ACTIVE,30MonoWAV/30MonoT4.wav,2,1,4,16,,,,,1,11,27,15,0,1,1,9,,,,,,,,,3,0.885774443988339,067,001,2019_May_28_1610,MusicAffectPsychophysiology2019,3.0.5,59.9319546966717,
To what extent did the music make you feel ,SCARED,30MonoWAV/30MonoT4.wav,2,1,4,16,,,,,1,11,27,15,0,2,2,11,,,,,,,,,2,1.267693211993901,067,001,2019_May_28_1610,MusicAffectPsychophysiology2019,3.0.5,59.9319546966717,
To what extent did the music make you feel ,ANXIOUS ,30MonoWAV/30MonoT4.wav,2,1,4,16,,,,,1,11,27,15,0,3,3,1,,,,,,,,,2,0.7347618519997923,067,001,2019_May_28_1610,MusicAffectPsychophysiology2019,3.0.5,59.9319546966717,
To what extent did the music make you feel ,ANGRY,30MonoWAV/30MonoT4.wav,2,1,4,16,,,,,1,11,27,15,0,4,4,2,,,,,,,,,1,0.8173302969953511,067,001,2019_May_28_1610,MusicAffectPsychophysiology2019,3.0.5,59.9319546966717,
To what extent did the music make you feel ,TENDER,30MonoWAV/30MonoT4.wav,2,1,4,16,,,,,1,11,27,15,0,5,5,10,,,,,,,,,2,1.3183819120022235,067,001,2019_May_28_1610,MusicAffectPsychophysiology2019,3.0.5,59.9319546966717,
To what extent did the music make you feel ,HAPPY,30MonoWAV/30MonoT4.wav,2,1,4,16,,,,,1,11,27,15,0,6,6,6,,,,,,,,,3,0.9683851209993009,067,001,2019_May_28_1610,MusicAffectPsychophysiology2019,3.0.5,59.9319546966717,
To what extent did the music make you feel ,GUILTY,30MonoWAV/30MonoT4.wav,2,1,4,16,,,,,1,11,27,15,0,7,7,5,,,,,,,,,2,1.135399218997918,067,001,2019_May_28_1610,MusicAffectPsychophysiology2019,3.0.5,59.9319546966717,
To what extent did the music make you feel ,ASHAMED,30MonoWAV/30MonoT4.wav,2,1,4,16,,,,,1,11,27,15,0,8,8,4,,,,,,,,,2,0.9356435549998423,067,001,2019_May_28_1610,MusicAffectPsychophysiology2019,3.0.5,59.9319546966717,
To what extent did the music make you feel ,SAD,30MonoWAV/30MonoT4.wav,2,1,4,16,,,,,1,11,27,15,0,9,9,0,,,,,,,,,2,1.1845059869956458,067,001,2019_May_28_1610,MusicAffectPsychophysiology2019,3.0.5,59.9319546966717,
To what extent did the music make you feel ,FRUSTRATED,30MonoWAV/30MonoT4.wav,2,1,4,16,,,,,1,11,27,15,0,10,10,3,,,,,,,,,1,0.9190894119965378,067,001,2019_May_28_1610,MusicAffectPsychophysiology2019,3.0.5,59.9319546966717,
To what extent did the music make you feel ,EXCITED,30MonoWAV/30MonoT4.wav,2,1,4,16,,,,,1,11,27,15,0,11,11,7,,,,,,,,,3,1.3005936529953033,067,001,2019_May_28_1610,MusicAffectPsychophysiology2019,3.0.5,59.9319546966717,
,,30MonoWAV/30MonoT4.wav,2,1,4,16,,,,,1,11,27,15,,,,,,,,,,,,,,,067,001,2019_May_28_1610,MusicAffectPsychophysiology2019,3.0.5,59.9319546966717,
To what extent did the music make you feel ,SCARED,30MonoWAV/30MonoS2.wav,1,1,3,10,,,,,1,12,28,9,0,0,0,11,,,1,2.884322116005933,2,1.7005479680083226,2,1.4838639829977183,1,3.86841581799672,067,001,2019_May_28_1610,MusicAffectPsychophysiology2019,3.0.5,59.9319546966717,
To what extent did the music make you feel ,SAD,30MonoWAV/30MonoS2.wav,1,1,3,10,,,,,1,12,28,9,0,1,1,0,,,,,,,,,4,2.6681297220056877,067,001,2019_May_28_1610,MusicAffectPsychophysiology2019,3.0.5,59.9319546966717,
To what extent did the music make you feel ,GUILTY,30MonoWAV/30MonoS2.wav,1,1,3,10,,,,,1,12,28,9,0,2,2,5,,,,,,,,,2,1.4029609680001158,067,001,2019_May_28_1610,MusicAffectPsychophysiology2019,3.0.5,59.9319546966717,
To what extent did the music make you feel ,ALERT,30MonoWAV/30MonoS2.wav,1,1,3,10,,,,,1,12,28,9,0,3,3,8,,,,,,,,,1,1.134931301989127,067,001,2019_May_28_1610,MusicAffectPsychophysiology2019,3.0.5,59.9319546966717,
To what extent did the music make you feel ,ACTIVE,30MonoWAV/30MonoS2.wav,1,1,3,10,,,,,1,12,28,9,0,4,4,9,,,,,,,,,1,1.1690614459948847,067,001,2019_May_28_1610,MusicAffectPsychophysiology2019,3.0.5,59.9319546966717,
To what extent did the music make you feel ,FRUSTRATED,30MonoWAV/30MonoS2.wav,1,1,3,10,,,,,1,12,28,9,0,5,5,3,,,,,,,,,1,1.0998303939995822,067,001,2019_May_28_1610,MusicAffectPsychophysiology2019,3.0.5,59.9319546966717,
To what extent did the music make you feel ,EXCITED,30MonoWAV/30MonoS2.wav,1,1,3,10,,,,,1,12,28,9,0,6,6,7,,,,,,,,,1,0.8863460659922566,067,001,2019_May_28_1610,MusicAffectPsychophysiology2019,3.0.5,59.9319546966717,
To what extent did the music make you feel ,TENDER,30MonoWAV/30MonoS2.wav,1,1,3,10,,,,,1,12,28,9,0,7,7,10,,,,,,,,,3,1.2679411549906945,067,001,2019_May_28_1610,MusicAffectPsychophysiology2019,3.0.5,59.9319546966717,
To what extent did the music make you feel ,ANXIOUS ,30MonoWAV/30MonoS2.wav,1,1,3,10,,,,,1,12,28,9,0,8,8,1,,,,,,,,,2,2.0346908460051054,067,001,2019_May_28_1610,MusicAffectPsychophysiology2019,3.0.5,59.9319546966717,
To what extent did the music make you feel ,HAPPY,30MonoWAV/30MonoS2.wav,1,1,3,10,,,,,1,12,28,9,0,9,9,6,,,,,,,,,2,1.5833444599993527,067,001,2019_May_28_1610,MusicAffectPsychophysiology2019,3.0.5,59.9319546966717,
To what extent did the music make you feel ,ASHAMED,30MonoWAV/30MonoS2.wav,1,1,3,10,,,,,1,12,28,9,0,10,10,4,,,,,,,,,2,1.1514486669912003,067,001,2019_May_28_1610,MusicAffectPsychophysiology2019,3.0.5,59.9319546966717,
To what extent did the music make you feel ,ANGRY,30MonoWAV/30MonoS2.wav,1,1,3,10,,,,,1,12,28,9,0,11,11,2,,,,,,,,,1,0.9857714219979243,067,001,2019_May_28_1610,MusicAffectPsychophysiology2019,3.0.5,59.9319546966717,
,,30MonoWAV/30MonoS2.wav,1,1,3,10,,,,,1,12,28,9,,,,,,,,,,,,,,,067,001,2019_May_28_1610,MusicAffectPsychophysiology2019,3.0.5,59.9319546966717,
To what extent did the music make you feel ,FRUSTRATED,30MonoWAV/30MonoF1.wav,1,2,2,1,,,,,1,13,29,0,0,0,0,3,,,4,2.9179246319981758,2,1.5348620170116192,2,1.268280425996636,1,1.6185981829912635,067,001,2019_May_28_1610,MusicAffectPsychophysiology2019,3.0.5,59.9319546966717,
To what extent did the music make you feel ,ALERT,30MonoWAV/30MonoF1.wav,1,2,2,1,,,,,1,13,29,0,0,1,1,8,,,,,,,,,4,1.9179911499959417,067,001,2019_May_28_1610,MusicAffectPsychophysiology2019,3.0.5,59.9319546966717,
To what extent did the music make you feel ,EXCITED,30MonoWAV/30MonoF1.wav,1,2,2,1,,,,,1,13,29,0,0,2,2,7,,,,,,,,,3,1.8858854300051462,067,001,2019_May_28_1610,MusicAffectPsychophysiology2019,3.0.5,59.9319546966717,
To what extent did the music make you feel ,SCARED,30MonoWAV/30MonoF1.wav,1,2,2,1,,,,,1,13,29,0,0,3,3,11,,,,,,,,,3,1.3507961019931827,067,001,2019_May_28_1610,MusicAffectPsychophysiology2019,3.0.5,59.9319546966717,
To what extent did the music make you feel ,ASHAMED,30MonoWAV/30MonoF1.wav,1,2,2,1,,,,,1,13,29,0,0,4,4,4,,,,,,,,,1,1.2521398200042313,067,001,2019_May_28_1610,MusicAffectPsychophysiology2019,3.0.5,59.9319546966717,
To what extent did the music make you feel ,ANGRY,30MonoWAV/30MonoF1.wav,1,2,2,1,,,,,1,13,29,0,0,5,5,2,,,,,,,,,2,1.1852453509927727,067,001,2019_May_28_1610,MusicAffectPsychophysiology2019,3.0.5,59.9319546966717,
To what extent did the music make you feel ,TENDER,30MonoWAV/30MonoF1.wav,1,2,2,1,,,,,1,13,29,0,0,6,6,10,,,,,,,,,1,1.451604955989751,067,001,2019_May_28_1610,MusicAffectPsychophysiology2019,3.0.5,59.9319546966717,
To what extent did the music make you feel ,ACTIVE,30MonoWAV/30MonoF1.wav,1,2,2,1,,,,,1,13,29,0,0,7,7,9,,,,,,,,,3,1.3351765919942409,067,001,2019_May_28_1610,MusicAffectPsychophysiology2019,3.0.5,59.9319546966717,
To what extent did the music make you feel ,HAPPY,30MonoWAV/30MonoF1.wav,1,2,2,1,,,,,1,13,29,0,0,8,8,6,,,,,,,,,2,1.1020484559994657,067,001,2019_May_28_1610,MusicAffectPsychophysiology2019,3.0.5,59.9319546966717,
To what extent did the music make you feel ,GUILTY,30MonoWAV/30MonoF1.wav,1,2,2,1,,,,,1,13,29,0,0,9,9,5,,,,,,,,,1,1.0523822429968277,067,001,2019_May_28_1610,MusicAffectPsychophysiology2019,3.0.5,59.9319546966717,
To what extent did the music make you feel ,ANXIOUS ,30MonoWAV/30MonoF1.wav,1,2,2,1,,,,,1,13,29,0,0,10,10,1,,,,,,,,,3,2.299159823000082,067,001,2019_May_28_1610,MusicAffectPsychophysiology2019,3.0.5,59.9319546966717,
To what extent did the music make you feel ,SAD,30MonoWAV/30MonoF1.wav,1,2,2,1,,,,,1,13,29,0,0,11,11,0,,,,,,,,,1,1.4015701780008385,067,001,2019_May_28_1610,MusicAffectPsychophysiology2019,3.0.5,59.9319546966717,
,,30MonoWAV/30MonoF1.wav,1,2,2,1,,,,,1,13,29,0,,,,,,,,,,,,,,,067,001,2019_May_28_1610,MusicAffectPsychophysiology2019,3.0.5,59.9319546966717,
To what extent did the music make you feel ,FRUSTRATED,30MonoWAV/30MonoH3.wav,2,2,1,7,,,,,1,14,30,6,0,0,0,3,,,4,4.218625844994676,4,1.9851826349913608,2,1.5845532640087185,1,1.1014879159920383,067,001,2019_May_28_1610,MusicAffectPsychophysiology2019,3.0.5,59.9319546966717,
To what extent did the music make you feel ,ASHAMED,30MonoWAV/30MonoH3.wav,2,2,1,7,,,,,1,14,30,6,0,1,1,4,,,,,,,,,1,0.767943290004041,067,001,2019_May_28_1610,MusicAffectPsychophysiology2019,3.0.5,59.9319546966717,
To what extent did the music make you feel ,ACTIVE,30MonoWAV/30MonoH3.wav,2,2,1,7,,,,,1,14,30,6,0,2,2,9,,,,,,,,,5,1.6510112149990164,067,001,2019_May_28_1610,MusicAffectPsychophysiology2019,3.0.5,59.9319546966717,
To what extent did the music make you feel ,GUILTY,30MonoWAV/30MonoH3.wav,2,2,1,7,,,,,1,14,30,6,0,3,3,5,,,,,,,,,1,1.401859704987146,067,001,2019_May_28_1610,MusicAffectPsychophysiology2019,3.0.5,59.9319546966717,
To what extent did the music make you feel ,SAD,30MonoWAV/30MonoH3.wav,2,2,1,7,,,,,1,14,30,6,0,4,4,0,,,,,,,,,2,1.2661405999970157,067,001,2019_May_28_1610,MusicAffectPsychophysiology2019,3.0.5,59.9319546966717,
To what extent did the music make you feel ,SCARED,30MonoWAV/30MonoH3.wav,2,2,1,7,,,,,1,14,30,6,0,5,5,11,,,,,,,,,2,2.2017051770089893,067,001,2019_May_28_1610,MusicAffectPsychophysiology2019,3.0.5,59.9319546966717,
To what extent did the music make you feel ,ANXIOUS ,30MonoWAV/30MonoH3.wav,2,2,1,7,,,,,1,14,30,6,0,6,6,1,,,,,,,,,2,0.8527157260105014,067,001,2019_May_28_1610,MusicAffectPsychophysiology2019,3.0.5,59.9319546966717,
To what extent did the music make you feel ,ANGRY,30MonoWAV/30MonoH3.wav,2,2,1,7,,,,,1,14,30,6,0,7,7,2,,,,,,,,,1,1.1021218989917543,067,001,2019_May_28_1610,MusicAffectPsychophysiology2019,3.0.5,59.9319546966717,
To what extent did the music make you feel ,ALERT,30MonoWAV/30MonoH3.wav,2,2,1,7,,,,,1,14,30,6,0,8,8,8,,,,,,,,,3,1.534504556999309,067,001,2019_May_28_1610,MusicAffectPsychophysiology2019,3.0.5,59.9319546966717,
To what extent did the music make you feel ,TENDER,30MonoWAV/30MonoH3.wav,2,2,1,7,,,,,1,14,30,6,0,9,9,10,,,,,,,,,2,1.1020122460031416,067,001,2019_May_28_1610,MusicAffectPsychophysiology2019,3.0.5,59.9319546966717,
To what extent did the music make you feel ,HAPPY,30MonoWAV/30MonoH3.wav,2,2,1,7,,,,,1,14,30,6,0,10,10,6,,,,,,,,,4,1.3853600110014668,067,001,2019_May_28_1610,MusicAffectPsychophysiology2019,3.0.5,59.9319546966717,
To what extent did the music make you feel ,EXCITED,30MonoWAV/30MonoH3.wav,2,2,1,7,,,,,1,14,30,6,0,11,11,7,,,,,,,,,5,1.5847470910084667,067,001,2019_May_28_1610,MusicAffectPsychophysiology2019,3.0.5,59.9319546966717,
,,30MonoWAV/30MonoH3.wav,2,2,1,7,,,,,1,14,30,6,,,,,,,,,,,,,,,067,001,2019_May_28_1610,MusicAffectPsychophysiology2019,3.0.5,59.9319546966717,
To what extent did the music make you feel ,ANXIOUS ,30MonoWAV/30MonoT1.wav,2,1,4,13,,,,,1,15,31,12,0,0,0,1,,,2,3.2520415729959495,3,1.816919211007189,2,1.1670193940080935,2,1.1017975389986532,067,001,2019_May_28_1610,MusicAffectPsychophysiology2019,3.0.5,59.9319546966717,
To what extent did the music make you feel ,ASHAMED,30MonoWAV/30MonoT1.wav,2,1,4,13,,,,,1,15,31,12,0,1,1,4,,,,,,,,,1,0.8339446839963784,067,001,2019_May_28_1610,MusicAffectPsychophysiology2019,3.0.5,59.9319546966717,
To what extent did the music make you feel ,HAPPY,30MonoWAV/30MonoT1.wav,2,1,4,13,,,,,1,15,31,12,0,2,2,6,,,,,,,,,2,1.0854254690057132,067,001,2019_May_28_1610,MusicAffectPsychophysiology2019,3.0.5,59.9319546966717,
To what extent did the music make you feel ,FRUSTRATED,30MonoWAV/30MonoT1.wav,2,1,4,13,,,,,1,15,31,12,0,3,3,3,,,,,,,,,1,0.8177472730021691,067,001,2019_May_28_1610,MusicAffectPsychophysiology2019,3.0.5,59.9319546966717,
To what extent did the music make you feel ,ACTIVE,30MonoWAV/30MonoT1.wav,2,1,4,13,,,,,1,15,31,12,0,4,4,9,,,,,,,,,3,1.185648664002656,067,001,2019_May_28_1610,MusicAffectPsychophysiology2019,3.0.5,59.9319546966717,
To what extent did the music make you feel ,SAD,30MonoWAV/30MonoT1.wav,2,1,4,13,,,,,1,15,31,12,0,5,5,0,,,,,,,,,3,1.4516451820090879,067,001,2019_May_28_1610,MusicAffectPsychophysiology2019,3.0.5,59.9319546966717,
To what extent did the music make you feel ,GUILTY,30MonoWAV/30MonoT1.wav,2,1,4,13,,,,,1,15,31,12,0,6,6,5,,,,,,,,,1,1.6172173840022879,067,001,2019_May_28_1610,MusicAffectPsychophysiology2019,3.0.5,59.9319546966717,
To what extent did the music make you feel ,ANGRY,30MonoWAV/30MonoT1.wav,2,1,4,13,,,,,1,15,31,12,0,7,7,2,,,,,,,,,1,1.069116529004532,067,001,2019_May_28_1610,MusicAffectPsychophysiology2019,3.0.5,59.9319546966717,
To what extent did the music make you feel ,EXCITED,30MonoWAV/30MonoT1.wav,2,1,4,13,,,,,1,15,31,12,0,8,8,7,,,,,,,,,2,1.1183903199998895,067,001,2019_May_28_1610,MusicAffectPsychophysiology2019,3.0.5,59.9319546966717,
To what extent did the music make you feel ,ALERT,30MonoWAV/30MonoT1.wav,2,1,4,13,,,,,1,15,31,12,0,9,9,8,,,,,,,,,2,0.9851812189881457,067,001,2019_May_28_1610,MusicAffectPsychophysiology2019,3.0.5,59.9319546966717,
To what extent did the music make you feel ,SCARED,30MonoWAV/30MonoT1.wav,2,1,4,13,,,,,1,15,31,12,0,10,10,11,,,,,,,,,1,1.3187586129934061,067,001,2019_May_28_1610,MusicAffectPsychophysiology2019,3.0.5,59.9319546966717,
To what extent did the music make you feel ,TENDER,30MonoWAV/30MonoT1.wav,2,1,4,13,,,,,1,15,31,12,0,11,11,10,,,,,,,,,4,1.3853880099923117,067,001,2019_May_28_1610,MusicAffectPsychophysiology2019,3.0.5,59.9319546966717,
,,30MonoWAV/30MonoT1.wav,2,1,4,13,,,,,1,15,31,12,,,,,,,,,,,,,,,067,001,2019_May_28_1610,MusicAffectPsychophysiology2019,3.0.5,59.9319546966717,
