Instruction,Word,song,valence,arousal,affectcat,songmark,pracwords.thisRepN,pracwords.thisTrialN,pracwords.thisN,pracwords.thisIndex,songtrials.thisRepN,songtrials.thisTrialN,songtrials.thisN,songtrials.thisIndex,words.thisRepN,words.thisTrialN,words.thisN,words.thisIndex,begin.keys,begin.rt,arousalkey.keys,arousalkey.rt,valencekey.keys,valencekey.rt,likekey.keys,likekey.rt,WordResponse.keys,WordResponse.rt,key_resp_2.keys,key_resp_2.rt,participant,session,date,expName,psychopyVersion,frameRate,
,,,,,,,,,,,,,,,,,,,space,17.33487204700009,,,,,,,,,,,068,001,2019_May_30_1312,MusicAffectPsychophysiology2019,3.0.5,59.92832428587972,
,,,,,,,,,,,,,,,,,,,,,2,7.034116352999945,,,,,,,,,068,001,2019_May_30_1312,MusicAffectPsychophysiology2019,3.0.5,59.92832428587972,
,,,,,,,,,,,,,,,,,,,,,,,4,4.116965833999984,,,,,,,068,001,2019_May_30_1312,MusicAffectPsychophysiology2019,3.0.5,59.92832428587972,
,,,,,,,,,,,,,,,,,,,,,,,,,3,2.7524122580000494,,,,,068,001,2019_May_30_1312,MusicAffectPsychophysiology2019,3.0.5,59.92832428587972,
To what extent did the music make you feel ,SAD,,,,,,0,0,0,0,,,,,,,,,,,,,,,,,2,3.73413924700003,,,068,001,2019_May_30_1312,MusicAffectPsychophysiology2019,3.0.5,59.92832428587972,
To what extent did the music make you feel ,ANXIOUS ,,,,,,0,1,1,1,,,,,,,,,,,,,,,,,1,1.6177399729999706,,,068,001,2019_May_30_1312,MusicAffectPsychophysiology2019,3.0.5,59.92832428587972,
To what extent did the music make you feel ,ASHAMED,,,,,,0,2,2,4,,,,,,,,,,,,,,,,,1,0.8511836309999126,,,068,001,2019_May_30_1312,MusicAffectPsychophysiology2019,3.0.5,59.92832428587972,
To what extent did the music make you feel ,EXCITED,,,,,,0,3,3,7,,,,,,,,,,,,,,,,,2,2.4681863729999804,,,068,001,2019_May_30_1312,MusicAffectPsychophysiology2019,3.0.5,59.92832428587972,
To what extent did the music make you feel ,FRUSTRATED,,,,,,0,4,4,3,,,,,,,,,,,,,,,,,1,1.4026595210000323,,,068,001,2019_May_30_1312,MusicAffectPsychophysiology2019,3.0.5,59.92832428587972,
To what extent did the music make you feel ,ACTIVE,,,,,,0,5,5,9,,,,,,,,,,,,,,,,,2,2.0350053939998816,,,068,001,2019_May_30_1312,MusicAffectPsychophysiology2019,3.0.5,59.92832428587972,
To what extent did the music make you feel ,ANGRY,,,,,,0,6,6,2,,,,,,,,,,,,,,,,,1,1.1518029050000678,,,068,001,2019_May_30_1312,MusicAffectPsychophysiology2019,3.0.5,59.92832428587972,
To what extent did the music make you feel ,SCARED,,,,,,0,7,7,11,,,,,,,,,,,,,,,,,1,1.135149973000125,,,068,001,2019_May_30_1312,MusicAffectPsychophysiology2019,3.0.5,59.92832428587972,
To what extent did the music make you feel ,HAPPY,,,,,,0,8,8,6,,,,,,,,,,,,,,,,,3,1.601698517999921,,,068,001,2019_May_30_1312,MusicAffectPsychophysiology2019,3.0.5,59.92832428587972,
To what extent did the music make you feel ,GUILTY,,,,,,0,9,9,5,,,,,,,,,,,,,,,,,1,1.3512601279999217,,,068,001,2019_May_30_1312,MusicAffectPsychophysiology2019,3.0.5,59.92832428587972,
To what extent did the music make you feel ,ALERT,,,,,,0,10,10,8,,,,,,,,,,,,,,,,,2,2.3337527520000094,,,068,001,2019_May_30_1312,MusicAffectPsychophysiology2019,3.0.5,59.92832428587972,
To what extent did the music make you feel ,TENDER,,,,,,0,11,11,10,,,,,,,,,,,,,,,,,3,2.085474647999945,,,068,001,2019_May_30_1312,MusicAffectPsychophysiology2019,3.0.5,59.92832428587972,
To what extent did the music make you feel ,ACTIVE,30MonoWAV/30MonoF1.wav,1,2,2,1,,,,,0,0,0,0,0,0,0,9,,,4,3.7025836579998668,1,3.102359278999984,2,2.101489028999822,4,3.4683452809999835,,,068,001,2019_May_30_1312,MusicAffectPsychophysiology2019,3.0.5,59.92832428587972,
To what extent did the music make you feel ,ALERT,30MonoWAV/30MonoF1.wav,1,2,2,1,,,,,0,0,0,0,0,1,1,8,,,,,,,,,4,1.4844188829999894,,,068,001,2019_May_30_1312,MusicAffectPsychophysiology2019,3.0.5,59.92832428587972,
To what extent did the music make you feel ,ANXIOUS ,30MonoWAV/30MonoF1.wav,1,2,2,1,,,,,0,0,0,0,0,2,2,1,,,,,,,,,2,1.5681652810001196,,,068,001,2019_May_30_1312,MusicAffectPsychophysiology2019,3.0.5,59.92832428587972,
To what extent did the music make you feel ,EXCITED,30MonoWAV/30MonoF1.wav,1,2,2,1,,,,,0,0,0,0,0,3,3,7,,,,,,,,,4,1.5869847419999132,,,068,001,2019_May_30_1312,MusicAffectPsychophysiology2019,3.0.5,59.92832428587972,
To what extent did the music make you feel ,SCARED,30MonoWAV/30MonoF1.wav,1,2,2,1,,,,,0,0,0,0,0,4,4,11,,,,,,,,,1,1.8348219009999411,,,068,001,2019_May_30_1312,MusicAffectPsychophysiology2019,3.0.5,59.92832428587972,
To what extent did the music make you feel ,HAPPY,30MonoWAV/30MonoF1.wav,1,2,2,1,,,,,0,0,0,0,0,5,5,6,,,,,,,,,2,1.518846136999855,,,068,001,2019_May_30_1312,MusicAffectPsychophysiology2019,3.0.5,59.92832428587972,
To what extent did the music make you feel ,GUILTY,30MonoWAV/30MonoF1.wav,1,2,2,1,,,,,0,0,0,0,0,6,6,5,,,,,,,,,1,0.884724629999937,,,068,001,2019_May_30_1312,MusicAffectPsychophysiology2019,3.0.5,59.92832428587972,
To what extent did the music make you feel ,FRUSTRATED,30MonoWAV/30MonoF1.wav,1,2,2,1,,,,,0,0,0,0,0,7,7,3,,,,,,,,,1,1.649946878000037,,,068,001,2019_May_30_1312,MusicAffectPsychophysiology2019,3.0.5,59.92832428587972,
To what extent did the music make you feel ,TENDER,30MonoWAV/30MonoF1.wav,1,2,2,1,,,,,0,0,0,0,0,8,8,10,,,,,,,,,1,1.7185250920001636,,,068,001,2019_May_30_1312,MusicAffectPsychophysiology2019,3.0.5,59.92832428587972,
To what extent did the music make you feel ,SAD,30MonoWAV/30MonoF1.wav,1,2,2,1,,,,,0,0,0,0,0,9,9,0,,,,,,,,,1,1.2020663779999268,,,068,001,2019_May_30_1312,MusicAffectPsychophysiology2019,3.0.5,59.92832428587972,
To what extent did the music make you feel ,ANGRY,30MonoWAV/30MonoF1.wav,1,2,2,1,,,,,0,0,0,0,0,10,10,2,,,,,,,,,2,1.7859759259999919,,,068,001,2019_May_30_1312,MusicAffectPsychophysiology2019,3.0.5,59.92832428587972,
To what extent did the music make you feel ,ASHAMED,30MonoWAV/30MonoF1.wav,1,2,2,1,,,,,0,0,0,0,0,11,11,4,,,,,,,,,1,0.8520086050000373,,,068,001,2019_May_30_1312,MusicAffectPsychophysiology2019,3.0.5,59.92832428587972,
,,30MonoWAV/30MonoF1.wav,1,2,2,1,,,,,0,0,0,0,,,,,,,,,,,,,,,,,068,001,2019_May_30_1312,MusicAffectPsychophysiology2019,3.0.5,59.92832428587972,
To what extent did the music make you feel ,GUILTY,30MonoWAV/30MonoH3.wav,2,2,1,7,,,,,0,1,1,6,0,0,0,5,,,5,6.067376648999925,3,2.8186937489999764,3,2.0341220089999297,1,2.383602466999946,,,068,001,2019_May_30_1312,MusicAffectPsychophysiology2019,3.0.5,59.92832428587972,
To what extent did the music make you feel ,EXCITED,30MonoWAV/30MonoH3.wav,2,2,1,7,,,,,0,1,1,6,0,1,1,7,,,,,,,,,5,1.468102078000129,,,068,001,2019_May_30_1312,MusicAffectPsychophysiology2019,3.0.5,59.92832428587972,
To what extent did the music make you feel ,HAPPY,30MonoWAV/30MonoH3.wav,2,2,1,7,,,,,0,1,1,6,0,2,2,6,,,,,,,,,4,2.21806198399986,,,068,001,2019_May_30_1312,MusicAffectPsychophysiology2019,3.0.5,59.92832428587972,
To what extent did the music make you feel ,FRUSTRATED,30MonoWAV/30MonoH3.wav,2,2,1,7,,,,,0,1,1,6,0,3,3,3,,,,,,,,,1,1.0680544659999214,,,068,001,2019_May_30_1312,MusicAffectPsychophysiology2019,3.0.5,59.92832428587972,
To what extent did the music make you feel ,SCARED,30MonoWAV/30MonoH3.wav,2,2,1,7,,,,,0,1,1,6,0,4,4,11,,,,,,,,,1,0.9687716430000819,,,068,001,2019_May_30_1312,MusicAffectPsychophysiology2019,3.0.5,59.92832428587972,
To what extent did the music make you feel ,ASHAMED,30MonoWAV/30MonoH3.wav,2,2,1,7,,,,,0,1,1,6,0,5,5,4,,,,,,,,,1,0.9346126739999363,,,068,001,2019_May_30_1312,MusicAffectPsychophysiology2019,3.0.5,59.92832428587972,
To what extent did the music make you feel ,ANGRY,30MonoWAV/30MonoH3.wav,2,2,1,7,,,,,0,1,1,6,0,6,6,2,,,,,,,,,1,1.3510344999999688,,,068,001,2019_May_30_1312,MusicAffectPsychophysiology2019,3.0.5,59.92832428587972,
To what extent did the music make you feel ,ACTIVE,30MonoWAV/30MonoH3.wav,2,2,1,7,,,,,0,1,1,6,0,7,7,9,,,,,,,,,5,1.333642354999938,,,068,001,2019_May_30_1312,MusicAffectPsychophysiology2019,3.0.5,59.92832428587972,
To what extent did the music make you feel ,TENDER,30MonoWAV/30MonoH3.wav,2,2,1,7,,,,,0,1,1,6,0,8,8,10,,,,,,,,,2,1.6672842279999713,,,068,001,2019_May_30_1312,MusicAffectPsychophysiology2019,3.0.5,59.92832428587972,
To what extent did the music make you feel ,SAD,30MonoWAV/30MonoH3.wav,2,2,1,7,,,,,0,1,1,6,0,9,9,0,,,,,,,,,1,1.2520416849999947,,,068,001,2019_May_30_1312,MusicAffectPsychophysiology2019,3.0.5,59.92832428587972,
To what extent did the music make you feel ,ANXIOUS ,30MonoWAV/30MonoH3.wav,2,2,1,7,,,,,0,1,1,6,0,10,10,1,,,,,,,,,1,0.9351118939998742,,,068,001,2019_May_30_1312,MusicAffectPsychophysiology2019,3.0.5,59.92832428587972,
To what extent did the music make you feel ,ALERT,30MonoWAV/30MonoH3.wav,2,2,1,7,,,,,0,1,1,6,0,11,11,8,,,,,,,,,3,2.601820545999999,,,068,001,2019_May_30_1312,MusicAffectPsychophysiology2019,3.0.5,59.92832428587972,
,,30MonoWAV/30MonoH3.wav,2,2,1,7,,,,,0,1,1,6,,,,,,,,,,,,,,,,,068,001,2019_May_30_1312,MusicAffectPsychophysiology2019,3.0.5,59.92832428587972,
To what extent did the music make you feel ,TENDER,30MonoWAV/30MonoF4.wav,1,2,2,4,,,,,0,2,2,3,0,0,0,10,,,3,3.734464995999815,1,3.2335476410000865,1,4.68406207299995,1,2.4689516939999976,,,068,001,2019_May_30_1312,MusicAffectPsychophysiology2019,3.0.5,59.92832428587972,
To what extent did the music make you feel ,ACTIVE,30MonoWAV/30MonoF4.wav,1,2,2,4,,,,,0,2,2,3,0,1,1,9,,,,,,,,,4,1.8346905870000683,,,068,001,2019_May_30_1312,MusicAffectPsychophysiology2019,3.0.5,59.92832428587972,
To what extent did the music make you feel ,ALERT,30MonoWAV/30MonoF4.wav,1,2,2,4,,,,,0,2,2,3,0,2,2,8,,,,,,,,,4,0.7677879940001731,,,068,001,2019_May_30_1312,MusicAffectPsychophysiology2019,3.0.5,59.92832428587972,
To what extent did the music make you feel ,ANGRY,30MonoWAV/30MonoF4.wav,1,2,2,4,,,,,0,2,2,3,0,3,3,2,,,,,,,,,3,1.8187897420000354,,,068,001,2019_May_30_1312,MusicAffectPsychophysiology2019,3.0.5,59.92832428587972,
To what extent did the music make you feel ,SCARED,30MonoWAV/30MonoF4.wav,1,2,2,4,,,,,0,2,2,3,0,4,4,11,,,,,,,,,4,1.7854053260000455,,,068,001,2019_May_30_1312,MusicAffectPsychophysiology2019,3.0.5,59.92832428587972,
To what extent did the music make you feel ,ANXIOUS ,30MonoWAV/30MonoF4.wav,1,2,2,4,,,,,0,2,2,3,0,5,5,1,,,,,,,,,4,0.9851617780000197,,,068,001,2019_May_30_1312,MusicAffectPsychophysiology2019,3.0.5,59.92832428587972,
To what extent did the music make you feel ,FRUSTRATED,30MonoWAV/30MonoF4.wav,1,2,2,4,,,,,0,2,2,3,0,6,6,3,,,,,,,,,1,1.8518112169999768,,,068,001,2019_May_30_1312,MusicAffectPsychophysiology2019,3.0.5,59.92832428587972,
To what extent did the music make you feel ,ASHAMED,30MonoWAV/30MonoF4.wav,1,2,2,4,,,,,0,2,2,3,0,7,7,4,,,,,,,,,1,1.1344093780001003,,,068,001,2019_May_30_1312,MusicAffectPsychophysiology2019,3.0.5,59.92832428587972,
To what extent did the music make you feel ,HAPPY,30MonoWAV/30MonoF4.wav,1,2,2,4,,,,,0,2,2,3,0,8,8,6,,,,,,,,,1,1.1514058459999887,,,068,001,2019_May_30_1312,MusicAffectPsychophysiology2019,3.0.5,59.92832428587972,
To what extent did the music make you feel ,GUILTY,30MonoWAV/30MonoF4.wav,1,2,2,4,,,,,0,2,2,3,0,9,9,5,,,,,,,,,1,0.9161870149998776,,,068,001,2019_May_30_1312,MusicAffectPsychophysiology2019,3.0.5,59.92832428587972,
To what extent did the music make you feel ,SAD,30MonoWAV/30MonoF4.wav,1,2,2,4,,,,,0,2,2,3,0,10,10,0,,,,,,,,,1,1.500678611000012,,,068,001,2019_May_30_1312,MusicAffectPsychophysiology2019,3.0.5,59.92832428587972,
To what extent did the music make you feel ,EXCITED,30MonoWAV/30MonoF4.wav,1,2,2,4,,,,,0,2,2,3,0,11,11,7,,,,,,,,,2,1.935480982999934,,,068,001,2019_May_30_1312,MusicAffectPsychophysiology2019,3.0.5,59.92832428587972,
,,30MonoWAV/30MonoF4.wav,1,2,2,4,,,,,0,2,2,3,,,,,,,,,,,,,,,,,068,001,2019_May_30_1312,MusicAffectPsychophysiology2019,3.0.5,59.92832428587972,
To what extent did the music make you feel ,ASHAMED,30MonoWAV/30MonoS3.wav,1,1,3,11,,,,,0,3,3,10,0,0,0,4,,,1,2.968522787999973,1,1.4183562480000091,3,3.233929096999873,3,3.102263146000041,,,068,001,2019_May_30_1312,MusicAffectPsychophysiology2019,3.0.5,59.92832428587972,
To what extent did the music make you feel ,ANXIOUS ,30MonoWAV/30MonoS3.wav,1,1,3,11,,,,,0,3,3,10,0,1,1,1,,,,,,,,,3,1.0178092780001862,,,068,001,2019_May_30_1312,MusicAffectPsychophysiology2019,3.0.5,59.92832428587972,
To what extent did the music make you feel ,ACTIVE,30MonoWAV/30MonoS3.wav,1,1,3,11,,,,,0,3,3,10,0,2,2,9,,,,,,,,,1,1.2515154139998685,,,068,001,2019_May_30_1312,MusicAffectPsychophysiology2019,3.0.5,59.92832428587972,
To what extent did the music make you feel ,ANGRY,30MonoWAV/30MonoS3.wav,1,1,3,11,,,,,0,3,3,10,0,3,3,2,,,,,,,,,1,2.55172147899998,,,068,001,2019_May_30_1312,MusicAffectPsychophysiology2019,3.0.5,59.92832428587972,
To what extent did the music make you feel ,EXCITED,30MonoWAV/30MonoS3.wav,1,1,3,11,,,,,0,3,3,10,0,4,4,7,,,,,,,,,1,1.000840738000079,,,068,001,2019_May_30_1312,MusicAffectPsychophysiology2019,3.0.5,59.92832428587972,
To what extent did the music make you feel ,HAPPY,30MonoWAV/30MonoS3.wav,1,1,3,11,,,,,0,3,3,10,0,5,5,6,,,,,,,,,1,2.7348218679999263,,,068,001,2019_May_30_1312,MusicAffectPsychophysiology2019,3.0.5,59.92832428587972,
To what extent did the music make you feel ,TENDER,30MonoWAV/30MonoS3.wav,1,1,3,11,,,,,0,3,3,10,0,6,6,10,,,,,,,,,3,1.8341987159999462,,,068,001,2019_May_30_1312,MusicAffectPsychophysiology2019,3.0.5,59.92832428587972,
To what extent did the music make you feel ,ALERT,30MonoWAV/30MonoS3.wav,1,1,3,11,,,,,0,3,3,10,0,7,7,8,,,,,,,,,1,1.46918967900001,,,068,001,2019_May_30_1312,MusicAffectPsychophysiology2019,3.0.5,59.92832428587972,
To what extent did the music make you feel ,SAD,30MonoWAV/30MonoS3.wav,1,1,3,11,,,,,0,3,3,10,0,8,8,0,,,,,,,,,5,2.001864430999831,,,068,001,2019_May_30_1312,MusicAffectPsychophysiology2019,3.0.5,59.92832428587972,
To what extent did the music make you feel ,GUILTY,30MonoWAV/30MonoS3.wav,1,1,3,11,,,,,0,3,3,10,0,9,9,5,,,,,,,,,1,1.2529686719999518,,,068,001,2019_May_30_1312,MusicAffectPsychophysiology2019,3.0.5,59.92832428587972,
To what extent did the music make you feel ,FRUSTRATED,30MonoWAV/30MonoS3.wav,1,1,3,11,,,,,0,3,3,10,0,10,10,3,,,,,,,,,1,5.167860814000051,,,068,001,2019_May_30_1312,MusicAffectPsychophysiology2019,3.0.5,59.92832428587972,
To what extent did the music make you feel ,SCARED,30MonoWAV/30MonoS3.wav,1,1,3,11,,,,,0,3,3,10,0,11,11,11,,,,,,,,,1,3.1018786690001434,,,068,001,2019_May_30_1312,MusicAffectPsychophysiology2019,3.0.5,59.92832428587972,
,,30MonoWAV/30MonoS3.wav,1,1,3,11,,,,,0,3,3,10,,,,,,,,,,,,,,,,,068,001,2019_May_30_1312,MusicAffectPsychophysiology2019,3.0.5,59.92832428587972,
To what extent did the music make you feel ,SAD,30MonoWAV/30MonoS4.wav,1,1,3,12,,,,,0,4,4,11,0,0,0,0,,,1,3.1344218369999908,1,7.4677462559998276,4,2.4491816249999374,5,2.3862876919999962,,,068,001,2019_May_30_1312,MusicAffectPsychophysiology2019,3.0.5,59.92832428587972,
To what extent did the music make you feel ,ACTIVE,30MonoWAV/30MonoS4.wav,1,1,3,12,,,,,0,4,4,11,0,1,1,9,,,,,,,,,1,1.7342769019999196,,,068,001,2019_May_30_1312,MusicAffectPsychophysiology2019,3.0.5,59.92832428587972,
To what extent did the music make you feel ,SCARED,30MonoWAV/30MonoS4.wav,1,1,3,12,,,,,0,4,4,11,0,2,2,11,,,,,,,,,1,1.2849791229998573,,,068,001,2019_May_30_1312,MusicAffectPsychophysiology2019,3.0.5,59.92832428587972,
To what extent did the music make you feel ,ALERT,30MonoWAV/30MonoS4.wav,1,1,3,12,,,,,0,4,4,11,0,3,3,8,,,,,,,,,1,0.8514464390000285,,,068,001,2019_May_30_1312,MusicAffectPsychophysiology2019,3.0.5,59.92832428587972,
To what extent did the music make you feel ,GUILTY,30MonoWAV/30MonoS4.wav,1,1,3,12,,,,,0,4,4,11,0,4,4,5,,,,,,,,,4,1.951475271000163,,,068,001,2019_May_30_1312,MusicAffectPsychophysiology2019,3.0.5,59.92832428587972,
To what extent did the music make you feel ,HAPPY,30MonoWAV/30MonoS4.wav,1,1,3,12,,,,,0,4,4,11,0,5,5,6,,,,,,,,,1,1.0341176980000455,,,068,001,2019_May_30_1312,MusicAffectPsychophysiology2019,3.0.5,59.92832428587972,
To what extent did the music make you feel ,ANGRY,30MonoWAV/30MonoS4.wav,1,1,3,12,,,,,0,4,4,11,0,6,6,2,,,,,,,,,1,1.1170266400001765,,,068,001,2019_May_30_1312,MusicAffectPsychophysiology2019,3.0.5,59.92832428587972,
To what extent did the music make you feel ,TENDER,30MonoWAV/30MonoS4.wav,1,1,3,12,,,,,0,4,4,11,0,7,7,10,,,,,,,,,5,1.6017445310001222,,,068,001,2019_May_30_1312,MusicAffectPsychophysiology2019,3.0.5,59.92832428587972,
To what extent did the music make you feel ,ANXIOUS ,30MonoWAV/30MonoS4.wav,1,1,3,12,,,,,0,4,4,11,0,8,8,1,,,,,,,,,1,2.985091949999969,,,068,001,2019_May_30_1312,MusicAffectPsychophysiology2019,3.0.5,59.92832428587972,
To what extent did the music make you feel ,ASHAMED,30MonoWAV/30MonoS4.wav,1,1,3,12,,,,,0,4,4,11,0,9,9,4,,,,,,,,,2,2.5855751990000044,,,068,001,2019_May_30_1312,MusicAffectPsychophysiology2019,3.0.5,59.92832428587972,
To what extent did the music make you feel ,FRUSTRATED,30MonoWAV/30MonoS4.wav,1,1,3,12,,,,,0,4,4,11,0,10,10,3,,,,,,,,,1,2.1340354370001933,,,068,001,2019_May_30_1312,MusicAffectPsychophysiology2019,3.0.5,59.92832428587972,
To what extent did the music make you feel ,EXCITED,30MonoWAV/30MonoS4.wav,1,1,3,12,,,,,0,4,4,11,0,11,11,7,,,,,,,,,1,1.0347443199998452,,,068,001,2019_May_30_1312,MusicAffectPsychophysiology2019,3.0.5,59.92832428587972,
,,30MonoWAV/30MonoS4.wav,1,1,3,12,,,,,0,4,4,11,,,,,,,,,,,,,,,,,068,001,2019_May_30_1312,MusicAffectPsychophysiology2019,3.0.5,59.92832428587972,
To what extent did the music make you feel ,ACTIVE,30MonoWAV/30MonoT3.wav,2,1,4,15,,,,,0,5,5,14,0,0,0,9,,,2,3.000494910000043,4,3.019444816000032,4,2.3170461199999863,1,1.850893821999989,,,068,001,2019_May_30_1312,MusicAffectPsychophysiology2019,3.0.5,59.92832428587972,
To what extent did the music make you feel ,HAPPY,30MonoWAV/30MonoT3.wav,2,1,4,15,,,,,0,5,5,14,0,1,1,6,,,,,,,,,2,2.9843169829998715,,,068,001,2019_May_30_1312,MusicAffectPsychophysiology2019,3.0.5,59.92832428587972,
To what extent did the music make you feel ,SCARED,30MonoWAV/30MonoT3.wav,2,1,4,15,,,,,0,5,5,14,0,2,2,11,,,,,,,,,1,1.052671362999945,,,068,001,2019_May_30_1312,MusicAffectPsychophysiology2019,3.0.5,59.92832428587972,
To what extent did the music make you feel ,ANXIOUS ,30MonoWAV/30MonoT3.wav,2,1,4,15,,,,,0,5,5,14,0,3,3,1,,,,,,,,,1,0.8024344999998902,,,068,001,2019_May_30_1312,MusicAffectPsychophysiology2019,3.0.5,59.92832428587972,
To what extent did the music make you feel ,EXCITED,30MonoWAV/30MonoT3.wav,2,1,4,15,,,,,0,5,5,14,0,4,4,7,,,,,,,,,2,1.4361087980000775,,,068,001,2019_May_30_1312,MusicAffectPsychophysiology2019,3.0.5,59.92832428587972,
To what extent did the music make you feel ,SAD,30MonoWAV/30MonoT3.wav,2,1,4,15,,,,,0,5,5,14,0,5,5,0,,,,,,,,,2,1.6860964069999227,,,068,001,2019_May_30_1312,MusicAffectPsychophysiology2019,3.0.5,59.92832428587972,
To what extent did the music make you feel ,TENDER,30MonoWAV/30MonoT3.wav,2,1,4,15,,,,,0,5,5,14,0,6,6,10,,,,,,,,,4,2.71955629099989,,,068,001,2019_May_30_1312,MusicAffectPsychophysiology2019,3.0.5,59.92832428587972,
To what extent did the music make you feel ,FRUSTRATED,30MonoWAV/30MonoT3.wav,2,1,4,15,,,,,0,5,5,14,0,7,7,3,,,,,,,,,1,1.1861593549999725,,,068,001,2019_May_30_1312,MusicAffectPsychophysiology2019,3.0.5,59.92832428587972,
To what extent did the music make you feel ,ANGRY,30MonoWAV/30MonoT3.wav,2,1,4,15,,,,,0,5,5,14,0,8,8,2,,,,,,,,,1,2.1176942399999916,,,068,001,2019_May_30_1312,MusicAffectPsychophysiology2019,3.0.5,59.92832428587972,
To what extent did the music make you feel ,ASHAMED,30MonoWAV/30MonoT3.wav,2,1,4,15,,,,,0,5,5,14,0,9,9,4,,,,,,,,,1,0.7683805760000268,,,068,001,2019_May_30_1312,MusicAffectPsychophysiology2019,3.0.5,59.92832428587972,
To what extent did the music make you feel ,ALERT,30MonoWAV/30MonoT3.wav,2,1,4,15,,,,,0,5,5,14,0,10,10,8,,,,,,,,,1,2.2846903940001084,,,068,001,2019_May_30_1312,MusicAffectPsychophysiology2019,3.0.5,59.92832428587972,
To what extent did the music make you feel ,GUILTY,30MonoWAV/30MonoT3.wav,2,1,4,15,,,,,0,5,5,14,0,11,11,5,,,,,,,,,1,1.2168017179999424,,,068,001,2019_May_30_1312,MusicAffectPsychophysiology2019,3.0.5,59.92832428587972,
,,30MonoWAV/30MonoT3.wav,2,1,4,15,,,,,0,5,5,14,,,,,,,,,,,,,,,,,068,001,2019_May_30_1312,MusicAffectPsychophysiology2019,3.0.5,59.92832428587972,
To what extent did the music make you feel ,HAPPY,30MonoWAV/30MonoF2.wav,1,2,2,2,,,,,0,6,6,1,0,0,0,6,,,3,4.468786416000057,1,1.4852217659999951,1,1.2344250410001223,1,2.83562493799991,,,068,001,2019_May_30_1312,MusicAffectPsychophysiology2019,3.0.5,59.92832428587972,
To what extent did the music make you feel ,GUILTY,30MonoWAV/30MonoF2.wav,1,2,2,2,,,,,0,6,6,1,0,1,1,5,,,,,,,,,3,3.5858281999999235,,,068,001,2019_May_30_1312,MusicAffectPsychophysiology2019,3.0.5,59.92832428587972,
To what extent did the music make you feel ,SCARED,30MonoWAV/30MonoF2.wav,1,2,2,2,,,,,0,6,6,1,0,2,2,11,,,,,,,,,4,2.3015413949999584,,,068,001,2019_May_30_1312,MusicAffectPsychophysiology2019,3.0.5,59.92832428587972,
To what extent did the music make you feel ,ALERT,30MonoWAV/30MonoF2.wav,1,2,2,2,,,,,0,6,6,1,0,3,3,8,,,,,,,,,4,0.834008219999987,,,068,001,2019_May_30_1312,MusicAffectPsychophysiology2019,3.0.5,59.92832428587972,
To what extent did the music make you feel ,SAD,30MonoWAV/30MonoF2.wav,1,2,2,2,,,,,0,6,6,1,0,4,4,0,,,,,,,,,2,2.401891927999941,,,068,001,2019_May_30_1312,MusicAffectPsychophysiology2019,3.0.5,59.92832428587972,
To what extent did the music make you feel ,ASHAMED,30MonoWAV/30MonoF2.wav,1,2,2,2,,,,,0,6,6,1,0,5,5,4,,,,,,,,,4,2.1988698440000007,,,068,001,2019_May_30_1312,MusicAffectPsychophysiology2019,3.0.5,59.92832428587972,
To what extent did the music make you feel ,ANGRY,30MonoWAV/30MonoF2.wav,1,2,2,2,,,,,0,6,6,1,0,6,6,2,,,,,,,,,3,1.4523229030000948,,,068,001,2019_May_30_1312,MusicAffectPsychophysiology2019,3.0.5,59.92832428587972,
To what extent did the music make you feel ,FRUSTRATED,30MonoWAV/30MonoF2.wav,1,2,2,2,,,,,0,6,6,1,0,7,7,3,,,,,,,,,2,2.467934011999887,,,068,001,2019_May_30_1312,MusicAffectPsychophysiology2019,3.0.5,59.92832428587972,
To what extent did the music make you feel ,TENDER,30MonoWAV/30MonoF2.wav,1,2,2,2,,,,,0,6,6,1,0,8,8,10,,,,,,,,,1,1.0686384640000597,,,068,001,2019_May_30_1312,MusicAffectPsychophysiology2019,3.0.5,59.92832428587972,
To what extent did the music make you feel ,EXCITED,30MonoWAV/30MonoF2.wav,1,2,2,2,,,,,0,6,6,1,0,9,9,7,,,,,,,,,1,1.0355470560000413,,,068,001,2019_May_30_1312,MusicAffectPsychophysiology2019,3.0.5,59.92832428587972,
To what extent did the music make you feel ,ACTIVE,30MonoWAV/30MonoF2.wav,1,2,2,2,,,,,0,6,6,1,0,10,10,9,,,,,,,,,2,2.783529020999822,,,068,001,2019_May_30_1312,MusicAffectPsychophysiology2019,3.0.5,59.92832428587972,
To what extent did the music make you feel ,ANXIOUS ,30MonoWAV/30MonoF2.wav,1,2,2,2,,,,,0,6,6,1,0,11,11,1,,,,,,,,,5,1.3185851329999423,,,068,001,2019_May_30_1312,MusicAffectPsychophysiology2019,3.0.5,59.92832428587972,
,,30MonoWAV/30MonoF2.wav,1,2,2,2,,,,,0,6,6,1,,,,,,,,,,,,,,,,,068,001,2019_May_30_1312,MusicAffectPsychophysiology2019,3.0.5,59.92832428587972,
To what extent did the music make you feel ,HAPPY,30MonoWAV/30MonoH4.wav,2,2,1,8,,,,,0,7,7,7,0,0,0,6,,,4,5.6178070480000315,4,2.3517604870000923,4,2.4685814819999905,4,2.6015823259999706,,,068,001,2019_May_30_1312,MusicAffectPsychophysiology2019,3.0.5,59.92832428587972,
To what extent did the music make you feel ,ALERT,30MonoWAV/30MonoH4.wav,2,2,1,8,,,,,0,7,7,7,0,1,1,8,,,,,,,,,2,1.4667511620000369,,,068,001,2019_May_30_1312,MusicAffectPsychophysiology2019,3.0.5,59.92832428587972,
To what extent did the music make you feel ,TENDER,30MonoWAV/30MonoH4.wav,2,2,1,8,,,,,0,7,7,7,0,2,2,10,,,,,,,,,4,1.3349870479999026,,,068,001,2019_May_30_1312,MusicAffectPsychophysiology2019,3.0.5,59.92832428587972,
To what extent did the music make you feel ,SAD,30MonoWAV/30MonoH4.wav,2,2,1,8,,,,,0,7,7,7,0,3,3,0,,,,,,,,,1,0.9849340019998181,,,068,001,2019_May_30_1312,MusicAffectPsychophysiology2019,3.0.5,59.92832428587972,
To what extent did the music make you feel ,ACTIVE,30MonoWAV/30MonoH4.wav,2,2,1,8,,,,,0,7,7,7,0,4,4,9,,,,,,,,,5,2.251684652999984,,,068,001,2019_May_30_1312,MusicAffectPsychophysiology2019,3.0.5,59.92832428587972,
To what extent did the music make you feel ,EXCITED,30MonoWAV/30MonoH4.wav,2,2,1,8,,,,,0,7,7,7,0,5,5,7,,,,,,,,,5,1.018289121999942,,,068,001,2019_May_30_1312,MusicAffectPsychophysiology2019,3.0.5,59.92832428587972,
To what extent did the music make you feel ,GUILTY,30MonoWAV/30MonoH4.wav,2,2,1,8,,,,,0,7,7,7,0,6,6,5,,,,,,,,,1,1.0345123390000026,,,068,001,2019_May_30_1312,MusicAffectPsychophysiology2019,3.0.5,59.92832428587972,
To what extent did the music make you feel ,ANXIOUS ,30MonoWAV/30MonoH4.wav,2,2,1,8,,,,,0,7,7,7,0,7,7,1,,,,,,,,,1,1.0856139810000514,,,068,001,2019_May_30_1312,MusicAffectPsychophysiology2019,3.0.5,59.92832428587972,
To what extent did the music make you feel ,ANGRY,30MonoWAV/30MonoH4.wav,2,2,1,8,,,,,0,7,7,7,0,8,8,2,,,,,,,,,1,0.8679361850001897,,,068,001,2019_May_30_1312,MusicAffectPsychophysiology2019,3.0.5,59.92832428587972,
To what extent did the music make you feel ,ASHAMED,30MonoWAV/30MonoH4.wav,2,2,1,8,,,,,0,7,7,7,0,9,9,4,,,,,,,,,1,0.8018421680001211,,,068,001,2019_May_30_1312,MusicAffectPsychophysiology2019,3.0.5,59.92832428587972,
To what extent did the music make you feel ,FRUSTRATED,30MonoWAV/30MonoH4.wav,2,2,1,8,,,,,0,7,7,7,0,10,10,3,,,,,,,,,1,0.868354219000139,,,068,001,2019_May_30_1312,MusicAffectPsychophysiology2019,3.0.5,59.92832428587972,
To what extent did the music make you feel ,SCARED,30MonoWAV/30MonoH4.wav,2,2,1,8,,,,,0,7,7,7,0,11,11,11,,,,,,,,,1,0.8361529859998882,,,068,001,2019_May_30_1312,MusicAffectPsychophysiology2019,3.0.5,59.92832428587972,
,,30MonoWAV/30MonoH4.wav,2,2,1,8,,,,,0,7,7,7,,,,,,,,,,,,,,,,,068,001,2019_May_30_1312,MusicAffectPsychophysiology2019,3.0.5,59.92832428587972,
To what extent did the music make you feel ,TENDER,30MonoWAV/30MonoS1.wav,1,1,3,9,,,,,0,8,8,8,0,0,0,10,,,2,3.5677433240000482,1,4.117675937000058,3,1.916123682000034,3,4.983718502000102,,,068,001,2019_May_30_1312,MusicAffectPsychophysiology2019,3.0.5,59.92832428587972,
To what extent did the music make you feel ,SAD,30MonoWAV/30MonoS1.wav,1,1,3,9,,,,,0,8,8,8,0,1,1,0,,,,,,,,,4,1.3024392539998644,,,068,001,2019_May_30_1312,MusicAffectPsychophysiology2019,3.0.5,59.92832428587972,
To what extent did the music make you feel ,ANGRY,30MonoWAV/30MonoS1.wav,1,1,3,9,,,,,0,8,8,8,0,2,2,2,,,,,,,,,1,1.801709327999788,,,068,001,2019_May_30_1312,MusicAffectPsychophysiology2019,3.0.5,59.92832428587972,
To what extent did the music make you feel ,ALERT,30MonoWAV/30MonoS1.wav,1,1,3,9,,,,,0,8,8,8,0,3,3,8,,,,,,,,,1,1.168358858000147,,,068,001,2019_May_30_1312,MusicAffectPsychophysiology2019,3.0.5,59.92832428587972,
To what extent did the music make you feel ,SCARED,30MonoWAV/30MonoS1.wav,1,1,3,9,,,,,0,8,8,8,0,4,4,11,,,,,,,,,1,1.201610397999957,,,068,001,2019_May_30_1312,MusicAffectPsychophysiology2019,3.0.5,59.92832428587972,
To what extent did the music make you feel ,EXCITED,30MonoWAV/30MonoS1.wav,1,1,3,9,,,,,0,8,8,8,0,5,5,7,,,,,,,,,1,1.1517795910001496,,,068,001,2019_May_30_1312,MusicAffectPsychophysiology2019,3.0.5,59.92832428587972,
To what extent did the music make you feel ,ASHAMED,30MonoWAV/30MonoS1.wav,1,1,3,9,,,,,0,8,8,8,0,6,6,4,,,,,,,,,3,2.6015940540000884,,,068,001,2019_May_30_1312,MusicAffectPsychophysiology2019,3.0.5,59.92832428587972,
To what extent did the music make you feel ,ANXIOUS ,30MonoWAV/30MonoS1.wav,1,1,3,9,,,,,0,8,8,8,0,7,7,1,,,,,,,,,1,1.401991604000159,,,068,001,2019_May_30_1312,MusicAffectPsychophysiology2019,3.0.5,59.92832428587972,
To what extent did the music make you feel ,ACTIVE,30MonoWAV/30MonoS1.wav,1,1,3,9,,,,,0,8,8,8,0,8,8,9,,,,,,,,,1,1.3672664979999354,,,068,001,2019_May_30_1312,MusicAffectPsychophysiology2019,3.0.5,59.92832428587972,
To what extent did the music make you feel ,HAPPY,30MonoWAV/30MonoS1.wav,1,1,3,9,,,,,0,8,8,8,0,9,9,6,,,,,,,,,1,1.6009894359999635,,,068,001,2019_May_30_1312,MusicAffectPsychophysiology2019,3.0.5,59.92832428587972,
To what extent did the music make you feel ,GUILTY,30MonoWAV/30MonoS1.wav,1,1,3,9,,,,,0,8,8,8,0,10,10,5,,,,,,,,,4,1.6519058920000589,,,068,001,2019_May_30_1312,MusicAffectPsychophysiology2019,3.0.5,59.92832428587972,
To what extent did the music make you feel ,FRUSTRATED,30MonoWAV/30MonoS1.wav,1,1,3,9,,,,,0,8,8,8,0,11,11,3,,,,,,,,,1,1.6852862040000218,,,068,001,2019_May_30_1312,MusicAffectPsychophysiology2019,3.0.5,59.92832428587972,
,,30MonoWAV/30MonoS1.wav,1,1,3,9,,,,,0,8,8,8,,,,,,,,,,,,,,,,,068,001,2019_May_30_1312,MusicAffectPsychophysiology2019,3.0.5,59.92832428587972,
To what extent did the music make you feel ,GUILTY,30MonoWAV/30MonoS2.wav,1,1,3,10,,,,,0,9,9,9,0,0,0,5,,,1,3.7517263100000946,2,3.1684427659999983,3,3.2561047249998865,3,4.907630618999974,,,068,001,2019_May_30_1312,MusicAffectPsychophysiology2019,3.0.5,59.92832428587972,
To what extent did the music make you feel ,TENDER,30MonoWAV/30MonoS2.wav,1,1,3,10,,,,,0,9,9,9,0,1,1,10,,,,,,,,,3,1.655895965000127,,,068,001,2019_May_30_1312,MusicAffectPsychophysiology2019,3.0.5,59.92832428587972,
To what extent did the music make you feel ,HAPPY,30MonoWAV/30MonoS2.wav,1,1,3,10,,,,,0,9,9,9,0,2,2,6,,,,,,,,,1,1.1020988309999211,,,068,001,2019_May_30_1312,MusicAffectPsychophysiology2019,3.0.5,59.92832428587972,
To what extent did the music make you feel ,ACTIVE,30MonoWAV/30MonoS2.wav,1,1,3,10,,,,,0,9,9,9,0,3,3,9,,,,,,,,,1,1.784374489000129,,,068,001,2019_May_30_1312,MusicAffectPsychophysiology2019,3.0.5,59.92832428587972,
To what extent did the music make you feel ,ANGRY,30MonoWAV/30MonoS2.wav,1,1,3,10,,,,,0,9,9,9,0,4,4,2,,,,,,,,,1,0.9346390549999342,,,068,001,2019_May_30_1312,MusicAffectPsychophysiology2019,3.0.5,59.92832428587972,
To what extent did the music make you feel ,SCARED,30MonoWAV/30MonoS2.wav,1,1,3,10,,,,,0,9,9,9,0,5,5,11,,,,,,,,,1,2.5334653940001317,,,068,001,2019_May_30_1312,MusicAffectPsychophysiology2019,3.0.5,59.92832428587972,
To what extent did the music make you feel ,EXCITED,30MonoWAV/30MonoS2.wav,1,1,3,10,,,,,0,9,9,9,0,6,6,7,,,,,,,,,1,2.1679458450000766,,,068,001,2019_May_30_1312,MusicAffectPsychophysiology2019,3.0.5,59.92832428587972,
To what extent did the music make you feel ,ANXIOUS ,30MonoWAV/30MonoS2.wav,1,1,3,10,,,,,0,9,9,9,0,7,7,1,,,,,,,,,4,1.5677467049999905,,,068,001,2019_May_30_1312,MusicAffectPsychophysiology2019,3.0.5,59.92832428587972,
To what extent did the music make you feel ,FRUSTRATED,30MonoWAV/30MonoS2.wav,1,1,3,10,,,,,0,9,9,9,0,8,8,3,,,,,,,,,1,0.8015046499999698,,,068,001,2019_May_30_1312,MusicAffectPsychophysiology2019,3.0.5,59.92832428587972,
To what extent did the music make you feel ,ALERT,30MonoWAV/30MonoS2.wav,1,1,3,10,,,,,0,9,9,9,0,9,9,8,,,,,,,,,1,1.3850949809998383,,,068,001,2019_May_30_1312,MusicAffectPsychophysiology2019,3.0.5,59.92832428587972,
To what extent did the music make you feel ,ASHAMED,30MonoWAV/30MonoS2.wav,1,1,3,10,,,,,0,9,9,9,0,10,10,4,,,,,,,,,1,2.634322597999926,,,068,001,2019_May_30_1312,MusicAffectPsychophysiology2019,3.0.5,59.92832428587972,
To what extent did the music make you feel ,SAD,30MonoWAV/30MonoS2.wav,1,1,3,10,,,,,0,9,9,9,0,11,11,0,,,,,,,,,4,1.518034456000123,,,068,001,2019_May_30_1312,MusicAffectPsychophysiology2019,3.0.5,59.92832428587972,
,,30MonoWAV/30MonoS2.wav,1,1,3,10,,,,,0,9,9,9,,,,,,,,,,,,,,,,,068,001,2019_May_30_1312,MusicAffectPsychophysiology2019,3.0.5,59.92832428587972,
To what extent did the music make you feel ,ANXIOUS ,30MonoWAV/30MonoH1.wav,2,2,1,5,,,,,0,10,10,4,0,0,0,1,,,5,3.8506988910000928,5,2.7350395710000157,4,3.082866053000089,1,1.3668148279998604,,,068,001,2019_May_30_1312,MusicAffectPsychophysiology2019,3.0.5,59.92832428587972,
To what extent did the music make you feel ,HAPPY,30MonoWAV/30MonoH1.wav,2,2,1,5,,,,,0,10,10,4,0,1,1,6,,,,,,,,,4,1.2187659020000865,,,068,001,2019_May_30_1312,MusicAffectPsychophysiology2019,3.0.5,59.92832428587972,
To what extent did the music make you feel ,TENDER,30MonoWAV/30MonoH1.wav,2,2,1,5,,,,,0,10,10,4,0,2,2,10,,,,,,,,,2,1.3849743650000619,,,068,001,2019_May_30_1312,MusicAffectPsychophysiology2019,3.0.5,59.92832428587972,
To what extent did the music make you feel ,SAD,30MonoWAV/30MonoH1.wav,2,2,1,5,,,,,0,10,10,4,0,3,3,0,,,,,,,,,1,1.2678607249999914,,,068,001,2019_May_30_1312,MusicAffectPsychophysiology2019,3.0.5,59.92832428587972,
To what extent did the music make you feel ,ANGRY,30MonoWAV/30MonoH1.wav,2,2,1,5,,,,,0,10,10,4,0,4,4,2,,,,,,,,,1,1.2677495699999781,,,068,001,2019_May_30_1312,MusicAffectPsychophysiology2019,3.0.5,59.92832428587972,
To what extent did the music make you feel ,FRUSTRATED,30MonoWAV/30MonoH1.wav,2,2,1,5,,,,,0,10,10,4,0,5,5,3,,,,,,,,,1,2.4504790519999915,,,068,001,2019_May_30_1312,MusicAffectPsychophysiology2019,3.0.5,59.92832428587972,
To what extent did the music make you feel ,GUILTY,30MonoWAV/30MonoH1.wav,2,2,1,5,,,,,0,10,10,4,0,6,6,5,,,,,,,,,1,0.9496283139999377,,,068,001,2019_May_30_1312,MusicAffectPsychophysiology2019,3.0.5,59.92832428587972,
To what extent did the music make you feel ,ASHAMED,30MonoWAV/30MonoH1.wav,2,2,1,5,,,,,0,10,10,4,0,7,7,4,,,,,,,,,1,0.8363368789998731,,,068,001,2019_May_30_1312,MusicAffectPsychophysiology2019,3.0.5,59.92832428587972,
To what extent did the music make you feel ,ACTIVE,30MonoWAV/30MonoH1.wav,2,2,1,5,,,,,0,10,10,4,0,8,8,9,,,,,,,,,5,1.2191945849999684,,,068,001,2019_May_30_1312,MusicAffectPsychophysiology2019,3.0.5,59.92832428587972,
To what extent did the music make you feel ,SCARED,30MonoWAV/30MonoH1.wav,2,2,1,5,,,,,0,10,10,4,0,9,9,11,,,,,,,,,1,0.9837832059999982,,,068,001,2019_May_30_1312,MusicAffectPsychophysiology2019,3.0.5,59.92832428587972,
To what extent did the music make you feel ,ALERT,30MonoWAV/30MonoH1.wav,2,2,1,5,,,,,0,10,10,4,0,10,10,8,,,,,,,,,2,1.9378017050000835,,,068,001,2019_May_30_1312,MusicAffectPsychophysiology2019,3.0.5,59.92832428587972,
To what extent did the music make you feel ,EXCITED,30MonoWAV/30MonoH1.wav,2,2,1,5,,,,,0,10,10,4,0,11,11,7,,,,,,,,,5,1.2670647150000605,,,068,001,2019_May_30_1312,MusicAffectPsychophysiology2019,3.0.5,59.92832428587972,
,,30MonoWAV/30MonoH1.wav,2,2,1,5,,,,,0,10,10,4,,,,,,,,,,,,,,,,,068,001,2019_May_30_1312,MusicAffectPsychophysiology2019,3.0.5,59.92832428587972,
To what extent did the music make you feel ,HAPPY,30MonoWAV/30MonoT1.wav,2,1,4,13,,,,,0,11,11,12,0,0,0,6,,,2,4.7188711670000885,4,1.7338575950000177,4,1.4023705940001037,3,3.6677749549999135,,,068,001,2019_May_30_1312,MusicAffectPsychophysiology2019,3.0.5,59.92832428587972,
To what extent did the music make you feel ,ANGRY,30MonoWAV/30MonoT1.wav,2,1,4,13,,,,,0,11,11,12,0,1,1,2,,,,,,,,,1,1.0857593729999735,,,068,001,2019_May_30_1312,MusicAffectPsychophysiology2019,3.0.5,59.92832428587972,
To what extent did the music make you feel ,GUILTY,30MonoWAV/30MonoT1.wav,2,1,4,13,,,,,0,11,11,12,0,2,2,5,,,,,,,,,1,0.636102942999969,,,068,001,2019_May_30_1312,MusicAffectPsychophysiology2019,3.0.5,59.92832428587972,
To what extent did the music make you feel ,TENDER,30MonoWAV/30MonoT1.wav,2,1,4,13,,,,,0,11,11,12,0,3,3,10,,,,,,,,,4,1.335025136000013,,,068,001,2019_May_30_1312,MusicAffectPsychophysiology2019,3.0.5,59.92832428587972,
To what extent did the music make you feel ,ACTIVE,30MonoWAV/30MonoT1.wav,2,1,4,13,,,,,0,11,11,12,0,4,4,9,,,,,,,,,2,2.718033410000089,,,068,001,2019_May_30_1312,MusicAffectPsychophysiology2019,3.0.5,59.92832428587972,
To what extent did the music make you feel ,SCARED,30MonoWAV/30MonoT1.wav,2,1,4,13,,,,,0,11,11,12,0,5,5,11,,,,,,,,,1,1.0856382360000225,,,068,001,2019_May_30_1312,MusicAffectPsychophysiology2019,3.0.5,59.92832428587972,
To what extent did the music make you feel ,ANXIOUS ,30MonoWAV/30MonoT1.wav,2,1,4,13,,,,,0,11,11,12,0,6,6,1,,,,,,,,,1,1.984911450000027,,,068,001,2019_May_30_1312,MusicAffectPsychophysiology2019,3.0.5,59.92832428587972,
To what extent did the music make you feel ,FRUSTRATED,30MonoWAV/30MonoT1.wav,2,1,4,13,,,,,0,11,11,12,0,7,7,3,,,,,,,,,1,0.7023794719998477,,,068,001,2019_May_30_1312,MusicAffectPsychophysiology2019,3.0.5,59.92832428587972,
To what extent did the music make you feel ,ALERT,30MonoWAV/30MonoT1.wav,2,1,4,13,,,,,0,11,11,12,0,8,8,8,,,,,,,,,1,1.534870557999966,,,068,001,2019_May_30_1312,MusicAffectPsychophysiology2019,3.0.5,59.92832428587972,
To what extent did the music make you feel ,EXCITED,30MonoWAV/30MonoT1.wav,2,1,4,13,,,,,0,11,11,12,0,9,9,7,,,,,,,,,3,3.435516667999991,,,068,001,2019_May_30_1312,MusicAffectPsychophysiology2019,3.0.5,59.92832428587972,
To what extent did the music make you feel ,ASHAMED,30MonoWAV/30MonoT1.wav,2,1,4,13,,,,,0,11,11,12,0,10,10,4,,,,,,,,,1,1.0350507500002095,,,068,001,2019_May_30_1312,MusicAffectPsychophysiology2019,3.0.5,59.92832428587972,
To what extent did the music make you feel ,SAD,30MonoWAV/30MonoT1.wav,2,1,4,13,,,,,0,11,11,12,0,11,11,0,,,,,,,,,2,2.317564229000027,,,068,001,2019_May_30_1312,MusicAffectPsychophysiology2019,3.0.5,59.92832428587972,
,,30MonoWAV/30MonoT1.wav,2,1,4,13,,,,,0,11,11,12,,,,,,,,,,,,,,,,,068,001,2019_May_30_1312,MusicAffectPsychophysiology2019,3.0.5,59.92832428587972,
To what extent did the music make you feel ,ANXIOUS ,30MonoWAV/30MonoT4.wav,2,1,4,16,,,,,0,12,12,15,0,0,0,1,,,3,3.9012214270001095,4,1.8694037650002429,4,1.251172731999759,1,1.3682068510001955,,,068,001,2019_May_30_1312,MusicAffectPsychophysiology2019,3.0.5,59.92832428587972,
To what extent did the music make you feel ,ASHAMED,30MonoWAV/30MonoT4.wav,2,1,4,16,,,,,0,12,12,15,0,1,1,4,,,,,,,,,1,0.6682715609999832,,,068,001,2019_May_30_1312,MusicAffectPsychophysiology2019,3.0.5,59.92832428587972,
To what extent did the music make you feel ,SCARED,30MonoWAV/30MonoT4.wav,2,1,4,16,,,,,0,12,12,15,0,2,2,11,,,,,,,,,1,1.1188267249999626,,,068,001,2019_May_30_1312,MusicAffectPsychophysiology2019,3.0.5,59.92832428587972,
To what extent did the music make you feel ,TENDER,30MonoWAV/30MonoT4.wav,2,1,4,16,,,,,0,12,12,15,0,3,3,10,,,,,,,,,4,1.2853829579999,,,068,001,2019_May_30_1312,MusicAffectPsychophysiology2019,3.0.5,59.92832428587972,
To what extent did the music make you feel ,ACTIVE,30MonoWAV/30MonoT4.wav,2,1,4,16,,,,,0,12,12,15,0,4,4,9,,,,,,,,,2,2.4844880629998443,,,068,001,2019_May_30_1312,MusicAffectPsychophysiology2019,3.0.5,59.92832428587972,
To what extent did the music make you feel ,GUILTY,30MonoWAV/30MonoT4.wav,2,1,4,16,,,,,0,12,12,15,0,5,5,5,,,,,,,,,1,1.3002231200002825,,,068,001,2019_May_30_1312,MusicAffectPsychophysiology2019,3.0.5,59.92832428587972,
To what extent did the music make you feel ,EXCITED,30MonoWAV/30MonoT4.wav,2,1,4,16,,,,,0,12,12,15,0,6,6,7,,,,,,,,,2,1.451886107000064,,,068,001,2019_May_30_1312,MusicAffectPsychophysiology2019,3.0.5,59.92832428587972,
To what extent did the music make you feel ,ALERT,30MonoWAV/30MonoT4.wav,2,1,4,16,,,,,0,12,12,15,0,7,7,8,,,,,,,,,1,1.5339911510000093,,,068,001,2019_May_30_1312,MusicAffectPsychophysiology2019,3.0.5,59.92832428587972,
To what extent did the music make you feel ,HAPPY,30MonoWAV/30MonoT4.wav,2,1,4,16,,,,,0,12,12,15,0,8,8,6,,,,,,,,,3,1.8850808610000058,,,068,001,2019_May_30_1312,MusicAffectPsychophysiology2019,3.0.5,59.92832428587972,
To what extent did the music make you feel ,FRUSTRATED,30MonoWAV/30MonoT4.wav,2,1,4,16,,,,,0,12,12,15,0,9,9,3,,,,,,,,,1,1.2856218710003304,,,068,001,2019_May_30_1312,MusicAffectPsychophysiology2019,3.0.5,59.92832428587972,
To what extent did the music make you feel ,SAD,30MonoWAV/30MonoT4.wav,2,1,4,16,,,,,0,12,12,15,0,10,10,0,,,,,,,,,1,1.5343811929997173,,,068,001,2019_May_30_1312,MusicAffectPsychophysiology2019,3.0.5,59.92832428587972,
To what extent did the music make you feel ,ANGRY,30MonoWAV/30MonoT4.wav,2,1,4,16,,,,,0,12,12,15,0,11,11,2,,,,,,,,,1,1.1023007489998236,,,068,001,2019_May_30_1312,MusicAffectPsychophysiology2019,3.0.5,59.92832428587972,
,,30MonoWAV/30MonoT4.wav,2,1,4,16,,,,,0,12,12,15,,,,,,,,,,,,,,,,,068,001,2019_May_30_1312,MusicAffectPsychophysiology2019,3.0.5,59.92832428587972,
To what extent did the music make you feel ,ASHAMED,30MonoWAV/30MonoF3.wav,1,2,2,3,,,,,0,13,13,2,0,0,0,4,,,4,3.2510638889998518,2,1.335441793999962,3,1.90215119100003,1,1.38411975300005,,,068,001,2019_May_30_1312,MusicAffectPsychophysiology2019,3.0.5,59.92832428587972,
To what extent did the music make you feel ,ALERT,30MonoWAV/30MonoF3.wav,1,2,2,3,,,,,0,13,13,2,0,1,1,8,,,,,,,,,5,1.218936002999726,,,068,001,2019_May_30_1312,MusicAffectPsychophysiology2019,3.0.5,59.92832428587972,
To what extent did the music make you feel ,SCARED,30MonoWAV/30MonoF3.wav,1,2,2,3,,,,,0,13,13,2,0,2,2,11,,,,,,,,,2,1.4024416449997261,,,068,001,2019_May_30_1312,MusicAffectPsychophysiology2019,3.0.5,59.92832428587972,
To what extent did the music make you feel ,GUILTY,30MonoWAV/30MonoF3.wav,1,2,2,3,,,,,0,13,13,2,0,3,3,5,,,,,,,,,1,1.152158672999576,,,068,001,2019_May_30_1312,MusicAffectPsychophysiology2019,3.0.5,59.92832428587972,
To what extent did the music make you feel ,HAPPY,30MonoWAV/30MonoF3.wav,1,2,2,3,,,,,0,13,13,2,0,4,4,6,,,,,,,,,1,2.3674057000002904,,,068,001,2019_May_30_1312,MusicAffectPsychophysiology2019,3.0.5,59.92832428587972,
To what extent did the music make you feel ,ANGRY,30MonoWAV/30MonoF3.wav,1,2,2,3,,,,,0,13,13,2,0,5,5,2,,,,,,,,,4,1.3855366719999438,,,068,001,2019_May_30_1312,MusicAffectPsychophysiology2019,3.0.5,59.92832428587972,
To what extent did the music make you feel ,FRUSTRATED,30MonoWAV/30MonoF3.wav,1,2,2,3,,,,,0,13,13,2,0,6,6,3,,,,,,,,,1,1.819437741999991,,,068,001,2019_May_30_1312,MusicAffectPsychophysiology2019,3.0.5,59.92832428587972,
To what extent did the music make you feel ,EXCITED,30MonoWAV/30MonoF3.wav,1,2,2,3,,,,,0,13,13,2,0,7,7,7,,,,,,,,,4,1.2851180579996253,,,068,001,2019_May_30_1312,MusicAffectPsychophysiology2019,3.0.5,59.92832428587972,
To what extent did the music make you feel ,TENDER,30MonoWAV/30MonoF3.wav,1,2,2,3,,,,,0,13,13,2,0,8,8,10,,,,,,,,,1,1.2017089739997573,,,068,001,2019_May_30_1312,MusicAffectPsychophysiology2019,3.0.5,59.92832428587972,
To what extent did the music make you feel ,ACTIVE,30MonoWAV/30MonoF3.wav,1,2,2,3,,,,,0,13,13,2,0,9,9,9,,,,,,,,,4,1.2851540769997882,,,068,001,2019_May_30_1312,MusicAffectPsychophysiology2019,3.0.5,59.92832428587972,
To what extent did the music make you feel ,ANXIOUS ,30MonoWAV/30MonoF3.wav,1,2,2,3,,,,,0,13,13,2,0,10,10,1,,,,,,,,,2,3.0349568050000926,,,068,001,2019_May_30_1312,MusicAffectPsychophysiology2019,3.0.5,59.92832428587972,
To what extent did the music make you feel ,SAD,30MonoWAV/30MonoF3.wav,1,2,2,3,,,,,0,13,13,2,0,11,11,0,,,,,,,,,1,1.65209595000033,,,068,001,2019_May_30_1312,MusicAffectPsychophysiology2019,3.0.5,59.92832428587972,
,,30MonoWAV/30MonoF3.wav,1,2,2,3,,,,,0,13,13,2,,,,,,,,,,,,,,,,,068,001,2019_May_30_1312,MusicAffectPsychophysiology2019,3.0.5,59.92832428587972,
To what extent did the music make you feel ,HAPPY,30MonoWAV/30MonoH2.wav,2,2,1,6,,,,,0,14,14,5,0,0,0,6,,,5,3.1813700399998197,4,2.8019090059997325,5,0.6017908260000695,5,1.3680330170000161,,,068,001,2019_May_30_1312,MusicAffectPsychophysiology2019,3.0.5,59.92832428587972,
To what extent did the music make you feel ,ACTIVE,30MonoWAV/30MonoH2.wav,2,2,1,6,,,,,0,14,14,5,0,1,1,9,,,,,,,,,5,1.3350478140000632,,,068,001,2019_May_30_1312,MusicAffectPsychophysiology2019,3.0.5,59.92832428587972,
To what extent did the music make you feel ,SAD,30MonoWAV/30MonoH2.wav,2,2,1,6,,,,,0,14,14,5,0,2,2,0,,,,,,,,,1,1.5022759269995731,,,068,001,2019_May_30_1312,MusicAffectPsychophysiology2019,3.0.5,59.92832428587972,
To what extent did the music make you feel ,ANGRY,30MonoWAV/30MonoH2.wav,2,2,1,6,,,,,0,14,14,5,0,3,3,2,,,,,,,,,1,0.71792662200005,,,068,001,2019_May_30_1312,MusicAffectPsychophysiology2019,3.0.5,59.92832428587972,
To what extent did the music make you feel ,SCARED,30MonoWAV/30MonoH2.wav,2,2,1,6,,,,,0,14,14,5,0,4,4,11,,,,,,,,,1,1.1681707920001827,,,068,001,2019_May_30_1312,MusicAffectPsychophysiology2019,3.0.5,59.92832428587972,
To what extent did the music make you feel ,GUILTY,30MonoWAV/30MonoH2.wav,2,2,1,6,,,,,0,14,14,5,0,5,5,5,,,,,,,,,1,0.7681927210001049,,,068,001,2019_May_30_1312,MusicAffectPsychophysiology2019,3.0.5,59.92832428587972,
To what extent did the music make you feel ,FRUSTRATED,30MonoWAV/30MonoH2.wav,2,2,1,6,,,,,0,14,14,5,0,6,6,3,,,,,,,,,1,0.601729842000168,,,068,001,2019_May_30_1312,MusicAffectPsychophysiology2019,3.0.5,59.92832428587972,
To what extent did the music make you feel ,ALERT,30MonoWAV/30MonoH2.wav,2,2,1,6,,,,,0,14,14,5,0,7,7,8,,,,,,,,,4,1.8013821839999764,,,068,001,2019_May_30_1312,MusicAffectPsychophysiology2019,3.0.5,59.92832428587972,
To what extent did the music make you feel ,ASHAMED,30MonoWAV/30MonoH2.wav,2,2,1,6,,,,,0,14,14,5,0,8,8,4,,,,,,,,,1,1.1853250069998467,,,068,001,2019_May_30_1312,MusicAffectPsychophysiology2019,3.0.5,59.92832428587972,
To what extent did the music make you feel ,EXCITED,30MonoWAV/30MonoH2.wav,2,2,1,6,,,,,0,14,14,5,0,9,9,7,,,,,,,,,4,3.251218618999701,,,068,001,2019_May_30_1312,MusicAffectPsychophysiology2019,3.0.5,59.92832428587972,
To what extent did the music make you feel ,ANXIOUS ,30MonoWAV/30MonoH2.wav,2,2,1,6,,,,,0,14,14,5,0,10,10,1,,,,,,,,,1,1.0350887130002775,,,068,001,2019_May_30_1312,MusicAffectPsychophysiology2019,3.0.5,59.92832428587972,
To what extent did the music make you feel ,TENDER,30MonoWAV/30MonoH2.wav,2,2,1,6,,,,,0,14,14,5,0,11,11,10,,,,,,,,,2,1.4832480979998763,,,068,001,2019_May_30_1312,MusicAffectPsychophysiology2019,3.0.5,59.92832428587972,
,,30MonoWAV/30MonoH2.wav,2,2,1,6,,,,,0,14,14,5,,,,,,,,,,,,,,,,,068,001,2019_May_30_1312,MusicAffectPsychophysiology2019,3.0.5,59.92832428587972,
To what extent did the music make you feel ,ALERT,30MonoWAV/30MonoT2.wav,2,1,4,14,,,,,0,15,15,13,0,0,0,8,,,2,5.051747665000221,2,2.5842740099997172,4,1.6018220509999992,1,2.0349510730002294,,,068,001,2019_May_30_1312,MusicAffectPsychophysiology2019,3.0.5,59.92832428587972,
To what extent did the music make you feel ,TENDER,30MonoWAV/30MonoT2.wav,2,1,4,14,,,,,0,15,15,13,0,1,1,10,,,,,,,,,4,1.3021702680002818,,,068,001,2019_May_30_1312,MusicAffectPsychophysiology2019,3.0.5,59.92832428587972,
To what extent did the music make you feel ,FRUSTRATED,30MonoWAV/30MonoT2.wav,2,1,4,14,,,,,0,15,15,13,0,2,2,3,,,,,,,,,1,1.3016847039998538,,,068,001,2019_May_30_1312,MusicAffectPsychophysiology2019,3.0.5,59.92832428587972,
To what extent did the music make you feel ,EXCITED,30MonoWAV/30MonoT2.wav,2,1,4,14,,,,,0,15,15,13,0,3,3,7,,,,,,,,,1,1.584610166999937,,,068,001,2019_May_30_1312,MusicAffectPsychophysiology2019,3.0.5,59.92832428587972,
To what extent did the music make you feel ,HAPPY,30MonoWAV/30MonoT2.wav,2,1,4,14,,,,,0,15,15,13,0,4,4,6,,,,,,,,,2,2.851720624000336,,,068,001,2019_May_30_1312,MusicAffectPsychophysiology2019,3.0.5,59.92832428587972,
To what extent did the music make you feel ,ASHAMED,30MonoWAV/30MonoT2.wav,2,1,4,14,,,,,0,15,15,13,0,5,5,4,,,,,,,,,1,1.4013980109998556,,,068,001,2019_May_30_1312,MusicAffectPsychophysiology2019,3.0.5,59.92832428587972,
To what extent did the music make you feel ,ANXIOUS ,30MonoWAV/30MonoT2.wav,2,1,4,14,,,,,0,15,15,13,0,6,6,1,,,,,,,,,2,1.6179550839997319,,,068,001,2019_May_30_1312,MusicAffectPsychophysiology2019,3.0.5,59.92832428587972,
To what extent did the music make you feel ,GUILTY,30MonoWAV/30MonoT2.wav,2,1,4,14,,,,,0,15,15,13,0,7,7,5,,,,,,,,,2,2.2013634029999594,,,068,001,2019_May_30_1312,MusicAffectPsychophysiology2019,3.0.5,59.92832428587972,
To what extent did the music make you feel ,SAD,30MonoWAV/30MonoT2.wav,2,1,4,14,,,,,0,15,15,13,0,8,8,0,,,,,,,,,4,1.4181338459998187,,,068,001,2019_May_30_1312,MusicAffectPsychophysiology2019,3.0.5,59.92832428587972,
To what extent did the music make you feel ,SCARED,30MonoWAV/30MonoT2.wav,2,1,4,14,,,,,0,15,15,13,0,9,9,11,,,,,,,,,1,1.8346087149998311,,,068,001,2019_May_30_1312,MusicAffectPsychophysiology2019,3.0.5,59.92832428587972,
To what extent did the music make you feel ,ANGRY,30MonoWAV/30MonoT2.wav,2,1,4,14,,,,,0,15,15,13,0,10,10,2,,,,,,,,,1,1.268574709999939,,,068,001,2019_May_30_1312,MusicAffectPsychophysiology2019,3.0.5,59.92832428587972,
To what extent did the music make you feel ,ACTIVE,30MonoWAV/30MonoT2.wav,2,1,4,14,,,,,0,15,15,13,0,11,11,9,,,,,,,,,2,1.4512606069997673,,,068,001,2019_May_30_1312,MusicAffectPsychophysiology2019,3.0.5,59.92832428587972,
,,30MonoWAV/30MonoT2.wav,2,1,4,14,,,,,0,15,15,13,,,,,,,,,,,,,,,,,068,001,2019_May_30_1312,MusicAffectPsychophysiology2019,3.0.5,59.92832428587972,
To what extent did the music make you feel ,ANGRY,30MonoWAV/30MonoS1.wav,1,1,3,9,,,,,1,0,16,8,0,0,0,2,,,1,3.800547763000395,2,7.3011091949997535,3,1.768667970000024,1,1.2181476519999705,,,068,001,2019_May_30_1312,MusicAffectPsychophysiology2019,3.0.5,59.92832428587972,
To what extent did the music make you feel ,SAD,30MonoWAV/30MonoS1.wav,1,1,3,9,,,,,1,0,16,8,0,1,1,0,,,,,,,,,4,1.2178533300002528,,,068,001,2019_May_30_1312,MusicAffectPsychophysiology2019,3.0.5,59.92832428587972,
To what extent did the music make you feel ,ASHAMED,30MonoWAV/30MonoS1.wav,1,1,3,9,,,,,1,0,16,8,0,2,2,4,,,,,,,,,1,2.0689849939999476,,,068,001,2019_May_30_1312,MusicAffectPsychophysiology2019,3.0.5,59.92832428587972,
To what extent did the music make you feel ,ANXIOUS ,30MonoWAV/30MonoS1.wav,1,1,3,9,,,,,1,0,16,8,0,3,3,1,,,,,,,,,2,1.385331665999729,,,068,001,2019_May_30_1312,MusicAffectPsychophysiology2019,3.0.5,59.92832428587972,
To what extent did the music make you feel ,EXCITED,30MonoWAV/30MonoS1.wav,1,1,3,9,,,,,1,0,16,8,0,4,4,7,,,,,,,,,1,0.884722729999794,,,068,001,2019_May_30_1312,MusicAffectPsychophysiology2019,3.0.5,59.92832428587972,
To what extent did the music make you feel ,ALERT,30MonoWAV/30MonoS1.wav,1,1,3,9,,,,,1,0,16,8,0,5,5,8,,,,,,,,,1,0.8681964830002471,,,068,001,2019_May_30_1312,MusicAffectPsychophysiology2019,3.0.5,59.92832428587972,
To what extent did the music make you feel ,FRUSTRATED,30MonoWAV/30MonoS1.wav,1,1,3,9,,,,,1,0,16,8,0,6,6,3,,,,,,,,,3,1.7849845840000853,,,068,001,2019_May_30_1312,MusicAffectPsychophysiology2019,3.0.5,59.92832428587972,
To what extent did the music make you feel ,ACTIVE,30MonoWAV/30MonoS1.wav,1,1,3,9,,,,,1,0,16,8,0,7,7,9,,,,,,,,,1,3.2177950350001083,,,068,001,2019_May_30_1312,MusicAffectPsychophysiology2019,3.0.5,59.92832428587972,
To what extent did the music make you feel ,SCARED,30MonoWAV/30MonoS1.wav,1,1,3,9,,,,,1,0,16,8,0,8,8,11,,,,,,,,,2,1.9354259860001548,,,068,001,2019_May_30_1312,MusicAffectPsychophysiology2019,3.0.5,59.92832428587972,
To what extent did the music make you feel ,HAPPY,30MonoWAV/30MonoS1.wav,1,1,3,9,,,,,1,0,16,8,0,9,9,6,,,,,,,,,1,1.0169772689996535,,,068,001,2019_May_30_1312,MusicAffectPsychophysiology2019,3.0.5,59.92832428587972,
To what extent did the music make you feel ,TENDER,30MonoWAV/30MonoS1.wav,1,1,3,9,,,,,1,0,16,8,0,10,10,10,,,,,,,,,3,1.5835927600001014,,,068,001,2019_May_30_1312,MusicAffectPsychophysiology2019,3.0.5,59.92832428587972,
To what extent did the music make you feel ,GUILTY,30MonoWAV/30MonoS1.wav,1,1,3,9,,,,,1,0,16,8,0,11,11,5,,,,,,,,,2,2.202287909000006,,,068,001,2019_May_30_1312,MusicAffectPsychophysiology2019,3.0.5,59.92832428587972,
,,30MonoWAV/30MonoS1.wav,1,1,3,9,,,,,1,0,16,8,,,,,,,,,,,,,,,,,068,001,2019_May_30_1312,MusicAffectPsychophysiology2019,3.0.5,59.92832428587972,
To what extent did the music make you feel ,ACTIVE,30MonoWAV/30MonoF4.wav,1,2,2,4,,,,,1,1,17,3,0,0,0,9,,,5,2.4715861039999254,2,1.9539893289997963,4,1.9240382449997924,5,2.232919703999869,,,068,001,2019_May_30_1312,MusicAffectPsychophysiology2019,3.0.5,59.92832428587972,
To what extent did the music make you feel ,HAPPY,30MonoWAV/30MonoF4.wav,1,2,2,4,,,,,1,1,17,3,0,1,1,6,,,,,,,,,2,1.9198488920001182,,,068,001,2019_May_30_1312,MusicAffectPsychophysiology2019,3.0.5,59.92832428587972,
To what extent did the music make you feel ,ALERT,30MonoWAV/30MonoF4.wav,1,2,2,4,,,,,1,1,17,3,0,2,2,8,,,,,,,,,5,1.1187883020002118,,,068,001,2019_May_30_1312,MusicAffectPsychophysiology2019,3.0.5,59.92832428587972,
To what extent did the music make you feel ,FRUSTRATED,30MonoWAV/30MonoF4.wav,1,2,2,4,,,,,1,1,17,3,0,3,3,3,,,,,,,,,2,1.2847653300000275,,,068,001,2019_May_30_1312,MusicAffectPsychophysiology2019,3.0.5,59.92832428587972,
To what extent did the music make you feel ,TENDER,30MonoWAV/30MonoF4.wav,1,2,2,4,,,,,1,1,17,3,0,4,4,10,,,,,,,,,1,1.1529067649998979,,,068,001,2019_May_30_1312,MusicAffectPsychophysiology2019,3.0.5,59.92832428587972,
To what extent did the music make you feel ,SCARED,30MonoWAV/30MonoF4.wav,1,2,2,4,,,,,1,1,17,3,0,5,5,11,,,,,,,,,4,1.5188600249998672,,,068,001,2019_May_30_1312,MusicAffectPsychophysiology2019,3.0.5,59.92832428587972,
To what extent did the music make you feel ,EXCITED,30MonoWAV/30MonoF4.wav,1,2,2,4,,,,,1,1,17,3,0,6,6,7,,,,,,,,,5,2.0840852110000014,,,068,001,2019_May_30_1312,MusicAffectPsychophysiology2019,3.0.5,59.92832428587972,
To what extent did the music make you feel ,GUILTY,30MonoWAV/30MonoF4.wav,1,2,2,4,,,,,1,1,17,3,0,7,7,5,,,,,,,,,1,1.084911379999994,,,068,001,2019_May_30_1312,MusicAffectPsychophysiology2019,3.0.5,59.92832428587972,
To what extent did the music make you feel ,SAD,30MonoWAV/30MonoF4.wav,1,2,2,4,,,,,1,1,17,3,0,8,8,0,,,,,,,,,2,1.8670273750003616,,,068,001,2019_May_30_1312,MusicAffectPsychophysiology2019,3.0.5,59.92832428587972,
To what extent did the music make you feel ,ANXIOUS ,30MonoWAV/30MonoF4.wav,1,2,2,4,,,,,1,1,17,3,0,9,9,1,,,,,,,,,4,1.4008457960003398,,,068,001,2019_May_30_1312,MusicAffectPsychophysiology2019,3.0.5,59.92832428587972,
To what extent did the music make you feel ,ASHAMED,30MonoWAV/30MonoF4.wav,1,2,2,4,,,,,1,1,17,3,0,10,10,4,,,,,,,,,1,1.2192281180000464,,,068,001,2019_May_30_1312,MusicAffectPsychophysiology2019,3.0.5,59.92832428587972,
To what extent did the music make you feel ,ANGRY,30MonoWAV/30MonoF4.wav,1,2,2,4,,,,,1,1,17,3,0,11,11,2,,,,,,,,,4,1.9002120579998518,,,068,001,2019_May_30_1312,MusicAffectPsychophysiology2019,3.0.5,59.92832428587972,
,,30MonoWAV/30MonoF4.wav,1,2,2,4,,,,,1,1,17,3,,,,,,,,,,,,,,,,,068,001,2019_May_30_1312,MusicAffectPsychophysiology2019,3.0.5,59.92832428587972,
To what extent did the music make you feel ,ANXIOUS ,30MonoWAV/30MonoT1.wav,2,1,4,13,,,,,1,2,18,12,0,0,0,1,,,1,2.984358818000146,5,1.3190997260003314,5,0.9183947240003363,1,1.3842693999999938,,,068,001,2019_May_30_1312,MusicAffectPsychophysiology2019,3.0.5,59.92832428587972,
To what extent did the music make you feel ,ASHAMED,30MonoWAV/30MonoT1.wav,2,1,4,13,,,,,1,2,18,12,0,1,1,4,,,,,,,,,1,0.6842767899997853,,,068,001,2019_May_30_1312,MusicAffectPsychophysiology2019,3.0.5,59.92832428587972,
To what extent did the music make you feel ,TENDER,30MonoWAV/30MonoT1.wav,2,1,4,13,,,,,1,2,18,12,0,2,2,10,,,,,,,,,5,1.3333889509999608,,,068,001,2019_May_30_1312,MusicAffectPsychophysiology2019,3.0.5,59.92832428587972,
To what extent did the music make you feel ,ALERT,30MonoWAV/30MonoT1.wav,2,1,4,13,,,,,1,2,18,12,0,3,3,8,,,,,,,,,1,1.9522978280001553,,,068,001,2019_May_30_1312,MusicAffectPsychophysiology2019,3.0.5,59.92832428587972,
To what extent did the music make you feel ,SAD,30MonoWAV/30MonoT1.wav,2,1,4,13,,,,,1,2,18,12,0,4,4,0,,,,,,,,,2,1.3181076870000652,,,068,001,2019_May_30_1312,MusicAffectPsychophysiology2019,3.0.5,59.92832428587972,
To what extent did the music make you feel ,FRUSTRATED,30MonoWAV/30MonoT1.wav,2,1,4,13,,,,,1,2,18,12,0,5,5,3,,,,,,,,,1,1.7348533770000358,,,068,001,2019_May_30_1312,MusicAffectPsychophysiology2019,3.0.5,59.92832428587972,
To what extent did the music make you feel ,ANGRY,30MonoWAV/30MonoT1.wav,2,1,4,13,,,,,1,2,18,12,0,6,6,2,,,,,,,,,1,0.8685127919998195,,,068,001,2019_May_30_1312,MusicAffectPsychophysiology2019,3.0.5,59.92832428587972,
To what extent did the music make you feel ,EXCITED,30MonoWAV/30MonoT1.wav,2,1,4,13,,,,,1,2,18,12,0,7,7,7,,,,,,,,,3,2.134501101999831,,,068,001,2019_May_30_1312,MusicAffectPsychophysiology2019,3.0.5,59.92832428587972,
To what extent did the music make you feel ,ACTIVE,30MonoWAV/30MonoT1.wav,2,1,4,13,,,,,1,2,18,12,0,8,8,9,,,,,,,,,3,1.6334571829997913,,,068,001,2019_May_30_1312,MusicAffectPsychophysiology2019,3.0.5,59.92832428587972,
To what extent did the music make you feel ,SCARED,30MonoWAV/30MonoT1.wav,2,1,4,13,,,,,1,2,18,12,0,9,9,11,,,,,,,,,1,3.5353455150002446,,,068,001,2019_May_30_1312,MusicAffectPsychophysiology2019,3.0.5,59.92832428587972,
To what extent did the music make you feel ,HAPPY,30MonoWAV/30MonoT1.wav,2,1,4,13,,,,,1,2,18,12,0,10,10,6,,,,,,,,,5,1.4013382599996476,,,068,001,2019_May_30_1312,MusicAffectPsychophysiology2019,3.0.5,59.92832428587972,
To what extent did the music make you feel ,GUILTY,30MonoWAV/30MonoT1.wav,2,1,4,13,,,,,1,2,18,12,0,11,11,5,,,,,,,,,1,1.1681071570001222,,,068,001,2019_May_30_1312,MusicAffectPsychophysiology2019,3.0.5,59.92832428587972,
,,30MonoWAV/30MonoT1.wav,2,1,4,13,,,,,1,2,18,12,,,,,,,,,,,,,,,,,068,001,2019_May_30_1312,MusicAffectPsychophysiology2019,3.0.5,59.92832428587972,
To what extent did the music make you feel ,ACTIVE,30MonoWAV/30MonoF3.wav,1,2,2,3,,,,,1,3,19,2,0,0,0,9,,,4,6.434071528000004,2,1.4679955600004178,3,1.2846634419997827,4,3.1016351270000087,,,068,001,2019_May_30_1312,MusicAffectPsychophysiology2019,3.0.5,59.92832428587972,
To what extent did the music make you feel ,ASHAMED,30MonoWAV/30MonoF3.wav,1,2,2,3,,,,,1,3,19,2,0,1,1,4,,,,,,,,,2,3.701451549000012,,,068,001,2019_May_30_1312,MusicAffectPsychophysiology2019,3.0.5,59.92832428587972,
To what extent did the music make you feel ,GUILTY,30MonoWAV/30MonoF3.wav,1,2,2,3,,,,,1,3,19,2,0,2,2,5,,,,,,,,,2,1.0511438700000326,,,068,001,2019_May_30_1312,MusicAffectPsychophysiology2019,3.0.5,59.92832428587972,
To what extent did the music make you feel ,HAPPY,30MonoWAV/30MonoF3.wav,1,2,2,3,,,,,1,3,19,2,0,3,3,6,,,,,,,,,2,1.383337372999904,,,068,001,2019_May_30_1312,MusicAffectPsychophysiology2019,3.0.5,59.92832428587972,
To what extent did the music make you feel ,ALERT,30MonoWAV/30MonoF3.wav,1,2,2,3,,,,,1,3,19,2,0,4,4,8,,,,,,,,,4,2.784871356000167,,,068,001,2019_May_30_1312,MusicAffectPsychophysiology2019,3.0.5,59.92832428587972,
To what extent did the music make you feel ,EXCITED,30MonoWAV/30MonoF3.wav,1,2,2,3,,,,,1,3,19,2,0,5,5,7,,,,,,,,,4,1.2522730069999852,,,068,001,2019_May_30_1312,MusicAffectPsychophysiology2019,3.0.5,59.92832428587972,
To what extent did the music make you feel ,TENDER,30MonoWAV/30MonoF3.wav,1,2,2,3,,,,,1,3,19,2,0,6,6,10,,,,,,,,,1,1.1183246880000297,,,068,001,2019_May_30_1312,MusicAffectPsychophysiology2019,3.0.5,59.92832428587972,
To what extent did the music make you feel ,SCARED,30MonoWAV/30MonoF3.wav,1,2,2,3,,,,,1,3,19,2,0,7,7,11,,,,,,,,,3,1.7179365719998714,,,068,001,2019_May_30_1312,MusicAffectPsychophysiology2019,3.0.5,59.92832428587972,
To what extent did the music make you feel ,FRUSTRATED,30MonoWAV/30MonoF3.wav,1,2,2,3,,,,,1,3,19,2,0,8,8,3,,,,,,,,,1,1.7189812789997632,,,068,001,2019_May_30_1312,MusicAffectPsychophysiology2019,3.0.5,59.92832428587972,
To what extent did the music make you feel ,ANGRY,30MonoWAV/30MonoF3.wav,1,2,2,3,,,,,1,3,19,2,0,9,9,2,,,,,,,,,3,1.8853109449996737,,,068,001,2019_May_30_1312,MusicAffectPsychophysiology2019,3.0.5,59.92832428587972,
To what extent did the music make you feel ,SAD,30MonoWAV/30MonoF3.wav,1,2,2,3,,,,,1,3,19,2,0,10,10,0,,,,,,,,,1,2.2182759679999435,,,068,001,2019_May_30_1312,MusicAffectPsychophysiology2019,3.0.5,59.92832428587972,
To what extent did the music make you feel ,ANXIOUS ,30MonoWAV/30MonoF3.wav,1,2,2,3,,,,,1,3,19,2,0,11,11,1,,,,,,,,,4,1.984130925000045,,,068,001,2019_May_30_1312,MusicAffectPsychophysiology2019,3.0.5,59.92832428587972,
,,30MonoWAV/30MonoF3.wav,1,2,2,3,,,,,1,3,19,2,,,,,,,,,,,,,,,,,068,001,2019_May_30_1312,MusicAffectPsychophysiology2019,3.0.5,59.92832428587972,
To what extent did the music make you feel ,ALERT,30MonoWAV/30MonoH3.wav,2,2,1,7,,,,,1,4,20,6,0,0,0,8,,,5,3.3897244820000196,5,3.9435485610001706,4,1.369133656000031,3,5.834710088000065,,,068,001,2019_May_30_1312,MusicAffectPsychophysiology2019,3.0.5,59.92832428587972,
To what extent did the music make you feel ,ANXIOUS ,30MonoWAV/30MonoH3.wav,2,2,1,7,,,,,1,4,20,6,0,1,1,1,,,,,,,,,1,1.651775144000112,,,068,001,2019_May_30_1312,MusicAffectPsychophysiology2019,3.0.5,59.92832428587972,
To what extent did the music make you feel ,ANGRY,30MonoWAV/30MonoH3.wav,2,2,1,7,,,,,1,4,20,6,0,2,2,2,,,,,,,,,1,3.7508909559996937,,,068,001,2019_May_30_1312,MusicAffectPsychophysiology2019,3.0.5,59.92832428587972,
To what extent did the music make you feel ,SCARED,30MonoWAV/30MonoH3.wav,2,2,1,7,,,,,1,4,20,6,0,3,3,11,,,,,,,,,1,1.0684592409998004,,,068,001,2019_May_30_1312,MusicAffectPsychophysiology2019,3.0.5,59.92832428587972,
To what extent did the music make you feel ,ASHAMED,30MonoWAV/30MonoH3.wav,2,2,1,7,,,,,1,4,20,6,0,4,4,4,,,,,,,,,1,0.9190223040000092,,,068,001,2019_May_30_1312,MusicAffectPsychophysiology2019,3.0.5,59.92832428587972,
To what extent did the music make you feel ,EXCITED,30MonoWAV/30MonoH3.wav,2,2,1,7,,,,,1,4,20,6,0,5,5,7,,,,,,,,,5,1.1182146930000272,,,068,001,2019_May_30_1312,MusicAffectPsychophysiology2019,3.0.5,59.92832428587972,
To what extent did the music make you feel ,GUILTY,30MonoWAV/30MonoH3.wav,2,2,1,7,,,,,1,4,20,6,0,6,6,5,,,,,,,,,1,1.6351985339997555,,,068,001,2019_May_30_1312,MusicAffectPsychophysiology2019,3.0.5,59.92832428587972,
To what extent did the music make you feel ,HAPPY,30MonoWAV/30MonoH3.wav,2,2,1,7,,,,,1,4,20,6,0,7,7,6,,,,,,,,,4,1.4016416750000644,,,068,001,2019_May_30_1312,MusicAffectPsychophysiology2019,3.0.5,59.92832428587972,
To what extent did the music make you feel ,SAD,30MonoWAV/30MonoH3.wav,2,2,1,7,,,,,1,4,20,6,0,8,8,0,,,,,,,,,1,1.3356259689999206,,,068,001,2019_May_30_1312,MusicAffectPsychophysiology2019,3.0.5,59.92832428587972,
To what extent did the music make you feel ,ACTIVE,30MonoWAV/30MonoH3.wav,2,2,1,7,,,,,1,4,20,6,0,9,9,9,,,,,,,,,4,2.834211218999826,,,068,001,2019_May_30_1312,MusicAffectPsychophysiology2019,3.0.5,59.92832428587972,
To what extent did the music make you feel ,TENDER,30MonoWAV/30MonoH3.wav,2,2,1,7,,,,,1,4,20,6,0,10,10,10,,,,,,,,,1,1.2517196060002789,,,068,001,2019_May_30_1312,MusicAffectPsychophysiology2019,3.0.5,59.92832428587972,
To what extent did the music make you feel ,FRUSTRATED,30MonoWAV/30MonoH3.wav,2,2,1,7,,,,,1,4,20,6,0,11,11,3,,,,,,,,,1,1.8517748760000359,,,068,001,2019_May_30_1312,MusicAffectPsychophysiology2019,3.0.5,59.92832428587972,
,,30MonoWAV/30MonoH3.wav,2,2,1,7,,,,,1,4,20,6,,,,,,,,,,,,,,,,,068,001,2019_May_30_1312,MusicAffectPsychophysiology2019,3.0.5,59.92832428587972,
To what extent did the music make you feel ,TENDER,30MonoWAV/30MonoS2.wav,1,1,3,10,,,,,1,5,21,9,0,0,0,10,,,1,3.3909256429997185,2,1.868782384000042,4,1.9178514570003244,4,2.052097587999924,,,068,001,2019_May_30_1312,MusicAffectPsychophysiology2019,3.0.5,59.92832428587972,
To what extent did the music make you feel ,EXCITED,30MonoWAV/30MonoS2.wav,1,1,3,10,,,,,1,5,21,9,0,1,1,7,,,,,,,,,1,3.0663601300002483,,,068,001,2019_May_30_1312,MusicAffectPsychophysiology2019,3.0.5,59.92832428587972,
To what extent did the music make you feel ,ALERT,30MonoWAV/30MonoS2.wav,1,1,3,10,,,,,1,5,21,9,0,2,2,8,,,,,,,,,1,0.9185271510000348,,,068,001,2019_May_30_1312,MusicAffectPsychophysiology2019,3.0.5,59.92832428587972,
To what extent did the music make you feel ,HAPPY,30MonoWAV/30MonoS2.wav,1,1,3,10,,,,,1,5,21,9,0,3,3,6,,,,,,,,,2,1.1516660190000039,,,068,001,2019_May_30_1312,MusicAffectPsychophysiology2019,3.0.5,59.92832428587972,
To what extent did the music make you feel ,ACTIVE,30MonoWAV/30MonoS2.wav,1,1,3,10,,,,,1,5,21,9,0,4,4,9,,,,,,,,,1,1.1689295219998712,,,068,001,2019_May_30_1312,MusicAffectPsychophysiology2019,3.0.5,59.92832428587972,
To what extent did the music make you feel ,SCARED,30MonoWAV/30MonoS2.wav,1,1,3,10,,,,,1,5,21,9,0,5,5,11,,,,,,,,,3,1.2013018739999097,,,068,001,2019_May_30_1312,MusicAffectPsychophysiology2019,3.0.5,59.92832428587972,
To what extent did the music make you feel ,ANXIOUS ,30MonoWAV/30MonoS2.wav,1,1,3,10,,,,,1,5,21,9,0,6,6,1,,,,,,,,,2,2.4691873819997454,,,068,001,2019_May_30_1312,MusicAffectPsychophysiology2019,3.0.5,59.92832428587972,
To what extent did the music make you feel ,SAD,30MonoWAV/30MonoS2.wav,1,1,3,10,,,,,1,5,21,9,0,7,7,0,,,,,,,,,5,1.8513379150003857,,,068,001,2019_May_30_1312,MusicAffectPsychophysiology2019,3.0.5,59.92832428587972,
To what extent did the music make you feel ,ANGRY,30MonoWAV/30MonoS2.wav,1,1,3,10,,,,,1,5,21,9,0,8,8,2,,,,,,,,,1,1.7023610200003532,,,068,001,2019_May_30_1312,MusicAffectPsychophysiology2019,3.0.5,59.92832428587972,
To what extent did the music make you feel ,GUILTY,30MonoWAV/30MonoS2.wav,1,1,3,10,,,,,1,5,21,9,0,9,9,5,,,,,,,,,3,2.901763718999973,,,068,001,2019_May_30_1312,MusicAffectPsychophysiology2019,3.0.5,59.92832428587972,
To what extent did the music make you feel ,ASHAMED,30MonoWAV/30MonoS2.wav,1,1,3,10,,,,,1,5,21,9,0,10,10,4,,,,,,,,,2,1.3349643339997783,,,068,001,2019_May_30_1312,MusicAffectPsychophysiology2019,3.0.5,59.92832428587972,
To what extent did the music make you feel ,FRUSTRATED,30MonoWAV/30MonoS2.wav,1,1,3,10,,,,,1,5,21,9,0,11,11,3,,,,,,,,,1,1.7517648899997766,,,068,001,2019_May_30_1312,MusicAffectPsychophysiology2019,3.0.5,59.92832428587972,
,,30MonoWAV/30MonoS2.wav,1,1,3,10,,,,,1,5,21,9,,,,,,,,,,,,,,,,,068,001,2019_May_30_1312,MusicAffectPsychophysiology2019,3.0.5,59.92832428587972,
To what extent did the music make you feel ,SAD,30MonoWAV/30MonoT4.wav,2,1,4,16,,,,,1,6,22,15,0,0,0,0,,,3,3.385019821000242,4,3.0017799050001486,4,1.2851865190000353,2,2.1350222799997027,,,068,001,2019_May_30_1312,MusicAffectPsychophysiology2019,3.0.5,59.92832428587972,
To what extent did the music make you feel ,GUILTY,30MonoWAV/30MonoT4.wav,2,1,4,16,,,,,1,6,22,15,0,1,1,5,,,,,,,,,2,1.4688776940001844,,,068,001,2019_May_30_1312,MusicAffectPsychophysiology2019,3.0.5,59.92832428587972,
To what extent did the music make you feel ,FRUSTRATED,30MonoWAV/30MonoT4.wav,2,1,4,16,,,,,1,6,22,15,0,2,2,3,,,,,,,,,1,0.9850236760003099,,,068,001,2019_May_30_1312,MusicAffectPsychophysiology2019,3.0.5,59.92832428587972,
To what extent did the music make you feel ,HAPPY,30MonoWAV/30MonoT4.wav,2,1,4,16,,,,,1,6,22,15,0,3,3,6,,,,,,,,,2,2.1348000600000887,,,068,001,2019_May_30_1312,MusicAffectPsychophysiology2019,3.0.5,59.92832428587972,
To what extent did the music make you feel ,ACTIVE,30MonoWAV/30MonoT4.wav,2,1,4,16,,,,,1,6,22,15,0,4,4,9,,,,,,,,,1,3.5012730440002997,,,068,001,2019_May_30_1312,MusicAffectPsychophysiology2019,3.0.5,59.92832428587972,
To what extent did the music make you feel ,SCARED,30MonoWAV/30MonoT4.wav,2,1,4,16,,,,,1,6,22,15,0,5,5,11,,,,,,,,,1,1.834235144000104,,,068,001,2019_May_30_1312,MusicAffectPsychophysiology2019,3.0.5,59.92832428587972,
To what extent did the music make you feel ,ASHAMED,30MonoWAV/30MonoT4.wav,2,1,4,16,,,,,1,6,22,15,0,6,6,4,,,,,,,,,2,1.0185764769998968,,,068,001,2019_May_30_1312,MusicAffectPsychophysiology2019,3.0.5,59.92832428587972,
To what extent did the music make you feel ,ANGRY,30MonoWAV/30MonoT4.wav,2,1,4,16,,,,,1,6,22,15,0,7,7,2,,,,,,,,,1,1.6855354819999775,,,068,001,2019_May_30_1312,MusicAffectPsychophysiology2019,3.0.5,59.92832428587972,
To what extent did the music make you feel ,TENDER,30MonoWAV/30MonoT4.wav,2,1,4,16,,,,,1,6,22,15,0,8,8,10,,,,,,,,,4,1.4170140699998228,,,068,001,2019_May_30_1312,MusicAffectPsychophysiology2019,3.0.5,59.92832428587972,
To what extent did the music make you feel ,ANXIOUS ,30MonoWAV/30MonoT4.wav,2,1,4,16,,,,,1,6,22,15,0,9,9,1,,,,,,,,,1,2.1187618140002087,,,068,001,2019_May_30_1312,MusicAffectPsychophysiology2019,3.0.5,59.92832428587972,
To what extent did the music make you feel ,EXCITED,30MonoWAV/30MonoT4.wav,2,1,4,16,,,,,1,6,22,15,0,10,10,7,,,,,,,,,2,1.485148432999722,,,068,001,2019_May_30_1312,MusicAffectPsychophysiology2019,3.0.5,59.92832428587972,
To what extent did the music make you feel ,ALERT,30MonoWAV/30MonoT4.wav,2,1,4,16,,,,,1,6,22,15,0,11,11,8,,,,,,,,,1,2.017888777999815,,,068,001,2019_May_30_1312,MusicAffectPsychophysiology2019,3.0.5,59.92832428587972,
,,30MonoWAV/30MonoT4.wav,2,1,4,16,,,,,1,6,22,15,,,,,,,,,,,,,,,,,068,001,2019_May_30_1312,MusicAffectPsychophysiology2019,3.0.5,59.92832428587972,
To what extent did the music make you feel ,ALERT,30MonoWAV/30MonoT3.wav,2,1,4,15,,,,,1,7,23,14,0,0,0,8,,,2,6.735036675000174,5,1.2341189599997051,5,1.30089767499976,2,1.5503068809998695,,,068,001,2019_May_30_1312,MusicAffectPsychophysiology2019,3.0.5,59.92832428587972,
To what extent did the music make you feel ,ANGRY,30MonoWAV/30MonoT3.wav,2,1,4,15,,,,,1,7,23,14,0,1,1,2,,,,,,,,,1,2.9846337269996184,,,068,001,2019_May_30_1312,MusicAffectPsychophysiology2019,3.0.5,59.92832428587972,
To what extent did the music make you feel ,GUILTY,30MonoWAV/30MonoT3.wav,2,1,4,15,,,,,1,7,23,14,0,2,2,5,,,,,,,,,2,3.202548219000164,,,068,001,2019_May_30_1312,MusicAffectPsychophysiology2019,3.0.5,59.92832428587972,
To what extent did the music make you feel ,HAPPY,30MonoWAV/30MonoT3.wav,2,1,4,15,,,,,1,7,23,14,0,3,3,6,,,,,,,,,3,1.833462831000361,,,068,001,2019_May_30_1312,MusicAffectPsychophysiology2019,3.0.5,59.92832428587972,
To what extent did the music make you feel ,ASHAMED,30MonoWAV/30MonoT3.wav,2,1,4,15,,,,,1,7,23,14,0,4,4,4,,,,,,,,,1,1.3187799440001982,,,068,001,2019_May_30_1312,MusicAffectPsychophysiology2019,3.0.5,59.92832428587972,
To what extent did the music make you feel ,SAD,30MonoWAV/30MonoT3.wav,2,1,4,15,,,,,1,7,23,14,0,5,5,0,,,,,,,,,3,1.2840287520002676,,,068,001,2019_May_30_1312,MusicAffectPsychophysiology2019,3.0.5,59.92832428587972,
To what extent did the music make you feel ,TENDER,30MonoWAV/30MonoT3.wav,2,1,4,15,,,,,1,7,23,14,0,6,6,10,,,,,,,,,5,1.6178844500000196,,,068,001,2019_May_30_1312,MusicAffectPsychophysiology2019,3.0.5,59.92832428587972,
To what extent did the music make you feel ,FRUSTRATED,30MonoWAV/30MonoT3.wav,2,1,4,15,,,,,1,7,23,14,0,7,7,3,,,,,,,,,1,1.4679132930000378,,,068,001,2019_May_30_1312,MusicAffectPsychophysiology2019,3.0.5,59.92832428587972,
To what extent did the music make you feel ,ANXIOUS ,30MonoWAV/30MonoT3.wav,2,1,4,15,,,,,1,7,23,14,0,8,8,1,,,,,,,,,2,2.767526137999994,,,068,001,2019_May_30_1312,MusicAffectPsychophysiology2019,3.0.5,59.92832428587972,
To what extent did the music make you feel ,ACTIVE,30MonoWAV/30MonoT3.wav,2,1,4,15,,,,,1,7,23,14,0,9,9,9,,,,,,,,,1,2.335148436000054,,,068,001,2019_May_30_1312,MusicAffectPsychophysiology2019,3.0.5,59.92832428587972,
To what extent did the music make you feel ,EXCITED,30MonoWAV/30MonoT3.wav,2,1,4,15,,,,,1,7,23,14,0,10,10,7,,,,,,,,,2,1.350794582999697,,,068,001,2019_May_30_1312,MusicAffectPsychophysiology2019,3.0.5,59.92832428587972,
To what extent did the music make you feel ,SCARED,30MonoWAV/30MonoT3.wav,2,1,4,15,,,,,1,7,23,14,0,11,11,11,,,,,,,,,2,1.4188037429998985,,,068,001,2019_May_30_1312,MusicAffectPsychophysiology2019,3.0.5,59.92832428587972,
,,30MonoWAV/30MonoT3.wav,2,1,4,15,,,,,1,7,23,14,,,,,,,,,,,,,,,,,068,001,2019_May_30_1312,MusicAffectPsychophysiology2019,3.0.5,59.92832428587972,
To what extent did the music make you feel ,HAPPY,30MonoWAV/30MonoF2.wav,1,2,2,2,,,,,1,8,24,1,0,0,0,6,,,1,3.118209852000291,1,2.6675168589999885,1,1.1345957180001278,1,1.1688896329997078,,,068,001,2019_May_30_1312,MusicAffectPsychophysiology2019,3.0.5,59.92832428587972,
To what extent did the music make you feel ,ALERT,30MonoWAV/30MonoF2.wav,1,2,2,2,,,,,1,8,24,1,0,1,1,8,,,,,,,,,5,1.5183909399997901,,,068,001,2019_May_30_1312,MusicAffectPsychophysiology2019,3.0.5,59.92832428587972,
To what extent did the music make you feel ,ACTIVE,30MonoWAV/30MonoF2.wav,1,2,2,2,,,,,1,8,24,1,0,2,2,9,,,,,,,,,4,1.1014928149998013,,,068,001,2019_May_30_1312,MusicAffectPsychophysiology2019,3.0.5,59.92832428587972,
To what extent did the music make you feel ,ASHAMED,30MonoWAV/30MonoF2.wav,1,2,2,2,,,,,1,8,24,1,0,3,3,4,,,,,,,,,2,1.1684764040001028,,,068,001,2019_May_30_1312,MusicAffectPsychophysiology2019,3.0.5,59.92832428587972,
To what extent did the music make you feel ,GUILTY,30MonoWAV/30MonoF2.wav,1,2,2,2,,,,,1,8,24,1,0,4,4,5,,,,,,,,,2,1.9019630520001556,,,068,001,2019_May_30_1312,MusicAffectPsychophysiology2019,3.0.5,59.92832428587972,
To what extent did the music make you feel ,FRUSTRATED,30MonoWAV/30MonoF2.wav,1,2,2,2,,,,,1,8,24,1,0,5,5,3,,,,,,,,,2,1.1181780899996738,,,068,001,2019_May_30_1312,MusicAffectPsychophysiology2019,3.0.5,59.92832428587972,
To what extent did the music make you feel ,TENDER,30MonoWAV/30MonoF2.wav,1,2,2,2,,,,,1,8,24,1,0,6,6,10,,,,,,,,,1,0.8851338509998641,,,068,001,2019_May_30_1312,MusicAffectPsychophysiology2019,3.0.5,59.92832428587972,
To what extent did the music make you feel ,SAD,30MonoWAV/30MonoF2.wav,1,2,2,2,,,,,1,8,24,1,0,7,7,0,,,,,,,,,4,2.6517516960002467,,,068,001,2019_May_30_1312,MusicAffectPsychophysiology2019,3.0.5,59.92832428587972,
To what extent did the music make you feel ,ANGRY,30MonoWAV/30MonoF2.wav,1,2,2,2,,,,,1,8,24,1,0,8,8,2,,,,,,,,,4,1.0513192690000324,,,068,001,2019_May_30_1312,MusicAffectPsychophysiology2019,3.0.5,59.92832428587972,
To what extent did the music make you feel ,SCARED,30MonoWAV/30MonoF2.wav,1,2,2,2,,,,,1,8,24,1,0,9,9,11,,,,,,,,,4,1.0679285510000227,,,068,001,2019_May_30_1312,MusicAffectPsychophysiology2019,3.0.5,59.92832428587972,
To what extent did the music make you feel ,ANXIOUS ,30MonoWAV/30MonoF2.wav,1,2,2,2,,,,,1,8,24,1,0,10,10,1,,,,,,,,,4,2.7186687909998,,,068,001,2019_May_30_1312,MusicAffectPsychophysiology2019,3.0.5,59.92832428587972,
To what extent did the music make you feel ,EXCITED,30MonoWAV/30MonoF2.wav,1,2,2,2,,,,,1,8,24,1,0,11,11,7,,,,,,,,,3,2.1853467690002617,,,068,001,2019_May_30_1312,MusicAffectPsychophysiology2019,3.0.5,59.92832428587972,
,,30MonoWAV/30MonoF2.wav,1,2,2,2,,,,,1,8,24,1,,,,,,,,,,,,,,,,,068,001,2019_May_30_1312,MusicAffectPsychophysiology2019,3.0.5,59.92832428587972,
To what extent did the music make you feel ,TENDER,30MonoWAV/30MonoS3.wav,1,1,3,11,,,,,1,9,25,10,0,0,0,10,,,2,3.7360331299996687,2,2.000977147999947,4,1.9184202249998634,4,1.5184653050000634,,,068,001,2019_May_30_1312,MusicAffectPsychophysiology2019,3.0.5,59.92832428587972,
To what extent did the music make you feel ,HAPPY,30MonoWAV/30MonoS3.wav,1,1,3,11,,,,,1,9,25,10,0,1,1,6,,,,,,,,,2,1.434685995000109,,,068,001,2019_May_30_1312,MusicAffectPsychophysiology2019,3.0.5,59.92832428587972,
To what extent did the music make you feel ,SAD,30MonoWAV/30MonoS3.wav,1,1,3,11,,,,,1,9,25,10,0,2,2,0,,,,,,,,,3,1.2688036980002835,,,068,001,2019_May_30_1312,MusicAffectPsychophysiology2019,3.0.5,59.92832428587972,
To what extent did the music make you feel ,ASHAMED,30MonoWAV/30MonoS3.wav,1,1,3,11,,,,,1,9,25,10,0,3,3,4,,,,,,,,,2,4.466665589000058,,,068,001,2019_May_30_1312,MusicAffectPsychophysiology2019,3.0.5,59.92832428587972,
To what extent did the music make you feel ,ACTIVE,30MonoWAV/30MonoS3.wav,1,1,3,11,,,,,1,9,25,10,0,4,4,9,,,,,,,,,1,0.9692689829998926,,,068,001,2019_May_30_1312,MusicAffectPsychophysiology2019,3.0.5,59.92832428587972,
To what extent did the music make you feel ,GUILTY,30MonoWAV/30MonoS3.wav,1,1,3,11,,,,,1,9,25,10,0,5,5,5,,,,,,,,,2,1.8850789500002065,,,068,001,2019_May_30_1312,MusicAffectPsychophysiology2019,3.0.5,59.92832428587972,
To what extent did the music make you feel ,FRUSTRATED,30MonoWAV/30MonoS3.wav,1,1,3,11,,,,,1,9,25,10,0,6,6,3,,,,,,,,,1,3.4517807759998504,,,068,001,2019_May_30_1312,MusicAffectPsychophysiology2019,3.0.5,59.92832428587972,
To what extent did the music make you feel ,SCARED,30MonoWAV/30MonoS3.wav,1,1,3,11,,,,,1,9,25,10,0,7,7,11,,,,,,,,,3,1.1349004630001218,,,068,001,2019_May_30_1312,MusicAffectPsychophysiology2019,3.0.5,59.92832428587972,
To what extent did the music make you feel ,ANXIOUS ,30MonoWAV/30MonoS3.wav,1,1,3,11,,,,,1,9,25,10,0,8,8,1,,,,,,,,,5,1.3178552620001938,,,068,001,2019_May_30_1312,MusicAffectPsychophysiology2019,3.0.5,59.92832428587972,
To what extent did the music make you feel ,EXCITED,30MonoWAV/30MonoS3.wav,1,1,3,11,,,,,1,9,25,10,0,9,9,7,,,,,,,,,1,2.9013752420000856,,,068,001,2019_May_30_1312,MusicAffectPsychophysiology2019,3.0.5,59.92832428587972,
To what extent did the music make you feel ,ALERT,30MonoWAV/30MonoS3.wav,1,1,3,11,,,,,1,9,25,10,0,10,10,8,,,,,,,,,1,0.9022613790002652,,,068,001,2019_May_30_1312,MusicAffectPsychophysiology2019,3.0.5,59.92832428587972,
To what extent did the music make you feel ,ANGRY,30MonoWAV/30MonoS3.wav,1,1,3,11,,,,,1,9,25,10,0,11,11,2,,,,,,,,,2,1.1664126429996031,,,068,001,2019_May_30_1312,MusicAffectPsychophysiology2019,3.0.5,59.92832428587972,
,,30MonoWAV/30MonoS3.wav,1,1,3,11,,,,,1,9,25,10,,,,,,,,,,,,,,,,,068,001,2019_May_30_1312,MusicAffectPsychophysiology2019,3.0.5,59.92832428587972,
To what extent did the music make you feel ,ACTIVE,30MonoWAV/30MonoF1.wav,1,2,2,1,,,,,1,10,26,0,0,0,0,9,,,5,2.6881012740000187,2,1.4866704179999033,3,1.1864279599999463,5,1.1030548150001778,,,068,001,2019_May_30_1312,MusicAffectPsychophysiology2019,3.0.5,59.92832428587972,
To what extent did the music make you feel ,SCARED,30MonoWAV/30MonoF1.wav,1,2,2,1,,,,,1,10,26,0,0,1,1,11,,,,,,,,,1,1.4554038080000282,,,068,001,2019_May_30_1312,MusicAffectPsychophysiology2019,3.0.5,59.92832428587972,
To what extent did the music make you feel ,EXCITED,30MonoWAV/30MonoF1.wav,1,2,2,1,,,,,1,10,26,0,0,2,2,7,,,,,,,,,4,1.0181572390001747,,,068,001,2019_May_30_1312,MusicAffectPsychophysiology2019,3.0.5,59.92832428587972,
To what extent did the music make you feel ,FRUSTRATED,30MonoWAV/30MonoF1.wav,1,2,2,1,,,,,1,10,26,0,0,3,3,3,,,,,,,,,2,1.7181980790001035,,,068,001,2019_May_30_1312,MusicAffectPsychophysiology2019,3.0.5,59.92832428587972,
To what extent did the music make you feel ,SAD,30MonoWAV/30MonoF1.wav,1,2,2,1,,,,,1,10,26,0,0,4,4,0,,,,,,,,,2,1.3833471419998205,,,068,001,2019_May_30_1312,MusicAffectPsychophysiology2019,3.0.5,59.92832428587972,
To what extent did the music make you feel ,HAPPY,30MonoWAV/30MonoF1.wav,1,2,2,1,,,,,1,10,26,0,0,5,5,6,,,,,,,,,2,1.9853123880002386,,,068,001,2019_May_30_1312,MusicAffectPsychophysiology2019,3.0.5,59.92832428587972,
To what extent did the music make you feel ,ASHAMED,30MonoWAV/30MonoF1.wav,1,2,2,1,,,,,1,10,26,0,0,6,6,4,,,,,,,,,2,1.4177489089997835,,,068,001,2019_May_30_1312,MusicAffectPsychophysiology2019,3.0.5,59.92832428587972,
To what extent did the music make you feel ,ANXIOUS ,30MonoWAV/30MonoF1.wav,1,2,2,1,,,,,1,10,26,0,0,7,7,1,,,,,,,,,4,1.5174790169999142,,,068,001,2019_May_30_1312,MusicAffectPsychophysiology2019,3.0.5,59.92832428587972,
To what extent did the music make you feel ,ANGRY,30MonoWAV/30MonoF1.wav,1,2,2,1,,,,,1,10,26,0,0,8,8,2,,,,,,,,,4,2.2852585259997795,,,068,001,2019_May_30_1312,MusicAffectPsychophysiology2019,3.0.5,59.92832428587972,
To what extent did the music make you feel ,TENDER,30MonoWAV/30MonoF1.wav,1,2,2,1,,,,,1,10,26,0,0,9,9,10,,,,,,,,,1,1.2002151649999178,,,068,001,2019_May_30_1312,MusicAffectPsychophysiology2019,3.0.5,59.92832428587972,
To what extent did the music make you feel ,GUILTY,30MonoWAV/30MonoF1.wav,1,2,2,1,,,,,1,10,26,0,0,10,10,5,,,,,,,,,2,1.5355119079999895,,,068,001,2019_May_30_1312,MusicAffectPsychophysiology2019,3.0.5,59.92832428587972,
To what extent did the music make you feel ,ALERT,30MonoWAV/30MonoF1.wav,1,2,2,1,,,,,1,10,26,0,0,11,11,8,,,,,,,,,5,2.601501119999739,,,068,001,2019_May_30_1312,MusicAffectPsychophysiology2019,3.0.5,59.92832428587972,
,,30MonoWAV/30MonoF1.wav,1,2,2,1,,,,,1,10,26,0,,,,,,,,,,,,,,,,,068,001,2019_May_30_1312,MusicAffectPsychophysiology2019,3.0.5,59.92832428587972,
To what extent did the music make you feel ,FRUSTRATED,30MonoWAV/30MonoH4.wav,2,2,1,8,,,,,1,11,27,7,0,0,0,3,,,5,2.101822899999661,5,0.9345262589999948,5,1.4192057229997772,1,1.489870821000295,,,068,001,2019_May_30_1312,MusicAffectPsychophysiology2019,3.0.5,59.92832428587972,
To what extent did the music make you feel ,TENDER,30MonoWAV/30MonoH4.wav,2,2,1,8,,,,,1,11,27,7,0,1,1,10,,,,,,,,,2,1.3859416179998334,,,068,001,2019_May_30_1312,MusicAffectPsychophysiology2019,3.0.5,59.92832428587972,
To what extent did the music make you feel ,ANGRY,30MonoWAV/30MonoH4.wav,2,2,1,8,,,,,1,11,27,7,0,2,2,2,,,,,,,,,1,2.6515041430002384,,,068,001,2019_May_30_1312,MusicAffectPsychophysiology2019,3.0.5,59.92832428587972,
To what extent did the music make you feel ,GUILTY,30MonoWAV/30MonoH4.wav,2,2,1,8,,,,,1,11,27,7,0,3,3,5,,,,,,,,,1,0.8670679059996473,,,068,001,2019_May_30_1312,MusicAffectPsychophysiology2019,3.0.5,59.92832428587972,
To what extent did the music make you feel ,ACTIVE,30MonoWAV/30MonoH4.wav,2,2,1,8,,,,,1,11,27,7,0,4,4,9,,,,,,,,,4,1.3188210089997483,,,068,001,2019_May_30_1312,MusicAffectPsychophysiology2019,3.0.5,59.92832428587972,
To what extent did the music make you feel ,SAD,30MonoWAV/30MonoH4.wav,2,2,1,8,,,,,1,11,27,7,0,5,5,0,,,,,,,,,1,1.0687314689998857,,,068,001,2019_May_30_1312,MusicAffectPsychophysiology2019,3.0.5,59.92832428587972,
To what extent did the music make you feel ,ANXIOUS ,30MonoWAV/30MonoH4.wav,2,2,1,8,,,,,1,11,27,7,0,6,6,1,,,,,,,,,1,2.684911261000252,,,068,001,2019_May_30_1312,MusicAffectPsychophysiology2019,3.0.5,59.92832428587972,
To what extent did the music make you feel ,EXCITED,30MonoWAV/30MonoH4.wav,2,2,1,8,,,,,1,11,27,7,0,7,7,7,,,,,,,,,5,1.5180688989998998,,,068,001,2019_May_30_1312,MusicAffectPsychophysiology2019,3.0.5,59.92832428587972,
To what extent did the music make you feel ,ALERT,30MonoWAV/30MonoH4.wav,2,2,1,8,,,,,1,11,27,7,0,8,8,8,,,,,,,,,3,2.5684540810002545,,,068,001,2019_May_30_1312,MusicAffectPsychophysiology2019,3.0.5,59.92832428587972,
To what extent did the music make you feel ,ASHAMED,30MonoWAV/30MonoH4.wav,2,2,1,8,,,,,1,11,27,7,0,9,9,4,,,,,,,,,1,0.9176797820000502,,,068,001,2019_May_30_1312,MusicAffectPsychophysiology2019,3.0.5,59.92832428587972,
To what extent did the music make you feel ,HAPPY,30MonoWAV/30MonoH4.wav,2,2,1,8,,,,,1,11,27,7,0,10,10,6,,,,,,,,,5,1.069661320999785,,,068,001,2019_May_30_1312,MusicAffectPsychophysiology2019,3.0.5,59.92832428587972,
To what extent did the music make you feel ,SCARED,30MonoWAV/30MonoH4.wav,2,2,1,8,,,,,1,11,27,7,0,11,11,11,,,,,,,,,1,1.2859450549999565,,,068,001,2019_May_30_1312,MusicAffectPsychophysiology2019,3.0.5,59.92832428587972,
,,30MonoWAV/30MonoH4.wav,2,2,1,8,,,,,1,11,27,7,,,,,,,,,,,,,,,,,068,001,2019_May_30_1312,MusicAffectPsychophysiology2019,3.0.5,59.92832428587972,
To what extent did the music make you feel ,GUILTY,30MonoWAV/30MonoT2.wav,2,1,4,14,,,,,1,12,28,13,0,0,0,5,,,2,4.268229867000173,4,2.4692189620000136,4,1.1005545819998588,1,1.2354184509999868,,,068,001,2019_May_30_1312,MusicAffectPsychophysiology2019,3.0.5,59.92832428587972,
To what extent did the music make you feel ,ANXIOUS ,30MonoWAV/30MonoT2.wav,2,1,4,14,,,,,1,12,28,13,0,1,1,1,,,,,,,,,1,0.8013833499999237,,,068,001,2019_May_30_1312,MusicAffectPsychophysiology2019,3.0.5,59.92832428587972,
To what extent did the music make you feel ,ASHAMED,30MonoWAV/30MonoT2.wav,2,1,4,14,,,,,1,12,28,13,0,2,2,4,,,,,,,,,1,0.7526313399998799,,,068,001,2019_May_30_1312,MusicAffectPsychophysiology2019,3.0.5,59.92832428587972,
To what extent did the music make you feel ,TENDER,30MonoWAV/30MonoT2.wav,2,1,4,14,,,,,1,12,28,13,0,3,3,10,,,,,,,,,5,1.351848802999939,,,068,001,2019_May_30_1312,MusicAffectPsychophysiology2019,3.0.5,59.92832428587972,
To what extent did the music make you feel ,SAD,30MonoWAV/30MonoT2.wav,2,1,4,14,,,,,1,12,28,13,0,4,4,0,,,,,,,,,4,2.1185317030003716,,,068,001,2019_May_30_1312,MusicAffectPsychophysiology2019,3.0.5,59.92832428587972,
To what extent did the music make you feel ,HAPPY,30MonoWAV/30MonoT2.wav,2,1,4,14,,,,,1,12,28,13,0,5,5,6,,,,,,,,,2,1.1687970220000352,,,068,001,2019_May_30_1312,MusicAffectPsychophysiology2019,3.0.5,59.92832428587972,
To what extent did the music make you feel ,SCARED,30MonoWAV/30MonoT2.wav,2,1,4,14,,,,,1,12,28,13,0,6,6,11,,,,,,,,,1,3.851126645000022,,,068,001,2019_May_30_1312,MusicAffectPsychophysiology2019,3.0.5,59.92832428587972,
To what extent did the music make you feel ,ACTIVE,30MonoWAV/30MonoT2.wav,2,1,4,14,,,,,1,12,28,13,0,7,7,9,,,,,,,,,1,0.9852733780003291,,,068,001,2019_May_30_1312,MusicAffectPsychophysiology2019,3.0.5,59.92832428587972,
To what extent did the music make you feel ,ANGRY,30MonoWAV/30MonoT2.wav,2,1,4,14,,,,,1,12,28,13,0,8,8,2,,,,,,,,,1,0.8185888379998687,,,068,001,2019_May_30_1312,MusicAffectPsychophysiology2019,3.0.5,59.92832428587972,
To what extent did the music make you feel ,EXCITED,30MonoWAV/30MonoT2.wav,2,1,4,14,,,,,1,12,28,13,0,9,9,7,,,,,,,,,2,2.4183784050001123,,,068,001,2019_May_30_1312,MusicAffectPsychophysiology2019,3.0.5,59.92832428587972,
To what extent did the music make you feel ,ALERT,30MonoWAV/30MonoT2.wav,2,1,4,14,,,,,1,12,28,13,0,10,10,8,,,,,,,,,1,1.832041109000329,,,068,001,2019_May_30_1312,MusicAffectPsychophysiology2019,3.0.5,59.92832428587972,
To what extent did the music make you feel ,FRUSTRATED,30MonoWAV/30MonoT2.wav,2,1,4,14,,,,,1,12,28,13,0,11,11,3,,,,,,,,,1,0.9825727439997536,,,068,001,2019_May_30_1312,MusicAffectPsychophysiology2019,3.0.5,59.92832428587972,
,,30MonoWAV/30MonoT2.wav,2,1,4,14,,,,,1,12,28,13,,,,,,,,,,,,,,,,,068,001,2019_May_30_1312,MusicAffectPsychophysiology2019,3.0.5,59.92832428587972,
To what extent did the music make you feel ,ANXIOUS ,30MonoWAV/30MonoH1.wav,2,2,1,5,,,,,1,13,29,4,0,0,0,1,,,5,3.3012804660002075,5,2.168616517999908,5,1.3349038729998028,1,2.1516755709999416,,,068,001,2019_May_30_1312,MusicAffectPsychophysiology2019,3.0.5,59.92832428587972,
To what extent did the music make you feel ,EXCITED,30MonoWAV/30MonoH1.wav,2,2,1,5,,,,,1,13,29,4,0,1,1,7,,,,,,,,,5,1.2175817349998397,,,068,001,2019_May_30_1312,MusicAffectPsychophysiology2019,3.0.5,59.92832428587972,
To what extent did the music make you feel ,SCARED,30MonoWAV/30MonoH1.wav,2,2,1,5,,,,,1,13,29,4,0,2,2,11,,,,,,,,,1,1.6347670049999579,,,068,001,2019_May_30_1312,MusicAffectPsychophysiology2019,3.0.5,59.92832428587972,
To what extent did the music make you feel ,ANGRY,30MonoWAV/30MonoH1.wav,2,2,1,5,,,,,1,13,29,4,0,3,3,2,,,,,,,,,1,2.652101287000278,,,068,001,2019_May_30_1312,MusicAffectPsychophysiology2019,3.0.5,59.92832428587972,
To what extent did the music make you feel ,ACTIVE,30MonoWAV/30MonoH1.wav,2,2,1,5,,,,,1,13,29,4,0,4,4,9,,,,,,,,,4,1.1356622959997367,,,068,001,2019_May_30_1312,MusicAffectPsychophysiology2019,3.0.5,59.92832428587972,
To what extent did the music make you feel ,HAPPY,30MonoWAV/30MonoH1.wav,2,2,1,5,,,,,1,13,29,4,0,5,5,6,,,,,,,,,4,1.3013582449998466,,,068,001,2019_May_30_1312,MusicAffectPsychophysiology2019,3.0.5,59.92832428587972,
To what extent did the music make you feel ,TENDER,30MonoWAV/30MonoH1.wav,2,2,1,5,,,,,1,13,29,4,0,6,6,10,,,,,,,,,2,1.2344915060002677,,,068,001,2019_May_30_1312,MusicAffectPsychophysiology2019,3.0.5,59.92832428587972,
To what extent did the music make you feel ,FRUSTRATED,30MonoWAV/30MonoH1.wav,2,2,1,5,,,,,1,13,29,4,0,7,7,3,,,,,,,,,1,0.9017180980004014,,,068,001,2019_May_30_1312,MusicAffectPsychophysiology2019,3.0.5,59.92832428587972,
To what extent did the music make you feel ,ASHAMED,30MonoWAV/30MonoH1.wav,2,2,1,5,,,,,1,13,29,4,0,8,8,4,,,,,,,,,1,5.118592627999988,,,068,001,2019_May_30_1312,MusicAffectPsychophysiology2019,3.0.5,59.92832428587972,
To what extent did the music make you feel ,SAD,30MonoWAV/30MonoH1.wav,2,2,1,5,,,,,1,13,29,4,0,9,9,0,,,,,,,,,2,1.068282009000086,,,068,001,2019_May_30_1312,MusicAffectPsychophysiology2019,3.0.5,59.92832428587972,
To what extent did the music make you feel ,ALERT,30MonoWAV/30MonoH1.wav,2,2,1,5,,,,,1,13,29,4,0,10,10,8,,,,,,,,,4,2.8520046919998094,,,068,001,2019_May_30_1312,MusicAffectPsychophysiology2019,3.0.5,59.92832428587972,
To what extent did the music make you feel ,GUILTY,30MonoWAV/30MonoH1.wav,2,2,1,5,,,,,1,13,29,4,0,11,11,5,,,,,,,,,1,4.684521284999846,,,068,001,2019_May_30_1312,MusicAffectPsychophysiology2019,3.0.5,59.92832428587972,
,,30MonoWAV/30MonoH1.wav,2,2,1,5,,,,,1,13,29,4,,,,,,,,,,,,,,,,,068,001,2019_May_30_1312,MusicAffectPsychophysiology2019,3.0.5,59.92832428587972,
To what extent did the music make you feel ,EXCITED,30MonoWAV/30MonoS4.wav,1,1,3,12,,,,,1,14,30,11,0,0,0,7,,,1,3.6524115240003994,2,2.5023865309999564,4,1.6684369539998443,1,1.8005000349999136,,,068,001,2019_May_30_1312,MusicAffectPsychophysiology2019,3.0.5,59.92832428587972,
To what extent did the music make you feel ,ANGRY,30MonoWAV/30MonoS4.wav,1,1,3,12,,,,,1,14,30,11,0,1,1,2,,,,,,,,,1,0.9351799949999986,,,068,001,2019_May_30_1312,MusicAffectPsychophysiology2019,3.0.5,59.92832428587972,
To what extent did the music make you feel ,ANXIOUS ,30MonoWAV/30MonoS4.wav,1,1,3,12,,,,,1,14,30,11,0,2,2,1,,,,,,,,,3,2.1687845470000866,,,068,001,2019_May_30_1312,MusicAffectPsychophysiology2019,3.0.5,59.92832428587972,
To what extent did the music make you feel ,ASHAMED,30MonoWAV/30MonoS4.wav,1,1,3,12,,,,,1,14,30,11,0,3,3,4,,,,,,,,,2,1.0674883470001078,,,068,001,2019_May_30_1312,MusicAffectPsychophysiology2019,3.0.5,59.92832428587972,
To what extent did the music make you feel ,FRUSTRATED,30MonoWAV/30MonoS4.wav,1,1,3,12,,,,,1,14,30,11,0,4,4,3,,,,,,,,,1,0.9682513769998877,,,068,001,2019_May_30_1312,MusicAffectPsychophysiology2019,3.0.5,59.92832428587972,
To what extent did the music make you feel ,SCARED,30MonoWAV/30MonoS4.wav,1,1,3,12,,,,,1,14,30,11,0,5,5,11,,,,,,,,,1,4.43443821100027,,,068,001,2019_May_30_1312,MusicAffectPsychophysiology2019,3.0.5,59.92832428587972,
To what extent did the music make you feel ,HAPPY,30MonoWAV/30MonoS4.wav,1,1,3,12,,,,,1,14,30,11,0,6,6,6,,,,,,,,,2,1.6859961230002227,,,068,001,2019_May_30_1312,MusicAffectPsychophysiology2019,3.0.5,59.92832428587972,
To what extent did the music make you feel ,GUILTY,30MonoWAV/30MonoS4.wav,1,1,3,12,,,,,1,14,30,11,0,7,7,5,,,,,,,,,2,1.8178408889998536,,,068,001,2019_May_30_1312,MusicAffectPsychophysiology2019,3.0.5,59.92832428587972,
To what extent did the music make you feel ,ACTIVE,30MonoWAV/30MonoS4.wav,1,1,3,12,,,,,1,14,30,11,0,8,8,9,,,,,,,,,1,1.0184338679996472,,,068,001,2019_May_30_1312,MusicAffectPsychophysiology2019,3.0.5,59.92832428587972,
To what extent did the music make you feel ,ALERT,30MonoWAV/30MonoS4.wav,1,1,3,12,,,,,1,14,30,11,0,9,9,8,,,,,,,,,1,2.2018080399998325,,,068,001,2019_May_30_1312,MusicAffectPsychophysiology2019,3.0.5,59.92832428587972,
To what extent did the music make you feel ,SAD,30MonoWAV/30MonoS4.wav,1,1,3,12,,,,,1,14,30,11,0,10,10,0,,,,,,,,,4,1.0682750619998842,,,068,001,2019_May_30_1312,MusicAffectPsychophysiology2019,3.0.5,59.92832428587972,
To what extent did the music make you feel ,TENDER,30MonoWAV/30MonoS4.wav,1,1,3,12,,,,,1,14,30,11,0,11,11,10,,,,,,,,,4,1.0678090540000085,,,068,001,2019_May_30_1312,MusicAffectPsychophysiology2019,3.0.5,59.92832428587972,
,,30MonoWAV/30MonoS4.wav,1,1,3,12,,,,,1,14,30,11,,,,,,,,,,,,,,,,,068,001,2019_May_30_1312,MusicAffectPsychophysiology2019,3.0.5,59.92832428587972,
To what extent did the music make you feel ,ALERT,30MonoWAV/30MonoH2.wav,2,2,1,6,,,,,1,15,31,5,0,0,0,8,,,4,3.6348671030000332,5,1.8175220389998685,4,0.9343764660002307,3,4.53449928100008,,,068,001,2019_May_30_1312,MusicAffectPsychophysiology2019,3.0.5,59.92832428587972,
To what extent did the music make you feel ,TENDER,30MonoWAV/30MonoH2.wav,2,2,1,6,,,,,1,15,31,5,0,1,1,10,,,,,,,,,1,1.1188226860003851,,,068,001,2019_May_30_1312,MusicAffectPsychophysiology2019,3.0.5,59.92832428587972,
To what extent did the music make you feel ,ANGRY,30MonoWAV/30MonoH2.wav,2,2,1,6,,,,,1,15,31,5,0,2,2,2,,,,,,,,,2,1.967604308999853,,,068,001,2019_May_30_1312,MusicAffectPsychophysiology2019,3.0.5,59.92832428587972,
To what extent did the music make you feel ,ACTIVE,30MonoWAV/30MonoH2.wav,2,2,1,6,,,,,1,15,31,5,0,3,3,9,,,,,,,,,5,1.4838358739998512,,,068,001,2019_May_30_1312,MusicAffectPsychophysiology2019,3.0.5,59.92832428587972,
To what extent did the music make you feel ,GUILTY,30MonoWAV/30MonoH2.wav,2,2,1,6,,,,,1,15,31,5,0,4,4,5,,,,,,,,,1,3.401987900000222,,,068,001,2019_May_30_1312,MusicAffectPsychophysiology2019,3.0.5,59.92832428587972,
To what extent did the music make you feel ,FRUSTRATED,30MonoWAV/30MonoH2.wav,2,2,1,6,,,,,1,15,31,5,0,5,5,3,,,,,,,,,1,0.7182343280001078,,,068,001,2019_May_30_1312,MusicAffectPsychophysiology2019,3.0.5,59.92832428587972,
To what extent did the music make you feel ,SAD,30MonoWAV/30MonoH2.wav,2,2,1,6,,,,,1,15,31,5,0,6,6,0,,,,,,,,,2,1.7518327019997741,,,068,001,2019_May_30_1312,MusicAffectPsychophysiology2019,3.0.5,59.92832428587972,
To what extent did the music make you feel ,EXCITED,30MonoWAV/30MonoH2.wav,2,2,1,6,,,,,1,15,31,5,0,7,7,7,,,,,,,,,4,1.968845656999747,,,068,001,2019_May_30_1312,MusicAffectPsychophysiology2019,3.0.5,59.92832428587972,
To what extent did the music make you feel ,ASHAMED,30MonoWAV/30MonoH2.wav,2,2,1,6,,,,,1,15,31,5,0,8,8,4,,,,,,,,,1,2.1679626229997666,,,068,001,2019_May_30_1312,MusicAffectPsychophysiology2019,3.0.5,59.92832428587972,
To what extent did the music make you feel ,SCARED,30MonoWAV/30MonoH2.wav,2,2,1,6,,,,,1,15,31,5,0,9,9,11,,,,,,,,,1,3.918027873000028,,,068,001,2019_May_30_1312,MusicAffectPsychophysiology2019,3.0.5,59.92832428587972,
To what extent did the music make you feel ,ANXIOUS ,30MonoWAV/30MonoH2.wav,2,2,1,6,,,,,1,15,31,5,0,10,10,1,,,,,,,,,1,3.9674859890001244,,,068,001,2019_May_30_1312,MusicAffectPsychophysiology2019,3.0.5,59.92832428587972,
To what extent did the music make you feel ,HAPPY,30MonoWAV/30MonoH2.wav,2,2,1,6,,,,,1,15,31,5,0,11,11,6,,,,,,,,,4,1.1853349369998796,,,068,001,2019_May_30_1312,MusicAffectPsychophysiology2019,3.0.5,59.92832428587972,
,,30MonoWAV/30MonoH2.wav,2,2,1,6,,,,,1,15,31,5,,,,,,,,,,,,,,,,,068,001,2019_May_30_1312,MusicAffectPsychophysiology2019,3.0.5,59.92832428587972,
,,,,,,,,,,,,,,,,,,,,,,,,,,,,,space,6.866317186000288,068,001,2019_May_30_1312,MusicAffectPsychophysiology2019,3.0.5,59.92832428587972,
