Instruction,Word,song,valence,arousal,affectcat,songmark,pracwords.thisRepN,pracwords.thisTrialN,pracwords.thisN,pracwords.thisIndex,songtrials.thisRepN,songtrials.thisTrialN,songtrials.thisN,songtrials.thisIndex,words.thisRepN,words.thisTrialN,words.thisN,words.thisIndex,begin.keys,begin.rt,arousalkey.keys,arousalkey.rt,valencekey.keys,valencekey.rt,likekey.keys,likekey.rt,WordResponse.keys,WordResponse.rt,key_resp_2.keys,key_resp_2.rt,participant,session,date,expName,psychopyVersion,frameRate,
,,,,,,,,,,,,,,,,,,,space,17.703623302999404,,,,,,,,,,,069,001,2019_May_30_1413,MusicAffectPsychophysiology2019,3.0.5,59.94389383415557,
,,,,,,,,,,,,,,,,,,,,,3,5.952570356999786,,,,,,,,,069,001,2019_May_30_1413,MusicAffectPsychophysiology2019,3.0.5,59.94389383415557,
,,,,,,,,,,,,,,,,,,,,,,,5,5.484458573000666,,,,,,,069,001,2019_May_30_1413,MusicAffectPsychophysiology2019,3.0.5,59.94389383415557,
,,,,,,,,,,,,,,,,,,,,,,,,,4,3.218582784999853,,,,,069,001,2019_May_30_1413,MusicAffectPsychophysiology2019,3.0.5,59.94389383415557,
To what extent did the music make you feel ,HAPPY,,,,,,0,0,0,6,,,,,,,,,,,,,,,,,4,5.311150339000051,,,069,001,2019_May_30_1413,MusicAffectPsychophysiology2019,3.0.5,59.94389383415557,
To what extent did the music make you feel ,TENDER,,,,,,0,1,1,10,,,,,,,,,,,,,,,,,3,4.251279376000639,,,069,001,2019_May_30_1413,MusicAffectPsychophysiology2019,3.0.5,59.94389383415557,
To what extent did the music make you feel ,ANXIOUS ,,,,,,0,2,2,1,,,,,,,,,,,,,,,,,1,2.268939914000839,,,069,001,2019_May_30_1413,MusicAffectPsychophysiology2019,3.0.5,59.94389383415557,
To what extent did the music make you feel ,GUILTY,,,,,,0,3,3,5,,,,,,,,,,,,,,,,,1,1.202044620000379,,,069,001,2019_May_30_1413,MusicAffectPsychophysiology2019,3.0.5,59.94389383415557,
To what extent did the music make you feel ,ANGRY,,,,,,0,4,4,2,,,,,,,,,,,,,,,,,1,0.9188395780001883,,,069,001,2019_May_30_1413,MusicAffectPsychophysiology2019,3.0.5,59.94389383415557,
To what extent did the music make you feel ,ACTIVE,,,,,,0,5,5,9,,,,,,,,,,,,,,,,,2,5.434431515999677,,,069,001,2019_May_30_1413,MusicAffectPsychophysiology2019,3.0.5,59.94389383415557,
To what extent did the music make you feel ,FRUSTRATED,,,,,,0,6,6,3,,,,,,,,,,,,,,,,,1,1.201454166000076,,,069,001,2019_May_30_1413,MusicAffectPsychophysiology2019,3.0.5,59.94389383415557,
To what extent did the music make you feel ,SAD,,,,,,0,7,7,0,,,,,,,,,,,,,,,,,1,1.6524171290002414,,,069,001,2019_May_30_1413,MusicAffectPsychophysiology2019,3.0.5,59.94389383415557,
To what extent did the music make you feel ,ASHAMED,,,,,,0,8,8,4,,,,,,,,,,,,,,,,,1,0.8521345339995605,,,069,001,2019_May_30_1413,MusicAffectPsychophysiology2019,3.0.5,59.94389383415557,
To what extent did the music make you feel ,EXCITED,,,,,,0,9,9,7,,,,,,,,,,,,,,,,,3,3.801555465999627,,,069,001,2019_May_30_1413,MusicAffectPsychophysiology2019,3.0.5,59.94389383415557,
To what extent did the music make you feel ,ALERT,,,,,,0,10,10,8,,,,,,,,,,,,,,,,,3,1.7351399780000065,,,069,001,2019_May_30_1413,MusicAffectPsychophysiology2019,3.0.5,59.94389383415557,
To what extent did the music make you feel ,SCARED,,,,,,0,11,11,11,,,,,,,,,,,,,,,,,1,1.2010650740003257,,,069,001,2019_May_30_1413,MusicAffectPsychophysiology2019,3.0.5,59.94389383415557,
To what extent did the music make you feel ,ASHAMED,30MonoWAV/30MonoH2.wav,2,2,1,6,,,,,0,0,0,5,0,0,0,4,,,3,6.312265667999782,2,4.102238243000102,3,3.0850060559996564,1,2.934805215000779,,,069,001,2019_May_30_1413,MusicAffectPsychophysiology2019,3.0.5,59.94389383415557,
To what extent did the music make you feel ,FRUSTRATED,30MonoWAV/30MonoH2.wav,2,2,1,6,,,,,0,0,0,5,0,1,1,3,,,,,,,,,1,1.7178655109992178,,,069,001,2019_May_30_1413,MusicAffectPsychophysiology2019,3.0.5,59.94389383415557,
To what extent did the music make you feel ,ANGRY,30MonoWAV/30MonoH2.wav,2,2,1,6,,,,,0,0,0,5,0,2,2,2,,,,,,,,,1,2.251424097000381,,,069,001,2019_May_30_1413,MusicAffectPsychophysiology2019,3.0.5,59.94389383415557,
To what extent did the music make you feel ,ANXIOUS ,30MonoWAV/30MonoH2.wav,2,2,1,6,,,,,0,0,0,5,0,3,3,1,,,,,,,,,3,2.4185793110000304,,,069,001,2019_May_30_1413,MusicAffectPsychophysiology2019,3.0.5,59.94389383415557,
To what extent did the music make you feel ,SCARED,30MonoWAV/30MonoH2.wav,2,2,1,6,,,,,0,0,0,5,0,4,4,11,,,,,,,,,2,1.468212331000359,,,069,001,2019_May_30_1413,MusicAffectPsychophysiology2019,3.0.5,59.94389383415557,
To what extent did the music make you feel ,ACTIVE,30MonoWAV/30MonoH2.wav,2,2,1,6,,,,,0,0,0,5,0,5,5,9,,,,,,,,,3,1.7507488849996662,,,069,001,2019_May_30_1413,MusicAffectPsychophysiology2019,3.0.5,59.94389383415557,
To what extent did the music make you feel ,HAPPY,30MonoWAV/30MonoH2.wav,2,2,1,6,,,,,0,0,0,5,0,6,6,6,,,,,,,,,2,4.367654576999485,,,069,001,2019_May_30_1413,MusicAffectPsychophysiology2019,3.0.5,59.94389383415557,
To what extent did the music make you feel ,TENDER,30MonoWAV/30MonoH2.wav,2,2,1,6,,,,,0,0,0,5,0,7,7,10,,,,,,,,,1,4.251707944999907,,,069,001,2019_May_30_1413,MusicAffectPsychophysiology2019,3.0.5,59.94389383415557,
To what extent did the music make you feel ,ALERT,30MonoWAV/30MonoH2.wav,2,2,1,6,,,,,0,0,0,5,0,8,8,8,,,,,,,,,4,2.1501184469998407,,,069,001,2019_May_30_1413,MusicAffectPsychophysiology2019,3.0.5,59.94389383415557,
To what extent did the music make you feel ,SAD,30MonoWAV/30MonoH2.wav,2,2,1,6,,,,,0,0,0,5,0,9,9,0,,,,,,,,,2,1.701702141000169,,,069,001,2019_May_30_1413,MusicAffectPsychophysiology2019,3.0.5,59.94389383415557,
To what extent did the music make you feel ,EXCITED,30MonoWAV/30MonoH2.wav,2,2,1,6,,,,,0,0,0,5,0,10,10,7,,,,,,,,,1,4.267582996999408,,,069,001,2019_May_30_1413,MusicAffectPsychophysiology2019,3.0.5,59.94389383415557,
To what extent did the music make you feel ,GUILTY,30MonoWAV/30MonoH2.wav,2,2,1,6,,,,,0,0,0,5,0,11,11,5,,,,,,,,,1,1.2845528819998435,,,069,001,2019_May_30_1413,MusicAffectPsychophysiology2019,3.0.5,59.94389383415557,
,,30MonoWAV/30MonoH2.wav,2,2,1,6,,,,,0,0,0,5,,,,,,,,,,,,,,,,,069,001,2019_May_30_1413,MusicAffectPsychophysiology2019,3.0.5,59.94389383415557,
To what extent did the music make you feel ,SCARED,30MonoWAV/30MonoF3.wav,1,2,2,3,,,,,0,1,1,2,0,0,0,11,,,3,3.733781430999443,1,4.118167108999842,1,4.451291749999655,2,2.60463378500026,,,069,001,2019_May_30_1413,MusicAffectPsychophysiology2019,3.0.5,59.94389383415557,
To what extent did the music make you feel ,SAD,30MonoWAV/30MonoF3.wav,1,2,2,3,,,,,0,1,1,2,0,1,1,0,,,,,,,,,1,4.616714490000049,,,069,001,2019_May_30_1413,MusicAffectPsychophysiology2019,3.0.5,59.94389383415557,
To what extent did the music make you feel ,ASHAMED,30MonoWAV/30MonoF3.wav,1,2,2,3,,,,,0,1,1,2,0,2,2,4,,,,,,,,,1,1.5016554399999222,,,069,001,2019_May_30_1413,MusicAffectPsychophysiology2019,3.0.5,59.94389383415557,
To what extent did the music make you feel ,GUILTY,30MonoWAV/30MonoF3.wav,1,2,2,3,,,,,0,1,1,2,0,3,3,5,,,,,,,,,1,5.317676792999919,,,069,001,2019_May_30_1413,MusicAffectPsychophysiology2019,3.0.5,59.94389383415557,
To what extent did the music make you feel ,ANXIOUS ,30MonoWAV/30MonoF3.wav,1,2,2,3,,,,,0,1,1,2,0,4,4,1,,,,,,,,,3,1.3339727490001678,,,069,001,2019_May_30_1413,MusicAffectPsychophysiology2019,3.0.5,59.94389383415557,
To what extent did the music make you feel ,EXCITED,30MonoWAV/30MonoF3.wav,1,2,2,3,,,,,0,1,1,2,0,5,5,7,,,,,,,,,1,3.268848136000088,,,069,001,2019_May_30_1413,MusicAffectPsychophysiology2019,3.0.5,59.94389383415557,
To what extent did the music make you feel ,HAPPY,30MonoWAV/30MonoF3.wav,1,2,2,3,,,,,0,1,1,2,0,6,6,6,,,,,,,,,1,1.851395458999832,,,069,001,2019_May_30_1413,MusicAffectPsychophysiology2019,3.0.5,59.94389383415557,
To what extent did the music make you feel ,ACTIVE,30MonoWAV/30MonoF3.wav,1,2,2,3,,,,,0,1,1,2,0,7,7,9,,,,,,,,,2,1.56810060800035,,,069,001,2019_May_30_1413,MusicAffectPsychophysiology2019,3.0.5,59.94389383415557,
To what extent did the music make you feel ,TENDER,30MonoWAV/30MonoF3.wav,1,2,2,3,,,,,0,1,1,2,0,8,8,10,,,,,,,,,1,0.9693362990001333,,,069,001,2019_May_30_1413,MusicAffectPsychophysiology2019,3.0.5,59.94389383415557,
To what extent did the music make you feel ,FRUSTRATED,30MonoWAV/30MonoF3.wav,1,2,2,3,,,,,0,1,1,2,0,9,9,3,,,,,,,,,3,4.034764742999869,,,069,001,2019_May_30_1413,MusicAffectPsychophysiology2019,3.0.5,59.94389383415557,
To what extent did the music make you feel ,ALERT,30MonoWAV/30MonoF3.wav,1,2,2,3,,,,,0,1,1,2,0,10,10,8,,,,,,,,,4,1.9850179879995267,,,069,001,2019_May_30_1413,MusicAffectPsychophysiology2019,3.0.5,59.94389383415557,
To what extent did the music make you feel ,ANGRY,30MonoWAV/30MonoF3.wav,1,2,2,3,,,,,0,1,1,2,0,11,11,2,,,,,,,,,3,1.1193051579994062,,,069,001,2019_May_30_1413,MusicAffectPsychophysiology2019,3.0.5,59.94389383415557,
,,30MonoWAV/30MonoF3.wav,1,2,2,3,,,,,0,1,1,2,,,,,,,,,,,,,,,,,069,001,2019_May_30_1413,MusicAffectPsychophysiology2019,3.0.5,59.94389383415557,
To what extent did the music make you feel ,ALERT,30MonoWAV/30MonoS2.wav,1,1,3,10,,,,,0,2,2,9,0,0,0,8,,,1,3.6165264919991387,2,7.133262858999842,3,4.484666941999421,1,3.4354803779997383,,,069,001,2019_May_30_1413,MusicAffectPsychophysiology2019,3.0.5,59.94389383415557,
To what extent did the music make you feel ,ANGRY,30MonoWAV/30MonoS2.wav,1,1,3,10,,,,,0,2,2,9,0,1,1,2,,,,,,,,,1,1.6840228999999454,,,069,001,2019_May_30_1413,MusicAffectPsychophysiology2019,3.0.5,59.94389383415557,
To what extent did the music make you feel ,EXCITED,30MonoWAV/30MonoS2.wav,1,1,3,10,,,,,0,2,2,9,0,2,2,7,,,,,,,,,1,1.9511619639997662,,,069,001,2019_May_30_1413,MusicAffectPsychophysiology2019,3.0.5,59.94389383415557,
To what extent did the music make you feel ,HAPPY,30MonoWAV/30MonoS2.wav,1,1,3,10,,,,,0,2,2,9,0,3,3,6,,,,,,,,,1,2.6345502530002705,,,069,001,2019_May_30_1413,MusicAffectPsychophysiology2019,3.0.5,59.94389383415557,
To what extent did the music make you feel ,TENDER,30MonoWAV/30MonoS2.wav,1,1,3,10,,,,,0,2,2,9,0,4,4,10,,,,,,,,,5,3.3691191660000186,,,069,001,2019_May_30_1413,MusicAffectPsychophysiology2019,3.0.5,59.94389383415557,
To what extent did the music make you feel ,GUILTY,30MonoWAV/30MonoS2.wav,1,1,3,10,,,,,0,2,2,9,0,5,5,5,,,,,,,,,2,1.80061112400017,,,069,001,2019_May_30_1413,MusicAffectPsychophysiology2019,3.0.5,59.94389383415557,
To what extent did the music make you feel ,SCARED,30MonoWAV/30MonoS2.wav,1,1,3,10,,,,,0,2,2,9,0,6,6,11,,,,,,,,,1,4.201009455000531,,,069,001,2019_May_30_1413,MusicAffectPsychophysiology2019,3.0.5,59.94389383415557,
To what extent did the music make you feel ,ACTIVE,30MonoWAV/30MonoS2.wav,1,1,3,10,,,,,0,2,2,9,0,7,7,9,,,,,,,,,1,1.0510639630001606,,,069,001,2019_May_30_1413,MusicAffectPsychophysiology2019,3.0.5,59.94389383415557,
To what extent did the music make you feel ,ASHAMED,30MonoWAV/30MonoS2.wav,1,1,3,10,,,,,0,2,2,9,0,8,8,4,,,,,,,,,2,1.6855572060003396,,,069,001,2019_May_30_1413,MusicAffectPsychophysiology2019,3.0.5,59.94389383415557,
To what extent did the music make you feel ,ANXIOUS ,30MonoWAV/30MonoS2.wav,1,1,3,10,,,,,0,2,2,9,0,9,9,1,,,,,,,,,2,3.0344160790000387,,,069,001,2019_May_30_1413,MusicAffectPsychophysiology2019,3.0.5,59.94389383415557,
To what extent did the music make you feel ,SAD,30MonoWAV/30MonoS2.wav,1,1,3,10,,,,,0,2,2,9,0,10,10,0,,,,,,,,,4,1.3689944699999614,,,069,001,2019_May_30_1413,MusicAffectPsychophysiology2019,3.0.5,59.94389383415557,
To what extent did the music make you feel ,FRUSTRATED,30MonoWAV/30MonoS2.wav,1,1,3,10,,,,,0,2,2,9,0,11,11,3,,,,,,,,,1,1.3681970380002895,,,069,001,2019_May_30_1413,MusicAffectPsychophysiology2019,3.0.5,59.94389383415557,
,,30MonoWAV/30MonoS2.wav,1,1,3,10,,,,,0,2,2,9,,,,,,,,,,,,,,,,,069,001,2019_May_30_1413,MusicAffectPsychophysiology2019,3.0.5,59.94389383415557,
To what extent did the music make you feel ,TENDER,30MonoWAV/30MonoS3.wav,1,1,3,11,,,,,0,3,3,10,0,0,0,10,,,2,5.117823467000562,1,2.434752428000138,2,2.2518668529992283,2,2.801951045000351,,,069,001,2019_May_30_1413,MusicAffectPsychophysiology2019,3.0.5,59.94389383415557,
To what extent did the music make you feel ,ALERT,30MonoWAV/30MonoS3.wav,1,1,3,11,,,,,0,3,3,10,0,1,1,8,,,,,,,,,3,1.7189410769997266,,,069,001,2019_May_30_1413,MusicAffectPsychophysiology2019,3.0.5,59.94389383415557,
To what extent did the music make you feel ,EXCITED,30MonoWAV/30MonoS3.wav,1,1,3,11,,,,,0,3,3,10,0,2,2,7,,,,,,,,,1,1.6022120679999716,,,069,001,2019_May_30_1413,MusicAffectPsychophysiology2019,3.0.5,59.94389383415557,
To what extent did the music make you feel ,ANXIOUS ,30MonoWAV/30MonoS3.wav,1,1,3,11,,,,,0,3,3,10,0,3,3,1,,,,,,,,,4,1.2344621430002007,,,069,001,2019_May_30_1413,MusicAffectPsychophysiology2019,3.0.5,59.94389383415557,
To what extent did the music make you feel ,ACTIVE,30MonoWAV/30MonoS3.wav,1,1,3,11,,,,,0,3,3,10,0,4,4,9,,,,,,,,,1,2.21824724399994,,,069,001,2019_May_30_1413,MusicAffectPsychophysiology2019,3.0.5,59.94389383415557,
To what extent did the music make you feel ,SCARED,30MonoWAV/30MonoS3.wav,1,1,3,11,,,,,0,3,3,10,0,5,5,11,,,,,,,,,3,2.034269776000656,,,069,001,2019_May_30_1413,MusicAffectPsychophysiology2019,3.0.5,59.94389383415557,
To what extent did the music make you feel ,GUILTY,30MonoWAV/30MonoS3.wav,1,1,3,11,,,,,0,3,3,10,0,6,6,5,,,,,,,,,3,2.018611337999573,,,069,001,2019_May_30_1413,MusicAffectPsychophysiology2019,3.0.5,59.94389383415557,
To what extent did the music make you feel ,FRUSTRATED,30MonoWAV/30MonoS3.wav,1,1,3,11,,,,,0,3,3,10,0,7,7,3,,,,,,,,,2,1.6503873290002957,,,069,001,2019_May_30_1413,MusicAffectPsychophysiology2019,3.0.5,59.94389383415557,
To what extent did the music make you feel ,HAPPY,30MonoWAV/30MonoS3.wav,1,1,3,11,,,,,0,3,3,10,0,8,8,6,,,,,,,,,1,1.1513133319995177,,,069,001,2019_May_30_1413,MusicAffectPsychophysiology2019,3.0.5,59.94389383415557,
To what extent did the music make you feel ,ASHAMED,30MonoWAV/30MonoS3.wav,1,1,3,11,,,,,0,3,3,10,0,9,9,4,,,,,,,,,3,1.9845492929998727,,,069,001,2019_May_30_1413,MusicAffectPsychophysiology2019,3.0.5,59.94389383415557,
To what extent did the music make you feel ,ANGRY,30MonoWAV/30MonoS3.wav,1,1,3,11,,,,,0,3,3,10,0,10,10,2,,,,,,,,,1,2.1994572710000284,,,069,001,2019_May_30_1413,MusicAffectPsychophysiology2019,3.0.5,59.94389383415557,
To what extent did the music make you feel ,SAD,30MonoWAV/30MonoS3.wav,1,1,3,11,,,,,0,3,3,10,0,11,11,0,,,,,,,,,3,1.5022899240002516,,,069,001,2019_May_30_1413,MusicAffectPsychophysiology2019,3.0.5,59.94389383415557,
,,30MonoWAV/30MonoS3.wav,1,1,3,11,,,,,0,3,3,10,,,,,,,,,,,,,,,,,069,001,2019_May_30_1413,MusicAffectPsychophysiology2019,3.0.5,59.94389383415557,
To what extent did the music make you feel ,ACTIVE,30MonoWAV/30MonoS4.wav,1,1,3,12,,,,,0,4,4,11,0,0,0,9,,,1,4.134593816000233,4,3.049470356000711,3,3.8846164090000457,1,1.5354933909993633,,,069,001,2019_May_30_1413,MusicAffectPsychophysiology2019,3.0.5,59.94389383415557,
To what extent did the music make you feel ,ASHAMED,30MonoWAV/30MonoS4.wav,1,1,3,12,,,,,0,4,4,11,0,1,1,4,,,,,,,,,1,3.0686226849993545,,,069,001,2019_May_30_1413,MusicAffectPsychophysiology2019,3.0.5,59.94389383415557,
To what extent did the music make you feel ,SCARED,30MonoWAV/30MonoS4.wav,1,1,3,12,,,,,0,4,4,11,0,2,2,11,,,,,,,,,1,1.3513121639998644,,,069,001,2019_May_30_1413,MusicAffectPsychophysiology2019,3.0.5,59.94389383415557,
To what extent did the music make you feel ,GUILTY,30MonoWAV/30MonoS4.wav,1,1,3,12,,,,,0,4,4,11,0,3,3,5,,,,,,,,,1,1.2514561009993486,,,069,001,2019_May_30_1413,MusicAffectPsychophysiology2019,3.0.5,59.94389383415557,
To what extent did the music make you feel ,ANGRY,30MonoWAV/30MonoS4.wav,1,1,3,12,,,,,0,4,4,11,0,4,4,2,,,,,,,,,1,1.083875483999691,,,069,001,2019_May_30_1413,MusicAffectPsychophysiology2019,3.0.5,59.94389383415557,
To what extent did the music make you feel ,HAPPY,30MonoWAV/30MonoS4.wav,1,1,3,12,,,,,0,4,4,11,0,5,5,6,,,,,,,,,2,1.2348737550000806,,,069,001,2019_May_30_1413,MusicAffectPsychophysiology2019,3.0.5,59.94389383415557,
To what extent did the music make you feel ,ANXIOUS ,30MonoWAV/30MonoS4.wav,1,1,3,12,,,,,0,4,4,11,0,6,6,1,,,,,,,,,1,2.4847144679997655,,,069,001,2019_May_30_1413,MusicAffectPsychophysiology2019,3.0.5,59.94389383415557,
To what extent did the music make you feel ,EXCITED,30MonoWAV/30MonoS4.wav,1,1,3,12,,,,,0,4,4,11,0,7,7,7,,,,,,,,,1,1.551979511999889,,,069,001,2019_May_30_1413,MusicAffectPsychophysiology2019,3.0.5,59.94389383415557,
To what extent did the music make you feel ,ALERT,30MonoWAV/30MonoS4.wav,1,1,3,12,,,,,0,4,4,11,0,8,8,8,,,,,,,,,1,1.0676662429996213,,,069,001,2019_May_30_1413,MusicAffectPsychophysiology2019,3.0.5,59.94389383415557,
To what extent did the music make you feel ,TENDER,30MonoWAV/30MonoS4.wav,1,1,3,12,,,,,0,4,4,11,0,9,9,10,,,,,,,,,4,2.767993819000367,,,069,001,2019_May_30_1413,MusicAffectPsychophysiology2019,3.0.5,59.94389383415557,
To what extent did the music make you feel ,SAD,30MonoWAV/30MonoS4.wav,1,1,3,12,,,,,0,4,4,11,0,10,10,0,,,,,,,,,3,1.8679729390005377,,,069,001,2019_May_30_1413,MusicAffectPsychophysiology2019,3.0.5,59.94389383415557,
To what extent did the music make you feel ,FRUSTRATED,30MonoWAV/30MonoS4.wav,1,1,3,12,,,,,0,4,4,11,0,11,11,3,,,,,,,,,1,1.1346296840001742,,,069,001,2019_May_30_1413,MusicAffectPsychophysiology2019,3.0.5,59.94389383415557,
,,30MonoWAV/30MonoS4.wav,1,1,3,12,,,,,0,4,4,11,,,,,,,,,,,,,,,,,069,001,2019_May_30_1413,MusicAffectPsychophysiology2019,3.0.5,59.94389383415557,
To what extent did the music make you feel ,FRUSTRATED,30MonoWAV/30MonoT1.wav,2,1,4,13,,,,,0,5,5,12,0,0,0,3,,,3,3.0857793659997697,4,2.6416877319998093,3,2.9046218120001868,1,2.0045719320005446,,,069,001,2019_May_30_1413,MusicAffectPsychophysiology2019,3.0.5,59.94389383415557,
To what extent did the music make you feel ,ALERT,30MonoWAV/30MonoT1.wav,2,1,4,13,,,,,0,5,5,12,0,1,1,8,,,,,,,,,3,1.888862877000065,,,069,001,2019_May_30_1413,MusicAffectPsychophysiology2019,3.0.5,59.94389383415557,
To what extent did the music make you feel ,ANGRY,30MonoWAV/30MonoT1.wav,2,1,4,13,,,,,0,5,5,12,0,2,2,2,,,,,,,,,1,0.9507237670004542,,,069,001,2019_May_30_1413,MusicAffectPsychophysiology2019,3.0.5,59.94389383415557,
To what extent did the music make you feel ,GUILTY,30MonoWAV/30MonoT1.wav,2,1,4,13,,,,,0,5,5,12,0,3,3,5,,,,,,,,,1,0.9345934230004787,,,069,001,2019_May_30_1413,MusicAffectPsychophysiology2019,3.0.5,59.94389383415557,
To what extent did the music make you feel ,HAPPY,30MonoWAV/30MonoT1.wav,2,1,4,13,,,,,0,5,5,12,0,4,4,6,,,,,,,,,3,1.3014378819998456,,,069,001,2019_May_30_1413,MusicAffectPsychophysiology2019,3.0.5,59.94389383415557,
To what extent did the music make you feel ,ACTIVE,30MonoWAV/30MonoT1.wav,2,1,4,13,,,,,0,5,5,12,0,5,5,9,,,,,,,,,2,1.1356412969998928,,,069,001,2019_May_30_1413,MusicAffectPsychophysiology2019,3.0.5,59.94389383415557,
To what extent did the music make you feel ,ANXIOUS ,30MonoWAV/30MonoT1.wav,2,1,4,13,,,,,0,5,5,12,0,6,6,1,,,,,,,,,1,1.9516393000003518,,,069,001,2019_May_30_1413,MusicAffectPsychophysiology2019,3.0.5,59.94389383415557,
To what extent did the music make you feel ,TENDER,30MonoWAV/30MonoT1.wav,2,1,4,13,,,,,0,5,5,12,0,7,7,10,,,,,,,,,3,1.2860298139994484,,,069,001,2019_May_30_1413,MusicAffectPsychophysiology2019,3.0.5,59.94389383415557,
To what extent did the music make you feel ,SCARED,30MonoWAV/30MonoT1.wav,2,1,4,13,,,,,0,5,5,12,0,8,8,11,,,,,,,,,1,0.9354769159999705,,,069,001,2019_May_30_1413,MusicAffectPsychophysiology2019,3.0.5,59.94389383415557,
To what extent did the music make you feel ,SAD,30MonoWAV/30MonoT1.wav,2,1,4,13,,,,,0,5,5,12,0,9,9,0,,,,,,,,,1,4.101151466999909,,,069,001,2019_May_30_1413,MusicAffectPsychophysiology2019,3.0.5,59.94389383415557,
To what extent did the music make you feel ,EXCITED,30MonoWAV/30MonoT1.wav,2,1,4,13,,,,,0,5,5,12,0,10,10,7,,,,,,,,,2,1.1687038190002568,,,069,001,2019_May_30_1413,MusicAffectPsychophysiology2019,3.0.5,59.94389383415557,
To what extent did the music make you feel ,ASHAMED,30MonoWAV/30MonoT1.wav,2,1,4,13,,,,,0,5,5,12,0,11,11,4,,,,,,,,,1,0.9514429609998842,,,069,001,2019_May_30_1413,MusicAffectPsychophysiology2019,3.0.5,59.94389383415557,
,,30MonoWAV/30MonoT1.wav,2,1,4,13,,,,,0,5,5,12,,,,,,,,,,,,,,,,,069,001,2019_May_30_1413,MusicAffectPsychophysiology2019,3.0.5,59.94389383415557,
To what extent did the music make you feel ,TENDER,30MonoWAV/30MonoH3.wav,2,2,1,7,,,,,0,6,6,6,0,0,0,10,,,4,2.83505946600053,3,1.6349540620003609,3,2.233071880999887,2,2.851337402000354,,,069,001,2019_May_30_1413,MusicAffectPsychophysiology2019,3.0.5,59.94389383415557,
To what extent did the music make you feel ,ASHAMED,30MonoWAV/30MonoH3.wav,2,2,1,7,,,,,0,6,6,6,0,1,1,4,,,,,,,,,1,1.1190284960002828,,,069,001,2019_May_30_1413,MusicAffectPsychophysiology2019,3.0.5,59.94389383415557,
To what extent did the music make you feel ,ACTIVE,30MonoWAV/30MonoH3.wav,2,2,1,7,,,,,0,6,6,6,0,2,2,9,,,,,,,,,3,1.2022917029999007,,,069,001,2019_May_30_1413,MusicAffectPsychophysiology2019,3.0.5,59.94389383415557,
To what extent did the music make you feel ,GUILTY,30MonoWAV/30MonoH3.wav,2,2,1,7,,,,,0,6,6,6,0,3,3,5,,,,,,,,,1,1.1851429789994654,,,069,001,2019_May_30_1413,MusicAffectPsychophysiology2019,3.0.5,59.94389383415557,
To what extent did the music make you feel ,HAPPY,30MonoWAV/30MonoH3.wav,2,2,1,7,,,,,0,6,6,6,0,4,4,6,,,,,,,,,3,1.1347422200005894,,,069,001,2019_May_30_1413,MusicAffectPsychophysiology2019,3.0.5,59.94389383415557,
To what extent did the music make you feel ,EXCITED,30MonoWAV/30MonoH3.wav,2,2,1,7,,,,,0,6,6,6,0,5,5,7,,,,,,,,,4,1.1680631019999055,,,069,001,2019_May_30_1413,MusicAffectPsychophysiology2019,3.0.5,59.94389383415557,
To what extent did the music make you feel ,ANXIOUS ,30MonoWAV/30MonoH3.wav,2,2,1,7,,,,,0,6,6,6,0,6,6,1,,,,,,,,,1,1.7352549529996395,,,069,001,2019_May_30_1413,MusicAffectPsychophysiology2019,3.0.5,59.94389383415557,
To what extent did the music make you feel ,FRUSTRATED,30MonoWAV/30MonoH3.wav,2,2,1,7,,,,,0,6,6,6,0,7,7,3,,,,,,,,,1,1.0855854960000215,,,069,001,2019_May_30_1413,MusicAffectPsychophysiology2019,3.0.5,59.94389383415557,
To what extent did the music make you feel ,ALERT,30MonoWAV/30MonoH3.wav,2,2,1,7,,,,,0,6,6,6,0,8,8,8,,,,,,,,,4,1.2351119880004262,,,069,001,2019_May_30_1413,MusicAffectPsychophysiology2019,3.0.5,59.94389383415557,
To what extent did the music make you feel ,SCARED,30MonoWAV/30MonoH3.wav,2,2,1,7,,,,,0,6,6,6,0,9,9,11,,,,,,,,,1,2.8993205040005705,,,069,001,2019_May_30_1413,MusicAffectPsychophysiology2019,3.0.5,59.94389383415557,
To what extent did the music make you feel ,ANGRY,30MonoWAV/30MonoH3.wav,2,2,1,7,,,,,0,6,6,6,0,10,10,2,,,,,,,,,1,0.9853390140006013,,,069,001,2019_May_30_1413,MusicAffectPsychophysiology2019,3.0.5,59.94389383415557,
To what extent did the music make you feel ,SAD,30MonoWAV/30MonoH3.wav,2,2,1,7,,,,,0,6,6,6,0,11,11,0,,,,,,,,,1,1.452371010999741,,,069,001,2019_May_30_1413,MusicAffectPsychophysiology2019,3.0.5,59.94389383415557,
,,30MonoWAV/30MonoH3.wav,2,2,1,7,,,,,0,6,6,6,,,,,,,,,,,,,,,,,069,001,2019_May_30_1413,MusicAffectPsychophysiology2019,3.0.5,59.94389383415557,
To what extent did the music make you feel ,HAPPY,30MonoWAV/30MonoF2.wav,1,2,2,2,,,,,0,7,7,1,0,0,0,6,,,4,7.399608276000436,1,1.785659305000081,1,2.234798750999289,1,2.2348624440001004,,,069,001,2019_May_30_1413,MusicAffectPsychophysiology2019,3.0.5,59.94389383415557,
To what extent did the music make you feel ,FRUSTRATED,30MonoWAV/30MonoF2.wav,1,2,2,2,,,,,0,7,7,1,0,1,1,3,,,,,,,,,2,1.2520064179998371,,,069,001,2019_May_30_1413,MusicAffectPsychophysiology2019,3.0.5,59.94389383415557,
To what extent did the music make you feel ,ASHAMED,30MonoWAV/30MonoF2.wav,1,2,2,2,,,,,0,7,7,1,0,2,2,4,,,,,,,,,1,1.4844947269994009,,,069,001,2019_May_30_1413,MusicAffectPsychophysiology2019,3.0.5,59.94389383415557,
To what extent did the music make you feel ,EXCITED,30MonoWAV/30MonoF2.wav,1,2,2,2,,,,,0,7,7,1,0,3,3,7,,,,,,,,,1,1.251261245999558,,,069,001,2019_May_30_1413,MusicAffectPsychophysiology2019,3.0.5,59.94389383415557,
To what extent did the music make you feel ,ANXIOUS ,30MonoWAV/30MonoF2.wav,1,2,2,2,,,,,0,7,7,1,0,4,4,1,,,,,,,,,4,1.20160192000003,,,069,001,2019_May_30_1413,MusicAffectPsychophysiology2019,3.0.5,59.94389383415557,
To what extent did the music make you feel ,GUILTY,30MonoWAV/30MonoF2.wav,1,2,2,2,,,,,0,7,7,1,0,5,5,5,,,,,,,,,3,1.2692421210003886,,,069,001,2019_May_30_1413,MusicAffectPsychophysiology2019,3.0.5,59.94389383415557,
To what extent did the music make you feel ,SAD,30MonoWAV/30MonoF2.wav,1,2,2,2,,,,,0,7,7,1,0,6,6,0,,,,,,,,,2,2.1847152299997106,,,069,001,2019_May_30_1413,MusicAffectPsychophysiology2019,3.0.5,59.94389383415557,
To what extent did the music make you feel ,ALERT,30MonoWAV/30MonoF2.wav,1,2,2,2,,,,,0,7,7,1,0,7,7,8,,,,,,,,,5,1.1511094939996838,,,069,001,2019_May_30_1413,MusicAffectPsychophysiology2019,3.0.5,59.94389383415557,
To what extent did the music make you feel ,TENDER,30MonoWAV/30MonoF2.wav,1,2,2,2,,,,,0,7,7,1,0,8,8,10,,,,,,,,,1,1.218661479999355,,,069,001,2019_May_30_1413,MusicAffectPsychophysiology2019,3.0.5,59.94389383415557,
To what extent did the music make you feel ,ANGRY,30MonoWAV/30MonoF2.wav,1,2,2,2,,,,,0,7,7,1,0,9,9,2,,,,,,,,,2,1.4175414849996741,,,069,001,2019_May_30_1413,MusicAffectPsychophysiology2019,3.0.5,59.94389383415557,
To what extent did the music make you feel ,SCARED,30MonoWAV/30MonoF2.wav,1,2,2,2,,,,,0,7,7,1,0,10,10,11,,,,,,,,,4,1.385210514999926,,,069,001,2019_May_30_1413,MusicAffectPsychophysiology2019,3.0.5,59.94389383415557,
To what extent did the music make you feel ,ACTIVE,30MonoWAV/30MonoF2.wav,1,2,2,2,,,,,0,7,7,1,0,11,11,9,,,,,,,,,2,1.6837637560001895,,,069,001,2019_May_30_1413,MusicAffectPsychophysiology2019,3.0.5,59.94389383415557,
,,30MonoWAV/30MonoF2.wav,1,2,2,2,,,,,0,7,7,1,,,,,,,,,,,,,,,,,069,001,2019_May_30_1413,MusicAffectPsychophysiology2019,3.0.5,59.94389383415557,
To what extent did the music make you feel ,ACTIVE,30MonoWAV/30MonoT4.wav,2,1,4,16,,,,,0,8,8,15,0,0,0,9,,,4,2.1856056960004935,4,1.1683903409993945,4,1.568299112999739,3,2.1336063210001157,,,069,001,2019_May_30_1413,MusicAffectPsychophysiology2019,3.0.5,59.94389383415557,
To what extent did the music make you feel ,ANGRY,30MonoWAV/30MonoT4.wav,2,1,4,16,,,,,0,8,8,15,0,1,1,2,,,,,,,,,1,0.9855827649998901,,,069,001,2019_May_30_1413,MusicAffectPsychophysiology2019,3.0.5,59.94389383415557,
To what extent did the music make you feel ,FRUSTRATED,30MonoWAV/30MonoT4.wav,2,1,4,16,,,,,0,8,8,15,0,2,2,3,,,,,,,,,1,0.8687654039995323,,,069,001,2019_May_30_1413,MusicAffectPsychophysiology2019,3.0.5,59.94389383415557,
To what extent did the music make you feel ,TENDER,30MonoWAV/30MonoT4.wav,2,1,4,16,,,,,0,8,8,15,0,3,3,10,,,,,,,,,4,1.101973421999901,,,069,001,2019_May_30_1413,MusicAffectPsychophysiology2019,3.0.5,59.94389383415557,
To what extent did the music make you feel ,HAPPY,30MonoWAV/30MonoT4.wav,2,1,4,16,,,,,0,8,8,15,0,4,4,6,,,,,,,,,4,1.6677527239999108,,,069,001,2019_May_30_1413,MusicAffectPsychophysiology2019,3.0.5,59.94389383415557,
To what extent did the music make you feel ,ANXIOUS ,30MonoWAV/30MonoT4.wav,2,1,4,16,,,,,0,8,8,15,0,5,5,1,,,,,,,,,1,1.135509791000004,,,069,001,2019_May_30_1413,MusicAffectPsychophysiology2019,3.0.5,59.94389383415557,
To what extent did the music make you feel ,ALERT,30MonoWAV/30MonoT4.wav,2,1,4,16,,,,,0,8,8,15,0,6,6,8,,,,,,,,,3,0.9851007670004037,,,069,001,2019_May_30_1413,MusicAffectPsychophysiology2019,3.0.5,59.94389383415557,
To what extent did the music make you feel ,SCARED,30MonoWAV/30MonoT4.wav,2,1,4,16,,,,,0,8,8,15,0,7,7,11,,,,,,,,,1,0.935173887000019,,,069,001,2019_May_30_1413,MusicAffectPsychophysiology2019,3.0.5,59.94389383415557,
To what extent did the music make you feel ,SAD,30MonoWAV/30MonoT4.wav,2,1,4,16,,,,,0,8,8,15,0,8,8,0,,,,,,,,,1,1.0689117729998543,,,069,001,2019_May_30_1413,MusicAffectPsychophysiology2019,3.0.5,59.94389383415557,
To what extent did the music make you feel ,GUILTY,30MonoWAV/30MonoT4.wav,2,1,4,16,,,,,0,8,8,15,0,9,9,5,,,,,,,,,1,0.9852483630002098,,,069,001,2019_May_30_1413,MusicAffectPsychophysiology2019,3.0.5,59.94389383415557,
To what extent did the music make you feel ,ASHAMED,30MonoWAV/30MonoT4.wav,2,1,4,16,,,,,0,8,8,15,0,10,10,4,,,,,,,,,1,0.9681887609995101,,,069,001,2019_May_30_1413,MusicAffectPsychophysiology2019,3.0.5,59.94389383415557,
To what extent did the music make you feel ,EXCITED,30MonoWAV/30MonoT4.wav,2,1,4,16,,,,,0,8,8,15,0,11,11,7,,,,,,,,,3,1.3345606910006609,,,069,001,2019_May_30_1413,MusicAffectPsychophysiology2019,3.0.5,59.94389383415557,
,,30MonoWAV/30MonoT4.wav,2,1,4,16,,,,,0,8,8,15,,,,,,,,,,,,,,,,,069,001,2019_May_30_1413,MusicAffectPsychophysiology2019,3.0.5,59.94389383415557,
To what extent did the music make you feel ,ACTIVE,30MonoWAV/30MonoF4.wav,1,2,2,4,,,,,0,9,9,3,0,0,0,9,,,5,3.3939701990002504,2,2.367144659000587,1,2.9859087800005,3,1.915543100000832,,,069,001,2019_May_30_1413,MusicAffectPsychophysiology2019,3.0.5,59.94389383415557,
To what extent did the music make you feel ,ANXIOUS ,30MonoWAV/30MonoF4.wav,1,2,2,4,,,,,0,9,9,3,0,1,1,1,,,,,,,,,3,1.4856099729995549,,,069,001,2019_May_30_1413,MusicAffectPsychophysiology2019,3.0.5,59.94389383415557,
To what extent did the music make you feel ,FRUSTRATED,30MonoWAV/30MonoF4.wav,1,2,2,4,,,,,0,9,9,3,0,2,2,3,,,,,,,,,1,1.5849633830002858,,,069,001,2019_May_30_1413,MusicAffectPsychophysiology2019,3.0.5,59.94389383415557,
To what extent did the music make you feel ,TENDER,30MonoWAV/30MonoF4.wav,1,2,2,4,,,,,0,9,9,3,0,3,3,10,,,,,,,,,1,1.5007561729998997,,,069,001,2019_May_30_1413,MusicAffectPsychophysiology2019,3.0.5,59.94389383415557,
To what extent did the music make you feel ,GUILTY,30MonoWAV/30MonoF4.wav,1,2,2,4,,,,,0,9,9,3,0,4,4,5,,,,,,,,,1,1.236405698999988,,,069,001,2019_May_30_1413,MusicAffectPsychophysiology2019,3.0.5,59.94389383415557,
To what extent did the music make you feel ,ANGRY,30MonoWAV/30MonoF4.wav,1,2,2,4,,,,,0,9,9,3,0,5,5,2,,,,,,,,,1,2.050265983999452,,,069,001,2019_May_30_1413,MusicAffectPsychophysiology2019,3.0.5,59.94389383415557,
To what extent did the music make you feel ,HAPPY,30MonoWAV/30MonoF4.wav,1,2,2,4,,,,,0,9,9,3,0,6,6,6,,,,,,,,,1,2.268360252000093,,,069,001,2019_May_30_1413,MusicAffectPsychophysiology2019,3.0.5,59.94389383415557,
To what extent did the music make you feel ,SAD,30MonoWAV/30MonoF4.wav,1,2,2,4,,,,,0,9,9,3,0,7,7,0,,,,,,,,,1,1.2025029749993337,,,069,001,2019_May_30_1413,MusicAffectPsychophysiology2019,3.0.5,59.94389383415557,
To what extent did the music make you feel ,ALERT,30MonoWAV/30MonoF4.wav,1,2,2,4,,,,,0,9,9,3,0,8,8,8,,,,,,,,,5,1.6180973629998334,,,069,001,2019_May_30_1413,MusicAffectPsychophysiology2019,3.0.5,59.94389383415557,
To what extent did the music make you feel ,EXCITED,30MonoWAV/30MonoF4.wav,1,2,2,4,,,,,0,9,9,3,0,9,9,7,,,,,,,,,1,2.0689779920003275,,,069,001,2019_May_30_1413,MusicAffectPsychophysiology2019,3.0.5,59.94389383415557,
To what extent did the music make you feel ,SCARED,30MonoWAV/30MonoF4.wav,1,2,2,4,,,,,0,9,9,3,0,10,10,11,,,,,,,,,3,2.3514778420003495,,,069,001,2019_May_30_1413,MusicAffectPsychophysiology2019,3.0.5,59.94389383415557,
To what extent did the music make you feel ,ASHAMED,30MonoWAV/30MonoF4.wav,1,2,2,4,,,,,0,9,9,3,0,11,11,4,,,,,,,,,1,2.1192892819999543,,,069,001,2019_May_30_1413,MusicAffectPsychophysiology2019,3.0.5,59.94389383415557,
,,30MonoWAV/30MonoF4.wav,1,2,2,4,,,,,0,9,9,3,,,,,,,,,,,,,,,,,069,001,2019_May_30_1413,MusicAffectPsychophysiology2019,3.0.5,59.94389383415557,
To what extent did the music make you feel ,ANGRY,30MonoWAV/30MonoH4.wav,2,2,1,8,,,,,0,10,10,7,0,0,0,2,,,5,3.6185301449995677,5,1.4343142309999166,4,2.1515888889998678,1,1.205955989999893,,,069,001,2019_May_30_1413,MusicAffectPsychophysiology2019,3.0.5,59.94389383415557,
To what extent did the music make you feel ,FRUSTRATED,30MonoWAV/30MonoH4.wav,2,2,1,8,,,,,0,10,10,7,0,1,1,3,,,,,,,,,1,0.8692968770001244,,,069,001,2019_May_30_1413,MusicAffectPsychophysiology2019,3.0.5,59.94389383415557,
To what extent did the music make you feel ,ALERT,30MonoWAV/30MonoH4.wav,2,2,1,8,,,,,0,10,10,7,0,2,2,8,,,,,,,,,3,1.2178615120001268,,,069,001,2019_May_30_1413,MusicAffectPsychophysiology2019,3.0.5,59.94389383415557,
To what extent did the music make you feel ,ASHAMED,30MonoWAV/30MonoH4.wav,2,2,1,8,,,,,0,10,10,7,0,3,3,4,,,,,,,,,1,0.9022146779998366,,,069,001,2019_May_30_1413,MusicAffectPsychophysiology2019,3.0.5,59.94389383415557,
To what extent did the music make you feel ,SAD,30MonoWAV/30MonoH4.wav,2,2,1,8,,,,,0,10,10,7,0,4,4,0,,,,,,,,,1,1.0174591220002185,,,069,001,2019_May_30_1413,MusicAffectPsychophysiology2019,3.0.5,59.94389383415557,
To what extent did the music make you feel ,SCARED,30MonoWAV/30MonoH4.wav,2,2,1,8,,,,,0,10,10,7,0,5,5,11,,,,,,,,,1,1.0190600979994997,,,069,001,2019_May_30_1413,MusicAffectPsychophysiology2019,3.0.5,59.94389383415557,
To what extent did the music make you feel ,ANXIOUS ,30MonoWAV/30MonoH4.wav,2,2,1,8,,,,,0,10,10,7,0,6,6,1,,,,,,,,,1,1.068279621000329,,,069,001,2019_May_30_1413,MusicAffectPsychophysiology2019,3.0.5,59.94389383415557,
To what extent did the music make you feel ,GUILTY,30MonoWAV/30MonoH4.wav,2,2,1,8,,,,,0,10,10,7,0,7,7,5,,,,,,,,,1,1.0683755569998539,,,069,001,2019_May_30_1413,MusicAffectPsychophysiology2019,3.0.5,59.94389383415557,
To what extent did the music make you feel ,ACTIVE,30MonoWAV/30MonoH4.wav,2,2,1,8,,,,,0,10,10,7,0,8,8,9,,,,,,,,,4,1.7346274860001358,,,069,001,2019_May_30_1413,MusicAffectPsychophysiology2019,3.0.5,59.94389383415557,
To what extent did the music make you feel ,EXCITED,30MonoWAV/30MonoH4.wav,2,2,1,8,,,,,0,10,10,7,0,9,9,7,,,,,,,,,4,1.1177712320004503,,,069,001,2019_May_30_1413,MusicAffectPsychophysiology2019,3.0.5,59.94389383415557,
To what extent did the music make you feel ,HAPPY,30MonoWAV/30MonoH4.wav,2,2,1,8,,,,,0,10,10,7,0,10,10,6,,,,,,,,,5,2.0858589909994407,,,069,001,2019_May_30_1413,MusicAffectPsychophysiology2019,3.0.5,59.94389383415557,
To what extent did the music make you feel ,TENDER,30MonoWAV/30MonoH4.wav,2,2,1,8,,,,,0,10,10,7,0,11,11,10,,,,,,,,,3,1.4017898319998494,,,069,001,2019_May_30_1413,MusicAffectPsychophysiology2019,3.0.5,59.94389383415557,
,,30MonoWAV/30MonoH4.wav,2,2,1,8,,,,,0,10,10,7,,,,,,,,,,,,,,,,,069,001,2019_May_30_1413,MusicAffectPsychophysiology2019,3.0.5,59.94389383415557,
To what extent did the music make you feel ,ACTIVE,30MonoWAV/30MonoT2.wav,2,1,4,14,,,,,0,11,11,13,0,0,0,9,,,3,3.483018390000325,4,1.4686491380007283,4,1.3350774430000456,1,5.002121240000633,,,069,001,2019_May_30_1413,MusicAffectPsychophysiology2019,3.0.5,59.94389383415557,
To what extent did the music make you feel ,TENDER,30MonoWAV/30MonoT2.wav,2,1,4,14,,,,,0,11,11,13,0,1,1,10,,,,,,,,,4,1.2023179409998193,,,069,001,2019_May_30_1413,MusicAffectPsychophysiology2019,3.0.5,59.94389383415557,
To what extent did the music make you feel ,GUILTY,30MonoWAV/30MonoT2.wav,2,1,4,14,,,,,0,11,11,13,0,2,2,5,,,,,,,,,1,1.1520320070003436,,,069,001,2019_May_30_1413,MusicAffectPsychophysiology2019,3.0.5,59.94389383415557,
To what extent did the music make you feel ,EXCITED,30MonoWAV/30MonoT2.wav,2,1,4,14,,,,,0,11,11,13,0,3,3,7,,,,,,,,,2,2.3848438969998824,,,069,001,2019_May_30_1413,MusicAffectPsychophysiology2019,3.0.5,59.94389383415557,
To what extent did the music make you feel ,HAPPY,30MonoWAV/30MonoT2.wav,2,1,4,14,,,,,0,11,11,13,0,4,4,6,,,,,,,,,4,1.1014736189999894,,,069,001,2019_May_30_1413,MusicAffectPsychophysiology2019,3.0.5,59.94389383415557,
To what extent did the music make you feel ,SAD,30MonoWAV/30MonoT2.wav,2,1,4,14,,,,,0,11,11,13,0,5,5,0,,,,,,,,,2,4.484951951999392,,,069,001,2019_May_30_1413,MusicAffectPsychophysiology2019,3.0.5,59.94389383415557,
To what extent did the music make you feel ,FRUSTRATED,30MonoWAV/30MonoT2.wav,2,1,4,14,,,,,0,11,11,13,0,6,6,3,,,,,,,,,1,1.035642001999804,,,069,001,2019_May_30_1413,MusicAffectPsychophysiology2019,3.0.5,59.94389383415557,
To what extent did the music make you feel ,SCARED,30MonoWAV/30MonoT2.wav,2,1,4,14,,,,,0,11,11,13,0,7,7,11,,,,,,,,,1,1.035168813999917,,,069,001,2019_May_30_1413,MusicAffectPsychophysiology2019,3.0.5,59.94389383415557,
To what extent did the music make you feel ,ALERT,30MonoWAV/30MonoT2.wav,2,1,4,14,,,,,0,11,11,13,0,8,8,8,,,,,,,,,2,2.4002321759999177,,,069,001,2019_May_30_1413,MusicAffectPsychophysiology2019,3.0.5,59.94389383415557,
To what extent did the music make you feel ,ASHAMED,30MonoWAV/30MonoT2.wav,2,1,4,14,,,,,0,11,11,13,0,9,9,4,,,,,,,,,1,1.0018489370004318,,,069,001,2019_May_30_1413,MusicAffectPsychophysiology2019,3.0.5,59.94389383415557,
To what extent did the music make you feel ,ANXIOUS ,30MonoWAV/30MonoT2.wav,2,1,4,14,,,,,0,11,11,13,0,10,10,1,,,,,,,,,1,0.9527986550001515,,,069,001,2019_May_30_1413,MusicAffectPsychophysiology2019,3.0.5,59.94389383415557,
To what extent did the music make you feel ,ANGRY,30MonoWAV/30MonoT2.wav,2,1,4,14,,,,,0,11,11,13,0,11,11,2,,,,,,,,,1,0.8848340889999236,,,069,001,2019_May_30_1413,MusicAffectPsychophysiology2019,3.0.5,59.94389383415557,
,,30MonoWAV/30MonoT2.wav,2,1,4,14,,,,,0,11,11,13,,,,,,,,,,,,,,,,,069,001,2019_May_30_1413,MusicAffectPsychophysiology2019,3.0.5,59.94389383415557,
To what extent did the music make you feel ,TENDER,30MonoWAV/30MonoS1.wav,1,1,3,9,,,,,0,12,12,8,0,0,0,10,,,1,3.3051205280007707,1,3.007680884000365,1,2.0691055560000677,3,2.085905396000271,,,069,001,2019_May_30_1413,MusicAffectPsychophysiology2019,3.0.5,59.94389383415557,
To what extent did the music make you feel ,SCARED,30MonoWAV/30MonoS1.wav,1,1,3,9,,,,,0,12,12,8,0,1,1,11,,,,,,,,,3,1.933726514999762,,,069,001,2019_May_30_1413,MusicAffectPsychophysiology2019,3.0.5,59.94389383415557,
To what extent did the music make you feel ,GUILTY,30MonoWAV/30MonoS1.wav,1,1,3,9,,,,,0,12,12,8,0,2,2,5,,,,,,,,,2,1.2351322430004075,,,069,001,2019_May_30_1413,MusicAffectPsychophysiology2019,3.0.5,59.94389383415557,
To what extent did the music make you feel ,ANGRY,30MonoWAV/30MonoS1.wav,1,1,3,9,,,,,0,12,12,8,0,3,3,2,,,,,,,,,1,1.61807882300036,,,069,001,2019_May_30_1413,MusicAffectPsychophysiology2019,3.0.5,59.94389383415557,
To what extent did the music make you feel ,ALERT,30MonoWAV/30MonoS1.wav,1,1,3,9,,,,,0,12,12,8,0,4,4,8,,,,,,,,,2,1.5488522050000029,,,069,001,2019_May_30_1413,MusicAffectPsychophysiology2019,3.0.5,59.94389383415557,
To what extent did the music make you feel ,FRUSTRATED,30MonoWAV/30MonoS1.wav,1,1,3,9,,,,,0,12,12,8,0,5,5,3,,,,,,,,,2,2.2018209480002042,,,069,001,2019_May_30_1413,MusicAffectPsychophysiology2019,3.0.5,59.94389383415557,
To what extent did the music make you feel ,SAD,30MonoWAV/30MonoS1.wav,1,1,3,9,,,,,0,12,12,8,0,6,6,0,,,,,,,,,4,1.318417462999605,,,069,001,2019_May_30_1413,MusicAffectPsychophysiology2019,3.0.5,59.94389383415557,
To what extent did the music make you feel ,ACTIVE,30MonoWAV/30MonoS1.wav,1,1,3,9,,,,,0,12,12,8,0,7,7,9,,,,,,,,,1,1.3173197959995377,,,069,001,2019_May_30_1413,MusicAffectPsychophysiology2019,3.0.5,59.94389383415557,
To what extent did the music make you feel ,ASHAMED,30MonoWAV/30MonoS1.wav,1,1,3,9,,,,,0,12,12,8,0,8,8,4,,,,,,,,,2,2.3189712229996076,,,069,001,2019_May_30_1413,MusicAffectPsychophysiology2019,3.0.5,59.94389383415557,
To what extent did the music make you feel ,EXCITED,30MonoWAV/30MonoS1.wav,1,1,3,9,,,,,0,12,12,8,0,9,9,7,,,,,,,,,1,1.0184203609996985,,,069,001,2019_May_30_1413,MusicAffectPsychophysiology2019,3.0.5,59.94389383415557,
To what extent did the music make you feel ,ANXIOUS ,30MonoWAV/30MonoS1.wav,1,1,3,9,,,,,0,12,12,8,0,10,10,1,,,,,,,,,4,3.6508814130002065,,,069,001,2019_May_30_1413,MusicAffectPsychophysiology2019,3.0.5,59.94389383415557,
To what extent did the music make you feel ,HAPPY,30MonoWAV/30MonoS1.wav,1,1,3,9,,,,,0,12,12,8,0,11,11,6,,,,,,,,,1,1.8184296270001141,,,069,001,2019_May_30_1413,MusicAffectPsychophysiology2019,3.0.5,59.94389383415557,
,,30MonoWAV/30MonoS1.wav,1,1,3,9,,,,,0,12,12,8,,,,,,,,,,,,,,,,,069,001,2019_May_30_1413,MusicAffectPsychophysiology2019,3.0.5,59.94389383415557,
To what extent did the music make you feel ,HAPPY,30MonoWAV/30MonoH1.wav,2,2,1,5,,,,,0,13,13,4,0,0,0,6,,,4,3.534819919000256,3,1.0226283120000517,3,1.436345450000772,2,3.538692127000104,,,069,001,2019_May_30_1413,MusicAffectPsychophysiology2019,3.0.5,59.94389383415557,
To what extent did the music make you feel ,ANGRY,30MonoWAV/30MonoH1.wav,2,2,1,5,,,,,0,13,13,4,0,1,1,2,,,,,,,,,1,1.1695857249997061,,,069,001,2019_May_30_1413,MusicAffectPsychophysiology2019,3.0.5,59.94389383415557,
To what extent did the music make you feel ,ACTIVE,30MonoWAV/30MonoH1.wav,2,2,1,5,,,,,0,13,13,4,0,2,2,9,,,,,,,,,3,0.9906219340000462,,,069,001,2019_May_30_1413,MusicAffectPsychophysiology2019,3.0.5,59.94389383415557,
To what extent did the music make you feel ,ALERT,30MonoWAV/30MonoH1.wav,2,2,1,5,,,,,0,13,13,4,0,3,3,8,,,,,,,,,3,0.9186215010004162,,,069,001,2019_May_30_1413,MusicAffectPsychophysiology2019,3.0.5,59.94389383415557,
To what extent did the music make you feel ,EXCITED,30MonoWAV/30MonoH1.wav,2,2,1,5,,,,,0,13,13,4,0,4,4,7,,,,,,,,,2,2.3018485409993446,,,069,001,2019_May_30_1413,MusicAffectPsychophysiology2019,3.0.5,59.94389383415557,
To what extent did the music make you feel ,ANXIOUS ,30MonoWAV/30MonoH1.wav,2,2,1,5,,,,,0,13,13,4,0,5,5,1,,,,,,,,,1,0.7516935179992288,,,069,001,2019_May_30_1413,MusicAffectPsychophysiology2019,3.0.5,59.94389383415557,
To what extent did the music make you feel ,GUILTY,30MonoWAV/30MonoH1.wav,2,2,1,5,,,,,0,13,13,4,0,6,6,5,,,,,,,,,1,1.3017706760001602,,,069,001,2019_May_30_1413,MusicAffectPsychophysiology2019,3.0.5,59.94389383415557,
To what extent did the music make you feel ,TENDER,30MonoWAV/30MonoH1.wav,2,2,1,5,,,,,0,13,13,4,0,7,7,10,,,,,,,,,1,1.0178054469997733,,,069,001,2019_May_30_1413,MusicAffectPsychophysiology2019,3.0.5,59.94389383415557,
To what extent did the music make you feel ,FRUSTRATED,30MonoWAV/30MonoH1.wav,2,2,1,5,,,,,0,13,13,4,0,8,8,3,,,,,,,,,1,0.8347342739998567,,,069,001,2019_May_30_1413,MusicAffectPsychophysiology2019,3.0.5,59.94389383415557,
To what extent did the music make you feel ,ASHAMED,30MonoWAV/30MonoH1.wav,2,2,1,5,,,,,0,13,13,4,0,9,9,4,,,,,,,,,1,1.2185051899996324,,,069,001,2019_May_30_1413,MusicAffectPsychophysiology2019,3.0.5,59.94389383415557,
To what extent did the music make you feel ,SAD,30MonoWAV/30MonoH1.wav,2,2,1,5,,,,,0,13,13,4,0,10,10,0,,,,,,,,,1,0.8010215960002824,,,069,001,2019_May_30_1413,MusicAffectPsychophysiology2019,3.0.5,59.94389383415557,
To what extent did the music make you feel ,SCARED,30MonoWAV/30MonoH1.wav,2,2,1,5,,,,,0,13,13,4,0,11,11,11,,,,,,,,,1,0.8346738599993841,,,069,001,2019_May_30_1413,MusicAffectPsychophysiology2019,3.0.5,59.94389383415557,
,,30MonoWAV/30MonoH1.wav,2,2,1,5,,,,,0,13,13,4,,,,,,,,,,,,,,,,,069,001,2019_May_30_1413,MusicAffectPsychophysiology2019,3.0.5,59.94389383415557,
To what extent did the music make you feel ,ASHAMED,30MonoWAV/30MonoT3.wav,2,1,4,15,,,,,0,14,14,14,0,0,0,4,,,2,2.6168509460003406,3,1.784974298000634,3,1.1835060740004337,1,1.4020944650001184,,,069,001,2019_May_30_1413,MusicAffectPsychophysiology2019,3.0.5,59.94389383415557,
To what extent did the music make you feel ,ANXIOUS ,30MonoWAV/30MonoT3.wav,2,1,4,15,,,,,0,14,14,14,0,1,1,1,,,,,,,,,2,2.7019824010003504,,,069,001,2019_May_30_1413,MusicAffectPsychophysiology2019,3.0.5,59.94389383415557,
To what extent did the music make you feel ,ALERT,30MonoWAV/30MonoT3.wav,2,1,4,15,,,,,0,14,14,14,0,2,2,8,,,,,,,,,1,1.1348271399992882,,,069,001,2019_May_30_1413,MusicAffectPsychophysiology2019,3.0.5,59.94389383415557,
To what extent did the music make you feel ,SCARED,30MonoWAV/30MonoT3.wav,2,1,4,15,,,,,0,14,14,14,0,3,3,11,,,,,,,,,1,2.3336275249994287,,,069,001,2019_May_30_1413,MusicAffectPsychophysiology2019,3.0.5,59.94389383415557,
To what extent did the music make you feel ,SAD,30MonoWAV/30MonoT3.wav,2,1,4,15,,,,,0,14,14,14,0,4,4,0,,,,,,,,,2,1.933566742000039,,,069,001,2019_May_30_1413,MusicAffectPsychophysiology2019,3.0.5,59.94389383415557,
To what extent did the music make you feel ,FRUSTRATED,30MonoWAV/30MonoT3.wav,2,1,4,15,,,,,0,14,14,14,0,5,5,3,,,,,,,,,1,0.9030087820001427,,,069,001,2019_May_30_1413,MusicAffectPsychophysiology2019,3.0.5,59.94389383415557,
To what extent did the music make you feel ,ANGRY,30MonoWAV/30MonoT3.wav,2,1,4,15,,,,,0,14,14,14,0,6,6,2,,,,,,,,,1,1.4354067550002583,,,069,001,2019_May_30_1413,MusicAffectPsychophysiology2019,3.0.5,59.94389383415557,
To what extent did the music make you feel ,TENDER,30MonoWAV/30MonoT3.wav,2,1,4,15,,,,,0,14,14,14,0,7,7,10,,,,,,,,,3,0.9352179729994532,,,069,001,2019_May_30_1413,MusicAffectPsychophysiology2019,3.0.5,59.94389383415557,
To what extent did the music make you feel ,EXCITED,30MonoWAV/30MonoT3.wav,2,1,4,15,,,,,0,14,14,14,0,8,8,7,,,,,,,,,2,1.5347878729999138,,,069,001,2019_May_30_1413,MusicAffectPsychophysiology2019,3.0.5,59.94389383415557,
To what extent did the music make you feel ,GUILTY,30MonoWAV/30MonoT3.wav,2,1,4,15,,,,,0,14,14,14,0,9,9,5,,,,,,,,,1,2.018801856999744,,,069,001,2019_May_30_1413,MusicAffectPsychophysiology2019,3.0.5,59.94389383415557,
To what extent did the music make you feel ,HAPPY,30MonoWAV/30MonoT3.wav,2,1,4,15,,,,,0,14,14,14,0,10,10,6,,,,,,,,,3,1.6350987780006108,,,069,001,2019_May_30_1413,MusicAffectPsychophysiology2019,3.0.5,59.94389383415557,
To what extent did the music make you feel ,ACTIVE,30MonoWAV/30MonoT3.wav,2,1,4,15,,,,,0,14,14,14,0,11,11,9,,,,,,,,,1,2.383420385000136,,,069,001,2019_May_30_1413,MusicAffectPsychophysiology2019,3.0.5,59.94389383415557,
,,30MonoWAV/30MonoT3.wav,2,1,4,15,,,,,0,14,14,14,,,,,,,,,,,,,,,,,069,001,2019_May_30_1413,MusicAffectPsychophysiology2019,3.0.5,59.94389383415557,
To what extent did the music make you feel ,FRUSTRATED,30MonoWAV/30MonoF1.wav,1,2,2,1,,,,,0,15,15,0,0,0,0,3,,,4,3.1513206770005127,2,1.1854697759999908,1,3.667918116000692,3,2.8410836709999785,,,069,001,2019_May_30_1413,MusicAffectPsychophysiology2019,3.0.5,59.94389383415557,
To what extent did the music make you feel ,ASHAMED,30MonoWAV/30MonoF1.wav,1,2,2,1,,,,,0,15,15,0,0,1,1,4,,,,,,,,,2,1.5023529830004918,,,069,001,2019_May_30_1413,MusicAffectPsychophysiology2019,3.0.5,59.94389383415557,
To what extent did the music make you feel ,SCARED,30MonoWAV/30MonoF1.wav,1,2,2,1,,,,,0,15,15,0,0,2,2,11,,,,,,,,,2,1.7007087300007697,,,069,001,2019_May_30_1413,MusicAffectPsychophysiology2019,3.0.5,59.94389383415557,
To what extent did the music make you feel ,GUILTY,30MonoWAV/30MonoF1.wav,1,2,2,1,,,,,0,15,15,0,0,3,3,5,,,,,,,,,1,1.4014995810002802,,,069,001,2019_May_30_1413,MusicAffectPsychophysiology2019,3.0.5,59.94389383415557,
To what extent did the music make you feel ,HAPPY,30MonoWAV/30MonoF1.wav,1,2,2,1,,,,,0,15,15,0,0,4,4,6,,,,,,,,,1,1.0184599559997878,,,069,001,2019_May_30_1413,MusicAffectPsychophysiology2019,3.0.5,59.94389383415557,
To what extent did the music make you feel ,ANGRY,30MonoWAV/30MonoF1.wav,1,2,2,1,,,,,0,15,15,0,0,5,5,2,,,,,,,,,3,1.2683458539995627,,,069,001,2019_May_30_1413,MusicAffectPsychophysiology2019,3.0.5,59.94389383415557,
To what extent did the music make you feel ,EXCITED,30MonoWAV/30MonoF1.wav,1,2,2,1,,,,,0,15,15,0,0,6,6,7,,,,,,,,,1,1.7350688280002942,,,069,001,2019_May_30_1413,MusicAffectPsychophysiology2019,3.0.5,59.94389383415557,
To what extent did the music make you feel ,ACTIVE,30MonoWAV/30MonoF1.wav,1,2,2,1,,,,,0,15,15,0,0,7,7,9,,,,,,,,,3,0.8689748059996418,,,069,001,2019_May_30_1413,MusicAffectPsychophysiology2019,3.0.5,59.94389383415557,
To what extent did the music make you feel ,TENDER,30MonoWAV/30MonoF1.wav,1,2,2,1,,,,,0,15,15,0,0,8,8,10,,,,,,,,,1,0.7686974059997738,,,069,001,2019_May_30_1413,MusicAffectPsychophysiology2019,3.0.5,59.94389383415557,
To what extent did the music make you feel ,ALERT,30MonoWAV/30MonoF1.wav,1,2,2,1,,,,,0,15,15,0,0,9,9,8,,,,,,,,,4,1.3685703959999955,,,069,001,2019_May_30_1413,MusicAffectPsychophysiology2019,3.0.5,59.94389383415557,
To what extent did the music make you feel ,ANXIOUS ,30MonoWAV/30MonoF1.wav,1,2,2,1,,,,,0,15,15,0,0,10,10,1,,,,,,,,,3,1.4002413059997707,,,069,001,2019_May_30_1413,MusicAffectPsychophysiology2019,3.0.5,59.94389383415557,
To what extent did the music make you feel ,SAD,30MonoWAV/30MonoF1.wav,1,2,2,1,,,,,0,15,15,0,0,11,11,0,,,,,,,,,1,2.1188276979992224,,,069,001,2019_May_30_1413,MusicAffectPsychophysiology2019,3.0.5,59.94389383415557,
,,30MonoWAV/30MonoF1.wav,1,2,2,1,,,,,0,15,15,0,,,,,,,,,,,,,,,,,069,001,2019_May_30_1413,MusicAffectPsychophysiology2019,3.0.5,59.94389383415557,
To what extent did the music make you feel ,SCARED,30MonoWAV/30MonoH1.wav,2,2,1,5,,,,,1,0,16,4,0,0,0,11,,,4,1.985355917000561,3,2.369355605000237,2,3.401224911999634,1,2.100011534999794,,,069,001,2019_May_30_1413,MusicAffectPsychophysiology2019,3.0.5,59.94389383415557,
To what extent did the music make you feel ,HAPPY,30MonoWAV/30MonoH1.wav,2,2,1,5,,,,,1,0,16,4,0,1,1,6,,,,,,,,,3,1.0696472909994554,,,069,001,2019_May_30_1413,MusicAffectPsychophysiology2019,3.0.5,59.94389383415557,
To what extent did the music make you feel ,ANGRY,30MonoWAV/30MonoH1.wav,2,2,1,5,,,,,1,0,16,4,0,2,2,2,,,,,,,,,1,1.1176119769997968,,,069,001,2019_May_30_1413,MusicAffectPsychophysiology2019,3.0.5,59.94389383415557,
To what extent did the music make you feel ,GUILTY,30MonoWAV/30MonoH1.wav,2,2,1,5,,,,,1,0,16,4,0,3,3,5,,,,,,,,,1,1.1023090190001312,,,069,001,2019_May_30_1413,MusicAffectPsychophysiology2019,3.0.5,59.94389383415557,
To what extent did the music make you feel ,TENDER,30MonoWAV/30MonoH1.wav,2,2,1,5,,,,,1,0,16,4,0,4,4,10,,,,,,,,,2,2.117946125999879,,,069,001,2019_May_30_1413,MusicAffectPsychophysiology2019,3.0.5,59.94389383415557,
To what extent did the music make you feel ,ASHAMED,30MonoWAV/30MonoH1.wav,2,2,1,5,,,,,1,0,16,4,0,5,5,4,,,,,,,,,1,0.9343041599995558,,,069,001,2019_May_30_1413,MusicAffectPsychophysiology2019,3.0.5,59.94389383415557,
To what extent did the music make you feel ,ACTIVE,30MonoWAV/30MonoH1.wav,2,2,1,5,,,,,1,0,16,4,0,6,6,9,,,,,,,,,3,3.5347893389998717,,,069,001,2019_May_30_1413,MusicAffectPsychophysiology2019,3.0.5,59.94389383415557,
To what extent did the music make you feel ,ALERT,30MonoWAV/30MonoH1.wav,2,2,1,5,,,,,1,0,16,4,0,7,7,8,,,,,,,,,3,3.400343747000079,,,069,001,2019_May_30_1413,MusicAffectPsychophysiology2019,3.0.5,59.94389383415557,
To what extent did the music make you feel ,FRUSTRATED,30MonoWAV/30MonoH1.wav,2,2,1,5,,,,,1,0,16,4,0,8,8,3,,,,,,,,,1,0.9357355330002974,,,069,001,2019_May_30_1413,MusicAffectPsychophysiology2019,3.0.5,59.94389383415557,
To what extent did the music make you feel ,SAD,30MonoWAV/30MonoH1.wav,2,2,1,5,,,,,1,0,16,4,0,9,9,0,,,,,,,,,1,0.9518384689999948,,,069,001,2019_May_30_1413,MusicAffectPsychophysiology2019,3.0.5,59.94389383415557,
To what extent did the music make you feel ,ANXIOUS ,30MonoWAV/30MonoH1.wav,2,2,1,5,,,,,1,0,16,4,0,10,10,1,,,,,,,,,1,1.3849391650001053,,,069,001,2019_May_30_1413,MusicAffectPsychophysiology2019,3.0.5,59.94389383415557,
To what extent did the music make you feel ,EXCITED,30MonoWAV/30MonoH1.wav,2,2,1,5,,,,,1,0,16,4,0,11,11,7,,,,,,,,,3,1.184906432000389,,,069,001,2019_May_30_1413,MusicAffectPsychophysiology2019,3.0.5,59.94389383415557,
,,30MonoWAV/30MonoH1.wav,2,2,1,5,,,,,1,0,16,4,,,,,,,,,,,,,,,,,069,001,2019_May_30_1413,MusicAffectPsychophysiology2019,3.0.5,59.94389383415557,
To what extent did the music make you feel ,SAD,30MonoWAV/30MonoH3.wav,2,2,1,7,,,,,1,1,17,6,0,0,0,0,,,5,1.920446068000274,4,1.7902619239994237,3,2.1848214259998713,1,1.6351815849993727,,,069,001,2019_May_30_1413,MusicAffectPsychophysiology2019,3.0.5,59.94389383415557,
To what extent did the music make you feel ,GUILTY,30MonoWAV/30MonoH3.wav,2,2,1,7,,,,,1,1,17,6,0,1,1,5,,,,,,,,,1,0.7849244489998455,,,069,001,2019_May_30_1413,MusicAffectPsychophysiology2019,3.0.5,59.94389383415557,
To what extent did the music make you feel ,TENDER,30MonoWAV/30MonoH3.wav,2,2,1,7,,,,,1,1,17,6,0,2,2,10,,,,,,,,,3,2.8500353520003046,,,069,001,2019_May_30_1413,MusicAffectPsychophysiology2019,3.0.5,59.94389383415557,
To what extent did the music make you feel ,FRUSTRATED,30MonoWAV/30MonoH3.wav,2,2,1,7,,,,,1,1,17,6,0,3,3,3,,,,,,,,,1,1.1019103600001472,,,069,001,2019_May_30_1413,MusicAffectPsychophysiology2019,3.0.5,59.94389383415557,
To what extent did the music make you feel ,ANGRY,30MonoWAV/30MonoH3.wav,2,2,1,7,,,,,1,1,17,6,0,4,4,2,,,,,,,,,1,1.069050187999892,,,069,001,2019_May_30_1413,MusicAffectPsychophysiology2019,3.0.5,59.94389383415557,
To what extent did the music make you feel ,ASHAMED,30MonoWAV/30MonoH3.wav,2,2,1,7,,,,,1,1,17,6,0,5,5,4,,,,,,,,,1,0.8846675340000729,,,069,001,2019_May_30_1413,MusicAffectPsychophysiology2019,3.0.5,59.94389383415557,
To what extent did the music make you feel ,EXCITED,30MonoWAV/30MonoH3.wav,2,2,1,7,,,,,1,1,17,6,0,6,6,7,,,,,,,,,4,1.0187704640002266,,,069,001,2019_May_30_1413,MusicAffectPsychophysiology2019,3.0.5,59.94389383415557,
To what extent did the music make you feel ,SCARED,30MonoWAV/30MonoH3.wav,2,2,1,7,,,,,1,1,17,6,0,7,7,11,,,,,,,,,1,0.9521089919999213,,,069,001,2019_May_30_1413,MusicAffectPsychophysiology2019,3.0.5,59.94389383415557,
To what extent did the music make you feel ,ALERT,30MonoWAV/30MonoH3.wav,2,2,1,7,,,,,1,1,17,6,0,8,8,8,,,,,,,,,4,0.9844753870002023,,,069,001,2019_May_30_1413,MusicAffectPsychophysiology2019,3.0.5,59.94389383415557,
To what extent did the music make you feel ,ACTIVE,30MonoWAV/30MonoH3.wav,2,2,1,7,,,,,1,1,17,6,0,9,9,9,,,,,,,,,3,2.1017696760000035,,,069,001,2019_May_30_1413,MusicAffectPsychophysiology2019,3.0.5,59.94389383415557,
To what extent did the music make you feel ,ANXIOUS ,30MonoWAV/30MonoH3.wav,2,2,1,7,,,,,1,1,17,6,0,10,10,1,,,,,,,,,1,0.8845600639997429,,,069,001,2019_May_30_1413,MusicAffectPsychophysiology2019,3.0.5,59.94389383415557,
To what extent did the music make you feel ,HAPPY,30MonoWAV/30MonoH3.wav,2,2,1,7,,,,,1,1,17,6,0,11,11,6,,,,,,,,,4,1.8847784529998535,,,069,001,2019_May_30_1413,MusicAffectPsychophysiology2019,3.0.5,59.94389383415557,
,,30MonoWAV/30MonoH3.wav,2,2,1,7,,,,,1,1,17,6,,,,,,,,,,,,,,,,,069,001,2019_May_30_1413,MusicAffectPsychophysiology2019,3.0.5,59.94389383415557,
To what extent did the music make you feel ,ANGRY,30MonoWAV/30MonoT2.wav,2,1,4,14,,,,,1,2,18,13,0,0,0,2,,,1,2.9552960619994337,1,2.0900071720006963,1,2.050904851999803,1,4.9511118250002255,,,069,001,2019_May_30_1413,MusicAffectPsychophysiology2019,3.0.5,59.94389383415557,
To what extent did the music make you feel ,ACTIVE,30MonoWAV/30MonoT2.wav,2,1,4,14,,,,,1,2,18,13,0,1,1,9,,,,,,,,,1,0.9852802610002982,,,069,001,2019_May_30_1413,MusicAffectPsychophysiology2019,3.0.5,59.94389383415557,
To what extent did the music make you feel ,ASHAMED,30MonoWAV/30MonoT2.wav,2,1,4,14,,,,,1,2,18,13,0,2,2,4,,,,,,,,,1,3.4516096659999675,,,069,001,2019_May_30_1413,MusicAffectPsychophysiology2019,3.0.5,59.94389383415557,
To what extent did the music make you feel ,GUILTY,30MonoWAV/30MonoT2.wav,2,1,4,14,,,,,1,2,18,13,0,3,3,5,,,,,,,,,1,1.4851208599993697,,,069,001,2019_May_30_1413,MusicAffectPsychophysiology2019,3.0.5,59.94389383415557,
To what extent did the music make you feel ,HAPPY,30MonoWAV/30MonoT2.wav,2,1,4,14,,,,,1,2,18,13,0,4,4,6,,,,,,,,,1,2.418095720000565,,,069,001,2019_May_30_1413,MusicAffectPsychophysiology2019,3.0.5,59.94389383415557,
To what extent did the music make you feel ,SAD,30MonoWAV/30MonoT2.wav,2,1,4,14,,,,,1,2,18,13,0,5,5,0,,,,,,,,,5,2.0513019890004216,,,069,001,2019_May_30_1413,MusicAffectPsychophysiology2019,3.0.5,59.94389383415557,
To what extent did the music make you feel ,TENDER,30MonoWAV/30MonoT2.wav,2,1,4,14,,,,,1,2,18,13,0,6,6,10,,,,,,,,,4,1.3683520009999484,,,069,001,2019_May_30_1413,MusicAffectPsychophysiology2019,3.0.5,59.94389383415557,
To what extent did the music make you feel ,EXCITED,30MonoWAV/30MonoT2.wav,2,1,4,14,,,,,1,2,18,13,0,7,7,7,,,,,,,,,1,0.9849411889999828,,,069,001,2019_May_30_1413,MusicAffectPsychophysiology2019,3.0.5,59.94389383415557,
To what extent did the music make you feel ,SCARED,30MonoWAV/30MonoT2.wav,2,1,4,14,,,,,1,2,18,13,0,8,8,11,,,,,,,,,1,0.9680320500001471,,,069,001,2019_May_30_1413,MusicAffectPsychophysiology2019,3.0.5,59.94389383415557,
To what extent did the music make you feel ,ALERT,30MonoWAV/30MonoT2.wav,2,1,4,14,,,,,1,2,18,13,0,9,9,8,,,,,,,,,1,1.018633884999872,,,069,001,2019_May_30_1413,MusicAffectPsychophysiology2019,3.0.5,59.94389383415557,
To what extent did the music make you feel ,FRUSTRATED,30MonoWAV/30MonoT2.wav,2,1,4,14,,,,,1,2,18,13,0,10,10,3,,,,,,,,,1,1.2685086470000897,,,069,001,2019_May_30_1413,MusicAffectPsychophysiology2019,3.0.5,59.94389383415557,
To what extent did the music make you feel ,ANXIOUS ,30MonoWAV/30MonoT2.wav,2,1,4,14,,,,,1,2,18,13,0,11,11,1,,,,,,,,,2,2.0684058560000267,,,069,001,2019_May_30_1413,MusicAffectPsychophysiology2019,3.0.5,59.94389383415557,
,,30MonoWAV/30MonoT2.wav,2,1,4,14,,,,,1,2,18,13,,,,,,,,,,,,,,,,,069,001,2019_May_30_1413,MusicAffectPsychophysiology2019,3.0.5,59.94389383415557,
To what extent did the music make you feel ,TENDER,30MonoWAV/30MonoH4.wav,2,2,1,8,,,,,1,3,19,7,0,0,0,10,,,5,1.9352351049992649,4,1.0009600429993952,4,2.017649542000072,3,2.1679250400002275,,,069,001,2019_May_30_1413,MusicAffectPsychophysiology2019,3.0.5,59.94389383415557,
To what extent did the music make you feel ,ALERT,30MonoWAV/30MonoH4.wav,2,2,1,8,,,,,1,3,19,7,0,1,1,8,,,,,,,,,4,1.118765718000759,,,069,001,2019_May_30_1413,MusicAffectPsychophysiology2019,3.0.5,59.94389383415557,
To what extent did the music make you feel ,GUILTY,30MonoWAV/30MonoH4.wav,2,2,1,8,,,,,1,3,19,7,0,2,2,5,,,,,,,,,1,1.0185364950002622,,,069,001,2019_May_30_1413,MusicAffectPsychophysiology2019,3.0.5,59.94389383415557,
To what extent did the music make you feel ,SCARED,30MonoWAV/30MonoH4.wav,2,2,1,8,,,,,1,3,19,7,0,3,3,11,,,,,,,,,1,0.8843782439998904,,,069,001,2019_May_30_1413,MusicAffectPsychophysiology2019,3.0.5,59.94389383415557,
To what extent did the music make you feel ,EXCITED,30MonoWAV/30MonoH4.wav,2,2,1,8,,,,,1,3,19,7,0,4,4,7,,,,,,,,,4,0.9346918800001731,,,069,001,2019_May_30_1413,MusicAffectPsychophysiology2019,3.0.5,59.94389383415557,
To what extent did the music make you feel ,ANXIOUS ,30MonoWAV/30MonoH4.wav,2,2,1,8,,,,,1,3,19,7,0,5,5,1,,,,,,,,,1,1.0004721810000774,,,069,001,2019_May_30_1413,MusicAffectPsychophysiology2019,3.0.5,59.94389383415557,
To what extent did the music make you feel ,ACTIVE,30MonoWAV/30MonoH4.wav,2,2,1,8,,,,,1,3,19,7,0,6,6,9,,,,,,,,,4,1.0681613440001456,,,069,001,2019_May_30_1413,MusicAffectPsychophysiology2019,3.0.5,59.94389383415557,
To what extent did the music make you feel ,SAD,30MonoWAV/30MonoH4.wav,2,2,1,8,,,,,1,3,19,7,0,7,7,0,,,,,,,,,1,0.9691677900000286,,,069,001,2019_May_30_1413,MusicAffectPsychophysiology2019,3.0.5,59.94389383415557,
To what extent did the music make you feel ,HAPPY,30MonoWAV/30MonoH4.wav,2,2,1,8,,,,,1,3,19,7,0,8,8,6,,,,,,,,,5,1.002048104000096,,,069,001,2019_May_30_1413,MusicAffectPsychophysiology2019,3.0.5,59.94389383415557,
To what extent did the music make you feel ,ANGRY,30MonoWAV/30MonoH4.wav,2,2,1,8,,,,,1,3,19,7,0,9,9,2,,,,,,,,,1,0.9683992609998313,,,069,001,2019_May_30_1413,MusicAffectPsychophysiology2019,3.0.5,59.94389383415557,
To what extent did the music make you feel ,ASHAMED,30MonoWAV/30MonoH4.wav,2,2,1,8,,,,,1,3,19,7,0,10,10,4,,,,,,,,,1,0.9675529480000478,,,069,001,2019_May_30_1413,MusicAffectPsychophysiology2019,3.0.5,59.94389383415557,
To what extent did the music make you feel ,FRUSTRATED,30MonoWAV/30MonoH4.wav,2,2,1,8,,,,,1,3,19,7,0,11,11,3,,,,,,,,,1,1.1019537120000678,,,069,001,2019_May_30_1413,MusicAffectPsychophysiology2019,3.0.5,59.94389383415557,
,,30MonoWAV/30MonoH4.wav,2,2,1,8,,,,,1,3,19,7,,,,,,,,,,,,,,,,,069,001,2019_May_30_1413,MusicAffectPsychophysiology2019,3.0.5,59.94389383415557,
To what extent did the music make you feel ,SCARED,30MonoWAV/30MonoT3.wav,2,1,4,15,,,,,1,4,20,14,0,0,0,11,,,2,3.6853280129998893,3,1.784453880000001,3,2.467963889999737,1,1.5513464600007865,,,069,001,2019_May_30_1413,MusicAffectPsychophysiology2019,3.0.5,59.94389383415557,
To what extent did the music make you feel ,FRUSTRATED,30MonoWAV/30MonoT3.wav,2,1,4,15,,,,,1,4,20,14,0,1,1,3,,,,,,,,,1,0.9518035589999272,,,069,001,2019_May_30_1413,MusicAffectPsychophysiology2019,3.0.5,59.94389383415557,
To what extent did the music make you feel ,HAPPY,30MonoWAV/30MonoT3.wav,2,1,4,15,,,,,1,4,20,14,0,2,2,6,,,,,,,,,2,1.9522057439999116,,,069,001,2019_May_30_1413,MusicAffectPsychophysiology2019,3.0.5,59.94389383415557,
To what extent did the music make you feel ,ACTIVE,30MonoWAV/30MonoT3.wav,2,1,4,15,,,,,1,4,20,14,0,3,3,9,,,,,,,,,1,1.216947799999616,,,069,001,2019_May_30_1413,MusicAffectPsychophysiology2019,3.0.5,59.94389383415557,
To what extent did the music make you feel ,ANXIOUS ,30MonoWAV/30MonoT3.wav,2,1,4,15,,,,,1,4,20,14,0,4,4,1,,,,,,,,,1,2.4850037480000537,,,069,001,2019_May_30_1413,MusicAffectPsychophysiology2019,3.0.5,59.94389383415557,
To what extent did the music make you feel ,GUILTY,30MonoWAV/30MonoT3.wav,2,1,4,15,,,,,1,4,20,14,0,5,5,5,,,,,,,,,1,1.3018646249993253,,,069,001,2019_May_30_1413,MusicAffectPsychophysiology2019,3.0.5,59.94389383415557,
To what extent did the music make you feel ,SAD,30MonoWAV/30MonoT3.wav,2,1,4,15,,,,,1,4,20,14,0,6,6,0,,,,,,,,,3,1.318322289000207,,,069,001,2019_May_30_1413,MusicAffectPsychophysiology2019,3.0.5,59.94389383415557,
To what extent did the music make you feel ,TENDER,30MonoWAV/30MonoT3.wav,2,1,4,15,,,,,1,4,20,14,0,7,7,10,,,,,,,,,4,1.118363944999146,,,069,001,2019_May_30_1413,MusicAffectPsychophysiology2019,3.0.5,59.94389383415557,
To what extent did the music make you feel ,ASHAMED,30MonoWAV/30MonoT3.wav,2,1,4,15,,,,,1,4,20,14,0,8,8,4,,,,,,,,,1,1.1348443599999882,,,069,001,2019_May_30_1413,MusicAffectPsychophysiology2019,3.0.5,59.94389383415557,
To what extent did the music make you feel ,ANGRY,30MonoWAV/30MonoT3.wav,2,1,4,15,,,,,1,4,20,14,0,9,9,2,,,,,,,,,1,0.7852601439999489,,,069,001,2019_May_30_1413,MusicAffectPsychophysiology2019,3.0.5,59.94389383415557,
To what extent did the music make you feel ,EXCITED,30MonoWAV/30MonoT3.wav,2,1,4,15,,,,,1,4,20,14,0,10,10,7,,,,,,,,,1,2.350828982999701,,,069,001,2019_May_30_1413,MusicAffectPsychophysiology2019,3.0.5,59.94389383415557,
To what extent did the music make you feel ,ALERT,30MonoWAV/30MonoT3.wav,2,1,4,15,,,,,1,4,20,14,0,11,11,8,,,,,,,,,2,1.601930865000213,,,069,001,2019_May_30_1413,MusicAffectPsychophysiology2019,3.0.5,59.94389383415557,
,,30MonoWAV/30MonoT3.wav,2,1,4,15,,,,,1,4,20,14,,,,,,,,,,,,,,,,,069,001,2019_May_30_1413,MusicAffectPsychophysiology2019,3.0.5,59.94389383415557,
To what extent did the music make you feel ,ANXIOUS ,30MonoWAV/30MonoS1.wav,1,1,3,9,,,,,1,5,21,8,0,0,0,1,,,2,4.918502701000762,2,1.68467895699996,2,1.3004307820001486,3,1.9353995999999825,,,069,001,2019_May_30_1413,MusicAffectPsychophysiology2019,3.0.5,59.94389383415557,
To what extent did the music make you feel ,ALERT,30MonoWAV/30MonoS1.wav,1,1,3,9,,,,,1,5,21,8,0,1,1,8,,,,,,,,,1,1.2334421700006715,,,069,001,2019_May_30_1413,MusicAffectPsychophysiology2019,3.0.5,59.94389383415557,
To what extent did the music make you feel ,EXCITED,30MonoWAV/30MonoS1.wav,1,1,3,9,,,,,1,5,21,8,0,2,2,7,,,,,,,,,1,1.0683933789996445,,,069,001,2019_May_30_1413,MusicAffectPsychophysiology2019,3.0.5,59.94389383415557,
To what extent did the music make you feel ,ACTIVE,30MonoWAV/30MonoS1.wav,1,1,3,9,,,,,1,5,21,8,0,3,3,9,,,,,,,,,1,0.9515763750005135,,,069,001,2019_May_30_1413,MusicAffectPsychophysiology2019,3.0.5,59.94389383415557,
To what extent did the music make you feel ,ANGRY,30MonoWAV/30MonoS1.wav,1,1,3,9,,,,,1,5,21,8,0,4,4,2,,,,,,,,,2,2.4017471429997386,,,069,001,2019_May_30_1413,MusicAffectPsychophysiology2019,3.0.5,59.94389383415557,
To what extent did the music make you feel ,HAPPY,30MonoWAV/30MonoS1.wav,1,1,3,9,,,,,1,5,21,8,0,5,5,6,,,,,,,,,1,0.9338826759994845,,,069,001,2019_May_30_1413,MusicAffectPsychophysiology2019,3.0.5,59.94389383415557,
To what extent did the music make you feel ,SAD,30MonoWAV/30MonoS1.wav,1,1,3,9,,,,,1,5,21,8,0,6,6,0,,,,,,,,,4,1.0181856079998397,,,069,001,2019_May_30_1413,MusicAffectPsychophysiology2019,3.0.5,59.94389383415557,
To what extent did the music make you feel ,GUILTY,30MonoWAV/30MonoS1.wav,1,1,3,9,,,,,1,5,21,8,0,7,7,5,,,,,,,,,3,1.2342910050001592,,,069,001,2019_May_30_1413,MusicAffectPsychophysiology2019,3.0.5,59.94389383415557,
To what extent did the music make you feel ,ASHAMED,30MonoWAV/30MonoS1.wav,1,1,3,9,,,,,1,5,21,8,0,8,8,4,,,,,,,,,2,1.4513608839997687,,,069,001,2019_May_30_1413,MusicAffectPsychophysiology2019,3.0.5,59.94389383415557,
To what extent did the music make you feel ,TENDER,30MonoWAV/30MonoS1.wav,1,1,3,9,,,,,1,5,21,8,0,9,9,10,,,,,,,,,3,1.0843094559995734,,,069,001,2019_May_30_1413,MusicAffectPsychophysiology2019,3.0.5,59.94389383415557,
To what extent did the music make you feel ,SCARED,30MonoWAV/30MonoS1.wav,1,1,3,9,,,,,1,5,21,8,0,10,10,11,,,,,,,,,2,1.2857860060003077,,,069,001,2019_May_30_1413,MusicAffectPsychophysiology2019,3.0.5,59.94389383415557,
To what extent did the music make you feel ,FRUSTRATED,30MonoWAV/30MonoS1.wav,1,1,3,9,,,,,1,5,21,8,0,11,11,3,,,,,,,,,1,1.2350955419997263,,,069,001,2019_May_30_1413,MusicAffectPsychophysiology2019,3.0.5,59.94389383415557,
,,30MonoWAV/30MonoS1.wav,1,1,3,9,,,,,1,5,21,8,,,,,,,,,,,,,,,,,069,001,2019_May_30_1413,MusicAffectPsychophysiology2019,3.0.5,59.94389383415557,
To what extent did the music make you feel ,FRUSTRATED,30MonoWAV/30MonoF2.wav,1,2,2,2,,,,,1,6,22,1,0,0,0,3,,,4,4.234482391999336,1,1.4017380940003932,1,1.302109006000137,3,1.2682295209997392,,,069,001,2019_May_30_1413,MusicAffectPsychophysiology2019,3.0.5,59.94389383415557,
To what extent did the music make you feel ,SCARED,30MonoWAV/30MonoF2.wav,1,2,2,2,,,,,1,6,22,1,0,1,1,11,,,,,,,,,3,1.984883056000399,,,069,001,2019_May_30_1413,MusicAffectPsychophysiology2019,3.0.5,59.94389383415557,
To what extent did the music make you feel ,TENDER,30MonoWAV/30MonoF2.wav,1,2,2,2,,,,,1,6,22,1,0,2,2,10,,,,,,,,,1,0.985375178999675,,,069,001,2019_May_30_1413,MusicAffectPsychophysiology2019,3.0.5,59.94389383415557,
To what extent did the music make you feel ,ACTIVE,30MonoWAV/30MonoF2.wav,1,2,2,2,,,,,1,6,22,1,0,3,3,9,,,,,,,,,3,1.0503813940003965,,,069,001,2019_May_30_1413,MusicAffectPsychophysiology2019,3.0.5,59.94389383415557,
To what extent did the music make you feel ,HAPPY,30MonoWAV/30MonoF2.wav,1,2,2,2,,,,,1,6,22,1,0,4,4,6,,,,,,,,,1,0.7665044089999355,,,069,001,2019_May_30_1413,MusicAffectPsychophysiology2019,3.0.5,59.94389383415557,
To what extent did the music make you feel ,EXCITED,30MonoWAV/30MonoF2.wav,1,2,2,2,,,,,1,6,22,1,0,5,5,7,,,,,,,,,1,1.067741384999863,,,069,001,2019_May_30_1413,MusicAffectPsychophysiology2019,3.0.5,59.94389383415557,
To what extent did the music make you feel ,ALERT,30MonoWAV/30MonoF2.wav,1,2,2,2,,,,,1,6,22,1,0,6,6,8,,,,,,,,,5,1.2673980539993863,,,069,001,2019_May_30_1413,MusicAffectPsychophysiology2019,3.0.5,59.94389383415557,
To what extent did the music make you feel ,ASHAMED,30MonoWAV/30MonoF2.wav,1,2,2,2,,,,,1,6,22,1,0,7,7,4,,,,,,,,,1,1.1688682869998956,,,069,001,2019_May_30_1413,MusicAffectPsychophysiology2019,3.0.5,59.94389383415557,
To what extent did the music make you feel ,ANXIOUS ,30MonoWAV/30MonoF2.wav,1,2,2,2,,,,,1,6,22,1,0,8,8,1,,,,,,,,,5,1.6020718520003356,,,069,001,2019_May_30_1413,MusicAffectPsychophysiology2019,3.0.5,59.94389383415557,
To what extent did the music make you feel ,ANGRY,30MonoWAV/30MonoF2.wav,1,2,2,2,,,,,1,6,22,1,0,9,9,2,,,,,,,,,2,1.3342192240006625,,,069,001,2019_May_30_1413,MusicAffectPsychophysiology2019,3.0.5,59.94389383415557,
To what extent did the music make you feel ,GUILTY,30MonoWAV/30MonoF2.wav,1,2,2,2,,,,,1,6,22,1,0,10,10,5,,,,,,,,,2,1.1182104919998892,,,069,001,2019_May_30_1413,MusicAffectPsychophysiology2019,3.0.5,59.94389383415557,
To what extent did the music make you feel ,SAD,30MonoWAV/30MonoF2.wav,1,2,2,2,,,,,1,6,22,1,0,11,11,0,,,,,,,,,1,1.1844365950000793,,,069,001,2019_May_30_1413,MusicAffectPsychophysiology2019,3.0.5,59.94389383415557,
,,30MonoWAV/30MonoF2.wav,1,2,2,2,,,,,1,6,22,1,,,,,,,,,,,,,,,,,069,001,2019_May_30_1413,MusicAffectPsychophysiology2019,3.0.5,59.94389383415557,
To what extent did the music make you feel ,EXCITED,30MonoWAV/30MonoS2.wav,1,1,3,10,,,,,1,7,23,9,0,0,0,7,,,1,3.0883330470005603,2,2.1363112099998034,2,1.7677968159996453,1,1.450213767000605,,,069,001,2019_May_30_1413,MusicAffectPsychophysiology2019,3.0.5,59.94389383415557,
To what extent did the music make you feel ,FRUSTRATED,30MonoWAV/30MonoS2.wav,1,1,3,10,,,,,1,7,23,9,0,1,1,3,,,,,,,,,1,1.0011946599997827,,,069,001,2019_May_30_1413,MusicAffectPsychophysiology2019,3.0.5,59.94389383415557,
To what extent did the music make you feel ,TENDER,30MonoWAV/30MonoS2.wav,1,1,3,10,,,,,1,7,23,9,0,2,2,10,,,,,,,,,3,2.2187387639996814,,,069,001,2019_May_30_1413,MusicAffectPsychophysiology2019,3.0.5,59.94389383415557,
To what extent did the music make you feel ,ANGRY,30MonoWAV/30MonoS2.wav,1,1,3,10,,,,,1,7,23,9,0,3,3,2,,,,,,,,,1,0.9495288039997831,,,069,001,2019_May_30_1413,MusicAffectPsychophysiology2019,3.0.5,59.94389383415557,
To what extent did the music make you feel ,HAPPY,30MonoWAV/30MonoS2.wav,1,1,3,10,,,,,1,7,23,9,0,4,4,6,,,,,,,,,1,0.6853286460000163,,,069,001,2019_May_30_1413,MusicAffectPsychophysiology2019,3.0.5,59.94389383415557,
To what extent did the music make you feel ,GUILTY,30MonoWAV/30MonoS2.wav,1,1,3,10,,,,,1,7,23,9,0,5,5,5,,,,,,,,,2,1.3018336570003157,,,069,001,2019_May_30_1413,MusicAffectPsychophysiology2019,3.0.5,59.94389383415557,
To what extent did the music make you feel ,ALERT,30MonoWAV/30MonoS2.wav,1,1,3,10,,,,,1,7,23,9,0,6,6,8,,,,,,,,,1,0.9188869850004266,,,069,001,2019_May_30_1413,MusicAffectPsychophysiology2019,3.0.5,59.94389383415557,
To what extent did the music make you feel ,ANXIOUS ,30MonoWAV/30MonoS2.wav,1,1,3,10,,,,,1,7,23,9,0,7,7,1,,,,,,,,,3,1.9015052740005558,,,069,001,2019_May_30_1413,MusicAffectPsychophysiology2019,3.0.5,59.94389383415557,
To what extent did the music make you feel ,SCARED,30MonoWAV/30MonoS2.wav,1,1,3,10,,,,,1,7,23,9,0,8,8,11,,,,,,,,,1,2.1188014770004884,,,069,001,2019_May_30_1413,MusicAffectPsychophysiology2019,3.0.5,59.94389383415557,
To what extent did the music make you feel ,SAD,30MonoWAV/30MonoS2.wav,1,1,3,10,,,,,1,7,23,9,0,9,9,0,,,,,,,,,4,1.5843280690005486,,,069,001,2019_May_30_1413,MusicAffectPsychophysiology2019,3.0.5,59.94389383415557,
To what extent did the music make you feel ,ACTIVE,30MonoWAV/30MonoS2.wav,1,1,3,10,,,,,1,7,23,9,0,10,10,9,,,,,,,,,1,1.0516076519998023,,,069,001,2019_May_30_1413,MusicAffectPsychophysiology2019,3.0.5,59.94389383415557,
To what extent did the music make you feel ,ASHAMED,30MonoWAV/30MonoS2.wav,1,1,3,10,,,,,1,7,23,9,0,11,11,4,,,,,,,,,1,2.301673827000741,,,069,001,2019_May_30_1413,MusicAffectPsychophysiology2019,3.0.5,59.94389383415557,
,,30MonoWAV/30MonoS2.wav,1,1,3,10,,,,,1,7,23,9,,,,,,,,,,,,,,,,,069,001,2019_May_30_1413,MusicAffectPsychophysiology2019,3.0.5,59.94389383415557,
To what extent did the music make you feel ,ANGRY,30MonoWAV/30MonoS3.wav,1,1,3,11,,,,,1,8,24,10,0,0,0,2,,,1,3.384240282999599,1,1.1019289189998744,1,1.3184197580003456,2,1.8025755130001926,,,069,001,2019_May_30_1413,MusicAffectPsychophysiology2019,3.0.5,59.94389383415557,
To what extent did the music make you feel ,TENDER,30MonoWAV/30MonoS3.wav,1,1,3,11,,,,,1,8,24,10,0,1,1,10,,,,,,,,,3,1.0496003810003458,,,069,001,2019_May_30_1413,MusicAffectPsychophysiology2019,3.0.5,59.94389383415557,
To what extent did the music make you feel ,FRUSTRATED,30MonoWAV/30MonoS3.wav,1,1,3,11,,,,,1,8,24,10,0,2,2,3,,,,,,,,,2,1.0851710659999299,,,069,001,2019_May_30_1413,MusicAffectPsychophysiology2019,3.0.5,59.94389383415557,
To what extent did the music make you feel ,EXCITED,30MonoWAV/30MonoS3.wav,1,1,3,11,,,,,1,8,24,10,0,3,3,7,,,,,,,,,1,0.9849935199999891,,,069,001,2019_May_30_1413,MusicAffectPsychophysiology2019,3.0.5,59.94389383415557,
To what extent did the music make you feel ,ALERT,30MonoWAV/30MonoS3.wav,1,1,3,11,,,,,1,8,24,10,0,4,4,8,,,,,,,,,2,1.2188710139998875,,,069,001,2019_May_30_1413,MusicAffectPsychophysiology2019,3.0.5,59.94389383415557,
To what extent did the music make you feel ,SAD,30MonoWAV/30MonoS3.wav,1,1,3,11,,,,,1,8,24,10,0,5,5,0,,,,,,,,,3,1.65158818800046,,,069,001,2019_May_30_1413,MusicAffectPsychophysiology2019,3.0.5,59.94389383415557,
To what extent did the music make you feel ,ASHAMED,30MonoWAV/30MonoS3.wav,1,1,3,11,,,,,1,8,24,10,0,6,6,4,,,,,,,,,2,1.0671828149997964,,,069,001,2019_May_30_1413,MusicAffectPsychophysiology2019,3.0.5,59.94389383415557,
To what extent did the music make you feel ,HAPPY,30MonoWAV/30MonoS3.wav,1,1,3,11,,,,,1,8,24,10,0,7,7,6,,,,,,,,,1,1.0017696929999147,,,069,001,2019_May_30_1413,MusicAffectPsychophysiology2019,3.0.5,59.94389383415557,
To what extent did the music make you feel ,SCARED,30MonoWAV/30MonoS3.wav,1,1,3,11,,,,,1,8,24,10,0,8,8,11,,,,,,,,,3,1.2352420980005263,,,069,001,2019_May_30_1413,MusicAffectPsychophysiology2019,3.0.5,59.94389383415557,
To what extent did the music make you feel ,GUILTY,30MonoWAV/30MonoS3.wav,1,1,3,11,,,,,1,8,24,10,0,9,9,5,,,,,,,,,3,1.6513047470007223,,,069,001,2019_May_30_1413,MusicAffectPsychophysiology2019,3.0.5,59.94389383415557,
To what extent did the music make you feel ,ACTIVE,30MonoWAV/30MonoS3.wav,1,1,3,11,,,,,1,8,24,10,0,10,10,9,,,,,,,,,1,0.9188256480001655,,,069,001,2019_May_30_1413,MusicAffectPsychophysiology2019,3.0.5,59.94389383415557,
To what extent did the music make you feel ,ANXIOUS ,30MonoWAV/30MonoS3.wav,1,1,3,11,,,,,1,8,24,10,0,11,11,1,,,,,,,,,4,2.4018235160001495,,,069,001,2019_May_30_1413,MusicAffectPsychophysiology2019,3.0.5,59.94389383415557,
,,30MonoWAV/30MonoS3.wav,1,1,3,11,,,,,1,8,24,10,,,,,,,,,,,,,,,,,069,001,2019_May_30_1413,MusicAffectPsychophysiology2019,3.0.5,59.94389383415557,
To what extent did the music make you feel ,SCARED,30MonoWAV/30MonoF4.wav,1,2,2,4,,,,,1,9,25,3,0,0,0,11,,,4,2.7348097739995865,1,1.5363686609998695,1,1.1182196999998268,3,1.5852069329994265,,,069,001,2019_May_30_1413,MusicAffectPsychophysiology2019,3.0.5,59.94389383415557,
To what extent did the music make you feel ,EXCITED,30MonoWAV/30MonoF4.wav,1,2,2,4,,,,,1,9,25,3,0,1,1,7,,,,,,,,,1,1.2842373690000386,,,069,001,2019_May_30_1413,MusicAffectPsychophysiology2019,3.0.5,59.94389383415557,
To what extent did the music make you feel ,HAPPY,30MonoWAV/30MonoF4.wav,1,2,2,4,,,,,1,9,25,3,0,2,2,6,,,,,,,,,1,0.9017736260002494,,,069,001,2019_May_30_1413,MusicAffectPsychophysiology2019,3.0.5,59.94389383415557,
To what extent did the music make you feel ,ACTIVE,30MonoWAV/30MonoF4.wav,1,2,2,4,,,,,1,9,25,3,0,3,3,9,,,,,,,,,3,1.4355836680006178,,,069,001,2019_May_30_1413,MusicAffectPsychophysiology2019,3.0.5,59.94389383415557,
To what extent did the music make you feel ,FRUSTRATED,30MonoWAV/30MonoF4.wav,1,2,2,4,,,,,1,9,25,3,0,4,4,3,,,,,,,,,2,1.2179814339997392,,,069,001,2019_May_30_1413,MusicAffectPsychophysiology2019,3.0.5,59.94389383415557,
To what extent did the music make you feel ,ASHAMED,30MonoWAV/30MonoF4.wav,1,2,2,4,,,,,1,9,25,3,0,5,5,4,,,,,,,,,1,1.318519192000167,,,069,001,2019_May_30_1413,MusicAffectPsychophysiology2019,3.0.5,59.94389383415557,
To what extent did the music make you feel ,TENDER,30MonoWAV/30MonoF4.wav,1,2,2,4,,,,,1,9,25,3,0,6,6,10,,,,,,,,,1,1.1518048219995762,,,069,001,2019_May_30_1413,MusicAffectPsychophysiology2019,3.0.5,59.94389383415557,
To what extent did the music make you feel ,GUILTY,30MonoWAV/30MonoF4.wav,1,2,2,4,,,,,1,9,25,3,0,7,7,5,,,,,,,,,1,2.2685471059994597,,,069,001,2019_May_30_1413,MusicAffectPsychophysiology2019,3.0.5,59.94389383415557,
To what extent did the music make you feel ,ANGRY,30MonoWAV/30MonoF4.wav,1,2,2,4,,,,,1,9,25,3,0,8,8,2,,,,,,,,,2,1.384695123999336,,,069,001,2019_May_30_1413,MusicAffectPsychophysiology2019,3.0.5,59.94389383415557,
To what extent did the music make you feel ,ALERT,30MonoWAV/30MonoF4.wav,1,2,2,4,,,,,1,9,25,3,0,9,9,8,,,,,,,,,4,4.017570615000295,,,069,001,2019_May_30_1413,MusicAffectPsychophysiology2019,3.0.5,59.94389383415557,
To what extent did the music make you feel ,ANXIOUS ,30MonoWAV/30MonoF4.wav,1,2,2,4,,,,,1,9,25,3,0,10,10,1,,,,,,,,,3,1.018878957999732,,,069,001,2019_May_30_1413,MusicAffectPsychophysiology2019,3.0.5,59.94389383415557,
To what extent did the music make you feel ,SAD,30MonoWAV/30MonoF4.wav,1,2,2,4,,,,,1,9,25,3,0,11,11,0,,,,,,,,,1,2.518290850000085,,,069,001,2019_May_30_1413,MusicAffectPsychophysiology2019,3.0.5,59.94389383415557,
,,30MonoWAV/30MonoF4.wav,1,2,2,4,,,,,1,9,25,3,,,,,,,,,,,,,,,,,069,001,2019_May_30_1413,MusicAffectPsychophysiology2019,3.0.5,59.94389383415557,
To what extent did the music make you feel ,HAPPY,30MonoWAV/30MonoH2.wav,2,2,1,6,,,,,1,10,26,5,0,0,0,6,,,4,3.1021920539997154,2,1.6356663570004457,2,1.8179414210007963,2,1.618760411999574,,,069,001,2019_May_30_1413,MusicAffectPsychophysiology2019,3.0.5,59.94389383415557,
To what extent did the music make you feel ,SAD,30MonoWAV/30MonoH2.wav,2,2,1,6,,,,,1,10,26,5,0,1,1,0,,,,,,,,,1,1.317437090000567,,,069,001,2019_May_30_1413,MusicAffectPsychophysiology2019,3.0.5,59.94389383415557,
To what extent did the music make you feel ,ANGRY,30MonoWAV/30MonoH2.wav,2,2,1,6,,,,,1,10,26,5,0,2,2,2,,,,,,,,,1,0.9848002779999661,,,069,001,2019_May_30_1413,MusicAffectPsychophysiology2019,3.0.5,59.94389383415557,
To what extent did the music make you feel ,ALERT,30MonoWAV/30MonoH2.wav,2,2,1,6,,,,,1,10,26,5,0,3,3,8,,,,,,,,,3,0.9680233540002519,,,069,001,2019_May_30_1413,MusicAffectPsychophysiology2019,3.0.5,59.94389383415557,
To what extent did the music make you feel ,TENDER,30MonoWAV/30MonoH2.wav,2,2,1,6,,,,,1,10,26,5,0,4,4,10,,,,,,,,,1,1.3189786899993123,,,069,001,2019_May_30_1413,MusicAffectPsychophysiology2019,3.0.5,59.94389383415557,
To what extent did the music make you feel ,ANXIOUS ,30MonoWAV/30MonoH2.wav,2,2,1,6,,,,,1,10,26,5,0,5,5,1,,,,,,,,,1,1.1166818880001301,,,069,001,2019_May_30_1413,MusicAffectPsychophysiology2019,3.0.5,59.94389383415557,
To what extent did the music make you feel ,EXCITED,30MonoWAV/30MonoH2.wav,2,2,1,6,,,,,1,10,26,5,0,6,6,7,,,,,,,,,2,1.1188457110001764,,,069,001,2019_May_30_1413,MusicAffectPsychophysiology2019,3.0.5,59.94389383415557,
To what extent did the music make you feel ,FRUSTRATED,30MonoWAV/30MonoH2.wav,2,2,1,6,,,,,1,10,26,5,0,7,7,3,,,,,,,,,1,0.9015547199996945,,,069,001,2019_May_30_1413,MusicAffectPsychophysiology2019,3.0.5,59.94389383415557,
To what extent did the music make you feel ,ACTIVE,30MonoWAV/30MonoH2.wav,2,2,1,6,,,,,1,10,26,5,0,8,8,9,,,,,,,,,3,2.102064523000081,,,069,001,2019_May_30_1413,MusicAffectPsychophysiology2019,3.0.5,59.94389383415557,
To what extent did the music make you feel ,GUILTY,30MonoWAV/30MonoH2.wav,2,2,1,6,,,,,1,10,26,5,0,9,9,5,,,,,,,,,1,0.9682615920000899,,,069,001,2019_May_30_1413,MusicAffectPsychophysiology2019,3.0.5,59.94389383415557,
To what extent did the music make you feel ,ASHAMED,30MonoWAV/30MonoH2.wav,2,2,1,6,,,,,1,10,26,5,0,10,10,4,,,,,,,,,1,0.9014506399998936,,,069,001,2019_May_30_1413,MusicAffectPsychophysiology2019,3.0.5,59.94389383415557,
To what extent did the music make you feel ,SCARED,30MonoWAV/30MonoH2.wav,2,2,1,6,,,,,1,10,26,5,0,11,11,11,,,,,,,,,1,0.7335826019998422,,,069,001,2019_May_30_1413,MusicAffectPsychophysiology2019,3.0.5,59.94389383415557,
,,30MonoWAV/30MonoH2.wav,2,2,1,6,,,,,1,10,26,5,,,,,,,,,,,,,,,,,069,001,2019_May_30_1413,MusicAffectPsychophysiology2019,3.0.5,59.94389383415557,
To what extent did the music make you feel ,HAPPY,30MonoWAV/30MonoF3.wav,1,2,2,3,,,,,1,11,27,2,0,0,0,6,,,3,2.9513636030005728,1,1.269123189000311,1,2.3350789449996228,1,0.9685245470000154,,,069,001,2019_May_30_1413,MusicAffectPsychophysiology2019,3.0.5,59.94389383415557,
To what extent did the music make you feel ,ANGRY,30MonoWAV/30MonoF3.wav,1,2,2,3,,,,,1,11,27,2,0,1,1,2,,,,,,,,,2,0.9014163319998261,,,069,001,2019_May_30_1413,MusicAffectPsychophysiology2019,3.0.5,59.94389383415557,
To what extent did the music make you feel ,SAD,30MonoWAV/30MonoF3.wav,1,2,2,3,,,,,1,11,27,2,0,2,2,0,,,,,,,,,1,0.7843611019998207,,,069,001,2019_May_30_1413,MusicAffectPsychophysiology2019,3.0.5,59.94389383415557,
To what extent did the music make you feel ,TENDER,30MonoWAV/30MonoF3.wav,1,2,2,3,,,,,1,11,27,2,0,3,3,10,,,,,,,,,1,0.8350532929998735,,,069,001,2019_May_30_1413,MusicAffectPsychophysiology2019,3.0.5,59.94389383415557,
To what extent did the music make you feel ,FRUSTRATED,30MonoWAV/30MonoF3.wav,1,2,2,3,,,,,1,11,27,2,0,4,4,3,,,,,,,,,1,1.2026890419992924,,,069,001,2019_May_30_1413,MusicAffectPsychophysiology2019,3.0.5,59.94389383415557,
To what extent did the music make you feel ,ACTIVE,30MonoWAV/30MonoF3.wav,1,2,2,3,,,,,1,11,27,2,0,5,5,9,,,,,,,,,2,1.9514902099999745,,,069,001,2019_May_30_1413,MusicAffectPsychophysiology2019,3.0.5,59.94389383415557,
To what extent did the music make you feel ,ASHAMED,30MonoWAV/30MonoF3.wav,1,2,2,3,,,,,1,11,27,2,0,6,6,4,,,,,,,,,2,1.4192112559994712,,,069,001,2019_May_30_1413,MusicAffectPsychophysiology2019,3.0.5,59.94389383415557,
To what extent did the music make you feel ,SCARED,30MonoWAV/30MonoF3.wav,1,2,2,3,,,,,1,11,27,2,0,7,7,11,,,,,,,,,3,0.9009284070007197,,,069,001,2019_May_30_1413,MusicAffectPsychophysiology2019,3.0.5,59.94389383415557,
To what extent did the music make you feel ,EXCITED,30MonoWAV/30MonoF3.wav,1,2,2,3,,,,,1,11,27,2,0,8,8,7,,,,,,,,,1,0.8844785880000927,,,069,001,2019_May_30_1413,MusicAffectPsychophysiology2019,3.0.5,59.94389383415557,
To what extent did the music make you feel ,ALERT,30MonoWAV/30MonoF3.wav,1,2,2,3,,,,,1,11,27,2,0,9,9,8,,,,,,,,,3,8.185686160999467,,,069,001,2019_May_30_1413,MusicAffectPsychophysiology2019,3.0.5,59.94389383415557,
To what extent did the music make you feel ,ANXIOUS ,30MonoWAV/30MonoF3.wav,1,2,2,3,,,,,1,11,27,2,0,10,10,1,,,,,,,,,4,0.8180121429995779,,,069,001,2019_May_30_1413,MusicAffectPsychophysiology2019,3.0.5,59.94389383415557,
To what extent did the music make you feel ,GUILTY,30MonoWAV/30MonoF3.wav,1,2,2,3,,,,,1,11,27,2,0,11,11,5,,,,,,,,,3,1.652295640000375,,,069,001,2019_May_30_1413,MusicAffectPsychophysiology2019,3.0.5,59.94389383415557,
,,30MonoWAV/30MonoF3.wav,1,2,2,3,,,,,1,11,27,2,,,,,,,,,,,,,,,,,069,001,2019_May_30_1413,MusicAffectPsychophysiology2019,3.0.5,59.94389383415557,
To what extent did the music make you feel ,ALERT,30MonoWAV/30MonoS4.wav,1,1,3,12,,,,,1,12,28,11,0,0,0,8,,,1,2.35146776900001,1,1.6337497000004078,1,1.7683984059995055,1,1.2847688330002711,,,069,001,2019_May_30_1413,MusicAffectPsychophysiology2019,3.0.5,59.94389383415557,
To what extent did the music make you feel ,ASHAMED,30MonoWAV/30MonoS4.wav,1,1,3,12,,,,,1,12,28,11,0,1,1,4,,,,,,,,,2,1.5351976339998146,,,069,001,2019_May_30_1413,MusicAffectPsychophysiology2019,3.0.5,59.94389383415557,
To what extent did the music make you feel ,ACTIVE,30MonoWAV/30MonoS4.wav,1,1,3,12,,,,,1,12,28,11,0,2,2,9,,,,,,,,,1,0.9001311800002441,,,069,001,2019_May_30_1413,MusicAffectPsychophysiology2019,3.0.5,59.94389383415557,
To what extent did the music make you feel ,ANGRY,30MonoWAV/30MonoS4.wav,1,1,3,12,,,,,1,12,28,11,0,3,3,2,,,,,,,,,1,1.0852711100005763,,,069,001,2019_May_30_1413,MusicAffectPsychophysiology2019,3.0.5,59.94389383415557,
To what extent did the music make you feel ,ANXIOUS ,30MonoWAV/30MonoS4.wav,1,1,3,12,,,,,1,12,28,11,0,4,4,1,,,,,,,,,2,1.551793878999888,,,069,001,2019_May_30_1413,MusicAffectPsychophysiology2019,3.0.5,59.94389383415557,
To what extent did the music make you feel ,HAPPY,30MonoWAV/30MonoS4.wav,1,1,3,12,,,,,1,12,28,11,0,5,5,6,,,,,,,,,1,0.818511703000695,,,069,001,2019_May_30_1413,MusicAffectPsychophysiology2019,3.0.5,59.94389383415557,
To what extent did the music make you feel ,FRUSTRATED,30MonoWAV/30MonoS4.wav,1,1,3,12,,,,,1,12,28,11,0,6,6,3,,,,,,,,,1,1.2358178860004045,,,069,001,2019_May_30_1413,MusicAffectPsychophysiology2019,3.0.5,59.94389383415557,
To what extent did the music make you feel ,SCARED,30MonoWAV/30MonoS4.wav,1,1,3,12,,,,,1,12,28,11,0,7,7,11,,,,,,,,,2,1.235277503999896,,,069,001,2019_May_30_1413,MusicAffectPsychophysiology2019,3.0.5,59.94389383415557,
To what extent did the music make you feel ,TENDER,30MonoWAV/30MonoS4.wav,1,1,3,12,,,,,1,12,28,11,0,8,8,10,,,,,,,,,3,1.5526990640000804,,,069,001,2019_May_30_1413,MusicAffectPsychophysiology2019,3.0.5,59.94389383415557,
To what extent did the music make you feel ,SAD,30MonoWAV/30MonoS4.wav,1,1,3,12,,,,,1,12,28,11,0,9,9,0,,,,,,,,,4,0.9508832569999868,,,069,001,2019_May_30_1413,MusicAffectPsychophysiology2019,3.0.5,59.94389383415557,
To what extent did the music make you feel ,GUILTY,30MonoWAV/30MonoS4.wav,1,1,3,12,,,,,1,12,28,11,0,10,10,5,,,,,,,,,2,1.4687581840007624,,,069,001,2019_May_30_1413,MusicAffectPsychophysiology2019,3.0.5,59.94389383415557,
To what extent did the music make you feel ,EXCITED,30MonoWAV/30MonoS4.wav,1,1,3,12,,,,,1,12,28,11,0,11,11,7,,,,,,,,,1,0.9028025010002239,,,069,001,2019_May_30_1413,MusicAffectPsychophysiology2019,3.0.5,59.94389383415557,
,,30MonoWAV/30MonoS4.wav,1,1,3,12,,,,,1,12,28,11,,,,,,,,,,,,,,,,,069,001,2019_May_30_1413,MusicAffectPsychophysiology2019,3.0.5,59.94389383415557,
To what extent did the music make you feel ,ASHAMED,30MonoWAV/30MonoT1.wav,2,1,4,13,,,,,1,13,29,12,0,0,0,4,,,1,3.7514918480001143,3,2.801680180000403,3,1.6850065389999145,1,1.1355615149996083,,,069,001,2019_May_30_1413,MusicAffectPsychophysiology2019,3.0.5,59.94389383415557,
To what extent did the music make you feel ,GUILTY,30MonoWAV/30MonoT1.wav,2,1,4,13,,,,,1,13,29,12,0,1,1,5,,,,,,,,,1,1.0007558480001535,,,069,001,2019_May_30_1413,MusicAffectPsychophysiology2019,3.0.5,59.94389383415557,
To what extent did the music make you feel ,ALERT,30MonoWAV/30MonoT1.wav,2,1,4,13,,,,,1,13,29,12,0,2,2,8,,,,,,,,,1,0.7847460109996973,,,069,001,2019_May_30_1413,MusicAffectPsychophysiology2019,3.0.5,59.94389383415557,
To what extent did the music make you feel ,ANGRY,30MonoWAV/30MonoT1.wav,2,1,4,13,,,,,1,13,29,12,0,3,3,2,,,,,,,,,1,0.7854444260001401,,,069,001,2019_May_30_1413,MusicAffectPsychophysiology2019,3.0.5,59.94389383415557,
To what extent did the music make you feel ,SCARED,30MonoWAV/30MonoT1.wav,2,1,4,13,,,,,1,13,29,12,0,4,4,11,,,,,,,,,1,1.1013756170004854,,,069,001,2019_May_30_1413,MusicAffectPsychophysiology2019,3.0.5,59.94389383415557,
To what extent did the music make you feel ,ACTIVE,30MonoWAV/30MonoT1.wav,2,1,4,13,,,,,1,13,29,12,0,5,5,9,,,,,,,,,1,1.0523762250004438,,,069,001,2019_May_30_1413,MusicAffectPsychophysiology2019,3.0.5,59.94389383415557,
To what extent did the music make you feel ,EXCITED,30MonoWAV/30MonoT1.wav,2,1,4,13,,,,,1,13,29,12,0,6,6,7,,,,,,,,,1,1.0333705969997027,,,069,001,2019_May_30_1413,MusicAffectPsychophysiology2019,3.0.5,59.94389383415557,
To what extent did the music make you feel ,HAPPY,30MonoWAV/30MonoT1.wav,2,1,4,13,,,,,1,13,29,12,0,7,7,6,,,,,,,,,3,1.535117003999403,,,069,001,2019_May_30_1413,MusicAffectPsychophysiology2019,3.0.5,59.94389383415557,
To what extent did the music make you feel ,TENDER,30MonoWAV/30MonoT1.wav,2,1,4,13,,,,,1,13,29,12,0,8,8,10,,,,,,,,,4,1.268497830999877,,,069,001,2019_May_30_1413,MusicAffectPsychophysiology2019,3.0.5,59.94389383415557,
To what extent did the music make you feel ,FRUSTRATED,30MonoWAV/30MonoT1.wav,2,1,4,13,,,,,1,13,29,12,0,9,9,3,,,,,,,,,1,1.001986909000152,,,069,001,2019_May_30_1413,MusicAffectPsychophysiology2019,3.0.5,59.94389383415557,
To what extent did the music make you feel ,ANXIOUS ,30MonoWAV/30MonoT1.wav,2,1,4,13,,,,,1,13,29,12,0,10,10,1,,,,,,,,,1,1.3021278710002662,,,069,001,2019_May_30_1413,MusicAffectPsychophysiology2019,3.0.5,59.94389383415557,
To what extent did the music make you feel ,SAD,30MonoWAV/30MonoT1.wav,2,1,4,13,,,,,1,13,29,12,0,11,11,0,,,,,,,,,2,1.301870364000024,,,069,001,2019_May_30_1413,MusicAffectPsychophysiology2019,3.0.5,59.94389383415557,
,,30MonoWAV/30MonoT1.wav,2,1,4,13,,,,,1,13,29,12,,,,,,,,,,,,,,,,,069,001,2019_May_30_1413,MusicAffectPsychophysiology2019,3.0.5,59.94389383415557,
To what extent did the music make you feel ,FRUSTRATED,30MonoWAV/30MonoF1.wav,1,2,2,1,,,,,1,14,30,0,0,0,0,3,,,4,3.183698980000372,1,2.9522820780002803,1,1.6187336859993593,1,1.8470562530001189,,,069,001,2019_May_30_1413,MusicAffectPsychophysiology2019,3.0.5,59.94389383415557,
To what extent did the music make you feel ,TENDER,30MonoWAV/30MonoF1.wav,1,2,2,1,,,,,1,14,30,0,0,1,1,10,,,,,,,,,1,0.901166824000029,,,069,001,2019_May_30_1413,MusicAffectPsychophysiology2019,3.0.5,59.94389383415557,
To what extent did the music make you feel ,ALERT,30MonoWAV/30MonoF1.wav,1,2,2,1,,,,,1,14,30,0,0,2,2,8,,,,,,,,,4,1.0518296959999134,,,069,001,2019_May_30_1413,MusicAffectPsychophysiology2019,3.0.5,59.94389383415557,
To what extent did the music make you feel ,SCARED,30MonoWAV/30MonoF1.wav,1,2,2,1,,,,,1,14,30,0,0,3,3,11,,,,,,,,,2,1.083717013999376,,,069,001,2019_May_30_1413,MusicAffectPsychophysiology2019,3.0.5,59.94389383415557,
To what extent did the music make you feel ,GUILTY,30MonoWAV/30MonoF1.wav,1,2,2,1,,,,,1,14,30,0,0,4,4,5,,,,,,,,,1,1.251344154000435,,,069,001,2019_May_30_1413,MusicAffectPsychophysiology2019,3.0.5,59.94389383415557,
To what extent did the music make you feel ,ASHAMED,30MonoWAV/30MonoF1.wav,1,2,2,1,,,,,1,14,30,0,0,5,5,4,,,,,,,,,1,0.9334566059997087,,,069,001,2019_May_30_1413,MusicAffectPsychophysiology2019,3.0.5,59.94389383415557,
To what extent did the music make you feel ,EXCITED,30MonoWAV/30MonoF1.wav,1,2,2,1,,,,,1,14,30,0,0,6,6,7,,,,,,,,,3,1.766874431999895,,,069,001,2019_May_30_1413,MusicAffectPsychophysiology2019,3.0.5,59.94389383415557,
To what extent did the music make you feel ,ACTIVE,30MonoWAV/30MonoF1.wav,1,2,2,1,,,,,1,14,30,0,0,7,7,9,,,,,,,,,4,1.3699012619999849,,,069,001,2019_May_30_1413,MusicAffectPsychophysiology2019,3.0.5,59.94389383415557,
To what extent did the music make you feel ,ANGRY,30MonoWAV/30MonoF1.wav,1,2,2,1,,,,,1,14,30,0,0,8,8,2,,,,,,,,,1,1.285243055999672,,,069,001,2019_May_30_1413,MusicAffectPsychophysiology2019,3.0.5,59.94389383415557,
To what extent did the music make you feel ,ANXIOUS ,30MonoWAV/30MonoF1.wav,1,2,2,1,,,,,1,14,30,0,0,9,9,1,,,,,,,,,3,1.1854787519996535,,,069,001,2019_May_30_1413,MusicAffectPsychophysiology2019,3.0.5,59.94389383415557,
To what extent did the music make you feel ,SAD,30MonoWAV/30MonoF1.wav,1,2,2,1,,,,,1,14,30,0,0,10,10,0,,,,,,,,,1,1.0342414759998064,,,069,001,2019_May_30_1413,MusicAffectPsychophysiology2019,3.0.5,59.94389383415557,
To what extent did the music make you feel ,HAPPY,30MonoWAV/30MonoF1.wav,1,2,2,1,,,,,1,14,30,0,0,11,11,6,,,,,,,,,1,1.2020303319995946,,,069,001,2019_May_30_1413,MusicAffectPsychophysiology2019,3.0.5,59.94389383415557,
,,30MonoWAV/30MonoF1.wav,1,2,2,1,,,,,1,14,30,0,,,,,,,,,,,,,,,,,069,001,2019_May_30_1413,MusicAffectPsychophysiology2019,3.0.5,59.94389383415557,
To what extent did the music make you feel ,HAPPY,30MonoWAV/30MonoT4.wav,2,1,4,16,,,,,1,15,31,15,0,0,0,6,,,3,3.2172917140005666,4,0.701766413999394,4,1.5682530009999027,4,2.085584954999831,,,069,001,2019_May_30_1413,MusicAffectPsychophysiology2019,3.0.5,59.94389383415557,
To what extent did the music make you feel ,SAD,30MonoWAV/30MonoT4.wav,2,1,4,16,,,,,1,15,31,15,0,1,1,0,,,,,,,,,1,4.518379004000053,,,069,001,2019_May_30_1413,MusicAffectPsychophysiology2019,3.0.5,59.94389383415557,
To what extent did the music make you feel ,GUILTY,30MonoWAV/30MonoT4.wav,2,1,4,16,,,,,1,15,31,15,0,2,2,5,,,,,,,,,1,0.9852634950002539,,,069,001,2019_May_30_1413,MusicAffectPsychophysiology2019,3.0.5,59.94389383415557,
To what extent did the music make you feel ,ALERT,30MonoWAV/30MonoT4.wav,2,1,4,16,,,,,1,15,31,15,0,3,3,8,,,,,,,,,3,1.1694416099999216,,,069,001,2019_May_30_1413,MusicAffectPsychophysiology2019,3.0.5,59.94389383415557,
To what extent did the music make you feel ,ASHAMED,30MonoWAV/30MonoT4.wav,2,1,4,16,,,,,1,15,31,15,0,4,4,4,,,,,,,,,1,0.9673900699999649,,,069,001,2019_May_30_1413,MusicAffectPsychophysiology2019,3.0.5,59.94389383415557,
To what extent did the music make you feel ,ANGRY,30MonoWAV/30MonoT4.wav,2,1,4,16,,,,,1,15,31,15,0,5,5,2,,,,,,,,,1,0.7864210870002353,,,069,001,2019_May_30_1413,MusicAffectPsychophysiology2019,3.0.5,59.94389383415557,
To what extent did the music make you feel ,SCARED,30MonoWAV/30MonoT4.wav,2,1,4,16,,,,,1,15,31,15,0,6,6,11,,,,,,,,,1,1.6660006809997867,,,069,001,2019_May_30_1413,MusicAffectPsychophysiology2019,3.0.5,59.94389383415557,
To what extent did the music make you feel ,FRUSTRATED,30MonoWAV/30MonoT4.wav,2,1,4,16,,,,,1,15,31,15,0,7,7,3,,,,,,,,,1,0.9015107420000277,,,069,001,2019_May_30_1413,MusicAffectPsychophysiology2019,3.0.5,59.94389383415557,
To what extent did the music make you feel ,ANXIOUS ,30MonoWAV/30MonoT4.wav,2,1,4,16,,,,,1,15,31,15,0,8,8,1,,,,,,,,,1,1.6353607199998805,,,069,001,2019_May_30_1413,MusicAffectPsychophysiology2019,3.0.5,59.94389383415557,
To what extent did the music make you feel ,EXCITED,30MonoWAV/30MonoT4.wav,2,1,4,16,,,,,1,15,31,15,0,9,9,7,,,,,,,,,3,1.417228320000504,,,069,001,2019_May_30_1413,MusicAffectPsychophysiology2019,3.0.5,59.94389383415557,
To what extent did the music make you feel ,TENDER,30MonoWAV/30MonoT4.wav,2,1,4,16,,,,,1,15,31,15,0,10,10,10,,,,,,,,,3,1.085317531000328,,,069,001,2019_May_30_1413,MusicAffectPsychophysiology2019,3.0.5,59.94389383415557,
To what extent did the music make you feel ,ACTIVE,30MonoWAV/30MonoT4.wav,2,1,4,16,,,,,1,15,31,15,0,11,11,9,,,,,,,,,3,1.0350700819999474,,,069,001,2019_May_30_1413,MusicAffectPsychophysiology2019,3.0.5,59.94389383415557,
,,30MonoWAV/30MonoT4.wav,2,1,4,16,,,,,1,15,31,15,,,,,,,,,,,,,,,,,069,001,2019_May_30_1413,MusicAffectPsychophysiology2019,3.0.5,59.94389383415557,
,,,,,,,,,,,,,,,,,,,,,,,,,,,,,space,5.034368694000477,069,001,2019_May_30_1413,MusicAffectPsychophysiology2019,3.0.5,59.94389383415557,
