Instruction,Word,song,valence,arousal,affectcat,songmark,pracwords.thisRepN,pracwords.thisTrialN,pracwords.thisN,pracwords.thisIndex,songtrials.thisRepN,songtrials.thisTrialN,songtrials.thisN,songtrials.thisIndex,words.thisRepN,words.thisTrialN,words.thisN,words.thisIndex,begin.keys,begin.rt,arousalkey.keys,arousalkey.rt,valencekey.keys,valencekey.rt,likekey.keys,likekey.rt,WordResponse.keys,WordResponse.rt,key_resp_2.keys,key_resp_2.rt,participant,session,date,expName,psychopyVersion,frameRate,
,,,,,,,,,,,,,,,,,,,space,11.069048905999807,,,,,,,,,,,070,001,2019_May_30_1509,MusicAffectPsychophysiology2019,3.0.5,60.16277797624744,
,,,,,,,,,,,,,,,,,,,,,3,9.811073942000803,,,,,,,,,070,001,2019_May_30_1509,MusicAffectPsychophysiology2019,3.0.5,60.16277797624744,
,,,,,,,,,,,,,,,,,,,,,,,1,4.63466767799946,,,,,,,070,001,2019_May_30_1509,MusicAffectPsychophysiology2019,3.0.5,60.16277797624744,
,,,,,,,,,,,,,,,,,,,,,,,,,1,4.434130966999874,,,,,070,001,2019_May_30_1509,MusicAffectPsychophysiology2019,3.0.5,60.16277797624744,
To what extent did the music make you feel ,GUILTY,,,,,,0,0,0,5,,,,,,,,,,,,,,,,,2,4.101009666999744,,,070,001,2019_May_30_1509,MusicAffectPsychophysiology2019,3.0.5,60.16277797624744,
To what extent did the music make you feel ,TENDER,,,,,,0,1,1,10,,,,,,,,,,,,,,,,,1,1.3845076609995886,,,070,001,2019_May_30_1509,MusicAffectPsychophysiology2019,3.0.5,60.16277797624744,
To what extent did the music make you feel ,ANXIOUS ,,,,,,0,2,2,1,,,,,,,,,,,,,,,,,3,3.184670874999938,,,070,001,2019_May_30_1509,MusicAffectPsychophysiology2019,3.0.5,60.16277797624744,
To what extent did the music make you feel ,ALERT,,,,,,0,3,3,8,,,,,,,,,,,,,,,,,3,1.7518762800000331,,,070,001,2019_May_30_1509,MusicAffectPsychophysiology2019,3.0.5,60.16277797624744,
To what extent did the music make you feel ,ANGRY,,,,,,0,4,4,2,,,,,,,,,,,,,,,,,2,1.4513626180005303,,,070,001,2019_May_30_1509,MusicAffectPsychophysiology2019,3.0.5,60.16277797624744,
To what extent did the music make you feel ,EXCITED,,,,,,0,5,5,7,,,,,,,,,,,,,,,,,1,2.0352484150007513,,,070,001,2019_May_30_1509,MusicAffectPsychophysiology2019,3.0.5,60.16277797624744,
To what extent did the music make you feel ,ASHAMED,,,,,,0,6,6,4,,,,,,,,,,,,,,,,,1,1.2354266210004425,,,070,001,2019_May_30_1509,MusicAffectPsychophysiology2019,3.0.5,60.16277797624744,
To what extent did the music make you feel ,SAD,,,,,,0,7,7,0,,,,,,,,,,,,,,,,,2,1.1515827060002266,,,070,001,2019_May_30_1509,MusicAffectPsychophysiology2019,3.0.5,60.16277797624744,
To what extent did the music make you feel ,HAPPY,,,,,,0,8,8,6,,,,,,,,,,,,,,,,,1,2.3520556690000376,,,070,001,2019_May_30_1509,MusicAffectPsychophysiology2019,3.0.5,60.16277797624744,
To what extent did the music make you feel ,ACTIVE,,,,,,0,9,9,9,,,,,,,,,,,,,,,,,2,4.20192126099937,,,070,001,2019_May_30_1509,MusicAffectPsychophysiology2019,3.0.5,60.16277797624744,
To what extent did the music make you feel ,SCARED,,,,,,0,10,10,11,,,,,,,,,,,,,,,,,3,1.6850013520006542,,,070,001,2019_May_30_1509,MusicAffectPsychophysiology2019,3.0.5,60.16277797624744,
To what extent did the music make you feel ,FRUSTRATED,,,,,,0,11,11,3,,,,,,,,,,,,,,,,,3,2.734679418000269,,,070,001,2019_May_30_1509,MusicAffectPsychophysiology2019,3.0.5,60.16277797624744,
To what extent did the music make you feel ,ANGRY,30MonoWAV/30MonoF2.wav,1,2,2,2,,,,,0,0,0,1,0,0,0,2,,,2,4.251631293999708,1,5.384626515000491,2,1.8515159100006713,1,2.5019089110001005,,,070,001,2019_May_30_1509,MusicAffectPsychophysiology2019,3.0.5,60.16277797624744,
To what extent did the music make you feel ,ANXIOUS ,30MonoWAV/30MonoF2.wav,1,2,2,2,,,,,0,0,0,1,0,1,1,1,,,,,,,,,3,3.250768999000684,,,070,001,2019_May_30_1509,MusicAffectPsychophysiology2019,3.0.5,60.16277797624744,
To what extent did the music make you feel ,GUILTY,30MonoWAV/30MonoF2.wav,1,2,2,2,,,,,0,0,0,1,0,2,2,5,,,,,,,,,2,3.2511217569999644,,,070,001,2019_May_30_1509,MusicAffectPsychophysiology2019,3.0.5,60.16277797624744,
To what extent did the music make you feel ,ALERT,30MonoWAV/30MonoF2.wav,1,2,2,2,,,,,0,0,0,1,0,3,3,8,,,,,,,,,2,1.8001145380003436,,,070,001,2019_May_30_1509,MusicAffectPsychophysiology2019,3.0.5,60.16277797624744,
To what extent did the music make you feel ,ACTIVE,30MonoWAV/30MonoF2.wav,1,2,2,2,,,,,0,0,0,1,0,4,4,9,,,,,,,,,2,4.101416573999813,,,070,001,2019_May_30_1509,MusicAffectPsychophysiology2019,3.0.5,60.16277797624744,
To what extent did the music make you feel ,TENDER,30MonoWAV/30MonoF2.wav,1,2,2,2,,,,,0,0,0,1,0,5,5,10,,,,,,,,,1,0.9348034300001018,,,070,001,2019_May_30_1509,MusicAffectPsychophysiology2019,3.0.5,60.16277797624744,
To what extent did the music make you feel ,FRUSTRATED,30MonoWAV/30MonoF2.wav,1,2,2,2,,,,,0,0,0,1,0,6,6,3,,,,,,,,,2,8.034847846000048,,,070,001,2019_May_30_1509,MusicAffectPsychophysiology2019,3.0.5,60.16277797624744,
To what extent did the music make you feel ,EXCITED,30MonoWAV/30MonoF2.wav,1,2,2,2,,,,,0,0,0,1,0,7,7,7,,,,,,,,,2,1.351251489999413,,,070,001,2019_May_30_1509,MusicAffectPsychophysiology2019,3.0.5,60.16277797624744,
To what extent did the music make you feel ,HAPPY,30MonoWAV/30MonoF2.wav,1,2,2,2,,,,,0,0,0,1,0,8,8,6,,,,,,,,,1,1.0016303329994116,,,070,001,2019_May_30_1509,MusicAffectPsychophysiology2019,3.0.5,60.16277797624744,
To what extent did the music make you feel ,ASHAMED,30MonoWAV/30MonoF2.wav,1,2,2,2,,,,,0,0,0,1,0,9,9,4,,,,,,,,,2,0.9357389379983942,,,070,001,2019_May_30_1509,MusicAffectPsychophysiology2019,3.0.5,60.16277797624744,
To what extent did the music make you feel ,SCARED,30MonoWAV/30MonoF2.wav,1,2,2,2,,,,,0,0,0,1,0,10,10,11,,,,,,,,,3,3.0515390749988,,,070,001,2019_May_30_1509,MusicAffectPsychophysiology2019,3.0.5,60.16277797624744,
To what extent did the music make you feel ,SAD,30MonoWAV/30MonoF2.wav,1,2,2,2,,,,,0,0,0,1,0,11,11,0,,,,,,,,,1,4.267502671000329,,,070,001,2019_May_30_1509,MusicAffectPsychophysiology2019,3.0.5,60.16277797624744,
,,30MonoWAV/30MonoF2.wav,1,2,2,2,,,,,0,0,0,1,,,,,,,,,,,,,,,,,070,001,2019_May_30_1509,MusicAffectPsychophysiology2019,3.0.5,60.16277797624744,
To what extent did the music make you feel ,ANXIOUS ,30MonoWAV/30MonoH4.wav,2,2,1,8,,,,,0,1,1,7,0,0,0,1,,,3,4.184616403999826,3,5.6839255320010125,1,4.135758899001303,1,2.7845868300009897,,,070,001,2019_May_30_1509,MusicAffectPsychophysiology2019,3.0.5,60.16277797624744,
To what extent did the music make you feel ,FRUSTRATED,30MonoWAV/30MonoH4.wav,2,2,1,8,,,,,0,1,1,7,0,1,1,3,,,,,,,,,1,1.5857084170002054,,,070,001,2019_May_30_1509,MusicAffectPsychophysiology2019,3.0.5,60.16277797624744,
To what extent did the music make you feel ,ACTIVE,30MonoWAV/30MonoH4.wav,2,2,1,8,,,,,0,1,1,7,0,2,2,9,,,,,,,,,3,2.8345696709984622,,,070,001,2019_May_30_1509,MusicAffectPsychophysiology2019,3.0.5,60.16277797624744,
To what extent did the music make you feel ,HAPPY,30MonoWAV/30MonoH4.wav,2,2,1,8,,,,,0,1,1,7,0,3,3,6,,,,,,,,,2,1.283388816000297,,,070,001,2019_May_30_1509,MusicAffectPsychophysiology2019,3.0.5,60.16277797624744,
To what extent did the music make you feel ,ASHAMED,30MonoWAV/30MonoH4.wav,2,2,1,8,,,,,0,1,1,7,0,4,4,4,,,,,,,,,1,0.8682628829992609,,,070,001,2019_May_30_1509,MusicAffectPsychophysiology2019,3.0.5,60.16277797624744,
To what extent did the music make you feel ,SCARED,30MonoWAV/30MonoH4.wav,2,2,1,8,,,,,0,1,1,7,0,5,5,11,,,,,,,,,1,0.7181762049985991,,,070,001,2019_May_30_1509,MusicAffectPsychophysiology2019,3.0.5,60.16277797624744,
To what extent did the music make you feel ,GUILTY,30MonoWAV/30MonoH4.wav,2,2,1,8,,,,,0,1,1,7,0,6,6,5,,,,,,,,,1,0.8017244260008738,,,070,001,2019_May_30_1509,MusicAffectPsychophysiology2019,3.0.5,60.16277797624744,
To what extent did the music make you feel ,SAD,30MonoWAV/30MonoH4.wav,2,2,1,8,,,,,0,1,1,7,0,7,7,0,,,,,,,,,1,2.255261407999569,,,070,001,2019_May_30_1509,MusicAffectPsychophysiology2019,3.0.5,60.16277797624744,
To what extent did the music make you feel ,EXCITED,30MonoWAV/30MonoH4.wav,2,2,1,8,,,,,0,1,1,7,0,8,8,7,,,,,,,,,2,0.985517520999565,,,070,001,2019_May_30_1509,MusicAffectPsychophysiology2019,3.0.5,60.16277797624744,
To what extent did the music make you feel ,TENDER,30MonoWAV/30MonoH4.wav,2,2,1,8,,,,,0,1,1,7,0,9,9,10,,,,,,,,,1,1.454010412999196,,,070,001,2019_May_30_1509,MusicAffectPsychophysiology2019,3.0.5,60.16277797624744,
To what extent did the music make you feel ,ALERT,30MonoWAV/30MonoH4.wav,2,2,1,8,,,,,0,1,1,7,0,10,10,8,,,,,,,,,3,3.038231808999626,,,070,001,2019_May_30_1509,MusicAffectPsychophysiology2019,3.0.5,60.16277797624744,
To what extent did the music make you feel ,ANGRY,30MonoWAV/30MonoH4.wav,2,2,1,8,,,,,0,1,1,7,0,11,11,2,,,,,,,,,1,1.3695581929987384,,,070,001,2019_May_30_1509,MusicAffectPsychophysiology2019,3.0.5,60.16277797624744,
,,30MonoWAV/30MonoH4.wav,2,2,1,8,,,,,0,1,1,7,,,,,,,,,,,,,,,,,070,001,2019_May_30_1509,MusicAffectPsychophysiology2019,3.0.5,60.16277797624744,
To what extent did the music make you feel ,ASHAMED,30MonoWAV/30MonoS1.wav,1,1,3,9,,,,,0,2,2,8,0,0,0,4,,,2,3.1844897299997683,2,5.03359699199973,3,1.6848956600006204,1,3.201098446999822,,,070,001,2019_May_30_1509,MusicAffectPsychophysiology2019,3.0.5,60.16277797624744,
To what extent did the music make you feel ,ANXIOUS ,30MonoWAV/30MonoS1.wav,1,1,3,9,,,,,0,2,2,8,0,1,1,1,,,,,,,,,1,1.0526537149999058,,,070,001,2019_May_30_1509,MusicAffectPsychophysiology2019,3.0.5,60.16277797624744,
To what extent did the music make you feel ,ALERT,30MonoWAV/30MonoS1.wav,1,1,3,9,,,,,0,2,2,8,0,2,2,8,,,,,,,,,2,1.068848868000714,,,070,001,2019_May_30_1509,MusicAffectPsychophysiology2019,3.0.5,60.16277797624744,
To what extent did the music make you feel ,ANGRY,30MonoWAV/30MonoS1.wav,1,1,3,9,,,,,0,2,2,8,0,3,3,2,,,,,,,,,1,0.7027622460009297,,,070,001,2019_May_30_1509,MusicAffectPsychophysiology2019,3.0.5,60.16277797624744,
To what extent did the music make you feel ,FRUSTRATED,30MonoWAV/30MonoS1.wav,1,1,3,9,,,,,0,2,2,8,0,4,4,3,,,,,,,,,1,1.0348772550005378,,,070,001,2019_May_30_1509,MusicAffectPsychophysiology2019,3.0.5,60.16277797624744,
To what extent did the music make you feel ,SAD,30MonoWAV/30MonoS1.wav,1,1,3,9,,,,,0,2,2,8,0,5,5,0,,,,,,,,,2,1.7018112599998858,,,070,001,2019_May_30_1509,MusicAffectPsychophysiology2019,3.0.5,60.16277797624744,
To what extent did the music make you feel ,ACTIVE,30MonoWAV/30MonoS1.wav,1,1,3,9,,,,,0,2,2,8,0,6,6,9,,,,,,,,,3,1.3183693690007203,,,070,001,2019_May_30_1509,MusicAffectPsychophysiology2019,3.0.5,60.16277797624744,
To what extent did the music make you feel ,TENDER,30MonoWAV/30MonoS1.wav,1,1,3,9,,,,,0,2,2,8,0,7,7,10,,,,,,,,,1,1.018488891000743,,,070,001,2019_May_30_1509,MusicAffectPsychophysiology2019,3.0.5,60.16277797624744,
To what extent did the music make you feel ,GUILTY,30MonoWAV/30MonoS1.wav,1,1,3,9,,,,,0,2,2,8,0,8,8,5,,,,,,,,,1,1.3347071119987959,,,070,001,2019_May_30_1509,MusicAffectPsychophysiology2019,3.0.5,60.16277797624744,
To what extent did the music make you feel ,EXCITED,30MonoWAV/30MonoS1.wav,1,1,3,9,,,,,0,2,2,8,0,9,9,7,,,,,,,,,3,7.151901852999799,,,070,001,2019_May_30_1509,MusicAffectPsychophysiology2019,3.0.5,60.16277797624744,
To what extent did the music make you feel ,SCARED,30MonoWAV/30MonoS1.wav,1,1,3,9,,,,,0,2,2,8,0,10,10,11,,,,,,,,,1,1.5180832070000179,,,070,001,2019_May_30_1509,MusicAffectPsychophysiology2019,3.0.5,60.16277797624744,
To what extent did the music make you feel ,HAPPY,30MonoWAV/30MonoS1.wav,1,1,3,9,,,,,0,2,2,8,0,11,11,6,,,,,,,,,2,2.067642267998963,,,070,001,2019_May_30_1509,MusicAffectPsychophysiology2019,3.0.5,60.16277797624744,
,,30MonoWAV/30MonoS1.wav,1,1,3,9,,,,,0,2,2,8,,,,,,,,,,,,,,,,,070,001,2019_May_30_1509,MusicAffectPsychophysiology2019,3.0.5,60.16277797624744,
To what extent did the music make you feel ,ANGRY,30MonoWAV/30MonoS3.wav,1,1,3,11,,,,,0,3,3,10,0,0,0,2,,,3,3.5159660249992157,1,1.5013002880004933,2,5.768318001000807,2,1.7018877650007198,,,070,001,2019_May_30_1509,MusicAffectPsychophysiology2019,3.0.5,60.16277797624744,
To what extent did the music make you feel ,TENDER,30MonoWAV/30MonoS3.wav,1,1,3,11,,,,,0,3,3,10,0,1,1,10,,,,,,,,,1,0.8851352040001075,,,070,001,2019_May_30_1509,MusicAffectPsychophysiology2019,3.0.5,60.16277797624744,
To what extent did the music make you feel ,EXCITED,30MonoWAV/30MonoS3.wav,1,1,3,11,,,,,0,3,3,10,0,2,2,7,,,,,,,,,1,1.5179855939986737,,,070,001,2019_May_30_1509,MusicAffectPsychophysiology2019,3.0.5,60.16277797624744,
To what extent did the music make you feel ,SAD,30MonoWAV/30MonoS3.wav,1,1,3,11,,,,,0,3,3,10,0,3,3,0,,,,,,,,,2,0.8184728470005211,,,070,001,2019_May_30_1509,MusicAffectPsychophysiology2019,3.0.5,60.16277797624744,
To what extent did the music make you feel ,ASHAMED,30MonoWAV/30MonoS3.wav,1,1,3,11,,,,,0,3,3,10,0,4,4,4,,,,,,,,,2,1.0360865940001531,,,070,001,2019_May_30_1509,MusicAffectPsychophysiology2019,3.0.5,60.16277797624744,
To what extent did the music make you feel ,GUILTY,30MonoWAV/30MonoS3.wav,1,1,3,11,,,,,0,3,3,10,0,5,5,5,,,,,,,,,2,1.334643355998196,,,070,001,2019_May_30_1509,MusicAffectPsychophysiology2019,3.0.5,60.16277797624744,
To what extent did the music make you feel ,ACTIVE,30MonoWAV/30MonoS3.wav,1,1,3,11,,,,,0,3,3,10,0,6,6,9,,,,,,,,,1,1.052163375001328,,,070,001,2019_May_30_1509,MusicAffectPsychophysiology2019,3.0.5,60.16277797624744,
To what extent did the music make you feel ,FRUSTRATED,30MonoWAV/30MonoS3.wav,1,1,3,11,,,,,0,3,3,10,0,7,7,3,,,,,,,,,1,2.3186395689990604,,,070,001,2019_May_30_1509,MusicAffectPsychophysiology2019,3.0.5,60.16277797624744,
To what extent did the music make you feel ,SCARED,30MonoWAV/30MonoS3.wav,1,1,3,11,,,,,0,3,3,10,0,8,8,11,,,,,,,,,3,1.2686402069994074,,,070,001,2019_May_30_1509,MusicAffectPsychophysiology2019,3.0.5,60.16277797624744,
To what extent did the music make you feel ,ALERT,30MonoWAV/30MonoS3.wav,1,1,3,11,,,,,0,3,3,10,0,9,9,8,,,,,,,,,2,4.601616139998441,,,070,001,2019_May_30_1509,MusicAffectPsychophysiology2019,3.0.5,60.16277797624744,
To what extent did the music make you feel ,ANXIOUS ,30MonoWAV/30MonoS3.wav,1,1,3,11,,,,,0,3,3,10,0,10,10,1,,,,,,,,,2,1.218234851001398,,,070,001,2019_May_30_1509,MusicAffectPsychophysiology2019,3.0.5,60.16277797624744,
To what extent did the music make you feel ,HAPPY,30MonoWAV/30MonoS3.wav,1,1,3,11,,,,,0,3,3,10,0,11,11,6,,,,,,,,,1,1.351422398000068,,,070,001,2019_May_30_1509,MusicAffectPsychophysiology2019,3.0.5,60.16277797624744,
,,30MonoWAV/30MonoS3.wav,1,1,3,11,,,,,0,3,3,10,,,,,,,,,,,,,,,,,070,001,2019_May_30_1509,MusicAffectPsychophysiology2019,3.0.5,60.16277797624744,
To what extent did the music make you feel ,ASHAMED,30MonoWAV/30MonoT3.wav,2,1,4,15,,,,,0,4,4,14,0,0,0,4,,,1,5.0675513919995865,2,2.135746009000286,3,2.384291526999732,1,2.150652676000391,,,070,001,2019_May_30_1509,MusicAffectPsychophysiology2019,3.0.5,60.16277797624744,
To what extent did the music make you feel ,ALERT,30MonoWAV/30MonoT3.wav,2,1,4,15,,,,,0,4,4,14,0,1,1,8,,,,,,,,,2,1.5012671510012296,,,070,001,2019_May_30_1509,MusicAffectPsychophysiology2019,3.0.5,60.16277797624744,
To what extent did the music make you feel ,ANXIOUS ,30MonoWAV/30MonoT3.wav,2,1,4,15,,,,,0,4,4,14,0,2,2,1,,,,,,,,,1,0.9507471609995264,,,070,001,2019_May_30_1509,MusicAffectPsychophysiology2019,3.0.5,60.16277797624744,
To what extent did the music make you feel ,GUILTY,30MonoWAV/30MonoT3.wav,2,1,4,15,,,,,0,4,4,14,0,3,3,5,,,,,,,,,1,0.8674118989983981,,,070,001,2019_May_30_1509,MusicAffectPsychophysiology2019,3.0.5,60.16277797624744,
To what extent did the music make you feel ,SCARED,30MonoWAV/30MonoT3.wav,2,1,4,15,,,,,0,4,4,14,0,4,4,11,,,,,,,,,1,1.0513151370014384,,,070,001,2019_May_30_1509,MusicAffectPsychophysiology2019,3.0.5,60.16277797624744,
To what extent did the music make you feel ,SAD,30MonoWAV/30MonoT3.wav,2,1,4,15,,,,,0,4,4,14,0,5,5,0,,,,,,,,,1,0.7498103069992794,,,070,001,2019_May_30_1509,MusicAffectPsychophysiology2019,3.0.5,60.16277797624744,
To what extent did the music make you feel ,TENDER,30MonoWAV/30MonoT3.wav,2,1,4,15,,,,,0,4,4,14,0,6,6,10,,,,,,,,,2,1.1175848540005973,,,070,001,2019_May_30_1509,MusicAffectPsychophysiology2019,3.0.5,60.16277797624744,
To what extent did the music make you feel ,ANGRY,30MonoWAV/30MonoT3.wav,2,1,4,15,,,,,0,4,4,14,0,7,7,2,,,,,,,,,1,1.9520393310012878,,,070,001,2019_May_30_1509,MusicAffectPsychophysiology2019,3.0.5,60.16277797624744,
To what extent did the music make you feel ,EXCITED,30MonoWAV/30MonoT3.wav,2,1,4,15,,,,,0,4,4,14,0,8,8,7,,,,,,,,,2,1.2187792360000458,,,070,001,2019_May_30_1509,MusicAffectPsychophysiology2019,3.0.5,60.16277797624744,
To what extent did the music make you feel ,FRUSTRATED,30MonoWAV/30MonoT3.wav,2,1,4,15,,,,,0,4,4,14,0,9,9,3,,,,,,,,,1,1.402260576000117,,,070,001,2019_May_30_1509,MusicAffectPsychophysiology2019,3.0.5,60.16277797624744,
To what extent did the music make you feel ,HAPPY,30MonoWAV/30MonoT3.wav,2,1,4,15,,,,,0,4,4,14,0,10,10,6,,,,,,,,,3,3.4346503570013738,,,070,001,2019_May_30_1509,MusicAffectPsychophysiology2019,3.0.5,60.16277797624744,
To what extent did the music make you feel ,ACTIVE,30MonoWAV/30MonoT3.wav,2,1,4,15,,,,,0,4,4,14,0,11,11,9,,,,,,,,,1,1.6190354420014046,,,070,001,2019_May_30_1509,MusicAffectPsychophysiology2019,3.0.5,60.16277797624744,
,,30MonoWAV/30MonoT3.wav,2,1,4,15,,,,,0,4,4,14,,,,,,,,,,,,,,,,,070,001,2019_May_30_1509,MusicAffectPsychophysiology2019,3.0.5,60.16277797624744,
To what extent did the music make you feel ,ACTIVE,30MonoWAV/30MonoF1.wav,1,2,2,1,,,,,0,5,5,0,0,0,0,9,,,3,4.757960246999573,3,2.8190911980000237,2,1.4015452709991223,2,4.268166720999943,,,070,001,2019_May_30_1509,MusicAffectPsychophysiology2019,3.0.5,60.16277797624744,
To what extent did the music make you feel ,FRUSTRATED,30MonoWAV/30MonoF1.wav,1,2,2,1,,,,,0,5,5,0,0,1,1,3,,,,,,,,,1,1.7186091439998563,,,070,001,2019_May_30_1509,MusicAffectPsychophysiology2019,3.0.5,60.16277797624744,
To what extent did the music make you feel ,ANXIOUS ,30MonoWAV/30MonoF1.wav,1,2,2,1,,,,,0,5,5,0,0,2,2,1,,,,,,,,,2,1.1180639230005909,,,070,001,2019_May_30_1509,MusicAffectPsychophysiology2019,3.0.5,60.16277797624744,
To what extent did the music make you feel ,ANGRY,30MonoWAV/30MonoF1.wav,1,2,2,1,,,,,0,5,5,0,0,3,3,2,,,,,,,,,2,1.268657519000044,,,070,001,2019_May_30_1509,MusicAffectPsychophysiology2019,3.0.5,60.16277797624744,
To what extent did the music make you feel ,SAD,30MonoWAV/30MonoF1.wav,1,2,2,1,,,,,0,5,5,0,0,4,4,0,,,,,,,,,1,1.8849225860012666,,,070,001,2019_May_30_1509,MusicAffectPsychophysiology2019,3.0.5,60.16277797624744,
To what extent did the music make you feel ,ALERT,30MonoWAV/30MonoF1.wav,1,2,2,1,,,,,0,5,5,0,0,5,5,8,,,,,,,,,3,1.6344117799999367,,,070,001,2019_May_30_1509,MusicAffectPsychophysiology2019,3.0.5,60.16277797624744,
To what extent did the music make you feel ,SCARED,30MonoWAV/30MonoF1.wav,1,2,2,1,,,,,0,5,5,0,0,6,6,11,,,,,,,,,1,1.0516415350011812,,,070,001,2019_May_30_1509,MusicAffectPsychophysiology2019,3.0.5,60.16277797624744,
To what extent did the music make you feel ,EXCITED,30MonoWAV/30MonoF1.wav,1,2,2,1,,,,,0,5,5,0,0,7,7,7,,,,,,,,,1,0.935353868000675,,,070,001,2019_May_30_1509,MusicAffectPsychophysiology2019,3.0.5,60.16277797624744,
To what extent did the music make you feel ,TENDER,30MonoWAV/30MonoF1.wav,1,2,2,1,,,,,0,5,5,0,0,8,8,10,,,,,,,,,1,3.3181033029995888,,,070,001,2019_May_30_1509,MusicAffectPsychophysiology2019,3.0.5,60.16277797624744,
To what extent did the music make you feel ,GUILTY,30MonoWAV/30MonoF1.wav,1,2,2,1,,,,,0,5,5,0,0,9,9,5,,,,,,,,,3,3.4682540579997294,,,070,001,2019_May_30_1509,MusicAffectPsychophysiology2019,3.0.5,60.16277797624744,
To what extent did the music make you feel ,ASHAMED,30MonoWAV/30MonoF1.wav,1,2,2,1,,,,,0,5,5,0,0,10,10,4,,,,,,,,,2,2.518361153001024,,,070,001,2019_May_30_1509,MusicAffectPsychophysiology2019,3.0.5,60.16277797624744,
To what extent did the music make you feel ,HAPPY,30MonoWAV/30MonoF1.wav,1,2,2,1,,,,,0,5,5,0,0,11,11,6,,,,,,,,,3,1.419165190000058,,,070,001,2019_May_30_1509,MusicAffectPsychophysiology2019,3.0.5,60.16277797624744,
,,30MonoWAV/30MonoF1.wav,1,2,2,1,,,,,0,5,5,0,,,,,,,,,,,,,,,,,070,001,2019_May_30_1509,MusicAffectPsychophysiology2019,3.0.5,60.16277797624744,
To what extent did the music make you feel ,ALERT,30MonoWAV/30MonoF3.wav,1,2,2,3,,,,,0,6,6,2,0,0,0,8,,,4,3.851182377000441,1,4.050998975000766,3,7.952818388001106,4,2.182735730000786,,,070,001,2019_May_30_1509,MusicAffectPsychophysiology2019,3.0.5,60.16277797624744,
To what extent did the music make you feel ,SCARED,30MonoWAV/30MonoF3.wav,1,2,2,3,,,,,0,6,6,2,0,1,1,11,,,,,,,,,2,1.55125580099957,,,070,001,2019_May_30_1509,MusicAffectPsychophysiology2019,3.0.5,60.16277797624744,
To what extent did the music make you feel ,ASHAMED,30MonoWAV/30MonoF3.wav,1,2,2,3,,,,,0,6,6,2,0,2,2,4,,,,,,,,,1,1.3342403050010034,,,070,001,2019_May_30_1509,MusicAffectPsychophysiology2019,3.0.5,60.16277797624744,
To what extent did the music make you feel ,EXCITED,30MonoWAV/30MonoF3.wav,1,2,2,3,,,,,0,6,6,2,0,3,3,7,,,,,,,,,4,2.267963027001315,,,070,001,2019_May_30_1509,MusicAffectPsychophysiology2019,3.0.5,60.16277797624744,
To what extent did the music make you feel ,ACTIVE,30MonoWAV/30MonoF3.wav,1,2,2,3,,,,,0,6,6,2,0,4,4,9,,,,,,,,,4,2.2855519309996453,,,070,001,2019_May_30_1509,MusicAffectPsychophysiology2019,3.0.5,60.16277797624744,
To what extent did the music make you feel ,HAPPY,30MonoWAV/30MonoF3.wav,1,2,2,3,,,,,0,6,6,2,0,5,5,6,,,,,,,,,2,1.60113374499997,,,070,001,2019_May_30_1509,MusicAffectPsychophysiology2019,3.0.5,60.16277797624744,
To what extent did the music make you feel ,FRUSTRATED,30MonoWAV/30MonoF3.wav,1,2,2,3,,,,,0,6,6,2,0,6,6,3,,,,,,,,,1,2.217819629000587,,,070,001,2019_May_30_1509,MusicAffectPsychophysiology2019,3.0.5,60.16277797624744,
To what extent did the music make you feel ,GUILTY,30MonoWAV/30MonoF3.wav,1,2,2,3,,,,,0,6,6,2,0,7,7,5,,,,,,,,,2,1.253190834000634,,,070,001,2019_May_30_1509,MusicAffectPsychophysiology2019,3.0.5,60.16277797624744,
To what extent did the music make you feel ,TENDER,30MonoWAV/30MonoF3.wav,1,2,2,3,,,,,0,6,6,2,0,8,8,10,,,,,,,,,1,5.752462323000145,,,070,001,2019_May_30_1509,MusicAffectPsychophysiology2019,3.0.5,60.16277797624744,
To what extent did the music make you feel ,ANGRY,30MonoWAV/30MonoF3.wav,1,2,2,3,,,,,0,6,6,2,0,9,9,2,,,,,,,,,2,1.0512532759985334,,,070,001,2019_May_30_1509,MusicAffectPsychophysiology2019,3.0.5,60.16277797624744,
To what extent did the music make you feel ,ANXIOUS ,30MonoWAV/30MonoF3.wav,1,2,2,3,,,,,0,6,6,2,0,10,10,1,,,,,,,,,3,1.4857901409995975,,,070,001,2019_May_30_1509,MusicAffectPsychophysiology2019,3.0.5,60.16277797624744,
To what extent did the music make you feel ,SAD,30MonoWAV/30MonoF3.wav,1,2,2,3,,,,,0,6,6,2,0,11,11,0,,,,,,,,,1,1.3018326490000618,,,070,001,2019_May_30_1509,MusicAffectPsychophysiology2019,3.0.5,60.16277797624744,
,,30MonoWAV/30MonoF3.wav,1,2,2,3,,,,,0,6,6,2,,,,,,,,,,,,,,,,,070,001,2019_May_30_1509,MusicAffectPsychophysiology2019,3.0.5,60.16277797624744,
To what extent did the music make you feel ,EXCITED,30MonoWAV/30MonoH2.wav,2,2,1,6,,,,,0,7,7,5,0,0,0,7,,,3,3.234524401001181,2,4.48529155200049,2,1.2015542810004263,3,1.9852360669992777,,,070,001,2019_May_30_1509,MusicAffectPsychophysiology2019,3.0.5,60.16277797624744,
To what extent did the music make you feel ,TENDER,30MonoWAV/30MonoH2.wav,2,2,1,6,,,,,0,7,7,5,0,1,1,10,,,,,,,,,1,2.0508842609997373,,,070,001,2019_May_30_1509,MusicAffectPsychophysiology2019,3.0.5,60.16277797624744,
To what extent did the music make you feel ,ANGRY,30MonoWAV/30MonoH2.wav,2,2,1,6,,,,,0,7,7,5,0,2,2,2,,,,,,,,,1,1.0180727080005454,,,070,001,2019_May_30_1509,MusicAffectPsychophysiology2019,3.0.5,60.16277797624744,
To what extent did the music make you feel ,HAPPY,30MonoWAV/30MonoH2.wav,2,2,1,6,,,,,0,7,7,5,0,3,3,6,,,,,,,,,2,1.2018565390008007,,,070,001,2019_May_30_1509,MusicAffectPsychophysiology2019,3.0.5,60.16277797624744,
To what extent did the music make you feel ,ASHAMED,30MonoWAV/30MonoH2.wav,2,2,1,6,,,,,0,7,7,5,0,4,4,4,,,,,,,,,1,1.884483428000749,,,070,001,2019_May_30_1509,MusicAffectPsychophysiology2019,3.0.5,60.16277797624744,
To what extent did the music make you feel ,ALERT,30MonoWAV/30MonoH2.wav,2,2,1,6,,,,,0,7,7,5,0,5,5,8,,,,,,,,,3,1.484429618001741,,,070,001,2019_May_30_1509,MusicAffectPsychophysiology2019,3.0.5,60.16277797624744,
To what extent did the music make you feel ,SAD,30MonoWAV/30MonoH2.wav,2,2,1,6,,,,,0,7,7,5,0,6,6,0,,,,,,,,,1,1.1524189909996494,,,070,001,2019_May_30_1509,MusicAffectPsychophysiology2019,3.0.5,60.16277797624744,
To what extent did the music make you feel ,ACTIVE,30MonoWAV/30MonoH2.wav,2,2,1,6,,,,,0,7,7,5,0,7,7,9,,,,,,,,,3,1.2691022089984472,,,070,001,2019_May_30_1509,MusicAffectPsychophysiology2019,3.0.5,60.16277797624744,
To what extent did the music make you feel ,SCARED,30MonoWAV/30MonoH2.wav,2,2,1,6,,,,,0,7,7,5,0,8,8,11,,,,,,,,,1,1.7182123490001686,,,070,001,2019_May_30_1509,MusicAffectPsychophysiology2019,3.0.5,60.16277797624744,
To what extent did the music make you feel ,ANXIOUS ,30MonoWAV/30MonoH2.wav,2,2,1,6,,,,,0,7,7,5,0,9,9,1,,,,,,,,,2,0.7684576480005489,,,070,001,2019_May_30_1509,MusicAffectPsychophysiology2019,3.0.5,60.16277797624744,
To what extent did the music make you feel ,GUILTY,30MonoWAV/30MonoH2.wav,2,2,1,6,,,,,0,7,7,5,0,10,10,5,,,,,,,,,2,1.5013283080006659,,,070,001,2019_May_30_1509,MusicAffectPsychophysiology2019,3.0.5,60.16277797624744,
To what extent did the music make you feel ,FRUSTRATED,30MonoWAV/30MonoH2.wav,2,2,1,6,,,,,0,7,7,5,0,11,11,3,,,,,,,,,1,2.0684945849989163,,,070,001,2019_May_30_1509,MusicAffectPsychophysiology2019,3.0.5,60.16277797624744,
,,30MonoWAV/30MonoH2.wav,2,2,1,6,,,,,0,7,7,5,,,,,,,,,,,,,,,,,070,001,2019_May_30_1509,MusicAffectPsychophysiology2019,3.0.5,60.16277797624744,
To what extent did the music make you feel ,SAD,30MonoWAV/30MonoH1.wav,2,2,1,5,,,,,0,8,8,4,0,0,0,0,,,3,9.233047749999969,3,1.8846183360001305,2,2.1016951779984083,1,1.8007501869997213,,,070,001,2019_May_30_1509,MusicAffectPsychophysiology2019,3.0.5,60.16277797624744,
To what extent did the music make you feel ,ANGRY,30MonoWAV/30MonoH1.wav,2,2,1,5,,,,,0,8,8,4,0,1,1,2,,,,,,,,,1,0.8026648609993572,,,070,001,2019_May_30_1509,MusicAffectPsychophysiology2019,3.0.5,60.16277797624744,
To what extent did the music make you feel ,TENDER,30MonoWAV/30MonoH1.wav,2,2,1,5,,,,,0,8,8,4,0,2,2,10,,,,,,,,,2,0.8013499489989044,,,070,001,2019_May_30_1509,MusicAffectPsychophysiology2019,3.0.5,60.16277797624744,
To what extent did the music make you feel ,HAPPY,30MonoWAV/30MonoH1.wav,2,2,1,5,,,,,0,8,8,4,0,3,3,6,,,,,,,,,3,1.168885376999242,,,070,001,2019_May_30_1509,MusicAffectPsychophysiology2019,3.0.5,60.16277797624744,
To what extent did the music make you feel ,ALERT,30MonoWAV/30MonoH1.wav,2,2,1,5,,,,,0,8,8,4,0,4,4,8,,,,,,,,,3,4.318424924000283,,,070,001,2019_May_30_1509,MusicAffectPsychophysiology2019,3.0.5,60.16277797624744,
To what extent did the music make you feel ,ASHAMED,30MonoWAV/30MonoH1.wav,2,2,1,5,,,,,0,8,8,4,0,5,5,4,,,,,,,,,1,1.3527570090009249,,,070,001,2019_May_30_1509,MusicAffectPsychophysiology2019,3.0.5,60.16277797624744,
To what extent did the music make you feel ,FRUSTRATED,30MonoWAV/30MonoH1.wav,2,2,1,5,,,,,0,8,8,4,0,6,6,3,,,,,,,,,1,2.55038879499989,,,070,001,2019_May_30_1509,MusicAffectPsychophysiology2019,3.0.5,60.16277797624744,
To what extent did the music make you feel ,ACTIVE,30MonoWAV/30MonoH1.wav,2,2,1,5,,,,,0,8,8,4,0,7,7,9,,,,,,,,,3,1.0029175510007917,,,070,001,2019_May_30_1509,MusicAffectPsychophysiology2019,3.0.5,60.16277797624744,
To what extent did the music make you feel ,ANXIOUS ,30MonoWAV/30MonoH1.wav,2,2,1,5,,,,,0,8,8,4,0,8,8,1,,,,,,,,,1,1.3522833459992398,,,070,001,2019_May_30_1509,MusicAffectPsychophysiology2019,3.0.5,60.16277797624744,
To what extent did the music make you feel ,SCARED,30MonoWAV/30MonoH1.wav,2,2,1,5,,,,,0,8,8,4,0,9,9,11,,,,,,,,,1,1.0022696500000166,,,070,001,2019_May_30_1509,MusicAffectPsychophysiology2019,3.0.5,60.16277797624744,
To what extent did the music make you feel ,GUILTY,30MonoWAV/30MonoH1.wav,2,2,1,5,,,,,0,8,8,4,0,10,10,5,,,,,,,,,1,0.6676522380003007,,,070,001,2019_May_30_1509,MusicAffectPsychophysiology2019,3.0.5,60.16277797624744,
To what extent did the music make you feel ,EXCITED,30MonoWAV/30MonoH1.wav,2,2,1,5,,,,,0,8,8,4,0,11,11,7,,,,,,,,,3,1.7352142270010518,,,070,001,2019_May_30_1509,MusicAffectPsychophysiology2019,3.0.5,60.16277797624744,
,,30MonoWAV/30MonoH1.wav,2,2,1,5,,,,,0,8,8,4,,,,,,,,,,,,,,,,,070,001,2019_May_30_1509,MusicAffectPsychophysiology2019,3.0.5,60.16277797624744,
To what extent did the music make you feel ,ANGRY,30MonoWAV/30MonoT4.wav,2,1,4,16,,,,,0,9,9,15,0,0,0,2,,,3,3.5683762270000443,2,3.668887628999073,2,2.2350897090000217,1,1.785656446001667,,,070,001,2019_May_30_1509,MusicAffectPsychophysiology2019,3.0.5,60.16277797624744,
To what extent did the music make you feel ,SCARED,30MonoWAV/30MonoT4.wav,2,1,4,16,,,,,0,9,9,15,0,1,1,11,,,,,,,,,1,1.034850940999604,,,070,001,2019_May_30_1509,MusicAffectPsychophysiology2019,3.0.5,60.16277797624744,
To what extent did the music make you feel ,GUILTY,30MonoWAV/30MonoT4.wav,2,1,4,16,,,,,0,9,9,15,0,2,2,5,,,,,,,,,2,1.867821203000858,,,070,001,2019_May_30_1509,MusicAffectPsychophysiology2019,3.0.5,60.16277797624744,
To what extent did the music make you feel ,TENDER,30MonoWAV/30MonoT4.wav,2,1,4,16,,,,,0,9,9,15,0,3,3,10,,,,,,,,,2,1.0021659810008714,,,070,001,2019_May_30_1509,MusicAffectPsychophysiology2019,3.0.5,60.16277797624744,
To what extent did the music make you feel ,ACTIVE,30MonoWAV/30MonoT4.wav,2,1,4,16,,,,,0,9,9,15,0,4,4,9,,,,,,,,,3,1.218908435999765,,,070,001,2019_May_30_1509,MusicAffectPsychophysiology2019,3.0.5,60.16277797624744,
To what extent did the music make you feel ,ANXIOUS ,30MonoWAV/30MonoT4.wav,2,1,4,16,,,,,0,9,9,15,0,5,5,1,,,,,,,,,1,1.551725195000472,,,070,001,2019_May_30_1509,MusicAffectPsychophysiology2019,3.0.5,60.16277797624744,
To what extent did the music make you feel ,HAPPY,30MonoWAV/30MonoT4.wav,2,1,4,16,,,,,0,9,9,15,0,6,6,6,,,,,,,,,3,0.9489202870008739,,,070,001,2019_May_30_1509,MusicAffectPsychophysiology2019,3.0.5,60.16277797624744,
To what extent did the music make you feel ,SAD,30MonoWAV/30MonoT4.wav,2,1,4,16,,,,,0,9,9,15,0,7,7,0,,,,,,,,,1,1.2509953520002455,,,070,001,2019_May_30_1509,MusicAffectPsychophysiology2019,3.0.5,60.16277797624744,
To what extent did the music make you feel ,ASHAMED,30MonoWAV/30MonoT4.wav,2,1,4,16,,,,,0,9,9,15,0,8,8,4,,,,,,,,,1,2.335699638000733,,,070,001,2019_May_30_1509,MusicAffectPsychophysiology2019,3.0.5,60.16277797624744,
To what extent did the music make you feel ,ALERT,30MonoWAV/30MonoT4.wav,2,1,4,16,,,,,0,9,9,15,0,9,9,8,,,,,,,,,3,0.884256118999474,,,070,001,2019_May_30_1509,MusicAffectPsychophysiology2019,3.0.5,60.16277797624744,
To what extent did the music make you feel ,FRUSTRATED,30MonoWAV/30MonoT4.wav,2,1,4,16,,,,,0,9,9,15,0,10,10,3,,,,,,,,,1,2.5015216669999063,,,070,001,2019_May_30_1509,MusicAffectPsychophysiology2019,3.0.5,60.16277797624744,
To what extent did the music make you feel ,EXCITED,30MonoWAV/30MonoT4.wav,2,1,4,16,,,,,0,9,9,15,0,11,11,7,,,,,,,,,1,1.6521942619983747,,,070,001,2019_May_30_1509,MusicAffectPsychophysiology2019,3.0.5,60.16277797624744,
,,30MonoWAV/30MonoT4.wav,2,1,4,16,,,,,0,9,9,15,,,,,,,,,,,,,,,,,070,001,2019_May_30_1509,MusicAffectPsychophysiology2019,3.0.5,60.16277797624744,
To what extent did the music make you feel ,EXCITED,30MonoWAV/30MonoS2.wav,1,1,3,10,,,,,0,10,10,9,0,0,0,7,,,2,6.901453702001163,2,2.135486086999663,1,1.8501272710000194,1,4.2522236309996515,,,070,001,2019_May_30_1509,MusicAffectPsychophysiology2019,3.0.5,60.16277797624744,
To what extent did the music make you feel ,ANGRY,30MonoWAV/30MonoS2.wav,1,1,3,10,,,,,0,10,10,9,0,1,1,2,,,,,,,,,1,1.1516286129990476,,,070,001,2019_May_30_1509,MusicAffectPsychophysiology2019,3.0.5,60.16277797624744,
To what extent did the music make you feel ,SAD,30MonoWAV/30MonoS2.wav,1,1,3,10,,,,,0,10,10,9,0,2,2,0,,,,,,,,,3,1.2846603559992218,,,070,001,2019_May_30_1509,MusicAffectPsychophysiology2019,3.0.5,60.16277797624744,
To what extent did the music make you feel ,TENDER,30MonoWAV/30MonoS2.wav,1,1,3,10,,,,,0,10,10,9,0,3,3,10,,,,,,,,,2,1.3515325150001445,,,070,001,2019_May_30_1509,MusicAffectPsychophysiology2019,3.0.5,60.16277797624744,
To what extent did the music make you feel ,HAPPY,30MonoWAV/30MonoS2.wav,1,1,3,10,,,,,0,10,10,9,0,4,4,6,,,,,,,,,1,2.851306955999462,,,070,001,2019_May_30_1509,MusicAffectPsychophysiology2019,3.0.5,60.16277797624744,
To what extent did the music make you feel ,GUILTY,30MonoWAV/30MonoS2.wav,1,1,3,10,,,,,0,10,10,9,0,5,5,5,,,,,,,,,2,1.568845144000079,,,070,001,2019_May_30_1509,MusicAffectPsychophysiology2019,3.0.5,60.16277797624744,
To what extent did the music make you feel ,SCARED,30MonoWAV/30MonoS2.wav,1,1,3,10,,,,,0,10,10,9,0,6,6,11,,,,,,,,,3,0.9181456520000211,,,070,001,2019_May_30_1509,MusicAffectPsychophysiology2019,3.0.5,60.16277797624744,
To what extent did the music make you feel ,ALERT,30MonoWAV/30MonoS2.wav,1,1,3,10,,,,,0,10,10,9,0,7,7,8,,,,,,,,,1,3.6505712829984986,,,070,001,2019_May_30_1509,MusicAffectPsychophysiology2019,3.0.5,60.16277797624744,
To what extent did the music make you feel ,ASHAMED,30MonoWAV/30MonoS2.wav,1,1,3,10,,,,,0,10,10,9,0,8,8,4,,,,,,,,,1,13.749925901000097,,,070,001,2019_May_30_1509,MusicAffectPsychophysiology2019,3.0.5,60.16277797624744,
To what extent did the music make you feel ,ACTIVE,30MonoWAV/30MonoS2.wav,1,1,3,10,,,,,0,10,10,9,0,9,9,9,,,,,,,,,2,1.5686142869999458,,,070,001,2019_May_30_1509,MusicAffectPsychophysiology2019,3.0.5,60.16277797624744,
To what extent did the music make you feel ,FRUSTRATED,30MonoWAV/30MonoS2.wav,1,1,3,10,,,,,0,10,10,9,0,10,10,3,,,,,,,,,1,0.818667319999804,,,070,001,2019_May_30_1509,MusicAffectPsychophysiology2019,3.0.5,60.16277797624744,
To what extent did the music make you feel ,ANXIOUS ,30MonoWAV/30MonoS2.wav,1,1,3,10,,,,,0,10,10,9,0,11,11,1,,,,,,,,,2,0.7514942130001145,,,070,001,2019_May_30_1509,MusicAffectPsychophysiology2019,3.0.5,60.16277797624744,
,,30MonoWAV/30MonoS2.wav,1,1,3,10,,,,,0,10,10,9,,,,,,,,,,,,,,,,,070,001,2019_May_30_1509,MusicAffectPsychophysiology2019,3.0.5,60.16277797624744,
To what extent did the music make you feel ,ASHAMED,30MonoWAV/30MonoH3.wav,2,2,1,7,,,,,0,11,11,6,0,0,0,4,,,2,5.101924246000635,2,1.884946806998414,2,2.635376105999967,1,1.9566551900006743,,,070,001,2019_May_30_1509,MusicAffectPsychophysiology2019,3.0.5,60.16277797624744,
To what extent did the music make you feel ,SCARED,30MonoWAV/30MonoH3.wav,2,2,1,7,,,,,0,11,11,6,0,1,1,11,,,,,,,,,1,1.003022304001206,,,070,001,2019_May_30_1509,MusicAffectPsychophysiology2019,3.0.5,60.16277797624744,
To what extent did the music make you feel ,SAD,30MonoWAV/30MonoH3.wav,2,2,1,7,,,,,0,11,11,6,0,2,2,0,,,,,,,,,1,0.8196883780001372,,,070,001,2019_May_30_1509,MusicAffectPsychophysiology2019,3.0.5,60.16277797624744,
To what extent did the music make you feel ,HAPPY,30MonoWAV/30MonoH3.wav,2,2,1,7,,,,,0,11,11,6,0,3,3,6,,,,,,,,,3,1.4191632560014114,,,070,001,2019_May_30_1509,MusicAffectPsychophysiology2019,3.0.5,60.16277797624744,
To what extent did the music make you feel ,ANGRY,30MonoWAV/30MonoH3.wav,2,2,1,7,,,,,0,11,11,6,0,4,4,2,,,,,,,,,1,3.6590892399999575,,,070,001,2019_May_30_1509,MusicAffectPsychophysiology2019,3.0.5,60.16277797624744,
To what extent did the music make you feel ,FRUSTRATED,30MonoWAV/30MonoH3.wav,2,2,1,7,,,,,0,11,11,6,0,5,5,3,,,,,,,,,2,1.0034815729995898,,,070,001,2019_May_30_1509,MusicAffectPsychophysiology2019,3.0.5,60.16277797624744,
To what extent did the music make you feel ,ANXIOUS ,30MonoWAV/30MonoH3.wav,2,2,1,7,,,,,0,11,11,6,0,6,6,1,,,,,,,,,1,1.267613400999835,,,070,001,2019_May_30_1509,MusicAffectPsychophysiology2019,3.0.5,60.16277797624744,
To what extent did the music make you feel ,ALERT,30MonoWAV/30MonoH3.wav,2,2,1,7,,,,,0,11,11,6,0,7,7,8,,,,,,,,,3,1.7030233299992688,,,070,001,2019_May_30_1509,MusicAffectPsychophysiology2019,3.0.5,60.16277797624744,
To what extent did the music make you feel ,TENDER,30MonoWAV/30MonoH3.wav,2,2,1,7,,,,,0,11,11,6,0,8,8,10,,,,,,,,,2,1.1517523600014101,,,070,001,2019_May_30_1509,MusicAffectPsychophysiology2019,3.0.5,60.16277797624744,
To what extent did the music make you feel ,EXCITED,30MonoWAV/30MonoH3.wav,2,2,1,7,,,,,0,11,11,6,0,9,9,7,,,,,,,,,2,2.5010153700004594,,,070,001,2019_May_30_1509,MusicAffectPsychophysiology2019,3.0.5,60.16277797624744,
To what extent did the music make you feel ,ACTIVE,30MonoWAV/30MonoH3.wav,2,2,1,7,,,,,0,11,11,6,0,10,10,9,,,,,,,,,2,1.4359055009990698,,,070,001,2019_May_30_1509,MusicAffectPsychophysiology2019,3.0.5,60.16277797624744,
To what extent did the music make you feel ,GUILTY,30MonoWAV/30MonoH3.wav,2,2,1,7,,,,,0,11,11,6,0,11,11,5,,,,,,,,,1,3.6173905239993474,,,070,001,2019_May_30_1509,MusicAffectPsychophysiology2019,3.0.5,60.16277797624744,
,,30MonoWAV/30MonoH3.wav,2,2,1,7,,,,,0,11,11,6,,,,,,,,,,,,,,,,,070,001,2019_May_30_1509,MusicAffectPsychophysiology2019,3.0.5,60.16277797624744,
To what extent did the music make you feel ,ACTIVE,30MonoWAV/30MonoF4.wav,1,2,2,4,,,,,0,12,12,3,0,0,0,9,,,3,3.851960001000407,2,2.134200073998727,2,2.685745056000087,3,1.651010927000243,,,070,001,2019_May_30_1509,MusicAffectPsychophysiology2019,3.0.5,60.16277797624744,
To what extent did the music make you feel ,ASHAMED,30MonoWAV/30MonoF4.wav,1,2,2,4,,,,,0,12,12,3,0,1,1,4,,,,,,,,,1,1.8837988100003713,,,070,001,2019_May_30_1509,MusicAffectPsychophysiology2019,3.0.5,60.16277797624744,
To what extent did the music make you feel ,FRUSTRATED,30MonoWAV/30MonoF4.wav,1,2,2,4,,,,,0,12,12,3,0,2,2,3,,,,,,,,,1,0.9342386989992519,,,070,001,2019_May_30_1509,MusicAffectPsychophysiology2019,3.0.5,60.16277797624744,
To what extent did the music make you feel ,ANGRY,30MonoWAV/30MonoF4.wav,1,2,2,4,,,,,0,12,12,3,0,3,3,2,,,,,,,,,1,0.6523011700010102,,,070,001,2019_May_30_1509,MusicAffectPsychophysiology2019,3.0.5,60.16277797624744,
To what extent did the music make you feel ,ANXIOUS ,30MonoWAV/30MonoF4.wav,1,2,2,4,,,,,0,12,12,3,0,4,4,1,,,,,,,,,2,0.9838073249993613,,,070,001,2019_May_30_1509,MusicAffectPsychophysiology2019,3.0.5,60.16277797624744,
To what extent did the music make you feel ,EXCITED,30MonoWAV/30MonoF4.wav,1,2,2,4,,,,,0,12,12,3,0,5,5,7,,,,,,,,,3,1.101344198001243,,,070,001,2019_May_30_1509,MusicAffectPsychophysiology2019,3.0.5,60.16277797624744,
To what extent did the music make you feel ,HAPPY,30MonoWAV/30MonoF4.wav,1,2,2,4,,,,,0,12,12,3,0,6,6,6,,,,,,,,,1,1.4179917869987548,,,070,001,2019_May_30_1509,MusicAffectPsychophysiology2019,3.0.5,60.16277797624744,
To what extent did the music make you feel ,TENDER,30MonoWAV/30MonoF4.wav,1,2,2,4,,,,,0,12,12,3,0,7,7,10,,,,,,,,,1,5.967924803999267,,,070,001,2019_May_30_1509,MusicAffectPsychophysiology2019,3.0.5,60.16277797624744,
To what extent did the music make you feel ,SAD,30MonoWAV/30MonoF4.wav,1,2,2,4,,,,,0,12,12,3,0,8,8,0,,,,,,,,,1,1.2851245340007154,,,070,001,2019_May_30_1509,MusicAffectPsychophysiology2019,3.0.5,60.16277797624744,
To what extent did the music make you feel ,SCARED,30MonoWAV/30MonoF4.wav,1,2,2,4,,,,,0,12,12,3,0,9,9,11,,,,,,,,,2,1.5855221219990199,,,070,001,2019_May_30_1509,MusicAffectPsychophysiology2019,3.0.5,60.16277797624744,
To what extent did the music make you feel ,ALERT,30MonoWAV/30MonoF4.wav,1,2,2,4,,,,,0,12,12,3,0,10,10,8,,,,,,,,,2,1.236726131000978,,,070,001,2019_May_30_1509,MusicAffectPsychophysiology2019,3.0.5,60.16277797624744,
To what extent did the music make you feel ,GUILTY,30MonoWAV/30MonoF4.wav,1,2,2,4,,,,,0,12,12,3,0,11,11,5,,,,,,,,,1,1.4515831640001124,,,070,001,2019_May_30_1509,MusicAffectPsychophysiology2019,3.0.5,60.16277797624744,
,,30MonoWAV/30MonoF4.wav,1,2,2,4,,,,,0,12,12,3,,,,,,,,,,,,,,,,,070,001,2019_May_30_1509,MusicAffectPsychophysiology2019,3.0.5,60.16277797624744,
To what extent did the music make you feel ,SCARED,30MonoWAV/30MonoT2.wav,2,1,4,14,,,,,0,13,13,13,0,0,0,11,,,3,4.450966597998558,3,1.7686271180009498,3,1.5516097039999295,1,1.6190205279999645,,,070,001,2019_May_30_1509,MusicAffectPsychophysiology2019,3.0.5,60.16277797624744,
To what extent did the music make you feel ,ACTIVE,30MonoWAV/30MonoT2.wav,2,1,4,14,,,,,0,13,13,13,0,1,1,9,,,,,,,,,1,1.3178515929994319,,,070,001,2019_May_30_1509,MusicAffectPsychophysiology2019,3.0.5,60.16277797624744,
To what extent did the music make you feel ,HAPPY,30MonoWAV/30MonoT2.wav,2,1,4,14,,,,,0,13,13,13,0,2,2,6,,,,,,,,,2,1.6012610819998372,,,070,001,2019_May_30_1509,MusicAffectPsychophysiology2019,3.0.5,60.16277797624744,
To what extent did the music make you feel ,ALERT,30MonoWAV/30MonoT2.wav,2,1,4,14,,,,,0,13,13,13,0,3,3,8,,,,,,,,,1,2.3358128540003236,,,070,001,2019_May_30_1509,MusicAffectPsychophysiology2019,3.0.5,60.16277797624744,
To what extent did the music make you feel ,ANGRY,30MonoWAV/30MonoT2.wav,2,1,4,14,,,,,0,13,13,13,0,4,4,2,,,,,,,,,1,1.2857230200006597,,,070,001,2019_May_30_1509,MusicAffectPsychophysiology2019,3.0.5,60.16277797624744,
To what extent did the music make you feel ,GUILTY,30MonoWAV/30MonoT2.wav,2,1,4,14,,,,,0,13,13,13,0,5,5,5,,,,,,,,,3,1.052214286999515,,,070,001,2019_May_30_1509,MusicAffectPsychophysiology2019,3.0.5,60.16277797624744,
To what extent did the music make you feel ,ANXIOUS ,30MonoWAV/30MonoT2.wav,2,1,4,14,,,,,0,13,13,13,0,6,6,1,,,,,,,,,1,1.4181842119996872,,,070,001,2019_May_30_1509,MusicAffectPsychophysiology2019,3.0.5,60.16277797624744,
To what extent did the music make you feel ,FRUSTRATED,30MonoWAV/30MonoT2.wav,2,1,4,14,,,,,0,13,13,13,0,7,7,3,,,,,,,,,1,1.5020594900015567,,,070,001,2019_May_30_1509,MusicAffectPsychophysiology2019,3.0.5,60.16277797624744,
To what extent did the music make you feel ,TENDER,30MonoWAV/30MonoT2.wav,2,1,4,14,,,,,0,13,13,13,0,8,8,10,,,,,,,,,2,0.7678270209999027,,,070,001,2019_May_30_1509,MusicAffectPsychophysiology2019,3.0.5,60.16277797624744,
To what extent did the music make you feel ,EXCITED,30MonoWAV/30MonoT2.wav,2,1,4,14,,,,,0,13,13,13,0,9,9,7,,,,,,,,,3,1.3855868990012823,,,070,001,2019_May_30_1509,MusicAffectPsychophysiology2019,3.0.5,60.16277797624744,
To what extent did the music make you feel ,SAD,30MonoWAV/30MonoT2.wav,2,1,4,14,,,,,0,13,13,13,0,10,10,0,,,,,,,,,4,2.702731040000799,,,070,001,2019_May_30_1509,MusicAffectPsychophysiology2019,3.0.5,60.16277797624744,
To what extent did the music make you feel ,ASHAMED,30MonoWAV/30MonoT2.wav,2,1,4,14,,,,,0,13,13,13,0,11,11,4,,,,,,,,,2,4.802089415001319,,,070,001,2019_May_30_1509,MusicAffectPsychophysiology2019,3.0.5,60.16277797624744,
,,30MonoWAV/30MonoT2.wav,2,1,4,14,,,,,0,13,13,13,,,,,,,,,,,,,,,,,070,001,2019_May_30_1509,MusicAffectPsychophysiology2019,3.0.5,60.16277797624744,
To what extent did the music make you feel ,ACTIVE,30MonoWAV/30MonoS4.wav,1,1,3,12,,,,,0,14,14,11,0,0,0,9,,,2,5.117879643999913,2,2.101531858999806,2,2.485337647000051,1,1.3356747689995245,,,070,001,2019_May_30_1509,MusicAffectPsychophysiology2019,3.0.5,60.16277797624744,
To what extent did the music make you feel ,SAD,30MonoWAV/30MonoS4.wav,1,1,3,12,,,,,0,14,14,11,0,1,1,0,,,,,,,,,4,1.384324225000455,,,070,001,2019_May_30_1509,MusicAffectPsychophysiology2019,3.0.5,60.16277797624744,
To what extent did the music make you feel ,EXCITED,30MonoWAV/30MonoS4.wav,1,1,3,12,,,,,0,14,14,11,0,2,2,7,,,,,,,,,3,2.0343499640002847,,,070,001,2019_May_30_1509,MusicAffectPsychophysiology2019,3.0.5,60.16277797624744,
To what extent did the music make you feel ,ANXIOUS ,30MonoWAV/30MonoS4.wav,1,1,3,12,,,,,0,14,14,11,0,3,3,1,,,,,,,,,1,1.2537436390011862,,,070,001,2019_May_30_1509,MusicAffectPsychophysiology2019,3.0.5,60.16277797624744,
To what extent did the music make you feel ,ASHAMED,30MonoWAV/30MonoS4.wav,1,1,3,12,,,,,0,14,14,11,0,4,4,4,,,,,,,,,1,0.8009424970005057,,,070,001,2019_May_30_1509,MusicAffectPsychophysiology2019,3.0.5,60.16277797624744,
To what extent did the music make you feel ,ANGRY,30MonoWAV/30MonoS4.wav,1,1,3,12,,,,,0,14,14,11,0,5,5,2,,,,,,,,,1,1.0517976689989155,,,070,001,2019_May_30_1509,MusicAffectPsychophysiology2019,3.0.5,60.16277797624744,
To what extent did the music make you feel ,TENDER,30MonoWAV/30MonoS4.wav,1,1,3,12,,,,,0,14,14,11,0,6,6,10,,,,,,,,,2,0.9349694600005023,,,070,001,2019_May_30_1509,MusicAffectPsychophysiology2019,3.0.5,60.16277797624744,
To what extent did the music make you feel ,GUILTY,30MonoWAV/30MonoS4.wav,1,1,3,12,,,,,0,14,14,11,0,7,7,5,,,,,,,,,1,1.418383274000007,,,070,001,2019_May_30_1509,MusicAffectPsychophysiology2019,3.0.5,60.16277797624744,
To what extent did the music make you feel ,ALERT,30MonoWAV/30MonoS4.wav,1,1,3,12,,,,,0,14,14,11,0,8,8,8,,,,,,,,,2,1.1020442310000362,,,070,001,2019_May_30_1509,MusicAffectPsychophysiology2019,3.0.5,60.16277797624744,
To what extent did the music make you feel ,SCARED,30MonoWAV/30MonoS4.wav,1,1,3,12,,,,,0,14,14,11,0,9,9,11,,,,,,,,,1,0.9188864120005746,,,070,001,2019_May_30_1509,MusicAffectPsychophysiology2019,3.0.5,60.16277797624744,
To what extent did the music make you feel ,FRUSTRATED,30MonoWAV/30MonoS4.wav,1,1,3,12,,,,,0,14,14,11,0,10,10,3,,,,,,,,,1,0.8186565560008603,,,070,001,2019_May_30_1509,MusicAffectPsychophysiology2019,3.0.5,60.16277797624744,
To what extent did the music make you feel ,HAPPY,30MonoWAV/30MonoS4.wav,1,1,3,12,,,,,0,14,14,11,0,11,11,6,,,,,,,,,2,1.6853584599994065,,,070,001,2019_May_30_1509,MusicAffectPsychophysiology2019,3.0.5,60.16277797624744,
,,30MonoWAV/30MonoS4.wav,1,1,3,12,,,,,0,14,14,11,,,,,,,,,,,,,,,,,070,001,2019_May_30_1509,MusicAffectPsychophysiology2019,3.0.5,60.16277797624744,
To what extent did the music make you feel ,HAPPY,30MonoWAV/30MonoT1.wav,2,1,4,13,,,,,0,15,15,12,0,0,0,6,,,1,3.8853188260000024,2,1.7349157680000644,2,1.234580783999263,1,3.018254409000292,,,070,001,2019_May_30_1509,MusicAffectPsychophysiology2019,3.0.5,60.16277797624744,
To what extent did the music make you feel ,ANXIOUS ,30MonoWAV/30MonoT1.wav,2,1,4,13,,,,,0,15,15,12,0,1,1,1,,,,,,,,,1,1.685073205999288,,,070,001,2019_May_30_1509,MusicAffectPsychophysiology2019,3.0.5,60.16277797624744,
To what extent did the music make you feel ,ANGRY,30MonoWAV/30MonoT1.wav,2,1,4,13,,,,,0,15,15,12,0,2,2,2,,,,,,,,,2,1.0344183340002928,,,070,001,2019_May_30_1509,MusicAffectPsychophysiology2019,3.0.5,60.16277797624744,
To what extent did the music make you feel ,GUILTY,30MonoWAV/30MonoT1.wav,2,1,4,13,,,,,0,15,15,12,0,3,3,5,,,,,,,,,3,1.1365546239994728,,,070,001,2019_May_30_1509,MusicAffectPsychophysiology2019,3.0.5,60.16277797624744,
To what extent did the music make you feel ,FRUSTRATED,30MonoWAV/30MonoT1.wav,2,1,4,13,,,,,0,15,15,12,0,4,4,3,,,,,,,,,3,1.5850113500000589,,,070,001,2019_May_30_1509,MusicAffectPsychophysiology2019,3.0.5,60.16277797624744,
To what extent did the music make you feel ,ASHAMED,30MonoWAV/30MonoT1.wav,2,1,4,13,,,,,0,15,15,12,0,5,5,4,,,,,,,,,3,2.282948693000435,,,070,001,2019_May_30_1509,MusicAffectPsychophysiology2019,3.0.5,60.16277797624744,
To what extent did the music make you feel ,SAD,30MonoWAV/30MonoT1.wav,2,1,4,13,,,,,0,15,15,12,0,6,6,0,,,,,,,,,3,1.0184078220008814,,,070,001,2019_May_30_1509,MusicAffectPsychophysiology2019,3.0.5,60.16277797624744,
To what extent did the music make you feel ,TENDER,30MonoWAV/30MonoT1.wav,2,1,4,13,,,,,0,15,15,12,0,7,7,10,,,,,,,,,2,1.4693725739998627,,,070,001,2019_May_30_1509,MusicAffectPsychophysiology2019,3.0.5,60.16277797624744,
To what extent did the music make you feel ,EXCITED,30MonoWAV/30MonoT1.wav,2,1,4,13,,,,,0,15,15,12,0,8,8,7,,,,,,,,,1,0.8846464229991398,,,070,001,2019_May_30_1509,MusicAffectPsychophysiology2019,3.0.5,60.16277797624744,
To what extent did the music make you feel ,SCARED,30MonoWAV/30MonoT1.wav,2,1,4,13,,,,,0,15,15,12,0,9,9,11,,,,,,,,,1,0.951092448000054,,,070,001,2019_May_30_1509,MusicAffectPsychophysiology2019,3.0.5,60.16277797624744,
To what extent did the music make you feel ,ACTIVE,30MonoWAV/30MonoT1.wav,2,1,4,13,,,,,0,15,15,12,0,10,10,9,,,,,,,,,1,0.8854478760003985,,,070,001,2019_May_30_1509,MusicAffectPsychophysiology2019,3.0.5,60.16277797624744,
To what extent did the music make you feel ,ALERT,30MonoWAV/30MonoT1.wav,2,1,4,13,,,,,0,15,15,12,0,11,11,8,,,,,,,,,1,0.951740788999814,,,070,001,2019_May_30_1509,MusicAffectPsychophysiology2019,3.0.5,60.16277797624744,
,,30MonoWAV/30MonoT1.wav,2,1,4,13,,,,,0,15,15,12,,,,,,,,,,,,,,,,,070,001,2019_May_30_1509,MusicAffectPsychophysiology2019,3.0.5,60.16277797624744,
To what extent did the music make you feel ,EXCITED,30MonoWAV/30MonoT3.wav,2,1,4,15,,,,,1,0,16,14,0,0,0,7,,,1,3.4515005700013717,1,1.5348972420015343,1,1.10173476700038,1,2.2518692140001804,,,070,001,2019_May_30_1509,MusicAffectPsychophysiology2019,3.0.5,60.16277797624744,
To what extent did the music make you feel ,FRUSTRATED,30MonoWAV/30MonoT3.wav,2,1,4,15,,,,,1,0,16,14,0,1,1,3,,,,,,,,,1,0.9020402690002811,,,070,001,2019_May_30_1509,MusicAffectPsychophysiology2019,3.0.5,60.16277797624744,
To what extent did the music make you feel ,SCARED,30MonoWAV/30MonoT3.wav,2,1,4,15,,,,,1,0,16,14,0,2,2,11,,,,,,,,,1,0.6018914929991297,,,070,001,2019_May_30_1509,MusicAffectPsychophysiology2019,3.0.5,60.16277797624744,
To what extent did the music make you feel ,ACTIVE,30MonoWAV/30MonoT3.wav,2,1,4,15,,,,,1,0,16,14,0,3,3,9,,,,,,,,,1,0.8511424950011133,,,070,001,2019_May_30_1509,MusicAffectPsychophysiology2019,3.0.5,60.16277797624744,
To what extent did the music make you feel ,GUILTY,30MonoWAV/30MonoT3.wav,2,1,4,15,,,,,1,0,16,14,0,4,4,5,,,,,,,,,1,2.167384566000692,,,070,001,2019_May_30_1509,MusicAffectPsychophysiology2019,3.0.5,60.16277797624744,
To what extent did the music make you feel ,TENDER,30MonoWAV/30MonoT3.wav,2,1,4,15,,,,,1,0,16,14,0,5,5,10,,,,,,,,,2,0.968402739999874,,,070,001,2019_May_30_1509,MusicAffectPsychophysiology2019,3.0.5,60.16277797624744,
To what extent did the music make you feel ,HAPPY,30MonoWAV/30MonoT3.wav,2,1,4,15,,,,,1,0,16,14,0,6,6,6,,,,,,,,,1,1.3679446170008305,,,070,001,2019_May_30_1509,MusicAffectPsychophysiology2019,3.0.5,60.16277797624744,
To what extent did the music make you feel ,SAD,30MonoWAV/30MonoT3.wav,2,1,4,15,,,,,1,0,16,14,0,7,7,0,,,,,,,,,2,0.9503576589995646,,,070,001,2019_May_30_1509,MusicAffectPsychophysiology2019,3.0.5,60.16277797624744,
To what extent did the music make you feel ,ASHAMED,30MonoWAV/30MonoT3.wav,2,1,4,15,,,,,1,0,16,14,0,8,8,4,,,,,,,,,1,1.3016130500000145,,,070,001,2019_May_30_1509,MusicAffectPsychophysiology2019,3.0.5,60.16277797624744,
To what extent did the music make you feel ,ALERT,30MonoWAV/30MonoT3.wav,2,1,4,15,,,,,1,0,16,14,0,9,9,8,,,,,,,,,1,0.9678577280010359,,,070,001,2019_May_30_1509,MusicAffectPsychophysiology2019,3.0.5,60.16277797624744,
To what extent did the music make you feel ,ANXIOUS ,30MonoWAV/30MonoT3.wav,2,1,4,15,,,,,1,0,16,14,0,10,10,1,,,,,,,,,1,2.6521716170009313,,,070,001,2019_May_30_1509,MusicAffectPsychophysiology2019,3.0.5,60.16277797624744,
To what extent did the music make you feel ,ANGRY,30MonoWAV/30MonoT3.wav,2,1,4,15,,,,,1,0,16,14,0,11,11,2,,,,,,,,,1,2.601276453000537,,,070,001,2019_May_30_1509,MusicAffectPsychophysiology2019,3.0.5,60.16277797624744,
,,30MonoWAV/30MonoT3.wav,2,1,4,15,,,,,1,0,16,14,,,,,,,,,,,,,,,,,070,001,2019_May_30_1509,MusicAffectPsychophysiology2019,3.0.5,60.16277797624744,
To what extent did the music make you feel ,EXCITED,30MonoWAV/30MonoF4.wav,1,2,2,4,,,,,1,1,17,3,0,0,0,7,,,3,3.3195691170003556,2,2.1176367699990806,2,1.352074320000611,4,1.6339587420006865,,,070,001,2019_May_30_1509,MusicAffectPsychophysiology2019,3.0.5,60.16277797624744,
To what extent did the music make you feel ,ANXIOUS ,30MonoWAV/30MonoF4.wav,1,2,2,4,,,,,1,1,17,3,0,1,1,1,,,,,,,,,3,4.318446367000433,,,070,001,2019_May_30_1509,MusicAffectPsychophysiology2019,3.0.5,60.16277797624744,
To what extent did the music make you feel ,SAD,30MonoWAV/30MonoF4.wav,1,2,2,4,,,,,1,1,17,3,0,2,2,0,,,,,,,,,1,1.9685204189991055,,,070,001,2019_May_30_1509,MusicAffectPsychophysiology2019,3.0.5,60.16277797624744,
To what extent did the music make you feel ,GUILTY,30MonoWAV/30MonoF4.wav,1,2,2,4,,,,,1,1,17,3,0,3,3,5,,,,,,,,,1,1.2347973860014463,,,070,001,2019_May_30_1509,MusicAffectPsychophysiology2019,3.0.5,60.16277797624744,
To what extent did the music make you feel ,ASHAMED,30MonoWAV/30MonoF4.wav,1,2,2,4,,,,,1,1,17,3,0,4,4,4,,,,,,,,,2,1.0182999839998956,,,070,001,2019_May_30_1509,MusicAffectPsychophysiology2019,3.0.5,60.16277797624744,
To what extent did the music make you feel ,TENDER,30MonoWAV/30MonoF4.wav,1,2,2,4,,,,,1,1,17,3,0,5,5,10,,,,,,,,,1,1.7682129009990604,,,070,001,2019_May_30_1509,MusicAffectPsychophysiology2019,3.0.5,60.16277797624744,
To what extent did the music make you feel ,ALERT,30MonoWAV/30MonoF4.wav,1,2,2,4,,,,,1,1,17,3,0,6,6,8,,,,,,,,,3,1.2851294740012236,,,070,001,2019_May_30_1509,MusicAffectPsychophysiology2019,3.0.5,60.16277797624744,
To what extent did the music make you feel ,ACTIVE,30MonoWAV/30MonoF4.wav,1,2,2,4,,,,,1,1,17,3,0,7,7,9,,,,,,,,,4,1.284990561000086,,,070,001,2019_May_30_1509,MusicAffectPsychophysiology2019,3.0.5,60.16277797624744,
To what extent did the music make you feel ,FRUSTRATED,30MonoWAV/30MonoF4.wav,1,2,2,4,,,,,1,1,17,3,0,8,8,3,,,,,,,,,2,3.133653263001179,,,070,001,2019_May_30_1509,MusicAffectPsychophysiology2019,3.0.5,60.16277797624744,
To what extent did the music make you feel ,HAPPY,30MonoWAV/30MonoF4.wav,1,2,2,4,,,,,1,1,17,3,0,9,9,6,,,,,,,,,1,2.234931322000193,,,070,001,2019_May_30_1509,MusicAffectPsychophysiology2019,3.0.5,60.16277797624744,
To what extent did the music make you feel ,SCARED,30MonoWAV/30MonoF4.wav,1,2,2,4,,,,,1,1,17,3,0,10,10,11,,,,,,,,,4,2.501079887999367,,,070,001,2019_May_30_1509,MusicAffectPsychophysiology2019,3.0.5,60.16277797624744,
To what extent did the music make you feel ,ANGRY,30MonoWAV/30MonoF4.wav,1,2,2,4,,,,,1,1,17,3,0,11,11,2,,,,,,,,,3,1.4513624339997477,,,070,001,2019_May_30_1509,MusicAffectPsychophysiology2019,3.0.5,60.16277797624744,
,,30MonoWAV/30MonoF4.wav,1,2,2,4,,,,,1,1,17,3,,,,,,,,,,,,,,,,,070,001,2019_May_30_1509,MusicAffectPsychophysiology2019,3.0.5,60.16277797624744,
To what extent did the music make you feel ,GUILTY,30MonoWAV/30MonoH4.wav,2,2,1,8,,,,,1,2,18,7,0,0,0,5,,,4,5.691921662999448,4,1.3345842310009175,2,2.3680136379989563,1,2.118051221999849,,,070,001,2019_May_30_1509,MusicAffectPsychophysiology2019,3.0.5,60.16277797624744,
To what extent did the music make you feel ,ALERT,30MonoWAV/30MonoH4.wav,2,2,1,8,,,,,1,2,18,7,0,1,1,8,,,,,,,,,5,1.1013229510008387,,,070,001,2019_May_30_1509,MusicAffectPsychophysiology2019,3.0.5,60.16277797624744,
To what extent did the music make you feel ,ASHAMED,30MonoWAV/30MonoH4.wav,2,2,1,8,,,,,1,2,18,7,0,2,2,4,,,,,,,,,1,1.1835939539996616,,,070,001,2019_May_30_1509,MusicAffectPsychophysiology2019,3.0.5,60.16277797624744,
To what extent did the music make you feel ,SCARED,30MonoWAV/30MonoH4.wav,2,2,1,8,,,,,1,2,18,7,0,3,3,11,,,,,,,,,1,3.5833010630012723,,,070,001,2019_May_30_1509,MusicAffectPsychophysiology2019,3.0.5,60.16277797624744,
To what extent did the music make you feel ,FRUSTRATED,30MonoWAV/30MonoH4.wav,2,2,1,8,,,,,1,2,18,7,0,4,4,3,,,,,,,,,1,0.8342964140010736,,,070,001,2019_May_30_1509,MusicAffectPsychophysiology2019,3.0.5,60.16277797624744,
To what extent did the music make you feel ,ACTIVE,30MonoWAV/30MonoH4.wav,2,2,1,8,,,,,1,2,18,7,0,5,5,9,,,,,,,,,5,2.0347802930009493,,,070,001,2019_May_30_1509,MusicAffectPsychophysiology2019,3.0.5,60.16277797624744,
To what extent did the music make you feel ,ANGRY,30MonoWAV/30MonoH4.wav,2,2,1,8,,,,,1,2,18,7,0,6,6,2,,,,,,,,,1,3.384795406000194,,,070,001,2019_May_30_1509,MusicAffectPsychophysiology2019,3.0.5,60.16277797624744,
To what extent did the music make you feel ,TENDER,30MonoWAV/30MonoH4.wav,2,2,1,8,,,,,1,2,18,7,0,7,7,10,,,,,,,,,1,1.2847480470009032,,,070,001,2019_May_30_1509,MusicAffectPsychophysiology2019,3.0.5,60.16277797624744,
To what extent did the music make you feel ,EXCITED,30MonoWAV/30MonoH4.wav,2,2,1,8,,,,,1,2,18,7,0,8,8,7,,,,,,,,,4,3.0356248799998866,,,070,001,2019_May_30_1509,MusicAffectPsychophysiology2019,3.0.5,60.16277797624744,
To what extent did the music make you feel ,ANXIOUS ,30MonoWAV/30MonoH4.wav,2,2,1,8,,,,,1,2,18,7,0,9,9,1,,,,,,,,,1,1.317448122001224,,,070,001,2019_May_30_1509,MusicAffectPsychophysiology2019,3.0.5,60.16277797624744,
To what extent did the music make you feel ,HAPPY,30MonoWAV/30MonoH4.wav,2,2,1,8,,,,,1,2,18,7,0,10,10,6,,,,,,,,,4,1.6675148170015746,,,070,001,2019_May_30_1509,MusicAffectPsychophysiology2019,3.0.5,60.16277797624744,
To what extent did the music make you feel ,SAD,30MonoWAV/30MonoH4.wav,2,2,1,8,,,,,1,2,18,7,0,11,11,0,,,,,,,,,1,1.3998928970013367,,,070,001,2019_May_30_1509,MusicAffectPsychophysiology2019,3.0.5,60.16277797624744,
,,30MonoWAV/30MonoH4.wav,2,2,1,8,,,,,1,2,18,7,,,,,,,,,,,,,,,,,070,001,2019_May_30_1509,MusicAffectPsychophysiology2019,3.0.5,60.16277797624744,
To what extent did the music make you feel ,TENDER,30MonoWAV/30MonoH1.wav,2,2,1,5,,,,,1,3,19,4,0,0,0,10,,,3,3.8505715190003684,2,3.2338739380011248,2,2.16781398600142,1,2.3526814420001756,,,070,001,2019_May_30_1509,MusicAffectPsychophysiology2019,3.0.5,60.16277797624744,
To what extent did the music make you feel ,ALERT,30MonoWAV/30MonoH1.wav,2,2,1,5,,,,,1,3,19,4,0,1,1,8,,,,,,,,,3,1.1350548649988923,,,070,001,2019_May_30_1509,MusicAffectPsychophysiology2019,3.0.5,60.16277797624744,
To what extent did the music make you feel ,GUILTY,30MonoWAV/30MonoH1.wav,2,2,1,5,,,,,1,3,19,4,0,2,2,5,,,,,,,,,1,1.084803011999611,,,070,001,2019_May_30_1509,MusicAffectPsychophysiology2019,3.0.5,60.16277797624744,
To what extent did the music make you feel ,ASHAMED,30MonoWAV/30MonoH1.wav,2,2,1,5,,,,,1,3,19,4,0,3,3,4,,,,,,,,,1,0.785339287998795,,,070,001,2019_May_30_1509,MusicAffectPsychophysiology2019,3.0.5,60.16277797624744,
To what extent did the music make you feel ,FRUSTRATED,30MonoWAV/30MonoH1.wav,2,2,1,5,,,,,1,3,19,4,0,4,4,3,,,,,,,,,1,1.0851659290001407,,,070,001,2019_May_30_1509,MusicAffectPsychophysiology2019,3.0.5,60.16277797624744,
To what extent did the music make you feel ,SAD,30MonoWAV/30MonoH1.wav,2,2,1,5,,,,,1,3,19,4,0,5,5,0,,,,,,,,,1,0.8674153829997522,,,070,001,2019_May_30_1509,MusicAffectPsychophysiology2019,3.0.5,60.16277797624744,
To what extent did the music make you feel ,ACTIVE,30MonoWAV/30MonoH1.wav,2,2,1,5,,,,,1,3,19,4,0,6,6,9,,,,,,,,,3,2.034747551999317,,,070,001,2019_May_30_1509,MusicAffectPsychophysiology2019,3.0.5,60.16277797624744,
To what extent did the music make you feel ,ANXIOUS ,30MonoWAV/30MonoH1.wav,2,2,1,5,,,,,1,3,19,4,0,7,7,1,,,,,,,,,2,3.916995245999715,,,070,001,2019_May_30_1509,MusicAffectPsychophysiology2019,3.0.5,60.16277797624744,
To what extent did the music make you feel ,HAPPY,30MonoWAV/30MonoH1.wav,2,2,1,5,,,,,1,3,19,4,0,8,8,6,,,,,,,,,3,1.8359844160004286,,,070,001,2019_May_30_1509,MusicAffectPsychophysiology2019,3.0.5,60.16277797624744,
To what extent did the music make you feel ,SCARED,30MonoWAV/30MonoH1.wav,2,2,1,5,,,,,1,3,19,4,0,9,9,11,,,,,,,,,1,1.13522584599923,,,070,001,2019_May_30_1509,MusicAffectPsychophysiology2019,3.0.5,60.16277797624744,
To what extent did the music make you feel ,EXCITED,30MonoWAV/30MonoH1.wav,2,2,1,5,,,,,1,3,19,4,0,10,10,7,,,,,,,,,4,0.9180743800006894,,,070,001,2019_May_30_1509,MusicAffectPsychophysiology2019,3.0.5,60.16277797624744,
To what extent did the music make you feel ,ANGRY,30MonoWAV/30MonoH1.wav,2,2,1,5,,,,,1,3,19,4,0,11,11,2,,,,,,,,,1,0.9187839879996318,,,070,001,2019_May_30_1509,MusicAffectPsychophysiology2019,3.0.5,60.16277797624744,
,,30MonoWAV/30MonoH1.wav,2,2,1,5,,,,,1,3,19,4,,,,,,,,,,,,,,,,,070,001,2019_May_30_1509,MusicAffectPsychophysiology2019,3.0.5,60.16277797624744,
To what extent did the music make you feel ,GUILTY,30MonoWAV/30MonoT4.wav,2,1,4,16,,,,,1,4,20,15,0,0,0,5,,,4,4.3851664579997305,3,2.0695222220001597,3,2.3523493470001995,1,1.7009645319994888,,,070,001,2019_May_30_1509,MusicAffectPsychophysiology2019,3.0.5,60.16277797624744,
To what extent did the music make you feel ,ASHAMED,30MonoWAV/30MonoT4.wav,2,1,4,16,,,,,1,4,20,15,0,1,1,4,,,,,,,,,1,0.7518967729993165,,,070,001,2019_May_30_1509,MusicAffectPsychophysiology2019,3.0.5,60.16277797624744,
To what extent did the music make you feel ,EXCITED,30MonoWAV/30MonoT4.wav,2,1,4,16,,,,,1,4,20,15,0,2,2,7,,,,,,,,,3,2.3514320329995826,,,070,001,2019_May_30_1509,MusicAffectPsychophysiology2019,3.0.5,60.16277797624744,
To what extent did the music make you feel ,TENDER,30MonoWAV/30MonoT4.wav,2,1,4,16,,,,,1,4,20,15,0,3,3,10,,,,,,,,,1,1.052095572998951,,,070,001,2019_May_30_1509,MusicAffectPsychophysiology2019,3.0.5,60.16277797624744,
To what extent did the music make you feel ,SAD,30MonoWAV/30MonoT4.wav,2,1,4,16,,,,,1,4,20,15,0,4,4,0,,,,,,,,,2,1.318132633001369,,,070,001,2019_May_30_1509,MusicAffectPsychophysiology2019,3.0.5,60.16277797624744,
To what extent did the music make you feel ,ANGRY,30MonoWAV/30MonoT4.wav,2,1,4,16,,,,,1,4,20,15,0,5,5,2,,,,,,,,,1,0.8179722459990444,,,070,001,2019_May_30_1509,MusicAffectPsychophysiology2019,3.0.5,60.16277797624744,
To what extent did the music make you feel ,SCARED,30MonoWAV/30MonoT4.wav,2,1,4,16,,,,,1,4,20,15,0,6,6,11,,,,,,,,,1,1.3343244360003155,,,070,001,2019_May_30_1509,MusicAffectPsychophysiology2019,3.0.5,60.16277797624744,
To what extent did the music make you feel ,ACTIVE,30MonoWAV/30MonoT4.wav,2,1,4,16,,,,,1,4,20,15,0,7,7,9,,,,,,,,,3,2.584975072999441,,,070,001,2019_May_30_1509,MusicAffectPsychophysiology2019,3.0.5,60.16277797624744,
To what extent did the music make you feel ,HAPPY,30MonoWAV/30MonoT4.wav,2,1,4,16,,,,,1,4,20,15,0,8,8,6,,,,,,,,,3,2.9186380120008835,,,070,001,2019_May_30_1509,MusicAffectPsychophysiology2019,3.0.5,60.16277797624744,
To what extent did the music make you feel ,ALERT,30MonoWAV/30MonoT4.wav,2,1,4,16,,,,,1,4,20,15,0,9,9,8,,,,,,,,,3,2.4839749329985352,,,070,001,2019_May_30_1509,MusicAffectPsychophysiology2019,3.0.5,60.16277797624744,
To what extent did the music make you feel ,FRUSTRATED,30MonoWAV/30MonoT4.wav,2,1,4,16,,,,,1,4,20,15,0,10,10,3,,,,,,,,,1,3.934876372000872,,,070,001,2019_May_30_1509,MusicAffectPsychophysiology2019,3.0.5,60.16277797624744,
To what extent did the music make you feel ,ANXIOUS ,30MonoWAV/30MonoT4.wav,2,1,4,16,,,,,1,4,20,15,0,11,11,1,,,,,,,,,1,0.9356201080008759,,,070,001,2019_May_30_1509,MusicAffectPsychophysiology2019,3.0.5,60.16277797624744,
,,30MonoWAV/30MonoT4.wav,2,1,4,16,,,,,1,4,20,15,,,,,,,,,,,,,,,,,070,001,2019_May_30_1509,MusicAffectPsychophysiology2019,3.0.5,60.16277797624744,
To what extent did the music make you feel ,HAPPY,30MonoWAV/30MonoS2.wav,1,1,3,10,,,,,1,5,21,9,0,0,0,6,,,2,4.417374099999506,2,2.251896106999993,1,2.0853553490014747,1,1.735422887999448,,,070,001,2019_May_30_1509,MusicAffectPsychophysiology2019,3.0.5,60.16277797624744,
To what extent did the music make you feel ,SAD,30MonoWAV/30MonoS2.wav,1,1,3,10,,,,,1,5,21,9,0,1,1,0,,,,,,,,,3,1.0357081830006791,,,070,001,2019_May_30_1509,MusicAffectPsychophysiology2019,3.0.5,60.16277797624744,
To what extent did the music make you feel ,TENDER,30MonoWAV/30MonoS2.wav,1,1,3,10,,,,,1,5,21,9,0,2,2,10,,,,,,,,,2,0.8016547039987927,,,070,001,2019_May_30_1509,MusicAffectPsychophysiology2019,3.0.5,60.16277797624744,
To what extent did the music make you feel ,ANGRY,30MonoWAV/30MonoS2.wav,1,1,3,10,,,,,1,5,21,9,0,3,3,2,,,,,,,,,1,1.1844071539999277,,,070,001,2019_May_30_1509,MusicAffectPsychophysiology2019,3.0.5,60.16277797624744,
To what extent did the music make you feel ,ALERT,30MonoWAV/30MonoS2.wav,1,1,3,10,,,,,1,5,21,9,0,4,4,8,,,,,,,,,2,2.685156524999911,,,070,001,2019_May_30_1509,MusicAffectPsychophysiology2019,3.0.5,60.16277797624744,
To what extent did the music make you feel ,EXCITED,30MonoWAV/30MonoS2.wav,1,1,3,10,,,,,1,5,21,9,0,5,5,7,,,,,,,,,1,1.8187546620010835,,,070,001,2019_May_30_1509,MusicAffectPsychophysiology2019,3.0.5,60.16277797624744,
To what extent did the music make you feel ,FRUSTRATED,30MonoWAV/30MonoS2.wav,1,1,3,10,,,,,1,5,21,9,0,6,6,3,,,,,,,,,2,1.5017948490003619,,,070,001,2019_May_30_1509,MusicAffectPsychophysiology2019,3.0.5,60.16277797624744,
To what extent did the music make you feel ,GUILTY,30MonoWAV/30MonoS2.wav,1,1,3,10,,,,,1,5,21,9,0,7,7,5,,,,,,,,,1,0.7356773160008743,,,070,001,2019_May_30_1509,MusicAffectPsychophysiology2019,3.0.5,60.16277797624744,
To what extent did the music make you feel ,SCARED,30MonoWAV/30MonoS2.wav,1,1,3,10,,,,,1,5,21,9,0,8,8,11,,,,,,,,,3,1.351548679998814,,,070,001,2019_May_30_1509,MusicAffectPsychophysiology2019,3.0.5,60.16277797624744,
To what extent did the music make you feel ,ACTIVE,30MonoWAV/30MonoS2.wav,1,1,3,10,,,,,1,5,21,9,0,9,9,9,,,,,,,,,1,1.218166910999571,,,070,001,2019_May_30_1509,MusicAffectPsychophysiology2019,3.0.5,60.16277797624744,
To what extent did the music make you feel ,ASHAMED,30MonoWAV/30MonoS2.wav,1,1,3,10,,,,,1,5,21,9,0,10,10,4,,,,,,,,,2,0.9003690290010127,,,070,001,2019_May_30_1509,MusicAffectPsychophysiology2019,3.0.5,60.16277797624744,
To what extent did the music make you feel ,ANXIOUS ,30MonoWAV/30MonoS2.wav,1,1,3,10,,,,,1,5,21,9,0,11,11,1,,,,,,,,,2,0.8856337460001669,,,070,001,2019_May_30_1509,MusicAffectPsychophysiology2019,3.0.5,60.16277797624744,
,,30MonoWAV/30MonoS2.wav,1,1,3,10,,,,,1,5,21,9,,,,,,,,,,,,,,,,,070,001,2019_May_30_1509,MusicAffectPsychophysiology2019,3.0.5,60.16277797624744,
To what extent did the music make you feel ,ALERT,30MonoWAV/30MonoS4.wav,1,1,3,12,,,,,1,6,22,11,0,0,0,8,,,1,3.3715937540000596,1,1.5536175409997668,1,1.2358988329997374,1,1.3227314079995267,,,070,001,2019_May_30_1509,MusicAffectPsychophysiology2019,3.0.5,60.16277797624744,
To what extent did the music make you feel ,ASHAMED,30MonoWAV/30MonoS4.wav,1,1,3,12,,,,,1,6,22,11,0,1,1,4,,,,,,,,,2,1.8820410469998023,,,070,001,2019_May_30_1509,MusicAffectPsychophysiology2019,3.0.5,60.16277797624744,
To what extent did the music make you feel ,ANGRY,30MonoWAV/30MonoS4.wav,1,1,3,12,,,,,1,6,22,11,0,2,2,2,,,,,,,,,3,0.9856024889995751,,,070,001,2019_May_30_1509,MusicAffectPsychophysiology2019,3.0.5,60.16277797624744,
To what extent did the music make you feel ,HAPPY,30MonoWAV/30MonoS4.wav,1,1,3,12,,,,,1,6,22,11,0,3,3,6,,,,,,,,,1,1.8009122679995926,,,070,001,2019_May_30_1509,MusicAffectPsychophysiology2019,3.0.5,60.16277797624744,
To what extent did the music make you feel ,SCARED,30MonoWAV/30MonoS4.wav,1,1,3,12,,,,,1,6,22,11,0,4,4,11,,,,,,,,,2,1.0023428999993484,,,070,001,2019_May_30_1509,MusicAffectPsychophysiology2019,3.0.5,60.16277797624744,
To what extent did the music make you feel ,GUILTY,30MonoWAV/30MonoS4.wav,1,1,3,12,,,,,1,6,22,11,0,5,5,5,,,,,,,,,2,2.3525667140002042,,,070,001,2019_May_30_1509,MusicAffectPsychophysiology2019,3.0.5,60.16277797624744,
To what extent did the music make you feel ,ANXIOUS ,30MonoWAV/30MonoS4.wav,1,1,3,12,,,,,1,6,22,11,0,6,6,1,,,,,,,,,3,1.0685340379986883,,,070,001,2019_May_30_1509,MusicAffectPsychophysiology2019,3.0.5,60.16277797624744,
To what extent did the music make you feel ,EXCITED,30MonoWAV/30MonoS4.wav,1,1,3,12,,,,,1,6,22,11,0,7,7,7,,,,,,,,,1,2.5183777210004337,,,070,001,2019_May_30_1509,MusicAffectPsychophysiology2019,3.0.5,60.16277797624744,
To what extent did the music make you feel ,SAD,30MonoWAV/30MonoS4.wav,1,1,3,12,,,,,1,6,22,11,0,8,8,0,,,,,,,,,3,2.719373034000455,,,070,001,2019_May_30_1509,MusicAffectPsychophysiology2019,3.0.5,60.16277797624744,
To what extent did the music make you feel ,ACTIVE,30MonoWAV/30MonoS4.wav,1,1,3,12,,,,,1,6,22,11,0,9,9,9,,,,,,,,,1,2.0683853500013356,,,070,001,2019_May_30_1509,MusicAffectPsychophysiology2019,3.0.5,60.16277797624744,
To what extent did the music make you feel ,FRUSTRATED,30MonoWAV/30MonoS4.wav,1,1,3,12,,,,,1,6,22,11,0,10,10,3,,,,,,,,,1,1.1017991169992456,,,070,001,2019_May_30_1509,MusicAffectPsychophysiology2019,3.0.5,60.16277797624744,
To what extent did the music make you feel ,TENDER,30MonoWAV/30MonoS4.wav,1,1,3,12,,,,,1,6,22,11,0,11,11,10,,,,,,,,,1,1.0017737699999998,,,070,001,2019_May_30_1509,MusicAffectPsychophysiology2019,3.0.5,60.16277797624744,
,,30MonoWAV/30MonoS4.wav,1,1,3,12,,,,,1,6,22,11,,,,,,,,,,,,,,,,,070,001,2019_May_30_1509,MusicAffectPsychophysiology2019,3.0.5,60.16277797624744,
To what extent did the music make you feel ,FRUSTRATED,30MonoWAV/30MonoS3.wav,1,1,3,11,,,,,1,7,23,10,0,0,0,3,,,2,7.918320397000571,1,1.1019655149993923,1,2.434655189001205,1,1.584400502999415,,,070,001,2019_May_30_1509,MusicAffectPsychophysiology2019,3.0.5,60.16277797624744,
To what extent did the music make you feel ,ALERT,30MonoWAV/30MonoS3.wav,1,1,3,11,,,,,1,7,23,10,0,1,1,8,,,,,,,,,2,1.0845832720006001,,,070,001,2019_May_30_1509,MusicAffectPsychophysiology2019,3.0.5,60.16277797624744,
To what extent did the music make you feel ,ANXIOUS ,30MonoWAV/30MonoS3.wav,1,1,3,11,,,,,1,7,23,10,0,2,2,1,,,,,,,,,3,0.8514284789998783,,,070,001,2019_May_30_1509,MusicAffectPsychophysiology2019,3.0.5,60.16277797624744,
To what extent did the music make you feel ,ACTIVE,30MonoWAV/30MonoS3.wav,1,1,3,11,,,,,1,7,23,10,0,3,3,9,,,,,,,,,1,1.0510890579989791,,,070,001,2019_May_30_1509,MusicAffectPsychophysiology2019,3.0.5,60.16277797624744,
To what extent did the music make you feel ,SAD,30MonoWAV/30MonoS3.wav,1,1,3,11,,,,,1,7,23,10,0,4,4,0,,,,,,,,,2,0.8184978160006722,,,070,001,2019_May_30_1509,MusicAffectPsychophysiology2019,3.0.5,60.16277797624744,
To what extent did the music make you feel ,HAPPY,30MonoWAV/30MonoS3.wav,1,1,3,11,,,,,1,7,23,10,0,5,5,6,,,,,,,,,1,1.0514891340008035,,,070,001,2019_May_30_1509,MusicAffectPsychophysiology2019,3.0.5,60.16277797624744,
To what extent did the music make you feel ,SCARED,30MonoWAV/30MonoS3.wav,1,1,3,11,,,,,1,7,23,10,0,6,6,11,,,,,,,,,2,0.8523493159991631,,,070,001,2019_May_30_1509,MusicAffectPsychophysiology2019,3.0.5,60.16277797624744,
To what extent did the music make you feel ,ASHAMED,30MonoWAV/30MonoS3.wav,1,1,3,11,,,,,1,7,23,10,0,7,7,4,,,,,,,,,2,1.2009393949992955,,,070,001,2019_May_30_1509,MusicAffectPsychophysiology2019,3.0.5,60.16277797624744,
To what extent did the music make you feel ,GUILTY,30MonoWAV/30MonoS3.wav,1,1,3,11,,,,,1,7,23,10,0,8,8,5,,,,,,,,,2,0.9197327959991526,,,070,001,2019_May_30_1509,MusicAffectPsychophysiology2019,3.0.5,60.16277797624744,
To what extent did the music make you feel ,EXCITED,30MonoWAV/30MonoS3.wav,1,1,3,11,,,,,1,7,23,10,0,9,9,7,,,,,,,,,1,0.7854493800005002,,,070,001,2019_May_30_1509,MusicAffectPsychophysiology2019,3.0.5,60.16277797624744,
To what extent did the music make you feel ,TENDER,30MonoWAV/30MonoS3.wav,1,1,3,11,,,,,1,7,23,10,0,10,10,10,,,,,,,,,1,4.0504866579995,,,070,001,2019_May_30_1509,MusicAffectPsychophysiology2019,3.0.5,60.16277797624744,
To what extent did the music make you feel ,ANGRY,30MonoWAV/30MonoS3.wav,1,1,3,11,,,,,1,7,23,10,0,11,11,2,,,,,,,,,1,3.901570437999908,,,070,001,2019_May_30_1509,MusicAffectPsychophysiology2019,3.0.5,60.16277797624744,
,,30MonoWAV/30MonoS3.wav,1,1,3,11,,,,,1,7,23,10,,,,,,,,,,,,,,,,,070,001,2019_May_30_1509,MusicAffectPsychophysiology2019,3.0.5,60.16277797624744,
To what extent did the music make you feel ,GUILTY,30MonoWAV/30MonoT1.wav,2,1,4,13,,,,,1,8,24,12,0,0,0,5,,,1,3.823103884999,1,1.2033239440006582,1,1.4199392110003828,2,0.9201610880008957,,,070,001,2019_May_30_1509,MusicAffectPsychophysiology2019,3.0.5,60.16277797624744,
To what extent did the music make you feel ,ANGRY,30MonoWAV/30MonoT1.wav,2,1,4,13,,,,,1,8,24,12,0,1,1,2,,,,,,,,,1,1.3534274929988896,,,070,001,2019_May_30_1509,MusicAffectPsychophysiology2019,3.0.5,60.16277797624744,
To what extent did the music make you feel ,ASHAMED,30MonoWAV/30MonoT1.wav,2,1,4,13,,,,,1,8,24,12,0,2,2,4,,,,,,,,,2,1.7373419369996554,,,070,001,2019_May_30_1509,MusicAffectPsychophysiology2019,3.0.5,60.16277797624744,
To what extent did the music make you feel ,HAPPY,30MonoWAV/30MonoT1.wav,2,1,4,13,,,,,1,8,24,12,0,3,3,6,,,,,,,,,1,0.8232275039990782,,,070,001,2019_May_30_1509,MusicAffectPsychophysiology2019,3.0.5,60.16277797624744,
To what extent did the music make you feel ,ACTIVE,30MonoWAV/30MonoT1.wav,2,1,4,13,,,,,1,8,24,12,0,4,4,9,,,,,,,,,2,0.8848099900005764,,,070,001,2019_May_30_1509,MusicAffectPsychophysiology2019,3.0.5,60.16277797624744,
To what extent did the music make you feel ,ANXIOUS ,30MonoWAV/30MonoT1.wav,2,1,4,13,,,,,1,8,24,12,0,5,5,1,,,,,,,,,2,1.7842368239998905,,,070,001,2019_May_30_1509,MusicAffectPsychophysiology2019,3.0.5,60.16277797624744,
To what extent did the music make you feel ,EXCITED,30MonoWAV/30MonoT1.wav,2,1,4,13,,,,,1,8,24,12,0,6,6,7,,,,,,,,,1,1.735703824000666,,,070,001,2019_May_30_1509,MusicAffectPsychophysiology2019,3.0.5,60.16277797624744,
To what extent did the music make you feel ,SAD,30MonoWAV/30MonoT1.wav,2,1,4,13,,,,,1,8,24,12,0,7,7,0,,,,,,,,,4,1.502058052999928,,,070,001,2019_May_30_1509,MusicAffectPsychophysiology2019,3.0.5,60.16277797624744,
To what extent did the music make you feel ,FRUSTRATED,30MonoWAV/30MonoT1.wav,2,1,4,13,,,,,1,8,24,12,0,8,8,3,,,,,,,,,2,5.58384977499918,,,070,001,2019_May_30_1509,MusicAffectPsychophysiology2019,3.0.5,60.16277797624744,
To what extent did the music make you feel ,TENDER,30MonoWAV/30MonoT1.wav,2,1,4,13,,,,,1,8,24,12,0,9,9,10,,,,,,,,,2,1.5516027379999286,,,070,001,2019_May_30_1509,MusicAffectPsychophysiology2019,3.0.5,60.16277797624744,
To what extent did the music make you feel ,ALERT,30MonoWAV/30MonoT1.wav,2,1,4,13,,,,,1,8,24,12,0,10,10,8,,,,,,,,,1,2.4360063839994837,,,070,001,2019_May_30_1509,MusicAffectPsychophysiology2019,3.0.5,60.16277797624744,
To what extent did the music make you feel ,SCARED,30MonoWAV/30MonoT1.wav,2,1,4,13,,,,,1,8,24,12,0,11,11,11,,,,,,,,,2,4.917824667998502,,,070,001,2019_May_30_1509,MusicAffectPsychophysiology2019,3.0.5,60.16277797624744,
,,30MonoWAV/30MonoT1.wav,2,1,4,13,,,,,1,8,24,12,,,,,,,,,,,,,,,,,070,001,2019_May_30_1509,MusicAffectPsychophysiology2019,3.0.5,60.16277797624744,
To what extent did the music make you feel ,HAPPY,30MonoWAV/30MonoF1.wav,1,2,2,1,,,,,1,9,25,0,0,0,0,6,,,3,2.52600232199984,2,3.3007809089995135,2,1.4681374230003712,2,5.052065007999772,,,070,001,2019_May_30_1509,MusicAffectPsychophysiology2019,3.0.5,60.16277797624744,
To what extent did the music make you feel ,ASHAMED,30MonoWAV/30MonoF1.wav,1,2,2,1,,,,,1,9,25,0,0,1,1,4,,,,,,,,,1,1.0178935799995088,,,070,001,2019_May_30_1509,MusicAffectPsychophysiology2019,3.0.5,60.16277797624744,
To what extent did the music make you feel ,SCARED,30MonoWAV/30MonoF1.wav,1,2,2,1,,,,,1,9,25,0,0,2,2,11,,,,,,,,,3,1.9509263420004572,,,070,001,2019_May_30_1509,MusicAffectPsychophysiology2019,3.0.5,60.16277797624744,
To what extent did the music make you feel ,EXCITED,30MonoWAV/30MonoF1.wav,1,2,2,1,,,,,1,9,25,0,0,3,3,7,,,,,,,,,3,1.1844203069995274,,,070,001,2019_May_30_1509,MusicAffectPsychophysiology2019,3.0.5,60.16277797624744,
To what extent did the music make you feel ,GUILTY,30MonoWAV/30MonoF1.wav,1,2,2,1,,,,,1,9,25,0,0,4,4,5,,,,,,,,,2,13.383138338000208,,,070,001,2019_May_30_1509,MusicAffectPsychophysiology2019,3.0.5,60.16277797624744,
To what extent did the music make you feel ,ANGRY,30MonoWAV/30MonoF1.wav,1,2,2,1,,,,,1,9,25,0,0,5,5,2,,,,,,,,,2,1.6014638840006228,,,070,001,2019_May_30_1509,MusicAffectPsychophysiology2019,3.0.5,60.16277797624744,
To what extent did the music make you feel ,ACTIVE,30MonoWAV/30MonoF1.wav,1,2,2,1,,,,,1,9,25,0,0,6,6,9,,,,,,,,,3,0.9014447669997026,,,070,001,2019_May_30_1509,MusicAffectPsychophysiology2019,3.0.5,60.16277797624744,
To what extent did the music make you feel ,ALERT,30MonoWAV/30MonoF1.wav,1,2,2,1,,,,,1,9,25,0,0,7,7,8,,,,,,,,,3,1.1189916809998977,,,070,001,2019_May_30_1509,MusicAffectPsychophysiology2019,3.0.5,60.16277797624744,
To what extent did the music make you feel ,FRUSTRATED,30MonoWAV/30MonoF1.wav,1,2,2,1,,,,,1,9,25,0,0,8,8,3,,,,,,,,,2,1.1355563050001365,,,070,001,2019_May_30_1509,MusicAffectPsychophysiology2019,3.0.5,60.16277797624744,
To what extent did the music make you feel ,SAD,30MonoWAV/30MonoF1.wav,1,2,2,1,,,,,1,9,25,0,0,9,9,0,,,,,,,,,2,1.3852650139997422,,,070,001,2019_May_30_1509,MusicAffectPsychophysiology2019,3.0.5,60.16277797624744,
To what extent did the music make you feel ,TENDER,30MonoWAV/30MonoF1.wav,1,2,2,1,,,,,1,9,25,0,0,10,10,10,,,,,,,,,1,0.9851235919995815,,,070,001,2019_May_30_1509,MusicAffectPsychophysiology2019,3.0.5,60.16277797624744,
To what extent did the music make you feel ,ANXIOUS ,30MonoWAV/30MonoF1.wav,1,2,2,1,,,,,1,9,25,0,0,11,11,1,,,,,,,,,2,3.73496341200007,,,070,001,2019_May_30_1509,MusicAffectPsychophysiology2019,3.0.5,60.16277797624744,
,,30MonoWAV/30MonoF1.wav,1,2,2,1,,,,,1,9,25,0,,,,,,,,,,,,,,,,,070,001,2019_May_30_1509,MusicAffectPsychophysiology2019,3.0.5,60.16277797624744,
To what extent did the music make you feel ,ACTIVE,30MonoWAV/30MonoF2.wav,1,2,2,2,,,,,1,10,26,1,0,0,0,9,,,3,3.667939409999235,1,1.6512065140013874,2,1.9678902010000456,3,4.9180524140010675,,,070,001,2019_May_30_1509,MusicAffectPsychophysiology2019,3.0.5,60.16277797624744,
To what extent did the music make you feel ,SAD,30MonoWAV/30MonoF2.wav,1,2,2,2,,,,,1,10,26,1,0,1,1,0,,,,,,,,,2,1.0021546769985434,,,070,001,2019_May_30_1509,MusicAffectPsychophysiology2019,3.0.5,60.16277797624744,
To what extent did the music make you feel ,EXCITED,30MonoWAV/30MonoF2.wav,1,2,2,2,,,,,1,10,26,1,0,2,2,7,,,,,,,,,1,2.4845713220001926,,,070,001,2019_May_30_1509,MusicAffectPsychophysiology2019,3.0.5,60.16277797624744,
To what extent did the music make you feel ,GUILTY,30MonoWAV/30MonoF2.wav,1,2,2,2,,,,,1,10,26,1,0,3,3,5,,,,,,,,,1,0.9180501090013422,,,070,001,2019_May_30_1509,MusicAffectPsychophysiology2019,3.0.5,60.16277797624744,
To what extent did the music make you feel ,ASHAMED,30MonoWAV/30MonoF2.wav,1,2,2,2,,,,,1,10,26,1,0,4,4,4,,,,,,,,,1,0.500221808999413,,,070,001,2019_May_30_1509,MusicAffectPsychophysiology2019,3.0.5,60.16277797624744,
To what extent did the music make you feel ,SCARED,30MonoWAV/30MonoF2.wav,1,2,2,2,,,,,1,10,26,1,0,5,5,11,,,,,,,,,4,2.218246640999496,,,070,001,2019_May_30_1509,MusicAffectPsychophysiology2019,3.0.5,60.16277797624744,
To what extent did the music make you feel ,ANGRY,30MonoWAV/30MonoF2.wav,1,2,2,2,,,,,1,10,26,1,0,6,6,2,,,,,,,,,2,1.9010249109996948,,,070,001,2019_May_30_1509,MusicAffectPsychophysiology2019,3.0.5,60.16277797624744,
To what extent did the music make you feel ,FRUSTRATED,30MonoWAV/30MonoF2.wav,1,2,2,2,,,,,1,10,26,1,0,7,7,3,,,,,,,,,1,3.2186006900010398,,,070,001,2019_May_30_1509,MusicAffectPsychophysiology2019,3.0.5,60.16277797624744,
To what extent did the music make you feel ,ANXIOUS ,30MonoWAV/30MonoF2.wav,1,2,2,2,,,,,1,10,26,1,0,8,8,1,,,,,,,,,4,1.88474461000078,,,070,001,2019_May_30_1509,MusicAffectPsychophysiology2019,3.0.5,60.16277797624744,
To what extent did the music make you feel ,ALERT,30MonoWAV/30MonoF2.wav,1,2,2,2,,,,,1,10,26,1,0,9,9,8,,,,,,,,,4,2.2341078239987837,,,070,001,2019_May_30_1509,MusicAffectPsychophysiology2019,3.0.5,60.16277797624744,
To what extent did the music make you feel ,TENDER,30MonoWAV/30MonoF2.wav,1,2,2,2,,,,,1,10,26,1,0,10,10,10,,,,,,,,,1,1.0194709059996967,,,070,001,2019_May_30_1509,MusicAffectPsychophysiology2019,3.0.5,60.16277797624744,
To what extent did the music make you feel ,HAPPY,30MonoWAV/30MonoF2.wav,1,2,2,2,,,,,1,10,26,1,0,11,11,6,,,,,,,,,1,1.0510930259988527,,,070,001,2019_May_30_1509,MusicAffectPsychophysiology2019,3.0.5,60.16277797624744,
,,30MonoWAV/30MonoF2.wav,1,2,2,2,,,,,1,10,26,1,,,,,,,,,,,,,,,,,070,001,2019_May_30_1509,MusicAffectPsychophysiology2019,3.0.5,60.16277797624744,
To what extent did the music make you feel ,ANGRY,30MonoWAV/30MonoH3.wav,2,2,1,7,,,,,1,11,27,6,0,0,0,2,,,3,4.236016959999688,2,3.8184013070003857,2,1.4024650800001837,1,2.934186694001255,,,070,001,2019_May_30_1509,MusicAffectPsychophysiology2019,3.0.5,60.16277797624744,
To what extent did the music make you feel ,EXCITED,30MonoWAV/30MonoH3.wav,2,2,1,7,,,,,1,11,27,6,0,1,1,7,,,,,,,,,2,1.1519331130002683,,,070,001,2019_May_30_1509,MusicAffectPsychophysiology2019,3.0.5,60.16277797624744,
To what extent did the music make you feel ,ANXIOUS ,30MonoWAV/30MonoH3.wav,2,2,1,7,,,,,1,11,27,6,0,2,2,1,,,,,,,,,1,2.5172513849993265,,,070,001,2019_May_30_1509,MusicAffectPsychophysiology2019,3.0.5,60.16277797624744,
To what extent did the music make you feel ,HAPPY,30MonoWAV/30MonoH3.wav,2,2,1,7,,,,,1,11,27,6,0,3,3,6,,,,,,,,,3,1.4356934229999752,,,070,001,2019_May_30_1509,MusicAffectPsychophysiology2019,3.0.5,60.16277797624744,
To what extent did the music make you feel ,ACTIVE,30MonoWAV/30MonoH3.wav,2,2,1,7,,,,,1,11,27,6,0,4,4,9,,,,,,,,,3,1.2517355319996568,,,070,001,2019_May_30_1509,MusicAffectPsychophysiology2019,3.0.5,60.16277797624744,
To what extent did the music make you feel ,ALERT,30MonoWAV/30MonoH3.wav,2,2,1,7,,,,,1,11,27,6,0,5,5,8,,,,,,,,,3,1.2186631259992282,,,070,001,2019_May_30_1509,MusicAffectPsychophysiology2019,3.0.5,60.16277797624744,
To what extent did the music make you feel ,FRUSTRATED,30MonoWAV/30MonoH3.wav,2,2,1,7,,,,,1,11,27,6,0,6,6,3,,,,,,,,,1,2.3350434389994916,,,070,001,2019_May_30_1509,MusicAffectPsychophysiology2019,3.0.5,60.16277797624744,
To what extent did the music make you feel ,ASHAMED,30MonoWAV/30MonoH3.wav,2,2,1,7,,,,,1,11,27,6,0,7,7,4,,,,,,,,,1,1.3693978619994596,,,070,001,2019_May_30_1509,MusicAffectPsychophysiology2019,3.0.5,60.16277797624744,
To what extent did the music make you feel ,TENDER,30MonoWAV/30MonoH3.wav,2,2,1,7,,,,,1,11,27,6,0,8,8,10,,,,,,,,,1,1.435080793000452,,,070,001,2019_May_30_1509,MusicAffectPsychophysiology2019,3.0.5,60.16277797624744,
To what extent did the music make you feel ,SAD,30MonoWAV/30MonoH3.wav,2,2,1,7,,,,,1,11,27,6,0,9,9,0,,,,,,,,,2,0.9853795260005427,,,070,001,2019_May_30_1509,MusicAffectPsychophysiology2019,3.0.5,60.16277797624744,
To what extent did the music make you feel ,GUILTY,30MonoWAV/30MonoH3.wav,2,2,1,7,,,,,1,11,27,6,0,10,10,5,,,,,,,,,1,0.9353051269990829,,,070,001,2019_May_30_1509,MusicAffectPsychophysiology2019,3.0.5,60.16277797624744,
To what extent did the music make you feel ,SCARED,30MonoWAV/30MonoH3.wav,2,2,1,7,,,,,1,11,27,6,0,11,11,11,,,,,,,,,1,1.2012954139991052,,,070,001,2019_May_30_1509,MusicAffectPsychophysiology2019,3.0.5,60.16277797624744,
,,30MonoWAV/30MonoH3.wav,2,2,1,7,,,,,1,11,27,6,,,,,,,,,,,,,,,,,070,001,2019_May_30_1509,MusicAffectPsychophysiology2019,3.0.5,60.16277797624744,
To what extent did the music make you feel ,GUILTY,30MonoWAV/30MonoH2.wav,2,2,1,6,,,,,1,12,28,5,0,0,0,5,,,2,7.8670751869995,2,1.55231093600014,2,1.6510751370005892,1,1.185418885999752,,,070,001,2019_May_30_1509,MusicAffectPsychophysiology2019,3.0.5,60.16277797624744,
To what extent did the music make you feel ,HAPPY,30MonoWAV/30MonoH2.wav,2,2,1,6,,,,,1,12,28,5,0,1,1,6,,,,,,,,,3,1.0680184129996633,,,070,001,2019_May_30_1509,MusicAffectPsychophysiology2019,3.0.5,60.16277797624744,
To what extent did the music make you feel ,ALERT,30MonoWAV/30MonoH2.wav,2,2,1,6,,,,,1,12,28,5,0,2,2,8,,,,,,,,,2,2.151346941000156,,,070,001,2019_May_30_1509,MusicAffectPsychophysiology2019,3.0.5,60.16277797624744,
To what extent did the music make you feel ,SCARED,30MonoWAV/30MonoH2.wav,2,2,1,6,,,,,1,12,28,5,0,3,3,11,,,,,,,,,1,1.0180287259991019,,,070,001,2019_May_30_1509,MusicAffectPsychophysiology2019,3.0.5,60.16277797624744,
To what extent did the music make you feel ,ASHAMED,30MonoWAV/30MonoH2.wav,2,2,1,6,,,,,1,12,28,5,0,4,4,4,,,,,,,,,1,0.7181031189993519,,,070,001,2019_May_30_1509,MusicAffectPsychophysiology2019,3.0.5,60.16277797624744,
To what extent did the music make you feel ,TENDER,30MonoWAV/30MonoH2.wav,2,2,1,6,,,,,1,12,28,5,0,5,5,10,,,,,,,,,1,0.8186865099996794,,,070,001,2019_May_30_1509,MusicAffectPsychophysiology2019,3.0.5,60.16277797624744,
To what extent did the music make you feel ,FRUSTRATED,30MonoWAV/30MonoH2.wav,2,2,1,6,,,,,1,12,28,5,0,6,6,3,,,,,,,,,1,0.6018615199991473,,,070,001,2019_May_30_1509,MusicAffectPsychophysiology2019,3.0.5,60.16277797624744,
To what extent did the music make you feel ,ANGRY,30MonoWAV/30MonoH2.wav,2,2,1,6,,,,,1,12,28,5,0,7,7,2,,,,,,,,,1,2.002671206000741,,,070,001,2019_May_30_1509,MusicAffectPsychophysiology2019,3.0.5,60.16277797624744,
To what extent did the music make you feel ,ANXIOUS ,30MonoWAV/30MonoH2.wav,2,2,1,6,,,,,1,12,28,5,0,8,8,1,,,,,,,,,1,0.9685042559995054,,,070,001,2019_May_30_1509,MusicAffectPsychophysiology2019,3.0.5,60.16277797624744,
To what extent did the music make you feel ,SAD,30MonoWAV/30MonoH2.wav,2,2,1,6,,,,,1,12,28,5,0,9,9,0,,,,,,,,,1,1.6670517990005465,,,070,001,2019_May_30_1509,MusicAffectPsychophysiology2019,3.0.5,60.16277797624744,
To what extent did the music make you feel ,EXCITED,30MonoWAV/30MonoH2.wav,2,2,1,6,,,,,1,12,28,5,0,10,10,7,,,,,,,,,2,1.7694476950000535,,,070,001,2019_May_30_1509,MusicAffectPsychophysiology2019,3.0.5,60.16277797624744,
To what extent did the music make you feel ,ACTIVE,30MonoWAV/30MonoH2.wav,2,2,1,6,,,,,1,12,28,5,0,11,11,9,,,,,,,,,2,1.4683307359991886,,,070,001,2019_May_30_1509,MusicAffectPsychophysiology2019,3.0.5,60.16277797624744,
,,30MonoWAV/30MonoH2.wav,2,2,1,6,,,,,1,12,28,5,,,,,,,,,,,,,,,,,070,001,2019_May_30_1509,MusicAffectPsychophysiology2019,3.0.5,60.16277797624744,
To what extent did the music make you feel ,SCARED,30MonoWAV/30MonoT2.wav,2,1,4,14,,,,,1,13,29,13,0,0,0,11,,,3,4.235669344001508,4,1.5986875079997844,4,2.919027031000951,1,4.483823190001203,,,070,001,2019_May_30_1509,MusicAffectPsychophysiology2019,3.0.5,60.16277797624744,
To what extent did the music make you feel ,ANGRY,30MonoWAV/30MonoT2.wav,2,1,4,14,,,,,1,13,29,13,0,1,1,2,,,,,,,,,1,1.0014493459984806,,,070,001,2019_May_30_1509,MusicAffectPsychophysiology2019,3.0.5,60.16277797624744,
To what extent did the music make you feel ,ASHAMED,30MonoWAV/30MonoT2.wav,2,1,4,14,,,,,1,13,29,13,0,2,2,4,,,,,,,,,1,1.6678916750006465,,,070,001,2019_May_30_1509,MusicAffectPsychophysiology2019,3.0.5,60.16277797624744,
To what extent did the music make you feel ,FRUSTRATED,30MonoWAV/30MonoT2.wav,2,1,4,14,,,,,1,13,29,13,0,3,3,3,,,,,,,,,1,0.7017268399995373,,,070,001,2019_May_30_1509,MusicAffectPsychophysiology2019,3.0.5,60.16277797624744,
To what extent did the music make you feel ,EXCITED,30MonoWAV/30MonoT2.wav,2,1,4,14,,,,,1,13,29,13,0,4,4,7,,,,,,,,,2,1.267893340998853,,,070,001,2019_May_30_1509,MusicAffectPsychophysiology2019,3.0.5,60.16277797624744,
To what extent did the music make you feel ,TENDER,30MonoWAV/30MonoT2.wav,2,1,4,14,,,,,1,13,29,13,0,5,5,10,,,,,,,,,2,3.666095368000242,,,070,001,2019_May_30_1509,MusicAffectPsychophysiology2019,3.0.5,60.16277797624744,
To what extent did the music make you feel ,SAD,30MonoWAV/30MonoT2.wav,2,1,4,14,,,,,1,13,29,13,0,6,6,0,,,,,,,,,3,1.8685327469993354,,,070,001,2019_May_30_1509,MusicAffectPsychophysiology2019,3.0.5,60.16277797624744,
To what extent did the music make you feel ,ACTIVE,30MonoWAV/30MonoT2.wav,2,1,4,14,,,,,1,13,29,13,0,7,7,9,,,,,,,,,2,3.184271252999679,,,070,001,2019_May_30_1509,MusicAffectPsychophysiology2019,3.0.5,60.16277797624744,
To what extent did the music make you feel ,ANXIOUS ,30MonoWAV/30MonoT2.wav,2,1,4,14,,,,,1,13,29,13,0,8,8,1,,,,,,,,,1,1.8524925469992013,,,070,001,2019_May_30_1509,MusicAffectPsychophysiology2019,3.0.5,60.16277797624744,
To what extent did the music make you feel ,GUILTY,30MonoWAV/30MonoT2.wav,2,1,4,14,,,,,1,13,29,13,0,9,9,5,,,,,,,,,2,0.8690768479991675,,,070,001,2019_May_30_1509,MusicAffectPsychophysiology2019,3.0.5,60.16277797624744,
To what extent did the music make you feel ,HAPPY,30MonoWAV/30MonoT2.wav,2,1,4,14,,,,,1,13,29,13,0,10,10,6,,,,,,,,,3,2.450325337000322,,,070,001,2019_May_30_1509,MusicAffectPsychophysiology2019,3.0.5,60.16277797624744,
To what extent did the music make you feel ,ALERT,30MonoWAV/30MonoT2.wav,2,1,4,14,,,,,1,13,29,13,0,11,11,8,,,,,,,,,2,5.2684053129996755,,,070,001,2019_May_30_1509,MusicAffectPsychophysiology2019,3.0.5,60.16277797624744,
,,30MonoWAV/30MonoT2.wav,2,1,4,14,,,,,1,13,29,13,,,,,,,,,,,,,,,,,070,001,2019_May_30_1509,MusicAffectPsychophysiology2019,3.0.5,60.16277797624744,
To what extent did the music make you feel ,GUILTY,30MonoWAV/30MonoF3.wav,1,2,2,3,,,,,1,14,30,2,0,0,0,5,,,3,3.1020760420014994,3,3.601699370999995,2,1.334338366999873,2,1.7525529819995427,,,070,001,2019_May_30_1509,MusicAffectPsychophysiology2019,3.0.5,60.16277797624744,
To what extent did the music make you feel ,HAPPY,30MonoWAV/30MonoF3.wav,1,2,2,3,,,,,1,14,30,2,0,1,1,6,,,,,,,,,2,1.58581809899988,,,070,001,2019_May_30_1509,MusicAffectPsychophysiology2019,3.0.5,60.16277797624744,
To what extent did the music make you feel ,TENDER,30MonoWAV/30MonoF3.wav,1,2,2,3,,,,,1,14,30,2,0,2,2,10,,,,,,,,,1,1.9349293030008994,,,070,001,2019_May_30_1509,MusicAffectPsychophysiology2019,3.0.5,60.16277797624744,
To what extent did the music make you feel ,ACTIVE,30MonoWAV/30MonoF3.wav,1,2,2,3,,,,,1,14,30,2,0,3,3,9,,,,,,,,,2,2.018492143999538,,,070,001,2019_May_30_1509,MusicAffectPsychophysiology2019,3.0.5,60.16277797624744,
To what extent did the music make you feel ,ALERT,30MonoWAV/30MonoF3.wav,1,2,2,3,,,,,1,14,30,2,0,4,4,8,,,,,,,,,3,0.9187476749993948,,,070,001,2019_May_30_1509,MusicAffectPsychophysiology2019,3.0.5,60.16277797624744,
To what extent did the music make you feel ,ASHAMED,30MonoWAV/30MonoF3.wav,1,2,2,3,,,,,1,14,30,2,0,5,5,4,,,,,,,,,1,1.000237473001107,,,070,001,2019_May_30_1509,MusicAffectPsychophysiology2019,3.0.5,60.16277797624744,
To what extent did the music make you feel ,FRUSTRATED,30MonoWAV/30MonoF3.wav,1,2,2,3,,,,,1,14,30,2,0,6,6,3,,,,,,,,,2,2.5018259619992023,,,070,001,2019_May_30_1509,MusicAffectPsychophysiology2019,3.0.5,60.16277797624744,
To what extent did the music make you feel ,ANGRY,30MonoWAV/30MonoF3.wav,1,2,2,3,,,,,1,14,30,2,0,7,7,2,,,,,,,,,2,1.0845992190006655,,,070,001,2019_May_30_1509,MusicAffectPsychophysiology2019,3.0.5,60.16277797624744,
To what extent did the music make you feel ,SAD,30MonoWAV/30MonoF3.wav,1,2,2,3,,,,,1,14,30,2,0,8,8,0,,,,,,,,,3,1.5179181940002309,,,070,001,2019_May_30_1509,MusicAffectPsychophysiology2019,3.0.5,60.16277797624744,
To what extent did the music make you feel ,ANXIOUS ,30MonoWAV/30MonoF3.wav,1,2,2,3,,,,,1,14,30,2,0,9,9,1,,,,,,,,,3,1.8185509699997056,,,070,001,2019_May_30_1509,MusicAffectPsychophysiology2019,3.0.5,60.16277797624744,
To what extent did the music make you feel ,EXCITED,30MonoWAV/30MonoF3.wav,1,2,2,3,,,,,1,14,30,2,0,10,10,7,,,,,,,,,3,1.0352831929994863,,,070,001,2019_May_30_1509,MusicAffectPsychophysiology2019,3.0.5,60.16277797624744,
To what extent did the music make you feel ,SCARED,30MonoWAV/30MonoF3.wav,1,2,2,3,,,,,1,14,30,2,0,11,11,11,,,,,,,,,3,1.0511357480008883,,,070,001,2019_May_30_1509,MusicAffectPsychophysiology2019,3.0.5,60.16277797624744,
,,30MonoWAV/30MonoF3.wav,1,2,2,3,,,,,1,14,30,2,,,,,,,,,,,,,,,,,070,001,2019_May_30_1509,MusicAffectPsychophysiology2019,3.0.5,60.16277797624744,
To what extent did the music make you feel ,HAPPY,30MonoWAV/30MonoS1.wav,1,1,3,9,,,,,1,15,31,8,0,0,0,6,,,1,8.98390106700026,1,2.003938574998756,1,1.0842042399999627,1,6.717998702999466,,,070,001,2019_May_30_1509,MusicAffectPsychophysiology2019,3.0.5,60.16277797624744,
To what extent did the music make you feel ,EXCITED,30MonoWAV/30MonoS1.wav,1,1,3,9,,,,,1,15,31,8,0,1,1,7,,,,,,,,,1,1.6352018829984445,,,070,001,2019_May_30_1509,MusicAffectPsychophysiology2019,3.0.5,60.16277797624744,
To what extent did the music make you feel ,ACTIVE,30MonoWAV/30MonoS1.wav,1,1,3,9,,,,,1,15,31,8,0,2,2,9,,,,,,,,,1,2.7346685140000773,,,070,001,2019_May_30_1509,MusicAffectPsychophysiology2019,3.0.5,60.16277797624744,
To what extent did the music make you feel ,ASHAMED,30MonoWAV/30MonoS1.wav,1,1,3,9,,,,,1,15,31,8,0,3,3,4,,,,,,,,,1,2.48541570999987,,,070,001,2019_May_30_1509,MusicAffectPsychophysiology2019,3.0.5,60.16277797624744,
To what extent did the music make you feel ,ANGRY,30MonoWAV/30MonoS1.wav,1,1,3,9,,,,,1,15,31,8,0,4,4,2,,,,,,,,,1,1.7326374910007871,,,070,001,2019_May_30_1509,MusicAffectPsychophysiology2019,3.0.5,60.16277797624744,
To what extent did the music make you feel ,FRUSTRATED,30MonoWAV/30MonoS1.wav,1,1,3,9,,,,,1,15,31,8,0,5,5,3,,,,,,,,,2,2.935273631999735,,,070,001,2019_May_30_1509,MusicAffectPsychophysiology2019,3.0.5,60.16277797624744,
To what extent did the music make you feel ,ALERT,30MonoWAV/30MonoS1.wav,1,1,3,9,,,,,1,15,31,8,0,6,6,8,,,,,,,,,1,1.867464449000181,,,070,001,2019_May_30_1509,MusicAffectPsychophysiology2019,3.0.5,60.16277797624744,
To what extent did the music make you feel ,TENDER,30MonoWAV/30MonoS1.wav,1,1,3,9,,,,,1,15,31,8,0,7,7,10,,,,,,,,,2,1.2516326889999618,,,070,001,2019_May_30_1509,MusicAffectPsychophysiology2019,3.0.5,60.16277797624744,
To what extent did the music make you feel ,ANXIOUS ,30MonoWAV/30MonoS1.wav,1,1,3,9,,,,,1,15,31,8,0,8,8,1,,,,,,,,,2,1.1006615340011194,,,070,001,2019_May_30_1509,MusicAffectPsychophysiology2019,3.0.5,60.16277797624744,
To what extent did the music make you feel ,SAD,30MonoWAV/30MonoS1.wav,1,1,3,9,,,,,1,15,31,8,0,9,9,0,,,,,,,,,2,0.9345803720007098,,,070,001,2019_May_30_1509,MusicAffectPsychophysiology2019,3.0.5,60.16277797624744,
To what extent did the music make you feel ,GUILTY,30MonoWAV/30MonoS1.wav,1,1,3,9,,,,,1,15,31,8,0,10,10,5,,,,,,,,,1,1.534333459001573,,,070,001,2019_May_30_1509,MusicAffectPsychophysiology2019,3.0.5,60.16277797624744,
To what extent did the music make you feel ,SCARED,30MonoWAV/30MonoS1.wav,1,1,3,9,,,,,1,15,31,8,0,11,11,11,,,,,,,,,1,1.9680269399996178,,,070,001,2019_May_30_1509,MusicAffectPsychophysiology2019,3.0.5,60.16277797624744,
,,30MonoWAV/30MonoS1.wav,1,1,3,9,,,,,1,15,31,8,,,,,,,,,,,,,,,,,070,001,2019_May_30_1509,MusicAffectPsychophysiology2019,3.0.5,60.16277797624744,
,,,,,,,,,,,,,,,,,,,,,,,,,,,,,space,5.168665464001606,070,001,2019_May_30_1509,MusicAffectPsychophysiology2019,3.0.5,60.16277797624744,
