Instruction,Word,song,valence,arousal,affectcat,songmark,pracwords.thisRepN,pracwords.thisTrialN,pracwords.thisN,pracwords.thisIndex,songtrials.thisRepN,songtrials.thisTrialN,songtrials.thisN,songtrials.thisIndex,words.thisRepN,words.thisTrialN,words.thisN,words.thisIndex,begin.keys,begin.rt,arousalkey.keys,arousalkey.rt,valencekey.keys,valencekey.rt,likekey.keys,likekey.rt,WordResponse.keys,WordResponse.rt,key_resp_2.keys,key_resp_2.rt,participant,session,date,expName,psychopyVersion,frameRate,
,,,,,,,,,,,,,,,,,,,j,12.918178342999454,,,,,,,,,,,071,001,2019_May_30_1610,MusicAffectPsychophysiology2019,3.0.5,59.94851980805839,
,,,,,,,,,,,,,,,,,,,,,4,5.71601374400052,,,,,,,,,071,001,2019_May_30_1610,MusicAffectPsychophysiology2019,3.0.5,59.94851980805839,
,,,,,,,,,,,,,,,,,,,,,,,4,6.742136352000671,,,,,,,071,001,2019_May_30_1610,MusicAffectPsychophysiology2019,3.0.5,59.94851980805839,
,,,,,,,,,,,,,,,,,,,,,,,,,2,5.242715860000317,,,,,071,001,2019_May_30_1610,MusicAffectPsychophysiology2019,3.0.5,59.94851980805839,
To what extent did the music make you feel ,SAD,,,,,,0,0,0,0,,,,,,,,,,,,,,,,,1,4.586922124000921,,,071,001,2019_May_30_1610,MusicAffectPsychophysiology2019,3.0.5,59.94851980805839,
To what extent did the music make you feel ,ACTIVE,,,,,,0,1,1,9,,,,,,,,,,,,,,,,,4,4.55163138700118,,,071,001,2019_May_30_1610,MusicAffectPsychophysiology2019,3.0.5,59.94851980805839,
To what extent did the music make you feel ,EXCITED,,,,,,0,2,2,7,,,,,,,,,,,,,,,,,3,2.6842694970000593,,,071,001,2019_May_30_1610,MusicAffectPsychophysiology2019,3.0.5,59.94851980805839,
To what extent did the music make you feel ,HAPPY,,,,,,0,3,3,6,,,,,,,,,,,,,,,,,4,4.268607797999721,,,071,001,2019_May_30_1610,MusicAffectPsychophysiology2019,3.0.5,59.94851980805839,
To what extent did the music make you feel ,GUILTY,,,,,,0,4,4,5,,,,,,,,,,,,,,,,,1,2.1522827789995063,,,071,001,2019_May_30_1610,MusicAffectPsychophysiology2019,3.0.5,59.94851980805839,
To what extent did the music make you feel ,FRUSTRATED,,,,,,0,5,5,3,,,,,,,,,,,,,,,,,1,3.851012866000019,,,071,001,2019_May_30_1610,MusicAffectPsychophysiology2019,3.0.5,59.94851980805839,
To what extent did the music make you feel ,ANGRY,,,,,,0,6,6,2,,,,,,,,,,,,,,,,,1,1.352433887999723,,,071,001,2019_May_30_1610,MusicAffectPsychophysiology2019,3.0.5,59.94851980805839,
To what extent did the music make you feel ,ALERT,,,,,,0,7,7,8,,,,,,,,,,,,,,,,,3,3.467688057999112,,,071,001,2019_May_30_1610,MusicAffectPsychophysiology2019,3.0.5,59.94851980805839,
To what extent did the music make you feel ,SCARED,,,,,,0,8,8,11,,,,,,,,,,,,,,,,,1,1.5511066189992562,,,071,001,2019_May_30_1610,MusicAffectPsychophysiology2019,3.0.5,59.94851980805839,
To what extent did the music make you feel ,ANXIOUS ,,,,,,0,9,9,1,,,,,,,,,,,,,,,,,1,1.8358605299999908,,,071,001,2019_May_30_1610,MusicAffectPsychophysiology2019,3.0.5,59.94851980805839,
To what extent did the music make you feel ,ASHAMED,,,,,,0,10,10,4,,,,,,,,,,,,,,,,,1,3.0334482570015098,,,071,001,2019_May_30_1610,MusicAffectPsychophysiology2019,3.0.5,59.94851980805839,
To what extent did the music make you feel ,TENDER,,,,,,0,11,11,10,,,,,,,,,,,,,,,,,2,2.6676787750002404,,,071,001,2019_May_30_1610,MusicAffectPsychophysiology2019,3.0.5,59.94851980805839,
To what extent did the music make you feel ,SAD,30MonoWAV/30MonoH1.wav,2,2,1,5,,,,,0,0,0,4,0,0,0,0,,,3,6.2175468419991375,4,4.085128298998825,2,4.168129521000083,1,2.0692227449999336,,,071,001,2019_May_30_1610,MusicAffectPsychophysiology2019,3.0.5,59.94851980805839,
To what extent did the music make you feel ,GUILTY,30MonoWAV/30MonoH1.wav,2,2,1,5,,,,,0,0,0,4,0,1,1,5,,,,,,,,,1,1.0188752630001545,,,071,001,2019_May_30_1610,MusicAffectPsychophysiology2019,3.0.5,59.94851980805839,
To what extent did the music make you feel ,SCARED,30MonoWAV/30MonoH1.wav,2,2,1,5,,,,,0,0,0,4,0,2,2,11,,,,,,,,,1,0.6694637630007492,,,071,001,2019_May_30_1610,MusicAffectPsychophysiology2019,3.0.5,59.94851980805839,
To what extent did the music make you feel ,FRUSTRATED,30MonoWAV/30MonoH1.wav,2,2,1,5,,,,,0,0,0,4,0,3,3,3,,,,,,,,,1,0.7676650739995239,,,071,001,2019_May_30_1610,MusicAffectPsychophysiology2019,3.0.5,59.94851980805839,
To what extent did the music make you feel ,ACTIVE,30MonoWAV/30MonoH1.wav,2,2,1,5,,,,,0,0,0,4,0,4,4,9,,,,,,,,,2,3.4847346609985834,,,071,001,2019_May_30_1610,MusicAffectPsychophysiology2019,3.0.5,59.94851980805839,
To what extent did the music make you feel ,ASHAMED,30MonoWAV/30MonoH1.wav,2,2,1,5,,,,,0,0,0,4,0,5,5,4,,,,,,,,,1,1.235723791000055,,,071,001,2019_May_30_1610,MusicAffectPsychophysiology2019,3.0.5,59.94851980805839,
To what extent did the music make you feel ,ANGRY,30MonoWAV/30MonoH1.wav,2,2,1,5,,,,,0,0,0,4,0,6,6,2,,,,,,,,,1,2.58461450699906,,,071,001,2019_May_30_1610,MusicAffectPsychophysiology2019,3.0.5,59.94851980805839,
To what extent did the music make you feel ,HAPPY,30MonoWAV/30MonoH1.wav,2,2,1,5,,,,,0,0,0,4,0,7,7,6,,,,,,,,,4,4.267673198999546,,,071,001,2019_May_30_1610,MusicAffectPsychophysiology2019,3.0.5,59.94851980805839,
To what extent did the music make you feel ,ALERT,30MonoWAV/30MonoH1.wav,2,2,1,5,,,,,0,0,0,4,0,8,8,8,,,,,,,,,4,1.851913157999661,,,071,001,2019_May_30_1610,MusicAffectPsychophysiology2019,3.0.5,59.94851980805839,
To what extent did the music make you feel ,EXCITED,30MonoWAV/30MonoH1.wav,2,2,1,5,,,,,0,0,0,4,0,9,9,7,,,,,,,,,4,1.9681589859992528,,,071,001,2019_May_30_1610,MusicAffectPsychophysiology2019,3.0.5,59.94851980805839,
To what extent did the music make you feel ,ANXIOUS ,30MonoWAV/30MonoH1.wav,2,2,1,5,,,,,0,0,0,4,0,10,10,1,,,,,,,,,1,3.7022875170005136,,,071,001,2019_May_30_1610,MusicAffectPsychophysiology2019,3.0.5,59.94851980805839,
To what extent did the music make you feel ,TENDER,30MonoWAV/30MonoH1.wav,2,2,1,5,,,,,0,0,0,4,0,11,11,10,,,,,,,,,1,1.6835365430015372,,,071,001,2019_May_30_1610,MusicAffectPsychophysiology2019,3.0.5,59.94851980805839,
,,30MonoWAV/30MonoH1.wav,2,2,1,5,,,,,0,0,0,4,,,,,,,,,,,,,,,,,071,001,2019_May_30_1610,MusicAffectPsychophysiology2019,3.0.5,59.94851980805839,
To what extent did the music make you feel ,ANXIOUS ,30MonoWAV/30MonoF1.wav,1,2,2,1,,,,,0,1,1,0,0,0,0,1,,,4,8.26823901300122,2,4.71762358200067,1,2.634439530000236,1,6.151730273000794,,,071,001,2019_May_30_1610,MusicAffectPsychophysiology2019,3.0.5,59.94851980805839,
To what extent did the music make you feel ,GUILTY,30MonoWAV/30MonoF1.wav,1,2,2,1,,,,,0,1,1,0,0,1,1,5,,,,,,,,,1,1.267078703000152,,,071,001,2019_May_30_1610,MusicAffectPsychophysiology2019,3.0.5,59.94851980805839,
To what extent did the music make you feel ,HAPPY,30MonoWAV/30MonoF1.wav,1,2,2,1,,,,,0,1,1,0,0,2,2,6,,,,,,,,,2,2.2876592520005943,,,071,001,2019_May_30_1610,MusicAffectPsychophysiology2019,3.0.5,59.94851980805839,
To what extent did the music make you feel ,TENDER,30MonoWAV/30MonoF1.wav,1,2,2,1,,,,,0,1,1,0,0,3,3,10,,,,,,,,,1,2.351538057999278,,,071,001,2019_May_30_1610,MusicAffectPsychophysiology2019,3.0.5,59.94851980805839,
To what extent did the music make you feel ,SAD,30MonoWAV/30MonoF1.wav,1,2,2,1,,,,,0,1,1,0,0,4,4,0,,,,,,,,,1,2.1675464140007534,,,071,001,2019_May_30_1610,MusicAffectPsychophysiology2019,3.0.5,59.94851980805839,
To what extent did the music make you feel ,ACTIVE,30MonoWAV/30MonoF1.wav,1,2,2,1,,,,,0,1,1,0,0,5,5,9,,,,,,,,,3,2.151246330000504,,,071,001,2019_May_30_1610,MusicAffectPsychophysiology2019,3.0.5,59.94851980805839,
To what extent did the music make you feel ,EXCITED,30MonoWAV/30MonoF1.wav,1,2,2,1,,,,,0,1,1,0,0,6,6,7,,,,,,,,,2,2.9348079270002927,,,071,001,2019_May_30_1610,MusicAffectPsychophysiology2019,3.0.5,59.94851980805839,
To what extent did the music make you feel ,FRUSTRATED,30MonoWAV/30MonoF1.wav,1,2,2,1,,,,,0,1,1,0,0,7,7,3,,,,,,,,,1,1.7010108710001077,,,071,001,2019_May_30_1610,MusicAffectPsychophysiology2019,3.0.5,59.94851980805839,
To what extent did the music make you feel ,ALERT,30MonoWAV/30MonoF1.wav,1,2,2,1,,,,,0,1,1,0,0,8,8,8,,,,,,,,,3,4.0683778439997695,,,071,001,2019_May_30_1610,MusicAffectPsychophysiology2019,3.0.5,59.94851980805839,
To what extent did the music make you feel ,ANGRY,30MonoWAV/30MonoF1.wav,1,2,2,1,,,,,0,1,1,0,0,9,9,2,,,,,,,,,1,3.4346000229998026,,,071,001,2019_May_30_1610,MusicAffectPsychophysiology2019,3.0.5,59.94851980805839,
To what extent did the music make you feel ,ASHAMED,30MonoWAV/30MonoF1.wav,1,2,2,1,,,,,0,1,1,0,0,10,10,4,,,,,,,,,1,1.2352595920001477,,,071,001,2019_May_30_1610,MusicAffectPsychophysiology2019,3.0.5,59.94851980805839,
To what extent did the music make you feel ,SCARED,30MonoWAV/30MonoF1.wav,1,2,2,1,,,,,0,1,1,0,0,11,11,11,,,,,,,,,1,1.235978795999472,,,071,001,2019_May_30_1610,MusicAffectPsychophysiology2019,3.0.5,59.94851980805839,
,,30MonoWAV/30MonoF1.wav,1,2,2,1,,,,,0,1,1,0,,,,,,,,,,,,,,,,,071,001,2019_May_30_1610,MusicAffectPsychophysiology2019,3.0.5,59.94851980805839,
To what extent did the music make you feel ,ASHAMED,30MonoWAV/30MonoS1.wav,1,1,3,9,,,,,0,2,2,8,0,0,0,4,,,1,6.685911845999726,1,4.717386049998822,1,1.7505348020004021,1,2.4697677829990425,,,071,001,2019_May_30_1610,MusicAffectPsychophysiology2019,3.0.5,59.94851980805839,
To what extent did the music make you feel ,ALERT,30MonoWAV/30MonoS1.wav,1,1,3,9,,,,,0,2,2,8,0,1,1,8,,,,,,,,,2,2.634740094001245,,,071,001,2019_May_30_1610,MusicAffectPsychophysiology2019,3.0.5,59.94851980805839,
To what extent did the music make you feel ,TENDER,30MonoWAV/30MonoS1.wav,1,1,3,9,,,,,0,2,2,8,0,2,2,10,,,,,,,,,2,1.7345958320001955,,,071,001,2019_May_30_1610,MusicAffectPsychophysiology2019,3.0.5,59.94851980805839,
To what extent did the music make you feel ,ANXIOUS ,30MonoWAV/30MonoS1.wav,1,1,3,9,,,,,0,2,2,8,0,3,3,1,,,,,,,,,1,1.9518129980006051,,,071,001,2019_May_30_1610,MusicAffectPsychophysiology2019,3.0.5,59.94851980805839,
To what extent did the music make you feel ,SCARED,30MonoWAV/30MonoS1.wav,1,1,3,9,,,,,0,2,2,8,0,4,4,11,,,,,,,,,2,2.1178834149995964,,,071,001,2019_May_30_1610,MusicAffectPsychophysiology2019,3.0.5,59.94851980805839,
To what extent did the music make you feel ,HAPPY,30MonoWAV/30MonoS1.wav,1,1,3,9,,,,,0,2,2,8,0,5,5,6,,,,,,,,,1,2.3015393630012113,,,071,001,2019_May_30_1610,MusicAffectPsychophysiology2019,3.0.5,59.94851980805839,
To what extent did the music make you feel ,EXCITED,30MonoWAV/30MonoS1.wav,1,1,3,9,,,,,0,2,2,8,0,6,6,7,,,,,,,,,1,2.0663487910005642,,,071,001,2019_May_30_1610,MusicAffectPsychophysiology2019,3.0.5,59.94851980805839,
To what extent did the music make you feel ,GUILTY,30MonoWAV/30MonoS1.wav,1,1,3,9,,,,,0,2,2,8,0,7,7,5,,,,,,,,,2,1.5523347239995928,,,071,001,2019_May_30_1610,MusicAffectPsychophysiology2019,3.0.5,59.94851980805839,
To what extent did the music make you feel ,ANGRY,30MonoWAV/30MonoS1.wav,1,1,3,9,,,,,0,2,2,8,0,8,8,2,,,,,,,,,1,1.8689082599994435,,,071,001,2019_May_30_1610,MusicAffectPsychophysiology2019,3.0.5,59.94851980805839,
To what extent did the music make you feel ,ACTIVE,30MonoWAV/30MonoS1.wav,1,1,3,9,,,,,0,2,2,8,0,9,9,9,,,,,,,,,2,1.9823862929988536,,,071,001,2019_May_30_1610,MusicAffectPsychophysiology2019,3.0.5,59.94851980805839,
To what extent did the music make you feel ,FRUSTRATED,30MonoWAV/30MonoS1.wav,1,1,3,9,,,,,0,2,2,8,0,10,10,3,,,,,,,,,1,2.568106546999843,,,071,001,2019_May_30_1610,MusicAffectPsychophysiology2019,3.0.5,59.94851980805839,
To what extent did the music make you feel ,SAD,30MonoWAV/30MonoS1.wav,1,1,3,9,,,,,0,2,2,8,0,11,11,0,,,,,,,,,2,2.5020125310002186,,,071,001,2019_May_30_1610,MusicAffectPsychophysiology2019,3.0.5,59.94851980805839,
,,30MonoWAV/30MonoS1.wav,1,1,3,9,,,,,0,2,2,8,,,,,,,,,,,,,,,,,071,001,2019_May_30_1610,MusicAffectPsychophysiology2019,3.0.5,59.94851980805839,
To what extent did the music make you feel ,EXCITED,30MonoWAV/30MonoT4.wav,2,1,4,16,,,,,0,3,3,15,0,0,0,7,,,3,13.766710552999939,3,1.6522433040008764,2,2.5016754240004957,2,13.700140640999962,,,071,001,2019_May_30_1610,MusicAffectPsychophysiology2019,3.0.5,59.94851980805839,
To what extent did the music make you feel ,GUILTY,30MonoWAV/30MonoT4.wav,2,1,4,16,,,,,0,3,3,15,0,1,1,5,,,,,,,,,1,3.250992374998532,,,071,001,2019_May_30_1610,MusicAffectPsychophysiology2019,3.0.5,59.94851980805839,
To what extent did the music make you feel ,HAPPY,30MonoWAV/30MonoT4.wav,2,1,4,16,,,,,0,3,3,15,0,2,2,6,,,,,,,,,2,1.8355795879997459,,,071,001,2019_May_30_1610,MusicAffectPsychophysiology2019,3.0.5,59.94851980805839,
To what extent did the music make you feel ,FRUSTRATED,30MonoWAV/30MonoT4.wav,2,1,4,16,,,,,0,3,3,15,0,3,3,3,,,,,,,,,1,1.3180940160000318,,,071,001,2019_May_30_1610,MusicAffectPsychophysiology2019,3.0.5,59.94851980805839,
To what extent did the music make you feel ,SCARED,30MonoWAV/30MonoT4.wav,2,1,4,16,,,,,0,3,3,15,0,4,4,11,,,,,,,,,1,0.9015908990004391,,,071,001,2019_May_30_1610,MusicAffectPsychophysiology2019,3.0.5,59.94851980805839,
To what extent did the music make you feel ,ANXIOUS ,30MonoWAV/30MonoT4.wav,2,1,4,16,,,,,0,3,3,15,0,5,5,1,,,,,,,,,1,1.0850681909996638,,,071,001,2019_May_30_1610,MusicAffectPsychophysiology2019,3.0.5,59.94851980805839,
To what extent did the music make you feel ,ANGRY,30MonoWAV/30MonoT4.wav,2,1,4,16,,,,,0,3,3,15,0,6,6,2,,,,,,,,,1,1.31713964499977,,,071,001,2019_May_30_1610,MusicAffectPsychophysiology2019,3.0.5,59.94851980805839,
To what extent did the music make you feel ,ALERT,30MonoWAV/30MonoT4.wav,2,1,4,16,,,,,0,3,3,15,0,7,7,8,,,,,,,,,3,3.2688103929995123,,,071,001,2019_May_30_1610,MusicAffectPsychophysiology2019,3.0.5,59.94851980805839,
To what extent did the music make you feel ,SAD,30MonoWAV/30MonoT4.wav,2,1,4,16,,,,,0,3,3,15,0,8,8,0,,,,,,,,,1,2.8681374520001555,,,071,001,2019_May_30_1610,MusicAffectPsychophysiology2019,3.0.5,59.94851980805839,
To what extent did the music make you feel ,TENDER,30MonoWAV/30MonoT4.wav,2,1,4,16,,,,,0,3,3,15,0,9,9,10,,,,,,,,,2,1.232362896000268,,,071,001,2019_May_30_1610,MusicAffectPsychophysiology2019,3.0.5,59.94851980805839,
To what extent did the music make you feel ,ASHAMED,30MonoWAV/30MonoT4.wav,2,1,4,16,,,,,0,3,3,15,0,10,10,4,,,,,,,,,1,1.284792247999576,,,071,001,2019_May_30_1610,MusicAffectPsychophysiology2019,3.0.5,59.94851980805839,
To what extent did the music make you feel ,ACTIVE,30MonoWAV/30MonoT4.wav,2,1,4,16,,,,,0,3,3,15,0,11,11,9,,,,,,,,,2,4.001070398000593,,,071,001,2019_May_30_1610,MusicAffectPsychophysiology2019,3.0.5,59.94851980805839,
,,30MonoWAV/30MonoT4.wav,2,1,4,16,,,,,0,3,3,15,,,,,,,,,,,,,,,,,071,001,2019_May_30_1610,MusicAffectPsychophysiology2019,3.0.5,59.94851980805839,
To what extent did the music make you feel ,ASHAMED,30MonoWAV/30MonoF4.wav,1,2,2,4,,,,,0,4,4,3,0,0,0,4,,,2,3.071511238998937,3,3.8075878340005147,1,2.868199225000353,1,1.7522758420000173,,,071,001,2019_May_30_1610,MusicAffectPsychophysiology2019,3.0.5,59.94851980805839,
To what extent did the music make you feel ,ANGRY,30MonoWAV/30MonoF4.wav,1,2,2,4,,,,,0,4,4,3,0,1,1,2,,,,,,,,,1,1.602209523000056,,,071,001,2019_May_30_1610,MusicAffectPsychophysiology2019,3.0.5,59.94851980805839,
To what extent did the music make you feel ,SAD,30MonoWAV/30MonoF4.wav,1,2,2,4,,,,,0,4,4,3,0,2,2,0,,,,,,,,,1,3.3349195959999633,,,071,001,2019_May_30_1610,MusicAffectPsychophysiology2019,3.0.5,59.94851980805839,
To what extent did the music make you feel ,TENDER,30MonoWAV/30MonoF4.wav,1,2,2,4,,,,,0,4,4,3,0,3,3,10,,,,,,,,,1,1.3353417239995906,,,071,001,2019_May_30_1610,MusicAffectPsychophysiology2019,3.0.5,59.94851980805839,
To what extent did the music make you feel ,HAPPY,30MonoWAV/30MonoF4.wav,1,2,2,4,,,,,0,4,4,3,0,4,4,6,,,,,,,,,3,4.166522393999912,,,071,001,2019_May_30_1610,MusicAffectPsychophysiology2019,3.0.5,59.94851980805839,
To what extent did the music make you feel ,ANXIOUS ,30MonoWAV/30MonoF4.wav,1,2,2,4,,,,,0,4,4,3,0,5,5,1,,,,,,,,,1,2.968953474000955,,,071,001,2019_May_30_1610,MusicAffectPsychophysiology2019,3.0.5,59.94851980805839,
To what extent did the music make you feel ,EXCITED,30MonoWAV/30MonoF4.wav,1,2,2,4,,,,,0,4,4,3,0,6,6,7,,,,,,,,,2,2.901875485000346,,,071,001,2019_May_30_1610,MusicAffectPsychophysiology2019,3.0.5,59.94851980805839,
To what extent did the music make you feel ,ALERT,30MonoWAV/30MonoF4.wav,1,2,2,4,,,,,0,4,4,3,0,7,7,8,,,,,,,,,3,1.9683097500001168,,,071,001,2019_May_30_1610,MusicAffectPsychophysiology2019,3.0.5,59.94851980805839,
To what extent did the music make you feel ,GUILTY,30MonoWAV/30MonoF4.wav,1,2,2,4,,,,,0,4,4,3,0,8,8,5,,,,,,,,,1,2.2678376599997137,,,071,001,2019_May_30_1610,MusicAffectPsychophysiology2019,3.0.5,59.94851980805839,
To what extent did the music make you feel ,ACTIVE,30MonoWAV/30MonoF4.wav,1,2,2,4,,,,,0,4,4,3,0,9,9,9,,,,,,,,,3,3.467830909999975,,,071,001,2019_May_30_1610,MusicAffectPsychophysiology2019,3.0.5,59.94851980805839,
To what extent did the music make you feel ,FRUSTRATED,30MonoWAV/30MonoF4.wav,1,2,2,4,,,,,0,4,4,3,0,10,10,3,,,,,,,,,1,1.884719422998387,,,071,001,2019_May_30_1610,MusicAffectPsychophysiology2019,3.0.5,59.94851980805839,
To what extent did the music make you feel ,SCARED,30MonoWAV/30MonoF4.wav,1,2,2,4,,,,,0,4,4,3,0,11,11,11,,,,,,,,,1,0.9025387269994098,,,071,001,2019_May_30_1610,MusicAffectPsychophysiology2019,3.0.5,59.94851980805839,
,,30MonoWAV/30MonoF4.wav,1,2,2,4,,,,,0,4,4,3,,,,,,,,,,,,,,,,,071,001,2019_May_30_1610,MusicAffectPsychophysiology2019,3.0.5,59.94851980805839,
To what extent did the music make you feel ,EXCITED,30MonoWAV/30MonoT3.wav,2,1,4,15,,,,,0,5,5,14,0,0,0,7,,,2,3.934741037999629,4,2.6168614129983325,2,2.5182905969995772,1,2.791386901999431,,,071,001,2019_May_30_1610,MusicAffectPsychophysiology2019,3.0.5,59.94851980805839,
To what extent did the music make you feel ,ACTIVE,30MonoWAV/30MonoT3.wav,2,1,4,15,,,,,0,5,5,14,0,1,1,9,,,,,,,,,2,3.2050535079997644,,,071,001,2019_May_30_1610,MusicAffectPsychophysiology2019,3.0.5,59.94851980805839,
To what extent did the music make you feel ,TENDER,30MonoWAV/30MonoT3.wav,2,1,4,15,,,,,0,5,5,14,0,2,2,10,,,,,,,,,4,2.34083555899997,,,071,001,2019_May_30_1610,MusicAffectPsychophysiology2019,3.0.5,59.94851980805839,
To what extent did the music make you feel ,SCARED,30MonoWAV/30MonoT3.wav,2,1,4,15,,,,,0,5,5,14,0,3,3,11,,,,,,,,,1,1.8192779689998133,,,071,001,2019_May_30_1610,MusicAffectPsychophysiology2019,3.0.5,59.94851980805839,
To what extent did the music make you feel ,FRUSTRATED,30MonoWAV/30MonoT3.wav,2,1,4,15,,,,,0,5,5,14,0,4,4,3,,,,,,,,,1,1.5689834570002859,,,071,001,2019_May_30_1610,MusicAffectPsychophysiology2019,3.0.5,59.94851980805839,
To what extent did the music make you feel ,ANGRY,30MonoWAV/30MonoT3.wav,2,1,4,15,,,,,0,5,5,14,0,5,5,2,,,,,,,,,1,1.1176345820003917,,,071,001,2019_May_30_1610,MusicAffectPsychophysiology2019,3.0.5,59.94851980805839,
To what extent did the music make you feel ,ASHAMED,30MonoWAV/30MonoT3.wav,2,1,4,15,,,,,0,5,5,14,0,6,6,4,,,,,,,,,1,1.469188523999037,,,071,001,2019_May_30_1610,MusicAffectPsychophysiology2019,3.0.5,59.94851980805839,
To what extent did the music make you feel ,ANXIOUS ,30MonoWAV/30MonoT3.wav,2,1,4,15,,,,,0,5,5,14,0,7,7,1,,,,,,,,,1,1.3859042969997972,,,071,001,2019_May_30_1610,MusicAffectPsychophysiology2019,3.0.5,59.94851980805839,
To what extent did the music make you feel ,HAPPY,30MonoWAV/30MonoT3.wav,2,1,4,15,,,,,0,5,5,14,0,8,8,6,,,,,,,,,4,3.683937886999047,,,071,001,2019_May_30_1610,MusicAffectPsychophysiology2019,3.0.5,59.94851980805839,
To what extent did the music make you feel ,ALERT,30MonoWAV/30MonoT3.wav,2,1,4,15,,,,,0,5,5,14,0,9,9,8,,,,,,,,,2,2.784906606999357,,,071,001,2019_May_30_1610,MusicAffectPsychophysiology2019,3.0.5,59.94851980805839,
To what extent did the music make you feel ,GUILTY,30MonoWAV/30MonoT3.wav,2,1,4,15,,,,,0,5,5,14,0,10,10,5,,,,,,,,,1,1.3177266990005592,,,071,001,2019_May_30_1610,MusicAffectPsychophysiology2019,3.0.5,59.94851980805839,
To what extent did the music make you feel ,SAD,30MonoWAV/30MonoT3.wav,2,1,4,15,,,,,0,5,5,14,0,11,11,0,,,,,,,,,1,1.4008333740002854,,,071,001,2019_May_30_1610,MusicAffectPsychophysiology2019,3.0.5,59.94851980805839,
,,30MonoWAV/30MonoT3.wav,2,1,4,15,,,,,0,5,5,14,,,,,,,,,,,,,,,,,071,001,2019_May_30_1610,MusicAffectPsychophysiology2019,3.0.5,59.94851980805839,
To what extent did the music make you feel ,SAD,30MonoWAV/30MonoH4.wav,2,2,1,8,,,,,0,6,6,7,0,0,0,0,,,5,3.051096613999107,5,1.9847636119993695,3,3.8849924139994982,1,4.318657100999189,,,071,001,2019_May_30_1610,MusicAffectPsychophysiology2019,3.0.5,59.94851980805839,
To what extent did the music make you feel ,ACTIVE,30MonoWAV/30MonoH4.wav,2,2,1,8,,,,,0,6,6,7,0,1,1,9,,,,,,,,,5,2.600658167999427,,,071,001,2019_May_30_1610,MusicAffectPsychophysiology2019,3.0.5,59.94851980805839,
To what extent did the music make you feel ,TENDER,30MonoWAV/30MonoH4.wav,2,2,1,8,,,,,0,6,6,7,0,2,2,10,,,,,,,,,1,1.7511542159991222,,,071,001,2019_May_30_1610,MusicAffectPsychophysiology2019,3.0.5,59.94851980805839,
To what extent did the music make you feel ,FRUSTRATED,30MonoWAV/30MonoH4.wav,2,2,1,8,,,,,0,6,6,7,0,3,3,3,,,,,,,,,1,1.2183833540002524,,,071,001,2019_May_30_1610,MusicAffectPsychophysiology2019,3.0.5,59.94851980805839,
To what extent did the music make you feel ,ANGRY,30MonoWAV/30MonoH4.wav,2,2,1,8,,,,,0,6,6,7,0,4,4,2,,,,,,,,,1,1.218638911999733,,,071,001,2019_May_30_1610,MusicAffectPsychophysiology2019,3.0.5,59.94851980805839,
To what extent did the music make you feel ,SCARED,30MonoWAV/30MonoH4.wav,2,2,1,8,,,,,0,6,6,7,0,5,5,11,,,,,,,,,1,1.6532339770001272,,,071,001,2019_May_30_1610,MusicAffectPsychophysiology2019,3.0.5,59.94851980805839,
To what extent did the music make you feel ,EXCITED,30MonoWAV/30MonoH4.wav,2,2,1,8,,,,,0,6,6,7,0,6,6,7,,,,,,,,,3,15.350927327001045,,,071,001,2019_May_30_1610,MusicAffectPsychophysiology2019,3.0.5,59.94851980805839,
To what extent did the music make you feel ,GUILTY,30MonoWAV/30MonoH4.wav,2,2,1,8,,,,,0,6,6,7,0,7,7,5,,,,,,,,,1,1.4024062730004516,,,071,001,2019_May_30_1610,MusicAffectPsychophysiology2019,3.0.5,59.94851980805839,
To what extent did the music make you feel ,ANXIOUS ,30MonoWAV/30MonoH4.wav,2,2,1,8,,,,,0,6,6,7,0,8,8,1,,,,,,,,,1,1.1687597010004538,,,071,001,2019_May_30_1610,MusicAffectPsychophysiology2019,3.0.5,59.94851980805839,
To what extent did the music make you feel ,HAPPY,30MonoWAV/30MonoH4.wav,2,2,1,8,,,,,0,6,6,7,0,9,9,6,,,,,,,,,4,2.7010421989998576,,,071,001,2019_May_30_1610,MusicAffectPsychophysiology2019,3.0.5,59.94851980805839,
To what extent did the music make you feel ,ASHAMED,30MonoWAV/30MonoH4.wav,2,2,1,8,,,,,0,6,6,7,0,10,10,4,,,,,,,,,1,1.7015540600004897,,,071,001,2019_May_30_1610,MusicAffectPsychophysiology2019,3.0.5,59.94851980805839,
To what extent did the music make you feel ,ALERT,30MonoWAV/30MonoH4.wav,2,2,1,8,,,,,0,6,6,7,0,11,11,8,,,,,,,,,5,1.9855538119991252,,,071,001,2019_May_30_1610,MusicAffectPsychophysiology2019,3.0.5,59.94851980805839,
,,30MonoWAV/30MonoH4.wav,2,2,1,8,,,,,0,6,6,7,,,,,,,,,,,,,,,,,071,001,2019_May_30_1610,MusicAffectPsychophysiology2019,3.0.5,59.94851980805839,
To what extent did the music make you feel ,SAD,30MonoWAV/30MonoS2.wav,1,1,3,10,,,,,0,7,7,9,0,0,0,0,,,1,8.235727295999823,1,4.0014228239997465,1,2.8187104770004225,4,3.4183272430000216,,,071,001,2019_May_30_1610,MusicAffectPsychophysiology2019,3.0.5,59.94851980805839,
To what extent did the music make you feel ,GUILTY,30MonoWAV/30MonoS2.wav,1,1,3,10,,,,,0,7,7,9,0,1,1,5,,,,,,,,,3,2.001391245999912,,,071,001,2019_May_30_1610,MusicAffectPsychophysiology2019,3.0.5,59.94851980805839,
To what extent did the music make you feel ,ALERT,30MonoWAV/30MonoS2.wav,1,1,3,10,,,,,0,7,7,9,0,2,2,8,,,,,,,,,3,4.6347845689997484,,,071,001,2019_May_30_1610,MusicAffectPsychophysiology2019,3.0.5,59.94851980805839,
To what extent did the music make you feel ,ASHAMED,30MonoWAV/30MonoS2.wav,1,1,3,10,,,,,0,7,7,9,0,3,3,4,,,,,,,,,2,2.217539212000702,,,071,001,2019_May_30_1610,MusicAffectPsychophysiology2019,3.0.5,59.94851980805839,
To what extent did the music make you feel ,FRUSTRATED,30MonoWAV/30MonoS2.wav,1,1,3,10,,,,,0,7,7,9,0,4,4,3,,,,,,,,,1,1.7682718619998923,,,071,001,2019_May_30_1610,MusicAffectPsychophysiology2019,3.0.5,59.94851980805839,
To what extent did the music make you feel ,HAPPY,30MonoWAV/30MonoS2.wav,1,1,3,10,,,,,0,7,7,9,0,5,5,6,,,,,,,,,1,3.0341798440003913,,,071,001,2019_May_30_1610,MusicAffectPsychophysiology2019,3.0.5,59.94851980805839,
To what extent did the music make you feel ,EXCITED,30MonoWAV/30MonoS2.wav,1,1,3,10,,,,,0,7,7,9,0,6,6,7,,,,,,,,,1,3.785556013999667,,,071,001,2019_May_30_1610,MusicAffectPsychophysiology2019,3.0.5,59.94851980805839,
To what extent did the music make you feel ,ANXIOUS ,30MonoWAV/30MonoS2.wav,1,1,3,10,,,,,0,7,7,9,0,7,7,1,,,,,,,,,2,2.16815485799998,,,071,001,2019_May_30_1610,MusicAffectPsychophysiology2019,3.0.5,59.94851980805839,
To what extent did the music make you feel ,SCARED,30MonoWAV/30MonoS2.wav,1,1,3,10,,,,,0,7,7,9,0,8,8,11,,,,,,,,,1,2.1359925899996597,,,071,001,2019_May_30_1610,MusicAffectPsychophysiology2019,3.0.5,59.94851980805839,
To what extent did the music make you feel ,TENDER,30MonoWAV/30MonoS2.wav,1,1,3,10,,,,,0,7,7,9,0,9,9,10,,,,,,,,,5,2.0515465320004296,,,071,001,2019_May_30_1610,MusicAffectPsychophysiology2019,3.0.5,59.94851980805839,
To what extent did the music make you feel ,ANGRY,30MonoWAV/30MonoS2.wav,1,1,3,10,,,,,0,7,7,9,0,10,10,2,,,,,,,,,1,1.5349007620006887,,,071,001,2019_May_30_1610,MusicAffectPsychophysiology2019,3.0.5,59.94851980805839,
To what extent did the music make you feel ,ACTIVE,30MonoWAV/30MonoS2.wav,1,1,3,10,,,,,0,7,7,9,0,11,11,9,,,,,,,,,3,5.2009868580007605,,,071,001,2019_May_30_1610,MusicAffectPsychophysiology2019,3.0.5,59.94851980805839,
,,30MonoWAV/30MonoS2.wav,1,1,3,10,,,,,0,7,7,9,,,,,,,,,,,,,,,,,071,001,2019_May_30_1610,MusicAffectPsychophysiology2019,3.0.5,59.94851980805839,
To what extent did the music make you feel ,ASHAMED,30MonoWAV/30MonoT1.wav,2,1,4,13,,,,,0,8,8,12,0,0,0,4,,,3,3.5176185269992857,2,2.549959799000135,2,2.48464463900018,1,3.4027895649996935,,,071,001,2019_May_30_1610,MusicAffectPsychophysiology2019,3.0.5,59.94851980805839,
To what extent did the music make you feel ,FRUSTRATED,30MonoWAV/30MonoT1.wav,2,1,4,13,,,,,0,8,8,12,0,1,1,3,,,,,,,,,1,1.1849829650000174,,,071,001,2019_May_30_1610,MusicAffectPsychophysiology2019,3.0.5,59.94851980805839,
To what extent did the music make you feel ,HAPPY,30MonoWAV/30MonoT1.wav,2,1,4,13,,,,,0,8,8,12,0,2,2,6,,,,,,,,,2,2.118230156000209,,,071,001,2019_May_30_1610,MusicAffectPsychophysiology2019,3.0.5,59.94851980805839,
To what extent did the music make you feel ,ACTIVE,30MonoWAV/30MonoT1.wav,2,1,4,13,,,,,0,8,8,12,0,3,3,9,,,,,,,,,2,1.552632363000157,,,071,001,2019_May_30_1610,MusicAffectPsychophysiology2019,3.0.5,59.94851980805839,
To what extent did the music make you feel ,SAD,30MonoWAV/30MonoT1.wav,2,1,4,13,,,,,0,8,8,12,0,4,4,0,,,,,,,,,3,2.7520067370005563,,,071,001,2019_May_30_1610,MusicAffectPsychophysiology2019,3.0.5,59.94851980805839,
To what extent did the music make you feel ,SCARED,30MonoWAV/30MonoT1.wav,2,1,4,13,,,,,0,8,8,12,0,5,5,11,,,,,,,,,1,1.368082417999176,,,071,001,2019_May_30_1610,MusicAffectPsychophysiology2019,3.0.5,59.94851980805839,
To what extent did the music make you feel ,EXCITED,30MonoWAV/30MonoT1.wav,2,1,4,13,,,,,0,8,8,12,0,6,6,7,,,,,,,,,3,1.6010409409991553,,,071,001,2019_May_30_1610,MusicAffectPsychophysiology2019,3.0.5,59.94851980805839,
To what extent did the music make you feel ,GUILTY,30MonoWAV/30MonoT1.wav,2,1,4,13,,,,,0,8,8,12,0,7,7,5,,,,,,,,,3,2.3182507250003255,,,071,001,2019_May_30_1610,MusicAffectPsychophysiology2019,3.0.5,59.94851980805839,
To what extent did the music make you feel ,TENDER,30MonoWAV/30MonoT1.wav,2,1,4,13,,,,,0,8,8,12,0,8,8,10,,,,,,,,,4,1.7855315400011023,,,071,001,2019_May_30_1610,MusicAffectPsychophysiology2019,3.0.5,59.94851980805839,
To what extent did the music make you feel ,ANXIOUS ,30MonoWAV/30MonoT1.wav,2,1,4,13,,,,,0,8,8,12,0,9,9,1,,,,,,,,,1,1.7180521659993246,,,071,001,2019_May_30_1610,MusicAffectPsychophysiology2019,3.0.5,59.94851980805839,
To what extent did the music make you feel ,ANGRY,30MonoWAV/30MonoT1.wav,2,1,4,13,,,,,0,8,8,12,0,10,10,2,,,,,,,,,1,1.6696228729997529,,,071,001,2019_May_30_1610,MusicAffectPsychophysiology2019,3.0.5,59.94851980805839,
To what extent did the music make you feel ,ALERT,30MonoWAV/30MonoT1.wav,2,1,4,13,,,,,0,8,8,12,0,11,11,8,,,,,,,,,3,1.7519539870008884,,,071,001,2019_May_30_1610,MusicAffectPsychophysiology2019,3.0.5,59.94851980805839,
,,30MonoWAV/30MonoT1.wav,2,1,4,13,,,,,0,8,8,12,,,,,,,,,,,,,,,,,071,001,2019_May_30_1610,MusicAffectPsychophysiology2019,3.0.5,59.94851980805839,
To what extent did the music make you feel ,SCARED,30MonoWAV/30MonoH2.wav,2,2,1,6,,,,,0,9,9,5,0,0,0,11,,,4,10.90022980499998,4,2.135265779999827,2,2.7176283299995703,1,2.15113650299827,,,071,001,2019_May_30_1610,MusicAffectPsychophysiology2019,3.0.5,59.94851980805839,
To what extent did the music make you feel ,ASHAMED,30MonoWAV/30MonoH2.wav,2,2,1,6,,,,,0,9,9,5,0,1,1,4,,,,,,,,,1,0.9849733829996694,,,071,001,2019_May_30_1610,MusicAffectPsychophysiology2019,3.0.5,59.94851980805839,
To what extent did the music make you feel ,SAD,30MonoWAV/30MonoH2.wav,2,2,1,6,,,,,0,9,9,5,0,2,2,0,,,,,,,,,1,0.7846370299994305,,,071,001,2019_May_30_1610,MusicAffectPsychophysiology2019,3.0.5,59.94851980805839,
To what extent did the music make you feel ,GUILTY,30MonoWAV/30MonoH2.wav,2,2,1,6,,,,,0,9,9,5,0,3,3,5,,,,,,,,,1,0.6349276210003154,,,071,001,2019_May_30_1610,MusicAffectPsychophysiology2019,3.0.5,59.94851980805839,
To what extent did the music make you feel ,ANGRY,30MonoWAV/30MonoH2.wav,2,2,1,6,,,,,0,9,9,5,0,4,4,2,,,,,,,,,1,0.7013893669991376,,,071,001,2019_May_30_1610,MusicAffectPsychophysiology2019,3.0.5,59.94851980805839,
To what extent did the music make you feel ,EXCITED,30MonoWAV/30MonoH2.wav,2,2,1,6,,,,,0,9,9,5,0,5,5,7,,,,,,,,,4,3.018473105999874,,,071,001,2019_May_30_1610,MusicAffectPsychophysiology2019,3.0.5,59.94851980805839,
To what extent did the music make you feel ,ALERT,30MonoWAV/30MonoH2.wav,2,2,1,6,,,,,0,9,9,5,0,6,6,8,,,,,,,,,4,1.019250847000876,,,071,001,2019_May_30_1610,MusicAffectPsychophysiology2019,3.0.5,59.94851980805839,
To what extent did the music make you feel ,ANXIOUS ,30MonoWAV/30MonoH2.wav,2,2,1,6,,,,,0,9,9,5,0,7,7,1,,,,,,,,,1,1.734678498998619,,,071,001,2019_May_30_1610,MusicAffectPsychophysiology2019,3.0.5,59.94851980805839,
To what extent did the music make you feel ,TENDER,30MonoWAV/30MonoH2.wav,2,2,1,6,,,,,0,9,9,5,0,8,8,10,,,,,,,,,1,1.5845528280005965,,,071,001,2019_May_30_1610,MusicAffectPsychophysiology2019,3.0.5,59.94851980805839,
To what extent did the music make you feel ,ACTIVE,30MonoWAV/30MonoH2.wav,2,2,1,6,,,,,0,9,9,5,0,9,9,9,,,,,,,,,3,2.1508941820011387,,,071,001,2019_May_30_1610,MusicAffectPsychophysiology2019,3.0.5,59.94851980805839,
To what extent did the music make you feel ,HAPPY,30MonoWAV/30MonoH2.wav,2,2,1,6,,,,,0,9,9,5,0,10,10,6,,,,,,,,,4,1.91830612099875,,,071,001,2019_May_30_1610,MusicAffectPsychophysiology2019,3.0.5,59.94851980805839,
To what extent did the music make you feel ,FRUSTRATED,30MonoWAV/30MonoH2.wav,2,2,1,6,,,,,0,9,9,5,0,11,11,3,,,,,,,,,1,1.2516401399989263,,,071,001,2019_May_30_1610,MusicAffectPsychophysiology2019,3.0.5,59.94851980805839,
,,30MonoWAV/30MonoH2.wav,2,2,1,6,,,,,0,9,9,5,,,,,,,,,,,,,,,,,071,001,2019_May_30_1610,MusicAffectPsychophysiology2019,3.0.5,59.94851980805839,
To what extent did the music make you feel ,EXCITED,30MonoWAV/30MonoH3.wav,2,2,1,7,,,,,0,10,10,6,0,0,0,7,,,3,3.768096460000379,4,2.15062433499952,2,8.084200423998482,3,2.60213542999918,,,071,001,2019_May_30_1610,MusicAffectPsychophysiology2019,3.0.5,59.94851980805839,
To what extent did the music make you feel ,ASHAMED,30MonoWAV/30MonoH3.wav,2,2,1,7,,,,,0,10,10,6,0,1,1,4,,,,,,,,,1,1.2842186800007767,,,071,001,2019_May_30_1610,MusicAffectPsychophysiology2019,3.0.5,59.94851980805839,
To what extent did the music make you feel ,FRUSTRATED,30MonoWAV/30MonoH3.wav,2,2,1,7,,,,,0,10,10,6,0,2,2,3,,,,,,,,,1,3.0688378759987245,,,071,001,2019_May_30_1610,MusicAffectPsychophysiology2019,3.0.5,59.94851980805839,
To what extent did the music make you feel ,TENDER,30MonoWAV/30MonoH3.wav,2,2,1,7,,,,,0,10,10,6,0,3,3,10,,,,,,,,,2,1.699606751999454,,,071,001,2019_May_30_1610,MusicAffectPsychophysiology2019,3.0.5,59.94851980805839,
To what extent did the music make you feel ,ANGRY,30MonoWAV/30MonoH3.wav,2,2,1,7,,,,,0,10,10,6,0,4,4,2,,,,,,,,,1,1.6690491790013766,,,071,001,2019_May_30_1610,MusicAffectPsychophysiology2019,3.0.5,59.94851980805839,
To what extent did the music make you feel ,HAPPY,30MonoWAV/30MonoH3.wav,2,2,1,7,,,,,0,10,10,6,0,5,5,6,,,,,,,,,4,2.236519165999198,,,071,001,2019_May_30_1610,MusicAffectPsychophysiology2019,3.0.5,59.94851980805839,
To what extent did the music make you feel ,ANXIOUS ,30MonoWAV/30MonoH3.wav,2,2,1,7,,,,,0,10,10,6,0,6,6,1,,,,,,,,,1,1.2172904330000165,,,071,001,2019_May_30_1610,MusicAffectPsychophysiology2019,3.0.5,59.94851980805839,
To what extent did the music make you feel ,ACTIVE,30MonoWAV/30MonoH3.wav,2,2,1,7,,,,,0,10,10,6,0,7,7,9,,,,,,,,,3,2.1514122689986834,,,071,001,2019_May_30_1610,MusicAffectPsychophysiology2019,3.0.5,59.94851980805839,
To what extent did the music make you feel ,GUILTY,30MonoWAV/30MonoH3.wav,2,2,1,7,,,,,0,10,10,6,0,8,8,5,,,,,,,,,1,2.23503651899955,,,071,001,2019_May_30_1610,MusicAffectPsychophysiology2019,3.0.5,59.94851980805839,
To what extent did the music make you feel ,SAD,30MonoWAV/30MonoH3.wav,2,2,1,7,,,,,0,10,10,6,0,9,9,0,,,,,,,,,1,2.501612156000192,,,071,001,2019_May_30_1610,MusicAffectPsychophysiology2019,3.0.5,59.94851980805839,
To what extent did the music make you feel ,SCARED,30MonoWAV/30MonoH3.wav,2,2,1,7,,,,,0,10,10,6,0,10,10,11,,,,,,,,,1,0.8855504559996916,,,071,001,2019_May_30_1610,MusicAffectPsychophysiology2019,3.0.5,59.94851980805839,
To what extent did the music make you feel ,ALERT,30MonoWAV/30MonoH3.wav,2,2,1,7,,,,,0,10,10,6,0,11,11,8,,,,,,,,,4,1.4668381369992858,,,071,001,2019_May_30_1610,MusicAffectPsychophysiology2019,3.0.5,59.94851980805839,
,,30MonoWAV/30MonoH3.wav,2,2,1,7,,,,,0,10,10,6,,,,,,,,,,,,,,,,,071,001,2019_May_30_1610,MusicAffectPsychophysiology2019,3.0.5,59.94851980805839,
To what extent did the music make you feel ,HAPPY,30MonoWAV/30MonoS4.wav,1,1,3,12,,,,,0,11,11,11,0,0,0,6,,,1,4.8347749290005595,2,4.866777801000353,1,1.7519374780004,1,3.13340350100043,,,071,001,2019_May_30_1610,MusicAffectPsychophysiology2019,3.0.5,59.94851980805839,
To what extent did the music make you feel ,SCARED,30MonoWAV/30MonoS4.wav,1,1,3,12,,,,,0,11,11,11,0,1,1,11,,,,,,,,,1,1.399311597999258,,,071,001,2019_May_30_1610,MusicAffectPsychophysiology2019,3.0.5,59.94851980805839,
To what extent did the music make you feel ,ACTIVE,30MonoWAV/30MonoS4.wav,1,1,3,12,,,,,0,11,11,11,0,2,2,9,,,,,,,,,2,2.218058019001546,,,071,001,2019_May_30_1610,MusicAffectPsychophysiology2019,3.0.5,59.94851980805839,
To what extent did the music make you feel ,TENDER,30MonoWAV/30MonoS4.wav,1,1,3,12,,,,,0,11,11,11,0,3,3,10,,,,,,,,,4,2.05179279100048,,,071,001,2019_May_30_1610,MusicAffectPsychophysiology2019,3.0.5,59.94851980805839,
To what extent did the music make you feel ,ANGRY,30MonoWAV/30MonoS4.wav,1,1,3,12,,,,,0,11,11,11,0,4,4,2,,,,,,,,,1,1.6845100950013148,,,071,001,2019_May_30_1610,MusicAffectPsychophysiology2019,3.0.5,59.94851980805839,
To what extent did the music make you feel ,SAD,30MonoWAV/30MonoS4.wav,1,1,3,12,,,,,0,11,11,11,0,5,5,0,,,,,,,,,4,2.1372683810004673,,,071,001,2019_May_30_1610,MusicAffectPsychophysiology2019,3.0.5,59.94851980805839,
To what extent did the music make you feel ,FRUSTRATED,30MonoWAV/30MonoS4.wav,1,1,3,12,,,,,0,11,11,11,0,6,6,3,,,,,,,,,1,1.0357366270000057,,,071,001,2019_May_30_1610,MusicAffectPsychophysiology2019,3.0.5,59.94851980805839,
To what extent did the music make you feel ,ALERT,30MonoWAV/30MonoS4.wav,1,1,3,12,,,,,0,11,11,11,0,7,7,8,,,,,,,,,1,1.5354621980004595,,,071,001,2019_May_30_1610,MusicAffectPsychophysiology2019,3.0.5,59.94851980805839,
To what extent did the music make you feel ,ASHAMED,30MonoWAV/30MonoS4.wav,1,1,3,12,,,,,0,11,11,11,0,8,8,4,,,,,,,,,2,2.083567468000183,,,071,001,2019_May_30_1610,MusicAffectPsychophysiology2019,3.0.5,59.94851980805839,
To what extent did the music make you feel ,ANXIOUS ,30MonoWAV/30MonoS4.wav,1,1,3,12,,,,,0,11,11,11,0,9,9,1,,,,,,,,,1,1.8677261680004449,,,071,001,2019_May_30_1610,MusicAffectPsychophysiology2019,3.0.5,59.94851980805839,
To what extent did the music make you feel ,GUILTY,30MonoWAV/30MonoS4.wav,1,1,3,12,,,,,0,11,11,11,0,10,10,5,,,,,,,,,1,1.6183053029999428,,,071,001,2019_May_30_1610,MusicAffectPsychophysiology2019,3.0.5,59.94851980805839,
To what extent did the music make you feel ,EXCITED,30MonoWAV/30MonoS4.wav,1,1,3,12,,,,,0,11,11,11,0,11,11,7,,,,,,,,,1,2.2690768709999247,,,071,001,2019_May_30_1610,MusicAffectPsychophysiology2019,3.0.5,59.94851980805839,
,,30MonoWAV/30MonoS4.wav,1,1,3,12,,,,,0,11,11,11,,,,,,,,,,,,,,,,,071,001,2019_May_30_1610,MusicAffectPsychophysiology2019,3.0.5,59.94851980805839,
To what extent did the music make you feel ,HAPPY,30MonoWAV/30MonoF3.wav,1,2,2,3,,,,,0,12,12,2,0,0,0,6,,,3,6.850985090999529,4,1.7181923770003777,2,3.134649528999944,4,2.0524159600008716,,,071,001,2019_May_30_1610,MusicAffectPsychophysiology2019,3.0.5,59.94851980805839,
To what extent did the music make you feel ,ANGRY,30MonoWAV/30MonoF3.wav,1,2,2,3,,,,,0,12,12,2,0,1,1,2,,,,,,,,,1,2.2183591579996573,,,071,001,2019_May_30_1610,MusicAffectPsychophysiology2019,3.0.5,59.94851980805839,
To what extent did the music make you feel ,FRUSTRATED,30MonoWAV/30MonoF3.wav,1,2,2,3,,,,,0,12,12,2,0,2,2,3,,,,,,,,,1,1.5843461559998104,,,071,001,2019_May_30_1610,MusicAffectPsychophysiology2019,3.0.5,59.94851980805839,
To what extent did the music make you feel ,SAD,30MonoWAV/30MonoF3.wav,1,2,2,3,,,,,0,12,12,2,0,3,3,0,,,,,,,,,1,1.1022465770001872,,,071,001,2019_May_30_1610,MusicAffectPsychophysiology2019,3.0.5,59.94851980805839,
To what extent did the music make you feel ,ANXIOUS ,30MonoWAV/30MonoF3.wav,1,2,2,3,,,,,0,12,12,2,0,4,4,1,,,,,,,,,1,1.2347846519987797,,,071,001,2019_May_30_1610,MusicAffectPsychophysiology2019,3.0.5,59.94851980805839,
To what extent did the music make you feel ,ACTIVE,30MonoWAV/30MonoF3.wav,1,2,2,3,,,,,0,12,12,2,0,5,5,9,,,,,,,,,3,2.1175712010008283,,,071,001,2019_May_30_1610,MusicAffectPsychophysiology2019,3.0.5,59.94851980805839,
To what extent did the music make you feel ,ASHAMED,30MonoWAV/30MonoF3.wav,1,2,2,3,,,,,0,12,12,2,0,6,6,4,,,,,,,,,1,1.5021261340007186,,,071,001,2019_May_30_1610,MusicAffectPsychophysiology2019,3.0.5,59.94851980805839,
To what extent did the music make you feel ,GUILTY,30MonoWAV/30MonoF3.wav,1,2,2,3,,,,,0,12,12,2,0,7,7,5,,,,,,,,,1,1.0185041969998565,,,071,001,2019_May_30_1610,MusicAffectPsychophysiology2019,3.0.5,59.94851980805839,
To what extent did the music make you feel ,TENDER,30MonoWAV/30MonoF3.wav,1,2,2,3,,,,,0,12,12,2,0,8,8,10,,,,,,,,,1,1.4021701639994717,,,071,001,2019_May_30_1610,MusicAffectPsychophysiology2019,3.0.5,59.94851980805839,
To what extent did the music make you feel ,ALERT,30MonoWAV/30MonoF3.wav,1,2,2,3,,,,,0,12,12,2,0,9,9,8,,,,,,,,,5,1.6500747469999624,,,071,001,2019_May_30_1610,MusicAffectPsychophysiology2019,3.0.5,59.94851980805839,
To what extent did the music make you feel ,EXCITED,30MonoWAV/30MonoF3.wav,1,2,2,3,,,,,0,12,12,2,0,10,10,7,,,,,,,,,4,1.5680617569996684,,,071,001,2019_May_30_1610,MusicAffectPsychophysiology2019,3.0.5,59.94851980805839,
To what extent did the music make you feel ,SCARED,30MonoWAV/30MonoF3.wav,1,2,2,3,,,,,0,12,12,2,0,11,11,11,,,,,,,,,1,1.4849627379990125,,,071,001,2019_May_30_1610,MusicAffectPsychophysiology2019,3.0.5,59.94851980805839,
,,30MonoWAV/30MonoF3.wav,1,2,2,3,,,,,0,12,12,2,,,,,,,,,,,,,,,,,071,001,2019_May_30_1610,MusicAffectPsychophysiology2019,3.0.5,59.94851980805839,
To what extent did the music make you feel ,SCARED,30MonoWAV/30MonoF2.wav,1,2,2,2,,,,,0,13,13,1,0,0,0,11,,,3,3.2740406720004103,1,3.2353789850003523,1,1.985057838001012,2,3.0015085239992914,,,071,001,2019_May_30_1610,MusicAffectPsychophysiology2019,3.0.5,59.94851980805839,
To what extent did the music make you feel ,HAPPY,30MonoWAV/30MonoF2.wav,1,2,2,2,,,,,0,13,13,1,0,1,1,6,,,,,,,,,1,2.0683259409997845,,,071,001,2019_May_30_1610,MusicAffectPsychophysiology2019,3.0.5,59.94851980805839,
To what extent did the music make you feel ,ASHAMED,30MonoWAV/30MonoF2.wav,1,2,2,2,,,,,0,13,13,1,0,2,2,4,,,,,,,,,2,2.0345829050002067,,,071,001,2019_May_30_1610,MusicAffectPsychophysiology2019,3.0.5,59.94851980805839,
To what extent did the music make you feel ,ALERT,30MonoWAV/30MonoF2.wav,1,2,2,2,,,,,0,13,13,1,0,3,3,8,,,,,,,,,3,3.7362631319992943,,,071,001,2019_May_30_1610,MusicAffectPsychophysiology2019,3.0.5,59.94851980805839,
To what extent did the music make you feel ,EXCITED,30MonoWAV/30MonoF2.wav,1,2,2,2,,,,,0,13,13,1,0,4,4,7,,,,,,,,,1,1.7351373609999428,,,071,001,2019_May_30_1610,MusicAffectPsychophysiology2019,3.0.5,59.94851980805839,
To what extent did the music make you feel ,TENDER,30MonoWAV/30MonoF2.wav,1,2,2,2,,,,,0,13,13,1,0,5,5,10,,,,,,,,,1,1.5184212050007773,,,071,001,2019_May_30_1610,MusicAffectPsychophysiology2019,3.0.5,59.94851980805839,
To what extent did the music make you feel ,ACTIVE,30MonoWAV/30MonoF2.wav,1,2,2,2,,,,,0,13,13,1,0,6,6,9,,,,,,,,,4,1.7021159200012335,,,071,001,2019_May_30_1610,MusicAffectPsychophysiology2019,3.0.5,59.94851980805839,
To what extent did the music make you feel ,SAD,30MonoWAV/30MonoF2.wav,1,2,2,2,,,,,0,13,13,1,0,7,7,0,,,,,,,,,1,2.2019171829997504,,,071,001,2019_May_30_1610,MusicAffectPsychophysiology2019,3.0.5,59.94851980805839,
To what extent did the music make you feel ,GUILTY,30MonoWAV/30MonoF2.wav,1,2,2,2,,,,,0,13,13,1,0,8,8,5,,,,,,,,,1,8.201613917000941,,,071,001,2019_May_30_1610,MusicAffectPsychophysiology2019,3.0.5,59.94851980805839,
To what extent did the music make you feel ,ANXIOUS ,30MonoWAV/30MonoF2.wav,1,2,2,2,,,,,0,13,13,1,0,9,9,1,,,,,,,,,3,2.7841719070002,,,071,001,2019_May_30_1610,MusicAffectPsychophysiology2019,3.0.5,59.94851980805839,
To what extent did the music make you feel ,FRUSTRATED,30MonoWAV/30MonoF2.wav,1,2,2,2,,,,,0,13,13,1,0,10,10,3,,,,,,,,,1,1.8681106770000042,,,071,001,2019_May_30_1610,MusicAffectPsychophysiology2019,3.0.5,59.94851980805839,
To what extent did the music make you feel ,ANGRY,30MonoWAV/30MonoF2.wav,1,2,2,2,,,,,0,13,13,1,0,11,11,2,,,,,,,,,1,1.8172074369995244,,,071,001,2019_May_30_1610,MusicAffectPsychophysiology2019,3.0.5,59.94851980805839,
,,30MonoWAV/30MonoF2.wav,1,2,2,2,,,,,0,13,13,1,,,,,,,,,,,,,,,,,071,001,2019_May_30_1610,MusicAffectPsychophysiology2019,3.0.5,59.94851980805839,
To what extent did the music make you feel ,SCARED,30MonoWAV/30MonoT2.wav,2,1,4,14,,,,,0,14,14,13,0,0,0,11,,,3,8.93413574599981,4,1.7008556719993067,1,1.5018527840002207,1,3.7182924239987187,,,071,001,2019_May_30_1610,MusicAffectPsychophysiology2019,3.0.5,59.94851980805839,
To what extent did the music make you feel ,GUILTY,30MonoWAV/30MonoT2.wav,2,1,4,14,,,,,0,14,14,13,0,1,1,5,,,,,,,,,1,1.6354113630004576,,,071,001,2019_May_30_1610,MusicAffectPsychophysiology2019,3.0.5,59.94851980805839,
To what extent did the music make you feel ,ANGRY,30MonoWAV/30MonoT2.wav,2,1,4,14,,,,,0,14,14,13,0,2,2,2,,,,,,,,,1,1.5489868890017533,,,071,001,2019_May_30_1610,MusicAffectPsychophysiology2019,3.0.5,59.94851980805839,
To what extent did the music make you feel ,TENDER,30MonoWAV/30MonoT2.wav,2,1,4,14,,,,,0,14,14,13,0,3,3,10,,,,,,,,,3,1.9998520170011034,,,071,001,2019_May_30_1610,MusicAffectPsychophysiology2019,3.0.5,59.94851980805839,
To what extent did the music make you feel ,ASHAMED,30MonoWAV/30MonoT2.wav,2,1,4,14,,,,,0,14,14,13,0,4,4,4,,,,,,,,,1,1.601834034001513,,,071,001,2019_May_30_1610,MusicAffectPsychophysiology2019,3.0.5,59.94851980805839,
To what extent did the music make you feel ,ALERT,30MonoWAV/30MonoT2.wav,2,1,4,14,,,,,0,14,14,13,0,5,5,8,,,,,,,,,4,2.116022909998719,,,071,001,2019_May_30_1610,MusicAffectPsychophysiology2019,3.0.5,59.94851980805839,
To what extent did the music make you feel ,ANXIOUS ,30MonoWAV/30MonoT2.wav,2,1,4,14,,,,,0,14,14,13,0,6,6,1,,,,,,,,,2,4.635116434999873,,,071,001,2019_May_30_1610,MusicAffectPsychophysiology2019,3.0.5,59.94851980805839,
To what extent did the music make you feel ,HAPPY,30MonoWAV/30MonoT2.wav,2,1,4,14,,,,,0,14,14,13,0,7,7,6,,,,,,,,,3,6.433486406998782,,,071,001,2019_May_30_1610,MusicAffectPsychophysiology2019,3.0.5,59.94851980805839,
To what extent did the music make you feel ,EXCITED,30MonoWAV/30MonoT2.wav,2,1,4,14,,,,,0,14,14,13,0,8,8,7,,,,,,,,,3,3.1847666560006473,,,071,001,2019_May_30_1610,MusicAffectPsychophysiology2019,3.0.5,59.94851980805839,
To what extent did the music make you feel ,ACTIVE,30MonoWAV/30MonoT2.wav,2,1,4,14,,,,,0,14,14,13,0,9,9,9,,,,,,,,,4,1.2185782680007833,,,071,001,2019_May_30_1610,MusicAffectPsychophysiology2019,3.0.5,59.94851980805839,
To what extent did the music make you feel ,SAD,30MonoWAV/30MonoT2.wav,2,1,4,14,,,,,0,14,14,13,0,10,10,0,,,,,,,,,2,1.3847345009999117,,,071,001,2019_May_30_1610,MusicAffectPsychophysiology2019,3.0.5,59.94851980805839,
To what extent did the music make you feel ,FRUSTRATED,30MonoWAV/30MonoT2.wav,2,1,4,14,,,,,0,14,14,13,0,11,11,3,,,,,,,,,1,1.4181741310003417,,,071,001,2019_May_30_1610,MusicAffectPsychophysiology2019,3.0.5,59.94851980805839,
,,30MonoWAV/30MonoT2.wav,2,1,4,14,,,,,0,14,14,13,,,,,,,,,,,,,,,,,071,001,2019_May_30_1610,MusicAffectPsychophysiology2019,3.0.5,59.94851980805839,
To what extent did the music make you feel ,HAPPY,30MonoWAV/30MonoS3.wav,1,1,3,11,,,,,0,15,15,10,0,0,0,6,,,3,4.851048874999833,2,3.7180846900009783,1,2.185508165999636,1,4.069342549000794,,,071,001,2019_May_30_1610,MusicAffectPsychophysiology2019,3.0.5,59.94851980805839,
To what extent did the music make you feel ,FRUSTRATED,30MonoWAV/30MonoS3.wav,1,1,3,11,,,,,0,15,15,10,0,1,1,3,,,,,,,,,1,1.1176453010011755,,,071,001,2019_May_30_1610,MusicAffectPsychophysiology2019,3.0.5,59.94851980805839,
To what extent did the music make you feel ,GUILTY,30MonoWAV/30MonoS3.wav,1,1,3,11,,,,,0,15,15,10,0,2,2,5,,,,,,,,,2,1.5365382649997628,,,071,001,2019_May_30_1610,MusicAffectPsychophysiology2019,3.0.5,59.94851980805839,
To what extent did the music make you feel ,ACTIVE,30MonoWAV/30MonoS3.wav,1,1,3,11,,,,,0,15,15,10,0,3,3,9,,,,,,,,,2,1.4350770599994576,,,071,001,2019_May_30_1610,MusicAffectPsychophysiology2019,3.0.5,59.94851980805839,
To what extent did the music make you feel ,SAD,30MonoWAV/30MonoS3.wav,1,1,3,11,,,,,0,15,15,10,0,4,4,0,,,,,,,,,3,1.6678981269997166,,,071,001,2019_May_30_1610,MusicAffectPsychophysiology2019,3.0.5,59.94851980805839,
To what extent did the music make you feel ,ANXIOUS ,30MonoWAV/30MonoS3.wav,1,1,3,11,,,,,0,15,15,10,0,5,5,1,,,,,,,,,2,2.853070129000116,,,071,001,2019_May_30_1610,MusicAffectPsychophysiology2019,3.0.5,59.94851980805839,
To what extent did the music make you feel ,SCARED,30MonoWAV/30MonoS3.wav,1,1,3,11,,,,,0,15,15,10,0,6,6,11,,,,,,,,,1,1.5855265680002049,,,071,001,2019_May_30_1610,MusicAffectPsychophysiology2019,3.0.5,59.94851980805839,
To what extent did the music make you feel ,ALERT,30MonoWAV/30MonoS3.wav,1,1,3,11,,,,,0,15,15,10,0,7,7,8,,,,,,,,,3,1.5847466699997312,,,071,001,2019_May_30_1610,MusicAffectPsychophysiology2019,3.0.5,59.94851980805839,
To what extent did the music make you feel ,TENDER,30MonoWAV/30MonoS3.wav,1,1,3,11,,,,,0,15,15,10,0,8,8,10,,,,,,,,,4,1.568065764999119,,,071,001,2019_May_30_1610,MusicAffectPsychophysiology2019,3.0.5,59.94851980805839,
To what extent did the music make you feel ,ANGRY,30MonoWAV/30MonoS3.wav,1,1,3,11,,,,,0,15,15,10,0,9,9,2,,,,,,,,,1,1.18534327999987,,,071,001,2019_May_30_1610,MusicAffectPsychophysiology2019,3.0.5,59.94851980805839,
To what extent did the music make you feel ,EXCITED,30MonoWAV/30MonoS3.wav,1,1,3,11,,,,,0,15,15,10,0,10,10,7,,,,,,,,,1,1.6013998139987962,,,071,001,2019_May_30_1610,MusicAffectPsychophysiology2019,3.0.5,59.94851980805839,
To what extent did the music make you feel ,ASHAMED,30MonoWAV/30MonoS3.wav,1,1,3,11,,,,,0,15,15,10,0,11,11,4,,,,,,,,,2,1.7525001900012285,,,071,001,2019_May_30_1610,MusicAffectPsychophysiology2019,3.0.5,59.94851980805839,
,,30MonoWAV/30MonoS3.wav,1,1,3,11,,,,,0,15,15,10,,,,,,,,,,,,,,,,,071,001,2019_May_30_1610,MusicAffectPsychophysiology2019,3.0.5,59.94851980805839,
To what extent did the music make you feel ,ANGRY,30MonoWAV/30MonoS3.wav,1,1,3,11,,,,,1,0,16,10,0,0,0,2,,,2,3.3836379450003733,2,2.918407469998783,1,3.451894544999959,1,2.368953027000316,,,071,001,2019_May_30_1610,MusicAffectPsychophysiology2019,3.0.5,59.94851980805839,
To what extent did the music make you feel ,SAD,30MonoWAV/30MonoS3.wav,1,1,3,11,,,,,1,0,16,10,0,1,1,0,,,,,,,,,4,1.6352238559993566,,,071,001,2019_May_30_1610,MusicAffectPsychophysiology2019,3.0.5,59.94851980805839,
To what extent did the music make you feel ,FRUSTRATED,30MonoWAV/30MonoS3.wav,1,1,3,11,,,,,1,0,16,10,0,2,2,3,,,,,,,,,2,2.7684832459999598,,,071,001,2019_May_30_1610,MusicAffectPsychophysiology2019,3.0.5,59.94851980805839,
To what extent did the music make you feel ,EXCITED,30MonoWAV/30MonoS3.wav,1,1,3,11,,,,,1,0,16,10,0,3,3,7,,,,,,,,,1,1.8677281229993241,,,071,001,2019_May_30_1610,MusicAffectPsychophysiology2019,3.0.5,59.94851980805839,
To what extent did the music make you feel ,ANXIOUS ,30MonoWAV/30MonoS3.wav,1,1,3,11,,,,,1,0,16,10,0,4,4,1,,,,,,,,,1,2.950556476998827,,,071,001,2019_May_30_1610,MusicAffectPsychophysiology2019,3.0.5,59.94851980805839,
To what extent did the music make you feel ,TENDER,30MonoWAV/30MonoS3.wav,1,1,3,11,,,,,1,0,16,10,0,5,5,10,,,,,,,,,4,1.6852014699998108,,,071,001,2019_May_30_1610,MusicAffectPsychophysiology2019,3.0.5,59.94851980805839,
To what extent did the music make you feel ,ACTIVE,30MonoWAV/30MonoS3.wav,1,1,3,11,,,,,1,0,16,10,0,6,6,9,,,,,,,,,2,2.001129435000621,,,071,001,2019_May_30_1610,MusicAffectPsychophysiology2019,3.0.5,59.94851980805839,
To what extent did the music make you feel ,HAPPY,30MonoWAV/30MonoS3.wav,1,1,3,11,,,,,1,0,16,10,0,7,7,6,,,,,,,,,1,1.284060458001477,,,071,001,2019_May_30_1610,MusicAffectPsychophysiology2019,3.0.5,59.94851980805839,
To what extent did the music make you feel ,ALERT,30MonoWAV/30MonoS3.wav,1,1,3,11,,,,,1,0,16,10,0,8,8,8,,,,,,,,,3,1.5851223039990145,,,071,001,2019_May_30_1610,MusicAffectPsychophysiology2019,3.0.5,59.94851980805839,
To what extent did the music make you feel ,GUILTY,30MonoWAV/30MonoS3.wav,1,1,3,11,,,,,1,0,16,10,0,9,9,5,,,,,,,,,3,1.9517580040010216,,,071,001,2019_May_30_1610,MusicAffectPsychophysiology2019,3.0.5,59.94851980805839,
To what extent did the music make you feel ,ASHAMED,30MonoWAV/30MonoS3.wav,1,1,3,11,,,,,1,0,16,10,0,10,10,4,,,,,,,,,3,1.5694466650002141,,,071,001,2019_May_30_1610,MusicAffectPsychophysiology2019,3.0.5,59.94851980805839,
To what extent did the music make you feel ,SCARED,30MonoWAV/30MonoS3.wav,1,1,3,11,,,,,1,0,16,10,0,11,11,11,,,,,,,,,2,2.2336838690007426,,,071,001,2019_May_30_1610,MusicAffectPsychophysiology2019,3.0.5,59.94851980805839,
,,30MonoWAV/30MonoS3.wav,1,1,3,11,,,,,1,0,16,10,,,,,,,,,,,,,,,,,071,001,2019_May_30_1610,MusicAffectPsychophysiology2019,3.0.5,59.94851980805839,
To what extent did the music make you feel ,ACTIVE,30MonoWAV/30MonoH2.wav,2,2,1,6,,,,,1,1,17,5,0,0,0,9,,,2,3.152442629001598,4,2.068532042001607,2,1.7848618759999226,4,2.81804600400028,,,071,001,2019_May_30_1610,MusicAffectPsychophysiology2019,3.0.5,59.94851980805839,
To what extent did the music make you feel ,ASHAMED,30MonoWAV/30MonoH2.wav,2,2,1,6,,,,,1,1,17,5,0,1,1,4,,,,,,,,,1,1.1846852210001089,,,071,001,2019_May_30_1610,MusicAffectPsychophysiology2019,3.0.5,59.94851980805839,
To what extent did the music make you feel ,EXCITED,30MonoWAV/30MonoH2.wav,2,2,1,6,,,,,1,1,17,5,0,2,2,7,,,,,,,,,4,1.3188915840000845,,,071,001,2019_May_30_1610,MusicAffectPsychophysiology2019,3.0.5,59.94851980805839,
To what extent did the music make you feel ,TENDER,30MonoWAV/30MonoH2.wav,2,2,1,6,,,,,1,1,17,5,0,3,3,10,,,,,,,,,1,1.4179482649997226,,,071,001,2019_May_30_1610,MusicAffectPsychophysiology2019,3.0.5,59.94851980805839,
To what extent did the music make you feel ,ANXIOUS ,30MonoWAV/30MonoH2.wav,2,2,1,6,,,,,1,1,17,5,0,4,4,1,,,,,,,,,1,0.9000846199996886,,,071,001,2019_May_30_1610,MusicAffectPsychophysiology2019,3.0.5,59.94851980805839,
To what extent did the music make you feel ,SAD,30MonoWAV/30MonoH2.wav,2,2,1,6,,,,,1,1,17,5,0,5,5,0,,,,,,,,,1,2.1850891309986764,,,071,001,2019_May_30_1610,MusicAffectPsychophysiology2019,3.0.5,59.94851980805839,
To what extent did the music make you feel ,GUILTY,30MonoWAV/30MonoH2.wav,2,2,1,6,,,,,1,1,17,5,0,6,6,5,,,,,,,,,1,1.7355204180003057,,,071,001,2019_May_30_1610,MusicAffectPsychophysiology2019,3.0.5,59.94851980805839,
To what extent did the music make you feel ,SCARED,30MonoWAV/30MonoH2.wav,2,2,1,6,,,,,1,1,17,5,0,7,7,11,,,,,,,,,1,0.7514130990002741,,,071,001,2019_May_30_1610,MusicAffectPsychophysiology2019,3.0.5,59.94851980805839,
To what extent did the music make you feel ,FRUSTRATED,30MonoWAV/30MonoH2.wav,2,2,1,6,,,,,1,1,17,5,0,8,8,3,,,,,,,,,1,0.7855541959997936,,,071,001,2019_May_30_1610,MusicAffectPsychophysiology2019,3.0.5,59.94851980805839,
To what extent did the music make you feel ,ALERT,30MonoWAV/30MonoH2.wav,2,2,1,6,,,,,1,1,17,5,0,9,9,8,,,,,,,,,4,1.5517556879985932,,,071,001,2019_May_30_1610,MusicAffectPsychophysiology2019,3.0.5,59.94851980805839,
To what extent did the music make you feel ,ANGRY,30MonoWAV/30MonoH2.wav,2,2,1,6,,,,,1,1,17,5,0,10,10,2,,,,,,,,,1,1.1342718650012102,,,071,001,2019_May_30_1610,MusicAffectPsychophysiology2019,3.0.5,59.94851980805839,
To what extent did the music make you feel ,HAPPY,30MonoWAV/30MonoH2.wav,2,2,1,6,,,,,1,1,17,5,0,11,11,6,,,,,,,,,4,1.2192892350012698,,,071,001,2019_May_30_1610,MusicAffectPsychophysiology2019,3.0.5,59.94851980805839,
,,30MonoWAV/30MonoH2.wav,2,2,1,6,,,,,1,1,17,5,,,,,,,,,,,,,,,,,071,001,2019_May_30_1610,MusicAffectPsychophysiology2019,3.0.5,59.94851980805839,
To what extent did the music make you feel ,EXCITED,30MonoWAV/30MonoT3.wav,2,1,4,15,,,,,1,2,18,14,0,0,0,7,,,1,3.969099570000253,2,1.8844024420013739,1,1.6348148130000482,2,2.0523280640009034,,,071,001,2019_May_30_1610,MusicAffectPsychophysiology2019,3.0.5,59.94851980805839,
To what extent did the music make you feel ,ANXIOUS ,30MonoWAV/30MonoT3.wav,2,1,4,15,,,,,1,2,18,14,0,1,1,1,,,,,,,,,3,1.2671302779999678,,,071,001,2019_May_30_1610,MusicAffectPsychophysiology2019,3.0.5,59.94851980805839,
To what extent did the music make you feel ,TENDER,30MonoWAV/30MonoT3.wav,2,1,4,15,,,,,1,2,18,14,0,2,2,10,,,,,,,,,4,5.252626030000101,,,071,001,2019_May_30_1610,MusicAffectPsychophysiology2019,3.0.5,59.94851980805839,
To what extent did the music make you feel ,FRUSTRATED,30MonoWAV/30MonoT3.wav,2,1,4,15,,,,,1,2,18,14,0,3,3,3,,,,,,,,,2,1.9349574830011989,,,071,001,2019_May_30_1610,MusicAffectPsychophysiology2019,3.0.5,59.94851980805839,
To what extent did the music make you feel ,SAD,30MonoWAV/30MonoT3.wav,2,1,4,15,,,,,1,2,18,14,0,4,4,0,,,,,,,,,3,4.46849693600052,,,071,001,2019_May_30_1610,MusicAffectPsychophysiology2019,3.0.5,59.94851980805839,
To what extent did the music make you feel ,ACTIVE,30MonoWAV/30MonoT3.wav,2,1,4,15,,,,,1,2,18,14,0,5,5,9,,,,,,,,,1,2.0350434189986117,,,071,001,2019_May_30_1610,MusicAffectPsychophysiology2019,3.0.5,59.94851980805839,
To what extent did the music make you feel ,GUILTY,30MonoWAV/30MonoT3.wav,2,1,4,15,,,,,1,2,18,14,0,6,6,5,,,,,,,,,2,1.5344460439991963,,,071,001,2019_May_30_1610,MusicAffectPsychophysiology2019,3.0.5,59.94851980805839,
To what extent did the music make you feel ,ALERT,30MonoWAV/30MonoT3.wav,2,1,4,15,,,,,1,2,18,14,0,7,7,8,,,,,,,,,2,2.1858046719989943,,,071,001,2019_May_30_1610,MusicAffectPsychophysiology2019,3.0.5,59.94851980805839,
To what extent did the music make you feel ,ANGRY,30MonoWAV/30MonoT3.wav,2,1,4,15,,,,,1,2,18,14,0,8,8,2,,,,,,,,,1,1.6845131600002787,,,071,001,2019_May_30_1610,MusicAffectPsychophysiology2019,3.0.5,59.94851980805839,
To what extent did the music make you feel ,HAPPY,30MonoWAV/30MonoT3.wav,2,1,4,15,,,,,1,2,18,14,0,9,9,6,,,,,,,,,1,1.3842037720005465,,,071,001,2019_May_30_1610,MusicAffectPsychophysiology2019,3.0.5,59.94851980805839,
To what extent did the music make you feel ,ASHAMED,30MonoWAV/30MonoT3.wav,2,1,4,15,,,,,1,2,18,14,0,10,10,4,,,,,,,,,2,2.918704877998607,,,071,001,2019_May_30_1610,MusicAffectPsychophysiology2019,3.0.5,59.94851980805839,
To what extent did the music make you feel ,SCARED,30MonoWAV/30MonoT3.wav,2,1,4,15,,,,,1,2,18,14,0,11,11,11,,,,,,,,,3,1.350572474000728,,,071,001,2019_May_30_1610,MusicAffectPsychophysiology2019,3.0.5,59.94851980805839,
,,30MonoWAV/30MonoT3.wav,2,1,4,15,,,,,1,2,18,14,,,,,,,,,,,,,,,,,071,001,2019_May_30_1610,MusicAffectPsychophysiology2019,3.0.5,59.94851980805839,
To what extent did the music make you feel ,SCARED,30MonoWAV/30MonoH3.wav,2,2,1,7,,,,,1,3,19,6,0,0,0,11,,,4,4.901008677999926,4,2.1841766699999425,2,2.5511126549990877,1,2.733731156999056,,,071,001,2019_May_30_1610,MusicAffectPsychophysiology2019,3.0.5,59.94851980805839,
To what extent did the music make you feel ,ANXIOUS ,30MonoWAV/30MonoH3.wav,2,2,1,7,,,,,1,3,19,6,0,1,1,1,,,,,,,,,1,2.102044384000692,,,071,001,2019_May_30_1610,MusicAffectPsychophysiology2019,3.0.5,59.94851980805839,
To what extent did the music make you feel ,GUILTY,30MonoWAV/30MonoH3.wav,2,2,1,7,,,,,1,3,19,6,0,2,2,5,,,,,,,,,1,0.9347591109999485,,,071,001,2019_May_30_1610,MusicAffectPsychophysiology2019,3.0.5,59.94851980805839,
To what extent did the music make you feel ,ANGRY,30MonoWAV/30MonoH3.wav,2,2,1,7,,,,,1,3,19,6,0,3,3,2,,,,,,,,,1,0.7853219279986661,,,071,001,2019_May_30_1610,MusicAffectPsychophysiology2019,3.0.5,59.94851980805839,
To what extent did the music make you feel ,ACTIVE,30MonoWAV/30MonoH3.wav,2,2,1,7,,,,,1,3,19,6,0,4,4,9,,,,,,,,,4,1.3183850409986917,,,071,001,2019_May_30_1610,MusicAffectPsychophysiology2019,3.0.5,59.94851980805839,
To what extent did the music make you feel ,HAPPY,30MonoWAV/30MonoH3.wav,2,2,1,7,,,,,1,3,19,6,0,5,5,6,,,,,,,,,4,1.1356785859989031,,,071,001,2019_May_30_1610,MusicAffectPsychophysiology2019,3.0.5,59.94851980805839,
To what extent did the music make you feel ,FRUSTRATED,30MonoWAV/30MonoH3.wav,2,2,1,7,,,,,1,3,19,6,0,6,6,3,,,,,,,,,1,1.390147733000049,,,071,001,2019_May_30_1610,MusicAffectPsychophysiology2019,3.0.5,59.94851980805839,
To what extent did the music make you feel ,TENDER,30MonoWAV/30MonoH3.wav,2,2,1,7,,,,,1,3,19,6,0,7,7,10,,,,,,,,,1,1.2190371050000977,,,071,001,2019_May_30_1610,MusicAffectPsychophysiology2019,3.0.5,59.94851980805839,
To what extent did the music make you feel ,ASHAMED,30MonoWAV/30MonoH3.wav,2,2,1,7,,,,,1,3,19,6,0,8,8,4,,,,,,,,,1,1.0366001180009334,,,071,001,2019_May_30_1610,MusicAffectPsychophysiology2019,3.0.5,59.94851980805839,
To what extent did the music make you feel ,ALERT,30MonoWAV/30MonoH3.wav,2,2,1,7,,,,,1,3,19,6,0,9,9,8,,,,,,,,,4,1.7856336490003741,,,071,001,2019_May_30_1610,MusicAffectPsychophysiology2019,3.0.5,59.94851980805839,
To what extent did the music make you feel ,SAD,30MonoWAV/30MonoH3.wav,2,2,1,7,,,,,1,3,19,6,0,10,10,0,,,,,,,,,1,2.1414456860002247,,,071,001,2019_May_30_1610,MusicAffectPsychophysiology2019,3.0.5,59.94851980805839,
To what extent did the music make you feel ,EXCITED,30MonoWAV/30MonoH3.wav,2,2,1,7,,,,,1,3,19,6,0,11,11,7,,,,,,,,,4,3.201449572999991,,,071,001,2019_May_30_1610,MusicAffectPsychophysiology2019,3.0.5,59.94851980805839,
,,30MonoWAV/30MonoH3.wav,2,2,1,7,,,,,1,3,19,6,,,,,,,,,,,,,,,,,071,001,2019_May_30_1610,MusicAffectPsychophysiology2019,3.0.5,59.94851980805839,
To what extent did the music make you feel ,ASHAMED,30MonoWAV/30MonoF4.wav,1,2,2,4,,,,,1,4,20,3,0,0,0,4,,,3,4.140121739999813,3,1.587377486999685,3,1.9223830320006527,1,2.6690850949999003,,,071,001,2019_May_30_1610,MusicAffectPsychophysiology2019,3.0.5,59.94851980805839,
To what extent did the music make you feel ,SCARED,30MonoWAV/30MonoF4.wav,1,2,2,4,,,,,1,4,20,3,0,1,1,11,,,,,,,,,2,2.751116131999879,,,071,001,2019_May_30_1610,MusicAffectPsychophysiology2019,3.0.5,59.94851980805839,
To what extent did the music make you feel ,FRUSTRATED,30MonoWAV/30MonoF4.wav,1,2,2,4,,,,,1,4,20,3,0,2,2,3,,,,,,,,,1,1.1517796860007365,,,071,001,2019_May_30_1610,MusicAffectPsychophysiology2019,3.0.5,59.94851980805839,
To what extent did the music make you feel ,SAD,30MonoWAV/30MonoF4.wav,1,2,2,4,,,,,1,4,20,3,0,3,3,0,,,,,,,,,2,1.335096030999921,,,071,001,2019_May_30_1610,MusicAffectPsychophysiology2019,3.0.5,59.94851980805839,
To what extent did the music make you feel ,ANGRY,30MonoWAV/30MonoF4.wav,1,2,2,4,,,,,1,4,20,3,0,4,4,2,,,,,,,,,2,1.8183199330014759,,,071,001,2019_May_30_1610,MusicAffectPsychophysiology2019,3.0.5,59.94851980805839,
To what extent did the music make you feel ,ACTIVE,30MonoWAV/30MonoF4.wav,1,2,2,4,,,,,1,4,20,3,0,5,5,9,,,,,,,,,3,2.316367565999826,,,071,001,2019_May_30_1610,MusicAffectPsychophysiology2019,3.0.5,59.94851980805839,
To what extent did the music make you feel ,ALERT,30MonoWAV/30MonoF4.wav,1,2,2,4,,,,,1,4,20,3,0,6,6,8,,,,,,,,,4,1.1828510079994885,,,071,001,2019_May_30_1610,MusicAffectPsychophysiology2019,3.0.5,59.94851980805839,
To what extent did the music make you feel ,EXCITED,30MonoWAV/30MonoF4.wav,1,2,2,4,,,,,1,4,20,3,0,7,7,7,,,,,,,,,2,1.8682566799998312,,,071,001,2019_May_30_1610,MusicAffectPsychophysiology2019,3.0.5,59.94851980805839,
To what extent did the music make you feel ,ANXIOUS ,30MonoWAV/30MonoF4.wav,1,2,2,4,,,,,1,4,20,3,0,8,8,1,,,,,,,,,1,1.3854244819995074,,,071,001,2019_May_30_1610,MusicAffectPsychophysiology2019,3.0.5,59.94851980805839,
To what extent did the music make you feel ,GUILTY,30MonoWAV/30MonoF4.wav,1,2,2,4,,,,,1,4,20,3,0,9,9,5,,,,,,,,,1,1.6010872150000068,,,071,001,2019_May_30_1610,MusicAffectPsychophysiology2019,3.0.5,59.94851980805839,
To what extent did the music make you feel ,HAPPY,30MonoWAV/30MonoF4.wav,1,2,2,4,,,,,1,4,20,3,0,10,10,6,,,,,,,,,1,1.9180017210001097,,,071,001,2019_May_30_1610,MusicAffectPsychophysiology2019,3.0.5,59.94851980805839,
To what extent did the music make you feel ,TENDER,30MonoWAV/30MonoF4.wav,1,2,2,4,,,,,1,4,20,3,0,11,11,10,,,,,,,,,2,3.4342463279990625,,,071,001,2019_May_30_1610,MusicAffectPsychophysiology2019,3.0.5,59.94851980805839,
,,30MonoWAV/30MonoF4.wav,1,2,2,4,,,,,1,4,20,3,,,,,,,,,,,,,,,,,071,001,2019_May_30_1610,MusicAffectPsychophysiology2019,3.0.5,59.94851980805839,
To what extent did the music make you feel ,FRUSTRATED,30MonoWAV/30MonoT2.wav,2,1,4,14,,,,,1,5,21,13,0,0,0,3,,,2,11.784039819998725,3,2.5337397499988583,1,2.702875225000753,1,2.914553608999995,,,071,001,2019_May_30_1610,MusicAffectPsychophysiology2019,3.0.5,59.94851980805839,
To what extent did the music make you feel ,ALERT,30MonoWAV/30MonoT2.wav,2,1,4,14,,,,,1,5,21,13,0,1,1,8,,,,,,,,,2,1.234570481999981,,,071,001,2019_May_30_1610,MusicAffectPsychophysiology2019,3.0.5,59.94851980805839,
To what extent did the music make you feel ,GUILTY,30MonoWAV/30MonoT2.wav,2,1,4,14,,,,,1,5,21,13,0,2,2,5,,,,,,,,,1,1.3350524030011002,,,071,001,2019_May_30_1610,MusicAffectPsychophysiology2019,3.0.5,59.94851980805839,
To what extent did the music make you feel ,ANGRY,30MonoWAV/30MonoT2.wav,2,1,4,14,,,,,1,5,21,13,0,3,3,2,,,,,,,,,1,0.8683210020008119,,,071,001,2019_May_30_1610,MusicAffectPsychophysiology2019,3.0.5,59.94851980805839,
To what extent did the music make you feel ,HAPPY,30MonoWAV/30MonoT2.wav,2,1,4,14,,,,,1,5,21,13,0,4,4,6,,,,,,,,,2,1.301367598998695,,,071,001,2019_May_30_1610,MusicAffectPsychophysiology2019,3.0.5,59.94851980805839,
To what extent did the music make you feel ,ASHAMED,30MonoWAV/30MonoT2.wav,2,1,4,14,,,,,1,5,21,13,0,5,5,4,,,,,,,,,2,2.885165743999096,,,071,001,2019_May_30_1610,MusicAffectPsychophysiology2019,3.0.5,59.94851980805839,
To what extent did the music make you feel ,EXCITED,30MonoWAV/30MonoT2.wav,2,1,4,14,,,,,1,5,21,13,0,6,6,7,,,,,,,,,1,1.03494728700025,,,071,001,2019_May_30_1610,MusicAffectPsychophysiology2019,3.0.5,59.94851980805839,
To what extent did the music make you feel ,SCARED,30MonoWAV/30MonoT2.wav,2,1,4,14,,,,,1,5,21,13,0,7,7,11,,,,,,,,,1,1.9848971040009928,,,071,001,2019_May_30_1610,MusicAffectPsychophysiology2019,3.0.5,59.94851980805839,
To what extent did the music make you feel ,SAD,30MonoWAV/30MonoT2.wav,2,1,4,14,,,,,1,5,21,13,0,8,8,0,,,,,,,,,3,1.6678708609997557,,,071,001,2019_May_30_1610,MusicAffectPsychophysiology2019,3.0.5,59.94851980805839,
To what extent did the music make you feel ,ACTIVE,30MonoWAV/30MonoT2.wav,2,1,4,14,,,,,1,5,21,13,0,9,9,9,,,,,,,,,2,1.4356601649997174,,,071,001,2019_May_30_1610,MusicAffectPsychophysiology2019,3.0.5,59.94851980805839,
To what extent did the music make you feel ,TENDER,30MonoWAV/30MonoT2.wav,2,1,4,14,,,,,1,5,21,13,0,10,10,10,,,,,,,,,4,1.6354637519998505,,,071,001,2019_May_30_1610,MusicAffectPsychophysiology2019,3.0.5,59.94851980805839,
To what extent did the music make you feel ,ANXIOUS ,30MonoWAV/30MonoT2.wav,2,1,4,14,,,,,1,5,21,13,0,11,11,1,,,,,,,,,2,1.3516166570007044,,,071,001,2019_May_30_1610,MusicAffectPsychophysiology2019,3.0.5,59.94851980805839,
,,30MonoWAV/30MonoT2.wav,2,1,4,14,,,,,1,5,21,13,,,,,,,,,,,,,,,,,071,001,2019_May_30_1610,MusicAffectPsychophysiology2019,3.0.5,59.94851980805839,
To what extent did the music make you feel ,HAPPY,30MonoWAV/30MonoH1.wav,2,2,1,5,,,,,1,6,22,4,0,0,0,6,,,3,2.99913921299958,3,1.9354484499999671,2,2.2675007509988063,4,2.3669468339994637,,,071,001,2019_May_30_1610,MusicAffectPsychophysiology2019,3.0.5,59.94851980805839,
To what extent did the music make you feel ,ANGRY,30MonoWAV/30MonoH1.wav,2,2,1,5,,,,,1,6,22,4,0,1,1,2,,,,,,,,,1,2.217735984999308,,,071,001,2019_May_30_1610,MusicAffectPsychophysiology2019,3.0.5,59.94851980805839,
To what extent did the music make you feel ,SCARED,30MonoWAV/30MonoH1.wav,2,2,1,5,,,,,1,6,22,4,0,2,2,11,,,,,,,,,1,0.6836540269996476,,,071,001,2019_May_30_1610,MusicAffectPsychophysiology2019,3.0.5,59.94851980805839,
To what extent did the music make you feel ,GUILTY,30MonoWAV/30MonoH1.wav,2,2,1,5,,,,,1,6,22,4,0,3,3,5,,,,,,,,,1,1.0167130069985433,,,071,001,2019_May_30_1610,MusicAffectPsychophysiology2019,3.0.5,59.94851980805839,
To what extent did the music make you feel ,ASHAMED,30MonoWAV/30MonoH1.wav,2,2,1,5,,,,,1,6,22,4,0,4,4,4,,,,,,,,,1,0.8846437919983146,,,071,001,2019_May_30_1610,MusicAffectPsychophysiology2019,3.0.5,59.94851980805839,
To what extent did the music make you feel ,ALERT,30MonoWAV/30MonoH1.wav,2,2,1,5,,,,,1,6,22,4,0,5,5,8,,,,,,,,,4,1.318646040999738,,,071,001,2019_May_30_1610,MusicAffectPsychophysiology2019,3.0.5,59.94851980805839,
To what extent did the music make you feel ,ACTIVE,30MonoWAV/30MonoH1.wav,2,2,1,5,,,,,1,6,22,4,0,6,6,9,,,,,,,,,4,1.102801258000909,,,071,001,2019_May_30_1610,MusicAffectPsychophysiology2019,3.0.5,59.94851980805839,
To what extent did the music make you feel ,SAD,30MonoWAV/30MonoH1.wav,2,2,1,5,,,,,1,6,22,4,0,7,7,0,,,,,,,,,1,1.0352423130007082,,,071,001,2019_May_30_1610,MusicAffectPsychophysiology2019,3.0.5,59.94851980805839,
To what extent did the music make you feel ,TENDER,30MonoWAV/30MonoH1.wav,2,2,1,5,,,,,1,6,22,4,0,8,8,10,,,,,,,,,1,1.3016597040004854,,,071,001,2019_May_30_1610,MusicAffectPsychophysiology2019,3.0.5,59.94851980805839,
To what extent did the music make you feel ,EXCITED,30MonoWAV/30MonoH1.wav,2,2,1,5,,,,,1,6,22,4,0,9,9,7,,,,,,,,,4,1.5017374359995301,,,071,001,2019_May_30_1610,MusicAffectPsychophysiology2019,3.0.5,59.94851980805839,
To what extent did the music make you feel ,FRUSTRATED,30MonoWAV/30MonoH1.wav,2,2,1,5,,,,,1,6,22,4,0,10,10,3,,,,,,,,,1,1.0856454350014246,,,071,001,2019_May_30_1610,MusicAffectPsychophysiology2019,3.0.5,59.94851980805839,
To what extent did the music make you feel ,ANXIOUS ,30MonoWAV/30MonoH1.wav,2,2,1,5,,,,,1,6,22,4,0,11,11,1,,,,,,,,,1,1.1845549009995011,,,071,001,2019_May_30_1610,MusicAffectPsychophysiology2019,3.0.5,59.94851980805839,
,,30MonoWAV/30MonoH1.wav,2,2,1,5,,,,,1,6,22,4,,,,,,,,,,,,,,,,,071,001,2019_May_30_1610,MusicAffectPsychophysiology2019,3.0.5,59.94851980805839,
To what extent did the music make you feel ,TENDER,30MonoWAV/30MonoT1.wav,2,1,4,13,,,,,1,7,23,12,0,0,0,10,,,2,3.1195897979996516,2,1.3349304659986956,1,3.0346590650005965,2,1.436149604000093,,,071,001,2019_May_30_1610,MusicAffectPsychophysiology2019,3.0.5,59.94851980805839,
To what extent did the music make you feel ,SAD,30MonoWAV/30MonoT1.wav,2,1,4,13,,,,,1,7,23,12,0,1,1,0,,,,,,,,,2,2.1179137920007634,,,071,001,2019_May_30_1610,MusicAffectPsychophysiology2019,3.0.5,59.94851980805839,
To what extent did the music make you feel ,ANXIOUS ,30MonoWAV/30MonoT1.wav,2,1,4,13,,,,,1,7,23,12,0,2,2,1,,,,,,,,,2,1.6359239290013647,,,071,001,2019_May_30_1610,MusicAffectPsychophysiology2019,3.0.5,59.94851980805839,
To what extent did the music make you feel ,HAPPY,30MonoWAV/30MonoT1.wav,2,1,4,13,,,,,1,7,23,12,0,3,3,6,,,,,,,,,2,2.0001448659986636,,,071,001,2019_May_30_1610,MusicAffectPsychophysiology2019,3.0.5,59.94851980805839,
To what extent did the music make you feel ,ANGRY,30MonoWAV/30MonoT1.wav,2,1,4,13,,,,,1,7,23,12,0,4,4,2,,,,,,,,,1,1.168405045000327,,,071,001,2019_May_30_1610,MusicAffectPsychophysiology2019,3.0.5,59.94851980805839,
To what extent did the music make you feel ,GUILTY,30MonoWAV/30MonoT1.wav,2,1,4,13,,,,,1,7,23,12,0,5,5,5,,,,,,,,,1,1.102273268999852,,,071,001,2019_May_30_1610,MusicAffectPsychophysiology2019,3.0.5,59.94851980805839,
To what extent did the music make you feel ,ACTIVE,30MonoWAV/30MonoT1.wav,2,1,4,13,,,,,1,7,23,12,0,6,6,9,,,,,,,,,2,1.4348840860002383,,,071,001,2019_May_30_1610,MusicAffectPsychophysiology2019,3.0.5,59.94851980805839,
To what extent did the music make you feel ,FRUSTRATED,30MonoWAV/30MonoT1.wav,2,1,4,13,,,,,1,7,23,12,0,7,7,3,,,,,,,,,1,2.084891544000129,,,071,001,2019_May_30_1610,MusicAffectPsychophysiology2019,3.0.5,59.94851980805839,
To what extent did the music make you feel ,SCARED,30MonoWAV/30MonoT1.wav,2,1,4,13,,,,,1,7,23,12,0,8,8,11,,,,,,,,,1,1.0519955189993198,,,071,001,2019_May_30_1610,MusicAffectPsychophysiology2019,3.0.5,59.94851980805839,
To what extent did the music make you feel ,EXCITED,30MonoWAV/30MonoT1.wav,2,1,4,13,,,,,1,7,23,12,0,9,9,7,,,,,,,,,1,1.568141731000651,,,071,001,2019_May_30_1610,MusicAffectPsychophysiology2019,3.0.5,59.94851980805839,
To what extent did the music make you feel ,ALERT,30MonoWAV/30MonoT1.wav,2,1,4,13,,,,,1,7,23,12,0,10,10,8,,,,,,,,,2,1.984157636999953,,,071,001,2019_May_30_1610,MusicAffectPsychophysiology2019,3.0.5,59.94851980805839,
To what extent did the music make you feel ,ASHAMED,30MonoWAV/30MonoT1.wav,2,1,4,13,,,,,1,7,23,12,0,11,11,4,,,,,,,,,2,1.8349258250000275,,,071,001,2019_May_30_1610,MusicAffectPsychophysiology2019,3.0.5,59.94851980805839,
,,30MonoWAV/30MonoT1.wav,2,1,4,13,,,,,1,7,23,12,,,,,,,,,,,,,,,,,071,001,2019_May_30_1610,MusicAffectPsychophysiology2019,3.0.5,59.94851980805839,
To what extent did the music make you feel ,ACTIVE,30MonoWAV/30MonoH4.wav,2,2,1,8,,,,,1,8,24,7,0,0,0,9,,,3,4.684097773000758,4,2.3509916580005665,2,2.5692398250012047,4,2.201859049000632,,,071,001,2019_May_30_1610,MusicAffectPsychophysiology2019,3.0.5,59.94851980805839,
To what extent did the music make you feel ,ANGRY,30MonoWAV/30MonoH4.wav,2,2,1,8,,,,,1,8,24,7,0,1,1,2,,,,,,,,,1,1.2519352059989615,,,071,001,2019_May_30_1610,MusicAffectPsychophysiology2019,3.0.5,59.94851980805839,
To what extent did the music make you feel ,HAPPY,30MonoWAV/30MonoH4.wav,2,2,1,8,,,,,1,8,24,7,0,2,2,6,,,,,,,,,5,1.5685768969997298,,,071,001,2019_May_30_1610,MusicAffectPsychophysiology2019,3.0.5,59.94851980805839,
To what extent did the music make you feel ,EXCITED,30MonoWAV/30MonoH4.wav,2,2,1,8,,,,,1,8,24,7,0,3,3,7,,,,,,,,,5,2.0353275399993436,,,071,001,2019_May_30_1610,MusicAffectPsychophysiology2019,3.0.5,59.94851980805839,
To what extent did the music make you feel ,FRUSTRATED,30MonoWAV/30MonoH4.wav,2,2,1,8,,,,,1,8,24,7,0,4,4,3,,,,,,,,,1,1.0856196469994757,,,071,001,2019_May_30_1610,MusicAffectPsychophysiology2019,3.0.5,59.94851980805839,
To what extent did the music make you feel ,SAD,30MonoWAV/30MonoH4.wav,2,2,1,8,,,,,1,8,24,7,0,5,5,0,,,,,,,,,1,0.9018498879995605,,,071,001,2019_May_30_1610,MusicAffectPsychophysiology2019,3.0.5,59.94851980805839,
To what extent did the music make you feel ,GUILTY,30MonoWAV/30MonoH4.wav,2,2,1,8,,,,,1,8,24,7,0,6,6,5,,,,,,,,,1,0.7347740690001956,,,071,001,2019_May_30_1610,MusicAffectPsychophysiology2019,3.0.5,59.94851980805839,
To what extent did the music make you feel ,TENDER,30MonoWAV/30MonoH4.wav,2,2,1,8,,,,,1,8,24,7,0,7,7,10,,,,,,,,,1,1.2848915599988686,,,071,001,2019_May_30_1610,MusicAffectPsychophysiology2019,3.0.5,59.94851980805839,
To what extent did the music make you feel ,ALERT,30MonoWAV/30MonoH4.wav,2,2,1,8,,,,,1,8,24,7,0,8,8,8,,,,,,,,,4,1.600001456999962,,,071,001,2019_May_30_1610,MusicAffectPsychophysiology2019,3.0.5,59.94851980805839,
To what extent did the music make you feel ,ASHAMED,30MonoWAV/30MonoH4.wav,2,2,1,8,,,,,1,8,24,7,0,9,9,4,,,,,,,,,1,1.016593821999777,,,071,001,2019_May_30_1610,MusicAffectPsychophysiology2019,3.0.5,59.94851980805839,
To what extent did the music make you feel ,ANXIOUS ,30MonoWAV/30MonoH4.wav,2,2,1,8,,,,,1,8,24,7,0,10,10,1,,,,,,,,,1,0.8666965299998992,,,071,001,2019_May_30_1610,MusicAffectPsychophysiology2019,3.0.5,59.94851980805839,
To what extent did the music make you feel ,SCARED,30MonoWAV/30MonoH4.wav,2,2,1,8,,,,,1,8,24,7,0,11,11,11,,,,,,,,,1,0.8190717870002118,,,071,001,2019_May_30_1610,MusicAffectPsychophysiology2019,3.0.5,59.94851980805839,
,,30MonoWAV/30MonoH4.wav,2,2,1,8,,,,,1,8,24,7,,,,,,,,,,,,,,,,,071,001,2019_May_30_1610,MusicAffectPsychophysiology2019,3.0.5,59.94851980805839,
To what extent did the music make you feel ,EXCITED,30MonoWAV/30MonoS1.wav,1,1,3,9,,,,,1,9,25,8,0,0,0,7,,,1,3.8680548619995534,1,1.3176469539994287,1,1.184740750999481,1,1.9667555289997836,,,071,001,2019_May_30_1610,MusicAffectPsychophysiology2019,3.0.5,59.94851980805839,
To what extent did the music make you feel ,SAD,30MonoWAV/30MonoS1.wav,1,1,3,9,,,,,1,9,25,8,0,1,1,0,,,,,,,,,3,1.5692655579987331,,,071,001,2019_May_30_1610,MusicAffectPsychophysiology2019,3.0.5,59.94851980805839,
To what extent did the music make you feel ,ALERT,30MonoWAV/30MonoS1.wav,1,1,3,9,,,,,1,9,25,8,0,2,2,8,,,,,,,,,1,1.5517778680004994,,,071,001,2019_May_30_1610,MusicAffectPsychophysiology2019,3.0.5,59.94851980805839,
To what extent did the music make you feel ,SCARED,30MonoWAV/30MonoS1.wav,1,1,3,9,,,,,1,9,25,8,0,3,3,11,,,,,,,,,2,5.952273024000533,,,071,001,2019_May_30_1610,MusicAffectPsychophysiology2019,3.0.5,59.94851980805839,
To what extent did the music make you feel ,HAPPY,30MonoWAV/30MonoS1.wav,1,1,3,9,,,,,1,9,25,8,0,4,4,6,,,,,,,,,1,3.5004869630010944,,,071,001,2019_May_30_1610,MusicAffectPsychophysiology2019,3.0.5,59.94851980805839,
To what extent did the music make you feel ,GUILTY,30MonoWAV/30MonoS1.wav,1,1,3,9,,,,,1,9,25,8,0,5,5,5,,,,,,,,,3,1.5519520489997376,,,071,001,2019_May_30_1610,MusicAffectPsychophysiology2019,3.0.5,59.94851980805839,
To what extent did the music make you feel ,TENDER,30MonoWAV/30MonoS1.wav,1,1,3,9,,,,,1,9,25,8,0,6,6,10,,,,,,,,,4,1.5846233509982994,,,071,001,2019_May_30_1610,MusicAffectPsychophysiology2019,3.0.5,59.94851980805839,
To what extent did the music make you feel ,ACTIVE,30MonoWAV/30MonoS1.wav,1,1,3,9,,,,,1,9,25,8,0,7,7,9,,,,,,,,,1,1.5187362480010052,,,071,001,2019_May_30_1610,MusicAffectPsychophysiology2019,3.0.5,59.94851980805839,
To what extent did the music make you feel ,ANGRY,30MonoWAV/30MonoS1.wav,1,1,3,9,,,,,1,9,25,8,0,8,8,2,,,,,,,,,1,1.6684379600010288,,,071,001,2019_May_30_1610,MusicAffectPsychophysiology2019,3.0.5,59.94851980805839,
To what extent did the music make you feel ,ASHAMED,30MonoWAV/30MonoS1.wav,1,1,3,9,,,,,1,9,25,8,0,9,9,4,,,,,,,,,3,1.5013980740004627,,,071,001,2019_May_30_1610,MusicAffectPsychophysiology2019,3.0.5,59.94851980805839,
To what extent did the music make you feel ,ANXIOUS ,30MonoWAV/30MonoS1.wav,1,1,3,9,,,,,1,9,25,8,0,10,10,1,,,,,,,,,3,1.8526717749991803,,,071,001,2019_May_30_1610,MusicAffectPsychophysiology2019,3.0.5,59.94851980805839,
To what extent did the music make you feel ,FRUSTRATED,30MonoWAV/30MonoS1.wav,1,1,3,9,,,,,1,9,25,8,0,11,11,3,,,,,,,,,1,1.618117224001253,,,071,001,2019_May_30_1610,MusicAffectPsychophysiology2019,3.0.5,59.94851980805839,
,,30MonoWAV/30MonoS1.wav,1,1,3,9,,,,,1,9,25,8,,,,,,,,,,,,,,,,,071,001,2019_May_30_1610,MusicAffectPsychophysiology2019,3.0.5,59.94851980805839,
To what extent did the music make you feel ,FRUSTRATED,30MonoWAV/30MonoF3.wav,1,2,2,3,,,,,1,10,26,2,0,0,0,3,,,4,3.134496177000983,4,2.3685776999991504,2,1.983642453000357,1,3.668257707000521,,,071,001,2019_May_30_1610,MusicAffectPsychophysiology2019,3.0.5,59.94851980805839,
To what extent did the music make you feel ,GUILTY,30MonoWAV/30MonoF3.wav,1,2,2,3,,,,,1,10,26,2,0,1,1,5,,,,,,,,,3,1.56809955099925,,,071,001,2019_May_30_1610,MusicAffectPsychophysiology2019,3.0.5,59.94851980805839,
To what extent did the music make you feel ,HAPPY,30MonoWAV/30MonoF3.wav,1,2,2,3,,,,,1,10,26,2,0,2,2,6,,,,,,,,,4,1.6186031409997668,,,071,001,2019_May_30_1610,MusicAffectPsychophysiology2019,3.0.5,59.94851980805839,
To what extent did the music make you feel ,ASHAMED,30MonoWAV/30MonoF3.wav,1,2,2,3,,,,,1,10,26,2,0,3,3,4,,,,,,,,,1,1.3686442919988622,,,071,001,2019_May_30_1610,MusicAffectPsychophysiology2019,3.0.5,59.94851980805839,
To what extent did the music make you feel ,ANGRY,30MonoWAV/30MonoF3.wav,1,2,2,3,,,,,1,10,26,2,0,4,4,2,,,,,,,,,2,1.5180792789997213,,,071,001,2019_May_30_1610,MusicAffectPsychophysiology2019,3.0.5,59.94851980805839,
To what extent did the music make you feel ,ACTIVE,30MonoWAV/30MonoF3.wav,1,2,2,3,,,,,1,10,26,2,0,5,5,9,,,,,,,,,4,1.8687230559989985,,,071,001,2019_May_30_1610,MusicAffectPsychophysiology2019,3.0.5,59.94851980805839,
To what extent did the music make you feel ,SAD,30MonoWAV/30MonoF3.wav,1,2,2,3,,,,,1,10,26,2,0,6,6,0,,,,,,,,,1,1.118575262999002,,,071,001,2019_May_30_1610,MusicAffectPsychophysiology2019,3.0.5,59.94851980805839,
To what extent did the music make you feel ,ALERT,30MonoWAV/30MonoF3.wav,1,2,2,3,,,,,1,10,26,2,0,7,7,8,,,,,,,,,5,1.4514282760010246,,,071,001,2019_May_30_1610,MusicAffectPsychophysiology2019,3.0.5,59.94851980805839,
To what extent did the music make you feel ,EXCITED,30MonoWAV/30MonoF3.wav,1,2,2,3,,,,,1,10,26,2,0,8,8,7,,,,,,,,,4,1.367766228999244,,,071,001,2019_May_30_1610,MusicAffectPsychophysiology2019,3.0.5,59.94851980805839,
To what extent did the music make you feel ,ANXIOUS ,30MonoWAV/30MonoF3.wav,1,2,2,3,,,,,1,10,26,2,0,9,9,1,,,,,,,,,1,2.001404493999871,,,071,001,2019_May_30_1610,MusicAffectPsychophysiology2019,3.0.5,59.94851980805839,
To what extent did the music make you feel ,SCARED,30MonoWAV/30MonoF3.wav,1,2,2,3,,,,,1,10,26,2,0,10,10,11,,,,,,,,,1,0.7522048579994589,,,071,001,2019_May_30_1610,MusicAffectPsychophysiology2019,3.0.5,59.94851980805839,
To what extent did the music make you feel ,TENDER,30MonoWAV/30MonoF3.wav,1,2,2,3,,,,,1,10,26,2,0,11,11,10,,,,,,,,,1,1.2514980119995016,,,071,001,2019_May_30_1610,MusicAffectPsychophysiology2019,3.0.5,59.94851980805839,
,,30MonoWAV/30MonoF3.wav,1,2,2,3,,,,,1,10,26,2,,,,,,,,,,,,,,,,,071,001,2019_May_30_1610,MusicAffectPsychophysiology2019,3.0.5,59.94851980805839,
To what extent did the music make you feel ,SCARED,30MonoWAV/30MonoS4.wav,1,1,3,12,,,,,1,11,27,11,0,0,0,11,,,1,2.452965202000996,1,1.5870072200013965,1,1.4699073669999052,1,1.2363769790008519,,,071,001,2019_May_30_1610,MusicAffectPsychophysiology2019,3.0.5,59.94851980805839,
To what extent did the music make you feel ,ANXIOUS ,30MonoWAV/30MonoS4.wav,1,1,3,12,,,,,1,11,27,11,0,1,1,1,,,,,,,,,2,1.7398659640002734,,,071,001,2019_May_30_1610,MusicAffectPsychophysiology2019,3.0.5,59.94851980805839,
To what extent did the music make you feel ,ACTIVE,30MonoWAV/30MonoS4.wav,1,1,3,12,,,,,1,11,27,11,0,2,2,9,,,,,,,,,2,3.2185981550010183,,,071,001,2019_May_30_1610,MusicAffectPsychophysiology2019,3.0.5,59.94851980805839,
To what extent did the music make you feel ,SAD,30MonoWAV/30MonoS4.wav,1,1,3,12,,,,,1,11,27,11,0,3,3,0,,,,,,,,,5,2.734474520000731,,,071,001,2019_May_30_1610,MusicAffectPsychophysiology2019,3.0.5,59.94851980805839,
To what extent did the music make you feel ,ALERT,30MonoWAV/30MonoS4.wav,1,1,3,12,,,,,1,11,27,11,0,4,4,8,,,,,,,,,1,1.5181995579987415,,,071,001,2019_May_30_1610,MusicAffectPsychophysiology2019,3.0.5,59.94851980805839,
To what extent did the music make you feel ,GUILTY,30MonoWAV/30MonoS4.wav,1,1,3,12,,,,,1,11,27,11,0,5,5,5,,,,,,,,,2,2.4345898310002667,,,071,001,2019_May_30_1610,MusicAffectPsychophysiology2019,3.0.5,59.94851980805839,
To what extent did the music make you feel ,FRUSTRATED,30MonoWAV/30MonoS4.wav,1,1,3,12,,,,,1,11,27,11,0,6,6,3,,,,,,,,,1,1.1020192649993987,,,071,001,2019_May_30_1610,MusicAffectPsychophysiology2019,3.0.5,59.94851980805839,
To what extent did the music make you feel ,EXCITED,30MonoWAV/30MonoS4.wav,1,1,3,12,,,,,1,11,27,11,0,7,7,7,,,,,,,,,1,3.2179939440011367,,,071,001,2019_May_30_1610,MusicAffectPsychophysiology2019,3.0.5,59.94851980805839,
To what extent did the music make you feel ,ASHAMED,30MonoWAV/30MonoS4.wav,1,1,3,12,,,,,1,11,27,11,0,8,8,4,,,,,,,,,2,3.185051980000935,,,071,001,2019_May_30_1610,MusicAffectPsychophysiology2019,3.0.5,59.94851980805839,
To what extent did the music make you feel ,ANGRY,30MonoWAV/30MonoS4.wav,1,1,3,12,,,,,1,11,27,11,0,9,9,2,,,,,,,,,1,1.1351882830003888,,,071,001,2019_May_30_1610,MusicAffectPsychophysiology2019,3.0.5,59.94851980805839,
To what extent did the music make you feel ,HAPPY,30MonoWAV/30MonoS4.wav,1,1,3,12,,,,,1,11,27,11,0,10,10,6,,,,,,,,,1,1.7018912929997896,,,071,001,2019_May_30_1610,MusicAffectPsychophysiology2019,3.0.5,59.94851980805839,
To what extent did the music make you feel ,TENDER,30MonoWAV/30MonoS4.wav,1,1,3,12,,,,,1,11,27,11,0,11,11,10,,,,,,,,,5,1.6517578340008185,,,071,001,2019_May_30_1610,MusicAffectPsychophysiology2019,3.0.5,59.94851980805839,
,,30MonoWAV/30MonoS4.wav,1,1,3,12,,,,,1,11,27,11,,,,,,,,,,,,,,,,,071,001,2019_May_30_1610,MusicAffectPsychophysiology2019,3.0.5,59.94851980805839,
To what extent did the music make you feel ,SAD,30MonoWAV/30MonoT4.wav,2,1,4,16,,,,,1,12,28,15,0,0,0,0,,,2,7.371848642000259,1,1.6678624489995855,1,1.2855015060013102,3,4.318998647000626,,,071,001,2019_May_30_1610,MusicAffectPsychophysiology2019,3.0.5,59.94851980805839,
To what extent did the music make you feel ,ASHAMED,30MonoWAV/30MonoT4.wav,2,1,4,16,,,,,1,12,28,15,0,1,1,4,,,,,,,,,3,2.7194344289982837,,,071,001,2019_May_30_1610,MusicAffectPsychophysiology2019,3.0.5,59.94851980805839,
To what extent did the music make you feel ,GUILTY,30MonoWAV/30MonoT4.wav,2,1,4,16,,,,,1,12,28,15,0,2,2,5,,,,,,,,,3,1.834568610000133,,,071,001,2019_May_30_1610,MusicAffectPsychophysiology2019,3.0.5,59.94851980805839,
To what extent did the music make you feel ,ANGRY,30MonoWAV/30MonoT4.wav,2,1,4,16,,,,,1,12,28,15,0,3,3,2,,,,,,,,,1,1.2349559009999211,,,071,001,2019_May_30_1610,MusicAffectPsychophysiology2019,3.0.5,59.94851980805839,
To what extent did the music make you feel ,EXCITED,30MonoWAV/30MonoT4.wav,2,1,4,16,,,,,1,12,28,15,0,4,4,7,,,,,,,,,1,2.2354584869990504,,,071,001,2019_May_30_1610,MusicAffectPsychophysiology2019,3.0.5,59.94851980805839,
To what extent did the music make you feel ,TENDER,30MonoWAV/30MonoT4.wav,2,1,4,16,,,,,1,12,28,15,0,5,5,10,,,,,,,,,5,1.5676562389999162,,,071,001,2019_May_30_1610,MusicAffectPsychophysiology2019,3.0.5,59.94851980805839,
To what extent did the music make you feel ,FRUSTRATED,30MonoWAV/30MonoT4.wav,2,1,4,16,,,,,1,12,28,15,0,6,6,3,,,,,,,,,1,1.3345678410005348,,,071,001,2019_May_30_1610,MusicAffectPsychophysiology2019,3.0.5,59.94851980805839,
To what extent did the music make you feel ,ALERT,30MonoWAV/30MonoT4.wav,2,1,4,16,,,,,1,12,28,15,0,7,7,8,,,,,,,,,2,1.4691976979993342,,,071,001,2019_May_30_1610,MusicAffectPsychophysiology2019,3.0.5,59.94851980805839,
To what extent did the music make you feel ,SCARED,30MonoWAV/30MonoT4.wav,2,1,4,16,,,,,1,12,28,15,0,8,8,11,,,,,,,,,1,1.4850669169991306,,,071,001,2019_May_30_1610,MusicAffectPsychophysiology2019,3.0.5,59.94851980805839,
To what extent did the music make you feel ,ACTIVE,30MonoWAV/30MonoT4.wav,2,1,4,16,,,,,1,12,28,15,0,9,9,9,,,,,,,,,2,1.302192548999301,,,071,001,2019_May_30_1610,MusicAffectPsychophysiology2019,3.0.5,59.94851980805839,
To what extent did the music make you feel ,ANXIOUS ,30MonoWAV/30MonoT4.wav,2,1,4,16,,,,,1,12,28,15,0,10,10,1,,,,,,,,,1,1.8509804009991058,,,071,001,2019_May_30_1610,MusicAffectPsychophysiology2019,3.0.5,59.94851980805839,
To what extent did the music make you feel ,HAPPY,30MonoWAV/30MonoT4.wav,2,1,4,16,,,,,1,12,28,15,0,11,11,6,,,,,,,,,1,1.3009756690007634,,,071,001,2019_May_30_1610,MusicAffectPsychophysiology2019,3.0.5,59.94851980805839,
,,30MonoWAV/30MonoT4.wav,2,1,4,16,,,,,1,12,28,15,,,,,,,,,,,,,,,,,071,001,2019_May_30_1610,MusicAffectPsychophysiology2019,3.0.5,59.94851980805839,
To what extent did the music make you feel ,HAPPY,30MonoWAV/30MonoF2.wav,1,2,2,2,,,,,1,13,29,1,0,0,0,6,,,3,2.8680385450006725,2,4.385237238000627,1,1.8183148139996774,2,2.4844406060001347,,,071,001,2019_May_30_1610,MusicAffectPsychophysiology2019,3.0.5,59.94851980805839,
To what extent did the music make you feel ,FRUSTRATED,30MonoWAV/30MonoF2.wav,1,2,2,2,,,,,1,13,29,1,0,1,1,3,,,,,,,,,3,1.9851654660014901,,,071,001,2019_May_30_1610,MusicAffectPsychophysiology2019,3.0.5,59.94851980805839,
To what extent did the music make you feel ,ALERT,30MonoWAV/30MonoF2.wav,1,2,2,2,,,,,1,13,29,1,0,2,2,8,,,,,,,,,5,1.5853211989997362,,,071,001,2019_May_30_1610,MusicAffectPsychophysiology2019,3.0.5,59.94851980805839,
To what extent did the music make you feel ,ANGRY,30MonoWAV/30MonoF2.wav,1,2,2,2,,,,,1,13,29,1,0,3,3,2,,,,,,,,,3,3.3679225180003414,,,071,001,2019_May_30_1610,MusicAffectPsychophysiology2019,3.0.5,59.94851980805839,
To what extent did the music make you feel ,ANXIOUS ,30MonoWAV/30MonoF2.wav,1,2,2,2,,,,,1,13,29,1,0,4,4,1,,,,,,,,,4,1.3355234020000353,,,071,001,2019_May_30_1610,MusicAffectPsychophysiology2019,3.0.5,59.94851980805839,
To what extent did the music make you feel ,ASHAMED,30MonoWAV/30MonoF2.wav,1,2,2,2,,,,,1,13,29,1,0,5,5,4,,,,,,,,,1,1.9189460419984243,,,071,001,2019_May_30_1610,MusicAffectPsychophysiology2019,3.0.5,59.94851980805839,
To what extent did the music make you feel ,GUILTY,30MonoWAV/30MonoF2.wav,1,2,2,2,,,,,1,13,29,1,0,6,6,5,,,,,,,,,1,6.768337923000217,,,071,001,2019_May_30_1610,MusicAffectPsychophysiology2019,3.0.5,59.94851980805839,
To what extent did the music make you feel ,SAD,30MonoWAV/30MonoF2.wav,1,2,2,2,,,,,1,13,29,1,0,7,7,0,,,,,,,,,1,1.7830741299985675,,,071,001,2019_May_30_1610,MusicAffectPsychophysiology2019,3.0.5,59.94851980805839,
To what extent did the music make you feel ,ACTIVE,30MonoWAV/30MonoF2.wav,1,2,2,2,,,,,1,13,29,1,0,8,8,9,,,,,,,,,4,1.5682540719990357,,,071,001,2019_May_30_1610,MusicAffectPsychophysiology2019,3.0.5,59.94851980805839,
To what extent did the music make you feel ,EXCITED,30MonoWAV/30MonoF2.wav,1,2,2,2,,,,,1,13,29,1,0,9,9,7,,,,,,,,,3,1.9832147759989311,,,071,001,2019_May_30_1610,MusicAffectPsychophysiology2019,3.0.5,59.94851980805839,
To what extent did the music make you feel ,SCARED,30MonoWAV/30MonoF2.wav,1,2,2,2,,,,,1,13,29,1,0,10,10,11,,,,,,,,,4,2.6854613209998206,,,071,001,2019_May_30_1610,MusicAffectPsychophysiology2019,3.0.5,59.94851980805839,
To what extent did the music make you feel ,TENDER,30MonoWAV/30MonoF2.wav,1,2,2,2,,,,,1,13,29,1,0,11,11,10,,,,,,,,,1,1.4022412550002628,,,071,001,2019_May_30_1610,MusicAffectPsychophysiology2019,3.0.5,59.94851980805839,
,,30MonoWAV/30MonoF2.wav,1,2,2,2,,,,,1,13,29,1,,,,,,,,,,,,,,,,,071,001,2019_May_30_1610,MusicAffectPsychophysiology2019,3.0.5,59.94851980805839,
To what extent did the music make you feel ,ANXIOUS ,30MonoWAV/30MonoS2.wav,1,1,3,10,,,,,1,14,30,9,0,0,0,1,,,2,3.3581934989997535,1,1.4852761430011014,1,1.7862560760004271,2,2.267827645999205,,,071,001,2019_May_30_1610,MusicAffectPsychophysiology2019,3.0.5,59.94851980805839,
To what extent did the music make you feel ,ALERT,30MonoWAV/30MonoS2.wav,1,1,3,10,,,,,1,14,30,9,0,1,1,8,,,,,,,,,2,4.1177180869999574,,,071,001,2019_May_30_1610,MusicAffectPsychophysiology2019,3.0.5,59.94851980805839,
To what extent did the music make you feel ,EXCITED,30MonoWAV/30MonoS2.wav,1,1,3,10,,,,,1,14,30,9,0,2,2,7,,,,,,,,,1,1.1513870409999072,,,071,001,2019_May_30_1610,MusicAffectPsychophysiology2019,3.0.5,59.94851980805839,
To what extent did the music make you feel ,ACTIVE,30MonoWAV/30MonoS2.wav,1,1,3,10,,,,,1,14,30,9,0,3,3,9,,,,,,,,,1,1.2853673700010404,,,071,001,2019_May_30_1610,MusicAffectPsychophysiology2019,3.0.5,59.94851980805839,
To what extent did the music make you feel ,SCARED,30MonoWAV/30MonoS2.wav,1,1,3,10,,,,,1,14,30,9,0,4,4,11,,,,,,,,,1,1.518250122999234,,,071,001,2019_May_30_1610,MusicAffectPsychophysiology2019,3.0.5,59.94851980805839,
To what extent did the music make you feel ,SAD,30MonoWAV/30MonoS2.wav,1,1,3,10,,,,,1,14,30,9,0,5,5,0,,,,,,,,,4,1.4357359320001706,,,071,001,2019_May_30_1610,MusicAffectPsychophysiology2019,3.0.5,59.94851980805839,
To what extent did the music make you feel ,FRUSTRATED,30MonoWAV/30MonoS2.wav,1,1,3,10,,,,,1,14,30,9,0,6,6,3,,,,,,,,,1,0.8180234169994947,,,071,001,2019_May_30_1610,MusicAffectPsychophysiology2019,3.0.5,59.94851980805839,
To what extent did the music make you feel ,HAPPY,30MonoWAV/30MonoS2.wav,1,1,3,10,,,,,1,14,30,9,0,7,7,6,,,,,,,,,1,0.6531551569987641,,,071,001,2019_May_30_1610,MusicAffectPsychophysiology2019,3.0.5,59.94851980805839,
To what extent did the music make you feel ,TENDER,30MonoWAV/30MonoS2.wav,1,1,3,10,,,,,1,14,30,9,0,8,8,10,,,,,,,,,4,1.1517633809999097,,,071,001,2019_May_30_1610,MusicAffectPsychophysiology2019,3.0.5,59.94851980805839,
To what extent did the music make you feel ,ANGRY,30MonoWAV/30MonoS2.wav,1,1,3,10,,,,,1,14,30,9,0,9,9,2,,,,,,,,,1,0.48482375200001115,,,071,001,2019_May_30_1610,MusicAffectPsychophysiology2019,3.0.5,59.94851980805839,
To what extent did the music make you feel ,ASHAMED,30MonoWAV/30MonoS2.wav,1,1,3,10,,,,,1,14,30,9,0,10,10,4,,,,,,,,,2,1.435027794999769,,,071,001,2019_May_30_1610,MusicAffectPsychophysiology2019,3.0.5,59.94851980805839,
To what extent did the music make you feel ,GUILTY,30MonoWAV/30MonoS2.wav,1,1,3,10,,,,,1,14,30,9,0,11,11,5,,,,,,,,,1,1.9189670630003093,,,071,001,2019_May_30_1610,MusicAffectPsychophysiology2019,3.0.5,59.94851980805839,
,,30MonoWAV/30MonoS2.wav,1,1,3,10,,,,,1,14,30,9,,,,,,,,,,,,,,,,,071,001,2019_May_30_1610,MusicAffectPsychophysiology2019,3.0.5,59.94851980805839,
To what extent did the music make you feel ,ANXIOUS ,30MonoWAV/30MonoF1.wav,1,2,2,1,,,,,1,15,31,0,0,0,0,1,,,3,11.76708789300028,3,3.534785551000823,1,2.3343742090000887,1,2.2861471269989124,,,071,001,2019_May_30_1610,MusicAffectPsychophysiology2019,3.0.5,59.94851980805839,
To what extent did the music make you feel ,ACTIVE,30MonoWAV/30MonoF1.wav,1,2,2,1,,,,,1,15,31,0,0,1,1,9,,,,,,,,,4,2.58457379399988,,,071,001,2019_May_30_1610,MusicAffectPsychophysiology2019,3.0.5,59.94851980805839,
To what extent did the music make you feel ,TENDER,30MonoWAV/30MonoF1.wav,1,2,2,1,,,,,1,15,31,0,0,2,2,10,,,,,,,,,1,2.535396449000473,,,071,001,2019_May_30_1610,MusicAffectPsychophysiology2019,3.0.5,59.94851980805839,
To what extent did the music make you feel ,EXCITED,30MonoWAV/30MonoF1.wav,1,2,2,1,,,,,1,15,31,0,0,3,3,7,,,,,,,,,2,3.3173094440007844,,,071,001,2019_May_30_1610,MusicAffectPsychophysiology2019,3.0.5,59.94851980805839,
To what extent did the music make you feel ,ALERT,30MonoWAV/30MonoF1.wav,1,2,2,1,,,,,1,15,31,0,0,4,4,8,,,,,,,,,4,1.5345775179994234,,,071,001,2019_May_30_1610,MusicAffectPsychophysiology2019,3.0.5,59.94851980805839,
To what extent did the music make you feel ,ANGRY,30MonoWAV/30MonoF1.wav,1,2,2,1,,,,,1,15,31,0,0,5,5,2,,,,,,,,,2,4.600516055001208,,,071,001,2019_May_30_1610,MusicAffectPsychophysiology2019,3.0.5,59.94851980805839,
To what extent did the music make you feel ,ASHAMED,30MonoWAV/30MonoF1.wav,1,2,2,1,,,,,1,15,31,0,0,6,6,4,,,,,,,,,1,2.318581562998588,,,071,001,2019_May_30_1610,MusicAffectPsychophysiology2019,3.0.5,59.94851980805839,
To what extent did the music make you feel ,SAD,30MonoWAV/30MonoF1.wav,1,2,2,1,,,,,1,15,31,0,0,7,7,0,,,,,,,,,1,1.1998164400010864,,,071,001,2019_May_30_1610,MusicAffectPsychophysiology2019,3.0.5,59.94851980805839,
To what extent did the music make you feel ,FRUSTRATED,30MonoWAV/30MonoF1.wav,1,2,2,1,,,,,1,15,31,0,0,8,8,3,,,,,,,,,3,1.7353104089997942,,,071,001,2019_May_30_1610,MusicAffectPsychophysiology2019,3.0.5,59.94851980805839,
To what extent did the music make you feel ,GUILTY,30MonoWAV/30MonoF1.wav,1,2,2,1,,,,,1,15,31,0,0,9,9,5,,,,,,,,,3,1.751437065000573,,,071,001,2019_May_30_1610,MusicAffectPsychophysiology2019,3.0.5,59.94851980805839,
To what extent did the music make you feel ,SCARED,30MonoWAV/30MonoF1.wav,1,2,2,1,,,,,1,15,31,0,0,10,10,11,,,,,,,,,1,1.2012041420002788,,,071,001,2019_May_30_1610,MusicAffectPsychophysiology2019,3.0.5,59.94851980805839,
To what extent did the music make you feel ,HAPPY,30MonoWAV/30MonoF1.wav,1,2,2,1,,,,,1,15,31,0,0,11,11,6,,,,,,,,,1,0.9845482720011205,,,071,001,2019_May_30_1610,MusicAffectPsychophysiology2019,3.0.5,59.94851980805839,
,,30MonoWAV/30MonoF1.wav,1,2,2,1,,,,,1,15,31,0,,,,,,,,,,,,,,,,,071,001,2019_May_30_1610,MusicAffectPsychophysiology2019,3.0.5,59.94851980805839,
,,,,,,,,,,,,,,,,,,,,,,,,,,,,,space,9.734421621000365,071,001,2019_May_30_1610,MusicAffectPsychophysiology2019,3.0.5,59.94851980805839,
