Instruction,Word,song,valence,arousal,affectcat,songmark,pracwords.thisRepN,pracwords.thisTrialN,pracwords.thisN,pracwords.thisIndex,songtrials.thisRepN,songtrials.thisTrialN,songtrials.thisN,songtrials.thisIndex,words.thisRepN,words.thisTrialN,words.thisN,words.thisIndex,begin.keys,begin.rt,arousalkey.keys,arousalkey.rt,valencekey.keys,valencekey.rt,likekey.keys,likekey.rt,WordResponse.keys,WordResponse.rt,participant,session,date,expName,psychopyVersion,frameRate,
,,,,,,,,,,,,,,,,,,,space,13.992533790995367,,,,,,,,,072,001,2019_Aug_26_1014,MusicAffectPsychophysiology2019,3.0.5,60.32275460896031,
,,,,,,,,,,,,,,,,,,,,,4,6.702892151995911,,,,,,,072,001,2019_Aug_26_1014,MusicAffectPsychophysiology2019,3.0.5,60.32275460896031,
,,,,,,,,,,,,,,,,,,,,,,,4,3.835881936989608,,,,,072,001,2019_Aug_26_1014,MusicAffectPsychophysiology2019,3.0.5,60.32275460896031,
,,,,,,,,,,,,,,,,,,,,,,,,,4,3.1363632709981175,,,072,001,2019_Aug_26_1014,MusicAffectPsychophysiology2019,3.0.5,60.32275460896031,
To what extent did the music make you feel ,EXCITED,,,,,,0,0,0,7,,,,,,,,,,,,,,,,,1,7.702411061007297,072,001,2019_Aug_26_1014,MusicAffectPsychophysiology2019,3.0.5,60.32275460896031,
To what extent did the music make you feel ,HAPPY,,,,,,0,1,1,6,,,,,,,,,,,,,,,,,3,2.8750886769994395,072,001,2019_Aug_26_1014,MusicAffectPsychophysiology2019,3.0.5,60.32275460896031,
To what extent did the music make you feel ,FRUSTRATED,,,,,,0,2,2,3,,,,,,,,,,,,,,,,,1,2.2432370579917915,072,001,2019_Aug_26_1014,MusicAffectPsychophysiology2019,3.0.5,60.32275460896031,
To what extent did the music make you feel ,TENDER,,,,,,0,3,3,10,,,,,,,,,,,,,,,,,4,2.675376088998746,072,001,2019_Aug_26_1014,MusicAffectPsychophysiology2019,3.0.5,60.32275460896031,
To what extent did the music make you feel ,ANGRY,,,,,,0,4,4,2,,,,,,,,,,,,,,,,,1,1.658067045995267,072,001,2019_Aug_26_1014,MusicAffectPsychophysiology2019,3.0.5,60.32275460896031,
To what extent did the music make you feel ,GUILTY,,,,,,0,5,5,5,,,,,,,,,,,,,,,,,1,0.8369132980005816,072,001,2019_Aug_26_1014,MusicAffectPsychophysiology2019,3.0.5,60.32275460896031,
To what extent did the music make you feel ,SAD,,,,,,0,6,6,0,,,,,,,,,,,,,,,,,1,2.469701983005507,072,001,2019_Aug_26_1014,MusicAffectPsychophysiology2019,3.0.5,60.32275460896031,
To what extent did the music make you feel ,ASHAMED,,,,,,0,7,7,4,,,,,,,,,,,,,,,,,1,0.9535313960077474,072,001,2019_Aug_26_1014,MusicAffectPsychophysiology2019,3.0.5,60.32275460896031,
To what extent did the music make you feel ,ACTIVE,,,,,,0,8,8,9,,,,,,,,,,,,,,,,,1,1.1013490980112692,072,001,2019_Aug_26_1014,MusicAffectPsychophysiology2019,3.0.5,60.32275460896031,
To what extent did the music make you feel ,ALERT,,,,,,0,9,9,8,,,,,,,,,,,,,,,,,1,2.150993716000812,072,001,2019_Aug_26_1014,MusicAffectPsychophysiology2019,3.0.5,60.32275460896031,
To what extent did the music make you feel ,ANXIOUS ,,,,,,0,10,10,1,,,,,,,,,,,,,,,,,1,1.7860336119920248,072,001,2019_Aug_26_1014,MusicAffectPsychophysiology2019,3.0.5,60.32275460896031,
To what extent did the music make you feel ,SCARED,,,,,,0,11,11,11,,,,,,,,,,,,,,,,,1,0.738374617008958,072,001,2019_Aug_26_1014,MusicAffectPsychophysiology2019,3.0.5,60.32275460896031,
To what extent did the music make you feel ,ASHAMED,30MonoWAV/30MonoH3.wav,2,2,1,7,,,,,0,0,0,6,0,0,0,4,,,4,10.352528729010373,4,1.603369559001294,4,1.8846357030124636,1,2.1857052330014994,072,001,2019_Aug_26_1014,MusicAffectPsychophysiology2019,3.0.5,60.32275460896031,
To what extent did the music make you feel ,GUILTY,30MonoWAV/30MonoH3.wav,2,2,1,7,,,,,0,0,0,6,0,1,1,5,,,,,,,,,1,1.0201145930041093,072,001,2019_Aug_26_1014,MusicAffectPsychophysiology2019,3.0.5,60.32275460896031,
To what extent did the music make you feel ,TENDER,30MonoWAV/30MonoH3.wav,2,2,1,7,,,,,0,0,0,6,0,2,2,10,,,,,,,,,3,7.351773299000342,072,001,2019_Aug_26_1014,MusicAffectPsychophysiology2019,3.0.5,60.32275460896031,
To what extent did the music make you feel ,SCARED,30MonoWAV/30MonoH3.wav,2,2,1,7,,,,,0,0,0,6,0,3,3,11,,,,,,,,,1,2.801325114996871,072,001,2019_Aug_26_1014,MusicAffectPsychophysiology2019,3.0.5,60.32275460896031,
To what extent did the music make you feel ,ALERT,30MonoWAV/30MonoH3.wav,2,2,1,7,,,,,0,0,0,6,0,4,4,8,,,,,,,,,4,2.9360473950073356,072,001,2019_Aug_26_1014,MusicAffectPsychophysiology2019,3.0.5,60.32275460896031,
To what extent did the music make you feel ,EXCITED,30MonoWAV/30MonoH3.wav,2,2,1,7,,,,,0,0,0,6,0,5,5,7,,,,,,,,,4,3.134324362996267,072,001,2019_Aug_26_1014,MusicAffectPsychophysiology2019,3.0.5,60.32275460896031,
To what extent did the music make you feel ,ANGRY,30MonoWAV/30MonoH3.wav,2,2,1,7,,,,,0,0,0,6,0,6,6,2,,,,,,,,,1,1.2356713170011062,072,001,2019_Aug_26_1014,MusicAffectPsychophysiology2019,3.0.5,60.32275460896031,
To what extent did the music make you feel ,ANXIOUS ,30MonoWAV/30MonoH3.wav,2,2,1,7,,,,,0,0,0,6,0,7,7,1,,,,,,,,,1,2.3532780759996967,072,001,2019_Aug_26_1014,MusicAffectPsychophysiology2019,3.0.5,60.32275460896031,
To what extent did the music make you feel ,SAD,30MonoWAV/30MonoH3.wav,2,2,1,7,,,,,0,0,0,6,0,8,8,0,,,,,,,,,1,0.5862251990038203,072,001,2019_Aug_26_1014,MusicAffectPsychophysiology2019,3.0.5,60.32275460896031,
To what extent did the music make you feel ,FRUSTRATED,30MonoWAV/30MonoH3.wav,2,2,1,7,,,,,0,0,0,6,0,9,9,3,,,,,,,,,1,0.9003652079991298,072,001,2019_Aug_26_1014,MusicAffectPsychophysiology2019,3.0.5,60.32275460896031,
To what extent did the music make you feel ,ACTIVE,30MonoWAV/30MonoH3.wav,2,2,1,7,,,,,0,0,0,6,0,10,10,9,,,,,,,,,3,2.9334381950029638,072,001,2019_Aug_26_1014,MusicAffectPsychophysiology2019,3.0.5,60.32275460896031,
To what extent did the music make you feel ,HAPPY,30MonoWAV/30MonoH3.wav,2,2,1,7,,,,,0,0,0,6,0,11,11,6,,,,,,,,,4,3.053484739008127,072,001,2019_Aug_26_1014,MusicAffectPsychophysiology2019,3.0.5,60.32275460896031,
,,30MonoWAV/30MonoH3.wav,2,2,1,7,,,,,0,0,0,6,,,,,,,,,,,,,,,072,001,2019_Aug_26_1014,MusicAffectPsychophysiology2019,3.0.5,60.32275460896031,
To what extent did the music make you feel ,FRUSTRATED,30MonoWAV/30MonoT3.wav,2,1,4,15,,,,,0,1,1,14,0,0,0,3,,,3,4.833693268999923,4,2.820307451998815,4,3.936622185006854,1,1.8207153920084238,072,001,2019_Aug_26_1014,MusicAffectPsychophysiology2019,3.0.5,60.32275460896031,
To what extent did the music make you feel ,ALERT,30MonoWAV/30MonoT3.wav,2,1,4,15,,,,,0,1,1,14,0,1,1,8,,,,,,,,,1,3.659590234005009,072,001,2019_Aug_26_1014,MusicAffectPsychophysiology2019,3.0.5,60.32275460896031,
To what extent did the music make you feel ,TENDER,30MonoWAV/30MonoT3.wav,2,1,4,15,,,,,0,1,1,14,0,2,2,10,,,,,,,,,5,2.791963139010477,072,001,2019_Aug_26_1014,MusicAffectPsychophysiology2019,3.0.5,60.32275460896031,
To what extent did the music make you feel ,ANXIOUS ,30MonoWAV/30MonoT3.wav,2,1,4,15,,,,,0,1,1,14,0,3,3,1,,,,,,,,,1,2.469977649001521,072,001,2019_Aug_26_1014,MusicAffectPsychophysiology2019,3.0.5,60.32275460896031,
To what extent did the music make you feel ,ACTIVE,30MonoWAV/30MonoT3.wav,2,1,4,15,,,,,0,1,1,14,0,4,4,9,,,,,,,,,1,3.4413217319961404,072,001,2019_Aug_26_1014,MusicAffectPsychophysiology2019,3.0.5,60.32275460896031,
To what extent did the music make you feel ,ANGRY,30MonoWAV/30MonoT3.wav,2,1,4,15,,,,,0,1,1,14,0,5,5,2,,,,,,,,,1,0.9082660370040685,072,001,2019_Aug_26_1014,MusicAffectPsychophysiology2019,3.0.5,60.32275460896031,
To what extent did the music make you feel ,GUILTY,30MonoWAV/30MonoT3.wav,2,1,4,15,,,,,0,1,1,14,0,6,6,5,,,,,,,,,1,1.286601239000447,072,001,2019_Aug_26_1014,MusicAffectPsychophysiology2019,3.0.5,60.32275460896031,
To what extent did the music make you feel ,EXCITED,30MonoWAV/30MonoT3.wav,2,1,4,15,,,,,0,1,1,14,0,7,7,7,,,,,,,,,2,1.6195463299955009,072,001,2019_Aug_26_1014,MusicAffectPsychophysiology2019,3.0.5,60.32275460896031,
To what extent did the music make you feel ,SAD,30MonoWAV/30MonoT3.wav,2,1,4,15,,,,,0,1,1,14,0,8,8,0,,,,,,,,,3,7.84186293699895,072,001,2019_Aug_26_1014,MusicAffectPsychophysiology2019,3.0.5,60.32275460896031,
To what extent did the music make you feel ,SCARED,30MonoWAV/30MonoT3.wav,2,1,4,15,,,,,0,1,1,14,0,9,9,11,,,,,,,,,1,1.8368347520008683,072,001,2019_Aug_26_1014,MusicAffectPsychophysiology2019,3.0.5,60.32275460896031,
To what extent did the music make you feel ,HAPPY,30MonoWAV/30MonoT3.wav,2,1,4,15,,,,,0,1,1,14,0,10,10,6,,,,,,,,,2,1.9027519270021003,072,001,2019_Aug_26_1014,MusicAffectPsychophysiology2019,3.0.5,60.32275460896031,
To what extent did the music make you feel ,ASHAMED,30MonoWAV/30MonoT3.wav,2,1,4,15,,,,,0,1,1,14,0,11,11,4,,,,,,,,,1,4.136764099996071,072,001,2019_Aug_26_1014,MusicAffectPsychophysiology2019,3.0.5,60.32275460896031,
,,30MonoWAV/30MonoT3.wav,2,1,4,15,,,,,0,1,1,14,,,,,,,,,,,,,,,072,001,2019_Aug_26_1014,MusicAffectPsychophysiology2019,3.0.5,60.32275460896031,
To what extent did the music make you feel ,TENDER,30MonoWAV/30MonoF2.wav,1,2,2,2,,,,,0,2,2,1,0,0,0,10,,,1,4.137168165005278,1,2.3378063709969865,1,1.4376205459993798,1,2.5033110759977717,072,001,2019_Aug_26_1014,MusicAffectPsychophysiology2019,3.0.5,60.32275460896031,
To what extent did the music make you feel ,SCARED,30MonoWAV/30MonoF2.wav,1,2,2,2,,,,,0,2,2,1,0,1,1,11,,,,,,,,,3,3.5645400080102263,072,001,2019_Aug_26_1014,MusicAffectPsychophysiology2019,3.0.5,60.32275460896031,
To what extent did the music make you feel ,ANGRY,30MonoWAV/30MonoF2.wav,1,2,2,2,,,,,0,2,2,1,0,2,2,2,,,,,,,,,1,1.9695803720096592,072,001,2019_Aug_26_1014,MusicAffectPsychophysiology2019,3.0.5,60.32275460896031,
To what extent did the music make you feel ,SAD,30MonoWAV/30MonoF2.wav,1,2,2,2,,,,,0,2,2,1,0,3,3,0,,,,,,,,,1,0.9033075720071793,072,001,2019_Aug_26_1014,MusicAffectPsychophysiology2019,3.0.5,60.32275460896031,
To what extent did the music make you feel ,ALERT,30MonoWAV/30MonoF2.wav,1,2,2,2,,,,,0,2,2,1,0,4,4,8,,,,,,,,,4,3.102565876004519,072,001,2019_Aug_26_1014,MusicAffectPsychophysiology2019,3.0.5,60.32275460896031,
To what extent did the music make you feel ,ASHAMED,30MonoWAV/30MonoF2.wav,1,2,2,2,,,,,0,2,2,1,0,5,5,4,,,,,,,,,1,1.7843394429946784,072,001,2019_Aug_26_1014,MusicAffectPsychophysiology2019,3.0.5,60.32275460896031,
To what extent did the music make you feel ,ANXIOUS ,30MonoWAV/30MonoF2.wav,1,2,2,2,,,,,0,2,2,1,0,6,6,1,,,,,,,,,3,3.3705464210070204,072,001,2019_Aug_26_1014,MusicAffectPsychophysiology2019,3.0.5,60.32275460896031,
To what extent did the music make you feel ,HAPPY,30MonoWAV/30MonoF2.wav,1,2,2,2,,,,,0,2,2,1,0,7,7,6,,,,,,,,,1,1.0200262500002282,072,001,2019_Aug_26_1014,MusicAffectPsychophysiology2019,3.0.5,60.32275460896031,
To what extent did the music make you feel ,FRUSTRATED,30MonoWAV/30MonoF2.wav,1,2,2,2,,,,,0,2,2,1,0,8,8,3,,,,,,,,,1,1.0821302859985735,072,001,2019_Aug_26_1014,MusicAffectPsychophysiology2019,3.0.5,60.32275460896031,
To what extent did the music make you feel ,EXCITED,30MonoWAV/30MonoF2.wav,1,2,2,2,,,,,0,2,2,1,0,9,9,7,,,,,,,,,1,1.4497386389994062,072,001,2019_Aug_26_1014,MusicAffectPsychophysiology2019,3.0.5,60.32275460896031,
To what extent did the music make you feel ,GUILTY,30MonoWAV/30MonoF2.wav,1,2,2,2,,,,,0,2,2,1,0,10,10,5,,,,,,,,,1,1.0200374139967607,072,001,2019_Aug_26_1014,MusicAffectPsychophysiology2019,3.0.5,60.32275460896031,
To what extent did the music make you feel ,ACTIVE,30MonoWAV/30MonoF2.wav,1,2,2,2,,,,,0,2,2,1,0,11,11,9,,,,,,,,,3,2.9982276360096876,072,001,2019_Aug_26_1014,MusicAffectPsychophysiology2019,3.0.5,60.32275460896031,
,,30MonoWAV/30MonoF2.wav,1,2,2,2,,,,,0,2,2,1,,,,,,,,,,,,,,,072,001,2019_Aug_26_1014,MusicAffectPsychophysiology2019,3.0.5,60.32275460896031,
To what extent did the music make you feel ,SAD,30MonoWAV/30MonoT1.wav,2,1,4,13,,,,,0,3,3,12,0,0,0,0,,,2,5.769496667009662,2,3.6351923309994163,2,2.4530638459982583,1,3.393913045001682,072,001,2019_Aug_26_1014,MusicAffectPsychophysiology2019,3.0.5,60.32275460896031,
To what extent did the music make you feel ,ALERT,30MonoWAV/30MonoT1.wav,2,1,4,13,,,,,0,3,3,12,0,1,1,8,,,,,,,,,1,0.842633879990899,072,001,2019_Aug_26_1014,MusicAffectPsychophysiology2019,3.0.5,60.32275460896031,
To what extent did the music make you feel ,HAPPY,30MonoWAV/30MonoT1.wav,2,1,4,13,,,,,0,3,3,12,0,2,2,6,,,,,,,,,1,2.1711568369937595,072,001,2019_Aug_26_1014,MusicAffectPsychophysiology2019,3.0.5,60.32275460896031,
To what extent did the music make you feel ,GUILTY,30MonoWAV/30MonoT1.wav,2,1,4,13,,,,,0,3,3,12,0,3,3,5,,,,,,,,,1,0.7560716070001945,072,001,2019_Aug_26_1014,MusicAffectPsychophysiology2019,3.0.5,60.32275460896031,
To what extent did the music make you feel ,FRUSTRATED,30MonoWAV/30MonoT1.wav,2,1,4,13,,,,,0,3,3,12,0,4,4,3,,,,,,,,,1,0.5853127159934957,072,001,2019_Aug_26_1014,MusicAffectPsychophysiology2019,3.0.5,60.32275460896031,
To what extent did the music make you feel ,EXCITED,30MonoWAV/30MonoT1.wav,2,1,4,13,,,,,0,3,3,12,0,5,5,7,,,,,,,,,1,0.75141712599725,072,001,2019_Aug_26_1014,MusicAffectPsychophysiology2019,3.0.5,60.32275460896031,
To what extent did the music make you feel ,ASHAMED,30MonoWAV/30MonoT1.wav,2,1,4,13,,,,,0,3,3,12,0,6,6,4,,,,,,,,,1,0.9044513519911561,072,001,2019_Aug_26_1014,MusicAffectPsychophysiology2019,3.0.5,60.32275460896031,
To what extent did the music make you feel ,ANGRY,30MonoWAV/30MonoT1.wav,2,1,4,13,,,,,0,3,3,12,0,7,7,2,,,,,,,,,1,0.6554129919968545,072,001,2019_Aug_26_1014,MusicAffectPsychophysiology2019,3.0.5,60.32275460896031,
To what extent did the music make you feel ,ANXIOUS ,30MonoWAV/30MonoT1.wav,2,1,4,13,,,,,0,3,3,12,0,8,8,1,,,,,,,,,1,0.5705261730036,072,001,2019_Aug_26_1014,MusicAffectPsychophysiology2019,3.0.5,60.32275460896031,
To what extent did the music make you feel ,TENDER,30MonoWAV/30MonoT1.wav,2,1,4,13,,,,,0,3,3,12,0,9,9,10,,,,,,,,,2,1.674705213008565,072,001,2019_Aug_26_1014,MusicAffectPsychophysiology2019,3.0.5,60.32275460896031,
To what extent did the music make you feel ,ACTIVE,30MonoWAV/30MonoT1.wav,2,1,4,13,,,,,0,3,3,12,0,10,10,9,,,,,,,,,1,0.6368174550007097,072,001,2019_Aug_26_1014,MusicAffectPsychophysiology2019,3.0.5,60.32275460896031,
To what extent did the music make you feel ,SCARED,30MonoWAV/30MonoT1.wav,2,1,4,13,,,,,0,3,3,12,0,11,11,11,,,,,,,,,1,0.6691735370113747,072,001,2019_Aug_26_1014,MusicAffectPsychophysiology2019,3.0.5,60.32275460896031,
,,30MonoWAV/30MonoT1.wav,2,1,4,13,,,,,0,3,3,12,,,,,,,,,,,,,,,072,001,2019_Aug_26_1014,MusicAffectPsychophysiology2019,3.0.5,60.32275460896031,
To what extent did the music make you feel ,SAD,30MonoWAV/30MonoT2.wav,2,1,4,14,,,,,0,4,4,13,0,0,0,0,,,5,3.7536397660005605,5,3.5205458810087293,5,1.7703736760013271,2,7.585773211001651,072,001,2019_Aug_26_1014,MusicAffectPsychophysiology2019,3.0.5,60.32275460896031,
To what extent did the music make you feel ,SCARED,30MonoWAV/30MonoT2.wav,2,1,4,14,,,,,0,4,4,13,0,1,1,11,,,,,,,,,1,1.2519287890027044,072,001,2019_Aug_26_1014,MusicAffectPsychophysiology2019,3.0.5,60.32275460896031,
To what extent did the music make you feel ,TENDER,30MonoWAV/30MonoT2.wav,2,1,4,14,,,,,0,4,4,13,0,2,2,10,,,,,,,,,4,2.1512205409962917,072,001,2019_Aug_26_1014,MusicAffectPsychophysiology2019,3.0.5,60.32275460896031,
To what extent did the music make you feel ,EXCITED,30MonoWAV/30MonoT2.wav,2,1,4,14,,,,,0,4,4,13,0,3,3,7,,,,,,,,,1,1.6523011829995085,072,001,2019_Aug_26_1014,MusicAffectPsychophysiology2019,3.0.5,60.32275460896031,
To what extent did the music make you feel ,ALERT,30MonoWAV/30MonoT2.wav,2,1,4,14,,,,,0,4,4,13,0,4,4,8,,,,,,,,,1,0.9364075420016889,072,001,2019_Aug_26_1014,MusicAffectPsychophysiology2019,3.0.5,60.32275460896031,
To what extent did the music make you feel ,FRUSTRATED,30MonoWAV/30MonoT2.wav,2,1,4,14,,,,,0,4,4,13,0,5,5,3,,,,,,,,,1,0.8031850169936661,072,001,2019_Aug_26_1014,MusicAffectPsychophysiology2019,3.0.5,60.32275460896031,
To what extent did the music make you feel ,ASHAMED,30MonoWAV/30MonoT2.wav,2,1,4,14,,,,,0,4,4,13,0,6,6,4,,,,,,,,,1,0.6173181919875788,072,001,2019_Aug_26_1014,MusicAffectPsychophysiology2019,3.0.5,60.32275460896031,
To what extent did the music make you feel ,ACTIVE,30MonoWAV/30MonoT2.wav,2,1,4,14,,,,,0,4,4,13,0,7,7,9,,,,,,,,,1,0.637368941999739,072,001,2019_Aug_26_1014,MusicAffectPsychophysiology2019,3.0.5,60.32275460896031,
To what extent did the music make you feel ,ANXIOUS ,30MonoWAV/30MonoT2.wav,2,1,4,14,,,,,0,4,4,13,0,8,8,1,,,,,,,,,1,0.5834776060073636,072,001,2019_Aug_26_1014,MusicAffectPsychophysiology2019,3.0.5,60.32275460896031,
To what extent did the music make you feel ,HAPPY,30MonoWAV/30MonoT2.wav,2,1,4,14,,,,,0,4,4,13,0,9,9,6,,,,,,,,,1,2.653208852992975,072,001,2019_Aug_26_1014,MusicAffectPsychophysiology2019,3.0.5,60.32275460896031,
To what extent did the music make you feel ,ANGRY,30MonoWAV/30MonoT2.wav,2,1,4,14,,,,,0,4,4,13,0,10,10,2,,,,,,,,,1,0.5670715309970547,072,001,2019_Aug_26_1014,MusicAffectPsychophysiology2019,3.0.5,60.32275460896031,
To what extent did the music make you feel ,GUILTY,30MonoWAV/30MonoT2.wav,2,1,4,14,,,,,0,4,4,13,0,11,11,5,,,,,,,,,1,0.5868989529990358,072,001,2019_Aug_26_1014,MusicAffectPsychophysiology2019,3.0.5,60.32275460896031,
,,30MonoWAV/30MonoT2.wav,2,1,4,14,,,,,0,4,4,13,,,,,,,,,,,,,,,072,001,2019_Aug_26_1014,MusicAffectPsychophysiology2019,3.0.5,60.32275460896031,
To what extent did the music make you feel ,ANXIOUS ,30MonoWAV/30MonoF4.wav,1,2,2,4,,,,,0,5,5,3,0,0,0,1,,,2,9.752213248997577,1,3.102327069005696,1,1.7705286779964808,3,5.874931559999823,072,001,2019_Aug_26_1014,MusicAffectPsychophysiology2019,3.0.5,60.32275460896031,
To what extent did the music make you feel ,ALERT,30MonoWAV/30MonoF4.wav,1,2,2,4,,,,,0,5,5,3,0,1,1,8,,,,,,,,,4,3.0359459379978944,072,001,2019_Aug_26_1014,MusicAffectPsychophysiology2019,3.0.5,60.32275460896031,
To what extent did the music make you feel ,SAD,30MonoWAV/30MonoF4.wav,1,2,2,4,,,,,0,5,5,3,0,2,2,0,,,,,,,,,1,1.3700509249902098,072,001,2019_Aug_26_1014,MusicAffectPsychophysiology2019,3.0.5,60.32275460896031,
To what extent did the music make you feel ,GUILTY,30MonoWAV/30MonoF4.wav,1,2,2,4,,,,,0,5,5,3,0,3,3,5,,,,,,,,,1,1.2700135839986615,072,001,2019_Aug_26_1014,MusicAffectPsychophysiology2019,3.0.5,60.32275460896031,
To what extent did the music make you feel ,HAPPY,30MonoWAV/30MonoF4.wav,1,2,2,4,,,,,0,5,5,3,0,4,4,6,,,,,,,,,1,0.6208673429937335,072,001,2019_Aug_26_1014,MusicAffectPsychophysiology2019,3.0.5,60.32275460896031,
To what extent did the music make you feel ,FRUSTRATED,30MonoWAV/30MonoF4.wav,1,2,2,4,,,,,0,5,5,3,0,5,5,3,,,,,,,,,1,1.008954058008385,072,001,2019_Aug_26_1014,MusicAffectPsychophysiology2019,3.0.5,60.32275460896031,
To what extent did the music make you feel ,SCARED,30MonoWAV/30MonoF4.wav,1,2,2,4,,,,,0,5,5,3,0,6,6,11,,,,,,,,,3,1.392588362999959,072,001,2019_Aug_26_1014,MusicAffectPsychophysiology2019,3.0.5,60.32275460896031,
To what extent did the music make you feel ,ANGRY,30MonoWAV/30MonoF4.wav,1,2,2,4,,,,,0,5,5,3,0,7,7,2,,,,,,,,,1,2.021881566004595,072,001,2019_Aug_26_1014,MusicAffectPsychophysiology2019,3.0.5,60.32275460896031,
To what extent did the music make you feel ,ASHAMED,30MonoWAV/30MonoF4.wav,1,2,2,4,,,,,0,5,5,3,0,8,8,4,,,,,,,,,1,2.0257489039940992,072,001,2019_Aug_26_1014,MusicAffectPsychophysiology2019,3.0.5,60.32275460896031,
To what extent did the music make you feel ,EXCITED,30MonoWAV/30MonoF4.wav,1,2,2,4,,,,,0,5,5,3,0,9,9,7,,,,,,,,,1,1.0748623889958253,072,001,2019_Aug_26_1014,MusicAffectPsychophysiology2019,3.0.5,60.32275460896031,
To what extent did the music make you feel ,TENDER,30MonoWAV/30MonoF4.wav,1,2,2,4,,,,,0,5,5,3,0,10,10,10,,,,,,,,,1,1.0421277149871457,072,001,2019_Aug_26_1014,MusicAffectPsychophysiology2019,3.0.5,60.32275460896031,
To what extent did the music make you feel ,ACTIVE,30MonoWAV/30MonoF4.wav,1,2,2,4,,,,,0,5,5,3,0,11,11,9,,,,,,,,,3,1.3882988580007805,072,001,2019_Aug_26_1014,MusicAffectPsychophysiology2019,3.0.5,60.32275460896031,
,,30MonoWAV/30MonoF4.wav,1,2,2,4,,,,,0,5,5,3,,,,,,,,,,,,,,,072,001,2019_Aug_26_1014,MusicAffectPsychophysiology2019,3.0.5,60.32275460896031,
To what extent did the music make you feel ,SCARED,30MonoWAV/30MonoH1.wav,2,2,1,5,,,,,0,6,6,4,0,0,0,11,,,4,3.119534190002014,4,2.770536355994409,3,2.303216305008391,2,1.336576960995444,072,001,2019_Aug_26_1014,MusicAffectPsychophysiology2019,3.0.5,60.32275460896031,
To what extent did the music make you feel ,EXCITED,30MonoWAV/30MonoH1.wav,2,2,1,5,,,,,0,6,6,4,0,1,1,7,,,,,,,,,4,2.5522380280017387,072,001,2019_Aug_26_1014,MusicAffectPsychophysiology2019,3.0.5,60.32275460896031,
To what extent did the music make you feel ,ASHAMED,30MonoWAV/30MonoH1.wav,2,2,1,5,,,,,0,6,6,4,0,2,2,4,,,,,,,,,2,0.8359448519913713,072,001,2019_Aug_26_1014,MusicAffectPsychophysiology2019,3.0.5,60.32275460896031,
To what extent did the music make you feel ,ALERT,30MonoWAV/30MonoH1.wav,2,2,1,5,,,,,0,6,6,4,0,3,3,8,,,,,,,,,4,1.9700437019928358,072,001,2019_Aug_26_1014,MusicAffectPsychophysiology2019,3.0.5,60.32275460896031,
To what extent did the music make you feel ,ANGRY,30MonoWAV/30MonoH1.wav,2,2,1,5,,,,,0,6,6,4,0,4,4,2,,,,,,,,,2,1.1692423589993268,072,001,2019_Aug_26_1014,MusicAffectPsychophysiology2019,3.0.5,60.32275460896031,
To what extent did the music make you feel ,TENDER,30MonoWAV/30MonoH1.wav,2,2,1,5,,,,,0,6,6,4,0,5,5,10,,,,,,,,,2,7.319418396989931,072,001,2019_Aug_26_1014,MusicAffectPsychophysiology2019,3.0.5,60.32275460896031,
To what extent did the music make you feel ,FRUSTRATED,30MonoWAV/30MonoH1.wav,2,2,1,5,,,,,0,6,6,4,0,6,6,3,,,,,,,,,1,4.185597483010497,072,001,2019_Aug_26_1014,MusicAffectPsychophysiology2019,3.0.5,60.32275460896031,
To what extent did the music make you feel ,HAPPY,30MonoWAV/30MonoH1.wav,2,2,1,5,,,,,0,6,6,4,0,7,7,6,,,,,,,,,3,2.4864278300083242,072,001,2019_Aug_26_1014,MusicAffectPsychophysiology2019,3.0.5,60.32275460896031,
To what extent did the music make you feel ,SAD,30MonoWAV/30MonoH1.wav,2,2,1,5,,,,,0,6,6,4,0,8,8,0,,,,,,,,,1,1.4696627290104516,072,001,2019_Aug_26_1014,MusicAffectPsychophysiology2019,3.0.5,60.32275460896031,
To what extent did the music make you feel ,ANXIOUS ,30MonoWAV/30MonoH1.wav,2,2,1,5,,,,,0,6,6,4,0,9,9,1,,,,,,,,,1,1.4859196760080522,072,001,2019_Aug_26_1014,MusicAffectPsychophysiology2019,3.0.5,60.32275460896031,
To what extent did the music make you feel ,GUILTY,30MonoWAV/30MonoH1.wav,2,2,1,5,,,,,0,6,6,4,0,10,10,5,,,,,,,,,1,0.8029638250009157,072,001,2019_Aug_26_1014,MusicAffectPsychophysiology2019,3.0.5,60.32275460896031,
To what extent did the music make you feel ,ACTIVE,30MonoWAV/30MonoH1.wav,2,2,1,5,,,,,0,6,6,4,0,11,11,9,,,,,,,,,3,1.0535489390022121,072,001,2019_Aug_26_1014,MusicAffectPsychophysiology2019,3.0.5,60.32275460896031,
,,30MonoWAV/30MonoH1.wav,2,2,1,5,,,,,0,6,6,4,,,,,,,,,,,,,,,072,001,2019_Aug_26_1014,MusicAffectPsychophysiology2019,3.0.5,60.32275460896031,
To what extent did the music make you feel ,SAD,30MonoWAV/30MonoS2.wav,1,1,3,10,,,,,0,7,7,9,0,0,0,0,,,2,3.801666239000042,2,3.220135390001815,2,2.854124186997069,4,2.3455770060099894,072,001,2019_Aug_26_1014,MusicAffectPsychophysiology2019,3.0.5,60.32275460896031,
To what extent did the music make you feel ,HAPPY,30MonoWAV/30MonoS2.wav,1,1,3,10,,,,,0,7,7,9,0,1,1,6,,,,,,,,,1,1.3199107170075877,072,001,2019_Aug_26_1014,MusicAffectPsychophysiology2019,3.0.5,60.32275460896031,
To what extent did the music make you feel ,GUILTY,30MonoWAV/30MonoS2.wav,1,1,3,10,,,,,0,7,7,9,0,2,2,5,,,,,,,,,1,1.6200178470026003,072,001,2019_Aug_26_1014,MusicAffectPsychophysiology2019,3.0.5,60.32275460896031,
To what extent did the music make you feel ,ACTIVE,30MonoWAV/30MonoS2.wav,1,1,3,10,,,,,0,7,7,9,0,3,3,9,,,,,,,,,1,2.236870186010492,072,001,2019_Aug_26_1014,MusicAffectPsychophysiology2019,3.0.5,60.32275460896031,
To what extent did the music make you feel ,ANGRY,30MonoWAV/30MonoS2.wav,1,1,3,10,,,,,0,7,7,9,0,4,4,2,,,,,,,,,1,0.9864040199900046,072,001,2019_Aug_26_1014,MusicAffectPsychophysiology2019,3.0.5,60.32275460896031,
To what extent did the music make you feel ,ANXIOUS ,30MonoWAV/30MonoS2.wav,1,1,3,10,,,,,0,7,7,9,0,5,5,1,,,,,,,,,1,1.4533605580072617,072,001,2019_Aug_26_1014,MusicAffectPsychophysiology2019,3.0.5,60.32275460896031,
To what extent did the music make you feel ,EXCITED,30MonoWAV/30MonoS2.wav,1,1,3,10,,,,,0,7,7,9,0,6,6,7,,,,,,,,,1,1.109801904996857,072,001,2019_Aug_26_1014,MusicAffectPsychophysiology2019,3.0.5,60.32275460896031,
To what extent did the music make you feel ,TENDER,30MonoWAV/30MonoS2.wav,1,1,3,10,,,,,0,7,7,9,0,7,7,10,,,,,,,,,2,2.559614967991365,072,001,2019_Aug_26_1014,MusicAffectPsychophysiology2019,3.0.5,60.32275460896031,
To what extent did the music make you feel ,ASHAMED,30MonoWAV/30MonoS2.wav,1,1,3,10,,,,,0,7,7,9,0,8,8,4,,,,,,,,,1,0.6876263839949388,072,001,2019_Aug_26_1014,MusicAffectPsychophysiology2019,3.0.5,60.32275460896031,
To what extent did the music make you feel ,ALERT,30MonoWAV/30MonoS2.wav,1,1,3,10,,,,,0,7,7,9,0,9,9,8,,,,,,,,,1,1.59358265499759,072,001,2019_Aug_26_1014,MusicAffectPsychophysiology2019,3.0.5,60.32275460896031,
To what extent did the music make you feel ,SCARED,30MonoWAV/30MonoS2.wav,1,1,3,10,,,,,0,7,7,9,0,10,10,11,,,,,,,,,1,3.443812261990388,072,001,2019_Aug_26_1014,MusicAffectPsychophysiology2019,3.0.5,60.32275460896031,
To what extent did the music make you feel ,FRUSTRATED,30MonoWAV/30MonoS2.wav,1,1,3,10,,,,,0,7,7,9,0,11,11,3,,,,,,,,,1,0.9584943310037488,072,001,2019_Aug_26_1014,MusicAffectPsychophysiology2019,3.0.5,60.32275460896031,
,,30MonoWAV/30MonoS2.wav,1,1,3,10,,,,,0,7,7,9,,,,,,,,,,,,,,,072,001,2019_Aug_26_1014,MusicAffectPsychophysiology2019,3.0.5,60.32275460896031,
To what extent did the music make you feel ,ANXIOUS ,30MonoWAV/30MonoF3.wav,1,2,2,3,,,,,0,8,8,2,0,0,0,1,,,3,6.000419019997935,2,2.004256923988578,2,2.4865427000040654,1,2.5199888960050885,072,001,2019_Aug_26_1014,MusicAffectPsychophysiology2019,3.0.5,60.32275460896031,
To what extent did the music make you feel ,SAD,30MonoWAV/30MonoF3.wav,1,2,2,3,,,,,0,8,8,2,0,1,1,0,,,,,,,,,1,1.7700135880004382,072,001,2019_Aug_26_1014,MusicAffectPsychophysiology2019,3.0.5,60.32275460896031,
To what extent did the music make you feel ,HAPPY,30MonoWAV/30MonoF3.wav,1,2,2,3,,,,,0,8,8,2,0,2,2,6,,,,,,,,,1,1.7713615930115338,072,001,2019_Aug_26_1014,MusicAffectPsychophysiology2019,3.0.5,60.32275460896031,
To what extent did the music make you feel ,EXCITED,30MonoWAV/30MonoF3.wav,1,2,2,3,,,,,0,8,8,2,0,3,3,7,,,,,,,,,1,1.1037838089978322,072,001,2019_Aug_26_1014,MusicAffectPsychophysiology2019,3.0.5,60.32275460896031,
To what extent did the music make you feel ,TENDER,30MonoWAV/30MonoF3.wav,1,2,2,3,,,,,0,8,8,2,0,4,4,10,,,,,,,,,1,1.2535672899975907,072,001,2019_Aug_26_1014,MusicAffectPsychophysiology2019,3.0.5,60.32275460896031,
To what extent did the music make you feel ,ASHAMED,30MonoWAV/30MonoF3.wav,1,2,2,3,,,,,0,8,8,2,0,5,5,4,,,,,,,,,1,1.80279850999068,072,001,2019_Aug_26_1014,MusicAffectPsychophysiology2019,3.0.5,60.32275460896031,
To what extent did the music make you feel ,GUILTY,30MonoWAV/30MonoF3.wav,1,2,2,3,,,,,0,8,8,2,0,6,6,5,,,,,,,,,1,5.119086139995488,072,001,2019_Aug_26_1014,MusicAffectPsychophysiology2019,3.0.5,60.32275460896031,
To what extent did the music make you feel ,SCARED,30MonoWAV/30MonoF3.wav,1,2,2,3,,,,,0,8,8,2,0,7,7,11,,,,,,,,,1,0.9189013040013378,072,001,2019_Aug_26_1014,MusicAffectPsychophysiology2019,3.0.5,60.32275460896031,
To what extent did the music make you feel ,ALERT,30MonoWAV/30MonoF3.wav,1,2,2,3,,,,,0,8,8,2,0,8,8,8,,,,,,,,,2,3.9687970640079584,072,001,2019_Aug_26_1014,MusicAffectPsychophysiology2019,3.0.5,60.32275460896031,
To what extent did the music make you feel ,ACTIVE,30MonoWAV/30MonoF3.wav,1,2,2,3,,,,,0,8,8,2,0,9,9,9,,,,,,,,,2,2.419519744988065,072,001,2019_Aug_26_1014,MusicAffectPsychophysiology2019,3.0.5,60.32275460896031,
To what extent did the music make you feel ,ANGRY,30MonoWAV/30MonoF3.wav,1,2,2,3,,,,,0,8,8,2,0,10,10,2,,,,,,,,,2,2.7524098029971356,072,001,2019_Aug_26_1014,MusicAffectPsychophysiology2019,3.0.5,60.32275460896031,
To what extent did the music make you feel ,FRUSTRATED,30MonoWAV/30MonoF3.wav,1,2,2,3,,,,,0,8,8,2,0,11,11,3,,,,,,,,,2,3.800313008003286,072,001,2019_Aug_26_1014,MusicAffectPsychophysiology2019,3.0.5,60.32275460896031,
,,30MonoWAV/30MonoF3.wav,1,2,2,3,,,,,0,8,8,2,,,,,,,,,,,,,,,072,001,2019_Aug_26_1014,MusicAffectPsychophysiology2019,3.0.5,60.32275460896031,
To what extent did the music make you feel ,ACTIVE,30MonoWAV/30MonoF1.wav,1,2,2,1,,,,,0,9,9,0,0,0,0,9,,,2,4.952667859004578,1,1.419691008006339,1,1.4356398700037971,2,3.9107674219994806,072,001,2019_Aug_26_1014,MusicAffectPsychophysiology2019,3.0.5,60.32275460896031,
To what extent did the music make you feel ,ANXIOUS ,30MonoWAV/30MonoF1.wav,1,2,2,1,,,,,0,9,9,0,0,1,1,1,,,,,,,,,2,1.2460402760043507,072,001,2019_Aug_26_1014,MusicAffectPsychophysiology2019,3.0.5,60.32275460896031,
To what extent did the music make you feel ,ANGRY,30MonoWAV/30MonoF1.wav,1,2,2,1,,,,,0,9,9,0,0,2,2,2,,,,,,,,,1,2.079005524996319,072,001,2019_Aug_26_1014,MusicAffectPsychophysiology2019,3.0.5,60.32275460896031,
To what extent did the music make you feel ,ASHAMED,30MonoWAV/30MonoF1.wav,1,2,2,1,,,,,0,9,9,0,0,3,3,4,,,,,,,,,1,1.258651165990159,072,001,2019_Aug_26_1014,MusicAffectPsychophysiology2019,3.0.5,60.32275460896031,
To what extent did the music make you feel ,HAPPY,30MonoWAV/30MonoF1.wav,1,2,2,1,,,,,0,9,9,0,0,4,4,6,,,,,,,,,1,0.703144165003323,072,001,2019_Aug_26_1014,MusicAffectPsychophysiology2019,3.0.5,60.32275460896031,
To what extent did the music make you feel ,FRUSTRATED,30MonoWAV/30MonoF1.wav,1,2,2,1,,,,,0,9,9,0,0,5,5,3,,,,,,,,,1,1.5773380620084936,072,001,2019_Aug_26_1014,MusicAffectPsychophysiology2019,3.0.5,60.32275460896031,
To what extent did the music make you feel ,SAD,30MonoWAV/30MonoF1.wav,1,2,2,1,,,,,0,9,9,0,0,6,6,0,,,,,,,,,1,2.6195304809953086,072,001,2019_Aug_26_1014,MusicAffectPsychophysiology2019,3.0.5,60.32275460896031,
To what extent did the music make you feel ,SCARED,30MonoWAV/30MonoF1.wav,1,2,2,1,,,,,0,9,9,0,0,7,7,11,,,,,,,,,4,3.0236922440089984,072,001,2019_Aug_26_1014,MusicAffectPsychophysiology2019,3.0.5,60.32275460896031,
To what extent did the music make you feel ,TENDER,30MonoWAV/30MonoF1.wav,1,2,2,1,,,,,0,9,9,0,0,8,8,10,,,,,,,,,1,1.3698434599937173,072,001,2019_Aug_26_1014,MusicAffectPsychophysiology2019,3.0.5,60.32275460896031,
To what extent did the music make you feel ,EXCITED,30MonoWAV/30MonoF1.wav,1,2,2,1,,,,,0,9,9,0,0,9,9,7,,,,,,,,,1,0.9769976009993115,072,001,2019_Aug_26_1014,MusicAffectPsychophysiology2019,3.0.5,60.32275460896031,
To what extent did the music make you feel ,ALERT,30MonoWAV/30MonoF1.wav,1,2,2,1,,,,,0,9,9,0,0,10,10,8,,,,,,,,,3,1.8926844850066118,072,001,2019_Aug_26_1014,MusicAffectPsychophysiology2019,3.0.5,60.32275460896031,
To what extent did the music make you feel ,GUILTY,30MonoWAV/30MonoF1.wav,1,2,2,1,,,,,0,9,9,0,0,11,11,5,,,,,,,,,1,2.201929212998948,072,001,2019_Aug_26_1014,MusicAffectPsychophysiology2019,3.0.5,60.32275460896031,
,,30MonoWAV/30MonoF1.wav,1,2,2,1,,,,,0,9,9,0,,,,,,,,,,,,,,,072,001,2019_Aug_26_1014,MusicAffectPsychophysiology2019,3.0.5,60.32275460896031,
To what extent did the music make you feel ,SAD,30MonoWAV/30MonoS4.wav,1,1,3,12,,,,,0,10,10,11,0,0,0,0,,,1,3.7030700420000358,1,2.0516508069995325,1,2.803998738003429,4,2.416620000003604,072,001,2019_Aug_26_1014,MusicAffectPsychophysiology2019,3.0.5,60.32275460896031,
To what extent did the music make you feel ,ANXIOUS ,30MonoWAV/30MonoS4.wav,1,1,3,12,,,,,0,10,10,11,0,1,1,1,,,,,,,,,1,1.5529552619991591,072,001,2019_Aug_26_1014,MusicAffectPsychophysiology2019,3.0.5,60.32275460896031,
To what extent did the music make you feel ,HAPPY,30MonoWAV/30MonoS4.wav,1,1,3,12,,,,,0,10,10,11,0,2,2,6,,,,,,,,,1,0.519545064002159,072,001,2019_Aug_26_1014,MusicAffectPsychophysiology2019,3.0.5,60.32275460896031,
To what extent did the music make you feel ,ACTIVE,30MonoWAV/30MonoS4.wav,1,1,3,12,,,,,0,10,10,11,0,3,3,9,,,,,,,,,1,0.5860314979945542,072,001,2019_Aug_26_1014,MusicAffectPsychophysiology2019,3.0.5,60.32275460896031,
To what extent did the music make you feel ,ALERT,30MonoWAV/30MonoS4.wav,1,1,3,12,,,,,0,10,10,11,0,4,4,8,,,,,,,,,1,0.5358452750078868,072,001,2019_Aug_26_1014,MusicAffectPsychophysiology2019,3.0.5,60.32275460896031,
To what extent did the music make you feel ,FRUSTRATED,30MonoWAV/30MonoS4.wav,1,1,3,12,,,,,0,10,10,11,0,5,5,3,,,,,,,,,1,0.7702438359992811,072,001,2019_Aug_26_1014,MusicAffectPsychophysiology2019,3.0.5,60.32275460896031,
To what extent did the music make you feel ,GUILTY,30MonoWAV/30MonoS4.wav,1,1,3,12,,,,,0,10,10,11,0,6,6,5,,,,,,,,,2,3.7696698990039295,072,001,2019_Aug_26_1014,MusicAffectPsychophysiology2019,3.0.5,60.32275460896031,
To what extent did the music make you feel ,TENDER,30MonoWAV/30MonoS4.wav,1,1,3,12,,,,,0,10,10,11,0,7,7,10,,,,,,,,,2,2.1367145639960654,072,001,2019_Aug_26_1014,MusicAffectPsychophysiology2019,3.0.5,60.32275460896031,
To what extent did the music make you feel ,EXCITED,30MonoWAV/30MonoS4.wav,1,1,3,12,,,,,0,10,10,11,0,8,8,7,,,,,,,,,1,0.6162059679918457,072,001,2019_Aug_26_1014,MusicAffectPsychophysiology2019,3.0.5,60.32275460896031,
To what extent did the music make you feel ,ANGRY,30MonoWAV/30MonoS4.wav,1,1,3,12,,,,,0,10,10,11,0,9,9,2,,,,,,,,,1,3.001585570993484,072,001,2019_Aug_26_1014,MusicAffectPsychophysiology2019,3.0.5,60.32275460896031,
To what extent did the music make you feel ,SCARED,30MonoWAV/30MonoS4.wav,1,1,3,12,,,,,0,10,10,11,0,10,10,11,,,,,,,,,1,1.1018766180059174,072,001,2019_Aug_26_1014,MusicAffectPsychophysiology2019,3.0.5,60.32275460896031,
To what extent did the music make you feel ,ASHAMED,30MonoWAV/30MonoS4.wav,1,1,3,12,,,,,0,10,10,11,0,11,11,4,,,,,,,,,2,1.6666958569985582,072,001,2019_Aug_26_1014,MusicAffectPsychophysiology2019,3.0.5,60.32275460896031,
,,30MonoWAV/30MonoS4.wav,1,1,3,12,,,,,0,10,10,11,,,,,,,,,,,,,,,072,001,2019_Aug_26_1014,MusicAffectPsychophysiology2019,3.0.5,60.32275460896031,
To what extent did the music make you feel ,ACTIVE,30MonoWAV/30MonoH2.wav,2,2,1,6,,,,,0,11,11,5,0,0,0,9,,,3,5.153313532995526,4,2.2834674379992066,3,4.886316916992655,3,2.920948139988468,072,001,2019_Aug_26_1014,MusicAffectPsychophysiology2019,3.0.5,60.32275460896031,
To what extent did the music make you feel ,ALERT,30MonoWAV/30MonoH2.wav,2,2,1,6,,,,,0,11,11,5,0,1,1,8,,,,,,,,,3,0.6119754679966718,072,001,2019_Aug_26_1014,MusicAffectPsychophysiology2019,3.0.5,60.32275460896031,
To what extent did the music make you feel ,TENDER,30MonoWAV/30MonoH2.wav,2,2,1,6,,,,,0,11,11,5,0,2,2,10,,,,,,,,,2,2.445732123000198,072,001,2019_Aug_26_1014,MusicAffectPsychophysiology2019,3.0.5,60.32275460896031,
To what extent did the music make you feel ,ANGRY,30MonoWAV/30MonoH2.wav,2,2,1,6,,,,,0,11,11,5,0,3,3,2,,,,,,,,,1,0.9199627319903811,072,001,2019_Aug_26_1014,MusicAffectPsychophysiology2019,3.0.5,60.32275460896031,
To what extent did the music make you feel ,ANXIOUS ,30MonoWAV/30MonoH2.wav,2,2,1,6,,,,,0,11,11,5,0,4,4,1,,,,,,,,,1,0.6795497290004278,072,001,2019_Aug_26_1014,MusicAffectPsychophysiology2019,3.0.5,60.32275460896031,
To what extent did the music make you feel ,FRUSTRATED,30MonoWAV/30MonoH2.wav,2,2,1,6,,,,,0,11,11,5,0,5,5,3,,,,,,,,,1,0.6289189710078062,072,001,2019_Aug_26_1014,MusicAffectPsychophysiology2019,3.0.5,60.32275460896031,
To what extent did the music make you feel ,SAD,30MonoWAV/30MonoH2.wav,2,2,1,6,,,,,0,11,11,5,0,6,6,0,,,,,,,,,1,1.636465126008261,072,001,2019_Aug_26_1014,MusicAffectPsychophysiology2019,3.0.5,60.32275460896031,
To what extent did the music make you feel ,SCARED,30MonoWAV/30MonoH2.wav,2,2,1,6,,,,,0,11,11,5,0,7,7,11,,,,,,,,,1,0.6799243460118305,072,001,2019_Aug_26_1014,MusicAffectPsychophysiology2019,3.0.5,60.32275460896031,
To what extent did the music make you feel ,GUILTY,30MonoWAV/30MonoH2.wav,2,2,1,6,,,,,0,11,11,5,0,8,8,5,,,,,,,,,1,0.6789392349892296,072,001,2019_Aug_26_1014,MusicAffectPsychophysiology2019,3.0.5,60.32275460896031,
To what extent did the music make you feel ,ASHAMED,30MonoWAV/30MonoH2.wav,2,2,1,6,,,,,0,11,11,5,0,9,9,4,,,,,,,,,1,0.5505716020124964,072,001,2019_Aug_26_1014,MusicAffectPsychophysiology2019,3.0.5,60.32275460896031,
To what extent did the music make you feel ,EXCITED,30MonoWAV/30MonoH2.wav,2,2,1,6,,,,,0,11,11,5,0,10,10,7,,,,,,,,,3,1.1534112119989004,072,001,2019_Aug_26_1014,MusicAffectPsychophysiology2019,3.0.5,60.32275460896031,
To what extent did the music make you feel ,HAPPY,30MonoWAV/30MonoH2.wav,2,2,1,6,,,,,0,11,11,5,0,11,11,6,,,,,,,,,4,1.5037021210009698,072,001,2019_Aug_26_1014,MusicAffectPsychophysiology2019,3.0.5,60.32275460896031,
,,30MonoWAV/30MonoH2.wav,2,2,1,6,,,,,0,11,11,5,,,,,,,,,,,,,,,072,001,2019_Aug_26_1014,MusicAffectPsychophysiology2019,3.0.5,60.32275460896031,
To what extent did the music make you feel ,SAD,30MonoWAV/30MonoS1.wav,1,1,3,9,,,,,0,12,12,8,0,0,0,0,,,3,5.22168113499356,2,2.2688977219950175,2,2.537451152005815,3,2.5571117630024673,072,001,2019_Aug_26_1014,MusicAffectPsychophysiology2019,3.0.5,60.32275460896031,
To what extent did the music make you feel ,ALERT,30MonoWAV/30MonoS1.wav,1,1,3,9,,,,,0,12,12,8,0,1,1,8,,,,,,,,,1,1.3048648990079528,072,001,2019_Aug_26_1014,MusicAffectPsychophysiology2019,3.0.5,60.32275460896031,
To what extent did the music make you feel ,FRUSTRATED,30MonoWAV/30MonoS1.wav,1,1,3,9,,,,,0,12,12,8,0,2,2,3,,,,,,,,,1,0.9225654340116307,072,001,2019_Aug_26_1014,MusicAffectPsychophysiology2019,3.0.5,60.32275460896031,
To what extent did the music make you feel ,ANGRY,30MonoWAV/30MonoS1.wav,1,1,3,9,,,,,0,12,12,8,0,3,3,2,,,,,,,,,1,1.0216623790038284,072,001,2019_Aug_26_1014,MusicAffectPsychophysiology2019,3.0.5,60.32275460896031,
To what extent did the music make you feel ,GUILTY,30MonoWAV/30MonoS1.wav,1,1,3,9,,,,,0,12,12,8,0,4,4,5,,,,,,,,,2,1.6535250099987024,072,001,2019_Aug_26_1014,MusicAffectPsychophysiology2019,3.0.5,60.32275460896031,
To what extent did the music make you feel ,ANXIOUS ,30MonoWAV/30MonoS1.wav,1,1,3,9,,,,,0,12,12,8,0,5,5,1,,,,,,,,,1,1.3518145679990994,072,001,2019_Aug_26_1014,MusicAffectPsychophysiology2019,3.0.5,60.32275460896031,
To what extent did the music make you feel ,ACTIVE,30MonoWAV/30MonoS1.wav,1,1,3,9,,,,,0,12,12,8,0,6,6,9,,,,,,,,,1,0.9870217249990674,072,001,2019_Aug_26_1014,MusicAffectPsychophysiology2019,3.0.5,60.32275460896031,
To what extent did the music make you feel ,HAPPY,30MonoWAV/30MonoS1.wav,1,1,3,9,,,,,0,12,12,8,0,7,7,6,,,,,,,,,1,1.1366660180065082,072,001,2019_Aug_26_1014,MusicAffectPsychophysiology2019,3.0.5,60.32275460896031,
To what extent did the music make you feel ,EXCITED,30MonoWAV/30MonoS1.wav,1,1,3,9,,,,,0,12,12,8,0,8,8,7,,,,,,,,,1,0.6551291549985763,072,001,2019_Aug_26_1014,MusicAffectPsychophysiology2019,3.0.5,60.32275460896031,
To what extent did the music make you feel ,ASHAMED,30MonoWAV/30MonoS1.wav,1,1,3,9,,,,,0,12,12,8,0,9,9,4,,,,,,,,,3,0.6182072270021308,072,001,2019_Aug_26_1014,MusicAffectPsychophysiology2019,3.0.5,60.32275460896031,
To what extent did the music make you feel ,SCARED,30MonoWAV/30MonoS1.wav,1,1,3,9,,,,,0,12,12,8,0,10,10,11,,,,,,,,,1,2.7377884090092266,072,001,2019_Aug_26_1014,MusicAffectPsychophysiology2019,3.0.5,60.32275460896031,
To what extent did the music make you feel ,TENDER,30MonoWAV/30MonoS1.wav,1,1,3,9,,,,,0,12,12,8,0,11,11,10,,,,,,,,,3,1.3541258579934947,072,001,2019_Aug_26_1014,MusicAffectPsychophysiology2019,3.0.5,60.32275460896031,
,,30MonoWAV/30MonoS1.wav,1,1,3,9,,,,,0,12,12,8,,,,,,,,,,,,,,,072,001,2019_Aug_26_1014,MusicAffectPsychophysiology2019,3.0.5,60.32275460896031,
To what extent did the music make you feel ,HAPPY,30MonoWAV/30MonoH4.wav,2,2,1,8,,,,,0,13,13,7,0,0,0,6,,,4,3.4368510019994574,4,1.053711407002993,4,1.351242397009628,4,1.6007588610082166,072,001,2019_Aug_26_1014,MusicAffectPsychophysiology2019,3.0.5,60.32275460896031,
To what extent did the music make you feel ,EXCITED,30MonoWAV/30MonoH4.wav,2,2,1,8,,,,,0,13,13,7,0,1,1,7,,,,,,,,,4,0.9323457290010992,072,001,2019_Aug_26_1014,MusicAffectPsychophysiology2019,3.0.5,60.32275460896031,
To what extent did the music make you feel ,SAD,30MonoWAV/30MonoH4.wav,2,2,1,8,,,,,0,13,13,7,0,2,2,0,,,,,,,,,1,1.1190824779914692,072,001,2019_Aug_26_1014,MusicAffectPsychophysiology2019,3.0.5,60.32275460896031,
To what extent did the music make you feel ,ASHAMED,30MonoWAV/30MonoH4.wav,2,2,1,8,,,,,0,13,13,7,0,3,3,4,,,,,,,,,1,0.48670183699869085,072,001,2019_Aug_26_1014,MusicAffectPsychophysiology2019,3.0.5,60.32275460896031,
To what extent did the music make you feel ,TENDER,30MonoWAV/30MonoH4.wav,2,2,1,8,,,,,0,13,13,7,0,4,4,10,,,,,,,,,1,0.45303671299188863,072,001,2019_Aug_26_1014,MusicAffectPsychophysiology2019,3.0.5,60.32275460896031,
To what extent did the music make you feel ,FRUSTRATED,30MonoWAV/30MonoH4.wav,2,2,1,8,,,,,0,13,13,7,0,5,5,3,,,,,,,,,1,0.5660958369990112,072,001,2019_Aug_26_1014,MusicAffectPsychophysiology2019,3.0.5,60.32275460896031,
To what extent did the music make you feel ,GUILTY,30MonoWAV/30MonoH4.wav,2,2,1,8,,,,,0,13,13,7,0,6,6,5,,,,,,,,,1,0.4524875240022084,072,001,2019_Aug_26_1014,MusicAffectPsychophysiology2019,3.0.5,60.32275460896031,
To what extent did the music make you feel ,ANXIOUS ,30MonoWAV/30MonoH4.wav,2,2,1,8,,,,,0,13,13,7,0,7,7,1,,,,,,,,,1,0.38461032501072623,072,001,2019_Aug_26_1014,MusicAffectPsychophysiology2019,3.0.5,60.32275460896031,
To what extent did the music make you feel ,ACTIVE,30MonoWAV/30MonoH4.wav,2,2,1,8,,,,,0,13,13,7,0,8,8,9,,,,,,,,,1,0.35231650799687486,072,001,2019_Aug_26_1014,MusicAffectPsychophysiology2019,3.0.5,60.32275460896031,
To what extent did the music make you feel ,ANGRY,30MonoWAV/30MonoH4.wav,2,2,1,8,,,,,0,13,13,7,0,9,9,2,,,,,,,,,1,1.0023854169994593,072,001,2019_Aug_26_1014,MusicAffectPsychophysiology2019,3.0.5,60.32275460896031,
To what extent did the music make you feel ,ALERT,30MonoWAV/30MonoH4.wav,2,2,1,8,,,,,0,13,13,7,0,10,10,8,,,,,,,,,4,2.452882582991151,072,001,2019_Aug_26_1014,MusicAffectPsychophysiology2019,3.0.5,60.32275460896031,
To what extent did the music make you feel ,SCARED,30MonoWAV/30MonoH4.wav,2,2,1,8,,,,,0,13,13,7,0,11,11,11,,,,,,,,,1,0.8648087760084309,072,001,2019_Aug_26_1014,MusicAffectPsychophysiology2019,3.0.5,60.32275460896031,
,,30MonoWAV/30MonoH4.wav,2,2,1,8,,,,,0,13,13,7,,,,,,,,,,,,,,,072,001,2019_Aug_26_1014,MusicAffectPsychophysiology2019,3.0.5,60.32275460896031,
To what extent did the music make you feel ,ACTIVE,30MonoWAV/30MonoT4.wav,2,1,4,16,,,,,0,14,14,15,0,0,0,9,,,5,3.236781642001006,5,1.4342404889903264,5,1.0860908469912829,3,2.425092350997147,072,001,2019_Aug_26_1014,MusicAffectPsychophysiology2019,3.0.5,60.32275460896031,
To what extent did the music make you feel ,HAPPY,30MonoWAV/30MonoT4.wav,2,1,4,16,,,,,0,14,14,15,0,1,1,6,,,,,,,,,4,2.402989920010441,072,001,2019_Aug_26_1014,MusicAffectPsychophysiology2019,3.0.5,60.32275460896031,
To what extent did the music make you feel ,SAD,30MonoWAV/30MonoT4.wav,2,1,4,16,,,,,0,14,14,15,0,2,2,0,,,,,,,,,1,1.5204172439989634,072,001,2019_Aug_26_1014,MusicAffectPsychophysiology2019,3.0.5,60.32275460896031,
To what extent did the music make you feel ,ASHAMED,30MonoWAV/30MonoT4.wav,2,1,4,16,,,,,0,14,14,15,0,3,3,4,,,,,,,,,1,0.7076148640044266,072,001,2019_Aug_26_1014,MusicAffectPsychophysiology2019,3.0.5,60.32275460896031,
To what extent did the music make you feel ,ALERT,30MonoWAV/30MonoT4.wav,2,1,4,16,,,,,0,14,14,15,0,4,4,8,,,,,,,,,3,2.0033534899994265,072,001,2019_Aug_26_1014,MusicAffectPsychophysiology2019,3.0.5,60.32275460896031,
To what extent did the music make you feel ,ANGRY,30MonoWAV/30MonoT4.wav,2,1,4,16,,,,,0,14,14,15,0,5,5,2,,,,,,,,,1,0.642448818005505,072,001,2019_Aug_26_1014,MusicAffectPsychophysiology2019,3.0.5,60.32275460896031,
To what extent did the music make you feel ,ANXIOUS ,30MonoWAV/30MonoT4.wav,2,1,4,16,,,,,0,14,14,15,0,6,6,1,,,,,,,,,1,1.091578801992,072,001,2019_Aug_26_1014,MusicAffectPsychophysiology2019,3.0.5,60.32275460896031,
To what extent did the music make you feel ,GUILTY,30MonoWAV/30MonoT4.wav,2,1,4,16,,,,,0,14,14,15,0,7,7,5,,,,,,,,,1,0.5193142780044582,072,001,2019_Aug_26_1014,MusicAffectPsychophysiology2019,3.0.5,60.32275460896031,
To what extent did the music make you feel ,FRUSTRATED,30MonoWAV/30MonoT4.wav,2,1,4,16,,,,,0,14,14,15,0,8,8,3,,,,,,,,,1,0.5339661159960087,072,001,2019_Aug_26_1014,MusicAffectPsychophysiology2019,3.0.5,60.32275460896031,
To what extent did the music make you feel ,EXCITED,30MonoWAV/30MonoT4.wav,2,1,4,16,,,,,0,14,14,15,0,9,9,7,,,,,,,,,3,1.607492713999818,072,001,2019_Aug_26_1014,MusicAffectPsychophysiology2019,3.0.5,60.32275460896031,
To what extent did the music make you feel ,SCARED,30MonoWAV/30MonoT4.wav,2,1,4,16,,,,,0,14,14,15,0,10,10,11,,,,,,,,,1,1.1907557880040258,072,001,2019_Aug_26_1014,MusicAffectPsychophysiology2019,3.0.5,60.32275460896031,
To what extent did the music make you feel ,TENDER,30MonoWAV/30MonoT4.wav,2,1,4,16,,,,,0,14,14,15,0,11,11,10,,,,,,,,,3,1.1359105769952293,072,001,2019_Aug_26_1014,MusicAffectPsychophysiology2019,3.0.5,60.32275460896031,
,,30MonoWAV/30MonoT4.wav,2,1,4,16,,,,,0,14,14,15,,,,,,,,,,,,,,,072,001,2019_Aug_26_1014,MusicAffectPsychophysiology2019,3.0.5,60.32275460896031,
To what extent did the music make you feel ,ACTIVE,30MonoWAV/30MonoS3.wav,1,1,3,11,,,,,0,15,15,10,0,0,0,9,,,3,6.087120778000099,3,2.5533614110026974,3,1.9186210870102514,2,2.0699370359943714,072,001,2019_Aug_26_1014,MusicAffectPsychophysiology2019,3.0.5,60.32275460896031,
To what extent did the music make you feel ,GUILTY,30MonoWAV/30MonoS3.wav,1,1,3,11,,,,,0,15,15,10,0,1,1,5,,,,,,,,,2,0.5859868890111102,072,001,2019_Aug_26_1014,MusicAffectPsychophysiology2019,3.0.5,60.32275460896031,
To what extent did the music make you feel ,EXCITED,30MonoWAV/30MonoS3.wav,1,1,3,11,,,,,0,15,15,10,0,2,2,7,,,,,,,,,2,3.4185869220091263,072,001,2019_Aug_26_1014,MusicAffectPsychophysiology2019,3.0.5,60.32275460896031,
To what extent did the music make you feel ,SAD,30MonoWAV/30MonoS3.wav,1,1,3,11,,,,,0,15,15,10,0,3,3,0,,,,,,,,,4,1.919842322007753,072,001,2019_Aug_26_1014,MusicAffectPsychophysiology2019,3.0.5,60.32275460896031,
To what extent did the music make you feel ,FRUSTRATED,30MonoWAV/30MonoS3.wav,1,1,3,11,,,,,0,15,15,10,0,4,4,3,,,,,,,,,1,2.401088389000506,072,001,2019_Aug_26_1014,MusicAffectPsychophysiology2019,3.0.5,60.32275460896031,
To what extent did the music make you feel ,ASHAMED,30MonoWAV/30MonoS3.wav,1,1,3,11,,,,,0,15,15,10,0,5,5,4,,,,,,,,,2,1.7199299030035036,072,001,2019_Aug_26_1014,MusicAffectPsychophysiology2019,3.0.5,60.32275460896031,
To what extent did the music make you feel ,TENDER,30MonoWAV/30MonoS3.wav,1,1,3,11,,,,,0,15,15,10,0,6,6,10,,,,,,,,,1,3.067181061996962,072,001,2019_Aug_26_1014,MusicAffectPsychophysiology2019,3.0.5,60.32275460896031,
To what extent did the music make you feel ,HAPPY,30MonoWAV/30MonoS3.wav,1,1,3,11,,,,,0,15,15,10,0,7,7,6,,,,,,,,,1,0.902939603998675,072,001,2019_Aug_26_1014,MusicAffectPsychophysiology2019,3.0.5,60.32275460896031,
To what extent did the music make you feel ,ALERT,30MonoWAV/30MonoS3.wav,1,1,3,11,,,,,0,15,15,10,0,8,8,8,,,,,,,,,1,1.8346262029954232,072,001,2019_Aug_26_1014,MusicAffectPsychophysiology2019,3.0.5,60.32275460896031,
To what extent did the music make you feel ,ANXIOUS ,30MonoWAV/30MonoS3.wav,1,1,3,11,,,,,0,15,15,10,0,9,9,1,,,,,,,,,4,2.1692130180017557,072,001,2019_Aug_26_1014,MusicAffectPsychophysiology2019,3.0.5,60.32275460896031,
To what extent did the music make you feel ,SCARED,30MonoWAV/30MonoS3.wav,1,1,3,11,,,,,0,15,15,10,0,10,10,11,,,,,,,,,1,2.7829791650001425,072,001,2019_Aug_26_1014,MusicAffectPsychophysiology2019,3.0.5,60.32275460896031,
To what extent did the music make you feel ,ANGRY,30MonoWAV/30MonoS3.wav,1,1,3,11,,,,,0,15,15,10,0,11,11,2,,,,,,,,,1,0.9207689900067635,072,001,2019_Aug_26_1014,MusicAffectPsychophysiology2019,3.0.5,60.32275460896031,
,,30MonoWAV/30MonoS3.wav,1,1,3,11,,,,,0,15,15,10,,,,,,,,,,,,,,,072,001,2019_Aug_26_1014,MusicAffectPsychophysiology2019,3.0.5,60.32275460896031,
To what extent did the music make you feel ,SCARED,30MonoWAV/30MonoF1.wav,1,2,2,1,,,,,1,0,16,0,0,0,0,11,,,3,8.00229502399452,1,4.353005512995878,1,2.1194421950058313,3,3.012584344993229,072,001,2019_Aug_26_1014,MusicAffectPsychophysiology2019,3.0.5,60.32275460896031,
To what extent did the music make you feel ,ANXIOUS ,30MonoWAV/30MonoF1.wav,1,2,2,1,,,,,1,0,16,0,0,1,1,1,,,,,,,,,3,1.4575962579983752,072,001,2019_Aug_26_1014,MusicAffectPsychophysiology2019,3.0.5,60.32275460896031,
To what extent did the music make you feel ,SAD,30MonoWAV/30MonoF1.wav,1,2,2,1,,,,,1,0,16,0,0,2,2,0,,,,,,,,,1,1.2368812310014619,072,001,2019_Aug_26_1014,MusicAffectPsychophysiology2019,3.0.5,60.32275460896031,
To what extent did the music make you feel ,ASHAMED,30MonoWAV/30MonoF1.wav,1,2,2,1,,,,,1,0,16,0,0,3,3,4,,,,,,,,,1,1.3532542710017879,072,001,2019_Aug_26_1014,MusicAffectPsychophysiology2019,3.0.5,60.32275460896031,
To what extent did the music make you feel ,GUILTY,30MonoWAV/30MonoF1.wav,1,2,2,1,,,,,1,0,16,0,0,4,4,5,,,,,,,,,1,1.2918646439939039,072,001,2019_Aug_26_1014,MusicAffectPsychophysiology2019,3.0.5,60.32275460896031,
To what extent did the music make you feel ,ALERT,30MonoWAV/30MonoF1.wav,1,2,2,1,,,,,1,0,16,0,0,5,5,8,,,,,,,,,3,1.4536944630090147,072,001,2019_Aug_26_1014,MusicAffectPsychophysiology2019,3.0.5,60.32275460896031,
To what extent did the music make you feel ,FRUSTRATED,30MonoWAV/30MonoF1.wav,1,2,2,1,,,,,1,0,16,0,0,6,6,3,,,,,,,,,1,5.425032498998917,072,001,2019_Aug_26_1014,MusicAffectPsychophysiology2019,3.0.5,60.32275460896031,
To what extent did the music make you feel ,ACTIVE,30MonoWAV/30MonoF1.wav,1,2,2,1,,,,,1,0,16,0,0,7,7,9,,,,,,,,,2,2.707714552991092,072,001,2019_Aug_26_1014,MusicAffectPsychophysiology2019,3.0.5,60.32275460896031,
To what extent did the music make you feel ,ANGRY,30MonoWAV/30MonoF1.wav,1,2,2,1,,,,,1,0,16,0,0,8,8,2,,,,,,,,,1,1.3359752620017389,072,001,2019_Aug_26_1014,MusicAffectPsychophysiology2019,3.0.5,60.32275460896031,
To what extent did the music make you feel ,HAPPY,30MonoWAV/30MonoF1.wav,1,2,2,1,,,,,1,0,16,0,0,9,9,6,,,,,,,,,1,1.8709362160007004,072,001,2019_Aug_26_1014,MusicAffectPsychophysiology2019,3.0.5,60.32275460896031,
To what extent did the music make you feel ,TENDER,30MonoWAV/30MonoF1.wav,1,2,2,1,,,,,1,0,16,0,0,10,10,10,,,,,,,,,1,0.7369969050050713,072,001,2019_Aug_26_1014,MusicAffectPsychophysiology2019,3.0.5,60.32275460896031,
To what extent did the music make you feel ,EXCITED,30MonoWAV/30MonoF1.wav,1,2,2,1,,,,,1,0,16,0,0,11,11,7,,,,,,,,,1,0.8199876700091409,072,001,2019_Aug_26_1014,MusicAffectPsychophysiology2019,3.0.5,60.32275460896031,
,,30MonoWAV/30MonoF1.wav,1,2,2,1,,,,,1,0,16,0,,,,,,,,,,,,,,,072,001,2019_Aug_26_1014,MusicAffectPsychophysiology2019,3.0.5,60.32275460896031,
To what extent did the music make you feel ,EXCITED,30MonoWAV/30MonoS2.wav,1,1,3,10,,,,,1,1,17,9,0,0,0,7,,,1,5.702574105001986,1,5.102946683997288,2,2.6533487090055132,1,1.5858778480032925,072,001,2019_Aug_26_1014,MusicAffectPsychophysiology2019,3.0.5,60.32275460896031,
To what extent did the music make you feel ,ANGRY,30MonoWAV/30MonoS2.wav,1,1,3,10,,,,,1,1,17,9,0,1,1,2,,,,,,,,,1,0.6363868530024774,072,001,2019_Aug_26_1014,MusicAffectPsychophysiology2019,3.0.5,60.32275460896031,
To what extent did the music make you feel ,FRUSTRATED,30MonoWAV/30MonoS2.wav,1,1,3,10,,,,,1,1,17,9,0,2,2,3,,,,,,,,,1,0.8367451579979388,072,001,2019_Aug_26_1014,MusicAffectPsychophysiology2019,3.0.5,60.32275460896031,
To what extent did the music make you feel ,HAPPY,30MonoWAV/30MonoS2.wav,1,1,3,10,,,,,1,1,17,9,0,3,3,6,,,,,,,,,1,0.8026419610105222,072,001,2019_Aug_26_1014,MusicAffectPsychophysiology2019,3.0.5,60.32275460896031,
To what extent did the music make you feel ,GUILTY,30MonoWAV/30MonoS2.wav,1,1,3,10,,,,,1,1,17,9,0,4,4,5,,,,,,,,,3,2.9175021370028844,072,001,2019_Aug_26_1014,MusicAffectPsychophysiology2019,3.0.5,60.32275460896031,
To what extent did the music make you feel ,ACTIVE,30MonoWAV/30MonoS2.wav,1,1,3,10,,,,,1,1,17,9,0,5,5,9,,,,,,,,,1,1.2703798009897582,072,001,2019_Aug_26_1014,MusicAffectPsychophysiology2019,3.0.5,60.32275460896031,
To what extent did the music make you feel ,ANXIOUS ,30MonoWAV/30MonoS2.wav,1,1,3,10,,,,,1,1,17,9,0,6,6,1,,,,,,,,,1,1.6537849360029213,072,001,2019_Aug_26_1014,MusicAffectPsychophysiology2019,3.0.5,60.32275460896031,
To what extent did the music make you feel ,ALERT,30MonoWAV/30MonoS2.wav,1,1,3,10,,,,,1,1,17,9,0,7,7,8,,,,,,,,,2,1.8005186459922697,072,001,2019_Aug_26_1014,MusicAffectPsychophysiology2019,3.0.5,60.32275460896031,
To what extent did the music make you feel ,SAD,30MonoWAV/30MonoS2.wav,1,1,3,10,,,,,1,1,17,9,0,8,8,0,,,,,,,,,3,0.9199606899928767,072,001,2019_Aug_26_1014,MusicAffectPsychophysiology2019,3.0.5,60.32275460896031,
To what extent did the music make you feel ,ASHAMED,30MonoWAV/30MonoS2.wav,1,1,3,10,,,,,1,1,17,9,0,9,9,4,,,,,,,,,3,1.2035140549996868,072,001,2019_Aug_26_1014,MusicAffectPsychophysiology2019,3.0.5,60.32275460896031,
To what extent did the music make you feel ,TENDER,30MonoWAV/30MonoS2.wav,1,1,3,10,,,,,1,1,17,9,0,10,10,10,,,,,,,,,1,1.0015339910023613,072,001,2019_Aug_26_1014,MusicAffectPsychophysiology2019,3.0.5,60.32275460896031,
To what extent did the music make you feel ,SCARED,30MonoWAV/30MonoS2.wav,1,1,3,10,,,,,1,1,17,9,0,11,11,11,,,,,,,,,1,4.050739887999953,072,001,2019_Aug_26_1014,MusicAffectPsychophysiology2019,3.0.5,60.32275460896031,
,,30MonoWAV/30MonoS2.wav,1,1,3,10,,,,,1,1,17,9,,,,,,,,,,,,,,,072,001,2019_Aug_26_1014,MusicAffectPsychophysiology2019,3.0.5,60.32275460896031,
To what extent did the music make you feel ,FRUSTRATED,30MonoWAV/30MonoS3.wav,1,1,3,11,,,,,1,2,18,10,0,0,0,3,,,1,7.235914104006952,1,3.72134519800602,2,1.9027720260055503,1,1.6859179510065587,072,001,2019_Aug_26_1014,MusicAffectPsychophysiology2019,3.0.5,60.32275460896031,
To what extent did the music make you feel ,HAPPY,30MonoWAV/30MonoS3.wav,1,1,3,11,,,,,1,2,18,10,0,1,1,6,,,,,,,,,1,0.7348652609944111,072,001,2019_Aug_26_1014,MusicAffectPsychophysiology2019,3.0.5,60.32275460896031,
To what extent did the music make you feel ,TENDER,30MonoWAV/30MonoS3.wav,1,1,3,11,,,,,1,2,18,10,0,2,2,10,,,,,,,,,3,2.152310588993714,072,001,2019_Aug_26_1014,MusicAffectPsychophysiology2019,3.0.5,60.32275460896031,
To what extent did the music make you feel ,ANXIOUS ,30MonoWAV/30MonoS3.wav,1,1,3,11,,,,,1,2,18,10,0,3,3,1,,,,,,,,,1,1.7025685749977129,072,001,2019_Aug_26_1014,MusicAffectPsychophysiology2019,3.0.5,60.32275460896031,
To what extent did the music make you feel ,SAD,30MonoWAV/30MonoS3.wav,1,1,3,11,,,,,1,2,18,10,0,4,4,0,,,,,,,,,4,2.333641332006664,072,001,2019_Aug_26_1014,MusicAffectPsychophysiology2019,3.0.5,60.32275460896031,
To what extent did the music make you feel ,ACTIVE,30MonoWAV/30MonoS3.wav,1,1,3,11,,,,,1,2,18,10,0,5,5,9,,,,,,,,,1,1.9526227169990307,072,001,2019_Aug_26_1014,MusicAffectPsychophysiology2019,3.0.5,60.32275460896031,
To what extent did the music make you feel ,EXCITED,30MonoWAV/30MonoS3.wav,1,1,3,11,,,,,1,2,18,10,0,6,6,7,,,,,,,,,1,0.5738684609968914,072,001,2019_Aug_26_1014,MusicAffectPsychophysiology2019,3.0.5,60.32275460896031,
To what extent did the music make you feel ,SCARED,30MonoWAV/30MonoS3.wav,1,1,3,11,,,,,1,2,18,10,0,7,7,11,,,,,,,,,1,1.3540278849977767,072,001,2019_Aug_26_1014,MusicAffectPsychophysiology2019,3.0.5,60.32275460896031,
To what extent did the music make you feel ,GUILTY,30MonoWAV/30MonoS3.wav,1,1,3,11,,,,,1,2,18,10,0,8,8,5,,,,,,,,,2,2.405533622993971,072,001,2019_Aug_26_1014,MusicAffectPsychophysiology2019,3.0.5,60.32275460896031,
To what extent did the music make you feel ,ANGRY,30MonoWAV/30MonoS3.wav,1,1,3,11,,,,,1,2,18,10,0,9,9,2,,,,,,,,,1,0.9704423899966059,072,001,2019_Aug_26_1014,MusicAffectPsychophysiology2019,3.0.5,60.32275460896031,
To what extent did the music make you feel ,ASHAMED,30MonoWAV/30MonoS3.wav,1,1,3,11,,,,,1,2,18,10,0,10,10,4,,,,,,,,,2,3.6865471650089603,072,001,2019_Aug_26_1014,MusicAffectPsychophysiology2019,3.0.5,60.32275460896031,
To what extent did the music make you feel ,ALERT,30MonoWAV/30MonoS3.wav,1,1,3,11,,,,,1,2,18,10,0,11,11,8,,,,,,,,,1,0.9417241839983035,072,001,2019_Aug_26_1014,MusicAffectPsychophysiology2019,3.0.5,60.32275460896031,
,,30MonoWAV/30MonoS3.wav,1,1,3,11,,,,,1,2,18,10,,,,,,,,,,,,,,,072,001,2019_Aug_26_1014,MusicAffectPsychophysiology2019,3.0.5,60.32275460896031,
To what extent did the music make you feel ,GUILTY,30MonoWAV/30MonoH4.wav,2,2,1,8,,,,,1,3,19,7,0,0,0,5,,,5,2.5208570459944895,4,2.76993834800669,4,2.519020352003281,1,1.385942161999992,072,001,2019_Aug_26_1014,MusicAffectPsychophysiology2019,3.0.5,60.32275460896031,
To what extent did the music make you feel ,SAD,30MonoWAV/30MonoH4.wav,2,2,1,8,,,,,1,3,19,7,0,1,1,0,,,,,,,,,1,0.5370445620064856,072,001,2019_Aug_26_1014,MusicAffectPsychophysiology2019,3.0.5,60.32275460896031,
To what extent did the music make you feel ,ANXIOUS ,30MonoWAV/30MonoH4.wav,2,2,1,8,,,,,1,3,19,7,0,2,2,1,,,,,,,,,1,0.48646192099840846,072,001,2019_Aug_26_1014,MusicAffectPsychophysiology2019,3.0.5,60.32275460896031,
To what extent did the music make you feel ,ASHAMED,30MonoWAV/30MonoH4.wav,2,2,1,8,,,,,1,3,19,7,0,3,3,4,,,,,,,,,1,0.5028686659934465,072,001,2019_Aug_26_1014,MusicAffectPsychophysiology2019,3.0.5,60.32275460896031,
To what extent did the music make you feel ,FRUSTRATED,30MonoWAV/30MonoH4.wav,2,2,1,8,,,,,1,3,19,7,0,4,4,3,,,,,,,,,1,0.5018991230026586,072,001,2019_Aug_26_1014,MusicAffectPsychophysiology2019,3.0.5,60.32275460896031,
To what extent did the music make you feel ,ACTIVE,30MonoWAV/30MonoH4.wav,2,2,1,8,,,,,1,3,19,7,0,5,5,9,,,,,,,,,3,1.6025089899922023,072,001,2019_Aug_26_1014,MusicAffectPsychophysiology2019,3.0.5,60.32275460896031,
To what extent did the music make you feel ,TENDER,30MonoWAV/30MonoH4.wav,2,2,1,8,,,,,1,3,19,7,0,6,6,10,,,,,,,,,1,1.3867965429963078,072,001,2019_Aug_26_1014,MusicAffectPsychophysiology2019,3.0.5,60.32275460896031,
To what extent did the music make you feel ,SCARED,30MonoWAV/30MonoH4.wav,2,2,1,8,,,,,1,3,19,7,0,7,7,11,,,,,,,,,1,1.8029990759969223,072,001,2019_Aug_26_1014,MusicAffectPsychophysiology2019,3.0.5,60.32275460896031,
To what extent did the music make you feel ,ANGRY,30MonoWAV/30MonoH4.wav,2,2,1,8,,,,,1,3,19,7,0,8,8,2,,,,,,,,,1,0.8024181880027754,072,001,2019_Aug_26_1014,MusicAffectPsychophysiology2019,3.0.5,60.32275460896031,
To what extent did the music make you feel ,HAPPY,30MonoWAV/30MonoH4.wav,2,2,1,8,,,,,1,3,19,7,0,9,9,6,,,,,,,,,3,0.8022807730012573,072,001,2019_Aug_26_1014,MusicAffectPsychophysiology2019,3.0.5,60.32275460896031,
To what extent did the music make you feel ,ALERT,30MonoWAV/30MonoH4.wav,2,2,1,8,,,,,1,3,19,7,0,10,10,8,,,,,,,,,3,1.7188285720039858,072,001,2019_Aug_26_1014,MusicAffectPsychophysiology2019,3.0.5,60.32275460896031,
To what extent did the music make you feel ,EXCITED,30MonoWAV/30MonoH4.wav,2,2,1,8,,,,,1,3,19,7,0,11,11,7,,,,,,,,,3,1.4030245559988543,072,001,2019_Aug_26_1014,MusicAffectPsychophysiology2019,3.0.5,60.32275460896031,
,,30MonoWAV/30MonoH4.wav,2,2,1,8,,,,,1,3,19,7,,,,,,,,,,,,,,,072,001,2019_Aug_26_1014,MusicAffectPsychophysiology2019,3.0.5,60.32275460896031,
To what extent did the music make you feel ,ACTIVE,30MonoWAV/30MonoT1.wav,2,1,4,13,,,,,1,4,20,12,0,0,0,9,,,4,3.4860177070077043,4,1.9204581749945646,3,2.6539763470063917,1,1.6044306840049103,072,001,2019_Aug_26_1014,MusicAffectPsychophysiology2019,3.0.5,60.32275460896031,
To what extent did the music make you feel ,TENDER,30MonoWAV/30MonoT1.wav,2,1,4,13,,,,,1,4,20,12,0,1,1,10,,,,,,,,,4,2.3640128260012716,072,001,2019_Aug_26_1014,MusicAffectPsychophysiology2019,3.0.5,60.32275460896031,
To what extent did the music make you feel ,ASHAMED,30MonoWAV/30MonoT1.wav,2,1,4,13,,,,,1,4,20,12,0,2,2,4,,,,,,,,,1,1.3040287609910592,072,001,2019_Aug_26_1014,MusicAffectPsychophysiology2019,3.0.5,60.32275460896031,
To what extent did the music make you feel ,ALERT,30MonoWAV/30MonoT1.wav,2,1,4,13,,,,,1,4,20,12,0,3,3,8,,,,,,,,,1,0.9946128320007119,072,001,2019_Aug_26_1014,MusicAffectPsychophysiology2019,3.0.5,60.32275460896031,
To what extent did the music make you feel ,GUILTY,30MonoWAV/30MonoT1.wav,2,1,4,13,,,,,1,4,20,12,0,4,4,5,,,,,,,,,1,2.2195844139932888,072,001,2019_Aug_26_1014,MusicAffectPsychophysiology2019,3.0.5,60.32275460896031,
To what extent did the music make you feel ,ANGRY,30MonoWAV/30MonoT1.wav,2,1,4,13,,,,,1,4,20,12,0,5,5,2,,,,,,,,,1,1.3666007170104422,072,001,2019_Aug_26_1014,MusicAffectPsychophysiology2019,3.0.5,60.32275460896031,
To what extent did the music make you feel ,SCARED,30MonoWAV/30MonoT1.wav,2,1,4,13,,,,,1,4,20,12,0,6,6,11,,,,,,,,,1,1.2196890089981025,072,001,2019_Aug_26_1014,MusicAffectPsychophysiology2019,3.0.5,60.32275460896031,
To what extent did the music make you feel ,HAPPY,30MonoWAV/30MonoT1.wav,2,1,4,13,,,,,1,4,20,12,0,7,7,6,,,,,,,,,2,2.8537212859955616,072,001,2019_Aug_26_1014,MusicAffectPsychophysiology2019,3.0.5,60.32275460896031,
To what extent did the music make you feel ,FRUSTRATED,30MonoWAV/30MonoT1.wav,2,1,4,13,,,,,1,4,20,12,0,8,8,3,,,,,,,,,1,1.3945444319979288,072,001,2019_Aug_26_1014,MusicAffectPsychophysiology2019,3.0.5,60.32275460896031,
To what extent did the music make you feel ,ANXIOUS ,30MonoWAV/30MonoT1.wav,2,1,4,13,,,,,1,4,20,12,0,9,9,1,,,,,,,,,1,1.6039686230069492,072,001,2019_Aug_26_1014,MusicAffectPsychophysiology2019,3.0.5,60.32275460896031,
To what extent did the music make you feel ,EXCITED,30MonoWAV/30MonoT1.wav,2,1,4,13,,,,,1,4,20,12,0,10,10,7,,,,,,,,,1,1.4037213419942418,072,001,2019_Aug_26_1014,MusicAffectPsychophysiology2019,3.0.5,60.32275460896031,
To what extent did the music make you feel ,SAD,30MonoWAV/30MonoT1.wav,2,1,4,13,,,,,1,4,20,12,0,11,11,0,,,,,,,,,1,0.9546910560020478,072,001,2019_Aug_26_1014,MusicAffectPsychophysiology2019,3.0.5,60.32275460896031,
,,30MonoWAV/30MonoT1.wav,2,1,4,13,,,,,1,4,20,12,,,,,,,,,,,,,,,072,001,2019_Aug_26_1014,MusicAffectPsychophysiology2019,3.0.5,60.32275460896031,
To what extent did the music make you feel ,GUILTY,30MonoWAV/30MonoH1.wav,2,2,1,5,,,,,1,5,21,4,0,0,0,5,,,4,2.468891636002809,4,1.6703010860073846,4,2.919341788991005,1,1.188392077005119,072,001,2019_Aug_26_1014,MusicAffectPsychophysiology2019,3.0.5,60.32275460896031,
To what extent did the music make you feel ,ACTIVE,30MonoWAV/30MonoH1.wav,2,2,1,5,,,,,1,5,21,4,0,1,1,9,,,,,,,,,4,2.451932694995776,072,001,2019_Aug_26_1014,MusicAffectPsychophysiology2019,3.0.5,60.32275460896031,
To what extent did the music make you feel ,ANGRY,30MonoWAV/30MonoH1.wav,2,2,1,5,,,,,1,5,21,4,0,2,2,2,,,,,,,,,1,1.0011796519975178,072,001,2019_Aug_26_1014,MusicAffectPsychophysiology2019,3.0.5,60.32275460896031,
To what extent did the music make you feel ,HAPPY,30MonoWAV/30MonoH1.wav,2,2,1,5,,,,,1,5,21,4,0,3,3,6,,,,,,,,,4,2.537350871003582,072,001,2019_Aug_26_1014,MusicAffectPsychophysiology2019,3.0.5,60.32275460896031,
To what extent did the music make you feel ,SCARED,30MonoWAV/30MonoH1.wav,2,2,1,5,,,,,1,5,21,4,0,4,4,11,,,,,,,,,1,2.33690736599965,072,001,2019_Aug_26_1014,MusicAffectPsychophysiology2019,3.0.5,60.32275460896031,
To what extent did the music make you feel ,SAD,30MonoWAV/30MonoH1.wav,2,2,1,5,,,,,1,5,21,4,0,5,5,0,,,,,,,,,1,0.8506463270023232,072,001,2019_Aug_26_1014,MusicAffectPsychophysiology2019,3.0.5,60.32275460896031,
To what extent did the music make you feel ,TENDER,30MonoWAV/30MonoH1.wav,2,2,1,5,,,,,1,5,21,4,0,6,6,10,,,,,,,,,1,1.888576989993453,072,001,2019_Aug_26_1014,MusicAffectPsychophysiology2019,3.0.5,60.32275460896031,
To what extent did the music make you feel ,EXCITED,30MonoWAV/30MonoH1.wav,2,2,1,5,,,,,1,5,21,4,0,7,7,7,,,,,,,,,3,1.219468840994523,072,001,2019_Aug_26_1014,MusicAffectPsychophysiology2019,3.0.5,60.32275460896031,
To what extent did the music make you feel ,ASHAMED,30MonoWAV/30MonoH1.wav,2,2,1,5,,,,,1,5,21,4,0,8,8,4,,,,,,,,,1,1.1027682540006936,072,001,2019_Aug_26_1014,MusicAffectPsychophysiology2019,3.0.5,60.32275460896031,
To what extent did the music make you feel ,FRUSTRATED,30MonoWAV/30MonoH1.wav,2,2,1,5,,,,,1,5,21,4,0,9,9,3,,,,,,,,,1,0.5696080729976529,072,001,2019_Aug_26_1014,MusicAffectPsychophysiology2019,3.0.5,60.32275460896031,
To what extent did the music make you feel ,ALERT,30MonoWAV/30MonoH1.wav,2,2,1,5,,,,,1,5,21,4,0,10,10,8,,,,,,,,,3,2.120750678994227,072,001,2019_Aug_26_1014,MusicAffectPsychophysiology2019,3.0.5,60.32275460896031,
To what extent did the music make you feel ,ANXIOUS ,30MonoWAV/30MonoH1.wav,2,2,1,5,,,,,1,5,21,4,0,11,11,1,,,,,,,,,1,1.037054745000205,072,001,2019_Aug_26_1014,MusicAffectPsychophysiology2019,3.0.5,60.32275460896031,
,,30MonoWAV/30MonoH1.wav,2,2,1,5,,,,,1,5,21,4,,,,,,,,,,,,,,,072,001,2019_Aug_26_1014,MusicAffectPsychophysiology2019,3.0.5,60.32275460896031,
To what extent did the music make you feel ,ANXIOUS ,30MonoWAV/30MonoT4.wav,2,1,4,16,,,,,1,6,22,15,0,0,0,1,,,4,6.603283342003124,5,2.236632019004901,5,0.719998928005225,1,1.9811210629995912,072,001,2019_Aug_26_1014,MusicAffectPsychophysiology2019,3.0.5,60.32275460896031,
To what extent did the music make you feel ,ALERT,30MonoWAV/30MonoT4.wav,2,1,4,16,,,,,1,6,22,15,0,1,1,8,,,,,,,,,4,3.247962303998065,072,001,2019_Aug_26_1014,MusicAffectPsychophysiology2019,3.0.5,60.32275460896031,
To what extent did the music make you feel ,ASHAMED,30MonoWAV/30MonoT4.wav,2,1,4,16,,,,,1,6,22,15,0,2,2,4,,,,,,,,,1,0.9205476109927986,072,001,2019_Aug_26_1014,MusicAffectPsychophysiology2019,3.0.5,60.32275460896031,
To what extent did the music make you feel ,FRUSTRATED,30MonoWAV/30MonoT4.wav,2,1,4,16,,,,,1,6,22,15,0,3,3,3,,,,,,,,,1,0.6989691680064425,072,001,2019_Aug_26_1014,MusicAffectPsychophysiology2019,3.0.5,60.32275460896031,
To what extent did the music make you feel ,HAPPY,30MonoWAV/30MonoT4.wav,2,1,4,16,,,,,1,6,22,15,0,4,4,6,,,,,,,,,4,2.185979639994912,072,001,2019_Aug_26_1014,MusicAffectPsychophysiology2019,3.0.5,60.32275460896031,
To what extent did the music make you feel ,EXCITED,30MonoWAV/30MonoT4.wav,2,1,4,16,,,,,1,6,22,15,0,5,5,7,,,,,,,,,3,2.4858319779887097,072,001,2019_Aug_26_1014,MusicAffectPsychophysiology2019,3.0.5,60.32275460896031,
To what extent did the music make you feel ,ACTIVE,30MonoWAV/30MonoT4.wav,2,1,4,16,,,,,1,6,22,15,0,6,6,9,,,,,,,,,3,1.6506886499992106,072,001,2019_Aug_26_1014,MusicAffectPsychophysiology2019,3.0.5,60.32275460896031,
To what extent did the music make you feel ,SAD,30MonoWAV/30MonoT4.wav,2,1,4,16,,,,,1,6,22,15,0,7,7,0,,,,,,,,,1,0.653007383007207,072,001,2019_Aug_26_1014,MusicAffectPsychophysiology2019,3.0.5,60.32275460896031,
To what extent did the music make you feel ,SCARED,30MonoWAV/30MonoT4.wav,2,1,4,16,,,,,1,6,22,15,0,8,8,11,,,,,,,,,1,0.9296312149963342,072,001,2019_Aug_26_1014,MusicAffectPsychophysiology2019,3.0.5,60.32275460896031,
To what extent did the music make you feel ,ANGRY,30MonoWAV/30MonoT4.wav,2,1,4,16,,,,,1,6,22,15,0,9,9,2,,,,,,,,,1,0.7532782839989522,072,001,2019_Aug_26_1014,MusicAffectPsychophysiology2019,3.0.5,60.32275460896031,
To what extent did the music make you feel ,GUILTY,30MonoWAV/30MonoT4.wav,2,1,4,16,,,,,1,6,22,15,0,10,10,5,,,,,,,,,1,0.5526807870046468,072,001,2019_Aug_26_1014,MusicAffectPsychophysiology2019,3.0.5,60.32275460896031,
To what extent did the music make you feel ,TENDER,30MonoWAV/30MonoT4.wav,2,1,4,16,,,,,1,6,22,15,0,11,11,10,,,,,,,,,4,2.396868538999115,072,001,2019_Aug_26_1014,MusicAffectPsychophysiology2019,3.0.5,60.32275460896031,
,,30MonoWAV/30MonoT4.wav,2,1,4,16,,,,,1,6,22,15,,,,,,,,,,,,,,,072,001,2019_Aug_26_1014,MusicAffectPsychophysiology2019,3.0.5,60.32275460896031,
To what extent did the music make you feel ,ALERT,30MonoWAV/30MonoH3.wav,2,2,1,7,,,,,1,7,23,6,0,0,0,8,,,5,4.167902126995614,5,2.1207147929962957,5,1.0191565700079082,5,1.1905745130061405,072,001,2019_Aug_26_1014,MusicAffectPsychophysiology2019,3.0.5,60.32275460896031,
To what extent did the music make you feel ,TENDER,30MonoWAV/30MonoH3.wav,2,2,1,7,,,,,1,7,23,6,0,1,1,10,,,,,,,,,2,4.473528778995387,072,001,2019_Aug_26_1014,MusicAffectPsychophysiology2019,3.0.5,60.32275460896031,
To what extent did the music make you feel ,SCARED,30MonoWAV/30MonoH3.wav,2,2,1,7,,,,,1,7,23,6,0,2,2,11,,,,,,,,,1,0.757390006998321,072,001,2019_Aug_26_1014,MusicAffectPsychophysiology2019,3.0.5,60.32275460896031,
To what extent did the music make you feel ,EXCITED,30MonoWAV/30MonoH3.wav,2,2,1,7,,,,,1,7,23,6,0,3,3,7,,,,,,,,,1,0.45619329799956176,072,001,2019_Aug_26_1014,MusicAffectPsychophysiology2019,3.0.5,60.32275460896031,
To what extent did the music make you feel ,SAD,30MonoWAV/30MonoH3.wav,2,2,1,7,,,,,1,7,23,6,0,4,4,0,,,,,,,,,1,7.434861165005714,072,001,2019_Aug_26_1014,MusicAffectPsychophysiology2019,3.0.5,60.32275460896031,
To what extent did the music make you feel ,FRUSTRATED,30MonoWAV/30MonoH3.wav,2,2,1,7,,,,,1,7,23,6,0,5,5,3,,,,,,,,,1,0.8037146699934965,072,001,2019_Aug_26_1014,MusicAffectPsychophysiology2019,3.0.5,60.32275460896031,
To what extent did the music make you feel ,HAPPY,30MonoWAV/30MonoH3.wav,2,2,1,7,,,,,1,7,23,6,0,6,6,6,,,,,,,,,4,1.9377100540004903,072,001,2019_Aug_26_1014,MusicAffectPsychophysiology2019,3.0.5,60.32275460896031,
To what extent did the music make you feel ,GUILTY,30MonoWAV/30MonoH3.wav,2,2,1,7,,,,,1,7,23,6,0,7,7,5,,,,,,,,,1,0.8395166819973383,072,001,2019_Aug_26_1014,MusicAffectPsychophysiology2019,3.0.5,60.32275460896031,
To what extent did the music make you feel ,ANXIOUS ,30MonoWAV/30MonoH3.wav,2,2,1,7,,,,,1,7,23,6,0,8,8,1,,,,,,,,,1,1.2861605219950434,072,001,2019_Aug_26_1014,MusicAffectPsychophysiology2019,3.0.5,60.32275460896031,
To what extent did the music make you feel ,ASHAMED,30MonoWAV/30MonoH3.wav,2,2,1,7,,,,,1,7,23,6,0,9,9,4,,,,,,,,,1,0.6713140689971624,072,001,2019_Aug_26_1014,MusicAffectPsychophysiology2019,3.0.5,60.32275460896031,
To what extent did the music make you feel ,ACTIVE,30MonoWAV/30MonoH3.wav,2,2,1,7,,,,,1,7,23,6,0,10,10,9,,,,,,,,,4,1.9390454969980055,072,001,2019_Aug_26_1014,MusicAffectPsychophysiology2019,3.0.5,60.32275460896031,
To what extent did the music make you feel ,ANGRY,30MonoWAV/30MonoH3.wav,2,2,1,7,,,,,1,7,23,6,0,11,11,2,,,,,,,,,4,0.23925866499484982,072,001,2019_Aug_26_1014,MusicAffectPsychophysiology2019,3.0.5,60.32275460896031,
,,30MonoWAV/30MonoH3.wav,2,2,1,7,,,,,1,7,23,6,,,,,,,,,,,,,,,072,001,2019_Aug_26_1014,MusicAffectPsychophysiology2019,3.0.5,60.32275460896031,
To what extent did the music make you feel ,EXCITED,30MonoWAV/30MonoT2.wav,2,1,4,14,,,,,1,8,24,13,0,0,0,7,,,2,3.7700590000022203,4,2.4532392010005424,3,3.3023932210053317,1,1.870137843012344,072,001,2019_Aug_26_1014,MusicAffectPsychophysiology2019,3.0.5,60.32275460896031,
To what extent did the music make you feel ,ANGRY,30MonoWAV/30MonoT2.wav,2,1,4,14,,,,,1,8,24,13,0,1,1,2,,,,,,,,,1,0.7829635230009444,072,001,2019_Aug_26_1014,MusicAffectPsychophysiology2019,3.0.5,60.32275460896031,
To what extent did the music make you feel ,FRUSTRATED,30MonoWAV/30MonoT2.wav,2,1,4,14,,,,,1,8,24,13,0,2,2,3,,,,,,,,,1,0.6025299220054876,072,001,2019_Aug_26_1014,MusicAffectPsychophysiology2019,3.0.5,60.32275460896031,
To what extent did the music make you feel ,ASHAMED,30MonoWAV/30MonoT2.wav,2,1,4,14,,,,,1,8,24,13,0,3,3,4,,,,,,,,,1,0.8370847070036689,072,001,2019_Aug_26_1014,MusicAffectPsychophysiology2019,3.0.5,60.32275460896031,
To what extent did the music make you feel ,ACTIVE,30MonoWAV/30MonoT2.wav,2,1,4,14,,,,,1,8,24,13,0,4,4,9,,,,,,,,,1,0.9029733570059761,072,001,2019_Aug_26_1014,MusicAffectPsychophysiology2019,3.0.5,60.32275460896031,
To what extent did the music make you feel ,TENDER,30MonoWAV/30MonoT2.wav,2,1,4,14,,,,,1,8,24,13,0,5,5,10,,,,,,,,,4,1.669740573008312,072,001,2019_Aug_26_1014,MusicAffectPsychophysiology2019,3.0.5,60.32275460896031,
To what extent did the music make you feel ,ALERT,30MonoWAV/30MonoT2.wav,2,1,4,14,,,,,1,8,24,13,0,6,6,8,,,,,,,,,1,1.01513328999863,072,001,2019_Aug_26_1014,MusicAffectPsychophysiology2019,3.0.5,60.32275460896031,
To what extent did the music make you feel ,SAD,30MonoWAV/30MonoT2.wav,2,1,4,14,,,,,1,8,24,13,0,7,7,0,,,,,,,,,1,2.0207319440087304,072,001,2019_Aug_26_1014,MusicAffectPsychophysiology2019,3.0.5,60.32275460896031,
To what extent did the music make you feel ,HAPPY,30MonoWAV/30MonoT2.wav,2,1,4,14,,,,,1,8,24,13,0,8,8,6,,,,,,,,,2,1.7711731479939772,072,001,2019_Aug_26_1014,MusicAffectPsychophysiology2019,3.0.5,60.32275460896031,
To what extent did the music make you feel ,ANXIOUS ,30MonoWAV/30MonoT2.wav,2,1,4,14,,,,,1,8,24,13,0,9,9,1,,,,,,,,,1,0.8988038630050141,072,001,2019_Aug_26_1014,MusicAffectPsychophysiology2019,3.0.5,60.32275460896031,
To what extent did the music make you feel ,SCARED,30MonoWAV/30MonoT2.wav,2,1,4,14,,,,,1,8,24,13,0,10,10,11,,,,,,,,,1,1.1657759660010925,072,001,2019_Aug_26_1014,MusicAffectPsychophysiology2019,3.0.5,60.32275460896031,
To what extent did the music make you feel ,GUILTY,30MonoWAV/30MonoT2.wav,2,1,4,14,,,,,1,8,24,13,0,11,11,5,,,,,,,,,1,0.5197871760028647,072,001,2019_Aug_26_1014,MusicAffectPsychophysiology2019,3.0.5,60.32275460896031,
,,30MonoWAV/30MonoT2.wav,2,1,4,14,,,,,1,8,24,13,,,,,,,,,,,,,,,072,001,2019_Aug_26_1014,MusicAffectPsychophysiology2019,3.0.5,60.32275460896031,
To what extent did the music make you feel ,ALERT,30MonoWAV/30MonoH2.wav,2,2,1,6,,,,,1,9,25,5,0,0,0,8,,,4,4.55299412200111,4,1.3035722670028917,4,1.4699170880048769,4,1.84345187600411,072,001,2019_Aug_26_1014,MusicAffectPsychophysiology2019,3.0.5,60.32275460896031,
To what extent did the music make you feel ,TENDER,30MonoWAV/30MonoH2.wav,2,2,1,6,,,,,1,9,25,5,0,1,1,10,,,,,,,,,3,3.2091610139905242,072,001,2019_Aug_26_1014,MusicAffectPsychophysiology2019,3.0.5,60.32275460896031,
To what extent did the music make you feel ,SAD,30MonoWAV/30MonoH2.wav,2,2,1,6,,,,,1,9,25,5,0,2,2,0,,,,,,,,,1,0.8198771640018094,072,001,2019_Aug_26_1014,MusicAffectPsychophysiology2019,3.0.5,60.32275460896031,
To what extent did the music make you feel ,FRUSTRATED,30MonoWAV/30MonoH2.wav,2,2,1,6,,,,,1,9,25,5,0,3,3,3,,,,,,,,,1,0.6563926870003343,072,001,2019_Aug_26_1014,MusicAffectPsychophysiology2019,3.0.5,60.32275460896031,
To what extent did the music make you feel ,SCARED,30MonoWAV/30MonoH2.wav,2,2,1,6,,,,,1,9,25,5,0,4,4,11,,,,,,,,,1,0.7045388330006972,072,001,2019_Aug_26_1014,MusicAffectPsychophysiology2019,3.0.5,60.32275460896031,
To what extent did the music make you feel ,GUILTY,30MonoWAV/30MonoH2.wav,2,2,1,6,,,,,1,9,25,5,0,5,5,5,,,,,,,,,1,0.6015088579879375,072,001,2019_Aug_26_1014,MusicAffectPsychophysiology2019,3.0.5,60.32275460896031,
To what extent did the music make you feel ,EXCITED,30MonoWAV/30MonoH2.wav,2,2,1,6,,,,,1,9,25,5,0,6,6,7,,,,,,,,,3,2.2026042910001706,072,001,2019_Aug_26_1014,MusicAffectPsychophysiology2019,3.0.5,60.32275460896031,
To what extent did the music make you feel ,ASHAMED,30MonoWAV/30MonoH2.wav,2,2,1,6,,,,,1,9,25,5,0,7,7,4,,,,,,,,,1,1.1405988199985586,072,001,2019_Aug_26_1014,MusicAffectPsychophysiology2019,3.0.5,60.32275460896031,
To what extent did the music make you feel ,ACTIVE,30MonoWAV/30MonoH2.wav,2,2,1,6,,,,,1,9,25,5,0,8,8,9,,,,,,,,,3,0.8840231439971831,072,001,2019_Aug_26_1014,MusicAffectPsychophysiology2019,3.0.5,60.32275460896031,
To what extent did the music make you feel ,ANGRY,30MonoWAV/30MonoH2.wav,2,2,1,6,,,,,1,9,25,5,0,9,9,2,,,,,,,,,1,0.9535267150058644,072,001,2019_Aug_26_1014,MusicAffectPsychophysiology2019,3.0.5,60.32275460896031,
To what extent did the music make you feel ,HAPPY,30MonoWAV/30MonoH2.wav,2,2,1,6,,,,,1,9,25,5,0,10,10,6,,,,,,,,,3,1.1701747289916966,072,001,2019_Aug_26_1014,MusicAffectPsychophysiology2019,3.0.5,60.32275460896031,
To what extent did the music make you feel ,ANXIOUS ,30MonoWAV/30MonoH2.wav,2,2,1,6,,,,,1,9,25,5,0,11,11,1,,,,,,,,,1,0.8573560730001191,072,001,2019_Aug_26_1014,MusicAffectPsychophysiology2019,3.0.5,60.32275460896031,
,,30MonoWAV/30MonoH2.wav,2,2,1,6,,,,,1,9,25,5,,,,,,,,,,,,,,,072,001,2019_Aug_26_1014,MusicAffectPsychophysiology2019,3.0.5,60.32275460896031,
To what extent did the music make you feel ,ACTIVE,30MonoWAV/30MonoF3.wav,1,2,2,3,,,,,1,10,26,2,0,0,0,9,,,4,4.233443605000502,3,4.368926069990266,3,2.219732892990578,4,1.8694006389996503,072,001,2019_Aug_26_1014,MusicAffectPsychophysiology2019,3.0.5,60.32275460896031,
To what extent did the music make you feel ,ASHAMED,30MonoWAV/30MonoF3.wav,1,2,2,3,,,,,1,10,26,2,0,1,1,4,,,,,,,,,1,2.169967091991566,072,001,2019_Aug_26_1014,MusicAffectPsychophysiology2019,3.0.5,60.32275460896031,
To what extent did the music make you feel ,FRUSTRATED,30MonoWAV/30MonoF3.wav,1,2,2,3,,,,,1,10,26,2,0,2,2,3,,,,,,,,,1,0.8368024259980302,072,001,2019_Aug_26_1014,MusicAffectPsychophysiology2019,3.0.5,60.32275460896031,
To what extent did the music make you feel ,HAPPY,30MonoWAV/30MonoF3.wav,1,2,2,3,,,,,1,10,26,2,0,3,3,6,,,,,,,,,1,2.2871915709984023,072,001,2019_Aug_26_1014,MusicAffectPsychophysiology2019,3.0.5,60.32275460896031,
To what extent did the music make you feel ,TENDER,30MonoWAV/30MonoF3.wav,1,2,2,3,,,,,1,10,26,2,0,4,4,10,,,,,,,,,1,1.1692836270085536,072,001,2019_Aug_26_1014,MusicAffectPsychophysiology2019,3.0.5,60.32275460896031,
To what extent did the music make you feel ,EXCITED,30MonoWAV/30MonoF3.wav,1,2,2,3,,,,,1,10,26,2,0,5,5,7,,,,,,,,,3,1.385901436995482,072,001,2019_Aug_26_1014,MusicAffectPsychophysiology2019,3.0.5,60.32275460896031,
To what extent did the music make you feel ,ALERT,30MonoWAV/30MonoF3.wav,1,2,2,3,,,,,1,10,26,2,0,6,6,8,,,,,,,,,4,1.4870235550042707,072,001,2019_Aug_26_1014,MusicAffectPsychophysiology2019,3.0.5,60.32275460896031,
To what extent did the music make you feel ,GUILTY,30MonoWAV/30MonoF3.wav,1,2,2,3,,,,,1,10,26,2,0,7,7,5,,,,,,,,,1,0.7681412880046992,072,001,2019_Aug_26_1014,MusicAffectPsychophysiology2019,3.0.5,60.32275460896031,
To what extent did the music make you feel ,ANXIOUS ,30MonoWAV/30MonoF3.wav,1,2,2,3,,,,,1,10,26,2,0,8,8,1,,,,,,,,,1,1.5854705789970467,072,001,2019_Aug_26_1014,MusicAffectPsychophysiology2019,3.0.5,60.32275460896031,
To what extent did the music make you feel ,ANGRY,30MonoWAV/30MonoF3.wav,1,2,2,3,,,,,1,10,26,2,0,9,9,2,,,,,,,,,1,2.064906287996564,072,001,2019_Aug_26_1014,MusicAffectPsychophysiology2019,3.0.5,60.32275460896031,
To what extent did the music make you feel ,SCARED,30MonoWAV/30MonoF3.wav,1,2,2,3,,,,,1,10,26,2,0,10,10,11,,,,,,,,,1,0.6696094350045314,072,001,2019_Aug_26_1014,MusicAffectPsychophysiology2019,3.0.5,60.32275460896031,
To what extent did the music make you feel ,SAD,30MonoWAV/30MonoF3.wav,1,2,2,3,,,,,1,10,26,2,0,11,11,0,,,,,,,,,1,0.7698029419989325,072,001,2019_Aug_26_1014,MusicAffectPsychophysiology2019,3.0.5,60.32275460896031,
,,30MonoWAV/30MonoF3.wav,1,2,2,3,,,,,1,10,26,2,,,,,,,,,,,,,,,072,001,2019_Aug_26_1014,MusicAffectPsychophysiology2019,3.0.5,60.32275460896031,
To what extent did the music make you feel ,ALERT,30MonoWAV/30MonoS4.wav,1,1,3,12,,,,,1,11,27,11,0,0,0,8,,,2,47.46511249001196,4,5.882008005006355,4,1.336249009007588,2,1.4743892319966108,072,001,2019_Aug_26_1014,MusicAffectPsychophysiology2019,3.0.5,60.32275460896031,
To what extent did the music make you feel ,SAD,30MonoWAV/30MonoS4.wav,1,1,3,12,,,,,1,11,27,11,0,1,1,0,,,,,,,,,2,2.9029554089938756,072,001,2019_Aug_26_1014,MusicAffectPsychophysiology2019,3.0.5,60.32275460896031,
To what extent did the music make you feel ,ANGRY,30MonoWAV/30MonoS4.wav,1,1,3,12,,,,,1,11,27,11,0,2,2,2,,,,,,,,,1,1.2197182399977464,072,001,2019_Aug_26_1014,MusicAffectPsychophysiology2019,3.0.5,60.32275460896031,
To what extent did the music make you feel ,ASHAMED,30MonoWAV/30MonoS4.wav,1,1,3,12,,,,,1,11,27,11,0,3,3,4,,,,,,,,,1,0.8198938080022344,072,001,2019_Aug_26_1014,MusicAffectPsychophysiology2019,3.0.5,60.32275460896031,
To what extent did the music make you feel ,FRUSTRATED,30MonoWAV/30MonoS4.wav,1,1,3,12,,,,,1,11,27,11,0,4,4,3,,,,,,,,,1,0.9577549779933179,072,001,2019_Aug_26_1014,MusicAffectPsychophysiology2019,3.0.5,60.32275460896031,
To what extent did the music make you feel ,ANXIOUS ,30MonoWAV/30MonoS4.wav,1,1,3,12,,,,,1,11,27,11,0,5,5,1,,,,,,,,,1,1.3869439489935758,072,001,2019_Aug_26_1014,MusicAffectPsychophysiology2019,3.0.5,60.32275460896031,
To what extent did the music make you feel ,EXCITED,30MonoWAV/30MonoS4.wav,1,1,3,12,,,,,1,11,27,11,0,6,6,7,,,,,,,,,1,2.0699928940011887,072,001,2019_Aug_26_1014,MusicAffectPsychophysiology2019,3.0.5,60.32275460896031,
To what extent did the music make you feel ,SCARED,30MonoWAV/30MonoS4.wav,1,1,3,12,,,,,1,11,27,11,0,7,7,11,,,,,,,,,1,0.6735573640035,072,001,2019_Aug_26_1014,MusicAffectPsychophysiology2019,3.0.5,60.32275460896031,
To what extent did the music make you feel ,HAPPY,30MonoWAV/30MonoS4.wav,1,1,3,12,,,,,1,11,27,11,0,8,8,6,,,,,,,,,1,0.7206084779900266,072,001,2019_Aug_26_1014,MusicAffectPsychophysiology2019,3.0.5,60.32275460896031,
To what extent did the music make you feel ,GUILTY,30MonoWAV/30MonoS4.wav,1,1,3,12,,,,,1,11,27,11,0,9,9,5,,,,,,,,,1,0.6543855349882506,072,001,2019_Aug_26_1014,MusicAffectPsychophysiology2019,3.0.5,60.32275460896031,
To what extent did the music make you feel ,TENDER,30MonoWAV/30MonoS4.wav,1,1,3,12,,,,,1,11,27,11,0,10,10,10,,,,,,,,,4,2.0221868719963823,072,001,2019_Aug_26_1014,MusicAffectPsychophysiology2019,3.0.5,60.32275460896031,
To what extent did the music make you feel ,ACTIVE,30MonoWAV/30MonoS4.wav,1,1,3,12,,,,,1,11,27,11,0,11,11,9,,,,,,,,,2,1.3892220029956661,072,001,2019_Aug_26_1014,MusicAffectPsychophysiology2019,3.0.5,60.32275460896031,
,,30MonoWAV/30MonoS4.wav,1,1,3,12,,,,,1,11,27,11,,,,,,,,,,,,,,,072,001,2019_Aug_26_1014,MusicAffectPsychophysiology2019,3.0.5,60.32275460896031,
To what extent did the music make you feel ,GUILTY,30MonoWAV/30MonoS1.wav,1,1,3,9,,,,,1,12,28,8,0,0,0,5,,,3,3.0357170479983324,3,2.953933270997368,3,1.302882628995576,2,2.8527836549910717,072,001,2019_Aug_26_1014,MusicAffectPsychophysiology2019,3.0.5,60.32275460896031,
To what extent did the music make you feel ,FRUSTRATED,30MonoWAV/30MonoS1.wav,1,1,3,9,,,,,1,12,28,8,0,1,1,3,,,,,,,,,1,0.8667814119980903,072,001,2019_Aug_26_1014,MusicAffectPsychophysiology2019,3.0.5,60.32275460896031,
To what extent did the music make you feel ,SAD,30MonoWAV/30MonoS1.wav,1,1,3,9,,,,,1,12,28,8,0,2,2,0,,,,,,,,,3,1.8029895390063757,072,001,2019_Aug_26_1014,MusicAffectPsychophysiology2019,3.0.5,60.32275460896031,
To what extent did the music make you feel ,HAPPY,30MonoWAV/30MonoS1.wav,1,1,3,9,,,,,1,12,28,8,0,3,3,6,,,,,,,,,1,0.7033398210041923,072,001,2019_Aug_26_1014,MusicAffectPsychophysiology2019,3.0.5,60.32275460896031,
To what extent did the music make you feel ,ANXIOUS ,30MonoWAV/30MonoS1.wav,1,1,3,9,,,,,1,12,28,8,0,4,4,1,,,,,,,,,1,1.1368494630005443,072,001,2019_Aug_26_1014,MusicAffectPsychophysiology2019,3.0.5,60.32275460896031,
To what extent did the music make you feel ,SCARED,30MonoWAV/30MonoS1.wav,1,1,3,9,,,,,1,12,28,8,0,5,5,11,,,,,,,,,1,0.982539036005619,072,001,2019_Aug_26_1014,MusicAffectPsychophysiology2019,3.0.5,60.32275460896031,
To what extent did the music make you feel ,ASHAMED,30MonoWAV/30MonoS1.wav,1,1,3,9,,,,,1,12,28,8,0,6,6,4,,,,,,,,,2,1.735801460003131,072,001,2019_Aug_26_1014,MusicAffectPsychophysiology2019,3.0.5,60.32275460896031,
To what extent did the music make you feel ,ANGRY,30MonoWAV/30MonoS1.wav,1,1,3,9,,,,,1,12,28,8,0,7,7,2,,,,,,,,,1,0.7698017490038183,072,001,2019_Aug_26_1014,MusicAffectPsychophysiology2019,3.0.5,60.32275460896031,
To what extent did the music make you feel ,ALERT,30MonoWAV/30MonoS1.wav,1,1,3,9,,,,,1,12,28,8,0,8,8,8,,,,,,,,,2,3.9497166439978173,072,001,2019_Aug_26_1014,MusicAffectPsychophysiology2019,3.0.5,60.32275460896031,
To what extent did the music make you feel ,EXCITED,30MonoWAV/30MonoS1.wav,1,1,3,9,,,,,1,12,28,8,0,9,9,7,,,,,,,,,1,0.6195040519960457,072,001,2019_Aug_26_1014,MusicAffectPsychophysiology2019,3.0.5,60.32275460896031,
To what extent did the music make you feel ,ACTIVE,30MonoWAV/30MonoS1.wav,1,1,3,9,,,,,1,12,28,8,0,10,10,9,,,,,,,,,1,1.4203423529979773,072,001,2019_Aug_26_1014,MusicAffectPsychophysiology2019,3.0.5,60.32275460896031,
To what extent did the music make you feel ,TENDER,30MonoWAV/30MonoS1.wav,1,1,3,9,,,,,1,12,28,8,0,11,11,10,,,,,,,,,3,2.5289928869897267,072,001,2019_Aug_26_1014,MusicAffectPsychophysiology2019,3.0.5,60.32275460896031,
,,30MonoWAV/30MonoS1.wav,1,1,3,9,,,,,1,12,28,8,,,,,,,,,,,,,,,072,001,2019_Aug_26_1014,MusicAffectPsychophysiology2019,3.0.5,60.32275460896031,
To what extent did the music make you feel ,SAD,30MonoWAV/30MonoT3.wav,2,1,4,15,,,,,1,13,29,14,0,0,0,0,,,4,5.351974866003729,4,1.2852176250016782,4,1.0202206300018588,2,2.858882247004658,072,001,2019_Aug_26_1014,MusicAffectPsychophysiology2019,3.0.5,60.32275460896031,
To what extent did the music make you feel ,SCARED,30MonoWAV/30MonoT3.wav,2,1,4,15,,,,,1,13,29,14,0,1,1,11,,,,,,,,,1,1.1092346490040654,072,001,2019_Aug_26_1014,MusicAffectPsychophysiology2019,3.0.5,60.32275460896031,
To what extent did the music make you feel ,ALERT,30MonoWAV/30MonoT3.wav,2,1,4,15,,,,,1,13,29,14,0,2,2,8,,,,,,,,,1,1.4925212579983054,072,001,2019_Aug_26_1014,MusicAffectPsychophysiology2019,3.0.5,60.32275460896031,
To what extent did the music make you feel ,GUILTY,30MonoWAV/30MonoT3.wav,2,1,4,15,,,,,1,13,29,14,0,3,3,5,,,,,,,,,1,2.6865514730016002,072,001,2019_Aug_26_1014,MusicAffectPsychophysiology2019,3.0.5,60.32275460896031,
To what extent did the music make you feel ,HAPPY,30MonoWAV/30MonoT3.wav,2,1,4,15,,,,,1,13,29,14,0,4,4,6,,,,,,,,,1,4.25427544399281,072,001,2019_Aug_26_1014,MusicAffectPsychophysiology2019,3.0.5,60.32275460896031,
To what extent did the music make you feel ,ASHAMED,30MonoWAV/30MonoT3.wav,2,1,4,15,,,,,1,13,29,14,0,5,5,4,,,,,,,,,2,2.870886087999679,072,001,2019_Aug_26_1014,MusicAffectPsychophysiology2019,3.0.5,60.32275460896031,
To what extent did the music make you feel ,ACTIVE,30MonoWAV/30MonoT3.wav,2,1,4,15,,,,,1,13,29,14,0,6,6,9,,,,,,,,,1,1.741010704994551,072,001,2019_Aug_26_1014,MusicAffectPsychophysiology2019,3.0.5,60.32275460896031,
To what extent did the music make you feel ,ANGRY,30MonoWAV/30MonoT3.wav,2,1,4,15,,,,,1,13,29,14,0,7,7,2,,,,,,,,,1,0.9867558690020815,072,001,2019_Aug_26_1014,MusicAffectPsychophysiology2019,3.0.5,60.32275460896031,
To what extent did the music make you feel ,ANXIOUS ,30MonoWAV/30MonoT3.wav,2,1,4,15,,,,,1,13,29,14,0,8,8,1,,,,,,,,,1,1.173428045003675,072,001,2019_Aug_26_1014,MusicAffectPsychophysiology2019,3.0.5,60.32275460896031,
To what extent did the music make you feel ,EXCITED,30MonoWAV/30MonoT3.wav,2,1,4,15,,,,,1,13,29,14,0,9,9,7,,,,,,,,,1,0.7899045210069744,072,001,2019_Aug_26_1014,MusicAffectPsychophysiology2019,3.0.5,60.32275460896031,
To what extent did the music make you feel ,TENDER,30MonoWAV/30MonoT3.wav,2,1,4,15,,,,,1,13,29,14,0,10,10,10,,,,,,,,,5,1.6552896040084306,072,001,2019_Aug_26_1014,MusicAffectPsychophysiology2019,3.0.5,60.32275460896031,
To what extent did the music make you feel ,FRUSTRATED,30MonoWAV/30MonoT3.wav,2,1,4,15,,,,,1,13,29,14,0,11,11,3,,,,,,,,,1,2.438851408995106,072,001,2019_Aug_26_1014,MusicAffectPsychophysiology2019,3.0.5,60.32275460896031,
,,30MonoWAV/30MonoT3.wav,2,1,4,15,,,,,1,13,29,14,,,,,,,,,,,,,,,072,001,2019_Aug_26_1014,MusicAffectPsychophysiology2019,3.0.5,60.32275460896031,
To what extent did the music make you feel ,ANXIOUS ,30MonoWAV/30MonoF2.wav,1,2,2,2,,,,,1,14,30,1,0,0,0,1,,,1,2.2041164719994413,1,1.3200017070048489,1,0.902125184002216,4,2.753780982995522,072,001,2019_Aug_26_1014,MusicAffectPsychophysiology2019,3.0.5,60.32275460896031,
To what extent did the music make you feel ,ANGRY,30MonoWAV/30MonoF2.wav,1,2,2,2,,,,,1,14,30,1,0,1,1,2,,,,,,,,,1,3.3194977910025045,072,001,2019_Aug_26_1014,MusicAffectPsychophysiology2019,3.0.5,60.32275460896031,
To what extent did the music make you feel ,ACTIVE,30MonoWAV/30MonoF2.wav,1,2,2,2,,,,,1,14,30,1,0,2,2,9,,,,,,,,,4,1.251703472007648,072,001,2019_Aug_26_1014,MusicAffectPsychophysiology2019,3.0.5,60.32275460896031,
To what extent did the music make you feel ,SCARED,30MonoWAV/30MonoF2.wav,1,2,2,2,,,,,1,14,30,1,0,3,3,11,,,,,,,,,4,1.065901911992114,072,001,2019_Aug_26_1014,MusicAffectPsychophysiology2019,3.0.5,60.32275460896031,
To what extent did the music make you feel ,TENDER,30MonoWAV/30MonoF2.wav,1,2,2,2,,,,,1,14,30,1,0,4,4,10,,,,,,,,,1,1.1168131829908816,072,001,2019_Aug_26_1014,MusicAffectPsychophysiology2019,3.0.5,60.32275460896031,
To what extent did the music make you feel ,FRUSTRATED,30MonoWAV/30MonoF2.wav,1,2,2,2,,,,,1,14,30,1,0,5,5,3,,,,,,,,,1,1.1482696430030046,072,001,2019_Aug_26_1014,MusicAffectPsychophysiology2019,3.0.5,60.32275460896031,
To what extent did the music make you feel ,ASHAMED,30MonoWAV/30MonoF2.wav,1,2,2,2,,,,,1,14,30,1,0,6,6,4,,,,,,,,,1,1.036142679004115,072,001,2019_Aug_26_1014,MusicAffectPsychophysiology2019,3.0.5,60.32275460896031,
To what extent did the music make you feel ,ALERT,30MonoWAV/30MonoF2.wav,1,2,2,2,,,,,1,14,30,1,0,7,7,8,,,,,,,,,4,1.1007866180007113,072,001,2019_Aug_26_1014,MusicAffectPsychophysiology2019,3.0.5,60.32275460896031,
To what extent did the music make you feel ,HAPPY,30MonoWAV/30MonoF2.wav,1,2,2,2,,,,,1,14,30,1,0,8,8,6,,,,,,,,,1,0.6535282759869006,072,001,2019_Aug_26_1014,MusicAffectPsychophysiology2019,3.0.5,60.32275460896031,
To what extent did the music make you feel ,EXCITED,30MonoWAV/30MonoF2.wav,1,2,2,2,,,,,1,14,30,1,0,9,9,7,,,,,,,,,1,0.7175528840016341,072,001,2019_Aug_26_1014,MusicAffectPsychophysiology2019,3.0.5,60.32275460896031,
To what extent did the music make you feel ,SAD,30MonoWAV/30MonoF2.wav,1,2,2,2,,,,,1,14,30,1,0,10,10,0,,,,,,,,,1,0.9033097020001151,072,001,2019_Aug_26_1014,MusicAffectPsychophysiology2019,3.0.5,60.32275460896031,
To what extent did the music make you feel ,GUILTY,30MonoWAV/30MonoF2.wav,1,2,2,2,,,,,1,14,30,1,0,11,11,5,,,,,,,,,1,0.6202590320026502,072,001,2019_Aug_26_1014,MusicAffectPsychophysiology2019,3.0.5,60.32275460896031,
,,30MonoWAV/30MonoF2.wav,1,2,2,2,,,,,1,14,30,1,,,,,,,,,,,,,,,072,001,2019_Aug_26_1014,MusicAffectPsychophysiology2019,3.0.5,60.32275460896031,
To what extent did the music make you feel ,SAD,30MonoWAV/30MonoF4.wav,1,2,2,4,,,,,1,15,31,3,0,0,0,0,,,4,4.370093352001277,2,3.037413674988784,1,1.5342592420056462,1,1.4599565750104375,072,001,2019_Aug_26_1014,MusicAffectPsychophysiology2019,3.0.5,60.32275460896031,
To what extent did the music make you feel ,SCARED,30MonoWAV/30MonoF4.wav,1,2,2,4,,,,,1,15,31,3,0,1,1,11,,,,,,,,,1,1.1601848380087176,072,001,2019_Aug_26_1014,MusicAffectPsychophysiology2019,3.0.5,60.32275460896031,
To what extent did the music make you feel ,ASHAMED,30MonoWAV/30MonoF4.wav,1,2,2,4,,,,,1,15,31,3,0,2,2,4,,,,,,,,,1,1.3524374209955567,072,001,2019_Aug_26_1014,MusicAffectPsychophysiology2019,3.0.5,60.32275460896031,
To what extent did the music make you feel ,GUILTY,30MonoWAV/30MonoF4.wav,1,2,2,4,,,,,1,15,31,3,0,3,3,5,,,,,,,,,2,1.6859450460033258,072,001,2019_Aug_26_1014,MusicAffectPsychophysiology2019,3.0.5,60.32275460896031,
To what extent did the music make you feel ,HAPPY,30MonoWAV/30MonoF4.wav,1,2,2,4,,,,,1,15,31,3,0,4,4,6,,,,,,,,,1,2.0541667229990708,072,001,2019_Aug_26_1014,MusicAffectPsychophysiology2019,3.0.5,60.32275460896031,
To what extent did the music make you feel ,ANXIOUS ,30MonoWAV/30MonoF4.wav,1,2,2,4,,,,,1,15,31,3,0,5,5,1,,,,,,,,,3,1.1574574880069122,072,001,2019_Aug_26_1014,MusicAffectPsychophysiology2019,3.0.5,60.32275460896031,
To what extent did the music make you feel ,ALERT,30MonoWAV/30MonoF4.wav,1,2,2,4,,,,,1,15,31,3,0,6,6,8,,,,,,,,,4,1.1852367850078736,072,001,2019_Aug_26_1014,MusicAffectPsychophysiology2019,3.0.5,60.32275460896031,
To what extent did the music make you feel ,ANGRY,30MonoWAV/30MonoF4.wav,1,2,2,4,,,,,1,15,31,3,0,7,7,2,,,,,,,,,3,2.5026825230015675,072,001,2019_Aug_26_1014,MusicAffectPsychophysiology2019,3.0.5,60.32275460896031,
To what extent did the music make you feel ,ACTIVE,30MonoWAV/30MonoF4.wav,1,2,2,4,,,,,1,15,31,3,0,8,8,9,,,,,,,,,3,1.686147455999162,072,001,2019_Aug_26_1014,MusicAffectPsychophysiology2019,3.0.5,60.32275460896031,
To what extent did the music make you feel ,TENDER,30MonoWAV/30MonoF4.wav,1,2,2,4,,,,,1,15,31,3,0,9,9,10,,,,,,,,,1,1.1249507760076085,072,001,2019_Aug_26_1014,MusicAffectPsychophysiology2019,3.0.5,60.32275460896031,
To what extent did the music make you feel ,EXCITED,30MonoWAV/30MonoF4.wav,1,2,2,4,,,,,1,15,31,3,0,10,10,7,,,,,,,,,1,0.9364261500013527,072,001,2019_Aug_26_1014,MusicAffectPsychophysiology2019,3.0.5,60.32275460896031,
To what extent did the music make you feel ,FRUSTRATED,30MonoWAV/30MonoF4.wav,1,2,2,4,,,,,1,15,31,3,0,11,11,3,,,,,,,,,3,2.5754068000096595,072,001,2019_Aug_26_1014,MusicAffectPsychophysiology2019,3.0.5,60.32275460896031,
,,30MonoWAV/30MonoF4.wav,1,2,2,4,,,,,1,15,31,3,,,,,,,,,,,,,,,072,001,2019_Aug_26_1014,MusicAffectPsychophysiology2019,3.0.5,60.32275460896031,
