Instruction,Word,song,valence,arousal,affectcat,songmark,pracwords.thisRepN,pracwords.thisTrialN,pracwords.thisN,pracwords.thisIndex,songtrials.thisRepN,songtrials.thisTrialN,songtrials.thisN,songtrials.thisIndex,words.thisRepN,words.thisTrialN,words.thisN,words.thisIndex,begin.keys,begin.rt,arousalkey.keys,arousalkey.rt,valencekey.keys,valencekey.rt,likekey.keys,likekey.rt,WordResponse.keys,WordResponse.rt,participant,session,date,expName,psychopyVersion,frameRate,
,,,,,,,,,,,,,,,,,,,space,4.45806804500171,,,,,,,,,073,001,2019_Aug_26_1112,MusicAffectPsychophysiology2019,3.0.5,59.96970426678319,
,,,,,,,,,,,,,,,,,,,,,4,11.535284875993966,,,,,,,073,001,2019_Aug_26_1112,MusicAffectPsychophysiology2019,3.0.5,59.96970426678319,
,,,,,,,,,,,,,,,,,,,,,,,3,8.120368531002896,,,,,073,001,2019_Aug_26_1112,MusicAffectPsychophysiology2019,3.0.5,59.96970426678319,
,,,,,,,,,,,,,,,,,,,,,,,,,3,7.735469339997508,,,073,001,2019_Aug_26_1112,MusicAffectPsychophysiology2019,3.0.5,59.96970426678319,
To what extent did the music make you feel ,GUILTY,,,,,,0,0,0,5,,,,,,,,,,,,,,,,,1,13.521945134998532,073,001,2019_Aug_26_1112,MusicAffectPsychophysiology2019,3.0.5,59.96970426678319,
To what extent did the music make you feel ,ACTIVE,,,,,,0,1,1,9,,,,,,,,,,,,,,,,,2,9.202907717000926,073,001,2019_Aug_26_1112,MusicAffectPsychophysiology2019,3.0.5,59.96970426678319,
To what extent did the music make you feel ,ANGRY,,,,,,0,2,2,2,,,,,,,,,,,,,,,,,1,2.303000639003585,073,001,2019_Aug_26_1112,MusicAffectPsychophysiology2019,3.0.5,59.96970426678319,
To what extent did the music make you feel ,SAD,,,,,,0,3,3,0,,,,,,,,,,,,,,,,,3,4.002727733008214,073,001,2019_Aug_26_1112,MusicAffectPsychophysiology2019,3.0.5,59.96970426678319,
To what extent did the music make you feel ,EXCITED,,,,,,0,4,4,7,,,,,,,,,,,,,,,,,2,3.2025044729962246,073,001,2019_Aug_26_1112,MusicAffectPsychophysiology2019,3.0.5,59.96970426678319,
To what extent did the music make you feel ,ASHAMED,,,,,,0,5,5,4,,,,,,,,,,,,,,,,,1,2.301756700995611,073,001,2019_Aug_26_1112,MusicAffectPsychophysiology2019,3.0.5,59.96970426678319,
To what extent did the music make you feel ,SCARED,,,,,,0,6,6,11,,,,,,,,,,,,,,,,,1,5.136169910998433,073,001,2019_Aug_26_1112,MusicAffectPsychophysiology2019,3.0.5,59.96970426678319,
To what extent did the music make you feel ,ANXIOUS ,,,,,,0,7,7,1,,,,,,,,,,,,,,,,,3,3.0864109719987027,073,001,2019_Aug_26_1112,MusicAffectPsychophysiology2019,3.0.5,59.96970426678319,
To what extent did the music make you feel ,HAPPY,,,,,,0,8,8,6,,,,,,,,,,,,,,,,,3,4.333734130996163,073,001,2019_Aug_26_1112,MusicAffectPsychophysiology2019,3.0.5,59.96970426678319,
To what extent did the music make you feel ,TENDER,,,,,,0,9,9,10,,,,,,,,,,,,,,,,,3,5.35215113099548,073,001,2019_Aug_26_1112,MusicAffectPsychophysiology2019,3.0.5,59.96970426678319,
To what extent did the music make you feel ,ALERT,,,,,,0,10,10,8,,,,,,,,,,,,,,,,,1,3.402447671003756,073,001,2019_Aug_26_1112,MusicAffectPsychophysiology2019,3.0.5,59.96970426678319,
To what extent did the music make you feel ,FRUSTRATED,,,,,,0,11,11,3,,,,,,,,,,,,,,,,,1,7.2155331969988765,073,001,2019_Aug_26_1112,MusicAffectPsychophysiology2019,3.0.5,59.96970426678319,
To what extent did the music make you feel ,FRUSTRATED,30MonoWAV/30MonoS2.wav,1,1,3,10,,,,,0,0,0,9,0,0,0,3,,,1,9.098645664998912,1,7.735738636998576,2,4.902250190003542,1,4.2932297740044305,073,001,2019_Aug_26_1112,MusicAffectPsychophysiology2019,3.0.5,59.96970426678319,
To what extent did the music make you feel ,ANGRY,30MonoWAV/30MonoS2.wav,1,1,3,10,,,,,0,0,0,9,0,1,1,2,,,,,,,,,1,9.403395214991178,073,001,2019_Aug_26_1112,MusicAffectPsychophysiology2019,3.0.5,59.96970426678319,
To what extent did the music make you feel ,SCARED,30MonoWAV/30MonoS2.wav,1,1,3,10,,,,,0,0,0,9,0,2,2,11,,,,,,,,,2,5.057448983003269,073,001,2019_Aug_26_1112,MusicAffectPsychophysiology2019,3.0.5,59.96970426678319,
To what extent did the music make you feel ,ANXIOUS ,30MonoWAV/30MonoS2.wav,1,1,3,10,,,,,0,0,0,9,0,3,3,1,,,,,,,,,2,8.852129025995964,073,001,2019_Aug_26_1112,MusicAffectPsychophysiology2019,3.0.5,59.96970426678319,
To what extent did the music make you feel ,SAD,30MonoWAV/30MonoS2.wav,1,1,3,10,,,,,0,0,0,9,0,4,4,0,,,,,,,,,3,5.236989242010168,073,001,2019_Aug_26_1112,MusicAffectPsychophysiology2019,3.0.5,59.96970426678319,
To what extent did the music make you feel ,ALERT,30MonoWAV/30MonoS2.wav,1,1,3,10,,,,,0,0,0,9,0,5,5,8,,,,,,,,,1,6.322524969000369,073,001,2019_Aug_26_1112,MusicAffectPsychophysiology2019,3.0.5,59.96970426678319,
To what extent did the music make you feel ,GUILTY,30MonoWAV/30MonoS2.wav,1,1,3,10,,,,,0,0,0,9,0,6,6,5,,,,,,,,,4,4.538638096011709,073,001,2019_Aug_26_1112,MusicAffectPsychophysiology2019,3.0.5,59.96970426678319,
To what extent did the music make you feel ,TENDER,30MonoWAV/30MonoS2.wav,1,1,3,10,,,,,0,0,0,9,0,7,7,10,,,,,,,,,2,3.7225168149889214,073,001,2019_Aug_26_1112,MusicAffectPsychophysiology2019,3.0.5,59.96970426678319,
To what extent did the music make you feel ,ASHAMED,30MonoWAV/30MonoS2.wav,1,1,3,10,,,,,0,0,0,9,0,8,8,4,,,,,,,,,2,4.635632728008204,073,001,2019_Aug_26_1112,MusicAffectPsychophysiology2019,3.0.5,59.96970426678319,
To what extent did the music make you feel ,ACTIVE,30MonoWAV/30MonoS2.wav,1,1,3,10,,,,,0,0,0,9,0,9,9,9,,,,,,,,,1,1.6200202089967206,073,001,2019_Aug_26_1112,MusicAffectPsychophysiology2019,3.0.5,59.96970426678319,
To what extent did the music make you feel ,HAPPY,30MonoWAV/30MonoS2.wav,1,1,3,10,,,,,0,0,0,9,0,10,10,6,,,,,,,,,1,6.0548943979956675,073,001,2019_Aug_26_1112,MusicAffectPsychophysiology2019,3.0.5,59.96970426678319,
To what extent did the music make you feel ,EXCITED,30MonoWAV/30MonoS2.wav,1,1,3,10,,,,,0,0,0,9,0,11,11,7,,,,,,,,,1,4.069336911008577,073,001,2019_Aug_26_1112,MusicAffectPsychophysiology2019,3.0.5,59.96970426678319,
,,30MonoWAV/30MonoS2.wav,1,1,3,10,,,,,0,0,0,9,,,,,,,,,,,,,,,073,001,2019_Aug_26_1112,MusicAffectPsychophysiology2019,3.0.5,59.96970426678319,
To what extent did the music make you feel ,ASHAMED,30MonoWAV/30MonoH4.wav,2,2,1,8,,,,,0,1,1,7,0,0,0,4,,,2,8.96881124599895,2,6.752873626013752,1,3.3860277689964278,1,3.6531227359955665,073,001,2019_Aug_26_1112,MusicAffectPsychophysiology2019,3.0.5,59.96970426678319,
To what extent did the music make you feel ,FRUSTRATED,30MonoWAV/30MonoH4.wav,2,2,1,8,,,,,0,1,1,7,0,1,1,3,,,,,,,,,3,2.02904416200181,073,001,2019_Aug_26_1112,MusicAffectPsychophysiology2019,3.0.5,59.96970426678319,
To what extent did the music make you feel ,ANGRY,30MonoWAV/30MonoH4.wav,2,2,1,8,,,,,0,1,1,7,0,2,2,2,,,,,,,,,3,4.302381682995474,073,001,2019_Aug_26_1112,MusicAffectPsychophysiology2019,3.0.5,59.96970426678319,
To what extent did the music make you feel ,ALERT,30MonoWAV/30MonoH4.wav,2,2,1,8,,,,,0,1,1,7,0,3,3,8,,,,,,,,,1,2.0958881090045907,073,001,2019_Aug_26_1112,MusicAffectPsychophysiology2019,3.0.5,59.96970426678319,
To what extent did the music make you feel ,HAPPY,30MonoWAV/30MonoH4.wav,2,2,1,8,,,,,0,1,1,7,0,4,4,6,,,,,,,,,2,5.828324080997845,073,001,2019_Aug_26_1112,MusicAffectPsychophysiology2019,3.0.5,59.96970426678319,
To what extent did the music make you feel ,TENDER,30MonoWAV/30MonoH4.wav,2,2,1,8,,,,,0,1,1,7,0,5,5,10,,,,,,,,,1,3.3189597109885653,073,001,2019_Aug_26_1112,MusicAffectPsychophysiology2019,3.0.5,59.96970426678319,
To what extent did the music make you feel ,EXCITED,30MonoWAV/30MonoH4.wav,2,2,1,8,,,,,0,1,1,7,0,6,6,7,,,,,,,,,2,3.5520640979957534,073,001,2019_Aug_26_1112,MusicAffectPsychophysiology2019,3.0.5,59.96970426678319,
To what extent did the music make you feel ,SCARED,30MonoWAV/30MonoH4.wav,2,2,1,8,,,,,0,1,1,7,0,7,7,11,,,,,,,,,1,3.202797064994229,073,001,2019_Aug_26_1112,MusicAffectPsychophysiology2019,3.0.5,59.96970426678319,
To what extent did the music make you feel ,SAD,30MonoWAV/30MonoH4.wav,2,2,1,8,,,,,0,1,1,7,0,8,8,0,,,,,,,,,1,2.119079245996545,073,001,2019_Aug_26_1112,MusicAffectPsychophysiology2019,3.0.5,59.96970426678319,
To what extent did the music make you feel ,GUILTY,30MonoWAV/30MonoH4.wav,2,2,1,8,,,,,0,1,1,7,0,9,9,5,,,,,,,,,1,1.2037428769981489,073,001,2019_Aug_26_1112,MusicAffectPsychophysiology2019,3.0.5,59.96970426678319,
To what extent did the music make you feel ,ACTIVE,30MonoWAV/30MonoH4.wav,2,2,1,8,,,,,0,1,1,7,0,10,10,9,,,,,,,,,2,2.886229375988478,073,001,2019_Aug_26_1112,MusicAffectPsychophysiology2019,3.0.5,59.96970426678319,
To what extent did the music make you feel ,ANXIOUS ,30MonoWAV/30MonoH4.wav,2,2,1,8,,,,,0,1,1,7,0,11,11,1,,,,,,,,,1,2.1347482900018804,073,001,2019_Aug_26_1112,MusicAffectPsychophysiology2019,3.0.5,59.96970426678319,
,,30MonoWAV/30MonoH4.wav,2,2,1,8,,,,,0,1,1,7,,,,,,,,,,,,,,,073,001,2019_Aug_26_1112,MusicAffectPsychophysiology2019,3.0.5,59.96970426678319,
To what extent did the music make you feel ,EXCITED,30MonoWAV/30MonoH1.wav,2,2,1,5,,,,,0,2,2,4,0,0,0,7,,,3,3.838308931008214,3,9.751742915992509,3,3.7192441200022586,3,3.7036317760066595,073,001,2019_Aug_26_1112,MusicAffectPsychophysiology2019,3.0.5,59.96970426678319,
To what extent did the music make you feel ,GUILTY,30MonoWAV/30MonoH1.wav,2,2,1,5,,,,,0,2,2,4,0,1,1,5,,,,,,,,,1,1.6360327860020334,073,001,2019_Aug_26_1112,MusicAffectPsychophysiology2019,3.0.5,59.96970426678319,
To what extent did the music make you feel ,ANXIOUS ,30MonoWAV/30MonoH1.wav,2,2,1,5,,,,,0,2,2,4,0,2,2,1,,,,,,,,,1,2.833531092008343,073,001,2019_Aug_26_1112,MusicAffectPsychophysiology2019,3.0.5,59.96970426678319,
To what extent did the music make you feel ,FRUSTRATED,30MonoWAV/30MonoH1.wav,2,2,1,5,,,,,0,2,2,4,0,3,3,3,,,,,,,,,1,2.0364548539946554,073,001,2019_Aug_26_1112,MusicAffectPsychophysiology2019,3.0.5,59.96970426678319,
To what extent did the music make you feel ,ANGRY,30MonoWAV/30MonoH1.wav,2,2,1,5,,,,,0,2,2,4,0,4,4,2,,,,,,,,,1,3.1351590679987567,073,001,2019_Aug_26_1112,MusicAffectPsychophysiology2019,3.0.5,59.96970426678319,
To what extent did the music make you feel ,HAPPY,30MonoWAV/30MonoH1.wav,2,2,1,5,,,,,0,2,2,4,0,5,5,6,,,,,,,,,3,4.286053068994079,073,001,2019_Aug_26_1112,MusicAffectPsychophysiology2019,3.0.5,59.96970426678319,
To what extent did the music make you feel ,ALERT,30MonoWAV/30MonoH1.wav,2,2,1,5,,,,,0,2,2,4,0,6,6,8,,,,,,,,,1,8.770649971003877,073,001,2019_Aug_26_1112,MusicAffectPsychophysiology2019,3.0.5,59.96970426678319,
To what extent did the music make you feel ,TENDER,30MonoWAV/30MonoH1.wav,2,2,1,5,,,,,0,2,2,4,0,7,7,10,,,,,,,,,1,2.3525213620014256,073,001,2019_Aug_26_1112,MusicAffectPsychophysiology2019,3.0.5,59.96970426678319,
To what extent did the music make you feel ,ACTIVE,30MonoWAV/30MonoH1.wav,2,2,1,5,,,,,0,2,2,4,0,8,8,9,,,,,,,,,3,2.469726579001872,073,001,2019_Aug_26_1112,MusicAffectPsychophysiology2019,3.0.5,59.96970426678319,
To what extent did the music make you feel ,SAD,30MonoWAV/30MonoH1.wav,2,2,1,5,,,,,0,2,2,4,0,9,9,0,,,,,,,,,1,5.9001272979949135,073,001,2019_Aug_26_1112,MusicAffectPsychophysiology2019,3.0.5,59.96970426678319,
To what extent did the music make you feel ,ASHAMED,30MonoWAV/30MonoH1.wav,2,2,1,5,,,,,0,2,2,4,0,10,10,4,,,,,,,,,1,1.5867455980041996,073,001,2019_Aug_26_1112,MusicAffectPsychophysiology2019,3.0.5,59.96970426678319,
To what extent did the music make you feel ,SCARED,30MonoWAV/30MonoH1.wav,2,2,1,5,,,,,0,2,2,4,0,11,11,11,,,,,,,,,1,7.952383857002133,073,001,2019_Aug_26_1112,MusicAffectPsychophysiology2019,3.0.5,59.96970426678319,
,,30MonoWAV/30MonoH1.wav,2,2,1,5,,,,,0,2,2,4,,,,,,,,,,,,,,,073,001,2019_Aug_26_1112,MusicAffectPsychophysiology2019,3.0.5,59.96970426678319,
To what extent did the music make you feel ,ASHAMED,30MonoWAV/30MonoS3.wav,1,1,3,11,,,,,0,3,3,10,0,0,0,4,,,1,8.036217745000613,3,7.002709073989536,3,4.18657940698904,1,9.239213982989895,073,001,2019_Aug_26_1112,MusicAffectPsychophysiology2019,3.0.5,59.96970426678319,
To what extent did the music make you feel ,ANXIOUS ,30MonoWAV/30MonoS3.wav,1,1,3,11,,,,,0,3,3,10,0,1,1,1,,,,,,,,,2,4.869009488000302,073,001,2019_Aug_26_1112,MusicAffectPsychophysiology2019,3.0.5,59.96970426678319,
To what extent did the music make you feel ,SAD,30MonoWAV/30MonoS3.wav,1,1,3,11,,,,,0,3,3,10,0,2,2,0,,,,,,,,,3,5.035591163003119,073,001,2019_Aug_26_1112,MusicAffectPsychophysiology2019,3.0.5,59.96970426678319,
To what extent did the music make you feel ,HAPPY,30MonoWAV/30MonoS3.wav,1,1,3,11,,,,,0,3,3,10,0,3,3,6,,,,,,,,,1,8.485714219990768,073,001,2019_Aug_26_1112,MusicAffectPsychophysiology2019,3.0.5,59.96970426678319,
To what extent did the music make you feel ,TENDER,30MonoWAV/30MonoS3.wav,1,1,3,11,,,,,0,3,3,10,0,4,4,10,,,,,,,,,1,1.688602616006392,073,001,2019_Aug_26_1112,MusicAffectPsychophysiology2019,3.0.5,59.96970426678319,
To what extent did the music make you feel ,FRUSTRATED,30MonoWAV/30MonoS3.wav,1,1,3,11,,,,,0,3,3,10,0,5,5,3,,,,,,,,,1,5.021960954007227,073,001,2019_Aug_26_1112,MusicAffectPsychophysiology2019,3.0.5,59.96970426678319,
To what extent did the music make you feel ,SCARED,30MonoWAV/30MonoS3.wav,1,1,3,11,,,,,0,3,3,10,0,6,6,11,,,,,,,,,3,4.685179533000337,073,001,2019_Aug_26_1112,MusicAffectPsychophysiology2019,3.0.5,59.96970426678319,
To what extent did the music make you feel ,ACTIVE,30MonoWAV/30MonoS3.wav,1,1,3,11,,,,,0,3,3,10,0,7,7,9,,,,,,,,,1,3.4353168480010936,073,001,2019_Aug_26_1112,MusicAffectPsychophysiology2019,3.0.5,59.96970426678319,
To what extent did the music make you feel ,GUILTY,30MonoWAV/30MonoS3.wav,1,1,3,11,,,,,0,3,3,10,0,8,8,5,,,,,,,,,2,3.7197085649968358,073,001,2019_Aug_26_1112,MusicAffectPsychophysiology2019,3.0.5,59.96970426678319,
To what extent did the music make you feel ,EXCITED,30MonoWAV/30MonoS3.wav,1,1,3,11,,,,,0,3,3,10,0,9,9,7,,,,,,,,,2,17.2875502579991,073,001,2019_Aug_26_1112,MusicAffectPsychophysiology2019,3.0.5,59.96970426678319,
To what extent did the music make you feel ,ALERT,30MonoWAV/30MonoS3.wav,1,1,3,11,,,,,0,3,3,10,0,10,10,8,,,,,,,,,2,2.920248709007865,073,001,2019_Aug_26_1112,MusicAffectPsychophysiology2019,3.0.5,59.96970426678319,
To what extent did the music make you feel ,ANGRY,30MonoWAV/30MonoS3.wav,1,1,3,11,,,,,0,3,3,10,0,11,11,2,,,,,,,,,1,2.453112101997249,073,001,2019_Aug_26_1112,MusicAffectPsychophysiology2019,3.0.5,59.96970426678319,
,,30MonoWAV/30MonoS3.wav,1,1,3,11,,,,,0,3,3,10,,,,,,,,,,,,,,,073,001,2019_Aug_26_1112,MusicAffectPsychophysiology2019,3.0.5,59.96970426678319,
To what extent did the music make you feel ,FRUSTRATED,30MonoWAV/30MonoF3.wav,1,2,2,3,,,,,0,4,4,2,0,0,0,3,,,3,3.985989401000552,2,5.070100399010698,4,2.185410292004235,1,7.669210288004251,073,001,2019_Aug_26_1112,MusicAffectPsychophysiology2019,3.0.5,59.96970426678319,
To what extent did the music make you feel ,ASHAMED,30MonoWAV/30MonoF3.wav,1,2,2,3,,,,,0,4,4,2,0,1,1,4,,,,,,,,,1,12.352212956000585,073,001,2019_Aug_26_1112,MusicAffectPsychophysiology2019,3.0.5,59.96970426678319,
To what extent did the music make you feel ,EXCITED,30MonoWAV/30MonoF3.wav,1,2,2,3,,,,,0,4,4,2,0,2,2,7,,,,,,,,,2,3.1104062310041627,073,001,2019_Aug_26_1112,MusicAffectPsychophysiology2019,3.0.5,59.96970426678319,
To what extent did the music make you feel ,SCARED,30MonoWAV/30MonoF3.wav,1,2,2,3,,,,,0,4,4,2,0,3,3,11,,,,,,,,,1,5.709338116997969,073,001,2019_Aug_26_1112,MusicAffectPsychophysiology2019,3.0.5,59.96970426678319,
To what extent did the music make you feel ,ALERT,30MonoWAV/30MonoF3.wav,1,2,2,3,,,,,0,4,4,2,0,4,4,8,,,,,,,,,4,5.733672179005225,073,001,2019_Aug_26_1112,MusicAffectPsychophysiology2019,3.0.5,59.96970426678319,
To what extent did the music make you feel ,GUILTY,30MonoWAV/30MonoF3.wav,1,2,2,3,,,,,0,4,4,2,0,5,5,5,,,,,,,,,1,7.43663749199186,073,001,2019_Aug_26_1112,MusicAffectPsychophysiology2019,3.0.5,59.96970426678319,
To what extent did the music make you feel ,HAPPY,30MonoWAV/30MonoF3.wav,1,2,2,3,,,,,0,4,4,2,0,6,6,6,,,,,,,,,2,4.7085473949991865,073,001,2019_Aug_26_1112,MusicAffectPsychophysiology2019,3.0.5,59.96970426678319,
To what extent did the music make you feel ,ACTIVE,30MonoWAV/30MonoF3.wav,1,2,2,3,,,,,0,4,4,2,0,7,7,9,,,,,,,,,2,2.7573448839975754,073,001,2019_Aug_26_1112,MusicAffectPsychophysiology2019,3.0.5,59.96970426678319,
To what extent did the music make you feel ,ANXIOUS ,30MonoWAV/30MonoF3.wav,1,2,2,3,,,,,0,4,4,2,0,8,8,1,,,,,,,,,1,6.854940165008884,073,001,2019_Aug_26_1112,MusicAffectPsychophysiology2019,3.0.5,59.96970426678319,
To what extent did the music make you feel ,ANGRY,30MonoWAV/30MonoF3.wav,1,2,2,3,,,,,0,4,4,2,0,9,9,2,,,,,,,,,2,10.688925326991011,073,001,2019_Aug_26_1112,MusicAffectPsychophysiology2019,3.0.5,59.96970426678319,
To what extent did the music make you feel ,TENDER,30MonoWAV/30MonoF3.wav,1,2,2,3,,,,,0,4,4,2,0,10,10,10,,,,,,,,,1,6.373183323987178,073,001,2019_Aug_26_1112,MusicAffectPsychophysiology2019,3.0.5,59.96970426678319,
To what extent did the music make you feel ,SAD,30MonoWAV/30MonoF3.wav,1,2,2,3,,,,,0,4,4,2,0,11,11,0,,,,,,,,,1,3.5542557900043903,073,001,2019_Aug_26_1112,MusicAffectPsychophysiology2019,3.0.5,59.96970426678319,
,,30MonoWAV/30MonoF3.wav,1,2,2,3,,,,,0,4,4,2,,,,,,,,,,,,,,,073,001,2019_Aug_26_1112,MusicAffectPsychophysiology2019,3.0.5,59.96970426678319,
To what extent did the music make you feel ,SCARED,30MonoWAV/30MonoT2.wav,2,1,4,14,,,,,0,5,5,13,0,0,0,11,,,2,8.335234357000445,1,6.17020277598931,2,2.669370837000315,1,13.069724181012134,073,001,2019_Aug_26_1112,MusicAffectPsychophysiology2019,3.0.5,59.96970426678319,
To what extent did the music make you feel ,GUILTY,30MonoWAV/30MonoT2.wav,2,1,4,14,,,,,0,5,5,13,0,1,1,5,,,,,,,,,2,13.735401105994242,073,001,2019_Aug_26_1112,MusicAffectPsychophysiology2019,3.0.5,59.96970426678319,
To what extent did the music make you feel ,ANXIOUS ,30MonoWAV/30MonoT2.wav,2,1,4,14,,,,,0,5,5,13,0,2,2,1,,,,,,,,,2,3.092758868006058,073,001,2019_Aug_26_1112,MusicAffectPsychophysiology2019,3.0.5,59.96970426678319,
To what extent did the music make you feel ,FRUSTRATED,30MonoWAV/30MonoT2.wav,2,1,4,14,,,,,0,5,5,13,0,3,3,3,,,,,,,,,2,5.969792604999384,073,001,2019_Aug_26_1112,MusicAffectPsychophysiology2019,3.0.5,59.96970426678319,
To what extent did the music make you feel ,TENDER,30MonoWAV/30MonoT2.wav,2,1,4,14,,,,,0,5,5,13,0,4,4,10,,,,,,,,,3,13.240786062000552,073,001,2019_Aug_26_1112,MusicAffectPsychophysiology2019,3.0.5,59.96970426678319,
To what extent did the music make you feel ,HAPPY,30MonoWAV/30MonoT2.wav,2,1,4,14,,,,,0,5,5,13,0,5,5,6,,,,,,,,,1,9.633298303000629,073,001,2019_Aug_26_1112,MusicAffectPsychophysiology2019,3.0.5,59.96970426678319,
To what extent did the music make you feel ,ANGRY,30MonoWAV/30MonoT2.wav,2,1,4,14,,,,,0,5,5,13,0,6,6,2,,,,,,,,,1,9.520855045004282,073,001,2019_Aug_26_1112,MusicAffectPsychophysiology2019,3.0.5,59.96970426678319,
To what extent did the music make you feel ,SAD,30MonoWAV/30MonoT2.wav,2,1,4,14,,,,,0,5,5,13,0,7,7,0,,,,,,,,,2,6.77460739100934,073,001,2019_Aug_26_1112,MusicAffectPsychophysiology2019,3.0.5,59.96970426678319,
To what extent did the music make you feel ,EXCITED,30MonoWAV/30MonoT2.wav,2,1,4,14,,,,,0,5,5,13,0,8,8,7,,,,,,,,,1,2.5410945670009824,073,001,2019_Aug_26_1112,MusicAffectPsychophysiology2019,3.0.5,59.96970426678319,
To what extent did the music make you feel ,ALERT,30MonoWAV/30MonoT2.wav,2,1,4,14,,,,,0,5,5,13,0,9,9,8,,,,,,,,,1,2.9580631690041628,073,001,2019_Aug_26_1112,MusicAffectPsychophysiology2019,3.0.5,59.96970426678319,
To what extent did the music make you feel ,ASHAMED,30MonoWAV/30MonoT2.wav,2,1,4,14,,,,,0,5,5,13,0,10,10,4,,,,,,,,,2,7.4561413359915605,073,001,2019_Aug_26_1112,MusicAffectPsychophysiology2019,3.0.5,59.96970426678319,
To what extent did the music make you feel ,ACTIVE,30MonoWAV/30MonoT2.wav,2,1,4,14,,,,,0,5,5,13,0,11,11,9,,,,,,,,,1,4.32275984599255,073,001,2019_Aug_26_1112,MusicAffectPsychophysiology2019,3.0.5,59.96970426678319,
,,30MonoWAV/30MonoT2.wav,2,1,4,14,,,,,0,5,5,13,,,,,,,,,,,,,,,073,001,2019_Aug_26_1112,MusicAffectPsychophysiology2019,3.0.5,59.96970426678319,
To what extent did the music make you feel ,ALERT,30MonoWAV/30MonoT1.wav,2,1,4,13,,,,,0,6,6,12,0,0,0,8,,,2,8.136158663008246,3,5.301285626992467,2,3.5670171940000728,2,12.00162470000214,073,001,2019_Aug_26_1112,MusicAffectPsychophysiology2019,3.0.5,59.96970426678319,
To what extent did the music make you feel ,ANXIOUS ,30MonoWAV/30MonoT1.wav,2,1,4,13,,,,,0,6,6,12,0,1,1,1,,,,,,,,,1,1.7979154409986222,073,001,2019_Aug_26_1112,MusicAffectPsychophysiology2019,3.0.5,59.96970426678319,
To what extent did the music make you feel ,TENDER,30MonoWAV/30MonoT1.wav,2,1,4,13,,,,,0,6,6,12,0,2,2,10,,,,,,,,,2,8.646396673997515,073,001,2019_Aug_26_1112,MusicAffectPsychophysiology2019,3.0.5,59.96970426678319,
To what extent did the music make you feel ,GUILTY,30MonoWAV/30MonoT1.wav,2,1,4,13,,,,,0,6,6,12,0,3,3,5,,,,,,,,,1,1.4204207860020688,073,001,2019_Aug_26_1112,MusicAffectPsychophysiology2019,3.0.5,59.96970426678319,
To what extent did the music make you feel ,FRUSTRATED,30MonoWAV/30MonoT1.wav,2,1,4,13,,,,,0,6,6,12,0,4,4,3,,,,,,,,,1,4.1300566290010465,073,001,2019_Aug_26_1112,MusicAffectPsychophysiology2019,3.0.5,59.96970426678319,
To what extent did the music make you feel ,EXCITED,30MonoWAV/30MonoT1.wav,2,1,4,13,,,,,0,6,6,12,0,5,5,7,,,,,,,,,2,6.329674298001919,073,001,2019_Aug_26_1112,MusicAffectPsychophysiology2019,3.0.5,59.96970426678319,
To what extent did the music make you feel ,ANGRY,30MonoWAV/30MonoT1.wav,2,1,4,13,,,,,0,6,6,12,0,6,6,2,,,,,,,,,1,7.378206753986888,073,001,2019_Aug_26_1112,MusicAffectPsychophysiology2019,3.0.5,59.96970426678319,
To what extent did the music make you feel ,SAD,30MonoWAV/30MonoT1.wav,2,1,4,13,,,,,0,6,6,12,0,7,7,0,,,,,,,,,2,2.3871202070004074,073,001,2019_Aug_26_1112,MusicAffectPsychophysiology2019,3.0.5,59.96970426678319,
To what extent did the music make you feel ,SCARED,30MonoWAV/30MonoT1.wav,2,1,4,13,,,,,0,6,6,12,0,8,8,11,,,,,,,,,1,3.6947971519985003,073,001,2019_Aug_26_1112,MusicAffectPsychophysiology2019,3.0.5,59.96970426678319,
To what extent did the music make you feel ,ASHAMED,30MonoWAV/30MonoT1.wav,2,1,4,13,,,,,0,6,6,12,0,9,9,4,,,,,,,,,1,1.9033468069974333,073,001,2019_Aug_26_1112,MusicAffectPsychophysiology2019,3.0.5,59.96970426678319,
To what extent did the music make you feel ,HAPPY,30MonoWAV/30MonoT1.wav,2,1,4,13,,,,,0,6,6,12,0,10,10,6,,,,,,,,,2,6.433238949990482,073,001,2019_Aug_26_1112,MusicAffectPsychophysiology2019,3.0.5,59.96970426678319,
To what extent did the music make you feel ,ACTIVE,30MonoWAV/30MonoT1.wav,2,1,4,13,,,,,0,6,6,12,0,11,11,9,,,,,,,,,2,6.204313882000861,073,001,2019_Aug_26_1112,MusicAffectPsychophysiology2019,3.0.5,59.96970426678319,
,,30MonoWAV/30MonoT1.wav,2,1,4,13,,,,,0,6,6,12,,,,,,,,,,,,,,,073,001,2019_Aug_26_1112,MusicAffectPsychophysiology2019,3.0.5,59.96970426678319,
To what extent did the music make you feel ,TENDER,30MonoWAV/30MonoF4.wav,1,2,2,4,,,,,0,7,7,3,0,0,0,10,,,3,3.752821424001013,2,3.2200015850103227,3,3.003169784002239,1,1.7363026669918327,073,001,2019_Aug_26_1112,MusicAffectPsychophysiology2019,3.0.5,59.96970426678319,
To what extent did the music make you feel ,ANXIOUS ,30MonoWAV/30MonoF4.wav,1,2,2,4,,,,,0,7,7,3,0,1,1,1,,,,,,,,,2,3.1197936910029966,073,001,2019_Aug_26_1112,MusicAffectPsychophysiology2019,3.0.5,59.96970426678319,
To what extent did the music make you feel ,SCARED,30MonoWAV/30MonoF4.wav,1,2,2,4,,,,,0,7,7,3,0,2,2,11,,,,,,,,,2,1.769821594003588,073,001,2019_Aug_26_1112,MusicAffectPsychophysiology2019,3.0.5,59.96970426678319,
To what extent did the music make you feel ,ACTIVE,30MonoWAV/30MonoF4.wav,1,2,2,4,,,,,0,7,7,3,0,3,3,9,,,,,,,,,3,3.769282686000224,073,001,2019_Aug_26_1112,MusicAffectPsychophysiology2019,3.0.5,59.96970426678319,
To what extent did the music make you feel ,ALERT,30MonoWAV/30MonoF4.wav,1,2,2,4,,,,,0,7,7,3,0,4,4,8,,,,,,,,,4,2.902152623006259,073,001,2019_Aug_26_1112,MusicAffectPsychophysiology2019,3.0.5,59.96970426678319,
To what extent did the music make you feel ,FRUSTRATED,30MonoWAV/30MonoF4.wav,1,2,2,4,,,,,0,7,7,3,0,5,5,3,,,,,,,,,1,4.668840299011208,073,001,2019_Aug_26_1112,MusicAffectPsychophysiology2019,3.0.5,59.96970426678319,
To what extent did the music make you feel ,ANGRY,30MonoWAV/30MonoF4.wav,1,2,2,4,,,,,0,7,7,3,0,6,6,2,,,,,,,,,1,3.368664073990658,073,001,2019_Aug_26_1112,MusicAffectPsychophysiology2019,3.0.5,59.96970426678319,
To what extent did the music make you feel ,HAPPY,30MonoWAV/30MonoF4.wav,1,2,2,4,,,,,0,7,7,3,0,7,7,6,,,,,,,,,1,9.535489305999363,073,001,2019_Aug_26_1112,MusicAffectPsychophysiology2019,3.0.5,59.96970426678319,
To what extent did the music make you feel ,ASHAMED,30MonoWAV/30MonoF4.wav,1,2,2,4,,,,,0,7,7,3,0,8,8,4,,,,,,,,,2,2.8535660170018673,073,001,2019_Aug_26_1112,MusicAffectPsychophysiology2019,3.0.5,59.96970426678319,
To what extent did the music make you feel ,EXCITED,30MonoWAV/30MonoF4.wav,1,2,2,4,,,,,0,7,7,3,0,9,9,7,,,,,,,,,3,5.882982365001226,073,001,2019_Aug_26_1112,MusicAffectPsychophysiology2019,3.0.5,59.96970426678319,
To what extent did the music make you feel ,GUILTY,30MonoWAV/30MonoF4.wav,1,2,2,4,,,,,0,7,7,3,0,10,10,5,,,,,,,,,2,3.813996059994679,073,001,2019_Aug_26_1112,MusicAffectPsychophysiology2019,3.0.5,59.96970426678319,
To what extent did the music make you feel ,SAD,30MonoWAV/30MonoF4.wav,1,2,2,4,,,,,0,7,7,3,0,11,11,0,,,,,,,,,1,5.419927891998668,073,001,2019_Aug_26_1112,MusicAffectPsychophysiology2019,3.0.5,59.96970426678319,
,,30MonoWAV/30MonoF4.wav,1,2,2,4,,,,,0,7,7,3,,,,,,,,,,,,,,,073,001,2019_Aug_26_1112,MusicAffectPsychophysiology2019,3.0.5,59.96970426678319,
To what extent did the music make you feel ,ALERT,30MonoWAV/30MonoF1.wav,1,2,2,1,,,,,0,8,8,0,0,0,0,8,,,4,4.702192005002871,3,1.933352271997137,4,1.9547639130032621,3,7.233470823004609,073,001,2019_Aug_26_1112,MusicAffectPsychophysiology2019,3.0.5,59.96970426678319,
To what extent did the music make you feel ,GUILTY,30MonoWAV/30MonoF1.wav,1,2,2,1,,,,,0,8,8,0,0,1,1,5,,,,,,,,,1,2.054363226998248,073,001,2019_Aug_26_1112,MusicAffectPsychophysiology2019,3.0.5,59.96970426678319,
To what extent did the music make you feel ,EXCITED,30MonoWAV/30MonoF1.wav,1,2,2,1,,,,,0,8,8,0,0,2,2,7,,,,,,,,,3,1.6762949510011822,073,001,2019_Aug_26_1112,MusicAffectPsychophysiology2019,3.0.5,59.96970426678319,
To what extent did the music make you feel ,ANXIOUS ,30MonoWAV/30MonoF1.wav,1,2,2,1,,,,,0,8,8,0,0,3,3,1,,,,,,,,,2,2.858428505001939,073,001,2019_Aug_26_1112,MusicAffectPsychophysiology2019,3.0.5,59.96970426678319,
To what extent did the music make you feel ,TENDER,30MonoWAV/30MonoF1.wav,1,2,2,1,,,,,0,8,8,0,0,4,4,10,,,,,,,,,1,3.040995736999321,073,001,2019_Aug_26_1112,MusicAffectPsychophysiology2019,3.0.5,59.96970426678319,
To what extent did the music make you feel ,FRUSTRATED,30MonoWAV/30MonoF1.wav,1,2,2,1,,,,,0,8,8,0,0,5,5,3,,,,,,,,,1,2.90905741500319,073,001,2019_Aug_26_1112,MusicAffectPsychophysiology2019,3.0.5,59.96970426678319,
To what extent did the music make you feel ,ASHAMED,30MonoWAV/30MonoF1.wav,1,2,2,1,,,,,0,8,8,0,0,6,6,4,,,,,,,,,1,2.436269755999092,073,001,2019_Aug_26_1112,MusicAffectPsychophysiology2019,3.0.5,59.96970426678319,
To what extent did the music make you feel ,ANGRY,30MonoWAV/30MonoF1.wav,1,2,2,1,,,,,0,8,8,0,0,7,7,2,,,,,,,,,2,5.235734380999929,073,001,2019_Aug_26_1112,MusicAffectPsychophysiology2019,3.0.5,59.96970426678319,
To what extent did the music make you feel ,SAD,30MonoWAV/30MonoF1.wav,1,2,2,1,,,,,0,8,8,0,0,8,8,0,,,,,,,,,1,10.152347620998626,073,001,2019_Aug_26_1112,MusicAffectPsychophysiology2019,3.0.5,59.96970426678319,
To what extent did the music make you feel ,SCARED,30MonoWAV/30MonoF1.wav,1,2,2,1,,,,,0,8,8,0,0,9,9,11,,,,,,,,,1,1.6199392980051925,073,001,2019_Aug_26_1112,MusicAffectPsychophysiology2019,3.0.5,59.96970426678319,
To what extent did the music make you feel ,ACTIVE,30MonoWAV/30MonoF1.wav,1,2,2,1,,,,,0,8,8,0,0,10,10,9,,,,,,,,,3,2.6392298440041486,073,001,2019_Aug_26_1112,MusicAffectPsychophysiology2019,3.0.5,59.96970426678319,
To what extent did the music make you feel ,HAPPY,30MonoWAV/30MonoF1.wav,1,2,2,1,,,,,0,8,8,0,0,11,11,6,,,,,,,,,2,5.3196781699953135,073,001,2019_Aug_26_1112,MusicAffectPsychophysiology2019,3.0.5,59.96970426678319,
,,30MonoWAV/30MonoF1.wav,1,2,2,1,,,,,0,8,8,0,,,,,,,,,,,,,,,073,001,2019_Aug_26_1112,MusicAffectPsychophysiology2019,3.0.5,59.96970426678319,
To what extent did the music make you feel ,GUILTY,30MonoWAV/30MonoS4.wav,1,1,3,12,,,,,0,9,9,11,0,0,0,5,,,1,5.2704543709987774,1,4.3495445089938585,2,2.7524626670056023,1,4.999871897991397,073,001,2019_Aug_26_1112,MusicAffectPsychophysiology2019,3.0.5,59.96970426678319,
To what extent did the music make you feel ,SAD,30MonoWAV/30MonoS4.wav,1,1,3,12,,,,,0,9,9,11,0,1,1,0,,,,,,,,,2,2.186964177992195,073,001,2019_Aug_26_1112,MusicAffectPsychophysiology2019,3.0.5,59.96970426678319,
To what extent did the music make you feel ,ANXIOUS ,30MonoWAV/30MonoS4.wav,1,1,3,12,,,,,0,9,9,11,0,2,2,1,,,,,,,,,1,2.216568217991153,073,001,2019_Aug_26_1112,MusicAffectPsychophysiology2019,3.0.5,59.96970426678319,
To what extent did the music make you feel ,SCARED,30MonoWAV/30MonoS4.wav,1,1,3,12,,,,,0,9,9,11,0,3,3,11,,,,,,,,,1,1.900608153999201,073,001,2019_Aug_26_1112,MusicAffectPsychophysiology2019,3.0.5,59.96970426678319,
To what extent did the music make you feel ,ASHAMED,30MonoWAV/30MonoS4.wav,1,1,3,12,,,,,0,9,9,11,0,4,4,4,,,,,,,,,1,4.537649614998372,073,001,2019_Aug_26_1112,MusicAffectPsychophysiology2019,3.0.5,59.96970426678319,
To what extent did the music make you feel ,EXCITED,30MonoWAV/30MonoS4.wav,1,1,3,12,,,,,0,9,9,11,0,5,5,7,,,,,,,,,1,9.21296259900555,073,001,2019_Aug_26_1112,MusicAffectPsychophysiology2019,3.0.5,59.96970426678319,
To what extent did the music make you feel ,ALERT,30MonoWAV/30MonoS4.wav,1,1,3,12,,,,,0,9,9,11,0,6,6,8,,,,,,,,,2,2.1692463559884345,073,001,2019_Aug_26_1112,MusicAffectPsychophysiology2019,3.0.5,59.96970426678319,
To what extent did the music make you feel ,ANGRY,30MonoWAV/30MonoS4.wav,1,1,3,12,,,,,0,9,9,11,0,7,7,2,,,,,,,,,2,2.6697100150049664,073,001,2019_Aug_26_1112,MusicAffectPsychophysiology2019,3.0.5,59.96970426678319,
To what extent did the music make you feel ,FRUSTRATED,30MonoWAV/30MonoS4.wav,1,1,3,12,,,,,0,9,9,11,0,8,8,3,,,,,,,,,2,2.4597369319963036,073,001,2019_Aug_26_1112,MusicAffectPsychophysiology2019,3.0.5,59.96970426678319,
To what extent did the music make you feel ,TENDER,30MonoWAV/30MonoS4.wav,1,1,3,12,,,,,0,9,9,11,0,9,9,10,,,,,,,,,2,3.8874548919993686,073,001,2019_Aug_26_1112,MusicAffectPsychophysiology2019,3.0.5,59.96970426678319,
To what extent did the music make you feel ,ACTIVE,30MonoWAV/30MonoS4.wav,1,1,3,12,,,,,0,9,9,11,0,10,10,9,,,,,,,,,1,9.92761613499897,073,001,2019_Aug_26_1112,MusicAffectPsychophysiology2019,3.0.5,59.96970426678319,
To what extent did the music make you feel ,HAPPY,30MonoWAV/30MonoS4.wav,1,1,3,12,,,,,0,9,9,11,0,11,11,6,,,,,,,,,1,1.5863894820067799,073,001,2019_Aug_26_1112,MusicAffectPsychophysiology2019,3.0.5,59.96970426678319,
,,30MonoWAV/30MonoS4.wav,1,1,3,12,,,,,0,9,9,11,,,,,,,,,,,,,,,073,001,2019_Aug_26_1112,MusicAffectPsychophysiology2019,3.0.5,59.96970426678319,
To what extent did the music make you feel ,ALERT,30MonoWAV/30MonoF2.wav,1,2,2,2,,,,,0,10,10,1,0,0,0,8,,,2,3.7210601010010578,3,3.269087089007371,3,2.9196379790082574,2,3.789613057990209,073,001,2019_Aug_26_1112,MusicAffectPsychophysiology2019,3.0.5,59.96970426678319,
To what extent did the music make you feel ,SCARED,30MonoWAV/30MonoF2.wav,1,2,2,2,,,,,0,10,10,1,0,1,1,11,,,,,,,,,3,2.3560580420016777,073,001,2019_Aug_26_1112,MusicAffectPsychophysiology2019,3.0.5,59.96970426678319,
To what extent did the music make you feel ,ANGRY,30MonoWAV/30MonoF2.wav,1,2,2,2,,,,,0,10,10,1,0,2,2,2,,,,,,,,,1,5.337176543005626,073,001,2019_Aug_26_1112,MusicAffectPsychophysiology2019,3.0.5,59.96970426678319,
To what extent did the music make you feel ,ANXIOUS ,30MonoWAV/30MonoF2.wav,1,2,2,2,,,,,0,10,10,1,0,3,3,1,,,,,,,,,3,4.653523770000902,073,001,2019_Aug_26_1112,MusicAffectPsychophysiology2019,3.0.5,59.96970426678319,
To what extent did the music make you feel ,GUILTY,30MonoWAV/30MonoF2.wav,1,2,2,2,,,,,0,10,10,1,0,4,4,5,,,,,,,,,1,2.1859704809903633,073,001,2019_Aug_26_1112,MusicAffectPsychophysiology2019,3.0.5,59.96970426678319,
To what extent did the music make you feel ,HAPPY,30MonoWAV/30MonoF2.wav,1,2,2,2,,,,,0,10,10,1,0,5,5,6,,,,,,,,,2,13.766448192996904,073,001,2019_Aug_26_1112,MusicAffectPsychophysiology2019,3.0.5,59.96970426678319,
To what extent did the music make you feel ,EXCITED,30MonoWAV/30MonoF2.wav,1,2,2,2,,,,,0,10,10,1,0,6,6,7,,,,,,,,,2,3.502753268010565,073,001,2019_Aug_26_1112,MusicAffectPsychophysiology2019,3.0.5,59.96970426678319,
To what extent did the music make you feel ,ASHAMED,30MonoWAV/30MonoF2.wav,1,2,2,2,,,,,0,10,10,1,0,7,7,4,,,,,,,,,1,5.917540751994238,073,001,2019_Aug_26_1112,MusicAffectPsychophysiology2019,3.0.5,59.96970426678319,
To what extent did the music make you feel ,SAD,30MonoWAV/30MonoF2.wav,1,2,2,2,,,,,0,10,10,1,0,8,8,0,,,,,,,,,1,5.319861928001046,073,001,2019_Aug_26_1112,MusicAffectPsychophysiology2019,3.0.5,59.96970426678319,
To what extent did the music make you feel ,TENDER,30MonoWAV/30MonoF2.wav,1,2,2,2,,,,,0,10,10,1,0,9,9,10,,,,,,,,,1,1.9534908850037027,073,001,2019_Aug_26_1112,MusicAffectPsychophysiology2019,3.0.5,59.96970426678319,
To what extent did the music make you feel ,FRUSTRATED,30MonoWAV/30MonoF2.wav,1,2,2,2,,,,,0,10,10,1,0,10,10,3,,,,,,,,,1,9.386596719996305,073,001,2019_Aug_26_1112,MusicAffectPsychophysiology2019,3.0.5,59.96970426678319,
To what extent did the music make you feel ,ACTIVE,30MonoWAV/30MonoF2.wav,1,2,2,2,,,,,0,10,10,1,0,11,11,9,,,,,,,,,2,12.586461311002495,073,001,2019_Aug_26_1112,MusicAffectPsychophysiology2019,3.0.5,59.96970426678319,
,,30MonoWAV/30MonoF2.wav,1,2,2,2,,,,,0,10,10,1,,,,,,,,,,,,,,,073,001,2019_Aug_26_1112,MusicAffectPsychophysiology2019,3.0.5,59.96970426678319,
To what extent did the music make you feel ,EXCITED,30MonoWAV/30MonoS1.wav,1,1,3,9,,,,,0,11,11,8,0,0,0,7,,,1,4.487187842998537,1,2.9534602730127517,2,3.403902948004543,1,3.986437346000457,073,001,2019_Aug_26_1112,MusicAffectPsychophysiology2019,3.0.5,59.96970426678319,
To what extent did the music make you feel ,ANGRY,30MonoWAV/30MonoS1.wav,1,1,3,9,,,,,0,11,11,8,0,1,1,2,,,,,,,,,1,2.3036830220080446,073,001,2019_Aug_26_1112,MusicAffectPsychophysiology2019,3.0.5,59.96970426678319,
To what extent did the music make you feel ,SAD,30MonoWAV/30MonoS1.wav,1,1,3,9,,,,,0,11,11,8,0,2,2,0,,,,,,,,,3,2.386393300999771,073,001,2019_Aug_26_1112,MusicAffectPsychophysiology2019,3.0.5,59.96970426678319,
To what extent did the music make you feel ,ALERT,30MonoWAV/30MonoS1.wav,1,1,3,9,,,,,0,11,11,8,0,3,3,8,,,,,,,,,1,8.708214153011795,073,001,2019_Aug_26_1112,MusicAffectPsychophysiology2019,3.0.5,59.96970426678319,
To what extent did the music make you feel ,SCARED,30MonoWAV/30MonoS1.wav,1,1,3,9,,,,,0,11,11,8,0,4,4,11,,,,,,,,,2,5.2908675109938486,073,001,2019_Aug_26_1112,MusicAffectPsychophysiology2019,3.0.5,59.96970426678319,
To what extent did the music make you feel ,HAPPY,30MonoWAV/30MonoS1.wav,1,1,3,9,,,,,0,11,11,8,0,5,5,6,,,,,,,,,1,1.9857817199954297,073,001,2019_Aug_26_1112,MusicAffectPsychophysiology2019,3.0.5,59.96970426678319,
To what extent did the music make you feel ,GUILTY,30MonoWAV/30MonoS1.wav,1,1,3,9,,,,,0,11,11,8,0,6,6,5,,,,,,,,,3,2.3365135619969806,073,001,2019_Aug_26_1112,MusicAffectPsychophysiology2019,3.0.5,59.96970426678319,
To what extent did the music make you feel ,ASHAMED,30MonoWAV/30MonoS1.wav,1,1,3,9,,,,,0,11,11,8,0,7,7,4,,,,,,,,,3,1.36981902300613,073,001,2019_Aug_26_1112,MusicAffectPsychophysiology2019,3.0.5,59.96970426678319,
To what extent did the music make you feel ,TENDER,30MonoWAV/30MonoS1.wav,1,1,3,9,,,,,0,11,11,8,0,8,8,10,,,,,,,,,2,2.8868445709958905,073,001,2019_Aug_26_1112,MusicAffectPsychophysiology2019,3.0.5,59.96970426678319,
To what extent did the music make you feel ,ANXIOUS ,30MonoWAV/30MonoS1.wav,1,1,3,9,,,,,0,11,11,8,0,9,9,1,,,,,,,,,2,2.7180227560020285,073,001,2019_Aug_26_1112,MusicAffectPsychophysiology2019,3.0.5,59.96970426678319,
To what extent did the music make you feel ,ACTIVE,30MonoWAV/30MonoS1.wav,1,1,3,9,,,,,0,11,11,8,0,10,10,9,,,,,,,,,1,2.736556641990319,073,001,2019_Aug_26_1112,MusicAffectPsychophysiology2019,3.0.5,59.96970426678319,
To what extent did the music make you feel ,FRUSTRATED,30MonoWAV/30MonoS1.wav,1,1,3,9,,,,,0,11,11,8,0,11,11,3,,,,,,,,,1,9.654613851002068,073,001,2019_Aug_26_1112,MusicAffectPsychophysiology2019,3.0.5,59.96970426678319,
,,30MonoWAV/30MonoS1.wav,1,1,3,9,,,,,0,11,11,8,,,,,,,,,,,,,,,073,001,2019_Aug_26_1112,MusicAffectPsychophysiology2019,3.0.5,59.96970426678319,
To what extent did the music make you feel ,FRUSTRATED,30MonoWAV/30MonoT3.wav,2,1,4,15,,,,,0,12,12,14,0,0,0,3,,,2,4.13344972699997,3,1.9525511329993606,3,3.736240873011411,1,3.8161137790011708,073,001,2019_Aug_26_1112,MusicAffectPsychophysiology2019,3.0.5,59.96970426678319,
To what extent did the music make you feel ,EXCITED,30MonoWAV/30MonoT3.wav,2,1,4,15,,,,,0,12,12,14,0,1,1,7,,,,,,,,,2,13.281403663000674,073,001,2019_Aug_26_1112,MusicAffectPsychophysiology2019,3.0.5,59.96970426678319,
To what extent did the music make you feel ,TENDER,30MonoWAV/30MonoT3.wav,2,1,4,15,,,,,0,12,12,14,0,2,2,10,,,,,,,,,2,5.5135921100009,073,001,2019_Aug_26_1112,MusicAffectPsychophysiology2019,3.0.5,59.96970426678319,
To what extent did the music make you feel ,ACTIVE,30MonoWAV/30MonoT3.wav,2,1,4,15,,,,,0,12,12,14,0,3,3,9,,,,,,,,,2,6.347147090986255,073,001,2019_Aug_26_1112,MusicAffectPsychophysiology2019,3.0.5,59.96970426678319,
To what extent did the music make you feel ,SAD,30MonoWAV/30MonoT3.wav,2,1,4,15,,,,,0,12,12,14,0,4,4,0,,,,,,,,,2,1.9641633800056297,073,001,2019_Aug_26_1112,MusicAffectPsychophysiology2019,3.0.5,59.96970426678319,
To what extent did the music make you feel ,ANGRY,30MonoWAV/30MonoT3.wav,2,1,4,15,,,,,0,12,12,14,0,5,5,2,,,,,,,,,1,2.1290511960105505,073,001,2019_Aug_26_1112,MusicAffectPsychophysiology2019,3.0.5,59.96970426678319,
To what extent did the music make you feel ,SCARED,30MonoWAV/30MonoT3.wav,2,1,4,15,,,,,0,12,12,14,0,6,6,11,,,,,,,,,1,2.1954653860011604,073,001,2019_Aug_26_1112,MusicAffectPsychophysiology2019,3.0.5,59.96970426678319,
To what extent did the music make you feel ,ANXIOUS ,30MonoWAV/30MonoT3.wav,2,1,4,15,,,,,0,12,12,14,0,7,7,1,,,,,,,,,1,2.611521951999748,073,001,2019_Aug_26_1112,MusicAffectPsychophysiology2019,3.0.5,59.96970426678319,
To what extent did the music make you feel ,ASHAMED,30MonoWAV/30MonoT3.wav,2,1,4,15,,,,,0,12,12,14,0,8,8,4,,,,,,,,,1,1.928397039999254,073,001,2019_Aug_26_1112,MusicAffectPsychophysiology2019,3.0.5,59.96970426678319,
To what extent did the music make you feel ,HAPPY,30MonoWAV/30MonoT3.wav,2,1,4,15,,,,,0,12,12,14,0,9,9,6,,,,,,,,,2,5.736341975003597,073,001,2019_Aug_26_1112,MusicAffectPsychophysiology2019,3.0.5,59.96970426678319,
To what extent did the music make you feel ,ALERT,30MonoWAV/30MonoT3.wav,2,1,4,15,,,,,0,12,12,14,0,10,10,8,,,,,,,,,1,3.5287317289912608,073,001,2019_Aug_26_1112,MusicAffectPsychophysiology2019,3.0.5,59.96970426678319,
To what extent did the music make you feel ,GUILTY,30MonoWAV/30MonoT3.wav,2,1,4,15,,,,,0,12,12,14,0,11,11,5,,,,,,,,,1,3.2096835039992584,073,001,2019_Aug_26_1112,MusicAffectPsychophysiology2019,3.0.5,59.96970426678319,
,,30MonoWAV/30MonoT3.wav,2,1,4,15,,,,,0,12,12,14,,,,,,,,,,,,,,,073,001,2019_Aug_26_1112,MusicAffectPsychophysiology2019,3.0.5,59.96970426678319,
To what extent did the music make you feel ,SCARED,30MonoWAV/30MonoH3.wav,2,2,1,7,,,,,0,13,13,6,0,0,0,11,,,2,8.703045950998785,3,1.869123059004778,3,3.370262853000895,1,4.870546769991051,073,001,2019_Aug_26_1112,MusicAffectPsychophysiology2019,3.0.5,59.96970426678319,
To what extent did the music make you feel ,HAPPY,30MonoWAV/30MonoH3.wav,2,2,1,7,,,,,0,13,13,6,0,1,1,6,,,,,,,,,3,2.03656893101288,073,001,2019_Aug_26_1112,MusicAffectPsychophysiology2019,3.0.5,59.96970426678319,
To what extent did the music make you feel ,ANXIOUS ,30MonoWAV/30MonoH3.wav,2,2,1,7,,,,,0,13,13,6,0,2,2,1,,,,,,,,,1,2.5337443499884102,073,001,2019_Aug_26_1112,MusicAffectPsychophysiology2019,3.0.5,59.96970426678319,
To what extent did the music make you feel ,SAD,30MonoWAV/30MonoH3.wav,2,2,1,7,,,,,0,13,13,6,0,3,3,0,,,,,,,,,1,3.3544448699976783,073,001,2019_Aug_26_1112,MusicAffectPsychophysiology2019,3.0.5,59.96970426678319,
To what extent did the music make you feel ,EXCITED,30MonoWAV/30MonoH3.wav,2,2,1,7,,,,,0,13,13,6,0,4,4,7,,,,,,,,,3,1.403890126006445,073,001,2019_Aug_26_1112,MusicAffectPsychophysiology2019,3.0.5,59.96970426678319,
To what extent did the music make you feel ,FRUSTRATED,30MonoWAV/30MonoH3.wav,2,2,1,7,,,,,0,13,13,6,0,5,5,3,,,,,,,,,1,1.9864387949928641,073,001,2019_Aug_26_1112,MusicAffectPsychophysiology2019,3.0.5,59.96970426678319,
To what extent did the music make you feel ,ALERT,30MonoWAV/30MonoH3.wav,2,2,1,7,,,,,0,13,13,6,0,6,6,8,,,,,,,,,2,3.1867871960130287,073,001,2019_Aug_26_1112,MusicAffectPsychophysiology2019,3.0.5,59.96970426678319,
To what extent did the music make you feel ,ANGRY,30MonoWAV/30MonoH3.wav,2,2,1,7,,,,,0,13,13,6,0,7,7,2,,,,,,,,,1,2.2853646040020976,073,001,2019_Aug_26_1112,MusicAffectPsychophysiology2019,3.0.5,59.96970426678319,
To what extent did the music make you feel ,GUILTY,30MonoWAV/30MonoH3.wav,2,2,1,7,,,,,0,13,13,6,0,8,8,5,,,,,,,,,1,1.3028666540049016,073,001,2019_Aug_26_1112,MusicAffectPsychophysiology2019,3.0.5,59.96970426678319,
To what extent did the music make you feel ,ASHAMED,30MonoWAV/30MonoH3.wav,2,2,1,7,,,,,0,13,13,6,0,9,9,4,,,,,,,,,1,0.8367252099997131,073,001,2019_Aug_26_1112,MusicAffectPsychophysiology2019,3.0.5,59.96970426678319,
To what extent did the music make you feel ,ACTIVE,30MonoWAV/30MonoH3.wav,2,2,1,7,,,,,0,13,13,6,0,10,10,9,,,,,,,,,3,2.7539914149965625,073,001,2019_Aug_26_1112,MusicAffectPsychophysiology2019,3.0.5,59.96970426678319,
To what extent did the music make you feel ,TENDER,30MonoWAV/30MonoH3.wav,2,2,1,7,,,,,0,13,13,6,0,11,11,10,,,,,,,,,1,6.036203903990099,073,001,2019_Aug_26_1112,MusicAffectPsychophysiology2019,3.0.5,59.96970426678319,
,,30MonoWAV/30MonoH3.wav,2,2,1,7,,,,,0,13,13,6,,,,,,,,,,,,,,,073,001,2019_Aug_26_1112,MusicAffectPsychophysiology2019,3.0.5,59.96970426678319,
To what extent did the music make you feel ,ANGRY,30MonoWAV/30MonoT4.wav,2,1,4,16,,,,,0,14,14,15,0,0,0,2,,,1,8.70216307300143,2,2.2537755770026706,2,2.586821400007466,1,5.769396452000365,073,001,2019_Aug_26_1112,MusicAffectPsychophysiology2019,3.0.5,59.96970426678319,
To what extent did the music make you feel ,HAPPY,30MonoWAV/30MonoT4.wav,2,1,4,16,,,,,0,14,14,15,0,1,1,6,,,,,,,,,3,8.137476265008445,073,001,2019_Aug_26_1112,MusicAffectPsychophysiology2019,3.0.5,59.96970426678319,
To what extent did the music make you feel ,SAD,30MonoWAV/30MonoT4.wav,2,1,4,16,,,,,0,14,14,15,0,2,2,0,,,,,,,,,2,2.876856734001194,073,001,2019_Aug_26_1112,MusicAffectPsychophysiology2019,3.0.5,59.96970426678319,
To what extent did the music make you feel ,ASHAMED,30MonoWAV/30MonoT4.wav,2,1,4,16,,,,,0,14,14,15,0,3,3,4,,,,,,,,,1,16.59249951300444,073,001,2019_Aug_26_1112,MusicAffectPsychophysiology2019,3.0.5,59.96970426678319,
To what extent did the music make you feel ,SCARED,30MonoWAV/30MonoT4.wav,2,1,4,16,,,,,0,14,14,15,0,4,4,11,,,,,,,,,1,2.1907817640021676,073,001,2019_Aug_26_1112,MusicAffectPsychophysiology2019,3.0.5,59.96970426678319,
To what extent did the music make you feel ,EXCITED,30MonoWAV/30MonoT4.wav,2,1,4,16,,,,,0,14,14,15,0,5,5,7,,,,,,,,,3,2.107517573997029,073,001,2019_Aug_26_1112,MusicAffectPsychophysiology2019,3.0.5,59.96970426678319,
To what extent did the music make you feel ,FRUSTRATED,30MonoWAV/30MonoT4.wav,2,1,4,16,,,,,0,14,14,15,0,6,6,3,,,,,,,,,1,1.9375927960063564,073,001,2019_Aug_26_1112,MusicAffectPsychophysiology2019,3.0.5,59.96970426678319,
To what extent did the music make you feel ,TENDER,30MonoWAV/30MonoT4.wav,2,1,4,16,,,,,0,14,14,15,0,7,7,10,,,,,,,,,2,2.8734320329967886,073,001,2019_Aug_26_1112,MusicAffectPsychophysiology2019,3.0.5,59.96970426678319,
To what extent did the music make you feel ,ANXIOUS ,30MonoWAV/30MonoT4.wav,2,1,4,16,,,,,0,14,14,15,0,8,8,1,,,,,,,,,1,3.3695785520103527,073,001,2019_Aug_26_1112,MusicAffectPsychophysiology2019,3.0.5,59.96970426678319,
To what extent did the music make you feel ,GUILTY,30MonoWAV/30MonoT4.wav,2,1,4,16,,,,,0,14,14,15,0,9,9,5,,,,,,,,,1,4.789294874994084,073,001,2019_Aug_26_1112,MusicAffectPsychophysiology2019,3.0.5,59.96970426678319,
To what extent did the music make you feel ,ACTIVE,30MonoWAV/30MonoT4.wav,2,1,4,16,,,,,0,14,14,15,0,10,10,9,,,,,,,,,1,1.3371844950015657,073,001,2019_Aug_26_1112,MusicAffectPsychophysiology2019,3.0.5,59.96970426678319,
To what extent did the music make you feel ,ALERT,30MonoWAV/30MonoT4.wav,2,1,4,16,,,,,0,14,14,15,0,11,11,8,,,,,,,,,2,2.022584022997762,073,001,2019_Aug_26_1112,MusicAffectPsychophysiology2019,3.0.5,59.96970426678319,
,,30MonoWAV/30MonoT4.wav,2,1,4,16,,,,,0,14,14,15,,,,,,,,,,,,,,,073,001,2019_Aug_26_1112,MusicAffectPsychophysiology2019,3.0.5,59.96970426678319,
To what extent did the music make you feel ,EXCITED,30MonoWAV/30MonoH2.wav,2,2,1,6,,,,,0,15,15,5,0,0,0,7,,,2,8.886300405007205,2,4.900231631996576,2,2.1537826120038517,2,3.2702958040026715,073,001,2019_Aug_26_1112,MusicAffectPsychophysiology2019,3.0.5,59.96970426678319,
To what extent did the music make you feel ,SAD,30MonoWAV/30MonoH2.wav,2,2,1,6,,,,,0,15,15,5,0,1,1,0,,,,,,,,,1,2.9021431269939058,073,001,2019_Aug_26_1112,MusicAffectPsychophysiology2019,3.0.5,59.96970426678319,
To what extent did the music make you feel ,ACTIVE,30MonoWAV/30MonoH2.wav,2,2,1,6,,,,,0,15,15,5,0,2,2,9,,,,,,,,,2,1.9656834180059377,073,001,2019_Aug_26_1112,MusicAffectPsychophysiology2019,3.0.5,59.96970426678319,
To what extent did the music make you feel ,HAPPY,30MonoWAV/30MonoH2.wav,2,2,1,6,,,,,0,15,15,5,0,3,3,6,,,,,,,,,2,2.1364748280029744,073,001,2019_Aug_26_1112,MusicAffectPsychophysiology2019,3.0.5,59.96970426678319,
To what extent did the music make you feel ,SCARED,30MonoWAV/30MonoH2.wav,2,2,1,6,,,,,0,15,15,5,0,4,4,11,,,,,,,,,1,8.065997597004753,073,001,2019_Aug_26_1112,MusicAffectPsychophysiology2019,3.0.5,59.96970426678319,
To what extent did the music make you feel ,ALERT,30MonoWAV/30MonoH2.wav,2,2,1,6,,,,,0,15,15,5,0,5,5,8,,,,,,,,,2,3.215410870994674,073,001,2019_Aug_26_1112,MusicAffectPsychophysiology2019,3.0.5,59.96970426678319,
To what extent did the music make you feel ,FRUSTRATED,30MonoWAV/30MonoH2.wav,2,2,1,6,,,,,0,15,15,5,0,6,6,3,,,,,,,,,2,4.280614240007708,073,001,2019_Aug_26_1112,MusicAffectPsychophysiology2019,3.0.5,59.96970426678319,
To what extent did the music make you feel ,ANGRY,30MonoWAV/30MonoH2.wav,2,2,1,6,,,,,0,15,15,5,0,7,7,2,,,,,,,,,1,2.5142253869998967,073,001,2019_Aug_26_1112,MusicAffectPsychophysiology2019,3.0.5,59.96970426678319,
To what extent did the music make you feel ,TENDER,30MonoWAV/30MonoH2.wav,2,2,1,6,,,,,0,15,15,5,0,8,8,10,,,,,,,,,1,10.396597965009278,073,001,2019_Aug_26_1112,MusicAffectPsychophysiology2019,3.0.5,59.96970426678319,
To what extent did the music make you feel ,ASHAMED,30MonoWAV/30MonoH2.wav,2,2,1,6,,,,,0,15,15,5,0,9,9,4,,,,,,,,,1,2.745217005009181,073,001,2019_Aug_26_1112,MusicAffectPsychophysiology2019,3.0.5,59.96970426678319,
To what extent did the music make you feel ,ANXIOUS ,30MonoWAV/30MonoH2.wav,2,2,1,6,,,,,0,15,15,5,0,10,10,1,,,,,,,,,1,1.770440360007342,073,001,2019_Aug_26_1112,MusicAffectPsychophysiology2019,3.0.5,59.96970426678319,
To what extent did the music make you feel ,GUILTY,30MonoWAV/30MonoH2.wav,2,2,1,6,,,,,0,15,15,5,0,11,11,5,,,,,,,,,1,1.344498702994315,073,001,2019_Aug_26_1112,MusicAffectPsychophysiology2019,3.0.5,59.96970426678319,
,,30MonoWAV/30MonoH2.wav,2,2,1,6,,,,,0,15,15,5,,,,,,,,,,,,,,,073,001,2019_Aug_26_1112,MusicAffectPsychophysiology2019,3.0.5,59.96970426678319,
To what extent did the music make you feel ,SAD,30MonoWAV/30MonoH1.wav,2,2,1,5,,,,,1,0,16,4,0,0,0,0,,,3,8.901907601990388,3,3.469800437000231,3,4.920852039009333,1,2.9045093980093952,073,001,2019_Aug_26_1112,MusicAffectPsychophysiology2019,3.0.5,59.96970426678319,
To what extent did the music make you feel ,TENDER,30MonoWAV/30MonoH1.wav,2,2,1,5,,,,,1,0,16,4,0,1,1,10,,,,,,,,,1,0.9875547499977984,073,001,2019_Aug_26_1112,MusicAffectPsychophysiology2019,3.0.5,59.96970426678319,
To what extent did the music make you feel ,ANXIOUS ,30MonoWAV/30MonoH1.wav,2,2,1,5,,,,,1,0,16,4,0,2,2,1,,,,,,,,,1,1.2868208690051688,073,001,2019_Aug_26_1112,MusicAffectPsychophysiology2019,3.0.5,59.96970426678319,
To what extent did the music make you feel ,HAPPY,30MonoWAV/30MonoH1.wav,2,2,1,5,,,,,1,0,16,4,0,3,3,6,,,,,,,,,3,2.1001024989964208,073,001,2019_Aug_26_1112,MusicAffectPsychophysiology2019,3.0.5,59.96970426678319,
To what extent did the music make you feel ,GUILTY,30MonoWAV/30MonoH1.wav,2,2,1,5,,,,,1,0,16,4,0,4,4,5,,,,,,,,,1,1.4698411330027739,073,001,2019_Aug_26_1112,MusicAffectPsychophysiology2019,3.0.5,59.96970426678319,
To what extent did the music make you feel ,FRUSTRATED,30MonoWAV/30MonoH1.wav,2,2,1,5,,,,,1,0,16,4,0,5,5,3,,,,,,,,,1,4.3372971000062535,073,001,2019_Aug_26_1112,MusicAffectPsychophysiology2019,3.0.5,59.96970426678319,
To what extent did the music make you feel ,SCARED,30MonoWAV/30MonoH1.wav,2,2,1,5,,,,,1,0,16,4,0,6,6,11,,,,,,,,,1,3.00236348900944,073,001,2019_Aug_26_1112,MusicAffectPsychophysiology2019,3.0.5,59.96970426678319,
To what extent did the music make you feel ,ANGRY,30MonoWAV/30MonoH1.wav,2,2,1,5,,,,,1,0,16,4,0,7,7,2,,,,,,,,,1,2.2699293569894508,073,001,2019_Aug_26_1112,MusicAffectPsychophysiology2019,3.0.5,59.96970426678319,
To what extent did the music make you feel ,ACTIVE,30MonoWAV/30MonoH1.wav,2,2,1,5,,,,,1,0,16,4,0,8,8,9,,,,,,,,,3,1.584305794996908,073,001,2019_Aug_26_1112,MusicAffectPsychophysiology2019,3.0.5,59.96970426678319,
To what extent did the music make you feel ,EXCITED,30MonoWAV/30MonoH1.wav,2,2,1,5,,,,,1,0,16,4,0,9,9,7,,,,,,,,,3,6.185885678991326,073,001,2019_Aug_26_1112,MusicAffectPsychophysiology2019,3.0.5,59.96970426678319,
To what extent did the music make you feel ,ASHAMED,30MonoWAV/30MonoH1.wav,2,2,1,5,,,,,1,0,16,4,0,10,10,4,,,,,,,,,1,1.8856926310108975,073,001,2019_Aug_26_1112,MusicAffectPsychophysiology2019,3.0.5,59.96970426678319,
To what extent did the music make you feel ,ALERT,30MonoWAV/30MonoH1.wav,2,2,1,5,,,,,1,0,16,4,0,11,11,8,,,,,,,,,2,2.2866973759955727,073,001,2019_Aug_26_1112,MusicAffectPsychophysiology2019,3.0.5,59.96970426678319,
,,30MonoWAV/30MonoH1.wav,2,2,1,5,,,,,1,0,16,4,,,,,,,,,,,,,,,073,001,2019_Aug_26_1112,MusicAffectPsychophysiology2019,3.0.5,59.96970426678319,
To what extent did the music make you feel ,GUILTY,30MonoWAV/30MonoF2.wav,1,2,2,2,,,,,1,1,17,1,0,0,0,5,,,2,9.63555693399394,3,2.369205598006374,3,3.4026666990102967,2,4.353335257997969,073,001,2019_Aug_26_1112,MusicAffectPsychophysiology2019,3.0.5,59.96970426678319,
To what extent did the music make you feel ,ACTIVE,30MonoWAV/30MonoF2.wav,1,2,2,2,,,,,1,1,17,1,0,1,1,9,,,,,,,,,3,4.4857128570001805,073,001,2019_Aug_26_1112,MusicAffectPsychophysiology2019,3.0.5,59.96970426678319,
To what extent did the music make you feel ,SCARED,30MonoWAV/30MonoF2.wav,1,2,2,2,,,,,1,1,17,1,0,2,2,11,,,,,,,,,3,2.0342143750021933,073,001,2019_Aug_26_1112,MusicAffectPsychophysiology2019,3.0.5,59.96970426678319,
To what extent did the music make you feel ,ANGRY,30MonoWAV/30MonoF2.wav,1,2,2,2,,,,,1,1,17,1,0,3,3,2,,,,,,,,,1,5.554013843997382,073,001,2019_Aug_26_1112,MusicAffectPsychophysiology2019,3.0.5,59.96970426678319,
To what extent did the music make you feel ,TENDER,30MonoWAV/30MonoF2.wav,1,2,2,2,,,,,1,1,17,1,0,4,4,10,,,,,,,,,1,4.476838440008578,073,001,2019_Aug_26_1112,MusicAffectPsychophysiology2019,3.0.5,59.96970426678319,
To what extent did the music make you feel ,ANXIOUS ,30MonoWAV/30MonoF2.wav,1,2,2,2,,,,,1,1,17,1,0,5,5,1,,,,,,,,,3,2.818512024998199,073,001,2019_Aug_26_1112,MusicAffectPsychophysiology2019,3.0.5,59.96970426678319,
To what extent did the music make you feel ,EXCITED,30MonoWAV/30MonoF2.wav,1,2,2,2,,,,,1,1,17,1,0,6,6,7,,,,,,,,,1,3.05325173100573,073,001,2019_Aug_26_1112,MusicAffectPsychophysiology2019,3.0.5,59.96970426678319,
To what extent did the music make you feel ,ALERT,30MonoWAV/30MonoF2.wav,1,2,2,2,,,,,1,1,17,1,0,7,7,8,,,,,,,,,3,1.2939323000027798,073,001,2019_Aug_26_1112,MusicAffectPsychophysiology2019,3.0.5,59.96970426678319,
To what extent did the music make you feel ,HAPPY,30MonoWAV/30MonoF2.wav,1,2,2,2,,,,,1,1,17,1,0,8,8,6,,,,,,,,,1,1.8536128909909166,073,001,2019_Aug_26_1112,MusicAffectPsychophysiology2019,3.0.5,59.96970426678319,
To what extent did the music make you feel ,FRUSTRATED,30MonoWAV/30MonoF2.wav,1,2,2,2,,,,,1,1,17,1,0,9,9,3,,,,,,,,,1,5.642862752007204,073,001,2019_Aug_26_1112,MusicAffectPsychophysiology2019,3.0.5,59.96970426678319,
To what extent did the music make you feel ,ASHAMED,30MonoWAV/30MonoF2.wav,1,2,2,2,,,,,1,1,17,1,0,10,10,4,,,,,,,,,2,2.1692425990040647,073,001,2019_Aug_26_1112,MusicAffectPsychophysiology2019,3.0.5,59.96970426678319,
To what extent did the music make you feel ,SAD,30MonoWAV/30MonoF2.wav,1,2,2,2,,,,,1,1,17,1,0,11,11,0,,,,,,,,,2,1.9366937640006654,073,001,2019_Aug_26_1112,MusicAffectPsychophysiology2019,3.0.5,59.96970426678319,
,,30MonoWAV/30MonoF2.wav,1,2,2,2,,,,,1,1,17,1,,,,,,,,,,,,,,,073,001,2019_Aug_26_1112,MusicAffectPsychophysiology2019,3.0.5,59.96970426678319,
To what extent did the music make you feel ,ACTIVE,30MonoWAV/30MonoS3.wav,1,1,3,11,,,,,1,2,18,10,0,0,0,9,,,2,7.402979378006421,2,2.136891247006133,2,2.4672952300024917,2,11.765765246993396,073,001,2019_Aug_26_1112,MusicAffectPsychophysiology2019,3.0.5,59.96970426678319,
To what extent did the music make you feel ,ANXIOUS ,30MonoWAV/30MonoS3.wav,1,1,3,11,,,,,1,2,18,10,0,1,1,1,,,,,,,,,2,1.970129965004162,073,001,2019_Aug_26_1112,MusicAffectPsychophysiology2019,3.0.5,59.96970426678319,
To what extent did the music make you feel ,ALERT,30MonoWAV/30MonoS3.wav,1,1,3,11,,,,,1,2,18,10,0,2,2,8,,,,,,,,,2,2.834257059992524,073,001,2019_Aug_26_1112,MusicAffectPsychophysiology2019,3.0.5,59.96970426678319,
To what extent did the music make you feel ,ASHAMED,30MonoWAV/30MonoS3.wav,1,1,3,11,,,,,1,2,18,10,0,3,3,4,,,,,,,,,3,2.502470004998031,073,001,2019_Aug_26_1112,MusicAffectPsychophysiology2019,3.0.5,59.96970426678319,
To what extent did the music make you feel ,EXCITED,30MonoWAV/30MonoS3.wav,1,1,3,11,,,,,1,2,18,10,0,4,4,7,,,,,,,,,1,1.7363094629981788,073,001,2019_Aug_26_1112,MusicAffectPsychophysiology2019,3.0.5,59.96970426678319,
To what extent did the music make you feel ,SCARED,30MonoWAV/30MonoS3.wav,1,1,3,11,,,,,1,2,18,10,0,5,5,11,,,,,,,,,3,3.1155038319993764,073,001,2019_Aug_26_1112,MusicAffectPsychophysiology2019,3.0.5,59.96970426678319,
To what extent did the music make you feel ,SAD,30MonoWAV/30MonoS3.wav,1,1,3,11,,,,,1,2,18,10,0,6,6,0,,,,,,,,,3,2.4331370839936426,073,001,2019_Aug_26_1112,MusicAffectPsychophysiology2019,3.0.5,59.96970426678319,
To what extent did the music make you feel ,FRUSTRATED,30MonoWAV/30MonoS3.wav,1,1,3,11,,,,,1,2,18,10,0,7,7,3,,,,,,,,,1,3.3871511059987824,073,001,2019_Aug_26_1112,MusicAffectPsychophysiology2019,3.0.5,59.96970426678319,
To what extent did the music make you feel ,TENDER,30MonoWAV/30MonoS3.wav,1,1,3,11,,,,,1,2,18,10,0,8,8,10,,,,,,,,,1,0.9639084529917454,073,001,2019_Aug_26_1112,MusicAffectPsychophysiology2019,3.0.5,59.96970426678319,
To what extent did the music make you feel ,HAPPY,30MonoWAV/30MonoS3.wav,1,1,3,11,,,,,1,2,18,10,0,9,9,6,,,,,,,,,1,2.604727471989463,073,001,2019_Aug_26_1112,MusicAffectPsychophysiology2019,3.0.5,59.96970426678319,
To what extent did the music make you feel ,GUILTY,30MonoWAV/30MonoS3.wav,1,1,3,11,,,,,1,2,18,10,0,10,10,5,,,,,,,,,2,4.916602728990256,073,001,2019_Aug_26_1112,MusicAffectPsychophysiology2019,3.0.5,59.96970426678319,
To what extent did the music make you feel ,ANGRY,30MonoWAV/30MonoS3.wav,1,1,3,11,,,,,1,2,18,10,0,11,11,2,,,,,,,,,1,7.169414229996619,073,001,2019_Aug_26_1112,MusicAffectPsychophysiology2019,3.0.5,59.96970426678319,
,,30MonoWAV/30MonoS3.wav,1,1,3,11,,,,,1,2,18,10,,,,,,,,,,,,,,,073,001,2019_Aug_26_1112,MusicAffectPsychophysiology2019,3.0.5,59.96970426678319,
To what extent did the music make you feel ,EXCITED,30MonoWAV/30MonoT2.wav,2,1,4,14,,,,,1,3,19,13,0,0,0,7,,,2,6.086664770002244,2,3.270029342005728,2,8.453563918999862,2,7.618891096994048,073,001,2019_Aug_26_1112,MusicAffectPsychophysiology2019,3.0.5,59.96970426678319,
To what extent did the music make you feel ,HAPPY,30MonoWAV/30MonoT2.wav,2,1,4,14,,,,,1,3,19,13,0,1,1,6,,,,,,,,,2,2.2371081599994795,073,001,2019_Aug_26_1112,MusicAffectPsychophysiology2019,3.0.5,59.96970426678319,
To what extent did the music make you feel ,TENDER,30MonoWAV/30MonoT2.wav,2,1,4,14,,,,,1,3,19,13,0,2,2,10,,,,,,,,,2,2.79035582501092,073,001,2019_Aug_26_1112,MusicAffectPsychophysiology2019,3.0.5,59.96970426678319,
To what extent did the music make you feel ,ANGRY,30MonoWAV/30MonoT2.wav,2,1,4,14,,,,,1,3,19,13,0,3,3,2,,,,,,,,,2,4.452985146999708,073,001,2019_Aug_26_1112,MusicAffectPsychophysiology2019,3.0.5,59.96970426678319,
To what extent did the music make you feel ,ALERT,30MonoWAV/30MonoT2.wav,2,1,4,14,,,,,1,3,19,13,0,4,4,8,,,,,,,,,1,6.505185652000364,073,001,2019_Aug_26_1112,MusicAffectPsychophysiology2019,3.0.5,59.96970426678319,
To what extent did the music make you feel ,SAD,30MonoWAV/30MonoT2.wav,2,1,4,14,,,,,1,3,19,13,0,5,5,0,,,,,,,,,2,4.737190856001689,073,001,2019_Aug_26_1112,MusicAffectPsychophysiology2019,3.0.5,59.96970426678319,
To what extent did the music make you feel ,SCARED,30MonoWAV/30MonoT2.wav,2,1,4,14,,,,,1,3,19,13,0,6,6,11,,,,,,,,,1,5.368736216012621,073,001,2019_Aug_26_1112,MusicAffectPsychophysiology2019,3.0.5,59.96970426678319,
To what extent did the music make you feel ,GUILTY,30MonoWAV/30MonoT2.wav,2,1,4,14,,,,,1,3,19,13,0,7,7,5,,,,,,,,,1,2.170352795990766,073,001,2019_Aug_26_1112,MusicAffectPsychophysiology2019,3.0.5,59.96970426678319,
To what extent did the music make you feel ,ASHAMED,30MonoWAV/30MonoT2.wav,2,1,4,14,,,,,1,3,19,13,0,8,8,4,,,,,,,,,2,1.904145527005312,073,001,2019_Aug_26_1112,MusicAffectPsychophysiology2019,3.0.5,59.96970426678319,
To what extent did the music make you feel ,FRUSTRATED,30MonoWAV/30MonoT2.wav,2,1,4,14,,,,,1,3,19,13,0,9,9,3,,,,,,,,,2,4.684387653003796,073,001,2019_Aug_26_1112,MusicAffectPsychophysiology2019,3.0.5,59.96970426678319,
To what extent did the music make you feel ,ANXIOUS ,30MonoWAV/30MonoT2.wav,2,1,4,14,,,,,1,3,19,13,0,10,10,1,,,,,,,,,2,9.35402569398866,073,001,2019_Aug_26_1112,MusicAffectPsychophysiology2019,3.0.5,59.96970426678319,
To what extent did the music make you feel ,ACTIVE,30MonoWAV/30MonoT2.wav,2,1,4,14,,,,,1,3,19,13,0,11,11,9,,,,,,,,,1,1.6543691680126358,073,001,2019_Aug_26_1112,MusicAffectPsychophysiology2019,3.0.5,59.96970426678319,
,,30MonoWAV/30MonoT2.wav,2,1,4,14,,,,,1,3,19,13,,,,,,,,,,,,,,,073,001,2019_Aug_26_1112,MusicAffectPsychophysiology2019,3.0.5,59.96970426678319,
To what extent did the music make you feel ,ANGRY,30MonoWAV/30MonoF4.wav,1,2,2,4,,,,,1,4,20,3,0,0,0,2,,,3,9.851962430999265,2,3.869131732993992,2,4.5201736300077755,2,6.504759896008181,073,001,2019_Aug_26_1112,MusicAffectPsychophysiology2019,3.0.5,59.96970426678319,
To what extent did the music make you feel ,SAD,30MonoWAV/30MonoF4.wav,1,2,2,4,,,,,1,4,20,3,0,1,1,0,,,,,,,,,1,2.0622305019933265,073,001,2019_Aug_26_1112,MusicAffectPsychophysiology2019,3.0.5,59.96970426678319,
To what extent did the music make you feel ,FRUSTRATED,30MonoWAV/30MonoF4.wav,1,2,2,4,,,,,1,4,20,3,0,2,2,3,,,,,,,,,2,1.8088527229992906,073,001,2019_Aug_26_1112,MusicAffectPsychophysiology2019,3.0.5,59.96970426678319,
To what extent did the music make you feel ,GUILTY,30MonoWAV/30MonoF4.wav,1,2,2,4,,,,,1,4,20,3,0,3,3,5,,,,,,,,,1,5.120230137996259,073,001,2019_Aug_26_1112,MusicAffectPsychophysiology2019,3.0.5,59.96970426678319,
To what extent did the music make you feel ,ASHAMED,30MonoWAV/30MonoF4.wav,1,2,2,4,,,,,1,4,20,3,0,4,4,4,,,,,,,,,1,5.658399563995772,073,001,2019_Aug_26_1112,MusicAffectPsychophysiology2019,3.0.5,59.96970426678319,
To what extent did the music make you feel ,ALERT,30MonoWAV/30MonoF4.wav,1,2,2,4,,,,,1,4,20,3,0,5,5,8,,,,,,,,,3,2.220526264005457,073,001,2019_Aug_26_1112,MusicAffectPsychophysiology2019,3.0.5,59.96970426678319,
To what extent did the music make you feel ,HAPPY,30MonoWAV/30MonoF4.wav,1,2,2,4,,,,,1,4,20,3,0,6,6,6,,,,,,,,,1,3.170450264995452,073,001,2019_Aug_26_1112,MusicAffectPsychophysiology2019,3.0.5,59.96970426678319,
To what extent did the music make you feel ,SCARED,30MonoWAV/30MonoF4.wav,1,2,2,4,,,,,1,4,20,3,0,7,7,11,,,,,,,,,2,14.343750735992217,073,001,2019_Aug_26_1112,MusicAffectPsychophysiology2019,3.0.5,59.96970426678319,
To what extent did the music make you feel ,TENDER,30MonoWAV/30MonoF4.wav,1,2,2,4,,,,,1,4,20,3,0,8,8,10,,,,,,,,,1,2.158929380006157,073,001,2019_Aug_26_1112,MusicAffectPsychophysiology2019,3.0.5,59.96970426678319,
To what extent did the music make you feel ,ANXIOUS ,30MonoWAV/30MonoF4.wav,1,2,2,4,,,,,1,4,20,3,0,9,9,1,,,,,,,,,2,5.258172685993486,073,001,2019_Aug_26_1112,MusicAffectPsychophysiology2019,3.0.5,59.96970426678319,
To what extent did the music make you feel ,ACTIVE,30MonoWAV/30MonoF4.wav,1,2,2,4,,,,,1,4,20,3,0,10,10,9,,,,,,,,,3,2.207217852002941,073,001,2019_Aug_26_1112,MusicAffectPsychophysiology2019,3.0.5,59.96970426678319,
To what extent did the music make you feel ,EXCITED,30MonoWAV/30MonoF4.wav,1,2,2,4,,,,,1,4,20,3,0,11,11,7,,,,,,,,,2,1.6228479830024298,073,001,2019_Aug_26_1112,MusicAffectPsychophysiology2019,3.0.5,59.96970426678319,
,,30MonoWAV/30MonoF4.wav,1,2,2,4,,,,,1,4,20,3,,,,,,,,,,,,,,,073,001,2019_Aug_26_1112,MusicAffectPsychophysiology2019,3.0.5,59.96970426678319,
To what extent did the music make you feel ,SCARED,30MonoWAV/30MonoT3.wav,2,1,4,15,,,,,1,5,21,14,0,0,0,11,,,3,5.899819418002153,3,2.7524129210069077,4,2.4365045450103935,1,4.271076021002955,073,001,2019_Aug_26_1112,MusicAffectPsychophysiology2019,3.0.5,59.96970426678319,
To what extent did the music make you feel ,ASHAMED,30MonoWAV/30MonoT3.wav,2,1,4,15,,,,,1,5,21,14,0,1,1,4,,,,,,,,,1,4.86943837000581,073,001,2019_Aug_26_1112,MusicAffectPsychophysiology2019,3.0.5,59.96970426678319,
To what extent did the music make you feel ,FRUSTRATED,30MonoWAV/30MonoT3.wav,2,1,4,15,,,,,1,5,21,14,0,2,2,3,,,,,,,,,1,2.085396259004483,073,001,2019_Aug_26_1112,MusicAffectPsychophysiology2019,3.0.5,59.96970426678319,
To what extent did the music make you feel ,ALERT,30MonoWAV/30MonoT3.wav,2,1,4,15,,,,,1,5,21,14,0,3,3,8,,,,,,,,,1,6.435712051999872,073,001,2019_Aug_26_1112,MusicAffectPsychophysiology2019,3.0.5,59.96970426678319,
To what extent did the music make you feel ,TENDER,30MonoWAV/30MonoT3.wav,2,1,4,15,,,,,1,5,21,14,0,4,4,10,,,,,,,,,2,2.0658150270028273,073,001,2019_Aug_26_1112,MusicAffectPsychophysiology2019,3.0.5,59.96970426678319,
To what extent did the music make you feel ,GUILTY,30MonoWAV/30MonoT3.wav,2,1,4,15,,,,,1,5,21,14,0,5,5,5,,,,,,,,,1,3.985334679004154,073,001,2019_Aug_26_1112,MusicAffectPsychophysiology2019,3.0.5,59.96970426678319,
To what extent did the music make you feel ,ANGRY,30MonoWAV/30MonoT3.wav,2,1,4,15,,,,,1,5,21,14,0,6,6,2,,,,,,,,,1,4.036451748004765,073,001,2019_Aug_26_1112,MusicAffectPsychophysiology2019,3.0.5,59.96970426678319,
To what extent did the music make you feel ,SAD,30MonoWAV/30MonoT3.wav,2,1,4,15,,,,,1,5,21,14,0,7,7,0,,,,,,,,,2,2.1541480039886665,073,001,2019_Aug_26_1112,MusicAffectPsychophysiology2019,3.0.5,59.96970426678319,
To what extent did the music make you feel ,ANXIOUS ,30MonoWAV/30MonoT3.wav,2,1,4,15,,,,,1,5,21,14,0,8,8,1,,,,,,,,,1,1.8872925559990108,073,001,2019_Aug_26_1112,MusicAffectPsychophysiology2019,3.0.5,59.96970426678319,
To what extent did the music make you feel ,ACTIVE,30MonoWAV/30MonoT3.wav,2,1,4,15,,,,,1,5,21,14,0,9,9,9,,,,,,,,,2,2.304110312994453,073,001,2019_Aug_26_1112,MusicAffectPsychophysiology2019,3.0.5,59.96970426678319,
To what extent did the music make you feel ,HAPPY,30MonoWAV/30MonoT3.wav,2,1,4,15,,,,,1,5,21,14,0,10,10,6,,,,,,,,,3,1.768248042993946,073,001,2019_Aug_26_1112,MusicAffectPsychophysiology2019,3.0.5,59.96970426678319,
To what extent did the music make you feel ,EXCITED,30MonoWAV/30MonoT3.wav,2,1,4,15,,,,,1,5,21,14,0,11,11,7,,,,,,,,,2,5.6027618710068054,073,001,2019_Aug_26_1112,MusicAffectPsychophysiology2019,3.0.5,59.96970426678319,
,,30MonoWAV/30MonoT3.wav,2,1,4,15,,,,,1,5,21,14,,,,,,,,,,,,,,,073,001,2019_Aug_26_1112,MusicAffectPsychophysiology2019,3.0.5,59.96970426678319,
To what extent did the music make you feel ,ALERT,30MonoWAV/30MonoS1.wav,1,1,3,9,,,,,1,6,22,8,0,0,0,8,,,2,13.298793645008118,2,2.3524522430088837,3,3.287552287001745,2,1.8081534469965845,073,001,2019_Aug_26_1112,MusicAffectPsychophysiology2019,3.0.5,59.96970426678319,
To what extent did the music make you feel ,FRUSTRATED,30MonoWAV/30MonoS1.wav,1,1,3,9,,,,,1,6,22,8,0,1,1,3,,,,,,,,,1,8.423018598987255,073,001,2019_Aug_26_1112,MusicAffectPsychophysiology2019,3.0.5,59.96970426678319,
To what extent did the music make you feel ,ANGRY,30MonoWAV/30MonoS1.wav,1,1,3,9,,,,,1,6,22,8,0,2,2,2,,,,,,,,,1,4.07084328700148,073,001,2019_Aug_26_1112,MusicAffectPsychophysiology2019,3.0.5,59.96970426678319,
To what extent did the music make you feel ,ACTIVE,30MonoWAV/30MonoS1.wav,1,1,3,9,,,,,1,6,22,8,0,3,3,9,,,,,,,,,1,2.583597668999573,073,001,2019_Aug_26_1112,MusicAffectPsychophysiology2019,3.0.5,59.96970426678319,
To what extent did the music make you feel ,GUILTY,30MonoWAV/30MonoS1.wav,1,1,3,9,,,,,1,6,22,8,0,4,4,5,,,,,,,,,2,2.6872771920025116,073,001,2019_Aug_26_1112,MusicAffectPsychophysiology2019,3.0.5,59.96970426678319,
To what extent did the music make you feel ,HAPPY,30MonoWAV/30MonoS1.wav,1,1,3,9,,,,,1,6,22,8,0,5,5,6,,,,,,,,,1,2.4203342699911445,073,001,2019_Aug_26_1112,MusicAffectPsychophysiology2019,3.0.5,59.96970426678319,
To what extent did the music make you feel ,SCARED,30MonoWAV/30MonoS1.wav,1,1,3,9,,,,,1,6,22,8,0,6,6,11,,,,,,,,,2,2.3236289620108437,073,001,2019_Aug_26_1112,MusicAffectPsychophysiology2019,3.0.5,59.96970426678319,
To what extent did the music make you feel ,ANXIOUS ,30MonoWAV/30MonoS1.wav,1,1,3,9,,,,,1,6,22,8,0,7,7,1,,,,,,,,,2,1.387336461993982,073,001,2019_Aug_26_1112,MusicAffectPsychophysiology2019,3.0.5,59.96970426678319,
To what extent did the music make you feel ,TENDER,30MonoWAV/30MonoS1.wav,1,1,3,9,,,,,1,6,22,8,0,8,8,10,,,,,,,,,2,1.522352908999892,073,001,2019_Aug_26_1112,MusicAffectPsychophysiology2019,3.0.5,59.96970426678319,
To what extent did the music make you feel ,ASHAMED,30MonoWAV/30MonoS1.wav,1,1,3,9,,,,,1,6,22,8,0,9,9,4,,,,,,,,,2,1.6209329620032804,073,001,2019_Aug_26_1112,MusicAffectPsychophysiology2019,3.0.5,59.96970426678319,
To what extent did the music make you feel ,SAD,30MonoWAV/30MonoS1.wav,1,1,3,9,,,,,1,6,22,8,0,10,10,0,,,,,,,,,2,1.4047260130028008,073,001,2019_Aug_26_1112,MusicAffectPsychophysiology2019,3.0.5,59.96970426678319,
To what extent did the music make you feel ,EXCITED,30MonoWAV/30MonoS1.wav,1,1,3,9,,,,,1,6,22,8,0,11,11,7,,,,,,,,,1,1.6875744150020182,073,001,2019_Aug_26_1112,MusicAffectPsychophysiology2019,3.0.5,59.96970426678319,
,,30MonoWAV/30MonoS1.wav,1,1,3,9,,,,,1,6,22,8,,,,,,,,,,,,,,,073,001,2019_Aug_26_1112,MusicAffectPsychophysiology2019,3.0.5,59.96970426678319,
To what extent did the music make you feel ,HAPPY,30MonoWAV/30MonoH3.wav,2,2,1,7,,,,,1,7,23,6,0,0,0,6,,,3,2.9544092469877796,2,3.8367176449974068,3,1.4706413060048362,3,3.366982042993186,073,001,2019_Aug_26_1112,MusicAffectPsychophysiology2019,3.0.5,59.96970426678319,
To what extent did the music make you feel ,GUILTY,30MonoWAV/30MonoH3.wav,2,2,1,7,,,,,1,7,23,6,0,1,1,5,,,,,,,,,1,6.635673267010134,073,001,2019_Aug_26_1112,MusicAffectPsychophysiology2019,3.0.5,59.96970426678319,
To what extent did the music make you feel ,ANXIOUS ,30MonoWAV/30MonoH3.wav,2,2,1,7,,,,,1,7,23,6,0,2,2,1,,,,,,,,,2,1.9352573119977023,073,001,2019_Aug_26_1112,MusicAffectPsychophysiology2019,3.0.5,59.96970426678319,
To what extent did the music make you feel ,ANGRY,30MonoWAV/30MonoH3.wav,2,2,1,7,,,,,1,7,23,6,0,3,3,2,,,,,,,,,1,1.63615537599253,073,001,2019_Aug_26_1112,MusicAffectPsychophysiology2019,3.0.5,59.96970426678319,
To what extent did the music make you feel ,SCARED,30MonoWAV/30MonoH3.wav,2,2,1,7,,,,,1,7,23,6,0,4,4,11,,,,,,,,,1,1.4652002740040189,073,001,2019_Aug_26_1112,MusicAffectPsychophysiology2019,3.0.5,59.96970426678319,
To what extent did the music make you feel ,SAD,30MonoWAV/30MonoH3.wav,2,2,1,7,,,,,1,7,23,6,0,5,5,0,,,,,,,,,1,6.95274429199344,073,001,2019_Aug_26_1112,MusicAffectPsychophysiology2019,3.0.5,59.96970426678319,
To what extent did the music make you feel ,TENDER,30MonoWAV/30MonoH3.wav,2,2,1,7,,,,,1,7,23,6,0,6,6,10,,,,,,,,,1,3.6799511830031406,073,001,2019_Aug_26_1112,MusicAffectPsychophysiology2019,3.0.5,59.96970426678319,
To what extent did the music make you feel ,EXCITED,30MonoWAV/30MonoH3.wav,2,2,1,7,,,,,1,7,23,6,0,7,7,7,,,,,,,,,1,5.050773923998349,073,001,2019_Aug_26_1112,MusicAffectPsychophysiology2019,3.0.5,59.96970426678319,
To what extent did the music make you feel ,FRUSTRATED,30MonoWAV/30MonoH3.wav,2,2,1,7,,,,,1,7,23,6,0,8,8,3,,,,,,,,,1,3.9629582919878885,073,001,2019_Aug_26_1112,MusicAffectPsychophysiology2019,3.0.5,59.96970426678319,
To what extent did the music make you feel ,ACTIVE,30MonoWAV/30MonoH3.wav,2,2,1,7,,,,,1,7,23,6,0,9,9,9,,,,,,,,,3,8.810187261013198,073,001,2019_Aug_26_1112,MusicAffectPsychophysiology2019,3.0.5,59.96970426678319,
To what extent did the music make you feel ,ALERT,30MonoWAV/30MonoH3.wav,2,2,1,7,,,,,1,7,23,6,0,10,10,8,,,,,,,,,2,1.3192662359942915,073,001,2019_Aug_26_1112,MusicAffectPsychophysiology2019,3.0.5,59.96970426678319,
To what extent did the music make you feel ,ASHAMED,30MonoWAV/30MonoH3.wav,2,2,1,7,,,,,1,7,23,6,0,11,11,4,,,,,,,,,1,1.2530353530019056,073,001,2019_Aug_26_1112,MusicAffectPsychophysiology2019,3.0.5,59.96970426678319,
,,30MonoWAV/30MonoH3.wav,2,2,1,7,,,,,1,7,23,6,,,,,,,,,,,,,,,073,001,2019_Aug_26_1112,MusicAffectPsychophysiology2019,3.0.5,59.96970426678319,
To what extent did the music make you feel ,TENDER,30MonoWAV/30MonoF1.wav,1,2,2,1,,,,,1,8,24,0,0,0,0,10,,,3,4.385970012997859,3,6.352359272001195,4,1.8856760359922191,1,1.7378141499939375,073,001,2019_Aug_26_1112,MusicAffectPsychophysiology2019,3.0.5,59.96970426678319,
To what extent did the music make you feel ,FRUSTRATED,30MonoWAV/30MonoF1.wav,1,2,2,1,,,,,1,8,24,0,0,1,1,3,,,,,,,,,2,2.319180120990495,073,001,2019_Aug_26_1112,MusicAffectPsychophysiology2019,3.0.5,59.96970426678319,
To what extent did the music make you feel ,ASHAMED,30MonoWAV/30MonoF1.wav,1,2,2,1,,,,,1,8,24,0,0,2,2,4,,,,,,,,,1,1.6201480550080305,073,001,2019_Aug_26_1112,MusicAffectPsychophysiology2019,3.0.5,59.96970426678319,
To what extent did the music make you feel ,ANXIOUS ,30MonoWAV/30MonoF1.wav,1,2,2,1,,,,,1,8,24,0,0,3,3,1,,,,,,,,,1,7.918288040003972,073,001,2019_Aug_26_1112,MusicAffectPsychophysiology2019,3.0.5,59.96970426678319,
To what extent did the music make you feel ,ANGRY,30MonoWAV/30MonoF1.wav,1,2,2,1,,,,,1,8,24,0,0,4,4,2,,,,,,,,,2,1.569558553994284,073,001,2019_Aug_26_1112,MusicAffectPsychophysiology2019,3.0.5,59.96970426678319,
To what extent did the music make you feel ,HAPPY,30MonoWAV/30MonoF1.wav,1,2,2,1,,,,,1,8,24,0,0,5,5,6,,,,,,,,,2,13.419406184999389,073,001,2019_Aug_26_1112,MusicAffectPsychophysiology2019,3.0.5,59.96970426678319,
To what extent did the music make you feel ,ACTIVE,30MonoWAV/30MonoF1.wav,1,2,2,1,,,,,1,8,24,0,0,6,6,9,,,,,,,,,3,1.9358191229985096,073,001,2019_Aug_26_1112,MusicAffectPsychophysiology2019,3.0.5,59.96970426678319,
To what extent did the music make you feel ,SCARED,30MonoWAV/30MonoF1.wav,1,2,2,1,,,,,1,8,24,0,0,7,7,11,,,,,,,,,1,2.9026697749941377,073,001,2019_Aug_26_1112,MusicAffectPsychophysiology2019,3.0.5,59.96970426678319,
To what extent did the music make you feel ,EXCITED,30MonoWAV/30MonoF1.wav,1,2,2,1,,,,,1,8,24,0,0,8,8,7,,,,,,,,,3,2.084409800998401,073,001,2019_Aug_26_1112,MusicAffectPsychophysiology2019,3.0.5,59.96970426678319,
To what extent did the music make you feel ,ALERT,30MonoWAV/30MonoF1.wav,1,2,2,1,,,,,1,8,24,0,0,9,9,8,,,,,,,,,3,1.436332423996646,073,001,2019_Aug_26_1112,MusicAffectPsychophysiology2019,3.0.5,59.96970426678319,
To what extent did the music make you feel ,SAD,30MonoWAV/30MonoF1.wav,1,2,2,1,,,,,1,8,24,0,0,10,10,0,,,,,,,,,1,5.086658758998965,073,001,2019_Aug_26_1112,MusicAffectPsychophysiology2019,3.0.5,59.96970426678319,
To what extent did the music make you feel ,GUILTY,30MonoWAV/30MonoF1.wav,1,2,2,1,,,,,1,8,24,0,0,11,11,5,,,,,,,,,1,1.1687672620028025,073,001,2019_Aug_26_1112,MusicAffectPsychophysiology2019,3.0.5,59.96970426678319,
,,30MonoWAV/30MonoF1.wav,1,2,2,1,,,,,1,8,24,0,,,,,,,,,,,,,,,073,001,2019_Aug_26_1112,MusicAffectPsychophysiology2019,3.0.5,59.96970426678319,
To what extent did the music make you feel ,ANGRY,30MonoWAV/30MonoF3.wav,1,2,2,3,,,,,1,9,25,2,0,0,0,2,,,3,3.8532500000001164,3,4.135325946001103,4,2.0369657820119755,1,6.452952441992238,073,001,2019_Aug_26_1112,MusicAffectPsychophysiology2019,3.0.5,59.96970426678319,
To what extent did the music make you feel ,ASHAMED,30MonoWAV/30MonoF3.wav,1,2,2,3,,,,,1,9,25,2,0,1,1,4,,,,,,,,,1,6.1932846319978125,073,001,2019_Aug_26_1112,MusicAffectPsychophysiology2019,3.0.5,59.96970426678319,
To what extent did the music make you feel ,ANXIOUS ,30MonoWAV/30MonoF3.wav,1,2,2,3,,,,,1,9,25,2,0,2,2,1,,,,,,,,,1,1.2697351099923253,073,001,2019_Aug_26_1112,MusicAffectPsychophysiology2019,3.0.5,59.96970426678319,
To what extent did the music make you feel ,ALERT,30MonoWAV/30MonoF3.wav,1,2,2,3,,,,,1,9,25,2,0,3,3,8,,,,,,,,,3,1.7005798319878522,073,001,2019_Aug_26_1112,MusicAffectPsychophysiology2019,3.0.5,59.96970426678319,
To what extent did the music make you feel ,HAPPY,30MonoWAV/30MonoF3.wav,1,2,2,3,,,,,1,9,25,2,0,4,4,6,,,,,,,,,1,4.052439036997384,073,001,2019_Aug_26_1112,MusicAffectPsychophysiology2019,3.0.5,59.96970426678319,
To what extent did the music make you feel ,EXCITED,30MonoWAV/30MonoF3.wav,1,2,2,3,,,,,1,9,25,2,0,5,5,7,,,,,,,,,3,4.059241873997962,073,001,2019_Aug_26_1112,MusicAffectPsychophysiology2019,3.0.5,59.96970426678319,
To what extent did the music make you feel ,ACTIVE,30MonoWAV/30MonoF3.wav,1,2,2,3,,,,,1,9,25,2,0,6,6,9,,,,,,,,,3,1.8597320419939933,073,001,2019_Aug_26_1112,MusicAffectPsychophysiology2019,3.0.5,59.96970426678319,
To what extent did the music make you feel ,SAD,30MonoWAV/30MonoF3.wav,1,2,2,3,,,,,1,9,25,2,0,7,7,0,,,,,,,,,1,3.6874832969915587,073,001,2019_Aug_26_1112,MusicAffectPsychophysiology2019,3.0.5,59.96970426678319,
To what extent did the music make you feel ,GUILTY,30MonoWAV/30MonoF3.wav,1,2,2,3,,,,,1,9,25,2,0,8,8,5,,,,,,,,,1,0.9860659969999688,073,001,2019_Aug_26_1112,MusicAffectPsychophysiology2019,3.0.5,59.96970426678319,
To what extent did the music make you feel ,TENDER,30MonoWAV/30MonoF3.wav,1,2,2,3,,,,,1,9,25,2,0,9,9,10,,,,,,,,,1,0.8743329940043623,073,001,2019_Aug_26_1112,MusicAffectPsychophysiology2019,3.0.5,59.96970426678319,
To what extent did the music make you feel ,SCARED,30MonoWAV/30MonoF3.wav,1,2,2,3,,,,,1,9,25,2,0,10,10,11,,,,,,,,,1,0.8590084549941821,073,001,2019_Aug_26_1112,MusicAffectPsychophysiology2019,3.0.5,59.96970426678319,
To what extent did the music make you feel ,FRUSTRATED,30MonoWAV/30MonoF3.wav,1,2,2,3,,,,,1,9,25,2,0,11,11,3,,,,,,,,,1,1.591443557990715,073,001,2019_Aug_26_1112,MusicAffectPsychophysiology2019,3.0.5,59.96970426678319,
,,30MonoWAV/30MonoF3.wav,1,2,2,3,,,,,1,9,25,2,,,,,,,,,,,,,,,073,001,2019_Aug_26_1112,MusicAffectPsychophysiology2019,3.0.5,59.96970426678319,
