Instruction,Word,song,valence,arousal,affectcat,songmark,pracwords.thisRepN,pracwords.thisTrialN,pracwords.thisN,pracwords.thisIndex,songtrials.thisRepN,songtrials.thisTrialN,songtrials.thisN,songtrials.thisIndex,words.thisRepN,words.thisTrialN,words.thisN,words.thisIndex,begin.keys,begin.rt,arousalkey.keys,arousalkey.rt,valencekey.keys,valencekey.rt,likekey.keys,likekey.rt,WordResponse.keys,WordResponse.rt,participant,session,date,expName,psychopyVersion,frameRate,
,,,,,,,,,,,,,,,,,,,space,26.042168131985818,,,,,,,,,074,001,2019_Aug_26_1313,MusicAffectPsychophysiology2019,3.0.5,60.151746131737774,
,,,,,,,,,,,,,,,,,,,,,2,13.335454464002396,,,,,,,074,001,2019_Aug_26_1313,MusicAffectPsychophysiology2019,3.0.5,60.151746131737774,
,,,,,,,,,,,,,,,,,,,,,,,4,9.1855663729948,,,,,074,001,2019_Aug_26_1313,MusicAffectPsychophysiology2019,3.0.5,60.151746131737774,
,,,,,,,,,,,,,,,,,,,,,,,,,4,3.786812752005062,,,074,001,2019_Aug_26_1313,MusicAffectPsychophysiology2019,3.0.5,60.151746131737774,
To what extent did the music make you feel ,SCARED,,,,,,0,0,0,11,,,,,,,,,,,,,,,,,1,7.1988859540142585,074,001,2019_Aug_26_1313,MusicAffectPsychophysiology2019,3.0.5,60.151746131737774,
To what extent did the music make you feel ,ANXIOUS ,,,,,,0,1,1,1,,,,,,,,,,,,,,,,,1,2.940384194997023,074,001,2019_Aug_26_1313,MusicAffectPsychophysiology2019,3.0.5,60.151746131737774,
To what extent did the music make you feel ,ACTIVE,,,,,,0,2,2,9,,,,,,,,,,,,,,,,,3,6.252679179000552,074,001,2019_Aug_26_1313,MusicAffectPsychophysiology2019,3.0.5,60.151746131737774,
To what extent did the music make you feel ,TENDER,,,,,,0,3,3,10,,,,,,,,,,,,,,,,,1,2.4705814820044907,074,001,2019_Aug_26_1313,MusicAffectPsychophysiology2019,3.0.5,60.151746131737774,
To what extent did the music make you feel ,ASHAMED,,,,,,0,4,4,4,,,,,,,,,,,,,,,,,1,2.652198986004805,074,001,2019_Aug_26_1313,MusicAffectPsychophysiology2019,3.0.5,60.151746131737774,
To what extent did the music make you feel ,ALERT,,,,,,0,5,5,8,,,,,,,,,,,,,,,,,1,1.6199798170127906,074,001,2019_Aug_26_1313,MusicAffectPsychophysiology2019,3.0.5,60.151746131737774,
To what extent did the music make you feel ,SAD,,,,,,0,6,6,0,,,,,,,,,,,,,,,,,1,2.0694530429900624,074,001,2019_Aug_26_1313,MusicAffectPsychophysiology2019,3.0.5,60.151746131737774,
To what extent did the music make you feel ,FRUSTRATED,,,,,,0,7,7,3,,,,,,,,,,,,,,,,,1,2.719139252003515,074,001,2019_Aug_26_1313,MusicAffectPsychophysiology2019,3.0.5,60.151746131737774,
To what extent did the music make you feel ,EXCITED,,,,,,0,8,8,7,,,,,,,,,,,,,,,,,3,2.5994703250034945,074,001,2019_Aug_26_1313,MusicAffectPsychophysiology2019,3.0.5,60.151746131737774,
To what extent did the music make you feel ,HAPPY,,,,,,0,9,9,6,,,,,,,,,,,,,,,,,4,2.852736336993985,074,001,2019_Aug_26_1313,MusicAffectPsychophysiology2019,3.0.5,60.151746131737774,
To what extent did the music make you feel ,ANGRY,,,,,,0,10,10,2,,,,,,,,,,,,,,,,,1,2.36906887999794,074,001,2019_Aug_26_1313,MusicAffectPsychophysiology2019,3.0.5,60.151746131737774,
To what extent did the music make you feel ,GUILTY,,,,,,0,11,11,5,,,,,,,,,,,,,,,,,1,1.3542783360026078,074,001,2019_Aug_26_1313,MusicAffectPsychophysiology2019,3.0.5,60.151746131737774,
To what extent did the music make you feel ,SAD,30MonoWAV/30MonoT4.wav,2,1,4,16,,,,,0,0,0,15,0,0,0,0,,,2,8.353006256002118,3,2.816910638997797,3,3.3705616270017345,1,3.087008895003237,074,001,2019_Aug_26_1313,MusicAffectPsychophysiology2019,3.0.5,60.151746131737774,
To what extent did the music make you feel ,HAPPY,30MonoWAV/30MonoT4.wav,2,1,4,16,,,,,0,0,0,15,0,1,1,6,,,,,,,,,3,6.6700975819985615,074,001,2019_Aug_26_1313,MusicAffectPsychophysiology2019,3.0.5,60.151746131737774,
To what extent did the music make you feel ,ASHAMED,30MonoWAV/30MonoT4.wav,2,1,4,16,,,,,0,0,0,15,0,2,2,4,,,,,,,,,1,1.4868279840011382,074,001,2019_Aug_26_1313,MusicAffectPsychophysiology2019,3.0.5,60.151746131737774,
To what extent did the music make you feel ,ANXIOUS ,30MonoWAV/30MonoT4.wav,2,1,4,16,,,,,0,0,0,15,0,3,3,1,,,,,,,,,1,1.9973223000124563,074,001,2019_Aug_26_1313,MusicAffectPsychophysiology2019,3.0.5,60.151746131737774,
To what extent did the music make you feel ,ANGRY,30MonoWAV/30MonoT4.wav,2,1,4,16,,,,,0,0,0,15,0,4,4,2,,,,,,,,,1,1.2837442840100266,074,001,2019_Aug_26_1313,MusicAffectPsychophysiology2019,3.0.5,60.151746131737774,
To what extent did the music make you feel ,GUILTY,30MonoWAV/30MonoT4.wav,2,1,4,16,,,,,0,0,0,15,0,5,5,5,,,,,,,,,1,1.0342702330090106,074,001,2019_Aug_26_1313,MusicAffectPsychophysiology2019,3.0.5,60.151746131737774,
To what extent did the music make you feel ,TENDER,30MonoWAV/30MonoT4.wav,2,1,4,16,,,,,0,0,0,15,0,6,6,10,,,,,,,,,1,1.420631554996362,074,001,2019_Aug_26_1313,MusicAffectPsychophysiology2019,3.0.5,60.151746131737774,
To what extent did the music make you feel ,ACTIVE,30MonoWAV/30MonoT4.wav,2,1,4,16,,,,,0,0,0,15,0,7,7,9,,,,,,,,,3,2.2798381430038717,074,001,2019_Aug_26_1313,MusicAffectPsychophysiology2019,3.0.5,60.151746131737774,
To what extent did the music make you feel ,EXCITED,30MonoWAV/30MonoT4.wav,2,1,4,16,,,,,0,0,0,15,0,8,8,7,,,,,,,,,2,3.083432495011948,074,001,2019_Aug_26_1313,MusicAffectPsychophysiology2019,3.0.5,60.151746131737774,
To what extent did the music make you feel ,FRUSTRATED,30MonoWAV/30MonoT4.wav,2,1,4,16,,,,,0,0,0,15,0,9,9,3,,,,,,,,,1,0.8702731059893267,074,001,2019_Aug_26_1313,MusicAffectPsychophysiology2019,3.0.5,60.151746131737774,
To what extent did the music make you feel ,ALERT,30MonoWAV/30MonoT4.wav,2,1,4,16,,,,,0,0,0,15,0,10,10,8,,,,,,,,,1,0.9006671059905784,074,001,2019_Aug_26_1313,MusicAffectPsychophysiology2019,3.0.5,60.151746131737774,
To what extent did the music make you feel ,SCARED,30MonoWAV/30MonoT4.wav,2,1,4,16,,,,,0,0,0,15,0,11,11,11,,,,,,,,,1,1.1506645789922914,074,001,2019_Aug_26_1313,MusicAffectPsychophysiology2019,3.0.5,60.151746131737774,
,,30MonoWAV/30MonoT4.wav,2,1,4,16,,,,,0,0,0,15,,,,,,,,,,,,,,,074,001,2019_Aug_26_1313,MusicAffectPsychophysiology2019,3.0.5,60.151746131737774,
To what extent did the music make you feel ,ANXIOUS ,30MonoWAV/30MonoH1.wav,2,2,1,5,,,,,0,1,1,4,0,0,0,1,,,4,4.237326818998554,3,2.385668655988411,3,1.653605808998691,1,4.003657975001261,074,001,2019_Aug_26_1313,MusicAffectPsychophysiology2019,3.0.5,60.151746131737774,
To what extent did the music make you feel ,EXCITED,30MonoWAV/30MonoH1.wav,2,2,1,5,,,,,0,1,1,4,0,1,1,7,,,,,,,,,4,2.567396116995951,074,001,2019_Aug_26_1313,MusicAffectPsychophysiology2019,3.0.5,60.151746131737774,
To what extent did the music make you feel ,TENDER,30MonoWAV/30MonoH1.wav,2,2,1,5,,,,,0,1,1,4,0,2,2,10,,,,,,,,,2,4.287706586997956,074,001,2019_Aug_26_1313,MusicAffectPsychophysiology2019,3.0.5,60.151746131737774,
To what extent did the music make you feel ,SCARED,30MonoWAV/30MonoH1.wav,2,2,1,5,,,,,0,1,1,4,0,3,3,11,,,,,,,,,1,1.605110035990947,074,001,2019_Aug_26_1313,MusicAffectPsychophysiology2019,3.0.5,60.151746131737774,
To what extent did the music make you feel ,ASHAMED,30MonoWAV/30MonoH1.wav,2,2,1,5,,,,,0,1,1,4,0,4,4,4,,,,,,,,,1,1.9709267470025225,074,001,2019_Aug_26_1313,MusicAffectPsychophysiology2019,3.0.5,60.151746131737774,
To what extent did the music make you feel ,GUILTY,30MonoWAV/30MonoH1.wav,2,2,1,5,,,,,0,1,1,4,0,5,5,5,,,,,,,,,1,3.620014051994076,074,001,2019_Aug_26_1313,MusicAffectPsychophysiology2019,3.0.5,60.151746131737774,
To what extent did the music make you feel ,ALERT,30MonoWAV/30MonoH1.wav,2,2,1,5,,,,,0,1,1,4,0,6,6,8,,,,,,,,,1,2.369436011998914,074,001,2019_Aug_26_1313,MusicAffectPsychophysiology2019,3.0.5,60.151746131737774,
To what extent did the music make you feel ,ACTIVE,30MonoWAV/30MonoH1.wav,2,2,1,5,,,,,0,1,1,4,0,7,7,9,,,,,,,,,4,3.2550540090014692,074,001,2019_Aug_26_1313,MusicAffectPsychophysiology2019,3.0.5,60.151746131737774,
To what extent did the music make you feel ,ANGRY,30MonoWAV/30MonoH1.wav,2,2,1,5,,,,,0,1,1,4,0,8,8,2,,,,,,,,,1,2.7041675060027046,074,001,2019_Aug_26_1313,MusicAffectPsychophysiology2019,3.0.5,60.151746131737774,
To what extent did the music make you feel ,FRUSTRATED,30MonoWAV/30MonoH1.wav,2,2,1,5,,,,,0,1,1,4,0,9,9,3,,,,,,,,,1,2.70061369301402,074,001,2019_Aug_26_1313,MusicAffectPsychophysiology2019,3.0.5,60.151746131737774,
To what extent did the music make you feel ,SAD,30MonoWAV/30MonoH1.wav,2,2,1,5,,,,,0,1,1,4,0,10,10,0,,,,,,,,,1,2.0341753019893076,074,001,2019_Aug_26_1313,MusicAffectPsychophysiology2019,3.0.5,60.151746131737774,
To what extent did the music make you feel ,HAPPY,30MonoWAV/30MonoH1.wav,2,2,1,5,,,,,0,1,1,4,0,11,11,6,,,,,,,,,3,2.384189022995997,074,001,2019_Aug_26_1313,MusicAffectPsychophysiology2019,3.0.5,60.151746131737774,
,,30MonoWAV/30MonoH1.wav,2,2,1,5,,,,,0,1,1,4,,,,,,,,,,,,,,,074,001,2019_Aug_26_1313,MusicAffectPsychophysiology2019,3.0.5,60.151746131737774,
To what extent did the music make you feel ,EXCITED,30MonoWAV/30MonoT1.wav,2,1,4,13,,,,,0,2,2,12,0,0,0,7,,,2,7.852494539009058,2,1.5199828610057011,4,2.419741776990122,1,3.5373481820133748,074,001,2019_Aug_26_1313,MusicAffectPsychophysiology2019,3.0.5,60.151746131737774,
To what extent did the music make you feel ,ANXIOUS ,30MonoWAV/30MonoT1.wav,2,1,4,13,,,,,0,2,2,12,0,1,1,1,,,,,,,,,1,1.7814841849904042,074,001,2019_Aug_26_1313,MusicAffectPsychophysiology2019,3.0.5,60.151746131737774,
To what extent did the music make you feel ,TENDER,30MonoWAV/30MonoT1.wav,2,1,4,13,,,,,0,2,2,12,0,2,2,10,,,,,,,,,1,2.2184754720074125,074,001,2019_Aug_26_1313,MusicAffectPsychophysiology2019,3.0.5,60.151746131737774,
To what extent did the music make you feel ,FRUSTRATED,30MonoWAV/30MonoT1.wav,2,1,4,13,,,,,0,2,2,12,0,3,3,3,,,,,,,,,1,1.7527512829983607,074,001,2019_Aug_26_1313,MusicAffectPsychophysiology2019,3.0.5,60.151746131737774,
To what extent did the music make you feel ,SAD,30MonoWAV/30MonoT1.wav,2,1,4,13,,,,,0,2,2,12,0,4,4,0,,,,,,,,,1,3.9048918479966233,074,001,2019_Aug_26_1313,MusicAffectPsychophysiology2019,3.0.5,60.151746131737774,
To what extent did the music make you feel ,ACTIVE,30MonoWAV/30MonoT1.wav,2,1,4,13,,,,,0,2,2,12,0,5,5,9,,,,,,,,,2,4.497207143998821,074,001,2019_Aug_26_1313,MusicAffectPsychophysiology2019,3.0.5,60.151746131737774,
To what extent did the music make you feel ,ANGRY,30MonoWAV/30MonoT1.wav,2,1,4,13,,,,,0,2,2,12,0,6,6,2,,,,,,,,,1,1.7626850749948062,074,001,2019_Aug_26_1313,MusicAffectPsychophysiology2019,3.0.5,60.151746131737774,
To what extent did the music make you feel ,ASHAMED,30MonoWAV/30MonoT1.wav,2,1,4,13,,,,,0,2,2,12,0,7,7,4,,,,,,,,,1,1.9701402450009482,074,001,2019_Aug_26_1313,MusicAffectPsychophysiology2019,3.0.5,60.151746131737774,
To what extent did the music make you feel ,GUILTY,30MonoWAV/30MonoT1.wav,2,1,4,13,,,,,0,2,2,12,0,8,8,5,,,,,,,,,1,1.1509283699997468,074,001,2019_Aug_26_1313,MusicAffectPsychophysiology2019,3.0.5,60.151746131737774,
To what extent did the music make you feel ,HAPPY,30MonoWAV/30MonoT1.wav,2,1,4,13,,,,,0,2,2,12,0,9,9,6,,,,,,,,,2,2.1702885199920274,074,001,2019_Aug_26_1313,MusicAffectPsychophysiology2019,3.0.5,60.151746131737774,
To what extent did the music make you feel ,ALERT,30MonoWAV/30MonoT1.wav,2,1,4,13,,,,,0,2,2,12,0,10,10,8,,,,,,,,,1,1.1512498560041422,074,001,2019_Aug_26_1313,MusicAffectPsychophysiology2019,3.0.5,60.151746131737774,
To what extent did the music make you feel ,SCARED,30MonoWAV/30MonoT1.wav,2,1,4,13,,,,,0,2,2,12,0,11,11,11,,,,,,,,,1,1.1025141930003883,074,001,2019_Aug_26_1313,MusicAffectPsychophysiology2019,3.0.5,60.151746131737774,
,,30MonoWAV/30MonoT1.wav,2,1,4,13,,,,,0,2,2,12,,,,,,,,,,,,,,,074,001,2019_Aug_26_1313,MusicAffectPsychophysiology2019,3.0.5,60.151746131737774,
To what extent did the music make you feel ,EXCITED,30MonoWAV/30MonoF2.wav,1,2,2,2,,,,,0,3,3,1,0,0,0,7,,,1,4.069460009995964,1,1.3196514440060128,1,2.4198239520046627,1,1.7567746520071523,074,001,2019_Aug_26_1313,MusicAffectPsychophysiology2019,3.0.5,60.151746131737774,
To what extent did the music make you feel ,SCARED,30MonoWAV/30MonoF2.wav,1,2,2,2,,,,,0,3,3,1,0,1,1,11,,,,,,,,,5,2.6221631419903133,074,001,2019_Aug_26_1313,MusicAffectPsychophysiology2019,3.0.5,60.151746131737774,
To what extent did the music make you feel ,ANGRY,30MonoWAV/30MonoF2.wav,1,2,2,2,,,,,0,3,3,1,0,2,2,2,,,,,,,,,2,4.803433311986737,074,001,2019_Aug_26_1313,MusicAffectPsychophysiology2019,3.0.5,60.151746131737774,
To what extent did the music make you feel ,ALERT,30MonoWAV/30MonoF2.wav,1,2,2,2,,,,,0,3,3,1,0,3,3,8,,,,,,,,,5,1.5214250949939014,074,001,2019_Aug_26_1313,MusicAffectPsychophysiology2019,3.0.5,60.151746131737774,
To what extent did the music make you feel ,GUILTY,30MonoWAV/30MonoF2.wav,1,2,2,2,,,,,0,3,3,1,0,4,4,5,,,,,,,,,1,2.56905368900334,074,001,2019_Aug_26_1313,MusicAffectPsychophysiology2019,3.0.5,60.151746131737774,
To what extent did the music make you feel ,FRUSTRATED,30MonoWAV/30MonoF2.wav,1,2,2,2,,,,,0,3,3,1,0,5,5,3,,,,,,,,,4,3.984615722001763,074,001,2019_Aug_26_1313,MusicAffectPsychophysiology2019,3.0.5,60.151746131737774,
To what extent did the music make you feel ,HAPPY,30MonoWAV/30MonoF2.wav,1,2,2,2,,,,,0,3,3,1,0,6,6,6,,,,,,,,,1,1.351583623996703,074,001,2019_Aug_26_1313,MusicAffectPsychophysiology2019,3.0.5,60.151746131737774,
To what extent did the music make you feel ,ACTIVE,30MonoWAV/30MonoF2.wav,1,2,2,2,,,,,0,3,3,1,0,7,7,9,,,,,,,,,1,1.3525433629984036,074,001,2019_Aug_26_1313,MusicAffectPsychophysiology2019,3.0.5,60.151746131737774,
To what extent did the music make you feel ,TENDER,30MonoWAV/30MonoF2.wav,1,2,2,2,,,,,0,3,3,1,0,8,8,10,,,,,,,,,5,2.004342672007624,074,001,2019_Aug_26_1313,MusicAffectPsychophysiology2019,3.0.5,60.151746131737774,
To what extent did the music make you feel ,ASHAMED,30MonoWAV/30MonoF2.wav,1,2,2,2,,,,,0,3,3,1,0,9,9,4,,,,,,,,,1,1.136051553010475,074,001,2019_Aug_26_1313,MusicAffectPsychophysiology2019,3.0.5,60.151746131737774,
To what extent did the music make you feel ,ANXIOUS ,30MonoWAV/30MonoF2.wav,1,2,2,2,,,,,0,3,3,1,0,10,10,1,,,,,,,,,3,2.571258152995142,074,001,2019_Aug_26_1313,MusicAffectPsychophysiology2019,3.0.5,60.151746131737774,
To what extent did the music make you feel ,SAD,30MonoWAV/30MonoF2.wav,1,2,2,2,,,,,0,3,3,1,0,11,11,0,,,,,,,,,1,1.1369742150127422,074,001,2019_Aug_26_1313,MusicAffectPsychophysiology2019,3.0.5,60.151746131737774,
,,30MonoWAV/30MonoF2.wav,1,2,2,2,,,,,0,3,3,1,,,,,,,,,,,,,,,074,001,2019_Aug_26_1313,MusicAffectPsychophysiology2019,3.0.5,60.151746131737774,
To what extent did the music make you feel ,ASHAMED,30MonoWAV/30MonoF4.wav,1,2,2,4,,,,,0,4,4,3,0,0,0,4,,,3,7.502733511995757,3,1.6705338210012997,3,2.5705650559975766,1,2.919339829008095,074,001,2019_Aug_26_1313,MusicAffectPsychophysiology2019,3.0.5,60.151746131737774,
To what extent did the music make you feel ,HAPPY,30MonoWAV/30MonoF4.wav,1,2,2,4,,,,,0,4,4,3,0,1,1,6,,,,,,,,,1,3.503249757006415,074,001,2019_Aug_26_1313,MusicAffectPsychophysiology2019,3.0.5,60.151746131737774,
To what extent did the music make you feel ,GUILTY,30MonoWAV/30MonoF4.wav,1,2,2,4,,,,,0,4,4,3,0,2,2,5,,,,,,,,,1,1.254467075006687,074,001,2019_Aug_26_1313,MusicAffectPsychophysiology2019,3.0.5,60.151746131737774,
To what extent did the music make you feel ,TENDER,30MonoWAV/30MonoF4.wav,1,2,2,4,,,,,0,4,4,3,0,3,3,10,,,,,,,,,4,1.8478328049968695,074,001,2019_Aug_26_1313,MusicAffectPsychophysiology2019,3.0.5,60.151746131737774,
To what extent did the music make you feel ,ANGRY,30MonoWAV/30MonoF4.wav,1,2,2,4,,,,,0,4,4,3,0,4,4,2,,,,,,,,,1,1.513826472000801,074,001,2019_Aug_26_1313,MusicAffectPsychophysiology2019,3.0.5,60.151746131737774,
To what extent did the music make you feel ,ACTIVE,30MonoWAV/30MonoF4.wav,1,2,2,4,,,,,0,4,4,3,0,5,5,9,,,,,,,,,3,4.583242833003169,074,001,2019_Aug_26_1313,MusicAffectPsychophysiology2019,3.0.5,60.151746131737774,
To what extent did the music make you feel ,ANXIOUS ,30MonoWAV/30MonoF4.wav,1,2,2,4,,,,,0,4,4,3,0,6,6,1,,,,,,,,,2,5.687096312001813,074,001,2019_Aug_26_1313,MusicAffectPsychophysiology2019,3.0.5,60.151746131737774,
To what extent did the music make you feel ,SAD,30MonoWAV/30MonoF4.wav,1,2,2,4,,,,,0,4,4,3,0,7,7,0,,,,,,,,,1,1.1707296670065261,074,001,2019_Aug_26_1313,MusicAffectPsychophysiology2019,3.0.5,60.151746131737774,
To what extent did the music make you feel ,FRUSTRATED,30MonoWAV/30MonoF4.wav,1,2,2,4,,,,,0,4,4,3,0,8,8,3,,,,,,,,,1,2.3610611839976627,074,001,2019_Aug_26_1313,MusicAffectPsychophysiology2019,3.0.5,60.151746131737774,
To what extent did the music make you feel ,SCARED,30MonoWAV/30MonoF4.wav,1,2,2,4,,,,,0,4,4,3,0,9,9,11,,,,,,,,,1,0.9615761449967977,074,001,2019_Aug_26_1313,MusicAffectPsychophysiology2019,3.0.5,60.151746131737774,
To what extent did the music make you feel ,EXCITED,30MonoWAV/30MonoF4.wav,1,2,2,4,,,,,0,4,4,3,0,10,10,7,,,,,,,,,3,2.4696966570045333,074,001,2019_Aug_26_1313,MusicAffectPsychophysiology2019,3.0.5,60.151746131737774,
To what extent did the music make you feel ,ALERT,30MonoWAV/30MonoF4.wav,1,2,2,4,,,,,0,4,4,3,0,11,11,8,,,,,,,,,1,1.5779884140065406,074,001,2019_Aug_26_1313,MusicAffectPsychophysiology2019,3.0.5,60.151746131737774,
,,30MonoWAV/30MonoF4.wav,1,2,2,4,,,,,0,4,4,3,,,,,,,,,,,,,,,074,001,2019_Aug_26_1313,MusicAffectPsychophysiology2019,3.0.5,60.151746131737774,
To what extent did the music make you feel ,ANXIOUS ,30MonoWAV/30MonoH2.wav,2,2,1,6,,,,,0,5,5,5,0,0,0,1,,,3,3.2531707909947727,4,1.4194715009944048,3,2.636315399999148,1,7.121026238994091,074,001,2019_Aug_26_1313,MusicAffectPsychophysiology2019,3.0.5,60.151746131737774,
To what extent did the music make you feel ,TENDER,30MonoWAV/30MonoH2.wav,2,2,1,6,,,,,0,5,5,5,0,1,1,10,,,,,,,,,2,2.452630681989831,074,001,2019_Aug_26_1313,MusicAffectPsychophysiology2019,3.0.5,60.151746131737774,
To what extent did the music make you feel ,EXCITED,30MonoWAV/30MonoH2.wav,2,2,1,6,,,,,0,5,5,5,0,2,2,7,,,,,,,,,3,2.702909807994729,074,001,2019_Aug_26_1313,MusicAffectPsychophysiology2019,3.0.5,60.151746131737774,
To what extent did the music make you feel ,SCARED,30MonoWAV/30MonoH2.wav,2,2,1,6,,,,,0,5,5,5,0,3,3,11,,,,,,,,,1,0.9013539520092309,074,001,2019_Aug_26_1313,MusicAffectPsychophysiology2019,3.0.5,60.151746131737774,
To what extent did the music make you feel ,SAD,30MonoWAV/30MonoH2.wav,2,2,1,6,,,,,0,5,5,5,0,4,4,0,,,,,,,,,1,1.3365942849923158,074,001,2019_Aug_26_1313,MusicAffectPsychophysiology2019,3.0.5,60.151746131737774,
To what extent did the music make you feel ,HAPPY,30MonoWAV/30MonoH2.wav,2,2,1,6,,,,,0,5,5,5,0,5,5,6,,,,,,,,,3,1.6502553720056312,074,001,2019_Aug_26_1313,MusicAffectPsychophysiology2019,3.0.5,60.151746131737774,
To what extent did the music make you feel ,ACTIVE,30MonoWAV/30MonoH2.wav,2,2,1,6,,,,,0,5,5,5,0,6,6,9,,,,,,,,,3,1.2703901089989813,074,001,2019_Aug_26_1313,MusicAffectPsychophysiology2019,3.0.5,60.151746131737774,
To what extent did the music make you feel ,ASHAMED,30MonoWAV/30MonoH2.wav,2,2,1,6,,,,,0,5,5,5,0,7,7,4,,,,,,,,,1,0.7200882360048126,074,001,2019_Aug_26_1313,MusicAffectPsychophysiology2019,3.0.5,60.151746131737774,
To what extent did the music make you feel ,GUILTY,30MonoWAV/30MonoH2.wav,2,2,1,6,,,,,0,5,5,5,0,8,8,5,,,,,,,,,1,1.1027389630035032,074,001,2019_Aug_26_1313,MusicAffectPsychophysiology2019,3.0.5,60.151746131737774,
To what extent did the music make you feel ,FRUSTRATED,30MonoWAV/30MonoH2.wav,2,2,1,6,,,,,0,5,5,5,0,9,9,3,,,,,,,,,1,1.2180684089980787,074,001,2019_Aug_26_1313,MusicAffectPsychophysiology2019,3.0.5,60.151746131737774,
To what extent did the music make you feel ,ALERT,30MonoWAV/30MonoH2.wav,2,2,1,6,,,,,0,5,5,5,0,10,10,8,,,,,,,,,1,0.8356421049975324,074,001,2019_Aug_26_1313,MusicAffectPsychophysiology2019,3.0.5,60.151746131737774,
To what extent did the music make you feel ,ANGRY,30MonoWAV/30MonoH2.wav,2,2,1,6,,,,,0,5,5,5,0,11,11,2,,,,,,,,,1,0.8203428489941871,074,001,2019_Aug_26_1313,MusicAffectPsychophysiology2019,3.0.5,60.151746131737774,
,,30MonoWAV/30MonoH2.wav,2,2,1,6,,,,,0,5,5,5,,,,,,,,,,,,,,,074,001,2019_Aug_26_1313,MusicAffectPsychophysiology2019,3.0.5,60.151746131737774,
To what extent did the music make you feel ,TENDER,30MonoWAV/30MonoS3.wav,1,1,3,11,,,,,0,6,6,10,0,0,0,10,,,1,3.271605300993542,1,1.9855529280030169,1,2.3031539600051474,2,2.4201859009917825,074,001,2019_Aug_26_1313,MusicAffectPsychophysiology2019,3.0.5,60.151746131737774,
To what extent did the music make you feel ,ANGRY,30MonoWAV/30MonoS3.wav,1,1,3,11,,,,,0,6,6,10,0,1,1,2,,,,,,,,,1,1.7057235859974753,074,001,2019_Aug_26_1313,MusicAffectPsychophysiology2019,3.0.5,60.151746131737774,
To what extent did the music make you feel ,FRUSTRATED,30MonoWAV/30MonoS3.wav,1,1,3,11,,,,,0,6,6,10,0,2,2,3,,,,,,,,,1,2.885448526998516,074,001,2019_Aug_26_1313,MusicAffectPsychophysiology2019,3.0.5,60.151746131737774,
To what extent did the music make you feel ,HAPPY,30MonoWAV/30MonoS3.wav,1,1,3,11,,,,,0,6,6,10,0,3,3,6,,,,,,,,,1,1.5178451419924386,074,001,2019_Aug_26_1313,MusicAffectPsychophysiology2019,3.0.5,60.151746131737774,
To what extent did the music make you feel ,EXCITED,30MonoWAV/30MonoS3.wav,1,1,3,11,,,,,0,6,6,10,0,4,4,7,,,,,,,,,1,3.0474044180009514,074,001,2019_Aug_26_1313,MusicAffectPsychophysiology2019,3.0.5,60.151746131737774,
To what extent did the music make you feel ,GUILTY,30MonoWAV/30MonoS3.wav,1,1,3,11,,,,,0,6,6,10,0,5,5,5,,,,,,,,,1,1.4468838699976914,074,001,2019_Aug_26_1313,MusicAffectPsychophysiology2019,3.0.5,60.151746131737774,
To what extent did the music make you feel ,ANXIOUS ,30MonoWAV/30MonoS3.wav,1,1,3,11,,,,,0,6,6,10,0,6,6,1,,,,,,,,,2,6.435537679004483,074,001,2019_Aug_26_1313,MusicAffectPsychophysiology2019,3.0.5,60.151746131737774,
To what extent did the music make you feel ,SCARED,30MonoWAV/30MonoS3.wav,1,1,3,11,,,,,0,6,6,10,0,7,7,11,,,,,,,,,2,1.986470639007166,074,001,2019_Aug_26_1313,MusicAffectPsychophysiology2019,3.0.5,60.151746131737774,
To what extent did the music make you feel ,SAD,30MonoWAV/30MonoS3.wav,1,1,3,11,,,,,0,6,6,10,0,8,8,0,,,,,,,,,2,1.270258256001398,074,001,2019_Aug_26_1313,MusicAffectPsychophysiology2019,3.0.5,60.151746131737774,
To what extent did the music make you feel ,ASHAMED,30MonoWAV/30MonoS3.wav,1,1,3,11,,,,,0,6,6,10,0,9,9,4,,,,,,,,,1,2.0461239860014757,074,001,2019_Aug_26_1313,MusicAffectPsychophysiology2019,3.0.5,60.151746131737774,
To what extent did the music make you feel ,ALERT,30MonoWAV/30MonoS3.wav,1,1,3,11,,,,,0,6,6,10,0,10,10,8,,,,,,,,,1,4.726943151006708,074,001,2019_Aug_26_1313,MusicAffectPsychophysiology2019,3.0.5,60.151746131737774,
To what extent did the music make you feel ,ACTIVE,30MonoWAV/30MonoS3.wav,1,1,3,11,,,,,0,6,6,10,0,11,11,9,,,,,,,,,1,1.0035580429976108,074,001,2019_Aug_26_1313,MusicAffectPsychophysiology2019,3.0.5,60.151746131737774,
,,30MonoWAV/30MonoS3.wav,1,1,3,11,,,,,0,6,6,10,,,,,,,,,,,,,,,074,001,2019_Aug_26_1313,MusicAffectPsychophysiology2019,3.0.5,60.151746131737774,
To what extent did the music make you feel ,ALERT,30MonoWAV/30MonoT2.wav,2,1,4,14,,,,,0,7,7,13,0,0,0,8,,,3,2.9196675720013445,4,2.5196535869908985,4,1.6533991190080997,1,1.6235798980051186,074,001,2019_Aug_26_1313,MusicAffectPsychophysiology2019,3.0.5,60.151746131737774,
To what extent did the music make you feel ,GUILTY,30MonoWAV/30MonoT2.wav,2,1,4,14,,,,,0,7,7,13,0,1,1,5,,,,,,,,,1,0.8696573910128791,074,001,2019_Aug_26_1313,MusicAffectPsychophysiology2019,3.0.5,60.151746131737774,
To what extent did the music make you feel ,SCARED,30MonoWAV/30MonoT2.wav,2,1,4,14,,,,,0,7,7,13,0,2,2,11,,,,,,,,,1,0.7405125489894999,074,001,2019_Aug_26_1313,MusicAffectPsychophysiology2019,3.0.5,60.151746131737774,
To what extent did the music make you feel ,HAPPY,30MonoWAV/30MonoT2.wav,2,1,4,14,,,,,0,7,7,13,0,3,3,6,,,,,,,,,4,1.2865700370020932,074,001,2019_Aug_26_1313,MusicAffectPsychophysiology2019,3.0.5,60.151746131737774,
To what extent did the music make you feel ,ANXIOUS ,30MonoWAV/30MonoT2.wav,2,1,4,14,,,,,0,7,7,13,0,4,4,1,,,,,,,,,1,0.8221422430069651,074,001,2019_Aug_26_1313,MusicAffectPsychophysiology2019,3.0.5,60.151746131737774,
To what extent did the music make you feel ,ACTIVE,30MonoWAV/30MonoT2.wav,2,1,4,14,,,,,0,7,7,13,0,5,5,9,,,,,,,,,3,1.6367731880018255,074,001,2019_Aug_26_1313,MusicAffectPsychophysiology2019,3.0.5,60.151746131737774,
To what extent did the music make you feel ,FRUSTRATED,30MonoWAV/30MonoT2.wav,2,1,4,14,,,,,0,7,7,13,0,6,6,3,,,,,,,,,1,0.6895708599913632,074,001,2019_Aug_26_1313,MusicAffectPsychophysiology2019,3.0.5,60.151746131737774,
To what extent did the music make you feel ,ASHAMED,30MonoWAV/30MonoT2.wav,2,1,4,14,,,,,0,7,7,13,0,7,7,4,,,,,,,,,1,0.6366075999976601,074,001,2019_Aug_26_1313,MusicAffectPsychophysiology2019,3.0.5,60.151746131737774,
To what extent did the music make you feel ,ANGRY,30MonoWAV/30MonoT2.wav,2,1,4,14,,,,,0,7,7,13,0,8,8,2,,,,,,,,,1,0.7196783580002375,074,001,2019_Aug_26_1313,MusicAffectPsychophysiology2019,3.0.5,60.151746131737774,
To what extent did the music make you feel ,SAD,30MonoWAV/30MonoT2.wav,2,1,4,14,,,,,0,7,7,13,0,9,9,0,,,,,,,,,1,0.6874619120062562,074,001,2019_Aug_26_1313,MusicAffectPsychophysiology2019,3.0.5,60.151746131737774,
To what extent did the music make you feel ,TENDER,30MonoWAV/30MonoT2.wav,2,1,4,14,,,,,0,7,7,13,0,10,10,10,,,,,,,,,1,0.6869728829915402,074,001,2019_Aug_26_1313,MusicAffectPsychophysiology2019,3.0.5,60.151746131737774,
To what extent did the music make you feel ,EXCITED,30MonoWAV/30MonoT2.wav,2,1,4,14,,,,,0,7,7,13,0,11,11,7,,,,,,,,,3,1.8373062460013898,074,001,2019_Aug_26_1313,MusicAffectPsychophysiology2019,3.0.5,60.151746131737774,
,,30MonoWAV/30MonoT2.wav,2,1,4,14,,,,,0,7,7,13,,,,,,,,,,,,,,,074,001,2019_Aug_26_1313,MusicAffectPsychophysiology2019,3.0.5,60.151746131737774,
To what extent did the music make you feel ,TENDER,30MonoWAV/30MonoT3.wav,2,1,4,15,,,,,0,8,8,14,0,0,0,10,,,2,5.182812133993139,3,1.367143016992486,3,1.75422605399217,1,1.2359810899943113,074,001,2019_Aug_26_1313,MusicAffectPsychophysiology2019,3.0.5,60.151746131737774,
To what extent did the music make you feel ,EXCITED,30MonoWAV/30MonoT3.wav,2,1,4,15,,,,,0,8,8,14,0,1,1,7,,,,,,,,,1,3.203452194997226,074,001,2019_Aug_26_1313,MusicAffectPsychophysiology2019,3.0.5,60.151746131737774,
To what extent did the music make you feel ,FRUSTRATED,30MonoWAV/30MonoT3.wav,2,1,4,15,,,,,0,8,8,14,0,2,2,3,,,,,,,,,1,0.7867253869917477,074,001,2019_Aug_26_1313,MusicAffectPsychophysiology2019,3.0.5,60.151746131737774,
To what extent did the music make you feel ,ANXIOUS ,30MonoWAV/30MonoT3.wav,2,1,4,15,,,,,0,8,8,14,0,3,3,1,,,,,,,,,1,0.7537341559946071,074,001,2019_Aug_26_1313,MusicAffectPsychophysiology2019,3.0.5,60.151746131737774,
To what extent did the music make you feel ,SAD,30MonoWAV/30MonoT3.wav,2,1,4,15,,,,,0,8,8,14,0,4,4,0,,,,,,,,,1,0.6865701990027446,074,001,2019_Aug_26_1313,MusicAffectPsychophysiology2019,3.0.5,60.151746131737774,
To what extent did the music make you feel ,SCARED,30MonoWAV/30MonoT3.wav,2,1,4,15,,,,,0,8,8,14,0,5,5,11,,,,,,,,,1,0.6327062700001989,074,001,2019_Aug_26_1313,MusicAffectPsychophysiology2019,3.0.5,60.151746131737774,
To what extent did the music make you feel ,GUILTY,30MonoWAV/30MonoT3.wav,2,1,4,15,,,,,0,8,8,14,0,6,6,5,,,,,,,,,1,0.6484564950078493,074,001,2019_Aug_26_1313,MusicAffectPsychophysiology2019,3.0.5,60.151746131737774,
To what extent did the music make you feel ,ASHAMED,30MonoWAV/30MonoT3.wav,2,1,4,15,,,,,0,8,8,14,0,7,7,4,,,,,,,,,1,0.7364355719910236,074,001,2019_Aug_26_1313,MusicAffectPsychophysiology2019,3.0.5,60.151746131737774,
To what extent did the music make you feel ,HAPPY,30MonoWAV/30MonoT3.wav,2,1,4,15,,,,,0,8,8,14,0,8,8,6,,,,,,,,,3,1.7533678299951134,074,001,2019_Aug_26_1313,MusicAffectPsychophysiology2019,3.0.5,60.151746131737774,
To what extent did the music make you feel ,ALERT,30MonoWAV/30MonoT3.wav,2,1,4,15,,,,,0,8,8,14,0,9,9,8,,,,,,,,,1,0.7697926459950395,074,001,2019_Aug_26_1313,MusicAffectPsychophysiology2019,3.0.5,60.151746131737774,
To what extent did the music make you feel ,ACTIVE,30MonoWAV/30MonoT3.wav,2,1,4,15,,,,,0,8,8,14,0,10,10,9,,,,,,,,,2,1.1690879340021638,074,001,2019_Aug_26_1313,MusicAffectPsychophysiology2019,3.0.5,60.151746131737774,
To what extent did the music make you feel ,ANGRY,30MonoWAV/30MonoT3.wav,2,1,4,15,,,,,0,8,8,14,0,11,11,2,,,,,,,,,1,0.5865269569912925,074,001,2019_Aug_26_1313,MusicAffectPsychophysiology2019,3.0.5,60.151746131737774,
,,30MonoWAV/30MonoT3.wav,2,1,4,15,,,,,0,8,8,14,,,,,,,,,,,,,,,074,001,2019_Aug_26_1313,MusicAffectPsychophysiology2019,3.0.5,60.151746131737774,
To what extent did the music make you feel ,ALERT,30MonoWAV/30MonoH4.wav,2,2,1,8,,,,,0,9,9,7,0,0,0,8,,,4,2.569480444988585,4,1.2702294560003793,4,1.1200564489990938,1,2.559215608998784,074,001,2019_Aug_26_1313,MusicAffectPsychophysiology2019,3.0.5,60.151746131737774,
To what extent did the music make you feel ,ANXIOUS ,30MonoWAV/30MonoH4.wav,2,2,1,8,,,,,0,9,9,7,0,1,1,1,,,,,,,,,1,0.8027155799936736,074,001,2019_Aug_26_1313,MusicAffectPsychophysiology2019,3.0.5,60.151746131737774,
To what extent did the music make you feel ,SCARED,30MonoWAV/30MonoH4.wav,2,2,1,8,,,,,0,9,9,7,0,2,2,11,,,,,,,,,1,0.6865514020028058,074,001,2019_Aug_26_1313,MusicAffectPsychophysiology2019,3.0.5,60.151746131737774,
To what extent did the music make you feel ,EXCITED,30MonoWAV/30MonoH4.wav,2,2,1,8,,,,,0,9,9,7,0,3,3,7,,,,,,,,,4,1.5861008600040805,074,001,2019_Aug_26_1313,MusicAffectPsychophysiology2019,3.0.5,60.151746131737774,
To what extent did the music make you feel ,GUILTY,30MonoWAV/30MonoH4.wav,2,2,1,8,,,,,0,9,9,7,0,4,4,5,,,,,,,,,1,1.8361157799954526,074,001,2019_Aug_26_1313,MusicAffectPsychophysiology2019,3.0.5,60.151746131737774,
To what extent did the music make you feel ,SAD,30MonoWAV/30MonoH4.wav,2,2,1,8,,,,,0,9,9,7,0,5,5,0,,,,,,,,,1,0.6196371669939253,074,001,2019_Aug_26_1313,MusicAffectPsychophysiology2019,3.0.5,60.151746131737774,
To what extent did the music make you feel ,HAPPY,30MonoWAV/30MonoH4.wav,2,2,1,8,,,,,0,9,9,7,0,6,6,6,,,,,,,,,5,1.3534791139973095,074,001,2019_Aug_26_1313,MusicAffectPsychophysiology2019,3.0.5,60.151746131737774,
To what extent did the music make you feel ,FRUSTRATED,30MonoWAV/30MonoH4.wav,2,2,1,8,,,,,0,9,9,7,0,7,7,3,,,,,,,,,1,1.9927125279937172,074,001,2019_Aug_26_1313,MusicAffectPsychophysiology2019,3.0.5,60.151746131737774,
To what extent did the music make you feel ,ASHAMED,30MonoWAV/30MonoH4.wav,2,2,1,8,,,,,0,9,9,7,0,8,8,4,,,,,,,,,1,0.651390856000944,074,001,2019_Aug_26_1313,MusicAffectPsychophysiology2019,3.0.5,60.151746131737774,
To what extent did the music make you feel ,ACTIVE,30MonoWAV/30MonoH4.wav,2,2,1,8,,,,,0,9,9,7,0,9,9,9,,,,,,,,,4,1.103869518992724,074,001,2019_Aug_26_1313,MusicAffectPsychophysiology2019,3.0.5,60.151746131737774,
To what extent did the music make you feel ,TENDER,30MonoWAV/30MonoH4.wav,2,2,1,8,,,,,0,9,9,7,0,10,10,10,,,,,,,,,1,0.8921697170007974,074,001,2019_Aug_26_1313,MusicAffectPsychophysiology2019,3.0.5,60.151746131737774,
To what extent did the music make you feel ,ANGRY,30MonoWAV/30MonoH4.wav,2,2,1,8,,,,,0,9,9,7,0,11,11,2,,,,,,,,,1,1.1371537480008556,074,001,2019_Aug_26_1313,MusicAffectPsychophysiology2019,3.0.5,60.151746131737774,
,,30MonoWAV/30MonoH4.wav,2,2,1,8,,,,,0,9,9,7,,,,,,,,,,,,,,,074,001,2019_Aug_26_1313,MusicAffectPsychophysiology2019,3.0.5,60.151746131737774,
To what extent did the music make you feel ,ALERT,30MonoWAV/30MonoF1.wav,1,2,2,1,,,,,0,10,10,0,0,0,0,8,,,3,3.117852473995299,1,1.8522937539964914,2,1.836591112005408,4,2.9856349660112755,074,001,2019_Aug_26_1313,MusicAffectPsychophysiology2019,3.0.5,60.151746131737774,
To what extent did the music make you feel ,ANGRY,30MonoWAV/30MonoF1.wav,1,2,2,1,,,,,0,10,10,0,0,1,1,2,,,,,,,,,1,1.4532501439971384,074,001,2019_Aug_26_1313,MusicAffectPsychophysiology2019,3.0.5,60.151746131737774,
To what extent did the music make you feel ,ACTIVE,30MonoWAV/30MonoF1.wav,1,2,2,1,,,,,0,10,10,0,0,2,2,9,,,,,,,,,3,1.5338637990062125,074,001,2019_Aug_26_1313,MusicAffectPsychophysiology2019,3.0.5,60.151746131737774,
To what extent did the music make you feel ,SCARED,30MonoWAV/30MonoF1.wav,1,2,2,1,,,,,0,10,10,0,0,3,3,11,,,,,,,,,2,1.8522929710015887,074,001,2019_Aug_26_1313,MusicAffectPsychophysiology2019,3.0.5,60.151746131737774,
To what extent did the music make you feel ,TENDER,30MonoWAV/30MonoF1.wav,1,2,2,1,,,,,0,10,10,0,0,4,4,10,,,,,,,,,3,1.385461755009601,074,001,2019_Aug_26_1313,MusicAffectPsychophysiology2019,3.0.5,60.151746131737774,
To what extent did the music make you feel ,ASHAMED,30MonoWAV/30MonoF1.wav,1,2,2,1,,,,,0,10,10,0,0,5,5,4,,,,,,,,,1,1.353504161001183,074,001,2019_Aug_26_1313,MusicAffectPsychophysiology2019,3.0.5,60.151746131737774,
To what extent did the music make you feel ,ANXIOUS ,30MonoWAV/30MonoF1.wav,1,2,2,1,,,,,0,10,10,0,0,6,6,1,,,,,,,,,3,2.336070111996378,074,001,2019_Aug_26_1313,MusicAffectPsychophysiology2019,3.0.5,60.151746131737774,
To what extent did the music make you feel ,FRUSTRATED,30MonoWAV/30MonoF1.wav,1,2,2,1,,,,,0,10,10,0,0,7,7,3,,,,,,,,,1,3.102966110993293,074,001,2019_Aug_26_1313,MusicAffectPsychophysiology2019,3.0.5,60.151746131737774,
To what extent did the music make you feel ,EXCITED,30MonoWAV/30MonoF1.wav,1,2,2,1,,,,,0,10,10,0,0,8,8,7,,,,,,,,,1,2.0494572919997154,074,001,2019_Aug_26_1313,MusicAffectPsychophysiology2019,3.0.5,60.151746131737774,
To what extent did the music make you feel ,GUILTY,30MonoWAV/30MonoF1.wav,1,2,2,1,,,,,0,10,10,0,0,9,9,5,,,,,,,,,1,0.8316993569897022,074,001,2019_Aug_26_1313,MusicAffectPsychophysiology2019,3.0.5,60.151746131737774,
To what extent did the music make you feel ,SAD,30MonoWAV/30MonoF1.wav,1,2,2,1,,,,,0,10,10,0,0,10,10,0,,,,,,,,,1,1.336698058003094,074,001,2019_Aug_26_1313,MusicAffectPsychophysiology2019,3.0.5,60.151746131737774,
To what extent did the music make you feel ,HAPPY,30MonoWAV/30MonoF1.wav,1,2,2,1,,,,,0,10,10,0,0,11,11,6,,,,,,,,,1,0.7026015949959401,074,001,2019_Aug_26_1313,MusicAffectPsychophysiology2019,3.0.5,60.151746131737774,
,,30MonoWAV/30MonoF1.wav,1,2,2,1,,,,,0,10,10,0,,,,,,,,,,,,,,,074,001,2019_Aug_26_1313,MusicAffectPsychophysiology2019,3.0.5,60.151746131737774,
To what extent did the music make you feel ,HAPPY,30MonoWAV/30MonoH3.wav,2,2,1,7,,,,,0,11,11,6,0,0,0,6,,,4,3.3699081819941057,4,1.3713013739907183,3,1.3367973559943493,3,1.8595651840005303,074,001,2019_Aug_26_1313,MusicAffectPsychophysiology2019,3.0.5,60.151746131737774,
To what extent did the music make you feel ,EXCITED,30MonoWAV/30MonoH3.wav,2,2,1,7,,,,,0,11,11,6,0,1,1,7,,,,,,,,,3,2.936282402006327,074,001,2019_Aug_26_1313,MusicAffectPsychophysiology2019,3.0.5,60.151746131737774,
To what extent did the music make you feel ,SAD,30MonoWAV/30MonoH3.wav,2,2,1,7,,,,,0,11,11,6,0,2,2,0,,,,,,,,,1,1.3193253170029493,074,001,2019_Aug_26_1313,MusicAffectPsychophysiology2019,3.0.5,60.151746131737774,
To what extent did the music make you feel ,ALERT,30MonoWAV/30MonoH3.wav,2,2,1,7,,,,,0,11,11,6,0,3,3,8,,,,,,,,,1,1.1203602079913253,074,001,2019_Aug_26_1313,MusicAffectPsychophysiology2019,3.0.5,60.151746131737774,
To what extent did the music make you feel ,SCARED,30MonoWAV/30MonoH3.wav,2,2,1,7,,,,,0,11,11,6,0,4,4,11,,,,,,,,,1,0.7448258020012872,074,001,2019_Aug_26_1313,MusicAffectPsychophysiology2019,3.0.5,60.151746131737774,
To what extent did the music make you feel ,ANXIOUS ,30MonoWAV/30MonoH3.wav,2,2,1,7,,,,,0,11,11,6,0,5,5,1,,,,,,,,,1,0.7198481720115524,074,001,2019_Aug_26_1313,MusicAffectPsychophysiology2019,3.0.5,60.151746131737774,
To what extent did the music make you feel ,FRUSTRATED,30MonoWAV/30MonoH3.wav,2,2,1,7,,,,,0,11,11,6,0,6,6,3,,,,,,,,,1,0.6109155129961437,074,001,2019_Aug_26_1313,MusicAffectPsychophysiology2019,3.0.5,60.151746131737774,
To what extent did the music make you feel ,ANGRY,30MonoWAV/30MonoH3.wav,2,2,1,7,,,,,0,11,11,6,0,7,7,2,,,,,,,,,1,0.6863428049982758,074,001,2019_Aug_26_1313,MusicAffectPsychophysiology2019,3.0.5,60.151746131737774,
To what extent did the music make you feel ,GUILTY,30MonoWAV/30MonoH3.wav,2,2,1,7,,,,,0,11,11,6,0,8,8,5,,,,,,,,,1,0.6365817640034948,074,001,2019_Aug_26_1313,MusicAffectPsychophysiology2019,3.0.5,60.151746131737774,
To what extent did the music make you feel ,ASHAMED,30MonoWAV/30MonoH3.wav,2,2,1,7,,,,,0,11,11,6,0,9,9,4,,,,,,,,,1,0.5864056339923991,074,001,2019_Aug_26_1313,MusicAffectPsychophysiology2019,3.0.5,60.151746131737774,
To what extent did the music make you feel ,ACTIVE,30MonoWAV/30MonoH3.wav,2,2,1,7,,,,,0,11,11,6,0,10,10,9,,,,,,,,,3,2.3037720669963164,074,001,2019_Aug_26_1313,MusicAffectPsychophysiology2019,3.0.5,60.151746131737774,
To what extent did the music make you feel ,TENDER,30MonoWAV/30MonoH3.wav,2,2,1,7,,,,,0,11,11,6,0,11,11,10,,,,,,,,,1,1.4944302939984482,074,001,2019_Aug_26_1313,MusicAffectPsychophysiology2019,3.0.5,60.151746131737774,
,,30MonoWAV/30MonoH3.wav,2,2,1,7,,,,,0,11,11,6,,,,,,,,,,,,,,,074,001,2019_Aug_26_1313,MusicAffectPsychophysiology2019,3.0.5,60.151746131737774,
To what extent did the music make you feel ,FRUSTRATED,30MonoWAV/30MonoS1.wav,1,1,3,9,,,,,0,12,12,8,0,0,0,3,,,1,2.8687332900008187,2,1.8197639169957256,2,1.3366894320060965,1,1.489177658004337,074,001,2019_Aug_26_1313,MusicAffectPsychophysiology2019,3.0.5,60.151746131737774,
To what extent did the music make you feel ,HAPPY,30MonoWAV/30MonoS1.wav,1,1,3,9,,,,,0,12,12,8,0,1,1,6,,,,,,,,,1,1.2366689480113564,074,001,2019_Aug_26_1313,MusicAffectPsychophysiology2019,3.0.5,60.151746131737774,
To what extent did the music make you feel ,SCARED,30MonoWAV/30MonoS1.wav,1,1,3,9,,,,,0,12,12,8,0,2,2,11,,,,,,,,,1,1.1354557439917699,074,001,2019_Aug_26_1313,MusicAffectPsychophysiology2019,3.0.5,60.151746131737774,
To what extent did the music make you feel ,ASHAMED,30MonoWAV/30MonoS1.wav,1,1,3,9,,,,,0,12,12,8,0,3,3,4,,,,,,,,,1,1.1028755209990777,074,001,2019_Aug_26_1313,MusicAffectPsychophysiology2019,3.0.5,60.151746131737774,
To what extent did the music make you feel ,EXCITED,30MonoWAV/30MonoS1.wav,1,1,3,9,,,,,0,12,12,8,0,4,4,7,,,,,,,,,1,1.1884659260103945,074,001,2019_Aug_26_1313,MusicAffectPsychophysiology2019,3.0.5,60.151746131737774,
To what extent did the music make you feel ,ALERT,30MonoWAV/30MonoS1.wav,1,1,3,9,,,,,0,12,12,8,0,5,5,8,,,,,,,,,1,0.9204609680018621,074,001,2019_Aug_26_1313,MusicAffectPsychophysiology2019,3.0.5,60.151746131737774,
To what extent did the music make you feel ,GUILTY,30MonoWAV/30MonoS1.wav,1,1,3,9,,,,,0,12,12,8,0,6,6,5,,,,,,,,,1,1.220547325006919,074,001,2019_Aug_26_1313,MusicAffectPsychophysiology2019,3.0.5,60.151746131737774,
To what extent did the music make you feel ,ANXIOUS ,30MonoWAV/30MonoS1.wav,1,1,3,9,,,,,0,12,12,8,0,7,7,1,,,,,,,,,1,1.8207762489910237,074,001,2019_Aug_26_1313,MusicAffectPsychophysiology2019,3.0.5,60.151746131737774,
To what extent did the music make you feel ,SAD,30MonoWAV/30MonoS1.wav,1,1,3,9,,,,,0,12,12,8,0,8,8,0,,,,,,,,,3,2.3859612770029344,074,001,2019_Aug_26_1313,MusicAffectPsychophysiology2019,3.0.5,60.151746131737774,
To what extent did the music make you feel ,TENDER,30MonoWAV/30MonoS1.wav,1,1,3,9,,,,,0,12,12,8,0,9,9,10,,,,,,,,,1,1.336448443995323,074,001,2019_Aug_26_1313,MusicAffectPsychophysiology2019,3.0.5,60.151746131737774,
To what extent did the music make you feel ,ACTIVE,30MonoWAV/30MonoS1.wav,1,1,3,9,,,,,0,12,12,8,0,10,10,9,,,,,,,,,1,1.1208299249992706,074,001,2019_Aug_26_1313,MusicAffectPsychophysiology2019,3.0.5,60.151746131737774,
To what extent did the music make you feel ,ANGRY,30MonoWAV/30MonoS1.wav,1,1,3,9,,,,,0,12,12,8,0,11,11,2,,,,,,,,,1,1.1688450240035309,074,001,2019_Aug_26_1313,MusicAffectPsychophysiology2019,3.0.5,60.151746131737774,
,,30MonoWAV/30MonoS1.wav,1,1,3,9,,,,,0,12,12,8,,,,,,,,,,,,,,,074,001,2019_Aug_26_1313,MusicAffectPsychophysiology2019,3.0.5,60.151746131737774,
To what extent did the music make you feel ,SCARED,30MonoWAV/30MonoS4.wav,1,1,3,12,,,,,0,13,13,11,0,0,0,11,,,1,3.0554994300036924,1,1.9031473610084504,2,2.0198890900064725,1,1.2870026539894752,074,001,2019_Aug_26_1313,MusicAffectPsychophysiology2019,3.0.5,60.151746131737774,
To what extent did the music make you feel ,HAPPY,30MonoWAV/30MonoS4.wav,1,1,3,12,,,,,0,13,13,11,0,1,1,6,,,,,,,,,1,1.3029553840024164,074,001,2019_Aug_26_1313,MusicAffectPsychophysiology2019,3.0.5,60.151746131737774,
To what extent did the music make you feel ,ACTIVE,30MonoWAV/30MonoS4.wav,1,1,3,12,,,,,0,13,13,11,0,2,2,9,,,,,,,,,1,1.0030760440131417,074,001,2019_Aug_26_1313,MusicAffectPsychophysiology2019,3.0.5,60.151746131737774,
To what extent did the music make you feel ,GUILTY,30MonoWAV/30MonoS4.wav,1,1,3,12,,,,,0,13,13,11,0,3,3,5,,,,,,,,,1,1.8872592699917732,074,001,2019_Aug_26_1313,MusicAffectPsychophysiology2019,3.0.5,60.151746131737774,
To what extent did the music make you feel ,EXCITED,30MonoWAV/30MonoS4.wav,1,1,3,12,,,,,0,13,13,11,0,4,4,7,,,,,,,,,1,4.835695994013804,074,001,2019_Aug_26_1313,MusicAffectPsychophysiology2019,3.0.5,60.151746131737774,
To what extent did the music make you feel ,ALERT,30MonoWAV/30MonoS4.wav,1,1,3,12,,,,,0,13,13,11,0,5,5,8,,,,,,,,,1,1.2614002139889635,074,001,2019_Aug_26_1313,MusicAffectPsychophysiology2019,3.0.5,60.151746131737774,
To what extent did the music make you feel ,ANXIOUS ,30MonoWAV/30MonoS4.wav,1,1,3,12,,,,,0,13,13,11,0,6,6,1,,,,,,,,,1,0.8370447560009779,074,001,2019_Aug_26_1313,MusicAffectPsychophysiology2019,3.0.5,60.151746131737774,
To what extent did the music make you feel ,ASHAMED,30MonoWAV/30MonoS4.wav,1,1,3,12,,,,,0,13,13,11,0,7,7,4,,,,,,,,,1,0.46458319600787945,074,001,2019_Aug_26_1313,MusicAffectPsychophysiology2019,3.0.5,60.151746131737774,
To what extent did the music make you feel ,FRUSTRATED,30MonoWAV/30MonoS4.wav,1,1,3,12,,,,,0,13,13,11,0,8,8,3,,,,,,,,,1,2.815283657007967,074,001,2019_Aug_26_1313,MusicAffectPsychophysiology2019,3.0.5,60.151746131737774,
To what extent did the music make you feel ,ANGRY,30MonoWAV/30MonoS4.wav,1,1,3,12,,,,,0,13,13,11,0,9,9,2,,,,,,,,,1,0.9796639999985928,074,001,2019_Aug_26_1313,MusicAffectPsychophysiology2019,3.0.5,60.151746131737774,
To what extent did the music make you feel ,SAD,30MonoWAV/30MonoS4.wav,1,1,3,12,,,,,0,13,13,11,0,10,10,0,,,,,,,,,4,1.987000793000334,074,001,2019_Aug_26_1313,MusicAffectPsychophysiology2019,3.0.5,60.151746131737774,
To what extent did the music make you feel ,TENDER,30MonoWAV/30MonoS4.wav,1,1,3,12,,,,,0,13,13,11,0,11,11,10,,,,,,,,,1,3.260165915999096,074,001,2019_Aug_26_1313,MusicAffectPsychophysiology2019,3.0.5,60.151746131737774,
,,30MonoWAV/30MonoS4.wav,1,1,3,12,,,,,0,13,13,11,,,,,,,,,,,,,,,074,001,2019_Aug_26_1313,MusicAffectPsychophysiology2019,3.0.5,60.151746131737774,
To what extent did the music make you feel ,GUILTY,30MonoWAV/30MonoF3.wav,1,2,2,3,,,,,0,14,14,2,0,0,0,5,,,3,2.8669949530012673,1,3.8192573449923657,2,2.7510294699895894,1,1.6095787820086116,074,001,2019_Aug_26_1313,MusicAffectPsychophysiology2019,3.0.5,60.151746131737774,
To what extent did the music make you feel ,TENDER,30MonoWAV/30MonoF3.wav,1,2,2,3,,,,,0,14,14,2,0,1,1,10,,,,,,,,,4,1.8080783220066223,074,001,2019_Aug_26_1313,MusicAffectPsychophysiology2019,3.0.5,60.151746131737774,
To what extent did the music make you feel ,ANGRY,30MonoWAV/30MonoF3.wav,1,2,2,3,,,,,0,14,14,2,0,2,2,2,,,,,,,,,1,2.1202478219929617,074,001,2019_Aug_26_1313,MusicAffectPsychophysiology2019,3.0.5,60.151746131737774,
To what extent did the music make you feel ,ANXIOUS ,30MonoWAV/30MonoF3.wav,1,2,2,3,,,,,0,14,14,2,0,3,3,1,,,,,,,,,3,1.485648706991924,074,001,2019_Aug_26_1313,MusicAffectPsychophysiology2019,3.0.5,60.151746131737774,
To what extent did the music make you feel ,EXCITED,30MonoWAV/30MonoF3.wav,1,2,2,3,,,,,0,14,14,2,0,4,4,7,,,,,,,,,3,1.6367663870041724,074,001,2019_Aug_26_1313,MusicAffectPsychophysiology2019,3.0.5,60.151746131737774,
To what extent did the music make you feel ,SAD,30MonoWAV/30MonoF3.wav,1,2,2,3,,,,,0,14,14,2,0,5,5,0,,,,,,,,,1,1.4682544579991372,074,001,2019_Aug_26_1313,MusicAffectPsychophysiology2019,3.0.5,60.151746131737774,
To what extent did the music make you feel ,ASHAMED,30MonoWAV/30MonoF3.wav,1,2,2,3,,,,,0,14,14,2,0,6,6,4,,,,,,,,,1,1.1867708420031704,074,001,2019_Aug_26_1313,MusicAffectPsychophysiology2019,3.0.5,60.151746131737774,
To what extent did the music make you feel ,HAPPY,30MonoWAV/30MonoF3.wav,1,2,2,3,,,,,0,14,14,2,0,7,7,6,,,,,,,,,1,1.0861440320004476,074,001,2019_Aug_26_1313,MusicAffectPsychophysiology2019,3.0.5,60.151746131737774,
To what extent did the music make you feel ,SCARED,30MonoWAV/30MonoF3.wav,1,2,2,3,,,,,0,14,14,2,0,8,8,11,,,,,,,,,1,0.8891776259988546,074,001,2019_Aug_26_1313,MusicAffectPsychophysiology2019,3.0.5,60.151746131737774,
To what extent did the music make you feel ,FRUSTRATED,30MonoWAV/30MonoF3.wav,1,2,2,3,,,,,0,14,14,2,0,9,9,3,,,,,,,,,1,1.174332869995851,074,001,2019_Aug_26_1313,MusicAffectPsychophysiology2019,3.0.5,60.151746131737774,
To what extent did the music make you feel ,ALERT,30MonoWAV/30MonoF3.wav,1,2,2,3,,,,,0,14,14,2,0,10,10,8,,,,,,,,,3,1.3533991829899605,074,001,2019_Aug_26_1313,MusicAffectPsychophysiology2019,3.0.5,60.151746131737774,
To what extent did the music make you feel ,ACTIVE,30MonoWAV/30MonoF3.wav,1,2,2,3,,,,,0,14,14,2,0,11,11,9,,,,,,,,,1,1.1205845200020121,074,001,2019_Aug_26_1313,MusicAffectPsychophysiology2019,3.0.5,60.151746131737774,
,,30MonoWAV/30MonoF3.wav,1,2,2,3,,,,,0,14,14,2,,,,,,,,,,,,,,,074,001,2019_Aug_26_1313,MusicAffectPsychophysiology2019,3.0.5,60.151746131737774,
To what extent did the music make you feel ,ANXIOUS ,30MonoWAV/30MonoS2.wav,1,1,3,10,,,,,0,15,15,9,0,0,0,1,,,1,3.019294693993288,1,2.1864253300009295,2,2.0891462479921756,1,2.2367063139972743,074,001,2019_Aug_26_1313,MusicAffectPsychophysiology2019,3.0.5,60.151746131737774,
To what extent did the music make you feel ,ASHAMED,30MonoWAV/30MonoS2.wav,1,1,3,10,,,,,0,15,15,9,0,1,1,4,,,,,,,,,2,2.003992798010586,074,001,2019_Aug_26_1313,MusicAffectPsychophysiology2019,3.0.5,60.151746131737774,
To what extent did the music make you feel ,SCARED,30MonoWAV/30MonoS2.wav,1,1,3,10,,,,,0,15,15,9,0,2,2,11,,,,,,,,,1,1.147865246006404,074,001,2019_Aug_26_1313,MusicAffectPsychophysiology2019,3.0.5,60.151746131737774,
To what extent did the music make you feel ,FRUSTRATED,30MonoWAV/30MonoS2.wav,1,1,3,10,,,,,0,15,15,9,0,3,3,3,,,,,,,,,1,2.1842917970061535,074,001,2019_Aug_26_1313,MusicAffectPsychophysiology2019,3.0.5,60.151746131737774,
To what extent did the music make you feel ,TENDER,30MonoWAV/30MonoS2.wav,1,1,3,10,,,,,0,15,15,9,0,4,4,10,,,,,,,,,1,0.9367696779954713,074,001,2019_Aug_26_1313,MusicAffectPsychophysiology2019,3.0.5,60.151746131737774,
To what extent did the music make you feel ,ACTIVE,30MonoWAV/30MonoS2.wav,1,1,3,10,,,,,0,15,15,9,0,5,5,9,,,,,,,,,1,0.9195832480036188,074,001,2019_Aug_26_1313,MusicAffectPsychophysiology2019,3.0.5,60.151746131737774,
To what extent did the music make you feel ,SAD,30MonoWAV/30MonoS2.wav,1,1,3,10,,,,,0,15,15,9,0,6,6,0,,,,,,,,,4,2.652993998999591,074,001,2019_Aug_26_1313,MusicAffectPsychophysiology2019,3.0.5,60.151746131737774,
To what extent did the music make you feel ,GUILTY,30MonoWAV/30MonoS2.wav,1,1,3,10,,,,,0,15,15,9,0,7,7,5,,,,,,,,,2,2.4674856920028105,074,001,2019_Aug_26_1313,MusicAffectPsychophysiology2019,3.0.5,60.151746131737774,
To what extent did the music make you feel ,ANGRY,30MonoWAV/30MonoS2.wav,1,1,3,10,,,,,0,15,15,9,0,8,8,2,,,,,,,,,1,5.469184178989963,074,001,2019_Aug_26_1313,MusicAffectPsychophysiology2019,3.0.5,60.151746131737774,
To what extent did the music make you feel ,HAPPY,30MonoWAV/30MonoS2.wav,1,1,3,10,,,,,0,15,15,9,0,9,9,6,,,,,,,,,1,0.6032594379939837,074,001,2019_Aug_26_1313,MusicAffectPsychophysiology2019,3.0.5,60.151746131737774,
To what extent did the music make you feel ,ALERT,30MonoWAV/30MonoS2.wav,1,1,3,10,,,,,0,15,15,9,0,10,10,8,,,,,,,,,1,0.6551933029986685,074,001,2019_Aug_26_1313,MusicAffectPsychophysiology2019,3.0.5,60.151746131737774,
To what extent did the music make you feel ,EXCITED,30MonoWAV/30MonoS2.wav,1,1,3,10,,,,,0,15,15,9,0,11,11,7,,,,,,,,,1,0.7153845939901657,074,001,2019_Aug_26_1313,MusicAffectPsychophysiology2019,3.0.5,60.151746131737774,
,,30MonoWAV/30MonoS2.wav,1,1,3,10,,,,,0,15,15,9,,,,,,,,,,,,,,,074,001,2019_Aug_26_1313,MusicAffectPsychophysiology2019,3.0.5,60.151746131737774,
To what extent did the music make you feel ,ANXIOUS ,30MonoWAV/30MonoF1.wav,1,2,2,1,,,,,1,0,16,0,0,0,0,1,,,3,4.852987926002243,2,2.136541892992682,2,1.8702741460001562,3,6.2247139679966494,074,001,2019_Aug_26_1313,MusicAffectPsychophysiology2019,3.0.5,60.151746131737774,
To what extent did the music make you feel ,SAD,30MonoWAV/30MonoF1.wav,1,2,2,1,,,,,1,0,16,0,0,1,1,0,,,,,,,,,1,1.2041058620088734,074,001,2019_Aug_26_1313,MusicAffectPsychophysiology2019,3.0.5,60.151746131737774,
To what extent did the music make you feel ,SCARED,30MonoWAV/30MonoF1.wav,1,2,2,1,,,,,1,0,16,0,0,2,2,11,,,,,,,,,3,1.3415957870020065,074,001,2019_Aug_26_1313,MusicAffectPsychophysiology2019,3.0.5,60.151746131737774,
To what extent did the music make you feel ,ALERT,30MonoWAV/30MonoF1.wav,1,2,2,1,,,,,1,0,16,0,0,3,3,8,,,,,,,,,4,1.5421699129947228,074,001,2019_Aug_26_1313,MusicAffectPsychophysiology2019,3.0.5,60.151746131737774,
To what extent did the music make you feel ,ACTIVE,30MonoWAV/30MonoF1.wav,1,2,2,1,,,,,1,0,16,0,0,4,4,9,,,,,,,,,2,1.6918447610078147,074,001,2019_Aug_26_1313,MusicAffectPsychophysiology2019,3.0.5,60.151746131737774,
To what extent did the music make you feel ,ANGRY,30MonoWAV/30MonoF1.wav,1,2,2,1,,,,,1,0,16,0,0,5,5,2,,,,,,,,,1,1.224336098995991,074,001,2019_Aug_26_1313,MusicAffectPsychophysiology2019,3.0.5,60.151746131737774,
To what extent did the music make you feel ,FRUSTRATED,30MonoWAV/30MonoF1.wav,1,2,2,1,,,,,1,0,16,0,0,6,6,3,,,,,,,,,1,1.4911969079985283,074,001,2019_Aug_26_1313,MusicAffectPsychophysiology2019,3.0.5,60.151746131737774,
To what extent did the music make you feel ,EXCITED,30MonoWAV/30MonoF1.wav,1,2,2,1,,,,,1,0,16,0,0,7,7,7,,,,,,,,,3,1.3037531440058956,074,001,2019_Aug_26_1313,MusicAffectPsychophysiology2019,3.0.5,60.151746131737774,
To what extent did the music make you feel ,GUILTY,30MonoWAV/30MonoF1.wav,1,2,2,1,,,,,1,0,16,0,0,8,8,5,,,,,,,,,1,3.9863028440013295,074,001,2019_Aug_26_1313,MusicAffectPsychophysiology2019,3.0.5,60.151746131737774,
To what extent did the music make you feel ,TENDER,30MonoWAV/30MonoF1.wav,1,2,2,1,,,,,1,0,16,0,0,9,9,10,,,,,,,,,4,2.6730000670067966,074,001,2019_Aug_26_1313,MusicAffectPsychophysiology2019,3.0.5,60.151746131737774,
To what extent did the music make you feel ,ASHAMED,30MonoWAV/30MonoF1.wav,1,2,2,1,,,,,1,0,16,0,0,10,10,4,,,,,,,,,1,1.3039960119931493,074,001,2019_Aug_26_1313,MusicAffectPsychophysiology2019,3.0.5,60.151746131737774,
To what extent did the music make you feel ,HAPPY,30MonoWAV/30MonoF1.wav,1,2,2,1,,,,,1,0,16,0,0,11,11,6,,,,,,,,,1,0.8530988980055554,074,001,2019_Aug_26_1313,MusicAffectPsychophysiology2019,3.0.5,60.151746131737774,
,,30MonoWAV/30MonoF1.wav,1,2,2,1,,,,,1,0,16,0,,,,,,,,,,,,,,,074,001,2019_Aug_26_1313,MusicAffectPsychophysiology2019,3.0.5,60.151746131737774,
To what extent did the music make you feel ,SCARED,30MonoWAV/30MonoT3.wav,2,1,4,15,,,,,1,1,17,14,0,0,0,11,,,2,4.6865810330054956,4,5.602577926998492,4,2.7028429199999664,1,1.3868231039959937,074,001,2019_Aug_26_1313,MusicAffectPsychophysiology2019,3.0.5,60.151746131737774,
To what extent did the music make you feel ,ASHAMED,30MonoWAV/30MonoT3.wav,2,1,4,15,,,,,1,1,17,14,0,1,1,4,,,,,,,,,1,2.1865772620076314,074,001,2019_Aug_26_1313,MusicAffectPsychophysiology2019,3.0.5,60.151746131737774,
To what extent did the music make you feel ,SAD,30MonoWAV/30MonoT3.wav,2,1,4,15,,,,,1,1,17,14,0,2,2,0,,,,,,,,,1,1.2533782859973144,074,001,2019_Aug_26_1313,MusicAffectPsychophysiology2019,3.0.5,60.151746131737774,
To what extent did the music make you feel ,ALERT,30MonoWAV/30MonoT3.wav,2,1,4,15,,,,,1,1,17,14,0,3,3,8,,,,,,,,,1,0.6836696130048949,074,001,2019_Aug_26_1313,MusicAffectPsychophysiology2019,3.0.5,60.151746131737774,
To what extent did the music make you feel ,HAPPY,30MonoWAV/30MonoT3.wav,2,1,4,15,,,,,1,1,17,14,0,4,4,6,,,,,,,,,4,1.4518046470038826,074,001,2019_Aug_26_1313,MusicAffectPsychophysiology2019,3.0.5,60.151746131737774,
To what extent did the music make you feel ,FRUSTRATED,30MonoWAV/30MonoT3.wav,2,1,4,15,,,,,1,1,17,14,0,5,5,3,,,,,,,,,1,1.0191631049965508,074,001,2019_Aug_26_1313,MusicAffectPsychophysiology2019,3.0.5,60.151746131737774,
To what extent did the music make you feel ,ANXIOUS ,30MonoWAV/30MonoT3.wav,2,1,4,15,,,,,1,1,17,14,0,6,6,1,,,,,,,,,1,0.8345246429962572,074,001,2019_Aug_26_1313,MusicAffectPsychophysiology2019,3.0.5,60.151746131737774,
To what extent did the music make you feel ,EXCITED,30MonoWAV/30MonoT3.wav,2,1,4,15,,,,,1,1,17,14,0,7,7,7,,,,,,,,,2,2.571099876993685,074,001,2019_Aug_26_1313,MusicAffectPsychophysiology2019,3.0.5,60.151746131737774,
To what extent did the music make you feel ,ACTIVE,30MonoWAV/30MonoT3.wav,2,1,4,15,,,,,1,1,17,14,0,8,8,9,,,,,,,,,2,1.215355741995154,074,001,2019_Aug_26_1313,MusicAffectPsychophysiology2019,3.0.5,60.151746131737774,
To what extent did the music make you feel ,ANGRY,30MonoWAV/30MonoT3.wav,2,1,4,15,,,,,1,1,17,14,0,9,9,2,,,,,,,,,1,0.8499943719943985,074,001,2019_Aug_26_1313,MusicAffectPsychophysiology2019,3.0.5,60.151746131737774,
To what extent did the music make you feel ,TENDER,30MonoWAV/30MonoT3.wav,2,1,4,15,,,,,1,1,17,14,0,10,10,10,,,,,,,,,1,0.6156128169968724,074,001,2019_Aug_26_1313,MusicAffectPsychophysiology2019,3.0.5,60.151746131737774,
To what extent did the music make you feel ,GUILTY,30MonoWAV/30MonoT3.wav,2,1,4,15,,,,,1,1,17,14,0,11,11,5,,,,,,,,,1,0.6864893359888811,074,001,2019_Aug_26_1313,MusicAffectPsychophysiology2019,3.0.5,60.151746131737774,
,,30MonoWAV/30MonoT3.wav,2,1,4,15,,,,,1,1,17,14,,,,,,,,,,,,,,,074,001,2019_Aug_26_1313,MusicAffectPsychophysiology2019,3.0.5,60.151746131737774,
To what extent did the music make you feel ,ASHAMED,30MonoWAV/30MonoS2.wav,1,1,3,10,,,,,1,2,18,9,0,0,0,4,,,2,4.699855849001324,2,2.5698082549934043,2,0.8363857509975787,2,4.276677481000661,074,001,2019_Aug_26_1313,MusicAffectPsychophysiology2019,3.0.5,60.151746131737774,
To what extent did the music make you feel ,FRUSTRATED,30MonoWAV/30MonoS2.wav,1,1,3,10,,,,,1,2,18,9,0,1,1,3,,,,,,,,,1,1.0570548779942328,074,001,2019_Aug_26_1313,MusicAffectPsychophysiology2019,3.0.5,60.151746131737774,
To what extent did the music make you feel ,ANGRY,30MonoWAV/30MonoS2.wav,1,1,3,10,,,,,1,2,18,9,0,2,2,2,,,,,,,,,1,0.9362757350027096,074,001,2019_Aug_26_1313,MusicAffectPsychophysiology2019,3.0.5,60.151746131737774,
To what extent did the music make you feel ,SAD,30MonoWAV/30MonoS2.wav,1,1,3,10,,,,,1,2,18,9,0,3,3,0,,,,,,,,,4,1.588438495004084,074,001,2019_Aug_26_1313,MusicAffectPsychophysiology2019,3.0.5,60.151746131737774,
To what extent did the music make you feel ,SCARED,30MonoWAV/30MonoS2.wav,1,1,3,10,,,,,1,2,18,9,0,4,4,11,,,,,,,,,1,1.0761343199992552,074,001,2019_Aug_26_1313,MusicAffectPsychophysiology2019,3.0.5,60.151746131737774,
To what extent did the music make you feel ,EXCITED,30MonoWAV/30MonoS2.wav,1,1,3,10,,,,,1,2,18,9,0,5,5,7,,,,,,,,,1,0.8763054500013823,074,001,2019_Aug_26_1313,MusicAffectPsychophysiology2019,3.0.5,60.151746131737774,
To what extent did the music make you feel ,ANXIOUS ,30MonoWAV/30MonoS2.wav,1,1,3,10,,,,,1,2,18,9,0,6,6,1,,,,,,,,,1,0.7700163889967371,074,001,2019_Aug_26_1313,MusicAffectPsychophysiology2019,3.0.5,60.151746131737774,
To what extent did the music make you feel ,ALERT,30MonoWAV/30MonoS2.wav,1,1,3,10,,,,,1,2,18,9,0,7,7,8,,,,,,,,,1,0.7421081549982773,074,001,2019_Aug_26_1313,MusicAffectPsychophysiology2019,3.0.5,60.151746131737774,
To what extent did the music make you feel ,TENDER,30MonoWAV/30MonoS2.wav,1,1,3,10,,,,,1,2,18,9,0,8,8,10,,,,,,,,,1,1.492903488004231,074,001,2019_Aug_26_1313,MusicAffectPsychophysiology2019,3.0.5,60.151746131737774,
To what extent did the music make you feel ,GUILTY,30MonoWAV/30MonoS2.wav,1,1,3,10,,,,,1,2,18,9,0,9,9,5,,,,,,,,,2,1.4702360480005154,074,001,2019_Aug_26_1313,MusicAffectPsychophysiology2019,3.0.5,60.151746131737774,
To what extent did the music make you feel ,ACTIVE,30MonoWAV/30MonoS2.wav,1,1,3,10,,,,,1,2,18,9,0,10,10,9,,,,,,,,,1,1.4584245330042904,074,001,2019_Aug_26_1313,MusicAffectPsychophysiology2019,3.0.5,60.151746131737774,
To what extent did the music make you feel ,HAPPY,30MonoWAV/30MonoS2.wav,1,1,3,10,,,,,1,2,18,9,0,11,11,6,,,,,,,,,1,0.5030981460004114,074,001,2019_Aug_26_1313,MusicAffectPsychophysiology2019,3.0.5,60.151746131737774,
,,30MonoWAV/30MonoS2.wav,1,1,3,10,,,,,1,2,18,9,,,,,,,,,,,,,,,074,001,2019_Aug_26_1313,MusicAffectPsychophysiology2019,3.0.5,60.151746131737774,
To what extent did the music make you feel ,ACTIVE,30MonoWAV/30MonoF2.wav,1,2,2,2,,,,,1,3,19,1,0,0,0,9,,,1,2.8511692820029566,1,0.5712945319974096,1,0.7532963779958664,1,2.753832747999695,074,001,2019_Aug_26_1313,MusicAffectPsychophysiology2019,3.0.5,60.151746131737774,
To what extent did the music make you feel ,TENDER,30MonoWAV/30MonoF2.wav,1,2,2,2,,,,,1,3,19,1,0,1,1,10,,,,,,,,,4,1.6012394030112773,074,001,2019_Aug_26_1313,MusicAffectPsychophysiology2019,3.0.5,60.151746131737774,
To what extent did the music make you feel ,ANGRY,30MonoWAV/30MonoF2.wav,1,2,2,2,,,,,1,3,19,1,0,2,2,2,,,,,,,,,1,1.7201632409996819,074,001,2019_Aug_26_1313,MusicAffectPsychophysiology2019,3.0.5,60.151746131737774,
To what extent did the music make you feel ,GUILTY,30MonoWAV/30MonoF2.wav,1,2,2,2,,,,,1,3,19,1,0,3,3,5,,,,,,,,,1,2.154538604998379,074,001,2019_Aug_26_1313,MusicAffectPsychophysiology2019,3.0.5,60.151746131737774,
To what extent did the music make you feel ,ANXIOUS ,30MonoWAV/30MonoF2.wav,1,2,2,2,,,,,1,3,19,1,0,4,4,1,,,,,,,,,3,2.502791980004986,074,001,2019_Aug_26_1313,MusicAffectPsychophysiology2019,3.0.5,60.151746131737774,
To what extent did the music make you feel ,SAD,30MonoWAV/30MonoF2.wav,1,2,2,2,,,,,1,3,19,1,0,5,5,0,,,,,,,,,1,1.1195754829968791,074,001,2019_Aug_26_1313,MusicAffectPsychophysiology2019,3.0.5,60.151746131737774,
To what extent did the music make you feel ,FRUSTRATED,30MonoWAV/30MonoF2.wav,1,2,2,2,,,,,1,3,19,1,0,6,6,3,,,,,,,,,3,0.8686560829955852,074,001,2019_Aug_26_1313,MusicAffectPsychophysiology2019,3.0.5,60.151746131737774,
To what extent did the music make you feel ,ASHAMED,30MonoWAV/30MonoF2.wav,1,2,2,2,,,,,1,3,19,1,0,7,7,4,,,,,,,,,1,1.016020233000745,074,001,2019_Aug_26_1313,MusicAffectPsychophysiology2019,3.0.5,60.151746131737774,
To what extent did the music make you feel ,SCARED,30MonoWAV/30MonoF2.wav,1,2,2,2,,,,,1,3,19,1,0,8,8,11,,,,,,,,,5,1.2706432999984827,074,001,2019_Aug_26_1313,MusicAffectPsychophysiology2019,3.0.5,60.151746131737774,
To what extent did the music make you feel ,HAPPY,30MonoWAV/30MonoF2.wav,1,2,2,2,,,,,1,3,19,1,0,9,9,6,,,,,,,,,1,0.8364796999958344,074,001,2019_Aug_26_1313,MusicAffectPsychophysiology2019,3.0.5,60.151746131737774,
To what extent did the music make you feel ,ALERT,30MonoWAV/30MonoF2.wav,1,2,2,2,,,,,1,3,19,1,0,10,10,8,,,,,,,,,5,2.053162500989856,074,001,2019_Aug_26_1313,MusicAffectPsychophysiology2019,3.0.5,60.151746131737774,
To what extent did the music make you feel ,EXCITED,30MonoWAV/30MonoF2.wav,1,2,2,2,,,,,1,3,19,1,0,11,11,7,,,,,,,,,1,0.8690376000013202,074,001,2019_Aug_26_1313,MusicAffectPsychophysiology2019,3.0.5,60.151746131737774,
,,30MonoWAV/30MonoF2.wav,1,2,2,2,,,,,1,3,19,1,,,,,,,,,,,,,,,074,001,2019_Aug_26_1313,MusicAffectPsychophysiology2019,3.0.5,60.151746131737774,
To what extent did the music make you feel ,ANXIOUS ,30MonoWAV/30MonoF3.wav,1,2,2,3,,,,,1,4,20,2,0,0,0,1,,,3,2.705492052002228,2,1.3701688169967383,2,2.0368700600083685,3,2.2037332140025683,074,001,2019_Aug_26_1313,MusicAffectPsychophysiology2019,3.0.5,60.151746131737774,
To what extent did the music make you feel ,ACTIVE,30MonoWAV/30MonoF3.wav,1,2,2,3,,,,,1,4,20,2,0,1,1,9,,,,,,,,,3,0.9630287460022373,074,001,2019_Aug_26_1313,MusicAffectPsychophysiology2019,3.0.5,60.151746131737774,
To what extent did the music make you feel ,GUILTY,30MonoWAV/30MonoF3.wav,1,2,2,3,,,,,1,4,20,2,0,2,2,5,,,,,,,,,1,1.2032522739900742,074,001,2019_Aug_26_1313,MusicAffectPsychophysiology2019,3.0.5,60.151746131737774,
To what extent did the music make you feel ,ASHAMED,30MonoWAV/30MonoF3.wav,1,2,2,3,,,,,1,4,20,2,0,3,3,4,,,,,,,,,1,0.8032562379958108,074,001,2019_Aug_26_1313,MusicAffectPsychophysiology2019,3.0.5,60.151746131737774,
To what extent did the music make you feel ,HAPPY,30MonoWAV/30MonoF3.wav,1,2,2,3,,,,,1,4,20,2,0,4,4,6,,,,,,,,,1,0.8860634729935555,074,001,2019_Aug_26_1313,MusicAffectPsychophysiology2019,3.0.5,60.151746131737774,
To what extent did the music make you feel ,SAD,30MonoWAV/30MonoF3.wav,1,2,2,3,,,,,1,4,20,2,0,5,5,0,,,,,,,,,1,0.7881428830005461,074,001,2019_Aug_26_1313,MusicAffectPsychophysiology2019,3.0.5,60.151746131737774,
To what extent did the music make you feel ,SCARED,30MonoWAV/30MonoF3.wav,1,2,2,3,,,,,1,4,20,2,0,6,6,11,,,,,,,,,1,0.7800253809982678,074,001,2019_Aug_26_1313,MusicAffectPsychophysiology2019,3.0.5,60.151746131737774,
To what extent did the music make you feel ,TENDER,30MonoWAV/30MonoF3.wav,1,2,2,3,,,,,1,4,20,2,0,7,7,10,,,,,,,,,3,0.9116902569949161,074,001,2019_Aug_26_1313,MusicAffectPsychophysiology2019,3.0.5,60.151746131737774,
To what extent did the music make you feel ,EXCITED,30MonoWAV/30MonoF3.wav,1,2,2,3,,,,,1,4,20,2,0,8,8,7,,,,,,,,,3,1.8794464459933806,074,001,2019_Aug_26_1313,MusicAffectPsychophysiology2019,3.0.5,60.151746131737774,
To what extent did the music make you feel ,ANGRY,30MonoWAV/30MonoF3.wav,1,2,2,3,,,,,1,4,20,2,0,9,9,2,,,,,,,,,1,0.7785159019986168,074,001,2019_Aug_26_1313,MusicAffectPsychophysiology2019,3.0.5,60.151746131737774,
To what extent did the music make you feel ,FRUSTRATED,30MonoWAV/30MonoF3.wav,1,2,2,3,,,,,1,4,20,2,0,10,10,3,,,,,,,,,2,3.8422680469957413,074,001,2019_Aug_26_1313,MusicAffectPsychophysiology2019,3.0.5,60.151746131737774,
To what extent did the music make you feel ,ALERT,30MonoWAV/30MonoF3.wav,1,2,2,3,,,,,1,4,20,2,0,11,11,8,,,,,,,,,3,1.086991907999618,074,001,2019_Aug_26_1313,MusicAffectPsychophysiology2019,3.0.5,60.151746131737774,
,,30MonoWAV/30MonoF3.wav,1,2,2,3,,,,,1,4,20,2,,,,,,,,,,,,,,,074,001,2019_Aug_26_1313,MusicAffectPsychophysiology2019,3.0.5,60.151746131737774,
To what extent did the music make you feel ,ASHAMED,30MonoWAV/30MonoT2.wav,2,1,4,14,,,,,1,5,21,13,0,0,0,4,,,2,3.737077757003135,4,0.9867312550049974,4,0.8203774070134386,1,1.0905125390127068,074,001,2019_Aug_26_1313,MusicAffectPsychophysiology2019,3.0.5,60.151746131737774,
To what extent did the music make you feel ,SAD,30MonoWAV/30MonoT2.wav,2,1,4,14,,,,,1,5,21,13,0,1,1,0,,,,,,,,,1,0.8863772969925776,074,001,2019_Aug_26_1313,MusicAffectPsychophysiology2019,3.0.5,60.151746131737774,
To what extent did the music make you feel ,ACTIVE,30MonoWAV/30MonoT2.wav,2,1,4,14,,,,,1,5,21,13,0,2,2,9,,,,,,,,,2,1.3029519510018872,074,001,2019_Aug_26_1313,MusicAffectPsychophysiology2019,3.0.5,60.151746131737774,
To what extent did the music make you feel ,ANXIOUS ,30MonoWAV/30MonoT2.wav,2,1,4,14,,,,,1,5,21,13,0,3,3,1,,,,,,,,,1,0.6530588199966587,074,001,2019_Aug_26_1313,MusicAffectPsychophysiology2019,3.0.5,60.151746131737774,
To what extent did the music make you feel ,ANGRY,30MonoWAV/30MonoT2.wav,2,1,4,14,,,,,1,5,21,13,0,4,4,2,,,,,,,,,1,0.6560738100088201,074,001,2019_Aug_26_1313,MusicAffectPsychophysiology2019,3.0.5,60.151746131737774,
To what extent did the music make you feel ,HAPPY,30MonoWAV/30MonoT2.wav,2,1,4,14,,,,,1,5,21,13,0,5,5,6,,,,,,,,,3,1.5035215990064899,074,001,2019_Aug_26_1313,MusicAffectPsychophysiology2019,3.0.5,60.151746131737774,
To what extent did the music make you feel ,SCARED,30MonoWAV/30MonoT2.wav,2,1,4,14,,,,,1,5,21,13,0,6,6,11,,,,,,,,,1,0.6561763440113282,074,001,2019_Aug_26_1313,MusicAffectPsychophysiology2019,3.0.5,60.151746131737774,
To what extent did the music make you feel ,EXCITED,30MonoWAV/30MonoT2.wav,2,1,4,14,,,,,1,5,21,13,0,7,7,7,,,,,,,,,1,1.1363291470042896,074,001,2019_Aug_26_1313,MusicAffectPsychophysiology2019,3.0.5,60.151746131737774,
To what extent did the music make you feel ,FRUSTRATED,30MonoWAV/30MonoT2.wav,2,1,4,14,,,,,1,5,21,13,0,8,8,3,,,,,,,,,1,0.6729652719950536,074,001,2019_Aug_26_1313,MusicAffectPsychophysiology2019,3.0.5,60.151746131737774,
To what extent did the music make you feel ,ALERT,30MonoWAV/30MonoT2.wav,2,1,4,14,,,,,1,5,21,13,0,9,9,8,,,,,,,,,1,0.7053738079994218,074,001,2019_Aug_26_1313,MusicAffectPsychophysiology2019,3.0.5,60.151746131737774,
To what extent did the music make you feel ,TENDER,30MonoWAV/30MonoT2.wav,2,1,4,14,,,,,1,5,21,13,0,10,10,10,,,,,,,,,1,0.7222084829991218,074,001,2019_Aug_26_1313,MusicAffectPsychophysiology2019,3.0.5,60.151746131737774,
To what extent did the music make you feel ,GUILTY,30MonoWAV/30MonoT2.wav,2,1,4,14,,,,,1,5,21,13,0,11,11,5,,,,,,,,,1,0.5881164329912281,074,001,2019_Aug_26_1313,MusicAffectPsychophysiology2019,3.0.5,60.151746131737774,
,,30MonoWAV/30MonoT2.wav,2,1,4,14,,,,,1,5,21,13,,,,,,,,,,,,,,,074,001,2019_Aug_26_1313,MusicAffectPsychophysiology2019,3.0.5,60.151746131737774,
To what extent did the music make you feel ,ACTIVE,30MonoWAV/30MonoT1.wav,2,1,4,13,,,,,1,6,22,12,0,0,0,9,,,2,3.169191275999765,3,1.4195312140072929,3,0.9201487190002808,2,2.9023102539940737,074,001,2019_Aug_26_1313,MusicAffectPsychophysiology2019,3.0.5,60.151746131737774,
To what extent did the music make you feel ,FRUSTRATED,30MonoWAV/30MonoT1.wav,2,1,4,13,,,,,1,6,22,12,0,1,1,3,,,,,,,,,1,0.916337533009937,074,001,2019_Aug_26_1313,MusicAffectPsychophysiology2019,3.0.5,60.151746131737774,
To what extent did the music make you feel ,ANGRY,30MonoWAV/30MonoT1.wav,2,1,4,13,,,,,1,6,22,12,0,2,2,2,,,,,,,,,1,1.10223020700505,074,001,2019_Aug_26_1313,MusicAffectPsychophysiology2019,3.0.5,60.151746131737774,
To what extent did the music make you feel ,SCARED,30MonoWAV/30MonoT1.wav,2,1,4,13,,,,,1,6,22,12,0,3,3,11,,,,,,,,,1,0.6836101179942489,074,001,2019_Aug_26_1313,MusicAffectPsychophysiology2019,3.0.5,60.151746131737774,
To what extent did the music make you feel ,ALERT,30MonoWAV/30MonoT1.wav,2,1,4,13,,,,,1,6,22,12,0,4,4,8,,,,,,,,,1,0.6172373510053148,074,001,2019_Aug_26_1313,MusicAffectPsychophysiology2019,3.0.5,60.151746131737774,
To what extent did the music make you feel ,SAD,30MonoWAV/30MonoT1.wav,2,1,4,13,,,,,1,6,22,12,0,5,5,0,,,,,,,,,2,2.2883494819980115,074,001,2019_Aug_26_1313,MusicAffectPsychophysiology2019,3.0.5,60.151746131737774,
To what extent did the music make you feel ,TENDER,30MonoWAV/30MonoT1.wav,2,1,4,13,,,,,1,6,22,12,0,6,6,10,,,,,,,,,1,0.9490741860063281,074,001,2019_Aug_26_1313,MusicAffectPsychophysiology2019,3.0.5,60.151746131737774,
To what extent did the music make you feel ,GUILTY,30MonoWAV/30MonoT1.wav,2,1,4,13,,,,,1,6,22,12,0,7,7,5,,,,,,,,,1,0.6038379259989597,074,001,2019_Aug_26_1313,MusicAffectPsychophysiology2019,3.0.5,60.151746131737774,
To what extent did the music make you feel ,ANXIOUS ,30MonoWAV/30MonoT1.wav,2,1,4,13,,,,,1,6,22,12,0,8,8,1,,,,,,,,,1,0.549378493000404,074,001,2019_Aug_26_1313,MusicAffectPsychophysiology2019,3.0.5,60.151746131737774,
To what extent did the music make you feel ,EXCITED,30MonoWAV/30MonoT1.wav,2,1,4,13,,,,,1,6,22,12,0,9,9,7,,,,,,,,,1,1.132963304000441,074,001,2019_Aug_26_1313,MusicAffectPsychophysiology2019,3.0.5,60.151746131737774,
To what extent did the music make you feel ,ASHAMED,30MonoWAV/30MonoT1.wav,2,1,4,13,,,,,1,6,22,12,0,10,10,4,,,,,,,,,1,0.8373153480060864,074,001,2019_Aug_26_1313,MusicAffectPsychophysiology2019,3.0.5,60.151746131737774,
To what extent did the music make you feel ,HAPPY,30MonoWAV/30MonoT1.wav,2,1,4,13,,,,,1,6,22,12,0,11,11,6,,,,,,,,,3,6.737010687007569,074,001,2019_Aug_26_1313,MusicAffectPsychophysiology2019,3.0.5,60.151746131737774,
,,30MonoWAV/30MonoT1.wav,2,1,4,13,,,,,1,6,22,12,,,,,,,,,,,,,,,074,001,2019_Aug_26_1313,MusicAffectPsychophysiology2019,3.0.5,60.151746131737774,
To what extent did the music make you feel ,ACTIVE,30MonoWAV/30MonoF4.wav,1,2,2,4,,,,,1,7,23,3,0,0,0,9,,,3,2.8534663910104427,2,1.7538604619912803,2,0.7523806069948478,3,2.093541540001752,074,001,2019_Aug_26_1313,MusicAffectPsychophysiology2019,3.0.5,60.151746131737774,
To what extent did the music make you feel ,TENDER,30MonoWAV/30MonoF4.wav,1,2,2,4,,,,,1,7,23,3,0,1,1,10,,,,,,,,,3,1.3270645260054152,074,001,2019_Aug_26_1313,MusicAffectPsychophysiology2019,3.0.5,60.151746131737774,
To what extent did the music make you feel ,EXCITED,30MonoWAV/30MonoF4.wav,1,2,2,4,,,,,1,7,23,3,0,2,2,7,,,,,,,,,3,0.8590225230000215,074,001,2019_Aug_26_1313,MusicAffectPsychophysiology2019,3.0.5,60.151746131737774,
To what extent did the music make you feel ,SCARED,30MonoWAV/30MonoF4.wav,1,2,2,4,,,,,1,7,23,3,0,3,3,11,,,,,,,,,1,1.6092212359944824,074,001,2019_Aug_26_1313,MusicAffectPsychophysiology2019,3.0.5,60.151746131737774,
To what extent did the music make you feel ,ANGRY,30MonoWAV/30MonoF4.wav,1,2,2,4,,,,,1,7,23,3,0,4,4,2,,,,,,,,,1,2.019972868001787,074,001,2019_Aug_26_1313,MusicAffectPsychophysiology2019,3.0.5,60.151746131737774,
To what extent did the music make you feel ,ANXIOUS ,30MonoWAV/30MonoF4.wav,1,2,2,4,,,,,1,7,23,3,0,5,5,1,,,,,,,,,2,1.1521437690098537,074,001,2019_Aug_26_1313,MusicAffectPsychophysiology2019,3.0.5,60.151746131737774,
To what extent did the music make you feel ,SAD,30MonoWAV/30MonoF4.wav,1,2,2,4,,,,,1,7,23,3,0,6,6,0,,,,,,,,,1,1.102829858995392,074,001,2019_Aug_26_1313,MusicAffectPsychophysiology2019,3.0.5,60.151746131737774,
To what extent did the music make you feel ,ALERT,30MonoWAV/30MonoF4.wav,1,2,2,4,,,,,1,7,23,3,0,7,7,8,,,,,,,,,4,1.283354943006998,074,001,2019_Aug_26_1313,MusicAffectPsychophysiology2019,3.0.5,60.151746131737774,
To what extent did the music make you feel ,ASHAMED,30MonoWAV/30MonoF4.wav,1,2,2,4,,,,,1,7,23,3,0,8,8,4,,,,,,,,,1,1.134081412004889,074,001,2019_Aug_26_1313,MusicAffectPsychophysiology2019,3.0.5,60.151746131737774,
To what extent did the music make you feel ,HAPPY,30MonoWAV/30MonoF4.wav,1,2,2,4,,,,,1,7,23,3,0,9,9,6,,,,,,,,,1,1.1536484239913989,074,001,2019_Aug_26_1313,MusicAffectPsychophysiology2019,3.0.5,60.151746131737774,
To what extent did the music make you feel ,FRUSTRATED,30MonoWAV/30MonoF4.wav,1,2,2,4,,,,,1,7,23,3,0,10,10,3,,,,,,,,,2,1.1916192450007657,074,001,2019_Aug_26_1313,MusicAffectPsychophysiology2019,3.0.5,60.151746131737774,
To what extent did the music make you feel ,GUILTY,30MonoWAV/30MonoF4.wav,1,2,2,4,,,,,1,7,23,3,0,11,11,5,,,,,,,,,1,1.1013595539989183,074,001,2019_Aug_26_1313,MusicAffectPsychophysiology2019,3.0.5,60.151746131737774,
,,30MonoWAV/30MonoF4.wav,1,2,2,4,,,,,1,7,23,3,,,,,,,,,,,,,,,074,001,2019_Aug_26_1313,MusicAffectPsychophysiology2019,3.0.5,60.151746131737774,
To what extent did the music make you feel ,ACTIVE,30MonoWAV/30MonoT4.wav,2,1,4,16,,,,,1,8,24,15,0,0,0,9,,,2,2.6690641999884974,4,0.6196162439882755,4,0.9692899329966167,2,2.1361484180088155,074,001,2019_Aug_26_1313,MusicAffectPsychophysiology2019,3.0.5,60.151746131737774,
To what extent did the music make you feel ,ANXIOUS ,30MonoWAV/30MonoT4.wav,2,1,4,16,,,,,1,8,24,15,0,1,1,1,,,,,,,,,1,1.035480632999679,074,001,2019_Aug_26_1313,MusicAffectPsychophysiology2019,3.0.5,60.151746131737774,
To what extent did the music make you feel ,ANGRY,30MonoWAV/30MonoT4.wav,2,1,4,16,,,,,1,8,24,15,0,2,2,2,,,,,,,,,1,0.7041314379894175,074,001,2019_Aug_26_1313,MusicAffectPsychophysiology2019,3.0.5,60.151746131737774,
To what extent did the music make you feel ,SCARED,30MonoWAV/30MonoT4.wav,2,1,4,16,,,,,1,8,24,15,0,3,3,11,,,,,,,,,1,0.6525867310119793,074,001,2019_Aug_26_1313,MusicAffectPsychophysiology2019,3.0.5,60.151746131737774,
To what extent did the music make you feel ,GUILTY,30MonoWAV/30MonoT4.wav,2,1,4,16,,,,,1,8,24,15,0,4,4,5,,,,,,,,,1,0.7529468749999069,074,001,2019_Aug_26_1313,MusicAffectPsychophysiology2019,3.0.5,60.151746131737774,
To what extent did the music make you feel ,FRUSTRATED,30MonoWAV/30MonoT4.wav,2,1,4,16,,,,,1,8,24,15,0,5,5,3,,,,,,,,,1,0.6367996339977253,074,001,2019_Aug_26_1313,MusicAffectPsychophysiology2019,3.0.5,60.151746131737774,
To what extent did the music make you feel ,HAPPY,30MonoWAV/30MonoT4.wav,2,1,4,16,,,,,1,8,24,15,0,6,6,6,,,,,,,,,4,1.302533484005835,074,001,2019_Aug_26_1313,MusicAffectPsychophysiology2019,3.0.5,60.151746131737774,
To what extent did the music make you feel ,ASHAMED,30MonoWAV/30MonoT4.wav,2,1,4,16,,,,,1,8,24,15,0,7,7,4,,,,,,,,,1,0.9027822290081531,074,001,2019_Aug_26_1313,MusicAffectPsychophysiology2019,3.0.5,60.151746131737774,
To what extent did the music make you feel ,SAD,30MonoWAV/30MonoT4.wav,2,1,4,16,,,,,1,8,24,15,0,8,8,0,,,,,,,,,1,1.2869787509989692,074,001,2019_Aug_26_1313,MusicAffectPsychophysiology2019,3.0.5,60.151746131737774,
To what extent did the music make you feel ,EXCITED,30MonoWAV/30MonoT4.wav,2,1,4,16,,,,,1,8,24,15,0,9,9,7,,,,,,,,,1,0.7540170489955926,074,001,2019_Aug_26_1313,MusicAffectPsychophysiology2019,3.0.5,60.151746131737774,
To what extent did the music make you feel ,ALERT,30MonoWAV/30MonoT4.wav,2,1,4,16,,,,,1,8,24,15,0,10,10,8,,,,,,,,,1,1.8861249539913842,074,001,2019_Aug_26_1313,MusicAffectPsychophysiology2019,3.0.5,60.151746131737774,
To what extent did the music make you feel ,TENDER,30MonoWAV/30MonoT4.wav,2,1,4,16,,,,,1,8,24,15,0,11,11,10,,,,,,,,,1,0.7858986730134347,074,001,2019_Aug_26_1313,MusicAffectPsychophysiology2019,3.0.5,60.151746131737774,
,,30MonoWAV/30MonoT4.wav,2,1,4,16,,,,,1,8,24,15,,,,,,,,,,,,,,,074,001,2019_Aug_26_1313,MusicAffectPsychophysiology2019,3.0.5,60.151746131737774,
To what extent did the music make you feel ,ANGRY,30MonoWAV/30MonoH2.wav,2,2,1,6,,,,,1,9,25,5,0,0,0,2,,,4,2.320686956998543,4,2.2205479810072575,3,1.1868960579886334,1,1.2865995799947996,074,001,2019_Aug_26_1313,MusicAffectPsychophysiology2019,3.0.5,60.151746131737774,
To what extent did the music make you feel ,TENDER,30MonoWAV/30MonoH2.wav,2,2,1,6,,,,,1,9,25,5,0,1,1,10,,,,,,,,,2,1.4296644199930597,074,001,2019_Aug_26_1313,MusicAffectPsychophysiology2019,3.0.5,60.151746131737774,
To what extent did the music make you feel ,ACTIVE,30MonoWAV/30MonoH2.wav,2,2,1,6,,,,,1,9,25,5,0,2,2,9,,,,,,,,,3,1.1436389139998937,074,001,2019_Aug_26_1313,MusicAffectPsychophysiology2019,3.0.5,60.151746131737774,
To what extent did the music make you feel ,HAPPY,30MonoWAV/30MonoH2.wav,2,2,1,6,,,,,1,9,25,5,0,3,3,6,,,,,,,,,3,1.0539987020019908,074,001,2019_Aug_26_1313,MusicAffectPsychophysiology2019,3.0.5,60.151746131737774,
To what extent did the music make you feel ,SAD,30MonoWAV/30MonoH2.wav,2,2,1,6,,,,,1,9,25,5,0,4,4,0,,,,,,,,,1,0.7433142060035607,074,001,2019_Aug_26_1313,MusicAffectPsychophysiology2019,3.0.5,60.151746131737774,
To what extent did the music make you feel ,EXCITED,30MonoWAV/30MonoH2.wav,2,2,1,6,,,,,1,9,25,5,0,5,5,7,,,,,,,,,3,1.1030016580043593,074,001,2019_Aug_26_1313,MusicAffectPsychophysiology2019,3.0.5,60.151746131737774,
To what extent did the music make you feel ,FRUSTRATED,30MonoWAV/30MonoH2.wav,2,2,1,6,,,,,1,9,25,5,0,6,6,3,,,,,,,,,1,0.847021383990068,074,001,2019_Aug_26_1313,MusicAffectPsychophysiology2019,3.0.5,60.151746131737774,
To what extent did the music make you feel ,SCARED,30MonoWAV/30MonoH2.wav,2,2,1,6,,,,,1,9,25,5,0,7,7,11,,,,,,,,,1,0.8122549110121327,074,001,2019_Aug_26_1313,MusicAffectPsychophysiology2019,3.0.5,60.151746131737774,
To what extent did the music make you feel ,GUILTY,30MonoWAV/30MonoH2.wav,2,2,1,6,,,,,1,9,25,5,0,8,8,5,,,,,,,,,1,0.7209229150030296,074,001,2019_Aug_26_1313,MusicAffectPsychophysiology2019,3.0.5,60.151746131737774,
To what extent did the music make you feel ,ANXIOUS ,30MonoWAV/30MonoH2.wav,2,2,1,6,,,,,1,9,25,5,0,9,9,1,,,,,,,,,2,1.2294747099949745,074,001,2019_Aug_26_1313,MusicAffectPsychophysiology2019,3.0.5,60.151746131737774,
To what extent did the music make you feel ,ASHAMED,30MonoWAV/30MonoH2.wav,2,2,1,6,,,,,1,9,25,5,0,10,10,4,,,,,,,,,1,0.7041220000101021,074,001,2019_Aug_26_1313,MusicAffectPsychophysiology2019,3.0.5,60.151746131737774,
To what extent did the music make you feel ,ALERT,30MonoWAV/30MonoH2.wav,2,2,1,6,,,,,1,9,25,5,0,11,11,8,,,,,,,,,1,2.2025699579971842,074,001,2019_Aug_26_1313,MusicAffectPsychophysiology2019,3.0.5,60.151746131737774,
,,30MonoWAV/30MonoH2.wav,2,2,1,6,,,,,1,9,25,5,,,,,,,,,,,,,,,074,001,2019_Aug_26_1313,MusicAffectPsychophysiology2019,3.0.5,60.151746131737774,
To what extent did the music make you feel ,FRUSTRATED,30MonoWAV/30MonoH3.wav,2,2,1,7,,,,,1,10,26,6,0,0,0,3,,,3,3.2535172820062144,3,1.0700421249930514,3,0.5193215259932913,1,1.4545926279970445,074,001,2019_Aug_26_1313,MusicAffectPsychophysiology2019,3.0.5,60.151746131737774,
To what extent did the music make you feel ,ANGRY,30MonoWAV/30MonoH3.wav,2,2,1,7,,,,,1,10,26,6,0,1,1,2,,,,,,,,,1,0.6702985250012716,074,001,2019_Aug_26_1313,MusicAffectPsychophysiology2019,3.0.5,60.151746131737774,
To what extent did the music make you feel ,SCARED,30MonoWAV/30MonoH3.wav,2,2,1,7,,,,,1,10,26,6,0,2,2,11,,,,,,,,,1,0.5073979160079034,074,001,2019_Aug_26_1313,MusicAffectPsychophysiology2019,3.0.5,60.151746131737774,
To what extent did the music make you feel ,ANXIOUS ,30MonoWAV/30MonoH3.wav,2,2,1,7,,,,,1,10,26,6,0,3,3,1,,,,,,,,,1,0.6547346709994599,074,001,2019_Aug_26_1313,MusicAffectPsychophysiology2019,3.0.5,60.151746131737774,
To what extent did the music make you feel ,ASHAMED,30MonoWAV/30MonoH3.wav,2,2,1,7,,,,,1,10,26,6,0,4,4,4,,,,,,,,,1,0.6368209810025292,074,001,2019_Aug_26_1313,MusicAffectPsychophysiology2019,3.0.5,60.151746131737774,
To what extent did the music make you feel ,SAD,30MonoWAV/30MonoH3.wav,2,2,1,7,,,,,1,10,26,6,0,5,5,0,,,,,,,,,1,0.5697862790111685,074,001,2019_Aug_26_1313,MusicAffectPsychophysiology2019,3.0.5,60.151746131737774,
To what extent did the music make you feel ,GUILTY,30MonoWAV/30MonoH3.wav,2,2,1,7,,,,,1,10,26,6,0,6,6,5,,,,,,,,,1,0.6198419370048214,074,001,2019_Aug_26_1313,MusicAffectPsychophysiology2019,3.0.5,60.151746131737774,
To what extent did the music make you feel ,ACTIVE,30MonoWAV/30MonoH3.wav,2,2,1,7,,,,,1,10,26,6,0,7,7,9,,,,,,,,,3,1.8360953899973538,074,001,2019_Aug_26_1313,MusicAffectPsychophysiology2019,3.0.5,60.151746131737774,
To what extent did the music make you feel ,HAPPY,30MonoWAV/30MonoH3.wav,2,2,1,7,,,,,1,10,26,6,0,8,8,6,,,,,,,,,4,1.1691734939959133,074,001,2019_Aug_26_1313,MusicAffectPsychophysiology2019,3.0.5,60.151746131737774,
To what extent did the music make you feel ,EXCITED,30MonoWAV/30MonoH3.wav,2,2,1,7,,,,,1,10,26,6,0,9,9,7,,,,,,,,,3,1.7698342590010725,074,001,2019_Aug_26_1313,MusicAffectPsychophysiology2019,3.0.5,60.151746131737774,
To what extent did the music make you feel ,TENDER,30MonoWAV/30MonoH3.wav,2,2,1,7,,,,,1,10,26,6,0,10,10,10,,,,,,,,,1,0.9697605809924426,074,001,2019_Aug_26_1313,MusicAffectPsychophysiology2019,3.0.5,60.151746131737774,
To what extent did the music make you feel ,ALERT,30MonoWAV/30MonoH3.wav,2,2,1,7,,,,,1,10,26,6,0,11,11,8,,,,,,,,,1,0.6204949029925046,074,001,2019_Aug_26_1313,MusicAffectPsychophysiology2019,3.0.5,60.151746131737774,
,,30MonoWAV/30MonoH3.wav,2,2,1,7,,,,,1,10,26,6,,,,,,,,,,,,,,,074,001,2019_Aug_26_1313,MusicAffectPsychophysiology2019,3.0.5,60.151746131737774,
To what extent did the music make you feel ,ANXIOUS ,30MonoWAV/30MonoH4.wav,2,2,1,8,,,,,1,11,27,7,0,0,0,1,,,3,4.887065625996911,4,0.8868763740028953,4,0.4683242729952326,1,1.236238557001343,074,001,2019_Aug_26_1313,MusicAffectPsychophysiology2019,3.0.5,60.151746131737774,
To what extent did the music make you feel ,GUILTY,30MonoWAV/30MonoH4.wav,2,2,1,8,,,,,1,11,27,7,0,1,1,5,,,,,,,,,1,0.5505641950003337,074,001,2019_Aug_26_1313,MusicAffectPsychophysiology2019,3.0.5,60.151746131737774,
To what extent did the music make you feel ,ALERT,30MonoWAV/30MonoH4.wav,2,2,1,8,,,,,1,11,27,7,0,2,2,8,,,,,,,,,1,0.5528109180013416,074,001,2019_Aug_26_1313,MusicAffectPsychophysiology2019,3.0.5,60.151746131737774,
To what extent did the music make you feel ,EXCITED,30MonoWAV/30MonoH4.wav,2,2,1,8,,,,,1,11,27,7,0,3,3,7,,,,,,,,,3,1.4174115850037197,074,001,2019_Aug_26_1313,MusicAffectPsychophysiology2019,3.0.5,60.151746131737774,
To what extent did the music make you feel ,SCARED,30MonoWAV/30MonoH4.wav,2,2,1,8,,,,,1,11,27,7,0,4,4,11,,,,,,,,,1,0.6209059020038694,074,001,2019_Aug_26_1313,MusicAffectPsychophysiology2019,3.0.5,60.151746131737774,
To what extent did the music make you feel ,TENDER,30MonoWAV/30MonoH4.wav,2,2,1,8,,,,,1,11,27,7,0,5,5,10,,,,,,,,,1,0.5662450100062415,074,001,2019_Aug_26_1313,MusicAffectPsychophysiology2019,3.0.5,60.151746131737774,
To what extent did the music make you feel ,HAPPY,30MonoWAV/30MonoH4.wav,2,2,1,8,,,,,1,11,27,7,0,6,6,6,,,,,,,,,4,1.0186481770069804,074,001,2019_Aug_26_1313,MusicAffectPsychophysiology2019,3.0.5,60.151746131737774,
To what extent did the music make you feel ,ANGRY,30MonoWAV/30MonoH4.wav,2,2,1,8,,,,,1,11,27,7,0,7,7,2,,,,,,,,,1,0.5867826619942207,074,001,2019_Aug_26_1313,MusicAffectPsychophysiology2019,3.0.5,60.151746131737774,
To what extent did the music make you feel ,ACTIVE,30MonoWAV/30MonoH4.wav,2,2,1,8,,,,,1,11,27,7,0,8,8,9,,,,,,,,,3,1.185381087998394,074,001,2019_Aug_26_1313,MusicAffectPsychophysiology2019,3.0.5,60.151746131737774,
To what extent did the music make you feel ,SAD,30MonoWAV/30MonoH4.wav,2,2,1,8,,,,,1,11,27,7,0,9,9,0,,,,,,,,,1,0.752618859987706,074,001,2019_Aug_26_1313,MusicAffectPsychophysiology2019,3.0.5,60.151746131737774,
To what extent did the music make you feel ,ASHAMED,30MonoWAV/30MonoH4.wav,2,2,1,8,,,,,1,11,27,7,0,10,10,4,,,,,,,,,1,0.4874257710034726,074,001,2019_Aug_26_1313,MusicAffectPsychophysiology2019,3.0.5,60.151746131737774,
To what extent did the music make you feel ,FRUSTRATED,30MonoWAV/30MonoH4.wav,2,2,1,8,,,,,1,11,27,7,0,11,11,3,,,,,,,,,1,0.46941430399601813,074,001,2019_Aug_26_1313,MusicAffectPsychophysiology2019,3.0.5,60.151746131737774,
,,30MonoWAV/30MonoH4.wav,2,2,1,8,,,,,1,11,27,7,,,,,,,,,,,,,,,074,001,2019_Aug_26_1313,MusicAffectPsychophysiology2019,3.0.5,60.151746131737774,
To what extent did the music make you feel ,HAPPY,30MonoWAV/30MonoS1.wav,1,1,3,9,,,,,1,12,28,8,0,0,0,6,,,1,5.002855591010302,2,2.186871155994595,2,0.9546315530024003,2,4.018636937005795,074,001,2019_Aug_26_1313,MusicAffectPsychophysiology2019,3.0.5,60.151746131737774,
To what extent did the music make you feel ,EXCITED,30MonoWAV/30MonoS1.wav,1,1,3,9,,,,,1,12,28,8,0,1,1,7,,,,,,,,,1,1.4088584819983225,074,001,2019_Aug_26_1313,MusicAffectPsychophysiology2019,3.0.5,60.151746131737774,
To what extent did the music make you feel ,FRUSTRATED,30MonoWAV/30MonoS1.wav,1,1,3,9,,,,,1,12,28,8,0,2,2,3,,,,,,,,,1,0.8248020229948452,074,001,2019_Aug_26_1313,MusicAffectPsychophysiology2019,3.0.5,60.151746131737774,
To what extent did the music make you feel ,GUILTY,30MonoWAV/30MonoS1.wav,1,1,3,9,,,,,1,12,28,8,0,3,3,5,,,,,,,,,1,0.5544795129972044,074,001,2019_Aug_26_1313,MusicAffectPsychophysiology2019,3.0.5,60.151746131737774,
To what extent did the music make you feel ,ASHAMED,30MonoWAV/30MonoS1.wav,1,1,3,9,,,,,1,12,28,8,0,4,4,4,,,,,,,,,1,1.102626264007995,074,001,2019_Aug_26_1313,MusicAffectPsychophysiology2019,3.0.5,60.151746131737774,
To what extent did the music make you feel ,ACTIVE,30MonoWAV/30MonoS1.wav,1,1,3,9,,,,,1,12,28,8,0,5,5,9,,,,,,,,,1,1.2022077739966335,074,001,2019_Aug_26_1313,MusicAffectPsychophysiology2019,3.0.5,60.151746131737774,
To what extent did the music make you feel ,ANGRY,30MonoWAV/30MonoS1.wav,1,1,3,9,,,,,1,12,28,8,0,6,6,2,,,,,,,,,1,0.7860273280093679,074,001,2019_Aug_26_1313,MusicAffectPsychophysiology2019,3.0.5,60.151746131737774,
To what extent did the music make you feel ,SAD,30MonoWAV/30MonoS1.wav,1,1,3,9,,,,,1,12,28,8,0,7,7,0,,,,,,,,,2,1.6035955230036052,074,001,2019_Aug_26_1313,MusicAffectPsychophysiology2019,3.0.5,60.151746131737774,
To what extent did the music make you feel ,TENDER,30MonoWAV/30MonoS1.wav,1,1,3,9,,,,,1,12,28,8,0,8,8,10,,,,,,,,,1,0.7595252030005213,074,001,2019_Aug_26_1313,MusicAffectPsychophysiology2019,3.0.5,60.151746131737774,
To what extent did the music make you feel ,ALERT,30MonoWAV/30MonoS1.wav,1,1,3,9,,,,,1,12,28,8,0,9,9,8,,,,,,,,,1,0.7364854779880261,074,001,2019_Aug_26_1313,MusicAffectPsychophysiology2019,3.0.5,60.151746131737774,
To what extent did the music make you feel ,SCARED,30MonoWAV/30MonoS1.wav,1,1,3,9,,,,,1,12,28,8,0,10,10,11,,,,,,,,,1,0.7592576949973591,074,001,2019_Aug_26_1313,MusicAffectPsychophysiology2019,3.0.5,60.151746131737774,
To what extent did the music make you feel ,ANXIOUS ,30MonoWAV/30MonoS1.wav,1,1,3,9,,,,,1,12,28,8,0,11,11,1,,,,,,,,,1,0.6913596800004598,074,001,2019_Aug_26_1313,MusicAffectPsychophysiology2019,3.0.5,60.151746131737774,
,,30MonoWAV/30MonoS1.wav,1,1,3,9,,,,,1,12,28,8,,,,,,,,,,,,,,,074,001,2019_Aug_26_1313,MusicAffectPsychophysiology2019,3.0.5,60.151746131737774,
To what extent did the music make you feel ,ACTIVE,30MonoWAV/30MonoH1.wav,2,2,1,5,,,,,1,13,29,4,0,0,0,9,,,3,2.7550372810073895,3,1.4534924379986478,3,0.937230808995082,2,5.237349540009745,074,001,2019_Aug_26_1313,MusicAffectPsychophysiology2019,3.0.5,60.151746131737774,
To what extent did the music make you feel ,SCARED,30MonoWAV/30MonoH1.wav,2,2,1,5,,,,,1,13,29,4,0,1,1,11,,,,,,,,,1,1.0370498760021292,074,001,2019_Aug_26_1313,MusicAffectPsychophysiology2019,3.0.5,60.151746131737774,
To what extent did the music make you feel ,GUILTY,30MonoWAV/30MonoH1.wav,2,2,1,5,,,,,1,13,29,4,0,2,2,5,,,,,,,,,1,0.703111473005265,074,001,2019_Aug_26_1313,MusicAffectPsychophysiology2019,3.0.5,60.151746131737774,
To what extent did the music make you feel ,ANXIOUS ,30MonoWAV/30MonoH1.wav,2,2,1,5,,,,,1,13,29,4,0,3,3,1,,,,,,,,,1,0.7865970010025194,074,001,2019_Aug_26_1313,MusicAffectPsychophysiology2019,3.0.5,60.151746131737774,
To what extent did the music make you feel ,EXCITED,30MonoWAV/30MonoH1.wav,2,2,1,5,,,,,1,13,29,4,0,4,4,7,,,,,,,,,1,0.46983928899862804,074,001,2019_Aug_26_1313,MusicAffectPsychophysiology2019,3.0.5,60.151746131737774,
To what extent did the music make you feel ,TENDER,30MonoWAV/30MonoH1.wav,2,2,1,5,,,,,1,13,29,4,0,5,5,10,,,,,,,,,1,2.5205969579983503,074,001,2019_Aug_26_1313,MusicAffectPsychophysiology2019,3.0.5,60.151746131737774,
To what extent did the music make you feel ,FRUSTRATED,30MonoWAV/30MonoH1.wav,2,2,1,5,,,,,1,13,29,4,0,6,6,3,,,,,,,,,1,0.8042611980054062,074,001,2019_Aug_26_1313,MusicAffectPsychophysiology2019,3.0.5,60.151746131737774,
To what extent did the music make you feel ,ALERT,30MonoWAV/30MonoH1.wav,2,2,1,5,,,,,1,13,29,4,0,7,7,8,,,,,,,,,1,0.5881905530113727,074,001,2019_Aug_26_1313,MusicAffectPsychophysiology2019,3.0.5,60.151746131737774,
To what extent did the music make you feel ,ASHAMED,30MonoWAV/30MonoH1.wav,2,2,1,5,,,,,1,13,29,4,0,8,8,4,,,,,,,,,1,0.570336346005206,074,001,2019_Aug_26_1313,MusicAffectPsychophysiology2019,3.0.5,60.151746131737774,
To what extent did the music make you feel ,ANGRY,30MonoWAV/30MonoH1.wav,2,2,1,5,,,,,1,13,29,4,0,9,9,2,,,,,,,,,1,0.5860998269927222,074,001,2019_Aug_26_1313,MusicAffectPsychophysiology2019,3.0.5,60.151746131737774,
To what extent did the music make you feel ,SAD,30MonoWAV/30MonoH1.wav,2,2,1,5,,,,,1,13,29,4,0,10,10,0,,,,,,,,,1,0.6672382849938003,074,001,2019_Aug_26_1313,MusicAffectPsychophysiology2019,3.0.5,60.151746131737774,
To what extent did the music make you feel ,HAPPY,30MonoWAV/30MonoH1.wav,2,2,1,5,,,,,1,13,29,4,0,11,11,6,,,,,,,,,3,1.269659061988932,074,001,2019_Aug_26_1313,MusicAffectPsychophysiology2019,3.0.5,60.151746131737774,
,,30MonoWAV/30MonoH1.wav,2,2,1,5,,,,,1,13,29,4,,,,,,,,,,,,,,,074,001,2019_Aug_26_1313,MusicAffectPsychophysiology2019,3.0.5,60.151746131737774,
To what extent did the music make you feel ,ACTIVE,30MonoWAV/30MonoS3.wav,1,1,3,11,,,,,1,14,30,10,0,0,0,9,,,1,3.868996732009691,1,0.7038617569924099,2,0.8357670279947342,1,2.500227394993999,074,001,2019_Aug_26_1313,MusicAffectPsychophysiology2019,3.0.5,60.151746131737774,
To what extent did the music make you feel ,TENDER,30MonoWAV/30MonoS3.wav,1,1,3,11,,,,,1,14,30,10,0,1,1,10,,,,,,,,,2,1.270455524994759,074,001,2019_Aug_26_1313,MusicAffectPsychophysiology2019,3.0.5,60.151746131737774,
To what extent did the music make you feel ,SCARED,30MonoWAV/30MonoS3.wav,1,1,3,11,,,,,1,14,30,10,0,2,2,11,,,,,,,,,2,1.4804873679968296,074,001,2019_Aug_26_1313,MusicAffectPsychophysiology2019,3.0.5,60.151746131737774,
To what extent did the music make you feel ,HAPPY,30MonoWAV/30MonoS3.wav,1,1,3,11,,,,,1,14,30,10,0,3,3,6,,,,,,,,,1,1.6709773580078036,074,001,2019_Aug_26_1313,MusicAffectPsychophysiology2019,3.0.5,60.151746131737774,
To what extent did the music make you feel ,EXCITED,30MonoWAV/30MonoS3.wav,1,1,3,11,,,,,1,14,30,10,0,4,4,7,,,,,,,,,1,1.1802006450016052,074,001,2019_Aug_26_1313,MusicAffectPsychophysiology2019,3.0.5,60.151746131737774,
To what extent did the music make you feel ,ANXIOUS ,30MonoWAV/30MonoS3.wav,1,1,3,11,,,,,1,14,30,10,0,5,5,1,,,,,,,,,2,1.263756996995653,074,001,2019_Aug_26_1313,MusicAffectPsychophysiology2019,3.0.5,60.151746131737774,
To what extent did the music make you feel ,GUILTY,30MonoWAV/30MonoS3.wav,1,1,3,11,,,,,1,14,30,10,0,6,6,5,,,,,,,,,1,1.1461569950042758,074,001,2019_Aug_26_1313,MusicAffectPsychophysiology2019,3.0.5,60.151746131737774,
To what extent did the music make you feel ,SAD,30MonoWAV/30MonoS3.wav,1,1,3,11,,,,,1,14,30,10,0,7,7,0,,,,,,,,,2,2.052424712004722,074,001,2019_Aug_26_1313,MusicAffectPsychophysiology2019,3.0.5,60.151746131737774,
To what extent did the music make you feel ,FRUSTRATED,30MonoWAV/30MonoS3.wav,1,1,3,11,,,,,1,14,30,10,0,8,8,3,,,,,,,,,1,0.6459520169883035,074,001,2019_Aug_26_1313,MusicAffectPsychophysiology2019,3.0.5,60.151746131737774,
To what extent did the music make you feel ,ASHAMED,30MonoWAV/30MonoS3.wav,1,1,3,11,,,,,1,14,30,10,0,9,9,4,,,,,,,,,1,0.8868807039980311,074,001,2019_Aug_26_1313,MusicAffectPsychophysiology2019,3.0.5,60.151746131737774,
To what extent did the music make you feel ,ANGRY,30MonoWAV/30MonoS3.wav,1,1,3,11,,,,,1,14,30,10,0,10,10,2,,,,,,,,,1,0.7455546190030873,074,001,2019_Aug_26_1313,MusicAffectPsychophysiology2019,3.0.5,60.151746131737774,
To what extent did the music make you feel ,ALERT,30MonoWAV/30MonoS3.wav,1,1,3,11,,,,,1,14,30,10,0,11,11,8,,,,,,,,,1,0.6928096479969099,074,001,2019_Aug_26_1313,MusicAffectPsychophysiology2019,3.0.5,60.151746131737774,
,,30MonoWAV/30MonoS3.wav,1,1,3,11,,,,,1,14,30,10,,,,,,,,,,,,,,,074,001,2019_Aug_26_1313,MusicAffectPsychophysiology2019,3.0.5,60.151746131737774,
To what extent did the music make you feel ,SAD,30MonoWAV/30MonoS4.wav,1,1,3,12,,,,,1,15,31,11,0,0,0,0,,,1,2.854287786001805,1,1.3866658259939868,2,1.0505768080038251,4,1.7233766739955172,074,001,2019_Aug_26_1313,MusicAffectPsychophysiology2019,3.0.5,60.151746131737774,
To what extent did the music make you feel ,ANXIOUS ,30MonoWAV/30MonoS4.wav,1,1,3,12,,,,,1,15,31,11,0,1,1,1,,,,,,,,,1,6.0361186650116,074,001,2019_Aug_26_1313,MusicAffectPsychophysiology2019,3.0.5,60.151746131737774,
To what extent did the music make you feel ,ALERT,30MonoWAV/30MonoS4.wav,1,1,3,12,,,,,1,15,31,11,0,2,2,8,,,,,,,,,1,0.8387694250122877,074,001,2019_Aug_26_1313,MusicAffectPsychophysiology2019,3.0.5,60.151746131737774,
To what extent did the music make you feel ,HAPPY,30MonoWAV/30MonoS4.wav,1,1,3,12,,,,,1,15,31,11,0,3,3,6,,,,,,,,,1,0.9860044139932143,074,001,2019_Aug_26_1313,MusicAffectPsychophysiology2019,3.0.5,60.151746131737774,
To what extent did the music make you feel ,GUILTY,30MonoWAV/30MonoS4.wav,1,1,3,12,,,,,1,15,31,11,0,4,4,5,,,,,,,,,2,1.5349996290024137,074,001,2019_Aug_26_1313,MusicAffectPsychophysiology2019,3.0.5,60.151746131737774,
To what extent did the music make you feel ,ANGRY,30MonoWAV/30MonoS4.wav,1,1,3,12,,,,,1,15,31,11,0,5,5,2,,,,,,,,,1,0.7029172290058341,074,001,2019_Aug_26_1313,MusicAffectPsychophysiology2019,3.0.5,60.151746131737774,
To what extent did the music make you feel ,EXCITED,30MonoWAV/30MonoS4.wav,1,1,3,12,,,,,1,15,31,11,0,6,6,7,,,,,,,,,1,0.8051254719903227,074,001,2019_Aug_26_1313,MusicAffectPsychophysiology2019,3.0.5,60.151746131737774,
To what extent did the music make you feel ,ACTIVE,30MonoWAV/30MonoS4.wav,1,1,3,12,,,,,1,15,31,11,0,7,7,9,,,,,,,,,1,0.6534521340072388,074,001,2019_Aug_26_1313,MusicAffectPsychophysiology2019,3.0.5,60.151746131737774,
To what extent did the music make you feel ,FRUSTRATED,30MonoWAV/30MonoS4.wav,1,1,3,12,,,,,1,15,31,11,0,8,8,3,,,,,,,,,1,0.6724409909948008,074,001,2019_Aug_26_1313,MusicAffectPsychophysiology2019,3.0.5,60.151746131737774,
To what extent did the music make you feel ,TENDER,30MonoWAV/30MonoS4.wav,1,1,3,12,,,,,1,15,31,11,0,9,9,10,,,,,,,,,1,0.9724426049942849,074,001,2019_Aug_26_1313,MusicAffectPsychophysiology2019,3.0.5,60.151746131737774,
To what extent did the music make you feel ,ASHAMED,30MonoWAV/30MonoS4.wav,1,1,3,12,,,,,1,15,31,11,0,10,10,4,,,,,,,,,2,0.7201667329936754,074,001,2019_Aug_26_1313,MusicAffectPsychophysiology2019,3.0.5,60.151746131737774,
To what extent did the music make you feel ,SCARED,30MonoWAV/30MonoS4.wav,1,1,3,12,,,,,1,15,31,11,0,11,11,11,,,,,,,,,1,0.9525762399862288,074,001,2019_Aug_26_1313,MusicAffectPsychophysiology2019,3.0.5,60.151746131737774,
,,30MonoWAV/30MonoS4.wav,1,1,3,12,,,,,1,15,31,11,,,,,,,,,,,,,,,074,001,2019_Aug_26_1313,MusicAffectPsychophysiology2019,3.0.5,60.151746131737774,
