Instruction,Word,song,valence,arousal,affectcat,songmark,pracwords.thisRepN,pracwords.thisTrialN,pracwords.thisN,pracwords.thisIndex,songtrials.thisRepN,songtrials.thisTrialN,songtrials.thisN,songtrials.thisIndex,words.thisRepN,words.thisTrialN,words.thisN,words.thisIndex,begin.keys,begin.rt,arousalkey.keys,arousalkey.rt,valencekey.keys,valencekey.rt,likekey.keys,likekey.rt,WordResponse.keys,WordResponse.rt,key_resp_2.keys,key_resp_2.rt,participant,session,date,expName,psychopyVersion,frameRate,
,,,,,,,,,,,,,,,,,,,space,17.892617372010136,,,,,,,,,,,075,001,2019_Aug_26_1501,MusicAffectPsychophysiology2019,3.0.5,59.74683913937408,
,,,,,,,,,,,,,,,,,,,,,4,5.516522386009456,,,,,,,,,075,001,2019_Aug_26_1501,MusicAffectPsychophysiology2019,3.0.5,59.74683913937408,
,,,,,,,,,,,,,,,,,,,,,,,4,3.8019272689998616,,,,,,,075,001,2019_Aug_26_1501,MusicAffectPsychophysiology2019,3.0.5,59.74683913937408,
,,,,,,,,,,,,,,,,,,,,,,,,,4,3.8541889280022588,,,,,075,001,2019_Aug_26_1501,MusicAffectPsychophysiology2019,3.0.5,59.74683913937408,
To what extent did the music make you feel ,TENDER,,,,,,0,0,0,10,,,,,,,,,,,,,,,,,3,9.79368609598896,,,075,001,2019_Aug_26_1501,MusicAffectPsychophysiology2019,3.0.5,59.74683913937408,
To what extent did the music make you feel ,ASHAMED,,,,,,0,1,1,4,,,,,,,,,,,,,,,,,1,2.2245980719890213,,,075,001,2019_Aug_26_1501,MusicAffectPsychophysiology2019,3.0.5,59.74683913937408,
To what extent did the music make you feel ,ALERT,,,,,,0,2,2,8,,,,,,,,,,,,,,,,,2,3.0747977179998998,,,075,001,2019_Aug_26_1501,MusicAffectPsychophysiology2019,3.0.5,59.74683913937408,
To what extent did the music make you feel ,SCARED,,,,,,0,3,3,11,,,,,,,,,,,,,,,,,1,1.358866880997084,,,075,001,2019_Aug_26_1501,MusicAffectPsychophysiology2019,3.0.5,59.74683913937408,
To what extent did the music make you feel ,ANXIOUS ,,,,,,0,4,4,1,,,,,,,,,,,,,,,,,1,1.1744382100005168,,,075,001,2019_Aug_26_1501,MusicAffectPsychophysiology2019,3.0.5,59.74683913937408,
To what extent did the music make you feel ,ANGRY,,,,,,0,5,5,2,,,,,,,,,,,,,,,,,1,1.120105722991866,,,075,001,2019_Aug_26_1501,MusicAffectPsychophysiology2019,3.0.5,59.74683913937408,
To what extent did the music make you feel ,GUILTY,,,,,,0,6,6,5,,,,,,,,,,,,,,,,,1,1.0698934419924626,,,075,001,2019_Aug_26_1501,MusicAffectPsychophysiology2019,3.0.5,59.74683913937408,
To what extent did the music make you feel ,EXCITED,,,,,,0,7,7,7,,,,,,,,,,,,,,,,,2,3.9736749080038862,,,075,001,2019_Aug_26_1501,MusicAffectPsychophysiology2019,3.0.5,59.74683913937408,
To what extent did the music make you feel ,ACTIVE,,,,,,0,8,8,9,,,,,,,,,,,,,,,,,2,2.6022984879964497,,,075,001,2019_Aug_26_1501,MusicAffectPsychophysiology2019,3.0.5,59.74683913937408,
To what extent did the music make you feel ,FRUSTRATED,,,,,,0,9,9,3,,,,,,,,,,,,,,,,,1,1.1743789289903361,,,075,001,2019_Aug_26_1501,MusicAffectPsychophysiology2019,3.0.5,59.74683913937408,
To what extent did the music make you feel ,SAD,,,,,,0,10,10,0,,,,,,,,,,,,,,,,,1,1.220572174002882,,,075,001,2019_Aug_26_1501,MusicAffectPsychophysiology2019,3.0.5,59.74683913937408,
To what extent did the music make you feel ,HAPPY,,,,,,0,11,11,6,,,,,,,,,,,,,,,,,4,2.8187399500020547,,,075,001,2019_Aug_26_1501,MusicAffectPsychophysiology2019,3.0.5,59.74683913937408,
To what extent did the music make you feel ,SAD,30MonoWAV/30MonoH4.wav,2,2,1,8,,,,,0,0,0,7,0,0,0,0,,,3,3.4869517990009626,4,6.234791311988374,3,2.536562824010616,1,1.5857148520008195,,,075,001,2019_Aug_26_1501,MusicAffectPsychophysiology2019,3.0.5,59.74683913937408,
To what extent did the music make you feel ,ANGRY,30MonoWAV/30MonoH4.wav,2,2,1,8,,,,,0,0,0,7,0,1,1,2,,,,,,,,,1,0.9865676589979557,,,075,001,2019_Aug_26_1501,MusicAffectPsychophysiology2019,3.0.5,59.74683913937408,
To what extent did the music make you feel ,TENDER,30MonoWAV/30MonoH4.wav,2,2,1,8,,,,,0,0,0,7,0,2,2,10,,,,,,,,,2,3.2694035610038554,,,075,001,2019_Aug_26_1501,MusicAffectPsychophysiology2019,3.0.5,59.74683913937408,
To what extent did the music make you feel ,SCARED,30MonoWAV/30MonoH4.wav,2,2,1,8,,,,,0,0,0,7,0,3,3,11,,,,,,,,,1,1.5860335070028668,,,075,001,2019_Aug_26_1501,MusicAffectPsychophysiology2019,3.0.5,59.74683913937408,
To what extent did the music make you feel ,ANXIOUS ,30MonoWAV/30MonoH4.wav,2,2,1,8,,,,,0,0,0,7,0,4,4,1,,,,,,,,,2,2.0871020459890133,,,075,001,2019_Aug_26_1501,MusicAffectPsychophysiology2019,3.0.5,59.74683913937408,
To what extent did the music make you feel ,GUILTY,30MonoWAV/30MonoH4.wav,2,2,1,8,,,,,0,0,0,7,0,5,5,5,,,,,,,,,1,0.9868051519879373,,,075,001,2019_Aug_26_1501,MusicAffectPsychophysiology2019,3.0.5,59.74683913937408,
To what extent did the music make you feel ,FRUSTRATED,30MonoWAV/30MonoH4.wav,2,2,1,8,,,,,0,0,0,7,0,6,6,3,,,,,,,,,1,1.4851542210089974,,,075,001,2019_Aug_26_1501,MusicAffectPsychophysiology2019,3.0.5,59.74683913937408,
To what extent did the music make you feel ,ALERT,30MonoWAV/30MonoH4.wav,2,2,1,8,,,,,0,0,0,7,0,7,7,8,,,,,,,,,2,1.1713679559907177,,,075,001,2019_Aug_26_1501,MusicAffectPsychophysiology2019,3.0.5,59.74683913937408,
To what extent did the music make you feel ,ASHAMED,30MonoWAV/30MonoH4.wav,2,2,1,8,,,,,0,0,0,7,0,8,8,4,,,,,,,,,1,0.7676185840100516,,,075,001,2019_Aug_26_1501,MusicAffectPsychophysiology2019,3.0.5,59.74683913937408,
To what extent did the music make you feel ,ACTIVE,30MonoWAV/30MonoH4.wav,2,2,1,8,,,,,0,0,0,7,0,9,9,9,,,,,,,,,3,2.7864154550043168,,,075,001,2019_Aug_26_1501,MusicAffectPsychophysiology2019,3.0.5,59.74683913937408,
To what extent did the music make you feel ,EXCITED,30MonoWAV/30MonoH4.wav,2,2,1,8,,,,,0,0,0,7,0,10,10,7,,,,,,,,,3,1.9847155519964872,,,075,001,2019_Aug_26_1501,MusicAffectPsychophysiology2019,3.0.5,59.74683913937408,
To what extent did the music make you feel ,HAPPY,30MonoWAV/30MonoH4.wav,2,2,1,8,,,,,0,0,0,7,0,11,11,6,,,,,,,,,3,1.5041552230104571,,,075,001,2019_Aug_26_1501,MusicAffectPsychophysiology2019,3.0.5,59.74683913937408,
,,30MonoWAV/30MonoH4.wav,2,2,1,8,,,,,0,0,0,7,,,,,,,,,,,,,,,,,075,001,2019_Aug_26_1501,MusicAffectPsychophysiology2019,3.0.5,59.74683913937408,
To what extent did the music make you feel ,SAD,30MonoWAV/30MonoH1.wav,2,2,1,5,,,,,0,1,1,4,0,0,0,0,,,3,4.719653369989828,4,3.5866821390081896,3,1.5197795440035407,1,1.7447691900015343,,,075,001,2019_Aug_26_1501,MusicAffectPsychophysiology2019,3.0.5,59.74683913937408,
To what extent did the music make you feel ,ANXIOUS ,30MonoWAV/30MonoH1.wav,2,2,1,5,,,,,0,1,1,4,0,1,1,1,,,,,,,,,1,0.7773177829949418,,,075,001,2019_Aug_26_1501,MusicAffectPsychophysiology2019,3.0.5,59.74683913937408,
To what extent did the music make you feel ,ACTIVE,30MonoWAV/30MonoH1.wav,2,2,1,5,,,,,0,1,1,4,0,2,2,9,,,,,,,,,3,1.5719150460063247,,,075,001,2019_Aug_26_1501,MusicAffectPsychophysiology2019,3.0.5,59.74683913937408,
To what extent did the music make you feel ,ASHAMED,30MonoWAV/30MonoH1.wav,2,2,1,5,,,,,0,1,1,4,0,3,3,4,,,,,,,,,1,1.027195886010304,,,075,001,2019_Aug_26_1501,MusicAffectPsychophysiology2019,3.0.5,59.74683913937408,
To what extent did the music make you feel ,ANGRY,30MonoWAV/30MonoH1.wav,2,2,1,5,,,,,0,1,1,4,0,4,4,2,,,,,,,,,1,0.674485569994431,,,075,001,2019_Aug_26_1501,MusicAffectPsychophysiology2019,3.0.5,59.74683913937408,
To what extent did the music make you feel ,HAPPY,30MonoWAV/30MonoH1.wav,2,2,1,5,,,,,0,1,1,4,0,5,5,6,,,,,,,,,3,1.6690209340013098,,,075,001,2019_Aug_26_1501,MusicAffectPsychophysiology2019,3.0.5,59.74683913937408,
To what extent did the music make you feel ,GUILTY,30MonoWAV/30MonoH1.wav,2,2,1,5,,,,,0,1,1,4,0,6,6,5,,,,,,,,,1,0.9503764969995245,,,075,001,2019_Aug_26_1501,MusicAffectPsychophysiology2019,3.0.5,59.74683913937408,
To what extent did the music make you feel ,FRUSTRATED,30MonoWAV/30MonoH1.wav,2,2,1,5,,,,,0,1,1,4,0,7,7,3,,,,,,,,,1,0.5512397380080074,,,075,001,2019_Aug_26_1501,MusicAffectPsychophysiology2019,3.0.5,59.74683913937408,
To what extent did the music make you feel ,EXCITED,30MonoWAV/30MonoH1.wav,2,2,1,5,,,,,0,1,1,4,0,8,8,7,,,,,,,,,3,1.3869437849934911,,,075,001,2019_Aug_26_1501,MusicAffectPsychophysiology2019,3.0.5,59.74683913937408,
To what extent did the music make you feel ,ALERT,30MonoWAV/30MonoH1.wav,2,2,1,5,,,,,0,1,1,4,0,9,9,8,,,,,,,,,2,1.203093813994201,,,075,001,2019_Aug_26_1501,MusicAffectPsychophysiology2019,3.0.5,59.74683913937408,
To what extent did the music make you feel ,TENDER,30MonoWAV/30MonoH1.wav,2,2,1,5,,,,,0,1,1,4,0,10,10,10,,,,,,,,,1,2.2255131299898494,,,075,001,2019_Aug_26_1501,MusicAffectPsychophysiology2019,3.0.5,59.74683913937408,
To what extent did the music make you feel ,SCARED,30MonoWAV/30MonoH1.wav,2,2,1,5,,,,,0,1,1,4,0,11,11,11,,,,,,,,,1,0.6420948720042361,,,075,001,2019_Aug_26_1501,MusicAffectPsychophysiology2019,3.0.5,59.74683913937408,
,,30MonoWAV/30MonoH1.wav,2,2,1,5,,,,,0,1,1,4,,,,,,,,,,,,,,,,,075,001,2019_Aug_26_1501,MusicAffectPsychophysiology2019,3.0.5,59.74683913937408,
To what extent did the music make you feel ,ACTIVE,30MonoWAV/30MonoF2.wav,1,2,2,2,,,,,0,2,2,1,0,0,0,9,,,2,4.786004102992592,2,2.168755481005064,1,3.2540437350107823,3,4.870660227999906,,,075,001,2019_Aug_26_1501,MusicAffectPsychophysiology2019,3.0.5,59.74683913937408,
To what extent did the music make you feel ,TENDER,30MonoWAV/30MonoF2.wav,1,2,2,2,,,,,0,2,2,1,0,1,1,10,,,,,,,,,1,1.236458424013108,,,075,001,2019_Aug_26_1501,MusicAffectPsychophysiology2019,3.0.5,59.74683913937408,
To what extent did the music make you feel ,ANXIOUS ,30MonoWAV/30MonoF2.wav,1,2,2,2,,,,,0,2,2,1,0,2,2,1,,,,,,,,,3,2.0694298220041674,,,075,001,2019_Aug_26_1501,MusicAffectPsychophysiology2019,3.0.5,59.74683913937408,
To what extent did the music make you feel ,SCARED,30MonoWAV/30MonoF2.wav,1,2,2,2,,,,,0,2,2,1,0,3,3,11,,,,,,,,,3,2.8839425780024612,,,075,001,2019_Aug_26_1501,MusicAffectPsychophysiology2019,3.0.5,59.74683913937408,
To what extent did the music make you feel ,SAD,30MonoWAV/30MonoF2.wav,1,2,2,2,,,,,0,2,2,1,0,4,4,0,,,,,,,,,1,1.4323804900050163,,,075,001,2019_Aug_26_1501,MusicAffectPsychophysiology2019,3.0.5,59.74683913937408,
To what extent did the music make you feel ,ASHAMED,30MonoWAV/30MonoF2.wav,1,2,2,2,,,,,0,2,2,1,0,5,5,4,,,,,,,,,1,0.8367146700038575,,,075,001,2019_Aug_26_1501,MusicAffectPsychophysiology2019,3.0.5,59.74683913937408,
To what extent did the music make you feel ,FRUSTRATED,30MonoWAV/30MonoF2.wav,1,2,2,2,,,,,0,2,2,1,0,6,6,3,,,,,,,,,2,2.134058584997547,,,075,001,2019_Aug_26_1501,MusicAffectPsychophysiology2019,3.0.5,59.74683913937408,
To what extent did the music make you feel ,GUILTY,30MonoWAV/30MonoF2.wav,1,2,2,2,,,,,0,2,2,1,0,7,7,5,,,,,,,,,1,1.0861232260067482,,,075,001,2019_Aug_26_1501,MusicAffectPsychophysiology2019,3.0.5,59.74683913937408,
To what extent did the music make you feel ,ANGRY,30MonoWAV/30MonoF2.wav,1,2,2,2,,,,,0,2,2,1,0,8,8,2,,,,,,,,,2,1.553586763999192,,,075,001,2019_Aug_26_1501,MusicAffectPsychophysiology2019,3.0.5,59.74683913937408,
To what extent did the music make you feel ,HAPPY,30MonoWAV/30MonoF2.wav,1,2,2,2,,,,,0,2,2,1,0,9,9,6,,,,,,,,,1,1.8037413400015794,,,075,001,2019_Aug_26_1501,MusicAffectPsychophysiology2019,3.0.5,59.74683913937408,
To what extent did the music make you feel ,EXCITED,30MonoWAV/30MonoF2.wav,1,2,2,2,,,,,0,2,2,1,0,10,10,7,,,,,,,,,1,1.1876096579944715,,,075,001,2019_Aug_26_1501,MusicAffectPsychophysiology2019,3.0.5,59.74683913937408,
To what extent did the music make you feel ,ALERT,30MonoWAV/30MonoF2.wav,1,2,2,2,,,,,0,2,2,1,0,11,11,8,,,,,,,,,3,1.9026381419971585,,,075,001,2019_Aug_26_1501,MusicAffectPsychophysiology2019,3.0.5,59.74683913937408,
,,30MonoWAV/30MonoF2.wav,1,2,2,2,,,,,0,2,2,1,,,,,,,,,,,,,,,,,075,001,2019_Aug_26_1501,MusicAffectPsychophysiology2019,3.0.5,59.74683913937408,
To what extent did the music make you feel ,SAD,30MonoWAV/30MonoS3.wav,1,1,3,11,,,,,0,3,3,10,0,0,0,0,,,1,6.719403983996017,2,2.0018045980104944,2,2.3377033400029177,3,2.5833453069935786,,,075,001,2019_Aug_26_1501,MusicAffectPsychophysiology2019,3.0.5,59.74683913937408,
To what extent did the music make you feel ,EXCITED,30MonoWAV/30MonoS3.wav,1,1,3,11,,,,,0,3,3,10,0,1,1,7,,,,,,,,,1,1.870955826001591,,,075,001,2019_Aug_26_1501,MusicAffectPsychophysiology2019,3.0.5,59.74683913937408,
To what extent did the music make you feel ,TENDER,30MonoWAV/30MonoS3.wav,1,1,3,11,,,,,0,3,3,10,0,2,2,10,,,,,,,,,2,1.6122653519996675,,,075,001,2019_Aug_26_1501,MusicAffectPsychophysiology2019,3.0.5,59.74683913937408,
To what extent did the music make you feel ,ASHAMED,30MonoWAV/30MonoS3.wav,1,1,3,11,,,,,0,3,3,10,0,3,3,4,,,,,,,,,1,0.9702619070012588,,,075,001,2019_Aug_26_1501,MusicAffectPsychophysiology2019,3.0.5,59.74683913937408,
To what extent did the music make you feel ,ANXIOUS ,30MonoWAV/30MonoS3.wav,1,1,3,11,,,,,0,3,3,10,0,4,4,1,,,,,,,,,1,0.8204273750016,,,075,001,2019_Aug_26_1501,MusicAffectPsychophysiology2019,3.0.5,59.74683913937408,
To what extent did the music make you feel ,ALERT,30MonoWAV/30MonoS3.wav,1,1,3,11,,,,,0,3,3,10,0,5,5,8,,,,,,,,,1,0.8109950090001803,,,075,001,2019_Aug_26_1501,MusicAffectPsychophysiology2019,3.0.5,59.74683913937408,
To what extent did the music make you feel ,SCARED,30MonoWAV/30MonoS3.wav,1,1,3,11,,,,,0,3,3,10,0,6,6,11,,,,,,,,,1,1.224676740996074,,,075,001,2019_Aug_26_1501,MusicAffectPsychophysiology2019,3.0.5,59.74683913937408,
To what extent did the music make you feel ,GUILTY,30MonoWAV/30MonoS3.wav,1,1,3,11,,,,,0,3,3,10,0,7,7,5,,,,,,,,,1,1.5671656760096084,,,075,001,2019_Aug_26_1501,MusicAffectPsychophysiology2019,3.0.5,59.74683913937408,
To what extent did the music make you feel ,HAPPY,30MonoWAV/30MonoS3.wav,1,1,3,11,,,,,0,3,3,10,0,8,8,6,,,,,,,,,1,0.7692991060030181,,,075,001,2019_Aug_26_1501,MusicAffectPsychophysiology2019,3.0.5,59.74683913937408,
To what extent did the music make you feel ,ANGRY,30MonoWAV/30MonoS3.wav,1,1,3,11,,,,,0,3,3,10,0,9,9,2,,,,,,,,,1,3.9024809019902023,,,075,001,2019_Aug_26_1501,MusicAffectPsychophysiology2019,3.0.5,59.74683913937408,
To what extent did the music make you feel ,ACTIVE,30MonoWAV/30MonoS3.wav,1,1,3,11,,,,,0,3,3,10,0,10,10,9,,,,,,,,,1,1.2698748449911363,,,075,001,2019_Aug_26_1501,MusicAffectPsychophysiology2019,3.0.5,59.74683913937408,
To what extent did the music make you feel ,FRUSTRATED,30MonoWAV/30MonoS3.wav,1,1,3,11,,,,,0,3,3,10,0,11,11,3,,,,,,,,,1,1.0071895019937074,,,075,001,2019_Aug_26_1501,MusicAffectPsychophysiology2019,3.0.5,59.74683913937408,
,,30MonoWAV/30MonoS3.wav,1,1,3,11,,,,,0,3,3,10,,,,,,,,,,,,,,,,,075,001,2019_Aug_26_1501,MusicAffectPsychophysiology2019,3.0.5,59.74683913937408,
To what extent did the music make you feel ,GUILTY,30MonoWAV/30MonoT1.wav,2,1,4,13,,,,,0,4,4,12,0,0,0,5,,,2,3.5691909230081365,4,3.3185967820027145,3,2.735985134000657,1,3.086498455988476,,,075,001,2019_Aug_26_1501,MusicAffectPsychophysiology2019,3.0.5,59.74683913937408,
To what extent did the music make you feel ,ALERT,30MonoWAV/30MonoT1.wav,2,1,4,13,,,,,0,4,4,12,0,1,1,8,,,,,,,,,1,0.9543520540028112,,,075,001,2019_Aug_26_1501,MusicAffectPsychophysiology2019,3.0.5,59.74683913937408,
To what extent did the music make you feel ,SAD,30MonoWAV/30MonoT1.wav,2,1,4,13,,,,,0,4,4,12,0,2,2,0,,,,,,,,,1,3.43571216899727,,,075,001,2019_Aug_26_1501,MusicAffectPsychophysiology2019,3.0.5,59.74683913937408,
To what extent did the music make you feel ,ANXIOUS ,30MonoWAV/30MonoT1.wav,2,1,4,13,,,,,0,4,4,12,0,3,3,1,,,,,,,,,1,0.9527371230069548,,,075,001,2019_Aug_26_1501,MusicAffectPsychophysiology2019,3.0.5,59.74683913937408,
To what extent did the music make you feel ,EXCITED,30MonoWAV/30MonoT1.wav,2,1,4,13,,,,,0,4,4,12,0,4,4,7,,,,,,,,,2,2.6683143439877313,,,075,001,2019_Aug_26_1501,MusicAffectPsychophysiology2019,3.0.5,59.74683913937408,
To what extent did the music make you feel ,HAPPY,30MonoWAV/30MonoT1.wav,2,1,4,13,,,,,0,4,4,12,0,5,5,6,,,,,,,,,3,1.300618042005226,,,075,001,2019_Aug_26_1501,MusicAffectPsychophysiology2019,3.0.5,59.74683913937408,
To what extent did the music make you feel ,SCARED,30MonoWAV/30MonoT1.wav,2,1,4,13,,,,,0,4,4,12,0,6,6,11,,,,,,,,,1,1.2369400979951024,,,075,001,2019_Aug_26_1501,MusicAffectPsychophysiology2019,3.0.5,59.74683913937408,
To what extent did the music make you feel ,FRUSTRATED,30MonoWAV/30MonoT1.wav,2,1,4,13,,,,,0,4,4,12,0,7,7,3,,,,,,,,,1,0.8532694070017897,,,075,001,2019_Aug_26_1501,MusicAffectPsychophysiology2019,3.0.5,59.74683913937408,
To what extent did the music make you feel ,ASHAMED,30MonoWAV/30MonoT1.wav,2,1,4,13,,,,,0,4,4,12,0,8,8,4,,,,,,,,,1,0.6699333839933388,,,075,001,2019_Aug_26_1501,MusicAffectPsychophysiology2019,3.0.5,59.74683913937408,
To what extent did the music make you feel ,TENDER,30MonoWAV/30MonoT1.wav,2,1,4,13,,,,,0,4,4,12,0,9,9,10,,,,,,,,,3,1.6698571470042225,,,075,001,2019_Aug_26_1501,MusicAffectPsychophysiology2019,3.0.5,59.74683913937408,
To what extent did the music make you feel ,ACTIVE,30MonoWAV/30MonoT1.wav,2,1,4,13,,,,,0,4,4,12,0,10,10,9,,,,,,,,,2,1.3366357060003793,,,075,001,2019_Aug_26_1501,MusicAffectPsychophysiology2019,3.0.5,59.74683913937408,
To what extent did the music make you feel ,ANGRY,30MonoWAV/30MonoT1.wav,2,1,4,13,,,,,0,4,4,12,0,11,11,2,,,,,,,,,1,1.4857395349972649,,,075,001,2019_Aug_26_1501,MusicAffectPsychophysiology2019,3.0.5,59.74683913937408,
,,30MonoWAV/30MonoT1.wav,2,1,4,13,,,,,0,4,4,12,,,,,,,,,,,,,,,,,075,001,2019_Aug_26_1501,MusicAffectPsychophysiology2019,3.0.5,59.74683913937408,
To what extent did the music make you feel ,TENDER,30MonoWAV/30MonoS1.wav,1,1,3,9,,,,,0,5,5,8,0,0,0,10,,,1,10.14884589400026,2,1.9687892549991375,2,1.4375095440045698,2,2.069109894000576,,,075,001,2019_Aug_26_1501,MusicAffectPsychophysiology2019,3.0.5,59.74683913937408,
To what extent did the music make you feel ,GUILTY,30MonoWAV/30MonoS1.wav,1,1,3,9,,,,,0,5,5,8,0,1,1,5,,,,,,,,,2,5.285363481001696,,,075,001,2019_Aug_26_1501,MusicAffectPsychophysiology2019,3.0.5,59.74683913937408,
To what extent did the music make you feel ,ANXIOUS ,30MonoWAV/30MonoS1.wav,1,1,3,9,,,,,0,5,5,8,0,2,2,1,,,,,,,,,2,1.2865495440055383,,,075,001,2019_Aug_26_1501,MusicAffectPsychophysiology2019,3.0.5,59.74683913937408,
To what extent did the music make you feel ,ASHAMED,30MonoWAV/30MonoS1.wav,1,1,3,9,,,,,0,5,5,8,0,3,3,4,,,,,,,,,1,2.1699735519941896,,,075,001,2019_Aug_26_1501,MusicAffectPsychophysiology2019,3.0.5,59.74683913937408,
To what extent did the music make you feel ,FRUSTRATED,30MonoWAV/30MonoS1.wav,1,1,3,9,,,,,0,5,5,8,0,4,4,3,,,,,,,,,1,0.9958013230061624,,,075,001,2019_Aug_26_1501,MusicAffectPsychophysiology2019,3.0.5,59.74683913937408,
To what extent did the music make you feel ,ALERT,30MonoWAV/30MonoS1.wav,1,1,3,9,,,,,0,5,5,8,0,5,5,8,,,,,,,,,1,1.4190460889949463,,,075,001,2019_Aug_26_1501,MusicAffectPsychophysiology2019,3.0.5,59.74683913937408,
To what extent did the music make you feel ,EXCITED,30MonoWAV/30MonoS1.wav,1,1,3,9,,,,,0,5,5,8,0,6,6,7,,,,,,,,,1,0.9695559899992077,,,075,001,2019_Aug_26_1501,MusicAffectPsychophysiology2019,3.0.5,59.74683913937408,
To what extent did the music make you feel ,SAD,30MonoWAV/30MonoS1.wav,1,1,3,9,,,,,0,5,5,8,0,7,7,0,,,,,,,,,2,1.33658911800012,,,075,001,2019_Aug_26_1501,MusicAffectPsychophysiology2019,3.0.5,59.74683913937408,
To what extent did the music make you feel ,ANGRY,30MonoWAV/30MonoS1.wav,1,1,3,9,,,,,0,5,5,8,0,8,8,2,,,,,,,,,2,2.500680647994159,,,075,001,2019_Aug_26_1501,MusicAffectPsychophysiology2019,3.0.5,59.74683913937408,
To what extent did the music make you feel ,ACTIVE,30MonoWAV/30MonoS1.wav,1,1,3,9,,,,,0,5,5,8,0,9,9,9,,,,,,,,,1,2.4697245019924594,,,075,001,2019_Aug_26_1501,MusicAffectPsychophysiology2019,3.0.5,59.74683913937408,
To what extent did the music make you feel ,HAPPY,30MonoWAV/30MonoS1.wav,1,1,3,9,,,,,0,5,5,8,0,10,10,6,,,,,,,,,1,0.8187176960054785,,,075,001,2019_Aug_26_1501,MusicAffectPsychophysiology2019,3.0.5,59.74683913937408,
To what extent did the music make you feel ,SCARED,30MonoWAV/30MonoS1.wav,1,1,3,9,,,,,0,5,5,8,0,11,11,11,,,,,,,,,1,2.9271559430053458,,,075,001,2019_Aug_26_1501,MusicAffectPsychophysiology2019,3.0.5,59.74683913937408,
,,30MonoWAV/30MonoS1.wav,1,1,3,9,,,,,0,5,5,8,,,,,,,,,,,,,,,,,075,001,2019_Aug_26_1501,MusicAffectPsychophysiology2019,3.0.5,59.74683913937408,
To what extent did the music make you feel ,ALERT,30MonoWAV/30MonoF3.wav,1,2,2,3,,,,,0,6,6,2,0,0,0,8,,,2,5.470025937000173,1,3.0039035990048433,2,2.653201937995618,4,3.8720133009919664,,,075,001,2019_Aug_26_1501,MusicAffectPsychophysiology2019,3.0.5,59.74683913937408,
To what extent did the music make you feel ,SAD,30MonoWAV/30MonoF3.wav,1,2,2,3,,,,,0,6,6,2,0,1,1,0,,,,,,,,,1,1.719988099008333,,,075,001,2019_Aug_26_1501,MusicAffectPsychophysiology2019,3.0.5,59.74683913937408,
To what extent did the music make you feel ,TENDER,30MonoWAV/30MonoF3.wav,1,2,2,3,,,,,0,6,6,2,0,2,2,10,,,,,,,,,1,1.0186051820055582,,,075,001,2019_Aug_26_1501,MusicAffectPsychophysiology2019,3.0.5,59.74683913937408,
To what extent did the music make you feel ,ANGRY,30MonoWAV/30MonoF3.wav,1,2,2,3,,,,,0,6,6,2,0,3,3,2,,,,,,,,,3,1.5198566780018155,,,075,001,2019_Aug_26_1501,MusicAffectPsychophysiology2019,3.0.5,59.74683913937408,
To what extent did the music make you feel ,HAPPY,30MonoWAV/30MonoF3.wav,1,2,2,3,,,,,0,6,6,2,0,4,4,6,,,,,,,,,1,1.0675143010012107,,,075,001,2019_Aug_26_1501,MusicAffectPsychophysiology2019,3.0.5,59.74683913937408,
To what extent did the music make you feel ,SCARED,30MonoWAV/30MonoF3.wav,1,2,2,3,,,,,0,6,6,2,0,5,5,11,,,,,,,,,3,1.3543373740103561,,,075,001,2019_Aug_26_1501,MusicAffectPsychophysiology2019,3.0.5,59.74683913937408,
To what extent did the music make you feel ,EXCITED,30MonoWAV/30MonoF3.wav,1,2,2,3,,,,,0,6,6,2,0,6,6,7,,,,,,,,,1,1.3203336959995795,,,075,001,2019_Aug_26_1501,MusicAffectPsychophysiology2019,3.0.5,59.74683913937408,
To what extent did the music make you feel ,FRUSTRATED,30MonoWAV/30MonoF3.wav,1,2,2,3,,,,,0,6,6,2,0,7,7,3,,,,,,,,,3,1.3870909129909705,,,075,001,2019_Aug_26_1501,MusicAffectPsychophysiology2019,3.0.5,59.74683913937408,
To what extent did the music make you feel ,ANXIOUS ,30MonoWAV/30MonoF3.wav,1,2,2,3,,,,,0,6,6,2,0,8,8,1,,,,,,,,,3,3.453893309997511,,,075,001,2019_Aug_26_1501,MusicAffectPsychophysiology2019,3.0.5,59.74683913937408,
To what extent did the music make you feel ,ASHAMED,30MonoWAV/30MonoF3.wav,1,2,2,3,,,,,0,6,6,2,0,9,9,4,,,,,,,,,1,2.0041932610038202,,,075,001,2019_Aug_26_1501,MusicAffectPsychophysiology2019,3.0.5,59.74683913937408,
To what extent did the music make you feel ,ACTIVE,30MonoWAV/30MonoF3.wav,1,2,2,3,,,,,0,6,6,2,0,10,10,9,,,,,,,,,2,2.670372729000519,,,075,001,2019_Aug_26_1501,MusicAffectPsychophysiology2019,3.0.5,59.74683913937408,
To what extent did the music make you feel ,GUILTY,30MonoWAV/30MonoF3.wav,1,2,2,3,,,,,0,6,6,2,0,11,11,5,,,,,,,,,2,1.7535509379958967,,,075,001,2019_Aug_26_1501,MusicAffectPsychophysiology2019,3.0.5,59.74683913937408,
,,30MonoWAV/30MonoF3.wav,1,2,2,3,,,,,0,6,6,2,,,,,,,,,,,,,,,,,075,001,2019_Aug_26_1501,MusicAffectPsychophysiology2019,3.0.5,59.74683913937408,
To what extent did the music make you feel ,ANXIOUS ,30MonoWAV/30MonoS4.wav,1,1,3,12,,,,,0,7,7,11,0,0,0,1,,,1,3.9188851790095214,2,1.903568498993991,2,2.302908218000084,2,5.033019077003701,,,075,001,2019_Aug_26_1501,MusicAffectPsychophysiology2019,3.0.5,59.74683913937408,
To what extent did the music make you feel ,TENDER,30MonoWAV/30MonoS4.wav,1,1,3,12,,,,,0,7,7,11,0,1,1,10,,,,,,,,,1,1.2689666989899706,,,075,001,2019_Aug_26_1501,MusicAffectPsychophysiology2019,3.0.5,59.74683913937408,
To what extent did the music make you feel ,SAD,30MonoWAV/30MonoS4.wav,1,1,3,12,,,,,0,7,7,11,0,2,2,0,,,,,,,,,3,1.6033942909998586,,,075,001,2019_Aug_26_1501,MusicAffectPsychophysiology2019,3.0.5,59.74683913937408,
To what extent did the music make you feel ,SCARED,30MonoWAV/30MonoS4.wav,1,1,3,12,,,,,0,7,7,11,0,3,3,11,,,,,,,,,1,1.6136259420018177,,,075,001,2019_Aug_26_1501,MusicAffectPsychophysiology2019,3.0.5,59.74683913937408,
To what extent did the music make you feel ,HAPPY,30MonoWAV/30MonoS4.wav,1,1,3,12,,,,,0,7,7,11,0,4,4,6,,,,,,,,,1,1.7533110600052169,,,075,001,2019_Aug_26_1501,MusicAffectPsychophysiology2019,3.0.5,59.74683913937408,
To what extent did the music make you feel ,ALERT,30MonoWAV/30MonoS4.wav,1,1,3,12,,,,,0,7,7,11,0,5,5,8,,,,,,,,,2,1.437361766002141,,,075,001,2019_Aug_26_1501,MusicAffectPsychophysiology2019,3.0.5,59.74683913937408,
To what extent did the music make you feel ,ANGRY,30MonoWAV/30MonoS4.wav,1,1,3,12,,,,,0,7,7,11,0,6,6,2,,,,,,,,,1,2.712121935997857,,,075,001,2019_Aug_26_1501,MusicAffectPsychophysiology2019,3.0.5,59.74683913937408,
To what extent did the music make you feel ,ASHAMED,30MonoWAV/30MonoS4.wav,1,1,3,12,,,,,0,7,7,11,0,7,7,4,,,,,,,,,1,1.7367493509955239,,,075,001,2019_Aug_26_1501,MusicAffectPsychophysiology2019,3.0.5,59.74683913937408,
To what extent did the music make you feel ,FRUSTRATED,30MonoWAV/30MonoS4.wav,1,1,3,12,,,,,0,7,7,11,0,8,8,3,,,,,,,,,1,1.7462287020025542,,,075,001,2019_Aug_26_1501,MusicAffectPsychophysiology2019,3.0.5,59.74683913937408,
To what extent did the music make you feel ,ACTIVE,30MonoWAV/30MonoS4.wav,1,1,3,12,,,,,0,7,7,11,0,9,9,9,,,,,,,,,1,1.0031551949941786,,,075,001,2019_Aug_26_1501,MusicAffectPsychophysiology2019,3.0.5,59.74683913937408,
To what extent did the music make you feel ,EXCITED,30MonoWAV/30MonoS4.wav,1,1,3,12,,,,,0,7,7,11,0,10,10,7,,,,,,,,,1,1.6947326730005443,,,075,001,2019_Aug_26_1501,MusicAffectPsychophysiology2019,3.0.5,59.74683913937408,
To what extent did the music make you feel ,GUILTY,30MonoWAV/30MonoS4.wav,1,1,3,12,,,,,0,7,7,11,0,11,11,5,,,,,,,,,1,1.4531514150003204,,,075,001,2019_Aug_26_1501,MusicAffectPsychophysiology2019,3.0.5,59.74683913937408,
,,30MonoWAV/30MonoS4.wav,1,1,3,12,,,,,0,7,7,11,,,,,,,,,,,,,,,,,075,001,2019_Aug_26_1501,MusicAffectPsychophysiology2019,3.0.5,59.74683913937408,
To what extent did the music make you feel ,SAD,30MonoWAV/30MonoF4.wav,1,2,2,4,,,,,0,8,8,3,0,0,0,0,,,2,4.152535714005353,1,3.436408149995259,2,2.020706216993858,1,2.488490540010389,,,075,001,2019_Aug_26_1501,MusicAffectPsychophysiology2019,3.0.5,59.74683913937408,
To what extent did the music make you feel ,ALERT,30MonoWAV/30MonoF4.wav,1,2,2,4,,,,,0,8,8,3,0,1,1,8,,,,,,,,,3,1.7834152319992427,,,075,001,2019_Aug_26_1501,MusicAffectPsychophysiology2019,3.0.5,59.74683913937408,
To what extent did the music make you feel ,ASHAMED,30MonoWAV/30MonoF4.wav,1,2,2,4,,,,,0,8,8,3,0,2,2,4,,,,,,,,,1,1.1671919389918912,,,075,001,2019_Aug_26_1501,MusicAffectPsychophysiology2019,3.0.5,59.74683913937408,
To what extent did the music make you feel ,EXCITED,30MonoWAV/30MonoF4.wav,1,2,2,4,,,,,0,8,8,3,0,3,3,7,,,,,,,,,1,0.8014640579931438,,,075,001,2019_Aug_26_1501,MusicAffectPsychophysiology2019,3.0.5,59.74683913937408,
To what extent did the music make you feel ,GUILTY,30MonoWAV/30MonoF4.wav,1,2,2,4,,,,,0,8,8,3,0,4,4,5,,,,,,,,,1,1.5528530699957628,,,075,001,2019_Aug_26_1501,MusicAffectPsychophysiology2019,3.0.5,59.74683913937408,
To what extent did the music make you feel ,HAPPY,30MonoWAV/30MonoF4.wav,1,2,2,4,,,,,0,8,8,3,0,5,5,6,,,,,,,,,1,0.8024839970021276,,,075,001,2019_Aug_26_1501,MusicAffectPsychophysiology2019,3.0.5,59.74683913937408,
To what extent did the music make you feel ,ANXIOUS ,30MonoWAV/30MonoF4.wav,1,2,2,4,,,,,0,8,8,3,0,6,6,1,,,,,,,,,3,1.2164173089986434,,,075,001,2019_Aug_26_1501,MusicAffectPsychophysiology2019,3.0.5,59.74683913937408,
To what extent did the music make you feel ,ACTIVE,30MonoWAV/30MonoF4.wav,1,2,2,4,,,,,0,8,8,3,0,7,7,9,,,,,,,,,1,1.2189240980078466,,,075,001,2019_Aug_26_1501,MusicAffectPsychophysiology2019,3.0.5,59.74683913937408,
To what extent did the music make you feel ,FRUSTRATED,30MonoWAV/30MonoF4.wav,1,2,2,4,,,,,0,8,8,3,0,8,8,3,,,,,,,,,1,1.2376648229983402,,,075,001,2019_Aug_26_1501,MusicAffectPsychophysiology2019,3.0.5,59.74683913937408,
To what extent did the music make you feel ,TENDER,30MonoWAV/30MonoF4.wav,1,2,2,4,,,,,0,8,8,3,0,9,9,10,,,,,,,,,1,1.386580769001739,,,075,001,2019_Aug_26_1501,MusicAffectPsychophysiology2019,3.0.5,59.74683913937408,
To what extent did the music make you feel ,SCARED,30MonoWAV/30MonoF4.wav,1,2,2,4,,,,,0,8,8,3,0,10,10,11,,,,,,,,,2,3.6359417510102503,,,075,001,2019_Aug_26_1501,MusicAffectPsychophysiology2019,3.0.5,59.74683913937408,
To what extent did the music make you feel ,ANGRY,30MonoWAV/30MonoF4.wav,1,2,2,4,,,,,0,8,8,3,0,11,11,2,,,,,,,,,2,1.868826017001993,,,075,001,2019_Aug_26_1501,MusicAffectPsychophysiology2019,3.0.5,59.74683913937408,
,,30MonoWAV/30MonoF4.wav,1,2,2,4,,,,,0,8,8,3,,,,,,,,,,,,,,,,,075,001,2019_Aug_26_1501,MusicAffectPsychophysiology2019,3.0.5,59.74683913937408,
To what extent did the music make you feel ,TENDER,30MonoWAV/30MonoT2.wav,2,1,4,14,,,,,0,9,9,13,0,0,0,10,,,2,4.552914258994861,3,1.4206345130078262,3,1.6520574030000716,3,5.269654561998323,,,075,001,2019_Aug_26_1501,MusicAffectPsychophysiology2019,3.0.5,59.74683913937408,
To what extent did the music make you feel ,ANXIOUS ,30MonoWAV/30MonoT2.wav,2,1,4,14,,,,,0,9,9,13,0,1,1,1,,,,,,,,,1,1.3483560960012255,,,075,001,2019_Aug_26_1501,MusicAffectPsychophysiology2019,3.0.5,59.74683913937408,
To what extent did the music make you feel ,EXCITED,30MonoWAV/30MonoT2.wav,2,1,4,14,,,,,0,9,9,13,0,2,2,7,,,,,,,,,1,1.481408082996495,,,075,001,2019_Aug_26_1501,MusicAffectPsychophysiology2019,3.0.5,59.74683913937408,
To what extent did the music make you feel ,ANGRY,30MonoWAV/30MonoT2.wav,2,1,4,14,,,,,0,9,9,13,0,3,3,2,,,,,,,,,1,1.7695929369947407,,,075,001,2019_Aug_26_1501,MusicAffectPsychophysiology2019,3.0.5,59.74683913937408,
To what extent did the music make you feel ,ASHAMED,30MonoWAV/30MonoT2.wav,2,1,4,14,,,,,0,9,9,13,0,4,4,4,,,,,,,,,1,0.9368294059968321,,,075,001,2019_Aug_26_1501,MusicAffectPsychophysiology2019,3.0.5,59.74683913937408,
To what extent did the music make you feel ,HAPPY,30MonoWAV/30MonoT2.wav,2,1,4,14,,,,,0,9,9,13,0,5,5,6,,,,,,,,,3,1.9209887929901015,,,075,001,2019_Aug_26_1501,MusicAffectPsychophysiology2019,3.0.5,59.74683913937408,
To what extent did the music make you feel ,FRUSTRATED,30MonoWAV/30MonoT2.wav,2,1,4,14,,,,,0,9,9,13,0,6,6,3,,,,,,,,,1,0.73420530599833,,,075,001,2019_Aug_26_1501,MusicAffectPsychophysiology2019,3.0.5,59.74683913937408,
To what extent did the music make you feel ,ALERT,30MonoWAV/30MonoT2.wav,2,1,4,14,,,,,0,9,9,13,0,7,7,8,,,,,,,,,1,0.8194670329976361,,,075,001,2019_Aug_26_1501,MusicAffectPsychophysiology2019,3.0.5,59.74683913937408,
To what extent did the music make you feel ,GUILTY,30MonoWAV/30MonoT2.wav,2,1,4,14,,,,,0,9,9,13,0,8,8,5,,,,,,,,,1,0.7865875589923235,,,075,001,2019_Aug_26_1501,MusicAffectPsychophysiology2019,3.0.5,59.74683913937408,
To what extent did the music make you feel ,SCARED,30MonoWAV/30MonoT2.wav,2,1,4,14,,,,,0,9,9,13,0,9,9,11,,,,,,,,,1,1.0311577270040289,,,075,001,2019_Aug_26_1501,MusicAffectPsychophysiology2019,3.0.5,59.74683913937408,
To what extent did the music make you feel ,ACTIVE,30MonoWAV/30MonoT2.wav,2,1,4,14,,,,,0,9,9,13,0,10,10,9,,,,,,,,,2,2.910522090998711,,,075,001,2019_Aug_26_1501,MusicAffectPsychophysiology2019,3.0.5,59.74683913937408,
To what extent did the music make you feel ,SAD,30MonoWAV/30MonoT2.wav,2,1,4,14,,,,,0,9,9,13,0,11,11,0,,,,,,,,,2,1.4194344110001111,,,075,001,2019_Aug_26_1501,MusicAffectPsychophysiology2019,3.0.5,59.74683913937408,
,,30MonoWAV/30MonoT2.wav,2,1,4,14,,,,,0,9,9,13,,,,,,,,,,,,,,,,,075,001,2019_Aug_26_1501,MusicAffectPsychophysiology2019,3.0.5,59.74683913937408,
To what extent did the music make you feel ,ACTIVE,30MonoWAV/30MonoS2.wav,1,1,3,10,,,,,0,10,10,9,0,0,0,9,,,2,6.469482793007046,3,1.720736556002521,3,1.28681668099307,1,2.270753788005095,,,075,001,2019_Aug_26_1501,MusicAffectPsychophysiology2019,3.0.5,59.74683913937408,
To what extent did the music make you feel ,SAD,30MonoWAV/30MonoS2.wav,1,1,3,10,,,,,0,10,10,9,0,1,1,0,,,,,,,,,2,1.7703859210014343,,,075,001,2019_Aug_26_1501,MusicAffectPsychophysiology2019,3.0.5,59.74683913937408,
To what extent did the music make you feel ,TENDER,30MonoWAV/30MonoS2.wav,1,1,3,10,,,,,0,10,10,9,0,2,2,10,,,,,,,,,3,1.4713881240022602,,,075,001,2019_Aug_26_1501,MusicAffectPsychophysiology2019,3.0.5,59.74683913937408,
To what extent did the music make you feel ,ALERT,30MonoWAV/30MonoS2.wav,1,1,3,10,,,,,0,10,10,9,0,3,3,8,,,,,,,,,1,1.2038946399989072,,,075,001,2019_Aug_26_1501,MusicAffectPsychophysiology2019,3.0.5,59.74683913937408,
To what extent did the music make you feel ,FRUSTRATED,30MonoWAV/30MonoS2.wav,1,1,3,10,,,,,0,10,10,9,0,4,4,3,,,,,,,,,1,1.0231766330107348,,,075,001,2019_Aug_26_1501,MusicAffectPsychophysiology2019,3.0.5,59.74683913937408,
To what extent did the music make you feel ,HAPPY,30MonoWAV/30MonoS2.wav,1,1,3,10,,,,,0,10,10,9,0,5,5,6,,,,,,,,,3,2.969981119997101,,,075,001,2019_Aug_26_1501,MusicAffectPsychophysiology2019,3.0.5,59.74683913937408,
To what extent did the music make you feel ,ANGRY,30MonoWAV/30MonoS2.wav,1,1,3,10,,,,,0,10,10,9,0,6,6,2,,,,,,,,,1,1.6706212590070209,,,075,001,2019_Aug_26_1501,MusicAffectPsychophysiology2019,3.0.5,59.74683913937408,
To what extent did the music make you feel ,GUILTY,30MonoWAV/30MonoS2.wav,1,1,3,10,,,,,0,10,10,9,0,7,7,5,,,,,,,,,1,1.0865028769912897,,,075,001,2019_Aug_26_1501,MusicAffectPsychophysiology2019,3.0.5,59.74683913937408,
To what extent did the music make you feel ,ASHAMED,30MonoWAV/30MonoS2.wav,1,1,3,10,,,,,0,10,10,9,0,8,8,4,,,,,,,,,1,1.1507442590082064,,,075,001,2019_Aug_26_1501,MusicAffectPsychophysiology2019,3.0.5,59.74683913937408,
To what extent did the music make you feel ,EXCITED,30MonoWAV/30MonoS2.wav,1,1,3,10,,,,,0,10,10,9,0,9,9,7,,,,,,,,,1,0.8860295449994737,,,075,001,2019_Aug_26_1501,MusicAffectPsychophysiology2019,3.0.5,59.74683913937408,
To what extent did the music make you feel ,SCARED,30MonoWAV/30MonoS2.wav,1,1,3,10,,,,,0,10,10,9,0,10,10,11,,,,,,,,,1,1.8229184970114147,,,075,001,2019_Aug_26_1501,MusicAffectPsychophysiology2019,3.0.5,59.74683913937408,
To what extent did the music make you feel ,ANXIOUS ,30MonoWAV/30MonoS2.wav,1,1,3,10,,,,,0,10,10,9,0,11,11,1,,,,,,,,,1,1.1194190069945762,,,075,001,2019_Aug_26_1501,MusicAffectPsychophysiology2019,3.0.5,59.74683913937408,
,,30MonoWAV/30MonoS2.wav,1,1,3,10,,,,,0,10,10,9,,,,,,,,,,,,,,,,,075,001,2019_Aug_26_1501,MusicAffectPsychophysiology2019,3.0.5,59.74683913937408,
To what extent did the music make you feel ,ANXIOUS ,30MonoWAV/30MonoF1.wav,1,2,2,1,,,,,0,11,11,0,0,0,0,1,,,1,2.253270083994721,1,1.2198782530031167,1,1.221266801992897,4,2.2371225740062073,,,075,001,2019_Aug_26_1501,MusicAffectPsychophysiology2019,3.0.5,59.74683913937408,
To what extent did the music make you feel ,SCARED,30MonoWAV/30MonoF1.wav,1,2,2,1,,,,,0,11,11,0,0,1,1,11,,,,,,,,,3,2.36738355999114,,,075,001,2019_Aug_26_1501,MusicAffectPsychophysiology2019,3.0.5,59.74683913937408,
To what extent did the music make you feel ,ANGRY,30MonoWAV/30MonoF1.wav,1,2,2,1,,,,,0,11,11,0,0,2,2,2,,,,,,,,,4,1.0690413349948358,,,075,001,2019_Aug_26_1501,MusicAffectPsychophysiology2019,3.0.5,59.74683913937408,
To what extent did the music make you feel ,FRUSTRATED,30MonoWAV/30MonoF1.wav,1,2,2,1,,,,,0,11,11,0,0,3,3,3,,,,,,,,,4,0.9465655810054159,,,075,001,2019_Aug_26_1501,MusicAffectPsychophysiology2019,3.0.5,59.74683913937408,
To what extent did the music make you feel ,HAPPY,30MonoWAV/30MonoF1.wav,1,2,2,1,,,,,0,11,11,0,0,4,4,6,,,,,,,,,1,1.769703391008079,,,075,001,2019_Aug_26_1501,MusicAffectPsychophysiology2019,3.0.5,59.74683913937408,
To what extent did the music make you feel ,ASHAMED,30MonoWAV/30MonoF1.wav,1,2,2,1,,,,,0,11,11,0,0,5,5,4,,,,,,,,,1,1.069651840996812,,,075,001,2019_Aug_26_1501,MusicAffectPsychophysiology2019,3.0.5,59.74683913937408,
To what extent did the music make you feel ,SAD,30MonoWAV/30MonoF1.wav,1,2,2,1,,,,,0,11,11,0,0,6,6,0,,,,,,,,,1,0.603586928002187,,,075,001,2019_Aug_26_1501,MusicAffectPsychophysiology2019,3.0.5,59.74683913937408,
To what extent did the music make you feel ,EXCITED,30MonoWAV/30MonoF1.wav,1,2,2,1,,,,,0,11,11,0,0,7,7,7,,,,,,,,,1,0.9192991579911904,,,075,001,2019_Aug_26_1501,MusicAffectPsychophysiology2019,3.0.5,59.74683913937408,
To what extent did the music make you feel ,TENDER,30MonoWAV/30MonoF1.wav,1,2,2,1,,,,,0,11,11,0,0,8,8,10,,,,,,,,,1,0.8827541559876408,,,075,001,2019_Aug_26_1501,MusicAffectPsychophysiology2019,3.0.5,59.74683913937408,
To what extent did the music make you feel ,ALERT,30MonoWAV/30MonoF1.wav,1,2,2,1,,,,,0,11,11,0,0,9,9,8,,,,,,,,,3,1.403656187991146,,,075,001,2019_Aug_26_1501,MusicAffectPsychophysiology2019,3.0.5,59.74683913937408,
To what extent did the music make you feel ,ACTIVE,30MonoWAV/30MonoF1.wav,1,2,2,1,,,,,0,11,11,0,0,10,10,9,,,,,,,,,1,0.9697337729885476,,,075,001,2019_Aug_26_1501,MusicAffectPsychophysiology2019,3.0.5,59.74683913937408,
To what extent did the music make you feel ,GUILTY,30MonoWAV/30MonoF1.wav,1,2,2,1,,,,,0,11,11,0,0,11,11,5,,,,,,,,,2,1.4359646219963906,,,075,001,2019_Aug_26_1501,MusicAffectPsychophysiology2019,3.0.5,59.74683913937408,
,,30MonoWAV/30MonoF1.wav,1,2,2,1,,,,,0,11,11,0,,,,,,,,,,,,,,,,,075,001,2019_Aug_26_1501,MusicAffectPsychophysiology2019,3.0.5,59.74683913937408,
To what extent did the music make you feel ,ASHAMED,30MonoWAV/30MonoH2.wav,2,2,1,6,,,,,0,12,12,5,0,0,0,4,,,2,3.787086503987666,3,2.3364610179996816,3,1.2525835799897322,1,1.7616030890058028,,,075,001,2019_Aug_26_1501,MusicAffectPsychophysiology2019,3.0.5,59.74683913937408,
To what extent did the music make you feel ,ANXIOUS ,30MonoWAV/30MonoH2.wav,2,2,1,6,,,,,0,12,12,5,0,1,1,1,,,,,,,,,1,2.0930137160030426,,,075,001,2019_Aug_26_1501,MusicAffectPsychophysiology2019,3.0.5,59.74683913937408,
To what extent did the music make you feel ,SAD,30MonoWAV/30MonoH2.wav,2,2,1,6,,,,,0,12,12,5,0,2,2,0,,,,,,,,,1,0.8673355280043324,,,075,001,2019_Aug_26_1501,MusicAffectPsychophysiology2019,3.0.5,59.74683913937408,
To what extent did the music make you feel ,ANGRY,30MonoWAV/30MonoH2.wav,2,2,1,6,,,,,0,12,12,5,0,3,3,2,,,,,,,,,1,0.6527225589961745,,,075,001,2019_Aug_26_1501,MusicAffectPsychophysiology2019,3.0.5,59.74683913937408,
To what extent did the music make you feel ,HAPPY,30MonoWAV/30MonoH2.wav,2,2,1,6,,,,,0,12,12,5,0,4,4,6,,,,,,,,,2,0.9369274540076731,,,075,001,2019_Aug_26_1501,MusicAffectPsychophysiology2019,3.0.5,59.74683913937408,
To what extent did the music make you feel ,TENDER,30MonoWAV/30MonoH2.wav,2,2,1,6,,,,,0,12,12,5,0,5,5,10,,,,,,,,,2,1.259827376998146,,,075,001,2019_Aug_26_1501,MusicAffectPsychophysiology2019,3.0.5,59.74683913937408,
To what extent did the music make you feel ,ALERT,30MonoWAV/30MonoH2.wav,2,2,1,6,,,,,0,12,12,5,0,6,6,8,,,,,,,,,2,2.5258364269975573,,,075,001,2019_Aug_26_1501,MusicAffectPsychophysiology2019,3.0.5,59.74683913937408,
To what extent did the music make you feel ,ACTIVE,30MonoWAV/30MonoH2.wav,2,2,1,6,,,,,0,12,12,5,0,7,7,9,,,,,,,,,2,1.1499975019978592,,,075,001,2019_Aug_26_1501,MusicAffectPsychophysiology2019,3.0.5,59.74683913937408,
To what extent did the music make you feel ,GUILTY,30MonoWAV/30MonoH2.wav,2,2,1,6,,,,,0,12,12,5,0,8,8,5,,,,,,,,,1,0.9849436629883712,,,075,001,2019_Aug_26_1501,MusicAffectPsychophysiology2019,3.0.5,59.74683913937408,
To what extent did the music make you feel ,FRUSTRATED,30MonoWAV/30MonoH2.wav,2,2,1,6,,,,,0,12,12,5,0,9,9,3,,,,,,,,,1,0.9926170610124245,,,075,001,2019_Aug_26_1501,MusicAffectPsychophysiology2019,3.0.5,59.74683913937408,
To what extent did the music make you feel ,SCARED,30MonoWAV/30MonoH2.wav,2,2,1,6,,,,,0,12,12,5,0,10,10,11,,,,,,,,,1,0.77245491600479,,,075,001,2019_Aug_26_1501,MusicAffectPsychophysiology2019,3.0.5,59.74683913937408,
To what extent did the music make you feel ,EXCITED,30MonoWAV/30MonoH2.wav,2,2,1,6,,,,,0,12,12,5,0,11,11,7,,,,,,,,,3,3.787905570003204,,,075,001,2019_Aug_26_1501,MusicAffectPsychophysiology2019,3.0.5,59.74683913937408,
,,30MonoWAV/30MonoH2.wav,2,2,1,6,,,,,0,12,12,5,,,,,,,,,,,,,,,,,075,001,2019_Aug_26_1501,MusicAffectPsychophysiology2019,3.0.5,59.74683913937408,
To what extent did the music make you feel ,ANGRY,30MonoWAV/30MonoH3.wav,2,2,1,7,,,,,0,13,13,6,0,0,0,2,,,4,2.8380900629999815,4,1.6206137830013176,3,2.2356348330067704,1,2.1703870450000977,,,075,001,2019_Aug_26_1501,MusicAffectPsychophysiology2019,3.0.5,59.74683913937408,
To what extent did the music make you feel ,ALERT,30MonoWAV/30MonoH3.wav,2,2,1,7,,,,,0,13,13,6,0,1,1,8,,,,,,,,,2,1.1171101369982352,,,075,001,2019_Aug_26_1501,MusicAffectPsychophysiology2019,3.0.5,59.74683913937408,
To what extent did the music make you feel ,GUILTY,30MonoWAV/30MonoH3.wav,2,2,1,7,,,,,0,13,13,6,0,2,2,5,,,,,,,,,1,1.0689553989941487,,,075,001,2019_Aug_26_1501,MusicAffectPsychophysiology2019,3.0.5,59.74683913937408,
To what extent did the music make you feel ,ANXIOUS ,30MonoWAV/30MonoH3.wav,2,2,1,7,,,,,0,13,13,6,0,3,3,1,,,,,,,,,1,0.7372649789904244,,,075,001,2019_Aug_26_1501,MusicAffectPsychophysiology2019,3.0.5,59.74683913937408,
To what extent did the music make you feel ,ASHAMED,30MonoWAV/30MonoH3.wav,2,2,1,7,,,,,0,13,13,6,0,4,4,4,,,,,,,,,1,0.8184770509978989,,,075,001,2019_Aug_26_1501,MusicAffectPsychophysiology2019,3.0.5,59.74683913937408,
To what extent did the music make you feel ,HAPPY,30MonoWAV/30MonoH3.wav,2,2,1,7,,,,,0,13,13,6,0,5,5,6,,,,,,,,,3,1.2702000870049233,,,075,001,2019_Aug_26_1501,MusicAffectPsychophysiology2019,3.0.5,59.74683913937408,
To what extent did the music make you feel ,ACTIVE,30MonoWAV/30MonoH3.wav,2,2,1,7,,,,,0,13,13,6,0,6,6,9,,,,,,,,,2,1.236784364999039,,,075,001,2019_Aug_26_1501,MusicAffectPsychophysiology2019,3.0.5,59.74683913937408,
To what extent did the music make you feel ,SAD,30MonoWAV/30MonoH3.wav,2,2,1,7,,,,,0,13,13,6,0,7,7,0,,,,,,,,,1,1.4367851220013108,,,075,001,2019_Aug_26_1501,MusicAffectPsychophysiology2019,3.0.5,59.74683913937408,
To what extent did the music make you feel ,FRUSTRATED,30MonoWAV/30MonoH3.wav,2,2,1,7,,,,,0,13,13,6,0,8,8,3,,,,,,,,,1,0.8030976650043158,,,075,001,2019_Aug_26_1501,MusicAffectPsychophysiology2019,3.0.5,59.74683913937408,
To what extent did the music make you feel ,TENDER,30MonoWAV/30MonoH3.wav,2,2,1,7,,,,,0,13,13,6,0,9,9,10,,,,,,,,,2,1.2199956940021366,,,075,001,2019_Aug_26_1501,MusicAffectPsychophysiology2019,3.0.5,59.74683913937408,
To what extent did the music make you feel ,SCARED,30MonoWAV/30MonoH3.wav,2,2,1,7,,,,,0,13,13,6,0,10,10,11,,,,,,,,,1,0.6535725759895286,,,075,001,2019_Aug_26_1501,MusicAffectPsychophysiology2019,3.0.5,59.74683913937408,
To what extent did the music make you feel ,EXCITED,30MonoWAV/30MonoH3.wav,2,2,1,7,,,,,0,13,13,6,0,11,11,7,,,,,,,,,3,1.8525255939894123,,,075,001,2019_Aug_26_1501,MusicAffectPsychophysiology2019,3.0.5,59.74683913937408,
,,30MonoWAV/30MonoH3.wav,2,2,1,7,,,,,0,13,13,6,,,,,,,,,,,,,,,,,075,001,2019_Aug_26_1501,MusicAffectPsychophysiology2019,3.0.5,59.74683913937408,
To what extent did the music make you feel ,SCARED,30MonoWAV/30MonoT4.wav,2,1,4,16,,,,,0,14,14,15,0,0,0,11,,,3,3.1035273400048027,3,1.2700138840009458,3,1.6040965590073029,1,1.4532495609892067,,,075,001,2019_Aug_26_1501,MusicAffectPsychophysiology2019,3.0.5,59.74683913937408,
To what extent did the music make you feel ,ALERT,30MonoWAV/30MonoT4.wav,2,1,4,16,,,,,0,14,14,15,0,1,1,8,,,,,,,,,1,0.9356652779970318,,,075,001,2019_Aug_26_1501,MusicAffectPsychophysiology2019,3.0.5,59.74683913937408,
To what extent did the music make you feel ,ASHAMED,30MonoWAV/30MonoT4.wav,2,1,4,16,,,,,0,14,14,15,0,2,2,4,,,,,,,,,1,0.7513588480069302,,,075,001,2019_Aug_26_1501,MusicAffectPsychophysiology2019,3.0.5,59.74683913937408,
To what extent did the music make you feel ,GUILTY,30MonoWAV/30MonoT4.wav,2,1,4,16,,,,,0,14,14,15,0,3,3,5,,,,,,,,,1,0.6685073080006987,,,075,001,2019_Aug_26_1501,MusicAffectPsychophysiology2019,3.0.5,59.74683913937408,
To what extent did the music make you feel ,ANXIOUS ,30MonoWAV/30MonoT4.wav,2,1,4,16,,,,,0,14,14,15,0,4,4,1,,,,,,,,,1,1.2540627099951962,,,075,001,2019_Aug_26_1501,MusicAffectPsychophysiology2019,3.0.5,59.74683913937408,
To what extent did the music make you feel ,TENDER,30MonoWAV/30MonoT4.wav,2,1,4,16,,,,,0,14,14,15,0,5,5,10,,,,,,,,,3,1.5285128190007526,,,075,001,2019_Aug_26_1501,MusicAffectPsychophysiology2019,3.0.5,59.74683913937408,
To what extent did the music make you feel ,ANGRY,30MonoWAV/30MonoT4.wav,2,1,4,16,,,,,0,14,14,15,0,6,6,2,,,,,,,,,1,1.201770176005084,,,075,001,2019_Aug_26_1501,MusicAffectPsychophysiology2019,3.0.5,59.74683913937408,
To what extent did the music make you feel ,HAPPY,30MonoWAV/30MonoT4.wav,2,1,4,16,,,,,0,14,14,15,0,7,7,6,,,,,,,,,3,1.2523059160012053,,,075,001,2019_Aug_26_1501,MusicAffectPsychophysiology2019,3.0.5,59.74683913937408,
To what extent did the music make you feel ,SAD,30MonoWAV/30MonoT4.wav,2,1,4,16,,,,,0,14,14,15,0,8,8,0,,,,,,,,,1,3.0035630259953905,,,075,001,2019_Aug_26_1501,MusicAffectPsychophysiology2019,3.0.5,59.74683913937408,
To what extent did the music make you feel ,EXCITED,30MonoWAV/30MonoT4.wav,2,1,4,16,,,,,0,14,14,15,0,9,9,7,,,,,,,,,1,1.3769063249928877,,,075,001,2019_Aug_26_1501,MusicAffectPsychophysiology2019,3.0.5,59.74683913937408,
To what extent did the music make you feel ,ACTIVE,30MonoWAV/30MonoT4.wav,2,1,4,16,,,,,0,14,14,15,0,10,10,9,,,,,,,,,1,1.67039235199627,,,075,001,2019_Aug_26_1501,MusicAffectPsychophysiology2019,3.0.5,59.74683913937408,
To what extent did the music make you feel ,FRUSTRATED,30MonoWAV/30MonoT4.wav,2,1,4,16,,,,,0,14,14,15,0,11,11,3,,,,,,,,,1,0.7610344379936578,,,075,001,2019_Aug_26_1501,MusicAffectPsychophysiology2019,3.0.5,59.74683913937408,
,,30MonoWAV/30MonoT4.wav,2,1,4,16,,,,,0,14,14,15,,,,,,,,,,,,,,,,,075,001,2019_Aug_26_1501,MusicAffectPsychophysiology2019,3.0.5,59.74683913937408,
To what extent did the music make you feel ,EXCITED,30MonoWAV/30MonoT3.wav,2,1,4,15,,,,,0,15,15,14,0,0,0,7,,,2,5.220460926997475,4,1.5859361839975463,4,1.453924169007223,1,3.3395298480027122,,,075,001,2019_Aug_26_1501,MusicAffectPsychophysiology2019,3.0.5,59.74683913937408,
To what extent did the music make you feel ,SAD,30MonoWAV/30MonoT3.wav,2,1,4,15,,,,,0,15,15,14,0,1,1,0,,,,,,,,,1,1.0012862069997936,,,075,001,2019_Aug_26_1501,MusicAffectPsychophysiology2019,3.0.5,59.74683913937408,
To what extent did the music make you feel ,HAPPY,30MonoWAV/30MonoT3.wav,2,1,4,15,,,,,0,15,15,14,0,2,2,6,,,,,,,,,4,2.5867967800004408,,,075,001,2019_Aug_26_1501,MusicAffectPsychophysiology2019,3.0.5,59.74683913937408,
To what extent did the music make you feel ,ACTIVE,30MonoWAV/30MonoT3.wav,2,1,4,15,,,,,0,15,15,14,0,3,3,9,,,,,,,,,2,1.3227889870031504,,,075,001,2019_Aug_26_1501,MusicAffectPsychophysiology2019,3.0.5,59.74683913937408,
To what extent did the music make you feel ,ALERT,30MonoWAV/30MonoT3.wav,2,1,4,15,,,,,0,15,15,14,0,4,4,8,,,,,,,,,1,0.8385066360060591,,,075,001,2019_Aug_26_1501,MusicAffectPsychophysiology2019,3.0.5,59.74683913937408,
To what extent did the music make you feel ,ASHAMED,30MonoWAV/30MonoT3.wav,2,1,4,15,,,,,0,15,15,14,0,5,5,4,,,,,,,,,1,0.8334775300027104,,,075,001,2019_Aug_26_1501,MusicAffectPsychophysiology2019,3.0.5,59.74683913937408,
To what extent did the music make you feel ,TENDER,30MonoWAV/30MonoT3.wav,2,1,4,15,,,,,0,15,15,14,0,6,6,10,,,,,,,,,3,1.3703512380016036,,,075,001,2019_Aug_26_1501,MusicAffectPsychophysiology2019,3.0.5,59.74683913937408,
To what extent did the music make you feel ,ANGRY,30MonoWAV/30MonoT3.wav,2,1,4,15,,,,,0,15,15,14,0,7,7,2,,,,,,,,,1,0.9507089200051269,,,075,001,2019_Aug_26_1501,MusicAffectPsychophysiology2019,3.0.5,59.74683913937408,
To what extent did the music make you feel ,GUILTY,30MonoWAV/30MonoT3.wav,2,1,4,15,,,,,0,15,15,14,0,8,8,5,,,,,,,,,1,0.7197999000054551,,,075,001,2019_Aug_26_1501,MusicAffectPsychophysiology2019,3.0.5,59.74683913937408,
To what extent did the music make you feel ,SCARED,30MonoWAV/30MonoT3.wav,2,1,4,15,,,,,0,15,15,14,0,9,9,11,,,,,,,,,1,0.8883072400058154,,,075,001,2019_Aug_26_1501,MusicAffectPsychophysiology2019,3.0.5,59.74683913937408,
To what extent did the music make you feel ,ANXIOUS ,30MonoWAV/30MonoT3.wav,2,1,4,15,,,,,0,15,15,14,0,10,10,1,,,,,,,,,1,0.6529696520010475,,,075,001,2019_Aug_26_1501,MusicAffectPsychophysiology2019,3.0.5,59.74683913937408,
To what extent did the music make you feel ,FRUSTRATED,30MonoWAV/30MonoT3.wav,2,1,4,15,,,,,0,15,15,14,0,11,11,3,,,,,,,,,1,0.5880563319951762,,,075,001,2019_Aug_26_1501,MusicAffectPsychophysiology2019,3.0.5,59.74683913937408,
,,30MonoWAV/30MonoT3.wav,2,1,4,15,,,,,0,15,15,14,,,,,,,,,,,,,,,,,075,001,2019_Aug_26_1501,MusicAffectPsychophysiology2019,3.0.5,59.74683913937408,
To what extent did the music make you feel ,ANXIOUS ,30MonoWAV/30MonoT3.wav,2,1,4,15,,,,,1,0,16,14,0,0,0,1,,,3,3.5372469860012643,3,1.1868198759912048,3,1.252788893005345,1,1.6708601849968545,,,075,001,2019_Aug_26_1501,MusicAffectPsychophysiology2019,3.0.5,59.74683913937408,
To what extent did the music make you feel ,ANGRY,30MonoWAV/30MonoT3.wav,2,1,4,15,,,,,1,0,16,14,0,1,1,2,,,,,,,,,1,1.5867223459936213,,,075,001,2019_Aug_26_1501,MusicAffectPsychophysiology2019,3.0.5,59.74683913937408,
To what extent did the music make you feel ,EXCITED,30MonoWAV/30MonoT3.wav,2,1,4,15,,,,,1,0,16,14,0,2,2,7,,,,,,,,,1,1.2800283340038732,,,075,001,2019_Aug_26_1501,MusicAffectPsychophysiology2019,3.0.5,59.74683913937408,
To what extent did the music make you feel ,GUILTY,30MonoWAV/30MonoT3.wav,2,1,4,15,,,,,1,0,16,14,0,3,3,5,,,,,,,,,1,0.584557121997932,,,075,001,2019_Aug_26_1501,MusicAffectPsychophysiology2019,3.0.5,59.74683913937408,
To what extent did the music make you feel ,SAD,30MonoWAV/30MonoT3.wav,2,1,4,15,,,,,1,0,16,14,0,4,4,0,,,,,,,,,1,1.1377601939893793,,,075,001,2019_Aug_26_1501,MusicAffectPsychophysiology2019,3.0.5,59.74683913937408,
To what extent did the music make you feel ,ACTIVE,30MonoWAV/30MonoT3.wav,2,1,4,15,,,,,1,0,16,14,0,5,5,9,,,,,,,,,1,0.9020931140112225,,,075,001,2019_Aug_26_1501,MusicAffectPsychophysiology2019,3.0.5,59.74683913937408,
To what extent did the music make you feel ,HAPPY,30MonoWAV/30MonoT3.wav,2,1,4,15,,,,,1,0,16,14,0,6,6,6,,,,,,,,,3,1.5326747369981604,,,075,001,2019_Aug_26_1501,MusicAffectPsychophysiology2019,3.0.5,59.74683913937408,
To what extent did the music make you feel ,FRUSTRATED,30MonoWAV/30MonoT3.wav,2,1,4,15,,,,,1,0,16,14,0,7,7,3,,,,,,,,,1,0.6707999520003796,,,075,001,2019_Aug_26_1501,MusicAffectPsychophysiology2019,3.0.5,59.74683913937408,
To what extent did the music make you feel ,SCARED,30MonoWAV/30MonoT3.wav,2,1,4,15,,,,,1,0,16,14,0,8,8,11,,,,,,,,,1,1.132093389009242,,,075,001,2019_Aug_26_1501,MusicAffectPsychophysiology2019,3.0.5,59.74683913937408,
To what extent did the music make you feel ,TENDER,30MonoWAV/30MonoT3.wav,2,1,4,15,,,,,1,0,16,14,0,9,9,10,,,,,,,,,3,1.0323087980068522,,,075,001,2019_Aug_26_1501,MusicAffectPsychophysiology2019,3.0.5,59.74683913937408,
To what extent did the music make you feel ,ASHAMED,30MonoWAV/30MonoT3.wav,2,1,4,15,,,,,1,0,16,14,0,10,10,4,,,,,,,,,1,0.903280436003115,,,075,001,2019_Aug_26_1501,MusicAffectPsychophysiology2019,3.0.5,59.74683913937408,
To what extent did the music make you feel ,ALERT,30MonoWAV/30MonoT3.wav,2,1,4,15,,,,,1,0,16,14,0,11,11,8,,,,,,,,,1,1.0808668160025263,,,075,001,2019_Aug_26_1501,MusicAffectPsychophysiology2019,3.0.5,59.74683913937408,
,,30MonoWAV/30MonoT3.wav,2,1,4,15,,,,,1,0,16,14,,,,,,,,,,,,,,,,,075,001,2019_Aug_26_1501,MusicAffectPsychophysiology2019,3.0.5,59.74683913937408,
To what extent did the music make you feel ,ASHAMED,30MonoWAV/30MonoT1.wav,2,1,4,13,,,,,1,1,17,12,0,0,0,4,,,3,2.6531755150062963,4,0.9860274130041944,4,1.5528196539962664,1,1.3264151970070088,,,075,001,2019_Aug_26_1501,MusicAffectPsychophysiology2019,3.0.5,59.74683913937408,
To what extent did the music make you feel ,SCARED,30MonoWAV/30MonoT1.wav,2,1,4,13,,,,,1,1,17,12,0,1,1,11,,,,,,,,,1,0.742792491990258,,,075,001,2019_Aug_26_1501,MusicAffectPsychophysiology2019,3.0.5,59.74683913937408,
To what extent did the music make you feel ,ACTIVE,30MonoWAV/30MonoT1.wav,2,1,4,13,,,,,1,1,17,12,0,2,2,9,,,,,,,,,2,1.1424049060005927,,,075,001,2019_Aug_26_1501,MusicAffectPsychophysiology2019,3.0.5,59.74683913937408,
To what extent did the music make you feel ,EXCITED,30MonoWAV/30MonoT1.wav,2,1,4,13,,,,,1,1,17,12,0,3,3,7,,,,,,,,,1,2.3085015660035424,,,075,001,2019_Aug_26_1501,MusicAffectPsychophysiology2019,3.0.5,59.74683913937408,
To what extent did the music make you feel ,HAPPY,30MonoWAV/30MonoT1.wav,2,1,4,13,,,,,1,1,17,12,0,4,4,6,,,,,,,,,4,1.2542424369894434,,,075,001,2019_Aug_26_1501,MusicAffectPsychophysiology2019,3.0.5,59.74683913937408,
To what extent did the music make you feel ,TENDER,30MonoWAV/30MonoT1.wav,2,1,4,13,,,,,1,1,17,12,0,5,5,10,,,,,,,,,4,3.323906702004024,,,075,001,2019_Aug_26_1501,MusicAffectPsychophysiology2019,3.0.5,59.74683913937408,
To what extent did the music make you feel ,GUILTY,30MonoWAV/30MonoT1.wav,2,1,4,13,,,,,1,1,17,12,0,6,6,5,,,,,,,,,1,1.2029555990011431,,,075,001,2019_Aug_26_1501,MusicAffectPsychophysiology2019,3.0.5,59.74683913937408,
To what extent did the music make you feel ,SAD,30MonoWAV/30MonoT1.wav,2,1,4,13,,,,,1,1,17,12,0,7,7,0,,,,,,,,,1,0.7196883150027134,,,075,001,2019_Aug_26_1501,MusicAffectPsychophysiology2019,3.0.5,59.74683913937408,
To what extent did the music make you feel ,ALERT,30MonoWAV/30MonoT1.wav,2,1,4,13,,,,,1,1,17,12,0,8,8,8,,,,,,,,,1,0.8076966840017121,,,075,001,2019_Aug_26_1501,MusicAffectPsychophysiology2019,3.0.5,59.74683913937408,
To what extent did the music make you feel ,ANGRY,30MonoWAV/30MonoT1.wav,2,1,4,13,,,,,1,1,17,12,0,9,9,2,,,,,,,,,1,0.6585149500024272,,,075,001,2019_Aug_26_1501,MusicAffectPsychophysiology2019,3.0.5,59.74683913937408,
To what extent did the music make you feel ,ANXIOUS ,30MonoWAV/30MonoT1.wav,2,1,4,13,,,,,1,1,17,12,0,10,10,1,,,,,,,,,1,0.7754223499941872,,,075,001,2019_Aug_26_1501,MusicAffectPsychophysiology2019,3.0.5,59.74683913937408,
To what extent did the music make you feel ,FRUSTRATED,30MonoWAV/30MonoT1.wav,2,1,4,13,,,,,1,1,17,12,0,11,11,3,,,,,,,,,1,0.8043264200096019,,,075,001,2019_Aug_26_1501,MusicAffectPsychophysiology2019,3.0.5,59.74683913937408,
,,30MonoWAV/30MonoT1.wav,2,1,4,13,,,,,1,1,17,12,,,,,,,,,,,,,,,,,075,001,2019_Aug_26_1501,MusicAffectPsychophysiology2019,3.0.5,59.74683913937408,
To what extent did the music make you feel ,SAD,30MonoWAV/30MonoF2.wav,1,2,2,2,,,,,1,2,18,1,0,0,0,0,,,1,2.620065793991671,1,1.1033638649969362,1,1.1856750500010094,1,2.1196449370036134,,,075,001,2019_Aug_26_1501,MusicAffectPsychophysiology2019,3.0.5,59.74683913937408,
To what extent did the music make you feel ,ALERT,30MonoWAV/30MonoF2.wav,1,2,2,2,,,,,1,2,18,1,0,1,1,8,,,,,,,,,3,2.8338169119961094,,,075,001,2019_Aug_26_1501,MusicAffectPsychophysiology2019,3.0.5,59.74683913937408,
To what extent did the music make you feel ,GUILTY,30MonoWAV/30MonoF2.wav,1,2,2,2,,,,,1,2,18,1,0,2,2,5,,,,,,,,,2,2.652954637000221,,,075,001,2019_Aug_26_1501,MusicAffectPsychophysiology2019,3.0.5,59.74683913937408,
To what extent did the music make you feel ,ASHAMED,30MonoWAV/30MonoF2.wav,1,2,2,2,,,,,1,2,18,1,0,3,3,4,,,,,,,,,1,1.186088385002222,,,075,001,2019_Aug_26_1501,MusicAffectPsychophysiology2019,3.0.5,59.74683913937408,
To what extent did the music make you feel ,ANXIOUS ,30MonoWAV/30MonoF2.wav,1,2,2,2,,,,,1,2,18,1,0,4,4,1,,,,,,,,,5,2.5037898759910604,,,075,001,2019_Aug_26_1501,MusicAffectPsychophysiology2019,3.0.5,59.74683913937408,
To what extent did the music make you feel ,HAPPY,30MonoWAV/30MonoF2.wav,1,2,2,2,,,,,1,2,18,1,0,5,5,6,,,,,,,,,1,1.6196816070005298,,,075,001,2019_Aug_26_1501,MusicAffectPsychophysiology2019,3.0.5,59.74683913937408,
To what extent did the music make you feel ,ANGRY,30MonoWAV/30MonoF2.wav,1,2,2,2,,,,,1,2,18,1,0,6,6,2,,,,,,,,,4,1.1667597539926646,,,075,001,2019_Aug_26_1501,MusicAffectPsychophysiology2019,3.0.5,59.74683913937408,
To what extent did the music make you feel ,EXCITED,30MonoWAV/30MonoF2.wav,1,2,2,2,,,,,1,2,18,1,0,7,7,7,,,,,,,,,1,1.136434726009611,,,075,001,2019_Aug_26_1501,MusicAffectPsychophysiology2019,3.0.5,59.74683913937408,
To what extent did the music make you feel ,TENDER,30MonoWAV/30MonoF2.wav,1,2,2,2,,,,,1,2,18,1,0,8,8,10,,,,,,,,,1,0.9848428779951064,,,075,001,2019_Aug_26_1501,MusicAffectPsychophysiology2019,3.0.5,59.74683913937408,
To what extent did the music make you feel ,FRUSTRATED,30MonoWAV/30MonoF2.wav,1,2,2,2,,,,,1,2,18,1,0,9,9,3,,,,,,,,,4,1.1207968209928367,,,075,001,2019_Aug_26_1501,MusicAffectPsychophysiology2019,3.0.5,59.74683913937408,
To what extent did the music make you feel ,ACTIVE,30MonoWAV/30MonoF2.wav,1,2,2,2,,,,,1,2,18,1,0,10,10,9,,,,,,,,,2,1.5854570489900652,,,075,001,2019_Aug_26_1501,MusicAffectPsychophysiology2019,3.0.5,59.74683913937408,
To what extent did the music make you feel ,SCARED,30MonoWAV/30MonoF2.wav,1,2,2,2,,,,,1,2,18,1,0,11,11,11,,,,,,,,,3,2.267576069003553,,,075,001,2019_Aug_26_1501,MusicAffectPsychophysiology2019,3.0.5,59.74683913937408,
,,30MonoWAV/30MonoF2.wav,1,2,2,2,,,,,1,2,18,1,,,,,,,,,,,,,,,,,075,001,2019_Aug_26_1501,MusicAffectPsychophysiology2019,3.0.5,59.74683913937408,
To what extent did the music make you feel ,HAPPY,30MonoWAV/30MonoH3.wav,2,2,1,7,,,,,1,3,19,6,0,0,0,6,,,3,5.40396720598801,3,1.1360165250080172,3,1.053333793010097,3,2.1115713199978927,,,075,001,2019_Aug_26_1501,MusicAffectPsychophysiology2019,3.0.5,59.74683913937408,
To what extent did the music make you feel ,ALERT,30MonoWAV/30MonoH3.wav,2,2,1,7,,,,,1,3,19,6,0,1,1,8,,,,,,,,,2,2.0613669140002457,,,075,001,2019_Aug_26_1501,MusicAffectPsychophysiology2019,3.0.5,59.74683913937408,
To what extent did the music make you feel ,FRUSTRATED,30MonoWAV/30MonoH3.wav,2,2,1,7,,,,,1,3,19,6,0,2,2,3,,,,,,,,,1,0.7284716909925919,,,075,001,2019_Aug_26_1501,MusicAffectPsychophysiology2019,3.0.5,59.74683913937408,
To what extent did the music make you feel ,EXCITED,30MonoWAV/30MonoH3.wav,2,2,1,7,,,,,1,3,19,6,0,3,3,7,,,,,,,,,2,1.4773814560030587,,,075,001,2019_Aug_26_1501,MusicAffectPsychophysiology2019,3.0.5,59.74683913937408,
To what extent did the music make you feel ,ANXIOUS ,30MonoWAV/30MonoH3.wav,2,2,1,7,,,,,1,3,19,6,0,4,4,1,,,,,,,,,1,0.7278791010030545,,,075,001,2019_Aug_26_1501,MusicAffectPsychophysiology2019,3.0.5,59.74683913937408,
To what extent did the music make you feel ,GUILTY,30MonoWAV/30MonoH3.wav,2,2,1,7,,,,,1,3,19,6,0,5,5,5,,,,,,,,,1,0.6113424240029417,,,075,001,2019_Aug_26_1501,MusicAffectPsychophysiology2019,3.0.5,59.74683913937408,
To what extent did the music make you feel ,ASHAMED,30MonoWAV/30MonoH3.wav,2,2,1,7,,,,,1,3,19,6,0,6,6,4,,,,,,,,,1,0.6872308919992065,,,075,001,2019_Aug_26_1501,MusicAffectPsychophysiology2019,3.0.5,59.74683913937408,
To what extent did the music make you feel ,ANGRY,30MonoWAV/30MonoH3.wav,2,2,1,7,,,,,1,3,19,6,0,7,7,2,,,,,,,,,1,0.5603756519994931,,,075,001,2019_Aug_26_1501,MusicAffectPsychophysiology2019,3.0.5,59.74683913937408,
To what extent did the music make you feel ,SCARED,30MonoWAV/30MonoH3.wav,2,2,1,7,,,,,1,3,19,6,0,8,8,11,,,,,,,,,1,0.776383504999103,,,075,001,2019_Aug_26_1501,MusicAffectPsychophysiology2019,3.0.5,59.74683913937408,
To what extent did the music make you feel ,SAD,30MonoWAV/30MonoH3.wav,2,2,1,7,,,,,1,3,19,6,0,9,9,0,,,,,,,,,1,0.7193397539958823,,,075,001,2019_Aug_26_1501,MusicAffectPsychophysiology2019,3.0.5,59.74683913937408,
To what extent did the music make you feel ,ACTIVE,30MonoWAV/30MonoH3.wav,2,2,1,7,,,,,1,3,19,6,0,10,10,9,,,,,,,,,2,1.2243030880053993,,,075,001,2019_Aug_26_1501,MusicAffectPsychophysiology2019,3.0.5,59.74683913937408,
To what extent did the music make you feel ,TENDER,30MonoWAV/30MonoH3.wav,2,2,1,7,,,,,1,3,19,6,0,11,11,10,,,,,,,,,2,1.753581151002436,,,075,001,2019_Aug_26_1501,MusicAffectPsychophysiology2019,3.0.5,59.74683913937408,
,,30MonoWAV/30MonoH3.wav,2,2,1,7,,,,,1,3,19,6,,,,,,,,,,,,,,,,,075,001,2019_Aug_26_1501,MusicAffectPsychophysiology2019,3.0.5,59.74683913937408,
To what extent did the music make you feel ,ANXIOUS ,30MonoWAV/30MonoF1.wav,1,2,2,1,,,,,1,4,20,0,0,0,0,1,,,1,3.2543508569942787,1,0.9030229060008423,1,0.9549801540124463,4,1.6376078369939933,,,075,001,2019_Aug_26_1501,MusicAffectPsychophysiology2019,3.0.5,59.74683913937408,
To what extent did the music make you feel ,FRUSTRATED,30MonoWAV/30MonoF1.wav,1,2,2,1,,,,,1,4,20,0,0,1,1,3,,,,,,,,,4,1.0046021410089452,,,075,001,2019_Aug_26_1501,MusicAffectPsychophysiology2019,3.0.5,59.74683913937408,
To what extent did the music make you feel ,TENDER,30MonoWAV/30MonoF1.wav,1,2,2,1,,,,,1,4,20,0,0,2,2,10,,,,,,,,,1,1.8226256530033424,,,075,001,2019_Aug_26_1501,MusicAffectPsychophysiology2019,3.0.5,59.74683913937408,
To what extent did the music make you feel ,HAPPY,30MonoWAV/30MonoF1.wav,1,2,2,1,,,,,1,4,20,0,0,3,3,6,,,,,,,,,1,0.6348105530050816,,,075,001,2019_Aug_26_1501,MusicAffectPsychophysiology2019,3.0.5,59.74683913937408,
To what extent did the music make you feel ,ANGRY,30MonoWAV/30MonoF1.wav,1,2,2,1,,,,,1,4,20,0,0,4,4,2,,,,,,,,,3,1.2367451619938947,,,075,001,2019_Aug_26_1501,MusicAffectPsychophysiology2019,3.0.5,59.74683913937408,
To what extent did the music make you feel ,SCARED,30MonoWAV/30MonoF1.wav,1,2,2,1,,,,,1,4,20,0,0,5,5,11,,,,,,,,,2,1.3204744450049475,,,075,001,2019_Aug_26_1501,MusicAffectPsychophysiology2019,3.0.5,59.74683913937408,
To what extent did the music make you feel ,SAD,30MonoWAV/30MonoF1.wav,1,2,2,1,,,,,1,4,20,0,0,6,6,0,,,,,,,,,1,1.436223106997204,,,075,001,2019_Aug_26_1501,MusicAffectPsychophysiology2019,3.0.5,59.74683913937408,
To what extent did the music make you feel ,EXCITED,30MonoWAV/30MonoF1.wav,1,2,2,1,,,,,1,4,20,0,0,7,7,7,,,,,,,,,1,0.8686038479936542,,,075,001,2019_Aug_26_1501,MusicAffectPsychophysiology2019,3.0.5,59.74683913937408,
To what extent did the music make you feel ,ASHAMED,30MonoWAV/30MonoF1.wav,1,2,2,1,,,,,1,4,20,0,0,8,8,4,,,,,,,,,1,0.9548856759938644,,,075,001,2019_Aug_26_1501,MusicAffectPsychophysiology2019,3.0.5,59.74683913937408,
To what extent did the music make you feel ,GUILTY,30MonoWAV/30MonoF1.wav,1,2,2,1,,,,,1,4,20,0,0,9,9,5,,,,,,,,,1,0.5036512899969239,,,075,001,2019_Aug_26_1501,MusicAffectPsychophysiology2019,3.0.5,59.74683913937408,
To what extent did the music make you feel ,ACTIVE,30MonoWAV/30MonoF1.wav,1,2,2,1,,,,,1,4,20,0,0,10,10,9,,,,,,,,,1,0.6699847330019111,,,075,001,2019_Aug_26_1501,MusicAffectPsychophysiology2019,3.0.5,59.74683913937408,
To what extent did the music make you feel ,ALERT,30MonoWAV/30MonoF1.wav,1,2,2,1,,,,,1,4,20,0,0,11,11,8,,,,,,,,,3,1.636237044003792,,,075,001,2019_Aug_26_1501,MusicAffectPsychophysiology2019,3.0.5,59.74683913937408,
,,30MonoWAV/30MonoF1.wav,1,2,2,1,,,,,1,4,20,0,,,,,,,,,,,,,,,,,075,001,2019_Aug_26_1501,MusicAffectPsychophysiology2019,3.0.5,59.74683913937408,
To what extent did the music make you feel ,ALERT,30MonoWAV/30MonoH1.wav,2,2,1,5,,,,,1,5,21,4,0,0,0,8,,,4,2.270512998002232,4,1.0869700460025342,4,1.303391597000882,2,1.749488374000066,,,075,001,2019_Aug_26_1501,MusicAffectPsychophysiology2019,3.0.5,59.74683913937408,
To what extent did the music make you feel ,EXCITED,30MonoWAV/30MonoH1.wav,2,2,1,5,,,,,1,5,21,4,0,1,1,7,,,,,,,,,3,1.431347215999267,,,075,001,2019_Aug_26_1501,MusicAffectPsychophysiology2019,3.0.5,59.74683913937408,
To what extent did the music make you feel ,ASHAMED,30MonoWAV/30MonoH1.wav,2,2,1,5,,,,,1,5,21,4,0,2,2,4,,,,,,,,,1,0.9361140810069628,,,075,001,2019_Aug_26_1501,MusicAffectPsychophysiology2019,3.0.5,59.74683913937408,
To what extent did the music make you feel ,SAD,30MonoWAV/30MonoH1.wav,2,2,1,5,,,,,1,5,21,4,0,3,3,0,,,,,,,,,1,0.8037105300027179,,,075,001,2019_Aug_26_1501,MusicAffectPsychophysiology2019,3.0.5,59.74683913937408,
To what extent did the music make you feel ,ANGRY,30MonoWAV/30MonoH1.wav,2,2,1,5,,,,,1,5,21,4,0,4,4,2,,,,,,,,,1,0.6151222540065646,,,075,001,2019_Aug_26_1501,MusicAffectPsychophysiology2019,3.0.5,59.74683913937408,
To what extent did the music make you feel ,FRUSTRATED,30MonoWAV/30MonoH1.wav,2,2,1,5,,,,,1,5,21,4,0,5,5,3,,,,,,,,,1,0.7322831609926652,,,075,001,2019_Aug_26_1501,MusicAffectPsychophysiology2019,3.0.5,59.74683913937408,
To what extent did the music make you feel ,TENDER,30MonoWAV/30MonoH1.wav,2,2,1,5,,,,,1,5,21,4,0,6,6,10,,,,,,,,,2,2.4479963970079552,,,075,001,2019_Aug_26_1501,MusicAffectPsychophysiology2019,3.0.5,59.74683913937408,
To what extent did the music make you feel ,SCARED,30MonoWAV/30MonoH1.wav,2,2,1,5,,,,,1,5,21,4,0,7,7,11,,,,,,,,,1,1.0647528410045197,,,075,001,2019_Aug_26_1501,MusicAffectPsychophysiology2019,3.0.5,59.74683913937408,
To what extent did the music make you feel ,ACTIVE,30MonoWAV/30MonoH1.wav,2,2,1,5,,,,,1,5,21,4,0,8,8,9,,,,,,,,,3,1.5649829219910316,,,075,001,2019_Aug_26_1501,MusicAffectPsychophysiology2019,3.0.5,59.74683913937408,
To what extent did the music make you feel ,HAPPY,30MonoWAV/30MonoH1.wav,2,2,1,5,,,,,1,5,21,4,0,9,9,6,,,,,,,,,4,1.069593337000697,,,075,001,2019_Aug_26_1501,MusicAffectPsychophysiology2019,3.0.5,59.74683913937408,
To what extent did the music make you feel ,ANXIOUS ,30MonoWAV/30MonoH1.wav,2,2,1,5,,,,,1,5,21,4,0,10,10,1,,,,,,,,,1,1.5474490519991377,,,075,001,2019_Aug_26_1501,MusicAffectPsychophysiology2019,3.0.5,59.74683913937408,
To what extent did the music make you feel ,GUILTY,30MonoWAV/30MonoH1.wav,2,2,1,5,,,,,1,5,21,4,0,11,11,5,,,,,,,,,1,0.6697061129962094,,,075,001,2019_Aug_26_1501,MusicAffectPsychophysiology2019,3.0.5,59.74683913937408,
,,30MonoWAV/30MonoH1.wav,2,2,1,5,,,,,1,5,21,4,,,,,,,,,,,,,,,,,075,001,2019_Aug_26_1501,MusicAffectPsychophysiology2019,3.0.5,59.74683913937408,
To what extent did the music make you feel ,SCARED,30MonoWAV/30MonoF4.wav,1,2,2,4,,,,,1,6,22,3,0,0,0,11,,,2,3.8201440650009317,1,3.736603904995718,2,2.8038166129990714,3,2.2753396460029762,,,075,001,2019_Aug_26_1501,MusicAffectPsychophysiology2019,3.0.5,59.74683913937408,
To what extent did the music make you feel ,HAPPY,30MonoWAV/30MonoF4.wav,1,2,2,4,,,,,1,6,22,3,0,1,1,6,,,,,,,,,1,1.0696406130009564,,,075,001,2019_Aug_26_1501,MusicAffectPsychophysiology2019,3.0.5,59.74683913937408,
To what extent did the music make you feel ,GUILTY,30MonoWAV/30MonoF4.wav,1,2,2,4,,,,,1,6,22,3,0,2,2,5,,,,,,,,,2,1.27087717098766,,,075,001,2019_Aug_26_1501,MusicAffectPsychophysiology2019,3.0.5,59.74683913937408,
To what extent did the music make you feel ,ASHAMED,30MonoWAV/30MonoF4.wav,1,2,2,4,,,,,1,6,22,3,0,3,3,4,,,,,,,,,1,1.536820153996814,,,075,001,2019_Aug_26_1501,MusicAffectPsychophysiology2019,3.0.5,59.74683913937408,
To what extent did the music make you feel ,ALERT,30MonoWAV/30MonoF4.wav,1,2,2,4,,,,,1,6,22,3,0,4,4,8,,,,,,,,,3,1.2916694979940075,,,075,001,2019_Aug_26_1501,MusicAffectPsychophysiology2019,3.0.5,59.74683913937408,
To what extent did the music make you feel ,ACTIVE,30MonoWAV/30MonoF4.wav,1,2,2,4,,,,,1,6,22,3,0,5,5,9,,,,,,,,,1,1.4402895480016014,,,075,001,2019_Aug_26_1501,MusicAffectPsychophysiology2019,3.0.5,59.74683913937408,
To what extent did the music make you feel ,ANGRY,30MonoWAV/30MonoF4.wav,1,2,2,4,,,,,1,6,22,3,0,6,6,2,,,,,,,,,3,1.8005579029995715,,,075,001,2019_Aug_26_1501,MusicAffectPsychophysiology2019,3.0.5,59.74683913937408,
To what extent did the music make you feel ,SAD,30MonoWAV/30MonoF4.wav,1,2,2,4,,,,,1,6,22,3,0,7,7,0,,,,,,,,,1,1.669515750996652,,,075,001,2019_Aug_26_1501,MusicAffectPsychophysiology2019,3.0.5,59.74683913937408,
To what extent did the music make you feel ,FRUSTRATED,30MonoWAV/30MonoF4.wav,1,2,2,4,,,,,1,6,22,3,0,8,8,3,,,,,,,,,3,1.0705859409936238,,,075,001,2019_Aug_26_1501,MusicAffectPsychophysiology2019,3.0.5,59.74683913937408,
To what extent did the music make you feel ,EXCITED,30MonoWAV/30MonoF4.wav,1,2,2,4,,,,,1,6,22,3,0,9,9,7,,,,,,,,,1,1.0362919170001987,,,075,001,2019_Aug_26_1501,MusicAffectPsychophysiology2019,3.0.5,59.74683913937408,
To what extent did the music make you feel ,ANXIOUS ,30MonoWAV/30MonoF4.wav,1,2,2,4,,,,,1,6,22,3,0,10,10,1,,,,,,,,,4,1.3331162200047402,,,075,001,2019_Aug_26_1501,MusicAffectPsychophysiology2019,3.0.5,59.74683913937408,
To what extent did the music make you feel ,TENDER,30MonoWAV/30MonoF4.wav,1,2,2,4,,,,,1,6,22,3,0,11,11,10,,,,,,,,,1,1.7374894620006671,,,075,001,2019_Aug_26_1501,MusicAffectPsychophysiology2019,3.0.5,59.74683913937408,
,,30MonoWAV/30MonoF4.wav,1,2,2,4,,,,,1,6,22,3,,,,,,,,,,,,,,,,,075,001,2019_Aug_26_1501,MusicAffectPsychophysiology2019,3.0.5,59.74683913937408,
To what extent did the music make you feel ,ANXIOUS ,30MonoWAV/30MonoS2.wav,1,1,3,10,,,,,1,7,23,9,0,0,0,1,,,2,2.767284635003307,3,2.0866220320021966,3,1.102879194993875,1,1.3370448159985244,,,075,001,2019_Aug_26_1501,MusicAffectPsychophysiology2019,3.0.5,59.74683913937408,
To what extent did the music make you feel ,ALERT,30MonoWAV/30MonoS2.wav,1,1,3,10,,,,,1,7,23,9,0,1,1,8,,,,,,,,,1,1.1177054699946893,,,075,001,2019_Aug_26_1501,MusicAffectPsychophysiology2019,3.0.5,59.74683913937408,
To what extent did the music make you feel ,ACTIVE,30MonoWAV/30MonoS2.wav,1,1,3,10,,,,,1,7,23,9,0,2,2,9,,,,,,,,,1,1.0702808260102756,,,075,001,2019_Aug_26_1501,MusicAffectPsychophysiology2019,3.0.5,59.74683913937408,
To what extent did the music make you feel ,FRUSTRATED,30MonoWAV/30MonoS2.wav,1,1,3,10,,,,,1,7,23,9,0,3,3,3,,,,,,,,,1,0.6702769779949449,,,075,001,2019_Aug_26_1501,MusicAffectPsychophysiology2019,3.0.5,59.74683913937408,
To what extent did the music make you feel ,HAPPY,30MonoWAV/30MonoS2.wav,1,1,3,10,,,,,1,7,23,9,0,4,4,6,,,,,,,,,2,1.6195203680108534,,,075,001,2019_Aug_26_1501,MusicAffectPsychophysiology2019,3.0.5,59.74683913937408,
To what extent did the music make you feel ,EXCITED,30MonoWAV/30MonoS2.wav,1,1,3,10,,,,,1,7,23,9,0,5,5,7,,,,,,,,,1,2.700787715992192,,,075,001,2019_Aug_26_1501,MusicAffectPsychophysiology2019,3.0.5,59.74683913937408,
To what extent did the music make you feel ,TENDER,30MonoWAV/30MonoS2.wav,1,1,3,10,,,,,1,7,23,9,0,6,6,10,,,,,,,,,3,1.1306779860024108,,,075,001,2019_Aug_26_1501,MusicAffectPsychophysiology2019,3.0.5,59.74683913937408,
To what extent did the music make you feel ,SAD,30MonoWAV/30MonoS2.wav,1,1,3,10,,,,,1,7,23,9,0,7,7,0,,,,,,,,,2,1.4694517289899522,,,075,001,2019_Aug_26_1501,MusicAffectPsychophysiology2019,3.0.5,59.74683913937408,
To what extent did the music make you feel ,ASHAMED,30MonoWAV/30MonoS2.wav,1,1,3,10,,,,,1,7,23,9,0,8,8,4,,,,,,,,,1,2.5694968579919077,,,075,001,2019_Aug_26_1501,MusicAffectPsychophysiology2019,3.0.5,59.74683913937408,
To what extent did the music make you feel ,SCARED,30MonoWAV/30MonoS2.wav,1,1,3,10,,,,,1,7,23,9,0,9,9,11,,,,,,,,,1,3.866898451000452,,,075,001,2019_Aug_26_1501,MusicAffectPsychophysiology2019,3.0.5,59.74683913937408,
To what extent did the music make you feel ,ANGRY,30MonoWAV/30MonoS2.wav,1,1,3,10,,,,,1,7,23,9,0,10,10,2,,,,,,,,,1,0.833502926005167,,,075,001,2019_Aug_26_1501,MusicAffectPsychophysiology2019,3.0.5,59.74683913937408,
To what extent did the music make you feel ,GUILTY,30MonoWAV/30MonoS2.wav,1,1,3,10,,,,,1,7,23,9,0,11,11,5,,,,,,,,,1,0.6032911249931203,,,075,001,2019_Aug_26_1501,MusicAffectPsychophysiology2019,3.0.5,59.74683913937408,
,,30MonoWAV/30MonoS2.wav,1,1,3,10,,,,,1,7,23,9,,,,,,,,,,,,,,,,,075,001,2019_Aug_26_1501,MusicAffectPsychophysiology2019,3.0.5,59.74683913937408,
To what extent did the music make you feel ,ANGRY,30MonoWAV/30MonoF3.wav,1,2,2,3,,,,,1,8,24,2,0,0,0,2,,,1,2.0543368640064728,1,1.9367171219928423,1,0.9860960670048371,2,1.6586997419944964,,,075,001,2019_Aug_26_1501,MusicAffectPsychophysiology2019,3.0.5,59.74683913937408,
To what extent did the music make you feel ,GUILTY,30MonoWAV/30MonoF3.wav,1,2,2,3,,,,,1,8,24,2,0,1,1,5,,,,,,,,,1,2.238686932003475,,,075,001,2019_Aug_26_1501,MusicAffectPsychophysiology2019,3.0.5,59.74683913937408,
To what extent did the music make you feel ,ASHAMED,30MonoWAV/30MonoF3.wav,1,2,2,3,,,,,1,8,24,2,0,2,2,4,,,,,,,,,1,0.7271960619982565,,,075,001,2019_Aug_26_1501,MusicAffectPsychophysiology2019,3.0.5,59.74683913937408,
To what extent did the music make you feel ,ALERT,30MonoWAV/30MonoF3.wav,1,2,2,3,,,,,1,8,24,2,0,3,3,8,,,,,,,,,2,0.8691162610048195,,,075,001,2019_Aug_26_1501,MusicAffectPsychophysiology2019,3.0.5,59.74683913937408,
To what extent did the music make you feel ,TENDER,30MonoWAV/30MonoF3.wav,1,2,2,3,,,,,1,8,24,2,0,4,4,10,,,,,,,,,1,0.9936607029958395,,,075,001,2019_Aug_26_1501,MusicAffectPsychophysiology2019,3.0.5,59.74683913937408,
To what extent did the music make you feel ,EXCITED,30MonoWAV/30MonoF3.wav,1,2,2,3,,,,,1,8,24,2,0,5,5,7,,,,,,,,,1,0.6260588299919618,,,075,001,2019_Aug_26_1501,MusicAffectPsychophysiology2019,3.0.5,59.74683913937408,
To what extent did the music make you feel ,SCARED,30MonoWAV/30MonoF3.wav,1,2,2,3,,,,,1,8,24,2,0,6,6,11,,,,,,,,,3,1.1767943760060007,,,075,001,2019_Aug_26_1501,MusicAffectPsychophysiology2019,3.0.5,59.74683913937408,
To what extent did the music make you feel ,ACTIVE,30MonoWAV/30MonoF3.wav,1,2,2,3,,,,,1,8,24,2,0,7,7,9,,,,,,,,,1,1.5035616759996628,,,075,001,2019_Aug_26_1501,MusicAffectPsychophysiology2019,3.0.5,59.74683913937408,
To what extent did the music make you feel ,ANXIOUS ,30MonoWAV/30MonoF3.wav,1,2,2,3,,,,,1,8,24,2,0,8,8,1,,,,,,,,,4,1.0257594479917316,,,075,001,2019_Aug_26_1501,MusicAffectPsychophysiology2019,3.0.5,59.74683913937408,
To what extent did the music make you feel ,HAPPY,30MonoWAV/30MonoF3.wav,1,2,2,3,,,,,1,8,24,2,0,9,9,6,,,,,,,,,1,0.9034176419954747,,,075,001,2019_Aug_26_1501,MusicAffectPsychophysiology2019,3.0.5,59.74683913937408,
To what extent did the music make you feel ,SAD,30MonoWAV/30MonoF3.wav,1,2,2,3,,,,,1,8,24,2,0,10,10,0,,,,,,,,,1,0.9686707069922704,,,075,001,2019_Aug_26_1501,MusicAffectPsychophysiology2019,3.0.5,59.74683913937408,
To what extent did the music make you feel ,FRUSTRATED,30MonoWAV/30MonoF3.wav,1,2,2,3,,,,,1,8,24,2,0,11,11,3,,,,,,,,,2,1.2926673510082765,,,075,001,2019_Aug_26_1501,MusicAffectPsychophysiology2019,3.0.5,59.74683913937408,
,,30MonoWAV/30MonoF3.wav,1,2,2,3,,,,,1,8,24,2,,,,,,,,,,,,,,,,,075,001,2019_Aug_26_1501,MusicAffectPsychophysiology2019,3.0.5,59.74683913937408,
To what extent did the music make you feel ,ASHAMED,30MonoWAV/30MonoH2.wav,2,2,1,6,,,,,1,9,25,5,0,0,0,4,,,2,3.1035554700065404,3,1.3040959110076074,3,1.2539667769888183,1,1.1879460339987418,,,075,001,2019_Aug_26_1501,MusicAffectPsychophysiology2019,3.0.5,59.74683913937408,
To what extent did the music make you feel ,EXCITED,30MonoWAV/30MonoH2.wav,2,2,1,6,,,,,1,9,25,5,0,1,1,7,,,,,,,,,2,1.1550246120023075,,,075,001,2019_Aug_26_1501,MusicAffectPsychophysiology2019,3.0.5,59.74683913937408,
To what extent did the music make you feel ,TENDER,30MonoWAV/30MonoH2.wav,2,2,1,6,,,,,1,9,25,5,0,2,2,10,,,,,,,,,2,1.4684460269927513,,,075,001,2019_Aug_26_1501,MusicAffectPsychophysiology2019,3.0.5,59.74683913937408,
To what extent did the music make you feel ,SCARED,30MonoWAV/30MonoH2.wav,2,2,1,6,,,,,1,9,25,5,0,3,3,11,,,,,,,,,1,0.986549039997044,,,075,001,2019_Aug_26_1501,MusicAffectPsychophysiology2019,3.0.5,59.74683913937408,
To what extent did the music make you feel ,GUILTY,30MonoWAV/30MonoH2.wav,2,2,1,6,,,,,1,9,25,5,0,4,4,5,,,,,,,,,1,0.6700914359971648,,,075,001,2019_Aug_26_1501,MusicAffectPsychophysiology2019,3.0.5,59.74683913937408,
To what extent did the music make you feel ,ACTIVE,30MonoWAV/30MonoH2.wav,2,2,1,6,,,,,1,9,25,5,0,5,5,9,,,,,,,,,1,1.4377974170056405,,,075,001,2019_Aug_26_1501,MusicAffectPsychophysiology2019,3.0.5,59.74683913937408,
To what extent did the music make you feel ,ALERT,30MonoWAV/30MonoH2.wav,2,2,1,6,,,,,1,9,25,5,0,6,6,8,,,,,,,,,2,0.9531442489969777,,,075,001,2019_Aug_26_1501,MusicAffectPsychophysiology2019,3.0.5,59.74683913937408,
To what extent did the music make you feel ,FRUSTRATED,30MonoWAV/30MonoH2.wav,2,2,1,6,,,,,1,9,25,5,0,7,7,3,,,,,,,,,1,1.0869071839988464,,,075,001,2019_Aug_26_1501,MusicAffectPsychophysiology2019,3.0.5,59.74683913937408,
To what extent did the music make you feel ,ANGRY,30MonoWAV/30MonoH2.wav,2,2,1,6,,,,,1,9,25,5,0,8,8,2,,,,,,,,,1,1.1199634919903474,,,075,001,2019_Aug_26_1501,MusicAffectPsychophysiology2019,3.0.5,59.74683913937408,
To what extent did the music make you feel ,SAD,30MonoWAV/30MonoH2.wav,2,2,1,6,,,,,1,9,25,5,0,9,9,0,,,,,,,,,1,0.7872900940128602,,,075,001,2019_Aug_26_1501,MusicAffectPsychophysiology2019,3.0.5,59.74683913937408,
To what extent did the music make you feel ,HAPPY,30MonoWAV/30MonoH2.wav,2,2,1,6,,,,,1,9,25,5,0,10,10,6,,,,,,,,,3,1.0677216589974705,,,075,001,2019_Aug_26_1501,MusicAffectPsychophysiology2019,3.0.5,59.74683913937408,
To what extent did the music make you feel ,ANXIOUS ,30MonoWAV/30MonoH2.wav,2,2,1,6,,,,,1,9,25,5,0,11,11,1,,,,,,,,,1,1.436325967006269,,,075,001,2019_Aug_26_1501,MusicAffectPsychophysiology2019,3.0.5,59.74683913937408,
,,30MonoWAV/30MonoH2.wav,2,2,1,6,,,,,1,9,25,5,,,,,,,,,,,,,,,,,075,001,2019_Aug_26_1501,MusicAffectPsychophysiology2019,3.0.5,59.74683913937408,
To what extent did the music make you feel ,ACTIVE,30MonoWAV/30MonoS4.wav,1,1,3,12,,,,,1,10,26,11,0,0,0,9,,,1,2.7831829729984747,1,4.204871391004417,2,2.386729246994946,1,1.920713996005361,,,075,001,2019_Aug_26_1501,MusicAffectPsychophysiology2019,3.0.5,59.74683913937408,
To what extent did the music make you feel ,SCARED,30MonoWAV/30MonoS4.wav,1,1,3,12,,,,,1,10,26,11,0,1,1,11,,,,,,,,,1,0.8142922129918588,,,075,001,2019_Aug_26_1501,MusicAffectPsychophysiology2019,3.0.5,59.74683913937408,
To what extent did the music make you feel ,TENDER,30MonoWAV/30MonoS4.wav,1,1,3,12,,,,,1,10,26,11,0,2,2,10,,,,,,,,,2,1.0305759209877579,,,075,001,2019_Aug_26_1501,MusicAffectPsychophysiology2019,3.0.5,59.74683913937408,
To what extent did the music make you feel ,EXCITED,30MonoWAV/30MonoS4.wav,1,1,3,12,,,,,1,10,26,11,0,3,3,7,,,,,,,,,1,0.7137217380077345,,,075,001,2019_Aug_26_1501,MusicAffectPsychophysiology2019,3.0.5,59.74683913937408,
To what extent did the music make you feel ,ASHAMED,30MonoWAV/30MonoS4.wav,1,1,3,12,,,,,1,10,26,11,0,4,4,4,,,,,,,,,1,0.7209055919956882,,,075,001,2019_Aug_26_1501,MusicAffectPsychophysiology2019,3.0.5,59.74683913937408,
To what extent did the music make you feel ,GUILTY,30MonoWAV/30MonoS4.wav,1,1,3,12,,,,,1,10,26,11,0,5,5,5,,,,,,,,,1,0.7036829339922406,,,075,001,2019_Aug_26_1501,MusicAffectPsychophysiology2019,3.0.5,59.74683913937408,
To what extent did the music make you feel ,FRUSTRATED,30MonoWAV/30MonoS4.wav,1,1,3,12,,,,,1,10,26,11,0,6,6,3,,,,,,,,,1,0.7464378389995545,,,075,001,2019_Aug_26_1501,MusicAffectPsychophysiology2019,3.0.5,59.74683913937408,
To what extent did the music make you feel ,ANXIOUS ,30MonoWAV/30MonoS4.wav,1,1,3,12,,,,,1,10,26,11,0,7,7,1,,,,,,,,,1,1.2863627019978594,,,075,001,2019_Aug_26_1501,MusicAffectPsychophysiology2019,3.0.5,59.74683913937408,
To what extent did the music make you feel ,HAPPY,30MonoWAV/30MonoS4.wav,1,1,3,12,,,,,1,10,26,11,0,8,8,6,,,,,,,,,1,0.8708565379929496,,,075,001,2019_Aug_26_1501,MusicAffectPsychophysiology2019,3.0.5,59.74683913937408,
To what extent did the music make you feel ,SAD,30MonoWAV/30MonoS4.wav,1,1,3,12,,,,,1,10,26,11,0,9,9,0,,,,,,,,,3,1.1537286240054527,,,075,001,2019_Aug_26_1501,MusicAffectPsychophysiology2019,3.0.5,59.74683913937408,
To what extent did the music make you feel ,ALERT,30MonoWAV/30MonoS4.wav,1,1,3,12,,,,,1,10,26,11,0,10,10,8,,,,,,,,,1,1.170790138989105,,,075,001,2019_Aug_26_1501,MusicAffectPsychophysiology2019,3.0.5,59.74683913937408,
To what extent did the music make you feel ,ANGRY,30MonoWAV/30MonoS4.wav,1,1,3,12,,,,,1,10,26,11,0,11,11,2,,,,,,,,,1,0.7129944670014083,,,075,001,2019_Aug_26_1501,MusicAffectPsychophysiology2019,3.0.5,59.74683913937408,
,,30MonoWAV/30MonoS4.wav,1,1,3,12,,,,,1,10,26,11,,,,,,,,,,,,,,,,,075,001,2019_Aug_26_1501,MusicAffectPsychophysiology2019,3.0.5,59.74683913937408,
To what extent did the music make you feel ,GUILTY,30MonoWAV/30MonoS1.wav,1,1,3,9,,,,,1,11,27,8,0,0,0,5,,,2,3.1692385859932983,2,2.336476918993867,2,1.1864635520032607,1,2.7370512039924506,,,075,001,2019_Aug_26_1501,MusicAffectPsychophysiology2019,3.0.5,59.74683913937408,
To what extent did the music make you feel ,TENDER,30MonoWAV/30MonoS1.wav,1,1,3,9,,,,,1,11,27,8,0,1,1,10,,,,,,,,,2,0.9203644920053193,,,075,001,2019_Aug_26_1501,MusicAffectPsychophysiology2019,3.0.5,59.74683913937408,
To what extent did the music make you feel ,EXCITED,30MonoWAV/30MonoS1.wav,1,1,3,9,,,,,1,11,27,8,0,2,2,7,,,,,,,,,1,1.0031131909927353,,,075,001,2019_Aug_26_1501,MusicAffectPsychophysiology2019,3.0.5,59.74683913937408,
To what extent did the music make you feel ,SCARED,30MonoWAV/30MonoS1.wav,1,1,3,9,,,,,1,11,27,8,0,3,3,11,,,,,,,,,2,2.569706464011688,,,075,001,2019_Aug_26_1501,MusicAffectPsychophysiology2019,3.0.5,59.74683913937408,
To what extent did the music make you feel ,ACTIVE,30MonoWAV/30MonoS1.wav,1,1,3,9,,,,,1,11,27,8,0,4,4,9,,,,,,,,,1,1.136974724009633,,,075,001,2019_Aug_26_1501,MusicAffectPsychophysiology2019,3.0.5,59.74683913937408,
To what extent did the music make you feel ,ASHAMED,30MonoWAV/30MonoS1.wav,1,1,3,9,,,,,1,11,27,8,0,5,5,4,,,,,,,,,1,1.257315169001231,,,075,001,2019_Aug_26_1501,MusicAffectPsychophysiology2019,3.0.5,59.74683913937408,
To what extent did the music make you feel ,ANXIOUS ,30MonoWAV/30MonoS1.wav,1,1,3,9,,,,,1,11,27,8,0,6,6,1,,,,,,,,,2,1.2557589999923948,,,075,001,2019_Aug_26_1501,MusicAffectPsychophysiology2019,3.0.5,59.74683913937408,
To what extent did the music make you feel ,SAD,30MonoWAV/30MonoS1.wav,1,1,3,9,,,,,1,11,27,8,0,7,7,0,,,,,,,,,2,1.2699201620125677,,,075,001,2019_Aug_26_1501,MusicAffectPsychophysiology2019,3.0.5,59.74683913937408,
To what extent did the music make you feel ,ANGRY,30MonoWAV/30MonoS1.wav,1,1,3,9,,,,,1,11,27,8,0,8,8,2,,,,,,,,,1,2.3723273419891484,,,075,001,2019_Aug_26_1501,MusicAffectPsychophysiology2019,3.0.5,59.74683913937408,
To what extent did the music make you feel ,ALERT,30MonoWAV/30MonoS1.wav,1,1,3,9,,,,,1,11,27,8,0,9,9,8,,,,,,,,,1,1.8205716920056148,,,075,001,2019_Aug_26_1501,MusicAffectPsychophysiology2019,3.0.5,59.74683913937408,
To what extent did the music make you feel ,HAPPY,30MonoWAV/30MonoS1.wav,1,1,3,9,,,,,1,11,27,8,0,10,10,6,,,,,,,,,1,0.8708091250009602,,,075,001,2019_Aug_26_1501,MusicAffectPsychophysiology2019,3.0.5,59.74683913937408,
To what extent did the music make you feel ,FRUSTRATED,30MonoWAV/30MonoS1.wav,1,1,3,9,,,,,1,11,27,8,0,11,11,3,,,,,,,,,1,0.855594270004076,,,075,001,2019_Aug_26_1501,MusicAffectPsychophysiology2019,3.0.5,59.74683913937408,
,,30MonoWAV/30MonoS1.wav,1,1,3,9,,,,,1,11,27,8,,,,,,,,,,,,,,,,,075,001,2019_Aug_26_1501,MusicAffectPsychophysiology2019,3.0.5,59.74683913937408,
To what extent did the music make you feel ,ACTIVE,30MonoWAV/30MonoT2.wav,2,1,4,14,,,,,1,12,28,13,0,0,0,9,,,2,4.003401992988074,3,2.436232874999405,3,1.3705939069914166,1,1.5035696209961316,,,075,001,2019_Aug_26_1501,MusicAffectPsychophysiology2019,3.0.5,59.74683913937408,
To what extent did the music make you feel ,ALERT,30MonoWAV/30MonoT2.wav,2,1,4,14,,,,,1,12,28,13,0,1,1,8,,,,,,,,,1,0.9474999829981243,,,075,001,2019_Aug_26_1501,MusicAffectPsychophysiology2019,3.0.5,59.74683913937408,
To what extent did the music make you feel ,ANGRY,30MonoWAV/30MonoT2.wav,2,1,4,14,,,,,1,12,28,13,0,2,2,2,,,,,,,,,1,0.6856106530030956,,,075,001,2019_Aug_26_1501,MusicAffectPsychophysiology2019,3.0.5,59.74683913937408,
To what extent did the music make you feel ,ASHAMED,30MonoWAV/30MonoT2.wav,2,1,4,14,,,,,1,12,28,13,0,3,3,4,,,,,,,,,1,0.9033096200000728,,,075,001,2019_Aug_26_1501,MusicAffectPsychophysiology2019,3.0.5,59.74683913937408,
To what extent did the music make you feel ,SAD,30MonoWAV/30MonoT2.wav,2,1,4,14,,,,,1,12,28,13,0,4,4,0,,,,,,,,,1,1.236308581996127,,,075,001,2019_Aug_26_1501,MusicAffectPsychophysiology2019,3.0.5,59.74683913937408,
To what extent did the music make you feel ,GUILTY,30MonoWAV/30MonoT2.wav,2,1,4,14,,,,,1,12,28,13,0,5,5,5,,,,,,,,,1,0.8539984609960811,,,075,001,2019_Aug_26_1501,MusicAffectPsychophysiology2019,3.0.5,59.74683913937408,
To what extent did the music make you feel ,HAPPY,30MonoWAV/30MonoT2.wav,2,1,4,14,,,,,1,12,28,13,0,6,6,6,,,,,,,,,3,2.5199387739994563,,,075,001,2019_Aug_26_1501,MusicAffectPsychophysiology2019,3.0.5,59.74683913937408,
To what extent did the music make you feel ,EXCITED,30MonoWAV/30MonoT2.wav,2,1,4,14,,,,,1,12,28,13,0,7,7,7,,,,,,,,,2,1.553822327987291,,,075,001,2019_Aug_26_1501,MusicAffectPsychophysiology2019,3.0.5,59.74683913937408,
To what extent did the music make you feel ,TENDER,30MonoWAV/30MonoT2.wav,2,1,4,14,,,,,1,12,28,13,0,8,8,10,,,,,,,,,3,1.8697737759939628,,,075,001,2019_Aug_26_1501,MusicAffectPsychophysiology2019,3.0.5,59.74683913937408,
To what extent did the music make you feel ,SCARED,30MonoWAV/30MonoT2.wav,2,1,4,14,,,,,1,12,28,13,0,9,9,11,,,,,,,,,1,1.2165629779919982,,,075,001,2019_Aug_26_1501,MusicAffectPsychophysiology2019,3.0.5,59.74683913937408,
To what extent did the music make you feel ,FRUSTRATED,30MonoWAV/30MonoT2.wav,2,1,4,14,,,,,1,12,28,13,0,10,10,3,,,,,,,,,1,0.633107959991321,,,075,001,2019_Aug_26_1501,MusicAffectPsychophysiology2019,3.0.5,59.74683913937408,
To what extent did the music make you feel ,ANXIOUS ,30MonoWAV/30MonoT2.wav,2,1,4,14,,,,,1,12,28,13,0,11,11,1,,,,,,,,,1,1.0644354819960427,,,075,001,2019_Aug_26_1501,MusicAffectPsychophysiology2019,3.0.5,59.74683913937408,
,,30MonoWAV/30MonoT2.wav,2,1,4,14,,,,,1,12,28,13,,,,,,,,,,,,,,,,,075,001,2019_Aug_26_1501,MusicAffectPsychophysiology2019,3.0.5,59.74683913937408,
To what extent did the music make you feel ,ANXIOUS ,30MonoWAV/30MonoT4.wav,2,1,4,16,,,,,1,13,29,15,0,0,0,1,,,2,4.003553571004886,3,2.2004758219991345,3,1.2698592679953435,1,1.343453565001255,,,075,001,2019_Aug_26_1501,MusicAffectPsychophysiology2019,3.0.5,59.74683913937408,
To what extent did the music make you feel ,HAPPY,30MonoWAV/30MonoT4.wav,2,1,4,16,,,,,1,13,29,15,0,1,1,6,,,,,,,,,2,1.3198828299937304,,,075,001,2019_Aug_26_1501,MusicAffectPsychophysiology2019,3.0.5,59.74683913937408,
To what extent did the music make you feel ,ALERT,30MonoWAV/30MonoT4.wav,2,1,4,16,,,,,1,13,29,15,0,2,2,8,,,,,,,,,1,1.2422321919875685,,,075,001,2019_Aug_26_1501,MusicAffectPsychophysiology2019,3.0.5,59.74683913937408,
To what extent did the music make you feel ,SCARED,30MonoWAV/30MonoT4.wav,2,1,4,16,,,,,1,13,29,15,0,3,3,11,,,,,,,,,1,0.90353113799938,,,075,001,2019_Aug_26_1501,MusicAffectPsychophysiology2019,3.0.5,59.74683913937408,
To what extent did the music make you feel ,ASHAMED,30MonoWAV/30MonoT4.wav,2,1,4,16,,,,,1,13,29,15,0,4,4,4,,,,,,,,,1,1.7021188729995629,,,075,001,2019_Aug_26_1501,MusicAffectPsychophysiology2019,3.0.5,59.74683913937408,
To what extent did the music make you feel ,ACTIVE,30MonoWAV/30MonoT4.wav,2,1,4,16,,,,,1,13,29,15,0,5,5,9,,,,,,,,,1,1.0420805309986463,,,075,001,2019_Aug_26_1501,MusicAffectPsychophysiology2019,3.0.5,59.74683913937408,
To what extent did the music make you feel ,TENDER,30MonoWAV/30MonoT4.wav,2,1,4,16,,,,,1,13,29,15,0,6,6,10,,,,,,,,,3,1.3250881739950273,,,075,001,2019_Aug_26_1501,MusicAffectPsychophysiology2019,3.0.5,59.74683913937408,
To what extent did the music make you feel ,SAD,30MonoWAV/30MonoT4.wav,2,1,4,16,,,,,1,13,29,15,0,7,7,0,,,,,,,,,2,1.3505518949968973,,,075,001,2019_Aug_26_1501,MusicAffectPsychophysiology2019,3.0.5,59.74683913937408,
To what extent did the music make you feel ,EXCITED,30MonoWAV/30MonoT4.wav,2,1,4,16,,,,,1,13,29,15,0,8,8,7,,,,,,,,,1,1.7366843199997675,,,075,001,2019_Aug_26_1501,MusicAffectPsychophysiology2019,3.0.5,59.74683913937408,
To what extent did the music make you feel ,ANGRY,30MonoWAV/30MonoT4.wav,2,1,4,16,,,,,1,13,29,15,0,9,9,2,,,,,,,,,1,0.9262168099958217,,,075,001,2019_Aug_26_1501,MusicAffectPsychophysiology2019,3.0.5,59.74683913937408,
To what extent did the music make you feel ,GUILTY,30MonoWAV/30MonoT4.wav,2,1,4,16,,,,,1,13,29,15,0,10,10,5,,,,,,,,,1,0.6915390639915131,,,075,001,2019_Aug_26_1501,MusicAffectPsychophysiology2019,3.0.5,59.74683913937408,
To what extent did the music make you feel ,FRUSTRATED,30MonoWAV/30MonoT4.wav,2,1,4,16,,,,,1,13,29,15,0,11,11,3,,,,,,,,,1,0.7248827970033744,,,075,001,2019_Aug_26_1501,MusicAffectPsychophysiology2019,3.0.5,59.74683913937408,
,,30MonoWAV/30MonoT4.wav,2,1,4,16,,,,,1,13,29,15,,,,,,,,,,,,,,,,,075,001,2019_Aug_26_1501,MusicAffectPsychophysiology2019,3.0.5,59.74683913937408,
To what extent did the music make you feel ,EXCITED,30MonoWAV/30MonoS3.wav,1,1,3,11,,,,,1,14,30,10,0,0,0,7,,,1,3.2365578099997947,1,1.5863676810113247,1,1.8362546040007146,1,2.1678094359958777,,,075,001,2019_Aug_26_1501,MusicAffectPsychophysiology2019,3.0.5,59.74683913937408,
To what extent did the music make you feel ,ALERT,30MonoWAV/30MonoS3.wav,1,1,3,11,,,,,1,14,30,10,0,1,1,8,,,,,,,,,3,2.768897961010225,,,075,001,2019_Aug_26_1501,MusicAffectPsychophysiology2019,3.0.5,59.74683913937408,
To what extent did the music make you feel ,ANXIOUS ,30MonoWAV/30MonoS3.wav,1,1,3,11,,,,,1,14,30,10,0,2,2,1,,,,,,,,,4,1.4202205010078615,,,075,001,2019_Aug_26_1501,MusicAffectPsychophysiology2019,3.0.5,59.74683913937408,
To what extent did the music make you feel ,GUILTY,30MonoWAV/30MonoS3.wav,1,1,3,11,,,,,1,14,30,10,0,3,3,5,,,,,,,,,1,1.3194364299997687,,,075,001,2019_Aug_26_1501,MusicAffectPsychophysiology2019,3.0.5,59.74683913937408,
To what extent did the music make you feel ,HAPPY,30MonoWAV/30MonoS3.wav,1,1,3,11,,,,,1,14,30,10,0,4,4,6,,,,,,,,,1,0.9723509189934703,,,075,001,2019_Aug_26_1501,MusicAffectPsychophysiology2019,3.0.5,59.74683913937408,
To what extent did the music make you feel ,ANGRY,30MonoWAV/30MonoS3.wav,1,1,3,11,,,,,1,14,30,10,0,5,5,2,,,,,,,,,1,1.0022683650022373,,,075,001,2019_Aug_26_1501,MusicAffectPsychophysiology2019,3.0.5,59.74683913937408,
To what extent did the music make you feel ,SAD,30MonoWAV/30MonoS3.wav,1,1,3,11,,,,,1,14,30,10,0,6,6,0,,,,,,,,,2,1.0356920049962355,,,075,001,2019_Aug_26_1501,MusicAffectPsychophysiology2019,3.0.5,59.74683913937408,
To what extent did the music make you feel ,ASHAMED,30MonoWAV/30MonoS3.wav,1,1,3,11,,,,,1,14,30,10,0,7,7,4,,,,,,,,,1,1.3702907650003908,,,075,001,2019_Aug_26_1501,MusicAffectPsychophysiology2019,3.0.5,59.74683913937408,
To what extent did the music make you feel ,ACTIVE,30MonoWAV/30MonoS3.wav,1,1,3,11,,,,,1,14,30,10,0,8,8,9,,,,,,,,,1,0.7347018930013292,,,075,001,2019_Aug_26_1501,MusicAffectPsychophysiology2019,3.0.5,59.74683913937408,
To what extent did the music make you feel ,FRUSTRATED,30MonoWAV/30MonoS3.wav,1,1,3,11,,,,,1,14,30,10,0,9,9,3,,,,,,,,,1,0.969709019002039,,,075,001,2019_Aug_26_1501,MusicAffectPsychophysiology2019,3.0.5,59.74683913937408,
To what extent did the music make you feel ,SCARED,30MonoWAV/30MonoS3.wav,1,1,3,11,,,,,1,14,30,10,0,10,10,11,,,,,,,,,2,1.4509554020041833,,,075,001,2019_Aug_26_1501,MusicAffectPsychophysiology2019,3.0.5,59.74683913937408,
To what extent did the music make you feel ,TENDER,30MonoWAV/30MonoS3.wav,1,1,3,11,,,,,1,14,30,10,0,11,11,10,,,,,,,,,1,1.185584695005673,,,075,001,2019_Aug_26_1501,MusicAffectPsychophysiology2019,3.0.5,59.74683913937408,
,,30MonoWAV/30MonoS3.wav,1,1,3,11,,,,,1,14,30,10,,,,,,,,,,,,,,,,,075,001,2019_Aug_26_1501,MusicAffectPsychophysiology2019,3.0.5,59.74683913937408,
To what extent did the music make you feel ,ASHAMED,30MonoWAV/30MonoH4.wav,2,2,1,8,,,,,1,15,31,7,0,0,0,4,,,3,7.487435900999117,2,1.3873013449920109,2,1.6860658549994696,1,2.145583808000083,,,075,001,2019_Aug_26_1501,MusicAffectPsychophysiology2019,3.0.5,59.74683913937408,
To what extent did the music make you feel ,ANXIOUS ,30MonoWAV/30MonoH4.wav,2,2,1,8,,,,,1,15,31,7,0,1,1,1,,,,,,,,,1,0.9457591730024433,,,075,001,2019_Aug_26_1501,MusicAffectPsychophysiology2019,3.0.5,59.74683913937408,
To what extent did the music make you feel ,ALERT,30MonoWAV/30MonoH4.wav,2,2,1,8,,,,,1,15,31,7,0,2,2,8,,,,,,,,,1,0.5462625570071395,,,075,001,2019_Aug_26_1501,MusicAffectPsychophysiology2019,3.0.5,59.74683913937408,
To what extent did the music make you feel ,SCARED,30MonoWAV/30MonoH4.wav,2,2,1,8,,,,,1,15,31,7,0,3,3,11,,,,,,,,,1,0.611317658011103,,,075,001,2019_Aug_26_1501,MusicAffectPsychophysiology2019,3.0.5,59.74683913937408,
To what extent did the music make you feel ,ACTIVE,30MonoWAV/30MonoH4.wav,2,2,1,8,,,,,1,15,31,7,0,4,4,9,,,,,,,,,2,1.0855781560094329,,,075,001,2019_Aug_26_1501,MusicAffectPsychophysiology2019,3.0.5,59.74683913937408,
To what extent did the music make you feel ,SAD,30MonoWAV/30MonoH4.wav,2,2,1,8,,,,,1,15,31,7,0,5,5,0,,,,,,,,,1,0.6867263320018537,,,075,001,2019_Aug_26_1501,MusicAffectPsychophysiology2019,3.0.5,59.74683913937408,
To what extent did the music make you feel ,TENDER,30MonoWAV/30MonoH4.wav,2,2,1,8,,,,,1,15,31,7,0,6,6,10,,,,,,,,,1,1.2297171789978165,,,075,001,2019_Aug_26_1501,MusicAffectPsychophysiology2019,3.0.5,59.74683913937408,
To what extent did the music make you feel ,GUILTY,30MonoWAV/30MonoH4.wav,2,2,1,8,,,,,1,15,31,7,0,7,7,5,,,,,,,,,1,0.7260443760023918,,,075,001,2019_Aug_26_1501,MusicAffectPsychophysiology2019,3.0.5,59.74683913937408,
To what extent did the music make you feel ,FRUSTRATED,30MonoWAV/30MonoH4.wav,2,2,1,8,,,,,1,15,31,7,0,8,8,3,,,,,,,,,1,1.1120215310074855,,,075,001,2019_Aug_26_1501,MusicAffectPsychophysiology2019,3.0.5,59.74683913937408,
To what extent did the music make you feel ,HAPPY,30MonoWAV/30MonoH4.wav,2,2,1,8,,,,,1,15,31,7,0,9,9,6,,,,,,,,,3,1.9018853320012568,,,075,001,2019_Aug_26_1501,MusicAffectPsychophysiology2019,3.0.5,59.74683913937408,
To what extent did the music make you feel ,EXCITED,30MonoWAV/30MonoH4.wav,2,2,1,8,,,,,1,15,31,7,0,10,10,7,,,,,,,,,3,3.6207072969991714,,,075,001,2019_Aug_26_1501,MusicAffectPsychophysiology2019,3.0.5,59.74683913937408,
To what extent did the music make you feel ,ANGRY,30MonoWAV/30MonoH4.wav,2,2,1,8,,,,,1,15,31,7,0,11,11,2,,,,,,,,,1,1.7612845929979812,,,075,001,2019_Aug_26_1501,MusicAffectPsychophysiology2019,3.0.5,59.74683913937408,
,,30MonoWAV/30MonoH4.wav,2,2,1,8,,,,,1,15,31,7,,,,,,,,,,,,,,,,,075,001,2019_Aug_26_1501,MusicAffectPsychophysiology2019,3.0.5,59.74683913937408,
,,,,,,,,,,,,,,,,,,,,,,,,,,,,,space,8.275663004998933,075,001,2019_Aug_26_1501,MusicAffectPsychophysiology2019,3.0.5,59.74683913937408,
