Instruction,Word,song,valence,arousal,affectcat,songmark,pracwords.thisRepN,pracwords.thisTrialN,pracwords.thisN,pracwords.thisIndex,songtrials.thisRepN,songtrials.thisTrialN,songtrials.thisN,songtrials.thisIndex,words.thisRepN,words.thisTrialN,words.thisN,words.thisIndex,begin.keys,begin.rt,arousalkey.keys,arousalkey.rt,valencekey.keys,valencekey.rt,likekey.keys,likekey.rt,WordResponse.keys,WordResponse.rt,key_resp_2.keys,key_resp_2.rt,participant,session,date,expName,psychopyVersion,frameRate,
,,,,,,,,,,,,,,,,,,,return,15.755339688010281,,,,,,,,,,,076,001,2019_Aug_27_0905,MusicAffectPsychophysiology2019,3.0.5,60.13875044062406,
,,,,,,,,,,,,,,,,,,,,,4,4.965600946001359,,,,,,,,,076,001,2019_Aug_27_0905,MusicAffectPsychophysiology2019,3.0.5,60.13875044062406,
,,,,,,,,,,,,,,,,,,,,,,,5,6.195286236994434,,,,,,,076,001,2019_Aug_27_0905,MusicAffectPsychophysiology2019,3.0.5,60.13875044062406,
,,,,,,,,,,,,,,,,,,,,,,,,,4,2.5030732349987375,,,,,076,001,2019_Aug_27_0905,MusicAffectPsychophysiology2019,3.0.5,60.13875044062406,
To what extent did the music make you feel ,EXCITED,,,,,,0,0,0,7,,,,,,,,,,,,,,,,,3,7.036107373991399,,,076,001,2019_Aug_27_0905,MusicAffectPsychophysiology2019,3.0.5,60.13875044062406,
To what extent did the music make you feel ,TENDER,,,,,,0,1,1,10,,,,,,,,,,,,,,,,,3,1.475655183006893,,,076,001,2019_Aug_27_0905,MusicAffectPsychophysiology2019,3.0.5,60.13875044062406,
To what extent did the music make you feel ,ASHAMED,,,,,,0,2,2,4,,,,,,,,,,,,,,,,,2,3.8028173859929666,,,076,001,2019_Aug_27_0905,MusicAffectPsychophysiology2019,3.0.5,60.13875044062406,
To what extent did the music make you feel ,ANXIOUS ,,,,,,0,3,3,1,,,,,,,,,,,,,,,,,1,2.1255116530082887,,,076,001,2019_Aug_27_0905,MusicAffectPsychophysiology2019,3.0.5,60.13875044062406,
To what extent did the music make you feel ,SCARED,,,,,,0,4,4,11,,,,,,,,,,,,,,,,,1,0.8742203570000129,,,076,001,2019_Aug_27_0905,MusicAffectPsychophysiology2019,3.0.5,60.13875044062406,
To what extent did the music make you feel ,ALERT,,,,,,0,5,5,8,,,,,,,,,,,,,,,,,1,1.0240763140027411,,,076,001,2019_Aug_27_0905,MusicAffectPsychophysiology2019,3.0.5,60.13875044062406,
To what extent did the music make you feel ,HAPPY,,,,,,0,6,6,6,,,,,,,,,,,,,,,,,4,1.5361490970099112,,,076,001,2019_Aug_27_0905,MusicAffectPsychophysiology2019,3.0.5,60.13875044062406,
To what extent did the music make you feel ,SAD,,,,,,0,7,7,0,,,,,,,,,,,,,,,,,1,1.3364064859924838,,,076,001,2019_Aug_27_0905,MusicAffectPsychophysiology2019,3.0.5,60.13875044062406,
To what extent did the music make you feel ,ANGRY,,,,,,0,8,8,2,,,,,,,,,,,,,,,,,1,0.8743942789878929,,,076,001,2019_Aug_27_0905,MusicAffectPsychophysiology2019,3.0.5,60.13875044062406,
To what extent did the music make you feel ,GUILTY,,,,,,0,9,9,5,,,,,,,,,,,,,,,,,1,1.0861031969980104,,,076,001,2019_Aug_27_0905,MusicAffectPsychophysiology2019,3.0.5,60.13875044062406,
To what extent did the music make you feel ,FRUSTRATED,,,,,,0,10,10,3,,,,,,,,,,,,,,,,,1,0.7241257960122311,,,076,001,2019_Aug_27_0905,MusicAffectPsychophysiology2019,3.0.5,60.13875044062406,
To what extent did the music make you feel ,ACTIVE,,,,,,0,11,11,9,,,,,,,,,,,,,,,,,3,1.7693101990007563,,,076,001,2019_Aug_27_0905,MusicAffectPsychophysiology2019,3.0.5,60.13875044062406,
To what extent did the music make you feel ,ALERT,30MonoWAV/30MonoF1.wav,1,2,2,1,,,,,0,0,0,0,0,0,0,8,,,2,4.770511073991656,2,2.069588129001204,2,1.9354741209972417,4,3.587194677005755,,,076,001,2019_Aug_27_0905,MusicAffectPsychophysiology2019,3.0.5,60.13875044062406,
To what extent did the music make you feel ,ASHAMED,30MonoWAV/30MonoF1.wav,1,2,2,1,,,,,0,0,0,0,0,1,1,4,,,,,,,,,3,1.1529959819890792,,,076,001,2019_Aug_27_0905,MusicAffectPsychophysiology2019,3.0.5,60.13875044062406,
To what extent did the music make you feel ,HAPPY,30MonoWAV/30MonoF1.wav,1,2,2,1,,,,,0,0,0,0,0,2,2,6,,,,,,,,,2,1.0857247649983037,,,076,001,2019_Aug_27_0905,MusicAffectPsychophysiology2019,3.0.5,60.13875044062406,
To what extent did the music make you feel ,SCARED,30MonoWAV/30MonoF1.wav,1,2,2,1,,,,,0,0,0,0,0,3,3,11,,,,,,,,,4,1.5697154789959313,,,076,001,2019_Aug_27_0905,MusicAffectPsychophysiology2019,3.0.5,60.13875044062406,
To what extent did the music make you feel ,ANXIOUS ,30MonoWAV/30MonoF1.wav,1,2,2,1,,,,,0,0,0,0,0,4,4,1,,,,,,,,,4,0.7200520010082982,,,076,001,2019_Aug_27_0905,MusicAffectPsychophysiology2019,3.0.5,60.13875044062406,
To what extent did the music make you feel ,ANGRY,30MonoWAV/30MonoF1.wav,1,2,2,1,,,,,0,0,0,0,0,5,5,2,,,,,,,,,2,1.3860494179971283,,,076,001,2019_Aug_27_0905,MusicAffectPsychophysiology2019,3.0.5,60.13875044062406,
To what extent did the music make you feel ,SAD,30MonoWAV/30MonoF1.wav,1,2,2,1,,,,,0,0,0,0,0,6,6,0,,,,,,,,,2,1.202042253993568,,,076,001,2019_Aug_27_0905,MusicAffectPsychophysiology2019,3.0.5,60.13875044062406,
To what extent did the music make you feel ,FRUSTRATED,30MonoWAV/30MonoF1.wav,1,2,2,1,,,,,0,0,0,0,0,7,7,3,,,,,,,,,3,1.156112034994294,,,076,001,2019_Aug_27_0905,MusicAffectPsychophysiology2019,3.0.5,60.13875044062406,
To what extent did the music make you feel ,GUILTY,30MonoWAV/30MonoF1.wav,1,2,2,1,,,,,0,0,0,0,0,8,8,5,,,,,,,,,3,0.9897694389946992,,,076,001,2019_Aug_27_0905,MusicAffectPsychophysiology2019,3.0.5,60.13875044062406,
To what extent did the music make you feel ,TENDER,30MonoWAV/30MonoF1.wav,1,2,2,1,,,,,0,0,0,0,0,9,9,10,,,,,,,,,3,1.133317158994032,,,076,001,2019_Aug_27_0905,MusicAffectPsychophysiology2019,3.0.5,60.13875044062406,
To what extent did the music make you feel ,ACTIVE,30MonoWAV/30MonoF1.wav,1,2,2,1,,,,,0,0,0,0,0,10,10,9,,,,,,,,,3,1.552118995008641,,,076,001,2019_Aug_27_0905,MusicAffectPsychophysiology2019,3.0.5,60.13875044062406,
To what extent did the music make you feel ,EXCITED,30MonoWAV/30MonoF1.wav,1,2,2,1,,,,,0,0,0,0,0,11,11,7,,,,,,,,,2,1.1671845980017679,,,076,001,2019_Aug_27_0905,MusicAffectPsychophysiology2019,3.0.5,60.13875044062406,
,,30MonoWAV/30MonoF1.wav,1,2,2,1,,,,,0,0,0,0,,,,,,,,,,,,,,,,,076,001,2019_Aug_27_0905,MusicAffectPsychophysiology2019,3.0.5,60.13875044062406,
To what extent did the music make you feel ,ASHAMED,30MonoWAV/30MonoH1.wav,2,2,1,5,,,,,0,1,1,4,0,0,0,4,,,3,5.31912881298922,3,5.487464067002293,3,2.6863841699960176,2,2.9534741649986245,,,076,001,2019_Aug_27_0905,MusicAffectPsychophysiology2019,3.0.5,60.13875044062406,
To what extent did the music make you feel ,SCARED,30MonoWAV/30MonoH1.wav,2,2,1,5,,,,,0,1,1,4,0,1,1,11,,,,,,,,,2,0.6280244319932535,,,076,001,2019_Aug_27_0905,MusicAffectPsychophysiology2019,3.0.5,60.13875044062406,
To what extent did the music make you feel ,GUILTY,30MonoWAV/30MonoH1.wav,2,2,1,5,,,,,0,1,1,4,0,2,2,5,,,,,,,,,1,1.1376803750026738,,,076,001,2019_Aug_27_0905,MusicAffectPsychophysiology2019,3.0.5,60.13875044062406,
To what extent did the music make you feel ,ANGRY,30MonoWAV/30MonoH1.wav,2,2,1,5,,,,,0,1,1,4,0,3,3,2,,,,,,,,,1,0.76004175998969,,,076,001,2019_Aug_27_0905,MusicAffectPsychophysiology2019,3.0.5,60.13875044062406,
To what extent did the music make you feel ,ANXIOUS ,30MonoWAV/30MonoH1.wav,2,2,1,5,,,,,0,1,1,4,0,4,4,1,,,,,,,,,1,0.6535042890027398,,,076,001,2019_Aug_27_0905,MusicAffectPsychophysiology2019,3.0.5,60.13875044062406,
To what extent did the music make you feel ,SAD,30MonoWAV/30MonoH1.wav,2,2,1,5,,,,,0,1,1,4,0,5,5,0,,,,,,,,,1,0.4694484430074226,,,076,001,2019_Aug_27_0905,MusicAffectPsychophysiology2019,3.0.5,60.13875044062406,
To what extent did the music make you feel ,ACTIVE,30MonoWAV/30MonoH1.wav,2,2,1,5,,,,,0,1,1,4,0,6,6,9,,,,,,,,,3,1.6185598650044994,,,076,001,2019_Aug_27_0905,MusicAffectPsychophysiology2019,3.0.5,60.13875044062406,
To what extent did the music make you feel ,HAPPY,30MonoWAV/30MonoH1.wav,2,2,1,5,,,,,0,1,1,4,0,7,7,6,,,,,,,,,3,0.9335304350097431,,,076,001,2019_Aug_27_0905,MusicAffectPsychophysiology2019,3.0.5,60.13875044062406,
To what extent did the music make you feel ,ALERT,30MonoWAV/30MonoH1.wav,2,2,1,5,,,,,0,1,1,4,0,8,8,8,,,,,,,,,1,0.970445920000202,,,076,001,2019_Aug_27_0905,MusicAffectPsychophysiology2019,3.0.5,60.13875044062406,
To what extent did the music make you feel ,TENDER,30MonoWAV/30MonoH1.wav,2,2,1,5,,,,,0,1,1,4,0,9,9,10,,,,,,,,,1,0.6425926310039358,,,076,001,2019_Aug_27_0905,MusicAffectPsychophysiology2019,3.0.5,60.13875044062406,
To what extent did the music make you feel ,EXCITED,30MonoWAV/30MonoH1.wav,2,2,1,5,,,,,0,1,1,4,0,10,10,7,,,,,,,,,2,1.1871726069948636,,,076,001,2019_Aug_27_0905,MusicAffectPsychophysiology2019,3.0.5,60.13875044062406,
To what extent did the music make you feel ,FRUSTRATED,30MonoWAV/30MonoH1.wav,2,2,1,5,,,,,0,1,1,4,0,11,11,3,,,,,,,,,1,0.8271999980061082,,,076,001,2019_Aug_27_0905,MusicAffectPsychophysiology2019,3.0.5,60.13875044062406,
,,30MonoWAV/30MonoH1.wav,2,2,1,5,,,,,0,1,1,4,,,,,,,,,,,,,,,,,076,001,2019_Aug_27_0905,MusicAffectPsychophysiology2019,3.0.5,60.13875044062406,
To what extent did the music make you feel ,ACTIVE,30MonoWAV/30MonoS2.wav,1,1,3,10,,,,,0,2,2,9,0,0,0,9,,,2,2.78387901300448,2,1.1372518309945008,3,1.2204394190048333,2,1.6884613500005798,,,076,001,2019_Aug_27_0905,MusicAffectPsychophysiology2019,3.0.5,60.13875044062406,
To what extent did the music make you feel ,ALERT,30MonoWAV/30MonoS2.wav,1,1,3,10,,,,,0,2,2,9,0,1,1,8,,,,,,,,,2,0.785488412991981,,,076,001,2019_Aug_27_0905,MusicAffectPsychophysiology2019,3.0.5,60.13875044062406,
To what extent did the music make you feel ,ANGRY,30MonoWAV/30MonoS2.wav,1,1,3,10,,,,,0,2,2,9,0,2,2,2,,,,,,,,,2,0.9201165419945028,,,076,001,2019_Aug_27_0905,MusicAffectPsychophysiology2019,3.0.5,60.13875044062406,
To what extent did the music make you feel ,ANXIOUS ,30MonoWAV/30MonoS2.wav,1,1,3,10,,,,,0,2,2,9,0,3,3,1,,,,,,,,,3,2.572702183999354,,,076,001,2019_Aug_27_0905,MusicAffectPsychophysiology2019,3.0.5,60.13875044062406,
To what extent did the music make you feel ,ASHAMED,30MonoWAV/30MonoS2.wav,1,1,3,10,,,,,0,2,2,9,0,4,4,4,,,,,,,,,2,0.9729850680014351,,,076,001,2019_Aug_27_0905,MusicAffectPsychophysiology2019,3.0.5,60.13875044062406,
To what extent did the music make you feel ,HAPPY,30MonoWAV/30MonoS2.wav,1,1,3,10,,,,,0,2,2,9,0,5,5,6,,,,,,,,,2,0.8719763349945424,,,076,001,2019_Aug_27_0905,MusicAffectPsychophysiology2019,3.0.5,60.13875044062406,
To what extent did the music make you feel ,SCARED,30MonoWAV/30MonoS2.wav,1,1,3,10,,,,,0,2,2,9,0,6,6,11,,,,,,,,,2,1.6194336150074378,,,076,001,2019_Aug_27_0905,MusicAffectPsychophysiology2019,3.0.5,60.13875044062406,
To what extent did the music make you feel ,SAD,30MonoWAV/30MonoS2.wav,1,1,3,10,,,,,0,2,2,9,0,7,7,0,,,,,,,,,5,2.4550329560006503,,,076,001,2019_Aug_27_0905,MusicAffectPsychophysiology2019,3.0.5,60.13875044062406,
To what extent did the music make you feel ,TENDER,30MonoWAV/30MonoS2.wav,1,1,3,10,,,,,0,2,2,9,0,8,8,10,,,,,,,,,2,1.3342730049917009,,,076,001,2019_Aug_27_0905,MusicAffectPsychophysiology2019,3.0.5,60.13875044062406,
To what extent did the music make you feel ,EXCITED,30MonoWAV/30MonoS2.wav,1,1,3,10,,,,,0,2,2,9,0,9,9,7,,,,,,,,,2,0.6199052350129932,,,076,001,2019_Aug_27_0905,MusicAffectPsychophysiology2019,3.0.5,60.13875044062406,
To what extent did the music make you feel ,GUILTY,30MonoWAV/30MonoS2.wav,1,1,3,10,,,,,0,2,2,9,0,10,10,5,,,,,,,,,2,0.7033774110022932,,,076,001,2019_Aug_27_0905,MusicAffectPsychophysiology2019,3.0.5,60.13875044062406,
To what extent did the music make you feel ,FRUSTRATED,30MonoWAV/30MonoS2.wav,1,1,3,10,,,,,0,2,2,9,0,11,11,3,,,,,,,,,3,1.4051066609972622,,,076,001,2019_Aug_27_0905,MusicAffectPsychophysiology2019,3.0.5,60.13875044062406,
,,30MonoWAV/30MonoS2.wav,1,1,3,10,,,,,0,2,2,9,,,,,,,,,,,,,,,,,076,001,2019_Aug_27_0905,MusicAffectPsychophysiology2019,3.0.5,60.13875044062406,
To what extent did the music make you feel ,ASHAMED,30MonoWAV/30MonoF3.wav,1,2,2,3,,,,,0,3,3,2,0,0,0,4,,,2,4.202208207003423,2,0.9708260970073752,3,1.7191381119919242,2,2.5537397939915536,,,076,001,2019_Aug_27_0905,MusicAffectPsychophysiology2019,3.0.5,60.13875044062406,
To what extent did the music make you feel ,EXCITED,30MonoWAV/30MonoF3.wav,1,2,2,3,,,,,0,3,3,2,0,1,1,7,,,,,,,,,3,1.9615020440105582,,,076,001,2019_Aug_27_0905,MusicAffectPsychophysiology2019,3.0.5,60.13875044062406,
To what extent did the music make you feel ,GUILTY,30MonoWAV/30MonoF3.wav,1,2,2,3,,,,,0,3,3,2,0,2,2,5,,,,,,,,,3,1.4538089479901828,,,076,001,2019_Aug_27_0905,MusicAffectPsychophysiology2019,3.0.5,60.13875044062406,
To what extent did the music make you feel ,TENDER,30MonoWAV/30MonoF3.wav,1,2,2,3,,,,,0,3,3,2,0,3,3,10,,,,,,,,,3,1.2304072339902632,,,076,001,2019_Aug_27_0905,MusicAffectPsychophysiology2019,3.0.5,60.13875044062406,
To what extent did the music make you feel ,SCARED,30MonoWAV/30MonoF3.wav,1,2,2,3,,,,,0,3,3,2,0,4,4,11,,,,,,,,,4,1.4138270370021928,,,076,001,2019_Aug_27_0905,MusicAffectPsychophysiology2019,3.0.5,60.13875044062406,
To what extent did the music make you feel ,SAD,30MonoWAV/30MonoF3.wav,1,2,2,3,,,,,0,3,3,2,0,5,5,0,,,,,,,,,2,1.2529227240011096,,,076,001,2019_Aug_27_0905,MusicAffectPsychophysiology2019,3.0.5,60.13875044062406,
To what extent did the music make you feel ,HAPPY,30MonoWAV/30MonoF3.wav,1,2,2,3,,,,,0,3,3,2,0,6,6,6,,,,,,,,,1,1.0196808470063843,,,076,001,2019_Aug_27_0905,MusicAffectPsychophysiology2019,3.0.5,60.13875044062406,
To what extent did the music make you feel ,ALERT,30MonoWAV/30MonoF3.wav,1,2,2,3,,,,,0,3,3,2,0,7,7,8,,,,,,,,,3,1.5031652839970775,,,076,001,2019_Aug_27_0905,MusicAffectPsychophysiology2019,3.0.5,60.13875044062406,
To what extent did the music make you feel ,ACTIVE,30MonoWAV/30MonoF3.wav,1,2,2,3,,,,,0,3,3,2,0,8,8,9,,,,,,,,,2,1.4040891269978601,,,076,001,2019_Aug_27_0905,MusicAffectPsychophysiology2019,3.0.5,60.13875044062406,
To what extent did the music make you feel ,ANGRY,30MonoWAV/30MonoF3.wav,1,2,2,3,,,,,0,3,3,2,0,9,9,2,,,,,,,,,2,1.369407855992904,,,076,001,2019_Aug_27_0905,MusicAffectPsychophysiology2019,3.0.5,60.13875044062406,
To what extent did the music make you feel ,FRUSTRATED,30MonoWAV/30MonoF3.wav,1,2,2,3,,,,,0,3,3,2,0,10,10,3,,,,,,,,,3,0.8951457040093374,,,076,001,2019_Aug_27_0905,MusicAffectPsychophysiology2019,3.0.5,60.13875044062406,
To what extent did the music make you feel ,ANXIOUS ,30MonoWAV/30MonoF3.wav,1,2,2,3,,,,,0,3,3,2,0,11,11,1,,,,,,,,,4,1.0710291040013544,,,076,001,2019_Aug_27_0905,MusicAffectPsychophysiology2019,3.0.5,60.13875044062406,
,,30MonoWAV/30MonoF3.wav,1,2,2,3,,,,,0,3,3,2,,,,,,,,,,,,,,,,,076,001,2019_Aug_27_0905,MusicAffectPsychophysiology2019,3.0.5,60.13875044062406,
To what extent did the music make you feel ,HAPPY,30MonoWAV/30MonoS3.wav,1,1,3,11,,,,,0,4,4,10,0,0,0,6,,,2,3.31871778400091,2,1.0528788960073143,3,1.9701383960054955,2,1.52421174000483,,,076,001,2019_Aug_27_0905,MusicAffectPsychophysiology2019,3.0.5,60.13875044062406,
To what extent did the music make you feel ,EXCITED,30MonoWAV/30MonoS3.wav,1,1,3,11,,,,,0,4,4,10,0,1,1,7,,,,,,,,,2,0.9713978179934202,,,076,001,2019_Aug_27_0905,MusicAffectPsychophysiology2019,3.0.5,60.13875044062406,
To what extent did the music make you feel ,SAD,30MonoWAV/30MonoS3.wav,1,1,3,11,,,,,0,4,4,10,0,2,2,0,,,,,,,,,3,1.453609549003886,,,076,001,2019_Aug_27_0905,MusicAffectPsychophysiology2019,3.0.5,60.13875044062406,
To what extent did the music make you feel ,GUILTY,30MonoWAV/30MonoS3.wav,1,1,3,11,,,,,0,4,4,10,0,3,3,5,,,,,,,,,3,1.035889563994715,,,076,001,2019_Aug_27_0905,MusicAffectPsychophysiology2019,3.0.5,60.13875044062406,
To what extent did the music make you feel ,ASHAMED,30MonoWAV/30MonoS3.wav,1,1,3,11,,,,,0,4,4,10,0,4,4,4,,,,,,,,,3,1.0029736869910266,,,076,001,2019_Aug_27_0905,MusicAffectPsychophysiology2019,3.0.5,60.13875044062406,
To what extent did the music make you feel ,TENDER,30MonoWAV/30MonoS3.wav,1,1,3,11,,,,,0,4,4,10,0,5,5,10,,,,,,,,,2,0.9565522569901077,,,076,001,2019_Aug_27_0905,MusicAffectPsychophysiology2019,3.0.5,60.13875044062406,
To what extent did the music make you feel ,ANGRY,30MonoWAV/30MonoS3.wav,1,1,3,11,,,,,0,4,4,10,0,6,6,2,,,,,,,,,1,1.4844220360100735,,,076,001,2019_Aug_27_0905,MusicAffectPsychophysiology2019,3.0.5,60.13875044062406,
To what extent did the music make you feel ,ALERT,30MonoWAV/30MonoS3.wav,1,1,3,11,,,,,0,4,4,10,0,7,7,8,,,,,,,,,1,1.4039555089984788,,,076,001,2019_Aug_27_0905,MusicAffectPsychophysiology2019,3.0.5,60.13875044062406,
To what extent did the music make you feel ,ANXIOUS ,30MonoWAV/30MonoS3.wav,1,1,3,11,,,,,0,4,4,10,0,8,8,1,,,,,,,,,3,1.240195937003591,,,076,001,2019_Aug_27_0905,MusicAffectPsychophysiology2019,3.0.5,60.13875044062406,
To what extent did the music make you feel ,SCARED,30MonoWAV/30MonoS3.wav,1,1,3,11,,,,,0,4,4,10,0,9,9,11,,,,,,,,,4,1.0891108060022816,,,076,001,2019_Aug_27_0905,MusicAffectPsychophysiology2019,3.0.5,60.13875044062406,
To what extent did the music make you feel ,ACTIVE,30MonoWAV/30MonoS3.wav,1,1,3,11,,,,,0,4,4,10,0,10,10,9,,,,,,,,,2,1.1200061639974592,,,076,001,2019_Aug_27_0905,MusicAffectPsychophysiology2019,3.0.5,60.13875044062406,
To what extent did the music make you feel ,FRUSTRATED,30MonoWAV/30MonoS3.wav,1,1,3,11,,,,,0,4,4,10,0,11,11,3,,,,,,,,,3,1.0403373750013998,,,076,001,2019_Aug_27_0905,MusicAffectPsychophysiology2019,3.0.5,60.13875044062406,
,,30MonoWAV/30MonoS3.wav,1,1,3,11,,,,,0,4,4,10,,,,,,,,,,,,,,,,,076,001,2019_Aug_27_0905,MusicAffectPsychophysiology2019,3.0.5,60.13875044062406,
To what extent did the music make you feel ,FRUSTRATED,30MonoWAV/30MonoH3.wav,2,2,1,7,,,,,0,5,5,6,0,0,0,3,,,4,3.036216496999259,4,1.452031128006638,4,1.1360177410097094,1,2.0172755399980815,,,076,001,2019_Aug_27_0905,MusicAffectPsychophysiology2019,3.0.5,60.13875044062406,
To what extent did the music make you feel ,GUILTY,30MonoWAV/30MonoH3.wav,2,2,1,7,,,,,0,5,5,6,0,1,1,5,,,,,,,,,1,0.6200630969979102,,,076,001,2019_Aug_27_0905,MusicAffectPsychophysiology2019,3.0.5,60.13875044062406,
To what extent did the music make you feel ,ACTIVE,30MonoWAV/30MonoH3.wav,2,2,1,7,,,,,0,5,5,6,0,2,2,9,,,,,,,,,4,1.1868508960033068,,,076,001,2019_Aug_27_0905,MusicAffectPsychophysiology2019,3.0.5,60.13875044062406,
To what extent did the music make you feel ,SCARED,30MonoWAV/30MonoH3.wav,2,2,1,7,,,,,0,5,5,6,0,3,3,11,,,,,,,,,1,0.9538404690101743,,,076,001,2019_Aug_27_0905,MusicAffectPsychophysiology2019,3.0.5,60.13875044062406,
To what extent did the music make you feel ,ANXIOUS ,30MonoWAV/30MonoH3.wav,2,2,1,7,,,,,0,5,5,6,0,4,4,1,,,,,,,,,1,0.8660890120081604,,,076,001,2019_Aug_27_0905,MusicAffectPsychophysiology2019,3.0.5,60.13875044062406,
To what extent did the music make you feel ,ASHAMED,30MonoWAV/30MonoH3.wav,2,2,1,7,,,,,0,5,5,6,0,5,5,4,,,,,,,,,1,0.6703452350047883,,,076,001,2019_Aug_27_0905,MusicAffectPsychophysiology2019,3.0.5,60.13875044062406,
To what extent did the music make you feel ,ALERT,30MonoWAV/30MonoH3.wav,2,2,1,7,,,,,0,5,5,6,0,6,6,8,,,,,,,,,1,0.7522664689895464,,,076,001,2019_Aug_27_0905,MusicAffectPsychophysiology2019,3.0.5,60.13875044062406,
To what extent did the music make you feel ,HAPPY,30MonoWAV/30MonoH3.wav,2,2,1,7,,,,,0,5,5,6,0,7,7,6,,,,,,,,,3,1.186653851007577,,,076,001,2019_Aug_27_0905,MusicAffectPsychophysiology2019,3.0.5,60.13875044062406,
To what extent did the music make you feel ,SAD,30MonoWAV/30MonoH3.wav,2,2,1,7,,,,,0,5,5,6,0,8,8,0,,,,,,,,,1,0.7699639320053393,,,076,001,2019_Aug_27_0905,MusicAffectPsychophysiology2019,3.0.5,60.13875044062406,
To what extent did the music make you feel ,ANGRY,30MonoWAV/30MonoH3.wav,2,2,1,7,,,,,0,5,5,6,0,9,9,2,,,,,,,,,1,0.704188035990228,,,076,001,2019_Aug_27_0905,MusicAffectPsychophysiology2019,3.0.5,60.13875044062406,
To what extent did the music make you feel ,EXCITED,30MonoWAV/30MonoH3.wav,2,2,1,7,,,,,0,5,5,6,0,10,10,7,,,,,,,,,5,1.1192984950030223,,,076,001,2019_Aug_27_0905,MusicAffectPsychophysiology2019,3.0.5,60.13875044062406,
To what extent did the music make you feel ,TENDER,30MonoWAV/30MonoH3.wav,2,2,1,7,,,,,0,5,5,6,0,11,11,10,,,,,,,,,3,1.1689630830078386,,,076,001,2019_Aug_27_0905,MusicAffectPsychophysiology2019,3.0.5,60.13875044062406,
,,30MonoWAV/30MonoH3.wav,2,2,1,7,,,,,0,5,5,6,,,,,,,,,,,,,,,,,076,001,2019_Aug_27_0905,MusicAffectPsychophysiology2019,3.0.5,60.13875044062406,
To what extent did the music make you feel ,HAPPY,30MonoWAV/30MonoS4.wav,1,1,3,12,,,,,0,6,6,11,0,0,0,6,,,3,2.953633149008965,3,2.6525258470064728,4,2.404207885992946,2,1.6940110080031445,,,076,001,2019_Aug_27_0905,MusicAffectPsychophysiology2019,3.0.5,60.13875044062406,
To what extent did the music make you feel ,EXCITED,30MonoWAV/30MonoS4.wav,1,1,3,12,,,,,0,6,6,11,0,1,1,7,,,,,,,,,2,0.7693245800037403,,,076,001,2019_Aug_27_0905,MusicAffectPsychophysiology2019,3.0.5,60.13875044062406,
To what extent did the music make you feel ,SCARED,30MonoWAV/30MonoS4.wav,1,1,3,12,,,,,0,6,6,11,0,2,2,11,,,,,,,,,2,1.0606037039979128,,,076,001,2019_Aug_27_0905,MusicAffectPsychophysiology2019,3.0.5,60.13875044062406,
To what extent did the music make you feel ,ANXIOUS ,30MonoWAV/30MonoS4.wav,1,1,3,12,,,,,0,6,6,11,0,3,3,1,,,,,,,,,3,1.3202138899941929,,,076,001,2019_Aug_27_0905,MusicAffectPsychophysiology2019,3.0.5,60.13875044062406,
To what extent did the music make you feel ,ALERT,30MonoWAV/30MonoS4.wav,1,1,3,12,,,,,0,6,6,11,0,4,4,8,,,,,,,,,2,0.9695585709996521,,,076,001,2019_Aug_27_0905,MusicAffectPsychophysiology2019,3.0.5,60.13875044062406,
To what extent did the music make you feel ,FRUSTRATED,30MonoWAV/30MonoS4.wav,1,1,3,12,,,,,0,6,6,11,0,5,5,3,,,,,,,,,2,0.8101398700091522,,,076,001,2019_Aug_27_0905,MusicAffectPsychophysiology2019,3.0.5,60.13875044062406,
To what extent did the music make you feel ,TENDER,30MonoWAV/30MonoS4.wav,1,1,3,12,,,,,0,6,6,11,0,6,6,10,,,,,,,,,2,0.7759452449972741,,,076,001,2019_Aug_27_0905,MusicAffectPsychophysiology2019,3.0.5,60.13875044062406,
To what extent did the music make you feel ,ANGRY,30MonoWAV/30MonoS4.wav,1,1,3,12,,,,,0,6,6,11,0,7,7,2,,,,,,,,,2,0.7537214210024104,,,076,001,2019_Aug_27_0905,MusicAffectPsychophysiology2019,3.0.5,60.13875044062406,
To what extent did the music make you feel ,ACTIVE,30MonoWAV/30MonoS4.wav,1,1,3,12,,,,,0,6,6,11,0,8,8,9,,,,,,,,,1,1.3704676540073706,,,076,001,2019_Aug_27_0905,MusicAffectPsychophysiology2019,3.0.5,60.13875044062406,
To what extent did the music make you feel ,SAD,30MonoWAV/30MonoS4.wav,1,1,3,12,,,,,0,6,6,11,0,9,9,0,,,,,,,,,3,1.1528452380007366,,,076,001,2019_Aug_27_0905,MusicAffectPsychophysiology2019,3.0.5,60.13875044062406,
To what extent did the music make you feel ,GUILTY,30MonoWAV/30MonoS4.wav,1,1,3,12,,,,,0,6,6,11,0,10,10,5,,,,,,,,,2,1.0373354509938508,,,076,001,2019_Aug_27_0905,MusicAffectPsychophysiology2019,3.0.5,60.13875044062406,
To what extent did the music make you feel ,ASHAMED,30MonoWAV/30MonoS4.wav,1,1,3,12,,,,,0,6,6,11,0,11,11,4,,,,,,,,,2,0.9367613049980719,,,076,001,2019_Aug_27_0905,MusicAffectPsychophysiology2019,3.0.5,60.13875044062406,
,,30MonoWAV/30MonoS4.wav,1,1,3,12,,,,,0,6,6,11,,,,,,,,,,,,,,,,,076,001,2019_Aug_27_0905,MusicAffectPsychophysiology2019,3.0.5,60.13875044062406,
To what extent did the music make you feel ,TENDER,30MonoWAV/30MonoT2.wav,2,1,4,14,,,,,0,7,7,13,0,0,0,10,,,4,2.120337397995172,4,1.7538568960007979,4,1.0208847419999074,2,1.2889111130061792,,,076,001,2019_Aug_27_0905,MusicAffectPsychophysiology2019,3.0.5,60.13875044062406,
To what extent did the music make you feel ,ASHAMED,30MonoWAV/30MonoT2.wav,2,1,4,14,,,,,0,7,7,13,0,1,1,4,,,,,,,,,2,0.705396056000609,,,076,001,2019_Aug_27_0905,MusicAffectPsychophysiology2019,3.0.5,60.13875044062406,
To what extent did the music make you feel ,EXCITED,30MonoWAV/30MonoT2.wav,2,1,4,14,,,,,0,7,7,13,0,2,2,7,,,,,,,,,3,0.9704521450039465,,,076,001,2019_Aug_27_0905,MusicAffectPsychophysiology2019,3.0.5,60.13875044062406,
To what extent did the music make you feel ,GUILTY,30MonoWAV/30MonoT2.wav,2,1,4,14,,,,,0,7,7,13,0,3,3,5,,,,,,,,,2,0.8695730260078562,,,076,001,2019_Aug_27_0905,MusicAffectPsychophysiology2019,3.0.5,60.13875044062406,
To what extent did the music make you feel ,SCARED,30MonoWAV/30MonoT2.wav,2,1,4,14,,,,,0,7,7,13,0,4,4,11,,,,,,,,,2,0.8032710340048652,,,076,001,2019_Aug_27_0905,MusicAffectPsychophysiology2019,3.0.5,60.13875044062406,
To what extent did the music make you feel ,ANGRY,30MonoWAV/30MonoT2.wav,2,1,4,14,,,,,0,7,7,13,0,5,5,2,,,,,,,,,1,0.8538764819968492,,,076,001,2019_Aug_27_0905,MusicAffectPsychophysiology2019,3.0.5,60.13875044062406,
To what extent did the music make you feel ,ALERT,30MonoWAV/30MonoT2.wav,2,1,4,14,,,,,0,7,7,13,0,6,6,8,,,,,,,,,1,1.303603877997375,,,076,001,2019_Aug_27_0905,MusicAffectPsychophysiology2019,3.0.5,60.13875044062406,
To what extent did the music make you feel ,SAD,30MonoWAV/30MonoT2.wav,2,1,4,14,,,,,0,7,7,13,0,7,7,0,,,,,,,,,2,0.5706600160046946,,,076,001,2019_Aug_27_0905,MusicAffectPsychophysiology2019,3.0.5,60.13875044062406,
To what extent did the music make you feel ,FRUSTRATED,30MonoWAV/30MonoT2.wav,2,1,4,14,,,,,0,7,7,13,0,8,8,3,,,,,,,,,1,0.9508859810011927,,,076,001,2019_Aug_27_0905,MusicAffectPsychophysiology2019,3.0.5,60.13875044062406,
To what extent did the music make you feel ,HAPPY,30MonoWAV/30MonoT2.wav,2,1,4,14,,,,,0,7,7,13,0,9,9,6,,,,,,,,,3,1.0527898850123165,,,076,001,2019_Aug_27_0905,MusicAffectPsychophysiology2019,3.0.5,60.13875044062406,
To what extent did the music make you feel ,ACTIVE,30MonoWAV/30MonoT2.wav,2,1,4,14,,,,,0,7,7,13,0,10,10,9,,,,,,,,,4,1.0858860389998881,,,076,001,2019_Aug_27_0905,MusicAffectPsychophysiology2019,3.0.5,60.13875044062406,
To what extent did the music make you feel ,ANXIOUS ,30MonoWAV/30MonoT2.wav,2,1,4,14,,,,,0,7,7,13,0,11,11,1,,,,,,,,,1,1.0703150509943953,,,076,001,2019_Aug_27_0905,MusicAffectPsychophysiology2019,3.0.5,60.13875044062406,
,,30MonoWAV/30MonoT2.wav,2,1,4,14,,,,,0,7,7,13,,,,,,,,,,,,,,,,,076,001,2019_Aug_27_0905,MusicAffectPsychophysiology2019,3.0.5,60.13875044062406,
To what extent did the music make you feel ,ALERT,30MonoWAV/30MonoF2.wav,1,2,2,2,,,,,0,8,8,1,0,0,0,8,,,2,2.9206288650020724,2,0.48685271899739746,3,1.3035505180014297,4,2.1518850649881642,,,076,001,2019_Aug_27_0905,MusicAffectPsychophysiology2019,3.0.5,60.13875044062406,
To what extent did the music make you feel ,SAD,30MonoWAV/30MonoF2.wav,1,2,2,2,,,,,0,8,8,1,0,1,1,0,,,,,,,,,3,1.119585153996013,,,076,001,2019_Aug_27_0905,MusicAffectPsychophysiology2019,3.0.5,60.13875044062406,
To what extent did the music make you feel ,TENDER,30MonoWAV/30MonoF2.wav,1,2,2,2,,,,,0,8,8,1,0,2,2,10,,,,,,,,,3,1.3204899349948391,,,076,001,2019_Aug_27_0905,MusicAffectPsychophysiology2019,3.0.5,60.13875044062406,
To what extent did the music make you feel ,HAPPY,30MonoWAV/30MonoF2.wav,1,2,2,2,,,,,0,8,8,1,0,3,3,6,,,,,,,,,2,0.9697792180086253,,,076,001,2019_Aug_27_0905,MusicAffectPsychophysiology2019,3.0.5,60.13875044062406,
To what extent did the music make you feel ,ANXIOUS ,30MonoWAV/30MonoF2.wav,1,2,2,2,,,,,0,8,8,1,0,4,4,1,,,,,,,,,5,1.319175480006379,,,076,001,2019_Aug_27_0905,MusicAffectPsychophysiology2019,3.0.5,60.13875044062406,
To what extent did the music make you feel ,ACTIVE,30MonoWAV/30MonoF2.wav,1,2,2,2,,,,,0,8,8,1,0,5,5,9,,,,,,,,,2,1.1542370529932668,,,076,001,2019_Aug_27_0905,MusicAffectPsychophysiology2019,3.0.5,60.13875044062406,
To what extent did the music make you feel ,FRUSTRATED,30MonoWAV/30MonoF2.wav,1,2,2,2,,,,,0,8,8,1,0,6,6,3,,,,,,,,,5,1.1475351410044823,,,076,001,2019_Aug_27_0905,MusicAffectPsychophysiology2019,3.0.5,60.13875044062406,
To what extent did the music make you feel ,SCARED,30MonoWAV/30MonoF2.wav,1,2,2,2,,,,,0,8,8,1,0,7,7,11,,,,,,,,,5,0.8797046679974301,,,076,001,2019_Aug_27_0905,MusicAffectPsychophysiology2019,3.0.5,60.13875044062406,
To what extent did the music make you feel ,ASHAMED,30MonoWAV/30MonoF2.wav,1,2,2,2,,,,,0,8,8,1,0,8,8,4,,,,,,,,,3,1.3366339419881115,,,076,001,2019_Aug_27_0905,MusicAffectPsychophysiology2019,3.0.5,60.13875044062406,
To what extent did the music make you feel ,GUILTY,30MonoWAV/30MonoF2.wav,1,2,2,2,,,,,0,8,8,1,0,9,9,5,,,,,,,,,2,1.1852229420037474,,,076,001,2019_Aug_27_0905,MusicAffectPsychophysiology2019,3.0.5,60.13875044062406,
To what extent did the music make you feel ,EXCITED,30MonoWAV/30MonoF2.wav,1,2,2,2,,,,,0,8,8,1,0,10,10,7,,,,,,,,,2,0.751185967004858,,,076,001,2019_Aug_27_0905,MusicAffectPsychophysiology2019,3.0.5,60.13875044062406,
To what extent did the music make you feel ,ANGRY,30MonoWAV/30MonoF2.wav,1,2,2,2,,,,,0,8,8,1,0,11,11,2,,,,,,,,,1,0.8713276890048292,,,076,001,2019_Aug_27_0905,MusicAffectPsychophysiology2019,3.0.5,60.13875044062406,
,,30MonoWAV/30MonoF2.wav,1,2,2,2,,,,,0,8,8,1,,,,,,,,,,,,,,,,,076,001,2019_Aug_27_0905,MusicAffectPsychophysiology2019,3.0.5,60.13875044062406,
To what extent did the music make you feel ,ASHAMED,30MonoWAV/30MonoT4.wav,2,1,4,16,,,,,0,9,9,15,0,0,0,4,,,4,1.7852841679996345,4,0.6360936260025483,4,1.437403429998085,2,1.2936318760039285,,,076,001,2019_Aug_27_0905,MusicAffectPsychophysiology2019,3.0.5,60.13875044062406,
To what extent did the music make you feel ,ANXIOUS ,30MonoWAV/30MonoT4.wav,2,1,4,16,,,,,0,9,9,15,0,1,1,1,,,,,,,,,2,0.7254278179898392,,,076,001,2019_Aug_27_0905,MusicAffectPsychophysiology2019,3.0.5,60.13875044062406,
To what extent did the music make you feel ,GUILTY,30MonoWAV/30MonoT4.wav,2,1,4,16,,,,,0,9,9,15,0,2,2,5,,,,,,,,,2,0.6166942499985453,,,076,001,2019_Aug_27_0905,MusicAffectPsychophysiology2019,3.0.5,60.13875044062406,
To what extent did the music make you feel ,EXCITED,30MonoWAV/30MonoT4.wav,2,1,4,16,,,,,0,9,9,15,0,3,3,7,,,,,,,,,4,1.3195362619881053,,,076,001,2019_Aug_27_0905,MusicAffectPsychophysiology2019,3.0.5,60.13875044062406,
To what extent did the music make you feel ,FRUSTRATED,30MonoWAV/30MonoT4.wav,2,1,4,16,,,,,0,9,9,15,0,4,4,3,,,,,,,,,2,0.9514545259880833,,,076,001,2019_Aug_27_0905,MusicAffectPsychophysiology2019,3.0.5,60.13875044062406,
To what extent did the music make you feel ,TENDER,30MonoWAV/30MonoT4.wav,2,1,4,16,,,,,0,9,9,15,0,5,5,10,,,,,,,,,1,3.5078771190019324,,,076,001,2019_Aug_27_0905,MusicAffectPsychophysiology2019,3.0.5,60.13875044062406,
To what extent did the music make you feel ,HAPPY,30MonoWAV/30MonoT4.wav,2,1,4,16,,,,,0,9,9,15,0,6,6,6,,,,,,,,,4,1.1370647120056674,,,076,001,2019_Aug_27_0905,MusicAffectPsychophysiology2019,3.0.5,60.13875044062406,
To what extent did the music make you feel ,SCARED,30MonoWAV/30MonoT4.wav,2,1,4,16,,,,,0,9,9,15,0,7,7,11,,,,,,,,,1,0.8738039640011266,,,076,001,2019_Aug_27_0905,MusicAffectPsychophysiology2019,3.0.5,60.13875044062406,
To what extent did the music make you feel ,ACTIVE,30MonoWAV/30MonoT4.wav,2,1,4,16,,,,,0,9,9,15,0,8,8,9,,,,,,,,,4,1.1174501179921208,,,076,001,2019_Aug_27_0905,MusicAffectPsychophysiology2019,3.0.5,60.13875044062406,
To what extent did the music make you feel ,SAD,30MonoWAV/30MonoT4.wav,2,1,4,16,,,,,0,9,9,15,0,9,9,0,,,,,,,,,1,0.7035330670041731,,,076,001,2019_Aug_27_0905,MusicAffectPsychophysiology2019,3.0.5,60.13875044062406,
To what extent did the music make you feel ,ANGRY,30MonoWAV/30MonoT4.wav,2,1,4,16,,,,,0,9,9,15,0,10,10,2,,,,,,,,,1,0.8024878559954232,,,076,001,2019_Aug_27_0905,MusicAffectPsychophysiology2019,3.0.5,60.13875044062406,
To what extent did the music make you feel ,ALERT,30MonoWAV/30MonoT4.wav,2,1,4,16,,,,,0,9,9,15,0,11,11,8,,,,,,,,,1,0.6579565419961,,,076,001,2019_Aug_27_0905,MusicAffectPsychophysiology2019,3.0.5,60.13875044062406,
,,30MonoWAV/30MonoT4.wav,2,1,4,16,,,,,0,9,9,15,,,,,,,,,,,,,,,,,076,001,2019_Aug_27_0905,MusicAffectPsychophysiology2019,3.0.5,60.13875044062406,
To what extent did the music make you feel ,ANGRY,30MonoWAV/30MonoF4.wav,1,2,2,4,,,,,0,10,10,3,0,0,0,2,,,3,2.883572364997235,3,1.4021733720001066,3,0.7831343610014301,2,3.1867293199902633,,,076,001,2019_Aug_27_0905,MusicAffectPsychophysiology2019,3.0.5,60.13875044062406,
To what extent did the music make you feel ,ACTIVE,30MonoWAV/30MonoF4.wav,1,2,2,4,,,,,0,10,10,3,0,1,1,9,,,,,,,,,2,2.4694081409979844,,,076,001,2019_Aug_27_0905,MusicAffectPsychophysiology2019,3.0.5,60.13875044062406,
To what extent did the music make you feel ,EXCITED,30MonoWAV/30MonoF4.wav,1,2,2,4,,,,,0,10,10,3,0,2,2,7,,,,,,,,,1,1.1016951640049228,,,076,001,2019_Aug_27_0905,MusicAffectPsychophysiology2019,3.0.5,60.13875044062406,
To what extent did the music make you feel ,ANXIOUS ,30MonoWAV/30MonoF4.wav,1,2,2,4,,,,,0,10,10,3,0,3,3,1,,,,,,,,,3,1.720383622989175,,,076,001,2019_Aug_27_0905,MusicAffectPsychophysiology2019,3.0.5,60.13875044062406,
To what extent did the music make you feel ,TENDER,30MonoWAV/30MonoF4.wav,1,2,2,4,,,,,0,10,10,3,0,4,4,10,,,,,,,,,2,0.9171141249971697,,,076,001,2019_Aug_27_0905,MusicAffectPsychophysiology2019,3.0.5,60.13875044062406,
To what extent did the music make you feel ,GUILTY,30MonoWAV/30MonoF4.wav,1,2,2,4,,,,,0,10,10,3,0,5,5,5,,,,,,,,,3,1.8370066230127122,,,076,001,2019_Aug_27_0905,MusicAffectPsychophysiology2019,3.0.5,60.13875044062406,
To what extent did the music make you feel ,ALERT,30MonoWAV/30MonoF4.wav,1,2,2,4,,,,,0,10,10,3,0,6,6,8,,,,,,,,,4,1.5363188169867499,,,076,001,2019_Aug_27_0905,MusicAffectPsychophysiology2019,3.0.5,60.13875044062406,
To what extent did the music make you feel ,ASHAMED,30MonoWAV/30MonoF4.wav,1,2,2,4,,,,,0,10,10,3,0,7,7,4,,,,,,,,,3,1.0546276469976874,,,076,001,2019_Aug_27_0905,MusicAffectPsychophysiology2019,3.0.5,60.13875044062406,
To what extent did the music make you feel ,HAPPY,30MonoWAV/30MonoF4.wav,1,2,2,4,,,,,0,10,10,3,0,8,8,6,,,,,,,,,1,1.0034101830096915,,,076,001,2019_Aug_27_0905,MusicAffectPsychophysiology2019,3.0.5,60.13875044062406,
To what extent did the music make you feel ,SAD,30MonoWAV/30MonoF4.wav,1,2,2,4,,,,,0,10,10,3,0,9,9,0,,,,,,,,,1,1.1529743520077318,,,076,001,2019_Aug_27_0905,MusicAffectPsychophysiology2019,3.0.5,60.13875044062406,
To what extent did the music make you feel ,FRUSTRATED,30MonoWAV/30MonoF4.wav,1,2,2,4,,,,,0,10,10,3,0,10,10,3,,,,,,,,,3,1.186416846991051,,,076,001,2019_Aug_27_0905,MusicAffectPsychophysiology2019,3.0.5,60.13875044062406,
To what extent did the music make you feel ,SCARED,30MonoWAV/30MonoF4.wav,1,2,2,4,,,,,0,10,10,3,0,11,11,11,,,,,,,,,3,1.1178063619881868,,,076,001,2019_Aug_27_0905,MusicAffectPsychophysiology2019,3.0.5,60.13875044062406,
,,30MonoWAV/30MonoF4.wav,1,2,2,4,,,,,0,10,10,3,,,,,,,,,,,,,,,,,076,001,2019_Aug_27_0905,MusicAffectPsychophysiology2019,3.0.5,60.13875044062406,
To what extent did the music make you feel ,FRUSTRATED,30MonoWAV/30MonoS1.wav,1,1,3,9,,,,,0,11,11,8,0,0,0,3,,,3,2.137244286001078,3,0.10384174498904031,3,1.4195285349996993,2,2.136810398005764,,,076,001,2019_Aug_27_0905,MusicAffectPsychophysiology2019,3.0.5,60.13875044062406,
To what extent did the music make you feel ,ACTIVE,30MonoWAV/30MonoS1.wav,1,1,3,9,,,,,0,11,11,8,0,1,1,9,,,,,,,,,1,0.7443997560039861,,,076,001,2019_Aug_27_0905,MusicAffectPsychophysiology2019,3.0.5,60.13875044062406,
To what extent did the music make you feel ,ANXIOUS ,30MonoWAV/30MonoS1.wav,1,1,3,9,,,,,0,11,11,8,0,2,2,1,,,,,,,,,3,1.6218880579981487,,,076,001,2019_Aug_27_0905,MusicAffectPsychophysiology2019,3.0.5,60.13875044062406,
To what extent did the music make you feel ,EXCITED,30MonoWAV/30MonoS1.wav,1,1,3,9,,,,,0,11,11,8,0,3,3,7,,,,,,,,,1,0.8288593039906118,,,076,001,2019_Aug_27_0905,MusicAffectPsychophysiology2019,3.0.5,60.13875044062406,
To what extent did the music make you feel ,ASHAMED,30MonoWAV/30MonoS1.wav,1,1,3,9,,,,,0,11,11,8,0,4,4,4,,,,,,,,,2,0.8609236710035475,,,076,001,2019_Aug_27_0905,MusicAffectPsychophysiology2019,3.0.5,60.13875044062406,
To what extent did the music make you feel ,HAPPY,30MonoWAV/30MonoS1.wav,1,1,3,9,,,,,0,11,11,8,0,5,5,6,,,,,,,,,1,0.7048407919937745,,,076,001,2019_Aug_27_0905,MusicAffectPsychophysiology2019,3.0.5,60.13875044062406,
To what extent did the music make you feel ,GUILTY,30MonoWAV/30MonoS1.wav,1,1,3,9,,,,,0,11,11,8,0,6,6,5,,,,,,,,,2,1.3169739279983332,,,076,001,2019_Aug_27_0905,MusicAffectPsychophysiology2019,3.0.5,60.13875044062406,
To what extent did the music make you feel ,TENDER,30MonoWAV/30MonoS1.wav,1,1,3,9,,,,,0,11,11,8,0,7,7,10,,,,,,,,,1,1.0368768500047736,,,076,001,2019_Aug_27_0905,MusicAffectPsychophysiology2019,3.0.5,60.13875044062406,
To what extent did the music make you feel ,SCARED,30MonoWAV/30MonoS1.wav,1,1,3,9,,,,,0,11,11,8,0,8,8,11,,,,,,,,,1,1.493236315989634,,,076,001,2019_Aug_27_0905,MusicAffectPsychophysiology2019,3.0.5,60.13875044062406,
To what extent did the music make you feel ,SAD,30MonoWAV/30MonoS1.wav,1,1,3,9,,,,,0,11,11,8,0,9,9,0,,,,,,,,,3,1.043417306005722,,,076,001,2019_Aug_27_0905,MusicAffectPsychophysiology2019,3.0.5,60.13875044062406,
To what extent did the music make you feel ,ALERT,30MonoWAV/30MonoS1.wav,1,1,3,9,,,,,0,11,11,8,0,10,10,8,,,,,,,,,2,0.7371597949968418,,,076,001,2019_Aug_27_0905,MusicAffectPsychophysiology2019,3.0.5,60.13875044062406,
To what extent did the music make you feel ,ANGRY,30MonoWAV/30MonoS1.wav,1,1,3,9,,,,,0,11,11,8,0,11,11,2,,,,,,,,,1,0.5899746900104219,,,076,001,2019_Aug_27_0905,MusicAffectPsychophysiology2019,3.0.5,60.13875044062406,
,,30MonoWAV/30MonoS1.wav,1,1,3,9,,,,,0,11,11,8,,,,,,,,,,,,,,,,,076,001,2019_Aug_27_0905,MusicAffectPsychophysiology2019,3.0.5,60.13875044062406,
To what extent did the music make you feel ,HAPPY,30MonoWAV/30MonoT1.wav,2,1,4,13,,,,,0,12,12,12,0,0,0,6,,,3,1.4535801239981083,3,0.43804583900782745,3,0.5209628510056064,3,1.7062106319935992,,,076,001,2019_Aug_27_0905,MusicAffectPsychophysiology2019,3.0.5,60.13875044062406,
To what extent did the music make you feel ,ACTIVE,30MonoWAV/30MonoT1.wav,2,1,4,13,,,,,0,12,12,12,0,1,1,9,,,,,,,,,3,0.9376267500047106,,,076,001,2019_Aug_27_0905,MusicAffectPsychophysiology2019,3.0.5,60.13875044062406,
To what extent did the music make you feel ,ANGRY,30MonoWAV/30MonoT1.wav,2,1,4,13,,,,,0,12,12,12,0,2,2,2,,,,,,,,,1,0.9706103810021887,,,076,001,2019_Aug_27_0905,MusicAffectPsychophysiology2019,3.0.5,60.13875044062406,
To what extent did the music make you feel ,GUILTY,30MonoWAV/30MonoT1.wav,2,1,4,13,,,,,0,12,12,12,0,3,3,5,,,,,,,,,1,0.7204907069972251,,,076,001,2019_Aug_27_0905,MusicAffectPsychophysiology2019,3.0.5,60.13875044062406,
To what extent did the music make you feel ,TENDER,30MonoWAV/30MonoT1.wav,2,1,4,13,,,,,0,12,12,12,0,4,4,10,,,,,,,,,2,1.438100471990765,,,076,001,2019_Aug_27_0905,MusicAffectPsychophysiology2019,3.0.5,60.13875044062406,
To what extent did the music make you feel ,ALERT,30MonoWAV/30MonoT1.wav,2,1,4,13,,,,,0,12,12,12,0,5,5,8,,,,,,,,,1,0.7674335810006596,,,076,001,2019_Aug_27_0905,MusicAffectPsychophysiology2019,3.0.5,60.13875044062406,
To what extent did the music make you feel ,ANXIOUS ,30MonoWAV/30MonoT1.wav,2,1,4,13,,,,,0,12,12,12,0,6,6,1,,,,,,,,,1,0.8862308880052296,,,076,001,2019_Aug_27_0905,MusicAffectPsychophysiology2019,3.0.5,60.13875044062406,
To what extent did the music make you feel ,SCARED,30MonoWAV/30MonoT1.wav,2,1,4,13,,,,,0,12,12,12,0,7,7,11,,,,,,,,,1,0.4885801909986185,,,076,001,2019_Aug_27_0905,MusicAffectPsychophysiology2019,3.0.5,60.13875044062406,
To what extent did the music make you feel ,FRUSTRATED,30MonoWAV/30MonoT1.wav,2,1,4,13,,,,,0,12,12,12,0,8,8,3,,,,,,,,,1,0.5208475359977456,,,076,001,2019_Aug_27_0905,MusicAffectPsychophysiology2019,3.0.5,60.13875044062406,
To what extent did the music make you feel ,SAD,30MonoWAV/30MonoT1.wav,2,1,4,13,,,,,0,12,12,12,0,9,9,0,,,,,,,,,1,0.6195214320032392,,,076,001,2019_Aug_27_0905,MusicAffectPsychophysiology2019,3.0.5,60.13875044062406,
To what extent did the music make you feel ,EXCITED,30MonoWAV/30MonoT1.wav,2,1,4,13,,,,,0,12,12,12,0,10,10,7,,,,,,,,,2,0.9537145520007471,,,076,001,2019_Aug_27_0905,MusicAffectPsychophysiology2019,3.0.5,60.13875044062406,
To what extent did the music make you feel ,ASHAMED,30MonoWAV/30MonoT1.wav,2,1,4,13,,,,,0,12,12,12,0,11,11,4,,,,,,,,,1,0.7196250740089454,,,076,001,2019_Aug_27_0905,MusicAffectPsychophysiology2019,3.0.5,60.13875044062406,
,,30MonoWAV/30MonoT1.wav,2,1,4,13,,,,,0,12,12,12,,,,,,,,,,,,,,,,,076,001,2019_Aug_27_0905,MusicAffectPsychophysiology2019,3.0.5,60.13875044062406,
To what extent did the music make you feel ,SCARED,30MonoWAV/30MonoH4.wav,2,2,1,8,,,,,0,13,13,7,0,0,0,11,,,4,1.305420345001039,4,0.12073068000609055,4,0.7695425920101115,1,1.3402686689951224,,,076,001,2019_Aug_27_0905,MusicAffectPsychophysiology2019,3.0.5,60.13875044062406,
To what extent did the music make you feel ,ANXIOUS ,30MonoWAV/30MonoH4.wav,2,2,1,8,,,,,0,13,13,7,0,1,1,1,,,,,,,,,1,0.8542632940079784,,,076,001,2019_Aug_27_0905,MusicAffectPsychophysiology2019,3.0.5,60.13875044062406,
To what extent did the music make you feel ,TENDER,30MonoWAV/30MonoH4.wav,2,2,1,8,,,,,0,13,13,7,0,2,2,10,,,,,,,,,1,0.5198512079950888,,,076,001,2019_Aug_27_0905,MusicAffectPsychophysiology2019,3.0.5,60.13875044062406,
To what extent did the music make you feel ,EXCITED,30MonoWAV/30MonoH4.wav,2,2,1,8,,,,,0,13,13,7,0,3,3,7,,,,,,,,,4,1.215873892986565,,,076,001,2019_Aug_27_0905,MusicAffectPsychophysiology2019,3.0.5,60.13875044062406,
To what extent did the music make you feel ,HAPPY,30MonoWAV/30MonoH4.wav,2,2,1,8,,,,,0,13,13,7,0,4,4,6,,,,,,,,,4,0.5538491779880133,,,076,001,2019_Aug_27_0905,MusicAffectPsychophysiology2019,3.0.5,60.13875044062406,
To what extent did the music make you feel ,ACTIVE,30MonoWAV/30MonoH4.wav,2,2,1,8,,,,,0,13,13,7,0,5,5,9,,,,,,,,,4,1.0988332929991884,,,076,001,2019_Aug_27_0905,MusicAffectPsychophysiology2019,3.0.5,60.13875044062406,
To what extent did the music make you feel ,SAD,30MonoWAV/30MonoH4.wav,2,2,1,8,,,,,0,13,13,7,0,6,6,0,,,,,,,,,1,0.7867384939891053,,,076,001,2019_Aug_27_0905,MusicAffectPsychophysiology2019,3.0.5,60.13875044062406,
To what extent did the music make you feel ,ALERT,30MonoWAV/30MonoH4.wav,2,2,1,8,,,,,0,13,13,7,0,7,7,8,,,,,,,,,1,0.5660525279963622,,,076,001,2019_Aug_27_0905,MusicAffectPsychophysiology2019,3.0.5,60.13875044062406,
To what extent did the music make you feel ,ASHAMED,30MonoWAV/30MonoH4.wav,2,2,1,8,,,,,0,13,13,7,0,8,8,4,,,,,,,,,1,0.48411829699762166,,,076,001,2019_Aug_27_0905,MusicAffectPsychophysiology2019,3.0.5,60.13875044062406,
To what extent did the music make you feel ,ANGRY,30MonoWAV/30MonoH4.wav,2,2,1,8,,,,,0,13,13,7,0,9,9,2,,,,,,,,,1,0.41948710900032893,,,076,001,2019_Aug_27_0905,MusicAffectPsychophysiology2019,3.0.5,60.13875044062406,
To what extent did the music make you feel ,GUILTY,30MonoWAV/30MonoH4.wav,2,2,1,8,,,,,0,13,13,7,0,10,10,5,,,,,,,,,1,0.4877090379886795,,,076,001,2019_Aug_27_0905,MusicAffectPsychophysiology2019,3.0.5,60.13875044062406,
To what extent did the music make you feel ,FRUSTRATED,30MonoWAV/30MonoH4.wav,2,2,1,8,,,,,0,13,13,7,0,11,11,3,,,,,,,,,1,0.463976458995603,,,076,001,2019_Aug_27_0905,MusicAffectPsychophysiology2019,3.0.5,60.13875044062406,
,,30MonoWAV/30MonoH4.wav,2,2,1,8,,,,,0,13,13,7,,,,,,,,,,,,,,,,,076,001,2019_Aug_27_0905,MusicAffectPsychophysiology2019,3.0.5,60.13875044062406,
To what extent did the music make you feel ,HAPPY,30MonoWAV/30MonoH2.wav,2,2,1,6,,,,,0,14,14,5,0,0,0,6,,,3,2.7710749179968843,4,0.9867422030074522,3,0.7864689470006851,3,1.3755814519972773,,,076,001,2019_Aug_27_0905,MusicAffectPsychophysiology2019,3.0.5,60.13875044062406,
To what extent did the music make you feel ,SAD,30MonoWAV/30MonoH2.wav,2,2,1,6,,,,,0,14,14,5,0,1,1,0,,,,,,,,,1,1.0878356200119015,,,076,001,2019_Aug_27_0905,MusicAffectPsychophysiology2019,3.0.5,60.13875044062406,
To what extent did the music make you feel ,ANGRY,30MonoWAV/30MonoH2.wav,2,2,1,6,,,,,0,14,14,5,0,2,2,2,,,,,,,,,1,0.6925196299998788,,,076,001,2019_Aug_27_0905,MusicAffectPsychophysiology2019,3.0.5,60.13875044062406,
To what extent did the music make you feel ,GUILTY,30MonoWAV/30MonoH2.wav,2,2,1,6,,,,,0,14,14,5,0,3,3,5,,,,,,,,,1,0.5201218529982725,,,076,001,2019_Aug_27_0905,MusicAffectPsychophysiology2019,3.0.5,60.13875044062406,
To what extent did the music make you feel ,SCARED,30MonoWAV/30MonoH2.wav,2,2,1,6,,,,,0,14,14,5,0,4,4,11,,,,,,,,,1,0.5948192079958972,,,076,001,2019_Aug_27_0905,MusicAffectPsychophysiology2019,3.0.5,60.13875044062406,
To what extent did the music make you feel ,ALERT,30MonoWAV/30MonoH2.wav,2,2,1,6,,,,,0,14,14,5,0,5,5,8,,,,,,,,,1,0.5428587710048305,,,076,001,2019_Aug_27_0905,MusicAffectPsychophysiology2019,3.0.5,60.13875044062406,
To what extent did the music make you feel ,EXCITED,30MonoWAV/30MonoH2.wav,2,2,1,6,,,,,0,14,14,5,0,6,6,7,,,,,,,,,3,1.1096825529966736,,,076,001,2019_Aug_27_0905,MusicAffectPsychophysiology2019,3.0.5,60.13875044062406,
To what extent did the music make you feel ,ASHAMED,30MonoWAV/30MonoH2.wav,2,2,1,6,,,,,0,14,14,5,0,7,7,4,,,,,,,,,1,0.9091872949938988,,,076,001,2019_Aug_27_0905,MusicAffectPsychophysiology2019,3.0.5,60.13875044062406,
To what extent did the music make you feel ,FRUSTRATED,30MonoWAV/30MonoH2.wav,2,2,1,6,,,,,0,14,14,5,0,8,8,3,,,,,,,,,1,0.49264685799425934,,,076,001,2019_Aug_27_0905,MusicAffectPsychophysiology2019,3.0.5,60.13875044062406,
To what extent did the music make you feel ,ACTIVE,30MonoWAV/30MonoH2.wav,2,2,1,6,,,,,0,14,14,5,0,9,9,9,,,,,,,,,3,1.0751608720020158,,,076,001,2019_Aug_27_0905,MusicAffectPsychophysiology2019,3.0.5,60.13875044062406,
To what extent did the music make you feel ,ANXIOUS ,30MonoWAV/30MonoH2.wav,2,2,1,6,,,,,0,14,14,5,0,10,10,1,,,,,,,,,1,0.7023991019959794,,,076,001,2019_Aug_27_0905,MusicAffectPsychophysiology2019,3.0.5,60.13875044062406,
To what extent did the music make you feel ,TENDER,30MonoWAV/30MonoH2.wav,2,2,1,6,,,,,0,14,14,5,0,11,11,10,,,,,,,,,1,0.6536531940073473,,,076,001,2019_Aug_27_0905,MusicAffectPsychophysiology2019,3.0.5,60.13875044062406,
,,30MonoWAV/30MonoH2.wav,2,2,1,6,,,,,0,14,14,5,,,,,,,,,,,,,,,,,076,001,2019_Aug_27_0905,MusicAffectPsychophysiology2019,3.0.5,60.13875044062406,
To what extent did the music make you feel ,SCARED,30MonoWAV/30MonoT3.wav,2,1,4,15,,,,,0,15,15,14,0,0,0,11,,,3,1.8524363660108065,3,4.917029274991364,3,0.9364599529944826,1,1.6534147689962992,,,076,001,2019_Aug_27_0905,MusicAffectPsychophysiology2019,3.0.5,60.13875044062406,
To what extent did the music make you feel ,ALERT,30MonoWAV/30MonoT3.wav,2,1,4,15,,,,,0,15,15,14,0,1,1,8,,,,,,,,,1,0.6862174090056214,,,076,001,2019_Aug_27_0905,MusicAffectPsychophysiology2019,3.0.5,60.13875044062406,
To what extent did the music make you feel ,ANGRY,30MonoWAV/30MonoT3.wav,2,1,4,15,,,,,0,15,15,14,0,2,2,2,,,,,,,,,1,0.5365627660066821,,,076,001,2019_Aug_27_0905,MusicAffectPsychophysiology2019,3.0.5,60.13875044062406,
To what extent did the music make you feel ,GUILTY,30MonoWAV/30MonoT3.wav,2,1,4,15,,,,,0,15,15,14,0,3,3,5,,,,,,,,,1,0.7364669910020893,,,076,001,2019_Aug_27_0905,MusicAffectPsychophysiology2019,3.0.5,60.13875044062406,
To what extent did the music make you feel ,EXCITED,30MonoWAV/30MonoT3.wav,2,1,4,15,,,,,0,15,15,14,0,4,4,7,,,,,,,,,2,1.7886363260040525,,,076,001,2019_Aug_27_0905,MusicAffectPsychophysiology2019,3.0.5,60.13875044062406,
To what extent did the music make you feel ,ACTIVE,30MonoWAV/30MonoT3.wav,2,1,4,15,,,,,0,15,15,14,0,5,5,9,,,,,,,,,2,1.0529370150034083,,,076,001,2019_Aug_27_0905,MusicAffectPsychophysiology2019,3.0.5,60.13875044062406,
To what extent did the music make you feel ,SAD,30MonoWAV/30MonoT3.wav,2,1,4,15,,,,,0,15,15,14,0,6,6,0,,,,,,,,,3,1.2366100170038408,,,076,001,2019_Aug_27_0905,MusicAffectPsychophysiology2019,3.0.5,60.13875044062406,
To what extent did the music make you feel ,ANXIOUS ,30MonoWAV/30MonoT3.wav,2,1,4,15,,,,,0,15,15,14,0,7,7,1,,,,,,,,,3,1.2037330849998398,,,076,001,2019_Aug_27_0905,MusicAffectPsychophysiology2019,3.0.5,60.13875044062406,
To what extent did the music make you feel ,ASHAMED,30MonoWAV/30MonoT3.wav,2,1,4,15,,,,,0,15,15,14,0,8,8,4,,,,,,,,,2,0.6525174179987516,,,076,001,2019_Aug_27_0905,MusicAffectPsychophysiology2019,3.0.5,60.13875044062406,
To what extent did the music make you feel ,TENDER,30MonoWAV/30MonoT3.wav,2,1,4,15,,,,,0,15,15,14,0,9,9,10,,,,,,,,,1,0.9033797250012867,,,076,001,2019_Aug_27_0905,MusicAffectPsychophysiology2019,3.0.5,60.13875044062406,
To what extent did the music make you feel ,FRUSTRATED,30MonoWAV/30MonoT3.wav,2,1,4,15,,,,,0,15,15,14,0,10,10,3,,,,,,,,,1,1.002893562996178,,,076,001,2019_Aug_27_0905,MusicAffectPsychophysiology2019,3.0.5,60.13875044062406,
To what extent did the music make you feel ,HAPPY,30MonoWAV/30MonoT3.wav,2,1,4,15,,,,,0,15,15,14,0,11,11,6,,,,,,,,,2,1.2351225310121663,,,076,001,2019_Aug_27_0905,MusicAffectPsychophysiology2019,3.0.5,60.13875044062406,
,,30MonoWAV/30MonoT3.wav,2,1,4,15,,,,,0,15,15,14,,,,,,,,,,,,,,,,,076,001,2019_Aug_27_0905,MusicAffectPsychophysiology2019,3.0.5,60.13875044062406,
To what extent did the music make you feel ,ANXIOUS ,30MonoWAV/30MonoH3.wav,2,2,1,7,,,,,1,0,16,6,0,0,0,1,,,4,2.771206859993981,4,0.7039809509878978,4,0.7373731990082888,1,1.621312051996938,,,076,001,2019_Aug_27_0905,MusicAffectPsychophysiology2019,3.0.5,60.13875044062406,
To what extent did the music make you feel ,TENDER,30MonoWAV/30MonoH3.wav,2,2,1,7,,,,,1,0,16,6,0,1,1,10,,,,,,,,,1,0.5784703679964878,,,076,001,2019_Aug_27_0905,MusicAffectPsychophysiology2019,3.0.5,60.13875044062406,
To what extent did the music make you feel ,FRUSTRATED,30MonoWAV/30MonoH3.wav,2,2,1,7,,,,,1,0,16,6,0,2,2,3,,,,,,,,,1,3.5479914079915034,,,076,001,2019_Aug_27_0905,MusicAffectPsychophysiology2019,3.0.5,60.13875044062406,
To what extent did the music make you feel ,ALERT,30MonoWAV/30MonoH3.wav,2,2,1,7,,,,,1,0,16,6,0,3,3,8,,,,,,,,,1,0.6304872530017747,,,076,001,2019_Aug_27_0905,MusicAffectPsychophysiology2019,3.0.5,60.13875044062406,
To what extent did the music make you feel ,ANGRY,30MonoWAV/30MonoH3.wav,2,2,1,7,,,,,1,0,16,6,0,4,4,2,,,,,,,,,1,1.120729988993844,,,076,001,2019_Aug_27_0905,MusicAffectPsychophysiology2019,3.0.5,60.13875044062406,
To what extent did the music make you feel ,SCARED,30MonoWAV/30MonoH3.wav,2,2,1,7,,,,,1,0,16,6,0,5,5,11,,,,,,,,,1,0.5301196189975599,,,076,001,2019_Aug_27_0905,MusicAffectPsychophysiology2019,3.0.5,60.13875044062406,
To what extent did the music make you feel ,ACTIVE,30MonoWAV/30MonoH3.wav,2,2,1,7,,,,,1,0,16,6,0,6,6,9,,,,,,,,,4,1.653453184000682,,,076,001,2019_Aug_27_0905,MusicAffectPsychophysiology2019,3.0.5,60.13875044062406,
To what extent did the music make you feel ,HAPPY,30MonoWAV/30MonoH3.wav,2,2,1,7,,,,,1,0,16,6,0,7,7,6,,,,,,,,,4,0.8193348299973877,,,076,001,2019_Aug_27_0905,MusicAffectPsychophysiology2019,3.0.5,60.13875044062406,
To what extent did the music make you feel ,SAD,30MonoWAV/30MonoH3.wav,2,2,1,7,,,,,1,0,16,6,0,8,8,0,,,,,,,,,4,0.603626398005872,,,076,001,2019_Aug_27_0905,MusicAffectPsychophysiology2019,3.0.5,60.13875044062406,
To what extent did the music make you feel ,EXCITED,30MonoWAV/30MonoH3.wav,2,2,1,7,,,,,1,0,16,6,0,9,9,7,,,,,,,,,4,1.5962957860028837,,,076,001,2019_Aug_27_0905,MusicAffectPsychophysiology2019,3.0.5,60.13875044062406,
To what extent did the music make you feel ,GUILTY,30MonoWAV/30MonoH3.wav,2,2,1,7,,,,,1,0,16,6,0,10,10,5,,,,,,,,,1,1.518925678989035,,,076,001,2019_Aug_27_0905,MusicAffectPsychophysiology2019,3.0.5,60.13875044062406,
To what extent did the music make you feel ,ASHAMED,30MonoWAV/30MonoH3.wav,2,2,1,7,,,,,1,0,16,6,0,11,11,4,,,,,,,,,1,0.812607616011519,,,076,001,2019_Aug_27_0905,MusicAffectPsychophysiology2019,3.0.5,60.13875044062406,
,,30MonoWAV/30MonoH3.wav,2,2,1,7,,,,,1,0,16,6,,,,,,,,,,,,,,,,,076,001,2019_Aug_27_0905,MusicAffectPsychophysiology2019,3.0.5,60.13875044062406,
To what extent did the music make you feel ,ANXIOUS ,30MonoWAV/30MonoS4.wav,1,1,3,12,,,,,1,1,17,11,0,0,0,1,,,3,2.7032839659950696,3,1.0569052399951033,3,0.853726472996641,3,1.5577655020024395,,,076,001,2019_Aug_27_0905,MusicAffectPsychophysiology2019,3.0.5,60.13875044062406,
To what extent did the music make you feel ,ANGRY,30MonoWAV/30MonoS4.wav,1,1,3,12,,,,,1,1,17,11,0,1,1,2,,,,,,,,,1,0.9738871440058574,,,076,001,2019_Aug_27_0905,MusicAffectPsychophysiology2019,3.0.5,60.13875044062406,
To what extent did the music make you feel ,ACTIVE,30MonoWAV/30MonoS4.wav,1,1,3,12,,,,,1,1,17,11,0,2,2,9,,,,,,,,,1,1.0034864260087488,,,076,001,2019_Aug_27_0905,MusicAffectPsychophysiology2019,3.0.5,60.13875044062406,
To what extent did the music make you feel ,EXCITED,30MonoWAV/30MonoS4.wav,1,1,3,12,,,,,1,1,17,11,0,3,3,7,,,,,,,,,1,0.8410396429972025,,,076,001,2019_Aug_27_0905,MusicAffectPsychophysiology2019,3.0.5,60.13875044062406,
To what extent did the music make you feel ,FRUSTRATED,30MonoWAV/30MonoS4.wav,1,1,3,12,,,,,1,1,17,11,0,4,4,3,,,,,,,,,2,1.4244690490013454,,,076,001,2019_Aug_27_0905,MusicAffectPsychophysiology2019,3.0.5,60.13875044062406,
To what extent did the music make you feel ,ALERT,30MonoWAV/30MonoS4.wav,1,1,3,12,,,,,1,1,17,11,0,5,5,8,,,,,,,,,1,1.0076140300079715,,,076,001,2019_Aug_27_0905,MusicAffectPsychophysiology2019,3.0.5,60.13875044062406,
To what extent did the music make you feel ,GUILTY,30MonoWAV/30MonoS4.wav,1,1,3,12,,,,,1,1,17,11,0,6,6,5,,,,,,,,,2,0.9203475179965608,,,076,001,2019_Aug_27_0905,MusicAffectPsychophysiology2019,3.0.5,60.13875044062406,
To what extent did the music make you feel ,SCARED,30MonoWAV/30MonoS4.wav,1,1,3,12,,,,,1,1,17,11,0,7,7,11,,,,,,,,,4,1.3905536889942596,,,076,001,2019_Aug_27_0905,MusicAffectPsychophysiology2019,3.0.5,60.13875044062406,
To what extent did the music make you feel ,HAPPY,30MonoWAV/30MonoS4.wav,1,1,3,12,,,,,1,1,17,11,0,8,8,6,,,,,,,,,1,0.8872430519986665,,,076,001,2019_Aug_27_0905,MusicAffectPsychophysiology2019,3.0.5,60.13875044062406,
To what extent did the music make you feel ,SAD,30MonoWAV/30MonoS4.wav,1,1,3,12,,,,,1,1,17,11,0,9,9,0,,,,,,,,,3,1.2041180740052368,,,076,001,2019_Aug_27_0905,MusicAffectPsychophysiology2019,3.0.5,60.13875044062406,
To what extent did the music make you feel ,ASHAMED,30MonoWAV/30MonoS4.wav,1,1,3,12,,,,,1,1,17,11,0,10,10,4,,,,,,,,,2,0.918562082995777,,,076,001,2019_Aug_27_0905,MusicAffectPsychophysiology2019,3.0.5,60.13875044062406,
To what extent did the music make you feel ,TENDER,30MonoWAV/30MonoS4.wav,1,1,3,12,,,,,1,1,17,11,0,11,11,10,,,,,,,,,1,0.7535758729936788,,,076,001,2019_Aug_27_0905,MusicAffectPsychophysiology2019,3.0.5,60.13875044062406,
,,30MonoWAV/30MonoS4.wav,1,1,3,12,,,,,1,1,17,11,,,,,,,,,,,,,,,,,076,001,2019_Aug_27_0905,MusicAffectPsychophysiology2019,3.0.5,60.13875044062406,
To what extent did the music make you feel ,SCARED,30MonoWAV/30MonoS1.wav,1,1,3,9,,,,,1,2,18,8,0,0,0,11,,,2,2.637361751010758,2,1.1676354090013774,3,0.4174302220053505,2,1.4198105380055495,,,076,001,2019_Aug_27_0905,MusicAffectPsychophysiology2019,3.0.5,60.13875044062406,
To what extent did the music make you feel ,TENDER,30MonoWAV/30MonoS1.wav,1,1,3,9,,,,,1,2,18,8,0,1,1,10,,,,,,,,,2,1.2845458529918687,,,076,001,2019_Aug_27_0905,MusicAffectPsychophysiology2019,3.0.5,60.13875044062406,
To what extent did the music make you feel ,EXCITED,30MonoWAV/30MonoS1.wav,1,1,3,9,,,,,1,2,18,8,0,2,2,7,,,,,,,,,2,1.102815965001355,,,076,001,2019_Aug_27_0905,MusicAffectPsychophysiology2019,3.0.5,60.13875044062406,
To what extent did the music make you feel ,ALERT,30MonoWAV/30MonoS1.wav,1,1,3,9,,,,,1,2,18,8,0,3,3,8,,,,,,,,,1,1.636545886998647,,,076,001,2019_Aug_27_0905,MusicAffectPsychophysiology2019,3.0.5,60.13875044062406,
To what extent did the music make you feel ,FRUSTRATED,30MonoWAV/30MonoS1.wav,1,1,3,9,,,,,1,2,18,8,0,4,4,3,,,,,,,,,1,0.8008206119993702,,,076,001,2019_Aug_27_0905,MusicAffectPsychophysiology2019,3.0.5,60.13875044062406,
To what extent did the music make you feel ,HAPPY,30MonoWAV/30MonoS1.wav,1,1,3,9,,,,,1,2,18,8,0,5,5,6,,,,,,,,,1,0.636899250006536,,,076,001,2019_Aug_27_0905,MusicAffectPsychophysiology2019,3.0.5,60.13875044062406,
To what extent did the music make you feel ,ANXIOUS ,30MonoWAV/30MonoS1.wav,1,1,3,9,,,,,1,2,18,8,0,6,6,1,,,,,,,,,3,1.3508589430130087,,,076,001,2019_Aug_27_0905,MusicAffectPsychophysiology2019,3.0.5,60.13875044062406,
To what extent did the music make you feel ,ACTIVE,30MonoWAV/30MonoS1.wav,1,1,3,9,,,,,1,2,18,8,0,7,7,9,,,,,,,,,1,0.6334572470077546,,,076,001,2019_Aug_27_0905,MusicAffectPsychophysiology2019,3.0.5,60.13875044062406,
To what extent did the music make you feel ,SAD,30MonoWAV/30MonoS1.wav,1,1,3,9,,,,,1,2,18,8,0,8,8,0,,,,,,,,,3,0.967614412002149,,,076,001,2019_Aug_27_0905,MusicAffectPsychophysiology2019,3.0.5,60.13875044062406,
To what extent did the music make you feel ,ANGRY,30MonoWAV/30MonoS1.wav,1,1,3,9,,,,,1,2,18,8,0,9,9,2,,,,,,,,,1,0.6014790259941947,,,076,001,2019_Aug_27_0905,MusicAffectPsychophysiology2019,3.0.5,60.13875044062406,
To what extent did the music make you feel ,ASHAMED,30MonoWAV/30MonoS1.wav,1,1,3,9,,,,,1,2,18,8,0,10,10,4,,,,,,,,,1,0.8036138309980743,,,076,001,2019_Aug_27_0905,MusicAffectPsychophysiology2019,3.0.5,60.13875044062406,
To what extent did the music make you feel ,GUILTY,30MonoWAV/30MonoS1.wav,1,1,3,9,,,,,1,2,18,8,0,11,11,5,,,,,,,,,1,0.6491898520034738,,,076,001,2019_Aug_27_0905,MusicAffectPsychophysiology2019,3.0.5,60.13875044062406,
,,30MonoWAV/30MonoS1.wav,1,1,3,9,,,,,1,2,18,8,,,,,,,,,,,,,,,,,076,001,2019_Aug_27_0905,MusicAffectPsychophysiology2019,3.0.5,60.13875044062406,
To what extent did the music make you feel ,SAD,30MonoWAV/30MonoH4.wav,2,2,1,8,,,,,1,3,19,7,0,0,0,0,,,3,2.8533322619914543,3,0.2526478200015845,4,0.8541033929941477,1,1.3282181800022954,,,076,001,2019_Aug_27_0905,MusicAffectPsychophysiology2019,3.0.5,60.13875044062406,
To what extent did the music make you feel ,HAPPY,30MonoWAV/30MonoH4.wav,2,2,1,8,,,,,1,3,19,7,0,1,1,6,,,,,,,,,4,1.270462963002501,,,076,001,2019_Aug_27_0905,MusicAffectPsychophysiology2019,3.0.5,60.13875044062406,
To what extent did the music make you feel ,ALERT,30MonoWAV/30MonoH4.wav,2,2,1,8,,,,,1,3,19,7,0,2,2,8,,,,,,,,,1,0.9106671570043545,,,076,001,2019_Aug_27_0905,MusicAffectPsychophysiology2019,3.0.5,60.13875044062406,
To what extent did the music make you feel ,ACTIVE,30MonoWAV/30MonoH4.wav,2,2,1,8,,,,,1,3,19,7,0,3,3,9,,,,,,,,,4,1.0706201780121773,,,076,001,2019_Aug_27_0905,MusicAffectPsychophysiology2019,3.0.5,60.13875044062406,
To what extent did the music make you feel ,ASHAMED,30MonoWAV/30MonoH4.wav,2,2,1,8,,,,,1,3,19,7,0,4,4,4,,,,,,,,,1,0.9199203360039974,,,076,001,2019_Aug_27_0905,MusicAffectPsychophysiology2019,3.0.5,60.13875044062406,
To what extent did the music make you feel ,ANXIOUS ,30MonoWAV/30MonoH4.wav,2,2,1,8,,,,,1,3,19,7,0,5,5,1,,,,,,,,,1,0.8696002239885274,,,076,001,2019_Aug_27_0905,MusicAffectPsychophysiology2019,3.0.5,60.13875044062406,
To what extent did the music make you feel ,TENDER,30MonoWAV/30MonoH4.wav,2,2,1,8,,,,,1,3,19,7,0,6,6,10,,,,,,,,,3,1.1347841109964065,,,076,001,2019_Aug_27_0905,MusicAffectPsychophysiology2019,3.0.5,60.13875044062406,
To what extent did the music make you feel ,FRUSTRATED,30MonoWAV/30MonoH4.wav,2,2,1,8,,,,,1,3,19,7,0,7,7,3,,,,,,,,,1,0.8103294710017508,,,076,001,2019_Aug_27_0905,MusicAffectPsychophysiology2019,3.0.5,60.13875044062406,
To what extent did the music make you feel ,EXCITED,30MonoWAV/30MonoH4.wav,2,2,1,8,,,,,1,3,19,7,0,8,8,7,,,,,,,,,4,1.0356494159932481,,,076,001,2019_Aug_27_0905,MusicAffectPsychophysiology2019,3.0.5,60.13875044062406,
To what extent did the music make you feel ,ANGRY,30MonoWAV/30MonoH4.wav,2,2,1,8,,,,,1,3,19,7,0,9,9,2,,,,,,,,,1,0.7192647829942871,,,076,001,2019_Aug_27_0905,MusicAffectPsychophysiology2019,3.0.5,60.13875044062406,
To what extent did the music make you feel ,SCARED,30MonoWAV/30MonoH4.wav,2,2,1,8,,,,,1,3,19,7,0,10,10,11,,,,,,,,,1,0.6016554579982767,,,076,001,2019_Aug_27_0905,MusicAffectPsychophysiology2019,3.0.5,60.13875044062406,
To what extent did the music make you feel ,GUILTY,30MonoWAV/30MonoH4.wav,2,2,1,8,,,,,1,3,19,7,0,11,11,5,,,,,,,,,1,0.5575421620014822,,,076,001,2019_Aug_27_0905,MusicAffectPsychophysiology2019,3.0.5,60.13875044062406,
,,30MonoWAV/30MonoH4.wav,2,2,1,8,,,,,1,3,19,7,,,,,,,,,,,,,,,,,076,001,2019_Aug_27_0905,MusicAffectPsychophysiology2019,3.0.5,60.13875044062406,
To what extent did the music make you feel ,SCARED,30MonoWAV/30MonoS2.wav,1,1,3,10,,,,,1,4,20,9,0,0,0,11,,,3,2.718769439001335,2,2.1042310670018196,3,0.5198618979920866,2,1.7376768980029738,,,076,001,2019_Aug_27_0905,MusicAffectPsychophysiology2019,3.0.5,60.13875044062406,
To what extent did the music make you feel ,ASHAMED,30MonoWAV/30MonoS2.wav,1,1,3,10,,,,,1,4,20,9,0,1,1,4,,,,,,,,,1,1.1042593279998982,,,076,001,2019_Aug_27_0905,MusicAffectPsychophysiology2019,3.0.5,60.13875044062406,
To what extent did the music make you feel ,EXCITED,30MonoWAV/30MonoS2.wav,1,1,3,10,,,,,1,4,20,9,0,2,2,7,,,,,,,,,1,0.9045863679930335,,,076,001,2019_Aug_27_0905,MusicAffectPsychophysiology2019,3.0.5,60.13875044062406,
To what extent did the music make you feel ,SAD,30MonoWAV/30MonoS2.wav,1,1,3,10,,,,,1,4,20,9,0,3,3,0,,,,,,,,,4,1.4042269380006474,,,076,001,2019_Aug_27_0905,MusicAffectPsychophysiology2019,3.0.5,60.13875044062406,
To what extent did the music make you feel ,ANGRY,30MonoWAV/30MonoS2.wav,1,1,3,10,,,,,1,4,20,9,0,4,4,2,,,,,,,,,1,0.789228693000041,,,076,001,2019_Aug_27_0905,MusicAffectPsychophysiology2019,3.0.5,60.13875044062406,
To what extent did the music make you feel ,GUILTY,30MonoWAV/30MonoS2.wav,1,1,3,10,,,,,1,4,20,9,0,5,5,5,,,,,,,,,1,0.8872353420010768,,,076,001,2019_Aug_27_0905,MusicAffectPsychophysiology2019,3.0.5,60.13875044062406,
To what extent did the music make you feel ,FRUSTRATED,30MonoWAV/30MonoS2.wav,1,1,3,10,,,,,1,4,20,9,0,6,6,3,,,,,,,,,2,0.9542252749961335,,,076,001,2019_Aug_27_0905,MusicAffectPsychophysiology2019,3.0.5,60.13875044062406,
To what extent did the music make you feel ,HAPPY,30MonoWAV/30MonoS2.wav,1,1,3,10,,,,,1,4,20,9,0,7,7,6,,,,,,,,,1,0.6874140889995033,,,076,001,2019_Aug_27_0905,MusicAffectPsychophysiology2019,3.0.5,60.13875044062406,
To what extent did the music make you feel ,ANXIOUS ,30MonoWAV/30MonoS2.wav,1,1,3,10,,,,,1,4,20,9,0,8,8,1,,,,,,,,,4,1.403220230989973,,,076,001,2019_Aug_27_0905,MusicAffectPsychophysiology2019,3.0.5,60.13875044062406,
To what extent did the music make you feel ,ALERT,30MonoWAV/30MonoS2.wav,1,1,3,10,,,,,1,4,20,9,0,9,9,8,,,,,,,,,1,0.8532282130036037,,,076,001,2019_Aug_27_0905,MusicAffectPsychophysiology2019,3.0.5,60.13875044062406,
To what extent did the music make you feel ,TENDER,30MonoWAV/30MonoS2.wav,1,1,3,10,,,,,1,4,20,9,0,10,10,10,,,,,,,,,1,1.6366878980043111,,,076,001,2019_Aug_27_0905,MusicAffectPsychophysiology2019,3.0.5,60.13875044062406,
To what extent did the music make you feel ,ACTIVE,30MonoWAV/30MonoS2.wav,1,1,3,10,,,,,1,4,20,9,0,11,11,9,,,,,,,,,1,0.985399432000122,,,076,001,2019_Aug_27_0905,MusicAffectPsychophysiology2019,3.0.5,60.13875044062406,
,,30MonoWAV/30MonoS2.wav,1,1,3,10,,,,,1,4,20,9,,,,,,,,,,,,,,,,,076,001,2019_Aug_27_0905,MusicAffectPsychophysiology2019,3.0.5,60.13875044062406,
To what extent did the music make you feel ,FRUSTRATED,30MonoWAV/30MonoT1.wav,2,1,4,13,,,,,1,5,21,12,0,0,0,3,,,2,2.853516741990461,3,1.77054749999661,3,0.5672008319961606,1,1.3845586859970354,,,076,001,2019_Aug_27_0905,MusicAffectPsychophysiology2019,3.0.5,60.13875044062406,
To what extent did the music make you feel ,ASHAMED,30MonoWAV/30MonoT1.wav,2,1,4,13,,,,,1,5,21,12,0,1,1,4,,,,,,,,,1,0.9374242650083033,,,076,001,2019_Aug_27_0905,MusicAffectPsychophysiology2019,3.0.5,60.13875044062406,
To what extent did the music make you feel ,EXCITED,30MonoWAV/30MonoT1.wav,2,1,4,13,,,,,1,5,21,12,0,2,2,7,,,,,,,,,2,1.1161636120086769,,,076,001,2019_Aug_27_0905,MusicAffectPsychophysiology2019,3.0.5,60.13875044062406,
To what extent did the music make you feel ,ALERT,30MonoWAV/30MonoT1.wav,2,1,4,13,,,,,1,5,21,12,0,3,3,8,,,,,,,,,1,1.0149926579906605,,,076,001,2019_Aug_27_0905,MusicAffectPsychophysiology2019,3.0.5,60.13875044062406,
To what extent did the music make you feel ,GUILTY,30MonoWAV/30MonoT1.wav,2,1,4,13,,,,,1,5,21,12,0,4,4,5,,,,,,,,,1,1.0207256769936066,,,076,001,2019_Aug_27_0905,MusicAffectPsychophysiology2019,3.0.5,60.13875044062406,
To what extent did the music make you feel ,ANGRY,30MonoWAV/30MonoT1.wav,2,1,4,13,,,,,1,5,21,12,0,5,5,2,,,,,,,,,1,1.0203372959949775,,,076,001,2019_Aug_27_0905,MusicAffectPsychophysiology2019,3.0.5,60.13875044062406,
To what extent did the music make you feel ,TENDER,30MonoWAV/30MonoT1.wav,2,1,4,13,,,,,1,5,21,12,0,6,6,10,,,,,,,,,4,1.3505465700000059,,,076,001,2019_Aug_27_0905,MusicAffectPsychophysiology2019,3.0.5,60.13875044062406,
To what extent did the music make you feel ,SAD,30MonoWAV/30MonoT1.wav,2,1,4,13,,,,,1,5,21,12,0,7,7,0,,,,,,,,,3,1.265600294995238,,,076,001,2019_Aug_27_0905,MusicAffectPsychophysiology2019,3.0.5,60.13875044062406,
To what extent did the music make you feel ,SCARED,30MonoWAV/30MonoT1.wav,2,1,4,13,,,,,1,5,21,12,0,8,8,11,,,,,,,,,1,1.2639975839992985,,,076,001,2019_Aug_27_0905,MusicAffectPsychophysiology2019,3.0.5,60.13875044062406,
To what extent did the music make you feel ,ACTIVE,30MonoWAV/30MonoT1.wav,2,1,4,13,,,,,1,5,21,12,0,9,9,9,,,,,,,,,1,1.0033640280016698,,,076,001,2019_Aug_27_0905,MusicAffectPsychophysiology2019,3.0.5,60.13875044062406,
To what extent did the music make you feel ,ANXIOUS ,30MonoWAV/30MonoT1.wav,2,1,4,13,,,,,1,5,21,12,0,10,10,1,,,,,,,,,2,1.1691599659970962,,,076,001,2019_Aug_27_0905,MusicAffectPsychophysiology2019,3.0.5,60.13875044062406,
To what extent did the music make you feel ,HAPPY,30MonoWAV/30MonoT1.wav,2,1,4,13,,,,,1,5,21,12,0,11,11,6,,,,,,,,,1,0.8372897430090234,,,076,001,2019_Aug_27_0905,MusicAffectPsychophysiology2019,3.0.5,60.13875044062406,
,,30MonoWAV/30MonoT1.wav,2,1,4,13,,,,,1,5,21,12,,,,,,,,,,,,,,,,,076,001,2019_Aug_27_0905,MusicAffectPsychophysiology2019,3.0.5,60.13875044062406,
To what extent did the music make you feel ,ANGRY,30MonoWAV/30MonoH2.wav,2,2,1,6,,,,,1,6,22,5,0,0,0,2,,,3,2.1874322410003515,3,0.3201482120057335,3,0.17005003499798477,1,1.0932147709972924,,,076,001,2019_Aug_27_0905,MusicAffectPsychophysiology2019,3.0.5,60.13875044062406,
To what extent did the music make you feel ,FRUSTRATED,30MonoWAV/30MonoH2.wav,2,2,1,6,,,,,1,6,22,5,0,1,1,3,,,,,,,,,1,0.8725429699989036,,,076,001,2019_Aug_27_0905,MusicAffectPsychophysiology2019,3.0.5,60.13875044062406,
To what extent did the music make you feel ,ANXIOUS ,30MonoWAV/30MonoH2.wav,2,2,1,6,,,,,1,6,22,5,0,2,2,1,,,,,,,,,1,1.003814836993115,,,076,001,2019_Aug_27_0905,MusicAffectPsychophysiology2019,3.0.5,60.13875044062406,
To what extent did the music make you feel ,SCARED,30MonoWAV/30MonoH2.wav,2,2,1,6,,,,,1,6,22,5,0,3,3,11,,,,,,,,,1,0.9392610089998925,,,076,001,2019_Aug_27_0905,MusicAffectPsychophysiology2019,3.0.5,60.13875044062406,
To what extent did the music make you feel ,EXCITED,30MonoWAV/30MonoH2.wav,2,2,1,6,,,,,1,6,22,5,0,4,4,7,,,,,,,,,3,1.171107005997328,,,076,001,2019_Aug_27_0905,MusicAffectPsychophysiology2019,3.0.5,60.13875044062406,
To what extent did the music make you feel ,TENDER,30MonoWAV/30MonoH2.wav,2,2,1,6,,,,,1,6,22,5,0,5,5,10,,,,,,,,,3,1.0260882229922572,,,076,001,2019_Aug_27_0905,MusicAffectPsychophysiology2019,3.0.5,60.13875044062406,
To what extent did the music make you feel ,GUILTY,30MonoWAV/30MonoH2.wav,2,2,1,6,,,,,1,6,22,5,0,6,6,5,,,,,,,,,1,0.9362457579991315,,,076,001,2019_Aug_27_0905,MusicAffectPsychophysiology2019,3.0.5,60.13875044062406,
To what extent did the music make you feel ,SAD,30MonoWAV/30MonoH2.wav,2,2,1,6,,,,,1,6,22,5,0,7,7,0,,,,,,,,,1,0.8671403999906033,,,076,001,2019_Aug_27_0905,MusicAffectPsychophysiology2019,3.0.5,60.13875044062406,
To what extent did the music make you feel ,HAPPY,30MonoWAV/30MonoH2.wav,2,2,1,6,,,,,1,6,22,5,0,8,8,6,,,,,,,,,2,0.9506293180020293,,,076,001,2019_Aug_27_0905,MusicAffectPsychophysiology2019,3.0.5,60.13875044062406,
To what extent did the music make you feel ,ALERT,30MonoWAV/30MonoH2.wav,2,2,1,6,,,,,1,6,22,5,0,9,9,8,,,,,,,,,1,0.886700130009558,,,076,001,2019_Aug_27_0905,MusicAffectPsychophysiology2019,3.0.5,60.13875044062406,
To what extent did the music make you feel ,ASHAMED,30MonoWAV/30MonoH2.wav,2,2,1,6,,,,,1,6,22,5,0,10,10,4,,,,,,,,,1,0.9701925780100282,,,076,001,2019_Aug_27_0905,MusicAffectPsychophysiology2019,3.0.5,60.13875044062406,
To what extent did the music make you feel ,ACTIVE,30MonoWAV/30MonoH2.wav,2,2,1,6,,,,,1,6,22,5,0,11,11,9,,,,,,,,,4,1.2539100310095819,,,076,001,2019_Aug_27_0905,MusicAffectPsychophysiology2019,3.0.5,60.13875044062406,
,,30MonoWAV/30MonoH2.wav,2,2,1,6,,,,,1,6,22,5,,,,,,,,,,,,,,,,,076,001,2019_Aug_27_0905,MusicAffectPsychophysiology2019,3.0.5,60.13875044062406,
To what extent did the music make you feel ,ASHAMED,30MonoWAV/30MonoF3.wav,1,2,2,3,,,,,1,7,23,2,0,0,0,4,,,2,6.785151773001417,2,0.7031849990016781,3,4.636065894999774,1,2.336051189995487,,,076,001,2019_Aug_27_0905,MusicAffectPsychophysiology2019,3.0.5,60.13875044062406,
To what extent did the music make you feel ,EXCITED,30MonoWAV/30MonoF3.wav,1,2,2,3,,,,,1,7,23,2,0,1,1,7,,,,,,,,,1,0.6527518630027771,,,076,001,2019_Aug_27_0905,MusicAffectPsychophysiology2019,3.0.5,60.13875044062406,
To what extent did the music make you feel ,FRUSTRATED,30MonoWAV/30MonoF3.wav,1,2,2,3,,,,,1,7,23,2,0,2,2,3,,,,,,,,,3,1.5010465279920027,,,076,001,2019_Aug_27_0905,MusicAffectPsychophysiology2019,3.0.5,60.13875044062406,
To what extent did the music make you feel ,ALERT,30MonoWAV/30MonoF3.wav,1,2,2,3,,,,,1,7,23,2,0,3,3,8,,,,,,,,,3,1.0149529580085073,,,076,001,2019_Aug_27_0905,MusicAffectPsychophysiology2019,3.0.5,60.13875044062406,
To what extent did the music make you feel ,ANGRY,30MonoWAV/30MonoF3.wav,1,2,2,3,,,,,1,7,23,2,0,4,4,2,,,,,,,,,3,1.7202160250017187,,,076,001,2019_Aug_27_0905,MusicAffectPsychophysiology2019,3.0.5,60.13875044062406,
To what extent did the music make you feel ,ACTIVE,30MonoWAV/30MonoF3.wav,1,2,2,3,,,,,1,7,23,2,0,5,5,9,,,,,,,,,1,0.8182758499897318,,,076,001,2019_Aug_27_0905,MusicAffectPsychophysiology2019,3.0.5,60.13875044062406,
To what extent did the music make you feel ,GUILTY,30MonoWAV/30MonoF3.wav,1,2,2,3,,,,,1,7,23,2,0,6,6,5,,,,,,,,,2,0.7392883360007545,,,076,001,2019_Aug_27_0905,MusicAffectPsychophysiology2019,3.0.5,60.13875044062406,
To what extent did the music make you feel ,SCARED,30MonoWAV/30MonoF3.wav,1,2,2,3,,,,,1,7,23,2,0,7,7,11,,,,,,,,,3,1.069756854994921,,,076,001,2019_Aug_27_0905,MusicAffectPsychophysiology2019,3.0.5,60.13875044062406,
To what extent did the music make you feel ,ANXIOUS ,30MonoWAV/30MonoF3.wav,1,2,2,3,,,,,1,7,23,2,0,8,8,1,,,,,,,,,3,0.7882564119936433,,,076,001,2019_Aug_27_0905,MusicAffectPsychophysiology2019,3.0.5,60.13875044062406,
To what extent did the music make you feel ,SAD,30MonoWAV/30MonoF3.wav,1,2,2,3,,,,,1,7,23,2,0,9,9,0,,,,,,,,,1,1.071882516000187,,,076,001,2019_Aug_27_0905,MusicAffectPsychophysiology2019,3.0.5,60.13875044062406,
To what extent did the music make you feel ,TENDER,30MonoWAV/30MonoF3.wav,1,2,2,3,,,,,1,7,23,2,0,10,10,10,,,,,,,,,1,0.8514685849950183,,,076,001,2019_Aug_27_0905,MusicAffectPsychophysiology2019,3.0.5,60.13875044062406,
To what extent did the music make you feel ,HAPPY,30MonoWAV/30MonoF3.wav,1,2,2,3,,,,,1,7,23,2,0,11,11,6,,,,,,,,,1,0.5196275460039033,,,076,001,2019_Aug_27_0905,MusicAffectPsychophysiology2019,3.0.5,60.13875044062406,
,,30MonoWAV/30MonoF3.wav,1,2,2,3,,,,,1,7,23,2,,,,,,,,,,,,,,,,,076,001,2019_Aug_27_0905,MusicAffectPsychophysiology2019,3.0.5,60.13875044062406,
To what extent did the music make you feel ,ACTIVE,30MonoWAV/30MonoF4.wav,1,2,2,4,,,,,1,8,24,3,0,0,0,9,,,2,0.9529613530030474,2,0.6345511090039508,3,0.18663414900947828,3,1.9779740359954303,,,076,001,2019_Aug_27_0905,MusicAffectPsychophysiology2019,3.0.5,60.13875044062406,
To what extent did the music make you feel ,SCARED,30MonoWAV/30MonoF4.wav,1,2,2,4,,,,,1,8,24,3,0,1,1,11,,,,,,,,,3,1.6004966860054992,,,076,001,2019_Aug_27_0905,MusicAffectPsychophysiology2019,3.0.5,60.13875044062406,
To what extent did the music make you feel ,FRUSTRATED,30MonoWAV/30MonoF4.wav,1,2,2,4,,,,,1,8,24,3,0,2,2,3,,,,,,,,,2,0.9673592850012938,,,076,001,2019_Aug_27_0905,MusicAffectPsychophysiology2019,3.0.5,60.13875044062406,
To what extent did the music make you feel ,ASHAMED,30MonoWAV/30MonoF4.wav,1,2,2,4,,,,,1,8,24,3,0,3,3,4,,,,,,,,,2,1.255198566999752,,,076,001,2019_Aug_27_0905,MusicAffectPsychophysiology2019,3.0.5,60.13875044062406,
To what extent did the music make you feel ,ANGRY,30MonoWAV/30MonoF4.wav,1,2,2,4,,,,,1,8,24,3,0,4,4,2,,,,,,,,,2,0.8618898690037895,,,076,001,2019_Aug_27_0905,MusicAffectPsychophysiology2019,3.0.5,60.13875044062406,
To what extent did the music make you feel ,SAD,30MonoWAV/30MonoF4.wav,1,2,2,4,,,,,1,8,24,3,0,5,5,0,,,,,,,,,2,0.8023609109950485,,,076,001,2019_Aug_27_0905,MusicAffectPsychophysiology2019,3.0.5,60.13875044062406,
To what extent did the music make you feel ,ANXIOUS ,30MonoWAV/30MonoF4.wav,1,2,2,4,,,,,1,8,24,3,0,6,6,1,,,,,,,,,3,0.978408170005423,,,076,001,2019_Aug_27_0905,MusicAffectPsychophysiology2019,3.0.5,60.13875044062406,
To what extent did the music make you feel ,GUILTY,30MonoWAV/30MonoF4.wav,1,2,2,4,,,,,1,8,24,3,0,7,7,5,,,,,,,,,2,1.1451915609941352,,,076,001,2019_Aug_27_0905,MusicAffectPsychophysiology2019,3.0.5,60.13875044062406,
To what extent did the music make you feel ,TENDER,30MonoWAV/30MonoF4.wav,1,2,2,4,,,,,1,8,24,3,0,8,8,10,,,,,,,,,1,0.8948604330071248,,,076,001,2019_Aug_27_0905,MusicAffectPsychophysiology2019,3.0.5,60.13875044062406,
To what extent did the music make you feel ,EXCITED,30MonoWAV/30MonoF4.wav,1,2,2,4,,,,,1,8,24,3,0,9,9,7,,,,,,,,,1,0.6542824729986023,,,076,001,2019_Aug_27_0905,MusicAffectPsychophysiology2019,3.0.5,60.13875044062406,
To what extent did the music make you feel ,ALERT,30MonoWAV/30MonoF4.wav,1,2,2,4,,,,,1,8,24,3,0,10,10,8,,,,,,,,,3,1.061346657006652,,,076,001,2019_Aug_27_0905,MusicAffectPsychophysiology2019,3.0.5,60.13875044062406,
To what extent did the music make you feel ,HAPPY,30MonoWAV/30MonoF4.wav,1,2,2,4,,,,,1,8,24,3,0,11,11,6,,,,,,,,,1,0.8699225879972801,,,076,001,2019_Aug_27_0905,MusicAffectPsychophysiology2019,3.0.5,60.13875044062406,
,,30MonoWAV/30MonoF4.wav,1,2,2,4,,,,,1,8,24,3,,,,,,,,,,,,,,,,,076,001,2019_Aug_27_0905,MusicAffectPsychophysiology2019,3.0.5,60.13875044062406,
To what extent did the music make you feel ,SCARED,30MonoWAV/30MonoF2.wav,1,2,2,2,,,,,1,9,25,1,0,0,0,11,,,2,1.2699302499968326,2,0.13671441200131085,3,0.7862726919993293,4,1.872377312000026,,,076,001,2019_Aug_27_0905,MusicAffectPsychophysiology2019,3.0.5,60.13875044062406,
To what extent did the music make you feel ,ANXIOUS ,30MonoWAV/30MonoF2.wav,1,2,2,2,,,,,1,9,25,1,0,1,1,1,,,,,,,,,4,0.7198027740087127,,,076,001,2019_Aug_27_0905,MusicAffectPsychophysiology2019,3.0.5,60.13875044062406,
To what extent did the music make you feel ,HAPPY,30MonoWAV/30MonoF2.wav,1,2,2,2,,,,,1,9,25,1,0,2,2,6,,,,,,,,,1,1.0022996089974185,,,076,001,2019_Aug_27_0905,MusicAffectPsychophysiology2019,3.0.5,60.13875044062406,
To what extent did the music make you feel ,SAD,30MonoWAV/30MonoF2.wav,1,2,2,2,,,,,1,9,25,1,0,3,3,0,,,,,,,,,1,2.170183342997916,,,076,001,2019_Aug_27_0905,MusicAffectPsychophysiology2019,3.0.5,60.13875044062406,
To what extent did the music make you feel ,ALERT,30MonoWAV/30MonoF2.wav,1,2,2,2,,,,,1,9,25,1,0,4,4,8,,,,,,,,,4,1.152755461007473,,,076,001,2019_Aug_27_0905,MusicAffectPsychophysiology2019,3.0.5,60.13875044062406,
To what extent did the music make you feel ,GUILTY,30MonoWAV/30MonoF2.wav,1,2,2,2,,,,,1,9,25,1,0,5,5,5,,,,,,,,,3,1.170164669994847,,,076,001,2019_Aug_27_0905,MusicAffectPsychophysiology2019,3.0.5,60.13875044062406,
To what extent did the music make you feel ,ANGRY,30MonoWAV/30MonoF2.wav,1,2,2,2,,,,,1,9,25,1,0,6,6,2,,,,,,,,,2,1.1694346839940408,,,076,001,2019_Aug_27_0905,MusicAffectPsychophysiology2019,3.0.5,60.13875044062406,
To what extent did the music make you feel ,ACTIVE,30MonoWAV/30MonoF2.wav,1,2,2,2,,,,,1,9,25,1,0,7,7,9,,,,,,,,,1,0.7029502749937819,,,076,001,2019_Aug_27_0905,MusicAffectPsychophysiology2019,3.0.5,60.13875044062406,
To what extent did the music make you feel ,TENDER,30MonoWAV/30MonoF2.wav,1,2,2,2,,,,,1,9,25,1,0,8,8,10,,,,,,,,,1,0.807399480996537,,,076,001,2019_Aug_27_0905,MusicAffectPsychophysiology2019,3.0.5,60.13875044062406,
To what extent did the music make you feel ,EXCITED,30MonoWAV/30MonoF2.wav,1,2,2,2,,,,,1,9,25,1,0,9,9,7,,,,,,,,,1,0.6361504649976268,,,076,001,2019_Aug_27_0905,MusicAffectPsychophysiology2019,3.0.5,60.13875044062406,
To what extent did the music make you feel ,FRUSTRATED,30MonoWAV/30MonoF2.wav,1,2,2,2,,,,,1,9,25,1,0,10,10,3,,,,,,,,,3,0.7565131830051541,,,076,001,2019_Aug_27_0905,MusicAffectPsychophysiology2019,3.0.5,60.13875044062406,
To what extent did the music make you feel ,ASHAMED,30MonoWAV/30MonoF2.wav,1,2,2,2,,,,,1,9,25,1,0,11,11,4,,,,,,,,,2,1.1722988430119585,,,076,001,2019_Aug_27_0905,MusicAffectPsychophysiology2019,3.0.5,60.13875044062406,
,,30MonoWAV/30MonoF2.wav,1,2,2,2,,,,,1,9,25,1,,,,,,,,,,,,,,,,,076,001,2019_Aug_27_0905,MusicAffectPsychophysiology2019,3.0.5,60.13875044062406,
To what extent did the music make you feel ,ANXIOUS ,30MonoWAV/30MonoF1.wav,1,2,2,1,,,,,1,10,26,0,0,0,0,1,,,2,1.9694339700072305,2,0.12033929000608623,3,0.08619226799055468,4,1.4851589239988243,,,076,001,2019_Aug_27_0905,MusicAffectPsychophysiology2019,3.0.5,60.13875044062406,
To what extent did the music make you feel ,ACTIVE,30MonoWAV/30MonoF1.wav,1,2,2,1,,,,,1,10,26,0,0,1,1,9,,,,,,,,,4,1.168050852997112,,,076,001,2019_Aug_27_0905,MusicAffectPsychophysiology2019,3.0.5,60.13875044062406,
To what extent did the music make you feel ,SAD,30MonoWAV/30MonoF1.wav,1,2,2,1,,,,,1,10,26,0,0,2,2,0,,,,,,,,,1,1.188335967992316,,,076,001,2019_Aug_27_0905,MusicAffectPsychophysiology2019,3.0.5,60.13875044062406,
To what extent did the music make you feel ,HAPPY,30MonoWAV/30MonoF1.wav,1,2,2,1,,,,,1,10,26,0,0,3,3,6,,,,,,,,,1,0.4863481159991352,,,076,001,2019_Aug_27_0905,MusicAffectPsychophysiology2019,3.0.5,60.13875044062406,
To what extent did the music make you feel ,GUILTY,30MonoWAV/30MonoF1.wav,1,2,2,1,,,,,1,10,26,0,0,4,4,5,,,,,,,,,4,0.9528735940111801,,,076,001,2019_Aug_27_0905,MusicAffectPsychophysiology2019,3.0.5,60.13875044062406,
To what extent did the music make you feel ,EXCITED,30MonoWAV/30MonoF1.wav,1,2,2,1,,,,,1,10,26,0,0,5,5,7,,,,,,,,,1,0.7358691590052331,,,076,001,2019_Aug_27_0905,MusicAffectPsychophysiology2019,3.0.5,60.13875044062406,
To what extent did the music make you feel ,TENDER,30MonoWAV/30MonoF1.wav,1,2,2,1,,,,,1,10,26,0,0,6,6,10,,,,,,,,,1,0.999349068995798,,,076,001,2019_Aug_27_0905,MusicAffectPsychophysiology2019,3.0.5,60.13875044062406,
To what extent did the music make you feel ,ASHAMED,30MonoWAV/30MonoF1.wav,1,2,2,1,,,,,1,10,26,0,0,7,7,4,,,,,,,,,1,0.7511326299863867,,,076,001,2019_Aug_27_0905,MusicAffectPsychophysiology2019,3.0.5,60.13875044062406,
To what extent did the music make you feel ,ANGRY,30MonoWAV/30MonoF1.wav,1,2,2,1,,,,,1,10,26,0,0,8,8,2,,,,,,,,,1,0.6525658699974883,,,076,001,2019_Aug_27_0905,MusicAffectPsychophysiology2019,3.0.5,60.13875044062406,
To what extent did the music make you feel ,SCARED,30MonoWAV/30MonoF1.wav,1,2,2,1,,,,,1,10,26,0,0,9,9,11,,,,,,,,,3,1.33718775100715,,,076,001,2019_Aug_27_0905,MusicAffectPsychophysiology2019,3.0.5,60.13875044062406,
To what extent did the music make you feel ,ALERT,30MonoWAV/30MonoF1.wav,1,2,2,1,,,,,1,10,26,0,0,10,10,8,,,,,,,,,4,0.8382625300000655,,,076,001,2019_Aug_27_0905,MusicAffectPsychophysiology2019,3.0.5,60.13875044062406,
To what extent did the music make you feel ,FRUSTRATED,30MonoWAV/30MonoF1.wav,1,2,2,1,,,,,1,10,26,0,0,11,11,3,,,,,,,,,3,1.1166796689940384,,,076,001,2019_Aug_27_0905,MusicAffectPsychophysiology2019,3.0.5,60.13875044062406,
,,30MonoWAV/30MonoF1.wav,1,2,2,1,,,,,1,10,26,0,,,,,,,,,,,,,,,,,076,001,2019_Aug_27_0905,MusicAffectPsychophysiology2019,3.0.5,60.13875044062406,
To what extent did the music make you feel ,GUILTY,30MonoWAV/30MonoT3.wav,2,1,4,15,,,,,1,11,27,14,0,0,0,5,,,3,2.0037600429932354,3,0.5366025370021816,3,0.1880823009996675,1,1.1788257930020336,,,076,001,2019_Aug_27_0905,MusicAffectPsychophysiology2019,3.0.5,60.13875044062406,
To what extent did the music make you feel ,ANGRY,30MonoWAV/30MonoT3.wav,2,1,4,15,,,,,1,11,27,14,0,1,1,2,,,,,,,,,1,0.7159642929909751,,,076,001,2019_Aug_27_0905,MusicAffectPsychophysiology2019,3.0.5,60.13875044062406,
To what extent did the music make you feel ,ACTIVE,30MonoWAV/30MonoT3.wav,2,1,4,15,,,,,1,11,27,14,0,2,2,9,,,,,,,,,2,1.5673797860072227,,,076,001,2019_Aug_27_0905,MusicAffectPsychophysiology2019,3.0.5,60.13875044062406,
To what extent did the music make you feel ,EXCITED,30MonoWAV/30MonoT3.wav,2,1,4,15,,,,,1,11,27,14,0,3,3,7,,,,,,,,,2,1.1031108750030398,,,076,001,2019_Aug_27_0905,MusicAffectPsychophysiology2019,3.0.5,60.13875044062406,
To what extent did the music make you feel ,FRUSTRATED,30MonoWAV/30MonoT3.wav,2,1,4,15,,,,,1,11,27,14,0,4,4,3,,,,,,,,,1,1.0577030699932948,,,076,001,2019_Aug_27_0905,MusicAffectPsychophysiology2019,3.0.5,60.13875044062406,
To what extent did the music make you feel ,TENDER,30MonoWAV/30MonoT3.wav,2,1,4,15,,,,,1,11,27,14,0,5,5,10,,,,,,,,,5,1.0696811840025475,,,076,001,2019_Aug_27_0905,MusicAffectPsychophysiology2019,3.0.5,60.13875044062406,
To what extent did the music make you feel ,ASHAMED,30MonoWAV/30MonoT3.wav,2,1,4,15,,,,,1,11,27,14,0,6,6,4,,,,,,,,,1,0.9337364459934179,,,076,001,2019_Aug_27_0905,MusicAffectPsychophysiology2019,3.0.5,60.13875044062406,
To what extent did the music make you feel ,ANXIOUS ,30MonoWAV/30MonoT3.wav,2,1,4,15,,,,,1,11,27,14,0,7,7,1,,,,,,,,,1,1.1042273119965103,,,076,001,2019_Aug_27_0905,MusicAffectPsychophysiology2019,3.0.5,60.13875044062406,
To what extent did the music make you feel ,ALERT,30MonoWAV/30MonoT3.wav,2,1,4,15,,,,,1,11,27,14,0,8,8,8,,,,,,,,,1,0.45991843500814866,,,076,001,2019_Aug_27_0905,MusicAffectPsychophysiology2019,3.0.5,60.13875044062406,
To what extent did the music make you feel ,HAPPY,30MonoWAV/30MonoT3.wav,2,1,4,15,,,,,1,11,27,14,0,9,9,6,,,,,,,,,5,1.2364840100053698,,,076,001,2019_Aug_27_0905,MusicAffectPsychophysiology2019,3.0.5,60.13875044062406,
To what extent did the music make you feel ,SCARED,30MonoWAV/30MonoT3.wav,2,1,4,15,,,,,1,11,27,14,0,10,10,11,,,,,,,,,1,0.6102038020035252,,,076,001,2019_Aug_27_0905,MusicAffectPsychophysiology2019,3.0.5,60.13875044062406,
To what extent did the music make you feel ,SAD,30MonoWAV/30MonoT3.wav,2,1,4,15,,,,,1,11,27,14,0,11,11,0,,,,,,,,,1,0.5198256459989352,,,076,001,2019_Aug_27_0905,MusicAffectPsychophysiology2019,3.0.5,60.13875044062406,
,,30MonoWAV/30MonoT3.wav,2,1,4,15,,,,,1,11,27,14,,,,,,,,,,,,,,,,,076,001,2019_Aug_27_0905,MusicAffectPsychophysiology2019,3.0.5,60.13875044062406,
To what extent did the music make you feel ,FRUSTRATED,30MonoWAV/30MonoS3.wav,1,1,3,11,,,,,1,12,28,10,0,0,0,3,,,2,3.138669118998223,2,0.619073098001536,3,0.16952387600031216,3,1.8550909480109112,,,076,001,2019_Aug_27_0905,MusicAffectPsychophysiology2019,3.0.5,60.13875044062406,
To what extent did the music make you feel ,HAPPY,30MonoWAV/30MonoS3.wav,1,1,3,11,,,,,1,12,28,10,0,1,1,6,,,,,,,,,2,0.8035516679956345,,,076,001,2019_Aug_27_0905,MusicAffectPsychophysiology2019,3.0.5,60.13875044062406,
To what extent did the music make you feel ,EXCITED,30MonoWAV/30MonoS3.wav,1,1,3,11,,,,,1,12,28,10,0,2,2,7,,,,,,,,,2,0.8863141719921259,,,076,001,2019_Aug_27_0905,MusicAffectPsychophysiology2019,3.0.5,60.13875044062406,
To what extent did the music make you feel ,ACTIVE,30MonoWAV/30MonoS3.wav,1,1,3,11,,,,,1,12,28,10,0,3,3,9,,,,,,,,,1,1.2206196110055316,,,076,001,2019_Aug_27_0905,MusicAffectPsychophysiology2019,3.0.5,60.13875044062406,
To what extent did the music make you feel ,GUILTY,30MonoWAV/30MonoS3.wav,1,1,3,11,,,,,1,12,28,10,0,4,4,5,,,,,,,,,3,0.9871581280021928,,,076,001,2019_Aug_27_0905,MusicAffectPsychophysiology2019,3.0.5,60.13875044062406,
To what extent did the music make you feel ,TENDER,30MonoWAV/30MonoS3.wav,1,1,3,11,,,,,1,12,28,10,0,5,5,10,,,,,,,,,1,0.902509972002008,,,076,001,2019_Aug_27_0905,MusicAffectPsychophysiology2019,3.0.5,60.13875044062406,
To what extent did the music make you feel ,SAD,30MonoWAV/30MonoS3.wav,1,1,3,11,,,,,1,12,28,10,0,6,6,0,,,,,,,,,2,1.1205829509999603,,,076,001,2019_Aug_27_0905,MusicAffectPsychophysiology2019,3.0.5,60.13875044062406,
To what extent did the music make you feel ,ANXIOUS ,30MonoWAV/30MonoS3.wav,1,1,3,11,,,,,1,12,28,10,0,7,7,1,,,,,,,,,4,1.186180788994534,,,076,001,2019_Aug_27_0905,MusicAffectPsychophysiology2019,3.0.5,60.13875044062406,
To what extent did the music make you feel ,SCARED,30MonoWAV/30MonoS3.wav,1,1,3,11,,,,,1,12,28,10,0,8,8,11,,,,,,,,,4,0.952954881999176,,,076,001,2019_Aug_27_0905,MusicAffectPsychophysiology2019,3.0.5,60.13875044062406,
To what extent did the music make you feel ,ALERT,30MonoWAV/30MonoS3.wav,1,1,3,11,,,,,1,12,28,10,0,9,9,8,,,,,,,,,4,1.2692860720126191,,,076,001,2019_Aug_27_0905,MusicAffectPsychophysiology2019,3.0.5,60.13875044062406,
To what extent did the music make you feel ,ANGRY,30MonoWAV/30MonoS3.wav,1,1,3,11,,,,,1,12,28,10,0,10,10,2,,,,,,,,,1,1.119915816001594,,,076,001,2019_Aug_27_0905,MusicAffectPsychophysiology2019,3.0.5,60.13875044062406,
To what extent did the music make you feel ,ASHAMED,30MonoWAV/30MonoS3.wav,1,1,3,11,,,,,1,12,28,10,0,11,11,4,,,,,,,,,1,0.8196237689990085,,,076,001,2019_Aug_27_0905,MusicAffectPsychophysiology2019,3.0.5,60.13875044062406,
,,30MonoWAV/30MonoS3.wav,1,1,3,11,,,,,1,12,28,10,,,,,,,,,,,,,,,,,076,001,2019_Aug_27_0905,MusicAffectPsychophysiology2019,3.0.5,60.13875044062406,
To what extent did the music make you feel ,SAD,30MonoWAV/30MonoT4.wav,2,1,4,16,,,,,1,13,29,15,0,0,0,0,,,4,1.0874232279893477,4,0.7871824870089768,4,0.5694161639985396,1,1.4034297299949685,,,076,001,2019_Aug_27_0905,MusicAffectPsychophysiology2019,3.0.5,60.13875044062406,
To what extent did the music make you feel ,GUILTY,30MonoWAV/30MonoT4.wav,2,1,4,16,,,,,1,13,29,15,0,1,1,5,,,,,,,,,1,0.6811312209902098,,,076,001,2019_Aug_27_0905,MusicAffectPsychophysiology2019,3.0.5,60.13875044062406,
To what extent did the music make you feel ,ANGRY,30MonoWAV/30MonoT4.wav,2,1,4,16,,,,,1,13,29,15,0,2,2,2,,,,,,,,,1,0.5376287529943511,,,076,001,2019_Aug_27_0905,MusicAffectPsychophysiology2019,3.0.5,60.13875044062406,
To what extent did the music make you feel ,TENDER,30MonoWAV/30MonoT4.wav,2,1,4,16,,,,,1,13,29,15,0,3,3,10,,,,,,,,,5,1.0817867269943235,,,076,001,2019_Aug_27_0905,MusicAffectPsychophysiology2019,3.0.5,60.13875044062406,
To what extent did the music make you feel ,ACTIVE,30MonoWAV/30MonoT4.wav,2,1,4,16,,,,,1,13,29,15,0,4,4,9,,,,,,,,,5,1.1033767789922422,,,076,001,2019_Aug_27_0905,MusicAffectPsychophysiology2019,3.0.5,60.13875044062406,
To what extent did the music make you feel ,FRUSTRATED,30MonoWAV/30MonoT4.wav,2,1,4,16,,,,,1,13,29,15,0,5,5,3,,,,,,,,,1,1.2647690610028803,,,076,001,2019_Aug_27_0905,MusicAffectPsychophysiology2019,3.0.5,60.13875044062406,
To what extent did the music make you feel ,EXCITED,30MonoWAV/30MonoT4.wav,2,1,4,16,,,,,1,13,29,15,0,6,6,7,,,,,,,,,4,1.1142534959944896,,,076,001,2019_Aug_27_0905,MusicAffectPsychophysiology2019,3.0.5,60.13875044062406,
To what extent did the music make you feel ,ANXIOUS ,30MonoWAV/30MonoT4.wav,2,1,4,16,,,,,1,13,29,15,0,7,7,1,,,,,,,,,1,0.7041634680062998,,,076,001,2019_Aug_27_0905,MusicAffectPsychophysiology2019,3.0.5,60.13875044062406,
To what extent did the music make you feel ,SCARED,30MonoWAV/30MonoT4.wav,2,1,4,16,,,,,1,13,29,15,0,8,8,11,,,,,,,,,1,0.5817277019959874,,,076,001,2019_Aug_27_0905,MusicAffectPsychophysiology2019,3.0.5,60.13875044062406,
To what extent did the music make you feel ,HAPPY,30MonoWAV/30MonoT4.wav,2,1,4,16,,,,,1,13,29,15,0,9,9,6,,,,,,,,,4,1.2208212330006063,,,076,001,2019_Aug_27_0905,MusicAffectPsychophysiology2019,3.0.5,60.13875044062406,
To what extent did the music make you feel ,ALERT,30MonoWAV/30MonoT4.wav,2,1,4,16,,,,,1,13,29,15,0,10,10,8,,,,,,,,,1,2.147434186001192,,,076,001,2019_Aug_27_0905,MusicAffectPsychophysiology2019,3.0.5,60.13875044062406,
To what extent did the music make you feel ,ASHAMED,30MonoWAV/30MonoT4.wav,2,1,4,16,,,,,1,13,29,15,0,11,11,4,,,,,,,,,1,0.6306372499966528,,,076,001,2019_Aug_27_0905,MusicAffectPsychophysiology2019,3.0.5,60.13875044062406,
,,30MonoWAV/30MonoT4.wav,2,1,4,16,,,,,1,13,29,15,,,,,,,,,,,,,,,,,076,001,2019_Aug_27_0905,MusicAffectPsychophysiology2019,3.0.5,60.13875044062406,
To what extent did the music make you feel ,HAPPY,30MonoWAV/30MonoH1.wav,2,2,1,5,,,,,1,14,30,4,0,0,0,6,,,3,2.9197543540067272,3,0.7695570620126091,3,1.3198709769931156,3,1.12551641499158,,,076,001,2019_Aug_27_0905,MusicAffectPsychophysiology2019,3.0.5,60.13875044062406,
To what extent did the music make you feel ,ALERT,30MonoWAV/30MonoH1.wav,2,2,1,5,,,,,1,14,30,4,0,1,1,8,,,,,,,,,1,1.1227058899967233,,,076,001,2019_Aug_27_0905,MusicAffectPsychophysiology2019,3.0.5,60.13875044062406,
To what extent did the music make you feel ,ASHAMED,30MonoWAV/30MonoH1.wav,2,2,1,5,,,,,1,14,30,4,0,2,2,4,,,,,,,,,1,0.5529695859877393,,,076,001,2019_Aug_27_0905,MusicAffectPsychophysiology2019,3.0.5,60.13875044062406,
To what extent did the music make you feel ,SCARED,30MonoWAV/30MonoH1.wav,2,2,1,5,,,,,1,14,30,4,0,3,3,11,,,,,,,,,1,0.5569866549922153,,,076,001,2019_Aug_27_0905,MusicAffectPsychophysiology2019,3.0.5,60.13875044062406,
To what extent did the music make you feel ,FRUSTRATED,30MonoWAV/30MonoH1.wav,2,2,1,5,,,,,1,14,30,4,0,4,4,3,,,,,,,,,1,0.5208655190072022,,,076,001,2019_Aug_27_0905,MusicAffectPsychophysiology2019,3.0.5,60.13875044062406,
To what extent did the music make you feel ,ACTIVE,30MonoWAV/30MonoH1.wav,2,2,1,5,,,,,1,14,30,4,0,5,5,9,,,,,,,,,3,1.2194571009895299,,,076,001,2019_Aug_27_0905,MusicAffectPsychophysiology2019,3.0.5,60.13875044062406,
To what extent did the music make you feel ,TENDER,30MonoWAV/30MonoH1.wav,2,2,1,5,,,,,1,14,30,4,0,6,6,10,,,,,,,,,4,1.1693572699878132,,,076,001,2019_Aug_27_0905,MusicAffectPsychophysiology2019,3.0.5,60.13875044062406,
To what extent did the music make you feel ,GUILTY,30MonoWAV/30MonoH1.wav,2,2,1,5,,,,,1,14,30,4,0,7,7,5,,,,,,,,,1,0.8204117800050881,,,076,001,2019_Aug_27_0905,MusicAffectPsychophysiology2019,3.0.5,60.13875044062406,
To what extent did the music make you feel ,ANGRY,30MonoWAV/30MonoH1.wav,2,2,1,5,,,,,1,14,30,4,0,8,8,2,,,,,,,,,1,0.6379821900045499,,,076,001,2019_Aug_27_0905,MusicAffectPsychophysiology2019,3.0.5,60.13875044062406,
To what extent did the music make you feel ,EXCITED,30MonoWAV/30MonoH1.wav,2,2,1,5,,,,,1,14,30,4,0,9,9,7,,,,,,,,,1,0.2705571459955536,,,076,001,2019_Aug_27_0905,MusicAffectPsychophysiology2019,3.0.5,60.13875044062406,
To what extent did the music make you feel ,SAD,30MonoWAV/30MonoH1.wav,2,2,1,5,,,,,1,14,30,4,0,10,10,0,,,,,,,,,1,0.41989448200911283,,,076,001,2019_Aug_27_0905,MusicAffectPsychophysiology2019,3.0.5,60.13875044062406,
To what extent did the music make you feel ,ANXIOUS ,30MonoWAV/30MonoH1.wav,2,2,1,5,,,,,1,14,30,4,0,11,11,1,,,,,,,,,1,1.5364854670042405,,,076,001,2019_Aug_27_0905,MusicAffectPsychophysiology2019,3.0.5,60.13875044062406,
,,30MonoWAV/30MonoH1.wav,2,2,1,5,,,,,1,14,30,4,,,,,,,,,,,,,,,,,076,001,2019_Aug_27_0905,MusicAffectPsychophysiology2019,3.0.5,60.13875044062406,
To what extent did the music make you feel ,SCARED,30MonoWAV/30MonoT2.wav,2,1,4,14,,,,,1,15,31,13,0,0,0,11,,,3,2.4004152470006375,3,0.12048367400711868,3,1.0359486889938125,1,1.0358391699992353,,,076,001,2019_Aug_27_0905,MusicAffectPsychophysiology2019,3.0.5,60.13875044062406,
To what extent did the music make you feel ,ANXIOUS ,30MonoWAV/30MonoT2.wav,2,1,4,14,,,,,1,15,31,13,0,1,1,1,,,,,,,,,1,0.5860808600118617,,,076,001,2019_Aug_27_0905,MusicAffectPsychophysiology2019,3.0.5,60.13875044062406,
To what extent did the music make you feel ,HAPPY,30MonoWAV/30MonoT2.wav,2,1,4,14,,,,,1,15,31,13,0,2,2,6,,,,,,,,,2,1.2366778909927234,,,076,001,2019_Aug_27_0905,MusicAffectPsychophysiology2019,3.0.5,60.13875044062406,
To what extent did the music make you feel ,ALERT,30MonoWAV/30MonoT2.wav,2,1,4,14,,,,,1,15,31,13,0,3,3,8,,,,,,,,,1,0.5685558800032595,,,076,001,2019_Aug_27_0905,MusicAffectPsychophysiology2019,3.0.5,60.13875044062406,
To what extent did the music make you feel ,ACTIVE,30MonoWAV/30MonoT2.wav,2,1,4,14,,,,,1,15,31,13,0,4,4,9,,,,,,,,,2,1.0695363260019803,,,076,001,2019_Aug_27_0905,MusicAffectPsychophysiology2019,3.0.5,60.13875044062406,
To what extent did the music make you feel ,TENDER,30MonoWAV/30MonoT2.wav,2,1,4,14,,,,,1,15,31,13,0,5,5,10,,,,,,,,,4,1.1373751450009877,,,076,001,2019_Aug_27_0905,MusicAffectPsychophysiology2019,3.0.5,60.13875044062406,
To what extent did the music make you feel ,ANGRY,30MonoWAV/30MonoT2.wav,2,1,4,14,,,,,1,15,31,13,0,6,6,2,,,,,,,,,1,0.8702885350066936,,,076,001,2019_Aug_27_0905,MusicAffectPsychophysiology2019,3.0.5,60.13875044062406,
To what extent did the music make you feel ,FRUSTRATED,30MonoWAV/30MonoT2.wav,2,1,4,14,,,,,1,15,31,13,0,7,7,3,,,,,,,,,1,0.46820345900778193,,,076,001,2019_Aug_27_0905,MusicAffectPsychophysiology2019,3.0.5,60.13875044062406,
To what extent did the music make you feel ,ASHAMED,30MonoWAV/30MonoT2.wav,2,1,4,14,,,,,1,15,31,13,0,8,8,4,,,,,,,,,1,0.7058971649967134,,,076,001,2019_Aug_27_0905,MusicAffectPsychophysiology2019,3.0.5,60.13875044062406,
To what extent did the music make you feel ,EXCITED,30MonoWAV/30MonoT2.wav,2,1,4,14,,,,,1,15,31,13,0,9,9,7,,,,,,,,,2,1.0521905619971221,,,076,001,2019_Aug_27_0905,MusicAffectPsychophysiology2019,3.0.5,60.13875044062406,
To what extent did the music make you feel ,SAD,30MonoWAV/30MonoT2.wav,2,1,4,14,,,,,1,15,31,13,0,10,10,0,,,,,,,,,1,0.4873282889893744,,,076,001,2019_Aug_27_0905,MusicAffectPsychophysiology2019,3.0.5,60.13875044062406,
To what extent did the music make you feel ,GUILTY,30MonoWAV/30MonoT2.wav,2,1,4,14,,,,,1,15,31,13,0,11,11,5,,,,,,,,,1,0.5179782859922852,,,076,001,2019_Aug_27_0905,MusicAffectPsychophysiology2019,3.0.5,60.13875044062406,
,,30MonoWAV/30MonoT2.wav,2,1,4,14,,,,,1,15,31,13,,,,,,,,,,,,,,,,,076,001,2019_Aug_27_0905,MusicAffectPsychophysiology2019,3.0.5,60.13875044062406,
,,,,,,,,,,,,,,,,,,,,,,,,,,,,,space,16.71823364100419,076,001,2019_Aug_27_0905,MusicAffectPsychophysiology2019,3.0.5,60.13875044062406,
