Instruction,Word,song,valence,arousal,affectcat,songmark,pracwords.thisRepN,pracwords.thisTrialN,pracwords.thisN,pracwords.thisIndex,songtrials.thisRepN,songtrials.thisTrialN,songtrials.thisN,songtrials.thisIndex,words.thisRepN,words.thisTrialN,words.thisN,words.thisIndex,begin.keys,begin.rt,arousalkey.keys,arousalkey.rt,valencekey.keys,valencekey.rt,likekey.keys,likekey.rt,WordResponse.keys,WordResponse.rt,key_resp_2.keys,key_resp_2.rt,participant,session,date,expName,psychopyVersion,frameRate,
,,,,,,,,,,,,,,,,,,,3,11.746189311001217,,,,,,,,,,,077,001,2019_Aug_27_1005,MusicAffectPsychophysiology2019,3.0.5,59.88135288872443,
,,,,,,,,,,,,,,,,,,,,,3,4.019714044989087,,,,,,,,,077,001,2019_Aug_27_1005,MusicAffectPsychophysiology2019,3.0.5,59.88135288872443,
,,,,,,,,,,,,,,,,,,,,,,,4,4.169860124995466,,,,,,,077,001,2019_Aug_27_1005,MusicAffectPsychophysiology2019,3.0.5,59.88135288872443,
,,,,,,,,,,,,,,,,,,,,,,,,,3,2.7368250409926986,,,,,077,001,2019_Aug_27_1005,MusicAffectPsychophysiology2019,3.0.5,59.88135288872443,
To what extent did the music make you feel ,TENDER,,,,,,0,0,0,10,,,,,,,,,,,,,,,,,2,5.45255666700541,,,077,001,2019_Aug_27_1005,MusicAffectPsychophysiology2019,3.0.5,59.88135288872443,
To what extent did the music make you feel ,GUILTY,,,,,,0,1,1,5,,,,,,,,,,,,,,,,,1,2.7206166940013645,,,077,001,2019_Aug_27_1005,MusicAffectPsychophysiology2019,3.0.5,59.88135288872443,
To what extent did the music make you feel ,ACTIVE,,,,,,0,2,2,9,,,,,,,,,,,,,,,,,2,1.82835201099806,,,077,001,2019_Aug_27_1005,MusicAffectPsychophysiology2019,3.0.5,59.88135288872443,
To what extent did the music make you feel ,HAPPY,,,,,,0,3,3,6,,,,,,,,,,,,,,,,,3,2.159702129996731,,,077,001,2019_Aug_27_1005,MusicAffectPsychophysiology2019,3.0.5,59.88135288872443,
To what extent did the music make you feel ,FRUSTRATED,,,,,,0,4,4,3,,,,,,,,,,,,,,,,,1,1.5768036560039036,,,077,001,2019_Aug_27_1005,MusicAffectPsychophysiology2019,3.0.5,59.88135288872443,
To what extent did the music make you feel ,ANXIOUS ,,,,,,0,5,5,1,,,,,,,,,,,,,,,,,2,2.3598926900012884,,,077,001,2019_Aug_27_1005,MusicAffectPsychophysiology2019,3.0.5,59.88135288872443,
To what extent did the music make you feel ,SAD,,,,,,0,6,6,0,,,,,,,,,,,,,,,,,2,2.2027073509962065,,,077,001,2019_Aug_27_1005,MusicAffectPsychophysiology2019,3.0.5,59.88135288872443,
To what extent did the music make you feel ,ANGRY,,,,,,0,7,7,2,,,,,,,,,,,,,,,,,1,1.2028802809945773,,,077,001,2019_Aug_27_1005,MusicAffectPsychophysiology2019,3.0.5,59.88135288872443,
To what extent did the music make you feel ,ALERT,,,,,,0,8,8,8,,,,,,,,,,,,,,,,,2,1.9253876180009684,,,077,001,2019_Aug_27_1005,MusicAffectPsychophysiology2019,3.0.5,59.88135288872443,
To what extent did the music make you feel ,ASHAMED,,,,,,0,9,9,4,,,,,,,,,,,,,,,,,3,1.755043098994065,,,077,001,2019_Aug_27_1005,MusicAffectPsychophysiology2019,3.0.5,59.88135288872443,
To what extent did the music make you feel ,EXCITED,,,,,,0,10,10,7,,,,,,,,,,,,,,,,,3,1.2926080549950711,,,077,001,2019_Aug_27_1005,MusicAffectPsychophysiology2019,3.0.5,59.88135288872443,
To what extent did the music make you feel ,SCARED,,,,,,0,11,11,11,,,,,,,,,,,,,,,,,2,1.3729332249931758,,,077,001,2019_Aug_27_1005,MusicAffectPsychophysiology2019,3.0.5,59.88135288872443,
To what extent did the music make you feel ,ASHAMED,30MonoWAV/30MonoS3.wav,1,1,3,11,,,,,0,0,0,10,0,0,0,4,,,3,5.370580532005988,4,6.052843762008706,2,2.2506856929976493,2,4.903296792006586,,,077,001,2019_Aug_27_1005,MusicAffectPsychophysiology2019,3.0.5,59.88135288872443,
To what extent did the music make you feel ,SAD,30MonoWAV/30MonoS3.wav,1,1,3,11,,,,,0,0,0,10,0,1,1,0,,,,,,,,,3,2.670749531011097,,,077,001,2019_Aug_27_1005,MusicAffectPsychophysiology2019,3.0.5,59.88135288872443,
To what extent did the music make you feel ,EXCITED,30MonoWAV/30MonoS3.wav,1,1,3,11,,,,,0,0,0,10,0,2,2,7,,,,,,,,,2,1.4000911990005989,,,077,001,2019_Aug_27_1005,MusicAffectPsychophysiology2019,3.0.5,59.88135288872443,
To what extent did the music make you feel ,TENDER,30MonoWAV/30MonoS3.wav,1,1,3,11,,,,,0,0,0,10,0,3,3,10,,,,,,,,,3,2.2030280830076663,,,077,001,2019_Aug_27_1005,MusicAffectPsychophysiology2019,3.0.5,59.88135288872443,
To what extent did the music make you feel ,ANGRY,30MonoWAV/30MonoS3.wav,1,1,3,11,,,,,0,0,0,10,0,4,4,2,,,,,,,,,1,0.952273722999962,,,077,001,2019_Aug_27_1005,MusicAffectPsychophysiology2019,3.0.5,59.88135288872443,
To what extent did the music make you feel ,GUILTY,30MonoWAV/30MonoS3.wav,1,1,3,11,,,,,0,0,0,10,0,5,5,5,,,,,,,,,1,1.0210355000017444,,,077,001,2019_Aug_27_1005,MusicAffectPsychophysiology2019,3.0.5,59.88135288872443,
To what extent did the music make you feel ,ANXIOUS ,30MonoWAV/30MonoS3.wav,1,1,3,11,,,,,0,0,0,10,0,6,6,1,,,,,,,,,1,1.4535873100103345,,,077,001,2019_Aug_27_1005,MusicAffectPsychophysiology2019,3.0.5,59.88135288872443,
To what extent did the music make you feel ,ACTIVE,30MonoWAV/30MonoS3.wav,1,1,3,11,,,,,0,0,0,10,0,7,7,9,,,,,,,,,3,2.1869430400111014,,,077,001,2019_Aug_27_1005,MusicAffectPsychophysiology2019,3.0.5,59.88135288872443,
To what extent did the music make you feel ,HAPPY,30MonoWAV/30MonoS3.wav,1,1,3,11,,,,,0,0,0,10,0,8,8,6,,,,,,,,,3,1.968541203008499,,,077,001,2019_Aug_27_1005,MusicAffectPsychophysiology2019,3.0.5,59.88135288872443,
To what extent did the music make you feel ,ALERT,30MonoWAV/30MonoS3.wav,1,1,3,11,,,,,0,0,0,10,0,9,9,8,,,,,,,,,4,2.5858675810013665,,,077,001,2019_Aug_27_1005,MusicAffectPsychophysiology2019,3.0.5,59.88135288872443,
To what extent did the music make you feel ,FRUSTRATED,30MonoWAV/30MonoS3.wav,1,1,3,11,,,,,0,0,0,10,0,10,10,3,,,,,,,,,3,1.4027656260004733,,,077,001,2019_Aug_27_1005,MusicAffectPsychophysiology2019,3.0.5,59.88135288872443,
To what extent did the music make you feel ,SCARED,30MonoWAV/30MonoS3.wav,1,1,3,11,,,,,0,0,0,10,0,11,11,11,,,,,,,,,2,1.3031540850060992,,,077,001,2019_Aug_27_1005,MusicAffectPsychophysiology2019,3.0.5,59.88135288872443,
,,30MonoWAV/30MonoS3.wav,1,1,3,11,,,,,0,0,0,10,,,,,,,,,,,,,,,,,077,001,2019_Aug_27_1005,MusicAffectPsychophysiology2019,3.0.5,59.88135288872443,
To what extent did the music make you feel ,SAD,30MonoWAV/30MonoH1.wav,2,2,1,5,,,,,0,1,1,4,0,0,0,0,,,5,2.75392246399133,4,2.4033743909967598,4,1.4195970949949697,1,5.579505189001793,,,077,001,2019_Aug_27_1005,MusicAffectPsychophysiology2019,3.0.5,59.88135288872443,
To what extent did the music make you feel ,ANXIOUS ,30MonoWAV/30MonoH1.wav,2,2,1,5,,,,,0,1,1,4,0,1,1,1,,,,,,,,,2,2.211593743006233,,,077,001,2019_Aug_27_1005,MusicAffectPsychophysiology2019,3.0.5,59.88135288872443,
To what extent did the music make you feel ,FRUSTRATED,30MonoWAV/30MonoH1.wav,2,2,1,5,,,,,0,1,1,4,0,2,2,3,,,,,,,,,1,1.458511360004195,,,077,001,2019_Aug_27_1005,MusicAffectPsychophysiology2019,3.0.5,59.88135288872443,
To what extent did the music make you feel ,EXCITED,30MonoWAV/30MonoH1.wav,2,2,1,5,,,,,0,1,1,4,0,3,3,7,,,,,,,,,4,1.837230457997066,,,077,001,2019_Aug_27_1005,MusicAffectPsychophysiology2019,3.0.5,59.88135288872443,
To what extent did the music make you feel ,ANGRY,30MonoWAV/30MonoH1.wav,2,2,1,5,,,,,0,1,1,4,0,4,4,2,,,,,,,,,1,2.4033954559999984,,,077,001,2019_Aug_27_1005,MusicAffectPsychophysiology2019,3.0.5,59.88135288872443,
To what extent did the music make you feel ,ASHAMED,30MonoWAV/30MonoH1.wav,2,2,1,5,,,,,0,1,1,4,0,5,5,4,,,,,,,,,1,1.0707741910009645,,,077,001,2019_Aug_27_1005,MusicAffectPsychophysiology2019,3.0.5,59.88135288872443,
To what extent did the music make you feel ,HAPPY,30MonoWAV/30MonoH1.wav,2,2,1,5,,,,,0,1,1,4,0,6,6,6,,,,,,,,,4,1.2035163950058632,,,077,001,2019_Aug_27_1005,MusicAffectPsychophysiology2019,3.0.5,59.88135288872443,
To what extent did the music make you feel ,TENDER,30MonoWAV/30MonoH1.wav,2,2,1,5,,,,,0,1,1,4,0,7,7,10,,,,,,,,,4,1.6600556790072005,,,077,001,2019_Aug_27_1005,MusicAffectPsychophysiology2019,3.0.5,59.88135288872443,
To what extent did the music make you feel ,ALERT,30MonoWAV/30MonoH1.wav,2,2,1,5,,,,,0,1,1,4,0,8,8,8,,,,,,,,,5,2.8780435039952863,,,077,001,2019_Aug_27_1005,MusicAffectPsychophysiology2019,3.0.5,59.88135288872443,
To what extent did the music make you feel ,ACTIVE,30MonoWAV/30MonoH1.wav,2,2,1,5,,,,,0,1,1,4,0,9,9,9,,,,,,,,,5,2.4031784539984073,,,077,001,2019_Aug_27_1005,MusicAffectPsychophysiology2019,3.0.5,59.88135288872443,
To what extent did the music make you feel ,GUILTY,30MonoWAV/30MonoH1.wav,2,2,1,5,,,,,0,1,1,4,0,10,10,5,,,,,,,,,1,1.5871561969979666,,,077,001,2019_Aug_27_1005,MusicAffectPsychophysiology2019,3.0.5,59.88135288872443,
To what extent did the music make you feel ,SCARED,30MonoWAV/30MonoH1.wav,2,2,1,5,,,,,0,1,1,4,0,11,11,11,,,,,,,,,1,0.9442219420016045,,,077,001,2019_Aug_27_1005,MusicAffectPsychophysiology2019,3.0.5,59.88135288872443,
,,30MonoWAV/30MonoH1.wav,2,2,1,5,,,,,0,1,1,4,,,,,,,,,,,,,,,,,077,001,2019_Aug_27_1005,MusicAffectPsychophysiology2019,3.0.5,59.88135288872443,
To what extent did the music make you feel ,FRUSTRATED,30MonoWAV/30MonoT3.wav,2,1,4,15,,,,,0,2,2,14,0,0,0,3,,,4,2.8199306430033175,2,2.6838481559971115,2,2.2698329080012627,3,3.154845919008949,,,077,001,2019_Aug_27_1005,MusicAffectPsychophysiology2019,3.0.5,59.88135288872443,
To what extent did the music make you feel ,ANGRY,30MonoWAV/30MonoT3.wav,2,1,4,15,,,,,0,2,2,14,0,1,1,2,,,,,,,,,3,3.319542648998322,,,077,001,2019_Aug_27_1005,MusicAffectPsychophysiology2019,3.0.5,59.88135288872443,
To what extent did the music make you feel ,ASHAMED,30MonoWAV/30MonoT3.wav,2,1,4,15,,,,,0,2,2,14,0,2,2,4,,,,,,,,,2,1.7036769970000023,,,077,001,2019_Aug_27_1005,MusicAffectPsychophysiology2019,3.0.5,59.88135288872443,
To what extent did the music make you feel ,ACTIVE,30MonoWAV/30MonoT3.wav,2,1,4,15,,,,,0,2,2,14,0,3,3,9,,,,,,,,,2,1.501265921004233,,,077,001,2019_Aug_27_1005,MusicAffectPsychophysiology2019,3.0.5,59.88135288872443,
To what extent did the music make you feel ,SAD,30MonoWAV/30MonoT3.wav,2,1,4,15,,,,,0,2,2,14,0,4,4,0,,,,,,,,,4,1.3846195730002364,,,077,001,2019_Aug_27_1005,MusicAffectPsychophysiology2019,3.0.5,59.88135288872443,
To what extent did the music make you feel ,ANXIOUS ,30MonoWAV/30MonoT3.wav,2,1,4,15,,,,,0,2,2,14,0,5,5,1,,,,,,,,,4,1.600445269010379,,,077,001,2019_Aug_27_1005,MusicAffectPsychophysiology2019,3.0.5,59.88135288872443,
To what extent did the music make you feel ,SCARED,30MonoWAV/30MonoT3.wav,2,1,4,15,,,,,0,2,2,14,0,6,6,11,,,,,,,,,3,1.2874668379954528,,,077,001,2019_Aug_27_1005,MusicAffectPsychophysiology2019,3.0.5,59.88135288872443,
To what extent did the music make you feel ,EXCITED,30MonoWAV/30MonoT3.wav,2,1,4,15,,,,,0,2,2,14,0,7,7,7,,,,,,,,,1,2.052890020990162,,,077,001,2019_Aug_27_1005,MusicAffectPsychophysiology2019,3.0.5,59.88135288872443,
To what extent did the music make you feel ,ALERT,30MonoWAV/30MonoT3.wav,2,1,4,15,,,,,0,2,2,14,0,8,8,8,,,,,,,,,4,1.9696731660078513,,,077,001,2019_Aug_27_1005,MusicAffectPsychophysiology2019,3.0.5,59.88135288872443,
To what extent did the music make you feel ,GUILTY,30MonoWAV/30MonoT3.wav,2,1,4,15,,,,,0,2,2,14,0,9,9,5,,,,,,,,,3,2.7691172050108435,,,077,001,2019_Aug_27_1005,MusicAffectPsychophysiology2019,3.0.5,59.88135288872443,
To what extent did the music make you feel ,TENDER,30MonoWAV/30MonoT3.wav,2,1,4,15,,,,,0,2,2,14,0,10,10,10,,,,,,,,,2,1.8038502530107507,,,077,001,2019_Aug_27_1005,MusicAffectPsychophysiology2019,3.0.5,59.88135288872443,
To what extent did the music make you feel ,HAPPY,30MonoWAV/30MonoT3.wav,2,1,4,15,,,,,0,2,2,14,0,11,11,6,,,,,,,,,2,3.303636609998648,,,077,001,2019_Aug_27_1005,MusicAffectPsychophysiology2019,3.0.5,59.88135288872443,
,,30MonoWAV/30MonoT3.wav,2,1,4,15,,,,,0,2,2,14,,,,,,,,,,,,,,,,,077,001,2019_Aug_27_1005,MusicAffectPsychophysiology2019,3.0.5,59.88135288872443,
To what extent did the music make you feel ,ACTIVE,30MonoWAV/30MonoT4.wav,2,1,4,16,,,,,0,3,3,15,0,0,0,9,,,4,2.5361308340070536,3,2.6191726249962812,3,1.7035159829974873,3,2.636192480000318,,,077,001,2019_Aug_27_1005,MusicAffectPsychophysiology2019,3.0.5,59.88135288872443,
To what extent did the music make you feel ,HAPPY,30MonoWAV/30MonoT4.wav,2,1,4,16,,,,,0,3,3,15,0,1,1,6,,,,,,,,,2,1.936586832991452,,,077,001,2019_Aug_27_1005,MusicAffectPsychophysiology2019,3.0.5,59.88135288872443,
To what extent did the music make you feel ,EXCITED,30MonoWAV/30MonoT4.wav,2,1,4,16,,,,,0,3,3,15,0,2,2,7,,,,,,,,,2,1.1623575319972588,,,077,001,2019_Aug_27_1005,MusicAffectPsychophysiology2019,3.0.5,59.88135288872443,
To what extent did the music make you feel ,FRUSTRATED,30MonoWAV/30MonoT4.wav,2,1,4,16,,,,,0,3,3,15,0,3,3,3,,,,,,,,,3,1.9121276600053534,,,077,001,2019_Aug_27_1005,MusicAffectPsychophysiology2019,3.0.5,59.88135288872443,
To what extent did the music make you feel ,ANGRY,30MonoWAV/30MonoT4.wav,2,1,4,16,,,,,0,3,3,15,0,4,4,2,,,,,,,,,3,1.1361688839970157,,,077,001,2019_Aug_27_1005,MusicAffectPsychophysiology2019,3.0.5,59.88135288872443,
To what extent did the music make you feel ,ANXIOUS ,30MonoWAV/30MonoT4.wav,2,1,4,16,,,,,0,3,3,15,0,5,5,1,,,,,,,,,4,1.095135936004226,,,077,001,2019_Aug_27_1005,MusicAffectPsychophysiology2019,3.0.5,59.88135288872443,
To what extent did the music make you feel ,SCARED,30MonoWAV/30MonoT4.wav,2,1,4,16,,,,,0,3,3,15,0,6,6,11,,,,,,,,,4,1.5944683739944594,,,077,001,2019_Aug_27_1005,MusicAffectPsychophysiology2019,3.0.5,59.88135288872443,
To what extent did the music make you feel ,ASHAMED,30MonoWAV/30MonoT4.wav,2,1,4,16,,,,,0,3,3,15,0,7,7,4,,,,,,,,,4,1.0537218149984255,,,077,001,2019_Aug_27_1005,MusicAffectPsychophysiology2019,3.0.5,59.88135288872443,
To what extent did the music make you feel ,ALERT,30MonoWAV/30MonoT4.wav,2,1,4,16,,,,,0,3,3,15,0,8,8,8,,,,,,,,,3,2.1376939400070114,,,077,001,2019_Aug_27_1005,MusicAffectPsychophysiology2019,3.0.5,59.88135288872443,
To what extent did the music make you feel ,GUILTY,30MonoWAV/30MonoT4.wav,2,1,4,16,,,,,0,3,3,15,0,9,9,5,,,,,,,,,3,1.4953052700002445,,,077,001,2019_Aug_27_1005,MusicAffectPsychophysiology2019,3.0.5,59.88135288872443,
To what extent did the music make you feel ,SAD,30MonoWAV/30MonoT4.wav,2,1,4,16,,,,,0,3,3,15,0,10,10,0,,,,,,,,,4,1.8343169529980514,,,077,001,2019_Aug_27_1005,MusicAffectPsychophysiology2019,3.0.5,59.88135288872443,
To what extent did the music make you feel ,TENDER,30MonoWAV/30MonoT4.wav,2,1,4,16,,,,,0,3,3,15,0,11,11,10,,,,,,,,,3,1.8207936390099349,,,077,001,2019_Aug_27_1005,MusicAffectPsychophysiology2019,3.0.5,59.88135288872443,
,,30MonoWAV/30MonoT4.wav,2,1,4,16,,,,,0,3,3,15,,,,,,,,,,,,,,,,,077,001,2019_Aug_27_1005,MusicAffectPsychophysiology2019,3.0.5,59.88135288872443,
To what extent did the music make you feel ,ALERT,30MonoWAV/30MonoS1.wav,1,1,3,9,,,,,0,4,4,8,0,0,0,8,,,3,6.170231000010972,4,3.5036442860000534,2,1.9034546660113847,1,2.1385138559999177,,,077,001,2019_Aug_27_1005,MusicAffectPsychophysiology2019,3.0.5,59.88135288872443,
To what extent did the music make you feel ,EXCITED,30MonoWAV/30MonoS1.wav,1,1,3,9,,,,,0,4,4,8,0,1,1,7,,,,,,,,,1,1.156006855002488,,,077,001,2019_Aug_27_1005,MusicAffectPsychophysiology2019,3.0.5,59.88135288872443,
To what extent did the music make you feel ,ASHAMED,30MonoWAV/30MonoS1.wav,1,1,3,9,,,,,0,4,4,8,0,2,2,4,,,,,,,,,1,1.134649902000092,,,077,001,2019_Aug_27_1005,MusicAffectPsychophysiology2019,3.0.5,59.88135288872443,
To what extent did the music make you feel ,SAD,30MonoWAV/30MonoS1.wav,1,1,3,9,,,,,0,4,4,8,0,3,3,0,,,,,,,,,4,2.5819329649966676,,,077,001,2019_Aug_27_1005,MusicAffectPsychophysiology2019,3.0.5,59.88135288872443,
To what extent did the music make you feel ,ANXIOUS ,30MonoWAV/30MonoS1.wav,1,1,3,9,,,,,0,4,4,8,0,4,4,1,,,,,,,,,3,0.9376533970062155,,,077,001,2019_Aug_27_1005,MusicAffectPsychophysiology2019,3.0.5,59.88135288872443,
To what extent did the music make you feel ,SCARED,30MonoWAV/30MonoS1.wav,1,1,3,9,,,,,0,4,4,8,0,5,5,11,,,,,,,,,2,1.371301366991247,,,077,001,2019_Aug_27_1005,MusicAffectPsychophysiology2019,3.0.5,59.88135288872443,
To what extent did the music make you feel ,FRUSTRATED,30MonoWAV/30MonoS1.wav,1,1,3,9,,,,,0,4,4,8,0,6,6,3,,,,,,,,,2,1.3204253440053435,,,077,001,2019_Aug_27_1005,MusicAffectPsychophysiology2019,3.0.5,59.88135288872443,
To what extent did the music make you feel ,ANGRY,30MonoWAV/30MonoS1.wav,1,1,3,9,,,,,0,4,4,8,0,7,7,2,,,,,,,,,3,1.3870495430019218,,,077,001,2019_Aug_27_1005,MusicAffectPsychophysiology2019,3.0.5,59.88135288872443,
To what extent did the music make you feel ,ACTIVE,30MonoWAV/30MonoS1.wav,1,1,3,9,,,,,0,4,4,8,0,8,8,9,,,,,,,,,1,1.284155211003963,,,077,001,2019_Aug_27_1005,MusicAffectPsychophysiology2019,3.0.5,59.88135288872443,
To what extent did the music make you feel ,TENDER,30MonoWAV/30MonoS1.wav,1,1,3,9,,,,,0,4,4,8,0,9,9,10,,,,,,,,,1,1.1866005769988988,,,077,001,2019_Aug_27_1005,MusicAffectPsychophysiology2019,3.0.5,59.88135288872443,
To what extent did the music make you feel ,HAPPY,30MonoWAV/30MonoS1.wav,1,1,3,9,,,,,0,4,4,8,0,10,10,6,,,,,,,,,1,1.087178365996806,,,077,001,2019_Aug_27_1005,MusicAffectPsychophysiology2019,3.0.5,59.88135288872443,
To what extent did the music make you feel ,GUILTY,30MonoWAV/30MonoS1.wav,1,1,3,9,,,,,0,4,4,8,0,11,11,5,,,,,,,,,1,1.353185192012461,,,077,001,2019_Aug_27_1005,MusicAffectPsychophysiology2019,3.0.5,59.88135288872443,
,,30MonoWAV/30MonoS1.wav,1,1,3,9,,,,,0,4,4,8,,,,,,,,,,,,,,,,,077,001,2019_Aug_27_1005,MusicAffectPsychophysiology2019,3.0.5,59.88135288872443,
To what extent did the music make you feel ,SAD,30MonoWAV/30MonoF1.wav,1,2,2,1,,,,,0,5,5,0,0,0,0,0,,,5,2.719938277004985,2,2.7526353200082667,2,3.636778634012444,2,2.4375144420046126,,,077,001,2019_Aug_27_1005,MusicAffectPsychophysiology2019,3.0.5,59.88135288872443,
To what extent did the music make you feel ,FRUSTRATED,30MonoWAV/30MonoF1.wav,1,2,2,1,,,,,0,5,5,0,0,1,1,3,,,,,,,,,3,3.9319674680009484,,,077,001,2019_Aug_27_1005,MusicAffectPsychophysiology2019,3.0.5,59.88135288872443,
To what extent did the music make you feel ,ANGRY,30MonoWAV/30MonoF1.wav,1,2,2,1,,,,,0,5,5,0,0,2,2,2,,,,,,,,,4,2.1644276669976534,,,077,001,2019_Aug_27_1005,MusicAffectPsychophysiology2019,3.0.5,59.88135288872443,
To what extent did the music make you feel ,ANXIOUS ,30MonoWAV/30MonoF1.wav,1,2,2,1,,,,,0,5,5,0,0,3,3,1,,,,,,,,,4,1.3795181370078353,,,077,001,2019_Aug_27_1005,MusicAffectPsychophysiology2019,3.0.5,59.88135288872443,
To what extent did the music make you feel ,ALERT,30MonoWAV/30MonoF1.wav,1,2,2,1,,,,,0,5,5,0,0,4,4,8,,,,,,,,,5,1.9630624840065138,,,077,001,2019_Aug_27_1005,MusicAffectPsychophysiology2019,3.0.5,59.88135288872443,
To what extent did the music make you feel ,ASHAMED,30MonoWAV/30MonoF1.wav,1,2,2,1,,,,,0,5,5,0,0,5,5,4,,,,,,,,,3,5.7491394609969575,,,077,001,2019_Aug_27_1005,MusicAffectPsychophysiology2019,3.0.5,59.88135288872443,
To what extent did the music make you feel ,HAPPY,30MonoWAV/30MonoF1.wav,1,2,2,1,,,,,0,5,5,0,0,6,6,6,,,,,,,,,1,2.669974082004046,,,077,001,2019_Aug_27_1005,MusicAffectPsychophysiology2019,3.0.5,59.88135288872443,
To what extent did the music make you feel ,ACTIVE,30MonoWAV/30MonoF1.wav,1,2,2,1,,,,,0,5,5,0,0,7,7,9,,,,,,,,,2,2.476024941992364,,,077,001,2019_Aug_27_1005,MusicAffectPsychophysiology2019,3.0.5,59.88135288872443,
To what extent did the music make you feel ,EXCITED,30MonoWAV/30MonoF1.wav,1,2,2,1,,,,,0,5,5,0,0,8,8,7,,,,,,,,,3,4.021842503003427,,,077,001,2019_Aug_27_1005,MusicAffectPsychophysiology2019,3.0.5,59.88135288872443,
To what extent did the music make you feel ,SCARED,30MonoWAV/30MonoF1.wav,1,2,2,1,,,,,0,5,5,0,0,9,9,11,,,,,,,,,4,1.6031611390062608,,,077,001,2019_Aug_27_1005,MusicAffectPsychophysiology2019,3.0.5,59.88135288872443,
To what extent did the music make you feel ,TENDER,30MonoWAV/30MonoF1.wav,1,2,2,1,,,,,0,5,5,0,0,10,10,10,,,,,,,,,4,1.177656545987702,,,077,001,2019_Aug_27_1005,MusicAffectPsychophysiology2019,3.0.5,59.88135288872443,
To what extent did the music make you feel ,GUILTY,30MonoWAV/30MonoF1.wav,1,2,2,1,,,,,0,5,5,0,0,11,11,5,,,,,,,,,4,1.4701576280058362,,,077,001,2019_Aug_27_1005,MusicAffectPsychophysiology2019,3.0.5,59.88135288872443,
,,30MonoWAV/30MonoF1.wav,1,2,2,1,,,,,0,5,5,0,,,,,,,,,,,,,,,,,077,001,2019_Aug_27_1005,MusicAffectPsychophysiology2019,3.0.5,59.88135288872443,
To what extent did the music make you feel ,SCARED,30MonoWAV/30MonoH2.wav,2,2,1,6,,,,,0,6,6,5,0,0,0,11,,,4,4.4534062720049405,4,1.7029759190045297,3,2.369514544989215,1,2.5559411689901026,,,077,001,2019_Aug_27_1005,MusicAffectPsychophysiology2019,3.0.5,59.88135288872443,
To what extent did the music make you feel ,ASHAMED,30MonoWAV/30MonoH2.wav,2,2,1,6,,,,,0,6,6,5,0,1,1,4,,,,,,,,,1,1.2379486709978664,,,077,001,2019_Aug_27_1005,MusicAffectPsychophysiology2019,3.0.5,59.88135288872443,
To what extent did the music make you feel ,SAD,30MonoWAV/30MonoH2.wav,2,2,1,6,,,,,0,6,6,5,0,2,2,0,,,,,,,,,1,0.7364924900030019,,,077,001,2019_Aug_27_1005,MusicAffectPsychophysiology2019,3.0.5,59.88135288872443,
To what extent did the music make you feel ,ALERT,30MonoWAV/30MonoH2.wav,2,2,1,6,,,,,0,6,6,5,0,3,3,8,,,,,,,,,4,1.4389646600029664,,,077,001,2019_Aug_27_1005,MusicAffectPsychophysiology2019,3.0.5,59.88135288872443,
To what extent did the music make you feel ,ANGRY,30MonoWAV/30MonoH2.wav,2,2,1,6,,,,,0,6,6,5,0,4,4,2,,,,,,,,,2,1.4195666010054993,,,077,001,2019_Aug_27_1005,MusicAffectPsychophysiology2019,3.0.5,59.88135288872443,
To what extent did the music make you feel ,TENDER,30MonoWAV/30MonoH2.wav,2,2,1,6,,,,,0,6,6,5,0,5,5,10,,,,,,,,,2,1.0877004149951972,,,077,001,2019_Aug_27_1005,MusicAffectPsychophysiology2019,3.0.5,59.88135288872443,
To what extent did the music make you feel ,GUILTY,30MonoWAV/30MonoH2.wav,2,2,1,6,,,,,0,6,6,5,0,6,6,5,,,,,,,,,1,4.169131938004284,,,077,001,2019_Aug_27_1005,MusicAffectPsychophysiology2019,3.0.5,59.88135288872443,
To what extent did the music make you feel ,HAPPY,30MonoWAV/30MonoH2.wav,2,2,1,6,,,,,0,6,6,5,0,7,7,6,,,,,,,,,3,1.9859920049930224,,,077,001,2019_Aug_27_1005,MusicAffectPsychophysiology2019,3.0.5,59.88135288872443,
To what extent did the music make you feel ,ANXIOUS ,30MonoWAV/30MonoH2.wav,2,2,1,6,,,,,0,6,6,5,0,8,8,1,,,,,,,,,2,1.2029370439995546,,,077,001,2019_Aug_27_1005,MusicAffectPsychophysiology2019,3.0.5,59.88135288872443,
To what extent did the music make you feel ,ACTIVE,30MonoWAV/30MonoH2.wav,2,2,1,6,,,,,0,6,6,5,0,9,9,9,,,,,,,,,4,2.920242751002661,,,077,001,2019_Aug_27_1005,MusicAffectPsychophysiology2019,3.0.5,59.88135288872443,
To what extent did the music make you feel ,FRUSTRATED,30MonoWAV/30MonoH2.wav,2,2,1,6,,,,,0,6,6,5,0,10,10,3,,,,,,,,,4,8.086494555987883,,,077,001,2019_Aug_27_1005,MusicAffectPsychophysiology2019,3.0.5,59.88135288872443,
To what extent did the music make you feel ,EXCITED,30MonoWAV/30MonoH2.wav,2,2,1,6,,,,,0,6,6,5,0,11,11,7,,,,,,,,,4,1.8522860320081236,,,077,001,2019_Aug_27_1005,MusicAffectPsychophysiology2019,3.0.5,59.88135288872443,
,,30MonoWAV/30MonoH2.wav,2,2,1,6,,,,,0,6,6,5,,,,,,,,,,,,,,,,,077,001,2019_Aug_27_1005,MusicAffectPsychophysiology2019,3.0.5,59.88135288872443,
To what extent did the music make you feel ,GUILTY,30MonoWAV/30MonoS4.wav,1,1,3,12,,,,,0,7,7,11,0,0,0,5,,,2,2.82037072199455,4,1.5537649160105502,4,1.5530392650107387,4,2.552814547001617,,,077,001,2019_Aug_27_1005,MusicAffectPsychophysiology2019,3.0.5,59.88135288872443,
To what extent did the music make you feel ,HAPPY,30MonoWAV/30MonoS4.wav,1,1,3,12,,,,,0,7,7,11,0,1,1,6,,,,,,,,,2,2.2376484619890107,,,077,001,2019_Aug_27_1005,MusicAffectPsychophysiology2019,3.0.5,59.88135288872443,
To what extent did the music make you feel ,SAD,30MonoWAV/30MonoS4.wav,1,1,3,12,,,,,0,7,7,11,0,2,2,0,,,,,,,,,4,1.0215405829949304,,,077,001,2019_Aug_27_1005,MusicAffectPsychophysiology2019,3.0.5,59.88135288872443,
To what extent did the music make you feel ,ANGRY,30MonoWAV/30MonoS4.wav,1,1,3,12,,,,,0,7,7,11,0,3,3,2,,,,,,,,,3,1.8801369159918977,,,077,001,2019_Aug_27_1005,MusicAffectPsychophysiology2019,3.0.5,59.88135288872443,
To what extent did the music make you feel ,ACTIVE,30MonoWAV/30MonoS4.wav,1,1,3,12,,,,,0,7,7,11,0,4,4,9,,,,,,,,,1,1.9172972469968954,,,077,001,2019_Aug_27_1005,MusicAffectPsychophysiology2019,3.0.5,59.88135288872443,
To what extent did the music make you feel ,ALERT,30MonoWAV/30MonoS4.wav,1,1,3,12,,,,,0,7,7,11,0,5,5,8,,,,,,,,,1,0.9368151759990724,,,077,001,2019_Aug_27_1005,MusicAffectPsychophysiology2019,3.0.5,59.88135288872443,
To what extent did the music make you feel ,SCARED,30MonoWAV/30MonoS4.wav,1,1,3,12,,,,,0,7,7,11,0,6,6,11,,,,,,,,,3,2.0463300039991736,,,077,001,2019_Aug_27_1005,MusicAffectPsychophysiology2019,3.0.5,59.88135288872443,
To what extent did the music make you feel ,ASHAMED,30MonoWAV/30MonoS4.wav,1,1,3,12,,,,,0,7,7,11,0,7,7,4,,,,,,,,,4,1.0699061339983018,,,077,001,2019_Aug_27_1005,MusicAffectPsychophysiology2019,3.0.5,59.88135288872443,
To what extent did the music make you feel ,EXCITED,30MonoWAV/30MonoS4.wav,1,1,3,12,,,,,0,7,7,11,0,8,8,7,,,,,,,,,1,1.1468238759989617,,,077,001,2019_Aug_27_1005,MusicAffectPsychophysiology2019,3.0.5,59.88135288872443,
To what extent did the music make you feel ,FRUSTRATED,30MonoWAV/30MonoS4.wav,1,1,3,12,,,,,0,7,7,11,0,9,9,3,,,,,,,,,3,1.6472167519968934,,,077,001,2019_Aug_27_1005,MusicAffectPsychophysiology2019,3.0.5,59.88135288872443,
To what extent did the music make you feel ,ANXIOUS ,30MonoWAV/30MonoS4.wav,1,1,3,12,,,,,0,7,7,11,0,10,10,1,,,,,,,,,4,0.9923221390054096,,,077,001,2019_Aug_27_1005,MusicAffectPsychophysiology2019,3.0.5,59.88135288872443,
To what extent did the music make you feel ,TENDER,30MonoWAV/30MonoS4.wav,1,1,3,12,,,,,0,7,7,11,0,11,11,10,,,,,,,,,3,1.0926408110099146,,,077,001,2019_Aug_27_1005,MusicAffectPsychophysiology2019,3.0.5,59.88135288872443,
,,30MonoWAV/30MonoS4.wav,1,1,3,12,,,,,0,7,7,11,,,,,,,,,,,,,,,,,077,001,2019_Aug_27_1005,MusicAffectPsychophysiology2019,3.0.5,59.88135288872443,
To what extent did the music make you feel ,SCARED,30MonoWAV/30MonoS2.wav,1,1,3,10,,,,,0,8,8,9,0,0,0,11,,,1,4.353352710997569,2,2.686408694004058,1,1.6339597429905552,1,2.2890335700067226,,,077,001,2019_Aug_27_1005,MusicAffectPsychophysiology2019,3.0.5,59.88135288872443,
To what extent did the music make you feel ,SAD,30MonoWAV/30MonoS2.wav,1,1,3,10,,,,,0,8,8,9,0,1,1,0,,,,,,,,,3,2.8212325029890053,,,077,001,2019_Aug_27_1005,MusicAffectPsychophysiology2019,3.0.5,59.88135288872443,
To what extent did the music make you feel ,FRUSTRATED,30MonoWAV/30MonoS2.wav,1,1,3,10,,,,,0,8,8,9,0,2,2,3,,,,,,,,,3,1.9566342580073979,,,077,001,2019_Aug_27_1005,MusicAffectPsychophysiology2019,3.0.5,59.88135288872443,
To what extent did the music make you feel ,ANXIOUS ,30MonoWAV/30MonoS2.wav,1,1,3,10,,,,,0,8,8,9,0,3,3,1,,,,,,,,,4,1.2068434660031926,,,077,001,2019_Aug_27_1005,MusicAffectPsychophysiology2019,3.0.5,59.88135288872443,
To what extent did the music make you feel ,TENDER,30MonoWAV/30MonoS2.wav,1,1,3,10,,,,,0,8,8,9,0,4,4,10,,,,,,,,,3,1.4389281159965321,,,077,001,2019_Aug_27_1005,MusicAffectPsychophysiology2019,3.0.5,59.88135288872443,
To what extent did the music make you feel ,ANGRY,30MonoWAV/30MonoS2.wav,1,1,3,10,,,,,0,8,8,9,0,5,5,2,,,,,,,,,2,2.02072774800763,,,077,001,2019_Aug_27_1005,MusicAffectPsychophysiology2019,3.0.5,59.88135288872443,
To what extent did the music make you feel ,ACTIVE,30MonoWAV/30MonoS2.wav,1,1,3,10,,,,,0,8,8,9,0,6,6,9,,,,,,,,,1,1.1546092880016658,,,077,001,2019_Aug_27_1005,MusicAffectPsychophysiology2019,3.0.5,59.88135288872443,
To what extent did the music make you feel ,EXCITED,30MonoWAV/30MonoS2.wav,1,1,3,10,,,,,0,8,8,9,0,7,7,7,,,,,,,,,1,0.9731217119988287,,,077,001,2019_Aug_27_1005,MusicAffectPsychophysiology2019,3.0.5,59.88135288872443,
To what extent did the music make you feel ,HAPPY,30MonoWAV/30MonoS2.wav,1,1,3,10,,,,,0,8,8,9,0,8,8,6,,,,,,,,,1,0.6870547739963513,,,077,001,2019_Aug_27_1005,MusicAffectPsychophysiology2019,3.0.5,59.88135288872443,
To what extent did the music make you feel ,ALERT,30MonoWAV/30MonoS2.wav,1,1,3,10,,,,,0,8,8,9,0,9,9,8,,,,,,,,,1,0.9393110899982275,,,077,001,2019_Aug_27_1005,MusicAffectPsychophysiology2019,3.0.5,59.88135288872443,
To what extent did the music make you feel ,GUILTY,30MonoWAV/30MonoS2.wav,1,1,3,10,,,,,0,8,8,9,0,10,10,5,,,,,,,,,1,1.7515470079961233,,,077,001,2019_Aug_27_1005,MusicAffectPsychophysiology2019,3.0.5,59.88135288872443,
To what extent did the music make you feel ,ASHAMED,30MonoWAV/30MonoS2.wav,1,1,3,10,,,,,0,8,8,9,0,11,11,4,,,,,,,,,3,2.5342407660064055,,,077,001,2019_Aug_27_1005,MusicAffectPsychophysiology2019,3.0.5,59.88135288872443,
,,30MonoWAV/30MonoS2.wav,1,1,3,10,,,,,0,8,8,9,,,,,,,,,,,,,,,,,077,001,2019_Aug_27_1005,MusicAffectPsychophysiology2019,3.0.5,59.88135288872443,
To what extent did the music make you feel ,ASHAMED,30MonoWAV/30MonoT2.wav,2,1,4,14,,,,,0,9,9,13,0,0,0,4,,,4,2.968949831003556,4,1.3360309270065045,4,1.567642573005287,2,2.3367851600050926,,,077,001,2019_Aug_27_1005,MusicAffectPsychophysiology2019,3.0.5,59.88135288872443,
To what extent did the music make you feel ,ANXIOUS ,30MonoWAV/30MonoT2.wav,2,1,4,14,,,,,0,9,9,13,0,1,1,1,,,,,,,,,3,1.1536743229953572,,,077,001,2019_Aug_27_1005,MusicAffectPsychophysiology2019,3.0.5,59.88135288872443,
To what extent did the music make you feel ,HAPPY,30MonoWAV/30MonoT2.wav,2,1,4,14,,,,,0,9,9,13,0,2,2,6,,,,,,,,,4,1.220233857005951,,,077,001,2019_Aug_27_1005,MusicAffectPsychophysiology2019,3.0.5,59.88135288872443,
To what extent did the music make you feel ,SAD,30MonoWAV/30MonoT2.wav,2,1,4,14,,,,,0,9,9,13,0,3,3,0,,,,,,,,,1,1.570614755997667,,,077,001,2019_Aug_27_1005,MusicAffectPsychophysiology2019,3.0.5,59.88135288872443,
To what extent did the music make you feel ,GUILTY,30MonoWAV/30MonoT2.wav,2,1,4,14,,,,,0,9,9,13,0,4,4,5,,,,,,,,,2,3.5198117870022543,,,077,001,2019_Aug_27_1005,MusicAffectPsychophysiology2019,3.0.5,59.88135288872443,
To what extent did the music make you feel ,EXCITED,30MonoWAV/30MonoT2.wav,2,1,4,14,,,,,0,9,9,13,0,5,5,7,,,,,,,,,3,4.2655293850111775,,,077,001,2019_Aug_27_1005,MusicAffectPsychophysiology2019,3.0.5,59.88135288872443,
To what extent did the music make you feel ,FRUSTRATED,30MonoWAV/30MonoT2.wav,2,1,4,14,,,,,0,9,9,13,0,6,6,3,,,,,,,,,2,1.4318376459996216,,,077,001,2019_Aug_27_1005,MusicAffectPsychophysiology2019,3.0.5,59.88135288872443,
To what extent did the music make you feel ,ANGRY,30MonoWAV/30MonoT2.wav,2,1,4,14,,,,,0,9,9,13,0,7,7,2,,,,,,,,,4,3.981408988009207,,,077,001,2019_Aug_27_1005,MusicAffectPsychophysiology2019,3.0.5,59.88135288872443,
To what extent did the music make you feel ,ALERT,30MonoWAV/30MonoT2.wav,2,1,4,14,,,,,0,9,9,13,0,8,8,8,,,,,,,,,4,1.0474466960004065,,,077,001,2019_Aug_27_1005,MusicAffectPsychophysiology2019,3.0.5,59.88135288872443,
To what extent did the music make you feel ,TENDER,30MonoWAV/30MonoT2.wav,2,1,4,14,,,,,0,9,9,13,0,9,9,10,,,,,,,,,4,1.119405719000497,,,077,001,2019_Aug_27_1005,MusicAffectPsychophysiology2019,3.0.5,59.88135288872443,
To what extent did the music make you feel ,SCARED,30MonoWAV/30MonoT2.wav,2,1,4,14,,,,,0,9,9,13,0,10,10,11,,,,,,,,,4,1.2280873240088113,,,077,001,2019_Aug_27_1005,MusicAffectPsychophysiology2019,3.0.5,59.88135288872443,
To what extent did the music make you feel ,ACTIVE,30MonoWAV/30MonoT2.wav,2,1,4,14,,,,,0,9,9,13,0,11,11,9,,,,,,,,,4,1.3871401149954181,,,077,001,2019_Aug_27_1005,MusicAffectPsychophysiology2019,3.0.5,59.88135288872443,
,,30MonoWAV/30MonoT2.wav,2,1,4,14,,,,,0,9,9,13,,,,,,,,,,,,,,,,,077,001,2019_Aug_27_1005,MusicAffectPsychophysiology2019,3.0.5,59.88135288872443,
To what extent did the music make you feel ,ANXIOUS ,30MonoWAV/30MonoH4.wav,2,2,1,8,,,,,0,10,10,7,0,0,0,1,,,5,2.453461872995831,5,1.3838908129982883,5,1.2039309539977694,1,1.825213244999759,,,077,001,2019_Aug_27_1005,MusicAffectPsychophysiology2019,3.0.5,59.88135288872443,
To what extent did the music make you feel ,SAD,30MonoWAV/30MonoH4.wav,2,2,1,8,,,,,0,10,10,7,0,1,1,0,,,,,,,,,1,1.7170377519942122,,,077,001,2019_Aug_27_1005,MusicAffectPsychophysiology2019,3.0.5,59.88135288872443,
To what extent did the music make you feel ,ALERT,30MonoWAV/30MonoH4.wav,2,2,1,8,,,,,0,10,10,7,0,2,2,8,,,,,,,,,4,1.837007085006917,,,077,001,2019_Aug_27_1005,MusicAffectPsychophysiology2019,3.0.5,59.88135288872443,
To what extent did the music make you feel ,GUILTY,30MonoWAV/30MonoH4.wav,2,2,1,8,,,,,0,10,10,7,0,3,3,5,,,,,,,,,2,4.107756359997438,,,077,001,2019_Aug_27_1005,MusicAffectPsychophysiology2019,3.0.5,59.88135288872443,
To what extent did the music make you feel ,SCARED,30MonoWAV/30MonoH4.wav,2,2,1,8,,,,,0,10,10,7,0,4,4,11,,,,,,,,,2,2.073587105012848,,,077,001,2019_Aug_27_1005,MusicAffectPsychophysiology2019,3.0.5,59.88135288872443,
To what extent did the music make you feel ,ACTIVE,30MonoWAV/30MonoH4.wav,2,2,1,8,,,,,0,10,10,7,0,5,5,9,,,,,,,,,4,1.1868015859945444,,,077,001,2019_Aug_27_1005,MusicAffectPsychophysiology2019,3.0.5,59.88135288872443,
To what extent did the music make you feel ,ANGRY,30MonoWAV/30MonoH4.wav,2,2,1,8,,,,,0,10,10,7,0,6,6,2,,,,,,,,,1,1.4228955949947704,,,077,001,2019_Aug_27_1005,MusicAffectPsychophysiology2019,3.0.5,59.88135288872443,
To what extent did the music make you feel ,TENDER,30MonoWAV/30MonoH4.wav,2,2,1,8,,,,,0,10,10,7,0,7,7,10,,,,,,,,,2,1.3904482380021363,,,077,001,2019_Aug_27_1005,MusicAffectPsychophysiology2019,3.0.5,59.88135288872443,
To what extent did the music make you feel ,HAPPY,30MonoWAV/30MonoH4.wav,2,2,1,8,,,,,0,10,10,7,0,8,8,6,,,,,,,,,4,1.569301153998822,,,077,001,2019_Aug_27_1005,MusicAffectPsychophysiology2019,3.0.5,59.88135288872443,
To what extent did the music make you feel ,FRUSTRATED,30MonoWAV/30MonoH4.wav,2,2,1,8,,,,,0,10,10,7,0,9,9,3,,,,,,,,,1,1.2872836419992382,,,077,001,2019_Aug_27_1005,MusicAffectPsychophysiology2019,3.0.5,59.88135288872443,
To what extent did the music make you feel ,ASHAMED,30MonoWAV/30MonoH4.wav,2,2,1,8,,,,,0,10,10,7,0,10,10,4,,,,,,,,,1,1.0205316710053012,,,077,001,2019_Aug_27_1005,MusicAffectPsychophysiology2019,3.0.5,59.88135288872443,
To what extent did the music make you feel ,EXCITED,30MonoWAV/30MonoH4.wav,2,2,1,8,,,,,0,10,10,7,0,11,11,7,,,,,,,,,4,1.1076746119942982,,,077,001,2019_Aug_27_1005,MusicAffectPsychophysiology2019,3.0.5,59.88135288872443,
,,30MonoWAV/30MonoH4.wav,2,2,1,8,,,,,0,10,10,7,,,,,,,,,,,,,,,,,077,001,2019_Aug_27_1005,MusicAffectPsychophysiology2019,3.0.5,59.88135288872443,
To what extent did the music make you feel ,FRUSTRATED,30MonoWAV/30MonoF4.wav,1,2,2,4,,,,,0,11,11,3,0,0,0,3,,,3,3.902746343999752,2,3.669913657999132,2,1.7879887329909252,3,2.0534494040039135,,,077,001,2019_Aug_27_1005,MusicAffectPsychophysiology2019,3.0.5,59.88135288872443,
To what extent did the music make you feel ,EXCITED,30MonoWAV/30MonoF4.wav,1,2,2,4,,,,,0,11,11,3,0,1,1,7,,,,,,,,,2,1.8506657719990471,,,077,001,2019_Aug_27_1005,MusicAffectPsychophysiology2019,3.0.5,59.88135288872443,
To what extent did the music make you feel ,TENDER,30MonoWAV/30MonoF4.wav,1,2,2,4,,,,,0,11,11,3,0,2,2,10,,,,,,,,,3,0.8183900009898935,,,077,001,2019_Aug_27_1005,MusicAffectPsychophysiology2019,3.0.5,59.88135288872443,
To what extent did the music make you feel ,ALERT,30MonoWAV/30MonoF4.wav,1,2,2,4,,,,,0,11,11,3,0,3,3,8,,,,,,,,,2,2.184646330002579,,,077,001,2019_Aug_27_1005,MusicAffectPsychophysiology2019,3.0.5,59.88135288872443,
To what extent did the music make you feel ,GUILTY,30MonoWAV/30MonoF4.wav,1,2,2,4,,,,,0,11,11,3,0,4,4,5,,,,,,,,,4,2.1543928510072874,,,077,001,2019_Aug_27_1005,MusicAffectPsychophysiology2019,3.0.5,59.88135288872443,
To what extent did the music make you feel ,ASHAMED,30MonoWAV/30MonoF4.wav,1,2,2,4,,,,,0,11,11,3,0,5,5,4,,,,,,,,,4,1.151186906005023,,,077,001,2019_Aug_27_1005,MusicAffectPsychophysiology2019,3.0.5,59.88135288872443,
To what extent did the music make you feel ,SCARED,30MonoWAV/30MonoF4.wav,1,2,2,4,,,,,0,11,11,3,0,6,6,11,,,,,,,,,3,3.767291109994403,,,077,001,2019_Aug_27_1005,MusicAffectPsychophysiology2019,3.0.5,59.88135288872443,
To what extent did the music make you feel ,ANGRY,30MonoWAV/30MonoF4.wav,1,2,2,4,,,,,0,11,11,3,0,7,7,2,,,,,,,,,3,4.399884136000765,,,077,001,2019_Aug_27_1005,MusicAffectPsychophysiology2019,3.0.5,59.88135288872443,
To what extent did the music make you feel ,ANXIOUS ,30MonoWAV/30MonoF4.wav,1,2,2,4,,,,,0,11,11,3,0,8,8,1,,,,,,,,,4,3.2490877350064693,,,077,001,2019_Aug_27_1005,MusicAffectPsychophysiology2019,3.0.5,59.88135288872443,
To what extent did the music make you feel ,SAD,30MonoWAV/30MonoF4.wav,1,2,2,4,,,,,0,11,11,3,0,9,9,0,,,,,,,,,3,1.9361276620038552,,,077,001,2019_Aug_27_1005,MusicAffectPsychophysiology2019,3.0.5,59.88135288872443,
To what extent did the music make you feel ,ACTIVE,30MonoWAV/30MonoF4.wav,1,2,2,4,,,,,0,11,11,3,0,10,10,9,,,,,,,,,1,1.1701164779951796,,,077,001,2019_Aug_27_1005,MusicAffectPsychophysiology2019,3.0.5,59.88135288872443,
To what extent did the music make you feel ,HAPPY,30MonoWAV/30MonoF4.wav,1,2,2,4,,,,,0,11,11,3,0,11,11,6,,,,,,,,,1,0.8035411999881035,,,077,001,2019_Aug_27_1005,MusicAffectPsychophysiology2019,3.0.5,59.88135288872443,
,,30MonoWAV/30MonoF4.wav,1,2,2,4,,,,,0,11,11,3,,,,,,,,,,,,,,,,,077,001,2019_Aug_27_1005,MusicAffectPsychophysiology2019,3.0.5,59.88135288872443,
To what extent did the music make you feel ,GUILTY,30MonoWAV/30MonoF3.wav,1,2,2,3,,,,,0,12,12,2,0,0,0,5,,,4,3.349568759003887,2,3.102383246005047,2,6.985989202003111,3,5.575375154992798,,,077,001,2019_Aug_27_1005,MusicAffectPsychophysiology2019,3.0.5,59.88135288872443,
To what extent did the music make you feel ,ASHAMED,30MonoWAV/30MonoF3.wav,1,2,2,3,,,,,0,12,12,2,0,1,1,4,,,,,,,,,3,1.0364508420025231,,,077,001,2019_Aug_27_1005,MusicAffectPsychophysiology2019,3.0.5,59.88135288872443,
To what extent did the music make you feel ,ANGRY,30MonoWAV/30MonoF3.wav,1,2,2,3,,,,,0,12,12,2,0,2,2,2,,,,,,,,,3,1.3521737279952504,,,077,001,2019_Aug_27_1005,MusicAffectPsychophysiology2019,3.0.5,59.88135288872443,
To what extent did the music make you feel ,ALERT,30MonoWAV/30MonoF3.wav,1,2,2,3,,,,,0,12,12,2,0,3,3,8,,,,,,,,,3,1.6580357819912024,,,077,001,2019_Aug_27_1005,MusicAffectPsychophysiology2019,3.0.5,59.88135288872443,
To what extent did the music make you feel ,TENDER,30MonoWAV/30MonoF3.wav,1,2,2,3,,,,,0,12,12,2,0,4,4,10,,,,,,,,,4,0.8912402809946798,,,077,001,2019_Aug_27_1005,MusicAffectPsychophysiology2019,3.0.5,59.88135288872443,
To what extent did the music make you feel ,SAD,30MonoWAV/30MonoF3.wav,1,2,2,3,,,,,0,12,12,2,0,5,5,0,,,,,,,,,4,1.3009006180072902,,,077,001,2019_Aug_27_1005,MusicAffectPsychophysiology2019,3.0.5,59.88135288872443,
To what extent did the music make you feel ,ANXIOUS ,30MonoWAV/30MonoF3.wav,1,2,2,3,,,,,0,12,12,2,0,6,6,1,,,,,,,,,4,0.9207192350004334,,,077,001,2019_Aug_27_1005,MusicAffectPsychophysiology2019,3.0.5,59.88135288872443,
To what extent did the music make you feel ,ACTIVE,30MonoWAV/30MonoF3.wav,1,2,2,3,,,,,0,12,12,2,0,7,7,9,,,,,,,,,3,1.753452507997281,,,077,001,2019_Aug_27_1005,MusicAffectPsychophysiology2019,3.0.5,59.88135288872443,
To what extent did the music make you feel ,HAPPY,30MonoWAV/30MonoF3.wav,1,2,2,3,,,,,0,12,12,2,0,8,8,6,,,,,,,,,2,0.9207481699995697,,,077,001,2019_Aug_27_1005,MusicAffectPsychophysiology2019,3.0.5,59.88135288872443,
To what extent did the music make you feel ,FRUSTRATED,30MonoWAV/30MonoF3.wav,1,2,2,3,,,,,0,12,12,2,0,9,9,3,,,,,,,,,2,1.3879795120010385,,,077,001,2019_Aug_27_1005,MusicAffectPsychophysiology2019,3.0.5,59.88135288872443,
To what extent did the music make you feel ,SCARED,30MonoWAV/30MonoF3.wav,1,2,2,3,,,,,0,12,12,2,0,10,10,11,,,,,,,,,3,1.3893925709999166,,,077,001,2019_Aug_27_1005,MusicAffectPsychophysiology2019,3.0.5,59.88135288872443,
To what extent did the music make you feel ,EXCITED,30MonoWAV/30MonoF3.wav,1,2,2,3,,,,,0,12,12,2,0,11,11,7,,,,,,,,,1,0.9536114270013059,,,077,001,2019_Aug_27_1005,MusicAffectPsychophysiology2019,3.0.5,59.88135288872443,
,,30MonoWAV/30MonoF3.wav,1,2,2,3,,,,,0,12,12,2,,,,,,,,,,,,,,,,,077,001,2019_Aug_27_1005,MusicAffectPsychophysiology2019,3.0.5,59.88135288872443,
To what extent did the music make you feel ,EXCITED,30MonoWAV/30MonoH3.wav,2,2,1,7,,,,,0,13,13,6,0,0,0,7,,,5,2.2839022839907557,5,1.3672480250097578,4,1.4163276290055364,4,2.1373365609906614,,,077,001,2019_Aug_27_1005,MusicAffectPsychophysiology2019,3.0.5,59.88135288872443,
To what extent did the music make you feel ,ALERT,30MonoWAV/30MonoH3.wav,2,2,1,7,,,,,0,13,13,6,0,1,1,8,,,,,,,,,4,1.0000363260041922,,,077,001,2019_Aug_27_1005,MusicAffectPsychophysiology2019,3.0.5,59.88135288872443,
To what extent did the music make you feel ,FRUSTRATED,30MonoWAV/30MonoH3.wav,2,2,1,7,,,,,0,13,13,6,0,2,2,3,,,,,,,,,1,2.2207827270030975,,,077,001,2019_Aug_27_1005,MusicAffectPsychophysiology2019,3.0.5,59.88135288872443,
To what extent did the music make you feel ,SAD,30MonoWAV/30MonoH3.wav,2,2,1,7,,,,,0,13,13,6,0,3,3,0,,,,,,,,,1,1.470448239997495,,,077,001,2019_Aug_27_1005,MusicAffectPsychophysiology2019,3.0.5,59.88135288872443,
To what extent did the music make you feel ,HAPPY,30MonoWAV/30MonoH3.wav,2,2,1,7,,,,,0,13,13,6,0,4,4,6,,,,,,,,,4,1.1868143650062848,,,077,001,2019_Aug_27_1005,MusicAffectPsychophysiology2019,3.0.5,59.88135288872443,
To what extent did the music make you feel ,ANXIOUS ,30MonoWAV/30MonoH3.wav,2,2,1,7,,,,,0,13,13,6,0,5,5,1,,,,,,,,,2,1.1690090659976704,,,077,001,2019_Aug_27_1005,MusicAffectPsychophysiology2019,3.0.5,59.88135288872443,
To what extent did the music make you feel ,ASHAMED,30MonoWAV/30MonoH3.wav,2,2,1,7,,,,,0,13,13,6,0,6,6,4,,,,,,,,,1,1.1862769720028155,,,077,001,2019_Aug_27_1005,MusicAffectPsychophysiology2019,3.0.5,59.88135288872443,
To what extent did the music make you feel ,GUILTY,30MonoWAV/30MonoH3.wav,2,2,1,7,,,,,0,13,13,6,0,7,7,5,,,,,,,,,1,0.7032698580005672,,,077,001,2019_Aug_27_1005,MusicAffectPsychophysiology2019,3.0.5,59.88135288872443,
To what extent did the music make you feel ,ACTIVE,30MonoWAV/30MonoH3.wav,2,2,1,7,,,,,0,13,13,6,0,8,8,9,,,,,,,,,4,1.216691929002991,,,077,001,2019_Aug_27_1005,MusicAffectPsychophysiology2019,3.0.5,59.88135288872443,
To what extent did the music make you feel ,TENDER,30MonoWAV/30MonoH3.wav,2,2,1,7,,,,,0,13,13,6,0,9,9,10,,,,,,,,,2,2.4036816830048338,,,077,001,2019_Aug_27_1005,MusicAffectPsychophysiology2019,3.0.5,59.88135288872443,
To what extent did the music make you feel ,SCARED,30MonoWAV/30MonoH3.wav,2,2,1,7,,,,,0,13,13,6,0,10,10,11,,,,,,,,,1,3.2175971160031622,,,077,001,2019_Aug_27_1005,MusicAffectPsychophysiology2019,3.0.5,59.88135288872443,
To what extent did the music make you feel ,ANGRY,30MonoWAV/30MonoH3.wav,2,2,1,7,,,,,0,13,13,6,0,11,11,2,,,,,,,,,1,0.8841034630022477,,,077,001,2019_Aug_27_1005,MusicAffectPsychophysiology2019,3.0.5,59.88135288872443,
,,30MonoWAV/30MonoH3.wav,2,2,1,7,,,,,0,13,13,6,,,,,,,,,,,,,,,,,077,001,2019_Aug_27_1005,MusicAffectPsychophysiology2019,3.0.5,59.88135288872443,
To what extent did the music make you feel ,FRUSTRATED,30MonoWAV/30MonoF2.wav,1,2,2,2,,,,,0,14,14,1,0,0,0,3,,,2,4.08646758699615,1,1.853608505000011,1,1.2873212499980582,4,1.653088018996641,,,077,001,2019_Aug_27_1005,MusicAffectPsychophysiology2019,3.0.5,59.88135288872443,
To what extent did the music make you feel ,ASHAMED,30MonoWAV/30MonoF2.wav,1,2,2,2,,,,,0,14,14,1,0,1,1,4,,,,,,,,,3,1.4175013030035188,,,077,001,2019_Aug_27_1005,MusicAffectPsychophysiology2019,3.0.5,59.88135288872443,
To what extent did the music make you feel ,HAPPY,30MonoWAV/30MonoF2.wav,1,2,2,2,,,,,0,14,14,1,0,2,2,6,,,,,,,,,1,0.9530185439944034,,,077,001,2019_Aug_27_1005,MusicAffectPsychophysiology2019,3.0.5,59.88135288872443,
To what extent did the music make you feel ,SAD,30MonoWAV/30MonoF2.wav,1,2,2,2,,,,,0,14,14,1,0,3,3,0,,,,,,,,,4,1.2527783589903265,,,077,001,2019_Aug_27_1005,MusicAffectPsychophysiology2019,3.0.5,59.88135288872443,
To what extent did the music make you feel ,ANGRY,30MonoWAV/30MonoF2.wav,1,2,2,2,,,,,0,14,14,1,0,4,4,2,,,,,,,,,3,1.0707587400102057,,,077,001,2019_Aug_27_1005,MusicAffectPsychophysiology2019,3.0.5,59.88135288872443,
To what extent did the music make you feel ,EXCITED,30MonoWAV/30MonoF2.wav,1,2,2,2,,,,,0,14,14,1,0,5,5,7,,,,,,,,,2,4.878540933001204,,,077,001,2019_Aug_27_1005,MusicAffectPsychophysiology2019,3.0.5,59.88135288872443,
To what extent did the music make you feel ,TENDER,30MonoWAV/30MonoF2.wav,1,2,2,2,,,,,0,14,14,1,0,6,6,10,,,,,,,,,3,0.8933663810021244,,,077,001,2019_Aug_27_1005,MusicAffectPsychophysiology2019,3.0.5,59.88135288872443,
To what extent did the music make you feel ,ALERT,30MonoWAV/30MonoF2.wav,1,2,2,2,,,,,0,14,14,1,0,7,7,8,,,,,,,,,4,1.2023213380016387,,,077,001,2019_Aug_27_1005,MusicAffectPsychophysiology2019,3.0.5,59.88135288872443,
To what extent did the music make you feel ,ANXIOUS ,30MonoWAV/30MonoF2.wav,1,2,2,2,,,,,0,14,14,1,0,8,8,1,,,,,,,,,4,0.9103003350028303,,,077,001,2019_Aug_27_1005,MusicAffectPsychophysiology2019,3.0.5,59.88135288872443,
To what extent did the music make you feel ,GUILTY,30MonoWAV/30MonoF2.wav,1,2,2,2,,,,,0,14,14,1,0,9,9,5,,,,,,,,,3,1.253718760999618,,,077,001,2019_Aug_27_1005,MusicAffectPsychophysiology2019,3.0.5,59.88135288872443,
To what extent did the music make you feel ,SCARED,30MonoWAV/30MonoF2.wav,1,2,2,2,,,,,0,14,14,1,0,10,10,11,,,,,,,,,4,1.0604746349999914,,,077,001,2019_Aug_27_1005,MusicAffectPsychophysiology2019,3.0.5,59.88135288872443,
To what extent did the music make you feel ,ACTIVE,30MonoWAV/30MonoF2.wav,1,2,2,2,,,,,0,14,14,1,0,11,11,9,,,,,,,,,3,1.1262084260088159,,,077,001,2019_Aug_27_1005,MusicAffectPsychophysiology2019,3.0.5,59.88135288872443,
,,30MonoWAV/30MonoF2.wav,1,2,2,2,,,,,0,14,14,1,,,,,,,,,,,,,,,,,077,001,2019_Aug_27_1005,MusicAffectPsychophysiology2019,3.0.5,59.88135288872443,
To what extent did the music make you feel ,TENDER,30MonoWAV/30MonoT1.wav,2,1,4,13,,,,,0,15,15,12,0,0,0,10,,,3,4.568971393993706,2,1.9352583619911456,1,2.369551156007219,3,1.3373365290026413,,,077,001,2019_Aug_27_1005,MusicAffectPsychophysiology2019,3.0.5,59.88135288872443,
To what extent did the music make you feel ,EXCITED,30MonoWAV/30MonoT1.wav,2,1,4,13,,,,,0,15,15,12,0,1,1,7,,,,,,,,,2,1.7188524619996315,,,077,001,2019_Aug_27_1005,MusicAffectPsychophysiology2019,3.0.5,59.88135288872443,
To what extent did the music make you feel ,ANGRY,30MonoWAV/30MonoT1.wav,2,1,4,13,,,,,0,15,15,12,0,2,2,2,,,,,,,,,2,1.4360368769994238,,,077,001,2019_Aug_27_1005,MusicAffectPsychophysiology2019,3.0.5,59.88135288872443,
To what extent did the music make you feel ,FRUSTRATED,30MonoWAV/30MonoT1.wav,2,1,4,13,,,,,0,15,15,12,0,3,3,3,,,,,,,,,2,1.851243876008084,,,077,001,2019_Aug_27_1005,MusicAffectPsychophysiology2019,3.0.5,59.88135288872443,
To what extent did the music make you feel ,ACTIVE,30MonoWAV/30MonoT1.wav,2,1,4,13,,,,,0,15,15,12,0,4,4,9,,,,,,,,,2,1.4206936639966443,,,077,001,2019_Aug_27_1005,MusicAffectPsychophysiology2019,3.0.5,59.88135288872443,
To what extent did the music make you feel ,ASHAMED,30MonoWAV/30MonoT1.wav,2,1,4,13,,,,,0,15,15,12,0,5,5,4,,,,,,,,,2,1.2367663159966469,,,077,001,2019_Aug_27_1005,MusicAffectPsychophysiology2019,3.0.5,59.88135288872443,
To what extent did the music make you feel ,SCARED,30MonoWAV/30MonoT1.wav,2,1,4,13,,,,,0,15,15,12,0,6,6,11,,,,,,,,,1,1.368871811995632,,,077,001,2019_Aug_27_1005,MusicAffectPsychophysiology2019,3.0.5,59.88135288872443,
To what extent did the music make you feel ,ANXIOUS ,30MonoWAV/30MonoT1.wav,2,1,4,13,,,,,0,15,15,12,0,7,7,1,,,,,,,,,3,1.8019160340045346,,,077,001,2019_Aug_27_1005,MusicAffectPsychophysiology2019,3.0.5,59.88135288872443,
To what extent did the music make you feel ,SAD,30MonoWAV/30MonoT1.wav,2,1,4,13,,,,,0,15,15,12,0,8,8,0,,,,,,,,,3,3.0705481990007684,,,077,001,2019_Aug_27_1005,MusicAffectPsychophysiology2019,3.0.5,59.88135288872443,
To what extent did the music make you feel ,ALERT,30MonoWAV/30MonoT1.wav,2,1,4,13,,,,,0,15,15,12,0,9,9,8,,,,,,,,,1,1.8868576590029988,,,077,001,2019_Aug_27_1005,MusicAffectPsychophysiology2019,3.0.5,59.88135288872443,
To what extent did the music make you feel ,HAPPY,30MonoWAV/30MonoT1.wav,2,1,4,13,,,,,0,15,15,12,0,10,10,6,,,,,,,,,1,1.4873996550013544,,,077,001,2019_Aug_27_1005,MusicAffectPsychophysiology2019,3.0.5,59.88135288872443,
To what extent did the music make you feel ,GUILTY,30MonoWAV/30MonoT1.wav,2,1,4,13,,,,,0,15,15,12,0,11,11,5,,,,,,,,,1,2.669810000996222,,,077,001,2019_Aug_27_1005,MusicAffectPsychophysiology2019,3.0.5,59.88135288872443,
,,30MonoWAV/30MonoT1.wav,2,1,4,13,,,,,0,15,15,12,,,,,,,,,,,,,,,,,077,001,2019_Aug_27_1005,MusicAffectPsychophysiology2019,3.0.5,59.88135288872443,
To what extent did the music make you feel ,EXCITED,30MonoWAV/30MonoH3.wav,2,2,1,7,,,,,1,0,16,6,0,0,0,7,,,5,2.886893125003553,5,1.6204561649938114,5,0.8186523670010502,4,1.8204484210000373,,,077,001,2019_Aug_27_1005,MusicAffectPsychophysiology2019,3.0.5,59.88135288872443,
To what extent did the music make you feel ,FRUSTRATED,30MonoWAV/30MonoH3.wav,2,2,1,7,,,,,1,0,16,6,0,1,1,3,,,,,,,,,1,2.8300981049978873,,,077,001,2019_Aug_27_1005,MusicAffectPsychophysiology2019,3.0.5,59.88135288872443,
To what extent did the music make you feel ,SCARED,30MonoWAV/30MonoH3.wav,2,2,1,7,,,,,1,0,16,6,0,2,2,11,,,,,,,,,2,3.0868104879918974,,,077,001,2019_Aug_27_1005,MusicAffectPsychophysiology2019,3.0.5,59.88135288872443,
To what extent did the music make you feel ,ACTIVE,30MonoWAV/30MonoH3.wav,2,2,1,7,,,,,1,0,16,6,0,3,3,9,,,,,,,,,4,2.5195101499994053,,,077,001,2019_Aug_27_1005,MusicAffectPsychophysiology2019,3.0.5,59.88135288872443,
To what extent did the music make you feel ,ASHAMED,30MonoWAV/30MonoH3.wav,2,2,1,7,,,,,1,0,16,6,0,4,4,4,,,,,,,,,1,1.4193076160008786,,,077,001,2019_Aug_27_1005,MusicAffectPsychophysiology2019,3.0.5,59.88135288872443,
To what extent did the music make you feel ,ALERT,30MonoWAV/30MonoH3.wav,2,2,1,7,,,,,1,0,16,6,0,5,5,8,,,,,,,,,5,2.0356590079900343,,,077,001,2019_Aug_27_1005,MusicAffectPsychophysiology2019,3.0.5,59.88135288872443,
To what extent did the music make you feel ,HAPPY,30MonoWAV/30MonoH3.wav,2,2,1,7,,,,,1,0,16,6,0,6,6,6,,,,,,,,,4,1.2525160849909298,,,077,001,2019_Aug_27_1005,MusicAffectPsychophysiology2019,3.0.5,59.88135288872443,
To what extent did the music make you feel ,TENDER,30MonoWAV/30MonoH3.wav,2,2,1,7,,,,,1,0,16,6,0,7,7,10,,,,,,,,,4,1.3373912219976773,,,077,001,2019_Aug_27_1005,MusicAffectPsychophysiology2019,3.0.5,59.88135288872443,
To what extent did the music make you feel ,ANXIOUS ,30MonoWAV/30MonoH3.wav,2,2,1,7,,,,,1,0,16,6,0,8,8,1,,,,,,,,,2,1.4364731400128221,,,077,001,2019_Aug_27_1005,MusicAffectPsychophysiology2019,3.0.5,59.88135288872443,
To what extent did the music make you feel ,ANGRY,30MonoWAV/30MonoH3.wav,2,2,1,7,,,,,1,0,16,6,0,9,9,2,,,,,,,,,3,1.152787854996859,,,077,001,2019_Aug_27_1005,MusicAffectPsychophysiology2019,3.0.5,59.88135288872443,
To what extent did the music make you feel ,SAD,30MonoWAV/30MonoH3.wav,2,2,1,7,,,,,1,0,16,6,0,10,10,0,,,,,,,,,1,3.802492283997708,,,077,001,2019_Aug_27_1005,MusicAffectPsychophysiology2019,3.0.5,59.88135288872443,
To what extent did the music make you feel ,GUILTY,30MonoWAV/30MonoH3.wav,2,2,1,7,,,,,1,0,16,6,0,11,11,5,,,,,,,,,1,0.03642025600129273,,,077,001,2019_Aug_27_1005,MusicAffectPsychophysiology2019,3.0.5,59.88135288872443,
,,30MonoWAV/30MonoH3.wav,2,2,1,7,,,,,1,0,16,6,,,,,,,,,,,,,,,,,077,001,2019_Aug_27_1005,MusicAffectPsychophysiology2019,3.0.5,59.88135288872443,
To what extent did the music make you feel ,ANXIOUS ,30MonoWAV/30MonoF4.wav,1,2,2,4,,,,,1,1,17,3,0,0,0,1,,,4,3.1680190699989907,3,1.966644340995117,3,1.7362957799923606,3,5.121220734014059,,,077,001,2019_Aug_27_1005,MusicAffectPsychophysiology2019,3.0.5,59.88135288872443,
To what extent did the music make you feel ,ANGRY,30MonoWAV/30MonoF4.wav,1,2,2,4,,,,,1,1,17,3,0,1,1,2,,,,,,,,,3,1.0838568479957758,,,077,001,2019_Aug_27_1005,MusicAffectPsychophysiology2019,3.0.5,59.88135288872443,
To what extent did the music make you feel ,FRUSTRATED,30MonoWAV/30MonoF4.wav,1,2,2,4,,,,,1,1,17,3,0,2,2,3,,,,,,,,,3,0.886488793999888,,,077,001,2019_Aug_27_1005,MusicAffectPsychophysiology2019,3.0.5,59.88135288872443,
To what extent did the music make you feel ,ACTIVE,30MonoWAV/30MonoF4.wav,1,2,2,4,,,,,1,1,17,3,0,3,3,9,,,,,,,,,3,1.120729730988387,,,077,001,2019_Aug_27_1005,MusicAffectPsychophysiology2019,3.0.5,59.88135288872443,
To what extent did the music make you feel ,SCARED,30MonoWAV/30MonoF4.wav,1,2,2,4,,,,,1,1,17,3,0,4,4,11,,,,,,,,,4,1.1520870579988696,,,077,001,2019_Aug_27_1005,MusicAffectPsychophysiology2019,3.0.5,59.88135288872443,
To what extent did the music make you feel ,ALERT,30MonoWAV/30MonoF4.wav,1,2,2,4,,,,,1,1,17,3,0,5,5,8,,,,,,,,,3,1.2341442960023414,,,077,001,2019_Aug_27_1005,MusicAffectPsychophysiology2019,3.0.5,59.88135288872443,
To what extent did the music make you feel ,ASHAMED,30MonoWAV/30MonoF4.wav,1,2,2,4,,,,,1,1,17,3,0,6,6,4,,,,,,,,,2,1.4203483820019756,,,077,001,2019_Aug_27_1005,MusicAffectPsychophysiology2019,3.0.5,59.88135288872443,
To what extent did the music make you feel ,EXCITED,30MonoWAV/30MonoF4.wav,1,2,2,4,,,,,1,1,17,3,0,7,7,7,,,,,,,,,3,2.135244884993881,,,077,001,2019_Aug_27_1005,MusicAffectPsychophysiology2019,3.0.5,59.88135288872443,
To what extent did the music make you feel ,SAD,30MonoWAV/30MonoF4.wav,1,2,2,4,,,,,1,1,17,3,0,8,8,0,,,,,,,,,2,2.6692819299933035,,,077,001,2019_Aug_27_1005,MusicAffectPsychophysiology2019,3.0.5,59.88135288872443,
To what extent did the music make you feel ,TENDER,30MonoWAV/30MonoF4.wav,1,2,2,4,,,,,1,1,17,3,0,9,9,10,,,,,,,,,2,1.3685217079910217,,,077,001,2019_Aug_27_1005,MusicAffectPsychophysiology2019,3.0.5,59.88135288872443,
To what extent did the music make you feel ,HAPPY,30MonoWAV/30MonoF4.wav,1,2,2,4,,,,,1,1,17,3,0,10,10,6,,,,,,,,,1,1.1696611740044318,,,077,001,2019_Aug_27_1005,MusicAffectPsychophysiology2019,3.0.5,59.88135288872443,
To what extent did the music make you feel ,GUILTY,30MonoWAV/30MonoF4.wav,1,2,2,4,,,,,1,1,17,3,0,11,11,5,,,,,,,,,4,1.904965612993692,,,077,001,2019_Aug_27_1005,MusicAffectPsychophysiology2019,3.0.5,59.88135288872443,
,,30MonoWAV/30MonoF4.wav,1,2,2,4,,,,,1,1,17,3,,,,,,,,,,,,,,,,,077,001,2019_Aug_27_1005,MusicAffectPsychophysiology2019,3.0.5,59.88135288872443,
To what extent did the music make you feel ,ANGRY,30MonoWAV/30MonoT1.wav,2,1,4,13,,,,,1,2,18,12,0,0,0,2,,,3,2.5373605969944037,4,1.3871077140065609,3,2.187037841998972,1,5.835466001997702,,,077,001,2019_Aug_27_1005,MusicAffectPsychophysiology2019,3.0.5,59.88135288872443,
To what extent did the music make you feel ,ANXIOUS ,30MonoWAV/30MonoT1.wav,2,1,4,13,,,,,1,2,18,12,0,1,1,1,,,,,,,,,3,1.4209870480117388,,,077,001,2019_Aug_27_1005,MusicAffectPsychophysiology2019,3.0.5,59.88135288872443,
To what extent did the music make you feel ,GUILTY,30MonoWAV/30MonoT1.wav,2,1,4,13,,,,,1,2,18,12,0,2,2,5,,,,,,,,,1,1.2197469169914257,,,077,001,2019_Aug_27_1005,MusicAffectPsychophysiology2019,3.0.5,59.88135288872443,
To what extent did the music make you feel ,ALERT,30MonoWAV/30MonoT1.wav,2,1,4,13,,,,,1,2,18,12,0,3,3,8,,,,,,,,,3,1.651831980998395,,,077,001,2019_Aug_27_1005,MusicAffectPsychophysiology2019,3.0.5,59.88135288872443,
To what extent did the music make you feel ,SCARED,30MonoWAV/30MonoT1.wav,2,1,4,13,,,,,1,2,18,12,0,4,4,11,,,,,,,,,2,2.66943201101094,,,077,001,2019_Aug_27_1005,MusicAffectPsychophysiology2019,3.0.5,59.88135288872443,
To what extent did the music make you feel ,SAD,30MonoWAV/30MonoT1.wav,2,1,4,13,,,,,1,2,18,12,0,5,5,0,,,,,,,,,4,2.3875648910034215,,,077,001,2019_Aug_27_1005,MusicAffectPsychophysiology2019,3.0.5,59.88135288872443,
To what extent did the music make you feel ,HAPPY,30MonoWAV/30MonoT1.wav,2,1,4,13,,,,,1,2,18,12,0,6,6,6,,,,,,,,,2,1.6698719100095332,,,077,001,2019_Aug_27_1005,MusicAffectPsychophysiology2019,3.0.5,59.88135288872443,
To what extent did the music make you feel ,EXCITED,30MonoWAV/30MonoT1.wav,2,1,4,13,,,,,1,2,18,12,0,7,7,7,,,,,,,,,2,1.703319541993551,,,077,001,2019_Aug_27_1005,MusicAffectPsychophysiology2019,3.0.5,59.88135288872443,
To what extent did the music make you feel ,FRUSTRATED,30MonoWAV/30MonoT1.wav,2,1,4,13,,,,,1,2,18,12,0,8,8,3,,,,,,,,,1,4.446056736007449,,,077,001,2019_Aug_27_1005,MusicAffectPsychophysiology2019,3.0.5,59.88135288872443,
To what extent did the music make you feel ,ACTIVE,30MonoWAV/30MonoT1.wav,2,1,4,13,,,,,1,2,18,12,0,9,9,9,,,,,,,,,2,2.187941056996351,,,077,001,2019_Aug_27_1005,MusicAffectPsychophysiology2019,3.0.5,59.88135288872443,
To what extent did the music make you feel ,TENDER,30MonoWAV/30MonoT1.wav,2,1,4,13,,,,,1,2,18,12,0,10,10,10,,,,,,,,,2,1.4608155409950996,,,077,001,2019_Aug_27_1005,MusicAffectPsychophysiology2019,3.0.5,59.88135288872443,
To what extent did the music make you feel ,ASHAMED,30MonoWAV/30MonoT1.wav,2,1,4,13,,,,,1,2,18,12,0,11,11,4,,,,,,,,,3,2.7529999170074007,,,077,001,2019_Aug_27_1005,MusicAffectPsychophysiology2019,3.0.5,59.88135288872443,
,,30MonoWAV/30MonoT1.wav,2,1,4,13,,,,,1,2,18,12,,,,,,,,,,,,,,,,,077,001,2019_Aug_27_1005,MusicAffectPsychophysiology2019,3.0.5,59.88135288872443,
To what extent did the music make you feel ,TENDER,30MonoWAV/30MonoF2.wav,1,2,2,2,,,,,1,3,19,1,0,0,0,10,,,5,5.133083034001174,2,2.68650719600555,1,2.571360251007718,4,2.5209084550006082,,,077,001,2019_Aug_27_1005,MusicAffectPsychophysiology2019,3.0.5,59.88135288872443,
To what extent did the music make you feel ,ALERT,30MonoWAV/30MonoF2.wav,1,2,2,2,,,,,1,3,19,1,0,1,1,8,,,,,,,,,4,1.840069529003813,,,077,001,2019_Aug_27_1005,MusicAffectPsychophysiology2019,3.0.5,59.88135288872443,
To what extent did the music make you feel ,HAPPY,30MonoWAV/30MonoF2.wav,1,2,2,2,,,,,1,3,19,1,0,2,2,6,,,,,,,,,1,2.636048397005652,,,077,001,2019_Aug_27_1005,MusicAffectPsychophysiology2019,3.0.5,59.88135288872443,
To what extent did the music make you feel ,GUILTY,30MonoWAV/30MonoF2.wav,1,2,2,2,,,,,1,3,19,1,0,3,3,5,,,,,,,,,3,1.7365813549986342,,,077,001,2019_Aug_27_1005,MusicAffectPsychophysiology2019,3.0.5,59.88135288872443,
To what extent did the music make you feel ,FRUSTRATED,30MonoWAV/30MonoF2.wav,1,2,2,2,,,,,1,3,19,1,0,4,4,3,,,,,,,,,3,1.5730557880015112,,,077,001,2019_Aug_27_1005,MusicAffectPsychophysiology2019,3.0.5,59.88135288872443,
To what extent did the music make you feel ,EXCITED,30MonoWAV/30MonoF2.wav,1,2,2,2,,,,,1,3,19,1,0,5,5,7,,,,,,,,,1,1.372798790995148,,,077,001,2019_Aug_27_1005,MusicAffectPsychophysiology2019,3.0.5,59.88135288872443,
To what extent did the music make you feel ,SAD,30MonoWAV/30MonoF2.wav,1,2,2,2,,,,,1,3,19,1,0,6,6,0,,,,,,,,,4,2.102669565996621,,,077,001,2019_Aug_27_1005,MusicAffectPsychophysiology2019,3.0.5,59.88135288872443,
To what extent did the music make you feel ,SCARED,30MonoWAV/30MonoF2.wav,1,2,2,2,,,,,1,3,19,1,0,7,7,11,,,,,,,,,4,1.1377332989941351,,,077,001,2019_Aug_27_1005,MusicAffectPsychophysiology2019,3.0.5,59.88135288872443,
To what extent did the music make you feel ,ASHAMED,30MonoWAV/30MonoF2.wav,1,2,2,2,,,,,1,3,19,1,0,8,8,4,,,,,,,,,3,1.3695697770017432,,,077,001,2019_Aug_27_1005,MusicAffectPsychophysiology2019,3.0.5,59.88135288872443,
To what extent did the music make you feel ,ACTIVE,30MonoWAV/30MonoF2.wav,1,2,2,2,,,,,1,3,19,1,0,9,9,9,,,,,,,,,3,3.2520221849990776,,,077,001,2019_Aug_27_1005,MusicAffectPsychophysiology2019,3.0.5,59.88135288872443,
To what extent did the music make you feel ,ANXIOUS ,30MonoWAV/30MonoF2.wav,1,2,2,2,,,,,1,3,19,1,0,10,10,1,,,,,,,,,3,1.1837036500073737,,,077,001,2019_Aug_27_1005,MusicAffectPsychophysiology2019,3.0.5,59.88135288872443,
To what extent did the music make you feel ,ANGRY,30MonoWAV/30MonoF2.wav,1,2,2,2,,,,,1,3,19,1,0,11,11,2,,,,,,,,,2,1.8338802700018277,,,077,001,2019_Aug_27_1005,MusicAffectPsychophysiology2019,3.0.5,59.88135288872443,
,,30MonoWAV/30MonoF2.wav,1,2,2,2,,,,,1,3,19,1,,,,,,,,,,,,,,,,,077,001,2019_Aug_27_1005,MusicAffectPsychophysiology2019,3.0.5,59.88135288872443,
To what extent did the music make you feel ,FRUSTRATED,30MonoWAV/30MonoS1.wav,1,1,3,9,,,,,1,4,20,8,0,0,0,3,,,3,5.2024161699955584,2,2.1202772420074325,2,1.6700118830049178,1,1.9195455849985592,,,077,001,2019_Aug_27_1005,MusicAffectPsychophysiology2019,3.0.5,59.88135288872443,
To what extent did the music make you feel ,SCARED,30MonoWAV/30MonoS1.wav,1,1,3,9,,,,,1,4,20,8,0,1,1,11,,,,,,,,,1,0.7492406380042667,,,077,001,2019_Aug_27_1005,MusicAffectPsychophysiology2019,3.0.5,59.88135288872443,
To what extent did the music make you feel ,ANGRY,30MonoWAV/30MonoS1.wav,1,1,3,9,,,,,1,4,20,8,0,2,2,2,,,,,,,,,1,0.7278766310046194,,,077,001,2019_Aug_27_1005,MusicAffectPsychophysiology2019,3.0.5,59.88135288872443,
To what extent did the music make you feel ,EXCITED,30MonoWAV/30MonoS1.wav,1,1,3,9,,,,,1,4,20,8,0,3,3,7,,,,,,,,,2,1.8365079919894924,,,077,001,2019_Aug_27_1005,MusicAffectPsychophysiology2019,3.0.5,59.88135288872443,
To what extent did the music make you feel ,SAD,30MonoWAV/30MonoS1.wav,1,1,3,9,,,,,1,4,20,8,0,4,4,0,,,,,,,,,1,0.8366247099911561,,,077,001,2019_Aug_27_1005,MusicAffectPsychophysiology2019,3.0.5,59.88135288872443,
To what extent did the music make you feel ,ASHAMED,30MonoWAV/30MonoS1.wav,1,1,3,9,,,,,1,4,20,8,0,5,5,4,,,,,,,,,2,1.5009729489975143,,,077,001,2019_Aug_27_1005,MusicAffectPsychophysiology2019,3.0.5,59.88135288872443,
To what extent did the music make you feel ,HAPPY,30MonoWAV/30MonoS1.wav,1,1,3,9,,,,,1,4,20,8,0,6,6,6,,,,,,,,,2,1.2521823630086146,,,077,001,2019_Aug_27_1005,MusicAffectPsychophysiology2019,3.0.5,59.88135288872443,
To what extent did the music make you feel ,GUILTY,30MonoWAV/30MonoS1.wav,1,1,3,9,,,,,1,4,20,8,0,7,7,5,,,,,,,,,2,3.086973534998833,,,077,001,2019_Aug_27_1005,MusicAffectPsychophysiology2019,3.0.5,59.88135288872443,
To what extent did the music make you feel ,ACTIVE,30MonoWAV/30MonoS1.wav,1,1,3,9,,,,,1,4,20,8,0,8,8,9,,,,,,,,,1,1.331076466012746,,,077,001,2019_Aug_27_1005,MusicAffectPsychophysiology2019,3.0.5,59.88135288872443,
To what extent did the music make you feel ,ALERT,30MonoWAV/30MonoS1.wav,1,1,3,9,,,,,1,4,20,8,0,9,9,8,,,,,,,,,2,1.6311655869940296,,,077,001,2019_Aug_27_1005,MusicAffectPsychophysiology2019,3.0.5,59.88135288872443,
To what extent did the music make you feel ,TENDER,30MonoWAV/30MonoS1.wav,1,1,3,9,,,,,1,4,20,8,0,10,10,10,,,,,,,,,3,1.0647934339940548,,,077,001,2019_Aug_27_1005,MusicAffectPsychophysiology2019,3.0.5,59.88135288872443,
To what extent did the music make you feel ,ANXIOUS ,30MonoWAV/30MonoS1.wav,1,1,3,9,,,,,1,4,20,8,0,11,11,1,,,,,,,,,3,1.0633750330016483,,,077,001,2019_Aug_27_1005,MusicAffectPsychophysiology2019,3.0.5,59.88135288872443,
,,30MonoWAV/30MonoS1.wav,1,1,3,9,,,,,1,4,20,8,,,,,,,,,,,,,,,,,077,001,2019_Aug_27_1005,MusicAffectPsychophysiology2019,3.0.5,59.88135288872443,
To what extent did the music make you feel ,SCARED,30MonoWAV/30MonoH2.wav,2,2,1,6,,,,,1,5,21,5,0,0,0,11,,,3,4.432993151000119,4,1.4203838690009434,4,1.3034932999871671,2,3.24224854100612,,,077,001,2019_Aug_27_1005,MusicAffectPsychophysiology2019,3.0.5,59.88135288872443,
To what extent did the music make you feel ,EXCITED,30MonoWAV/30MonoH2.wav,2,2,1,6,,,,,1,5,21,5,0,1,1,7,,,,,,,,,3,2.854650697991019,,,077,001,2019_Aug_27_1005,MusicAffectPsychophysiology2019,3.0.5,59.88135288872443,
To what extent did the music make you feel ,ANGRY,30MonoWAV/30MonoH2.wav,2,2,1,6,,,,,1,5,21,5,0,2,2,2,,,,,,,,,1,3.0022597359929932,,,077,001,2019_Aug_27_1005,MusicAffectPsychophysiology2019,3.0.5,59.88135288872443,
To what extent did the music make you feel ,GUILTY,30MonoWAV/30MonoH2.wav,2,2,1,6,,,,,1,5,21,5,0,3,3,5,,,,,,,,,1,0.6579604279977502,,,077,001,2019_Aug_27_1005,MusicAffectPsychophysiology2019,3.0.5,59.88135288872443,
To what extent did the music make you feel ,TENDER,30MonoWAV/30MonoH2.wav,2,2,1,6,,,,,1,5,21,5,0,4,4,10,,,,,,,,,2,1.023937460995512,,,077,001,2019_Aug_27_1005,MusicAffectPsychophysiology2019,3.0.5,59.88135288872443,
To what extent did the music make you feel ,ASHAMED,30MonoWAV/30MonoH2.wav,2,2,1,6,,,,,1,5,21,5,0,5,5,4,,,,,,,,,1,0.7172946589998901,,,077,001,2019_Aug_27_1005,MusicAffectPsychophysiology2019,3.0.5,59.88135288872443,
To what extent did the music make you feel ,FRUSTRATED,30MonoWAV/30MonoH2.wav,2,2,1,6,,,,,1,5,21,5,0,6,6,3,,,,,,,,,1,0.7374537099967711,,,077,001,2019_Aug_27_1005,MusicAffectPsychophysiology2019,3.0.5,59.88135288872443,
To what extent did the music make you feel ,ANXIOUS ,30MonoWAV/30MonoH2.wav,2,2,1,6,,,,,1,5,21,5,0,7,7,1,,,,,,,,,3,1.587875608005561,,,077,001,2019_Aug_27_1005,MusicAffectPsychophysiology2019,3.0.5,59.88135288872443,
To what extent did the music make you feel ,ACTIVE,30MonoWAV/30MonoH2.wav,2,2,1,6,,,,,1,5,21,5,0,8,8,9,,,,,,,,,2,1.5066409349965397,,,077,001,2019_Aug_27_1005,MusicAffectPsychophysiology2019,3.0.5,59.88135288872443,
To what extent did the music make you feel ,HAPPY,30MonoWAV/30MonoH2.wav,2,2,1,6,,,,,1,5,21,5,0,9,9,6,,,,,,,,,3,1.1192676380014746,,,077,001,2019_Aug_27_1005,MusicAffectPsychophysiology2019,3.0.5,59.88135288872443,
To what extent did the music make you feel ,SAD,30MonoWAV/30MonoH2.wav,2,2,1,6,,,,,1,5,21,5,0,10,10,0,,,,,,,,,1,1.2030894079944119,,,077,001,2019_Aug_27_1005,MusicAffectPsychophysiology2019,3.0.5,59.88135288872443,
To what extent did the music make you feel ,ALERT,30MonoWAV/30MonoH2.wav,2,2,1,6,,,,,1,5,21,5,0,11,11,8,,,,,,,,,2,3.187375517998589,,,077,001,2019_Aug_27_1005,MusicAffectPsychophysiology2019,3.0.5,59.88135288872443,
,,30MonoWAV/30MonoH2.wav,2,2,1,6,,,,,1,5,21,5,,,,,,,,,,,,,,,,,077,001,2019_Aug_27_1005,MusicAffectPsychophysiology2019,3.0.5,59.88135288872443,
To what extent did the music make you feel ,TENDER,30MonoWAV/30MonoT2.wav,2,1,4,14,,,,,1,6,22,13,0,0,0,10,,,4,5.220369319999008,3,3.786315139994258,3,1.4864361920044757,2,1.5203864079958294,,,077,001,2019_Aug_27_1005,MusicAffectPsychophysiology2019,3.0.5,59.88135288872443,
To what extent did the music make you feel ,FRUSTRATED,30MonoWAV/30MonoT2.wav,2,1,4,14,,,,,1,6,22,13,0,1,1,3,,,,,,,,,1,1.3673203810030827,,,077,001,2019_Aug_27_1005,MusicAffectPsychophysiology2019,3.0.5,59.88135288872443,
To what extent did the music make you feel ,ANXIOUS ,30MonoWAV/30MonoT2.wav,2,1,4,14,,,,,1,6,22,13,0,2,2,1,,,,,,,,,2,0.836074399005156,,,077,001,2019_Aug_27_1005,MusicAffectPsychophysiology2019,3.0.5,59.88135288872443,
To what extent did the music make you feel ,ANGRY,30MonoWAV/30MonoT2.wav,2,1,4,14,,,,,1,6,22,13,0,3,3,2,,,,,,,,,2,2.6873709479987156,,,077,001,2019_Aug_27_1005,MusicAffectPsychophysiology2019,3.0.5,59.88135288872443,
To what extent did the music make you feel ,HAPPY,30MonoWAV/30MonoT2.wav,2,1,4,14,,,,,1,6,22,13,0,4,4,6,,,,,,,,,4,1.970307434006827,,,077,001,2019_Aug_27_1005,MusicAffectPsychophysiology2019,3.0.5,59.88135288872443,
To what extent did the music make you feel ,ALERT,30MonoWAV/30MonoT2.wav,2,1,4,14,,,,,1,6,22,13,0,5,5,8,,,,,,,,,3,2.133148914013873,,,077,001,2019_Aug_27_1005,MusicAffectPsychophysiology2019,3.0.5,59.88135288872443,
To what extent did the music make you feel ,ASHAMED,30MonoWAV/30MonoT2.wav,2,1,4,14,,,,,1,6,22,13,0,6,6,4,,,,,,,,,3,2.4666346040030476,,,077,001,2019_Aug_27_1005,MusicAffectPsychophysiology2019,3.0.5,59.88135288872443,
To what extent did the music make you feel ,ACTIVE,30MonoWAV/30MonoT2.wav,2,1,4,14,,,,,1,6,22,13,0,7,7,9,,,,,,,,,2,7.216712384994025,,,077,001,2019_Aug_27_1005,MusicAffectPsychophysiology2019,3.0.5,59.88135288872443,
To what extent did the music make you feel ,SAD,30MonoWAV/30MonoT2.wav,2,1,4,14,,,,,1,6,22,13,0,8,8,0,,,,,,,,,1,2.9950827689899597,,,077,001,2019_Aug_27_1005,MusicAffectPsychophysiology2019,3.0.5,59.88135288872443,
To what extent did the music make you feel ,EXCITED,30MonoWAV/30MonoT2.wav,2,1,4,14,,,,,1,6,22,13,0,9,9,7,,,,,,,,,3,1.634307369007729,,,077,001,2019_Aug_27_1005,MusicAffectPsychophysiology2019,3.0.5,59.88135288872443,
To what extent did the music make you feel ,GUILTY,30MonoWAV/30MonoT2.wav,2,1,4,14,,,,,1,6,22,13,0,10,10,5,,,,,,,,,3,1.4192300690046977,,,077,001,2019_Aug_27_1005,MusicAffectPsychophysiology2019,3.0.5,59.88135288872443,
To what extent did the music make you feel ,SCARED,30MonoWAV/30MonoT2.wav,2,1,4,14,,,,,1,6,22,13,0,11,11,11,,,,,,,,,1,1.498415712005226,,,077,001,2019_Aug_27_1005,MusicAffectPsychophysiology2019,3.0.5,59.88135288872443,
,,30MonoWAV/30MonoT2.wav,2,1,4,14,,,,,1,6,22,13,,,,,,,,,,,,,,,,,077,001,2019_Aug_27_1005,MusicAffectPsychophysiology2019,3.0.5,59.88135288872443,
To what extent did the music make you feel ,FRUSTRATED,30MonoWAV/30MonoT3.wav,2,1,4,15,,,,,1,7,23,14,0,0,0,3,,,4,3.1200315860041883,4,0.9868142929917667,4,0.9677318470057799,1,1.9429563459998462,,,077,001,2019_Aug_27_1005,MusicAffectPsychophysiology2019,3.0.5,59.88135288872443,
To what extent did the music make you feel ,ACTIVE,30MonoWAV/30MonoT3.wav,2,1,4,15,,,,,1,7,23,14,0,1,1,9,,,,,,,,,3,1.6201572610007133,,,077,001,2019_Aug_27_1005,MusicAffectPsychophysiology2019,3.0.5,59.88135288872443,
To what extent did the music make you feel ,ASHAMED,30MonoWAV/30MonoT3.wav,2,1,4,15,,,,,1,7,23,14,0,2,2,4,,,,,,,,,2,1.1917430850007804,,,077,001,2019_Aug_27_1005,MusicAffectPsychophysiology2019,3.0.5,59.88135288872443,
To what extent did the music make you feel ,ANGRY,30MonoWAV/30MonoT3.wav,2,1,4,15,,,,,1,7,23,14,0,3,3,2,,,,,,,,,3,2.403138018999016,,,077,001,2019_Aug_27_1005,MusicAffectPsychophysiology2019,3.0.5,59.88135288872443,
To what extent did the music make you feel ,ALERT,30MonoWAV/30MonoT3.wav,2,1,4,15,,,,,1,7,23,14,0,4,4,8,,,,,,,,,3,2.670404182994389,,,077,001,2019_Aug_27_1005,MusicAffectPsychophysiology2019,3.0.5,59.88135288872443,
To what extent did the music make you feel ,TENDER,30MonoWAV/30MonoT3.wav,2,1,4,15,,,,,1,7,23,14,0,5,5,10,,,,,,,,,2,1.0887131420022342,,,077,001,2019_Aug_27_1005,MusicAffectPsychophysiology2019,3.0.5,59.88135288872443,
To what extent did the music make you feel ,HAPPY,30MonoWAV/30MonoT3.wav,2,1,4,15,,,,,1,7,23,14,0,6,6,6,,,,,,,,,4,1.7367108199978247,,,077,001,2019_Aug_27_1005,MusicAffectPsychophysiology2019,3.0.5,59.88135288872443,
To what extent did the music make you feel ,EXCITED,30MonoWAV/30MonoT3.wav,2,1,4,15,,,,,1,7,23,14,0,7,7,7,,,,,,,,,4,1.1409225849929499,,,077,001,2019_Aug_27_1005,MusicAffectPsychophysiology2019,3.0.5,59.88135288872443,
To what extent did the music make you feel ,ANXIOUS ,30MonoWAV/30MonoT3.wav,2,1,4,15,,,,,1,7,23,14,0,8,8,1,,,,,,,,,3,1.357627571997,,,077,001,2019_Aug_27_1005,MusicAffectPsychophysiology2019,3.0.5,59.88135288872443,
To what extent did the music make you feel ,SCARED,30MonoWAV/30MonoT3.wav,2,1,4,15,,,,,1,7,23,14,0,9,9,11,,,,,,,,,1,1.320026549990871,,,077,001,2019_Aug_27_1005,MusicAffectPsychophysiology2019,3.0.5,59.88135288872443,
To what extent did the music make you feel ,SAD,30MonoWAV/30MonoT3.wav,2,1,4,15,,,,,1,7,23,14,0,10,10,0,,,,,,,,,3,1.9878368619974935,,,077,001,2019_Aug_27_1005,MusicAffectPsychophysiology2019,3.0.5,59.88135288872443,
To what extent did the music make you feel ,GUILTY,30MonoWAV/30MonoT3.wav,2,1,4,15,,,,,1,7,23,14,0,11,11,5,,,,,,,,,1,0.9674407819984481,,,077,001,2019_Aug_27_1005,MusicAffectPsychophysiology2019,3.0.5,59.88135288872443,
,,30MonoWAV/30MonoT3.wav,2,1,4,15,,,,,1,7,23,14,,,,,,,,,,,,,,,,,077,001,2019_Aug_27_1005,MusicAffectPsychophysiology2019,3.0.5,59.88135288872443,
To what extent did the music make you feel ,GUILTY,30MonoWAV/30MonoF3.wav,1,2,2,3,,,,,1,8,24,2,0,0,0,5,,,4,3.569631058999221,2,3.3192842830030713,3,2.269185616998584,3,2.9853899080044357,,,077,001,2019_Aug_27_1005,MusicAffectPsychophysiology2019,3.0.5,59.88135288872443,
To what extent did the music make you feel ,HAPPY,30MonoWAV/30MonoF3.wav,1,2,2,3,,,,,1,8,24,2,0,1,1,6,,,,,,,,,2,2.9863488379924092,,,077,001,2019_Aug_27_1005,MusicAffectPsychophysiology2019,3.0.5,59.88135288872443,
To what extent did the music make you feel ,SAD,30MonoWAV/30MonoF3.wav,1,2,2,3,,,,,1,8,24,2,0,2,2,0,,,,,,,,,3,1.3344801690109307,,,077,001,2019_Aug_27_1005,MusicAffectPsychophysiology2019,3.0.5,59.88135288872443,
To what extent did the music make you feel ,SCARED,30MonoWAV/30MonoF3.wav,1,2,2,3,,,,,1,8,24,2,0,3,3,11,,,,,,,,,4,0.9506629099923884,,,077,001,2019_Aug_27_1005,MusicAffectPsychophysiology2019,3.0.5,59.88135288872443,
To what extent did the music make you feel ,ASHAMED,30MonoWAV/30MonoF3.wav,1,2,2,3,,,,,1,8,24,2,0,4,4,4,,,,,,,,,4,0.8685936800029594,,,077,001,2019_Aug_27_1005,MusicAffectPsychophysiology2019,3.0.5,59.88135288872443,
To what extent did the music make you feel ,FRUSTRATED,30MonoWAV/30MonoF3.wav,1,2,2,3,,,,,1,8,24,2,0,5,5,3,,,,,,,,,4,1.2037199529877398,,,077,001,2019_Aug_27_1005,MusicAffectPsychophysiology2019,3.0.5,59.88135288872443,
To what extent did the music make you feel ,ANGRY,30MonoWAV/30MonoF3.wav,1,2,2,3,,,,,1,8,24,2,0,6,6,2,,,,,,,,,2,2.3697101830039173,,,077,001,2019_Aug_27_1005,MusicAffectPsychophysiology2019,3.0.5,59.88135288872443,
To what extent did the music make you feel ,ALERT,30MonoWAV/30MonoF3.wav,1,2,2,3,,,,,1,8,24,2,0,7,7,8,,,,,,,,,3,2.697354065006948,,,077,001,2019_Aug_27_1005,MusicAffectPsychophysiology2019,3.0.5,59.88135288872443,
To what extent did the music make you feel ,TENDER,30MonoWAV/30MonoF3.wav,1,2,2,3,,,,,1,8,24,2,0,8,8,10,,,,,,,,,3,1.653095025991206,,,077,001,2019_Aug_27_1005,MusicAffectPsychophysiology2019,3.0.5,59.88135288872443,
To what extent did the music make you feel ,ACTIVE,30MonoWAV/30MonoF3.wav,1,2,2,3,,,,,1,8,24,2,0,9,9,9,,,,,,,,,1,1.9363886280043516,,,077,001,2019_Aug_27_1005,MusicAffectPsychophysiology2019,3.0.5,59.88135288872443,
To what extent did the music make you feel ,ANXIOUS ,30MonoWAV/30MonoF3.wav,1,2,2,3,,,,,1,8,24,2,0,10,10,1,,,,,,,,,2,1.3493709490139736,,,077,001,2019_Aug_27_1005,MusicAffectPsychophysiology2019,3.0.5,59.88135288872443,
To what extent did the music make you feel ,EXCITED,30MonoWAV/30MonoF3.wav,1,2,2,3,,,,,1,8,24,2,0,11,11,7,,,,,,,,,1,1.0816757120046532,,,077,001,2019_Aug_27_1005,MusicAffectPsychophysiology2019,3.0.5,59.88135288872443,
,,30MonoWAV/30MonoF3.wav,1,2,2,3,,,,,1,8,24,2,,,,,,,,,,,,,,,,,077,001,2019_Aug_27_1005,MusicAffectPsychophysiology2019,3.0.5,59.88135288872443,
To what extent did the music make you feel ,ACTIVE,30MonoWAV/30MonoH1.wav,2,2,1,5,,,,,1,9,25,4,0,0,0,9,,,2,3.203366786998231,4,4.816933620997588,2,1.553427412000019,2,1.361567379994085,,,077,001,2019_Aug_27_1005,MusicAffectPsychophysiology2019,3.0.5,59.88135288872443,
To what extent did the music make you feel ,GUILTY,30MonoWAV/30MonoH1.wav,2,2,1,5,,,,,1,9,25,4,0,1,1,5,,,,,,,,,1,2.5269741980009712,,,077,001,2019_Aug_27_1005,MusicAffectPsychophysiology2019,3.0.5,59.88135288872443,
To what extent did the music make you feel ,FRUSTRATED,30MonoWAV/30MonoH1.wav,2,2,1,5,,,,,1,9,25,4,0,2,2,3,,,,,,,,,1,0.7429811229958432,,,077,001,2019_Aug_27_1005,MusicAffectPsychophysiology2019,3.0.5,59.88135288872443,
To what extent did the music make you feel ,ANGRY,30MonoWAV/30MonoH1.wav,2,2,1,5,,,,,1,9,25,4,0,3,3,2,,,,,,,,,1,0.8195714580069762,,,077,001,2019_Aug_27_1005,MusicAffectPsychophysiology2019,3.0.5,59.88135288872443,
To what extent did the music make you feel ,ASHAMED,30MonoWAV/30MonoH1.wav,2,2,1,5,,,,,1,9,25,4,0,4,4,4,,,,,,,,,2,4.053016360994661,,,077,001,2019_Aug_27_1005,MusicAffectPsychophysiology2019,3.0.5,59.88135288872443,
To what extent did the music make you feel ,ALERT,30MonoWAV/30MonoH1.wav,2,2,1,5,,,,,1,9,25,4,0,5,5,8,,,,,,,,,2,1.8267793739942135,,,077,001,2019_Aug_27_1005,MusicAffectPsychophysiology2019,3.0.5,59.88135288872443,
To what extent did the music make you feel ,TENDER,30MonoWAV/30MonoH1.wav,2,2,1,5,,,,,1,9,25,4,0,6,6,10,,,,,,,,,2,1.7593643629952567,,,077,001,2019_Aug_27_1005,MusicAffectPsychophysiology2019,3.0.5,59.88135288872443,
To what extent did the music make you feel ,HAPPY,30MonoWAV/30MonoH1.wav,2,2,1,5,,,,,1,9,25,4,0,7,7,6,,,,,,,,,3,1.525870607001707,,,077,001,2019_Aug_27_1005,MusicAffectPsychophysiology2019,3.0.5,59.88135288872443,
To what extent did the music make you feel ,ANXIOUS ,30MonoWAV/30MonoH1.wav,2,2,1,5,,,,,1,9,25,4,0,8,8,1,,,,,,,,,3,1.5586989559960784,,,077,001,2019_Aug_27_1005,MusicAffectPsychophysiology2019,3.0.5,59.88135288872443,
To what extent did the music make you feel ,EXCITED,30MonoWAV/30MonoH1.wav,2,2,1,5,,,,,1,9,25,4,0,9,9,7,,,,,,,,,2,1.7250400810007704,,,077,001,2019_Aug_27_1005,MusicAffectPsychophysiology2019,3.0.5,59.88135288872443,
To what extent did the music make you feel ,SCARED,30MonoWAV/30MonoH1.wav,2,2,1,5,,,,,1,9,25,4,0,10,10,11,,,,,,,,,1,1.2246366609906545,,,077,001,2019_Aug_27_1005,MusicAffectPsychophysiology2019,3.0.5,59.88135288872443,
To what extent did the music make you feel ,SAD,30MonoWAV/30MonoH1.wav,2,2,1,5,,,,,1,9,25,4,0,11,11,0,,,,,,,,,3,1.5546376580023207,,,077,001,2019_Aug_27_1005,MusicAffectPsychophysiology2019,3.0.5,59.88135288872443,
,,30MonoWAV/30MonoH1.wav,2,2,1,5,,,,,1,9,25,4,,,,,,,,,,,,,,,,,077,001,2019_Aug_27_1005,MusicAffectPsychophysiology2019,3.0.5,59.88135288872443,
To what extent did the music make you feel ,GUILTY,30MonoWAV/30MonoS3.wav,1,1,3,11,,,,,1,10,26,10,0,0,0,5,,,4,3.2866209619969595,3,3.6207129649992567,2,1.5208401120034978,2,7.036537477004458,,,077,001,2019_Aug_27_1005,MusicAffectPsychophysiology2019,3.0.5,59.88135288872443,
To what extent did the music make you feel ,TENDER,30MonoWAV/30MonoS3.wav,1,1,3,11,,,,,1,10,26,10,0,1,1,10,,,,,,,,,3,1.537131548000616,,,077,001,2019_Aug_27_1005,MusicAffectPsychophysiology2019,3.0.5,59.88135288872443,
To what extent did the music make you feel ,SCARED,30MonoWAV/30MonoS3.wav,1,1,3,11,,,,,1,10,26,10,0,2,2,11,,,,,,,,,2,1.6028182620066218,,,077,001,2019_Aug_27_1005,MusicAffectPsychophysiology2019,3.0.5,59.88135288872443,
To what extent did the music make you feel ,ANGRY,30MonoWAV/30MonoS3.wav,1,1,3,11,,,,,1,10,26,10,0,3,3,2,,,,,,,,,1,1.3499317569949199,,,077,001,2019_Aug_27_1005,MusicAffectPsychophysiology2019,3.0.5,59.88135288872443,
To what extent did the music make you feel ,ACTIVE,30MonoWAV/30MonoS3.wav,1,1,3,11,,,,,1,10,26,10,0,4,4,9,,,,,,,,,3,2.003559836986824,,,077,001,2019_Aug_27_1005,MusicAffectPsychophysiology2019,3.0.5,59.88135288872443,
To what extent did the music make you feel ,EXCITED,30MonoWAV/30MonoS3.wav,1,1,3,11,,,,,1,10,26,10,0,5,5,7,,,,,,,,,2,2.0347292689984897,,,077,001,2019_Aug_27_1005,MusicAffectPsychophysiology2019,3.0.5,59.88135288872443,
To what extent did the music make you feel ,ANXIOUS ,30MonoWAV/30MonoS3.wav,1,1,3,11,,,,,1,10,26,10,0,6,6,1,,,,,,,,,3,1.0374989940028172,,,077,001,2019_Aug_27_1005,MusicAffectPsychophysiology2019,3.0.5,59.88135288872443,
To what extent did the music make you feel ,HAPPY,30MonoWAV/30MonoS3.wav,1,1,3,11,,,,,1,10,26,10,0,7,7,6,,,,,,,,,3,1.0865512000018498,,,077,001,2019_Aug_27_1005,MusicAffectPsychophysiology2019,3.0.5,59.88135288872443,
To what extent did the music make you feel ,ALERT,30MonoWAV/30MonoS3.wav,1,1,3,11,,,,,1,10,26,10,0,8,8,8,,,,,,,,,1,1.151188727002591,,,077,001,2019_Aug_27_1005,MusicAffectPsychophysiology2019,3.0.5,59.88135288872443,
To what extent did the music make you feel ,ASHAMED,30MonoWAV/30MonoS3.wav,1,1,3,11,,,,,1,10,26,10,0,9,9,4,,,,,,,,,2,1.621485585012124,,,077,001,2019_Aug_27_1005,MusicAffectPsychophysiology2019,3.0.5,59.88135288872443,
To what extent did the music make you feel ,FRUSTRATED,30MonoWAV/30MonoS3.wav,1,1,3,11,,,,,1,10,26,10,0,10,10,3,,,,,,,,,1,1.5868198499956634,,,077,001,2019_Aug_27_1005,MusicAffectPsychophysiology2019,3.0.5,59.88135288872443,
To what extent did the music make you feel ,SAD,30MonoWAV/30MonoS3.wav,1,1,3,11,,,,,1,10,26,10,0,11,11,0,,,,,,,,,2,3.5688248660007957,,,077,001,2019_Aug_27_1005,MusicAffectPsychophysiology2019,3.0.5,59.88135288872443,
,,30MonoWAV/30MonoS3.wav,1,1,3,11,,,,,1,10,26,10,,,,,,,,,,,,,,,,,077,001,2019_Aug_27_1005,MusicAffectPsychophysiology2019,3.0.5,59.88135288872443,
To what extent did the music make you feel ,HAPPY,30MonoWAV/30MonoT4.wav,2,1,4,16,,,,,1,11,27,15,0,0,0,6,,,5,3.1187956479989225,4,3.201472045009723,4,0.9176725549914408,4,1.6085476500011282,,,077,001,2019_Aug_27_1005,MusicAffectPsychophysiology2019,3.0.5,59.88135288872443,
To what extent did the music make you feel ,FRUSTRATED,30MonoWAV/30MonoT4.wav,2,1,4,16,,,,,1,11,27,15,0,1,1,3,,,,,,,,,2,1.719273123992025,,,077,001,2019_Aug_27_1005,MusicAffectPsychophysiology2019,3.0.5,59.88135288872443,
To what extent did the music make you feel ,TENDER,30MonoWAV/30MonoT4.wav,2,1,4,16,,,,,1,11,27,15,0,2,2,10,,,,,,,,,4,3.6084354370104847,,,077,001,2019_Aug_27_1005,MusicAffectPsychophysiology2019,3.0.5,59.88135288872443,
To what extent did the music make you feel ,ALERT,30MonoWAV/30MonoT4.wav,2,1,4,16,,,,,1,11,27,15,0,3,3,8,,,,,,,,,4,2.3045994260028237,,,077,001,2019_Aug_27_1005,MusicAffectPsychophysiology2019,3.0.5,59.88135288872443,
To what extent did the music make you feel ,GUILTY,30MonoWAV/30MonoT4.wav,2,1,4,16,,,,,1,11,27,15,0,4,4,5,,,,,,,,,1,1.1523527020035544,,,077,001,2019_Aug_27_1005,MusicAffectPsychophysiology2019,3.0.5,59.88135288872443,
To what extent did the music make you feel ,ACTIVE,30MonoWAV/30MonoT4.wav,2,1,4,16,,,,,1,11,27,15,0,5,5,9,,,,,,,,,4,1.150391513001523,,,077,001,2019_Aug_27_1005,MusicAffectPsychophysiology2019,3.0.5,59.88135288872443,
To what extent did the music make you feel ,ANGRY,30MonoWAV/30MonoT4.wav,2,1,4,16,,,,,1,11,27,15,0,6,6,2,,,,,,,,,3,1.620645370989223,,,077,001,2019_Aug_27_1005,MusicAffectPsychophysiology2019,3.0.5,59.88135288872443,
To what extent did the music make you feel ,ASHAMED,30MonoWAV/30MonoT4.wav,2,1,4,16,,,,,1,11,27,15,0,7,7,4,,,,,,,,,3,2.0015327840083046,,,077,001,2019_Aug_27_1005,MusicAffectPsychophysiology2019,3.0.5,59.88135288872443,
To what extent did the music make you feel ,EXCITED,30MonoWAV/30MonoT4.wav,2,1,4,16,,,,,1,11,27,15,0,8,8,7,,,,,,,,,4,1.117491228011204,,,077,001,2019_Aug_27_1005,MusicAffectPsychophysiology2019,3.0.5,59.88135288872443,
To what extent did the music make you feel ,SCARED,30MonoWAV/30MonoT4.wav,2,1,4,16,,,,,1,11,27,15,0,9,9,11,,,,,,,,,2,5.685812192998128,,,077,001,2019_Aug_27_1005,MusicAffectPsychophysiology2019,3.0.5,59.88135288872443,
To what extent did the music make you feel ,SAD,30MonoWAV/30MonoT4.wav,2,1,4,16,,,,,1,11,27,15,0,10,10,0,,,,,,,,,3,3.169310366996797,,,077,001,2019_Aug_27_1005,MusicAffectPsychophysiology2019,3.0.5,59.88135288872443,
To what extent did the music make you feel ,ANXIOUS ,30MonoWAV/30MonoT4.wav,2,1,4,16,,,,,1,11,27,15,0,11,11,1,,,,,,,,,1,1.7850789670046652,,,077,001,2019_Aug_27_1005,MusicAffectPsychophysiology2019,3.0.5,59.88135288872443,
,,30MonoWAV/30MonoT4.wav,2,1,4,16,,,,,1,11,27,15,,,,,,,,,,,,,,,,,077,001,2019_Aug_27_1005,MusicAffectPsychophysiology2019,3.0.5,59.88135288872443,
To what extent did the music make you feel ,SCARED,30MonoWAV/30MonoS2.wav,1,1,3,10,,,,,1,12,28,9,0,0,0,11,,,1,2.5864645870024106,2,4.902273525003693,2,1.5535099739936413,2,2.853934755999944,,,077,001,2019_Aug_27_1005,MusicAffectPsychophysiology2019,3.0.5,59.88135288872443,
To what extent did the music make you feel ,ASHAMED,30MonoWAV/30MonoS2.wav,1,1,3,10,,,,,1,12,28,9,0,1,1,4,,,,,,,,,3,1.1539075869950466,,,077,001,2019_Aug_27_1005,MusicAffectPsychophysiology2019,3.0.5,59.88135288872443,
To what extent did the music make you feel ,ACTIVE,30MonoWAV/30MonoS2.wav,1,1,3,10,,,,,1,12,28,9,0,2,2,9,,,,,,,,,1,1.5335532689932734,,,077,001,2019_Aug_27_1005,MusicAffectPsychophysiology2019,3.0.5,59.88135288872443,
To what extent did the music make you feel ,SAD,30MonoWAV/30MonoS2.wav,1,1,3,10,,,,,1,12,28,9,0,3,3,0,,,,,,,,,2,1.8196560899959877,,,077,001,2019_Aug_27_1005,MusicAffectPsychophysiology2019,3.0.5,59.88135288872443,
To what extent did the music make you feel ,FRUSTRATED,30MonoWAV/30MonoS2.wav,1,1,3,10,,,,,1,12,28,9,0,4,4,3,,,,,,,,,3,1.2360183770069852,,,077,001,2019_Aug_27_1005,MusicAffectPsychophysiology2019,3.0.5,59.88135288872443,
To what extent did the music make you feel ,EXCITED,30MonoWAV/30MonoS2.wav,1,1,3,10,,,,,1,12,28,9,0,5,5,7,,,,,,,,,1,2.1360107609943952,,,077,001,2019_Aug_27_1005,MusicAffectPsychophysiology2019,3.0.5,59.88135288872443,
To what extent did the music make you feel ,ANGRY,30MonoWAV/30MonoS2.wav,1,1,3,10,,,,,1,12,28,9,0,6,6,2,,,,,,,,,1,1.720148391003022,,,077,001,2019_Aug_27_1005,MusicAffectPsychophysiology2019,3.0.5,59.88135288872443,
To what extent did the music make you feel ,HAPPY,30MonoWAV/30MonoS2.wav,1,1,3,10,,,,,1,12,28,9,0,7,7,6,,,,,,,,,1,1.1034850199939683,,,077,001,2019_Aug_27_1005,MusicAffectPsychophysiology2019,3.0.5,59.88135288872443,
To what extent did the music make you feel ,TENDER,30MonoWAV/30MonoS2.wav,1,1,3,10,,,,,1,12,28,9,0,8,8,10,,,,,,,,,2,0.9503503979940433,,,077,001,2019_Aug_27_1005,MusicAffectPsychophysiology2019,3.0.5,59.88135288872443,
To what extent did the music make you feel ,GUILTY,30MonoWAV/30MonoS2.wav,1,1,3,10,,,,,1,12,28,9,0,9,9,5,,,,,,,,,3,1.4704095030028839,,,077,001,2019_Aug_27_1005,MusicAffectPsychophysiology2019,3.0.5,59.88135288872443,
To what extent did the music make you feel ,ALERT,30MonoWAV/30MonoS2.wav,1,1,3,10,,,,,1,12,28,9,0,10,10,8,,,,,,,,,1,2.236519671001588,,,077,001,2019_Aug_27_1005,MusicAffectPsychophysiology2019,3.0.5,59.88135288872443,
To what extent did the music make you feel ,ANXIOUS ,30MonoWAV/30MonoS2.wav,1,1,3,10,,,,,1,12,28,9,0,11,11,1,,,,,,,,,3,1.3529463689919794,,,077,001,2019_Aug_27_1005,MusicAffectPsychophysiology2019,3.0.5,59.88135288872443,
,,30MonoWAV/30MonoS2.wav,1,1,3,10,,,,,1,12,28,9,,,,,,,,,,,,,,,,,077,001,2019_Aug_27_1005,MusicAffectPsychophysiology2019,3.0.5,59.88135288872443,
To what extent did the music make you feel ,ALERT,30MonoWAV/30MonoH4.wav,2,2,1,8,,,,,1,13,29,7,0,0,0,8,,,5,3.653083882993087,4,1.486747777002165,4,0.9535809460066957,4,1.4208899620134616,,,077,001,2019_Aug_27_1005,MusicAffectPsychophysiology2019,3.0.5,59.88135288872443,
To what extent did the music make you feel ,TENDER,30MonoWAV/30MonoH4.wav,2,2,1,8,,,,,1,13,29,7,0,1,1,10,,,,,,,,,3,1.2798360059969127,,,077,001,2019_Aug_27_1005,MusicAffectPsychophysiology2019,3.0.5,59.88135288872443,
To what extent did the music make you feel ,GUILTY,30MonoWAV/30MonoH4.wav,2,2,1,8,,,,,1,13,29,7,0,2,2,5,,,,,,,,,1,1.2260279129986884,,,077,001,2019_Aug_27_1005,MusicAffectPsychophysiology2019,3.0.5,59.88135288872443,
To what extent did the music make you feel ,ACTIVE,30MonoWAV/30MonoH4.wav,2,2,1,8,,,,,1,13,29,7,0,3,3,9,,,,,,,,,4,1.886025454994524,,,077,001,2019_Aug_27_1005,MusicAffectPsychophysiology2019,3.0.5,59.88135288872443,
To what extent did the music make you feel ,ANXIOUS ,30MonoWAV/30MonoH4.wav,2,2,1,8,,,,,1,13,29,7,0,4,4,1,,,,,,,,,2,1.3032667619991116,,,077,001,2019_Aug_27_1005,MusicAffectPsychophysiology2019,3.0.5,59.88135288872443,
To what extent did the music make you feel ,EXCITED,30MonoWAV/30MonoH4.wav,2,2,1,8,,,,,1,13,29,7,0,5,5,7,,,,,,,,,4,1.0284278390026884,,,077,001,2019_Aug_27_1005,MusicAffectPsychophysiology2019,3.0.5,59.88135288872443,
To what extent did the music make you feel ,HAPPY,30MonoWAV/30MonoH4.wav,2,2,1,8,,,,,1,13,29,7,0,6,6,6,,,,,,,,,4,1.302610412996728,,,077,001,2019_Aug_27_1005,MusicAffectPsychophysiology2019,3.0.5,59.88135288872443,
To what extent did the music make you feel ,ANGRY,30MonoWAV/30MonoH4.wav,2,2,1,8,,,,,1,13,29,7,0,7,7,2,,,,,,,,,1,1.6704446479998296,,,077,001,2019_Aug_27_1005,MusicAffectPsychophysiology2019,3.0.5,59.88135288872443,
To what extent did the music make you feel ,FRUSTRATED,30MonoWAV/30MonoH4.wav,2,2,1,8,,,,,1,13,29,7,0,8,8,3,,,,,,,,,1,1.3117950189916883,,,077,001,2019_Aug_27_1005,MusicAffectPsychophysiology2019,3.0.5,59.88135288872443,
To what extent did the music make you feel ,ASHAMED,30MonoWAV/30MonoH4.wav,2,2,1,8,,,,,1,13,29,7,0,9,9,4,,,,,,,,,1,0.7442675479978789,,,077,001,2019_Aug_27_1005,MusicAffectPsychophysiology2019,3.0.5,59.88135288872443,
To what extent did the music make you feel ,SCARED,30MonoWAV/30MonoH4.wav,2,2,1,8,,,,,1,13,29,7,0,10,10,11,,,,,,,,,2,1.0953683560073841,,,077,001,2019_Aug_27_1005,MusicAffectPsychophysiology2019,3.0.5,59.88135288872443,
To what extent did the music make you feel ,SAD,30MonoWAV/30MonoH4.wav,2,2,1,8,,,,,1,13,29,7,0,11,11,0,,,,,,,,,1,1.0185888159903698,,,077,001,2019_Aug_27_1005,MusicAffectPsychophysiology2019,3.0.5,59.88135288872443,
,,30MonoWAV/30MonoH4.wav,2,2,1,8,,,,,1,13,29,7,,,,,,,,,,,,,,,,,077,001,2019_Aug_27_1005,MusicAffectPsychophysiology2019,3.0.5,59.88135288872443,
To what extent did the music make you feel ,EXCITED,30MonoWAV/30MonoF1.wav,1,2,2,1,,,,,1,14,30,0,0,0,0,7,,,4,4.870186461004778,2,2.0199699819931993,1,0.8030348210013472,2,4.086242275006953,,,077,001,2019_Aug_27_1005,MusicAffectPsychophysiology2019,3.0.5,59.88135288872443,
To what extent did the music make you feel ,FRUSTRATED,30MonoWAV/30MonoF1.wav,1,2,2,1,,,,,1,14,30,0,0,1,1,3,,,,,,,,,3,2.235852273995988,,,077,001,2019_Aug_27_1005,MusicAffectPsychophysiology2019,3.0.5,59.88135288872443,
To what extent did the music make you feel ,GUILTY,30MonoWAV/30MonoF1.wav,1,2,2,1,,,,,1,14,30,0,0,2,2,5,,,,,,,,,4,2.7041373449901585,,,077,001,2019_Aug_27_1005,MusicAffectPsychophysiology2019,3.0.5,59.88135288872443,
To what extent did the music make you feel ,HAPPY,30MonoWAV/30MonoF1.wav,1,2,2,1,,,,,1,14,30,0,0,3,3,6,,,,,,,,,1,1.7852552639960777,,,077,001,2019_Aug_27_1005,MusicAffectPsychophysiology2019,3.0.5,59.88135288872443,
To what extent did the music make you feel ,TENDER,30MonoWAV/30MonoF1.wav,1,2,2,1,,,,,1,14,30,0,0,4,4,10,,,,,,,,,4,1.7198809730034554,,,077,001,2019_Aug_27_1005,MusicAffectPsychophysiology2019,3.0.5,59.88135288872443,
To what extent did the music make you feel ,SCARED,30MonoWAV/30MonoF1.wav,1,2,2,1,,,,,1,14,30,0,0,5,5,11,,,,,,,,,4,1.2191984050004976,,,077,001,2019_Aug_27_1005,MusicAffectPsychophysiology2019,3.0.5,59.88135288872443,
To what extent did the music make you feel ,ANXIOUS ,30MonoWAV/30MonoF1.wav,1,2,2,1,,,,,1,14,30,0,0,6,6,1,,,,,,,,,4,0.8211704620043747,,,077,001,2019_Aug_27_1005,MusicAffectPsychophysiology2019,3.0.5,59.88135288872443,
To what extent did the music make you feel ,ANGRY,30MonoWAV/30MonoF1.wav,1,2,2,1,,,,,1,14,30,0,0,7,7,2,,,,,,,,,2,1.7856943379883887,,,077,001,2019_Aug_27_1005,MusicAffectPsychophysiology2019,3.0.5,59.88135288872443,
To what extent did the music make you feel ,ALERT,30MonoWAV/30MonoF1.wav,1,2,2,1,,,,,1,14,30,0,0,8,8,8,,,,,,,,,4,1.0034842850000132,,,077,001,2019_Aug_27_1005,MusicAffectPsychophysiology2019,3.0.5,59.88135288872443,
To what extent did the music make you feel ,ACTIVE,30MonoWAV/30MonoF1.wav,1,2,2,1,,,,,1,14,30,0,0,9,9,9,,,,,,,,,1,2.1196560109965503,,,077,001,2019_Aug_27_1005,MusicAffectPsychophysiology2019,3.0.5,59.88135288872443,
To what extent did the music make you feel ,ASHAMED,30MonoWAV/30MonoF1.wav,1,2,2,1,,,,,1,14,30,0,0,10,10,4,,,,,,,,,3,1.1694343720009783,,,077,001,2019_Aug_27_1005,MusicAffectPsychophysiology2019,3.0.5,59.88135288872443,
To what extent did the music make you feel ,SAD,30MonoWAV/30MonoF1.wav,1,2,2,1,,,,,1,14,30,0,0,11,11,0,,,,,,,,,3,1.4374215970019577,,,077,001,2019_Aug_27_1005,MusicAffectPsychophysiology2019,3.0.5,59.88135288872443,
,,30MonoWAV/30MonoF1.wav,1,2,2,1,,,,,1,14,30,0,,,,,,,,,,,,,,,,,077,001,2019_Aug_27_1005,MusicAffectPsychophysiology2019,3.0.5,59.88135288872443,
To what extent did the music make you feel ,TENDER,30MonoWAV/30MonoS4.wav,1,1,3,12,,,,,1,15,31,11,0,0,0,10,,,1,3.5839365080028074,2,1.4041506639914587,2,1.6371706899954006,1,1.9528755329956766,,,077,001,2019_Aug_27_1005,MusicAffectPsychophysiology2019,3.0.5,59.88135288872443,
To what extent did the music make you feel ,FRUSTRATED,30MonoWAV/30MonoS4.wav,1,1,3,12,,,,,1,15,31,11,0,1,1,3,,,,,,,,,1,1.1029561739997007,,,077,001,2019_Aug_27_1005,MusicAffectPsychophysiology2019,3.0.5,59.88135288872443,
To what extent did the music make you feel ,ANXIOUS ,30MonoWAV/30MonoS4.wav,1,1,3,12,,,,,1,15,31,11,0,2,2,1,,,,,,,,,2,1.1354222820082214,,,077,001,2019_Aug_27_1005,MusicAffectPsychophysiology2019,3.0.5,59.88135288872443,
To what extent did the music make you feel ,ACTIVE,30MonoWAV/30MonoS4.wav,1,1,3,12,,,,,1,15,31,11,0,3,3,9,,,,,,,,,1,1.0861570370034315,,,077,001,2019_Aug_27_1005,MusicAffectPsychophysiology2019,3.0.5,59.88135288872443,
To what extent did the music make you feel ,ALERT,30MonoWAV/30MonoS4.wav,1,1,3,12,,,,,1,15,31,11,0,4,4,8,,,,,,,,,1,0.9981723050004803,,,077,001,2019_Aug_27_1005,MusicAffectPsychophysiology2019,3.0.5,59.88135288872443,
To what extent did the music make you feel ,GUILTY,30MonoWAV/30MonoS4.wav,1,1,3,12,,,,,1,15,31,11,0,5,5,5,,,,,,,,,2,1.1171391929965466,,,077,001,2019_Aug_27_1005,MusicAffectPsychophysiology2019,3.0.5,59.88135288872443,
To what extent did the music make you feel ,HAPPY,30MonoWAV/30MonoS4.wav,1,1,3,12,,,,,1,15,31,11,0,6,6,6,,,,,,,,,1,1.2529596679960378,,,077,001,2019_Aug_27_1005,MusicAffectPsychophysiology2019,3.0.5,59.88135288872443,
To what extent did the music make you feel ,ANGRY,30MonoWAV/30MonoS4.wav,1,1,3,12,,,,,1,15,31,11,0,7,7,2,,,,,,,,,1,1.270170835996396,,,077,001,2019_Aug_27_1005,MusicAffectPsychophysiology2019,3.0.5,59.88135288872443,
To what extent did the music make you feel ,EXCITED,30MonoWAV/30MonoS4.wav,1,1,3,12,,,,,1,15,31,11,0,8,8,7,,,,,,,,,1,1.6173558830050752,,,077,001,2019_Aug_27_1005,MusicAffectPsychophysiology2019,3.0.5,59.88135288872443,
To what extent did the music make you feel ,SAD,30MonoWAV/30MonoS4.wav,1,1,3,12,,,,,1,15,31,11,0,9,9,0,,,,,,,,,3,1.785121225999319,,,077,001,2019_Aug_27_1005,MusicAffectPsychophysiology2019,3.0.5,59.88135288872443,
To what extent did the music make you feel ,SCARED,30MonoWAV/30MonoS4.wav,1,1,3,12,,,,,1,15,31,11,0,10,10,11,,,,,,,,,3,0.918559545010794,,,077,001,2019_Aug_27_1005,MusicAffectPsychophysiology2019,3.0.5,59.88135288872443,
To what extent did the music make you feel ,ASHAMED,30MonoWAV/30MonoS4.wav,1,1,3,12,,,,,1,15,31,11,0,11,11,4,,,,,,,,,3,1.2509369960025651,,,077,001,2019_Aug_27_1005,MusicAffectPsychophysiology2019,3.0.5,59.88135288872443,
,,30MonoWAV/30MonoS4.wav,1,1,3,12,,,,,1,15,31,11,,,,,,,,,,,,,,,,,077,001,2019_Aug_27_1005,MusicAffectPsychophysiology2019,3.0.5,59.88135288872443,
,,,,,,,,,,,,,,,,,,,,,,,,,,,,,space,220.1874994339887,077,001,2019_Aug_27_1005,MusicAffectPsychophysiology2019,3.0.5,59.88135288872443,
