Instruction,Word,song,valence,arousal,affectcat,songmark,pracwords.thisRepN,pracwords.thisTrialN,pracwords.thisN,pracwords.thisIndex,songtrials.thisRepN,songtrials.thisTrialN,songtrials.thisN,songtrials.thisIndex,words.thisRepN,words.thisTrialN,words.thisN,words.thisIndex,begin.keys,begin.rt,arousalkey.keys,arousalkey.rt,valencekey.keys,valencekey.rt,likekey.keys,likekey.rt,WordResponse.keys,WordResponse.rt,key_resp_2.keys,key_resp_2.rt,participant,session,date,expName,psychopyVersion,frameRate,
,,,,,,,,,,,,,,,,,,,space,7.793591096997261,,,,,,,,,,,078,001,2019_Aug_27_1108,MusicAffectPsychophysiology2019,3.0.5,60.07350281569056,
,,,,,,,,,,,,,,,,,,,,,3,3.6859557190036867,,,,,,,,,078,001,2019_Aug_27_1108,MusicAffectPsychophysiology2019,3.0.5,60.07350281569056,
,,,,,,,,,,,,,,,,,,,,,,,2,3.4711628670047503,,,,,,,078,001,2019_Aug_27_1108,MusicAffectPsychophysiology2019,3.0.5,60.07350281569056,
,,,,,,,,,,,,,,,,,,,,,,,,,2,3.5364481459982926,,,,,078,001,2019_Aug_27_1108,MusicAffectPsychophysiology2019,3.0.5,60.07350281569056,
To what extent did the music make you feel ,ACTIVE,,,,,,0,0,0,9,,,,,,,,,,,,,,,,,1,2.795540909995907,,,078,001,2019_Aug_27_1108,MusicAffectPsychophysiology2019,3.0.5,60.07350281569056,
To what extent did the music make you feel ,HAPPY,,,,,,0,1,1,6,,,,,,,,,,,,,,,,,2,3.102682234006352,,,078,001,2019_Aug_27_1108,MusicAffectPsychophysiology2019,3.0.5,60.07350281569056,
To what extent did the music make you feel ,FRUSTRATED,,,,,,0,2,2,3,,,,,,,,,,,,,,,,,2,2.745060122993891,,,078,001,2019_Aug_27_1108,MusicAffectPsychophysiology2019,3.0.5,60.07350281569056,
To what extent did the music make you feel ,SAD,,,,,,0,3,3,0,,,,,,,,,,,,,,,,,1,2.318556347003323,,,078,001,2019_Aug_27_1108,MusicAffectPsychophysiology2019,3.0.5,60.07350281569056,
To what extent did the music make you feel ,ASHAMED,,,,,,0,4,4,4,,,,,,,,,,,,,,,,,1,1.7040263869857881,,,078,001,2019_Aug_27_1108,MusicAffectPsychophysiology2019,3.0.5,60.07350281569056,
To what extent did the music make you feel ,ANGRY,,,,,,0,5,5,2,,,,,,,,,,,,,,,,,1,1.6770569189975504,,,078,001,2019_Aug_27_1108,MusicAffectPsychophysiology2019,3.0.5,60.07350281569056,
To what extent did the music make you feel ,ANXIOUS ,,,,,,0,6,6,1,,,,,,,,,,,,,,,,,3,2.0739745429891627,,,078,001,2019_Aug_27_1108,MusicAffectPsychophysiology2019,3.0.5,60.07350281569056,
To what extent did the music make you feel ,ALERT,,,,,,0,7,7,8,,,,,,,,,,,,,,,,,2,2.036182826006552,,,078,001,2019_Aug_27_1108,MusicAffectPsychophysiology2019,3.0.5,60.07350281569056,
To what extent did the music make you feel ,TENDER,,,,,,0,8,8,10,,,,,,,,,,,,,,,,,1,1.3423361150053097,,,078,001,2019_Aug_27_1108,MusicAffectPsychophysiology2019,3.0.5,60.07350281569056,
To what extent did the music make you feel ,GUILTY,,,,,,0,9,9,5,,,,,,,,,,,,,,,,,1,1.570319891005056,,,078,001,2019_Aug_27_1108,MusicAffectPsychophysiology2019,3.0.5,60.07350281569056,
To what extent did the music make you feel ,EXCITED,,,,,,0,10,10,7,,,,,,,,,,,,,,,,,2,2.356675004994031,,,078,001,2019_Aug_27_1108,MusicAffectPsychophysiology2019,3.0.5,60.07350281569056,
To what extent did the music make you feel ,SCARED,,,,,,0,11,11,11,,,,,,,,,,,,,,,,,1,1.2517183009913424,,,078,001,2019_Aug_27_1108,MusicAffectPsychophysiology2019,3.0.5,60.07350281569056,
To what extent did the music make you feel ,ACTIVE,30MonoWAV/30MonoT4.wav,2,1,4,16,,,,,0,0,0,15,0,0,0,9,,,3,5.318937578005716,4,2.1034152100037318,3,2.3029885159921832,1,3.2701064989960287,,,078,001,2019_Aug_27_1108,MusicAffectPsychophysiology2019,3.0.5,60.07350281569056,
To what extent did the music make you feel ,SCARED,30MonoWAV/30MonoT4.wav,2,1,4,16,,,,,0,0,0,15,0,1,1,11,,,,,,,,,1,1.5858774399966933,,,078,001,2019_Aug_27_1108,MusicAffectPsychophysiology2019,3.0.5,60.07350281569056,
To what extent did the music make you feel ,FRUSTRATED,30MonoWAV/30MonoT4.wav,2,1,4,16,,,,,0,0,0,15,0,2,2,3,,,,,,,,,1,1.8201169930107426,,,078,001,2019_Aug_27_1108,MusicAffectPsychophysiology2019,3.0.5,60.07350281569056,
To what extent did the music make you feel ,ANGRY,30MonoWAV/30MonoT4.wav,2,1,4,16,,,,,0,0,0,15,0,3,3,2,,,,,,,,,1,1.02121756800625,,,078,001,2019_Aug_27_1108,MusicAffectPsychophysiology2019,3.0.5,60.07350281569056,
To what extent did the music make you feel ,ASHAMED,30MonoWAV/30MonoT4.wav,2,1,4,16,,,,,0,0,0,15,0,4,4,4,,,,,,,,,1,0.8862815419997787,,,078,001,2019_Aug_27_1108,MusicAffectPsychophysiology2019,3.0.5,60.07350281569056,
To what extent did the music make you feel ,TENDER,30MonoWAV/30MonoT4.wav,2,1,4,16,,,,,0,0,0,15,0,5,5,10,,,,,,,,,1,3.5201776789908763,,,078,001,2019_Aug_27_1108,MusicAffectPsychophysiology2019,3.0.5,60.07350281569056,
To what extent did the music make you feel ,HAPPY,30MonoWAV/30MonoT4.wav,2,1,4,16,,,,,0,0,0,15,0,6,6,6,,,,,,,,,3,1.0347118950012373,,,078,001,2019_Aug_27_1108,MusicAffectPsychophysiology2019,3.0.5,60.07350281569056,
To what extent did the music make you feel ,EXCITED,30MonoWAV/30MonoT4.wav,2,1,4,16,,,,,0,0,0,15,0,7,7,7,,,,,,,,,2,1.7860155460075475,,,078,001,2019_Aug_27_1108,MusicAffectPsychophysiology2019,3.0.5,60.07350281569056,
To what extent did the music make you feel ,GUILTY,30MonoWAV/30MonoT4.wav,2,1,4,16,,,,,0,0,0,15,0,8,8,5,,,,,,,,,1,1.621339193006861,,,078,001,2019_Aug_27_1108,MusicAffectPsychophysiology2019,3.0.5,60.07350281569056,
To what extent did the music make you feel ,ALERT,30MonoWAV/30MonoT4.wav,2,1,4,16,,,,,0,0,0,15,0,9,9,8,,,,,,,,,1,1.5505932410014793,,,078,001,2019_Aug_27_1108,MusicAffectPsychophysiology2019,3.0.5,60.07350281569056,
To what extent did the music make you feel ,SAD,30MonoWAV/30MonoT4.wav,2,1,4,16,,,,,0,0,0,15,0,10,10,0,,,,,,,,,3,2.4030165309959557,,,078,001,2019_Aug_27_1108,MusicAffectPsychophysiology2019,3.0.5,60.07350281569056,
To what extent did the music make you feel ,ANXIOUS ,30MonoWAV/30MonoT4.wav,2,1,4,16,,,,,0,0,0,15,0,11,11,1,,,,,,,,,1,1.9696272849978413,,,078,001,2019_Aug_27_1108,MusicAffectPsychophysiology2019,3.0.5,60.07350281569056,
,,30MonoWAV/30MonoT4.wav,2,1,4,16,,,,,0,0,0,15,,,,,,,,,,,,,,,,,078,001,2019_Aug_27_1108,MusicAffectPsychophysiology2019,3.0.5,60.07350281569056,
To what extent did the music make you feel ,SCARED,30MonoWAV/30MonoT3.wav,2,1,4,15,,,,,0,1,1,14,0,0,0,11,,,1,3.236953817002359,1,1.4697356749966275,1,1.8037031080020824,2,1.7710343170037959,,,078,001,2019_Aug_27_1108,MusicAffectPsychophysiology2019,3.0.5,60.07350281569056,
To what extent did the music make you feel ,ACTIVE,30MonoWAV/30MonoT3.wav,2,1,4,15,,,,,0,1,1,14,0,1,1,9,,,,,,,,,1,1.5638406660000328,,,078,001,2019_Aug_27_1108,MusicAffectPsychophysiology2019,3.0.5,60.07350281569056,
To what extent did the music make you feel ,SAD,30MonoWAV/30MonoT3.wav,2,1,4,15,,,,,0,1,1,14,0,2,2,0,,,,,,,,,1,1.6207009249919793,,,078,001,2019_Aug_27_1108,MusicAffectPsychophysiology2019,3.0.5,60.07350281569056,
To what extent did the music make you feel ,TENDER,30MonoWAV/30MonoT3.wav,2,1,4,15,,,,,0,1,1,14,0,3,3,10,,,,,,,,,1,1.1973147079988848,,,078,001,2019_Aug_27_1108,MusicAffectPsychophysiology2019,3.0.5,60.07350281569056,
To what extent did the music make you feel ,EXCITED,30MonoWAV/30MonoT3.wav,2,1,4,15,,,,,0,1,1,14,0,4,4,7,,,,,,,,,1,1.3470245729986345,,,078,001,2019_Aug_27_1108,MusicAffectPsychophysiology2019,3.0.5,60.07350281569056,
To what extent did the music make you feel ,HAPPY,30MonoWAV/30MonoT3.wav,2,1,4,15,,,,,0,1,1,14,0,5,5,6,,,,,,,,,1,2.220804029988358,,,078,001,2019_Aug_27_1108,MusicAffectPsychophysiology2019,3.0.5,60.07350281569056,
To what extent did the music make you feel ,ANXIOUS ,30MonoWAV/30MonoT3.wav,2,1,4,15,,,,,0,1,1,14,0,6,6,1,,,,,,,,,2,1.0301378299918724,,,078,001,2019_Aug_27_1108,MusicAffectPsychophysiology2019,3.0.5,60.07350281569056,
To what extent did the music make you feel ,ASHAMED,30MonoWAV/30MonoT3.wav,2,1,4,15,,,,,0,1,1,14,0,7,7,4,,,,,,,,,1,1.6695112199959112,,,078,001,2019_Aug_27_1108,MusicAffectPsychophysiology2019,3.0.5,60.07350281569056,
To what extent did the music make you feel ,ALERT,30MonoWAV/30MonoT3.wav,2,1,4,15,,,,,0,1,1,14,0,8,8,8,,,,,,,,,1,0.8796797980030533,,,078,001,2019_Aug_27_1108,MusicAffectPsychophysiology2019,3.0.5,60.07350281569056,
To what extent did the music make you feel ,GUILTY,30MonoWAV/30MonoT3.wav,2,1,4,15,,,,,0,1,1,14,0,9,9,5,,,,,,,,,2,2.303269237992936,,,078,001,2019_Aug_27_1108,MusicAffectPsychophysiology2019,3.0.5,60.07350281569056,
To what extent did the music make you feel ,FRUSTRATED,30MonoWAV/30MonoT3.wav,2,1,4,15,,,,,0,1,1,14,0,10,10,3,,,,,,,,,1,3.413239023007918,,,078,001,2019_Aug_27_1108,MusicAffectPsychophysiology2019,3.0.5,60.07350281569056,
To what extent did the music make you feel ,ANGRY,30MonoWAV/30MonoT3.wav,2,1,4,15,,,,,0,1,1,14,0,11,11,2,,,,,,,,,1,1.2118806899961783,,,078,001,2019_Aug_27_1108,MusicAffectPsychophysiology2019,3.0.5,60.07350281569056,
,,30MonoWAV/30MonoT3.wav,2,1,4,15,,,,,0,1,1,14,,,,,,,,,,,,,,,,,078,001,2019_Aug_27_1108,MusicAffectPsychophysiology2019,3.0.5,60.07350281569056,
To what extent did the music make you feel ,TENDER,30MonoWAV/30MonoT1.wav,2,1,4,13,,,,,0,2,2,12,0,0,0,10,,,3,2.584165769003448,3,3.171021861009649,4,2.619750087003922,2,2.206640467993566,,,078,001,2019_Aug_27_1108,MusicAffectPsychophysiology2019,3.0.5,60.07350281569056,
To what extent did the music make you feel ,ACTIVE,30MonoWAV/30MonoT1.wav,2,1,4,13,,,,,0,2,2,12,0,1,1,9,,,,,,,,,1,1.5194586900033755,,,078,001,2019_Aug_27_1108,MusicAffectPsychophysiology2019,3.0.5,60.07350281569056,
To what extent did the music make you feel ,GUILTY,30MonoWAV/30MonoT1.wav,2,1,4,13,,,,,0,2,2,12,0,2,2,5,,,,,,,,,1,2.136035230010748,,,078,001,2019_Aug_27_1108,MusicAffectPsychophysiology2019,3.0.5,60.07350281569056,
To what extent did the music make you feel ,SAD,30MonoWAV/30MonoT1.wav,2,1,4,13,,,,,0,2,2,12,0,3,3,0,,,,,,,,,2,2.1026155239960644,,,078,001,2019_Aug_27_1108,MusicAffectPsychophysiology2019,3.0.5,60.07350281569056,
To what extent did the music make you feel ,ASHAMED,30MonoWAV/30MonoT1.wav,2,1,4,13,,,,,0,2,2,12,0,4,4,4,,,,,,,,,1,1.452606314996956,,,078,001,2019_Aug_27_1108,MusicAffectPsychophysiology2019,3.0.5,60.07350281569056,
To what extent did the music make you feel ,HAPPY,30MonoWAV/30MonoT1.wav,2,1,4,13,,,,,0,2,2,12,0,5,5,6,,,,,,,,,3,1.253616290006903,,,078,001,2019_Aug_27_1108,MusicAffectPsychophysiology2019,3.0.5,60.07350281569056,
To what extent did the music make you feel ,EXCITED,30MonoWAV/30MonoT1.wav,2,1,4,13,,,,,0,2,2,12,0,6,6,7,,,,,,,,,2,3.990567936009029,,,078,001,2019_Aug_27_1108,MusicAffectPsychophysiology2019,3.0.5,60.07350281569056,
To what extent did the music make you feel ,SCARED,30MonoWAV/30MonoT1.wav,2,1,4,13,,,,,0,2,2,12,0,7,7,11,,,,,,,,,1,1.4052384980022907,,,078,001,2019_Aug_27_1108,MusicAffectPsychophysiology2019,3.0.5,60.07350281569056,
To what extent did the music make you feel ,FRUSTRATED,30MonoWAV/30MonoT1.wav,2,1,4,13,,,,,0,2,2,12,0,8,8,3,,,,,,,,,1,1.539130874996772,,,078,001,2019_Aug_27_1108,MusicAffectPsychophysiology2019,3.0.5,60.07350281569056,
To what extent did the music make you feel ,ANGRY,30MonoWAV/30MonoT1.wav,2,1,4,13,,,,,0,2,2,12,0,9,9,2,,,,,,,,,1,2.1051467530051013,,,078,001,2019_Aug_27_1108,MusicAffectPsychophysiology2019,3.0.5,60.07350281569056,
To what extent did the music make you feel ,ANXIOUS ,30MonoWAV/30MonoT1.wav,2,1,4,13,,,,,0,2,2,12,0,10,10,1,,,,,,,,,2,2.0031579339993186,,,078,001,2019_Aug_27_1108,MusicAffectPsychophysiology2019,3.0.5,60.07350281569056,
To what extent did the music make you feel ,ALERT,30MonoWAV/30MonoT1.wav,2,1,4,13,,,,,0,2,2,12,0,11,11,8,,,,,,,,,2,2.2035003599885385,,,078,001,2019_Aug_27_1108,MusicAffectPsychophysiology2019,3.0.5,60.07350281569056,
,,30MonoWAV/30MonoT1.wav,2,1,4,13,,,,,0,2,2,12,,,,,,,,,,,,,,,,,078,001,2019_Aug_27_1108,MusicAffectPsychophysiology2019,3.0.5,60.07350281569056,
To what extent did the music make you feel ,ANXIOUS ,30MonoWAV/30MonoS4.wav,1,1,3,12,,,,,0,3,3,11,0,0,0,1,,,3,3.587361409998266,1,2.0363614300003974,1,2.369562592008151,2,3.103273575005005,,,078,001,2019_Aug_27_1108,MusicAffectPsychophysiology2019,3.0.5,60.07350281569056,
To what extent did the music make you feel ,EXCITED,30MonoWAV/30MonoS4.wav,1,1,3,12,,,,,0,3,3,11,0,1,1,7,,,,,,,,,1,1.6980814810085576,,,078,001,2019_Aug_27_1108,MusicAffectPsychophysiology2019,3.0.5,60.07350281569056,
To what extent did the music make you feel ,TENDER,30MonoWAV/30MonoS4.wav,1,1,3,12,,,,,0,3,3,11,0,2,2,10,,,,,,,,,1,1.714698698007851,,,078,001,2019_Aug_27_1108,MusicAffectPsychophysiology2019,3.0.5,60.07350281569056,
To what extent did the music make you feel ,ANGRY,30MonoWAV/30MonoS4.wav,1,1,3,12,,,,,0,3,3,11,0,3,3,2,,,,,,,,,2,4.246230439006467,,,078,001,2019_Aug_27_1108,MusicAffectPsychophysiology2019,3.0.5,60.07350281569056,
To what extent did the music make you feel ,ACTIVE,30MonoWAV/30MonoS4.wav,1,1,3,12,,,,,0,3,3,11,0,4,4,9,,,,,,,,,1,1.9530153290106682,,,078,001,2019_Aug_27_1108,MusicAffectPsychophysiology2019,3.0.5,60.07350281569056,
To what extent did the music make you feel ,FRUSTRATED,30MonoWAV/30MonoS4.wav,1,1,3,12,,,,,0,3,3,11,0,5,5,3,,,,,,,,,1,1.5967201629973715,,,078,001,2019_Aug_27_1108,MusicAffectPsychophysiology2019,3.0.5,60.07350281569056,
To what extent did the music make you feel ,ALERT,30MonoWAV/30MonoS4.wav,1,1,3,12,,,,,0,3,3,11,0,6,6,8,,,,,,,,,2,2.6036353319941554,,,078,001,2019_Aug_27_1108,MusicAffectPsychophysiology2019,3.0.5,60.07350281569056,
To what extent did the music make you feel ,ASHAMED,30MonoWAV/30MonoS4.wav,1,1,3,12,,,,,0,3,3,11,0,7,7,4,,,,,,,,,1,1.8049128650018247,,,078,001,2019_Aug_27_1108,MusicAffectPsychophysiology2019,3.0.5,60.07350281569056,
To what extent did the music make you feel ,GUILTY,30MonoWAV/30MonoS4.wav,1,1,3,12,,,,,0,3,3,11,0,8,8,5,,,,,,,,,2,2.296705431988812,,,078,001,2019_Aug_27_1108,MusicAffectPsychophysiology2019,3.0.5,60.07350281569056,
To what extent did the music make you feel ,SAD,30MonoWAV/30MonoS4.wav,1,1,3,12,,,,,0,3,3,11,0,9,9,0,,,,,,,,,3,1.6504197500034934,,,078,001,2019_Aug_27_1108,MusicAffectPsychophysiology2019,3.0.5,60.07350281569056,
To what extent did the music make you feel ,SCARED,30MonoWAV/30MonoS4.wav,1,1,3,12,,,,,0,3,3,11,0,10,10,11,,,,,,,,,1,1.6531845150020672,,,078,001,2019_Aug_27_1108,MusicAffectPsychophysiology2019,3.0.5,60.07350281569056,
To what extent did the music make you feel ,HAPPY,30MonoWAV/30MonoS4.wav,1,1,3,12,,,,,0,3,3,11,0,11,11,6,,,,,,,,,1,1.2871992309956113,,,078,001,2019_Aug_27_1108,MusicAffectPsychophysiology2019,3.0.5,60.07350281569056,
,,30MonoWAV/30MonoS4.wav,1,1,3,12,,,,,0,3,3,11,,,,,,,,,,,,,,,,,078,001,2019_Aug_27_1108,MusicAffectPsychophysiology2019,3.0.5,60.07350281569056,
To what extent did the music make you feel ,SCARED,30MonoWAV/30MonoH4.wav,2,2,1,8,,,,,0,4,4,7,0,0,0,11,,,4,2.536253307000152,3,2.104868919006549,4,1.720366402005311,1,1.9084036979911616,,,078,001,2019_Aug_27_1108,MusicAffectPsychophysiology2019,3.0.5,60.07350281569056,
To what extent did the music make you feel ,SAD,30MonoWAV/30MonoH4.wav,2,2,1,8,,,,,0,4,4,7,0,1,1,0,,,,,,,,,2,2.8367953790002503,,,078,001,2019_Aug_27_1108,MusicAffectPsychophysiology2019,3.0.5,60.07350281569056,
To what extent did the music make you feel ,HAPPY,30MonoWAV/30MonoH4.wav,2,2,1,8,,,,,0,4,4,7,0,2,2,6,,,,,,,,,3,1.6037316480069421,,,078,001,2019_Aug_27_1108,MusicAffectPsychophysiology2019,3.0.5,60.07350281569056,
To what extent did the music make you feel ,EXCITED,30MonoWAV/30MonoH4.wav,2,2,1,8,,,,,0,4,4,7,0,3,3,7,,,,,,,,,3,1.4705948070040904,,,078,001,2019_Aug_27_1108,MusicAffectPsychophysiology2019,3.0.5,60.07350281569056,
To what extent did the music make you feel ,ASHAMED,30MonoWAV/30MonoH4.wav,2,2,1,8,,,,,0,4,4,7,0,4,4,4,,,,,,,,,1,1.2349913299985928,,,078,001,2019_Aug_27_1108,MusicAffectPsychophysiology2019,3.0.5,60.07350281569056,
To what extent did the music make you feel ,ANGRY,30MonoWAV/30MonoH4.wav,2,2,1,8,,,,,0,4,4,7,0,5,5,2,,,,,,,,,1,1.751358555004117,,,078,001,2019_Aug_27_1108,MusicAffectPsychophysiology2019,3.0.5,60.07350281569056,
To what extent did the music make you feel ,TENDER,30MonoWAV/30MonoH4.wav,2,2,1,8,,,,,0,4,4,7,0,6,6,10,,,,,,,,,1,1.3552208769979188,,,078,001,2019_Aug_27_1108,MusicAffectPsychophysiology2019,3.0.5,60.07350281569056,
To what extent did the music make you feel ,GUILTY,30MonoWAV/30MonoH4.wav,2,2,1,8,,,,,0,4,4,7,0,7,7,5,,,,,,,,,1,1.2066246119939024,,,078,001,2019_Aug_27_1108,MusicAffectPsychophysiology2019,3.0.5,60.07350281569056,
To what extent did the music make you feel ,FRUSTRATED,30MonoWAV/30MonoH4.wav,2,2,1,8,,,,,0,4,4,7,0,8,8,3,,,,,,,,,1,1.572442745004082,,,078,001,2019_Aug_27_1108,MusicAffectPsychophysiology2019,3.0.5,60.07350281569056,
To what extent did the music make you feel ,ALERT,30MonoWAV/30MonoH4.wav,2,2,1,8,,,,,0,4,4,7,0,9,9,8,,,,,,,,,3,1.322101957994164,,,078,001,2019_Aug_27_1108,MusicAffectPsychophysiology2019,3.0.5,60.07350281569056,
To what extent did the music make you feel ,ACTIVE,30MonoWAV/30MonoH4.wav,2,2,1,8,,,,,0,4,4,7,0,10,10,9,,,,,,,,,2,1.6839425359939924,,,078,001,2019_Aug_27_1108,MusicAffectPsychophysiology2019,3.0.5,60.07350281569056,
To what extent did the music make you feel ,ANXIOUS ,30MonoWAV/30MonoH4.wav,2,2,1,8,,,,,0,4,4,7,0,11,11,1,,,,,,,,,1,1.452689135010587,,,078,001,2019_Aug_27_1108,MusicAffectPsychophysiology2019,3.0.5,60.07350281569056,
,,30MonoWAV/30MonoH4.wav,2,2,1,8,,,,,0,4,4,7,,,,,,,,,,,,,,,,,078,001,2019_Aug_27_1108,MusicAffectPsychophysiology2019,3.0.5,60.07350281569056,
To what extent did the music make you feel ,FRUSTRATED,30MonoWAV/30MonoS1.wav,1,1,3,9,,,,,0,5,5,8,0,0,0,3,,,2,3.8198951619997388,2,1.5023400889913319,2,2.4695230270008324,2,3.1690244839992374,,,078,001,2019_Aug_27_1108,MusicAffectPsychophysiology2019,3.0.5,60.07350281569056,
To what extent did the music make you feel ,SAD,30MonoWAV/30MonoS1.wav,1,1,3,9,,,,,0,5,5,8,0,1,1,0,,,,,,,,,3,1.4864713339920854,,,078,001,2019_Aug_27_1108,MusicAffectPsychophysiology2019,3.0.5,60.07350281569056,
To what extent did the music make you feel ,ALERT,30MonoWAV/30MonoS1.wav,1,1,3,9,,,,,0,5,5,8,0,2,2,8,,,,,,,,,1,1.349617200990906,,,078,001,2019_Aug_27_1108,MusicAffectPsychophysiology2019,3.0.5,60.07350281569056,
To what extent did the music make you feel ,ANGRY,30MonoWAV/30MonoS1.wav,1,1,3,9,,,,,0,5,5,8,0,3,3,2,,,,,,,,,2,1.6663404299906688,,,078,001,2019_Aug_27_1108,MusicAffectPsychophysiology2019,3.0.5,60.07350281569056,
To what extent did the music make you feel ,ASHAMED,30MonoWAV/30MonoS1.wav,1,1,3,9,,,,,0,5,5,8,0,4,4,4,,,,,,,,,1,1.4156825709942495,,,078,001,2019_Aug_27_1108,MusicAffectPsychophysiology2019,3.0.5,60.07350281569056,
To what extent did the music make you feel ,GUILTY,30MonoWAV/30MonoS1.wav,1,1,3,9,,,,,0,5,5,8,0,5,5,5,,,,,,,,,2,1.7153055819944711,,,078,001,2019_Aug_27_1108,MusicAffectPsychophysiology2019,3.0.5,60.07350281569056,
To what extent did the music make you feel ,EXCITED,30MonoWAV/30MonoS1.wav,1,1,3,9,,,,,0,5,5,8,0,6,6,7,,,,,,,,,2,4.712168188998476,,,078,001,2019_Aug_27_1108,MusicAffectPsychophysiology2019,3.0.5,60.07350281569056,
To what extent did the music make you feel ,HAPPY,30MonoWAV/30MonoS1.wav,1,1,3,9,,,,,0,5,5,8,0,7,7,6,,,,,,,,,1,1.4044145840016427,,,078,001,2019_Aug_27_1108,MusicAffectPsychophysiology2019,3.0.5,60.07350281569056,
To what extent did the music make you feel ,ANXIOUS ,30MonoWAV/30MonoS1.wav,1,1,3,9,,,,,0,5,5,8,0,8,8,1,,,,,,,,,2,1.7830513569933828,,,078,001,2019_Aug_27_1108,MusicAffectPsychophysiology2019,3.0.5,60.07350281569056,
To what extent did the music make you feel ,ACTIVE,30MonoWAV/30MonoS1.wav,1,1,3,9,,,,,0,5,5,8,0,9,9,9,,,,,,,,,1,1.331742757000029,,,078,001,2019_Aug_27_1108,MusicAffectPsychophysiology2019,3.0.5,60.07350281569056,
To what extent did the music make you feel ,TENDER,30MonoWAV/30MonoS1.wav,1,1,3,9,,,,,0,5,5,8,0,10,10,10,,,,,,,,,1,1.2981225609983085,,,078,001,2019_Aug_27_1108,MusicAffectPsychophysiology2019,3.0.5,60.07350281569056,
To what extent did the music make you feel ,SCARED,30MonoWAV/30MonoS1.wav,1,1,3,9,,,,,0,5,5,8,0,11,11,11,,,,,,,,,2,3.3484562290104805,,,078,001,2019_Aug_27_1108,MusicAffectPsychophysiology2019,3.0.5,60.07350281569056,
,,30MonoWAV/30MonoS1.wav,1,1,3,9,,,,,0,5,5,8,,,,,,,,,,,,,,,,,078,001,2019_Aug_27_1108,MusicAffectPsychophysiology2019,3.0.5,60.07350281569056,
To what extent did the music make you feel ,ANGRY,30MonoWAV/30MonoF3.wav,1,2,2,3,,,,,0,6,6,2,0,0,0,2,,,2,2.3525018479995197,1,1.2355538039992098,1,1.3198947470082203,1,1.7933253390074242,,,078,001,2019_Aug_27_1108,MusicAffectPsychophysiology2019,3.0.5,60.07350281569056,
To what extent did the music make you feel ,SCARED,30MonoWAV/30MonoF3.wav,1,2,2,3,,,,,0,6,6,2,0,1,1,11,,,,,,,,,2,0.8389543980010785,,,078,001,2019_Aug_27_1108,MusicAffectPsychophysiology2019,3.0.5,60.07350281569056,
To what extent did the music make you feel ,GUILTY,30MonoWAV/30MonoF3.wav,1,2,2,3,,,,,0,6,6,2,0,2,2,5,,,,,,,,,1,1.25292768800864,,,078,001,2019_Aug_27_1108,MusicAffectPsychophysiology2019,3.0.5,60.07350281569056,
To what extent did the music make you feel ,ASHAMED,30MonoWAV/30MonoF3.wav,1,2,2,3,,,,,0,6,6,2,0,3,3,4,,,,,,,,,1,1.38592874299502,,,078,001,2019_Aug_27_1108,MusicAffectPsychophysiology2019,3.0.5,60.07350281569056,
To what extent did the music make you feel ,FRUSTRATED,30MonoWAV/30MonoF3.wav,1,2,2,3,,,,,0,6,6,2,0,4,4,3,,,,,,,,,2,1.4426281079940964,,,078,001,2019_Aug_27_1108,MusicAffectPsychophysiology2019,3.0.5,60.07350281569056,
To what extent did the music make you feel ,ALERT,30MonoWAV/30MonoF3.wav,1,2,2,3,,,,,0,6,6,2,0,5,5,8,,,,,,,,,1,1.6869030329980887,,,078,001,2019_Aug_27_1108,MusicAffectPsychophysiology2019,3.0.5,60.07350281569056,
To what extent did the music make you feel ,EXCITED,30MonoWAV/30MonoF3.wav,1,2,2,3,,,,,0,6,6,2,0,6,6,7,,,,,,,,,1,1.2214600400038762,,,078,001,2019_Aug_27_1108,MusicAffectPsychophysiology2019,3.0.5,60.07350281569056,
To what extent did the music make you feel ,ACTIVE,30MonoWAV/30MonoF3.wav,1,2,2,3,,,,,0,6,6,2,0,7,7,9,,,,,,,,,1,1.319538828000077,,,078,001,2019_Aug_27_1108,MusicAffectPsychophysiology2019,3.0.5,60.07350281569056,
To what extent did the music make you feel ,ANXIOUS ,30MonoWAV/30MonoF3.wav,1,2,2,3,,,,,0,6,6,2,0,8,8,1,,,,,,,,,3,1.3074998310039518,,,078,001,2019_Aug_27_1108,MusicAffectPsychophysiology2019,3.0.5,60.07350281569056,
To what extent did the music make you feel ,TENDER,30MonoWAV/30MonoF3.wav,1,2,2,3,,,,,0,6,6,2,0,9,9,10,,,,,,,,,1,0.9903604940045625,,,078,001,2019_Aug_27_1108,MusicAffectPsychophysiology2019,3.0.5,60.07350281569056,
To what extent did the music make you feel ,SAD,30MonoWAV/30MonoF3.wav,1,2,2,3,,,,,0,6,6,2,0,10,10,0,,,,,,,,,1,1.3532351259927964,,,078,001,2019_Aug_27_1108,MusicAffectPsychophysiology2019,3.0.5,60.07350281569056,
To what extent did the music make you feel ,HAPPY,30MonoWAV/30MonoF3.wav,1,2,2,3,,,,,0,6,6,2,0,11,11,6,,,,,,,,,1,1.2690230810112553,,,078,001,2019_Aug_27_1108,MusicAffectPsychophysiology2019,3.0.5,60.07350281569056,
,,30MonoWAV/30MonoF3.wav,1,2,2,3,,,,,0,6,6,2,,,,,,,,,,,,,,,,,078,001,2019_Aug_27_1108,MusicAffectPsychophysiology2019,3.0.5,60.07350281569056,
To what extent did the music make you feel ,TENDER,30MonoWAV/30MonoF1.wav,1,2,2,1,,,,,0,7,7,0,0,0,0,10,,,2,7.286117184004979,1,1.4036876700120047,1,1.819489521003561,1,0.9197415060043568,,,078,001,2019_Aug_27_1108,MusicAffectPsychophysiology2019,3.0.5,60.07350281569056,
To what extent did the music make you feel ,SCARED,30MonoWAV/30MonoF1.wav,1,2,2,1,,,,,0,7,7,0,0,1,1,11,,,,,,,,,3,1.3007995749940164,,,078,001,2019_Aug_27_1108,MusicAffectPsychophysiology2019,3.0.5,60.07350281569056,
To what extent did the music make you feel ,FRUSTRATED,30MonoWAV/30MonoF1.wav,1,2,2,1,,,,,0,7,7,0,0,2,2,3,,,,,,,,,2,2.2843074499978684,,,078,001,2019_Aug_27_1108,MusicAffectPsychophysiology2019,3.0.5,60.07350281569056,
To what extent did the music make you feel ,HAPPY,30MonoWAV/30MonoF1.wav,1,2,2,1,,,,,0,7,7,0,0,3,3,6,,,,,,,,,1,1.0533959379972657,,,078,001,2019_Aug_27_1108,MusicAffectPsychophysiology2019,3.0.5,60.07350281569056,
To what extent did the music make you feel ,EXCITED,30MonoWAV/30MonoF1.wav,1,2,2,1,,,,,0,7,7,0,0,4,4,7,,,,,,,,,1,0.7179860960022779,,,078,001,2019_Aug_27_1108,MusicAffectPsychophysiology2019,3.0.5,60.07350281569056,
To what extent did the music make you feel ,SAD,30MonoWAV/30MonoF1.wav,1,2,2,1,,,,,0,7,7,0,0,5,5,0,,,,,,,,,1,1.40377476499998,,,078,001,2019_Aug_27_1108,MusicAffectPsychophysiology2019,3.0.5,60.07350281569056,
To what extent did the music make you feel ,ANGRY,30MonoWAV/30MonoF1.wav,1,2,2,1,,,,,0,7,7,0,0,6,6,2,,,,,,,,,2,1.2343933480005944,,,078,001,2019_Aug_27_1108,MusicAffectPsychophysiology2019,3.0.5,60.07350281569056,
To what extent did the music make you feel ,GUILTY,30MonoWAV/30MonoF1.wav,1,2,2,1,,,,,0,7,7,0,0,7,7,5,,,,,,,,,1,0.9038324799912516,,,078,001,2019_Aug_27_1108,MusicAffectPsychophysiology2019,3.0.5,60.07350281569056,
To what extent did the music make you feel ,ACTIVE,30MonoWAV/30MonoF1.wav,1,2,2,1,,,,,0,7,7,0,0,8,8,9,,,,,,,,,1,1.353083804002381,,,078,001,2019_Aug_27_1108,MusicAffectPsychophysiology2019,3.0.5,60.07350281569056,
To what extent did the music make you feel ,ANXIOUS ,30MonoWAV/30MonoF1.wav,1,2,2,1,,,,,0,7,7,0,0,9,9,1,,,,,,,,,3,1.3529085509944707,,,078,001,2019_Aug_27_1108,MusicAffectPsychophysiology2019,3.0.5,60.07350281569056,
To what extent did the music make you feel ,ASHAMED,30MonoWAV/30MonoF1.wav,1,2,2,1,,,,,0,7,7,0,0,10,10,4,,,,,,,,,1,1.3032103250006912,,,078,001,2019_Aug_27_1108,MusicAffectPsychophysiology2019,3.0.5,60.07350281569056,
To what extent did the music make you feel ,ALERT,30MonoWAV/30MonoF1.wav,1,2,2,1,,,,,0,7,7,0,0,11,11,8,,,,,,,,,1,0.866312519996427,,,078,001,2019_Aug_27_1108,MusicAffectPsychophysiology2019,3.0.5,60.07350281569056,
,,30MonoWAV/30MonoF1.wav,1,2,2,1,,,,,0,7,7,0,,,,,,,,,,,,,,,,,078,001,2019_Aug_27_1108,MusicAffectPsychophysiology2019,3.0.5,60.07350281569056,
To what extent did the music make you feel ,SAD,30MonoWAV/30MonoH3.wav,2,2,1,7,,,,,0,8,8,6,0,0,0,0,,,4,2.9861881859978894,3,1.987084854990826,3,2.0497321089933394,1,2.845006862000446,,,078,001,2019_Aug_27_1108,MusicAffectPsychophysiology2019,3.0.5,60.07350281569056,
To what extent did the music make you feel ,ACTIVE,30MonoWAV/30MonoH3.wav,2,2,1,7,,,,,0,8,8,6,0,1,1,9,,,,,,,,,2,1.535858517003362,,,078,001,2019_Aug_27_1108,MusicAffectPsychophysiology2019,3.0.5,60.07350281569056,
To what extent did the music make you feel ,EXCITED,30MonoWAV/30MonoH3.wav,2,2,1,7,,,,,0,8,8,6,0,2,2,7,,,,,,,,,4,1.2276765930000693,,,078,001,2019_Aug_27_1108,MusicAffectPsychophysiology2019,3.0.5,60.07350281569056,
To what extent did the music make you feel ,HAPPY,30MonoWAV/30MonoH3.wav,2,2,1,7,,,,,0,8,8,6,0,3,3,6,,,,,,,,,4,1.303975499002263,,,078,001,2019_Aug_27_1108,MusicAffectPsychophysiology2019,3.0.5,60.07350281569056,
To what extent did the music make you feel ,ALERT,30MonoWAV/30MonoH3.wav,2,2,1,7,,,,,0,8,8,6,0,4,4,8,,,,,,,,,1,1.3703473429923179,,,078,001,2019_Aug_27_1108,MusicAffectPsychophysiology2019,3.0.5,60.07350281569056,
To what extent did the music make you feel ,ASHAMED,30MonoWAV/30MonoH3.wav,2,2,1,7,,,,,0,8,8,6,0,5,5,4,,,,,,,,,1,1.0688105070003076,,,078,001,2019_Aug_27_1108,MusicAffectPsychophysiology2019,3.0.5,60.07350281569056,
To what extent did the music make you feel ,ANXIOUS ,30MonoWAV/30MonoH3.wav,2,2,1,7,,,,,0,8,8,6,0,6,6,1,,,,,,,,,1,1.2023689579946222,,,078,001,2019_Aug_27_1108,MusicAffectPsychophysiology2019,3.0.5,60.07350281569056,
To what extent did the music make you feel ,ANGRY,30MonoWAV/30MonoH3.wav,2,2,1,7,,,,,0,8,8,6,0,7,7,2,,,,,,,,,1,1.136016179996659,,,078,001,2019_Aug_27_1108,MusicAffectPsychophysiology2019,3.0.5,60.07350281569056,
To what extent did the music make you feel ,SCARED,30MonoWAV/30MonoH3.wav,2,2,1,7,,,,,0,8,8,6,0,8,8,11,,,,,,,,,1,1.0094902470009401,,,078,001,2019_Aug_27_1108,MusicAffectPsychophysiology2019,3.0.5,60.07350281569056,
To what extent did the music make you feel ,FRUSTRATED,30MonoWAV/30MonoH3.wav,2,2,1,7,,,,,0,8,8,6,0,9,9,3,,,,,,,,,1,0.9597833379957592,,,078,001,2019_Aug_27_1108,MusicAffectPsychophysiology2019,3.0.5,60.07350281569056,
To what extent did the music make you feel ,TENDER,30MonoWAV/30MonoH3.wav,2,2,1,7,,,,,0,8,8,6,0,10,10,10,,,,,,,,,2,1.3369846760033397,,,078,001,2019_Aug_27_1108,MusicAffectPsychophysiology2019,3.0.5,60.07350281569056,
To what extent did the music make you feel ,GUILTY,30MonoWAV/30MonoH3.wav,2,2,1,7,,,,,0,8,8,6,0,11,11,5,,,,,,,,,1,1.9037876689981204,,,078,001,2019_Aug_27_1108,MusicAffectPsychophysiology2019,3.0.5,60.07350281569056,
,,30MonoWAV/30MonoH3.wav,2,2,1,7,,,,,0,8,8,6,,,,,,,,,,,,,,,,,078,001,2019_Aug_27_1108,MusicAffectPsychophysiology2019,3.0.5,60.07350281569056,
To what extent did the music make you feel ,ASHAMED,30MonoWAV/30MonoF4.wav,1,2,2,4,,,,,0,9,9,3,0,0,0,4,,,2,2.6690160180005478,1,1.9531427140027517,1,1.3361970750120236,2,2.020057039000676,,,078,001,2019_Aug_27_1108,MusicAffectPsychophysiology2019,3.0.5,60.07350281569056,
To what extent did the music make you feel ,FRUSTRATED,30MonoWAV/30MonoF4.wav,1,2,2,4,,,,,0,9,9,3,0,1,1,3,,,,,,,,,1,1.368226932012476,,,078,001,2019_Aug_27_1108,MusicAffectPsychophysiology2019,3.0.5,60.07350281569056,
To what extent did the music make you feel ,ALERT,30MonoWAV/30MonoF4.wav,1,2,2,4,,,,,0,9,9,3,0,2,2,8,,,,,,,,,2,1.8209156579978298,,,078,001,2019_Aug_27_1108,MusicAffectPsychophysiology2019,3.0.5,60.07350281569056,
To what extent did the music make you feel ,EXCITED,30MonoWAV/30MonoF4.wav,1,2,2,4,,,,,0,9,9,3,0,3,3,7,,,,,,,,,1,1.483487901990884,,,078,001,2019_Aug_27_1108,MusicAffectPsychophysiology2019,3.0.5,60.07350281569056,
To what extent did the music make you feel ,GUILTY,30MonoWAV/30MonoF4.wav,1,2,2,4,,,,,0,9,9,3,0,4,4,5,,,,,,,,,1,1.2689869229943724,,,078,001,2019_Aug_27_1108,MusicAffectPsychophysiology2019,3.0.5,60.07350281569056,
To what extent did the music make you feel ,ACTIVE,30MonoWAV/30MonoF4.wav,1,2,2,4,,,,,0,9,9,3,0,5,5,9,,,,,,,,,2,1.1855911099992227,,,078,001,2019_Aug_27_1108,MusicAffectPsychophysiology2019,3.0.5,60.07350281569056,
To what extent did the music make you feel ,ANXIOUS ,30MonoWAV/30MonoF4.wav,1,2,2,4,,,,,0,9,9,3,0,6,6,1,,,,,,,,,3,1.7365786360023776,,,078,001,2019_Aug_27_1108,MusicAffectPsychophysiology2019,3.0.5,60.07350281569056,
To what extent did the music make you feel ,TENDER,30MonoWAV/30MonoF4.wav,1,2,2,4,,,,,0,9,9,3,0,7,7,10,,,,,,,,,1,1.6007437739899615,,,078,001,2019_Aug_27_1108,MusicAffectPsychophysiology2019,3.0.5,60.07350281569056,
To what extent did the music make you feel ,SCARED,30MonoWAV/30MonoF4.wav,1,2,2,4,,,,,0,9,9,3,0,8,8,11,,,,,,,,,3,2.3048993300035363,,,078,001,2019_Aug_27_1108,MusicAffectPsychophysiology2019,3.0.5,60.07350281569056,
To what extent did the music make you feel ,SAD,30MonoWAV/30MonoF4.wav,1,2,2,4,,,,,0,9,9,3,0,9,9,0,,,,,,,,,1,2.5190195420000236,,,078,001,2019_Aug_27_1108,MusicAffectPsychophysiology2019,3.0.5,60.07350281569056,
To what extent did the music make you feel ,HAPPY,30MonoWAV/30MonoF4.wav,1,2,2,4,,,,,0,9,9,3,0,10,10,6,,,,,,,,,1,1.3873216210049577,,,078,001,2019_Aug_27_1108,MusicAffectPsychophysiology2019,3.0.5,60.07350281569056,
To what extent did the music make you feel ,ANGRY,30MonoWAV/30MonoF4.wav,1,2,2,4,,,,,0,9,9,3,0,11,11,2,,,,,,,,,2,1.2191980700008571,,,078,001,2019_Aug_27_1108,MusicAffectPsychophysiology2019,3.0.5,60.07350281569056,
,,30MonoWAV/30MonoF4.wav,1,2,2,4,,,,,0,9,9,3,,,,,,,,,,,,,,,,,078,001,2019_Aug_27_1108,MusicAffectPsychophysiology2019,3.0.5,60.07350281569056,
To what extent did the music make you feel ,FRUSTRATED,30MonoWAV/30MonoH2.wav,2,2,1,6,,,,,0,10,10,5,0,0,0,3,,,4,3.3365490800060797,3,2.234266376995947,4,1.5829587619955419,1,2.5633294959989144,,,078,001,2019_Aug_27_1108,MusicAffectPsychophysiology2019,3.0.5,60.07350281569056,
To what extent did the music make you feel ,ACTIVE,30MonoWAV/30MonoH2.wav,2,2,1,6,,,,,0,10,10,5,0,1,1,9,,,,,,,,,2,1.0800643379916437,,,078,001,2019_Aug_27_1108,MusicAffectPsychophysiology2019,3.0.5,60.07350281569056,
To what extent did the music make you feel ,ASHAMED,30MonoWAV/30MonoH2.wav,2,2,1,6,,,,,0,10,10,5,0,2,2,4,,,,,,,,,1,0.9203481720032869,,,078,001,2019_Aug_27_1108,MusicAffectPsychophysiology2019,3.0.5,60.07350281569056,
To what extent did the music make you feel ,ALERT,30MonoWAV/30MonoH2.wav,2,2,1,6,,,,,0,10,10,5,0,3,3,8,,,,,,,,,2,1.6622320300084539,,,078,001,2019_Aug_27_1108,MusicAffectPsychophysiology2019,3.0.5,60.07350281569056,
To what extent did the music make you feel ,TENDER,30MonoWAV/30MonoH2.wav,2,2,1,6,,,,,0,10,10,5,0,4,4,10,,,,,,,,,1,1.0032588929898338,,,078,001,2019_Aug_27_1108,MusicAffectPsychophysiology2019,3.0.5,60.07350281569056,
To what extent did the music make you feel ,SCARED,30MonoWAV/30MonoH2.wav,2,2,1,6,,,,,0,10,10,5,0,5,5,11,,,,,,,,,1,1.5469702559930738,,,078,001,2019_Aug_27_1108,MusicAffectPsychophysiology2019,3.0.5,60.07350281569056,
To what extent did the music make you feel ,SAD,30MonoWAV/30MonoH2.wav,2,2,1,6,,,,,0,10,10,5,0,6,6,0,,,,,,,,,1,0.9862458759889705,,,078,001,2019_Aug_27_1108,MusicAffectPsychophysiology2019,3.0.5,60.07350281569056,
To what extent did the music make you feel ,ANXIOUS ,30MonoWAV/30MonoH2.wav,2,2,1,6,,,,,0,10,10,5,0,7,7,1,,,,,,,,,1,0.9102581179904519,,,078,001,2019_Aug_27_1108,MusicAffectPsychophysiology2019,3.0.5,60.07350281569056,
To what extent did the music make you feel ,GUILTY,30MonoWAV/30MonoH2.wav,2,2,1,6,,,,,0,10,10,5,0,8,8,5,,,,,,,,,1,2.7701902840053663,,,078,001,2019_Aug_27_1108,MusicAffectPsychophysiology2019,3.0.5,60.07350281569056,
To what extent did the music make you feel ,ANGRY,30MonoWAV/30MonoH2.wav,2,2,1,6,,,,,0,10,10,5,0,9,9,2,,,,,,,,,1,2.6532979370094836,,,078,001,2019_Aug_27_1108,MusicAffectPsychophysiology2019,3.0.5,60.07350281569056,
To what extent did the music make you feel ,EXCITED,30MonoWAV/30MonoH2.wav,2,2,1,6,,,,,0,10,10,5,0,10,10,7,,,,,,,,,3,0.9461957940075081,,,078,001,2019_Aug_27_1108,MusicAffectPsychophysiology2019,3.0.5,60.07350281569056,
To what extent did the music make you feel ,HAPPY,30MonoWAV/30MonoH2.wav,2,2,1,6,,,,,0,10,10,5,0,11,11,6,,,,,,,,,3,1.3876904469943838,,,078,001,2019_Aug_27_1108,MusicAffectPsychophysiology2019,3.0.5,60.07350281569056,
,,30MonoWAV/30MonoH2.wav,2,2,1,6,,,,,0,10,10,5,,,,,,,,,,,,,,,,,078,001,2019_Aug_27_1108,MusicAffectPsychophysiology2019,3.0.5,60.07350281569056,
To what extent did the music make you feel ,ALERT,30MonoWAV/30MonoF2.wav,1,2,2,2,,,,,0,11,11,1,0,0,0,8,,,3,2.8198720829968806,1,1.3869065590115497,1,1.1703424880106468,4,1.7395748599956278,,,078,001,2019_Aug_27_1108,MusicAffectPsychophysiology2019,3.0.5,60.07350281569056,
To what extent did the music make you feel ,FRUSTRATED,30MonoWAV/30MonoF2.wav,1,2,2,2,,,,,0,11,11,1,0,1,1,3,,,,,,,,,1,0.9569886150129605,,,078,001,2019_Aug_27_1108,MusicAffectPsychophysiology2019,3.0.5,60.07350281569056,
To what extent did the music make you feel ,ASHAMED,30MonoWAV/30MonoF2.wav,1,2,2,2,,,,,0,11,11,1,0,2,2,4,,,,,,,,,1,1.5404970460076584,,,078,001,2019_Aug_27_1108,MusicAffectPsychophysiology2019,3.0.5,60.07350281569056,
To what extent did the music make you feel ,ACTIVE,30MonoWAV/30MonoF2.wav,1,2,2,2,,,,,0,11,11,1,0,3,3,9,,,,,,,,,3,1.570525887000258,,,078,001,2019_Aug_27_1108,MusicAffectPsychophysiology2019,3.0.5,60.07350281569056,
To what extent did the music make you feel ,ANXIOUS ,30MonoWAV/30MonoF2.wav,1,2,2,2,,,,,0,11,11,1,0,4,4,1,,,,,,,,,4,1.4392412840097677,,,078,001,2019_Aug_27_1108,MusicAffectPsychophysiology2019,3.0.5,60.07350281569056,
To what extent did the music make you feel ,GUILTY,30MonoWAV/30MonoF2.wav,1,2,2,2,,,,,0,11,11,1,0,5,5,5,,,,,,,,,2,1.989717677992303,,,078,001,2019_Aug_27_1108,MusicAffectPsychophysiology2019,3.0.5,60.07350281569056,
To what extent did the music make you feel ,ANGRY,30MonoWAV/30MonoF2.wav,1,2,2,2,,,,,0,11,11,1,0,6,6,2,,,,,,,,,1,1.7708866719913203,,,078,001,2019_Aug_27_1108,MusicAffectPsychophysiology2019,3.0.5,60.07350281569056,
To what extent did the music make you feel ,SCARED,30MonoWAV/30MonoF2.wav,1,2,2,2,,,,,0,11,11,1,0,7,7,11,,,,,,,,,4,1.5888298279896844,,,078,001,2019_Aug_27_1108,MusicAffectPsychophysiology2019,3.0.5,60.07350281569056,
To what extent did the music make you feel ,SAD,30MonoWAV/30MonoF2.wav,1,2,2,2,,,,,0,11,11,1,0,8,8,0,,,,,,,,,1,3.9333171470061643,,,078,001,2019_Aug_27_1108,MusicAffectPsychophysiology2019,3.0.5,60.07350281569056,
To what extent did the music make you feel ,HAPPY,30MonoWAV/30MonoF2.wav,1,2,2,2,,,,,0,11,11,1,0,9,9,6,,,,,,,,,1,1.0379465150035685,,,078,001,2019_Aug_27_1108,MusicAffectPsychophysiology2019,3.0.5,60.07350281569056,
To what extent did the music make you feel ,TENDER,30MonoWAV/30MonoF2.wav,1,2,2,2,,,,,0,11,11,1,0,10,10,10,,,,,,,,,1,0.7882190200034529,,,078,001,2019_Aug_27_1108,MusicAffectPsychophysiology2019,3.0.5,60.07350281569056,
To what extent did the music make you feel ,EXCITED,30MonoWAV/30MonoF2.wav,1,2,2,2,,,,,0,11,11,1,0,11,11,7,,,,,,,,,2,2.154237368988106,,,078,001,2019_Aug_27_1108,MusicAffectPsychophysiology2019,3.0.5,60.07350281569056,
,,30MonoWAV/30MonoF2.wav,1,2,2,2,,,,,0,11,11,1,,,,,,,,,,,,,,,,,078,001,2019_Aug_27_1108,MusicAffectPsychophysiology2019,3.0.5,60.07350281569056,
To what extent did the music make you feel ,ALERT,30MonoWAV/30MonoS3.wav,1,1,3,11,,,,,0,12,12,10,0,0,0,8,,,2,2.702982577000512,1,0.9865574010036653,1,0.903740268011461,1,1.3704282929975307,,,078,001,2019_Aug_27_1108,MusicAffectPsychophysiology2019,3.0.5,60.07350281569056,
To what extent did the music make you feel ,ANXIOUS ,30MonoWAV/30MonoS3.wav,1,1,3,11,,,,,0,12,12,10,0,1,1,1,,,,,,,,,2,1.0536282029934227,,,078,001,2019_Aug_27_1108,MusicAffectPsychophysiology2019,3.0.5,60.07350281569056,
To what extent did the music make you feel ,SCARED,30MonoWAV/30MonoS3.wav,1,1,3,11,,,,,0,12,12,10,0,2,2,11,,,,,,,,,3,1.316498911997769,,,078,001,2019_Aug_27_1108,MusicAffectPsychophysiology2019,3.0.5,60.07350281569056,
To what extent did the music make you feel ,HAPPY,30MonoWAV/30MonoS3.wav,1,1,3,11,,,,,0,12,12,10,0,3,3,6,,,,,,,,,1,1.1873096180061111,,,078,001,2019_Aug_27_1108,MusicAffectPsychophysiology2019,3.0.5,60.07350281569056,
To what extent did the music make you feel ,ACTIVE,30MonoWAV/30MonoS3.wav,1,1,3,11,,,,,0,12,12,10,0,4,4,9,,,,,,,,,1,1.2994076460017823,,,078,001,2019_Aug_27_1108,MusicAffectPsychophysiology2019,3.0.5,60.07350281569056,
To what extent did the music make you feel ,FRUSTRATED,30MonoWAV/30MonoS3.wav,1,1,3,11,,,,,0,12,12,10,0,5,5,3,,,,,,,,,2,1.7829150850011501,,,078,001,2019_Aug_27_1108,MusicAffectPsychophysiology2019,3.0.5,60.07350281569056,
To what extent did the music make you feel ,GUILTY,30MonoWAV/30MonoS3.wav,1,1,3,11,,,,,0,12,12,10,0,6,6,5,,,,,,,,,2,1.28193466499215,,,078,001,2019_Aug_27_1108,MusicAffectPsychophysiology2019,3.0.5,60.07350281569056,
To what extent did the music make you feel ,ANGRY,30MonoWAV/30MonoS3.wav,1,1,3,11,,,,,0,12,12,10,0,7,7,2,,,,,,,,,1,1.729166339006042,,,078,001,2019_Aug_27_1108,MusicAffectPsychophysiology2019,3.0.5,60.07350281569056,
To what extent did the music make you feel ,SAD,30MonoWAV/30MonoS3.wav,1,1,3,11,,,,,0,12,12,10,0,8,8,0,,,,,,,,,2,2.319662549009081,,,078,001,2019_Aug_27_1108,MusicAffectPsychophysiology2019,3.0.5,60.07350281569056,
To what extent did the music make you feel ,EXCITED,30MonoWAV/30MonoS3.wav,1,1,3,11,,,,,0,12,12,10,0,9,9,7,,,,,,,,,1,0.7320440110052004,,,078,001,2019_Aug_27_1108,MusicAffectPsychophysiology2019,3.0.5,60.07350281569056,
To what extent did the music make you feel ,TENDER,30MonoWAV/30MonoS3.wav,1,1,3,11,,,,,0,12,12,10,0,10,10,10,,,,,,,,,1,1.0645735790021718,,,078,001,2019_Aug_27_1108,MusicAffectPsychophysiology2019,3.0.5,60.07350281569056,
To what extent did the music make you feel ,ASHAMED,30MonoWAV/30MonoS3.wav,1,1,3,11,,,,,0,12,12,10,0,11,11,4,,,,,,,,,2,1.3314252620039042,,,078,001,2019_Aug_27_1108,MusicAffectPsychophysiology2019,3.0.5,60.07350281569056,
,,30MonoWAV/30MonoS3.wav,1,1,3,11,,,,,0,12,12,10,,,,,,,,,,,,,,,,,078,001,2019_Aug_27_1108,MusicAffectPsychophysiology2019,3.0.5,60.07350281569056,
To what extent did the music make you feel ,TENDER,30MonoWAV/30MonoH1.wav,2,2,1,5,,,,,0,13,13,4,0,0,0,10,,,5,2.3699450910062296,5,2.1867254539974965,5,1.9208485539857065,2,2.9436156209994806,,,078,001,2019_Aug_27_1108,MusicAffectPsychophysiology2019,3.0.5,60.07350281569056,
To what extent did the music make you feel ,ASHAMED,30MonoWAV/30MonoH1.wav,2,2,1,5,,,,,0,13,13,4,0,1,1,4,,,,,,,,,1,1.1922692230000393,,,078,001,2019_Aug_27_1108,MusicAffectPsychophysiology2019,3.0.5,60.07350281569056,
To what extent did the music make you feel ,ANXIOUS ,30MonoWAV/30MonoH1.wav,2,2,1,5,,,,,0,13,13,4,0,2,2,1,,,,,,,,,1,0.7417326260037953,,,078,001,2019_Aug_27_1108,MusicAffectPsychophysiology2019,3.0.5,60.07350281569056,
To what extent did the music make you feel ,ACTIVE,30MonoWAV/30MonoH1.wav,2,2,1,5,,,,,0,13,13,4,0,3,3,9,,,,,,,,,2,1.069925025003613,,,078,001,2019_Aug_27_1108,MusicAffectPsychophysiology2019,3.0.5,60.07350281569056,
To what extent did the music make you feel ,FRUSTRATED,30MonoWAV/30MonoH1.wav,2,2,1,5,,,,,0,13,13,4,0,4,4,3,,,,,,,,,1,0.6583830669987947,,,078,001,2019_Aug_27_1108,MusicAffectPsychophysiology2019,3.0.5,60.07350281569056,
To what extent did the music make you feel ,SAD,30MonoWAV/30MonoH1.wav,2,2,1,5,,,,,0,13,13,4,0,5,5,0,,,,,,,,,1,0.8697334729949944,,,078,001,2019_Aug_27_1108,MusicAffectPsychophysiology2019,3.0.5,60.07350281569056,
To what extent did the music make you feel ,HAPPY,30MonoWAV/30MonoH1.wav,2,2,1,5,,,,,0,13,13,4,0,6,6,6,,,,,,,,,4,1.1704385570046725,,,078,001,2019_Aug_27_1108,MusicAffectPsychophysiology2019,3.0.5,60.07350281569056,
To what extent did the music make you feel ,ANGRY,30MonoWAV/30MonoH1.wav,2,2,1,5,,,,,0,13,13,4,0,7,7,2,,,,,,,,,1,1.102928526001051,,,078,001,2019_Aug_27_1108,MusicAffectPsychophysiology2019,3.0.5,60.07350281569056,
To what extent did the music make you feel ,SCARED,30MonoWAV/30MonoH1.wav,2,2,1,5,,,,,0,13,13,4,0,8,8,11,,,,,,,,,1,0.991476857001544,,,078,001,2019_Aug_27_1108,MusicAffectPsychophysiology2019,3.0.5,60.07350281569056,
To what extent did the music make you feel ,GUILTY,30MonoWAV/30MonoH1.wav,2,2,1,5,,,,,0,13,13,4,0,9,9,5,,,,,,,,,1,1.052866191996145,,,078,001,2019_Aug_27_1108,MusicAffectPsychophysiology2019,3.0.5,60.07350281569056,
To what extent did the music make you feel ,EXCITED,30MonoWAV/30MonoH1.wav,2,2,1,5,,,,,0,13,13,4,0,10,10,7,,,,,,,,,3,0.8909254579921253,,,078,001,2019_Aug_27_1108,MusicAffectPsychophysiology2019,3.0.5,60.07350281569056,
To what extent did the music make you feel ,ALERT,30MonoWAV/30MonoH1.wav,2,2,1,5,,,,,0,13,13,4,0,11,11,8,,,,,,,,,2,2.469894806999946,,,078,001,2019_Aug_27_1108,MusicAffectPsychophysiology2019,3.0.5,60.07350281569056,
,,30MonoWAV/30MonoH1.wav,2,2,1,5,,,,,0,13,13,4,,,,,,,,,,,,,,,,,078,001,2019_Aug_27_1108,MusicAffectPsychophysiology2019,3.0.5,60.07350281569056,
To what extent did the music make you feel ,SCARED,30MonoWAV/30MonoS2.wav,1,1,3,10,,,,,0,14,14,9,0,0,0,11,,,2,4.502744376004557,1,1.9712669099972118,1,1.0190519419993507,2,2.1200590530061163,,,078,001,2019_Aug_27_1108,MusicAffectPsychophysiology2019,3.0.5,60.07350281569056,
To what extent did the music make you feel ,ALERT,30MonoWAV/30MonoS2.wav,1,1,3,10,,,,,0,14,14,9,0,1,1,8,,,,,,,,,1,0.8021673320035916,,,078,001,2019_Aug_27_1108,MusicAffectPsychophysiology2019,3.0.5,60.07350281569056,
To what extent did the music make you feel ,EXCITED,30MonoWAV/30MonoS2.wav,1,1,3,10,,,,,0,14,14,9,0,2,2,7,,,,,,,,,1,1.054948588993284,,,078,001,2019_Aug_27_1108,MusicAffectPsychophysiology2019,3.0.5,60.07350281569056,
To what extent did the music make you feel ,ACTIVE,30MonoWAV/30MonoS2.wav,1,1,3,10,,,,,0,14,14,9,0,3,3,9,,,,,,,,,1,1.053116740004043,,,078,001,2019_Aug_27_1108,MusicAffectPsychophysiology2019,3.0.5,60.07350281569056,
To what extent did the music make you feel ,TENDER,30MonoWAV/30MonoS2.wav,1,1,3,10,,,,,0,14,14,9,0,4,4,10,,,,,,,,,1,1.115643420998822,,,078,001,2019_Aug_27_1108,MusicAffectPsychophysiology2019,3.0.5,60.07350281569056,
To what extent did the music make you feel ,GUILTY,30MonoWAV/30MonoS2.wav,1,1,3,10,,,,,0,14,14,9,0,5,5,5,,,,,,,,,2,1.0174286809924524,,,078,001,2019_Aug_27_1108,MusicAffectPsychophysiology2019,3.0.5,60.07350281569056,
To what extent did the music make you feel ,ANGRY,30MonoWAV/30MonoS2.wav,1,1,3,10,,,,,0,14,14,9,0,6,6,2,,,,,,,,,1,0.9534360769903287,,,078,001,2019_Aug_27_1108,MusicAffectPsychophysiology2019,3.0.5,60.07350281569056,
To what extent did the music make you feel ,HAPPY,30MonoWAV/30MonoS2.wav,1,1,3,10,,,,,0,14,14,9,0,7,7,6,,,,,,,,,1,1.05383349499607,,,078,001,2019_Aug_27_1108,MusicAffectPsychophysiology2019,3.0.5,60.07350281569056,
To what extent did the music make you feel ,SAD,30MonoWAV/30MonoS2.wav,1,1,3,10,,,,,0,14,14,9,0,8,8,0,,,,,,,,,4,1.070189352001762,,,078,001,2019_Aug_27_1108,MusicAffectPsychophysiology2019,3.0.5,60.07350281569056,
To what extent did the music make you feel ,ASHAMED,30MonoWAV/30MonoS2.wav,1,1,3,10,,,,,0,14,14,9,0,9,9,4,,,,,,,,,1,1.4219697810040088,,,078,001,2019_Aug_27_1108,MusicAffectPsychophysiology2019,3.0.5,60.07350281569056,
To what extent did the music make you feel ,FRUSTRATED,30MonoWAV/30MonoS2.wav,1,1,3,10,,,,,0,14,14,9,0,10,10,3,,,,,,,,,2,2.7708169920078944,,,078,001,2019_Aug_27_1108,MusicAffectPsychophysiology2019,3.0.5,60.07350281569056,
To what extent did the music make you feel ,ANXIOUS ,30MonoWAV/30MonoS2.wav,1,1,3,10,,,,,0,14,14,9,0,11,11,1,,,,,,,,,3,1.5002835329942172,,,078,001,2019_Aug_27_1108,MusicAffectPsychophysiology2019,3.0.5,60.07350281569056,
,,30MonoWAV/30MonoS2.wav,1,1,3,10,,,,,0,14,14,9,,,,,,,,,,,,,,,,,078,001,2019_Aug_27_1108,MusicAffectPsychophysiology2019,3.0.5,60.07350281569056,
To what extent did the music make you feel ,ANGRY,30MonoWAV/30MonoT2.wav,2,1,4,14,,,,,0,15,15,13,0,0,0,2,,,3,3.655436507993727,4,1.8199084710067837,3,2.2035137269995175,1,1.5619816450052895,,,078,001,2019_Aug_27_1108,MusicAffectPsychophysiology2019,3.0.5,60.07350281569056,
To what extent did the music make you feel ,GUILTY,30MonoWAV/30MonoT2.wav,2,1,4,14,,,,,0,15,15,13,0,1,1,5,,,,,,,,,1,1.354217731000972,,,078,001,2019_Aug_27_1108,MusicAffectPsychophysiology2019,3.0.5,60.07350281569056,
To what extent did the music make you feel ,TENDER,30MonoWAV/30MonoT2.wav,2,1,4,14,,,,,0,15,15,13,0,2,2,10,,,,,,,,,2,0.9779225339880213,,,078,001,2019_Aug_27_1108,MusicAffectPsychophysiology2019,3.0.5,60.07350281569056,
To what extent did the music make you feel ,HAPPY,30MonoWAV/30MonoT2.wav,2,1,4,14,,,,,0,15,15,13,0,3,3,6,,,,,,,,,2,1.6033679289976135,,,078,001,2019_Aug_27_1108,MusicAffectPsychophysiology2019,3.0.5,60.07350281569056,
To what extent did the music make you feel ,ALERT,30MonoWAV/30MonoT2.wav,2,1,4,14,,,,,0,15,15,13,0,4,4,8,,,,,,,,,1,1.9610396139905788,,,078,001,2019_Aug_27_1108,MusicAffectPsychophysiology2019,3.0.5,60.07350281569056,
To what extent did the music make you feel ,FRUSTRATED,30MonoWAV/30MonoT2.wav,2,1,4,14,,,,,0,15,15,13,0,5,5,3,,,,,,,,,1,1.4278156389918877,,,078,001,2019_Aug_27_1108,MusicAffectPsychophysiology2019,3.0.5,60.07350281569056,
To what extent did the music make you feel ,ANXIOUS ,30MonoWAV/30MonoT2.wav,2,1,4,14,,,,,0,15,15,13,0,6,6,1,,,,,,,,,1,1.7372892739949748,,,078,001,2019_Aug_27_1108,MusicAffectPsychophysiology2019,3.0.5,60.07350281569056,
To what extent did the music make you feel ,EXCITED,30MonoWAV/30MonoT2.wav,2,1,4,14,,,,,0,15,15,13,0,7,7,7,,,,,,,,,3,1.2278393710003002,,,078,001,2019_Aug_27_1108,MusicAffectPsychophysiology2019,3.0.5,60.07350281569056,
To what extent did the music make you feel ,SAD,30MonoWAV/30MonoT2.wav,2,1,4,14,,,,,0,15,15,13,0,8,8,0,,,,,,,,,1,1.2357507809938397,,,078,001,2019_Aug_27_1108,MusicAffectPsychophysiology2019,3.0.5,60.07350281569056,
To what extent did the music make you feel ,ASHAMED,30MonoWAV/30MonoT2.wav,2,1,4,14,,,,,0,15,15,13,0,9,9,4,,,,,,,,,1,2.0539198340120493,,,078,001,2019_Aug_27_1108,MusicAffectPsychophysiology2019,3.0.5,60.07350281569056,
To what extent did the music make you feel ,SCARED,30MonoWAV/30MonoT2.wav,2,1,4,14,,,,,0,15,15,13,0,10,10,11,,,,,,,,,1,0.9770105450006668,,,078,001,2019_Aug_27_1108,MusicAffectPsychophysiology2019,3.0.5,60.07350281569056,
To what extent did the music make you feel ,ACTIVE,30MonoWAV/30MonoT2.wav,2,1,4,14,,,,,0,15,15,13,0,11,11,9,,,,,,,,,1,1.1363951249950333,,,078,001,2019_Aug_27_1108,MusicAffectPsychophysiology2019,3.0.5,60.07350281569056,
,,30MonoWAV/30MonoT2.wav,2,1,4,14,,,,,0,15,15,13,,,,,,,,,,,,,,,,,078,001,2019_Aug_27_1108,MusicAffectPsychophysiology2019,3.0.5,60.07350281569056,
To what extent did the music make you feel ,ACTIVE,30MonoWAV/30MonoH3.wav,2,2,1,7,,,,,1,0,16,6,0,0,0,9,,,5,3.036497448993032,5,1.4017915060103405,5,1.2029265309975017,2,2.2542139609868173,,,078,001,2019_Aug_27_1108,MusicAffectPsychophysiology2019,3.0.5,60.07350281569056,
To what extent did the music make you feel ,TENDER,30MonoWAV/30MonoH3.wav,2,2,1,7,,,,,1,0,16,6,0,1,1,10,,,,,,,,,2,1.1860054260032484,,,078,001,2019_Aug_27_1108,MusicAffectPsychophysiology2019,3.0.5,60.07350281569056,
To what extent did the music make you feel ,HAPPY,30MonoWAV/30MonoH3.wav,2,2,1,7,,,,,1,0,16,6,0,2,2,6,,,,,,,,,4,1.6871190649981145,,,078,001,2019_Aug_27_1108,MusicAffectPsychophysiology2019,3.0.5,60.07350281569056,
To what extent did the music make you feel ,EXCITED,30MonoWAV/30MonoH3.wav,2,2,1,7,,,,,1,0,16,6,0,3,3,7,,,,,,,,,3,1.2535821350029437,,,078,001,2019_Aug_27_1108,MusicAffectPsychophysiology2019,3.0.5,60.07350281569056,
To what extent did the music make you feel ,ASHAMED,30MonoWAV/30MonoH3.wav,2,2,1,7,,,,,1,0,16,6,0,4,4,4,,,,,,,,,1,0.9375930590031203,,,078,001,2019_Aug_27_1108,MusicAffectPsychophysiology2019,3.0.5,60.07350281569056,
To what extent did the music make you feel ,ALERT,30MonoWAV/30MonoH3.wav,2,2,1,7,,,,,1,0,16,6,0,5,5,8,,,,,,,,,1,1.119790714001283,,,078,001,2019_Aug_27_1108,MusicAffectPsychophysiology2019,3.0.5,60.07350281569056,
To what extent did the music make you feel ,GUILTY,30MonoWAV/30MonoH3.wav,2,2,1,7,,,,,1,0,16,6,0,6,6,5,,,,,,,,,1,0.9371621930040419,,,078,001,2019_Aug_27_1108,MusicAffectPsychophysiology2019,3.0.5,60.07350281569056,
To what extent did the music make you feel ,ANXIOUS ,30MonoWAV/30MonoH3.wav,2,2,1,7,,,,,1,0,16,6,0,7,7,1,,,,,,,,,1,0.7530194569990272,,,078,001,2019_Aug_27_1108,MusicAffectPsychophysiology2019,3.0.5,60.07350281569056,
To what extent did the music make you feel ,SCARED,30MonoWAV/30MonoH3.wav,2,2,1,7,,,,,1,0,16,6,0,8,8,11,,,,,,,,,1,0.753654882995761,,,078,001,2019_Aug_27_1108,MusicAffectPsychophysiology2019,3.0.5,60.07350281569056,
To what extent did the music make you feel ,FRUSTRATED,30MonoWAV/30MonoH3.wav,2,2,1,7,,,,,1,0,16,6,0,9,9,3,,,,,,,,,1,0.8364660200022627,,,078,001,2019_Aug_27_1108,MusicAffectPsychophysiology2019,3.0.5,60.07350281569056,
To what extent did the music make you feel ,ANGRY,30MonoWAV/30MonoH3.wav,2,2,1,7,,,,,1,0,16,6,0,10,10,2,,,,,,,,,1,0.7706580230005784,,,078,001,2019_Aug_27_1108,MusicAffectPsychophysiology2019,3.0.5,60.07350281569056,
To what extent did the music make you feel ,SAD,30MonoWAV/30MonoH3.wav,2,2,1,7,,,,,1,0,16,6,0,11,11,0,,,,,,,,,1,0.8532912140071858,,,078,001,2019_Aug_27_1108,MusicAffectPsychophysiology2019,3.0.5,60.07350281569056,
,,30MonoWAV/30MonoH3.wav,2,2,1,7,,,,,1,0,16,6,,,,,,,,,,,,,,,,,078,001,2019_Aug_27_1108,MusicAffectPsychophysiology2019,3.0.5,60.07350281569056,
To what extent did the music make you feel ,ACTIVE,30MonoWAV/30MonoF2.wav,1,2,2,2,,,,,1,1,17,1,0,0,0,9,,,2,3.7376508489978733,1,1.3538346700079273,1,1.5863477410021005,1,1.6873965229897294,,,078,001,2019_Aug_27_1108,MusicAffectPsychophysiology2019,3.0.5,60.07350281569056,
To what extent did the music make you feel ,SAD,30MonoWAV/30MonoF2.wav,1,2,2,2,,,,,1,1,17,1,0,1,1,0,,,,,,,,,1,1.2361395670013735,,,078,001,2019_Aug_27_1108,MusicAffectPsychophysiology2019,3.0.5,60.07350281569056,
To what extent did the music make you feel ,HAPPY,30MonoWAV/30MonoF2.wav,1,2,2,2,,,,,1,1,17,1,0,2,2,6,,,,,,,,,1,1.0864559359906707,,,078,001,2019_Aug_27_1108,MusicAffectPsychophysiology2019,3.0.5,60.07350281569056,
To what extent did the music make you feel ,ALERT,30MonoWAV/30MonoF2.wav,1,2,2,2,,,,,1,1,17,1,0,3,3,8,,,,,,,,,3,1.2286378150020028,,,078,001,2019_Aug_27_1108,MusicAffectPsychophysiology2019,3.0.5,60.07350281569056,
To what extent did the music make you feel ,ANGRY,30MonoWAV/30MonoF2.wav,1,2,2,2,,,,,1,1,17,1,0,4,4,2,,,,,,,,,3,2.0870318149973173,,,078,001,2019_Aug_27_1108,MusicAffectPsychophysiology2019,3.0.5,60.07350281569056,
To what extent did the music make you feel ,ANXIOUS ,30MonoWAV/30MonoF2.wav,1,2,2,2,,,,,1,1,17,1,0,5,5,1,,,,,,,,,4,0.7969858220021706,,,078,001,2019_Aug_27_1108,MusicAffectPsychophysiology2019,3.0.5,60.07350281569056,
To what extent did the music make you feel ,FRUSTRATED,30MonoWAV/30MonoF2.wav,1,2,2,2,,,,,1,1,17,1,0,6,6,3,,,,,,,,,2,1.9142460720031522,,,078,001,2019_Aug_27_1108,MusicAffectPsychophysiology2019,3.0.5,60.07350281569056,
To what extent did the music make you feel ,ASHAMED,30MonoWAV/30MonoF2.wav,1,2,2,2,,,,,1,1,17,1,0,7,7,4,,,,,,,,,1,1.286766794990399,,,078,001,2019_Aug_27_1108,MusicAffectPsychophysiology2019,3.0.5,60.07350281569056,
To what extent did the music make you feel ,SCARED,30MonoWAV/30MonoF2.wav,1,2,2,2,,,,,1,1,17,1,0,8,8,11,,,,,,,,,4,1.446223702005227,,,078,001,2019_Aug_27_1108,MusicAffectPsychophysiology2019,3.0.5,60.07350281569056,
To what extent did the music make you feel ,EXCITED,30MonoWAV/30MonoF2.wav,1,2,2,2,,,,,1,1,17,1,0,9,9,7,,,,,,,,,1,1.2556231320049847,,,078,001,2019_Aug_27_1108,MusicAffectPsychophysiology2019,3.0.5,60.07350281569056,
To what extent did the music make you feel ,TENDER,30MonoWAV/30MonoF2.wav,1,2,2,2,,,,,1,1,17,1,0,10,10,10,,,,,,,,,1,0.9433778670063475,,,078,001,2019_Aug_27_1108,MusicAffectPsychophysiology2019,3.0.5,60.07350281569056,
To what extent did the music make you feel ,GUILTY,30MonoWAV/30MonoF2.wav,1,2,2,2,,,,,1,1,17,1,0,11,11,5,,,,,,,,,1,0.9706388299964601,,,078,001,2019_Aug_27_1108,MusicAffectPsychophysiology2019,3.0.5,60.07350281569056,
,,30MonoWAV/30MonoF2.wav,1,2,2,2,,,,,1,1,17,1,,,,,,,,,,,,,,,,,078,001,2019_Aug_27_1108,MusicAffectPsychophysiology2019,3.0.5,60.07350281569056,
To what extent did the music make you feel ,GUILTY,30MonoWAV/30MonoT3.wav,2,1,4,15,,,,,1,2,18,14,0,0,0,5,,,2,2.3167197279981337,2,1.9205623029993149,1,0.9354742799914675,1,1.9579275200085249,,,078,001,2019_Aug_27_1108,MusicAffectPsychophysiology2019,3.0.5,60.07350281569056,
To what extent did the music make you feel ,HAPPY,30MonoWAV/30MonoT3.wav,2,1,4,15,,,,,1,2,18,14,0,1,1,6,,,,,,,,,1,1.6527804029901745,,,078,001,2019_Aug_27_1108,MusicAffectPsychophysiology2019,3.0.5,60.07350281569056,
To what extent did the music make you feel ,ANXIOUS ,30MonoWAV/30MonoT3.wav,2,1,4,15,,,,,1,2,18,14,0,2,2,1,,,,,,,,,1,1.334123159002047,,,078,001,2019_Aug_27_1108,MusicAffectPsychophysiology2019,3.0.5,60.07350281569056,
To what extent did the music make you feel ,SAD,30MonoWAV/30MonoT3.wav,2,1,4,15,,,,,1,2,18,14,0,3,3,0,,,,,,,,,2,1.874126131995581,,,078,001,2019_Aug_27_1108,MusicAffectPsychophysiology2019,3.0.5,60.07350281569056,
To what extent did the music make you feel ,SCARED,30MonoWAV/30MonoT3.wav,2,1,4,15,,,,,1,2,18,14,0,4,4,11,,,,,,,,,1,1.0227813539968338,,,078,001,2019_Aug_27_1108,MusicAffectPsychophysiology2019,3.0.5,60.07350281569056,
To what extent did the music make you feel ,ANGRY,30MonoWAV/30MonoT3.wav,2,1,4,15,,,,,1,2,18,14,0,5,5,2,,,,,,,,,1,1.1365673340042122,,,078,001,2019_Aug_27_1108,MusicAffectPsychophysiology2019,3.0.5,60.07350281569056,
To what extent did the music make you feel ,FRUSTRATED,30MonoWAV/30MonoT3.wav,2,1,4,15,,,,,1,2,18,14,0,6,6,3,,,,,,,,,3,1.0726547529920936,,,078,001,2019_Aug_27_1108,MusicAffectPsychophysiology2019,3.0.5,60.07350281569056,
To what extent did the music make you feel ,TENDER,30MonoWAV/30MonoT3.wav,2,1,4,15,,,,,1,2,18,14,0,7,7,10,,,,,,,,,1,0.9741789239924401,,,078,001,2019_Aug_27_1108,MusicAffectPsychophysiology2019,3.0.5,60.07350281569056,
To what extent did the music make you feel ,ACTIVE,30MonoWAV/30MonoT3.wav,2,1,4,15,,,,,1,2,18,14,0,8,8,9,,,,,,,,,1,1.1362710399989737,,,078,001,2019_Aug_27_1108,MusicAffectPsychophysiology2019,3.0.5,60.07350281569056,
To what extent did the music make you feel ,ALERT,30MonoWAV/30MonoT3.wav,2,1,4,15,,,,,1,2,18,14,0,9,9,8,,,,,,,,,1,1.6228653540019877,,,078,001,2019_Aug_27_1108,MusicAffectPsychophysiology2019,3.0.5,60.07350281569056,
To what extent did the music make you feel ,ASHAMED,30MonoWAV/30MonoT3.wav,2,1,4,15,,,,,1,2,18,14,0,10,10,4,,,,,,,,,1,1.0045528629998444,,,078,001,2019_Aug_27_1108,MusicAffectPsychophysiology2019,3.0.5,60.07350281569056,
To what extent did the music make you feel ,EXCITED,30MonoWAV/30MonoT3.wav,2,1,4,15,,,,,1,2,18,14,0,11,11,7,,,,,,,,,1,1.07261965800717,,,078,001,2019_Aug_27_1108,MusicAffectPsychophysiology2019,3.0.5,60.07350281569056,
,,30MonoWAV/30MonoT3.wav,2,1,4,15,,,,,1,2,18,14,,,,,,,,,,,,,,,,,078,001,2019_Aug_27_1108,MusicAffectPsychophysiology2019,3.0.5,60.07350281569056,
To what extent did the music make you feel ,SCARED,30MonoWAV/30MonoH4.wav,2,2,1,8,,,,,1,3,19,7,0,0,0,11,,,4,2.5862278909917222,4,1.152972789001069,3,1.4371378600044409,1,1.6045503170025768,,,078,001,2019_Aug_27_1108,MusicAffectPsychophysiology2019,3.0.5,60.07350281569056,
To what extent did the music make you feel ,SAD,30MonoWAV/30MonoH4.wav,2,2,1,8,,,,,1,3,19,7,0,1,1,0,,,,,,,,,2,1.4681160189938964,,,078,001,2019_Aug_27_1108,MusicAffectPsychophysiology2019,3.0.5,60.07350281569056,
To what extent did the music make you feel ,FRUSTRATED,30MonoWAV/30MonoH4.wav,2,2,1,8,,,,,1,3,19,7,0,2,2,3,,,,,,,,,1,1.1363013090012828,,,078,001,2019_Aug_27_1108,MusicAffectPsychophysiology2019,3.0.5,60.07350281569056,
To what extent did the music make you feel ,HAPPY,30MonoWAV/30MonoH4.wav,2,2,1,8,,,,,1,3,19,7,0,3,3,6,,,,,,,,,3,1.2693922519974876,,,078,001,2019_Aug_27_1108,MusicAffectPsychophysiology2019,3.0.5,60.07350281569056,
To what extent did the music make you feel ,ANGRY,30MonoWAV/30MonoH4.wav,2,2,1,8,,,,,1,3,19,7,0,4,4,2,,,,,,,,,1,1.0037065659998916,,,078,001,2019_Aug_27_1108,MusicAffectPsychophysiology2019,3.0.5,60.07350281569056,
To what extent did the music make you feel ,ACTIVE,30MonoWAV/30MonoH4.wav,2,2,1,8,,,,,1,3,19,7,0,5,5,9,,,,,,,,,2,1.0538755339948693,,,078,001,2019_Aug_27_1108,MusicAffectPsychophysiology2019,3.0.5,60.07350281569056,
To what extent did the music make you feel ,EXCITED,30MonoWAV/30MonoH4.wav,2,2,1,8,,,,,1,3,19,7,0,6,6,7,,,,,,,,,4,1.535526467996533,,,078,001,2019_Aug_27_1108,MusicAffectPsychophysiology2019,3.0.5,60.07350281569056,
To what extent did the music make you feel ,ALERT,30MonoWAV/30MonoH4.wav,2,2,1,8,,,,,1,3,19,7,0,7,7,8,,,,,,,,,1,1.3358269980089972,,,078,001,2019_Aug_27_1108,MusicAffectPsychophysiology2019,3.0.5,60.07350281569056,
To what extent did the music make you feel ,ANXIOUS ,30MonoWAV/30MonoH4.wav,2,2,1,8,,,,,1,3,19,7,0,8,8,1,,,,,,,,,1,1.519717537012184,,,078,001,2019_Aug_27_1108,MusicAffectPsychophysiology2019,3.0.5,60.07350281569056,
To what extent did the music make you feel ,GUILTY,30MonoWAV/30MonoH4.wav,2,2,1,8,,,,,1,3,19,7,0,9,9,5,,,,,,,,,1,0.7540494010027032,,,078,001,2019_Aug_27_1108,MusicAffectPsychophysiology2019,3.0.5,60.07350281569056,
To what extent did the music make you feel ,ASHAMED,30MonoWAV/30MonoH4.wav,2,2,1,8,,,,,1,3,19,7,0,10,10,4,,,,,,,,,1,0.64975826900627,,,078,001,2019_Aug_27_1108,MusicAffectPsychophysiology2019,3.0.5,60.07350281569056,
To what extent did the music make you feel ,TENDER,30MonoWAV/30MonoH4.wav,2,2,1,8,,,,,1,3,19,7,0,11,11,10,,,,,,,,,2,0.8834684190078406,,,078,001,2019_Aug_27_1108,MusicAffectPsychophysiology2019,3.0.5,60.07350281569056,
,,30MonoWAV/30MonoH4.wav,2,2,1,8,,,,,1,3,19,7,,,,,,,,,,,,,,,,,078,001,2019_Aug_27_1108,MusicAffectPsychophysiology2019,3.0.5,60.07350281569056,
To what extent did the music make you feel ,SCARED,30MonoWAV/30MonoS2.wav,1,1,3,10,,,,,1,4,20,9,0,0,0,11,,,1,2.9037053049978567,2,1.9211022660019808,1,0.9892363460094202,2,2.5547837519989116,,,078,001,2019_Aug_27_1108,MusicAffectPsychophysiology2019,3.0.5,60.07350281569056,
To what extent did the music make you feel ,TENDER,30MonoWAV/30MonoS2.wav,1,1,3,10,,,,,1,4,20,9,0,1,1,10,,,,,,,,,1,1.244425594995846,,,078,001,2019_Aug_27_1108,MusicAffectPsychophysiology2019,3.0.5,60.07350281569056,
To what extent did the music make you feel ,ALERT,30MonoWAV/30MonoS2.wav,1,1,3,10,,,,,1,4,20,9,0,2,2,8,,,,,,,,,2,1.0947002139873803,,,078,001,2019_Aug_27_1108,MusicAffectPsychophysiology2019,3.0.5,60.07350281569056,
To what extent did the music make you feel ,EXCITED,30MonoWAV/30MonoS2.wav,1,1,3,10,,,,,1,4,20,9,0,3,3,7,,,,,,,,,1,1.3277038840024034,,,078,001,2019_Aug_27_1108,MusicAffectPsychophysiology2019,3.0.5,60.07350281569056,
To what extent did the music make you feel ,FRUSTRATED,30MonoWAV/30MonoS2.wav,1,1,3,10,,,,,1,4,20,9,0,4,4,3,,,,,,,,,1,1.2416158670093864,,,078,001,2019_Aug_27_1108,MusicAffectPsychophysiology2019,3.0.5,60.07350281569056,
To what extent did the music make you feel ,ASHAMED,30MonoWAV/30MonoS2.wav,1,1,3,10,,,,,1,4,20,9,0,5,5,4,,,,,,,,,3,1.5371273960045073,,,078,001,2019_Aug_27_1108,MusicAffectPsychophysiology2019,3.0.5,60.07350281569056,
To what extent did the music make you feel ,ANXIOUS ,30MonoWAV/30MonoS2.wav,1,1,3,10,,,,,1,4,20,9,0,6,6,1,,,,,,,,,1,1.8771621790074278,,,078,001,2019_Aug_27_1108,MusicAffectPsychophysiology2019,3.0.5,60.07350281569056,
To what extent did the music make you feel ,ACTIVE,30MonoWAV/30MonoS2.wav,1,1,3,10,,,,,1,4,20,9,0,7,7,9,,,,,,,,,1,1.1409061739977915,,,078,001,2019_Aug_27_1108,MusicAffectPsychophysiology2019,3.0.5,60.07350281569056,
To what extent did the music make you feel ,SAD,30MonoWAV/30MonoS2.wav,1,1,3,10,,,,,1,4,20,9,0,8,8,0,,,,,,,,,2,1.2700449310068507,,,078,001,2019_Aug_27_1108,MusicAffectPsychophysiology2019,3.0.5,60.07350281569056,
To what extent did the music make you feel ,GUILTY,30MonoWAV/30MonoS2.wav,1,1,3,10,,,,,1,4,20,9,0,9,9,5,,,,,,,,,1,1.171311362995766,,,078,001,2019_Aug_27_1108,MusicAffectPsychophysiology2019,3.0.5,60.07350281569056,
To what extent did the music make you feel ,HAPPY,30MonoWAV/30MonoS2.wav,1,1,3,10,,,,,1,4,20,9,0,10,10,6,,,,,,,,,1,1.4360428889922332,,,078,001,2019_Aug_27_1108,MusicAffectPsychophysiology2019,3.0.5,60.07350281569056,
To what extent did the music make you feel ,ANGRY,30MonoWAV/30MonoS2.wav,1,1,3,10,,,,,1,4,20,9,0,11,11,2,,,,,,,,,1,1.7195069519948447,,,078,001,2019_Aug_27_1108,MusicAffectPsychophysiology2019,3.0.5,60.07350281569056,
,,30MonoWAV/30MonoS2.wav,1,1,3,10,,,,,1,4,20,9,,,,,,,,,,,,,,,,,078,001,2019_Aug_27_1108,MusicAffectPsychophysiology2019,3.0.5,60.07350281569056,
To what extent did the music make you feel ,GUILTY,30MonoWAV/30MonoT4.wav,2,1,4,16,,,,,1,5,21,15,0,0,0,5,,,4,2.5687250749906525,4,1.3204984809999587,5,1.8215884509991156,1,1.8707736899959855,,,078,001,2019_Aug_27_1108,MusicAffectPsychophysiology2019,3.0.5,60.07350281569056,
To what extent did the music make you feel ,ANGRY,30MonoWAV/30MonoT4.wav,2,1,4,16,,,,,1,5,21,15,0,1,1,2,,,,,,,,,1,1.0005167030030861,,,078,001,2019_Aug_27_1108,MusicAffectPsychophysiology2019,3.0.5,60.07350281569056,
To what extent did the music make you feel ,ASHAMED,30MonoWAV/30MonoT4.wav,2,1,4,16,,,,,1,5,21,15,0,2,2,4,,,,,,,,,1,0.8203460130025633,,,078,001,2019_Aug_27_1108,MusicAffectPsychophysiology2019,3.0.5,60.07350281569056,
To what extent did the music make you feel ,ALERT,30MonoWAV/30MonoT4.wav,2,1,4,16,,,,,1,5,21,15,0,3,3,8,,,,,,,,,2,1.136311790003674,,,078,001,2019_Aug_27_1108,MusicAffectPsychophysiology2019,3.0.5,60.07350281569056,
To what extent did the music make you feel ,ACTIVE,30MonoWAV/30MonoT4.wav,2,1,4,16,,,,,1,5,21,15,0,4,4,9,,,,,,,,,2,1.153483393994975,,,078,001,2019_Aug_27_1108,MusicAffectPsychophysiology2019,3.0.5,60.07350281569056,
To what extent did the music make you feel ,TENDER,30MonoWAV/30MonoT4.wav,2,1,4,16,,,,,1,5,21,15,0,5,5,10,,,,,,,,,1,1.0359079629997723,,,078,001,2019_Aug_27_1108,MusicAffectPsychophysiology2019,3.0.5,60.07350281569056,
To what extent did the music make you feel ,SAD,30MonoWAV/30MonoT4.wav,2,1,4,16,,,,,1,5,21,15,0,6,6,0,,,,,,,,,1,0.9666923500044504,,,078,001,2019_Aug_27_1108,MusicAffectPsychophysiology2019,3.0.5,60.07350281569056,
To what extent did the music make you feel ,SCARED,30MonoWAV/30MonoT4.wav,2,1,4,16,,,,,1,5,21,15,0,7,7,11,,,,,,,,,1,1.119430912003736,,,078,001,2019_Aug_27_1108,MusicAffectPsychophysiology2019,3.0.5,60.07350281569056,
To what extent did the music make you feel ,ANXIOUS ,30MonoWAV/30MonoT4.wav,2,1,4,16,,,,,1,5,21,15,0,8,8,1,,,,,,,,,1,0.819446325986064,,,078,001,2019_Aug_27_1108,MusicAffectPsychophysiology2019,3.0.5,60.07350281569056,
To what extent did the music make you feel ,HAPPY,30MonoWAV/30MonoT4.wav,2,1,4,16,,,,,1,5,21,15,0,9,9,6,,,,,,,,,4,0.9701224989985349,,,078,001,2019_Aug_27_1108,MusicAffectPsychophysiology2019,3.0.5,60.07350281569056,
To what extent did the music make you feel ,FRUSTRATED,30MonoWAV/30MonoT4.wav,2,1,4,16,,,,,1,5,21,15,0,10,10,3,,,,,,,,,1,1.1524210310017224,,,078,001,2019_Aug_27_1108,MusicAffectPsychophysiology2019,3.0.5,60.07350281569056,
To what extent did the music make you feel ,EXCITED,30MonoWAV/30MonoT4.wav,2,1,4,16,,,,,1,5,21,15,0,11,11,7,,,,,,,,,3,1.0203881339984946,,,078,001,2019_Aug_27_1108,MusicAffectPsychophysiology2019,3.0.5,60.07350281569056,
,,30MonoWAV/30MonoT4.wav,2,1,4,16,,,,,1,5,21,15,,,,,,,,,,,,,,,,,078,001,2019_Aug_27_1108,MusicAffectPsychophysiology2019,3.0.5,60.07350281569056,
To what extent did the music make you feel ,TENDER,30MonoWAV/30MonoH2.wav,2,2,1,6,,,,,1,6,22,5,0,0,0,10,,,3,2.986864662991138,2,1.7369072420115117,2,1.8009517499885987,1,1.6647178319981322,,,078,001,2019_Aug_27_1108,MusicAffectPsychophysiology2019,3.0.5,60.07350281569056,
To what extent did the music make you feel ,FRUSTRATED,30MonoWAV/30MonoH2.wav,2,2,1,6,,,,,1,6,22,5,0,1,1,3,,,,,,,,,2,1.2778894420043798,,,078,001,2019_Aug_27_1108,MusicAffectPsychophysiology2019,3.0.5,60.07350281569056,
To what extent did the music make you feel ,ANGRY,30MonoWAV/30MonoH2.wav,2,2,1,6,,,,,1,6,22,5,0,2,2,2,,,,,,,,,2,1.5839342060062336,,,078,001,2019_Aug_27_1108,MusicAffectPsychophysiology2019,3.0.5,60.07350281569056,
To what extent did the music make you feel ,ACTIVE,30MonoWAV/30MonoH2.wav,2,2,1,6,,,,,1,6,22,5,0,3,3,9,,,,,,,,,3,1.4976167819986586,,,078,001,2019_Aug_27_1108,MusicAffectPsychophysiology2019,3.0.5,60.07350281569056,
To what extent did the music make you feel ,ASHAMED,30MonoWAV/30MonoH2.wav,2,2,1,6,,,,,1,6,22,5,0,4,4,4,,,,,,,,,1,1.4528357489907648,,,078,001,2019_Aug_27_1108,MusicAffectPsychophysiology2019,3.0.5,60.07350281569056,
To what extent did the music make you feel ,GUILTY,30MonoWAV/30MonoH2.wav,2,2,1,6,,,,,1,6,22,5,0,5,5,5,,,,,,,,,2,1.1039708890020847,,,078,001,2019_Aug_27_1108,MusicAffectPsychophysiology2019,3.0.5,60.07350281569056,
To what extent did the music make you feel ,SCARED,30MonoWAV/30MonoH2.wav,2,2,1,6,,,,,1,6,22,5,0,6,6,11,,,,,,,,,1,1.3624569850071566,,,078,001,2019_Aug_27_1108,MusicAffectPsychophysiology2019,3.0.5,60.07350281569056,
To what extent did the music make you feel ,EXCITED,30MonoWAV/30MonoH2.wav,2,2,1,6,,,,,1,6,22,5,0,7,7,7,,,,,,,,,3,1.0192396069905953,,,078,001,2019_Aug_27_1108,MusicAffectPsychophysiology2019,3.0.5,60.07350281569056,
To what extent did the music make you feel ,ANXIOUS ,30MonoWAV/30MonoH2.wav,2,2,1,6,,,,,1,6,22,5,0,8,8,1,,,,,,,,,1,3.6621893090050435,,,078,001,2019_Aug_27_1108,MusicAffectPsychophysiology2019,3.0.5,60.07350281569056,
To what extent did the music make you feel ,ALERT,30MonoWAV/30MonoH2.wav,2,2,1,6,,,,,1,6,22,5,0,9,9,8,,,,,,,,,2,1.0457676490041194,,,078,001,2019_Aug_27_1108,MusicAffectPsychophysiology2019,3.0.5,60.07350281569056,
To what extent did the music make you feel ,HAPPY,30MonoWAV/30MonoH2.wav,2,2,1,6,,,,,1,6,22,5,0,10,10,6,,,,,,,,,2,1.5833733119943645,,,078,001,2019_Aug_27_1108,MusicAffectPsychophysiology2019,3.0.5,60.07350281569056,
To what extent did the music make you feel ,SAD,30MonoWAV/30MonoH2.wav,2,2,1,6,,,,,1,6,22,5,0,11,11,0,,,,,,,,,1,1.2168052380002337,,,078,001,2019_Aug_27_1108,MusicAffectPsychophysiology2019,3.0.5,60.07350281569056,
,,30MonoWAV/30MonoH2.wav,2,2,1,6,,,,,1,6,22,5,,,,,,,,,,,,,,,,,078,001,2019_Aug_27_1108,MusicAffectPsychophysiology2019,3.0.5,60.07350281569056,
To what extent did the music make you feel ,SCARED,30MonoWAV/30MonoF4.wav,1,2,2,4,,,,,1,7,23,3,0,0,0,11,,,3,2.8174582990031922,2,2.221068513012142,1,5.336432373995194,2,1.6391995469894027,,,078,001,2019_Aug_27_1108,MusicAffectPsychophysiology2019,3.0.5,60.07350281569056,
To what extent did the music make you feel ,TENDER,30MonoWAV/30MonoF4.wav,1,2,2,4,,,,,1,7,23,3,0,1,1,10,,,,,,,,,1,0.8727351169945905,,,078,001,2019_Aug_27_1108,MusicAffectPsychophysiology2019,3.0.5,60.07350281569056,
To what extent did the music make you feel ,ANGRY,30MonoWAV/30MonoF4.wav,1,2,2,4,,,,,1,7,23,3,0,2,2,2,,,,,,,,,3,1.220030111988308,,,078,001,2019_Aug_27_1108,MusicAffectPsychophysiology2019,3.0.5,60.07350281569056,
To what extent did the music make you feel ,ALERT,30MonoWAV/30MonoF4.wav,1,2,2,4,,,,,1,7,23,3,0,3,3,8,,,,,,,,,3,2.7555268440046348,,,078,001,2019_Aug_27_1108,MusicAffectPsychophysiology2019,3.0.5,60.07350281569056,
To what extent did the music make you feel ,HAPPY,30MonoWAV/30MonoF4.wav,1,2,2,4,,,,,1,7,23,3,0,4,4,6,,,,,,,,,1,1.003900159994373,,,078,001,2019_Aug_27_1108,MusicAffectPsychophysiology2019,3.0.5,60.07350281569056,
To what extent did the music make you feel ,EXCITED,30MonoWAV/30MonoF4.wav,1,2,2,4,,,,,1,7,23,3,0,5,5,7,,,,,,,,,2,1.3387193320086226,,,078,001,2019_Aug_27_1108,MusicAffectPsychophysiology2019,3.0.5,60.07350281569056,
To what extent did the music make you feel ,FRUSTRATED,30MonoWAV/30MonoF4.wav,1,2,2,4,,,,,1,7,23,3,0,6,6,3,,,,,,,,,1,1.039094927997212,,,078,001,2019_Aug_27_1108,MusicAffectPsychophysiology2019,3.0.5,60.07350281569056,
To what extent did the music make you feel ,ASHAMED,30MonoWAV/30MonoF4.wav,1,2,2,4,,,,,1,7,23,3,0,7,7,4,,,,,,,,,1,1.1540073109936202,,,078,001,2019_Aug_27_1108,MusicAffectPsychophysiology2019,3.0.5,60.07350281569056,
To what extent did the music make you feel ,ANXIOUS ,30MonoWAV/30MonoF4.wav,1,2,2,4,,,,,1,7,23,3,0,8,8,1,,,,,,,,,3,1.07224493000831,,,078,001,2019_Aug_27_1108,MusicAffectPsychophysiology2019,3.0.5,60.07350281569056,
To what extent did the music make you feel ,SAD,30MonoWAV/30MonoF4.wav,1,2,2,4,,,,,1,7,23,3,0,9,9,0,,,,,,,,,1,1.169443302002037,,,078,001,2019_Aug_27_1108,MusicAffectPsychophysiology2019,3.0.5,60.07350281569056,
To what extent did the music make you feel ,ACTIVE,30MonoWAV/30MonoF4.wav,1,2,2,4,,,,,1,7,23,3,0,10,10,9,,,,,,,,,1,1.1712013999931514,,,078,001,2019_Aug_27_1108,MusicAffectPsychophysiology2019,3.0.5,60.07350281569056,
To what extent did the music make you feel ,GUILTY,30MonoWAV/30MonoF4.wav,1,2,2,4,,,,,1,7,23,3,0,11,11,5,,,,,,,,,1,1.0196674170001643,,,078,001,2019_Aug_27_1108,MusicAffectPsychophysiology2019,3.0.5,60.07350281569056,
,,30MonoWAV/30MonoF4.wav,1,2,2,4,,,,,1,7,23,3,,,,,,,,,,,,,,,,,078,001,2019_Aug_27_1108,MusicAffectPsychophysiology2019,3.0.5,60.07350281569056,
To what extent did the music make you feel ,HAPPY,30MonoWAV/30MonoS1.wav,1,1,3,9,,,,,1,8,24,8,0,0,0,6,,,2,3.0195386620034697,1,1.1024049840052612,2,0.9526523289969191,1,1.1008868500066455,,,078,001,2019_Aug_27_1108,MusicAffectPsychophysiology2019,3.0.5,60.07350281569056,
To what extent did the music make you feel ,ALERT,30MonoWAV/30MonoS1.wav,1,1,3,9,,,,,1,8,24,8,0,1,1,8,,,,,,,,,1,1.2366966730041895,,,078,001,2019_Aug_27_1108,MusicAffectPsychophysiology2019,3.0.5,60.07350281569056,
To what extent did the music make you feel ,ANGRY,30MonoWAV/30MonoS1.wav,1,1,3,9,,,,,1,8,24,8,0,2,2,2,,,,,,,,,1,1.1474747610045597,,,078,001,2019_Aug_27_1108,MusicAffectPsychophysiology2019,3.0.5,60.07350281569056,
To what extent did the music make you feel ,SAD,30MonoWAV/30MonoS1.wav,1,1,3,9,,,,,1,8,24,8,0,3,3,0,,,,,,,,,3,1.0868451839924091,,,078,001,2019_Aug_27_1108,MusicAffectPsychophysiology2019,3.0.5,60.07350281569056,
To what extent did the music make you feel ,GUILTY,30MonoWAV/30MonoS1.wav,1,1,3,9,,,,,1,8,24,8,0,4,4,5,,,,,,,,,2,1.703152014000807,,,078,001,2019_Aug_27_1108,MusicAffectPsychophysiology2019,3.0.5,60.07350281569056,
To what extent did the music make you feel ,ASHAMED,30MonoWAV/30MonoS1.wav,1,1,3,9,,,,,1,8,24,8,0,5,5,4,,,,,,,,,2,1.2689713360014139,,,078,001,2019_Aug_27_1108,MusicAffectPsychophysiology2019,3.0.5,60.07350281569056,
To what extent did the music make you feel ,FRUSTRATED,30MonoWAV/30MonoS1.wav,1,1,3,9,,,,,1,8,24,8,0,6,6,3,,,,,,,,,1,1.049190379009815,,,078,001,2019_Aug_27_1108,MusicAffectPsychophysiology2019,3.0.5,60.07350281569056,
To what extent did the music make you feel ,EXCITED,30MonoWAV/30MonoS1.wav,1,1,3,9,,,,,1,8,24,8,0,7,7,7,,,,,,,,,1,1.1482661509944592,,,078,001,2019_Aug_27_1108,MusicAffectPsychophysiology2019,3.0.5,60.07350281569056,
To what extent did the music make you feel ,SCARED,30MonoWAV/30MonoS1.wav,1,1,3,9,,,,,1,8,24,8,0,8,8,11,,,,,,,,,3,1.1341830720048165,,,078,001,2019_Aug_27_1108,MusicAffectPsychophysiology2019,3.0.5,60.07350281569056,
To what extent did the music make you feel ,ACTIVE,30MonoWAV/30MonoS1.wav,1,1,3,9,,,,,1,8,24,8,0,9,9,9,,,,,,,,,1,0.9194768549932633,,,078,001,2019_Aug_27_1108,MusicAffectPsychophysiology2019,3.0.5,60.07350281569056,
To what extent did the music make you feel ,ANXIOUS ,30MonoWAV/30MonoS1.wav,1,1,3,9,,,,,1,8,24,8,0,10,10,1,,,,,,,,,3,2.98279861798801,,,078,001,2019_Aug_27_1108,MusicAffectPsychophysiology2019,3.0.5,60.07350281569056,
To what extent did the music make you feel ,TENDER,30MonoWAV/30MonoS1.wav,1,1,3,9,,,,,1,8,24,8,0,11,11,10,,,,,,,,,1,0.6697883599990746,,,078,001,2019_Aug_27_1108,MusicAffectPsychophysiology2019,3.0.5,60.07350281569056,
,,30MonoWAV/30MonoS1.wav,1,1,3,9,,,,,1,8,24,8,,,,,,,,,,,,,,,,,078,001,2019_Aug_27_1108,MusicAffectPsychophysiology2019,3.0.5,60.07350281569056,
To what extent did the music make you feel ,ACTIVE,30MonoWAV/30MonoT2.wav,2,1,4,14,,,,,1,9,25,13,0,0,0,9,,,4,3.0697835070022848,4,1.136240703999647,3,1.3708354909904301,1,1.9402459730044939,,,078,001,2019_Aug_27_1108,MusicAffectPsychophysiology2019,3.0.5,60.07350281569056,
To what extent did the music make you feel ,SAD,30MonoWAV/30MonoT2.wav,2,1,4,14,,,,,1,9,25,13,0,1,1,0,,,,,,,,,2,0.8707426980108721,,,078,001,2019_Aug_27_1108,MusicAffectPsychophysiology2019,3.0.5,60.07350281569056,
To what extent did the music make you feel ,ASHAMED,30MonoWAV/30MonoT2.wav,2,1,4,14,,,,,1,9,25,13,0,2,2,4,,,,,,,,,1,1.0263697209884413,,,078,001,2019_Aug_27_1108,MusicAffectPsychophysiology2019,3.0.5,60.07350281569056,
To what extent did the music make you feel ,TENDER,30MonoWAV/30MonoT2.wav,2,1,4,14,,,,,1,9,25,13,0,3,3,10,,,,,,,,,2,1.1428897239966318,,,078,001,2019_Aug_27_1108,MusicAffectPsychophysiology2019,3.0.5,60.07350281569056,
To what extent did the music make you feel ,SCARED,30MonoWAV/30MonoT2.wav,2,1,4,14,,,,,1,9,25,13,0,4,4,11,,,,,,,,,1,0.9426362910016906,,,078,001,2019_Aug_27_1108,MusicAffectPsychophysiology2019,3.0.5,60.07350281569056,
To what extent did the music make you feel ,EXCITED,30MonoWAV/30MonoT2.wav,2,1,4,14,,,,,1,9,25,13,0,5,5,7,,,,,,,,,3,0.9757142160087824,,,078,001,2019_Aug_27_1108,MusicAffectPsychophysiology2019,3.0.5,60.07350281569056,
To what extent did the music make you feel ,HAPPY,30MonoWAV/30MonoT2.wav,2,1,4,14,,,,,1,9,25,13,0,6,6,6,,,,,,,,,3,1.2028209589916514,,,078,001,2019_Aug_27_1108,MusicAffectPsychophysiology2019,3.0.5,60.07350281569056,
To what extent did the music make you feel ,ANGRY,30MonoWAV/30MonoT2.wav,2,1,4,14,,,,,1,9,25,13,0,7,7,2,,,,,,,,,1,1.4087121990014566,,,078,001,2019_Aug_27_1108,MusicAffectPsychophysiology2019,3.0.5,60.07350281569056,
To what extent did the music make you feel ,ALERT,30MonoWAV/30MonoT2.wav,2,1,4,14,,,,,1,9,25,13,0,8,8,8,,,,,,,,,2,1.7356890579976607,,,078,001,2019_Aug_27_1108,MusicAffectPsychophysiology2019,3.0.5,60.07350281569056,
To what extent did the music make you feel ,ANXIOUS ,30MonoWAV/30MonoT2.wav,2,1,4,14,,,,,1,9,25,13,0,9,9,1,,,,,,,,,1,0.9695574200013652,,,078,001,2019_Aug_27_1108,MusicAffectPsychophysiology2019,3.0.5,60.07350281569056,
To what extent did the music make you feel ,GUILTY,30MonoWAV/30MonoT2.wav,2,1,4,14,,,,,1,9,25,13,0,10,10,5,,,,,,,,,1,0.787294709996786,,,078,001,2019_Aug_27_1108,MusicAffectPsychophysiology2019,3.0.5,60.07350281569056,
To what extent did the music make you feel ,FRUSTRATED,30MonoWAV/30MonoT2.wav,2,1,4,14,,,,,1,9,25,13,0,11,11,3,,,,,,,,,1,1.0247718259925023,,,078,001,2019_Aug_27_1108,MusicAffectPsychophysiology2019,3.0.5,60.07350281569056,
,,30MonoWAV/30MonoT2.wav,2,1,4,14,,,,,1,9,25,13,,,,,,,,,,,,,,,,,078,001,2019_Aug_27_1108,MusicAffectPsychophysiology2019,3.0.5,60.07350281569056,
To what extent did the music make you feel ,ALERT,30MonoWAV/30MonoF3.wav,1,2,2,3,,,,,1,10,26,2,0,0,0,8,,,4,2.1890997110022,2,1.687499467007001,3,1.6199713090027217,3,1.5700997660023859,,,078,001,2019_Aug_27_1108,MusicAffectPsychophysiology2019,3.0.5,60.07350281569056,
To what extent did the music make you feel ,TENDER,30MonoWAV/30MonoF3.wav,1,2,2,3,,,,,1,10,26,2,0,1,1,10,,,,,,,,,1,0.9192706780013395,,,078,001,2019_Aug_27_1108,MusicAffectPsychophysiology2019,3.0.5,60.07350281569056,
To what extent did the music make you feel ,ANGRY,30MonoWAV/30MonoF3.wav,1,2,2,3,,,,,1,10,26,2,0,2,2,2,,,,,,,,,1,0.8535979870066512,,,078,001,2019_Aug_27_1108,MusicAffectPsychophysiology2019,3.0.5,60.07350281569056,
To what extent did the music make you feel ,ACTIVE,30MonoWAV/30MonoF3.wav,1,2,2,3,,,,,1,10,26,2,0,3,3,9,,,,,,,,,2,0.8868217889976222,,,078,001,2019_Aug_27_1108,MusicAffectPsychophysiology2019,3.0.5,60.07350281569056,
To what extent did the music make you feel ,EXCITED,30MonoWAV/30MonoF3.wav,1,2,2,3,,,,,1,10,26,2,0,4,4,7,,,,,,,,,2,1.2020947429991793,,,078,001,2019_Aug_27_1108,MusicAffectPsychophysiology2019,3.0.5,60.07350281569056,
To what extent did the music make you feel ,ASHAMED,30MonoWAV/30MonoF3.wav,1,2,2,3,,,,,1,10,26,2,0,5,5,4,,,,,,,,,1,0.8376928930083523,,,078,001,2019_Aug_27_1108,MusicAffectPsychophysiology2019,3.0.5,60.07350281569056,
To what extent did the music make you feel ,SCARED,30MonoWAV/30MonoF3.wav,1,2,2,3,,,,,1,10,26,2,0,6,6,11,,,,,,,,,3,1.0197546609997516,,,078,001,2019_Aug_27_1108,MusicAffectPsychophysiology2019,3.0.5,60.07350281569056,
To what extent did the music make you feel ,HAPPY,30MonoWAV/30MonoF3.wav,1,2,2,3,,,,,1,10,26,2,0,7,7,6,,,,,,,,,1,1.0526622460020008,,,078,001,2019_Aug_27_1108,MusicAffectPsychophysiology2019,3.0.5,60.07350281569056,
To what extent did the music make you feel ,ANXIOUS ,30MonoWAV/30MonoF3.wav,1,2,2,3,,,,,1,10,26,2,0,8,8,1,,,,,,,,,3,0.8342075449909316,,,078,001,2019_Aug_27_1108,MusicAffectPsychophysiology2019,3.0.5,60.07350281569056,
To what extent did the music make you feel ,GUILTY,30MonoWAV/30MonoF3.wav,1,2,2,3,,,,,1,10,26,2,0,9,9,5,,,,,,,,,1,1.0189698060130468,,,078,001,2019_Aug_27_1108,MusicAffectPsychophysiology2019,3.0.5,60.07350281569056,
To what extent did the music make you feel ,SAD,30MonoWAV/30MonoF3.wav,1,2,2,3,,,,,1,10,26,2,0,10,10,0,,,,,,,,,1,0.9698995409999043,,,078,001,2019_Aug_27_1108,MusicAffectPsychophysiology2019,3.0.5,60.07350281569056,
To what extent did the music make you feel ,FRUSTRATED,30MonoWAV/30MonoF3.wav,1,2,2,3,,,,,1,10,26,2,0,11,11,3,,,,,,,,,1,0.8525482289987849,,,078,001,2019_Aug_27_1108,MusicAffectPsychophysiology2019,3.0.5,60.07350281569056,
,,30MonoWAV/30MonoF3.wav,1,2,2,3,,,,,1,10,26,2,,,,,,,,,,,,,,,,,078,001,2019_Aug_27_1108,MusicAffectPsychophysiology2019,3.0.5,60.07350281569056,
To what extent did the music make you feel ,FRUSTRATED,30MonoWAV/30MonoF1.wav,1,2,2,1,,,,,1,11,27,0,0,0,0,3,,,4,2.2546696869976586,1,1.9711296659952495,2,2.218935259996215,2,2.0145586500002537,,,078,001,2019_Aug_27_1108,MusicAffectPsychophysiology2019,3.0.5,60.07350281569056,
To what extent did the music make you feel ,ANXIOUS ,30MonoWAV/30MonoF1.wav,1,2,2,1,,,,,1,11,27,0,0,1,1,1,,,,,,,,,1,1.3797582330007572,,,078,001,2019_Aug_27_1108,MusicAffectPsychophysiology2019,3.0.5,60.07350281569056,
To what extent did the music make you feel ,SAD,30MonoWAV/30MonoF1.wav,1,2,2,1,,,,,1,11,27,0,0,2,2,0,,,,,,,,,1,1.0216066080029123,,,078,001,2019_Aug_27_1108,MusicAffectPsychophysiology2019,3.0.5,60.07350281569056,
To what extent did the music make you feel ,ACTIVE,30MonoWAV/30MonoF1.wav,1,2,2,1,,,,,1,11,27,0,0,3,3,9,,,,,,,,,2,1.1995078360050684,,,078,001,2019_Aug_27_1108,MusicAffectPsychophysiology2019,3.0.5,60.07350281569056,
To what extent did the music make you feel ,EXCITED,30MonoWAV/30MonoF1.wav,1,2,2,1,,,,,1,11,27,0,0,4,4,7,,,,,,,,,1,1.154286717006471,,,078,001,2019_Aug_27_1108,MusicAffectPsychophysiology2019,3.0.5,60.07350281569056,
To what extent did the music make you feel ,ALERT,30MonoWAV/30MonoF1.wav,1,2,2,1,,,,,1,11,27,0,0,5,5,8,,,,,,,,,2,1.0968234690080862,,,078,001,2019_Aug_27_1108,MusicAffectPsychophysiology2019,3.0.5,60.07350281569056,
To what extent did the music make you feel ,HAPPY,30MonoWAV/30MonoF1.wav,1,2,2,1,,,,,1,11,27,0,0,6,6,6,,,,,,,,,1,1.2534708970051724,,,078,001,2019_Aug_27_1108,MusicAffectPsychophysiology2019,3.0.5,60.07350281569056,
To what extent did the music make you feel ,SCARED,30MonoWAV/30MonoF1.wav,1,2,2,1,,,,,1,11,27,0,0,7,7,11,,,,,,,,,3,1.3790244979900308,,,078,001,2019_Aug_27_1108,MusicAffectPsychophysiology2019,3.0.5,60.07350281569056,
To what extent did the music make you feel ,ASHAMED,30MonoWAV/30MonoF1.wav,1,2,2,1,,,,,1,11,27,0,0,8,8,4,,,,,,,,,1,1.1708582749997731,,,078,001,2019_Aug_27_1108,MusicAffectPsychophysiology2019,3.0.5,60.07350281569056,
To what extent did the music make you feel ,ANGRY,30MonoWAV/30MonoF1.wav,1,2,2,1,,,,,1,11,27,0,0,9,9,2,,,,,,,,,1,1.4286486629862338,,,078,001,2019_Aug_27_1108,MusicAffectPsychophysiology2019,3.0.5,60.07350281569056,
To what extent did the music make you feel ,GUILTY,30MonoWAV/30MonoF1.wav,1,2,2,1,,,,,1,11,27,0,0,10,10,5,,,,,,,,,1,0.7284458789945347,,,078,001,2019_Aug_27_1108,MusicAffectPsychophysiology2019,3.0.5,60.07350281569056,
To what extent did the music make you feel ,TENDER,30MonoWAV/30MonoF1.wav,1,2,2,1,,,,,1,11,27,0,0,11,11,10,,,,,,,,,1,0.7451247950084507,,,078,001,2019_Aug_27_1108,MusicAffectPsychophysiology2019,3.0.5,60.07350281569056,
,,30MonoWAV/30MonoF1.wav,1,2,2,1,,,,,1,11,27,0,,,,,,,,,,,,,,,,,078,001,2019_Aug_27_1108,MusicAffectPsychophysiology2019,3.0.5,60.07350281569056,
To what extent did the music make you feel ,FRUSTRATED,30MonoWAV/30MonoT1.wav,2,1,4,13,,,,,1,12,28,12,0,0,0,3,,,1,1.8330675600009272,2,1.4028546209883643,3,1.6540453869965859,2,2.5905997039953945,,,078,001,2019_Aug_27_1108,MusicAffectPsychophysiology2019,3.0.5,60.07350281569056,
To what extent did the music make you feel ,SCARED,30MonoWAV/30MonoT1.wav,2,1,4,13,,,,,1,12,28,12,0,1,1,11,,,,,,,,,1,0.6900288540055044,,,078,001,2019_Aug_27_1108,MusicAffectPsychophysiology2019,3.0.5,60.07350281569056,
To what extent did the music make you feel ,EXCITED,30MonoWAV/30MonoT1.wav,2,1,4,13,,,,,1,12,28,12,0,2,2,7,,,,,,,,,2,0.9395630650105886,,,078,001,2019_Aug_27_1108,MusicAffectPsychophysiology2019,3.0.5,60.07350281569056,
To what extent did the music make you feel ,GUILTY,30MonoWAV/30MonoT1.wav,2,1,4,13,,,,,1,12,28,12,0,3,3,5,,,,,,,,,1,0.9375925159984035,,,078,001,2019_Aug_27_1108,MusicAffectPsychophysiology2019,3.0.5,60.07350281569056,
To what extent did the music make you feel ,ANGRY,30MonoWAV/30MonoT1.wav,2,1,4,13,,,,,1,12,28,12,0,4,4,2,,,,,,,,,1,1.3396910769952228,,,078,001,2019_Aug_27_1108,MusicAffectPsychophysiology2019,3.0.5,60.07350281569056,
To what extent did the music make you feel ,SAD,30MonoWAV/30MonoT1.wav,2,1,4,13,,,,,1,12,28,12,0,5,5,0,,,,,,,,,2,1.353521450990229,,,078,001,2019_Aug_27_1108,MusicAffectPsychophysiology2019,3.0.5,60.07350281569056,
To what extent did the music make you feel ,TENDER,30MonoWAV/30MonoT1.wav,2,1,4,13,,,,,1,12,28,12,0,6,6,10,,,,,,,,,2,1.0732670340075856,,,078,001,2019_Aug_27_1108,MusicAffectPsychophysiology2019,3.0.5,60.07350281569056,
To what extent did the music make you feel ,HAPPY,30MonoWAV/30MonoT1.wav,2,1,4,13,,,,,1,12,28,12,0,7,7,6,,,,,,,,,2,1.285559762007324,,,078,001,2019_Aug_27_1108,MusicAffectPsychophysiology2019,3.0.5,60.07350281569056,
To what extent did the music make you feel ,ALERT,30MonoWAV/30MonoT1.wav,2,1,4,13,,,,,1,12,28,12,0,8,8,8,,,,,,,,,1,1.2366853040002752,,,078,001,2019_Aug_27_1108,MusicAffectPsychophysiology2019,3.0.5,60.07350281569056,
To what extent did the music make you feel ,ACTIVE,30MonoWAV/30MonoT1.wav,2,1,4,13,,,,,1,12,28,12,0,9,9,9,,,,,,,,,1,0.9219515010045143,,,078,001,2019_Aug_27_1108,MusicAffectPsychophysiology2019,3.0.5,60.07350281569056,
To what extent did the music make you feel ,ASHAMED,30MonoWAV/30MonoT1.wav,2,1,4,13,,,,,1,12,28,12,0,10,10,4,,,,,,,,,1,0.7367973520013038,,,078,001,2019_Aug_27_1108,MusicAffectPsychophysiology2019,3.0.5,60.07350281569056,
To what extent did the music make you feel ,ANXIOUS ,30MonoWAV/30MonoT1.wav,2,1,4,13,,,,,1,12,28,12,0,11,11,1,,,,,,,,,1,0.6710945160011761,,,078,001,2019_Aug_27_1108,MusicAffectPsychophysiology2019,3.0.5,60.07350281569056,
,,30MonoWAV/30MonoT1.wav,2,1,4,13,,,,,1,12,28,12,,,,,,,,,,,,,,,,,078,001,2019_Aug_27_1108,MusicAffectPsychophysiology2019,3.0.5,60.07350281569056,
To what extent did the music make you feel ,ANGRY,30MonoWAV/30MonoS3.wav,1,1,3,11,,,,,1,13,29,10,0,0,0,2,,,1,4.66984888400475,1,1.2201943490072154,1,0.6507028690102743,2,1.433538639001199,,,078,001,2019_Aug_27_1108,MusicAffectPsychophysiology2019,3.0.5,60.07350281569056,
To what extent did the music make you feel ,EXCITED,30MonoWAV/30MonoS3.wav,1,1,3,11,,,,,1,13,29,10,0,1,1,7,,,,,,,,,1,0.8828830589918653,,,078,001,2019_Aug_27_1108,MusicAffectPsychophysiology2019,3.0.5,60.07350281569056,
To what extent did the music make you feel ,ACTIVE,30MonoWAV/30MonoS3.wav,1,1,3,11,,,,,1,13,29,10,0,2,2,9,,,,,,,,,2,0.8331371559906984,,,078,001,2019_Aug_27_1108,MusicAffectPsychophysiology2019,3.0.5,60.07350281569056,
To what extent did the music make you feel ,SAD,30MonoWAV/30MonoS3.wav,1,1,3,11,,,,,1,13,29,10,0,3,3,0,,,,,,,,,2,1.4210666510043666,,,078,001,2019_Aug_27_1108,MusicAffectPsychophysiology2019,3.0.5,60.07350281569056,
To what extent did the music make you feel ,FRUSTRATED,30MonoWAV/30MonoS3.wav,1,1,3,11,,,,,1,13,29,10,0,4,4,3,,,,,,,,,2,1.0700559010001598,,,078,001,2019_Aug_27_1108,MusicAffectPsychophysiology2019,3.0.5,60.07350281569056,
To what extent did the music make you feel ,ALERT,30MonoWAV/30MonoS3.wav,1,1,3,11,,,,,1,13,29,10,0,5,5,8,,,,,,,,,1,0.8833957070019096,,,078,001,2019_Aug_27_1108,MusicAffectPsychophysiology2019,3.0.5,60.07350281569056,
To what extent did the music make you feel ,HAPPY,30MonoWAV/30MonoS3.wav,1,1,3,11,,,,,1,13,29,10,0,6,6,6,,,,,,,,,1,0.8529293779865839,,,078,001,2019_Aug_27_1108,MusicAffectPsychophysiology2019,3.0.5,60.07350281569056,
To what extent did the music make you feel ,SCARED,30MonoWAV/30MonoS3.wav,1,1,3,11,,,,,1,13,29,10,0,7,7,11,,,,,,,,,2,1.0834176119969925,,,078,001,2019_Aug_27_1108,MusicAffectPsychophysiology2019,3.0.5,60.07350281569056,
To what extent did the music make you feel ,GUILTY,30MonoWAV/30MonoS3.wav,1,1,3,11,,,,,1,13,29,10,0,8,8,5,,,,,,,,,1,1.8371122169919545,,,078,001,2019_Aug_27_1108,MusicAffectPsychophysiology2019,3.0.5,60.07350281569056,
To what extent did the music make you feel ,TENDER,30MonoWAV/30MonoS3.wav,1,1,3,11,,,,,1,13,29,10,0,9,9,10,,,,,,,,,1,0.7834496150026098,,,078,001,2019_Aug_27_1108,MusicAffectPsychophysiology2019,3.0.5,60.07350281569056,
To what extent did the music make you feel ,ANXIOUS ,30MonoWAV/30MonoS3.wav,1,1,3,11,,,,,1,13,29,10,0,10,10,1,,,,,,,,,2,0.8991425900021568,,,078,001,2019_Aug_27_1108,MusicAffectPsychophysiology2019,3.0.5,60.07350281569056,
To what extent did the music make you feel ,ASHAMED,30MonoWAV/30MonoS3.wav,1,1,3,11,,,,,1,13,29,10,0,11,11,4,,,,,,,,,1,1.3493726269953186,,,078,001,2019_Aug_27_1108,MusicAffectPsychophysiology2019,3.0.5,60.07350281569056,
,,30MonoWAV/30MonoS3.wav,1,1,3,11,,,,,1,13,29,10,,,,,,,,,,,,,,,,,078,001,2019_Aug_27_1108,MusicAffectPsychophysiology2019,3.0.5,60.07350281569056,
To what extent did the music make you feel ,SCARED,30MonoWAV/30MonoH1.wav,2,2,1,5,,,,,1,14,30,4,0,0,0,11,,,4,1.87036842800444,4,1.0032284899934893,4,1.0047220699925674,1,1.3361877910065232,,,078,001,2019_Aug_27_1108,MusicAffectPsychophysiology2019,3.0.5,60.07350281569056,
To what extent did the music make you feel ,GUILTY,30MonoWAV/30MonoH1.wav,2,2,1,5,,,,,1,14,30,4,0,1,1,5,,,,,,,,,1,0.4874670690041967,,,078,001,2019_Aug_27_1108,MusicAffectPsychophysiology2019,3.0.5,60.07350281569056,
To what extent did the music make you feel ,HAPPY,30MonoWAV/30MonoH1.wav,2,2,1,5,,,,,1,14,30,4,0,2,2,6,,,,,,,,,3,1.019965041996329,,,078,001,2019_Aug_27_1108,MusicAffectPsychophysiology2019,3.0.5,60.07350281569056,
To what extent did the music make you feel ,ALERT,30MonoWAV/30MonoH1.wav,2,2,1,5,,,,,1,14,30,4,0,3,3,8,,,,,,,,,1,0.8596912499924656,,,078,001,2019_Aug_27_1108,MusicAffectPsychophysiology2019,3.0.5,60.07350281569056,
To what extent did the music make you feel ,EXCITED,30MonoWAV/30MonoH1.wav,2,2,1,5,,,,,1,14,30,4,0,4,4,7,,,,,,,,,4,1.6668294650007738,,,078,001,2019_Aug_27_1108,MusicAffectPsychophysiology2019,3.0.5,60.07350281569056,
To what extent did the music make you feel ,ANGRY,30MonoWAV/30MonoH1.wav,2,2,1,5,,,,,1,14,30,4,0,5,5,2,,,,,,,,,1,0.5205735679919599,,,078,001,2019_Aug_27_1108,MusicAffectPsychophysiology2019,3.0.5,60.07350281569056,
To what extent did the music make you feel ,ACTIVE,30MonoWAV/30MonoH1.wav,2,2,1,5,,,,,1,14,30,4,0,6,6,9,,,,,,,,,2,1.1100601660000393,,,078,001,2019_Aug_27_1108,MusicAffectPsychophysiology2019,3.0.5,60.07350281569056,
To what extent did the music make you feel ,ANXIOUS ,30MonoWAV/30MonoH1.wav,2,2,1,5,,,,,1,14,30,4,0,7,7,1,,,,,,,,,1,0.5432078239973634,,,078,001,2019_Aug_27_1108,MusicAffectPsychophysiology2019,3.0.5,60.07350281569056,
To what extent did the music make you feel ,TENDER,30MonoWAV/30MonoH1.wav,2,2,1,5,,,,,1,14,30,4,0,8,8,10,,,,,,,,,2,0.7932333589997143,,,078,001,2019_Aug_27_1108,MusicAffectPsychophysiology2019,3.0.5,60.07350281569056,
To what extent did the music make you feel ,FRUSTRATED,30MonoWAV/30MonoH1.wav,2,2,1,5,,,,,1,14,30,4,0,9,9,3,,,,,,,,,1,0.6595776949980063,,,078,001,2019_Aug_27_1108,MusicAffectPsychophysiology2019,3.0.5,60.07350281569056,
To what extent did the music make you feel ,ASHAMED,30MonoWAV/30MonoH1.wav,2,2,1,5,,,,,1,14,30,4,0,10,10,4,,,,,,,,,1,0.9367042770027183,,,078,001,2019_Aug_27_1108,MusicAffectPsychophysiology2019,3.0.5,60.07350281569056,
To what extent did the music make you feel ,SAD,30MonoWAV/30MonoH1.wav,2,2,1,5,,,,,1,14,30,4,0,11,11,0,,,,,,,,,1,0.8880811129929498,,,078,001,2019_Aug_27_1108,MusicAffectPsychophysiology2019,3.0.5,60.07350281569056,
,,30MonoWAV/30MonoH1.wav,2,2,1,5,,,,,1,14,30,4,,,,,,,,,,,,,,,,,078,001,2019_Aug_27_1108,MusicAffectPsychophysiology2019,3.0.5,60.07350281569056,
To what extent did the music make you feel ,ANXIOUS ,30MonoWAV/30MonoS4.wav,1,1,3,12,,,,,1,15,31,11,0,0,0,1,,,1,2.153209036012413,1,1.002045843997621,1,1.0192621010064613,3,1.1202942200034158,,,078,001,2019_Aug_27_1108,MusicAffectPsychophysiology2019,3.0.5,60.07350281569056,
To what extent did the music make you feel ,HAPPY,30MonoWAV/30MonoS4.wav,1,1,3,12,,,,,1,15,31,11,0,1,1,6,,,,,,,,,1,0.7189482710091397,,,078,001,2019_Aug_27_1108,MusicAffectPsychophysiology2019,3.0.5,60.07350281569056,
To what extent did the music make you feel ,ANGRY,30MonoWAV/30MonoS4.wav,1,1,3,12,,,,,1,15,31,11,0,2,2,2,,,,,,,,,2,0.9869910470006289,,,078,001,2019_Aug_27_1108,MusicAffectPsychophysiology2019,3.0.5,60.07350281569056,
To what extent did the music make you feel ,TENDER,30MonoWAV/30MonoS4.wav,1,1,3,12,,,,,1,15,31,11,0,3,3,10,,,,,,,,,1,0.6534577799902763,,,078,001,2019_Aug_27_1108,MusicAffectPsychophysiology2019,3.0.5,60.07350281569056,
To what extent did the music make you feel ,FRUSTRATED,30MonoWAV/30MonoS4.wav,1,1,3,12,,,,,1,15,31,11,0,4,4,3,,,,,,,,,3,0.8864091110008303,,,078,001,2019_Aug_27_1108,MusicAffectPsychophysiology2019,3.0.5,60.07350281569056,
To what extent did the music make you feel ,SCARED,30MonoWAV/30MonoS4.wav,1,1,3,12,,,,,1,15,31,11,0,5,5,11,,,,,,,,,3,0.7871187169948826,,,078,001,2019_Aug_27_1108,MusicAffectPsychophysiology2019,3.0.5,60.07350281569056,
To what extent did the music make you feel ,EXCITED,30MonoWAV/30MonoS4.wav,1,1,3,12,,,,,1,15,31,11,0,6,6,7,,,,,,,,,1,0.7839807319978718,,,078,001,2019_Aug_27_1108,MusicAffectPsychophysiology2019,3.0.5,60.07350281569056,
To what extent did the music make you feel ,ALERT,30MonoWAV/30MonoS4.wav,1,1,3,12,,,,,1,15,31,11,0,7,7,8,,,,,,,,,2,0.8209479409997584,,,078,001,2019_Aug_27_1108,MusicAffectPsychophysiology2019,3.0.5,60.07350281569056,
To what extent did the music make you feel ,ASHAMED,30MonoWAV/30MonoS4.wav,1,1,3,12,,,,,1,15,31,11,0,8,8,4,,,,,,,,,1,1.236783040993032,,,078,001,2019_Aug_27_1108,MusicAffectPsychophysiology2019,3.0.5,60.07350281569056,
To what extent did the music make you feel ,ACTIVE,30MonoWAV/30MonoS4.wav,1,1,3,12,,,,,1,15,31,11,0,9,9,9,,,,,,,,,1,0.6364959409984294,,,078,001,2019_Aug_27_1108,MusicAffectPsychophysiology2019,3.0.5,60.07350281569056,
To what extent did the music make you feel ,GUILTY,30MonoWAV/30MonoS4.wav,1,1,3,12,,,,,1,15,31,11,0,10,10,5,,,,,,,,,1,0.8694905099982861,,,078,001,2019_Aug_27_1108,MusicAffectPsychophysiology2019,3.0.5,60.07350281569056,
To what extent did the music make you feel ,SAD,30MonoWAV/30MonoS4.wav,1,1,3,12,,,,,1,15,31,11,0,11,11,0,,,,,,,,,2,1.0702447289950214,,,078,001,2019_Aug_27_1108,MusicAffectPsychophysiology2019,3.0.5,60.07350281569056,
,,30MonoWAV/30MonoS4.wav,1,1,3,12,,,,,1,15,31,11,,,,,,,,,,,,,,,,,078,001,2019_Aug_27_1108,MusicAffectPsychophysiology2019,3.0.5,60.07350281569056,
,,,,,,,,,,,,,,,,,,,,,,,,,,,,,space,3.585657303003245,078,001,2019_Aug_27_1108,MusicAffectPsychophysiology2019,3.0.5,60.07350281569056,
