Instruction,Word,song,valence,arousal,affectcat,songmark,pracwords.thisRepN,pracwords.thisTrialN,pracwords.thisN,pracwords.thisIndex,songtrials.thisRepN,songtrials.thisTrialN,songtrials.thisN,songtrials.thisIndex,words.thisRepN,words.thisTrialN,words.thisN,words.thisIndex,begin.keys,begin.rt,arousalkey.keys,arousalkey.rt,valencekey.keys,valencekey.rt,likekey.keys,likekey.rt,WordResponse.keys,WordResponse.rt,participant,session,date,expName,psychopyVersion,frameRate,
,,,,,,,,,,,,,,,,,,,space,12.40337166201789,,,,,,,,,079,001,2019_Aug_27_1320,MusicAffectPsychophysiology2019,3.0.5,60.024333145033154,
,,,,,,,,,,,,,,,,,,,,,3,12.118714435986476,,,,,,,079,001,2019_Aug_27_1320,MusicAffectPsychophysiology2019,3.0.5,60.024333145033154,
,,,,,,,,,,,,,,,,,,,,,,,5,7.018548574007582,,,,,079,001,2019_Aug_27_1320,MusicAffectPsychophysiology2019,3.0.5,60.024333145033154,
,,,,,,,,,,,,,,,,,,,,,,,,,4,2.0539668150013313,,,079,001,2019_Aug_27_1320,MusicAffectPsychophysiology2019,3.0.5,60.024333145033154,
To what extent did the music make you feel ,HAPPY,,,,,,0,0,0,6,,,,,,,,,,,,,,,,,3,4.652314340986777,079,001,2019_Aug_27_1320,MusicAffectPsychophysiology2019,3.0.5,60.024333145033154,
To what extent did the music make you feel ,EXCITED,,,,,,0,1,1,7,,,,,,,,,,,,,,,,,2,2.0026962730044033,079,001,2019_Aug_27_1320,MusicAffectPsychophysiology2019,3.0.5,60.024333145033154,
To what extent did the music make you feel ,ANGRY,,,,,,0,2,2,2,,,,,,,,,,,,,,,,,1,0.9357323939912021,079,001,2019_Aug_27_1320,MusicAffectPsychophysiology2019,3.0.5,60.024333145033154,
To what extent did the music make you feel ,TENDER,,,,,,0,3,3,10,,,,,,,,,,,,,,,,,4,2.103645271010464,079,001,2019_Aug_27_1320,MusicAffectPsychophysiology2019,3.0.5,60.024333145033154,
To what extent did the music make you feel ,GUILTY,,,,,,0,4,4,5,,,,,,,,,,,,,,,,,1,1.569047709024744,079,001,2019_Aug_27_1320,MusicAffectPsychophysiology2019,3.0.5,60.024333145033154,
To what extent did the music make you feel ,SAD,,,,,,0,5,5,0,,,,,,,,,,,,,,,,,2,2.2029167959990446,079,001,2019_Aug_27_1320,MusicAffectPsychophysiology2019,3.0.5,60.024333145033154,
To what extent did the music make you feel ,ALERT,,,,,,0,6,6,8,,,,,,,,,,,,,,,,,1,1.9166494410019368,079,001,2019_Aug_27_1320,MusicAffectPsychophysiology2019,3.0.5,60.024333145033154,
To what extent did the music make you feel ,FRUSTRATED,,,,,,0,7,7,3,,,,,,,,,,,,,,,,,1,0.6689915579918306,079,001,2019_Aug_27_1320,MusicAffectPsychophysiology2019,3.0.5,60.024333145033154,
To what extent did the music make you feel ,ASHAMED,,,,,,0,8,8,4,,,,,,,,,,,,,,,,,1,0.5840503409854136,079,001,2019_Aug_27_1320,MusicAffectPsychophysiology2019,3.0.5,60.024333145033154,
To what extent did the music make you feel ,ANXIOUS ,,,,,,0,9,9,1,,,,,,,,,,,,,,,,,2,2.086981808010023,079,001,2019_Aug_27_1320,MusicAffectPsychophysiology2019,3.0.5,60.024333145033154,
To what extent did the music make you feel ,ACTIVE,,,,,,0,10,10,9,,,,,,,,,,,,,,,,,2,1.9530141899886075,079,001,2019_Aug_27_1320,MusicAffectPsychophysiology2019,3.0.5,60.024333145033154,
To what extent did the music make you feel ,SCARED,,,,,,0,11,11,11,,,,,,,,,,,,,,,,,1,1.6683485569956247,079,001,2019_Aug_27_1320,MusicAffectPsychophysiology2019,3.0.5,60.024333145033154,
To what extent did the music make you feel ,ASHAMED,30MonoWAV/30MonoT1.wav,2,1,4,13,,,,,0,0,0,12,0,0,0,4,,,3,3.136880027013831,4,3.0373949269996956,4,2.57011404298828,1,1.78623146697646,079,001,2019_Aug_27_1320,MusicAffectPsychophysiology2019,3.0.5,60.024333145033154,
To what extent did the music make you feel ,ANXIOUS ,30MonoWAV/30MonoT1.wav,2,1,4,13,,,,,0,0,0,12,0,1,1,1,,,,,,,,,1,1.2201488209830131,079,001,2019_Aug_27_1320,MusicAffectPsychophysiology2019,3.0.5,60.024333145033154,
To what extent did the music make you feel ,ACTIVE,30MonoWAV/30MonoT1.wav,2,1,4,13,,,,,0,0,0,12,0,2,2,9,,,,,,,,,3,2.1337637859978713,079,001,2019_Aug_27_1320,MusicAffectPsychophysiology2019,3.0.5,60.024333145033154,
To what extent did the music make you feel ,SCARED,30MonoWAV/30MonoT1.wav,2,1,4,13,,,,,0,0,0,12,0,3,3,11,,,,,,,,,1,2.070211702026427,079,001,2019_Aug_27_1320,MusicAffectPsychophysiology2019,3.0.5,60.024333145033154,
To what extent did the music make you feel ,FRUSTRATED,30MonoWAV/30MonoT1.wav,2,1,4,13,,,,,0,0,0,12,0,4,4,3,,,,,,,,,1,0.796019436995266,079,001,2019_Aug_27_1320,MusicAffectPsychophysiology2019,3.0.5,60.024333145033154,
To what extent did the music make you feel ,GUILTY,30MonoWAV/30MonoT1.wav,2,1,4,13,,,,,0,0,0,12,0,5,5,5,,,,,,,,,1,1.7040088929934427,079,001,2019_Aug_27_1320,MusicAffectPsychophysiology2019,3.0.5,60.024333145033154,
To what extent did the music make you feel ,ALERT,30MonoWAV/30MonoT1.wav,2,1,4,13,,,,,0,0,0,12,0,6,6,8,,,,,,,,,2,2.7474922930123284,079,001,2019_Aug_27_1320,MusicAffectPsychophysiology2019,3.0.5,60.024333145033154,
To what extent did the music make you feel ,TENDER,30MonoWAV/30MonoT1.wav,2,1,4,13,,,,,0,0,0,12,0,7,7,10,,,,,,,,,2,1.4796497380011715,079,001,2019_Aug_27_1320,MusicAffectPsychophysiology2019,3.0.5,60.024333145033154,
To what extent did the music make you feel ,EXCITED,30MonoWAV/30MonoT1.wav,2,1,4,13,,,,,0,0,0,12,0,8,8,7,,,,,,,,,3,1.6536715280089993,079,001,2019_Aug_27_1320,MusicAffectPsychophysiology2019,3.0.5,60.024333145033154,
To what extent did the music make you feel ,SAD,30MonoWAV/30MonoT1.wav,2,1,4,13,,,,,0,0,0,12,0,9,9,0,,,,,,,,,1,2.103519370983122,079,001,2019_Aug_27_1320,MusicAffectPsychophysiology2019,3.0.5,60.024333145033154,
To what extent did the music make you feel ,HAPPY,30MonoWAV/30MonoT1.wav,2,1,4,13,,,,,0,0,0,12,0,10,10,6,,,,,,,,,3,1.7530544510227628,079,001,2019_Aug_27_1320,MusicAffectPsychophysiology2019,3.0.5,60.024333145033154,
To what extent did the music make you feel ,ANGRY,30MonoWAV/30MonoT1.wav,2,1,4,13,,,,,0,0,0,12,0,11,11,2,,,,,,,,,1,1.0206035709998105,079,001,2019_Aug_27_1320,MusicAffectPsychophysiology2019,3.0.5,60.024333145033154,
,,30MonoWAV/30MonoT1.wav,2,1,4,13,,,,,0,0,0,12,,,,,,,,,,,,,,,079,001,2019_Aug_27_1320,MusicAffectPsychophysiology2019,3.0.5,60.024333145033154,
To what extent did the music make you feel ,ALERT,30MonoWAV/30MonoT2.wav,2,1,4,14,,,,,0,1,1,13,0,0,0,8,,,2,3.304353206011001,5,2.2690117140009534,5,0.9042028220137581,4,3.1913688799832016,079,001,2019_Aug_27_1320,MusicAffectPsychophysiology2019,3.0.5,60.024333145033154,
To what extent did the music make you feel ,ASHAMED,30MonoWAV/30MonoT2.wav,2,1,4,14,,,,,0,1,1,13,0,1,1,4,,,,,,,,,1,1.1035143970220815,079,001,2019_Aug_27_1320,MusicAffectPsychophysiology2019,3.0.5,60.024333145033154,
To what extent did the music make you feel ,ANGRY,30MonoWAV/30MonoT2.wav,2,1,4,14,,,,,0,1,1,13,0,2,2,2,,,,,,,,,1,0.840805500978604,079,001,2019_Aug_27_1320,MusicAffectPsychophysiology2019,3.0.5,60.024333145033154,
To what extent did the music make you feel ,EXCITED,30MonoWAV/30MonoT2.wav,2,1,4,14,,,,,0,1,1,13,0,3,3,7,,,,,,,,,2,2.1870217240066268,079,001,2019_Aug_27_1320,MusicAffectPsychophysiology2019,3.0.5,60.024333145033154,
To what extent did the music make you feel ,TENDER,30MonoWAV/30MonoT2.wav,2,1,4,14,,,,,0,1,1,13,0,4,4,10,,,,,,,,,3,1.6193374799913727,079,001,2019_Aug_27_1320,MusicAffectPsychophysiology2019,3.0.5,60.024333145033154,
To what extent did the music make you feel ,ANXIOUS ,30MonoWAV/30MonoT2.wav,2,1,4,14,,,,,0,1,1,13,0,5,5,1,,,,,,,,,1,1.170308455999475,079,001,2019_Aug_27_1320,MusicAffectPsychophysiology2019,3.0.5,60.024333145033154,
To what extent did the music make you feel ,SAD,30MonoWAV/30MonoT2.wav,2,1,4,14,,,,,0,1,1,13,0,6,6,0,,,,,,,,,1,0.8524432300182525,079,001,2019_Aug_27_1320,MusicAffectPsychophysiology2019,3.0.5,60.024333145033154,
To what extent did the music make you feel ,FRUSTRATED,30MonoWAV/30MonoT2.wav,2,1,4,14,,,,,0,1,1,13,0,7,7,3,,,,,,,,,1,0.589837906009052,079,001,2019_Aug_27_1320,MusicAffectPsychophysiology2019,3.0.5,60.024333145033154,
To what extent did the music make you feel ,SCARED,30MonoWAV/30MonoT2.wav,2,1,4,14,,,,,0,1,1,13,0,8,8,11,,,,,,,,,1,0.6407799579901621,079,001,2019_Aug_27_1320,MusicAffectPsychophysiology2019,3.0.5,60.024333145033154,
To what extent did the music make you feel ,HAPPY,30MonoWAV/30MonoT2.wav,2,1,4,14,,,,,0,1,1,13,0,9,9,6,,,,,,,,,5,1.4867866800050251,079,001,2019_Aug_27_1320,MusicAffectPsychophysiology2019,3.0.5,60.024333145033154,
To what extent did the music make you feel ,GUILTY,30MonoWAV/30MonoT2.wav,2,1,4,14,,,,,0,1,1,13,0,10,10,5,,,,,,,,,1,0.8388369629974477,079,001,2019_Aug_27_1320,MusicAffectPsychophysiology2019,3.0.5,60.024333145033154,
To what extent did the music make you feel ,ACTIVE,30MonoWAV/30MonoT2.wav,2,1,4,14,,,,,0,1,1,13,0,11,11,9,,,,,,,,,2,1.4203437349933665,079,001,2019_Aug_27_1320,MusicAffectPsychophysiology2019,3.0.5,60.024333145033154,
,,30MonoWAV/30MonoT2.wav,2,1,4,14,,,,,0,1,1,13,,,,,,,,,,,,,,,079,001,2019_Aug_27_1320,MusicAffectPsychophysiology2019,3.0.5,60.024333145033154,
To what extent did the music make you feel ,SAD,30MonoWAV/30MonoS3.wav,1,1,3,11,,,,,0,2,2,10,0,0,0,0,,,1,4.719567123014713,3,1.886919423006475,4,2.0860139720025472,2,2.0695777730143163,079,001,2019_Aug_27_1320,MusicAffectPsychophysiology2019,3.0.5,60.024333145033154,
To what extent did the music make you feel ,ANXIOUS ,30MonoWAV/30MonoS3.wav,1,1,3,11,,,,,0,2,2,10,0,1,1,1,,,,,,,,,2,1.0861493439879268,079,001,2019_Aug_27_1320,MusicAffectPsychophysiology2019,3.0.5,60.024333145033154,
To what extent did the music make you feel ,SCARED,30MonoWAV/30MonoS3.wav,1,1,3,11,,,,,0,2,2,10,0,2,2,11,,,,,,,,,1,1.0864114790165331,079,001,2019_Aug_27_1320,MusicAffectPsychophysiology2019,3.0.5,60.024333145033154,
To what extent did the music make you feel ,ACTIVE,30MonoWAV/30MonoS3.wav,1,1,3,11,,,,,0,2,2,10,0,3,3,9,,,,,,,,,1,1.4039692069927696,079,001,2019_Aug_27_1320,MusicAffectPsychophysiology2019,3.0.5,60.024333145033154,
To what extent did the music make you feel ,ASHAMED,30MonoWAV/30MonoS3.wav,1,1,3,11,,,,,0,2,2,10,0,4,4,4,,,,,,,,,1,0.9532369270164054,079,001,2019_Aug_27_1320,MusicAffectPsychophysiology2019,3.0.5,60.024333145033154,
To what extent did the music make you feel ,FRUSTRATED,30MonoWAV/30MonoS3.wav,1,1,3,11,,,,,0,2,2,10,0,5,5,3,,,,,,,,,1,0.8471495389821939,079,001,2019_Aug_27_1320,MusicAffectPsychophysiology2019,3.0.5,60.024333145033154,
To what extent did the music make you feel ,EXCITED,30MonoWAV/30MonoS3.wav,1,1,3,11,,,,,0,2,2,10,0,6,6,7,,,,,,,,,1,1.9535133579920512,079,001,2019_Aug_27_1320,MusicAffectPsychophysiology2019,3.0.5,60.024333145033154,
To what extent did the music make you feel ,ALERT,30MonoWAV/30MonoS3.wav,1,1,3,11,,,,,0,2,2,10,0,7,7,8,,,,,,,,,2,1.7038792429957539,079,001,2019_Aug_27_1320,MusicAffectPsychophysiology2019,3.0.5,60.024333145033154,
To what extent did the music make you feel ,GUILTY,30MonoWAV/30MonoS3.wav,1,1,3,11,,,,,0,2,2,10,0,8,8,5,,,,,,,,,1,1.6691480290028267,079,001,2019_Aug_27_1320,MusicAffectPsychophysiology2019,3.0.5,60.024333145033154,
To what extent did the music make you feel ,TENDER,30MonoWAV/30MonoS3.wav,1,1,3,11,,,,,0,2,2,10,0,9,9,10,,,,,,,,,2,1.3868856730114203,079,001,2019_Aug_27_1320,MusicAffectPsychophysiology2019,3.0.5,60.024333145033154,
To what extent did the music make you feel ,HAPPY,30MonoWAV/30MonoS3.wav,1,1,3,11,,,,,0,2,2,10,0,10,10,6,,,,,,,,,3,1.703650806011865,079,001,2019_Aug_27_1320,MusicAffectPsychophysiology2019,3.0.5,60.024333145033154,
To what extent did the music make you feel ,ANGRY,30MonoWAV/30MonoS3.wav,1,1,3,11,,,,,0,2,2,10,0,11,11,2,,,,,,,,,1,1.1512855149921961,079,001,2019_Aug_27_1320,MusicAffectPsychophysiology2019,3.0.5,60.024333145033154,
,,30MonoWAV/30MonoS3.wav,1,1,3,11,,,,,0,2,2,10,,,,,,,,,,,,,,,079,001,2019_Aug_27_1320,MusicAffectPsychophysiology2019,3.0.5,60.024333145033154,
To what extent did the music make you feel ,ANXIOUS ,30MonoWAV/30MonoF4.wav,1,2,2,4,,,,,0,3,3,3,0,0,0,1,,,5,5.699280258006183,2,1.7208466189913452,2,2.036210874997778,4,1.4862495849956758,079,001,2019_Aug_27_1320,MusicAffectPsychophysiology2019,3.0.5,60.024333145033154,
To what extent did the music make you feel ,ANGRY,30MonoWAV/30MonoF4.wav,1,2,2,4,,,,,0,3,3,3,0,1,1,2,,,,,,,,,2,1.9366225090052467,079,001,2019_Aug_27_1320,MusicAffectPsychophysiology2019,3.0.5,60.024333145033154,
To what extent did the music make you feel ,ASHAMED,30MonoWAV/30MonoF4.wav,1,2,2,4,,,,,0,3,3,3,0,2,2,4,,,,,,,,,1,1.1598476320214104,079,001,2019_Aug_27_1320,MusicAffectPsychophysiology2019,3.0.5,60.024333145033154,
To what extent did the music make you feel ,ALERT,30MonoWAV/30MonoF4.wav,1,2,2,4,,,,,0,3,3,3,0,3,3,8,,,,,,,,,5,2.3270328619983047,079,001,2019_Aug_27_1320,MusicAffectPsychophysiology2019,3.0.5,60.024333145033154,
To what extent did the music make you feel ,GUILTY,30MonoWAV/30MonoF4.wav,1,2,2,4,,,,,0,3,3,3,0,4,4,5,,,,,,,,,3,2.7086520479933824,079,001,2019_Aug_27_1320,MusicAffectPsychophysiology2019,3.0.5,60.024333145033154,
To what extent did the music make you feel ,TENDER,30MonoWAV/30MonoF4.wav,1,2,2,4,,,,,0,3,3,3,0,5,5,10,,,,,,,,,1,0.9923834940127563,079,001,2019_Aug_27_1320,MusicAffectPsychophysiology2019,3.0.5,60.024333145033154,
To what extent did the music make you feel ,SCARED,30MonoWAV/30MonoF4.wav,1,2,2,4,,,,,0,3,3,3,0,6,6,11,,,,,,,,,4,1.2255364170123357,079,001,2019_Aug_27_1320,MusicAffectPsychophysiology2019,3.0.5,60.024333145033154,
To what extent did the music make you feel ,SAD,30MonoWAV/30MonoF4.wav,1,2,2,4,,,,,0,3,3,3,0,7,7,0,,,,,,,,,1,0.9877246799878776,079,001,2019_Aug_27_1320,MusicAffectPsychophysiology2019,3.0.5,60.024333145033154,
To what extent did the music make you feel ,EXCITED,30MonoWAV/30MonoF4.wav,1,2,2,4,,,,,0,3,3,3,0,8,8,7,,,,,,,,,3,1.8924816159997135,079,001,2019_Aug_27_1320,MusicAffectPsychophysiology2019,3.0.5,60.024333145033154,
To what extent did the music make you feel ,ACTIVE,30MonoWAV/30MonoF4.wav,1,2,2,4,,,,,0,3,3,3,0,9,9,9,,,,,,,,,4,1.6088976850151084,079,001,2019_Aug_27_1320,MusicAffectPsychophysiology2019,3.0.5,60.024333145033154,
To what extent did the music make you feel ,FRUSTRATED,30MonoWAV/30MonoF4.wav,1,2,2,4,,,,,0,3,3,3,0,10,10,3,,,,,,,,,4,1.2757498889986891,079,001,2019_Aug_27_1320,MusicAffectPsychophysiology2019,3.0.5,60.024333145033154,
To what extent did the music make you feel ,HAPPY,30MonoWAV/30MonoF4.wav,1,2,2,4,,,,,0,3,3,3,0,11,11,6,,,,,,,,,1,1.8853382080269512,079,001,2019_Aug_27_1320,MusicAffectPsychophysiology2019,3.0.5,60.024333145033154,
,,30MonoWAV/30MonoF4.wav,1,2,2,4,,,,,0,3,3,3,,,,,,,,,,,,,,,079,001,2019_Aug_27_1320,MusicAffectPsychophysiology2019,3.0.5,60.024333145033154,
To what extent did the music make you feel ,SAD,30MonoWAV/30MonoF3.wav,1,2,2,3,,,,,0,4,4,2,0,0,0,0,,,5,2.2193287099944428,5,1.5188872079888824,5,0.5357929299934767,1,1.1540797330089845,079,001,2019_Aug_27_1320,MusicAffectPsychophysiology2019,3.0.5,60.024333145033154,
To what extent did the music make you feel ,ACTIVE,30MonoWAV/30MonoF3.wav,1,2,2,3,,,,,0,4,4,2,0,1,1,9,,,,,,,,,5,1.870051970006898,079,001,2019_Aug_27_1320,MusicAffectPsychophysiology2019,3.0.5,60.024333145033154,
To what extent did the music make you feel ,HAPPY,30MonoWAV/30MonoF3.wav,1,2,2,3,,,,,0,4,4,2,0,2,2,6,,,,,,,,,5,0.9363974379957654,079,001,2019_Aug_27_1320,MusicAffectPsychophysiology2019,3.0.5,60.024333145033154,
To what extent did the music make you feel ,GUILTY,30MonoWAV/30MonoF3.wav,1,2,2,3,,,,,0,4,4,2,0,3,3,5,,,,,,,,,1,0.8698625669931062,079,001,2019_Aug_27_1320,MusicAffectPsychophysiology2019,3.0.5,60.024333145033154,
To what extent did the music make you feel ,SCARED,30MonoWAV/30MonoF3.wav,1,2,2,3,,,,,0,4,4,2,0,4,4,11,,,,,,,,,2,2.3702510239963885,079,001,2019_Aug_27_1320,MusicAffectPsychophysiology2019,3.0.5,60.024333145033154,
To what extent did the music make you feel ,TENDER,30MonoWAV/30MonoF3.wav,1,2,2,3,,,,,0,4,4,2,0,5,5,10,,,,,,,,,1,1.2026537820056546,079,001,2019_Aug_27_1320,MusicAffectPsychophysiology2019,3.0.5,60.024333145033154,
To what extent did the music make you feel ,EXCITED,30MonoWAV/30MonoF3.wav,1,2,2,3,,,,,0,4,4,2,0,6,6,7,,,,,,,,,4,1.4712165819946676,079,001,2019_Aug_27_1320,MusicAffectPsychophysiology2019,3.0.5,60.024333145033154,
To what extent did the music make you feel ,ASHAMED,30MonoWAV/30MonoF3.wav,1,2,2,3,,,,,0,4,4,2,0,7,7,4,,,,,,,,,1,0.9024388339894358,079,001,2019_Aug_27_1320,MusicAffectPsychophysiology2019,3.0.5,60.024333145033154,
To what extent did the music make you feel ,FRUSTRATED,30MonoWAV/30MonoF3.wav,1,2,2,3,,,,,0,4,4,2,0,8,8,3,,,,,,,,,1,0.9526177849911619,079,001,2019_Aug_27_1320,MusicAffectPsychophysiology2019,3.0.5,60.024333145033154,
To what extent did the music make you feel ,ANXIOUS ,30MonoWAV/30MonoF3.wav,1,2,2,3,,,,,0,4,4,2,0,9,9,1,,,,,,,,,1,0.7683758220227901,079,001,2019_Aug_27_1320,MusicAffectPsychophysiology2019,3.0.5,60.024333145033154,
To what extent did the music make you feel ,ALERT,30MonoWAV/30MonoF3.wav,1,2,2,3,,,,,0,4,4,2,0,10,10,8,,,,,,,,,5,2.551554475008743,079,001,2019_Aug_27_1320,MusicAffectPsychophysiology2019,3.0.5,60.024333145033154,
To what extent did the music make you feel ,ANGRY,30MonoWAV/30MonoF3.wav,1,2,2,3,,,,,0,4,4,2,0,11,11,2,,,,,,,,,1,1.1872209350112826,079,001,2019_Aug_27_1320,MusicAffectPsychophysiology2019,3.0.5,60.024333145033154,
,,30MonoWAV/30MonoF3.wav,1,2,2,3,,,,,0,4,4,2,,,,,,,,,,,,,,,079,001,2019_Aug_27_1320,MusicAffectPsychophysiology2019,3.0.5,60.024333145033154,
To what extent did the music make you feel ,ASHAMED,30MonoWAV/30MonoF2.wav,1,2,2,2,,,,,0,5,5,1,0,0,0,4,,,3,2.337412751017837,2,1.602136543020606,1,2.085594564996427,1,2.826747985003749,079,001,2019_Aug_27_1320,MusicAffectPsychophysiology2019,3.0.5,60.024333145033154,
To what extent did the music make you feel ,ANGRY,30MonoWAV/30MonoF2.wav,1,2,2,2,,,,,0,5,5,1,0,1,1,2,,,,,,,,,1,0.7531139560160227,079,001,2019_Aug_27_1320,MusicAffectPsychophysiology2019,3.0.5,60.024333145033154,
To what extent did the music make you feel ,FRUSTRATED,30MonoWAV/30MonoF2.wav,1,2,2,2,,,,,0,5,5,1,0,2,2,3,,,,,,,,,2,1.0432008229836356,079,001,2019_Aug_27_1320,MusicAffectPsychophysiology2019,3.0.5,60.024333145033154,
To what extent did the music make you feel ,ALERT,30MonoWAV/30MonoF2.wav,1,2,2,2,,,,,0,5,5,1,0,3,3,8,,,,,,,,,2,1.4525065130146686,079,001,2019_Aug_27_1320,MusicAffectPsychophysiology2019,3.0.5,60.024333145033154,
To what extent did the music make you feel ,ACTIVE,30MonoWAV/30MonoF2.wav,1,2,2,2,,,,,0,5,5,1,0,4,4,9,,,,,,,,,1,2.8863442910078447,079,001,2019_Aug_27_1320,MusicAffectPsychophysiology2019,3.0.5,60.024333145033154,
To what extent did the music make you feel ,HAPPY,30MonoWAV/30MonoF2.wav,1,2,2,2,,,,,0,5,5,1,0,5,5,6,,,,,,,,,1,1.085864328983007,079,001,2019_Aug_27_1320,MusicAffectPsychophysiology2019,3.0.5,60.024333145033154,
To what extent did the music make you feel ,SCARED,30MonoWAV/30MonoF2.wav,1,2,2,2,,,,,0,5,5,1,0,6,6,11,,,,,,,,,5,1.6277919060084969,079,001,2019_Aug_27_1320,MusicAffectPsychophysiology2019,3.0.5,60.024333145033154,
To what extent did the music make you feel ,TENDER,30MonoWAV/30MonoF2.wav,1,2,2,2,,,,,0,5,5,1,0,7,7,10,,,,,,,,,1,0.8515379860182293,079,001,2019_Aug_27_1320,MusicAffectPsychophysiology2019,3.0.5,60.024333145033154,
To what extent did the music make you feel ,ANXIOUS ,30MonoWAV/30MonoF2.wav,1,2,2,2,,,,,0,5,5,1,0,8,8,1,,,,,,,,,4,1.4184965080057736,079,001,2019_Aug_27_1320,MusicAffectPsychophysiology2019,3.0.5,60.024333145033154,
To what extent did the music make you feel ,SAD,30MonoWAV/30MonoF2.wav,1,2,2,2,,,,,0,5,5,1,0,9,9,0,,,,,,,,,2,1.253866527986247,079,001,2019_Aug_27_1320,MusicAffectPsychophysiology2019,3.0.5,60.024333145033154,
To what extent did the music make you feel ,GUILTY,30MonoWAV/30MonoF2.wav,1,2,2,2,,,,,0,5,5,1,0,10,10,5,,,,,,,,,2,1.387173625989817,079,001,2019_Aug_27_1320,MusicAffectPsychophysiology2019,3.0.5,60.024333145033154,
To what extent did the music make you feel ,EXCITED,30MonoWAV/30MonoF2.wav,1,2,2,2,,,,,0,5,5,1,0,11,11,7,,,,,,,,,1,0.9082165760046337,079,001,2019_Aug_27_1320,MusicAffectPsychophysiology2019,3.0.5,60.024333145033154,
,,30MonoWAV/30MonoF2.wav,1,2,2,2,,,,,0,5,5,1,,,,,,,,,,,,,,,079,001,2019_Aug_27_1320,MusicAffectPsychophysiology2019,3.0.5,60.024333145033154,
To what extent did the music make you feel ,SCARED,30MonoWAV/30MonoS1.wav,1,1,3,9,,,,,0,6,6,8,0,0,0,11,,,2,2.5034165500255767,4,1.6733379859942943,4,2.3868082230037544,1,1.5893202740116976,079,001,2019_Aug_27_1320,MusicAffectPsychophysiology2019,3.0.5,60.024333145033154,
To what extent did the music make you feel ,ANXIOUS ,30MonoWAV/30MonoS1.wav,1,1,3,9,,,,,0,6,6,8,0,1,1,1,,,,,,,,,1,1.3053430450090673,079,001,2019_Aug_27_1320,MusicAffectPsychophysiology2019,3.0.5,60.024333145033154,
To what extent did the music make you feel ,GUILTY,30MonoWAV/30MonoS1.wav,1,1,3,9,,,,,0,6,6,8,0,2,2,5,,,,,,,,,1,0.7047571430157404,079,001,2019_Aug_27_1320,MusicAffectPsychophysiology2019,3.0.5,60.024333145033154,
To what extent did the music make you feel ,SAD,30MonoWAV/30MonoS1.wav,1,1,3,9,,,,,0,6,6,8,0,3,3,0,,,,,,,,,1,0.9196791079884861,079,001,2019_Aug_27_1320,MusicAffectPsychophysiology2019,3.0.5,60.024333145033154,
To what extent did the music make you feel ,TENDER,30MonoWAV/30MonoS1.wav,1,1,3,9,,,,,0,6,6,8,0,4,4,10,,,,,,,,,4,1.8538846709998325,079,001,2019_Aug_27_1320,MusicAffectPsychophysiology2019,3.0.5,60.024333145033154,
To what extent did the music make you feel ,ANGRY,30MonoWAV/30MonoS1.wav,1,1,3,9,,,,,0,6,6,8,0,5,5,2,,,,,,,,,1,0.6555153579975013,079,001,2019_Aug_27_1320,MusicAffectPsychophysiology2019,3.0.5,60.024333145033154,
To what extent did the music make you feel ,FRUSTRATED,30MonoWAV/30MonoS1.wav,1,1,3,9,,,,,0,6,6,8,0,6,6,3,,,,,,,,,1,0.6222698549972847,079,001,2019_Aug_27_1320,MusicAffectPsychophysiology2019,3.0.5,60.024333145033154,
To what extent did the music make you feel ,EXCITED,30MonoWAV/30MonoS1.wav,1,1,3,9,,,,,0,6,6,8,0,7,7,7,,,,,,,,,1,0.7718342349980958,079,001,2019_Aug_27_1320,MusicAffectPsychophysiology2019,3.0.5,60.024333145033154,
To what extent did the music make you feel ,ASHAMED,30MonoWAV/30MonoS1.wav,1,1,3,9,,,,,0,6,6,8,0,8,8,4,,,,,,,,,1,0.8230894580192398,079,001,2019_Aug_27_1320,MusicAffectPsychophysiology2019,3.0.5,60.024333145033154,
To what extent did the music make you feel ,HAPPY,30MonoWAV/30MonoS1.wav,1,1,3,9,,,,,0,6,6,8,0,9,9,6,,,,,,,,,3,1.78777076798724,079,001,2019_Aug_27_1320,MusicAffectPsychophysiology2019,3.0.5,60.024333145033154,
To what extent did the music make you feel ,ACTIVE,30MonoWAV/30MonoS1.wav,1,1,3,9,,,,,0,6,6,8,0,10,10,9,,,,,,,,,1,0.8362371940165758,079,001,2019_Aug_27_1320,MusicAffectPsychophysiology2019,3.0.5,60.024333145033154,
To what extent did the music make you feel ,ALERT,30MonoWAV/30MonoS1.wav,1,1,3,9,,,,,0,6,6,8,0,11,11,8,,,,,,,,,1,0.8352544179942925,079,001,2019_Aug_27_1320,MusicAffectPsychophysiology2019,3.0.5,60.024333145033154,
,,30MonoWAV/30MonoS1.wav,1,1,3,9,,,,,0,6,6,8,,,,,,,,,,,,,,,079,001,2019_Aug_27_1320,MusicAffectPsychophysiology2019,3.0.5,60.024333145033154,
To what extent did the music make you feel ,ALERT,30MonoWAV/30MonoT3.wav,2,1,4,15,,,,,0,7,7,14,0,0,0,8,,,1,3.1033965010137763,5,1.3530591730086599,4,1.6716644119878765,2,1.8200566940067802,079,001,2019_Aug_27_1320,MusicAffectPsychophysiology2019,3.0.5,60.024333145033154,
To what extent did the music make you feel ,ASHAMED,30MonoWAV/30MonoT3.wav,2,1,4,15,,,,,0,7,7,14,0,1,1,4,,,,,,,,,1,0.8817265309917275,079,001,2019_Aug_27_1320,MusicAffectPsychophysiology2019,3.0.5,60.024333145033154,
To what extent did the music make you feel ,GUILTY,30MonoWAV/30MonoT3.wav,2,1,4,15,,,,,0,7,7,14,0,2,2,5,,,,,,,,,1,1.069423745997483,079,001,2019_Aug_27_1320,MusicAffectPsychophysiology2019,3.0.5,60.024333145033154,
To what extent did the music make you feel ,EXCITED,30MonoWAV/30MonoT3.wav,2,1,4,15,,,,,0,7,7,14,0,3,3,7,,,,,,,,,3,1.4655098989896942,079,001,2019_Aug_27_1320,MusicAffectPsychophysiology2019,3.0.5,60.024333145033154,
To what extent did the music make you feel ,SCARED,30MonoWAV/30MonoT3.wav,2,1,4,15,,,,,0,7,7,14,0,4,4,11,,,,,,,,,1,1.378805608022958,079,001,2019_Aug_27_1320,MusicAffectPsychophysiology2019,3.0.5,60.024333145033154,
To what extent did the music make you feel ,ANGRY,30MonoWAV/30MonoT3.wav,2,1,4,15,,,,,0,7,7,14,0,5,5,2,,,,,,,,,1,0.6043440400098916,079,001,2019_Aug_27_1320,MusicAffectPsychophysiology2019,3.0.5,60.024333145033154,
To what extent did the music make you feel ,TENDER,30MonoWAV/30MonoT3.wav,2,1,4,15,,,,,0,7,7,14,0,6,6,10,,,,,,,,,4,1.281909306999296,079,001,2019_Aug_27_1320,MusicAffectPsychophysiology2019,3.0.5,60.024333145033154,
To what extent did the music make you feel ,HAPPY,30MonoWAV/30MonoT3.wav,2,1,4,15,,,,,0,7,7,14,0,7,7,6,,,,,,,,,5,1.9821447860158514,079,001,2019_Aug_27_1320,MusicAffectPsychophysiology2019,3.0.5,60.024333145033154,
To what extent did the music make you feel ,ANXIOUS ,30MonoWAV/30MonoT3.wav,2,1,4,15,,,,,0,7,7,14,0,8,8,1,,,,,,,,,1,0.9641392730118241,079,001,2019_Aug_27_1320,MusicAffectPsychophysiology2019,3.0.5,60.024333145033154,
To what extent did the music make you feel ,SAD,30MonoWAV/30MonoT3.wav,2,1,4,15,,,,,0,7,7,14,0,9,9,0,,,,,,,,,2,1.1861152269993909,079,001,2019_Aug_27_1320,MusicAffectPsychophysiology2019,3.0.5,60.024333145033154,
To what extent did the music make you feel ,ACTIVE,30MonoWAV/30MonoT3.wav,2,1,4,15,,,,,0,7,7,14,0,10,10,9,,,,,,,,,1,1.1538430640066508,079,001,2019_Aug_27_1320,MusicAffectPsychophysiology2019,3.0.5,60.024333145033154,
To what extent did the music make you feel ,FRUSTRATED,30MonoWAV/30MonoT3.wav,2,1,4,15,,,,,0,7,7,14,0,11,11,3,,,,,,,,,1,0.6317604939977173,079,001,2019_Aug_27_1320,MusicAffectPsychophysiology2019,3.0.5,60.024333145033154,
,,30MonoWAV/30MonoT3.wav,2,1,4,15,,,,,0,7,7,14,,,,,,,,,,,,,,,079,001,2019_Aug_27_1320,MusicAffectPsychophysiology2019,3.0.5,60.024333145033154,
To what extent did the music make you feel ,ACTIVE,30MonoWAV/30MonoH2.wav,2,2,1,6,,,,,0,8,8,5,0,0,0,9,,,5,13.103350814984879,4,1.5693580930237658,4,1.536379233992193,3,1.6072868249902967,079,001,2019_Aug_27_1320,MusicAffectPsychophysiology2019,3.0.5,60.024333145033154,
To what extent did the music make you feel ,FRUSTRATED,30MonoWAV/30MonoH2.wav,2,2,1,6,,,,,0,8,8,5,0,1,1,3,,,,,,,,,2,1.067122697015293,079,001,2019_Aug_27_1320,MusicAffectPsychophysiology2019,3.0.5,60.024333145033154,
To what extent did the music make you feel ,ANXIOUS ,30MonoWAV/30MonoH2.wav,2,2,1,6,,,,,0,8,8,5,0,2,2,1,,,,,,,,,1,1.0576405499887187,079,001,2019_Aug_27_1320,MusicAffectPsychophysiology2019,3.0.5,60.024333145033154,
To what extent did the music make you feel ,ANGRY,30MonoWAV/30MonoH2.wav,2,2,1,6,,,,,0,8,8,5,0,3,3,2,,,,,,,,,1,0.9075319660187233,079,001,2019_Aug_27_1320,MusicAffectPsychophysiology2019,3.0.5,60.024333145033154,
To what extent did the music make you feel ,SAD,30MonoWAV/30MonoH2.wav,2,2,1,6,,,,,0,8,8,5,0,4,4,0,,,,,,,,,1,0.8506500509975012,079,001,2019_Aug_27_1320,MusicAffectPsychophysiology2019,3.0.5,60.024333145033154,
To what extent did the music make you feel ,TENDER,30MonoWAV/30MonoH2.wav,2,2,1,6,,,,,0,8,8,5,0,5,5,10,,,,,,,,,1,1.1201302270055749,079,001,2019_Aug_27_1320,MusicAffectPsychophysiology2019,3.0.5,60.024333145033154,
To what extent did the music make you feel ,ALERT,30MonoWAV/30MonoH2.wav,2,2,1,6,,,,,0,8,8,5,0,6,6,8,,,,,,,,,4,1.2555823710281402,079,001,2019_Aug_27_1320,MusicAffectPsychophysiology2019,3.0.5,60.024333145033154,
To what extent did the music make you feel ,HAPPY,30MonoWAV/30MonoH2.wav,2,2,1,6,,,,,0,8,8,5,0,7,7,6,,,,,,,,,4,1.8353867400146555,079,001,2019_Aug_27_1320,MusicAffectPsychophysiology2019,3.0.5,60.024333145033154,
To what extent did the music make you feel ,GUILTY,30MonoWAV/30MonoH2.wav,2,2,1,6,,,,,0,8,8,5,0,8,8,5,,,,,,,,,2,1.036514517996693,079,001,2019_Aug_27_1320,MusicAffectPsychophysiology2019,3.0.5,60.024333145033154,
To what extent did the music make you feel ,EXCITED,30MonoWAV/30MonoH2.wav,2,2,1,6,,,,,0,8,8,5,0,9,9,7,,,,,,,,,3,1.2081191060133278,079,001,2019_Aug_27_1320,MusicAffectPsychophysiology2019,3.0.5,60.024333145033154,
To what extent did the music make you feel ,SCARED,30MonoWAV/30MonoH2.wav,2,2,1,6,,,,,0,8,8,5,0,10,10,11,,,,,,,,,2,1.3061242159747053,079,001,2019_Aug_27_1320,MusicAffectPsychophysiology2019,3.0.5,60.024333145033154,
To what extent did the music make you feel ,ASHAMED,30MonoWAV/30MonoH2.wav,2,2,1,6,,,,,0,8,8,5,0,11,11,4,,,,,,,,,1,0.7538229270139709,079,001,2019_Aug_27_1320,MusicAffectPsychophysiology2019,3.0.5,60.024333145033154,
,,30MonoWAV/30MonoH2.wav,2,2,1,6,,,,,0,8,8,5,,,,,,,,,,,,,,,079,001,2019_Aug_27_1320,MusicAffectPsychophysiology2019,3.0.5,60.024333145033154,
To what extent did the music make you feel ,ALERT,30MonoWAV/30MonoT4.wav,2,1,4,16,,,,,0,9,9,15,0,0,0,8,,,1,2.136423509015003,3,2.002857921004761,3,0.9701071720046457,1,2.820286179019604,079,001,2019_Aug_27_1320,MusicAffectPsychophysiology2019,3.0.5,60.024333145033154,
To what extent did the music make you feel ,TENDER,30MonoWAV/30MonoT4.wav,2,1,4,16,,,,,0,9,9,15,0,1,1,10,,,,,,,,,2,1.367496379010845,079,001,2019_Aug_27_1320,MusicAffectPsychophysiology2019,3.0.5,60.024333145033154,
To what extent did the music make you feel ,GUILTY,30MonoWAV/30MonoT4.wav,2,1,4,16,,,,,0,9,9,15,0,2,2,5,,,,,,,,,1,1.302917778986739,079,001,2019_Aug_27_1320,MusicAffectPsychophysiology2019,3.0.5,60.024333145033154,
To what extent did the music make you feel ,ASHAMED,30MonoWAV/30MonoT4.wav,2,1,4,16,,,,,0,9,9,15,0,3,3,4,,,,,,,,,1,0.6176547069917433,079,001,2019_Aug_27_1320,MusicAffectPsychophysiology2019,3.0.5,60.024333145033154,
To what extent did the music make you feel ,SCARED,30MonoWAV/30MonoT4.wav,2,1,4,16,,,,,0,9,9,15,0,4,4,11,,,,,,,,,1,1.3338971930206753,079,001,2019_Aug_27_1320,MusicAffectPsychophysiology2019,3.0.5,60.024333145033154,
To what extent did the music make you feel ,ANGRY,30MonoWAV/30MonoT4.wav,2,1,4,16,,,,,0,9,9,15,0,5,5,2,,,,,,,,,1,0.7178658930060919,079,001,2019_Aug_27_1320,MusicAffectPsychophysiology2019,3.0.5,60.024333145033154,
To what extent did the music make you feel ,SAD,30MonoWAV/30MonoT4.wav,2,1,4,16,,,,,0,9,9,15,0,6,6,0,,,,,,,,,3,2.6532022029859945,079,001,2019_Aug_27_1320,MusicAffectPsychophysiology2019,3.0.5,60.024333145033154,
To what extent did the music make you feel ,ANXIOUS ,30MonoWAV/30MonoT4.wav,2,1,4,16,,,,,0,9,9,15,0,7,7,1,,,,,,,,,1,1.016454138996778,079,001,2019_Aug_27_1320,MusicAffectPsychophysiology2019,3.0.5,60.024333145033154,
To what extent did the music make you feel ,HAPPY,30MonoWAV/30MonoT4.wav,2,1,4,16,,,,,0,9,9,15,0,8,8,6,,,,,,,,,1,1.003545610990841,079,001,2019_Aug_27_1320,MusicAffectPsychophysiology2019,3.0.5,60.024333145033154,
To what extent did the music make you feel ,ACTIVE,30MonoWAV/30MonoT4.wav,2,1,4,16,,,,,0,9,9,15,0,9,9,9,,,,,,,,,1,0.5847785620135255,079,001,2019_Aug_27_1320,MusicAffectPsychophysiology2019,3.0.5,60.024333145033154,
To what extent did the music make you feel ,FRUSTRATED,30MonoWAV/30MonoT4.wav,2,1,4,16,,,,,0,9,9,15,0,10,10,3,,,,,,,,,1,0.636161931004608,079,001,2019_Aug_27_1320,MusicAffectPsychophysiology2019,3.0.5,60.024333145033154,
To what extent did the music make you feel ,EXCITED,30MonoWAV/30MonoT4.wav,2,1,4,16,,,,,0,9,9,15,0,11,11,7,,,,,,,,,1,0.6868128569913097,079,001,2019_Aug_27_1320,MusicAffectPsychophysiology2019,3.0.5,60.024333145033154,
,,30MonoWAV/30MonoT4.wav,2,1,4,16,,,,,0,9,9,15,,,,,,,,,,,,,,,079,001,2019_Aug_27_1320,MusicAffectPsychophysiology2019,3.0.5,60.024333145033154,
To what extent did the music make you feel ,SCARED,30MonoWAV/30MonoH1.wav,2,2,1,5,,,,,0,10,10,4,0,0,0,11,,,5,1.4867533859796822,5,1.0033952670055442,5,0.40373160599847324,1,1.2530535079713445,079,001,2019_Aug_27_1320,MusicAffectPsychophysiology2019,3.0.5,60.024333145033154,
To what extent did the music make you feel ,ANGRY,30MonoWAV/30MonoH1.wav,2,2,1,5,,,,,0,10,10,4,0,1,1,2,,,,,,,,,1,0.5783862420066725,079,001,2019_Aug_27_1320,MusicAffectPsychophysiology2019,3.0.5,60.024333145033154,
To what extent did the music make you feel ,SAD,30MonoWAV/30MonoH1.wav,2,2,1,5,,,,,0,10,10,4,0,2,2,0,,,,,,,,,1,0.5376273959991522,079,001,2019_Aug_27_1320,MusicAffectPsychophysiology2019,3.0.5,60.024333145033154,
To what extent did the music make you feel ,FRUSTRATED,30MonoWAV/30MonoH1.wav,2,2,1,5,,,,,0,10,10,4,0,3,3,3,,,,,,,,,1,0.5780455020139925,079,001,2019_Aug_27_1320,MusicAffectPsychophysiology2019,3.0.5,60.024333145033154,
To what extent did the music make you feel ,TENDER,30MonoWAV/30MonoH1.wav,2,2,1,5,,,,,0,10,10,4,0,4,4,10,,,,,,,,,1,1.0774120179994497,079,001,2019_Aug_27_1320,MusicAffectPsychophysiology2019,3.0.5,60.024333145033154,
To what extent did the music make you feel ,GUILTY,30MonoWAV/30MonoH1.wav,2,2,1,5,,,,,0,10,10,4,0,5,5,5,,,,,,,,,1,1.0038226599863265,079,001,2019_Aug_27_1320,MusicAffectPsychophysiology2019,3.0.5,60.024333145033154,
To what extent did the music make you feel ,ALERT,30MonoWAV/30MonoH1.wav,2,2,1,5,,,,,0,10,10,4,0,6,6,8,,,,,,,,,4,1.3942088190233335,079,001,2019_Aug_27_1320,MusicAffectPsychophysiology2019,3.0.5,60.024333145033154,
To what extent did the music make you feel ,ASHAMED,30MonoWAV/30MonoH1.wav,2,2,1,5,,,,,0,10,10,4,0,7,7,4,,,,,,,,,1,1.087873853975907,079,001,2019_Aug_27_1320,MusicAffectPsychophysiology2019,3.0.5,60.024333145033154,
To what extent did the music make you feel ,EXCITED,30MonoWAV/30MonoH1.wav,2,2,1,5,,,,,0,10,10,4,0,8,8,7,,,,,,,,,5,1.0421380449843127,079,001,2019_Aug_27_1320,MusicAffectPsychophysiology2019,3.0.5,60.024333145033154,
To what extent did the music make you feel ,ANXIOUS ,30MonoWAV/30MonoH1.wav,2,2,1,5,,,,,0,10,10,4,0,9,9,1,,,,,,,,,1,1.6195967170060612,079,001,2019_Aug_27_1320,MusicAffectPsychophysiology2019,3.0.5,60.024333145033154,
To what extent did the music make you feel ,HAPPY,30MonoWAV/30MonoH1.wav,2,2,1,5,,,,,0,10,10,4,0,10,10,6,,,,,,,,,5,1.0533302499970887,079,001,2019_Aug_27_1320,MusicAffectPsychophysiology2019,3.0.5,60.024333145033154,
To what extent did the music make you feel ,ACTIVE,30MonoWAV/30MonoH1.wav,2,2,1,5,,,,,0,10,10,4,0,11,11,9,,,,,,,,,5,0.8269086099753622,079,001,2019_Aug_27_1320,MusicAffectPsychophysiology2019,3.0.5,60.024333145033154,
,,30MonoWAV/30MonoH1.wav,2,2,1,5,,,,,0,10,10,4,,,,,,,,,,,,,,,079,001,2019_Aug_27_1320,MusicAffectPsychophysiology2019,3.0.5,60.024333145033154,
To what extent did the music make you feel ,HAPPY,30MonoWAV/30MonoS2.wav,1,1,3,10,,,,,0,11,11,9,0,0,0,6,,,2,6.2860049750015605,2,1.7868658149964176,3,1.5519007059920114,2,1.4720734570000786,079,001,2019_Aug_27_1320,MusicAffectPsychophysiology2019,3.0.5,60.024333145033154,
To what extent did the music make you feel ,TENDER,30MonoWAV/30MonoS2.wav,1,1,3,10,,,,,0,11,11,9,0,1,1,10,,,,,,,,,3,1.5392245919792913,079,001,2019_Aug_27_1320,MusicAffectPsychophysiology2019,3.0.5,60.024333145033154,
To what extent did the music make you feel ,ANGRY,30MonoWAV/30MonoS2.wav,1,1,3,10,,,,,0,11,11,9,0,2,2,2,,,,,,,,,1,1.6519812720071059,079,001,2019_Aug_27_1320,MusicAffectPsychophysiology2019,3.0.5,60.024333145033154,
To what extent did the music make you feel ,SCARED,30MonoWAV/30MonoS2.wav,1,1,3,10,,,,,0,11,11,9,0,3,3,11,,,,,,,,,2,0.9870494490023702,079,001,2019_Aug_27_1320,MusicAffectPsychophysiology2019,3.0.5,60.024333145033154,
To what extent did the music make you feel ,ALERT,30MonoWAV/30MonoS2.wav,1,1,3,10,,,,,0,11,11,9,0,4,4,8,,,,,,,,,1,1.1048134360171389,079,001,2019_Aug_27_1320,MusicAffectPsychophysiology2019,3.0.5,60.024333145033154,
To what extent did the music make you feel ,SAD,30MonoWAV/30MonoS2.wav,1,1,3,10,,,,,0,11,11,9,0,5,5,0,,,,,,,,,2,1.3711913309816737,079,001,2019_Aug_27_1320,MusicAffectPsychophysiology2019,3.0.5,60.024333145033154,
To what extent did the music make you feel ,ASHAMED,30MonoWAV/30MonoS2.wav,1,1,3,10,,,,,0,11,11,9,0,6,6,4,,,,,,,,,3,1.6870898170163855,079,001,2019_Aug_27_1320,MusicAffectPsychophysiology2019,3.0.5,60.024333145033154,
To what extent did the music make you feel ,ACTIVE,30MonoWAV/30MonoS2.wav,1,1,3,10,,,,,0,11,11,9,0,7,7,9,,,,,,,,,1,1.5212759230053052,079,001,2019_Aug_27_1320,MusicAffectPsychophysiology2019,3.0.5,60.024333145033154,
To what extent did the music make you feel ,ANXIOUS ,30MonoWAV/30MonoS2.wav,1,1,3,10,,,,,0,11,11,9,0,8,8,1,,,,,,,,,1,1.386076727998443,079,001,2019_Aug_27_1320,MusicAffectPsychophysiology2019,3.0.5,60.024333145033154,
To what extent did the music make you feel ,FRUSTRATED,30MonoWAV/30MonoS2.wav,1,1,3,10,,,,,0,11,11,9,0,9,9,3,,,,,,,,,1,0.702779876999557,079,001,2019_Aug_27_1320,MusicAffectPsychophysiology2019,3.0.5,60.024333145033154,
To what extent did the music make you feel ,EXCITED,30MonoWAV/30MonoS2.wav,1,1,3,10,,,,,0,11,11,9,0,10,10,7,,,,,,,,,1,1.0040116690215655,079,001,2019_Aug_27_1320,MusicAffectPsychophysiology2019,3.0.5,60.024333145033154,
To what extent did the music make you feel ,GUILTY,30MonoWAV/30MonoS2.wav,1,1,3,10,,,,,0,11,11,9,0,11,11,5,,,,,,,,,3,1.2863983979914337,079,001,2019_Aug_27_1320,MusicAffectPsychophysiology2019,3.0.5,60.024333145033154,
,,30MonoWAV/30MonoS2.wav,1,1,3,10,,,,,0,11,11,9,,,,,,,,,,,,,,,079,001,2019_Aug_27_1320,MusicAffectPsychophysiology2019,3.0.5,60.024333145033154,
To what extent did the music make you feel ,FRUSTRATED,30MonoWAV/30MonoH4.wav,2,2,1,8,,,,,0,12,12,7,0,0,0,3,,,4,2.170801202999428,5,1.3371708590129856,5,1.103066370007582,2,1.3849180540128145,079,001,2019_Aug_27_1320,MusicAffectPsychophysiology2019,3.0.5,60.024333145033154,
To what extent did the music make you feel ,SAD,30MonoWAV/30MonoH4.wav,2,2,1,8,,,,,0,12,12,7,0,1,1,0,,,,,,,,,1,0.7698016309877858,079,001,2019_Aug_27_1320,MusicAffectPsychophysiology2019,3.0.5,60.024333145033154,
To what extent did the music make you feel ,GUILTY,30MonoWAV/30MonoH4.wav,2,2,1,8,,,,,0,12,12,7,0,2,2,5,,,,,,,,,1,0.6368738629971631,079,001,2019_Aug_27_1320,MusicAffectPsychophysiology2019,3.0.5,60.024333145033154,
To what extent did the music make you feel ,SCARED,30MonoWAV/30MonoH4.wav,2,2,1,8,,,,,0,12,12,7,0,3,3,11,,,,,,,,,1,0.5981269670010079,079,001,2019_Aug_27_1320,MusicAffectPsychophysiology2019,3.0.5,60.024333145033154,
To what extent did the music make you feel ,ANXIOUS ,30MonoWAV/30MonoH4.wav,2,2,1,8,,,,,0,12,12,7,0,4,4,1,,,,,,,,,1,0.9856476749991998,079,001,2019_Aug_27_1320,MusicAffectPsychophysiology2019,3.0.5,60.024333145033154,
To what extent did the music make you feel ,TENDER,30MonoWAV/30MonoH4.wav,2,2,1,8,,,,,0,12,12,7,0,5,5,10,,,,,,,,,1,1.2019317669910379,079,001,2019_Aug_27_1320,MusicAffectPsychophysiology2019,3.0.5,60.024333145033154,
To what extent did the music make you feel ,ASHAMED,30MonoWAV/30MonoH4.wav,2,2,1,8,,,,,0,12,12,7,0,6,6,4,,,,,,,,,1,0.9701476919872221,079,001,2019_Aug_27_1320,MusicAffectPsychophysiology2019,3.0.5,60.024333145033154,
To what extent did the music make you feel ,HAPPY,30MonoWAV/30MonoH4.wav,2,2,1,8,,,,,0,12,12,7,0,7,7,6,,,,,,,,,4,1.2363804219930898,079,001,2019_Aug_27_1320,MusicAffectPsychophysiology2019,3.0.5,60.024333145033154,
To what extent did the music make you feel ,ANGRY,30MonoWAV/30MonoH4.wav,2,2,1,8,,,,,0,12,12,7,0,8,8,2,,,,,,,,,1,1.0202057319984306,079,001,2019_Aug_27_1320,MusicAffectPsychophysiology2019,3.0.5,60.024333145033154,
To what extent did the music make you feel ,EXCITED,30MonoWAV/30MonoH4.wav,2,2,1,8,,,,,0,12,12,7,0,9,9,7,,,,,,,,,5,1.4524315309827216,079,001,2019_Aug_27_1320,MusicAffectPsychophysiology2019,3.0.5,60.024333145033154,
To what extent did the music make you feel ,ALERT,30MonoWAV/30MonoH4.wav,2,2,1,8,,,,,0,12,12,7,0,10,10,8,,,,,,,,,5,0.9196754099975806,079,001,2019_Aug_27_1320,MusicAffectPsychophysiology2019,3.0.5,60.024333145033154,
To what extent did the music make you feel ,ACTIVE,30MonoWAV/30MonoH4.wav,2,2,1,8,,,,,0,12,12,7,0,11,11,9,,,,,,,,,5,1.736413070000708,079,001,2019_Aug_27_1320,MusicAffectPsychophysiology2019,3.0.5,60.024333145033154,
,,30MonoWAV/30MonoH4.wav,2,2,1,8,,,,,0,12,12,7,,,,,,,,,,,,,,,079,001,2019_Aug_27_1320,MusicAffectPsychophysiology2019,3.0.5,60.024333145033154,
To what extent did the music make you feel ,ANGRY,30MonoWAV/30MonoH3.wav,2,2,1,7,,,,,0,13,13,6,0,0,0,2,,,4,2.5028188949800096,4,1.9701843080110848,5,0.9375608800037298,1,3.6409267869894393,079,001,2019_Aug_27_1320,MusicAffectPsychophysiology2019,3.0.5,60.024333145033154,
To what extent did the music make you feel ,HAPPY,30MonoWAV/30MonoH3.wav,2,2,1,7,,,,,0,13,13,6,0,1,1,6,,,,,,,,,5,1.541646415978903,079,001,2019_Aug_27_1320,MusicAffectPsychophysiology2019,3.0.5,60.024333145033154,
To what extent did the music make you feel ,ALERT,30MonoWAV/30MonoH3.wav,2,2,1,7,,,,,0,13,13,6,0,2,2,8,,,,,,,,,3,1.2070189589867368,079,001,2019_Aug_27_1320,MusicAffectPsychophysiology2019,3.0.5,60.024333145033154,
To what extent did the music make you feel ,SCARED,30MonoWAV/30MonoH3.wav,2,2,1,7,,,,,0,13,13,6,0,3,3,11,,,,,,,,,1,1.007450795994373,079,001,2019_Aug_27_1320,MusicAffectPsychophysiology2019,3.0.5,60.024333145033154,
To what extent did the music make you feel ,ACTIVE,30MonoWAV/30MonoH3.wav,2,2,1,7,,,,,0,13,13,6,0,4,4,9,,,,,,,,,3,1.1221307469822932,079,001,2019_Aug_27_1320,MusicAffectPsychophysiology2019,3.0.5,60.024333145033154,
To what extent did the music make you feel ,EXCITED,30MonoWAV/30MonoH3.wav,2,2,1,7,,,,,0,13,13,6,0,5,5,7,,,,,,,,,4,1.6244262760155834,079,001,2019_Aug_27_1320,MusicAffectPsychophysiology2019,3.0.5,60.024333145033154,
To what extent did the music make you feel ,ASHAMED,30MonoWAV/30MonoH3.wav,2,2,1,7,,,,,0,13,13,6,0,6,6,4,,,,,,,,,1,0.970388596993871,079,001,2019_Aug_27_1320,MusicAffectPsychophysiology2019,3.0.5,60.024333145033154,
To what extent did the music make you feel ,GUILTY,30MonoWAV/30MonoH3.wav,2,2,1,7,,,,,0,13,13,6,0,7,7,5,,,,,,,,,2,0.9369864620093722,079,001,2019_Aug_27_1320,MusicAffectPsychophysiology2019,3.0.5,60.024333145033154,
To what extent did the music make you feel ,TENDER,30MonoWAV/30MonoH3.wav,2,2,1,7,,,,,0,13,13,6,0,8,8,10,,,,,,,,,1,0.8916012599947862,079,001,2019_Aug_27_1320,MusicAffectPsychophysiology2019,3.0.5,60.024333145033154,
To what extent did the music make you feel ,SAD,30MonoWAV/30MonoH3.wav,2,2,1,7,,,,,0,13,13,6,0,9,9,0,,,,,,,,,2,1.2203077530139126,079,001,2019_Aug_27_1320,MusicAffectPsychophysiology2019,3.0.5,60.024333145033154,
To what extent did the music make you feel ,ANXIOUS ,30MonoWAV/30MonoH3.wav,2,2,1,7,,,,,0,13,13,6,0,10,10,1,,,,,,,,,1,1.0736224929860327,079,001,2019_Aug_27_1320,MusicAffectPsychophysiology2019,3.0.5,60.024333145033154,
To what extent did the music make you feel ,FRUSTRATED,30MonoWAV/30MonoH3.wav,2,2,1,7,,,,,0,13,13,6,0,11,11,3,,,,,,,,,1,0.8394995370181277,079,001,2019_Aug_27_1320,MusicAffectPsychophysiology2019,3.0.5,60.024333145033154,
,,30MonoWAV/30MonoH3.wav,2,2,1,7,,,,,0,13,13,6,,,,,,,,,,,,,,,079,001,2019_Aug_27_1320,MusicAffectPsychophysiology2019,3.0.5,60.024333145033154,
To what extent did the music make you feel ,ANGRY,30MonoWAV/30MonoF1.wav,1,2,2,1,,,,,0,14,14,0,0,0,0,2,,,5,2.353322904004017,2,1.3215953850012738,3,1.052792592003243,4,1.753893501998391,079,001,2019_Aug_27_1320,MusicAffectPsychophysiology2019,3.0.5,60.024333145033154,
To what extent did the music make you feel ,FRUSTRATED,30MonoWAV/30MonoF1.wav,1,2,2,1,,,,,0,14,14,0,0,1,1,3,,,,,,,,,3,1.4036997510120273,079,001,2019_Aug_27_1320,MusicAffectPsychophysiology2019,3.0.5,60.024333145033154,
To what extent did the music make you feel ,SAD,30MonoWAV/30MonoF1.wav,1,2,2,1,,,,,0,14,14,0,0,2,2,0,,,,,,,,,1,0.936703890998615,079,001,2019_Aug_27_1320,MusicAffectPsychophysiology2019,3.0.5,60.024333145033154,
To what extent did the music make you feel ,TENDER,30MonoWAV/30MonoF1.wav,1,2,2,1,,,,,0,14,14,0,0,3,3,10,,,,,,,,,1,0.7680791099846829,079,001,2019_Aug_27_1320,MusicAffectPsychophysiology2019,3.0.5,60.024333145033154,
To what extent did the music make you feel ,ALERT,30MonoWAV/30MonoF1.wav,1,2,2,1,,,,,0,14,14,0,0,4,4,8,,,,,,,,,5,1.4981456509849522,079,001,2019_Aug_27_1320,MusicAffectPsychophysiology2019,3.0.5,60.024333145033154,
To what extent did the music make you feel ,EXCITED,30MonoWAV/30MonoF1.wav,1,2,2,1,,,,,0,14,14,0,0,5,5,7,,,,,,,,,4,1.252115427982062,079,001,2019_Aug_27_1320,MusicAffectPsychophysiology2019,3.0.5,60.024333145033154,
To what extent did the music make you feel ,HAPPY,30MonoWAV/30MonoF1.wav,1,2,2,1,,,,,0,14,14,0,0,6,6,6,,,,,,,,,2,0.9699284190137405,079,001,2019_Aug_27_1320,MusicAffectPsychophysiology2019,3.0.5,60.024333145033154,
To what extent did the music make you feel ,SCARED,30MonoWAV/30MonoF1.wav,1,2,2,1,,,,,0,14,14,0,0,7,7,11,,,,,,,,,4,1.9014066249947064,079,001,2019_Aug_27_1320,MusicAffectPsychophysiology2019,3.0.5,60.024333145033154,
To what extent did the music make you feel ,ANXIOUS ,30MonoWAV/30MonoF1.wav,1,2,2,1,,,,,0,14,14,0,0,8,8,1,,,,,,,,,4,1.083301559992833,079,001,2019_Aug_27_1320,MusicAffectPsychophysiology2019,3.0.5,60.024333145033154,
To what extent did the music make you feel ,GUILTY,30MonoWAV/30MonoF1.wav,1,2,2,1,,,,,0,14,14,0,0,9,9,5,,,,,,,,,1,1.202746955998009,079,001,2019_Aug_27_1320,MusicAffectPsychophysiology2019,3.0.5,60.024333145033154,
To what extent did the music make you feel ,ACTIVE,30MonoWAV/30MonoF1.wav,1,2,2,1,,,,,0,14,14,0,0,10,10,9,,,,,,,,,3,1.069687421026174,079,001,2019_Aug_27_1320,MusicAffectPsychophysiology2019,3.0.5,60.024333145033154,
To what extent did the music make you feel ,ASHAMED,30MonoWAV/30MonoF1.wav,1,2,2,1,,,,,0,14,14,0,0,11,11,4,,,,,,,,,1,1.1536335129931103,079,001,2019_Aug_27_1320,MusicAffectPsychophysiology2019,3.0.5,60.024333145033154,
,,30MonoWAV/30MonoF1.wav,1,2,2,1,,,,,0,14,14,0,,,,,,,,,,,,,,,079,001,2019_Aug_27_1320,MusicAffectPsychophysiology2019,3.0.5,60.024333145033154,
To what extent did the music make you feel ,ANXIOUS ,30MonoWAV/30MonoS4.wav,1,1,3,12,,,,,0,15,15,11,0,0,0,1,,,1,2.0197284879977815,4,1.3339228880067822,3,1.2870390029856935,1,1.070256553008221,079,001,2019_Aug_27_1320,MusicAffectPsychophysiology2019,3.0.5,60.024333145033154,
To what extent did the music make you feel ,FRUSTRATED,30MonoWAV/30MonoS4.wav,1,1,3,12,,,,,0,15,15,11,0,1,1,3,,,,,,,,,1,0.6611258389893919,079,001,2019_Aug_27_1320,MusicAffectPsychophysiology2019,3.0.5,60.024333145033154,
To what extent did the music make you feel ,ANGRY,30MonoWAV/30MonoS4.wav,1,1,3,12,,,,,0,15,15,11,0,2,2,2,,,,,,,,,1,0.5189504080044571,079,001,2019_Aug_27_1320,MusicAffectPsychophysiology2019,3.0.5,60.024333145033154,
To what extent did the music make you feel ,EXCITED,30MonoWAV/30MonoS4.wav,1,1,3,12,,,,,0,15,15,11,0,3,3,7,,,,,,,,,2,1.58617389498977,079,001,2019_Aug_27_1320,MusicAffectPsychophysiology2019,3.0.5,60.024333145033154,
To what extent did the music make you feel ,GUILTY,30MonoWAV/30MonoS4.wav,1,1,3,12,,,,,0,15,15,11,0,4,4,5,,,,,,,,,1,1.7197856009879615,079,001,2019_Aug_27_1320,MusicAffectPsychophysiology2019,3.0.5,60.024333145033154,
To what extent did the music make you feel ,HAPPY,30MonoWAV/30MonoS4.wav,1,1,3,12,,,,,0,15,15,11,0,5,5,6,,,,,,,,,2,1.4540252599981613,079,001,2019_Aug_27_1320,MusicAffectPsychophysiology2019,3.0.5,60.024333145033154,
To what extent did the music make you feel ,ACTIVE,30MonoWAV/30MonoS4.wav,1,1,3,12,,,,,0,15,15,11,0,6,6,9,,,,,,,,,1,0.7769658879842609,079,001,2019_Aug_27_1320,MusicAffectPsychophysiology2019,3.0.5,60.024333145033154,
To what extent did the music make you feel ,ALERT,30MonoWAV/30MonoS4.wav,1,1,3,12,,,,,0,15,15,11,0,7,7,8,,,,,,,,,1,0.7504845740040764,079,001,2019_Aug_27_1320,MusicAffectPsychophysiology2019,3.0.5,60.024333145033154,
To what extent did the music make you feel ,SCARED,30MonoWAV/30MonoS4.wav,1,1,3,12,,,,,0,15,15,11,0,8,8,11,,,,,,,,,2,1.536152882996248,079,001,2019_Aug_27_1320,MusicAffectPsychophysiology2019,3.0.5,60.024333145033154,
To what extent did the music make you feel ,ASHAMED,30MonoWAV/30MonoS4.wav,1,1,3,12,,,,,0,15,15,11,0,9,9,4,,,,,,,,,2,1.093441758013796,079,001,2019_Aug_27_1320,MusicAffectPsychophysiology2019,3.0.5,60.024333145033154,
To what extent did the music make you feel ,TENDER,30MonoWAV/30MonoS4.wav,1,1,3,12,,,,,0,15,15,11,0,10,10,10,,,,,,,,,2,1.194307508005295,079,001,2019_Aug_27_1320,MusicAffectPsychophysiology2019,3.0.5,60.024333145033154,
To what extent did the music make you feel ,SAD,30MonoWAV/30MonoS4.wav,1,1,3,12,,,,,0,15,15,11,0,11,11,0,,,,,,,,,2,2.519890038005542,079,001,2019_Aug_27_1320,MusicAffectPsychophysiology2019,3.0.5,60.024333145033154,
,,30MonoWAV/30MonoS4.wav,1,1,3,12,,,,,0,15,15,11,,,,,,,,,,,,,,,079,001,2019_Aug_27_1320,MusicAffectPsychophysiology2019,3.0.5,60.024333145033154,
To what extent did the music make you feel ,ALERT,30MonoWAV/30MonoT1.wav,2,1,4,13,,,,,1,0,16,12,0,0,0,8,,,2,3.1001869959873147,5,1.918283347011311,4,1.085498367989203,1,1.3035517650132533,079,001,2019_Aug_27_1320,MusicAffectPsychophysiology2019,3.0.5,60.024333145033154,
To what extent did the music make you feel ,ASHAMED,30MonoWAV/30MonoT1.wav,2,1,4,13,,,,,1,0,16,12,0,1,1,4,,,,,,,,,1,1.0214874719968066,079,001,2019_Aug_27_1320,MusicAffectPsychophysiology2019,3.0.5,60.024333145033154,
To what extent did the music make you feel ,TENDER,30MonoWAV/30MonoT1.wav,2,1,4,13,,,,,1,0,16,12,0,2,2,10,,,,,,,,,4,2.0015812760102563,079,001,2019_Aug_27_1320,MusicAffectPsychophysiology2019,3.0.5,60.024333145033154,
To what extent did the music make you feel ,SAD,30MonoWAV/30MonoT1.wav,2,1,4,13,,,,,1,0,16,12,0,3,3,0,,,,,,,,,1,1.021604972978821,079,001,2019_Aug_27_1320,MusicAffectPsychophysiology2019,3.0.5,60.024333145033154,
To what extent did the music make you feel ,SCARED,30MonoWAV/30MonoT1.wav,2,1,4,13,,,,,1,0,16,12,0,4,4,11,,,,,,,,,1,0.7213779879966751,079,001,2019_Aug_27_1320,MusicAffectPsychophysiology2019,3.0.5,60.024333145033154,
To what extent did the music make you feel ,GUILTY,30MonoWAV/30MonoT1.wav,2,1,4,13,,,,,1,0,16,12,0,5,5,5,,,,,,,,,1,0.7207646010210738,079,001,2019_Aug_27_1320,MusicAffectPsychophysiology2019,3.0.5,60.024333145033154,
To what extent did the music make you feel ,ANXIOUS ,30MonoWAV/30MonoT1.wav,2,1,4,13,,,,,1,0,16,12,0,6,6,1,,,,,,,,,1,0.670114498003386,079,001,2019_Aug_27_1320,MusicAffectPsychophysiology2019,3.0.5,60.024333145033154,
To what extent did the music make you feel ,ANGRY,30MonoWAV/30MonoT1.wav,2,1,4,13,,,,,1,0,16,12,0,7,7,2,,,,,,,,,1,0.8038048339949455,079,001,2019_Aug_27_1320,MusicAffectPsychophysiology2019,3.0.5,60.024333145033154,
To what extent did the music make you feel ,ACTIVE,30MonoWAV/30MonoT1.wav,2,1,4,13,,,,,1,0,16,12,0,8,8,9,,,,,,,,,2,1.6530121020041406,079,001,2019_Aug_27_1320,MusicAffectPsychophysiology2019,3.0.5,60.024333145033154,
To what extent did the music make you feel ,HAPPY,30MonoWAV/30MonoT1.wav,2,1,4,13,,,,,1,0,16,12,0,9,9,6,,,,,,,,,5,1.4872298289847095,079,001,2019_Aug_27_1320,MusicAffectPsychophysiology2019,3.0.5,60.024333145033154,
To what extent did the music make you feel ,EXCITED,30MonoWAV/30MonoT1.wav,2,1,4,13,,,,,1,0,16,12,0,10,10,7,,,,,,,,,2,1.7171033170016017,079,001,2019_Aug_27_1320,MusicAffectPsychophysiology2019,3.0.5,60.024333145033154,
To what extent did the music make you feel ,FRUSTRATED,30MonoWAV/30MonoT1.wav,2,1,4,13,,,,,1,0,16,12,0,11,11,3,,,,,,,,,1,0.6694038799905684,079,001,2019_Aug_27_1320,MusicAffectPsychophysiology2019,3.0.5,60.024333145033154,
,,30MonoWAV/30MonoT1.wav,2,1,4,13,,,,,1,0,16,12,,,,,,,,,,,,,,,079,001,2019_Aug_27_1320,MusicAffectPsychophysiology2019,3.0.5,60.024333145033154,
To what extent did the music make you feel ,ANGRY,30MonoWAV/30MonoH4.wav,2,2,1,8,,,,,1,1,17,7,0,0,0,2,,,5,0.8161929140042048,5,0.6041955319815315,5,0.3376281959936023,1,0.9369149199919775,079,001,2019_Aug_27_1320,MusicAffectPsychophysiology2019,3.0.5,60.024333145033154,
To what extent did the music make you feel ,ANXIOUS ,30MonoWAV/30MonoH4.wav,2,2,1,8,,,,,1,1,17,7,0,1,1,1,,,,,,,,,1,0.9707758899894543,079,001,2019_Aug_27_1320,MusicAffectPsychophysiology2019,3.0.5,60.024333145033154,
To what extent did the music make you feel ,ALERT,30MonoWAV/30MonoH4.wav,2,2,1,8,,,,,1,1,17,7,0,2,2,8,,,,,,,,,5,1.2157942350022495,079,001,2019_Aug_27_1320,MusicAffectPsychophysiology2019,3.0.5,60.024333145033154,
To what extent did the music make you feel ,ACTIVE,30MonoWAV/30MonoH4.wav,2,2,1,8,,,,,1,1,17,7,0,3,3,9,,,,,,,,,5,0.5651239189901389,079,001,2019_Aug_27_1320,MusicAffectPsychophysiology2019,3.0.5,60.024333145033154,
To what extent did the music make you feel ,GUILTY,30MonoWAV/30MonoH4.wav,2,2,1,8,,,,,1,1,17,7,0,4,4,5,,,,,,,,,1,0.8315887649951037,079,001,2019_Aug_27_1320,MusicAffectPsychophysiology2019,3.0.5,60.024333145033154,
To what extent did the music make you feel ,SCARED,30MonoWAV/30MonoH4.wav,2,2,1,8,,,,,1,1,17,7,0,5,5,11,,,,,,,,,1,0.7314681650022976,079,001,2019_Aug_27_1320,MusicAffectPsychophysiology2019,3.0.5,60.024333145033154,
To what extent did the music make you feel ,HAPPY,30MonoWAV/30MonoH4.wav,2,2,1,8,,,,,1,1,17,7,0,6,6,6,,,,,,,,,5,1.0043945150100626,079,001,2019_Aug_27_1320,MusicAffectPsychophysiology2019,3.0.5,60.024333145033154,
To what extent did the music make you feel ,TENDER,30MonoWAV/30MonoH4.wav,2,2,1,8,,,,,1,1,17,7,0,7,7,10,,,,,,,,,1,1.2449644570006058,079,001,2019_Aug_27_1320,MusicAffectPsychophysiology2019,3.0.5,60.024333145033154,
To what extent did the music make you feel ,EXCITED,30MonoWAV/30MonoH4.wav,2,2,1,8,,,,,1,1,17,7,0,8,8,7,,,,,,,,,5,1.2027023129921872,079,001,2019_Aug_27_1320,MusicAffectPsychophysiology2019,3.0.5,60.024333145033154,
To what extent did the music make you feel ,ASHAMED,30MonoWAV/30MonoH4.wav,2,2,1,8,,,,,1,1,17,7,0,9,9,4,,,,,,,,,1,0.7479740050039254,079,001,2019_Aug_27_1320,MusicAffectPsychophysiology2019,3.0.5,60.024333145033154,
To what extent did the music make you feel ,SAD,30MonoWAV/30MonoH4.wav,2,2,1,8,,,,,1,1,17,7,0,10,10,0,,,,,,,,,1,0.5212863860069774,079,001,2019_Aug_27_1320,MusicAffectPsychophysiology2019,3.0.5,60.024333145033154,
To what extent did the music make you feel ,FRUSTRATED,30MonoWAV/30MonoH4.wav,2,2,1,8,,,,,1,1,17,7,0,11,11,3,,,,,,,,,1,0.44722224699216895,079,001,2019_Aug_27_1320,MusicAffectPsychophysiology2019,3.0.5,60.024333145033154,
,,30MonoWAV/30MonoH4.wav,2,2,1,8,,,,,1,1,17,7,,,,,,,,,,,,,,,079,001,2019_Aug_27_1320,MusicAffectPsychophysiology2019,3.0.5,60.024333145033154,
To what extent did the music make you feel ,SCARED,30MonoWAV/30MonoH3.wav,2,2,1,7,,,,,1,2,18,6,0,0,0,11,,,3,1.953155486000469,4,1.5502973140100949,4,1.3202145950053819,1,1.3089481969946064,079,001,2019_Aug_27_1320,MusicAffectPsychophysiology2019,3.0.5,60.024333145033154,
To what extent did the music make you feel ,FRUSTRATED,30MonoWAV/30MonoH3.wav,2,2,1,7,,,,,1,2,18,6,0,1,1,3,,,,,,,,,1,0.6254088490095455,079,001,2019_Aug_27_1320,MusicAffectPsychophysiology2019,3.0.5,60.024333145033154,
To what extent did the music make you feel ,GUILTY,30MonoWAV/30MonoH3.wav,2,2,1,7,,,,,1,2,18,6,0,2,2,5,,,,,,,,,1,0.8029331440047827,079,001,2019_Aug_27_1320,MusicAffectPsychophysiology2019,3.0.5,60.024333145033154,
To what extent did the music make you feel ,ANGRY,30MonoWAV/30MonoH3.wav,2,2,1,7,,,,,1,2,18,6,0,3,3,2,,,,,,,,,2,1.1759272099880036,079,001,2019_Aug_27_1320,MusicAffectPsychophysiology2019,3.0.5,60.024333145033154,
To what extent did the music make you feel ,EXCITED,30MonoWAV/30MonoH3.wav,2,2,1,7,,,,,1,2,18,6,0,4,4,7,,,,,,,,,5,1.4586500790028367,079,001,2019_Aug_27_1320,MusicAffectPsychophysiology2019,3.0.5,60.024333145033154,
To what extent did the music make you feel ,ALERT,30MonoWAV/30MonoH3.wav,2,2,1,7,,,,,1,2,18,6,0,5,5,8,,,,,,,,,4,1.3913072620052844,079,001,2019_Aug_27_1320,MusicAffectPsychophysiology2019,3.0.5,60.024333145033154,
To what extent did the music make you feel ,TENDER,30MonoWAV/30MonoH3.wav,2,2,1,7,,,,,1,2,18,6,0,6,6,10,,,,,,,,,1,1.4422056690091267,079,001,2019_Aug_27_1320,MusicAffectPsychophysiology2019,3.0.5,60.024333145033154,
To what extent did the music make you feel ,ACTIVE,30MonoWAV/30MonoH3.wav,2,2,1,7,,,,,1,2,18,6,0,7,7,9,,,,,,,,,3,1.505780331994174,079,001,2019_Aug_27_1320,MusicAffectPsychophysiology2019,3.0.5,60.024333145033154,
To what extent did the music make you feel ,SAD,30MonoWAV/30MonoH3.wav,2,2,1,7,,,,,1,2,18,6,0,8,8,0,,,,,,,,,2,1.270583475008607,079,001,2019_Aug_27_1320,MusicAffectPsychophysiology2019,3.0.5,60.024333145033154,
To what extent did the music make you feel ,ANXIOUS ,30MonoWAV/30MonoH3.wav,2,2,1,7,,,,,1,2,18,6,0,9,9,1,,,,,,,,,1,0.908354657003656,079,001,2019_Aug_27_1320,MusicAffectPsychophysiology2019,3.0.5,60.024333145033154,
To what extent did the music make you feel ,ASHAMED,30MonoWAV/30MonoH3.wav,2,2,1,7,,,,,1,2,18,6,0,10,10,4,,,,,,,,,1,0.8744162129878532,079,001,2019_Aug_27_1320,MusicAffectPsychophysiology2019,3.0.5,60.024333145033154,
To what extent did the music make you feel ,HAPPY,30MonoWAV/30MonoH3.wav,2,2,1,7,,,,,1,2,18,6,0,11,11,6,,,,,,,,,5,1.3043697770044673,079,001,2019_Aug_27_1320,MusicAffectPsychophysiology2019,3.0.5,60.024333145033154,
,,30MonoWAV/30MonoH3.wav,2,2,1,7,,,,,1,2,18,6,,,,,,,,,,,,,,,079,001,2019_Aug_27_1320,MusicAffectPsychophysiology2019,3.0.5,60.024333145033154,
To what extent did the music make you feel ,HAPPY,30MonoWAV/30MonoS4.wav,1,1,3,12,,,,,1,3,19,11,0,0,0,6,,,2,3.6861229710048065,3,1.75292706899927,3,1.5364629520045128,3,1.5698689940036274,079,001,2019_Aug_27_1320,MusicAffectPsychophysiology2019,3.0.5,60.024333145033154,
To what extent did the music make you feel ,FRUSTRATED,30MonoWAV/30MonoS4.wav,1,1,3,12,,,,,1,3,19,11,0,1,1,3,,,,,,,,,1,0.9698696879786439,079,001,2019_Aug_27_1320,MusicAffectPsychophysiology2019,3.0.5,60.024333145033154,
To what extent did the music make you feel ,SCARED,30MonoWAV/30MonoS4.wav,1,1,3,12,,,,,1,3,19,11,0,2,2,11,,,,,,,,,1,1.2341601910011377,079,001,2019_Aug_27_1320,MusicAffectPsychophysiology2019,3.0.5,60.024333145033154,
To what extent did the music make you feel ,ANGRY,30MonoWAV/30MonoS4.wav,1,1,3,12,,,,,1,3,19,11,0,3,3,2,,,,,,,,,1,0.7038893700228073,079,001,2019_Aug_27_1320,MusicAffectPsychophysiology2019,3.0.5,60.024333145033154,
To what extent did the music make you feel ,ALERT,30MonoWAV/30MonoS4.wav,1,1,3,12,,,,,1,3,19,11,0,4,4,8,,,,,,,,,2,1.4183797180012334,079,001,2019_Aug_27_1320,MusicAffectPsychophysiology2019,3.0.5,60.024333145033154,
To what extent did the music make you feel ,ASHAMED,30MonoWAV/30MonoS4.wav,1,1,3,12,,,,,1,3,19,11,0,5,5,4,,,,,,,,,2,1.8863033189845737,079,001,2019_Aug_27_1320,MusicAffectPsychophysiology2019,3.0.5,60.024333145033154,
To what extent did the music make you feel ,GUILTY,30MonoWAV/30MonoS4.wav,1,1,3,12,,,,,1,3,19,11,0,6,6,5,,,,,,,,,2,0.8354856309888419,079,001,2019_Aug_27_1320,MusicAffectPsychophysiology2019,3.0.5,60.024333145033154,
To what extent did the music make you feel ,SAD,30MonoWAV/30MonoS4.wav,1,1,3,12,,,,,1,3,19,11,0,7,7,0,,,,,,,,,3,1.2359352680214215,079,001,2019_Aug_27_1320,MusicAffectPsychophysiology2019,3.0.5,60.024333145033154,
To what extent did the music make you feel ,TENDER,30MonoWAV/30MonoS4.wav,1,1,3,12,,,,,1,3,19,11,0,8,8,10,,,,,,,,,3,1.4827355419984087,079,001,2019_Aug_27_1320,MusicAffectPsychophysiology2019,3.0.5,60.024333145033154,
To what extent did the music make you feel ,ACTIVE,30MonoWAV/30MonoS4.wav,1,1,3,12,,,,,1,3,19,11,0,9,9,9,,,,,,,,,1,3.8023060050036293,079,001,2019_Aug_27_1320,MusicAffectPsychophysiology2019,3.0.5,60.024333145033154,
To what extent did the music make you feel ,EXCITED,30MonoWAV/30MonoS4.wav,1,1,3,12,,,,,1,3,19,11,0,10,10,7,,,,,,,,,1,0.887292086990783,079,001,2019_Aug_27_1320,MusicAffectPsychophysiology2019,3.0.5,60.024333145033154,
To what extent did the music make you feel ,ANXIOUS ,30MonoWAV/30MonoS4.wav,1,1,3,12,,,,,1,3,19,11,0,11,11,1,,,,,,,,,1,1.1528551930096,079,001,2019_Aug_27_1320,MusicAffectPsychophysiology2019,3.0.5,60.024333145033154,
,,30MonoWAV/30MonoS4.wav,1,1,3,12,,,,,1,3,19,11,,,,,,,,,,,,,,,079,001,2019_Aug_27_1320,MusicAffectPsychophysiology2019,3.0.5,60.024333145033154,
To what extent did the music make you feel ,ALERT,30MonoWAV/30MonoH2.wav,2,2,1,6,,,,,1,4,20,5,0,0,0,8,,,4,2.6869486270006746,3,1.4547405819757842,4,1.4363222740066703,3,1.8194203949824441,079,001,2019_Aug_27_1320,MusicAffectPsychophysiology2019,3.0.5,60.024333145033154,
To what extent did the music make you feel ,ANXIOUS ,30MonoWAV/30MonoH2.wav,2,2,1,6,,,,,1,4,20,5,0,1,1,1,,,,,,,,,1,1.7094718280131929,079,001,2019_Aug_27_1320,MusicAffectPsychophysiology2019,3.0.5,60.024333145033154,
To what extent did the music make you feel ,ANGRY,30MonoWAV/30MonoH2.wav,2,2,1,6,,,,,1,4,20,5,0,2,2,2,,,,,,,,,1,1.8868016810156405,079,001,2019_Aug_27_1320,MusicAffectPsychophysiology2019,3.0.5,60.024333145033154,
To what extent did the music make you feel ,SCARED,30MonoWAV/30MonoH2.wav,2,2,1,6,,,,,1,4,20,5,0,3,3,11,,,,,,,,,1,1.1081238960032351,079,001,2019_Aug_27_1320,MusicAffectPsychophysiology2019,3.0.5,60.024333145033154,
To what extent did the music make you feel ,TENDER,30MonoWAV/30MonoH2.wav,2,2,1,6,,,,,1,4,20,5,0,4,4,10,,,,,,,,,1,0.7845495810033754,079,001,2019_Aug_27_1320,MusicAffectPsychophysiology2019,3.0.5,60.024333145033154,
To what extent did the music make you feel ,GUILTY,30MonoWAV/30MonoH2.wav,2,2,1,6,,,,,1,4,20,5,0,5,5,5,,,,,,,,,2,1.4703169749991503,079,001,2019_Aug_27_1320,MusicAffectPsychophysiology2019,3.0.5,60.024333145033154,
To what extent did the music make you feel ,ASHAMED,30MonoWAV/30MonoH2.wav,2,2,1,6,,,,,1,4,20,5,0,6,6,4,,,,,,,,,3,1.144463814998744,079,001,2019_Aug_27_1320,MusicAffectPsychophysiology2019,3.0.5,60.024333145033154,
To what extent did the music make you feel ,ACTIVE,30MonoWAV/30MonoH2.wav,2,2,1,6,,,,,1,4,20,5,0,7,7,9,,,,,,,,,4,2.1250612100120634,079,001,2019_Aug_27_1320,MusicAffectPsychophysiology2019,3.0.5,60.024333145033154,
To what extent did the music make you feel ,EXCITED,30MonoWAV/30MonoH2.wav,2,2,1,6,,,,,1,4,20,5,0,8,8,7,,,,,,,,,2,1.453079521015752,079,001,2019_Aug_27_1320,MusicAffectPsychophysiology2019,3.0.5,60.024333145033154,
To what extent did the music make you feel ,HAPPY,30MonoWAV/30MonoH2.wav,2,2,1,6,,,,,1,4,20,5,0,9,9,6,,,,,,,,,3,1.3527001900074538,079,001,2019_Aug_27_1320,MusicAffectPsychophysiology2019,3.0.5,60.024333145033154,
To what extent did the music make you feel ,SAD,30MonoWAV/30MonoH2.wav,2,2,1,6,,,,,1,4,20,5,0,10,10,0,,,,,,,,,1,0.9939975280140061,079,001,2019_Aug_27_1320,MusicAffectPsychophysiology2019,3.0.5,60.024333145033154,
To what extent did the music make you feel ,FRUSTRATED,30MonoWAV/30MonoH2.wav,2,2,1,6,,,,,1,4,20,5,0,11,11,3,,,,,,,,,1,0.9770644240197726,079,001,2019_Aug_27_1320,MusicAffectPsychophysiology2019,3.0.5,60.024333145033154,
,,30MonoWAV/30MonoH2.wav,2,2,1,6,,,,,1,4,20,5,,,,,,,,,,,,,,,079,001,2019_Aug_27_1320,MusicAffectPsychophysiology2019,3.0.5,60.024333145033154,
To what extent did the music make you feel ,GUILTY,30MonoWAV/30MonoF4.wav,1,2,2,4,,,,,1,5,21,3,0,0,0,5,,,5,1.8205010150268208,2,1.8370066219940782,3,1.4702988390054088,3,1.6881173779838718,079,001,2019_Aug_27_1320,MusicAffectPsychophysiology2019,3.0.5,60.024333145033154,
To what extent did the music make you feel ,ANXIOUS ,30MonoWAV/30MonoF4.wav,1,2,2,4,,,,,1,5,21,3,0,1,1,1,,,,,,,,,4,1.2047843540203758,079,001,2019_Aug_27_1320,MusicAffectPsychophysiology2019,3.0.5,60.024333145033154,
To what extent did the music make you feel ,ANGRY,30MonoWAV/30MonoF4.wav,1,2,2,4,,,,,1,5,21,3,0,2,2,2,,,,,,,,,2,1.1714406779792625,079,001,2019_Aug_27_1320,MusicAffectPsychophysiology2019,3.0.5,60.024333145033154,
To what extent did the music make you feel ,ACTIVE,30MonoWAV/30MonoF4.wav,1,2,2,4,,,,,1,5,21,3,0,3,3,9,,,,,,,,,3,1.571782376995543,079,001,2019_Aug_27_1320,MusicAffectPsychophysiology2019,3.0.5,60.024333145033154,
To what extent did the music make you feel ,SAD,30MonoWAV/30MonoF4.wav,1,2,2,4,,,,,1,5,21,3,0,4,4,0,,,,,,,,,1,0.8194342119968496,079,001,2019_Aug_27_1320,MusicAffectPsychophysiology2019,3.0.5,60.024333145033154,
To what extent did the music make you feel ,ALERT,30MonoWAV/30MonoF4.wav,1,2,2,4,,,,,1,5,21,3,0,5,5,8,,,,,,,,,4,1.1022005309932865,079,001,2019_Aug_27_1320,MusicAffectPsychophysiology2019,3.0.5,60.024333145033154,
To what extent did the music make you feel ,SCARED,30MonoWAV/30MonoF4.wav,1,2,2,4,,,,,1,5,21,3,0,6,6,11,,,,,,,,,4,1.3355505510116927,079,001,2019_Aug_27_1320,MusicAffectPsychophysiology2019,3.0.5,60.024333145033154,
To what extent did the music make you feel ,ASHAMED,30MonoWAV/30MonoF4.wav,1,2,2,4,,,,,1,5,21,3,0,7,7,4,,,,,,,,,1,1.0189617710129824,079,001,2019_Aug_27_1320,MusicAffectPsychophysiology2019,3.0.5,60.024333145033154,
To what extent did the music make you feel ,HAPPY,30MonoWAV/30MonoF4.wav,1,2,2,4,,,,,1,5,21,3,0,8,8,6,,,,,,,,,2,1.5860831949976273,079,001,2019_Aug_27_1320,MusicAffectPsychophysiology2019,3.0.5,60.024333145033154,
To what extent did the music make you feel ,FRUSTRATED,30MonoWAV/30MonoF4.wav,1,2,2,4,,,,,1,5,21,3,0,9,9,3,,,,,,,,,3,1.4362301639921498,079,001,2019_Aug_27_1320,MusicAffectPsychophysiology2019,3.0.5,60.024333145033154,
To what extent did the music make you feel ,TENDER,30MonoWAV/30MonoF4.wav,1,2,2,4,,,,,1,5,21,3,0,10,10,10,,,,,,,,,1,1.0544797940237913,079,001,2019_Aug_27_1320,MusicAffectPsychophysiology2019,3.0.5,60.024333145033154,
To what extent did the music make you feel ,EXCITED,30MonoWAV/30MonoF4.wav,1,2,2,4,,,,,1,5,21,3,0,11,11,7,,,,,,,,,2,4.253444016008871,079,001,2019_Aug_27_1320,MusicAffectPsychophysiology2019,3.0.5,60.024333145033154,
,,30MonoWAV/30MonoF4.wav,1,2,2,4,,,,,1,5,21,3,,,,,,,,,,,,,,,079,001,2019_Aug_27_1320,MusicAffectPsychophysiology2019,3.0.5,60.024333145033154,
To what extent did the music make you feel ,ASHAMED,30MonoWAV/30MonoT2.wav,2,1,4,14,,,,,1,6,22,13,0,0,0,4,,,2,3.6198385510069784,3,1.3695385309983976,2,0.8195451440114994,1,1.452867669024272,079,001,2019_Aug_27_1320,MusicAffectPsychophysiology2019,3.0.5,60.024333145033154,
To what extent did the music make you feel ,SCARED,30MonoWAV/30MonoT2.wav,2,1,4,14,,,,,1,6,22,13,0,1,1,11,,,,,,,,,1,0.9484010110027157,079,001,2019_Aug_27_1320,MusicAffectPsychophysiology2019,3.0.5,60.024333145033154,
To what extent did the music make you feel ,ANXIOUS ,30MonoWAV/30MonoT2.wav,2,1,4,14,,,,,1,6,22,13,0,2,2,1,,,,,,,,,1,0.79805490601575,079,001,2019_Aug_27_1320,MusicAffectPsychophysiology2019,3.0.5,60.024333145033154,
To what extent did the music make you feel ,ANGRY,30MonoWAV/30MonoT2.wav,2,1,4,14,,,,,1,6,22,13,0,3,3,2,,,,,,,,,1,1.0700328940001782,079,001,2019_Aug_27_1320,MusicAffectPsychophysiology2019,3.0.5,60.024333145033154,
To what extent did the music make you feel ,ALERT,30MonoWAV/30MonoT2.wav,2,1,4,14,,,,,1,6,22,13,0,4,4,8,,,,,,,,,1,0.8140024530002847,079,001,2019_Aug_27_1320,MusicAffectPsychophysiology2019,3.0.5,60.024333145033154,
To what extent did the music make you feel ,TENDER,30MonoWAV/30MonoT2.wav,2,1,4,14,,,,,1,6,22,13,0,5,5,10,,,,,,,,,2,1.1146927429945208,079,001,2019_Aug_27_1320,MusicAffectPsychophysiology2019,3.0.5,60.024333145033154,
To what extent did the music make you feel ,FRUSTRATED,30MonoWAV/30MonoT2.wav,2,1,4,14,,,,,1,6,22,13,0,6,6,3,,,,,,,,,1,1.6468454730056692,079,001,2019_Aug_27_1320,MusicAffectPsychophysiology2019,3.0.5,60.024333145033154,
To what extent did the music make you feel ,HAPPY,30MonoWAV/30MonoT2.wav,2,1,4,14,,,,,1,6,22,13,0,7,7,6,,,,,,,,,3,1.6536559569940437,079,001,2019_Aug_27_1320,MusicAffectPsychophysiology2019,3.0.5,60.024333145033154,
To what extent did the music make you feel ,EXCITED,30MonoWAV/30MonoT2.wav,2,1,4,14,,,,,1,6,22,13,0,8,8,7,,,,,,,,,1,1.0643707790004555,079,001,2019_Aug_27_1320,MusicAffectPsychophysiology2019,3.0.5,60.024333145033154,
To what extent did the music make you feel ,GUILTY,30MonoWAV/30MonoT2.wav,2,1,4,14,,,,,1,6,22,13,0,9,9,5,,,,,,,,,2,0.9697503719944507,079,001,2019_Aug_27_1320,MusicAffectPsychophysiology2019,3.0.5,60.024333145033154,
To what extent did the music make you feel ,SAD,30MonoWAV/30MonoT2.wav,2,1,4,14,,,,,1,6,22,13,0,10,10,0,,,,,,,,,2,0.9327462610090151,079,001,2019_Aug_27_1320,MusicAffectPsychophysiology2019,3.0.5,60.024333145033154,
To what extent did the music make you feel ,ACTIVE,30MonoWAV/30MonoT2.wav,2,1,4,14,,,,,1,6,22,13,0,11,11,9,,,,,,,,,1,0.6874514390074182,079,001,2019_Aug_27_1320,MusicAffectPsychophysiology2019,3.0.5,60.024333145033154,
,,30MonoWAV/30MonoT2.wav,2,1,4,14,,,,,1,6,22,13,,,,,,,,,,,,,,,079,001,2019_Aug_27_1320,MusicAffectPsychophysiology2019,3.0.5,60.024333145033154,
To what extent did the music make you feel ,GUILTY,30MonoWAV/30MonoT3.wav,2,1,4,15,,,,,1,7,23,14,0,0,0,5,,,1,2.253811588016106,2,1.3530250990006607,3,1.7865315660019405,1,1.1591044609958772,079,001,2019_Aug_27_1320,MusicAffectPsychophysiology2019,3.0.5,60.024333145033154,
To what extent did the music make you feel ,ALERT,30MonoWAV/30MonoT3.wav,2,1,4,15,,,,,1,7,23,14,0,1,1,8,,,,,,,,,1,1.0418549199821427,079,001,2019_Aug_27_1320,MusicAffectPsychophysiology2019,3.0.5,60.024333145033154,
To what extent did the music make you feel ,SCARED,30MonoWAV/30MonoT3.wav,2,1,4,15,,,,,1,7,23,14,0,2,2,11,,,,,,,,,2,1.0553940609970596,079,001,2019_Aug_27_1320,MusicAffectPsychophysiology2019,3.0.5,60.024333145033154,
To what extent did the music make you feel ,TENDER,30MonoWAV/30MonoT3.wav,2,1,4,15,,,,,1,7,23,14,0,3,3,10,,,,,,,,,1,0.8081543190055527,079,001,2019_Aug_27_1320,MusicAffectPsychophysiology2019,3.0.5,60.024333145033154,
To what extent did the music make you feel ,ASHAMED,30MonoWAV/30MonoT3.wav,2,1,4,15,,,,,1,7,23,14,0,4,4,4,,,,,,,,,1,2.9039345790224615,079,001,2019_Aug_27_1320,MusicAffectPsychophysiology2019,3.0.5,60.024333145033154,
To what extent did the music make you feel ,ACTIVE,30MonoWAV/30MonoT3.wav,2,1,4,15,,,,,1,7,23,14,0,5,5,9,,,,,,,,,1,0.7536271199933253,079,001,2019_Aug_27_1320,MusicAffectPsychophysiology2019,3.0.5,60.024333145033154,
To what extent did the music make you feel ,EXCITED,30MonoWAV/30MonoT3.wav,2,1,4,15,,,,,1,7,23,14,0,6,6,7,,,,,,,,,1,0.620661540015135,079,001,2019_Aug_27_1320,MusicAffectPsychophysiology2019,3.0.5,60.024333145033154,
To what extent did the music make you feel ,FRUSTRATED,30MonoWAV/30MonoT3.wav,2,1,4,15,,,,,1,7,23,14,0,7,7,3,,,,,,,,,2,1.0581828519934788,079,001,2019_Aug_27_1320,MusicAffectPsychophysiology2019,3.0.5,60.024333145033154,
To what extent did the music make you feel ,ANGRY,30MonoWAV/30MonoT3.wav,2,1,4,15,,,,,1,7,23,14,0,8,8,2,,,,,,,,,1,1.1398399020254146,079,001,2019_Aug_27_1320,MusicAffectPsychophysiology2019,3.0.5,60.024333145033154,
To what extent did the music make you feel ,ANXIOUS ,30MonoWAV/30MonoT3.wav,2,1,4,15,,,,,1,7,23,14,0,9,9,1,,,,,,,,,1,0.8200487659778446,079,001,2019_Aug_27_1320,MusicAffectPsychophysiology2019,3.0.5,60.024333145033154,
To what extent did the music make you feel ,HAPPY,30MonoWAV/30MonoT3.wav,2,1,4,15,,,,,1,7,23,14,0,10,10,6,,,,,,,,,1,0.8035168850037735,079,001,2019_Aug_27_1320,MusicAffectPsychophysiology2019,3.0.5,60.024333145033154,
To what extent did the music make you feel ,SAD,30MonoWAV/30MonoT3.wav,2,1,4,15,,,,,1,7,23,14,0,11,11,0,,,,,,,,,2,1.0083399369905237,079,001,2019_Aug_27_1320,MusicAffectPsychophysiology2019,3.0.5,60.024333145033154,
,,30MonoWAV/30MonoT3.wav,2,1,4,15,,,,,1,7,23,14,,,,,,,,,,,,,,,079,001,2019_Aug_27_1320,MusicAffectPsychophysiology2019,3.0.5,60.024333145033154,
To what extent did the music make you feel ,ALERT,30MonoWAV/30MonoS3.wav,1,1,3,11,,,,,1,8,24,10,0,0,0,8,,,2,2.1362196360132657,3,2.0200395490101073,2,0.42024790798313916,1,1.235750592983095,079,001,2019_Aug_27_1320,MusicAffectPsychophysiology2019,3.0.5,60.024333145033154,
To what extent did the music make you feel ,TENDER,30MonoWAV/30MonoS3.wav,1,1,3,11,,,,,1,8,24,10,0,1,1,10,,,,,,,,,2,1.0861206190020312,079,001,2019_Aug_27_1320,MusicAffectPsychophysiology2019,3.0.5,60.024333145033154,
To what extent did the music make you feel ,ANGRY,30MonoWAV/30MonoS3.wav,1,1,3,11,,,,,1,8,24,10,0,2,2,2,,,,,,,,,2,1.1024504409870133,079,001,2019_Aug_27_1320,MusicAffectPsychophysiology2019,3.0.5,60.024333145033154,
To what extent did the music make you feel ,FRUSTRATED,30MonoWAV/30MonoS3.wav,1,1,3,11,,,,,1,8,24,10,0,3,3,3,,,,,,,,,2,0.7697218280227389,079,001,2019_Aug_27_1320,MusicAffectPsychophysiology2019,3.0.5,60.024333145033154,
To what extent did the music make you feel ,ASHAMED,30MonoWAV/30MonoS3.wav,1,1,3,11,,,,,1,8,24,10,0,4,4,4,,,,,,,,,1,0.7698720399930608,079,001,2019_Aug_27_1320,MusicAffectPsychophysiology2019,3.0.5,60.024333145033154,
To what extent did the music make you feel ,EXCITED,30MonoWAV/30MonoS3.wav,1,1,3,11,,,,,1,8,24,10,0,5,5,7,,,,,,,,,1,1.5011947549937759,079,001,2019_Aug_27_1320,MusicAffectPsychophysiology2019,3.0.5,60.024333145033154,
To what extent did the music make you feel ,ANXIOUS ,30MonoWAV/30MonoS3.wav,1,1,3,11,,,,,1,8,24,10,0,6,6,1,,,,,,,,,3,1.851936303981347,079,001,2019_Aug_27_1320,MusicAffectPsychophysiology2019,3.0.5,60.024333145033154,
To what extent did the music make you feel ,GUILTY,30MonoWAV/30MonoS3.wav,1,1,3,11,,,,,1,8,24,10,0,7,7,5,,,,,,,,,4,1.7338724020228256,079,001,2019_Aug_27_1320,MusicAffectPsychophysiology2019,3.0.5,60.024333145033154,
To what extent did the music make you feel ,HAPPY,30MonoWAV/30MonoS3.wav,1,1,3,11,,,,,1,8,24,10,0,8,8,6,,,,,,,,,1,1.0358616279845592,079,001,2019_Aug_27_1320,MusicAffectPsychophysiology2019,3.0.5,60.024333145033154,
To what extent did the music make you feel ,SAD,30MonoWAV/30MonoS3.wav,1,1,3,11,,,,,1,8,24,10,0,9,9,0,,,,,,,,,1,0.7701060039980803,079,001,2019_Aug_27_1320,MusicAffectPsychophysiology2019,3.0.5,60.024333145033154,
To what extent did the music make you feel ,SCARED,30MonoWAV/30MonoS3.wav,1,1,3,11,,,,,1,8,24,10,0,10,10,11,,,,,,,,,1,0.9513252949982416,079,001,2019_Aug_27_1320,MusicAffectPsychophysiology2019,3.0.5,60.024333145033154,
To what extent did the music make you feel ,ACTIVE,30MonoWAV/30MonoS3.wav,1,1,3,11,,,,,1,8,24,10,0,11,11,9,,,,,,,,,1,0.5034708100138232,079,001,2019_Aug_27_1320,MusicAffectPsychophysiology2019,3.0.5,60.024333145033154,
,,30MonoWAV/30MonoS3.wav,1,1,3,11,,,,,1,8,24,10,,,,,,,,,,,,,,,079,001,2019_Aug_27_1320,MusicAffectPsychophysiology2019,3.0.5,60.024333145033154,
To what extent did the music make you feel ,HAPPY,30MonoWAV/30MonoS1.wav,1,1,3,9,,,,,1,9,25,8,0,0,0,6,,,2,2.669723745988449,2,1.7693339130200911,2,0.7041467989911325,4,1.3112352760217618,079,001,2019_Aug_27_1320,MusicAffectPsychophysiology2019,3.0.5,60.024333145033154,
To what extent did the music make you feel ,TENDER,30MonoWAV/30MonoS1.wav,1,1,3,9,,,,,1,9,25,8,0,1,1,10,,,,,,,,,4,1.2628543030004948,079,001,2019_Aug_27_1320,MusicAffectPsychophysiology2019,3.0.5,60.024333145033154,
To what extent did the music make you feel ,ACTIVE,30MonoWAV/30MonoS1.wav,1,1,3,9,,,,,1,9,25,8,0,2,2,9,,,,,,,,,2,1.2280730610073078,079,001,2019_Aug_27_1320,MusicAffectPsychophysiology2019,3.0.5,60.024333145033154,
To what extent did the music make you feel ,FRUSTRATED,30MonoWAV/30MonoS1.wav,1,1,3,9,,,,,1,9,25,8,0,3,3,3,,,,,,,,,1,1.0283739590086043,079,001,2019_Aug_27_1320,MusicAffectPsychophysiology2019,3.0.5,60.024333145033154,
To what extent did the music make you feel ,ALERT,30MonoWAV/30MonoS1.wav,1,1,3,9,,,,,1,9,25,8,0,4,4,8,,,,,,,,,1,1.2704644589975942,079,001,2019_Aug_27_1320,MusicAffectPsychophysiology2019,3.0.5,60.024333145033154,
To what extent did the music make you feel ,ANXIOUS ,30MonoWAV/30MonoS1.wav,1,1,3,9,,,,,1,9,25,8,0,5,5,1,,,,,,,,,1,2.025443569989875,079,001,2019_Aug_27_1320,MusicAffectPsychophysiology2019,3.0.5,60.024333145033154,
To what extent did the music make you feel ,EXCITED,30MonoWAV/30MonoS1.wav,1,1,3,9,,,,,1,9,25,8,0,6,6,7,,,,,,,,,2,1.1440379290143028,079,001,2019_Aug_27_1320,MusicAffectPsychophysiology2019,3.0.5,60.024333145033154,
To what extent did the music make you feel ,SAD,30MonoWAV/30MonoS1.wav,1,1,3,9,,,,,1,9,25,8,0,7,7,0,,,,,,,,,3,1.2877470100065693,079,001,2019_Aug_27_1320,MusicAffectPsychophysiology2019,3.0.5,60.024333145033154,
To what extent did the music make you feel ,ASHAMED,30MonoWAV/30MonoS1.wav,1,1,3,9,,,,,1,9,25,8,0,8,8,4,,,,,,,,,2,1.044217329006642,079,001,2019_Aug_27_1320,MusicAffectPsychophysiology2019,3.0.5,60.024333145033154,
To what extent did the music make you feel ,GUILTY,30MonoWAV/30MonoS1.wav,1,1,3,9,,,,,1,9,25,8,0,9,9,5,,,,,,,,,1,1.0693237549858168,079,001,2019_Aug_27_1320,MusicAffectPsychophysiology2019,3.0.5,60.024333145033154,
To what extent did the music make you feel ,SCARED,30MonoWAV/30MonoS1.wav,1,1,3,9,,,,,1,9,25,8,0,10,10,11,,,,,,,,,2,2.010006221011281,079,001,2019_Aug_27_1320,MusicAffectPsychophysiology2019,3.0.5,60.024333145033154,
To what extent did the music make you feel ,ANGRY,30MonoWAV/30MonoS1.wav,1,1,3,9,,,,,1,9,25,8,0,11,11,2,,,,,,,,,1,2.070122369012097,079,001,2019_Aug_27_1320,MusicAffectPsychophysiology2019,3.0.5,60.024333145033154,
,,30MonoWAV/30MonoS1.wav,1,1,3,9,,,,,1,9,25,8,,,,,,,,,,,,,,,079,001,2019_Aug_27_1320,MusicAffectPsychophysiology2019,3.0.5,60.024333145033154,
To what extent did the music make you feel ,ACTIVE,30MonoWAV/30MonoH1.wav,2,2,1,5,,,,,1,10,26,4,0,0,0,9,,,4,2.35383848901256,4,1.7393364509916864,5,2.2025185280072037,4,1.4379263579903636,079,001,2019_Aug_27_1320,MusicAffectPsychophysiology2019,3.0.5,60.024333145033154,
To what extent did the music make you feel ,ASHAMED,30MonoWAV/30MonoH1.wav,2,2,1,5,,,,,1,10,26,4,0,1,1,4,,,,,,,,,1,1.067973728000652,079,001,2019_Aug_27_1320,MusicAffectPsychophysiology2019,3.0.5,60.024333145033154,
To what extent did the music make you feel ,ANXIOUS ,30MonoWAV/30MonoH1.wav,2,2,1,5,,,,,1,10,26,4,0,2,2,1,,,,,,,,,1,0.8034086969855707,079,001,2019_Aug_27_1320,MusicAffectPsychophysiology2019,3.0.5,60.024333145033154,
To what extent did the music make you feel ,TENDER,30MonoWAV/30MonoH1.wav,2,2,1,5,,,,,1,10,26,4,0,3,3,10,,,,,,,,,2,1.1852117890084628,079,001,2019_Aug_27_1320,MusicAffectPsychophysiology2019,3.0.5,60.024333145033154,
To what extent did the music make you feel ,ALERT,30MonoWAV/30MonoH1.wav,2,2,1,5,,,,,1,10,26,4,0,4,4,8,,,,,,,,,5,1.5000237509957515,079,001,2019_Aug_27_1320,MusicAffectPsychophysiology2019,3.0.5,60.024333145033154,
To what extent did the music make you feel ,EXCITED,30MonoWAV/30MonoH1.wav,2,2,1,5,,,,,1,10,26,4,0,5,5,7,,,,,,,,,5,1.086999334016582,079,001,2019_Aug_27_1320,MusicAffectPsychophysiology2019,3.0.5,60.024333145033154,
To what extent did the music make you feel ,SCARED,30MonoWAV/30MonoH1.wav,2,2,1,5,,,,,1,10,26,4,0,6,6,11,,,,,,,,,1,0.8204613449925091,079,001,2019_Aug_27_1320,MusicAffectPsychophysiology2019,3.0.5,60.024333145033154,
To what extent did the music make you feel ,FRUSTRATED,30MonoWAV/30MonoH1.wav,2,2,1,5,,,,,1,10,26,4,0,7,7,3,,,,,,,,,1,0.6869762550049927,079,001,2019_Aug_27_1320,MusicAffectPsychophysiology2019,3.0.5,60.024333145033154,
To what extent did the music make you feel ,GUILTY,30MonoWAV/30MonoH1.wav,2,2,1,5,,,,,1,10,26,4,0,8,8,5,,,,,,,,,1,0.8528390540159307,079,001,2019_Aug_27_1320,MusicAffectPsychophysiology2019,3.0.5,60.024333145033154,
To what extent did the music make you feel ,ANGRY,30MonoWAV/30MonoH1.wav,2,2,1,5,,,,,1,10,26,4,0,9,9,2,,,,,,,,,2,1.4343166890030261,079,001,2019_Aug_27_1320,MusicAffectPsychophysiology2019,3.0.5,60.024333145033154,
To what extent did the music make you feel ,SAD,30MonoWAV/30MonoH1.wav,2,2,1,5,,,,,1,10,26,4,0,10,10,0,,,,,,,,,1,0.736609543004306,079,001,2019_Aug_27_1320,MusicAffectPsychophysiology2019,3.0.5,60.024333145033154,
To what extent did the music make you feel ,HAPPY,30MonoWAV/30MonoH1.wav,2,2,1,5,,,,,1,10,26,4,0,11,11,6,,,,,,,,,4,1.4508525590063073,079,001,2019_Aug_27_1320,MusicAffectPsychophysiology2019,3.0.5,60.024333145033154,
,,30MonoWAV/30MonoH1.wav,2,2,1,5,,,,,1,10,26,4,,,,,,,,,,,,,,,079,001,2019_Aug_27_1320,MusicAffectPsychophysiology2019,3.0.5,60.024333145033154,
To what extent did the music make you feel ,ACTIVE,30MonoWAV/30MonoS2.wav,1,1,3,10,,,,,1,11,27,9,0,0,0,9,,,1,1.9873320370097645,2,1.3707002000010107,3,1.0873604900261853,1,1.2864657779864501,079,001,2019_Aug_27_1320,MusicAffectPsychophysiology2019,3.0.5,60.024333145033154,
To what extent did the music make you feel ,GUILTY,30MonoWAV/30MonoS2.wav,1,1,3,10,,,,,1,11,27,9,0,1,1,5,,,,,,,,,3,1.5201394830073696,079,001,2019_Aug_27_1320,MusicAffectPsychophysiology2019,3.0.5,60.024333145033154,
To what extent did the music make you feel ,ASHAMED,30MonoWAV/30MonoS2.wav,1,1,3,10,,,,,1,11,27,9,0,2,2,4,,,,,,,,,4,1.5515350539935753,079,001,2019_Aug_27_1320,MusicAffectPsychophysiology2019,3.0.5,60.024333145033154,
To what extent did the music make you feel ,TENDER,30MonoWAV/30MonoS2.wav,1,1,3,10,,,,,1,11,27,9,0,3,3,10,,,,,,,,,2,1.0198165320034605,079,001,2019_Aug_27_1320,MusicAffectPsychophysiology2019,3.0.5,60.024333145033154,
To what extent did the music make you feel ,ALERT,30MonoWAV/30MonoS2.wav,1,1,3,10,,,,,1,11,27,9,0,4,4,8,,,,,,,,,1,0.7815918300184421,079,001,2019_Aug_27_1320,MusicAffectPsychophysiology2019,3.0.5,60.024333145033154,
To what extent did the music make you feel ,EXCITED,30MonoWAV/30MonoS2.wav,1,1,3,10,,,,,1,11,27,9,0,5,5,7,,,,,,,,,1,0.8309959600155707,079,001,2019_Aug_27_1320,MusicAffectPsychophysiology2019,3.0.5,60.024333145033154,
To what extent did the music make you feel ,ANXIOUS ,30MonoWAV/30MonoS2.wav,1,1,3,10,,,,,1,11,27,9,0,6,6,1,,,,,,,,,2,1.0879221700015478,079,001,2019_Aug_27_1320,MusicAffectPsychophysiology2019,3.0.5,60.024333145033154,
To what extent did the music make you feel ,SAD,30MonoWAV/30MonoS2.wav,1,1,3,10,,,,,1,11,27,9,0,7,7,0,,,,,,,,,3,1.7198885690013412,079,001,2019_Aug_27_1320,MusicAffectPsychophysiology2019,3.0.5,60.024333145033154,
To what extent did the music make you feel ,FRUSTRATED,30MonoWAV/30MonoS2.wav,1,1,3,10,,,,,1,11,27,9,0,8,8,3,,,,,,,,,1,1.5313795740075875,079,001,2019_Aug_27_1320,MusicAffectPsychophysiology2019,3.0.5,60.024333145033154,
To what extent did the music make you feel ,HAPPY,30MonoWAV/30MonoS2.wav,1,1,3,10,,,,,1,11,27,9,0,9,9,6,,,,,,,,,1,1.887380871019559,079,001,2019_Aug_27_1320,MusicAffectPsychophysiology2019,3.0.5,60.024333145033154,
To what extent did the music make you feel ,SCARED,30MonoWAV/30MonoS2.wav,1,1,3,10,,,,,1,11,27,9,0,10,10,11,,,,,,,,,3,1.4449553879967425,079,001,2019_Aug_27_1320,MusicAffectPsychophysiology2019,3.0.5,60.024333145033154,
To what extent did the music make you feel ,ANGRY,30MonoWAV/30MonoS2.wav,1,1,3,10,,,,,1,11,27,9,0,11,11,2,,,,,,,,,2,1.0864837039844133,079,001,2019_Aug_27_1320,MusicAffectPsychophysiology2019,3.0.5,60.024333145033154,
,,30MonoWAV/30MonoS2.wav,1,1,3,10,,,,,1,11,27,9,,,,,,,,,,,,,,,079,001,2019_Aug_27_1320,MusicAffectPsychophysiology2019,3.0.5,60.024333145033154,
To what extent did the music make you feel ,TENDER,30MonoWAV/30MonoF3.wav,1,2,2,3,,,,,1,12,28,2,0,0,0,10,,,2,10.285976700979518,4,2.6183383179886732,3,1.202613696019398,1,1.9918431429832708,079,001,2019_Aug_27_1320,MusicAffectPsychophysiology2019,3.0.5,60.024333145033154,
To what extent did the music make you feel ,ANGRY,30MonoWAV/30MonoF3.wav,1,2,2,3,,,,,1,12,28,2,0,1,1,2,,,,,,,,,2,1.2226774080190808,079,001,2019_Aug_27_1320,MusicAffectPsychophysiology2019,3.0.5,60.024333145033154,
To what extent did the music make you feel ,ANXIOUS ,30MonoWAV/30MonoF3.wav,1,2,2,3,,,,,1,12,28,2,0,2,2,1,,,,,,,,,2,1.1677108129952103,079,001,2019_Aug_27_1320,MusicAffectPsychophysiology2019,3.0.5,60.024333145033154,
To what extent did the music make you feel ,SAD,30MonoWAV/30MonoF3.wav,1,2,2,3,,,,,1,12,28,2,0,3,3,0,,,,,,,,,1,0.7535894539905712,079,001,2019_Aug_27_1320,MusicAffectPsychophysiology2019,3.0.5,60.024333145033154,
To what extent did the music make you feel ,EXCITED,30MonoWAV/30MonoF3.wav,1,2,2,3,,,,,1,12,28,2,0,4,4,7,,,,,,,,,2,1.2073325689998455,079,001,2019_Aug_27_1320,MusicAffectPsychophysiology2019,3.0.5,60.024333145033154,
To what extent did the music make you feel ,ASHAMED,30MonoWAV/30MonoF3.wav,1,2,2,3,,,,,1,12,28,2,0,5,5,4,,,,,,,,,1,1.5019186749996152,079,001,2019_Aug_27_1320,MusicAffectPsychophysiology2019,3.0.5,60.024333145033154,
To what extent did the music make you feel ,ALERT,30MonoWAV/30MonoF3.wav,1,2,2,3,,,,,1,12,28,2,0,6,6,8,,,,,,,,,1,1.100223495013779,079,001,2019_Aug_27_1320,MusicAffectPsychophysiology2019,3.0.5,60.024333145033154,
To what extent did the music make you feel ,HAPPY,30MonoWAV/30MonoF3.wav,1,2,2,3,,,,,1,12,28,2,0,7,7,6,,,,,,,,,2,1.4204852170078084,079,001,2019_Aug_27_1320,MusicAffectPsychophysiology2019,3.0.5,60.024333145033154,
To what extent did the music make you feel ,ACTIVE,30MonoWAV/30MonoF3.wav,1,2,2,3,,,,,1,12,28,2,0,8,8,9,,,,,,,,,1,1.0404107029899023,079,001,2019_Aug_27_1320,MusicAffectPsychophysiology2019,3.0.5,60.024333145033154,
To what extent did the music make you feel ,SCARED,30MonoWAV/30MonoF3.wav,1,2,2,3,,,,,1,12,28,2,0,9,9,11,,,,,,,,,4,2.0054444540000986,079,001,2019_Aug_27_1320,MusicAffectPsychophysiology2019,3.0.5,60.024333145033154,
To what extent did the music make you feel ,FRUSTRATED,30MonoWAV/30MonoF3.wav,1,2,2,3,,,,,1,12,28,2,0,10,10,3,,,,,,,,,3,1.139859189017443,079,001,2019_Aug_27_1320,MusicAffectPsychophysiology2019,3.0.5,60.024333145033154,
To what extent did the music make you feel ,GUILTY,30MonoWAV/30MonoF3.wav,1,2,2,3,,,,,1,12,28,2,0,11,11,5,,,,,,,,,1,1.0220406870066654,079,001,2019_Aug_27_1320,MusicAffectPsychophysiology2019,3.0.5,60.024333145033154,
,,30MonoWAV/30MonoF3.wav,1,2,2,3,,,,,1,12,28,2,,,,,,,,,,,,,,,079,001,2019_Aug_27_1320,MusicAffectPsychophysiology2019,3.0.5,60.024333145033154,
To what extent did the music make you feel ,ANXIOUS ,30MonoWAV/30MonoT4.wav,2,1,4,16,,,,,1,13,29,15,0,0,0,1,,,3,2.7528386139892973,4,1.136740050977096,5,0.9186310450022575,1,2.020552789006615,079,001,2019_Aug_27_1320,MusicAffectPsychophysiology2019,3.0.5,60.024333145033154,
To what extent did the music make you feel ,ALERT,30MonoWAV/30MonoT4.wav,2,1,4,16,,,,,1,13,29,15,0,1,1,8,,,,,,,,,1,1.0804491250019055,079,001,2019_Aug_27_1320,MusicAffectPsychophysiology2019,3.0.5,60.024333145033154,
To what extent did the music make you feel ,ASHAMED,30MonoWAV/30MonoT4.wav,2,1,4,16,,,,,1,13,29,15,0,2,2,4,,,,,,,,,1,1.584469678986352,079,001,2019_Aug_27_1320,MusicAffectPsychophysiology2019,3.0.5,60.024333145033154,
To what extent did the music make you feel ,GUILTY,30MonoWAV/30MonoT4.wav,2,1,4,16,,,,,1,13,29,15,0,3,3,5,,,,,,,,,2,1.552793988987105,079,001,2019_Aug_27_1320,MusicAffectPsychophysiology2019,3.0.5,60.024333145033154,
To what extent did the music make you feel ,SCARED,30MonoWAV/30MonoT4.wav,2,1,4,16,,,,,1,13,29,15,0,4,4,11,,,,,,,,,2,2.7359315000067,079,001,2019_Aug_27_1320,MusicAffectPsychophysiology2019,3.0.5,60.024333145033154,
To what extent did the music make you feel ,ANGRY,30MonoWAV/30MonoT4.wav,2,1,4,16,,,,,1,13,29,15,0,5,5,2,,,,,,,,,1,3.149141068017343,079,001,2019_Aug_27_1320,MusicAffectPsychophysiology2019,3.0.5,60.024333145033154,
To what extent did the music make you feel ,FRUSTRATED,30MonoWAV/30MonoT4.wav,2,1,4,16,,,,,1,13,29,15,0,6,6,3,,,,,,,,,1,1.2143332829873543,079,001,2019_Aug_27_1320,MusicAffectPsychophysiology2019,3.0.5,60.024333145033154,
To what extent did the music make you feel ,HAPPY,30MonoWAV/30MonoT4.wav,2,1,4,16,,,,,1,13,29,15,0,7,7,6,,,,,,,,,3,12.636203729984118,079,001,2019_Aug_27_1320,MusicAffectPsychophysiology2019,3.0.5,60.024333145033154,
To what extent did the music make you feel ,ACTIVE,30MonoWAV/30MonoT4.wav,2,1,4,16,,,,,1,13,29,15,0,8,8,9,,,,,,,,,1,1.9202207349881064,079,001,2019_Aug_27_1320,MusicAffectPsychophysiology2019,3.0.5,60.024333145033154,
To what extent did the music make you feel ,SAD,30MonoWAV/30MonoT4.wav,2,1,4,16,,,,,1,13,29,15,0,9,9,0,,,,,,,,,2,1.9039508950081654,079,001,2019_Aug_27_1320,MusicAffectPsychophysiology2019,3.0.5,60.024333145033154,
To what extent did the music make you feel ,TENDER,30MonoWAV/30MonoT4.wav,2,1,4,16,,,,,1,13,29,15,0,10,10,10,,,,,,,,,1,1.4471164550050162,079,001,2019_Aug_27_1320,MusicAffectPsychophysiology2019,3.0.5,60.024333145033154,
To what extent did the music make you feel ,EXCITED,30MonoWAV/30MonoT4.wav,2,1,4,16,,,,,1,13,29,15,0,11,11,7,,,,,,,,,1,1.048163127998123,079,001,2019_Aug_27_1320,MusicAffectPsychophysiology2019,3.0.5,60.024333145033154,
,,30MonoWAV/30MonoT4.wav,2,1,4,16,,,,,1,13,29,15,,,,,,,,,,,,,,,079,001,2019_Aug_27_1320,MusicAffectPsychophysiology2019,3.0.5,60.024333145033154,
To what extent did the music make you feel ,HAPPY,30MonoWAV/30MonoF2.wav,1,2,2,2,,,,,1,14,30,1,0,0,0,6,,,5,2.086664987000404,2,1.3861142600071616,3,0.7533886349992827,2,1.3752610349911265,079,001,2019_Aug_27_1320,MusicAffectPsychophysiology2019,3.0.5,60.024333145033154,
To what extent did the music make you feel ,GUILTY,30MonoWAV/30MonoF2.wav,1,2,2,2,,,,,1,14,30,1,0,1,1,5,,,,,,,,,2,1.5525209570187144,079,001,2019_Aug_27_1320,MusicAffectPsychophysiology2019,3.0.5,60.024333145033154,
To what extent did the music make you feel ,ASHAMED,30MonoWAV/30MonoF2.wav,1,2,2,2,,,,,1,14,30,1,0,2,2,4,,,,,,,,,1,0.9030450530117378,079,001,2019_Aug_27_1320,MusicAffectPsychophysiology2019,3.0.5,60.024333145033154,
To what extent did the music make you feel ,SAD,30MonoWAV/30MonoF2.wav,1,2,2,2,,,,,1,14,30,1,0,3,3,0,,,,,,,,,1,0.9198160920059308,079,001,2019_Aug_27_1320,MusicAffectPsychophysiology2019,3.0.5,60.024333145033154,
To what extent did the music make you feel ,FRUSTRATED,30MonoWAV/30MonoF2.wav,1,2,2,2,,,,,1,14,30,1,0,4,4,3,,,,,,,,,2,1.07486658700509,079,001,2019_Aug_27_1320,MusicAffectPsychophysiology2019,3.0.5,60.024333145033154,
To what extent did the music make you feel ,SCARED,30MonoWAV/30MonoF2.wav,1,2,2,2,,,,,1,14,30,1,0,5,5,11,,,,,,,,,4,1.0054418109939434,079,001,2019_Aug_27_1320,MusicAffectPsychophysiology2019,3.0.5,60.024333145033154,
To what extent did the music make you feel ,ACTIVE,30MonoWAV/30MonoF2.wav,1,2,2,2,,,,,1,14,30,1,0,6,6,9,,,,,,,,,4,1.1367242610140238,079,001,2019_Aug_27_1320,MusicAffectPsychophysiology2019,3.0.5,60.024333145033154,
To what extent did the music make you feel ,EXCITED,30MonoWAV/30MonoF2.wav,1,2,2,2,,,,,1,14,30,1,0,7,7,7,,,,,,,,,4,0.5083857979916502,079,001,2019_Aug_27_1320,MusicAffectPsychophysiology2019,3.0.5,60.024333145033154,
To what extent did the music make you feel ,ANXIOUS ,30MonoWAV/30MonoF2.wav,1,2,2,2,,,,,1,14,30,1,0,8,8,1,,,,,,,,,5,1.6416448689997196,079,001,2019_Aug_27_1320,MusicAffectPsychophysiology2019,3.0.5,60.024333145033154,
To what extent did the music make you feel ,ANGRY,30MonoWAV/30MonoF2.wav,1,2,2,2,,,,,1,14,30,1,0,9,9,2,,,,,,,,,3,1.2027827510028146,079,001,2019_Aug_27_1320,MusicAffectPsychophysiology2019,3.0.5,60.024333145033154,
To what extent did the music make you feel ,ALERT,30MonoWAV/30MonoF2.wav,1,2,2,2,,,,,1,14,30,1,0,10,10,8,,,,,,,,,4,0.8204977080167737,079,001,2019_Aug_27_1320,MusicAffectPsychophysiology2019,3.0.5,60.024333145033154,
To what extent did the music make you feel ,TENDER,30MonoWAV/30MonoF2.wav,1,2,2,2,,,,,1,14,30,1,0,11,11,10,,,,,,,,,1,1.0699931449780706,079,001,2019_Aug_27_1320,MusicAffectPsychophysiology2019,3.0.5,60.024333145033154,
,,30MonoWAV/30MonoF2.wav,1,2,2,2,,,,,1,14,30,1,,,,,,,,,,,,,,,079,001,2019_Aug_27_1320,MusicAffectPsychophysiology2019,3.0.5,60.024333145033154,
To what extent did the music make you feel ,ALERT,30MonoWAV/30MonoF1.wav,1,2,2,1,,,,,1,15,31,0,0,0,0,8,,,4,3.5027873200015165,3,1.569068143988261,3,1.603878916008398,4,1.819411186996149,079,001,2019_Aug_27_1320,MusicAffectPsychophysiology2019,3.0.5,60.024333145033154,
To what extent did the music make you feel ,ASHAMED,30MonoWAV/30MonoF1.wav,1,2,2,1,,,,,1,15,31,0,0,1,1,4,,,,,,,,,2,1.0700238010031171,079,001,2019_Aug_27_1320,MusicAffectPsychophysiology2019,3.0.5,60.024333145033154,
To what extent did the music make you feel ,GUILTY,30MonoWAV/30MonoF1.wav,1,2,2,1,,,,,1,15,31,0,0,2,2,5,,,,,,,,,1,0.9038504589989316,079,001,2019_Aug_27_1320,MusicAffectPsychophysiology2019,3.0.5,60.024333145033154,
To what extent did the music make you feel ,TENDER,30MonoWAV/30MonoF1.wav,1,2,2,1,,,,,1,15,31,0,0,3,3,10,,,,,,,,,1,0.8670159980247263,079,001,2019_Aug_27_1320,MusicAffectPsychophysiology2019,3.0.5,60.024333145033154,
To what extent did the music make you feel ,ANGRY,30MonoWAV/30MonoF1.wav,1,2,2,1,,,,,1,15,31,0,0,4,4,2,,,,,,,,,3,1.120099723979365,079,001,2019_Aug_27_1320,MusicAffectPsychophysiology2019,3.0.5,60.024333145033154,
To what extent did the music make you feel ,SAD,30MonoWAV/30MonoF1.wav,1,2,2,1,,,,,1,15,31,0,0,5,5,0,,,,,,,,,2,0.9204209930030629,079,001,2019_Aug_27_1320,MusicAffectPsychophysiology2019,3.0.5,60.024333145033154,
To what extent did the music make you feel ,HAPPY,30MonoWAV/30MonoF1.wav,1,2,2,1,,,,,1,15,31,0,0,6,6,6,,,,,,,,,3,1.5860560330038425,079,001,2019_Aug_27_1320,MusicAffectPsychophysiology2019,3.0.5,60.024333145033154,
To what extent did the music make you feel ,SCARED,30MonoWAV/30MonoF1.wav,1,2,2,1,,,,,1,15,31,0,0,7,7,11,,,,,,,,,4,1.2204443759983405,079,001,2019_Aug_27_1320,MusicAffectPsychophysiology2019,3.0.5,60.024333145033154,
To what extent did the music make you feel ,EXCITED,30MonoWAV/30MonoF1.wav,1,2,2,1,,,,,1,15,31,0,0,8,8,7,,,,,,,,,1,0.950560964003671,079,001,2019_Aug_27_1320,MusicAffectPsychophysiology2019,3.0.5,60.024333145033154,
To what extent did the music make you feel ,ANXIOUS ,30MonoWAV/30MonoF1.wav,1,2,2,1,,,,,1,15,31,0,0,9,9,1,,,,,,,,,4,2.4367211339995265,079,001,2019_Aug_27_1320,MusicAffectPsychophysiology2019,3.0.5,60.024333145033154,
To what extent did the music make you feel ,FRUSTRATED,30MonoWAV/30MonoF1.wav,1,2,2,1,,,,,1,15,31,0,0,10,10,3,,,,,,,,,3,2.0862646749883424,079,001,2019_Aug_27_1320,MusicAffectPsychophysiology2019,3.0.5,60.024333145033154,
To what extent did the music make you feel ,ACTIVE,30MonoWAV/30MonoF1.wav,1,2,2,1,,,,,1,15,31,0,0,11,11,9,,,,,,,,,1,2.3877050790179055,079,001,2019_Aug_27_1320,MusicAffectPsychophysiology2019,3.0.5,60.024333145033154,
,,30MonoWAV/30MonoF1.wav,1,2,2,1,,,,,1,15,31,0,,,,,,,,,,,,,,,079,001,2019_Aug_27_1320,MusicAffectPsychophysiology2019,3.0.5,60.024333145033154,
