Instruction,Word,song,valence,arousal,affectcat,songmark,pracwords.thisRepN,pracwords.thisTrialN,pracwords.thisN,pracwords.thisIndex,songtrials.thisRepN,songtrials.thisTrialN,songtrials.thisN,songtrials.thisIndex,words.thisRepN,words.thisTrialN,words.thisN,words.thisIndex,begin.keys,begin.rt,arousalkey.keys,arousalkey.rt,valencekey.keys,valencekey.rt,likekey.keys,likekey.rt,WordResponse.keys,WordResponse.rt,key_resp_2.keys,key_resp_2.rt,participant,session,date,expName,psychopyVersion,frameRate,
,,,,,,,,,,,,,,,,,,,space,9.899428083997918,,,,,,,,,,,080,001,2019_Aug_27_1412,MusicAffectPsychophysiology2019,3.0.5,59.94969716953685,
,,,,,,,,,,,,,,,,,,,,,2,4.686447057989426,,,,,,,,,080,001,2019_Aug_27_1412,MusicAffectPsychophysiology2019,3.0.5,59.94969716953685,
,,,,,,,,,,,,,,,,,,,,,,,3,3.7546787510218564,,,,,,,080,001,2019_Aug_27_1412,MusicAffectPsychophysiology2019,3.0.5,59.94969716953685,
,,,,,,,,,,,,,,,,,,,,,,,,,4,4.402260883973213,,,,,080,001,2019_Aug_27_1412,MusicAffectPsychophysiology2019,3.0.5,59.94969716953685,
To what extent did the music make you feel ,ALERT,,,,,,0,0,0,8,,,,,,,,,,,,,,,,,2,3.9736231499991845,,,080,001,2019_Aug_27_1412,MusicAffectPsychophysiology2019,3.0.5,59.94969716953685,
To what extent did the music make you feel ,FRUSTRATED,,,,,,0,1,1,3,,,,,,,,,,,,,,,,,1,1.6597744819882791,,,080,001,2019_Aug_27_1412,MusicAffectPsychophysiology2019,3.0.5,59.94969716953685,
To what extent did the music make you feel ,GUILTY,,,,,,0,2,2,5,,,,,,,,,,,,,,,,,1,1.5097553079831414,,,080,001,2019_Aug_27_1412,MusicAffectPsychophysiology2019,3.0.5,59.94969716953685,
To what extent did the music make you feel ,EXCITED,,,,,,0,3,3,7,,,,,,,,,,,,,,,,,3,2.293898688018089,,,080,001,2019_Aug_27_1412,MusicAffectPsychophysiology2019,3.0.5,59.94969716953685,
To what extent did the music make you feel ,ACTIVE,,,,,,0,4,4,9,,,,,,,,,,,,,,,,,2,2.052355587016791,,,080,001,2019_Aug_27_1412,MusicAffectPsychophysiology2019,3.0.5,59.94969716953685,
To what extent did the music make you feel ,ANXIOUS ,,,,,,0,5,5,1,,,,,,,,,,,,,,,,,1,2.8097599259926938,,,080,001,2019_Aug_27_1412,MusicAffectPsychophysiology2019,3.0.5,59.94969716953685,
To what extent did the music make you feel ,ANGRY,,,,,,0,6,6,2,,,,,,,,,,,,,,,,,1,0.7505694800056517,,,080,001,2019_Aug_27_1412,MusicAffectPsychophysiology2019,3.0.5,59.94969716953685,
To what extent did the music make you feel ,HAPPY,,,,,,0,7,7,6,,,,,,,,,,,,,,,,,4,2.868965672008926,,,080,001,2019_Aug_27_1412,MusicAffectPsychophysiology2019,3.0.5,59.94969716953685,
To what extent did the music make you feel ,SCARED,,,,,,0,8,8,11,,,,,,,,,,,,,,,,,1,1.3867989800055511,,,080,001,2019_Aug_27_1412,MusicAffectPsychophysiology2019,3.0.5,59.94969716953685,
To what extent did the music make you feel ,TENDER,,,,,,0,9,9,10,,,,,,,,,,,,,,,,,2,1.842097412009025,,,080,001,2019_Aug_27_1412,MusicAffectPsychophysiology2019,3.0.5,59.94969716953685,
To what extent did the music make you feel ,SAD,,,,,,0,10,10,0,,,,,,,,,,,,,,,,,1,0.9866287360200658,,,080,001,2019_Aug_27_1412,MusicAffectPsychophysiology2019,3.0.5,59.94969716953685,
To what extent did the music make you feel ,ASHAMED,,,,,,0,11,11,4,,,,,,,,,,,,,,,,,1,1.0387868199904915,,,080,001,2019_Aug_27_1412,MusicAffectPsychophysiology2019,3.0.5,59.94969716953685,
To what extent did the music make you feel ,HAPPY,30MonoWAV/30MonoH1.wav,2,2,1,5,,,,,0,0,0,4,0,0,0,6,,,2,3.1206528690236155,2,2.2518056979752146,2,2.0201549220073503,2,3.586856728012208,,,080,001,2019_Aug_27_1412,MusicAffectPsychophysiology2019,3.0.5,59.94969716953685,
To what extent did the music make you feel ,SCARED,30MonoWAV/30MonoH1.wav,2,2,1,5,,,,,0,0,0,4,0,1,1,11,,,,,,,,,1,1.5177014130167663,,,080,001,2019_Aug_27_1412,MusicAffectPsychophysiology2019,3.0.5,59.94969716953685,
To what extent did the music make you feel ,EXCITED,30MonoWAV/30MonoH1.wav,2,2,1,5,,,,,0,0,0,4,0,2,2,7,,,,,,,,,1,1.8373168499965686,,,080,001,2019_Aug_27_1412,MusicAffectPsychophysiology2019,3.0.5,59.94969716953685,
To what extent did the music make you feel ,ALERT,30MonoWAV/30MonoH1.wav,2,2,1,5,,,,,0,0,0,4,0,3,3,8,,,,,,,,,1,1.135775832022773,,,080,001,2019_Aug_27_1412,MusicAffectPsychophysiology2019,3.0.5,59.94969716953685,
To what extent did the music make you feel ,FRUSTRATED,30MonoWAV/30MonoH1.wav,2,2,1,5,,,,,0,0,0,4,0,4,4,3,,,,,,,,,1,0.8697564559988678,,,080,001,2019_Aug_27_1412,MusicAffectPsychophysiology2019,3.0.5,59.94969716953685,
To what extent did the music make you feel ,GUILTY,30MonoWAV/30MonoH1.wav,2,2,1,5,,,,,0,0,0,4,0,5,5,5,,,,,,,,,1,0.6206668819941115,,,080,001,2019_Aug_27_1412,MusicAffectPsychophysiology2019,3.0.5,59.94969716953685,
To what extent did the music make you feel ,SAD,30MonoWAV/30MonoH1.wav,2,2,1,5,,,,,0,0,0,4,0,6,6,0,,,,,,,,,1,1.4201516209868714,,,080,001,2019_Aug_27_1412,MusicAffectPsychophysiology2019,3.0.5,59.94969716953685,
To what extent did the music make you feel ,ANXIOUS ,30MonoWAV/30MonoH1.wav,2,2,1,5,,,,,0,0,0,4,0,7,7,1,,,,,,,,,1,0.6877899249957409,,,080,001,2019_Aug_27_1412,MusicAffectPsychophysiology2019,3.0.5,59.94969716953685,
To what extent did the music make you feel ,TENDER,30MonoWAV/30MonoH1.wav,2,2,1,5,,,,,0,0,0,4,0,8,8,10,,,,,,,,,1,1.3035127059847582,,,080,001,2019_Aug_27_1412,MusicAffectPsychophysiology2019,3.0.5,59.94969716953685,
To what extent did the music make you feel ,ANGRY,30MonoWAV/30MonoH1.wav,2,2,1,5,,,,,0,0,0,4,0,9,9,2,,,,,,,,,2,1.6177083580114413,,,080,001,2019_Aug_27_1412,MusicAffectPsychophysiology2019,3.0.5,59.94969716953685,
To what extent did the music make you feel ,ASHAMED,30MonoWAV/30MonoH1.wav,2,2,1,5,,,,,0,0,0,4,0,10,10,4,,,,,,,,,1,0.7861641430063173,,,080,001,2019_Aug_27_1412,MusicAffectPsychophysiology2019,3.0.5,59.94969716953685,
To what extent did the music make you feel ,ACTIVE,30MonoWAV/30MonoH1.wav,2,2,1,5,,,,,0,0,0,4,0,11,11,9,,,,,,,,,2,1.4174865150125697,,,080,001,2019_Aug_27_1412,MusicAffectPsychophysiology2019,3.0.5,59.94969716953685,
,,30MonoWAV/30MonoH1.wav,2,2,1,5,,,,,0,0,0,4,,,,,,,,,,,,,,,,,080,001,2019_Aug_27_1412,MusicAffectPsychophysiology2019,3.0.5,59.94969716953685,
To what extent did the music make you feel ,GUILTY,30MonoWAV/30MonoF4.wav,1,2,2,4,,,,,0,1,1,3,0,0,0,5,,,4,4.236068994010566,2,2.852251143020112,2,1.9036425309896003,1,1.5368298209796194,,,080,001,2019_Aug_27_1412,MusicAffectPsychophysiology2019,3.0.5,59.94969716953685,
To what extent did the music make you feel ,ACTIVE,30MonoWAV/30MonoF4.wav,1,2,2,4,,,,,0,1,1,3,0,1,1,9,,,,,,,,,2,1.3131000029970892,,,080,001,2019_Aug_27_1412,MusicAffectPsychophysiology2019,3.0.5,59.94969716953685,
To what extent did the music make you feel ,FRUSTRATED,30MonoWAV/30MonoF4.wav,1,2,2,4,,,,,0,1,1,3,0,2,2,3,,,,,,,,,2,1.2133889040269423,,,080,001,2019_Aug_27_1412,MusicAffectPsychophysiology2019,3.0.5,59.94969716953685,
To what extent did the music make you feel ,SAD,30MonoWAV/30MonoF4.wav,1,2,2,4,,,,,0,1,1,3,0,3,3,0,,,,,,,,,1,0.9854725710174534,,,080,001,2019_Aug_27_1412,MusicAffectPsychophysiology2019,3.0.5,59.94969716953685,
To what extent did the music make you feel ,EXCITED,30MonoWAV/30MonoF4.wav,1,2,2,4,,,,,0,1,1,3,0,4,4,7,,,,,,,,,2,2.7859689489996526,,,080,001,2019_Aug_27_1412,MusicAffectPsychophysiology2019,3.0.5,59.94969716953685,
To what extent did the music make you feel ,HAPPY,30MonoWAV/30MonoF4.wav,1,2,2,4,,,,,0,1,1,3,0,5,5,6,,,,,,,,,2,1.5212539299973287,,,080,001,2019_Aug_27_1412,MusicAffectPsychophysiology2019,3.0.5,59.94969716953685,
To what extent did the music make you feel ,SCARED,30MonoWAV/30MonoF4.wav,1,2,2,4,,,,,0,1,1,3,0,6,6,11,,,,,,,,,3,1.3291338389972225,,,080,001,2019_Aug_27_1412,MusicAffectPsychophysiology2019,3.0.5,59.94969716953685,
To what extent did the music make you feel ,ANXIOUS ,30MonoWAV/30MonoF4.wav,1,2,2,4,,,,,0,1,1,3,0,7,7,1,,,,,,,,,3,1.9455964569933712,,,080,001,2019_Aug_27_1412,MusicAffectPsychophysiology2019,3.0.5,59.94969716953685,
To what extent did the music make you feel ,TENDER,30MonoWAV/30MonoF4.wav,1,2,2,4,,,,,0,1,1,3,0,8,8,10,,,,,,,,,1,1.3633287140110042,,,080,001,2019_Aug_27_1412,MusicAffectPsychophysiology2019,3.0.5,59.94969716953685,
To what extent did the music make you feel ,ASHAMED,30MonoWAV/30MonoF4.wav,1,2,2,4,,,,,0,1,1,3,0,9,9,4,,,,,,,,,1,6.21953069299343,,,080,001,2019_Aug_27_1412,MusicAffectPsychophysiology2019,3.0.5,59.94969716953685,
To what extent did the music make you feel ,ANGRY,30MonoWAV/30MonoF4.wav,1,2,2,4,,,,,0,1,1,3,0,10,10,2,,,,,,,,,2,1.768666893010959,,,080,001,2019_Aug_27_1412,MusicAffectPsychophysiology2019,3.0.5,59.94969716953685,
To what extent did the music make you feel ,ALERT,30MonoWAV/30MonoF4.wav,1,2,2,4,,,,,0,1,1,3,0,11,11,8,,,,,,,,,4,2.62024871801259,,,080,001,2019_Aug_27_1412,MusicAffectPsychophysiology2019,3.0.5,59.94969716953685,
,,30MonoWAV/30MonoF4.wav,1,2,2,4,,,,,0,1,1,3,,,,,,,,,,,,,,,,,080,001,2019_Aug_27_1412,MusicAffectPsychophysiology2019,3.0.5,59.94969716953685,
To what extent did the music make you feel ,SAD,30MonoWAV/30MonoF3.wav,1,2,2,3,,,,,0,2,2,2,0,0,0,0,,,3,3.1191704429802485,1,3.420341343997279,2,1.8519237880245782,2,2.2694061350193806,,,080,001,2019_Aug_27_1412,MusicAffectPsychophysiology2019,3.0.5,59.94969716953685,
To what extent did the music make you feel ,TENDER,30MonoWAV/30MonoF3.wav,1,2,2,3,,,,,0,2,2,2,0,1,1,10,,,,,,,,,1,1.0038592939963564,,,080,001,2019_Aug_27_1412,MusicAffectPsychophysiology2019,3.0.5,59.94969716953685,
To what extent did the music make you feel ,FRUSTRATED,30MonoWAV/30MonoF3.wav,1,2,2,3,,,,,0,2,2,2,0,2,2,3,,,,,,,,,3,1.6879584840207826,,,080,001,2019_Aug_27_1412,MusicAffectPsychophysiology2019,3.0.5,59.94969716953685,
To what extent did the music make you feel ,GUILTY,30MonoWAV/30MonoF3.wav,1,2,2,3,,,,,0,2,2,2,0,3,3,5,,,,,,,,,1,2.9868886089825537,,,080,001,2019_Aug_27_1412,MusicAffectPsychophysiology2019,3.0.5,59.94969716953685,
To what extent did the music make you feel ,EXCITED,30MonoWAV/30MonoF3.wav,1,2,2,3,,,,,0,2,2,2,0,4,4,7,,,,,,,,,2,1.2202784569817595,,,080,001,2019_Aug_27_1412,MusicAffectPsychophysiology2019,3.0.5,59.94969716953685,
To what extent did the music make you feel ,HAPPY,30MonoWAV/30MonoF3.wav,1,2,2,3,,,,,0,2,2,2,0,5,5,6,,,,,,,,,1,0.7711007890175097,,,080,001,2019_Aug_27_1412,MusicAffectPsychophysiology2019,3.0.5,59.94969716953685,
To what extent did the music make you feel ,ACTIVE,30MonoWAV/30MonoF3.wav,1,2,2,3,,,,,0,2,2,2,0,6,6,9,,,,,,,,,3,1.699367037974298,,,080,001,2019_Aug_27_1412,MusicAffectPsychophysiology2019,3.0.5,59.94969716953685,
To what extent did the music make you feel ,ALERT,30MonoWAV/30MonoF3.wav,1,2,2,3,,,,,0,2,2,2,0,7,7,8,,,,,,,,,4,1.5695686129911337,,,080,001,2019_Aug_27_1412,MusicAffectPsychophysiology2019,3.0.5,59.94969716953685,
To what extent did the music make you feel ,ANGRY,30MonoWAV/30MonoF3.wav,1,2,2,3,,,,,0,2,2,2,0,8,8,2,,,,,,,,,4,1.6533721559972037,,,080,001,2019_Aug_27_1412,MusicAffectPsychophysiology2019,3.0.5,59.94969716953685,
To what extent did the music make you feel ,ASHAMED,30MonoWAV/30MonoF3.wav,1,2,2,3,,,,,0,2,2,2,0,9,9,4,,,,,,,,,1,1.2697624269931111,,,080,001,2019_Aug_27_1412,MusicAffectPsychophysiology2019,3.0.5,59.94969716953685,
To what extent did the music make you feel ,ANXIOUS ,30MonoWAV/30MonoF3.wav,1,2,2,3,,,,,0,2,2,2,0,10,10,1,,,,,,,,,2,2.070729385013692,,,080,001,2019_Aug_27_1412,MusicAffectPsychophysiology2019,3.0.5,59.94969716953685,
To what extent did the music make you feel ,SCARED,30MonoWAV/30MonoF3.wav,1,2,2,3,,,,,0,2,2,2,0,11,11,11,,,,,,,,,2,1.2694874870066997,,,080,001,2019_Aug_27_1412,MusicAffectPsychophysiology2019,3.0.5,59.94969716953685,
,,30MonoWAV/30MonoF3.wav,1,2,2,3,,,,,0,2,2,2,,,,,,,,,,,,,,,,,080,001,2019_Aug_27_1412,MusicAffectPsychophysiology2019,3.0.5,59.94969716953685,
To what extent did the music make you feel ,HAPPY,30MonoWAV/30MonoT1.wav,2,1,4,13,,,,,0,3,3,12,0,0,0,6,,,2,3.4368337519990746,3,2.5033192439877894,2,1.5040701979887672,2,2.186628216993995,,,080,001,2019_Aug_27_1412,MusicAffectPsychophysiology2019,3.0.5,59.94969716953685,
To what extent did the music make you feel ,ANGRY,30MonoWAV/30MonoT1.wav,2,1,4,13,,,,,0,3,3,12,0,1,1,2,,,,,,,,,1,0.9862047740025446,,,080,001,2019_Aug_27_1412,MusicAffectPsychophysiology2019,3.0.5,59.94969716953685,
To what extent did the music make you feel ,TENDER,30MonoWAV/30MonoT1.wav,2,1,4,13,,,,,0,3,3,12,0,2,2,10,,,,,,,,,4,1.9647915569948964,,,080,001,2019_Aug_27_1412,MusicAffectPsychophysiology2019,3.0.5,59.94969716953685,
To what extent did the music make you feel ,ANXIOUS ,30MonoWAV/30MonoT1.wav,2,1,4,13,,,,,0,3,3,12,0,3,3,1,,,,,,,,,2,4.202389215002768,,,080,001,2019_Aug_27_1412,MusicAffectPsychophysiology2019,3.0.5,59.94969716953685,
To what extent did the music make you feel ,FRUSTRATED,30MonoWAV/30MonoT1.wav,2,1,4,13,,,,,0,3,3,12,0,4,4,3,,,,,,,,,1,0.8984239029814489,,,080,001,2019_Aug_27_1412,MusicAffectPsychophysiology2019,3.0.5,59.94969716953685,
To what extent did the music make you feel ,SCARED,30MonoWAV/30MonoT1.wav,2,1,4,13,,,,,0,3,3,12,0,5,5,11,,,,,,,,,1,0.664715716993669,,,080,001,2019_Aug_27_1412,MusicAffectPsychophysiology2019,3.0.5,59.94969716953685,
To what extent did the music make you feel ,EXCITED,30MonoWAV/30MonoT1.wav,2,1,4,13,,,,,0,3,3,12,0,6,6,7,,,,,,,,,2,1.5962103859928902,,,080,001,2019_Aug_27_1412,MusicAffectPsychophysiology2019,3.0.5,59.94969716953685,
To what extent did the music make you feel ,SAD,30MonoWAV/30MonoT1.wav,2,1,4,13,,,,,0,3,3,12,0,7,7,0,,,,,,,,,3,2.4201755519898143,,,080,001,2019_Aug_27_1412,MusicAffectPsychophysiology2019,3.0.5,59.94969716953685,
To what extent did the music make you feel ,GUILTY,30MonoWAV/30MonoT1.wav,2,1,4,13,,,,,0,3,3,12,0,8,8,5,,,,,,,,,1,1.497874419001164,,,080,001,2019_Aug_27_1412,MusicAffectPsychophysiology2019,3.0.5,59.94969716953685,
To what extent did the music make you feel ,ACTIVE,30MonoWAV/30MonoT1.wav,2,1,4,13,,,,,0,3,3,12,0,9,9,9,,,,,,,,,1,1.5959412269876339,,,080,001,2019_Aug_27_1412,MusicAffectPsychophysiology2019,3.0.5,59.94969716953685,
To what extent did the music make you feel ,ALERT,30MonoWAV/30MonoT1.wav,2,1,4,13,,,,,0,3,3,12,0,10,10,8,,,,,,,,,1,1.367249692993937,,,080,001,2019_Aug_27_1412,MusicAffectPsychophysiology2019,3.0.5,59.94969716953685,
To what extent did the music make you feel ,ASHAMED,30MonoWAV/30MonoT1.wav,2,1,4,13,,,,,0,3,3,12,0,11,11,4,,,,,,,,,1,0.7859257880190853,,,080,001,2019_Aug_27_1412,MusicAffectPsychophysiology2019,3.0.5,59.94969716953685,
,,30MonoWAV/30MonoT1.wav,2,1,4,13,,,,,0,3,3,12,,,,,,,,,,,,,,,,,080,001,2019_Aug_27_1412,MusicAffectPsychophysiology2019,3.0.5,59.94969716953685,
To what extent did the music make you feel ,ANXIOUS ,30MonoWAV/30MonoS3.wav,1,1,3,11,,,,,0,4,4,10,0,0,0,1,,,2,3.637692126998445,1,1.7043648230028339,1,1.6029611290141474,2,1.8238340500101913,,,080,001,2019_Aug_27_1412,MusicAffectPsychophysiology2019,3.0.5,59.94969716953685,
To what extent did the music make you feel ,ASHAMED,30MonoWAV/30MonoS3.wav,1,1,3,11,,,,,0,4,4,10,0,1,1,4,,,,,,,,,1,1.0515520379994996,,,080,001,2019_Aug_27_1412,MusicAffectPsychophysiology2019,3.0.5,59.94969716953685,
To what extent did the music make you feel ,ANGRY,30MonoWAV/30MonoS3.wav,1,1,3,11,,,,,0,4,4,10,0,2,2,2,,,,,,,,,2,1.6008584699884523,,,080,001,2019_Aug_27_1412,MusicAffectPsychophysiology2019,3.0.5,59.94969716953685,
To what extent did the music make you feel ,ALERT,30MonoWAV/30MonoS3.wav,1,1,3,11,,,,,0,4,4,10,0,3,3,8,,,,,,,,,1,1.5545237319893204,,,080,001,2019_Aug_27_1412,MusicAffectPsychophysiology2019,3.0.5,59.94969716953685,
To what extent did the music make you feel ,EXCITED,30MonoWAV/30MonoS3.wav,1,1,3,11,,,,,0,4,4,10,0,4,4,7,,,,,,,,,1,0.8395750070048962,,,080,001,2019_Aug_27_1412,MusicAffectPsychophysiology2019,3.0.5,59.94969716953685,
To what extent did the music make you feel ,TENDER,30MonoWAV/30MonoS3.wav,1,1,3,11,,,,,0,4,4,10,0,5,5,10,,,,,,,,,2,1.4234725410060491,,,080,001,2019_Aug_27_1412,MusicAffectPsychophysiology2019,3.0.5,59.94969716953685,
To what extent did the music make you feel ,HAPPY,30MonoWAV/30MonoS3.wav,1,1,3,11,,,,,0,4,4,10,0,6,6,6,,,,,,,,,1,0.9361262579914182,,,080,001,2019_Aug_27_1412,MusicAffectPsychophysiology2019,3.0.5,59.94969716953685,
To what extent did the music make you feel ,SAD,30MonoWAV/30MonoS3.wav,1,1,3,11,,,,,0,4,4,10,0,7,7,0,,,,,,,,,4,2.502632533025462,,,080,001,2019_Aug_27_1412,MusicAffectPsychophysiology2019,3.0.5,59.94969716953685,
To what extent did the music make you feel ,FRUSTRATED,30MonoWAV/30MonoS3.wav,1,1,3,11,,,,,0,4,4,10,0,8,8,3,,,,,,,,,2,1.5561614529869985,,,080,001,2019_Aug_27_1412,MusicAffectPsychophysiology2019,3.0.5,59.94969716953685,
To what extent did the music make you feel ,ACTIVE,30MonoWAV/30MonoS3.wav,1,1,3,11,,,,,0,4,4,10,0,9,9,9,,,,,,,,,1,5.305288400006248,,,080,001,2019_Aug_27_1412,MusicAffectPsychophysiology2019,3.0.5,59.94969716953685,
To what extent did the music make you feel ,SCARED,30MonoWAV/30MonoS3.wav,1,1,3,11,,,,,0,4,4,10,0,10,10,11,,,,,,,,,2,1.7182590200100094,,,080,001,2019_Aug_27_1412,MusicAffectPsychophysiology2019,3.0.5,59.94969716953685,
To what extent did the music make you feel ,GUILTY,30MonoWAV/30MonoS3.wav,1,1,3,11,,,,,0,4,4,10,0,11,11,5,,,,,,,,,2,1.3844682019844186,,,080,001,2019_Aug_27_1412,MusicAffectPsychophysiology2019,3.0.5,59.94969716953685,
,,30MonoWAV/30MonoS3.wav,1,1,3,11,,,,,0,4,4,10,,,,,,,,,,,,,,,,,080,001,2019_Aug_27_1412,MusicAffectPsychophysiology2019,3.0.5,59.94969716953685,
To what extent did the music make you feel ,ANXIOUS ,30MonoWAV/30MonoT3.wav,2,1,4,15,,,,,0,5,5,14,0,0,0,1,,,1,3.985986599000171,2,1.8539955540036317,2,2.1037698930012994,2,3.454261543985922,,,080,001,2019_Aug_27_1412,MusicAffectPsychophysiology2019,3.0.5,59.94969716953685,
To what extent did the music make you feel ,ACTIVE,30MonoWAV/30MonoT3.wav,2,1,4,15,,,,,0,5,5,14,0,1,1,9,,,,,,,,,1,2.266947033989709,,,080,001,2019_Aug_27_1412,MusicAffectPsychophysiology2019,3.0.5,59.94969716953685,
To what extent did the music make you feel ,EXCITED,30MonoWAV/30MonoT3.wav,2,1,4,15,,,,,0,5,5,14,0,2,2,7,,,,,,,,,2,1.8656891220016405,,,080,001,2019_Aug_27_1412,MusicAffectPsychophysiology2019,3.0.5,59.94969716953685,
To what extent did the music make you feel ,ASHAMED,30MonoWAV/30MonoT3.wav,2,1,4,15,,,,,0,5,5,14,0,3,3,4,,,,,,,,,1,1.1327663980191574,,,080,001,2019_Aug_27_1412,MusicAffectPsychophysiology2019,3.0.5,59.94969716953685,
To what extent did the music make you feel ,ANGRY,30MonoWAV/30MonoT3.wav,2,1,4,15,,,,,0,5,5,14,0,4,4,2,,,,,,,,,1,1.1689909790002275,,,080,001,2019_Aug_27_1412,MusicAffectPsychophysiology2019,3.0.5,59.94969716953685,
To what extent did the music make you feel ,SAD,30MonoWAV/30MonoT3.wav,2,1,4,15,,,,,0,5,5,14,0,5,5,0,,,,,,,,,2,1.636792620003689,,,080,001,2019_Aug_27_1412,MusicAffectPsychophysiology2019,3.0.5,59.94969716953685,
To what extent did the music make you feel ,TENDER,30MonoWAV/30MonoT3.wav,2,1,4,15,,,,,0,5,5,14,0,6,6,10,,,,,,,,,3,1.8374187019944657,,,080,001,2019_Aug_27_1412,MusicAffectPsychophysiology2019,3.0.5,59.94969716953685,
To what extent did the music make you feel ,SCARED,30MonoWAV/30MonoT3.wav,2,1,4,15,,,,,0,5,5,14,0,7,7,11,,,,,,,,,1,1.69556050299434,,,080,001,2019_Aug_27_1412,MusicAffectPsychophysiology2019,3.0.5,59.94969716953685,
To what extent did the music make you feel ,GUILTY,30MonoWAV/30MonoT3.wav,2,1,4,15,,,,,0,5,5,14,0,8,8,5,,,,,,,,,1,0.918918790994212,,,080,001,2019_Aug_27_1412,MusicAffectPsychophysiology2019,3.0.5,59.94969716953685,
To what extent did the music make you feel ,HAPPY,30MonoWAV/30MonoT3.wav,2,1,4,15,,,,,0,5,5,14,0,9,9,6,,,,,,,,,2,1.4010890460049268,,,080,001,2019_Aug_27_1412,MusicAffectPsychophysiology2019,3.0.5,59.94969716953685,
To what extent did the music make you feel ,ALERT,30MonoWAV/30MonoT3.wav,2,1,4,15,,,,,0,5,5,14,0,10,10,8,,,,,,,,,1,0.983410882006865,,,080,001,2019_Aug_27_1412,MusicAffectPsychophysiology2019,3.0.5,59.94969716953685,
To what extent did the music make you feel ,FRUSTRATED,30MonoWAV/30MonoT3.wav,2,1,4,15,,,,,0,5,5,14,0,11,11,3,,,,,,,,,1,0.7880995119921863,,,080,001,2019_Aug_27_1412,MusicAffectPsychophysiology2019,3.0.5,59.94969716953685,
,,30MonoWAV/30MonoT3.wav,2,1,4,15,,,,,0,5,5,14,,,,,,,,,,,,,,,,,080,001,2019_Aug_27_1412,MusicAffectPsychophysiology2019,3.0.5,59.94969716953685,
To what extent did the music make you feel ,SCARED,30MonoWAV/30MonoS2.wav,1,1,3,10,,,,,0,6,6,9,0,0,0,11,,,1,8.253258837998146,2,2.603191552014323,1,2.017744662007317,1,1.5885516889975406,,,080,001,2019_Aug_27_1412,MusicAffectPsychophysiology2019,3.0.5,59.94969716953685,
To what extent did the music make you feel ,ANXIOUS ,30MonoWAV/30MonoS2.wav,1,1,3,10,,,,,0,6,6,9,0,1,1,1,,,,,,,,,2,1.5827676100016106,,,080,001,2019_Aug_27_1412,MusicAffectPsychophysiology2019,3.0.5,59.94969716953685,
To what extent did the music make you feel ,ASHAMED,30MonoWAV/30MonoS2.wav,1,1,3,10,,,,,0,6,6,9,0,2,2,4,,,,,,,,,1,1.3857576129958034,,,080,001,2019_Aug_27_1412,MusicAffectPsychophysiology2019,3.0.5,59.94969716953685,
To what extent did the music make you feel ,EXCITED,30MonoWAV/30MonoS2.wav,1,1,3,10,,,,,0,6,6,9,0,3,3,7,,,,,,,,,1,1.290816280990839,,,080,001,2019_Aug_27_1412,MusicAffectPsychophysiology2019,3.0.5,59.94969716953685,
To what extent did the music make you feel ,FRUSTRATED,30MonoWAV/30MonoS2.wav,1,1,3,10,,,,,0,6,6,9,0,4,4,3,,,,,,,,,1,1.0734102250135038,,,080,001,2019_Aug_27_1412,MusicAffectPsychophysiology2019,3.0.5,59.94969716953685,
To what extent did the music make you feel ,SAD,30MonoWAV/30MonoS2.wav,1,1,3,10,,,,,0,6,6,9,0,5,5,0,,,,,,,,,3,1.519452133012237,,,080,001,2019_Aug_27_1412,MusicAffectPsychophysiology2019,3.0.5,59.94969716953685,
To what extent did the music make you feel ,ACTIVE,30MonoWAV/30MonoS2.wav,1,1,3,10,,,,,0,6,6,9,0,6,6,9,,,,,,,,,1,2.2678907320077997,,,080,001,2019_Aug_27_1412,MusicAffectPsychophysiology2019,3.0.5,59.94969716953685,
To what extent did the music make you feel ,GUILTY,30MonoWAV/30MonoS2.wav,1,1,3,10,,,,,0,6,6,9,0,7,7,5,,,,,,,,,1,1.0689376730006188,,,080,001,2019_Aug_27_1412,MusicAffectPsychophysiology2019,3.0.5,59.94969716953685,
To what extent did the music make you feel ,HAPPY,30MonoWAV/30MonoS2.wav,1,1,3,10,,,,,0,6,6,9,0,8,8,6,,,,,,,,,1,1.9001746189896949,,,080,001,2019_Aug_27_1412,MusicAffectPsychophysiology2019,3.0.5,59.94969716953685,
To what extent did the music make you feel ,ALERT,30MonoWAV/30MonoS2.wav,1,1,3,10,,,,,0,6,6,9,0,9,9,8,,,,,,,,,1,1.5373668789980002,,,080,001,2019_Aug_27_1412,MusicAffectPsychophysiology2019,3.0.5,59.94969716953685,
To what extent did the music make you feel ,TENDER,30MonoWAV/30MonoS2.wav,1,1,3,10,,,,,0,6,6,9,0,10,10,10,,,,,,,,,3,1.573622305993922,,,080,001,2019_Aug_27_1412,MusicAffectPsychophysiology2019,3.0.5,59.94969716953685,
To what extent did the music make you feel ,ANGRY,30MonoWAV/30MonoS2.wav,1,1,3,10,,,,,0,6,6,9,0,11,11,2,,,,,,,,,1,1.337784924020525,,,080,001,2019_Aug_27_1412,MusicAffectPsychophysiology2019,3.0.5,59.94969716953685,
,,30MonoWAV/30MonoS2.wav,1,1,3,10,,,,,0,6,6,9,,,,,,,,,,,,,,,,,080,001,2019_Aug_27_1412,MusicAffectPsychophysiology2019,3.0.5,59.94969716953685,
To what extent did the music make you feel ,SAD,30MonoWAV/30MonoF1.wav,1,2,2,1,,,,,0,7,7,0,0,0,0,0,,,3,4.1033288369944785,2,2.5187086109945085,1,1.1024220629769843,2,5.086562401993433,,,080,001,2019_Aug_27_1412,MusicAffectPsychophysiology2019,3.0.5,59.94969716953685,
To what extent did the music make you feel ,TENDER,30MonoWAV/30MonoF1.wav,1,2,2,1,,,,,0,7,7,0,0,1,1,10,,,,,,,,,1,1.0505220330087468,,,080,001,2019_Aug_27_1412,MusicAffectPsychophysiology2019,3.0.5,59.94969716953685,
To what extent did the music make you feel ,ACTIVE,30MonoWAV/30MonoF1.wav,1,2,2,1,,,,,0,7,7,0,0,2,2,9,,,,,,,,,3,1.3357206259970553,,,080,001,2019_Aug_27_1412,MusicAffectPsychophysiology2019,3.0.5,59.94969716953685,
To what extent did the music make you feel ,HAPPY,30MonoWAV/30MonoF1.wav,1,2,2,1,,,,,0,7,7,0,0,3,3,6,,,,,,,,,1,2.10412307002116,,,080,001,2019_Aug_27_1412,MusicAffectPsychophysiology2019,3.0.5,59.94969716953685,
To what extent did the music make you feel ,ANGRY,30MonoWAV/30MonoF1.wav,1,2,2,1,,,,,0,7,7,0,0,4,4,2,,,,,,,,,4,1.8841128060012124,,,080,001,2019_Aug_27_1412,MusicAffectPsychophysiology2019,3.0.5,59.94969716953685,
To what extent did the music make you feel ,FRUSTRATED,30MonoWAV/30MonoF1.wav,1,2,2,1,,,,,0,7,7,0,0,5,5,3,,,,,,,,,3,1.3701930660172366,,,080,001,2019_Aug_27_1412,MusicAffectPsychophysiology2019,3.0.5,59.94969716953685,
To what extent did the music make you feel ,ASHAMED,30MonoWAV/30MonoF1.wav,1,2,2,1,,,,,0,7,7,0,0,6,6,4,,,,,,,,,1,1.2026602569967508,,,080,001,2019_Aug_27_1412,MusicAffectPsychophysiology2019,3.0.5,59.94969716953685,
To what extent did the music make you feel ,ALERT,30MonoWAV/30MonoF1.wav,1,2,2,1,,,,,0,7,7,0,0,7,7,8,,,,,,,,,5,2.0679690029937774,,,080,001,2019_Aug_27_1412,MusicAffectPsychophysiology2019,3.0.5,59.94969716953685,
To what extent did the music make you feel ,EXCITED,30MonoWAV/30MonoF1.wav,1,2,2,1,,,,,0,7,7,0,0,8,8,7,,,,,,,,,3,2.5529196599964052,,,080,001,2019_Aug_27_1412,MusicAffectPsychophysiology2019,3.0.5,59.94969716953685,
To what extent did the music make you feel ,SCARED,30MonoWAV/30MonoF1.wav,1,2,2,1,,,,,0,7,7,0,0,9,9,11,,,,,,,,,4,1.9489649120077956,,,080,001,2019_Aug_27_1412,MusicAffectPsychophysiology2019,3.0.5,59.94969716953685,
To what extent did the music make you feel ,ANXIOUS ,30MonoWAV/30MonoF1.wav,1,2,2,1,,,,,0,7,7,0,0,10,10,1,,,,,,,,,3,3.320025960012572,,,080,001,2019_Aug_27_1412,MusicAffectPsychophysiology2019,3.0.5,59.94969716953685,
To what extent did the music make you feel ,GUILTY,30MonoWAV/30MonoF1.wav,1,2,2,1,,,,,0,7,7,0,0,11,11,5,,,,,,,,,2,2.4530913189810235,,,080,001,2019_Aug_27_1412,MusicAffectPsychophysiology2019,3.0.5,59.94969716953685,
,,30MonoWAV/30MonoF1.wav,1,2,2,1,,,,,0,7,7,0,,,,,,,,,,,,,,,,,080,001,2019_Aug_27_1412,MusicAffectPsychophysiology2019,3.0.5,59.94969716953685,
To what extent did the music make you feel ,HAPPY,30MonoWAV/30MonoF2.wav,1,2,2,2,,,,,0,8,8,1,0,0,0,6,,,2,3.83667972299736,1,1.3186832400097046,1,1.0362959729973227,1,1.292650371993659,,,080,001,2019_Aug_27_1412,MusicAffectPsychophysiology2019,3.0.5,59.94969716953685,
To what extent did the music make you feel ,SAD,30MonoWAV/30MonoF2.wav,1,2,2,2,,,,,0,8,8,1,0,1,1,0,,,,,,,,,2,1.5035598269896582,,,080,001,2019_Aug_27_1412,MusicAffectPsychophysiology2019,3.0.5,59.94969716953685,
To what extent did the music make you feel ,FRUSTRATED,30MonoWAV/30MonoF2.wav,1,2,2,2,,,,,0,8,8,1,0,2,2,3,,,,,,,,,3,1.1596543880004901,,,080,001,2019_Aug_27_1412,MusicAffectPsychophysiology2019,3.0.5,59.94969716953685,
To what extent did the music make you feel ,ASHAMED,30MonoWAV/30MonoF2.wav,1,2,2,2,,,,,0,8,8,1,0,3,3,4,,,,,,,,,1,1.3093248860095628,,,080,001,2019_Aug_27_1412,MusicAffectPsychophysiology2019,3.0.5,59.94969716953685,
To what extent did the music make you feel ,ACTIVE,30MonoWAV/30MonoF2.wav,1,2,2,2,,,,,0,8,8,1,0,4,4,9,,,,,,,,,1,1.2536609869857784,,,080,001,2019_Aug_27_1412,MusicAffectPsychophysiology2019,3.0.5,59.94969716953685,
To what extent did the music make you feel ,ALERT,30MonoWAV/30MonoF2.wav,1,2,2,2,,,,,0,8,8,1,0,5,5,8,,,,,,,,,4,2.055057431978639,,,080,001,2019_Aug_27_1412,MusicAffectPsychophysiology2019,3.0.5,59.94969716953685,
To what extent did the music make you feel ,EXCITED,30MonoWAV/30MonoF2.wav,1,2,2,2,,,,,0,8,8,1,0,6,6,7,,,,,,,,,1,1.4582898680237122,,,080,001,2019_Aug_27_1412,MusicAffectPsychophysiology2019,3.0.5,59.94969716953685,
To what extent did the music make you feel ,TENDER,30MonoWAV/30MonoF2.wav,1,2,2,2,,,,,0,8,8,1,0,7,7,10,,,,,,,,,1,1.5026779779873323,,,080,001,2019_Aug_27_1412,MusicAffectPsychophysiology2019,3.0.5,59.94969716953685,
To what extent did the music make you feel ,ANXIOUS ,30MonoWAV/30MonoF2.wav,1,2,2,2,,,,,0,8,8,1,0,8,8,1,,,,,,,,,4,2.092229971982306,,,080,001,2019_Aug_27_1412,MusicAffectPsychophysiology2019,3.0.5,59.94969716953685,
To what extent did the music make you feel ,GUILTY,30MonoWAV/30MonoF2.wav,1,2,2,2,,,,,0,8,8,1,0,9,9,5,,,,,,,,,1,1.3531144539883826,,,080,001,2019_Aug_27_1412,MusicAffectPsychophysiology2019,3.0.5,59.94969716953685,
To what extent did the music make you feel ,ANGRY,30MonoWAV/30MonoF2.wav,1,2,2,2,,,,,0,8,8,1,0,10,10,2,,,,,,,,,2,3.2379161739954725,,,080,001,2019_Aug_27_1412,MusicAffectPsychophysiology2019,3.0.5,59.94969716953685,
To what extent did the music make you feel ,SCARED,30MonoWAV/30MonoF2.wav,1,2,2,2,,,,,0,8,8,1,0,11,11,11,,,,,,,,,5,2.757876491989009,,,080,001,2019_Aug_27_1412,MusicAffectPsychophysiology2019,3.0.5,59.94969716953685,
,,30MonoWAV/30MonoF2.wav,1,2,2,2,,,,,0,8,8,1,,,,,,,,,,,,,,,,,080,001,2019_Aug_27_1412,MusicAffectPsychophysiology2019,3.0.5,59.94969716953685,
To what extent did the music make you feel ,HAPPY,30MonoWAV/30MonoT4.wav,2,1,4,16,,,,,0,9,9,15,0,0,0,6,,,2,3.4029744929866865,3,2.4523122180253267,2,2.0364360439998563,3,4.052390085998923,,,080,001,2019_Aug_27_1412,MusicAffectPsychophysiology2019,3.0.5,59.94969716953685,
To what extent did the music make you feel ,ASHAMED,30MonoWAV/30MonoT4.wav,2,1,4,16,,,,,0,9,9,15,0,1,1,4,,,,,,,,,1,1.1516951130179223,,,080,001,2019_Aug_27_1412,MusicAffectPsychophysiology2019,3.0.5,59.94969716953685,
To what extent did the music make you feel ,FRUSTRATED,30MonoWAV/30MonoT4.wav,2,1,4,16,,,,,0,9,9,15,0,2,2,3,,,,,,,,,1,1.3507187670038547,,,080,001,2019_Aug_27_1412,MusicAffectPsychophysiology2019,3.0.5,59.94969716953685,
To what extent did the music make you feel ,GUILTY,30MonoWAV/30MonoT4.wav,2,1,4,16,,,,,0,9,9,15,0,3,3,5,,,,,,,,,1,0.9366511810221709,,,080,001,2019_Aug_27_1412,MusicAffectPsychophysiology2019,3.0.5,59.94969716953685,
To what extent did the music make you feel ,EXCITED,30MonoWAV/30MonoT4.wav,2,1,4,16,,,,,0,9,9,15,0,4,4,7,,,,,,,,,2,1.4016039459966123,,,080,001,2019_Aug_27_1412,MusicAffectPsychophysiology2019,3.0.5,59.94969716953685,
To what extent did the music make you feel ,ACTIVE,30MonoWAV/30MonoT4.wav,2,1,4,16,,,,,0,9,9,15,0,5,5,9,,,,,,,,,3,1.237385713000549,,,080,001,2019_Aug_27_1412,MusicAffectPsychophysiology2019,3.0.5,59.94969716953685,
To what extent did the music make you feel ,ANXIOUS ,30MonoWAV/30MonoT4.wav,2,1,4,16,,,,,0,9,9,15,0,6,6,1,,,,,,,,,1,2.586701512016589,,,080,001,2019_Aug_27_1412,MusicAffectPsychophysiology2019,3.0.5,59.94969716953685,
To what extent did the music make you feel ,SCARED,30MonoWAV/30MonoT4.wav,2,1,4,16,,,,,0,9,9,15,0,7,7,11,,,,,,,,,1,2.2163672969909385,,,080,001,2019_Aug_27_1412,MusicAffectPsychophysiology2019,3.0.5,59.94969716953685,
To what extent did the music make you feel ,TENDER,30MonoWAV/30MonoT4.wav,2,1,4,16,,,,,0,9,9,15,0,8,8,10,,,,,,,,,3,2.352539240004262,,,080,001,2019_Aug_27_1412,MusicAffectPsychophysiology2019,3.0.5,59.94969716953685,
To what extent did the music make you feel ,ALERT,30MonoWAV/30MonoT4.wav,2,1,4,16,,,,,0,9,9,15,0,9,9,8,,,,,,,,,2,2.7497211849840824,,,080,001,2019_Aug_27_1412,MusicAffectPsychophysiology2019,3.0.5,59.94969716953685,
To what extent did the music make you feel ,ANGRY,30MonoWAV/30MonoT4.wav,2,1,4,16,,,,,0,9,9,15,0,10,10,2,,,,,,,,,1,0.9531782039848622,,,080,001,2019_Aug_27_1412,MusicAffectPsychophysiology2019,3.0.5,59.94969716953685,
To what extent did the music make you feel ,SAD,30MonoWAV/30MonoT4.wav,2,1,4,16,,,,,0,9,9,15,0,11,11,0,,,,,,,,,1,1.2025292110047303,,,080,001,2019_Aug_27_1412,MusicAffectPsychophysiology2019,3.0.5,59.94969716953685,
,,30MonoWAV/30MonoT4.wav,2,1,4,16,,,,,0,9,9,15,,,,,,,,,,,,,,,,,080,001,2019_Aug_27_1412,MusicAffectPsychophysiology2019,3.0.5,59.94969716953685,
To what extent did the music make you feel ,ALERT,30MonoWAV/30MonoS4.wav,1,1,3,12,,,,,0,10,10,11,0,0,0,8,,,1,6.969019438984105,1,1.3350999719987158,2,1.3371475909953006,1,1.6115364829893224,,,080,001,2019_Aug_27_1412,MusicAffectPsychophysiology2019,3.0.5,59.94969716953685,
To what extent did the music make you feel ,GUILTY,30MonoWAV/30MonoS4.wav,1,1,3,12,,,,,0,10,10,11,0,1,1,5,,,,,,,,,1,0.9452877030125819,,,080,001,2019_Aug_27_1412,MusicAffectPsychophysiology2019,3.0.5,59.94969716953685,
To what extent did the music make you feel ,EXCITED,30MonoWAV/30MonoS4.wav,1,1,3,12,,,,,0,10,10,11,0,2,2,7,,,,,,,,,2,1.627438362018438,,,080,001,2019_Aug_27_1412,MusicAffectPsychophysiology2019,3.0.5,59.94969716953685,
To what extent did the music make you feel ,SCARED,30MonoWAV/30MonoS4.wav,1,1,3,12,,,,,0,10,10,11,0,3,3,11,,,,,,,,,1,1.794264819007367,,,080,001,2019_Aug_27_1412,MusicAffectPsychophysiology2019,3.0.5,59.94969716953685,
To what extent did the music make you feel ,ASHAMED,30MonoWAV/30MonoS4.wav,1,1,3,12,,,,,0,10,10,11,0,4,4,4,,,,,,,,,1,0.8867788739735261,,,080,001,2019_Aug_27_1412,MusicAffectPsychophysiology2019,3.0.5,59.94969716953685,
To what extent did the music make you feel ,ACTIVE,30MonoWAV/30MonoS4.wav,1,1,3,12,,,,,0,10,10,11,0,5,5,9,,,,,,,,,1,1.2538162510027178,,,080,001,2019_Aug_27_1412,MusicAffectPsychophysiology2019,3.0.5,59.94969716953685,
To what extent did the music make you feel ,ANXIOUS ,30MonoWAV/30MonoS4.wav,1,1,3,12,,,,,0,10,10,11,0,6,6,1,,,,,,,,,2,1.4431608700251672,,,080,001,2019_Aug_27_1412,MusicAffectPsychophysiology2019,3.0.5,59.94969716953685,
To what extent did the music make you feel ,TENDER,30MonoWAV/30MonoS4.wav,1,1,3,12,,,,,0,10,10,11,0,7,7,10,,,,,,,,,2,1.3102841909858398,,,080,001,2019_Aug_27_1412,MusicAffectPsychophysiology2019,3.0.5,59.94969716953685,
To what extent did the music make you feel ,FRUSTRATED,30MonoWAV/30MonoS4.wav,1,1,3,12,,,,,0,10,10,11,0,8,8,3,,,,,,,,,1,1.1752160360047128,,,080,001,2019_Aug_27_1412,MusicAffectPsychophysiology2019,3.0.5,59.94969716953685,
To what extent did the music make you feel ,HAPPY,30MonoWAV/30MonoS4.wav,1,1,3,12,,,,,0,10,10,11,0,9,9,6,,,,,,,,,1,1.7860724110214505,,,080,001,2019_Aug_27_1412,MusicAffectPsychophysiology2019,3.0.5,59.94969716953685,
To what extent did the music make you feel ,SAD,30MonoWAV/30MonoS4.wav,1,1,3,12,,,,,0,10,10,11,0,10,10,0,,,,,,,,,3,1.486207556008594,,,080,001,2019_Aug_27_1412,MusicAffectPsychophysiology2019,3.0.5,59.94969716953685,
To what extent did the music make you feel ,ANGRY,30MonoWAV/30MonoS4.wav,1,1,3,12,,,,,0,10,10,11,0,11,11,2,,,,,,,,,1,2.9702643219789024,,,080,001,2019_Aug_27_1412,MusicAffectPsychophysiology2019,3.0.5,59.94969716953685,
,,30MonoWAV/30MonoS4.wav,1,1,3,12,,,,,0,10,10,11,,,,,,,,,,,,,,,,,080,001,2019_Aug_27_1412,MusicAffectPsychophysiology2019,3.0.5,59.94969716953685,
To what extent did the music make you feel ,SCARED,30MonoWAV/30MonoT2.wav,2,1,4,14,,,,,0,11,11,13,0,0,0,11,,,2,3.6542838189925533,3,1.569855333014857,3,1.2690260850067716,1,1.734227181004826,,,080,001,2019_Aug_27_1412,MusicAffectPsychophysiology2019,3.0.5,59.94969716953685,
To what extent did the music make you feel ,EXCITED,30MonoWAV/30MonoT2.wav,2,1,4,14,,,,,0,11,11,13,0,1,1,7,,,,,,,,,2,1.5873082790058106,,,080,001,2019_Aug_27_1412,MusicAffectPsychophysiology2019,3.0.5,59.94969716953685,
To what extent did the music make you feel ,ASHAMED,30MonoWAV/30MonoT2.wav,2,1,4,14,,,,,0,11,11,13,0,2,2,4,,,,,,,,,1,0.7527251059946138,,,080,001,2019_Aug_27_1412,MusicAffectPsychophysiology2019,3.0.5,59.94969716953685,
To what extent did the music make you feel ,HAPPY,30MonoWAV/30MonoT2.wav,2,1,4,14,,,,,0,11,11,13,0,3,3,6,,,,,,,,,4,3.017180710012326,,,080,001,2019_Aug_27_1412,MusicAffectPsychophysiology2019,3.0.5,59.94969716953685,
To what extent did the music make you feel ,GUILTY,30MonoWAV/30MonoT2.wav,2,1,4,14,,,,,0,11,11,13,0,4,4,5,,,,,,,,,1,1.0529160799924284,,,080,001,2019_Aug_27_1412,MusicAffectPsychophysiology2019,3.0.5,59.94969716953685,
To what extent did the music make you feel ,FRUSTRATED,30MonoWAV/30MonoT2.wav,2,1,4,14,,,,,0,11,11,13,0,5,5,3,,,,,,,,,1,0.9527961199928541,,,080,001,2019_Aug_27_1412,MusicAffectPsychophysiology2019,3.0.5,59.94969716953685,
To what extent did the music make you feel ,ACTIVE,30MonoWAV/30MonoT2.wav,2,1,4,14,,,,,0,11,11,13,0,6,6,9,,,,,,,,,2,1.888331245019799,,,080,001,2019_Aug_27_1412,MusicAffectPsychophysiology2019,3.0.5,59.94969716953685,
To what extent did the music make you feel ,ANXIOUS ,30MonoWAV/30MonoT2.wav,2,1,4,14,,,,,0,11,11,13,0,7,7,1,,,,,,,,,1,1.6029186509840656,,,080,001,2019_Aug_27_1412,MusicAffectPsychophysiology2019,3.0.5,59.94969716953685,
To what extent did the music make you feel ,SAD,30MonoWAV/30MonoT2.wav,2,1,4,14,,,,,0,11,11,13,0,8,8,0,,,,,,,,,1,1.4329198990017176,,,080,001,2019_Aug_27_1412,MusicAffectPsychophysiology2019,3.0.5,59.94969716953685,
To what extent did the music make you feel ,ANGRY,30MonoWAV/30MonoT2.wav,2,1,4,14,,,,,0,11,11,13,0,9,9,2,,,,,,,,,1,0.8528741130139679,,,080,001,2019_Aug_27_1412,MusicAffectPsychophysiology2019,3.0.5,59.94969716953685,
To what extent did the music make you feel ,TENDER,30MonoWAV/30MonoT2.wav,2,1,4,14,,,,,0,11,11,13,0,10,10,10,,,,,,,,,3,1.701243560994044,,,080,001,2019_Aug_27_1412,MusicAffectPsychophysiology2019,3.0.5,59.94969716953685,
To what extent did the music make you feel ,ALERT,30MonoWAV/30MonoT2.wav,2,1,4,14,,,,,0,11,11,13,0,11,11,8,,,,,,,,,2,1.836357271997258,,,080,001,2019_Aug_27_1412,MusicAffectPsychophysiology2019,3.0.5,59.94969716953685,
,,30MonoWAV/30MonoT2.wav,2,1,4,14,,,,,0,11,11,13,,,,,,,,,,,,,,,,,080,001,2019_Aug_27_1412,MusicAffectPsychophysiology2019,3.0.5,59.94969716953685,
To what extent did the music make you feel ,ANXIOUS ,30MonoWAV/30MonoH4.wav,2,2,1,8,,,,,0,12,12,7,0,0,0,1,,,4,2.8051681030192412,5,2.2697373339906335,4,3.0362167400016915,1,1.3367160240013618,,,080,001,2019_Aug_27_1412,MusicAffectPsychophysiology2019,3.0.5,59.94969716953685,
To what extent did the music make you feel ,ANGRY,30MonoWAV/30MonoH4.wav,2,2,1,8,,,,,0,12,12,7,0,1,1,2,,,,,,,,,1,0.6198814939998556,,,080,001,2019_Aug_27_1412,MusicAffectPsychophysiology2019,3.0.5,59.94969716953685,
To what extent did the music make you feel ,FRUSTRATED,30MonoWAV/30MonoH4.wav,2,2,1,8,,,,,0,12,12,7,0,2,2,3,,,,,,,,,1,0.6138143370044418,,,080,001,2019_Aug_27_1412,MusicAffectPsychophysiology2019,3.0.5,59.94969716953685,
To what extent did the music make you feel ,ASHAMED,30MonoWAV/30MonoH4.wav,2,2,1,8,,,,,0,12,12,7,0,3,3,4,,,,,,,,,1,1.1173902619921137,,,080,001,2019_Aug_27_1412,MusicAffectPsychophysiology2019,3.0.5,59.94969716953685,
To what extent did the music make you feel ,SAD,30MonoWAV/30MonoH4.wav,2,2,1,8,,,,,0,12,12,7,0,4,4,0,,,,,,,,,1,0.7036497349909041,,,080,001,2019_Aug_27_1412,MusicAffectPsychophysiology2019,3.0.5,59.94969716953685,
To what extent did the music make you feel ,TENDER,30MonoWAV/30MonoH4.wav,2,2,1,8,,,,,0,12,12,7,0,5,5,10,,,,,,,,,2,1.7122520999982953,,,080,001,2019_Aug_27_1412,MusicAffectPsychophysiology2019,3.0.5,59.94969716953685,
To what extent did the music make you feel ,SCARED,30MonoWAV/30MonoH4.wav,2,2,1,8,,,,,0,12,12,7,0,6,6,11,,,,,,,,,1,0.7268239500117488,,,080,001,2019_Aug_27_1412,MusicAffectPsychophysiology2019,3.0.5,59.94969716953685,
To what extent did the music make you feel ,HAPPY,30MonoWAV/30MonoH4.wav,2,2,1,8,,,,,0,12,12,7,0,7,7,6,,,,,,,,,4,1.6009030790010002,,,080,001,2019_Aug_27_1412,MusicAffectPsychophysiology2019,3.0.5,59.94969716953685,
To what extent did the music make you feel ,ACTIVE,30MonoWAV/30MonoH4.wav,2,2,1,8,,,,,0,12,12,7,0,8,8,9,,,,,,,,,4,1.7206838580023032,,,080,001,2019_Aug_27_1412,MusicAffectPsychophysiology2019,3.0.5,59.94969716953685,
To what extent did the music make you feel ,ALERT,30MonoWAV/30MonoH4.wav,2,2,1,8,,,,,0,12,12,7,0,9,9,8,,,,,,,,,3,2.8113821250153705,,,080,001,2019_Aug_27_1412,MusicAffectPsychophysiology2019,3.0.5,59.94969716953685,
To what extent did the music make you feel ,GUILTY,30MonoWAV/30MonoH4.wav,2,2,1,8,,,,,0,12,12,7,0,10,10,5,,,,,,,,,1,1.0688645280024502,,,080,001,2019_Aug_27_1412,MusicAffectPsychophysiology2019,3.0.5,59.94969716953685,
To what extent did the music make you feel ,EXCITED,30MonoWAV/30MonoH4.wav,2,2,1,8,,,,,0,12,12,7,0,11,11,7,,,,,,,,,5,3.3369511280034203,,,080,001,2019_Aug_27_1412,MusicAffectPsychophysiology2019,3.0.5,59.94969716953685,
,,30MonoWAV/30MonoH4.wav,2,2,1,8,,,,,0,12,12,7,,,,,,,,,,,,,,,,,080,001,2019_Aug_27_1412,MusicAffectPsychophysiology2019,3.0.5,59.94969716953685,
To what extent did the music make you feel ,ANXIOUS ,30MonoWAV/30MonoH3.wav,2,2,1,7,,,,,0,13,13,6,0,0,0,1,,,5,4.299760207999498,5,1.287230432004435,5,2.137029767007334,1,1.2396939340105746,,,080,001,2019_Aug_27_1412,MusicAffectPsychophysiology2019,3.0.5,59.94969716953685,
To what extent did the music make you feel ,HAPPY,30MonoWAV/30MonoH3.wav,2,2,1,7,,,,,0,13,13,6,0,1,1,6,,,,,,,,,4,1.5693328240013216,,,080,001,2019_Aug_27_1412,MusicAffectPsychophysiology2019,3.0.5,59.94969716953685,
To what extent did the music make you feel ,ALERT,30MonoWAV/30MonoH3.wav,2,2,1,7,,,,,0,13,13,6,0,2,2,8,,,,,,,,,2,1.8063524040044285,,,080,001,2019_Aug_27_1412,MusicAffectPsychophysiology2019,3.0.5,59.94969716953685,
To what extent did the music make you feel ,TENDER,30MonoWAV/30MonoH3.wav,2,2,1,7,,,,,0,13,13,6,0,3,3,10,,,,,,,,,2,1.5065194719936699,,,080,001,2019_Aug_27_1412,MusicAffectPsychophysiology2019,3.0.5,59.94969716953685,
To what extent did the music make you feel ,FRUSTRATED,30MonoWAV/30MonoH3.wav,2,2,1,7,,,,,0,13,13,6,0,4,4,3,,,,,,,,,1,0.9876585750025697,,,080,001,2019_Aug_27_1412,MusicAffectPsychophysiology2019,3.0.5,59.94969716953685,
To what extent did the music make you feel ,ACTIVE,30MonoWAV/30MonoH3.wav,2,2,1,7,,,,,0,13,13,6,0,5,5,9,,,,,,,,,4,1.8703184929909185,,,080,001,2019_Aug_27_1412,MusicAffectPsychophysiology2019,3.0.5,59.94969716953685,
To what extent did the music make you feel ,ASHAMED,30MonoWAV/30MonoH3.wav,2,2,1,7,,,,,0,13,13,6,0,6,6,4,,,,,,,,,1,1.1035390150209423,,,080,001,2019_Aug_27_1412,MusicAffectPsychophysiology2019,3.0.5,59.94969716953685,
To what extent did the music make you feel ,ANGRY,30MonoWAV/30MonoH3.wav,2,2,1,7,,,,,0,13,13,6,0,7,7,2,,,,,,,,,1,1.7858100649900734,,,080,001,2019_Aug_27_1412,MusicAffectPsychophysiology2019,3.0.5,59.94969716953685,
To what extent did the music make you feel ,SAD,30MonoWAV/30MonoH3.wav,2,2,1,7,,,,,0,13,13,6,0,8,8,0,,,,,,,,,1,0.8040429760003462,,,080,001,2019_Aug_27_1412,MusicAffectPsychophysiology2019,3.0.5,59.94969716953685,
To what extent did the music make you feel ,EXCITED,30MonoWAV/30MonoH3.wav,2,2,1,7,,,,,0,13,13,6,0,9,9,7,,,,,,,,,5,1.504662532999646,,,080,001,2019_Aug_27_1412,MusicAffectPsychophysiology2019,3.0.5,59.94969716953685,
To what extent did the music make you feel ,GUILTY,30MonoWAV/30MonoH3.wav,2,2,1,7,,,,,0,13,13,6,0,10,10,5,,,,,,,,,1,0.9871626929962076,,,080,001,2019_Aug_27_1412,MusicAffectPsychophysiology2019,3.0.5,59.94969716953685,
To what extent did the music make you feel ,SCARED,30MonoWAV/30MonoH3.wav,2,2,1,7,,,,,0,13,13,6,0,11,11,11,,,,,,,,,1,1.8016437329933979,,,080,001,2019_Aug_27_1412,MusicAffectPsychophysiology2019,3.0.5,59.94969716953685,
,,30MonoWAV/30MonoH3.wav,2,2,1,7,,,,,0,13,13,6,,,,,,,,,,,,,,,,,080,001,2019_Aug_27_1412,MusicAffectPsychophysiology2019,3.0.5,59.94969716953685,
To what extent did the music make you feel ,ASHAMED,30MonoWAV/30MonoS1.wav,1,1,3,9,,,,,0,14,14,8,0,0,0,4,,,2,6.8863908179919235,3,2.3189005969907157,2,1.469553756993264,1,2.135461347992532,,,080,001,2019_Aug_27_1412,MusicAffectPsychophysiology2019,3.0.5,59.94969716953685,
To what extent did the music make you feel ,ANXIOUS ,30MonoWAV/30MonoS1.wav,1,1,3,9,,,,,0,14,14,8,0,1,1,1,,,,,,,,,2,1.4482424179732334,,,080,001,2019_Aug_27_1412,MusicAffectPsychophysiology2019,3.0.5,59.94969716953685,
To what extent did the music make you feel ,EXCITED,30MonoWAV/30MonoS1.wav,1,1,3,9,,,,,0,14,14,8,0,2,2,7,,,,,,,,,2,2.0206021270132624,,,080,001,2019_Aug_27_1412,MusicAffectPsychophysiology2019,3.0.5,59.94969716953685,
To what extent did the music make you feel ,HAPPY,30MonoWAV/30MonoS1.wav,1,1,3,9,,,,,0,14,14,8,0,3,3,6,,,,,,,,,2,2.2370395079778973,,,080,001,2019_Aug_27_1412,MusicAffectPsychophysiology2019,3.0.5,59.94969716953685,
To what extent did the music make you feel ,SCARED,30MonoWAV/30MonoS1.wav,1,1,3,9,,,,,0,14,14,8,0,4,4,11,,,,,,,,,1,1.0643142329936381,,,080,001,2019_Aug_27_1412,MusicAffectPsychophysiology2019,3.0.5,59.94969716953685,
To what extent did the music make you feel ,GUILTY,30MonoWAV/30MonoS1.wav,1,1,3,9,,,,,0,14,14,8,0,5,5,5,,,,,,,,,1,0.7194776079850271,,,080,001,2019_Aug_27_1412,MusicAffectPsychophysiology2019,3.0.5,59.94969716953685,
To what extent did the music make you feel ,TENDER,30MonoWAV/30MonoS1.wav,1,1,3,9,,,,,0,14,14,8,0,6,6,10,,,,,,,,,2,1.4674325039959513,,,080,001,2019_Aug_27_1412,MusicAffectPsychophysiology2019,3.0.5,59.94969716953685,
To what extent did the music make you feel ,ALERT,30MonoWAV/30MonoS1.wav,1,1,3,9,,,,,0,14,14,8,0,7,7,8,,,,,,,,,3,1.9678138050076086,,,080,001,2019_Aug_27_1412,MusicAffectPsychophysiology2019,3.0.5,59.94969716953685,
To what extent did the music make you feel ,ACTIVE,30MonoWAV/30MonoS1.wav,1,1,3,9,,,,,0,14,14,8,0,8,8,9,,,,,,,,,3,1.9836904460098594,,,080,001,2019_Aug_27_1412,MusicAffectPsychophysiology2019,3.0.5,59.94969716953685,
To what extent did the music make you feel ,ANGRY,30MonoWAV/30MonoS1.wav,1,1,3,9,,,,,0,14,14,8,0,9,9,2,,,,,,,,,1,1.1369926519982982,,,080,001,2019_Aug_27_1412,MusicAffectPsychophysiology2019,3.0.5,59.94969716953685,
To what extent did the music make you feel ,FRUSTRATED,30MonoWAV/30MonoS1.wav,1,1,3,9,,,,,0,14,14,8,0,10,10,3,,,,,,,,,1,0.8442290429957211,,,080,001,2019_Aug_27_1412,MusicAffectPsychophysiology2019,3.0.5,59.94969716953685,
To what extent did the music make you feel ,SAD,30MonoWAV/30MonoS1.wav,1,1,3,9,,,,,0,14,14,8,0,11,11,0,,,,,,,,,2,1.4371935750241391,,,080,001,2019_Aug_27_1412,MusicAffectPsychophysiology2019,3.0.5,59.94969716953685,
,,30MonoWAV/30MonoS1.wav,1,1,3,9,,,,,0,14,14,8,,,,,,,,,,,,,,,,,080,001,2019_Aug_27_1412,MusicAffectPsychophysiology2019,3.0.5,59.94969716953685,
To what extent did the music make you feel ,ACTIVE,30MonoWAV/30MonoH2.wav,2,2,1,6,,,,,0,15,15,5,0,0,0,9,,,4,2.4197846919996664,4,1.5210646910127252,3,1.6031908959848806,3,1.4577635650057346,,,080,001,2019_Aug_27_1412,MusicAffectPsychophysiology2019,3.0.5,59.94969716953685,
To what extent did the music make you feel ,SAD,30MonoWAV/30MonoH2.wav,2,2,1,6,,,,,0,15,15,5,0,1,1,0,,,,,,,,,1,1.1034836519975215,,,080,001,2019_Aug_27_1412,MusicAffectPsychophysiology2019,3.0.5,59.94969716953685,
To what extent did the music make you feel ,FRUSTRATED,30MonoWAV/30MonoH2.wav,2,2,1,6,,,,,0,15,15,5,0,2,2,3,,,,,,,,,1,0.6388015650154557,,,080,001,2019_Aug_27_1412,MusicAffectPsychophysiology2019,3.0.5,59.94969716953685,
To what extent did the music make you feel ,SCARED,30MonoWAV/30MonoH2.wav,2,2,1,6,,,,,0,15,15,5,0,3,3,11,,,,,,,,,1,1.6358286929898895,,,080,001,2019_Aug_27_1412,MusicAffectPsychophysiology2019,3.0.5,59.94969716953685,
To what extent did the music make you feel ,ANGRY,30MonoWAV/30MonoH2.wav,2,2,1,6,,,,,0,15,15,5,0,4,4,2,,,,,,,,,1,1.1868699110054877,,,080,001,2019_Aug_27_1412,MusicAffectPsychophysiology2019,3.0.5,59.94969716953685,
To what extent did the music make you feel ,EXCITED,30MonoWAV/30MonoH2.wav,2,2,1,6,,,,,0,15,15,5,0,5,5,7,,,,,,,,,2,1.4703338310064282,,,080,001,2019_Aug_27_1412,MusicAffectPsychophysiology2019,3.0.5,59.94969716953685,
To what extent did the music make you feel ,ALERT,30MonoWAV/30MonoH2.wav,2,2,1,6,,,,,0,15,15,5,0,6,6,8,,,,,,,,,2,1.4031884179858025,,,080,001,2019_Aug_27_1412,MusicAffectPsychophysiology2019,3.0.5,59.94969716953685,
To what extent did the music make you feel ,GUILTY,30MonoWAV/30MonoH2.wav,2,2,1,6,,,,,0,15,15,5,0,7,7,5,,,,,,,,,1,0.8210886989836581,,,080,001,2019_Aug_27_1412,MusicAffectPsychophysiology2019,3.0.5,59.94969716953685,
To what extent did the music make you feel ,HAPPY,30MonoWAV/30MonoH2.wav,2,2,1,6,,,,,0,15,15,5,0,8,8,6,,,,,,,,,4,1.5869878119847272,,,080,001,2019_Aug_27_1412,MusicAffectPsychophysiology2019,3.0.5,59.94969716953685,
To what extent did the music make you feel ,TENDER,30MonoWAV/30MonoH2.wav,2,2,1,6,,,,,0,15,15,5,0,9,9,10,,,,,,,,,2,1.2903358080075122,,,080,001,2019_Aug_27_1412,MusicAffectPsychophysiology2019,3.0.5,59.94969716953685,
To what extent did the music make you feel ,ASHAMED,30MonoWAV/30MonoH2.wav,2,2,1,6,,,,,0,15,15,5,0,10,10,4,,,,,,,,,1,1.219538734992966,,,080,001,2019_Aug_27_1412,MusicAffectPsychophysiology2019,3.0.5,59.94969716953685,
To what extent did the music make you feel ,ANXIOUS ,30MonoWAV/30MonoH2.wav,2,2,1,6,,,,,0,15,15,5,0,11,11,1,,,,,,,,,1,0.7898496990092099,,,080,001,2019_Aug_27_1412,MusicAffectPsychophysiology2019,3.0.5,59.94969716953685,
,,30MonoWAV/30MonoH2.wav,2,2,1,6,,,,,0,15,15,5,,,,,,,,,,,,,,,,,080,001,2019_Aug_27_1412,MusicAffectPsychophysiology2019,3.0.5,59.94969716953685,
To what extent did the music make you feel ,GUILTY,30MonoWAV/30MonoF4.wav,1,2,2,4,,,,,1,0,16,3,0,0,0,5,,,3,3.133463331992971,3,1.820045956003014,3,1.5534696519898716,1,1.7503072360123042,,,080,001,2019_Aug_27_1412,MusicAffectPsychophysiology2019,3.0.5,59.94969716953685,
To what extent did the music make you feel ,ANXIOUS ,30MonoWAV/30MonoF4.wav,1,2,2,4,,,,,1,0,16,3,0,1,1,1,,,,,,,,,2,1.0855084560171235,,,080,001,2019_Aug_27_1412,MusicAffectPsychophysiology2019,3.0.5,59.94969716953685,
To what extent did the music make you feel ,ACTIVE,30MonoWAV/30MonoF4.wav,1,2,2,4,,,,,1,0,16,3,0,2,2,9,,,,,,,,,3,1.1193505349801853,,,080,001,2019_Aug_27_1412,MusicAffectPsychophysiology2019,3.0.5,59.94969716953685,
To what extent did the music make you feel ,ASHAMED,30MonoWAV/30MonoF4.wav,1,2,2,4,,,,,1,0,16,3,0,3,3,4,,,,,,,,,1,1.2027539450209588,,,080,001,2019_Aug_27_1412,MusicAffectPsychophysiology2019,3.0.5,59.94969716953685,
To what extent did the music make you feel ,HAPPY,30MonoWAV/30MonoF4.wav,1,2,2,4,,,,,1,0,16,3,0,4,4,6,,,,,,,,,2,1.252542790985899,,,080,001,2019_Aug_27_1412,MusicAffectPsychophysiology2019,3.0.5,59.94969716953685,
To what extent did the music make you feel ,SCARED,30MonoWAV/30MonoF4.wav,1,2,2,4,,,,,1,0,16,3,0,5,5,11,,,,,,,,,3,1.3687731529935263,,,080,001,2019_Aug_27_1412,MusicAffectPsychophysiology2019,3.0.5,59.94969716953685,
To what extent did the music make you feel ,SAD,30MonoWAV/30MonoF4.wav,1,2,2,4,,,,,1,0,16,3,0,6,6,0,,,,,,,,,1,1.6860339260019828,,,080,001,2019_Aug_27_1412,MusicAffectPsychophysiology2019,3.0.5,59.94969716953685,
To what extent did the music make you feel ,TENDER,30MonoWAV/30MonoF4.wav,1,2,2,4,,,,,1,0,16,3,0,7,7,10,,,,,,,,,1,1.2033678950101603,,,080,001,2019_Aug_27_1412,MusicAffectPsychophysiology2019,3.0.5,59.94969716953685,
To what extent did the music make you feel ,ANGRY,30MonoWAV/30MonoF4.wav,1,2,2,4,,,,,1,0,16,3,0,8,8,2,,,,,,,,,1,1.1026335140049923,,,080,001,2019_Aug_27_1412,MusicAffectPsychophysiology2019,3.0.5,59.94969716953685,
To what extent did the music make you feel ,FRUSTRATED,30MonoWAV/30MonoF4.wav,1,2,2,4,,,,,1,0,16,3,0,9,9,3,,,,,,,,,1,1.5991050410084426,,,080,001,2019_Aug_27_1412,MusicAffectPsychophysiology2019,3.0.5,59.94969716953685,
To what extent did the music make you feel ,EXCITED,30MonoWAV/30MonoF4.wav,1,2,2,4,,,,,1,0,16,3,0,10,10,7,,,,,,,,,3,1.2365223460074048,,,080,001,2019_Aug_27_1412,MusicAffectPsychophysiology2019,3.0.5,59.94969716953685,
To what extent did the music make you feel ,ALERT,30MonoWAV/30MonoF4.wav,1,2,2,4,,,,,1,0,16,3,0,11,11,8,,,,,,,,,4,1.3668694289808627,,,080,001,2019_Aug_27_1412,MusicAffectPsychophysiology2019,3.0.5,59.94969716953685,
,,30MonoWAV/30MonoF4.wav,1,2,2,4,,,,,1,0,16,3,,,,,,,,,,,,,,,,,080,001,2019_Aug_27_1412,MusicAffectPsychophysiology2019,3.0.5,59.94969716953685,
To what extent did the music make you feel ,ACTIVE,30MonoWAV/30MonoS2.wav,1,1,3,10,,,,,1,1,17,9,0,0,0,9,,,1,4.070254621008644,2,2.3201110909867566,2,1.719577787007438,1,1.1109975359868258,,,080,001,2019_Aug_27_1412,MusicAffectPsychophysiology2019,3.0.5,59.94969716953685,
To what extent did the music make you feel ,SCARED,30MonoWAV/30MonoS2.wav,1,1,3,10,,,,,1,1,17,9,0,1,1,11,,,,,,,,,1,0.8585663980047684,,,080,001,2019_Aug_27_1412,MusicAffectPsychophysiology2019,3.0.5,59.94969716953685,
To what extent did the music make you feel ,ANGRY,30MonoWAV/30MonoS2.wav,1,1,3,10,,,,,1,1,17,9,0,2,2,2,,,,,,,,,1,0.9037130299839191,,,080,001,2019_Aug_27_1412,MusicAffectPsychophysiology2019,3.0.5,59.94969716953685,
To what extent did the music make you feel ,HAPPY,30MonoWAV/30MonoS2.wav,1,1,3,10,,,,,1,1,17,9,0,3,3,6,,,,,,,,,3,1.4358755330031272,,,080,001,2019_Aug_27_1412,MusicAffectPsychophysiology2019,3.0.5,59.94969716953685,
To what extent did the music make you feel ,EXCITED,30MonoWAV/30MonoS2.wav,1,1,3,10,,,,,1,1,17,9,0,4,4,7,,,,,,,,,1,1.302645174000645,,,080,001,2019_Aug_27_1412,MusicAffectPsychophysiology2019,3.0.5,59.94969716953685,
To what extent did the music make you feel ,FRUSTRATED,30MonoWAV/30MonoS2.wav,1,1,3,10,,,,,1,1,17,9,0,5,5,3,,,,,,,,,1,1.0605925299751107,,,080,001,2019_Aug_27_1412,MusicAffectPsychophysiology2019,3.0.5,59.94969716953685,
To what extent did the music make you feel ,SAD,30MonoWAV/30MonoS2.wav,1,1,3,10,,,,,1,1,17,9,0,6,6,0,,,,,,,,,2,1.7032240800035652,,,080,001,2019_Aug_27_1412,MusicAffectPsychophysiology2019,3.0.5,59.94969716953685,
To what extent did the music make you feel ,ASHAMED,30MonoWAV/30MonoS2.wav,1,1,3,10,,,,,1,1,17,9,0,7,7,4,,,,,,,,,1,0.7687068460218143,,,080,001,2019_Aug_27_1412,MusicAffectPsychophysiology2019,3.0.5,59.94969716953685,
To what extent did the music make you feel ,GUILTY,30MonoWAV/30MonoS2.wav,1,1,3,10,,,,,1,1,17,9,0,8,8,5,,,,,,,,,1,1.5697173549851868,,,080,001,2019_Aug_27_1412,MusicAffectPsychophysiology2019,3.0.5,59.94969716953685,
To what extent did the music make you feel ,ALERT,30MonoWAV/30MonoS2.wav,1,1,3,10,,,,,1,1,17,9,0,9,9,8,,,,,,,,,1,1.7044075900048483,,,080,001,2019_Aug_27_1412,MusicAffectPsychophysiology2019,3.0.5,59.94969716953685,
To what extent did the music make you feel ,ANXIOUS ,30MonoWAV/30MonoS2.wav,1,1,3,10,,,,,1,1,17,9,0,10,10,1,,,,,,,,,3,2.0898921029875055,,,080,001,2019_Aug_27_1412,MusicAffectPsychophysiology2019,3.0.5,59.94969716953685,
To what extent did the music make you feel ,TENDER,30MonoWAV/30MonoS2.wav,1,1,3,10,,,,,1,1,17,9,0,11,11,10,,,,,,,,,2,1.060266665997915,,,080,001,2019_Aug_27_1412,MusicAffectPsychophysiology2019,3.0.5,59.94969716953685,
,,30MonoWAV/30MonoS2.wav,1,1,3,10,,,,,1,1,17,9,,,,,,,,,,,,,,,,,080,001,2019_Aug_27_1412,MusicAffectPsychophysiology2019,3.0.5,59.94969716953685,
To what extent did the music make you feel ,ALERT,30MonoWAV/30MonoT4.wav,2,1,4,16,,,,,1,2,18,15,0,0,0,8,,,4,5.051466487988364,4,1.2527090100047644,3,1.852958131028572,1,1.5689013060182333,,,080,001,2019_Aug_27_1412,MusicAffectPsychophysiology2019,3.0.5,59.94969716953685,
To what extent did the music make you feel ,ANXIOUS ,30MonoWAV/30MonoT4.wav,2,1,4,16,,,,,1,2,18,15,0,1,1,1,,,,,,,,,1,0.7670873609895352,,,080,001,2019_Aug_27_1412,MusicAffectPsychophysiology2019,3.0.5,59.94969716953685,
To what extent did the music make you feel ,HAPPY,30MonoWAV/30MonoT4.wav,2,1,4,16,,,,,1,2,18,15,0,2,2,6,,,,,,,,,4,2.5199429250205867,,,080,001,2019_Aug_27_1412,MusicAffectPsychophysiology2019,3.0.5,59.94969716953685,
To what extent did the music make you feel ,SCARED,30MonoWAV/30MonoT4.wav,2,1,4,16,,,,,1,2,18,15,0,3,3,11,,,,,,,,,1,0.9869366399943829,,,080,001,2019_Aug_27_1412,MusicAffectPsychophysiology2019,3.0.5,59.94969716953685,
To what extent did the music make you feel ,ASHAMED,30MonoWAV/30MonoT4.wav,2,1,4,16,,,,,1,2,18,15,0,4,4,4,,,,,,,,,1,1.4029570420098025,,,080,001,2019_Aug_27_1412,MusicAffectPsychophysiology2019,3.0.5,59.94969716953685,
To what extent did the music make you feel ,TENDER,30MonoWAV/30MonoT4.wav,2,1,4,16,,,,,1,2,18,15,0,5,5,10,,,,,,,,,2,0.98596657498274,,,080,001,2019_Aug_27_1412,MusicAffectPsychophysiology2019,3.0.5,59.94969716953685,
To what extent did the music make you feel ,FRUSTRATED,30MonoWAV/30MonoT4.wav,2,1,4,16,,,,,1,2,18,15,0,6,6,3,,,,,,,,,1,1.052578770002583,,,080,001,2019_Aug_27_1412,MusicAffectPsychophysiology2019,3.0.5,59.94969716953685,
To what extent did the music make you feel ,EXCITED,30MonoWAV/30MonoT4.wav,2,1,4,16,,,,,1,2,18,15,0,7,7,7,,,,,,,,,3,1.0362171300221235,,,080,001,2019_Aug_27_1412,MusicAffectPsychophysiology2019,3.0.5,59.94969716953685,
To what extent did the music make you feel ,GUILTY,30MonoWAV/30MonoT4.wav,2,1,4,16,,,,,1,2,18,15,0,8,8,5,,,,,,,,,1,1.21954011102207,,,080,001,2019_Aug_27_1412,MusicAffectPsychophysiology2019,3.0.5,59.94969716953685,
To what extent did the music make you feel ,SAD,30MonoWAV/30MonoT4.wav,2,1,4,16,,,,,1,2,18,15,0,9,9,0,,,,,,,,,1,1.4369024650077336,,,080,001,2019_Aug_27_1412,MusicAffectPsychophysiology2019,3.0.5,59.94969716953685,
To what extent did the music make you feel ,ACTIVE,30MonoWAV/30MonoT4.wav,2,1,4,16,,,,,1,2,18,15,0,10,10,9,,,,,,,,,2,1.400259993999498,,,080,001,2019_Aug_27_1412,MusicAffectPsychophysiology2019,3.0.5,59.94969716953685,
To what extent did the music make you feel ,ANGRY,30MonoWAV/30MonoT4.wav,2,1,4,16,,,,,1,2,18,15,0,11,11,2,,,,,,,,,1,0.8166949030128308,,,080,001,2019_Aug_27_1412,MusicAffectPsychophysiology2019,3.0.5,59.94969716953685,
,,30MonoWAV/30MonoT4.wav,2,1,4,16,,,,,1,2,18,15,,,,,,,,,,,,,,,,,080,001,2019_Aug_27_1412,MusicAffectPsychophysiology2019,3.0.5,59.94969716953685,
To what extent did the music make you feel ,EXCITED,30MonoWAV/30MonoT3.wav,2,1,4,15,,,,,1,3,19,14,0,0,0,7,,,1,3.837608008994721,2,2.3867878039891366,2,1.6382506489753723,1,1.0191190959885716,,,080,001,2019_Aug_27_1412,MusicAffectPsychophysiology2019,3.0.5,59.94969716953685,
To what extent did the music make you feel ,ANGRY,30MonoWAV/30MonoT3.wav,2,1,4,15,,,,,1,3,19,14,0,1,1,2,,,,,,,,,1,0.6357073709950782,,,080,001,2019_Aug_27_1412,MusicAffectPsychophysiology2019,3.0.5,59.94969716953685,
To what extent did the music make you feel ,HAPPY,30MonoWAV/30MonoT3.wav,2,1,4,15,,,,,1,3,19,14,0,2,2,6,,,,,,,,,2,1.1359438319923356,,,080,001,2019_Aug_27_1412,MusicAffectPsychophysiology2019,3.0.5,59.94969716953685,
To what extent did the music make you feel ,ACTIVE,30MonoWAV/30MonoT3.wav,2,1,4,15,,,,,1,3,19,14,0,3,3,9,,,,,,,,,1,0.7508229840022977,,,080,001,2019_Aug_27_1412,MusicAffectPsychophysiology2019,3.0.5,59.94969716953685,
To what extent did the music make you feel ,ANXIOUS ,30MonoWAV/30MonoT3.wav,2,1,4,15,,,,,1,3,19,14,0,4,4,1,,,,,,,,,2,1.3666190240182914,,,080,001,2019_Aug_27_1412,MusicAffectPsychophysiology2019,3.0.5,59.94969716953685,
To what extent did the music make you feel ,GUILTY,30MonoWAV/30MonoT3.wav,2,1,4,15,,,,,1,3,19,14,0,5,5,5,,,,,,,,,1,0.8696232930233236,,,080,001,2019_Aug_27_1412,MusicAffectPsychophysiology2019,3.0.5,59.94969716953685,
To what extent did the music make you feel ,ALERT,30MonoWAV/30MonoT3.wav,2,1,4,15,,,,,1,3,19,14,0,6,6,8,,,,,,,,,1,1.3115010280162096,,,080,001,2019_Aug_27_1412,MusicAffectPsychophysiology2019,3.0.5,59.94969716953685,
To what extent did the music make you feel ,SCARED,30MonoWAV/30MonoT3.wav,2,1,4,15,,,,,1,3,19,14,0,7,7,11,,,,,,,,,1,1.304697680985555,,,080,001,2019_Aug_27_1412,MusicAffectPsychophysiology2019,3.0.5,59.94969716953685,
To what extent did the music make you feel ,FRUSTRATED,30MonoWAV/30MonoT3.wav,2,1,4,15,,,,,1,3,19,14,0,8,8,3,,,,,,,,,1,0.6805542939982843,,,080,001,2019_Aug_27_1412,MusicAffectPsychophysiology2019,3.0.5,59.94969716953685,
To what extent did the music make you feel ,ASHAMED,30MonoWAV/30MonoT3.wav,2,1,4,15,,,,,1,3,19,14,0,9,9,4,,,,,,,,,1,0.8455811239837203,,,080,001,2019_Aug_27_1412,MusicAffectPsychophysiology2019,3.0.5,59.94969716953685,
To what extent did the music make you feel ,SAD,30MonoWAV/30MonoT3.wav,2,1,4,15,,,,,1,3,19,14,0,10,10,0,,,,,,,,,2,1.1858838940097485,,,080,001,2019_Aug_27_1412,MusicAffectPsychophysiology2019,3.0.5,59.94969716953685,
To what extent did the music make you feel ,TENDER,30MonoWAV/30MonoT3.wav,2,1,4,15,,,,,1,3,19,14,0,11,11,10,,,,,,,,,2,1.0189751910220366,,,080,001,2019_Aug_27_1412,MusicAffectPsychophysiology2019,3.0.5,59.94969716953685,
,,30MonoWAV/30MonoT3.wav,2,1,4,15,,,,,1,3,19,14,,,,,,,,,,,,,,,,,080,001,2019_Aug_27_1412,MusicAffectPsychophysiology2019,3.0.5,59.94969716953685,
To what extent did the music make you feel ,TENDER,30MonoWAV/30MonoT2.wav,2,1,4,14,,,,,1,4,20,13,0,0,0,10,,,2,3.1514903380011674,3,1.3711197120137513,3,1.8861988490098156,3,2.706596787989838,,,080,001,2019_Aug_27_1412,MusicAffectPsychophysiology2019,3.0.5,59.94969716953685,
To what extent did the music make you feel ,ASHAMED,30MonoWAV/30MonoT2.wav,2,1,4,14,,,,,1,4,20,13,0,1,1,4,,,,,,,,,1,1.1356408960127737,,,080,001,2019_Aug_27_1412,MusicAffectPsychophysiology2019,3.0.5,59.94969716953685,
To what extent did the music make you feel ,SCARED,30MonoWAV/30MonoT2.wav,2,1,4,14,,,,,1,4,20,13,0,2,2,11,,,,,,,,,1,3.5557578839943744,,,080,001,2019_Aug_27_1412,MusicAffectPsychophysiology2019,3.0.5,59.94969716953685,
To what extent did the music make you feel ,ACTIVE,30MonoWAV/30MonoT2.wav,2,1,4,14,,,,,1,4,20,13,0,3,3,9,,,,,,,,,2,2.3519112770154607,,,080,001,2019_Aug_27_1412,MusicAffectPsychophysiology2019,3.0.5,59.94969716953685,
To what extent did the music make you feel ,ANXIOUS ,30MonoWAV/30MonoT2.wav,2,1,4,14,,,,,1,4,20,13,0,4,4,1,,,,,,,,,1,1.0527202320226934,,,080,001,2019_Aug_27_1412,MusicAffectPsychophysiology2019,3.0.5,59.94969716953685,
To what extent did the music make you feel ,ANGRY,30MonoWAV/30MonoT2.wav,2,1,4,14,,,,,1,4,20,13,0,5,5,2,,,,,,,,,1,0.8876314929802902,,,080,001,2019_Aug_27_1412,MusicAffectPsychophysiology2019,3.0.5,59.94969716953685,
To what extent did the music make you feel ,FRUSTRATED,30MonoWAV/30MonoT2.wav,2,1,4,14,,,,,1,4,20,13,0,6,6,3,,,,,,,,,1,0.8716940529993735,,,080,001,2019_Aug_27_1412,MusicAffectPsychophysiology2019,3.0.5,59.94969716953685,
To what extent did the music make you feel ,EXCITED,30MonoWAV/30MonoT2.wav,2,1,4,14,,,,,1,4,20,13,0,7,7,7,,,,,,,,,3,1.2373084500140976,,,080,001,2019_Aug_27_1412,MusicAffectPsychophysiology2019,3.0.5,59.94969716953685,
To what extent did the music make you feel ,SAD,30MonoWAV/30MonoT2.wav,2,1,4,14,,,,,1,4,20,13,0,8,8,0,,,,,,,,,2,2.0861673380131833,,,080,001,2019_Aug_27_1412,MusicAffectPsychophysiology2019,3.0.5,59.94969716953685,
To what extent did the music make you feel ,GUILTY,30MonoWAV/30MonoT2.wav,2,1,4,14,,,,,1,4,20,13,0,9,9,5,,,,,,,,,1,0.8189799709944054,,,080,001,2019_Aug_27_1412,MusicAffectPsychophysiology2019,3.0.5,59.94969716953685,
To what extent did the music make you feel ,HAPPY,30MonoWAV/30MonoT2.wav,2,1,4,14,,,,,1,4,20,13,0,10,10,6,,,,,,,,,4,1.1530408480030019,,,080,001,2019_Aug_27_1412,MusicAffectPsychophysiology2019,3.0.5,59.94969716953685,
To what extent did the music make you feel ,ALERT,30MonoWAV/30MonoT2.wav,2,1,4,14,,,,,1,4,20,13,0,11,11,8,,,,,,,,,1,0.9357428579824045,,,080,001,2019_Aug_27_1412,MusicAffectPsychophysiology2019,3.0.5,59.94969716953685,
,,30MonoWAV/30MonoT2.wav,2,1,4,14,,,,,1,4,20,13,,,,,,,,,,,,,,,,,080,001,2019_Aug_27_1412,MusicAffectPsychophysiology2019,3.0.5,59.94969716953685,
To what extent did the music make you feel ,ALERT,30MonoWAV/30MonoT1.wav,2,1,4,13,,,,,1,5,21,12,0,0,0,8,,,1,4.11888101400109,3,2.203280634013936,2,1.7011155390064232,1,1.6044907880132087,,,080,001,2019_Aug_27_1412,MusicAffectPsychophysiology2019,3.0.5,59.94969716953685,
To what extent did the music make you feel ,ACTIVE,30MonoWAV/30MonoT1.wav,2,1,4,13,,,,,1,5,21,12,0,1,1,9,,,,,,,,,1,2.2203271510079503,,,080,001,2019_Aug_27_1412,MusicAffectPsychophysiology2019,3.0.5,59.94969716953685,
To what extent did the music make you feel ,EXCITED,30MonoWAV/30MonoT1.wav,2,1,4,13,,,,,1,5,21,12,0,2,2,7,,,,,,,,,1,1.4488859350094572,,,080,001,2019_Aug_27_1412,MusicAffectPsychophysiology2019,3.0.5,59.94969716953685,
To what extent did the music make you feel ,ANGRY,30MonoWAV/30MonoT1.wav,2,1,4,13,,,,,1,5,21,12,0,3,3,2,,,,,,,,,1,0.803367446991615,,,080,001,2019_Aug_27_1412,MusicAffectPsychophysiology2019,3.0.5,59.94969716953685,
To what extent did the music make you feel ,FRUSTRATED,30MonoWAV/30MonoT1.wav,2,1,4,13,,,,,1,5,21,12,0,4,4,3,,,,,,,,,1,0.8043104110111017,,,080,001,2019_Aug_27_1412,MusicAffectPsychophysiology2019,3.0.5,59.94969716953685,
To what extent did the music make you feel ,HAPPY,30MonoWAV/30MonoT1.wav,2,1,4,13,,,,,1,5,21,12,0,5,5,6,,,,,,,,,2,1.2698458350205328,,,080,001,2019_Aug_27_1412,MusicAffectPsychophysiology2019,3.0.5,59.94969716953685,
To what extent did the music make you feel ,SCARED,30MonoWAV/30MonoT1.wav,2,1,4,13,,,,,1,5,21,12,0,6,6,11,,,,,,,,,1,1.8992740669928025,,,080,001,2019_Aug_27_1412,MusicAffectPsychophysiology2019,3.0.5,59.94969716953685,
To what extent did the music make you feel ,GUILTY,30MonoWAV/30MonoT1.wav,2,1,4,13,,,,,1,5,21,12,0,7,7,5,,,,,,,,,1,0.7211617900175042,,,080,001,2019_Aug_27_1412,MusicAffectPsychophysiology2019,3.0.5,59.94969716953685,
To what extent did the music make you feel ,SAD,30MonoWAV/30MonoT1.wav,2,1,4,13,,,,,1,5,21,12,0,8,8,0,,,,,,,,,3,1.0523935039818753,,,080,001,2019_Aug_27_1412,MusicAffectPsychophysiology2019,3.0.5,59.94969716953685,
To what extent did the music make you feel ,ANXIOUS ,30MonoWAV/30MonoT1.wav,2,1,4,13,,,,,1,5,21,12,0,9,9,1,,,,,,,,,2,1.7856649050081614,,,080,001,2019_Aug_27_1412,MusicAffectPsychophysiology2019,3.0.5,59.94969716953685,
To what extent did the music make you feel ,ASHAMED,30MonoWAV/30MonoT1.wav,2,1,4,13,,,,,1,5,21,12,0,10,10,4,,,,,,,,,1,1.0511428179743234,,,080,001,2019_Aug_27_1412,MusicAffectPsychophysiology2019,3.0.5,59.94969716953685,
To what extent did the music make you feel ,TENDER,30MonoWAV/30MonoT1.wav,2,1,4,13,,,,,1,5,21,12,0,11,11,10,,,,,,,,,3,1.5210070990142412,,,080,001,2019_Aug_27_1412,MusicAffectPsychophysiology2019,3.0.5,59.94969716953685,
,,30MonoWAV/30MonoT1.wav,2,1,4,13,,,,,1,5,21,12,,,,,,,,,,,,,,,,,080,001,2019_Aug_27_1412,MusicAffectPsychophysiology2019,3.0.5,59.94969716953685,
To what extent did the music make you feel ,SAD,30MonoWAV/30MonoH2.wav,2,2,1,6,,,,,1,6,22,5,0,0,0,0,,,4,2.6856576220015995,3,1.787282169010723,3,1.5530676910129841,1,3.493291605002014,,,080,001,2019_Aug_27_1412,MusicAffectPsychophysiology2019,3.0.5,59.94969716953685,
To what extent did the music make you feel ,HAPPY,30MonoWAV/30MonoH2.wav,2,2,1,6,,,,,1,6,22,5,0,1,1,6,,,,,,,,,3,1.120034163002856,,,080,001,2019_Aug_27_1412,MusicAffectPsychophysiology2019,3.0.5,59.94969716953685,
To what extent did the music make you feel ,ANGRY,30MonoWAV/30MonoH2.wav,2,2,1,6,,,,,1,6,22,5,0,2,2,2,,,,,,,,,1,1.4369247099966742,,,080,001,2019_Aug_27_1412,MusicAffectPsychophysiology2019,3.0.5,59.94969716953685,
To what extent did the music make you feel ,ASHAMED,30MonoWAV/30MonoH2.wav,2,2,1,6,,,,,1,6,22,5,0,3,3,4,,,,,,,,,1,0.686957842000993,,,080,001,2019_Aug_27_1412,MusicAffectPsychophysiology2019,3.0.5,59.94969716953685,
To what extent did the music make you feel ,FRUSTRATED,30MonoWAV/30MonoH2.wav,2,2,1,6,,,,,1,6,22,5,0,4,4,3,,,,,,,,,1,0.9920158860040829,,,080,001,2019_Aug_27_1412,MusicAffectPsychophysiology2019,3.0.5,59.94969716953685,
To what extent did the music make you feel ,TENDER,30MonoWAV/30MonoH2.wav,2,2,1,6,,,,,1,6,22,5,0,5,5,10,,,,,,,,,2,1.142014085984556,,,080,001,2019_Aug_27_1412,MusicAffectPsychophysiology2019,3.0.5,59.94969716953685,
To what extent did the music make you feel ,EXCITED,30MonoWAV/30MonoH2.wav,2,2,1,6,,,,,1,6,22,5,0,6,6,7,,,,,,,,,4,1.1253692850004882,,,080,001,2019_Aug_27_1412,MusicAffectPsychophysiology2019,3.0.5,59.94969716953685,
To what extent did the music make you feel ,ANXIOUS ,30MonoWAV/30MonoH2.wav,2,2,1,6,,,,,1,6,22,5,0,7,7,1,,,,,,,,,2,1.5717470410163514,,,080,001,2019_Aug_27_1412,MusicAffectPsychophysiology2019,3.0.5,59.94969716953685,
To what extent did the music make you feel ,GUILTY,30MonoWAV/30MonoH2.wav,2,2,1,6,,,,,1,6,22,5,0,8,8,5,,,,,,,,,1,0.7534624490072019,,,080,001,2019_Aug_27_1412,MusicAffectPsychophysiology2019,3.0.5,59.94969716953685,
To what extent did the music make you feel ,ACTIVE,30MonoWAV/30MonoH2.wav,2,2,1,6,,,,,1,6,22,5,0,9,9,9,,,,,,,,,3,1.370321916998364,,,080,001,2019_Aug_27_1412,MusicAffectPsychophysiology2019,3.0.5,59.94969716953685,
To what extent did the music make you feel ,ALERT,30MonoWAV/30MonoH2.wav,2,2,1,6,,,,,1,6,22,5,0,10,10,8,,,,,,,,,3,3.6904897339991294,,,080,001,2019_Aug_27_1412,MusicAffectPsychophysiology2019,3.0.5,59.94969716953685,
To what extent did the music make you feel ,SCARED,30MonoWAV/30MonoH2.wav,2,2,1,6,,,,,1,6,22,5,0,11,11,11,,,,,,,,,1,1.1248471779981628,,,080,001,2019_Aug_27_1412,MusicAffectPsychophysiology2019,3.0.5,59.94969716953685,
,,30MonoWAV/30MonoH2.wav,2,2,1,6,,,,,1,6,22,5,,,,,,,,,,,,,,,,,080,001,2019_Aug_27_1412,MusicAffectPsychophysiology2019,3.0.5,59.94969716953685,
To what extent did the music make you feel ,EXCITED,30MonoWAV/30MonoH1.wav,2,2,1,5,,,,,1,7,23,4,0,0,0,7,,,3,2.286468446982326,3,1.4362517360132188,3,2.717099300993141,2,1.736947383993538,,,080,001,2019_Aug_27_1412,MusicAffectPsychophysiology2019,3.0.5,59.94969716953685,
To what extent did the music make you feel ,ACTIVE,30MonoWAV/30MonoH1.wav,2,2,1,5,,,,,1,7,23,4,0,1,1,9,,,,,,,,,3,1.2168266460066661,,,080,001,2019_Aug_27_1412,MusicAffectPsychophysiology2019,3.0.5,59.94969716953685,
To what extent did the music make you feel ,GUILTY,30MonoWAV/30MonoH1.wav,2,2,1,5,,,,,1,7,23,4,0,2,2,5,,,,,,,,,1,0.8701118620228954,,,080,001,2019_Aug_27_1412,MusicAffectPsychophysiology2019,3.0.5,59.94969716953685,
To what extent did the music make you feel ,HAPPY,30MonoWAV/30MonoH1.wav,2,2,1,5,,,,,1,7,23,4,0,3,3,6,,,,,,,,,2,2.7701903719862457,,,080,001,2019_Aug_27_1412,MusicAffectPsychophysiology2019,3.0.5,59.94969716953685,
To what extent did the music make you feel ,FRUSTRATED,30MonoWAV/30MonoH1.wav,2,2,1,5,,,,,1,7,23,4,0,4,4,3,,,,,,,,,1,1.269623110012617,,,080,001,2019_Aug_27_1412,MusicAffectPsychophysiology2019,3.0.5,59.94969716953685,
To what extent did the music make you feel ,SCARED,30MonoWAV/30MonoH1.wav,2,2,1,5,,,,,1,7,23,4,0,5,5,11,,,,,,,,,1,0.8015338839904871,,,080,001,2019_Aug_27_1412,MusicAffectPsychophysiology2019,3.0.5,59.94969716953685,
To what extent did the music make you feel ,SAD,30MonoWAV/30MonoH1.wav,2,2,1,5,,,,,1,7,23,4,0,6,6,0,,,,,,,,,1,1.7190844409924466,,,080,001,2019_Aug_27_1412,MusicAffectPsychophysiology2019,3.0.5,59.94969716953685,
To what extent did the music make you feel ,ASHAMED,30MonoWAV/30MonoH1.wav,2,2,1,5,,,,,1,7,23,4,0,7,7,4,,,,,,,,,1,0.7862603679823224,,,080,001,2019_Aug_27_1412,MusicAffectPsychophysiology2019,3.0.5,59.94969716953685,
To what extent did the music make you feel ,ANGRY,30MonoWAV/30MonoH1.wav,2,2,1,5,,,,,1,7,23,4,0,8,8,2,,,,,,,,,1,0.9196950900077354,,,080,001,2019_Aug_27_1412,MusicAffectPsychophysiology2019,3.0.5,59.94969716953685,
To what extent did the music make you feel ,ANXIOUS ,30MonoWAV/30MonoH1.wav,2,2,1,5,,,,,1,7,23,4,0,9,9,1,,,,,,,,,1,0.8869493410165887,,,080,001,2019_Aug_27_1412,MusicAffectPsychophysiology2019,3.0.5,59.94969716953685,
To what extent did the music make you feel ,TENDER,30MonoWAV/30MonoH1.wav,2,2,1,5,,,,,1,7,23,4,0,10,10,10,,,,,,,,,2,1.9007481420121621,,,080,001,2019_Aug_27_1412,MusicAffectPsychophysiology2019,3.0.5,59.94969716953685,
To what extent did the music make you feel ,ALERT,30MonoWAV/30MonoH1.wav,2,2,1,5,,,,,1,7,23,4,0,11,11,8,,,,,,,,,2,3.11790266900789,,,080,001,2019_Aug_27_1412,MusicAffectPsychophysiology2019,3.0.5,59.94969716953685,
,,30MonoWAV/30MonoH1.wav,2,2,1,5,,,,,1,7,23,4,,,,,,,,,,,,,,,,,080,001,2019_Aug_27_1412,MusicAffectPsychophysiology2019,3.0.5,59.94969716953685,
To what extent did the music make you feel ,ANXIOUS ,30MonoWAV/30MonoS3.wav,1,1,3,11,,,,,1,8,24,10,0,0,0,1,,,2,3.3039533119881526,1,1.0521112940041348,2,2.186405361018842,2,1.9625007119902875,,,080,001,2019_Aug_27_1412,MusicAffectPsychophysiology2019,3.0.5,59.94969716953685,
To what extent did the music make you feel ,ASHAMED,30MonoWAV/30MonoS3.wav,1,1,3,11,,,,,1,8,24,10,0,1,1,4,,,,,,,,,1,1.3039073470281437,,,080,001,2019_Aug_27_1412,MusicAffectPsychophysiology2019,3.0.5,59.94969716953685,
To what extent did the music make you feel ,ACTIVE,30MonoWAV/30MonoS3.wav,1,1,3,11,,,,,1,8,24,10,0,2,2,9,,,,,,,,,2,1.2792114669864532,,,080,001,2019_Aug_27_1412,MusicAffectPsychophysiology2019,3.0.5,59.94969716953685,
To what extent did the music make you feel ,EXCITED,30MonoWAV/30MonoS3.wav,1,1,3,11,,,,,1,8,24,10,0,3,3,7,,,,,,,,,1,1.0788608060101978,,,080,001,2019_Aug_27_1412,MusicAffectPsychophysiology2019,3.0.5,59.94969716953685,
To what extent did the music make you feel ,ALERT,30MonoWAV/30MonoS3.wav,1,1,3,11,,,,,1,8,24,10,0,4,4,8,,,,,,,,,4,1.3698030110099353,,,080,001,2019_Aug_27_1412,MusicAffectPsychophysiology2019,3.0.5,59.94969716953685,
To what extent did the music make you feel ,TENDER,30MonoWAV/30MonoS3.wav,1,1,3,11,,,,,1,8,24,10,0,5,5,10,,,,,,,,,1,1.3027791469939984,,,080,001,2019_Aug_27_1412,MusicAffectPsychophysiology2019,3.0.5,59.94969716953685,
To what extent did the music make you feel ,GUILTY,30MonoWAV/30MonoS3.wav,1,1,3,11,,,,,1,8,24,10,0,6,6,5,,,,,,,,,1,0.818975401984062,,,080,001,2019_Aug_27_1412,MusicAffectPsychophysiology2019,3.0.5,59.94969716953685,
To what extent did the music make you feel ,HAPPY,30MonoWAV/30MonoS3.wav,1,1,3,11,,,,,1,8,24,10,0,7,7,6,,,,,,,,,1,2.3330749830056448,,,080,001,2019_Aug_27_1412,MusicAffectPsychophysiology2019,3.0.5,59.94969716953685,
To what extent did the music make you feel ,SAD,30MonoWAV/30MonoS3.wav,1,1,3,11,,,,,1,8,24,10,0,8,8,0,,,,,,,,,3,1.4246694929897785,,,080,001,2019_Aug_27_1412,MusicAffectPsychophysiology2019,3.0.5,59.94969716953685,
To what extent did the music make you feel ,SCARED,30MonoWAV/30MonoS3.wav,1,1,3,11,,,,,1,8,24,10,0,9,9,11,,,,,,,,,3,1.419049543008441,,,080,001,2019_Aug_27_1412,MusicAffectPsychophysiology2019,3.0.5,59.94969716953685,
To what extent did the music make you feel ,FRUSTRATED,30MonoWAV/30MonoS3.wav,1,1,3,11,,,,,1,8,24,10,0,10,10,3,,,,,,,,,1,1.1923731499991845,,,080,001,2019_Aug_27_1412,MusicAffectPsychophysiology2019,3.0.5,59.94969716953685,
To what extent did the music make you feel ,ANGRY,30MonoWAV/30MonoS3.wav,1,1,3,11,,,,,1,8,24,10,0,11,11,2,,,,,,,,,1,3.220275200001197,,,080,001,2019_Aug_27_1412,MusicAffectPsychophysiology2019,3.0.5,59.94969716953685,
,,30MonoWAV/30MonoS3.wav,1,1,3,11,,,,,1,8,24,10,,,,,,,,,,,,,,,,,080,001,2019_Aug_27_1412,MusicAffectPsychophysiology2019,3.0.5,59.94969716953685,
To what extent did the music make you feel ,SAD,30MonoWAV/30MonoF1.wav,1,2,2,1,,,,,1,9,25,0,0,0,0,0,,,3,1.920115082000848,2,1.7528866319917142,2,1.2531033419945743,1,1.5035856820177287,,,080,001,2019_Aug_27_1412,MusicAffectPsychophysiology2019,3.0.5,59.94969716953685,
To what extent did the music make you feel ,HAPPY,30MonoWAV/30MonoF1.wav,1,2,2,1,,,,,1,9,25,0,0,1,1,6,,,,,,,,,2,1.1197087910259143,,,080,001,2019_Aug_27_1412,MusicAffectPsychophysiology2019,3.0.5,59.94969716953685,
To what extent did the music make you feel ,GUILTY,30MonoWAV/30MonoF1.wav,1,2,2,1,,,,,1,9,25,0,0,2,2,5,,,,,,,,,1,0.7862669400055893,,,080,001,2019_Aug_27_1412,MusicAffectPsychophysiology2019,3.0.5,59.94969716953685,
To what extent did the music make you feel ,EXCITED,30MonoWAV/30MonoF1.wav,1,2,2,1,,,,,1,9,25,0,0,3,3,7,,,,,,,,,3,1.070427987986477,,,080,001,2019_Aug_27_1412,MusicAffectPsychophysiology2019,3.0.5,59.94969716953685,
To what extent did the music make you feel ,ANXIOUS ,30MonoWAV/30MonoF1.wav,1,2,2,1,,,,,1,9,25,0,0,4,4,1,,,,,,,,,3,1.2827366210112814,,,080,001,2019_Aug_27_1412,MusicAffectPsychophysiology2019,3.0.5,59.94969716953685,
To what extent did the music make you feel ,ACTIVE,30MonoWAV/30MonoF1.wav,1,2,2,1,,,,,1,9,25,0,0,5,5,9,,,,,,,,,4,1.3690035960171372,,,080,001,2019_Aug_27_1412,MusicAffectPsychophysiology2019,3.0.5,59.94969716953685,
To what extent did the music make you feel ,TENDER,30MonoWAV/30MonoF1.wav,1,2,2,1,,,,,1,9,25,0,0,6,6,10,,,,,,,,,1,1.0545393659849651,,,080,001,2019_Aug_27_1412,MusicAffectPsychophysiology2019,3.0.5,59.94969716953685,
To what extent did the music make you feel ,ANGRY,30MonoWAV/30MonoF1.wav,1,2,2,1,,,,,1,9,25,0,0,7,7,2,,,,,,,,,2,2.5874214860086795,,,080,001,2019_Aug_27_1412,MusicAffectPsychophysiology2019,3.0.5,59.94969716953685,
To what extent did the music make you feel ,ASHAMED,30MonoWAV/30MonoF1.wav,1,2,2,1,,,,,1,9,25,0,0,8,8,4,,,,,,,,,1,0.837005228997441,,,080,001,2019_Aug_27_1412,MusicAffectPsychophysiology2019,3.0.5,59.94969716953685,
To what extent did the music make you feel ,FRUSTRATED,30MonoWAV/30MonoF1.wav,1,2,2,1,,,,,1,9,25,0,0,9,9,3,,,,,,,,,1,1.5867520500032697,,,080,001,2019_Aug_27_1412,MusicAffectPsychophysiology2019,3.0.5,59.94969716953685,
To what extent did the music make you feel ,ALERT,30MonoWAV/30MonoF1.wav,1,2,2,1,,,,,1,9,25,0,0,10,10,8,,,,,,,,,4,1.4199298800085671,,,080,001,2019_Aug_27_1412,MusicAffectPsychophysiology2019,3.0.5,59.94969716953685,
To what extent did the music make you feel ,SCARED,30MonoWAV/30MonoF1.wav,1,2,2,1,,,,,1,9,25,0,0,11,11,11,,,,,,,,,2,2.970796788984444,,,080,001,2019_Aug_27_1412,MusicAffectPsychophysiology2019,3.0.5,59.94969716953685,
,,30MonoWAV/30MonoF1.wav,1,2,2,1,,,,,1,9,25,0,,,,,,,,,,,,,,,,,080,001,2019_Aug_27_1412,MusicAffectPsychophysiology2019,3.0.5,59.94969716953685,
To what extent did the music make you feel ,SAD,30MonoWAV/30MonoH3.wav,2,2,1,7,,,,,1,10,26,6,0,0,0,0,,,4,2.8195925510080997,4,1.9538271499914117,4,2.337478066008771,1,1.4361795820004772,,,080,001,2019_Aug_27_1412,MusicAffectPsychophysiology2019,3.0.5,59.94969716953685,
To what extent did the music make you feel ,ANGRY,30MonoWAV/30MonoH3.wav,2,2,1,7,,,,,1,10,26,6,0,1,1,2,,,,,,,,,1,1.2186771199922077,,,080,001,2019_Aug_27_1412,MusicAffectPsychophysiology2019,3.0.5,59.94969716953685,
To what extent did the music make you feel ,ASHAMED,30MonoWAV/30MonoH3.wav,2,2,1,7,,,,,1,10,26,6,0,2,2,4,,,,,,,,,1,0.9869863099884242,,,080,001,2019_Aug_27_1412,MusicAffectPsychophysiology2019,3.0.5,59.94969716953685,
To what extent did the music make you feel ,ANXIOUS ,30MonoWAV/30MonoH3.wav,2,2,1,7,,,,,1,10,26,6,0,3,3,1,,,,,,,,,1,1.0034519319888204,,,080,001,2019_Aug_27_1412,MusicAffectPsychophysiology2019,3.0.5,59.94969716953685,
To what extent did the music make you feel ,TENDER,30MonoWAV/30MonoH3.wav,2,2,1,7,,,,,1,10,26,6,0,4,4,10,,,,,,,,,2,1.0120666669972707,,,080,001,2019_Aug_27_1412,MusicAffectPsychophysiology2019,3.0.5,59.94969716953685,
To what extent did the music make you feel ,EXCITED,30MonoWAV/30MonoH3.wav,2,2,1,7,,,,,1,10,26,6,0,5,5,7,,,,,,,,,4,1.1708414849999826,,,080,001,2019_Aug_27_1412,MusicAffectPsychophysiology2019,3.0.5,59.94969716953685,
To what extent did the music make you feel ,ACTIVE,30MonoWAV/30MonoH3.wav,2,2,1,7,,,,,1,10,26,6,0,6,6,9,,,,,,,,,3,1.1795089280058164,,,080,001,2019_Aug_27_1412,MusicAffectPsychophysiology2019,3.0.5,59.94969716953685,
To what extent did the music make you feel ,FRUSTRATED,30MonoWAV/30MonoH3.wav,2,2,1,7,,,,,1,10,26,6,0,7,7,3,,,,,,,,,1,0.9966851100034546,,,080,001,2019_Aug_27_1412,MusicAffectPsychophysiology2019,3.0.5,59.94969716953685,
To what extent did the music make you feel ,SCARED,30MonoWAV/30MonoH3.wav,2,2,1,7,,,,,1,10,26,6,0,8,8,11,,,,,,,,,1,0.9314172090089414,,,080,001,2019_Aug_27_1412,MusicAffectPsychophysiology2019,3.0.5,59.94969716953685,
To what extent did the music make you feel ,HAPPY,30MonoWAV/30MonoH3.wav,2,2,1,7,,,,,1,10,26,6,0,9,9,6,,,,,,,,,4,1.302937249012757,,,080,001,2019_Aug_27_1412,MusicAffectPsychophysiology2019,3.0.5,59.94969716953685,
To what extent did the music make you feel ,GUILTY,30MonoWAV/30MonoH3.wav,2,2,1,7,,,,,1,10,26,6,0,10,10,5,,,,,,,,,1,0.9206427460012492,,,080,001,2019_Aug_27_1412,MusicAffectPsychophysiology2019,3.0.5,59.94969716953685,
To what extent did the music make you feel ,ALERT,30MonoWAV/30MonoH3.wav,2,2,1,7,,,,,1,10,26,6,0,11,11,8,,,,,,,,,3,1.396328964998247,,,080,001,2019_Aug_27_1412,MusicAffectPsychophysiology2019,3.0.5,59.94969716953685,
,,30MonoWAV/30MonoH3.wav,2,2,1,7,,,,,1,10,26,6,,,,,,,,,,,,,,,,,080,001,2019_Aug_27_1412,MusicAffectPsychophysiology2019,3.0.5,59.94969716953685,
To what extent did the music make you feel ,SCARED,30MonoWAV/30MonoF2.wav,1,2,2,2,,,,,1,11,27,1,0,0,0,11,,,2,3.603706237016013,1,1.47018987199408,1,1.6688726299908012,3,1.675920487003168,,,080,001,2019_Aug_27_1412,MusicAffectPsychophysiology2019,3.0.5,59.94969716953685,
To what extent did the music make you feel ,GUILTY,30MonoWAV/30MonoF2.wav,1,2,2,2,,,,,1,11,27,1,0,1,1,5,,,,,,,,,1,1.1190672499942593,,,080,001,2019_Aug_27_1412,MusicAffectPsychophysiology2019,3.0.5,59.94969716953685,
To what extent did the music make you feel ,HAPPY,30MonoWAV/30MonoF2.wav,1,2,2,2,,,,,1,11,27,1,0,2,2,6,,,,,,,,,1,1.2674287609988824,,,080,001,2019_Aug_27_1412,MusicAffectPsychophysiology2019,3.0.5,59.94969716953685,
To what extent did the music make you feel ,TENDER,30MonoWAV/30MonoF2.wav,1,2,2,2,,,,,1,11,27,1,0,3,3,10,,,,,,,,,1,0.8347957860096358,,,080,001,2019_Aug_27_1412,MusicAffectPsychophysiology2019,3.0.5,59.94969716953685,
To what extent did the music make you feel ,ASHAMED,30MonoWAV/30MonoF2.wav,1,2,2,2,,,,,1,11,27,1,0,4,4,4,,,,,,,,,1,0.8702984899864532,,,080,001,2019_Aug_27_1412,MusicAffectPsychophysiology2019,3.0.5,59.94969716953685,
To what extent did the music make you feel ,SAD,30MonoWAV/30MonoF2.wav,1,2,2,2,,,,,1,11,27,1,0,5,5,0,,,,,,,,,2,1.0843446330109145,,,080,001,2019_Aug_27_1412,MusicAffectPsychophysiology2019,3.0.5,59.94969716953685,
To what extent did the music make you feel ,EXCITED,30MonoWAV/30MonoF2.wav,1,2,2,2,,,,,1,11,27,1,0,6,6,7,,,,,,,,,1,1.1203335509926546,,,080,001,2019_Aug_27_1412,MusicAffectPsychophysiology2019,3.0.5,59.94969716953685,
To what extent did the music make you feel ,ALERT,30MonoWAV/30MonoF2.wav,1,2,2,2,,,,,1,11,27,1,0,7,7,8,,,,,,,,,4,1.1236647249897942,,,080,001,2019_Aug_27_1412,MusicAffectPsychophysiology2019,3.0.5,59.94969716953685,
To what extent did the music make you feel ,FRUSTRATED,30MonoWAV/30MonoF2.wav,1,2,2,2,,,,,1,11,27,1,0,8,8,3,,,,,,,,,3,1.6735427100211382,,,080,001,2019_Aug_27_1412,MusicAffectPsychophysiology2019,3.0.5,59.94969716953685,
To what extent did the music make you feel ,ANXIOUS ,30MonoWAV/30MonoF2.wav,1,2,2,2,,,,,1,11,27,1,0,9,9,1,,,,,,,,,4,1.6239370469993446,,,080,001,2019_Aug_27_1412,MusicAffectPsychophysiology2019,3.0.5,59.94969716953685,
To what extent did the music make you feel ,ANGRY,30MonoWAV/30MonoF2.wav,1,2,2,2,,,,,1,11,27,1,0,10,10,2,,,,,,,,,2,1.6036752380023245,,,080,001,2019_Aug_27_1412,MusicAffectPsychophysiology2019,3.0.5,59.94969716953685,
To what extent did the music make you feel ,ACTIVE,30MonoWAV/30MonoF2.wav,1,2,2,2,,,,,1,11,27,1,0,11,11,9,,,,,,,,,2,1.48693306100904,,,080,001,2019_Aug_27_1412,MusicAffectPsychophysiology2019,3.0.5,59.94969716953685,
,,30MonoWAV/30MonoF2.wav,1,2,2,2,,,,,1,11,27,1,,,,,,,,,,,,,,,,,080,001,2019_Aug_27_1412,MusicAffectPsychophysiology2019,3.0.5,59.94969716953685,
To what extent did the music make you feel ,SCARED,30MonoWAV/30MonoS4.wav,1,1,3,12,,,,,1,12,28,11,0,0,0,11,,,1,3.7691091310116462,2,1.2368707720015664,1,1.4199233209947124,1,2.1533134509809315,,,080,001,2019_Aug_27_1412,MusicAffectPsychophysiology2019,3.0.5,59.94969716953685,
To what extent did the music make you feel ,ANGRY,30MonoWAV/30MonoS4.wav,1,1,3,12,,,,,1,12,28,11,0,1,1,2,,,,,,,,,1,0.8811075960111339,,,080,001,2019_Aug_27_1412,MusicAffectPsychophysiology2019,3.0.5,59.94969716953685,
To what extent did the music make you feel ,ANXIOUS ,30MonoWAV/30MonoS4.wav,1,1,3,12,,,,,1,12,28,11,0,2,2,1,,,,,,,,,2,1.2172104899946135,,,080,001,2019_Aug_27_1412,MusicAffectPsychophysiology2019,3.0.5,59.94969716953685,
To what extent did the music make you feel ,HAPPY,30MonoWAV/30MonoS4.wav,1,1,3,12,,,,,1,12,28,11,0,3,3,6,,,,,,,,,1,1.2538946459826548,,,080,001,2019_Aug_27_1412,MusicAffectPsychophysiology2019,3.0.5,59.94969716953685,
To what extent did the music make you feel ,GUILTY,30MonoWAV/30MonoS4.wav,1,1,3,12,,,,,1,12,28,11,0,4,4,5,,,,,,,,,1,0.801225401024567,,,080,001,2019_Aug_27_1412,MusicAffectPsychophysiology2019,3.0.5,59.94969716953685,
To what extent did the music make you feel ,FRUSTRATED,30MonoWAV/30MonoS4.wav,1,1,3,12,,,,,1,12,28,11,0,5,5,3,,,,,,,,,2,1.6036381870217156,,,080,001,2019_Aug_27_1412,MusicAffectPsychophysiology2019,3.0.5,59.94969716953685,
To what extent did the music make you feel ,ASHAMED,30MonoWAV/30MonoS4.wav,1,1,3,12,,,,,1,12,28,11,0,6,6,4,,,,,,,,,1,1.0855571910215076,,,080,001,2019_Aug_27_1412,MusicAffectPsychophysiology2019,3.0.5,59.94969716953685,
To what extent did the music make you feel ,TENDER,30MonoWAV/30MonoS4.wav,1,1,3,12,,,,,1,12,28,11,0,7,7,10,,,,,,,,,2,1.0330016340012662,,,080,001,2019_Aug_27_1412,MusicAffectPsychophysiology2019,3.0.5,59.94969716953685,
To what extent did the music make you feel ,EXCITED,30MonoWAV/30MonoS4.wav,1,1,3,12,,,,,1,12,28,11,0,8,8,7,,,,,,,,,1,0.8700871400069445,,,080,001,2019_Aug_27_1412,MusicAffectPsychophysiology2019,3.0.5,59.94969716953685,
To what extent did the music make you feel ,SAD,30MonoWAV/30MonoS4.wav,1,1,3,12,,,,,1,12,28,11,0,9,9,0,,,,,,,,,3,1.1040720909950323,,,080,001,2019_Aug_27_1412,MusicAffectPsychophysiology2019,3.0.5,59.94969716953685,
To what extent did the music make you feel ,ACTIVE,30MonoWAV/30MonoS4.wav,1,1,3,12,,,,,1,12,28,11,0,10,10,9,,,,,,,,,1,0.866206968028564,,,080,001,2019_Aug_27_1412,MusicAffectPsychophysiology2019,3.0.5,59.94969716953685,
To what extent did the music make you feel ,ALERT,30MonoWAV/30MonoS4.wav,1,1,3,12,,,,,1,12,28,11,0,11,11,8,,,,,,,,,1,1.9527743020153139,,,080,001,2019_Aug_27_1412,MusicAffectPsychophysiology2019,3.0.5,59.94969716953685,
,,30MonoWAV/30MonoS4.wav,1,1,3,12,,,,,1,12,28,11,,,,,,,,,,,,,,,,,080,001,2019_Aug_27_1412,MusicAffectPsychophysiology2019,3.0.5,59.94969716953685,
To what extent did the music make you feel ,ANGRY,30MonoWAV/30MonoS1.wav,1,1,3,9,,,,,1,13,29,8,0,0,0,2,,,1,3.8054092419915833,2,1.635838534013601,2,1.5865414070140105,1,1.6582504230027553,,,080,001,2019_Aug_27_1412,MusicAffectPsychophysiology2019,3.0.5,59.94969716953685,
To what extent did the music make you feel ,ALERT,30MonoWAV/30MonoS1.wav,1,1,3,9,,,,,1,13,29,8,0,1,1,8,,,,,,,,,1,1.2200824150058907,,,080,001,2019_Aug_27_1412,MusicAffectPsychophysiology2019,3.0.5,59.94969716953685,
To what extent did the music make you feel ,GUILTY,30MonoWAV/30MonoS1.wav,1,1,3,9,,,,,1,13,29,8,0,2,2,5,,,,,,,,,1,0.675876238005003,,,080,001,2019_Aug_27_1412,MusicAffectPsychophysiology2019,3.0.5,59.94969716953685,
To what extent did the music make you feel ,ANXIOUS ,30MonoWAV/30MonoS1.wav,1,1,3,9,,,,,1,13,29,8,0,3,3,1,,,,,,,,,2,1.0371999139897525,,,080,001,2019_Aug_27_1412,MusicAffectPsychophysiology2019,3.0.5,59.94969716953685,
To what extent did the music make you feel ,ASHAMED,30MonoWAV/30MonoS1.wav,1,1,3,9,,,,,1,13,29,8,0,4,4,4,,,,,,,,,1,1.0702562390069943,,,080,001,2019_Aug_27_1412,MusicAffectPsychophysiology2019,3.0.5,59.94969716953685,
To what extent did the music make you feel ,EXCITED,30MonoWAV/30MonoS1.wav,1,1,3,9,,,,,1,13,29,8,0,5,5,7,,,,,,,,,1,3.0762798429932445,,,080,001,2019_Aug_27_1412,MusicAffectPsychophysiology2019,3.0.5,59.94969716953685,
To what extent did the music make you feel ,SCARED,30MonoWAV/30MonoS1.wav,1,1,3,9,,,,,1,13,29,8,0,6,6,11,,,,,,,,,1,1.3592931480088737,,,080,001,2019_Aug_27_1412,MusicAffectPsychophysiology2019,3.0.5,59.94969716953685,
To what extent did the music make you feel ,HAPPY,30MonoWAV/30MonoS1.wav,1,1,3,9,,,,,1,13,29,8,0,7,7,6,,,,,,,,,1,0.8836420170264319,,,080,001,2019_Aug_27_1412,MusicAffectPsychophysiology2019,3.0.5,59.94969716953685,
To what extent did the music make you feel ,TENDER,30MonoWAV/30MonoS1.wav,1,1,3,9,,,,,1,13,29,8,0,8,8,10,,,,,,,,,3,1.200249896995956,,,080,001,2019_Aug_27_1412,MusicAffectPsychophysiology2019,3.0.5,59.94969716953685,
To what extent did the music make you feel ,SAD,30MonoWAV/30MonoS1.wav,1,1,3,9,,,,,1,13,29,8,0,9,9,0,,,,,,,,,3,1.7035896409943234,,,080,001,2019_Aug_27_1412,MusicAffectPsychophysiology2019,3.0.5,59.94969716953685,
To what extent did the music make you feel ,FRUSTRATED,30MonoWAV/30MonoS1.wav,1,1,3,9,,,,,1,13,29,8,0,10,10,3,,,,,,,,,1,0.9254514370113611,,,080,001,2019_Aug_27_1412,MusicAffectPsychophysiology2019,3.0.5,59.94969716953685,
To what extent did the music make you feel ,ACTIVE,30MonoWAV/30MonoS1.wav,1,1,3,9,,,,,1,13,29,8,0,11,11,9,,,,,,,,,1,1.1248781099857297,,,080,001,2019_Aug_27_1412,MusicAffectPsychophysiology2019,3.0.5,59.94969716953685,
,,30MonoWAV/30MonoS1.wav,1,1,3,9,,,,,1,13,29,8,,,,,,,,,,,,,,,,,080,001,2019_Aug_27_1412,MusicAffectPsychophysiology2019,3.0.5,59.94969716953685,
To what extent did the music make you feel ,SAD,30MonoWAV/30MonoF3.wav,1,2,2,3,,,,,1,14,30,2,0,0,0,0,,,3,3.669494395988295,2,2.1867520740197506,2,2.2173331619997043,1,1.304257460986264,,,080,001,2019_Aug_27_1412,MusicAffectPsychophysiology2019,3.0.5,59.94969716953685,
To what extent did the music make you feel ,SCARED,30MonoWAV/30MonoF3.wav,1,2,2,3,,,,,1,14,30,2,0,1,1,11,,,,,,,,,2,1.2866474599868525,,,080,001,2019_Aug_27_1412,MusicAffectPsychophysiology2019,3.0.5,59.94969716953685,
To what extent did the music make you feel ,HAPPY,30MonoWAV/30MonoF3.wav,1,2,2,3,,,,,1,14,30,2,0,2,2,6,,,,,,,,,1,1.05284598399885,,,080,001,2019_Aug_27_1412,MusicAffectPsychophysiology2019,3.0.5,59.94969716953685,
To what extent did the music make you feel ,TENDER,30MonoWAV/30MonoF3.wav,1,2,2,3,,,,,1,14,30,2,0,3,3,10,,,,,,,,,1,1.0673146030167118,,,080,001,2019_Aug_27_1412,MusicAffectPsychophysiology2019,3.0.5,59.94969716953685,
To what extent did the music make you feel ,ACTIVE,30MonoWAV/30MonoF3.wav,1,2,2,3,,,,,1,14,30,2,0,4,4,9,,,,,,,,,3,1.1669247199897654,,,080,001,2019_Aug_27_1412,MusicAffectPsychophysiology2019,3.0.5,59.94969716953685,
To what extent did the music make you feel ,ALERT,30MonoWAV/30MonoF3.wav,1,2,2,3,,,,,1,14,30,2,0,5,5,8,,,,,,,,,4,1.2874135120073333,,,080,001,2019_Aug_27_1412,MusicAffectPsychophysiology2019,3.0.5,59.94969716953685,
To what extent did the music make you feel ,ASHAMED,30MonoWAV/30MonoF3.wav,1,2,2,3,,,,,1,14,30,2,0,6,6,4,,,,,,,,,1,1.1520467820228077,,,080,001,2019_Aug_27_1412,MusicAffectPsychophysiology2019,3.0.5,59.94969716953685,
To what extent did the music make you feel ,EXCITED,30MonoWAV/30MonoF3.wav,1,2,2,3,,,,,1,14,30,2,0,7,7,7,,,,,,,,,1,1.386191041994607,,,080,001,2019_Aug_27_1412,MusicAffectPsychophysiology2019,3.0.5,59.94969716953685,
To what extent did the music make you feel ,ANGRY,30MonoWAV/30MonoF3.wav,1,2,2,3,,,,,1,14,30,2,0,8,8,2,,,,,,,,,3,2.8208776919927914,,,080,001,2019_Aug_27_1412,MusicAffectPsychophysiology2019,3.0.5,59.94969716953685,
To what extent did the music make you feel ,FRUSTRATED,30MonoWAV/30MonoF3.wav,1,2,2,3,,,,,1,14,30,2,0,9,9,3,,,,,,,,,1,0.985052348987665,,,080,001,2019_Aug_27_1412,MusicAffectPsychophysiology2019,3.0.5,59.94969716953685,
To what extent did the music make you feel ,GUILTY,30MonoWAV/30MonoF3.wav,1,2,2,3,,,,,1,14,30,2,0,10,10,5,,,,,,,,,1,0.8198807850130834,,,080,001,2019_Aug_27_1412,MusicAffectPsychophysiology2019,3.0.5,59.94969716953685,
To what extent did the music make you feel ,ANXIOUS ,30MonoWAV/30MonoF3.wav,1,2,2,3,,,,,1,14,30,2,0,11,11,1,,,,,,,,,3,1.3349763010046445,,,080,001,2019_Aug_27_1412,MusicAffectPsychophysiology2019,3.0.5,59.94969716953685,
,,30MonoWAV/30MonoF3.wav,1,2,2,3,,,,,1,14,30,2,,,,,,,,,,,,,,,,,080,001,2019_Aug_27_1412,MusicAffectPsychophysiology2019,3.0.5,59.94969716953685,
To what extent did the music make you feel ,FRUSTRATED,30MonoWAV/30MonoH4.wav,2,2,1,8,,,,,1,15,31,7,0,0,0,3,,,3,3.2373137249960564,3,2.819957614003215,3,2.119329764012946,1,1.1672073570080101,,,080,001,2019_Aug_27_1412,MusicAffectPsychophysiology2019,3.0.5,59.94969716953685,
To what extent did the music make you feel ,SCARED,30MonoWAV/30MonoH4.wav,2,2,1,8,,,,,1,15,31,7,0,1,1,11,,,,,,,,,1,0.6336938939930405,,,080,001,2019_Aug_27_1412,MusicAffectPsychophysiology2019,3.0.5,59.94969716953685,
To what extent did the music make you feel ,ANGRY,30MonoWAV/30MonoH4.wav,2,2,1,8,,,,,1,15,31,7,0,2,2,2,,,,,,,,,1,0.6870776389841922,,,080,001,2019_Aug_27_1412,MusicAffectPsychophysiology2019,3.0.5,59.94969716953685,
To what extent did the music make you feel ,HAPPY,30MonoWAV/30MonoH4.wav,2,2,1,8,,,,,1,15,31,7,0,3,3,6,,,,,,,,,3,1.7521880099957343,,,080,001,2019_Aug_27_1412,MusicAffectPsychophysiology2019,3.0.5,59.94969716953685,
To what extent did the music make you feel ,GUILTY,30MonoWAV/30MonoH4.wav,2,2,1,8,,,,,1,15,31,7,0,4,4,5,,,,,,,,,1,0.7172849619819317,,,080,001,2019_Aug_27_1412,MusicAffectPsychophysiology2019,3.0.5,59.94969716953685,
To what extent did the music make you feel ,ASHAMED,30MonoWAV/30MonoH4.wav,2,2,1,8,,,,,1,15,31,7,0,5,5,4,,,,,,,,,1,1.036942929000361,,,080,001,2019_Aug_27_1412,MusicAffectPsychophysiology2019,3.0.5,59.94969716953685,
To what extent did the music make you feel ,ACTIVE,30MonoWAV/30MonoH4.wav,2,2,1,8,,,,,1,15,31,7,0,6,6,9,,,,,,,,,4,1.1531741000071634,,,080,001,2019_Aug_27_1412,MusicAffectPsychophysiology2019,3.0.5,59.94969716953685,
To what extent did the music make you feel ,TENDER,30MonoWAV/30MonoH4.wav,2,2,1,8,,,,,1,15,31,7,0,7,7,10,,,,,,,,,1,1.3955744249979034,,,080,001,2019_Aug_27_1412,MusicAffectPsychophysiology2019,3.0.5,59.94969716953685,
To what extent did the music make you feel ,ALERT,30MonoWAV/30MonoH4.wav,2,2,1,8,,,,,1,15,31,7,0,8,8,8,,,,,,,,,3,1.5424627210013568,,,080,001,2019_Aug_27_1412,MusicAffectPsychophysiology2019,3.0.5,59.94969716953685,
To what extent did the music make you feel ,SAD,30MonoWAV/30MonoH4.wav,2,2,1,8,,,,,1,15,31,7,0,9,9,0,,,,,,,,,1,0.8174641020013951,,,080,001,2019_Aug_27_1412,MusicAffectPsychophysiology2019,3.0.5,59.94969716953685,
To what extent did the music make you feel ,ANXIOUS ,30MonoWAV/30MonoH4.wav,2,2,1,8,,,,,1,15,31,7,0,10,10,1,,,,,,,,,1,1.0367793869809248,,,080,001,2019_Aug_27_1412,MusicAffectPsychophysiology2019,3.0.5,59.94969716953685,
To what extent did the music make you feel ,EXCITED,30MonoWAV/30MonoH4.wav,2,2,1,8,,,,,1,15,31,7,0,11,11,7,,,,,,,,,3,1.3876619710063096,,,080,001,2019_Aug_27_1412,MusicAffectPsychophysiology2019,3.0.5,59.94969716953685,
,,30MonoWAV/30MonoH4.wav,2,2,1,8,,,,,1,15,31,7,,,,,,,,,,,,,,,,,080,001,2019_Aug_27_1412,MusicAffectPsychophysiology2019,3.0.5,59.94969716953685,
,,,,,,,,,,,,,,,,,,,,,,,,,,,,,space,5.143792413000483,080,001,2019_Aug_27_1412,MusicAffectPsychophysiology2019,3.0.5,59.94969716953685,
