Instruction,Word,song,valence,arousal,affectcat,songmark,pracwords.thisRepN,pracwords.thisTrialN,pracwords.thisN,pracwords.thisIndex,songtrials.thisRepN,songtrials.thisTrialN,songtrials.thisN,songtrials.thisIndex,words.thisRepN,words.thisTrialN,words.thisN,words.thisIndex,begin.keys,begin.rt,arousalkey.keys,arousalkey.rt,valencekey.keys,valencekey.rt,likekey.keys,likekey.rt,WordResponse.keys,WordResponse.rt,key_resp_2.keys,key_resp_2.rt,participant,session,date,expName,psychopyVersion,frameRate,
,,,,,,,,,,,,,,,,,,,return,9.844931497005746,,,,,,,,,,,081,001,2019_Aug_27_1507,MusicAffectPsychophysiology2019,3.0.5,59.91336837954141,
,,,,,,,,,,,,,,,,,,,,,4,3.943090214015683,,,,,,,,,081,001,2019_Aug_27_1507,MusicAffectPsychophysiology2019,3.0.5,59.91336837954141,
,,,,,,,,,,,,,,,,,,,,,,,4,3.032574945013039,,,,,,,081,001,2019_Aug_27_1507,MusicAffectPsychophysiology2019,3.0.5,59.91336837954141,
,,,,,,,,,,,,,,,,,,,,,,,,,5,3.488191637006821,,,,,081,001,2019_Aug_27_1507,MusicAffectPsychophysiology2019,3.0.5,59.91336837954141,
To what extent did the music make you feel ,HAPPY,,,,,,0,0,0,6,,,,,,,,,,,,,,,,,4,4.636261181993177,,,081,001,2019_Aug_27_1507,MusicAffectPsychophysiology2019,3.0.5,59.91336837954141,
To what extent did the music make you feel ,ALERT,,,,,,0,1,1,8,,,,,,,,,,,,,,,,,5,2.8860910669900477,,,081,001,2019_Aug_27_1507,MusicAffectPsychophysiology2019,3.0.5,59.91336837954141,
To what extent did the music make you feel ,TENDER,,,,,,0,2,2,10,,,,,,,,,,,,,,,,,3,4.001772985007847,,,081,001,2019_Aug_27_1507,MusicAffectPsychophysiology2019,3.0.5,59.91336837954141,
To what extent did the music make you feel ,ANGRY,,,,,,0,3,3,2,,,,,,,,,,,,,,,,,1,1.9183030120038893,,,081,001,2019_Aug_27_1507,MusicAffectPsychophysiology2019,3.0.5,59.91336837954141,
To what extent did the music make you feel ,ACTIVE,,,,,,0,4,4,9,,,,,,,,,,,,,,,,,3,2.18319366601645,,,081,001,2019_Aug_27_1507,MusicAffectPsychophysiology2019,3.0.5,59.91336837954141,
To what extent did the music make you feel ,ASHAMED,,,,,,0,5,5,4,,,,,,,,,,,,,,,,,1,2.1038138449948747,,,081,001,2019_Aug_27_1507,MusicAffectPsychophysiology2019,3.0.5,59.91336837954141,
To what extent did the music make you feel ,SAD,,,,,,0,6,6,0,,,,,,,,,,,,,,,,,2,2.386323707003612,,,081,001,2019_Aug_27_1507,MusicAffectPsychophysiology2019,3.0.5,59.91336837954141,
To what extent did the music make you feel ,GUILTY,,,,,,0,7,7,5,,,,,,,,,,,,,,,,,1,1.4518743689986877,,,081,001,2019_Aug_27_1507,MusicAffectPsychophysiology2019,3.0.5,59.91336837954141,
To what extent did the music make you feel ,EXCITED,,,,,,0,8,8,7,,,,,,,,,,,,,,,,,3,3.150524649012368,,,081,001,2019_Aug_27_1507,MusicAffectPsychophysiology2019,3.0.5,59.91336837954141,
To what extent did the music make you feel ,FRUSTRATED,,,,,,0,9,9,3,,,,,,,,,,,,,,,,,1,2.683988817007048,,,081,001,2019_Aug_27_1507,MusicAffectPsychophysiology2019,3.0.5,59.91336837954141,
To what extent did the music make you feel ,SCARED,,,,,,0,10,10,11,,,,,,,,,,,,,,,,,1,1.7350705240096431,,,081,001,2019_Aug_27_1507,MusicAffectPsychophysiology2019,3.0.5,59.91336837954141,
To what extent did the music make you feel ,ANXIOUS ,,,,,,0,11,11,1,,,,,,,,,,,,,,,,,1,4.6000079849909525,,,081,001,2019_Aug_27_1507,MusicAffectPsychophysiology2019,3.0.5,59.91336837954141,
To what extent did the music make you feel ,HAPPY,30MonoWAV/30MonoH4.wav,2,2,1,8,,,,,0,0,0,7,0,0,0,6,,,5,2.2859368940116838,5,1.504120615980355,5,1.619955005007796,5,1.6873694389942102,,,081,001,2019_Aug_27_1507,MusicAffectPsychophysiology2019,3.0.5,59.91336837954141,
To what extent did the music make you feel ,ASHAMED,30MonoWAV/30MonoH4.wav,2,2,1,8,,,,,0,0,0,7,0,1,1,4,,,,,,,,,1,1.045350561995292,,,081,001,2019_Aug_27_1507,MusicAffectPsychophysiology2019,3.0.5,59.91336837954141,
To what extent did the music make you feel ,ANGRY,30MonoWAV/30MonoH4.wav,2,2,1,8,,,,,0,0,0,7,0,2,2,2,,,,,,,,,1,1.3034925370011479,,,081,001,2019_Aug_27_1507,MusicAffectPsychophysiology2019,3.0.5,59.91336837954141,
To what extent did the music make you feel ,EXCITED,30MonoWAV/30MonoH4.wav,2,2,1,8,,,,,0,0,0,7,0,3,3,7,,,,,,,,,5,1.4198072709841654,,,081,001,2019_Aug_27_1507,MusicAffectPsychophysiology2019,3.0.5,59.91336837954141,
To what extent did the music make you feel ,ANXIOUS ,30MonoWAV/30MonoH4.wav,2,2,1,8,,,,,0,0,0,7,0,4,4,1,,,,,,,,,1,1.284331506001763,,,081,001,2019_Aug_27_1507,MusicAffectPsychophysiology2019,3.0.5,59.91336837954141,
To what extent did the music make you feel ,TENDER,30MonoWAV/30MonoH4.wav,2,2,1,8,,,,,0,0,0,7,0,5,5,10,,,,,,,,,1,3.2340081440052018,,,081,001,2019_Aug_27_1507,MusicAffectPsychophysiology2019,3.0.5,59.91336837954141,
To what extent did the music make you feel ,GUILTY,30MonoWAV/30MonoH4.wav,2,2,1,8,,,,,0,0,0,7,0,6,6,5,,,,,,,,,1,1.3203360780025832,,,081,001,2019_Aug_27_1507,MusicAffectPsychophysiology2019,3.0.5,59.91336837954141,
To what extent did the music make you feel ,SCARED,30MonoWAV/30MonoH4.wav,2,2,1,8,,,,,0,0,0,7,0,7,7,11,,,,,,,,,1,1.2936532340245321,,,081,001,2019_Aug_27_1507,MusicAffectPsychophysiology2019,3.0.5,59.91336837954141,
To what extent did the music make you feel ,SAD,30MonoWAV/30MonoH4.wav,2,2,1,8,,,,,0,0,0,7,0,8,8,0,,,,,,,,,1,1.2033621269802097,,,081,001,2019_Aug_27_1507,MusicAffectPsychophysiology2019,3.0.5,59.91336837954141,
To what extent did the music make you feel ,ALERT,30MonoWAV/30MonoH4.wav,2,2,1,8,,,,,0,0,0,7,0,9,9,8,,,,,,,,,5,1.3521972289890982,,,081,001,2019_Aug_27_1507,MusicAffectPsychophysiology2019,3.0.5,59.91336837954141,
To what extent did the music make you feel ,FRUSTRATED,30MonoWAV/30MonoH4.wav,2,2,1,8,,,,,0,0,0,7,0,10,10,3,,,,,,,,,1,1.3929499399964698,,,081,001,2019_Aug_27_1507,MusicAffectPsychophysiology2019,3.0.5,59.91336837954141,
To what extent did the music make you feel ,ACTIVE,30MonoWAV/30MonoH4.wav,2,2,1,8,,,,,0,0,0,7,0,11,11,9,,,,,,,,,5,1.5533123159839306,,,081,001,2019_Aug_27_1507,MusicAffectPsychophysiology2019,3.0.5,59.91336837954141,
,,30MonoWAV/30MonoH4.wav,2,2,1,8,,,,,0,0,0,7,,,,,,,,,,,,,,,,,081,001,2019_Aug_27_1507,MusicAffectPsychophysiology2019,3.0.5,59.91336837954141,
To what extent did the music make you feel ,GUILTY,30MonoWAV/30MonoS2.wav,1,1,3,10,,,,,0,1,1,9,0,0,0,5,,,2,3.7369608259759843,2,5.383504046010785,3,2.1350942210119683,3,4.554380939982366,,,081,001,2019_Aug_27_1507,MusicAffectPsychophysiology2019,3.0.5,59.91336837954141,
To what extent did the music make you feel ,ALERT,30MonoWAV/30MonoS2.wav,1,1,3,10,,,,,0,1,1,9,0,1,1,8,,,,,,,,,2,2.034715696994681,,,081,001,2019_Aug_27_1507,MusicAffectPsychophysiology2019,3.0.5,59.91336837954141,
To what extent did the music make you feel ,SAD,30MonoWAV/30MonoS2.wav,1,1,3,10,,,,,0,1,1,9,0,2,2,0,,,,,,,,,4,3.3513135699904524,,,081,001,2019_Aug_27_1507,MusicAffectPsychophysiology2019,3.0.5,59.91336837954141,
To what extent did the music make you feel ,ASHAMED,30MonoWAV/30MonoS2.wav,1,1,3,10,,,,,0,1,1,9,0,3,3,4,,,,,,,,,4,3.0693873440031894,,,081,001,2019_Aug_27_1507,MusicAffectPsychophysiology2019,3.0.5,59.91336837954141,
To what extent did the music make you feel ,ANGRY,30MonoWAV/30MonoS2.wav,1,1,3,10,,,,,0,1,1,9,0,4,4,2,,,,,,,,,1,2.5542722980026156,,,081,001,2019_Aug_27_1507,MusicAffectPsychophysiology2019,3.0.5,59.91336837954141,
To what extent did the music make you feel ,EXCITED,30MonoWAV/30MonoS2.wav,1,1,3,10,,,,,0,1,1,9,0,5,5,7,,,,,,,,,1,2.069690669013653,,,081,001,2019_Aug_27_1507,MusicAffectPsychophysiology2019,3.0.5,59.91336837954141,
To what extent did the music make you feel ,ANXIOUS ,30MonoWAV/30MonoS2.wav,1,1,3,10,,,,,0,1,1,9,0,6,6,1,,,,,,,,,2,2.018929578975076,,,081,001,2019_Aug_27_1507,MusicAffectPsychophysiology2019,3.0.5,59.91336837954141,
To what extent did the music make you feel ,HAPPY,30MonoWAV/30MonoS2.wav,1,1,3,10,,,,,0,1,1,9,0,7,7,6,,,,,,,,,1,1.7359823459992185,,,081,001,2019_Aug_27_1507,MusicAffectPsychophysiology2019,3.0.5,59.91336837954141,
To what extent did the music make you feel ,FRUSTRATED,30MonoWAV/30MonoS2.wav,1,1,3,10,,,,,0,1,1,9,0,8,8,3,,,,,,,,,1,2.1191683069919236,,,081,001,2019_Aug_27_1507,MusicAffectPsychophysiology2019,3.0.5,59.91336837954141,
To what extent did the music make you feel ,SCARED,30MonoWAV/30MonoS2.wav,1,1,3,10,,,,,0,1,1,9,0,9,9,11,,,,,,,,,1,1.902231104002567,,,081,001,2019_Aug_27_1507,MusicAffectPsychophysiology2019,3.0.5,59.91336837954141,
To what extent did the music make you feel ,ACTIVE,30MonoWAV/30MonoS2.wav,1,1,3,10,,,,,0,1,1,9,0,10,10,9,,,,,,,,,1,1.4703093399875797,,,081,001,2019_Aug_27_1507,MusicAffectPsychophysiology2019,3.0.5,59.91336837954141,
To what extent did the music make you feel ,TENDER,30MonoWAV/30MonoS2.wav,1,1,3,10,,,,,0,1,1,9,0,11,11,10,,,,,,,,,4,2.1354102949844673,,,081,001,2019_Aug_27_1507,MusicAffectPsychophysiology2019,3.0.5,59.91336837954141,
,,30MonoWAV/30MonoS2.wav,1,1,3,10,,,,,0,1,1,9,,,,,,,,,,,,,,,,,081,001,2019_Aug_27_1507,MusicAffectPsychophysiology2019,3.0.5,59.91336837954141,
To what extent did the music make you feel ,ASHAMED,30MonoWAV/30MonoS3.wav,1,1,3,11,,,,,0,2,2,10,0,0,0,4,,,3,4.836075532017276,1,3.9849529860075563,2,1.803230977995554,1,3.252834023005562,,,081,001,2019_Aug_27_1507,MusicAffectPsychophysiology2019,3.0.5,59.91336837954141,
To what extent did the music make you feel ,FRUSTRATED,30MonoWAV/30MonoS3.wav,1,1,3,11,,,,,0,2,2,10,0,1,1,3,,,,,,,,,2,4.8787969179975335,,,081,001,2019_Aug_27_1507,MusicAffectPsychophysiology2019,3.0.5,59.91336837954141,
To what extent did the music make you feel ,SCARED,30MonoWAV/30MonoS3.wav,1,1,3,11,,,,,0,2,2,10,0,2,2,11,,,,,,,,,3,2.36205339001026,,,081,001,2019_Aug_27_1507,MusicAffectPsychophysiology2019,3.0.5,59.91336837954141,
To what extent did the music make you feel ,GUILTY,30MonoWAV/30MonoS3.wav,1,1,3,11,,,,,0,2,2,10,0,3,3,5,,,,,,,,,2,2.7699205309909303,,,081,001,2019_Aug_27_1507,MusicAffectPsychophysiology2019,3.0.5,59.91336837954141,
To what extent did the music make you feel ,ALERT,30MonoWAV/30MonoS3.wav,1,1,3,11,,,,,0,2,2,10,0,4,4,8,,,,,,,,,5,2.7867700349888764,,,081,001,2019_Aug_27_1507,MusicAffectPsychophysiology2019,3.0.5,59.91336837954141,
To what extent did the music make you feel ,EXCITED,30MonoWAV/30MonoS3.wav,1,1,3,11,,,,,0,2,2,10,0,5,5,7,,,,,,,,,3,1.9334105599846225,,,081,001,2019_Aug_27_1507,MusicAffectPsychophysiology2019,3.0.5,59.91336837954141,
To what extent did the music make you feel ,ANGRY,30MonoWAV/30MonoS3.wav,1,1,3,11,,,,,0,2,2,10,0,6,6,2,,,,,,,,,1,1.5704469160118606,,,081,001,2019_Aug_27_1507,MusicAffectPsychophysiology2019,3.0.5,59.91336837954141,
To what extent did the music make you feel ,ACTIVE,30MonoWAV/30MonoS3.wav,1,1,3,11,,,,,0,2,2,10,0,7,7,9,,,,,,,,,2,3.794847387005575,,,081,001,2019_Aug_27_1507,MusicAffectPsychophysiology2019,3.0.5,59.91336837954141,
To what extent did the music make you feel ,HAPPY,30MonoWAV/30MonoS3.wav,1,1,3,11,,,,,0,2,2,10,0,8,8,6,,,,,,,,,1,1.791420266003115,,,081,001,2019_Aug_27_1507,MusicAffectPsychophysiology2019,3.0.5,59.91336837954141,
To what extent did the music make you feel ,ANXIOUS ,30MonoWAV/30MonoS3.wav,1,1,3,11,,,,,0,2,2,10,0,9,9,1,,,,,,,,,4,3.8202132699952926,,,081,001,2019_Aug_27_1507,MusicAffectPsychophysiology2019,3.0.5,59.91336837954141,
To what extent did the music make you feel ,SAD,30MonoWAV/30MonoS3.wav,1,1,3,11,,,,,0,2,2,10,0,10,10,0,,,,,,,,,2,2.5840958220069297,,,081,001,2019_Aug_27_1507,MusicAffectPsychophysiology2019,3.0.5,59.91336837954141,
To what extent did the music make you feel ,TENDER,30MonoWAV/30MonoS3.wav,1,1,3,11,,,,,0,2,2,10,0,11,11,10,,,,,,,,,1,2.004421502992045,,,081,001,2019_Aug_27_1507,MusicAffectPsychophysiology2019,3.0.5,59.91336837954141,
,,30MonoWAV/30MonoS3.wav,1,1,3,11,,,,,0,2,2,10,,,,,,,,,,,,,,,,,081,001,2019_Aug_27_1507,MusicAffectPsychophysiology2019,3.0.5,59.91336837954141,
To what extent did the music make you feel ,ALERT,30MonoWAV/30MonoT1.wav,2,1,4,13,,,,,0,3,3,12,0,0,0,8,,,2,4.249194948002696,4,2.085019531979924,3,5.201658514008159,1,2.88645814100164,,,081,001,2019_Aug_27_1507,MusicAffectPsychophysiology2019,3.0.5,59.91336837954141,
To what extent did the music make you feel ,TENDER,30MonoWAV/30MonoT1.wav,2,1,4,13,,,,,0,3,3,12,0,1,1,10,,,,,,,,,5,2.1859734790050425,,,081,001,2019_Aug_27_1507,MusicAffectPsychophysiology2019,3.0.5,59.91336837954141,
To what extent did the music make you feel ,HAPPY,30MonoWAV/30MonoT1.wav,2,1,4,13,,,,,0,3,3,12,0,2,2,6,,,,,,,,,4,2.2522551660076715,,,081,001,2019_Aug_27_1507,MusicAffectPsychophysiology2019,3.0.5,59.91336837954141,
To what extent did the music make you feel ,SAD,30MonoWAV/30MonoT1.wav,2,1,4,13,,,,,0,3,3,12,0,3,3,0,,,,,,,,,2,2.1195800059940666,,,081,001,2019_Aug_27_1507,MusicAffectPsychophysiology2019,3.0.5,59.91336837954141,
To what extent did the music make you feel ,SCARED,30MonoWAV/30MonoT1.wav,2,1,4,13,,,,,0,3,3,12,0,4,4,11,,,,,,,,,1,1.585993716988014,,,081,001,2019_Aug_27_1507,MusicAffectPsychophysiology2019,3.0.5,59.91336837954141,
To what extent did the music make you feel ,GUILTY,30MonoWAV/30MonoT1.wav,2,1,4,13,,,,,0,3,3,12,0,5,5,5,,,,,,,,,1,1.2192101220134646,,,081,001,2019_Aug_27_1507,MusicAffectPsychophysiology2019,3.0.5,59.91336837954141,
To what extent did the music make you feel ,EXCITED,30MonoWAV/30MonoT1.wav,2,1,4,13,,,,,0,3,3,12,0,6,6,7,,,,,,,,,2,1.9527063099958468,,,081,001,2019_Aug_27_1507,MusicAffectPsychophysiology2019,3.0.5,59.91336837954141,
To what extent did the music make you feel ,FRUSTRATED,30MonoWAV/30MonoT1.wav,2,1,4,13,,,,,0,3,3,12,0,7,7,3,,,,,,,,,1,1.3369256269943435,,,081,001,2019_Aug_27_1507,MusicAffectPsychophysiology2019,3.0.5,59.91336837954141,
To what extent did the music make you feel ,ACTIVE,30MonoWAV/30MonoT1.wav,2,1,4,13,,,,,0,3,3,12,0,8,8,9,,,,,,,,,1,5.053430746978847,,,081,001,2019_Aug_27_1507,MusicAffectPsychophysiology2019,3.0.5,59.91336837954141,
To what extent did the music make you feel ,ANGRY,30MonoWAV/30MonoT1.wav,2,1,4,13,,,,,0,3,3,12,0,9,9,2,,,,,,,,,1,1.1370403970067855,,,081,001,2019_Aug_27_1507,MusicAffectPsychophysiology2019,3.0.5,59.91336837954141,
To what extent did the music make you feel ,ASHAMED,30MonoWAV/30MonoT1.wav,2,1,4,13,,,,,0,3,3,12,0,10,10,4,,,,,,,,,1,1.9360926800000016,,,081,001,2019_Aug_27_1507,MusicAffectPsychophysiology2019,3.0.5,59.91336837954141,
To what extent did the music make you feel ,ANXIOUS ,30MonoWAV/30MonoT1.wav,2,1,4,13,,,,,0,3,3,12,0,11,11,1,,,,,,,,,2,2.8519143849844113,,,081,001,2019_Aug_27_1507,MusicAffectPsychophysiology2019,3.0.5,59.91336837954141,
,,30MonoWAV/30MonoT1.wav,2,1,4,13,,,,,0,3,3,12,,,,,,,,,,,,,,,,,081,001,2019_Aug_27_1507,MusicAffectPsychophysiology2019,3.0.5,59.91336837954141,
To what extent did the music make you feel ,TENDER,30MonoWAV/30MonoH2.wav,2,2,1,6,,,,,0,4,4,5,0,0,0,10,,,4,2.3218273720121942,4,1.7868802320153918,3,2.2360522570088506,1,2.4541439849999733,,,081,001,2019_Aug_27_1507,MusicAffectPsychophysiology2019,3.0.5,59.91336837954141,
To what extent did the music make you feel ,ACTIVE,30MonoWAV/30MonoH2.wav,2,2,1,6,,,,,0,4,4,5,0,1,1,9,,,,,,,,,4,2.5458274699922185,,,081,001,2019_Aug_27_1507,MusicAffectPsychophysiology2019,3.0.5,59.91336837954141,
To what extent did the music make you feel ,ASHAMED,30MonoWAV/30MonoH2.wav,2,2,1,6,,,,,0,4,4,5,0,2,2,4,,,,,,,,,1,1.4782516839914024,,,081,001,2019_Aug_27_1507,MusicAffectPsychophysiology2019,3.0.5,59.91336837954141,
To what extent did the music make you feel ,SAD,30MonoWAV/30MonoH2.wav,2,2,1,6,,,,,0,4,4,5,0,3,3,0,,,,,,,,,1,1.0197841190092731,,,081,001,2019_Aug_27_1507,MusicAffectPsychophysiology2019,3.0.5,59.91336837954141,
To what extent did the music make you feel ,FRUSTRATED,30MonoWAV/30MonoH2.wav,2,2,1,6,,,,,0,4,4,5,0,4,4,3,,,,,,,,,1,0.761032956012059,,,081,001,2019_Aug_27_1507,MusicAffectPsychophysiology2019,3.0.5,59.91336837954141,
To what extent did the music make you feel ,ANXIOUS ,30MonoWAV/30MonoH2.wav,2,2,1,6,,,,,0,4,4,5,0,5,5,1,,,,,,,,,1,2.4541814369731583,,,081,001,2019_Aug_27_1507,MusicAffectPsychophysiology2019,3.0.5,59.91336837954141,
To what extent did the music make you feel ,GUILTY,30MonoWAV/30MonoH2.wav,2,2,1,6,,,,,0,4,4,5,0,6,6,5,,,,,,,,,1,0.7365787270246074,,,081,001,2019_Aug_27_1507,MusicAffectPsychophysiology2019,3.0.5,59.91336837954141,
To what extent did the music make you feel ,ALERT,30MonoWAV/30MonoH2.wav,2,2,1,6,,,,,0,4,4,5,0,7,7,8,,,,,,,,,5,1.4454939429997467,,,081,001,2019_Aug_27_1507,MusicAffectPsychophysiology2019,3.0.5,59.91336837954141,
To what extent did the music make you feel ,HAPPY,30MonoWAV/30MonoH2.wav,2,2,1,6,,,,,0,4,4,5,0,8,8,6,,,,,,,,,4,1.8195243070076685,,,081,001,2019_Aug_27_1507,MusicAffectPsychophysiology2019,3.0.5,59.91336837954141,
To what extent did the music make you feel ,EXCITED,30MonoWAV/30MonoH2.wav,2,2,1,6,,,,,0,4,4,5,0,9,9,7,,,,,,,,,5,1.257799695013091,,,081,001,2019_Aug_27_1507,MusicAffectPsychophysiology2019,3.0.5,59.91336837954141,
To what extent did the music make you feel ,ANGRY,30MonoWAV/30MonoH2.wav,2,2,1,6,,,,,0,4,4,5,0,10,10,2,,,,,,,,,1,1.6340545490093064,,,081,001,2019_Aug_27_1507,MusicAffectPsychophysiology2019,3.0.5,59.91336837954141,
To what extent did the music make you feel ,SCARED,30MonoWAV/30MonoH2.wav,2,2,1,6,,,,,0,4,4,5,0,11,11,11,,,,,,,,,1,3.020028249011375,,,081,001,2019_Aug_27_1507,MusicAffectPsychophysiology2019,3.0.5,59.91336837954141,
,,30MonoWAV/30MonoH2.wav,2,2,1,6,,,,,0,4,4,5,,,,,,,,,,,,,,,,,081,001,2019_Aug_27_1507,MusicAffectPsychophysiology2019,3.0.5,59.91336837954141,
To what extent did the music make you feel ,ANXIOUS ,30MonoWAV/30MonoT3.wav,2,1,4,15,,,,,0,5,5,14,0,0,0,1,,,2,7.252176704001613,5,2.3024170369899366,5,1.8365691489889286,1,1.721702260983875,,,081,001,2019_Aug_27_1507,MusicAffectPsychophysiology2019,3.0.5,59.91336837954141,
To what extent did the music make you feel ,GUILTY,30MonoWAV/30MonoT3.wav,2,1,4,15,,,,,0,5,5,14,0,1,1,5,,,,,,,,,1,0.9709171149879694,,,081,001,2019_Aug_27_1507,MusicAffectPsychophysiology2019,3.0.5,59.91336837954141,
To what extent did the music make you feel ,SCARED,30MonoWAV/30MonoT3.wav,2,1,4,15,,,,,0,5,5,14,0,2,2,11,,,,,,,,,1,1.0554374719795305,,,081,001,2019_Aug_27_1507,MusicAffectPsychophysiology2019,3.0.5,59.91336837954141,
To what extent did the music make you feel ,ASHAMED,30MonoWAV/30MonoT3.wav,2,1,4,15,,,,,0,5,5,14,0,3,3,4,,,,,,,,,1,0.9543639580078889,,,081,001,2019_Aug_27_1507,MusicAffectPsychophysiology2019,3.0.5,59.91336837954141,
To what extent did the music make you feel ,SAD,30MonoWAV/30MonoT3.wav,2,1,4,15,,,,,0,5,5,14,0,4,4,0,,,,,,,,,1,2.0182608219911344,,,081,001,2019_Aug_27_1507,MusicAffectPsychophysiology2019,3.0.5,59.91336837954141,
To what extent did the music make you feel ,HAPPY,30MonoWAV/30MonoT3.wav,2,1,4,15,,,,,0,5,5,14,0,5,5,6,,,,,,,,,4,1.603614326013485,,,081,001,2019_Aug_27_1507,MusicAffectPsychophysiology2019,3.0.5,59.91336837954141,
To what extent did the music make you feel ,TENDER,30MonoWAV/30MonoT3.wav,2,1,4,15,,,,,0,5,5,14,0,6,6,10,,,,,,,,,5,1.2546621829969808,,,081,001,2019_Aug_27_1507,MusicAffectPsychophysiology2019,3.0.5,59.91336837954141,
To what extent did the music make you feel ,FRUSTRATED,30MonoWAV/30MonoT3.wav,2,1,4,15,,,,,0,5,5,14,0,7,7,3,,,,,,,,,1,1.2863725389761385,,,081,001,2019_Aug_27_1507,MusicAffectPsychophysiology2019,3.0.5,59.91336837954141,
To what extent did the music make you feel ,ANGRY,30MonoWAV/30MonoT3.wav,2,1,4,15,,,,,0,5,5,14,0,8,8,2,,,,,,,,,1,1.9871215479797684,,,081,001,2019_Aug_27_1507,MusicAffectPsychophysiology2019,3.0.5,59.91336837954141,
To what extent did the music make you feel ,ALERT,30MonoWAV/30MonoT3.wav,2,1,4,15,,,,,0,5,5,14,0,9,9,8,,,,,,,,,2,2.0037106909730937,,,081,001,2019_Aug_27_1507,MusicAffectPsychophysiology2019,3.0.5,59.91336837954141,
To what extent did the music make you feel ,EXCITED,30MonoWAV/30MonoT3.wav,2,1,4,15,,,,,0,5,5,14,0,10,10,7,,,,,,,,,2,2.920108632009942,,,081,001,2019_Aug_27_1507,MusicAffectPsychophysiology2019,3.0.5,59.91336837954141,
To what extent did the music make you feel ,ACTIVE,30MonoWAV/30MonoT3.wav,2,1,4,15,,,,,0,5,5,14,0,11,11,9,,,,,,,,,3,1.636880956008099,,,081,001,2019_Aug_27_1507,MusicAffectPsychophysiology2019,3.0.5,59.91336837954141,
,,30MonoWAV/30MonoT3.wav,2,1,4,15,,,,,0,5,5,14,,,,,,,,,,,,,,,,,081,001,2019_Aug_27_1507,MusicAffectPsychophysiology2019,3.0.5,59.91336837954141,
To what extent did the music make you feel ,EXCITED,30MonoWAV/30MonoF3.wav,1,2,2,3,,,,,0,6,6,2,0,0,0,7,,,4,5.002378239005338,2,2.6860121939971577,1,2.1862953240051866,2,1.7372289529885165,,,081,001,2019_Aug_27_1507,MusicAffectPsychophysiology2019,3.0.5,59.91336837954141,
To what extent did the music make you feel ,TENDER,30MonoWAV/30MonoF3.wav,1,2,2,3,,,,,0,6,6,2,0,1,1,10,,,,,,,,,1,1.1788516189844813,,,081,001,2019_Aug_27_1507,MusicAffectPsychophysiology2019,3.0.5,59.91336837954141,
To what extent did the music make you feel ,ANXIOUS ,30MonoWAV/30MonoF3.wav,1,2,2,3,,,,,0,6,6,2,0,2,2,1,,,,,,,,,5,1.8527124880056363,,,081,001,2019_Aug_27_1507,MusicAffectPsychophysiology2019,3.0.5,59.91336837954141,
To what extent did the music make you feel ,ALERT,30MonoWAV/30MonoF3.wav,1,2,2,3,,,,,0,6,6,2,0,3,3,8,,,,,,,,,5,1.6034716809808742,,,081,001,2019_Aug_27_1507,MusicAffectPsychophysiology2019,3.0.5,59.91336837954141,
To what extent did the music make you feel ,SCARED,30MonoWAV/30MonoF3.wav,1,2,2,3,,,,,0,6,6,2,0,4,4,11,,,,,,,,,3,1.81269875401631,,,081,001,2019_Aug_27_1507,MusicAffectPsychophysiology2019,3.0.5,59.91336837954141,
To what extent did the music make you feel ,ASHAMED,30MonoWAV/30MonoF3.wav,1,2,2,3,,,,,0,6,6,2,0,5,5,4,,,,,,,,,1,1.5544307640229817,,,081,001,2019_Aug_27_1507,MusicAffectPsychophysiology2019,3.0.5,59.91336837954141,
To what extent did the music make you feel ,HAPPY,30MonoWAV/30MonoF3.wav,1,2,2,3,,,,,0,6,6,2,0,6,6,6,,,,,,,,,1,1.471116748987697,,,081,001,2019_Aug_27_1507,MusicAffectPsychophysiology2019,3.0.5,59.91336837954141,
To what extent did the music make you feel ,FRUSTRATED,30MonoWAV/30MonoF3.wav,1,2,2,3,,,,,0,6,6,2,0,7,7,3,,,,,,,,,1,0.9629359940008726,,,081,001,2019_Aug_27_1507,MusicAffectPsychophysiology2019,3.0.5,59.91336837954141,
To what extent did the music make you feel ,SAD,30MonoWAV/30MonoF3.wav,1,2,2,3,,,,,0,6,6,2,0,8,8,0,,,,,,,,,1,1.2512612050049938,,,081,001,2019_Aug_27_1507,MusicAffectPsychophysiology2019,3.0.5,59.91336837954141,
To what extent did the music make you feel ,ANGRY,30MonoWAV/30MonoF3.wav,1,2,2,3,,,,,0,6,6,2,0,9,9,2,,,,,,,,,1,2.17116773701855,,,081,001,2019_Aug_27_1507,MusicAffectPsychophysiology2019,3.0.5,59.91336837954141,
To what extent did the music make you feel ,ACTIVE,30MonoWAV/30MonoF3.wav,1,2,2,3,,,,,0,6,6,2,0,10,10,9,,,,,,,,,5,2.2282240980130155,,,081,001,2019_Aug_27_1507,MusicAffectPsychophysiology2019,3.0.5,59.91336837954141,
To what extent did the music make you feel ,GUILTY,30MonoWAV/30MonoF3.wav,1,2,2,3,,,,,0,6,6,2,0,11,11,5,,,,,,,,,1,2.38427542700083,,,081,001,2019_Aug_27_1507,MusicAffectPsychophysiology2019,3.0.5,59.91336837954141,
,,30MonoWAV/30MonoF3.wav,1,2,2,3,,,,,0,6,6,2,,,,,,,,,,,,,,,,,081,001,2019_Aug_27_1507,MusicAffectPsychophysiology2019,3.0.5,59.91336837954141,
To what extent did the music make you feel ,ACTIVE,30MonoWAV/30MonoT2.wav,2,1,4,14,,,,,0,7,7,13,0,0,0,9,,,4,52.71388418300194,4,3.220114826981444,3,1.118842017982388,3,1.3494751100079156,,,081,001,2019_Aug_27_1507,MusicAffectPsychophysiology2019,3.0.5,59.91336837954141,
To what extent did the music make you feel ,FRUSTRATED,30MonoWAV/30MonoT2.wav,2,1,4,14,,,,,0,7,7,13,0,1,1,3,,,,,,,,,1,2.8348622040066402,,,081,001,2019_Aug_27_1507,MusicAffectPsychophysiology2019,3.0.5,59.91336837954141,
To what extent did the music make you feel ,HAPPY,30MonoWAV/30MonoT2.wav,2,1,4,14,,,,,0,7,7,13,0,2,2,6,,,,,,,,,3,2.6840589749917854,,,081,001,2019_Aug_27_1507,MusicAffectPsychophysiology2019,3.0.5,59.91336837954141,
To what extent did the music make you feel ,TENDER,30MonoWAV/30MonoT2.wav,2,1,4,14,,,,,0,7,7,13,0,3,3,10,,,,,,,,,4,1.0702808070054743,,,081,001,2019_Aug_27_1507,MusicAffectPsychophysiology2019,3.0.5,59.91336837954141,
To what extent did the music make you feel ,ASHAMED,30MonoWAV/30MonoT2.wav,2,1,4,14,,,,,0,7,7,13,0,4,4,4,,,,,,,,,1,1.118047183001181,,,081,001,2019_Aug_27_1507,MusicAffectPsychophysiology2019,3.0.5,59.91336837954141,
To what extent did the music make you feel ,EXCITED,30MonoWAV/30MonoT2.wav,2,1,4,14,,,,,0,7,7,13,0,5,5,7,,,,,,,,,3,1.8359423049842007,,,081,001,2019_Aug_27_1507,MusicAffectPsychophysiology2019,3.0.5,59.91336837954141,
To what extent did the music make you feel ,ANGRY,30MonoWAV/30MonoT2.wav,2,1,4,14,,,,,0,7,7,13,0,6,6,2,,,,,,,,,1,0.9868758090015035,,,081,001,2019_Aug_27_1507,MusicAffectPsychophysiology2019,3.0.5,59.91336837954141,
To what extent did the music make you feel ,SCARED,30MonoWAV/30MonoT2.wav,2,1,4,14,,,,,0,7,7,13,0,7,7,11,,,,,,,,,1,3.2293713059916627,,,081,001,2019_Aug_27_1507,MusicAffectPsychophysiology2019,3.0.5,59.91336837954141,
To what extent did the music make you feel ,ANXIOUS ,30MonoWAV/30MonoT2.wav,2,1,4,14,,,,,0,7,7,13,0,8,8,1,,,,,,,,,1,0.7516787560016382,,,081,001,2019_Aug_27_1507,MusicAffectPsychophysiology2019,3.0.5,59.91336837954141,
To what extent did the music make you feel ,GUILTY,30MonoWAV/30MonoT2.wav,2,1,4,14,,,,,0,7,7,13,0,9,9,5,,,,,,,,,1,0.7868612310267054,,,081,001,2019_Aug_27_1507,MusicAffectPsychophysiology2019,3.0.5,59.91336837954141,
To what extent did the music make you feel ,ALERT,30MonoWAV/30MonoT2.wav,2,1,4,14,,,,,0,7,7,13,0,10,10,8,,,,,,,,,1,0.9347341519896872,,,081,001,2019_Aug_27_1507,MusicAffectPsychophysiology2019,3.0.5,59.91336837954141,
To what extent did the music make you feel ,SAD,30MonoWAV/30MonoT2.wav,2,1,4,14,,,,,0,7,7,13,0,11,11,0,,,,,,,,,1,1.0700981080008205,,,081,001,2019_Aug_27_1507,MusicAffectPsychophysiology2019,3.0.5,59.91336837954141,
,,30MonoWAV/30MonoT2.wav,2,1,4,14,,,,,0,7,7,13,,,,,,,,,,,,,,,,,081,001,2019_Aug_27_1507,MusicAffectPsychophysiology2019,3.0.5,59.91336837954141,
To what extent did the music make you feel ,FRUSTRATED,30MonoWAV/30MonoH3.wav,2,2,1,7,,,,,0,8,8,6,0,0,0,3,,,5,2.3528759430046193,4,1.8860800010152161,3,2.3687838969926815,1,1.36874646297656,,,081,001,2019_Aug_27_1507,MusicAffectPsychophysiology2019,3.0.5,59.91336837954141,
To what extent did the music make you feel ,ANGRY,30MonoWAV/30MonoH3.wav,2,2,1,7,,,,,0,8,8,6,0,1,1,2,,,,,,,,,1,0.9033887200057507,,,081,001,2019_Aug_27_1507,MusicAffectPsychophysiology2019,3.0.5,59.91336837954141,
To what extent did the music make you feel ,SAD,30MonoWAV/30MonoH3.wav,2,2,1,7,,,,,0,8,8,6,0,2,2,0,,,,,,,,,1,0.5356483020004816,,,081,001,2019_Aug_27_1507,MusicAffectPsychophysiology2019,3.0.5,59.91336837954141,
To what extent did the music make you feel ,SCARED,30MonoWAV/30MonoH3.wav,2,2,1,7,,,,,0,8,8,6,0,3,3,11,,,,,,,,,1,0.7363213310018182,,,081,001,2019_Aug_27_1507,MusicAffectPsychophysiology2019,3.0.5,59.91336837954141,
To what extent did the music make you feel ,TENDER,30MonoWAV/30MonoH3.wav,2,2,1,7,,,,,0,8,8,6,0,4,4,10,,,,,,,,,1,2.9350095610134304,,,081,001,2019_Aug_27_1507,MusicAffectPsychophysiology2019,3.0.5,59.91336837954141,
To what extent did the music make you feel ,ASHAMED,30MonoWAV/30MonoH3.wav,2,2,1,7,,,,,0,8,8,6,0,5,5,4,,,,,,,,,1,0.8699594470090233,,,081,001,2019_Aug_27_1507,MusicAffectPsychophysiology2019,3.0.5,59.91336837954141,
To what extent did the music make you feel ,ANXIOUS ,30MonoWAV/30MonoH3.wav,2,2,1,7,,,,,0,8,8,6,0,6,6,1,,,,,,,,,2,1.367745299008675,,,081,001,2019_Aug_27_1507,MusicAffectPsychophysiology2019,3.0.5,59.91336837954141,
To what extent did the music make you feel ,GUILTY,30MonoWAV/30MonoH3.wav,2,2,1,7,,,,,0,8,8,6,0,7,7,5,,,,,,,,,1,1.0700312349945307,,,081,001,2019_Aug_27_1507,MusicAffectPsychophysiology2019,3.0.5,59.91336837954141,
To what extent did the music make you feel ,EXCITED,30MonoWAV/30MonoH3.wav,2,2,1,7,,,,,0,8,8,6,0,8,8,7,,,,,,,,,5,1.7430730299965944,,,081,001,2019_Aug_27_1507,MusicAffectPsychophysiology2019,3.0.5,59.91336837954141,
To what extent did the music make you feel ,ALERT,30MonoWAV/30MonoH3.wav,2,2,1,7,,,,,0,8,8,6,0,9,9,8,,,,,,,,,5,1.2263148239871953,,,081,001,2019_Aug_27_1507,MusicAffectPsychophysiology2019,3.0.5,59.91336837954141,
To what extent did the music make you feel ,ACTIVE,30MonoWAV/30MonoH3.wav,2,2,1,7,,,,,0,8,8,6,0,10,10,9,,,,,,,,,5,1.1856232050049584,,,081,001,2019_Aug_27_1507,MusicAffectPsychophysiology2019,3.0.5,59.91336837954141,
To what extent did the music make you feel ,HAPPY,30MonoWAV/30MonoH3.wav,2,2,1,7,,,,,0,8,8,6,0,11,11,6,,,,,,,,,4,1.4830320900073275,,,081,001,2019_Aug_27_1507,MusicAffectPsychophysiology2019,3.0.5,59.91336837954141,
,,30MonoWAV/30MonoH3.wav,2,2,1,7,,,,,0,8,8,6,,,,,,,,,,,,,,,,,081,001,2019_Aug_27_1507,MusicAffectPsychophysiology2019,3.0.5,59.91336837954141,
To what extent did the music make you feel ,HAPPY,30MonoWAV/30MonoF4.wav,1,2,2,4,,,,,0,9,9,3,0,0,0,6,,,4,3.0991691360250115,1,2.4518329960119445,2,1.7030502859852277,1,2.068258949002484,,,081,001,2019_Aug_27_1507,MusicAffectPsychophysiology2019,3.0.5,59.91336837954141,
To what extent did the music make you feel ,GUILTY,30MonoWAV/30MonoF4.wav,1,2,2,4,,,,,0,9,9,3,0,1,1,5,,,,,,,,,4,1.936947982001584,,,081,001,2019_Aug_27_1507,MusicAffectPsychophysiology2019,3.0.5,59.91336837954141,
To what extent did the music make you feel ,FRUSTRATED,30MonoWAV/30MonoF4.wav,1,2,2,4,,,,,0,9,9,3,0,2,2,3,,,,,,,,,1,2.750039967999328,,,081,001,2019_Aug_27_1507,MusicAffectPsychophysiology2019,3.0.5,59.91336837954141,
To what extent did the music make you feel ,SCARED,30MonoWAV/30MonoF4.wav,1,2,2,4,,,,,0,9,9,3,0,3,3,11,,,,,,,,,4,2.7017240330169443,,,081,001,2019_Aug_27_1507,MusicAffectPsychophysiology2019,3.0.5,59.91336837954141,
To what extent did the music make you feel ,SAD,30MonoWAV/30MonoF4.wav,1,2,2,4,,,,,0,9,9,3,0,4,4,0,,,,,,,,,2,1.83661055698758,,,081,001,2019_Aug_27_1507,MusicAffectPsychophysiology2019,3.0.5,59.91336837954141,
To what extent did the music make you feel ,ANXIOUS ,30MonoWAV/30MonoF4.wav,1,2,2,4,,,,,0,9,9,3,0,5,5,1,,,,,,,,,5,1.4021289590164088,,,081,001,2019_Aug_27_1507,MusicAffectPsychophysiology2019,3.0.5,59.91336837954141,
To what extent did the music make you feel ,EXCITED,30MonoWAV/30MonoF4.wav,1,2,2,4,,,,,0,9,9,3,0,6,6,7,,,,,,,,,1,3.2164777769939974,,,081,001,2019_Aug_27_1507,MusicAffectPsychophysiology2019,3.0.5,59.91336837954141,
To what extent did the music make you feel ,ANGRY,30MonoWAV/30MonoF4.wav,1,2,2,4,,,,,0,9,9,3,0,7,7,2,,,,,,,,,1,1.5192073640064336,,,081,001,2019_Aug_27_1507,MusicAffectPsychophysiology2019,3.0.5,59.91336837954141,
To what extent did the music make you feel ,ALERT,30MonoWAV/30MonoF4.wav,1,2,2,4,,,,,0,9,9,3,0,8,8,8,,,,,,,,,5,1.6208383080083877,,,081,001,2019_Aug_27_1507,MusicAffectPsychophysiology2019,3.0.5,59.91336837954141,
To what extent did the music make you feel ,ACTIVE,30MonoWAV/30MonoF4.wav,1,2,2,4,,,,,0,9,9,3,0,9,9,9,,,,,,,,,4,1.8674340530124027,,,081,001,2019_Aug_27_1507,MusicAffectPsychophysiology2019,3.0.5,59.91336837954141,
To what extent did the music make you feel ,TENDER,30MonoWAV/30MonoF4.wav,1,2,2,4,,,,,0,9,9,3,0,10,10,10,,,,,,,,,1,1.2186934659839608,,,081,001,2019_Aug_27_1507,MusicAffectPsychophysiology2019,3.0.5,59.91336837954141,
To what extent did the music make you feel ,ASHAMED,30MonoWAV/30MonoF4.wav,1,2,2,4,,,,,0,9,9,3,0,11,11,4,,,,,,,,,3,1.6365915199858136,,,081,001,2019_Aug_27_1507,MusicAffectPsychophysiology2019,3.0.5,59.91336837954141,
,,30MonoWAV/30MonoF4.wav,1,2,2,4,,,,,0,9,9,3,,,,,,,,,,,,,,,,,081,001,2019_Aug_27_1507,MusicAffectPsychophysiology2019,3.0.5,59.91336837954141,
To what extent did the music make you feel ,ANXIOUS ,30MonoWAV/30MonoF2.wav,1,2,2,2,,,,,0,10,10,1,0,0,0,1,,,1,6.835989825020079,1,0.9029199880023953,1,1.3027898680011276,5,1.9136239599902183,,,081,001,2019_Aug_27_1507,MusicAffectPsychophysiology2019,3.0.5,59.91336837954141,
To what extent did the music make you feel ,FRUSTRATED,30MonoWAV/30MonoF2.wav,1,2,2,2,,,,,0,10,10,1,0,1,1,3,,,,,,,,,2,3.312364409008296,,,081,001,2019_Aug_27_1507,MusicAffectPsychophysiology2019,3.0.5,59.91336837954141,
To what extent did the music make you feel ,ASHAMED,30MonoWAV/30MonoF2.wav,1,2,2,2,,,,,0,10,10,1,0,2,2,4,,,,,,,,,2,2.7533173380070366,,,081,001,2019_Aug_27_1507,MusicAffectPsychophysiology2019,3.0.5,59.91336837954141,
To what extent did the music make you feel ,SCARED,30MonoWAV/30MonoF2.wav,1,2,2,2,,,,,0,10,10,1,0,3,3,11,,,,,,,,,5,1.3949204130040016,,,081,001,2019_Aug_27_1507,MusicAffectPsychophysiology2019,3.0.5,59.91336837954141,
To what extent did the music make you feel ,ACTIVE,30MonoWAV/30MonoF2.wav,1,2,2,2,,,,,0,10,10,1,0,4,4,9,,,,,,,,,2,1.8452616760041565,,,081,001,2019_Aug_27_1507,MusicAffectPsychophysiology2019,3.0.5,59.91336837954141,
To what extent did the music make you feel ,TENDER,30MonoWAV/30MonoF2.wav,1,2,2,2,,,,,0,10,10,1,0,5,5,10,,,,,,,,,1,0.9609935230109841,,,081,001,2019_Aug_27_1507,MusicAffectPsychophysiology2019,3.0.5,59.91336837954141,
To what extent did the music make you feel ,GUILTY,30MonoWAV/30MonoF2.wav,1,2,2,2,,,,,0,10,10,1,0,6,6,5,,,,,,,,,1,1.3368902410147712,,,081,001,2019_Aug_27_1507,MusicAffectPsychophysiology2019,3.0.5,59.91336837954141,
To what extent did the music make you feel ,SAD,30MonoWAV/30MonoF2.wav,1,2,2,2,,,,,0,10,10,1,0,7,7,0,,,,,,,,,3,4.527124461019412,,,081,001,2019_Aug_27_1507,MusicAffectPsychophysiology2019,3.0.5,59.91336837954141,
To what extent did the music make you feel ,HAPPY,30MonoWAV/30MonoF2.wav,1,2,2,2,,,,,0,10,10,1,0,8,8,6,,,,,,,,,1,1.002535703999456,,,081,001,2019_Aug_27_1507,MusicAffectPsychophysiology2019,3.0.5,59.91336837954141,
To what extent did the music make you feel ,ALERT,30MonoWAV/30MonoF2.wav,1,2,2,2,,,,,0,10,10,1,0,9,9,8,,,,,,,,,5,1.553991032007616,,,081,001,2019_Aug_27_1507,MusicAffectPsychophysiology2019,3.0.5,59.91336837954141,
To what extent did the music make you feel ,ANGRY,30MonoWAV/30MonoF2.wav,1,2,2,2,,,,,0,10,10,1,0,10,10,2,,,,,,,,,2,1.5743098749953788,,,081,001,2019_Aug_27_1507,MusicAffectPsychophysiology2019,3.0.5,59.91336837954141,
To what extent did the music make you feel ,EXCITED,30MonoWAV/30MonoF2.wav,1,2,2,2,,,,,0,10,10,1,0,11,11,7,,,,,,,,,1,1.1033903259958606,,,081,001,2019_Aug_27_1507,MusicAffectPsychophysiology2019,3.0.5,59.91336837954141,
,,30MonoWAV/30MonoF2.wav,1,2,2,2,,,,,0,10,10,1,,,,,,,,,,,,,,,,,081,001,2019_Aug_27_1507,MusicAffectPsychophysiology2019,3.0.5,59.91336837954141,
To what extent did the music make you feel ,ANGRY,30MonoWAV/30MonoT4.wav,2,1,4,16,,,,,0,11,11,15,0,0,0,2,,,3,5.068720687995665,5,1.4369901879981626,4,2.0199437609990127,1,1.4011862069892231,,,081,001,2019_Aug_27_1507,MusicAffectPsychophysiology2019,3.0.5,59.91336837954141,
To what extent did the music make you feel ,SCARED,30MonoWAV/30MonoT4.wav,2,1,4,16,,,,,0,11,11,15,0,1,1,11,,,,,,,,,1,0.8854568790120538,,,081,001,2019_Aug_27_1507,MusicAffectPsychophysiology2019,3.0.5,59.91336837954141,
To what extent did the music make you feel ,GUILTY,30MonoWAV/30MonoT4.wav,2,1,4,16,,,,,0,11,11,15,0,2,2,5,,,,,,,,,1,1.0542660809878726,,,081,001,2019_Aug_27_1507,MusicAffectPsychophysiology2019,3.0.5,59.91336837954141,
To what extent did the music make you feel ,HAPPY,30MonoWAV/30MonoT4.wav,2,1,4,16,,,,,0,11,11,15,0,3,3,6,,,,,,,,,4,1.2190107140049804,,,081,001,2019_Aug_27_1507,MusicAffectPsychophysiology2019,3.0.5,59.91336837954141,
To what extent did the music make you feel ,FRUSTRATED,30MonoWAV/30MonoT4.wav,2,1,4,16,,,,,0,11,11,15,0,4,4,3,,,,,,,,,1,1.0510907550051343,,,081,001,2019_Aug_27_1507,MusicAffectPsychophysiology2019,3.0.5,59.91336837954141,
To what extent did the music make you feel ,ACTIVE,30MonoWAV/30MonoT4.wav,2,1,4,16,,,,,0,11,11,15,0,5,5,9,,,,,,,,,3,1.485840918001486,,,081,001,2019_Aug_27_1507,MusicAffectPsychophysiology2019,3.0.5,59.91336837954141,
To what extent did the music make you feel ,TENDER,30MonoWAV/30MonoT4.wav,2,1,4,16,,,,,0,11,11,15,0,6,6,10,,,,,,,,,5,1.1861676090047695,,,081,001,2019_Aug_27_1507,MusicAffectPsychophysiology2019,3.0.5,59.91336837954141,
To what extent did the music make you feel ,EXCITED,30MonoWAV/30MonoT4.wav,2,1,4,16,,,,,0,11,11,15,0,7,7,7,,,,,,,,,3,1.8373260970111005,,,081,001,2019_Aug_27_1507,MusicAffectPsychophysiology2019,3.0.5,59.91336837954141,
To what extent did the music make you feel ,ANXIOUS ,30MonoWAV/30MonoT4.wav,2,1,4,16,,,,,0,11,11,15,0,8,8,1,,,,,,,,,1,1.1688657760096248,,,081,001,2019_Aug_27_1507,MusicAffectPsychophysiology2019,3.0.5,59.91336837954141,
To what extent did the music make you feel ,ALERT,30MonoWAV/30MonoT4.wav,2,1,4,16,,,,,0,11,11,15,0,9,9,8,,,,,,,,,2,1.6032468969933689,,,081,001,2019_Aug_27_1507,MusicAffectPsychophysiology2019,3.0.5,59.91336837954141,
To what extent did the music make you feel ,ASHAMED,30MonoWAV/30MonoT4.wav,2,1,4,16,,,,,0,11,11,15,0,10,10,4,,,,,,,,,1,1.0535392349993344,,,081,001,2019_Aug_27_1507,MusicAffectPsychophysiology2019,3.0.5,59.91336837954141,
To what extent did the music make you feel ,SAD,30MonoWAV/30MonoT4.wav,2,1,4,16,,,,,0,11,11,15,0,11,11,0,,,,,,,,,1,1.1853923389862757,,,081,001,2019_Aug_27_1507,MusicAffectPsychophysiology2019,3.0.5,59.91336837954141,
,,30MonoWAV/30MonoT4.wav,2,1,4,16,,,,,0,11,11,15,,,,,,,,,,,,,,,,,081,001,2019_Aug_27_1507,MusicAffectPsychophysiology2019,3.0.5,59.91336837954141,
To what extent did the music make you feel ,SCARED,30MonoWAV/30MonoH1.wav,2,2,1,5,,,,,0,12,12,4,0,0,0,11,,,4,4.086554551991867,5,1.053871131996857,5,1.2699766590085346,1,1.5025728630134836,,,081,001,2019_Aug_27_1507,MusicAffectPsychophysiology2019,3.0.5,59.91336837954141,
To what extent did the music make you feel ,FRUSTRATED,30MonoWAV/30MonoH1.wav,2,2,1,5,,,,,0,12,12,4,0,1,1,3,,,,,,,,,1,0.6505687629978638,,,081,001,2019_Aug_27_1507,MusicAffectPsychophysiology2019,3.0.5,59.91336837954141,
To what extent did the music make you feel ,ASHAMED,30MonoWAV/30MonoH1.wav,2,2,1,5,,,,,0,12,12,4,0,2,2,4,,,,,,,,,1,0.6874309650156647,,,081,001,2019_Aug_27_1507,MusicAffectPsychophysiology2019,3.0.5,59.91336837954141,
To what extent did the music make you feel ,TENDER,30MonoWAV/30MonoH1.wav,2,2,1,5,,,,,0,12,12,4,0,3,3,10,,,,,,,,,5,1.1643295150133781,,,081,001,2019_Aug_27_1507,MusicAffectPsychophysiology2019,3.0.5,59.91336837954141,
To what extent did the music make you feel ,SAD,30MonoWAV/30MonoH1.wav,2,2,1,5,,,,,0,12,12,4,0,4,4,0,,,,,,,,,1,1.0306022110162303,,,081,001,2019_Aug_27_1507,MusicAffectPsychophysiology2019,3.0.5,59.91336837954141,
To what extent did the music make you feel ,EXCITED,30MonoWAV/30MonoH1.wav,2,2,1,5,,,,,0,12,12,4,0,5,5,7,,,,,,,,,4,1.2479547419934534,,,081,001,2019_Aug_27_1507,MusicAffectPsychophysiology2019,3.0.5,59.91336837954141,
To what extent did the music make you feel ,ALERT,30MonoWAV/30MonoH1.wav,2,2,1,5,,,,,0,12,12,4,0,6,6,8,,,,,,,,,4,1.7833920539997052,,,081,001,2019_Aug_27_1507,MusicAffectPsychophysiology2019,3.0.5,59.91336837954141,
To what extent did the music make you feel ,GUILTY,30MonoWAV/30MonoH1.wav,2,2,1,5,,,,,0,12,12,4,0,7,7,5,,,,,,,,,1,1.1370466229855083,,,081,001,2019_Aug_27_1507,MusicAffectPsychophysiology2019,3.0.5,59.91336837954141,
To what extent did the music make you feel ,HAPPY,30MonoWAV/30MonoH1.wav,2,2,1,5,,,,,0,12,12,4,0,8,8,6,,,,,,,,,5,1.070408858009614,,,081,001,2019_Aug_27_1507,MusicAffectPsychophysiology2019,3.0.5,59.91336837954141,
To what extent did the music make you feel ,ANGRY,30MonoWAV/30MonoH1.wav,2,2,1,5,,,,,0,12,12,4,0,9,9,2,,,,,,,,,1,1.0297250910080038,,,081,001,2019_Aug_27_1507,MusicAffectPsychophysiology2019,3.0.5,59.91336837954141,
To what extent did the music make you feel ,ACTIVE,30MonoWAV/30MonoH1.wav,2,2,1,5,,,,,0,12,12,4,0,10,10,9,,,,,,,,,4,1.2470240560069215,,,081,001,2019_Aug_27_1507,MusicAffectPsychophysiology2019,3.0.5,59.91336837954141,
To what extent did the music make you feel ,ANXIOUS ,30MonoWAV/30MonoH1.wav,2,2,1,5,,,,,0,12,12,4,0,11,11,1,,,,,,,,,1,2.087298465979984,,,081,001,2019_Aug_27_1507,MusicAffectPsychophysiology2019,3.0.5,59.91336837954141,
,,30MonoWAV/30MonoH1.wav,2,2,1,5,,,,,0,12,12,4,,,,,,,,,,,,,,,,,081,001,2019_Aug_27_1507,MusicAffectPsychophysiology2019,3.0.5,59.91336837954141,
To what extent did the music make you feel ,ALERT,30MonoWAV/30MonoF1.wav,1,2,2,1,,,,,0,13,13,0,0,0,0,8,,,5,2.453261022019433,1,1.4692118229868356,1,1.970298334985273,5,2.3912685019895434,,,081,001,2019_Aug_27_1507,MusicAffectPsychophysiology2019,3.0.5,59.91336837954141,
To what extent did the music make you feel ,SCARED,30MonoWAV/30MonoF1.wav,1,2,2,1,,,,,0,13,13,0,0,1,1,11,,,,,,,,,3,1.3559034850040916,,,081,001,2019_Aug_27_1507,MusicAffectPsychophysiology2019,3.0.5,59.91336837954141,
To what extent did the music make you feel ,GUILTY,30MonoWAV/30MonoF1.wav,1,2,2,1,,,,,0,13,13,0,0,2,2,5,,,,,,,,,1,1.6525519590068143,,,081,001,2019_Aug_27_1507,MusicAffectPsychophysiology2019,3.0.5,59.91336837954141,
To what extent did the music make you feel ,SAD,30MonoWAV/30MonoF1.wav,1,2,2,1,,,,,0,13,13,0,0,3,3,0,,,,,,,,,1,0.8534831390134059,,,081,001,2019_Aug_27_1507,MusicAffectPsychophysiology2019,3.0.5,59.91336837954141,
To what extent did the music make you feel ,TENDER,30MonoWAV/30MonoF1.wav,1,2,2,1,,,,,0,13,13,0,0,4,4,10,,,,,,,,,1,0.9711883320123889,,,081,001,2019_Aug_27_1507,MusicAffectPsychophysiology2019,3.0.5,59.91336837954141,
To what extent did the music make you feel ,FRUSTRATED,30MonoWAV/30MonoF1.wav,1,2,2,1,,,,,0,13,13,0,0,5,5,3,,,,,,,,,2,1.30737369300914,,,081,001,2019_Aug_27_1507,MusicAffectPsychophysiology2019,3.0.5,59.91336837954141,
To what extent did the music make you feel ,ANXIOUS ,30MonoWAV/30MonoF1.wav,1,2,2,1,,,,,0,13,13,0,0,6,6,1,,,,,,,,,4,1.723370352992788,,,081,001,2019_Aug_27_1507,MusicAffectPsychophysiology2019,3.0.5,59.91336837954141,
To what extent did the music make you feel ,HAPPY,30MonoWAV/30MonoF1.wav,1,2,2,1,,,,,0,13,13,0,0,7,7,6,,,,,,,,,1,1.5201489609899,,,081,001,2019_Aug_27_1507,MusicAffectPsychophysiology2019,3.0.5,59.91336837954141,
To what extent did the music make you feel ,ANGRY,30MonoWAV/30MonoF1.wav,1,2,2,1,,,,,0,13,13,0,0,8,8,2,,,,,,,,,4,1.7535107970179524,,,081,001,2019_Aug_27_1507,MusicAffectPsychophysiology2019,3.0.5,59.91336837954141,
To what extent did the music make you feel ,ASHAMED,30MonoWAV/30MonoF1.wav,1,2,2,1,,,,,0,13,13,0,0,9,9,4,,,,,,,,,2,1.8335892430040985,,,081,001,2019_Aug_27_1507,MusicAffectPsychophysiology2019,3.0.5,59.91336837954141,
To what extent did the music make you feel ,EXCITED,30MonoWAV/30MonoF1.wav,1,2,2,1,,,,,0,13,13,0,0,10,10,7,,,,,,,,,1,1.4205029900185764,,,081,001,2019_Aug_27_1507,MusicAffectPsychophysiology2019,3.0.5,59.91336837954141,
To what extent did the music make you feel ,ACTIVE,30MonoWAV/30MonoF1.wav,1,2,2,1,,,,,0,13,13,0,0,11,11,9,,,,,,,,,3,1.2873251230048481,,,081,001,2019_Aug_27_1507,MusicAffectPsychophysiology2019,3.0.5,59.91336837954141,
,,30MonoWAV/30MonoF1.wav,1,2,2,1,,,,,0,13,13,0,,,,,,,,,,,,,,,,,081,001,2019_Aug_27_1507,MusicAffectPsychophysiology2019,3.0.5,59.91336837954141,
To what extent did the music make you feel ,SAD,30MonoWAV/30MonoS1.wav,1,1,3,9,,,,,0,14,14,8,0,0,0,0,,,2,4.818909590016119,2,1.919363216002239,3,1.2369668449973688,3,2.31879030901473,,,081,001,2019_Aug_27_1507,MusicAffectPsychophysiology2019,3.0.5,59.91336837954141,
To what extent did the music make you feel ,GUILTY,30MonoWAV/30MonoS1.wav,1,1,3,9,,,,,0,14,14,8,0,1,1,5,,,,,,,,,2,1.8859065569995437,,,081,001,2019_Aug_27_1507,MusicAffectPsychophysiology2019,3.0.5,59.91336837954141,
To what extent did the music make you feel ,ASHAMED,30MonoWAV/30MonoS1.wav,1,1,3,9,,,,,0,14,14,8,0,2,2,4,,,,,,,,,1,2.6362262800103053,,,081,001,2019_Aug_27_1507,MusicAffectPsychophysiology2019,3.0.5,59.91336837954141,
To what extent did the music make you feel ,ANXIOUS ,30MonoWAV/30MonoS1.wav,1,1,3,9,,,,,0,14,14,8,0,3,3,1,,,,,,,,,1,1.2862577619962394,,,081,001,2019_Aug_27_1507,MusicAffectPsychophysiology2019,3.0.5,59.91336837954141,
To what extent did the music make you feel ,EXCITED,30MonoWAV/30MonoS1.wav,1,1,3,9,,,,,0,14,14,8,0,4,4,7,,,,,,,,,2,1.7369161359965801,,,081,001,2019_Aug_27_1507,MusicAffectPsychophysiology2019,3.0.5,59.91336837954141,
To what extent did the music make you feel ,ANGRY,30MonoWAV/30MonoS1.wav,1,1,3,9,,,,,0,14,14,8,0,5,5,2,,,,,,,,,1,1.286170977022266,,,081,001,2019_Aug_27_1507,MusicAffectPsychophysiology2019,3.0.5,59.91336837954141,
To what extent did the music make you feel ,HAPPY,30MonoWAV/30MonoS1.wav,1,1,3,9,,,,,0,14,14,8,0,6,6,6,,,,,,,,,2,1.6199983789992984,,,081,001,2019_Aug_27_1507,MusicAffectPsychophysiology2019,3.0.5,59.91336837954141,
To what extent did the music make you feel ,SCARED,30MonoWAV/30MonoS1.wav,1,1,3,9,,,,,0,14,14,8,0,7,7,11,,,,,,,,,1,2.165315990016097,,,081,001,2019_Aug_27_1507,MusicAffectPsychophysiology2019,3.0.5,59.91336837954141,
To what extent did the music make you feel ,TENDER,30MonoWAV/30MonoS1.wav,1,1,3,9,,,,,0,14,14,8,0,8,8,10,,,,,,,,,4,1.6364025740185753,,,081,001,2019_Aug_27_1507,MusicAffectPsychophysiology2019,3.0.5,59.91336837954141,
To what extent did the music make you feel ,FRUSTRATED,30MonoWAV/30MonoS1.wav,1,1,3,9,,,,,0,14,14,8,0,9,9,3,,,,,,,,,1,1.3323701320041437,,,081,001,2019_Aug_27_1507,MusicAffectPsychophysiology2019,3.0.5,59.91336837954141,
To what extent did the music make you feel ,ALERT,30MonoWAV/30MonoS1.wav,1,1,3,9,,,,,0,14,14,8,0,10,10,8,,,,,,,,,2,1.6364093049778603,,,081,001,2019_Aug_27_1507,MusicAffectPsychophysiology2019,3.0.5,59.91336837954141,
To what extent did the music make you feel ,ACTIVE,30MonoWAV/30MonoS1.wav,1,1,3,9,,,,,0,14,14,8,0,11,11,9,,,,,,,,,1,2.148285185015993,,,081,001,2019_Aug_27_1507,MusicAffectPsychophysiology2019,3.0.5,59.91336837954141,
,,30MonoWAV/30MonoS1.wav,1,1,3,9,,,,,0,14,14,8,,,,,,,,,,,,,,,,,081,001,2019_Aug_27_1507,MusicAffectPsychophysiology2019,3.0.5,59.91336837954141,
To what extent did the music make you feel ,ASHAMED,30MonoWAV/30MonoS4.wav,1,1,3,12,,,,,0,15,15,11,0,0,0,4,,,1,2.9033373020065483,1,2.4023164679820184,2,1.5703779770119581,2,2.392858803999843,,,081,001,2019_Aug_27_1507,MusicAffectPsychophysiology2019,3.0.5,59.91336837954141,
To what extent did the music make you feel ,SAD,30MonoWAV/30MonoS4.wav,1,1,3,12,,,,,0,15,15,11,0,1,1,0,,,,,,,,,4,2.419879082008265,,,081,001,2019_Aug_27_1507,MusicAffectPsychophysiology2019,3.0.5,59.91336837954141,
To what extent did the music make you feel ,FRUSTRATED,30MonoWAV/30MonoS4.wav,1,1,3,12,,,,,0,15,15,11,0,2,2,3,,,,,,,,,1,1.4085818550083786,,,081,001,2019_Aug_27_1507,MusicAffectPsychophysiology2019,3.0.5,59.91336837954141,
To what extent did the music make you feel ,ANXIOUS ,30MonoWAV/30MonoS4.wav,1,1,3,12,,,,,0,15,15,11,0,3,3,1,,,,,,,,,2,1.3913918739999644,,,081,001,2019_Aug_27_1507,MusicAffectPsychophysiology2019,3.0.5,59.91336837954141,
To what extent did the music make you feel ,EXCITED,30MonoWAV/30MonoS4.wav,1,1,3,12,,,,,0,15,15,11,0,4,4,7,,,,,,,,,1,1.220662344014272,,,081,001,2019_Aug_27_1507,MusicAffectPsychophysiology2019,3.0.5,59.91336837954141,
To what extent did the music make you feel ,GUILTY,30MonoWAV/30MonoS4.wav,1,1,3,12,,,,,0,15,15,11,0,5,5,5,,,,,,,,,3,2.374320897011785,,,081,001,2019_Aug_27_1507,MusicAffectPsychophysiology2019,3.0.5,59.91336837954141,
To what extent did the music make you feel ,TENDER,30MonoWAV/30MonoS4.wav,1,1,3,12,,,,,0,15,15,11,0,6,6,10,,,,,,,,,5,1.4532318720011972,,,081,001,2019_Aug_27_1507,MusicAffectPsychophysiology2019,3.0.5,59.91336837954141,
To what extent did the music make you feel ,ACTIVE,30MonoWAV/30MonoS4.wav,1,1,3,12,,,,,0,15,15,11,0,7,7,9,,,,,,,,,2,1.1912675889907405,,,081,001,2019_Aug_27_1507,MusicAffectPsychophysiology2019,3.0.5,59.91336837954141,
To what extent did the music make you feel ,SCARED,30MonoWAV/30MonoS4.wav,1,1,3,12,,,,,0,15,15,11,0,8,8,11,,,,,,,,,2,1.7248505229945295,,,081,001,2019_Aug_27_1507,MusicAffectPsychophysiology2019,3.0.5,59.91336837954141,
To what extent did the music make you feel ,ALERT,30MonoWAV/30MonoS4.wav,1,1,3,12,,,,,0,15,15,11,0,9,9,8,,,,,,,,,1,1.3910803589969873,,,081,001,2019_Aug_27_1507,MusicAffectPsychophysiology2019,3.0.5,59.91336837954141,
To what extent did the music make you feel ,ANGRY,30MonoWAV/30MonoS4.wav,1,1,3,12,,,,,0,15,15,11,0,10,10,2,,,,,,,,,1,0.9868557600129861,,,081,001,2019_Aug_27_1507,MusicAffectPsychophysiology2019,3.0.5,59.91336837954141,
To what extent did the music make you feel ,HAPPY,30MonoWAV/30MonoS4.wav,1,1,3,12,,,,,0,15,15,11,0,11,11,6,,,,,,,,,1,3.170992291998118,,,081,001,2019_Aug_27_1507,MusicAffectPsychophysiology2019,3.0.5,59.91336837954141,
,,30MonoWAV/30MonoS4.wav,1,1,3,12,,,,,0,15,15,11,,,,,,,,,,,,,,,,,081,001,2019_Aug_27_1507,MusicAffectPsychophysiology2019,3.0.5,59.91336837954141,
To what extent did the music make you feel ,ANGRY,30MonoWAV/30MonoS2.wav,1,1,3,10,,,,,1,0,16,9,0,0,0,2,,,1,4.685740005981643,1,1.086186264990829,2,1.3368386890215334,1,2.0838971469784155,,,081,001,2019_Aug_27_1507,MusicAffectPsychophysiology2019,3.0.5,59.91336837954141,
To what extent did the music make you feel ,HAPPY,30MonoWAV/30MonoS2.wav,1,1,3,10,,,,,1,0,16,9,0,1,1,6,,,,,,,,,1,1.5860739789786749,,,081,001,2019_Aug_27_1507,MusicAffectPsychophysiology2019,3.0.5,59.91336837954141,
To what extent did the music make you feel ,FRUSTRATED,30MonoWAV/30MonoS2.wav,1,1,3,10,,,,,1,0,16,9,0,2,2,3,,,,,,,,,3,1.6530821530031972,,,081,001,2019_Aug_27_1507,MusicAffectPsychophysiology2019,3.0.5,59.91336837954141,
To what extent did the music make you feel ,EXCITED,30MonoWAV/30MonoS2.wav,1,1,3,10,,,,,1,0,16,9,0,3,3,7,,,,,,,,,1,1.7690850729995873,,,081,001,2019_Aug_27_1507,MusicAffectPsychophysiology2019,3.0.5,59.91336837954141,
To what extent did the music make you feel ,TENDER,30MonoWAV/30MonoS2.wav,1,1,3,10,,,,,1,0,16,9,0,4,4,10,,,,,,,,,5,1.9706955500005279,,,081,001,2019_Aug_27_1507,MusicAffectPsychophysiology2019,3.0.5,59.91336837954141,
To what extent did the music make you feel ,SCARED,30MonoWAV/30MonoS2.wav,1,1,3,10,,,,,1,0,16,9,0,5,5,11,,,,,,,,,3,2.6331324530183338,,,081,001,2019_Aug_27_1507,MusicAffectPsychophysiology2019,3.0.5,59.91336837954141,
To what extent did the music make you feel ,SAD,30MonoWAV/30MonoS2.wav,1,1,3,10,,,,,1,0,16,9,0,6,6,0,,,,,,,,,4,3.8865992820065003,,,081,001,2019_Aug_27_1507,MusicAffectPsychophysiology2019,3.0.5,59.91336837954141,
To what extent did the music make you feel ,ANXIOUS ,30MonoWAV/30MonoS2.wav,1,1,3,10,,,,,1,0,16,9,0,7,7,1,,,,,,,,,2,1.2534734399814624,,,081,001,2019_Aug_27_1507,MusicAffectPsychophysiology2019,3.0.5,59.91336837954141,
To what extent did the music make you feel ,ALERT,30MonoWAV/30MonoS2.wav,1,1,3,10,,,,,1,0,16,9,0,8,8,8,,,,,,,,,2,2.183392355014803,,,081,001,2019_Aug_27_1507,MusicAffectPsychophysiology2019,3.0.5,59.91336837954141,
To what extent did the music make you feel ,ASHAMED,30MonoWAV/30MonoS2.wav,1,1,3,10,,,,,1,0,16,9,0,9,9,4,,,,,,,,,4,1.8497369620017707,,,081,001,2019_Aug_27_1507,MusicAffectPsychophysiology2019,3.0.5,59.91336837954141,
To what extent did the music make you feel ,ACTIVE,30MonoWAV/30MonoS2.wav,1,1,3,10,,,,,1,0,16,9,0,10,10,9,,,,,,,,,2,1.3528625720064156,,,081,001,2019_Aug_27_1507,MusicAffectPsychophysiology2019,3.0.5,59.91336837954141,
To what extent did the music make you feel ,GUILTY,30MonoWAV/30MonoS2.wav,1,1,3,10,,,,,1,0,16,9,0,11,11,5,,,,,,,,,4,1.2365253909956664,,,081,001,2019_Aug_27_1507,MusicAffectPsychophysiology2019,3.0.5,59.91336837954141,
,,30MonoWAV/30MonoS2.wav,1,1,3,10,,,,,1,0,16,9,,,,,,,,,,,,,,,,,081,001,2019_Aug_27_1507,MusicAffectPsychophysiology2019,3.0.5,59.91336837954141,
To what extent did the music make you feel ,ALERT,30MonoWAV/30MonoF2.wav,1,2,2,2,,,,,1,1,17,1,0,0,0,8,,,5,3.4853445569751784,1,1.0674838020058814,1,0.8196228520246223,5,1.5444273729808629,,,081,001,2019_Aug_27_1507,MusicAffectPsychophysiology2019,3.0.5,59.91336837954141,
To what extent did the music make you feel ,ASHAMED,30MonoWAV/30MonoF2.wav,1,2,2,2,,,,,1,1,17,1,0,1,1,4,,,,,,,,,2,1.7036802590009756,,,081,001,2019_Aug_27_1507,MusicAffectPsychophysiology2019,3.0.5,59.91336837954141,
To what extent did the music make you feel ,HAPPY,30MonoWAV/30MonoF2.wav,1,2,2,2,,,,,1,1,17,1,0,2,2,6,,,,,,,,,1,0.836992722004652,,,081,001,2019_Aug_27_1507,MusicAffectPsychophysiology2019,3.0.5,59.91336837954141,
To what extent did the music make you feel ,SAD,30MonoWAV/30MonoF2.wav,1,2,2,2,,,,,1,1,17,1,0,3,3,0,,,,,,,,,3,1.47033409299911,,,081,001,2019_Aug_27_1507,MusicAffectPsychophysiology2019,3.0.5,59.91336837954141,
To what extent did the music make you feel ,ANXIOUS ,30MonoWAV/30MonoF2.wav,1,2,2,2,,,,,1,1,17,1,0,4,4,1,,,,,,,,,5,1.3269510389945935,,,081,001,2019_Aug_27_1507,MusicAffectPsychophysiology2019,3.0.5,59.91336837954141,
To what extent did the music make you feel ,TENDER,30MonoWAV/30MonoF2.wav,1,2,2,2,,,,,1,1,17,1,0,5,5,10,,,,,,,,,1,1.2761382689932361,,,081,001,2019_Aug_27_1507,MusicAffectPsychophysiology2019,3.0.5,59.91336837954141,
To what extent did the music make you feel ,EXCITED,30MonoWAV/30MonoF2.wav,1,2,2,2,,,,,1,1,17,1,0,6,6,7,,,,,,,,,1,1.1465071899874602,,,081,001,2019_Aug_27_1507,MusicAffectPsychophysiology2019,3.0.5,59.91336837954141,
To what extent did the music make you feel ,ANGRY,30MonoWAV/30MonoF2.wav,1,2,2,2,,,,,1,1,17,1,0,7,7,2,,,,,,,,,1,1.6531211239926051,,,081,001,2019_Aug_27_1507,MusicAffectPsychophysiology2019,3.0.5,59.91336837954141,
To what extent did the music make you feel ,SCARED,30MonoWAV/30MonoF2.wav,1,2,2,2,,,,,1,1,17,1,0,8,8,11,,,,,,,,,5,1.326379870006349,,,081,001,2019_Aug_27_1507,MusicAffectPsychophysiology2019,3.0.5,59.91336837954141,
To what extent did the music make you feel ,ACTIVE,30MonoWAV/30MonoF2.wav,1,2,2,2,,,,,1,1,17,1,0,9,9,9,,,,,,,,,1,1.154224094003439,,,081,001,2019_Aug_27_1507,MusicAffectPsychophysiology2019,3.0.5,59.91336837954141,
To what extent did the music make you feel ,GUILTY,30MonoWAV/30MonoF2.wav,1,2,2,2,,,,,1,1,17,1,0,10,10,5,,,,,,,,,1,1.1533230079803616,,,081,001,2019_Aug_27_1507,MusicAffectPsychophysiology2019,3.0.5,59.91336837954141,
To what extent did the music make you feel ,FRUSTRATED,30MonoWAV/30MonoF2.wav,1,2,2,2,,,,,1,1,17,1,0,11,11,3,,,,,,,,,1,1.2594692050188314,,,081,001,2019_Aug_27_1507,MusicAffectPsychophysiology2019,3.0.5,59.91336837954141,
,,30MonoWAV/30MonoF2.wav,1,2,2,2,,,,,1,1,17,1,,,,,,,,,,,,,,,,,081,001,2019_Aug_27_1507,MusicAffectPsychophysiology2019,3.0.5,59.91336837954141,
To what extent did the music make you feel ,TENDER,30MonoWAV/30MonoS4.wav,1,1,3,12,,,,,1,2,18,11,0,0,0,10,,,1,2.882562864018837,3,1.5855256849899888,3,1.3018556990136858,5,1.5863552989903837,,,081,001,2019_Aug_27_1507,MusicAffectPsychophysiology2019,3.0.5,59.91336837954141,
To what extent did the music make you feel ,ACTIVE,30MonoWAV/30MonoS4.wav,1,1,3,12,,,,,1,2,18,11,0,1,1,9,,,,,,,,,2,1.1865306030085776,,,081,001,2019_Aug_27_1507,MusicAffectPsychophysiology2019,3.0.5,59.91336837954141,
To what extent did the music make you feel ,FRUSTRATED,30MonoWAV/30MonoS4.wav,1,1,3,12,,,,,1,2,18,11,0,2,2,3,,,,,,,,,1,1.0037350549828261,,,081,001,2019_Aug_27_1507,MusicAffectPsychophysiology2019,3.0.5,59.91336837954141,
To what extent did the music make you feel ,ANGRY,30MonoWAV/30MonoS4.wav,1,1,3,12,,,,,1,2,18,11,0,3,3,2,,,,,,,,,1,0.6176272110024001,,,081,001,2019_Aug_27_1507,MusicAffectPsychophysiology2019,3.0.5,59.91336837954141,
To what extent did the music make you feel ,SAD,30MonoWAV/30MonoS4.wav,1,1,3,12,,,,,1,2,18,11,0,4,4,0,,,,,,,,,2,1.7692504779843148,,,081,001,2019_Aug_27_1507,MusicAffectPsychophysiology2019,3.0.5,59.91336837954141,
To what extent did the music make you feel ,ANXIOUS ,30MonoWAV/30MonoS4.wav,1,1,3,12,,,,,1,2,18,11,0,5,5,1,,,,,,,,,1,1.11968794601853,,,081,001,2019_Aug_27_1507,MusicAffectPsychophysiology2019,3.0.5,59.91336837954141,
To what extent did the music make you feel ,HAPPY,30MonoWAV/30MonoS4.wav,1,1,3,12,,,,,1,2,18,11,0,6,6,6,,,,,,,,,3,1.4191129869723227,,,081,001,2019_Aug_27_1507,MusicAffectPsychophysiology2019,3.0.5,59.91336837954141,
To what extent did the music make you feel ,ALERT,30MonoWAV/30MonoS4.wav,1,1,3,12,,,,,1,2,18,11,0,7,7,8,,,,,,,,,2,2.0857550140062813,,,081,001,2019_Aug_27_1507,MusicAffectPsychophysiology2019,3.0.5,59.91336837954141,
To what extent did the music make you feel ,ASHAMED,30MonoWAV/30MonoS4.wav,1,1,3,12,,,,,1,2,18,11,0,8,8,4,,,,,,,,,1,1.1682111980044283,,,081,001,2019_Aug_27_1507,MusicAffectPsychophysiology2019,3.0.5,59.91336837954141,
To what extent did the music make you feel ,SCARED,30MonoWAV/30MonoS4.wav,1,1,3,12,,,,,1,2,18,11,0,9,9,11,,,,,,,,,1,1.3025261589791626,,,081,001,2019_Aug_27_1507,MusicAffectPsychophysiology2019,3.0.5,59.91336837954141,
To what extent did the music make you feel ,GUILTY,30MonoWAV/30MonoS4.wav,1,1,3,12,,,,,1,2,18,11,0,10,10,5,,,,,,,,,1,1.5536622880026698,,,081,001,2019_Aug_27_1507,MusicAffectPsychophysiology2019,3.0.5,59.91336837954141,
To what extent did the music make you feel ,EXCITED,30MonoWAV/30MonoS4.wav,1,1,3,12,,,,,1,2,18,11,0,11,11,7,,,,,,,,,2,1.0663629839837085,,,081,001,2019_Aug_27_1507,MusicAffectPsychophysiology2019,3.0.5,59.91336837954141,
,,30MonoWAV/30MonoS4.wav,1,1,3,12,,,,,1,2,18,11,,,,,,,,,,,,,,,,,081,001,2019_Aug_27_1507,MusicAffectPsychophysiology2019,3.0.5,59.91336837954141,
To what extent did the music make you feel ,ANGRY,30MonoWAV/30MonoT2.wav,2,1,4,14,,,,,1,3,19,13,0,0,0,2,,,4,2.4363693599880207,5,1.4536258640000597,5,1.0522113750048447,1,1.2205931500066072,,,081,001,2019_Aug_27_1507,MusicAffectPsychophysiology2019,3.0.5,59.91336837954141,
To what extent did the music make you feel ,TENDER,30MonoWAV/30MonoT2.wav,2,1,4,14,,,,,1,3,19,13,0,1,1,10,,,,,,,,,5,1.4820922249928117,,,081,001,2019_Aug_27_1507,MusicAffectPsychophysiology2019,3.0.5,59.91336837954141,
To what extent did the music make you feel ,FRUSTRATED,30MonoWAV/30MonoT2.wav,2,1,4,14,,,,,1,3,19,13,0,2,2,3,,,,,,,,,1,1.012809609004762,,,081,001,2019_Aug_27_1507,MusicAffectPsychophysiology2019,3.0.5,59.91336837954141,
To what extent did the music make you feel ,GUILTY,30MonoWAV/30MonoT2.wav,2,1,4,14,,,,,1,3,19,13,0,3,3,5,,,,,,,,,1,0.7368108069931623,,,081,001,2019_Aug_27_1507,MusicAffectPsychophysiology2019,3.0.5,59.91336837954141,
To what extent did the music make you feel ,ALERT,30MonoWAV/30MonoT2.wav,2,1,4,14,,,,,1,3,19,13,0,4,4,8,,,,,,,,,4,1.5026117160159629,,,081,001,2019_Aug_27_1507,MusicAffectPsychophysiology2019,3.0.5,59.91336837954141,
To what extent did the music make you feel ,ASHAMED,30MonoWAV/30MonoT2.wav,2,1,4,14,,,,,1,3,19,13,0,5,5,4,,,,,,,,,1,1.619968434999464,,,081,001,2019_Aug_27_1507,MusicAffectPsychophysiology2019,3.0.5,59.91336837954141,
To what extent did the music make you feel ,ACTIVE,30MonoWAV/30MonoT2.wav,2,1,4,14,,,,,1,3,19,13,0,6,6,9,,,,,,,,,2,1.0865339350129943,,,081,001,2019_Aug_27_1507,MusicAffectPsychophysiology2019,3.0.5,59.91336837954141,
To what extent did the music make you feel ,HAPPY,30MonoWAV/30MonoT2.wav,2,1,4,14,,,,,1,3,19,13,0,7,7,6,,,,,,,,,4,1.167039558000397,,,081,001,2019_Aug_27_1507,MusicAffectPsychophysiology2019,3.0.5,59.91336837954141,
To what extent did the music make you feel ,ANXIOUS ,30MonoWAV/30MonoT2.wav,2,1,4,14,,,,,1,3,19,13,0,8,8,1,,,,,,,,,1,0.9859894019900821,,,081,001,2019_Aug_27_1507,MusicAffectPsychophysiology2019,3.0.5,59.91336837954141,
To what extent did the music make you feel ,SAD,30MonoWAV/30MonoT2.wav,2,1,4,14,,,,,1,3,19,13,0,9,9,0,,,,,,,,,2,1.3211769709887449,,,081,001,2019_Aug_27_1507,MusicAffectPsychophysiology2019,3.0.5,59.91336837954141,
To what extent did the music make you feel ,EXCITED,30MonoWAV/30MonoT2.wav,2,1,4,14,,,,,1,3,19,13,0,10,10,7,,,,,,,,,3,1.9789659150119405,,,081,001,2019_Aug_27_1507,MusicAffectPsychophysiology2019,3.0.5,59.91336837954141,
To what extent did the music make you feel ,SCARED,30MonoWAV/30MonoT2.wav,2,1,4,14,,,,,1,3,19,13,0,11,11,11,,,,,,,,,1,1.0959407030022703,,,081,001,2019_Aug_27_1507,MusicAffectPsychophysiology2019,3.0.5,59.91336837954141,
,,30MonoWAV/30MonoT2.wav,2,1,4,14,,,,,1,3,19,13,,,,,,,,,,,,,,,,,081,001,2019_Aug_27_1507,MusicAffectPsychophysiology2019,3.0.5,59.91336837954141,
To what extent did the music make you feel ,SAD,30MonoWAV/30MonoF1.wav,1,2,2,1,,,,,1,4,20,0,0,0,0,0,,,5,2.9698159969993867,1,1.0526544909807853,1,2.8862029620213434,1,1.0903164229821414,,,081,001,2019_Aug_27_1507,MusicAffectPsychophysiology2019,3.0.5,59.91336837954141,
To what extent did the music make you feel ,GUILTY,30MonoWAV/30MonoF1.wav,1,2,2,1,,,,,1,4,20,0,0,1,1,5,,,,,,,,,2,1.9703239420196041,,,081,001,2019_Aug_27_1507,MusicAffectPsychophysiology2019,3.0.5,59.91336837954141,
To what extent did the music make you feel ,SCARED,30MonoWAV/30MonoF1.wav,1,2,2,1,,,,,1,4,20,0,0,2,2,11,,,,,,,,,3,1.190966069989372,,,081,001,2019_Aug_27_1507,MusicAffectPsychophysiology2019,3.0.5,59.91336837954141,
To what extent did the music make you feel ,ANGRY,30MonoWAV/30MonoF1.wav,1,2,2,1,,,,,1,4,20,0,0,3,3,2,,,,,,,,,3,1.4524356330221053,,,081,001,2019_Aug_27_1507,MusicAffectPsychophysiology2019,3.0.5,59.91336837954141,
To what extent did the music make you feel ,HAPPY,30MonoWAV/30MonoF1.wav,1,2,2,1,,,,,1,4,20,0,0,4,4,6,,,,,,,,,1,1.186426289001247,,,081,001,2019_Aug_27_1507,MusicAffectPsychophysiology2019,3.0.5,59.91336837954141,
To what extent did the music make you feel ,EXCITED,30MonoWAV/30MonoF1.wav,1,2,2,1,,,,,1,4,20,0,0,5,5,7,,,,,,,,,2,1.7570142650220077,,,081,001,2019_Aug_27_1507,MusicAffectPsychophysiology2019,3.0.5,59.91336837954141,
To what extent did the music make you feel ,ALERT,30MonoWAV/30MonoF1.wav,1,2,2,1,,,,,1,4,20,0,0,6,6,8,,,,,,,,,5,2.0885343959962483,,,081,001,2019_Aug_27_1507,MusicAffectPsychophysiology2019,3.0.5,59.91336837954141,
To what extent did the music make you feel ,ASHAMED,30MonoWAV/30MonoF1.wav,1,2,2,1,,,,,1,4,20,0,0,7,7,4,,,,,,,,,1,1.2707248489896301,,,081,001,2019_Aug_27_1507,MusicAffectPsychophysiology2019,3.0.5,59.91336837954141,
To what extent did the music make you feel ,ANXIOUS ,30MonoWAV/30MonoF1.wav,1,2,2,1,,,,,1,4,20,0,0,8,8,1,,,,,,,,,2,1.4390199620102067,,,081,001,2019_Aug_27_1507,MusicAffectPsychophysiology2019,3.0.5,59.91336837954141,
To what extent did the music make you feel ,ACTIVE,30MonoWAV/30MonoF1.wav,1,2,2,1,,,,,1,4,20,0,0,9,9,9,,,,,,,,,3,1.3217803880106658,,,081,001,2019_Aug_27_1507,MusicAffectPsychophysiology2019,3.0.5,59.91336837954141,
To what extent did the music make you feel ,TENDER,30MonoWAV/30MonoF1.wav,1,2,2,1,,,,,1,4,20,0,0,10,10,10,,,,,,,,,1,1.1728168470144738,,,081,001,2019_Aug_27_1507,MusicAffectPsychophysiology2019,3.0.5,59.91336837954141,
To what extent did the music make you feel ,FRUSTRATED,30MonoWAV/30MonoF1.wav,1,2,2,1,,,,,1,4,20,0,0,11,11,3,,,,,,,,,1,1.0374644099792931,,,081,001,2019_Aug_27_1507,MusicAffectPsychophysiology2019,3.0.5,59.91336837954141,
,,30MonoWAV/30MonoF1.wav,1,2,2,1,,,,,1,4,20,0,,,,,,,,,,,,,,,,,081,001,2019_Aug_27_1507,MusicAffectPsychophysiology2019,3.0.5,59.91336837954141,
To what extent did the music make you feel ,ASHAMED,30MonoWAV/30MonoH2.wav,2,2,1,6,,,,,1,5,21,5,0,0,0,4,,,4,2.4688970599963795,4,1.1862195970024914,4,1.7025504570046905,1,1.2183519990066998,,,081,001,2019_Aug_27_1507,MusicAffectPsychophysiology2019,3.0.5,59.91336837954141,
To what extent did the music make you feel ,ALERT,30MonoWAV/30MonoH2.wav,2,2,1,6,,,,,1,5,21,5,0,1,1,8,,,,,,,,,4,1.3699024250090588,,,081,001,2019_Aug_27_1507,MusicAffectPsychophysiology2019,3.0.5,59.91336837954141,
To what extent did the music make you feel ,ANXIOUS ,30MonoWAV/30MonoH2.wav,2,2,1,6,,,,,1,5,21,5,0,2,2,1,,,,,,,,,1,0.9688429629895836,,,081,001,2019_Aug_27_1507,MusicAffectPsychophysiology2019,3.0.5,59.91336837954141,
To what extent did the music make you feel ,EXCITED,30MonoWAV/30MonoH2.wav,2,2,1,6,,,,,1,5,21,5,0,3,3,7,,,,,,,,,5,1.4029772669891827,,,081,001,2019_Aug_27_1507,MusicAffectPsychophysiology2019,3.0.5,59.91336837954141,
To what extent did the music make you feel ,SCARED,30MonoWAV/30MonoH2.wav,2,2,1,6,,,,,1,5,21,5,0,4,4,11,,,,,,,,,1,1.1499269360210747,,,081,001,2019_Aug_27_1507,MusicAffectPsychophysiology2019,3.0.5,59.91336837954141,
To what extent did the music make you feel ,GUILTY,30MonoWAV/30MonoH2.wav,2,2,1,6,,,,,1,5,21,5,0,5,5,5,,,,,,,,,1,0.8365788859955501,,,081,001,2019_Aug_27_1507,MusicAffectPsychophysiology2019,3.0.5,59.91336837954141,
To what extent did the music make you feel ,HAPPY,30MonoWAV/30MonoH2.wav,2,2,1,6,,,,,1,5,21,5,0,6,6,6,,,,,,,,,4,1.1673609279969241,,,081,001,2019_Aug_27_1507,MusicAffectPsychophysiology2019,3.0.5,59.91336837954141,
To what extent did the music make you feel ,TENDER,30MonoWAV/30MonoH2.wav,2,2,1,6,,,,,1,5,21,5,0,7,7,10,,,,,,,,,2,1.7371493089885917,,,081,001,2019_Aug_27_1507,MusicAffectPsychophysiology2019,3.0.5,59.91336837954141,
To what extent did the music make you feel ,ANGRY,30MonoWAV/30MonoH2.wav,2,2,1,6,,,,,1,5,21,5,0,8,8,2,,,,,,,,,1,0.9186888260010164,,,081,001,2019_Aug_27_1507,MusicAffectPsychophysiology2019,3.0.5,59.91336837954141,
To what extent did the music make you feel ,ACTIVE,30MonoWAV/30MonoH2.wav,2,2,1,6,,,,,1,5,21,5,0,9,9,9,,,,,,,,,3,1.1532966030063108,,,081,001,2019_Aug_27_1507,MusicAffectPsychophysiology2019,3.0.5,59.91336837954141,
To what extent did the music make you feel ,FRUSTRATED,30MonoWAV/30MonoH2.wav,2,2,1,6,,,,,1,5,21,5,0,10,10,3,,,,,,,,,1,0.9980766210064758,,,081,001,2019_Aug_27_1507,MusicAffectPsychophysiology2019,3.0.5,59.91336837954141,
To what extent did the music make you feel ,SAD,30MonoWAV/30MonoH2.wav,2,2,1,6,,,,,1,5,21,5,0,11,11,0,,,,,,,,,1,1.070084980019601,,,081,001,2019_Aug_27_1507,MusicAffectPsychophysiology2019,3.0.5,59.91336837954141,
,,30MonoWAV/30MonoH2.wav,2,2,1,6,,,,,1,5,21,5,,,,,,,,,,,,,,,,,081,001,2019_Aug_27_1507,MusicAffectPsychophysiology2019,3.0.5,59.91336837954141,
To what extent did the music make you feel ,ANGRY,30MonoWAV/30MonoH1.wav,2,2,1,5,,,,,1,6,22,4,0,0,0,2,,,4,2.150132898008451,5,0.6697546660143416,5,1.2530302949890029,1,1.0443771780119278,,,081,001,2019_Aug_27_1507,MusicAffectPsychophysiology2019,3.0.5,59.91336837954141,
To what extent did the music make you feel ,ACTIVE,30MonoWAV/30MonoH1.wav,2,2,1,5,,,,,1,6,22,4,0,1,1,9,,,,,,,,,3,1.3113458630105015,,,081,001,2019_Aug_27_1507,MusicAffectPsychophysiology2019,3.0.5,59.91336837954141,
To what extent did the music make you feel ,EXCITED,30MonoWAV/30MonoH1.wav,2,2,1,5,,,,,1,6,22,4,0,2,2,7,,,,,,,,,4,0.8765230670105666,,,081,001,2019_Aug_27_1507,MusicAffectPsychophysiology2019,3.0.5,59.91336837954141,
To what extent did the music make you feel ,ASHAMED,30MonoWAV/30MonoH1.wav,2,2,1,5,,,,,1,6,22,4,0,3,3,4,,,,,,,,,1,0.8029839310038369,,,081,001,2019_Aug_27_1507,MusicAffectPsychophysiology2019,3.0.5,59.91336837954141,
To what extent did the music make you feel ,SAD,30MonoWAV/30MonoH1.wav,2,2,1,5,,,,,1,6,22,4,0,4,4,0,,,,,,,,,1,0.7024632840184495,,,081,001,2019_Aug_27_1507,MusicAffectPsychophysiology2019,3.0.5,59.91336837954141,
To what extent did the music make you feel ,SCARED,30MonoWAV/30MonoH1.wav,2,2,1,5,,,,,1,6,22,4,0,5,5,11,,,,,,,,,1,0.9259053060086444,,,081,001,2019_Aug_27_1507,MusicAffectPsychophysiology2019,3.0.5,59.91336837954141,
To what extent did the music make you feel ,TENDER,30MonoWAV/30MonoH1.wav,2,2,1,5,,,,,1,6,22,4,0,6,6,10,,,,,,,,,4,1.1531096289982088,,,081,001,2019_Aug_27_1507,MusicAffectPsychophysiology2019,3.0.5,59.91336837954141,
To what extent did the music make you feel ,ALERT,30MonoWAV/30MonoH1.wav,2,2,1,5,,,,,1,6,22,4,0,7,7,8,,,,,,,,,3,2.79260740801692,,,081,001,2019_Aug_27_1507,MusicAffectPsychophysiology2019,3.0.5,59.91336837954141,
To what extent did the music make you feel ,HAPPY,30MonoWAV/30MonoH1.wav,2,2,1,5,,,,,1,6,22,4,0,8,8,6,,,,,,,,,5,1.0033989130170085,,,081,001,2019_Aug_27_1507,MusicAffectPsychophysiology2019,3.0.5,59.91336837954141,
To what extent did the music make you feel ,GUILTY,30MonoWAV/30MonoH1.wav,2,2,1,5,,,,,1,6,22,4,0,9,9,5,,,,,,,,,1,0.9040425610146485,,,081,001,2019_Aug_27_1507,MusicAffectPsychophysiology2019,3.0.5,59.91336837954141,
To what extent did the music make you feel ,FRUSTRATED,30MonoWAV/30MonoH1.wav,2,2,1,5,,,,,1,6,22,4,0,10,10,3,,,,,,,,,1,0.691222170018591,,,081,001,2019_Aug_27_1507,MusicAffectPsychophysiology2019,3.0.5,59.91336837954141,
To what extent did the music make you feel ,ANXIOUS ,30MonoWAV/30MonoH1.wav,2,2,1,5,,,,,1,6,22,4,0,11,11,1,,,,,,,,,1,0.8534331500122789,,,081,001,2019_Aug_27_1507,MusicAffectPsychophysiology2019,3.0.5,59.91336837954141,
,,30MonoWAV/30MonoH1.wav,2,2,1,5,,,,,1,6,22,4,,,,,,,,,,,,,,,,,081,001,2019_Aug_27_1507,MusicAffectPsychophysiology2019,3.0.5,59.91336837954141,
To what extent did the music make you feel ,HAPPY,30MonoWAV/30MonoT4.wav,2,1,4,16,,,,,1,7,23,15,0,0,0,6,,,3,4.486484955006745,4,2.5676127710030414,4,1.1529063479974866,4,1.386672685999656,,,081,001,2019_Aug_27_1507,MusicAffectPsychophysiology2019,3.0.5,59.91336837954141,
To what extent did the music make you feel ,SCARED,30MonoWAV/30MonoT4.wav,2,1,4,16,,,,,1,7,23,15,0,1,1,11,,,,,,,,,1,1.3841318769846112,,,081,001,2019_Aug_27_1507,MusicAffectPsychophysiology2019,3.0.5,59.91336837954141,
To what extent did the music make you feel ,SAD,30MonoWAV/30MonoT4.wav,2,1,4,16,,,,,1,7,23,15,0,2,2,0,,,,,,,,,2,1.3832050040073227,,,081,001,2019_Aug_27_1507,MusicAffectPsychophysiology2019,3.0.5,59.91336837954141,
To what extent did the music make you feel ,TENDER,30MonoWAV/30MonoT4.wav,2,1,4,16,,,,,1,7,23,15,0,3,3,10,,,,,,,,,5,1.6859936119872145,,,081,001,2019_Aug_27_1507,MusicAffectPsychophysiology2019,3.0.5,59.91336837954141,
To what extent did the music make you feel ,ANXIOUS ,30MonoWAV/30MonoT4.wav,2,1,4,16,,,,,1,7,23,15,0,4,4,1,,,,,,,,,1,1.3193862579937559,,,081,001,2019_Aug_27_1507,MusicAffectPsychophysiology2019,3.0.5,59.91336837954141,
To what extent did the music make you feel ,FRUSTRATED,30MonoWAV/30MonoT4.wav,2,1,4,16,,,,,1,7,23,15,0,5,5,3,,,,,,,,,1,0.6355324760079384,,,081,001,2019_Aug_27_1507,MusicAffectPsychophysiology2019,3.0.5,59.91336837954141,
To what extent did the music make you feel ,ASHAMED,30MonoWAV/30MonoT4.wav,2,1,4,16,,,,,1,7,23,15,0,6,6,4,,,,,,,,,1,0.8353318499866873,,,081,001,2019_Aug_27_1507,MusicAffectPsychophysiology2019,3.0.5,59.91336837954141,
To what extent did the music make you feel ,ALERT,30MonoWAV/30MonoT4.wav,2,1,4,16,,,,,1,7,23,15,0,7,7,8,,,,,,,,,3,1.4877716619812418,,,081,001,2019_Aug_27_1507,MusicAffectPsychophysiology2019,3.0.5,59.91336837954141,
To what extent did the music make you feel ,EXCITED,30MonoWAV/30MonoT4.wav,2,1,4,16,,,,,1,7,23,15,0,8,8,7,,,,,,,,,3,1.6695717980037443,,,081,001,2019_Aug_27_1507,MusicAffectPsychophysiology2019,3.0.5,59.91336837954141,
To what extent did the music make you feel ,ANGRY,30MonoWAV/30MonoT4.wav,2,1,4,16,,,,,1,7,23,15,0,9,9,2,,,,,,,,,1,1.486987886019051,,,081,001,2019_Aug_27_1507,MusicAffectPsychophysiology2019,3.0.5,59.91336837954141,
To what extent did the music make you feel ,ACTIVE,30MonoWAV/30MonoT4.wav,2,1,4,16,,,,,1,7,23,15,0,10,10,9,,,,,,,,,2,1.1362108979956247,,,081,001,2019_Aug_27_1507,MusicAffectPsychophysiology2019,3.0.5,59.91336837954141,
To what extent did the music make you feel ,GUILTY,30MonoWAV/30MonoT4.wav,2,1,4,16,,,,,1,7,23,15,0,11,11,5,,,,,,,,,1,1.9020998300111387,,,081,001,2019_Aug_27_1507,MusicAffectPsychophysiology2019,3.0.5,59.91336837954141,
,,30MonoWAV/30MonoT4.wav,2,1,4,16,,,,,1,7,23,15,,,,,,,,,,,,,,,,,081,001,2019_Aug_27_1507,MusicAffectPsychophysiology2019,3.0.5,59.91336837954141,
To what extent did the music make you feel ,EXCITED,30MonoWAV/30MonoT1.wav,2,1,4,13,,,,,1,8,24,12,0,0,0,7,,,1,4.206932725006482,3,1.7031374800135382,3,1.470816958026262,2,1.4005486789974384,,,081,001,2019_Aug_27_1507,MusicAffectPsychophysiology2019,3.0.5,59.91336837954141,
To what extent did the music make you feel ,SCARED,30MonoWAV/30MonoT1.wav,2,1,4,13,,,,,1,8,24,12,0,1,1,11,,,,,,,,,1,1.4527156189724337,,,081,001,2019_Aug_27_1507,MusicAffectPsychophysiology2019,3.0.5,59.91336837954141,
To what extent did the music make you feel ,ALERT,30MonoWAV/30MonoT1.wav,2,1,4,13,,,,,1,8,24,12,0,2,2,8,,,,,,,,,2,1.5462171000253875,,,081,001,2019_Aug_27_1507,MusicAffectPsychophysiology2019,3.0.5,59.91336837954141,
To what extent did the music make you feel ,SAD,30MonoWAV/30MonoT1.wav,2,1,4,13,,,,,1,8,24,12,0,3,3,0,,,,,,,,,2,1.4526387070072815,,,081,001,2019_Aug_27_1507,MusicAffectPsychophysiology2019,3.0.5,59.91336837954141,
To what extent did the music make you feel ,TENDER,30MonoWAV/30MonoT1.wav,2,1,4,13,,,,,1,8,24,12,0,4,4,10,,,,,,,,,5,2.0208964699995704,,,081,001,2019_Aug_27_1507,MusicAffectPsychophysiology2019,3.0.5,59.91336837954141,
To what extent did the music make you feel ,ACTIVE,30MonoWAV/30MonoT1.wav,2,1,4,13,,,,,1,8,24,12,0,5,5,9,,,,,,,,,2,1.0619560809864197,,,081,001,2019_Aug_27_1507,MusicAffectPsychophysiology2019,3.0.5,59.91336837954141,
To what extent did the music make you feel ,HAPPY,30MonoWAV/30MonoT1.wav,2,1,4,13,,,,,1,8,24,12,0,6,6,6,,,,,,,,,3,1.1536266429757234,,,081,001,2019_Aug_27_1507,MusicAffectPsychophysiology2019,3.0.5,59.91336837954141,
To what extent did the music make you feel ,ANXIOUS ,30MonoWAV/30MonoT1.wav,2,1,4,13,,,,,1,8,24,12,0,7,7,1,,,,,,,,,2,1.7275857210042886,,,081,001,2019_Aug_27_1507,MusicAffectPsychophysiology2019,3.0.5,59.91336837954141,
To what extent did the music make you feel ,FRUSTRATED,30MonoWAV/30MonoT1.wav,2,1,4,13,,,,,1,8,24,12,0,8,8,3,,,,,,,,,1,1.0948328800150193,,,081,001,2019_Aug_27_1507,MusicAffectPsychophysiology2019,3.0.5,59.91336837954141,
To what extent did the music make you feel ,GUILTY,30MonoWAV/30MonoT1.wav,2,1,4,13,,,,,1,8,24,12,0,9,9,5,,,,,,,,,1,1.086673213983886,,,081,001,2019_Aug_27_1507,MusicAffectPsychophysiology2019,3.0.5,59.91336837954141,
To what extent did the music make you feel ,ASHAMED,30MonoWAV/30MonoT1.wav,2,1,4,13,,,,,1,8,24,12,0,10,10,4,,,,,,,,,1,0.7217846860003192,,,081,001,2019_Aug_27_1507,MusicAffectPsychophysiology2019,3.0.5,59.91336837954141,
To what extent did the music make you feel ,ANGRY,30MonoWAV/30MonoT1.wav,2,1,4,13,,,,,1,8,24,12,0,11,11,2,,,,,,,,,1,0.8287197430036031,,,081,001,2019_Aug_27_1507,MusicAffectPsychophysiology2019,3.0.5,59.91336837954141,
,,30MonoWAV/30MonoT1.wav,2,1,4,13,,,,,1,8,24,12,,,,,,,,,,,,,,,,,081,001,2019_Aug_27_1507,MusicAffectPsychophysiology2019,3.0.5,59.91336837954141,
To what extent did the music make you feel ,TENDER,30MonoWAV/30MonoF3.wav,1,2,2,3,,,,,1,9,25,2,0,0,0,10,,,4,2.352790292003192,1,1.7539773430034984,2,1.453860731999157,1,1.5405768970085774,,,081,001,2019_Aug_27_1507,MusicAffectPsychophysiology2019,3.0.5,59.91336837954141,
To what extent did the music make you feel ,GUILTY,30MonoWAV/30MonoF3.wav,1,2,2,3,,,,,1,9,25,2,0,1,1,5,,,,,,,,,3,2.3082637319748756,,,081,001,2019_Aug_27_1507,MusicAffectPsychophysiology2019,3.0.5,59.91336837954141,
To what extent did the music make you feel ,ALERT,30MonoWAV/30MonoF3.wav,1,2,2,3,,,,,1,9,25,2,0,2,2,8,,,,,,,,,5,1.4903197459934745,,,081,001,2019_Aug_27_1507,MusicAffectPsychophysiology2019,3.0.5,59.91336837954141,
To what extent did the music make you feel ,FRUSTRATED,30MonoWAV/30MonoF3.wav,1,2,2,3,,,,,1,9,25,2,0,3,3,3,,,,,,,,,2,1.139427968999371,,,081,001,2019_Aug_27_1507,MusicAffectPsychophysiology2019,3.0.5,59.91336837954141,
To what extent did the music make you feel ,SCARED,30MonoWAV/30MonoF3.wav,1,2,2,3,,,,,1,9,25,2,0,4,4,11,,,,,,,,,4,2.0728293959982693,,,081,001,2019_Aug_27_1507,MusicAffectPsychophysiology2019,3.0.5,59.91336837954141,
To what extent did the music make you feel ,ASHAMED,30MonoWAV/30MonoF3.wav,1,2,2,3,,,,,1,9,25,2,0,5,5,4,,,,,,,,,1,2.31989411500399,,,081,001,2019_Aug_27_1507,MusicAffectPsychophysiology2019,3.0.5,59.91336837954141,
To what extent did the music make you feel ,ANGRY,30MonoWAV/30MonoF3.wav,1,2,2,3,,,,,1,9,25,2,0,6,6,2,,,,,,,,,2,1.217715462000342,,,081,001,2019_Aug_27_1507,MusicAffectPsychophysiology2019,3.0.5,59.91336837954141,
To what extent did the music make you feel ,EXCITED,30MonoWAV/30MonoF3.wav,1,2,2,3,,,,,1,9,25,2,0,7,7,7,,,,,,,,,1,3.653515420999611,,,081,001,2019_Aug_27_1507,MusicAffectPsychophysiology2019,3.0.5,59.91336837954141,
To what extent did the music make you feel ,ACTIVE,30MonoWAV/30MonoF3.wav,1,2,2,3,,,,,1,9,25,2,0,8,8,9,,,,,,,,,4,1.2204164059949107,,,081,001,2019_Aug_27_1507,MusicAffectPsychophysiology2019,3.0.5,59.91336837954141,
To what extent did the music make you feel ,HAPPY,30MonoWAV/30MonoF3.wav,1,2,2,3,,,,,1,9,25,2,0,9,9,6,,,,,,,,,1,1.1528434909996577,,,081,001,2019_Aug_27_1507,MusicAffectPsychophysiology2019,3.0.5,59.91336837954141,
To what extent did the music make you feel ,ANXIOUS ,30MonoWAV/30MonoF3.wav,1,2,2,3,,,,,1,9,25,2,0,10,10,1,,,,,,,,,4,1.8870777460106183,,,081,001,2019_Aug_27_1507,MusicAffectPsychophysiology2019,3.0.5,59.91336837954141,
To what extent did the music make you feel ,SAD,30MonoWAV/30MonoF3.wav,1,2,2,3,,,,,1,9,25,2,0,11,11,0,,,,,,,,,1,2.450443774985615,,,081,001,2019_Aug_27_1507,MusicAffectPsychophysiology2019,3.0.5,59.91336837954141,
,,30MonoWAV/30MonoF3.wav,1,2,2,3,,,,,1,9,25,2,,,,,,,,,,,,,,,,,081,001,2019_Aug_27_1507,MusicAffectPsychophysiology2019,3.0.5,59.91336837954141,
To what extent did the music make you feel ,EXCITED,30MonoWAV/30MonoF4.wav,1,2,2,4,,,,,1,10,26,3,0,0,0,7,,,5,2.3529487760097254,1,0.9697240240056999,2,1.386929202999454,3,1.820423414988909,,,081,001,2019_Aug_27_1507,MusicAffectPsychophysiology2019,3.0.5,59.91336837954141,
To what extent did the music make you feel ,ANXIOUS ,30MonoWAV/30MonoF4.wav,1,2,2,4,,,,,1,10,26,3,0,1,1,1,,,,,,,,,4,1.453417732991511,,,081,001,2019_Aug_27_1507,MusicAffectPsychophysiology2019,3.0.5,59.91336837954141,
To what extent did the music make you feel ,SCARED,30MonoWAV/30MonoF4.wav,1,2,2,4,,,,,1,10,26,3,0,2,2,11,,,,,,,,,4,1.2307000000146218,,,081,001,2019_Aug_27_1507,MusicAffectPsychophysiology2019,3.0.5,59.91336837954141,
To what extent did the music make you feel ,FRUSTRATED,30MonoWAV/30MonoF4.wav,1,2,2,4,,,,,1,10,26,3,0,3,3,3,,,,,,,,,1,1.2487854870269075,,,081,001,2019_Aug_27_1507,MusicAffectPsychophysiology2019,3.0.5,59.91336837954141,
To what extent did the music make you feel ,TENDER,30MonoWAV/30MonoF4.wav,1,2,2,4,,,,,1,10,26,3,0,4,4,10,,,,,,,,,1,0.8992026679916307,,,081,001,2019_Aug_27_1507,MusicAffectPsychophysiology2019,3.0.5,59.91336837954141,
To what extent did the music make you feel ,ACTIVE,30MonoWAV/30MonoF4.wav,1,2,2,4,,,,,1,10,26,3,0,5,5,9,,,,,,,,,5,1.3481639419915155,,,081,001,2019_Aug_27_1507,MusicAffectPsychophysiology2019,3.0.5,59.91336837954141,
To what extent did the music make you feel ,GUILTY,30MonoWAV/30MonoF4.wav,1,2,2,4,,,,,1,10,26,3,0,6,6,5,,,,,,,,,1,1.2857759830076247,,,081,001,2019_Aug_27_1507,MusicAffectPsychophysiology2019,3.0.5,59.91336837954141,
To what extent did the music make you feel ,ASHAMED,30MonoWAV/30MonoF4.wav,1,2,2,4,,,,,1,10,26,3,0,7,7,4,,,,,,,,,1,1.25401737698121,,,081,001,2019_Aug_27_1507,MusicAffectPsychophysiology2019,3.0.5,59.91336837954141,
To what extent did the music make you feel ,SAD,30MonoWAV/30MonoF4.wav,1,2,2,4,,,,,1,10,26,3,0,8,8,0,,,,,,,,,1,1.1366494139947463,,,081,001,2019_Aug_27_1507,MusicAffectPsychophysiology2019,3.0.5,59.91336837954141,
To what extent did the music make you feel ,ANGRY,30MonoWAV/30MonoF4.wav,1,2,2,4,,,,,1,10,26,3,0,9,9,2,,,,,,,,,2,1.468088321009418,,,081,001,2019_Aug_27_1507,MusicAffectPsychophysiology2019,3.0.5,59.91336837954141,
To what extent did the music make you feel ,HAPPY,30MonoWAV/30MonoF4.wav,1,2,2,4,,,,,1,10,26,3,0,10,10,6,,,,,,,,,1,1.551483590999851,,,081,001,2019_Aug_27_1507,MusicAffectPsychophysiology2019,3.0.5,59.91336837954141,
To what extent did the music make you feel ,ALERT,30MonoWAV/30MonoF4.wav,1,2,2,4,,,,,1,10,26,3,0,11,11,8,,,,,,,,,5,1.469955732987728,,,081,001,2019_Aug_27_1507,MusicAffectPsychophysiology2019,3.0.5,59.91336837954141,
,,30MonoWAV/30MonoF4.wav,1,2,2,4,,,,,1,10,26,3,,,,,,,,,,,,,,,,,081,001,2019_Aug_27_1507,MusicAffectPsychophysiology2019,3.0.5,59.91336837954141,
To what extent did the music make you feel ,SCARED,30MonoWAV/30MonoS1.wav,1,1,3,9,,,,,1,11,27,8,0,0,0,11,,,1,2.7371078220021445,1,1.3198594679997768,4,2.5206040689954534,1,2.0196232500020415,,,081,001,2019_Aug_27_1507,MusicAffectPsychophysiology2019,3.0.5,59.91336837954141,
To what extent did the music make you feel ,SAD,30MonoWAV/30MonoS1.wav,1,1,3,9,,,,,1,11,27,8,0,1,1,0,,,,,,,,,5,2.486894934991142,,,081,001,2019_Aug_27_1507,MusicAffectPsychophysiology2019,3.0.5,59.91336837954141,
To what extent did the music make you feel ,FRUSTRATED,30MonoWAV/30MonoS1.wav,1,1,3,9,,,,,1,11,27,8,0,2,2,3,,,,,,,,,3,2.6714498460059986,,,081,001,2019_Aug_27_1507,MusicAffectPsychophysiology2019,3.0.5,59.91336837954141,
To what extent did the music make you feel ,ANXIOUS ,30MonoWAV/30MonoS1.wav,1,1,3,9,,,,,1,11,27,8,0,3,3,1,,,,,,,,,2,1.2533755010226741,,,081,001,2019_Aug_27_1507,MusicAffectPsychophysiology2019,3.0.5,59.91336837954141,
To what extent did the music make you feel ,GUILTY,30MonoWAV/30MonoS1.wav,1,1,3,9,,,,,1,11,27,8,0,4,4,5,,,,,,,,,3,1.4027921359811444,,,081,001,2019_Aug_27_1507,MusicAffectPsychophysiology2019,3.0.5,59.91336837954141,
To what extent did the music make you feel ,ASHAMED,30MonoWAV/30MonoS1.wav,1,1,3,9,,,,,1,11,27,8,0,5,5,4,,,,,,,,,2,1.532391771004768,,,081,001,2019_Aug_27_1507,MusicAffectPsychophysiology2019,3.0.5,59.91336837954141,
To what extent did the music make you feel ,ALERT,30MonoWAV/30MonoS1.wav,1,1,3,9,,,,,1,11,27,8,0,6,6,8,,,,,,,,,3,2.353581220988417,,,081,001,2019_Aug_27_1507,MusicAffectPsychophysiology2019,3.0.5,59.91336837954141,
To what extent did the music make you feel ,TENDER,30MonoWAV/30MonoS1.wav,1,1,3,9,,,,,1,11,27,8,0,7,7,10,,,,,,,,,5,1.4732012450112961,,,081,001,2019_Aug_27_1507,MusicAffectPsychophysiology2019,3.0.5,59.91336837954141,
To what extent did the music make you feel ,EXCITED,30MonoWAV/30MonoS1.wav,1,1,3,9,,,,,1,11,27,8,0,8,8,7,,,,,,,,,1,1.3862023210094776,,,081,001,2019_Aug_27_1507,MusicAffectPsychophysiology2019,3.0.5,59.91336837954141,
To what extent did the music make you feel ,ACTIVE,30MonoWAV/30MonoS1.wav,1,1,3,9,,,,,1,11,27,8,0,9,9,9,,,,,,,,,2,1.1370300910202786,,,081,001,2019_Aug_27_1507,MusicAffectPsychophysiology2019,3.0.5,59.91336837954141,
To what extent did the music make you feel ,ANGRY,30MonoWAV/30MonoS1.wav,1,1,3,9,,,,,1,11,27,8,0,10,10,2,,,,,,,,,2,2.1701679920079187,,,081,001,2019_Aug_27_1507,MusicAffectPsychophysiology2019,3.0.5,59.91336837954141,
To what extent did the music make you feel ,HAPPY,30MonoWAV/30MonoS1.wav,1,1,3,9,,,,,1,11,27,8,0,11,11,6,,,,,,,,,1,1.0360654570104089,,,081,001,2019_Aug_27_1507,MusicAffectPsychophysiology2019,3.0.5,59.91336837954141,
,,30MonoWAV/30MonoS1.wav,1,1,3,9,,,,,1,11,27,8,,,,,,,,,,,,,,,,,081,001,2019_Aug_27_1507,MusicAffectPsychophysiology2019,3.0.5,59.91336837954141,
To what extent did the music make you feel ,ALERT,30MonoWAV/30MonoT3.wav,2,1,4,15,,,,,1,12,28,14,0,0,0,8,,,1,2.9529699189879466,5,1.7696657549822703,4,1.701452926005004,2,1.4525312169862445,,,081,001,2019_Aug_27_1507,MusicAffectPsychophysiology2019,3.0.5,59.91336837954141,
To what extent did the music make you feel ,FRUSTRATED,30MonoWAV/30MonoT3.wav,2,1,4,15,,,,,1,12,28,14,0,1,1,3,,,,,,,,,1,0.9699412610207219,,,081,001,2019_Aug_27_1507,MusicAffectPsychophysiology2019,3.0.5,59.91336837954141,
To what extent did the music make you feel ,HAPPY,30MonoWAV/30MonoT3.wav,2,1,4,15,,,,,1,12,28,14,0,2,2,6,,,,,,,,,4,1.699781837000046,,,081,001,2019_Aug_27_1507,MusicAffectPsychophysiology2019,3.0.5,59.91336837954141,
To what extent did the music make you feel ,GUILTY,30MonoWAV/30MonoT3.wav,2,1,4,15,,,,,1,12,28,14,0,3,3,5,,,,,,,,,1,1.170644882018678,,,081,001,2019_Aug_27_1507,MusicAffectPsychophysiology2019,3.0.5,59.91336837954141,
To what extent did the music make you feel ,EXCITED,30MonoWAV/30MonoT3.wav,2,1,4,15,,,,,1,12,28,14,0,4,4,7,,,,,,,,,2,1.3982283410150558,,,081,001,2019_Aug_27_1507,MusicAffectPsychophysiology2019,3.0.5,59.91336837954141,
To what extent did the music make you feel ,ASHAMED,30MonoWAV/30MonoT3.wav,2,1,4,15,,,,,1,12,28,14,0,5,5,4,,,,,,,,,1,0.8687171549827326,,,081,001,2019_Aug_27_1507,MusicAffectPsychophysiology2019,3.0.5,59.91336837954141,
To what extent did the music make you feel ,SCARED,30MonoWAV/30MonoT3.wav,2,1,4,15,,,,,1,12,28,14,0,6,6,11,,,,,,,,,1,1.0534526910050772,,,081,001,2019_Aug_27_1507,MusicAffectPsychophysiology2019,3.0.5,59.91336837954141,
To what extent did the music make you feel ,ANXIOUS ,30MonoWAV/30MonoT3.wav,2,1,4,15,,,,,1,12,28,14,0,7,7,1,,,,,,,,,1,5.183128180011408,,,081,001,2019_Aug_27_1507,MusicAffectPsychophysiology2019,3.0.5,59.91336837954141,
To what extent did the music make you feel ,ANGRY,30MonoWAV/30MonoT3.wav,2,1,4,15,,,,,1,12,28,14,0,8,8,2,,,,,,,,,1,0.6034293789998628,,,081,001,2019_Aug_27_1507,MusicAffectPsychophysiology2019,3.0.5,59.91336837954141,
To what extent did the music make you feel ,ACTIVE,30MonoWAV/30MonoT3.wav,2,1,4,15,,,,,1,12,28,14,0,9,9,9,,,,,,,,,2,1.0516034190077335,,,081,001,2019_Aug_27_1507,MusicAffectPsychophysiology2019,3.0.5,59.91336837954141,
To what extent did the music make you feel ,SAD,30MonoWAV/30MonoT3.wav,2,1,4,15,,,,,1,12,28,14,0,10,10,0,,,,,,,,,2,1.2689586130145472,,,081,001,2019_Aug_27_1507,MusicAffectPsychophysiology2019,3.0.5,59.91336837954141,
To what extent did the music make you feel ,TENDER,30MonoWAV/30MonoT3.wav,2,1,4,15,,,,,1,12,28,14,0,11,11,10,,,,,,,,,5,1.5529912280035205,,,081,001,2019_Aug_27_1507,MusicAffectPsychophysiology2019,3.0.5,59.91336837954141,
,,30MonoWAV/30MonoT3.wav,2,1,4,15,,,,,1,12,28,14,,,,,,,,,,,,,,,,,081,001,2019_Aug_27_1507,MusicAffectPsychophysiology2019,3.0.5,59.91336837954141,
To what extent did the music make you feel ,ANGRY,30MonoWAV/30MonoS3.wav,1,1,3,11,,,,,1,13,29,10,0,0,0,2,,,1,2.952841513993917,1,1.20374060299946,2,1.486801230988931,2,1.578617260005558,,,081,001,2019_Aug_27_1507,MusicAffectPsychophysiology2019,3.0.5,59.91336837954141,
To what extent did the music make you feel ,ALERT,30MonoWAV/30MonoS3.wav,1,1,3,11,,,,,1,13,29,10,0,1,1,8,,,,,,,,,2,2.860079895996023,,,081,001,2019_Aug_27_1507,MusicAffectPsychophysiology2019,3.0.5,59.91336837954141,
To what extent did the music make you feel ,FRUSTRATED,30MonoWAV/30MonoS3.wav,1,1,3,11,,,,,1,13,29,10,0,2,2,3,,,,,,,,,3,1.4765252429933753,,,081,001,2019_Aug_27_1507,MusicAffectPsychophysiology2019,3.0.5,59.91336837954141,
To what extent did the music make you feel ,GUILTY,30MonoWAV/30MonoS3.wav,1,1,3,11,,,,,1,13,29,10,0,3,3,5,,,,,,,,,4,1.2371152709820308,,,081,001,2019_Aug_27_1507,MusicAffectPsychophysiology2019,3.0.5,59.91336837954141,
To what extent did the music make you feel ,SAD,30MonoWAV/30MonoS3.wav,1,1,3,11,,,,,1,13,29,10,0,4,4,0,,,,,,,,,5,0.9867649849911686,,,081,001,2019_Aug_27_1507,MusicAffectPsychophysiology2019,3.0.5,59.91336837954141,
To what extent did the music make you feel ,ACTIVE,30MonoWAV/30MonoS3.wav,1,1,3,11,,,,,1,13,29,10,0,5,5,9,,,,,,,,,2,1.1856793579936493,,,081,001,2019_Aug_27_1507,MusicAffectPsychophysiology2019,3.0.5,59.91336837954141,
To what extent did the music make you feel ,ANXIOUS ,30MonoWAV/30MonoS3.wav,1,1,3,11,,,,,1,13,29,10,0,6,6,1,,,,,,,,,2,1.2704356360191014,,,081,001,2019_Aug_27_1507,MusicAffectPsychophysiology2019,3.0.5,59.91336837954141,
To what extent did the music make you feel ,EXCITED,30MonoWAV/30MonoS3.wav,1,1,3,11,,,,,1,13,29,10,0,7,7,7,,,,,,,,,1,1.0431367699929979,,,081,001,2019_Aug_27_1507,MusicAffectPsychophysiology2019,3.0.5,59.91336837954141,
To what extent did the music make you feel ,HAPPY,30MonoWAV/30MonoS3.wav,1,1,3,11,,,,,1,13,29,10,0,8,8,6,,,,,,,,,1,0.5360408140113577,,,081,001,2019_Aug_27_1507,MusicAffectPsychophysiology2019,3.0.5,59.91336837954141,
To what extent did the music make you feel ,TENDER,30MonoWAV/30MonoS3.wav,1,1,3,11,,,,,1,13,29,10,0,9,9,10,,,,,,,,,4,1.292763552017277,,,081,001,2019_Aug_27_1507,MusicAffectPsychophysiology2019,3.0.5,59.91336837954141,
To what extent did the music make you feel ,SCARED,30MonoWAV/30MonoS3.wav,1,1,3,11,,,,,1,13,29,10,0,10,10,11,,,,,,,,,3,1.869562689011218,,,081,001,2019_Aug_27_1507,MusicAffectPsychophysiology2019,3.0.5,59.91336837954141,
To what extent did the music make you feel ,ASHAMED,30MonoWAV/30MonoS3.wav,1,1,3,11,,,,,1,13,29,10,0,11,11,4,,,,,,,,,3,1.3252891710144468,,,081,001,2019_Aug_27_1507,MusicAffectPsychophysiology2019,3.0.5,59.91336837954141,
,,30MonoWAV/30MonoS3.wav,1,1,3,11,,,,,1,13,29,10,,,,,,,,,,,,,,,,,081,001,2019_Aug_27_1507,MusicAffectPsychophysiology2019,3.0.5,59.91336837954141,
To what extent did the music make you feel ,TENDER,30MonoWAV/30MonoH4.wav,2,2,1,8,,,,,1,14,30,7,0,0,0,10,,,5,1.887966904003406,5,0.50063139401027,5,0.7863681929884478,3,3.2697291120130103,,,081,001,2019_Aug_27_1507,MusicAffectPsychophysiology2019,3.0.5,59.91336837954141,
To what extent did the music make you feel ,SAD,30MonoWAV/30MonoH4.wav,2,2,1,8,,,,,1,14,30,7,0,1,1,0,,,,,,,,,1,0.8530612399918027,,,081,001,2019_Aug_27_1507,MusicAffectPsychophysiology2019,3.0.5,59.91336837954141,
To what extent did the music make you feel ,ALERT,30MonoWAV/30MonoH4.wav,2,2,1,8,,,,,1,14,30,7,0,2,2,8,,,,,,,,,5,1.119477108004503,,,081,001,2019_Aug_27_1507,MusicAffectPsychophysiology2019,3.0.5,59.91336837954141,
To what extent did the music make you feel ,ASHAMED,30MonoWAV/30MonoH4.wav,2,2,1,8,,,,,1,14,30,7,0,3,3,4,,,,,,,,,1,0.8377072880102787,,,081,001,2019_Aug_27_1507,MusicAffectPsychophysiology2019,3.0.5,59.91336837954141,
To what extent did the music make you feel ,ANXIOUS ,30MonoWAV/30MonoH4.wav,2,2,1,8,,,,,1,14,30,7,0,4,4,1,,,,,,,,,1,0.6034247339994181,,,081,001,2019_Aug_27_1507,MusicAffectPsychophysiology2019,3.0.5,59.91336837954141,
To what extent did the music make you feel ,ACTIVE,30MonoWAV/30MonoH4.wav,2,2,1,8,,,,,1,14,30,7,0,5,5,9,,,,,,,,,5,1.003045159013709,,,081,001,2019_Aug_27_1507,MusicAffectPsychophysiology2019,3.0.5,59.91336837954141,
To what extent did the music make you feel ,GUILTY,30MonoWAV/30MonoH4.wav,2,2,1,8,,,,,1,14,30,7,0,6,6,5,,,,,,,,,1,0.8191967019811273,,,081,001,2019_Aug_27_1507,MusicAffectPsychophysiology2019,3.0.5,59.91336837954141,
To what extent did the music make you feel ,EXCITED,30MonoWAV/30MonoH4.wav,2,2,1,8,,,,,1,14,30,7,0,7,7,7,,,,,,,,,5,0.9360196219931822,,,081,001,2019_Aug_27_1507,MusicAffectPsychophysiology2019,3.0.5,59.91336837954141,
To what extent did the music make you feel ,SCARED,30MonoWAV/30MonoH4.wav,2,2,1,8,,,,,1,14,30,7,0,8,8,11,,,,,,,,,1,0.8858140390075278,,,081,001,2019_Aug_27_1507,MusicAffectPsychophysiology2019,3.0.5,59.91336837954141,
To what extent did the music make you feel ,HAPPY,30MonoWAV/30MonoH4.wav,2,2,1,8,,,,,1,14,30,7,0,9,9,6,,,,,,,,,5,0.9341980680183042,,,081,001,2019_Aug_27_1507,MusicAffectPsychophysiology2019,3.0.5,59.91336837954141,
To what extent did the music make you feel ,FRUSTRATED,30MonoWAV/30MonoH4.wav,2,2,1,8,,,,,1,14,30,7,0,10,10,3,,,,,,,,,1,0.8036479820148088,,,081,001,2019_Aug_27_1507,MusicAffectPsychophysiology2019,3.0.5,59.91336837954141,
To what extent did the music make you feel ,ANGRY,30MonoWAV/30MonoH4.wav,2,2,1,8,,,,,1,14,30,7,0,11,11,2,,,,,,,,,1,0.8353009939892218,,,081,001,2019_Aug_27_1507,MusicAffectPsychophysiology2019,3.0.5,59.91336837954141,
,,30MonoWAV/30MonoH4.wav,2,2,1,8,,,,,1,14,30,7,,,,,,,,,,,,,,,,,081,001,2019_Aug_27_1507,MusicAffectPsychophysiology2019,3.0.5,59.91336837954141,
To what extent did the music make you feel ,HAPPY,30MonoWAV/30MonoH3.wav,2,2,1,7,,,,,1,15,31,6,0,0,0,6,,,5,2.0378010769782122,5,0.751450489013223,4,1.4023862809990533,4,1.6315848359954543,,,081,001,2019_Aug_27_1507,MusicAffectPsychophysiology2019,3.0.5,59.91336837954141,
To what extent did the music make you feel ,ACTIVE,30MonoWAV/30MonoH3.wav,2,2,1,7,,,,,1,15,31,6,0,1,1,9,,,,,,,,,4,1.2539512049988844,,,081,001,2019_Aug_27_1507,MusicAffectPsychophysiology2019,3.0.5,59.91336837954141,
To what extent did the music make you feel ,GUILTY,30MonoWAV/30MonoH3.wav,2,2,1,7,,,,,1,15,31,6,0,2,2,5,,,,,,,,,1,1.0703200490097515,,,081,001,2019_Aug_27_1507,MusicAffectPsychophysiology2019,3.0.5,59.91336837954141,
To what extent did the music make you feel ,SCARED,30MonoWAV/30MonoH3.wav,2,2,1,7,,,,,1,15,31,6,0,3,3,11,,,,,,,,,1,0.7142727510072291,,,081,001,2019_Aug_27_1507,MusicAffectPsychophysiology2019,3.0.5,59.91336837954141,
To what extent did the music make you feel ,ANXIOUS ,30MonoWAV/30MonoH3.wav,2,2,1,7,,,,,1,15,31,6,0,4,4,1,,,,,,,,,2,1.0304877230082639,,,081,001,2019_Aug_27_1507,MusicAffectPsychophysiology2019,3.0.5,59.91336837954141,
To what extent did the music make you feel ,FRUSTRATED,30MonoWAV/30MonoH3.wav,2,2,1,7,,,,,1,15,31,6,0,5,5,3,,,,,,,,,1,0.8801704779907595,,,081,001,2019_Aug_27_1507,MusicAffectPsychophysiology2019,3.0.5,59.91336837954141,
To what extent did the music make you feel ,ASHAMED,30MonoWAV/30MonoH3.wav,2,2,1,7,,,,,1,15,31,6,0,6,6,4,,,,,,,,,1,0.85540630997275,,,081,001,2019_Aug_27_1507,MusicAffectPsychophysiology2019,3.0.5,59.91336837954141,
To what extent did the music make you feel ,ALERT,30MonoWAV/30MonoH3.wav,2,2,1,7,,,,,1,15,31,6,0,7,7,8,,,,,,,,,4,1.3141118279891089,,,081,001,2019_Aug_27_1507,MusicAffectPsychophysiology2019,3.0.5,59.91336837954141,
To what extent did the music make you feel ,SAD,30MonoWAV/30MonoH3.wav,2,2,1,7,,,,,1,15,31,6,0,8,8,0,,,,,,,,,1,0.8862188839993905,,,081,001,2019_Aug_27_1507,MusicAffectPsychophysiology2019,3.0.5,59.91336837954141,
To what extent did the music make you feel ,EXCITED,30MonoWAV/30MonoH3.wav,2,2,1,7,,,,,1,15,31,6,0,9,9,7,,,,,,,,,5,1.0961568639904726,,,081,001,2019_Aug_27_1507,MusicAffectPsychophysiology2019,3.0.5,59.91336837954141,
To what extent did the music make you feel ,ANGRY,30MonoWAV/30MonoH3.wav,2,2,1,7,,,,,1,15,31,6,0,10,10,2,,,,,,,,,1,0.8362628009926993,,,081,001,2019_Aug_27_1507,MusicAffectPsychophysiology2019,3.0.5,59.91336837954141,
To what extent did the music make you feel ,TENDER,30MonoWAV/30MonoH3.wav,2,2,1,7,,,,,1,15,31,6,0,11,11,10,,,,,,,,,3,1.0184959910111502,,,081,001,2019_Aug_27_1507,MusicAffectPsychophysiology2019,3.0.5,59.91336837954141,
,,30MonoWAV/30MonoH3.wav,2,2,1,7,,,,,1,15,31,6,,,,,,,,,,,,,,,,,081,001,2019_Aug_27_1507,MusicAffectPsychophysiology2019,3.0.5,59.91336837954141,
,,,,,,,,,,,,,,,,,,,,,,,,,,,,,space,5.578571407007985,081,001,2019_Aug_27_1507,MusicAffectPsychophysiology2019,3.0.5,59.91336837954141,
