Instruction,Word,song,valence,arousal,affectcat,songmark,pracwords.thisRepN,pracwords.thisTrialN,pracwords.thisN,pracwords.thisIndex,songtrials.thisRepN,songtrials.thisTrialN,songtrials.thisN,songtrials.thisIndex,words.thisRepN,words.thisTrialN,words.thisN,words.thisIndex,begin.keys,begin.rt,arousalkey.keys,arousalkey.rt,valencekey.keys,valencekey.rt,likekey.keys,likekey.rt,WordResponse.keys,WordResponse.rt,participant,session,date,expName,psychopyVersion,frameRate,
,,,,,,,,,,,,,,,,,,,space,16.217632197978674,,,,,,,,,082,001,2019_Aug_28_0909,MusicAffectPsychophysiology2019,3.0.5,59.905319758047106,
,,,,,,,,,,,,,,,,,,,,,4,6.819542643002933,,,,,,,082,001,2019_Aug_28_0909,MusicAffectPsychophysiology2019,3.0.5,59.905319758047106,
,,,,,,,,,,,,,,,,,,,,,,,4,5.285597428999608,,,,,082,001,2019_Aug_28_0909,MusicAffectPsychophysiology2019,3.0.5,59.905319758047106,
,,,,,,,,,,,,,,,,,,,,,,,,,5,3.8514213600137737,,,082,001,2019_Aug_28_0909,MusicAffectPsychophysiology2019,3.0.5,59.905319758047106,
To what extent did the music make you feel ,EXCITED,,,,,,0,0,0,7,,,,,,,,,,,,,,,,,4,9.42684614699101,082,001,2019_Aug_28_0909,MusicAffectPsychophysiology2019,3.0.5,59.905319758047106,
To what extent did the music make you feel ,TENDER,,,,,,0,1,1,10,,,,,,,,,,,,,,,,,4,3.720430548011791,082,001,2019_Aug_28_0909,MusicAffectPsychophysiology2019,3.0.5,59.905319758047106,
To what extent did the music make you feel ,GUILTY,,,,,,0,2,2,5,,,,,,,,,,,,,,,,,1,2.4263380150077865,082,001,2019_Aug_28_0909,MusicAffectPsychophysiology2019,3.0.5,59.905319758047106,
To what extent did the music make you feel ,FRUSTRATED,,,,,,0,3,3,3,,,,,,,,,,,,,,,,,1,0.8585498229949735,082,001,2019_Aug_28_0909,MusicAffectPsychophysiology2019,3.0.5,59.905319758047106,
To what extent did the music make you feel ,ANXIOUS ,,,,,,0,4,4,1,,,,,,,,,,,,,,,,,1,0.9338348959863652,082,001,2019_Aug_28_0909,MusicAffectPsychophysiology2019,3.0.5,59.905319758047106,
To what extent did the music make you feel ,SCARED,,,,,,0,5,5,11,,,,,,,,,,,,,,,,,1,1.0867798429972026,082,001,2019_Aug_28_0909,MusicAffectPsychophysiology2019,3.0.5,59.905319758047106,
To what extent did the music make you feel ,HAPPY,,,,,,0,6,6,6,,,,,,,,,,,,,,,,,4,3.5059818320150953,082,001,2019_Aug_28_0909,MusicAffectPsychophysiology2019,3.0.5,59.905319758047106,
To what extent did the music make you feel ,ANGRY,,,,,,0,7,7,2,,,,,,,,,,,,,,,,,1,2.202460959000746,082,001,2019_Aug_28_0909,MusicAffectPsychophysiology2019,3.0.5,59.905319758047106,
To what extent did the music make you feel ,ASHAMED,,,,,,0,8,8,4,,,,,,,,,,,,,,,,,1,0.9019960129808169,082,001,2019_Aug_28_0909,MusicAffectPsychophysiology2019,3.0.5,59.905319758047106,
To what extent did the music make you feel ,ACTIVE,,,,,,0,9,9,9,,,,,,,,,,,,,,,,,1,1.4517925930267666,082,001,2019_Aug_28_0909,MusicAffectPsychophysiology2019,3.0.5,59.905319758047106,
To what extent did the music make you feel ,SAD,,,,,,0,10,10,0,,,,,,,,,,,,,,,,,1,0.819273726985557,082,001,2019_Aug_28_0909,MusicAffectPsychophysiology2019,3.0.5,59.905319758047106,
To what extent did the music make you feel ,ALERT,,,,,,0,11,11,8,,,,,,,,,,,,,,,,,1,3.6360366019944195,082,001,2019_Aug_28_0909,MusicAffectPsychophysiology2019,3.0.5,59.905319758047106,
To what extent did the music make you feel ,ACTIVE,30MonoWAV/30MonoF2.wav,1,2,2,2,,,,,0,0,0,1,0,0,0,9,,,4,6.819022563984618,1,7.083943650999572,3,4.952622213982977,2,6.550425849010935,082,001,2019_Aug_28_0909,MusicAffectPsychophysiology2019,3.0.5,59.905319758047106,
To what extent did the music make you feel ,EXCITED,30MonoWAV/30MonoF2.wav,1,2,2,2,,,,,0,0,0,1,0,1,1,7,,,,,,,,,2,3.119146556011401,082,001,2019_Aug_28_0909,MusicAffectPsychophysiology2019,3.0.5,59.905319758047106,
To what extent did the music make you feel ,SAD,30MonoWAV/30MonoF2.wav,1,2,2,2,,,,,0,0,0,1,0,2,2,0,,,,,,,,,1,1.2520184329769108,082,001,2019_Aug_28_0909,MusicAffectPsychophysiology2019,3.0.5,59.905319758047106,
To what extent did the music make you feel ,ALERT,30MonoWAV/30MonoF2.wav,1,2,2,2,,,,,0,0,0,1,0,3,3,8,,,,,,,,,4,1.968930561997695,082,001,2019_Aug_28_0909,MusicAffectPsychophysiology2019,3.0.5,59.905319758047106,
To what extent did the music make you feel ,TENDER,30MonoWAV/30MonoF2.wav,1,2,2,2,,,,,0,0,0,1,0,4,4,10,,,,,,,,,1,1.6526219779916573,082,001,2019_Aug_28_0909,MusicAffectPsychophysiology2019,3.0.5,59.905319758047106,
To what extent did the music make you feel ,GUILTY,30MonoWAV/30MonoF2.wav,1,2,2,2,,,,,0,0,0,1,0,5,5,5,,,,,,,,,1,1.5852922040212434,082,001,2019_Aug_28_0909,MusicAffectPsychophysiology2019,3.0.5,59.905319758047106,
To what extent did the music make you feel ,HAPPY,30MonoWAV/30MonoF2.wav,1,2,2,2,,,,,0,0,0,1,0,6,6,6,,,,,,,,,1,0.7697481020004489,082,001,2019_Aug_28_0909,MusicAffectPsychophysiology2019,3.0.5,59.905319758047106,
To what extent did the music make you feel ,ANGRY,30MonoWAV/30MonoF2.wav,1,2,2,2,,,,,0,0,0,1,0,7,7,2,,,,,,,,,1,1.1024456640006974,082,001,2019_Aug_28_0909,MusicAffectPsychophysiology2019,3.0.5,59.905319758047106,
To what extent did the music make you feel ,ANXIOUS ,30MonoWAV/30MonoF2.wav,1,2,2,2,,,,,0,0,0,1,0,8,8,1,,,,,,,,,3,1.6024314789974596,082,001,2019_Aug_28_0909,MusicAffectPsychophysiology2019,3.0.5,59.905319758047106,
To what extent did the music make you feel ,ASHAMED,30MonoWAV/30MonoF2.wav,1,2,2,2,,,,,0,0,0,1,0,9,9,4,,,,,,,,,2,1.2521355309872888,082,001,2019_Aug_28_0909,MusicAffectPsychophysiology2019,3.0.5,59.905319758047106,
To what extent did the music make you feel ,FRUSTRATED,30MonoWAV/30MonoF2.wav,1,2,2,2,,,,,0,0,0,1,0,10,10,3,,,,,,,,,1,2.6001531909860205,082,001,2019_Aug_28_0909,MusicAffectPsychophysiology2019,3.0.5,59.905319758047106,
To what extent did the music make you feel ,SCARED,30MonoWAV/30MonoF2.wav,1,2,2,2,,,,,0,0,0,1,0,11,11,11,,,,,,,,,3,3.0162582169868983,082,001,2019_Aug_28_0909,MusicAffectPsychophysiology2019,3.0.5,59.905319758047106,
,,30MonoWAV/30MonoF2.wav,1,2,2,2,,,,,0,0,0,1,,,,,,,,,,,,,,,082,001,2019_Aug_28_0909,MusicAffectPsychophysiology2019,3.0.5,59.905319758047106,
To what extent did the music make you feel ,ANGRY,30MonoWAV/30MonoH1.wav,2,2,1,5,,,,,0,1,1,4,0,0,0,2,,,3,3.685349867999321,2,3.002249747980386,1,3.549668917024974,1,1.9537859650154132,082,001,2019_Aug_28_0909,MusicAffectPsychophysiology2019,3.0.5,59.905319758047106,
To what extent did the music make you feel ,GUILTY,30MonoWAV/30MonoH1.wav,2,2,1,5,,,,,0,1,1,4,0,1,1,5,,,,,,,,,1,0.7357885059900582,082,001,2019_Aug_28_0909,MusicAffectPsychophysiology2019,3.0.5,59.905319758047106,
To what extent did the music make you feel ,SCARED,30MonoWAV/30MonoH1.wav,2,2,1,5,,,,,0,1,1,4,0,2,2,11,,,,,,,,,1,0.7030230210220907,082,001,2019_Aug_28_0909,MusicAffectPsychophysiology2019,3.0.5,59.905319758047106,
To what extent did the music make you feel ,EXCITED,30MonoWAV/30MonoH1.wav,2,2,1,5,,,,,0,1,1,4,0,3,3,7,,,,,,,,,2,1.8702443359943572,082,001,2019_Aug_28_0909,MusicAffectPsychophysiology2019,3.0.5,59.905319758047106,
To what extent did the music make you feel ,SAD,30MonoWAV/30MonoH1.wav,2,2,1,5,,,,,0,1,1,4,0,4,4,0,,,,,,,,,1,1.4201088729896583,082,001,2019_Aug_28_0909,MusicAffectPsychophysiology2019,3.0.5,59.905319758047106,
To what extent did the music make you feel ,FRUSTRATED,30MonoWAV/30MonoH1.wav,2,2,1,5,,,,,0,1,1,4,0,5,5,3,,,,,,,,,2,2.058865111990599,082,001,2019_Aug_28_0909,MusicAffectPsychophysiology2019,3.0.5,59.905319758047106,
To what extent did the music make you feel ,ACTIVE,30MonoWAV/30MonoH1.wav,2,2,1,5,,,,,0,1,1,4,0,6,6,9,,,,,,,,,2,0.750969233980868,082,001,2019_Aug_28_0909,MusicAffectPsychophysiology2019,3.0.5,59.905319758047106,
To what extent did the music make you feel ,ALERT,30MonoWAV/30MonoH1.wav,2,2,1,5,,,,,0,1,1,4,0,7,7,8,,,,,,,,,1,1.2356549830001313,082,001,2019_Aug_28_0909,MusicAffectPsychophysiology2019,3.0.5,59.905319758047106,
To what extent did the music make you feel ,HAPPY,30MonoWAV/30MonoH1.wav,2,2,1,5,,,,,0,1,1,4,0,8,8,6,,,,,,,,,2,4.235225842014188,082,001,2019_Aug_28_0909,MusicAffectPsychophysiology2019,3.0.5,59.905319758047106,
To what extent did the music make you feel ,ANXIOUS ,30MonoWAV/30MonoH1.wav,2,2,1,5,,,,,0,1,1,4,0,9,9,1,,,,,,,,,1,1.0022722590074409,082,001,2019_Aug_28_0909,MusicAffectPsychophysiology2019,3.0.5,59.905319758047106,
To what extent did the music make you feel ,TENDER,30MonoWAV/30MonoH1.wav,2,2,1,5,,,,,0,1,1,4,0,10,10,10,,,,,,,,,1,1.8357825980056077,082,001,2019_Aug_28_0909,MusicAffectPsychophysiology2019,3.0.5,59.905319758047106,
To what extent did the music make you feel ,ASHAMED,30MonoWAV/30MonoH1.wav,2,2,1,5,,,,,0,1,1,4,0,11,11,4,,,,,,,,,1,0.7858173800050281,082,001,2019_Aug_28_0909,MusicAffectPsychophysiology2019,3.0.5,59.905319758047106,
,,30MonoWAV/30MonoH1.wav,2,2,1,5,,,,,0,1,1,4,,,,,,,,,,,,,,,082,001,2019_Aug_28_0909,MusicAffectPsychophysiology2019,3.0.5,59.905319758047106,
To what extent did the music make you feel ,EXCITED,30MonoWAV/30MonoF1.wav,1,2,2,1,,,,,0,2,2,0,0,0,0,7,,,3,7.968538803019328,2,6.55106076298398,4,4.751570009975694,2,2.23510229200474,082,001,2019_Aug_28_0909,MusicAffectPsychophysiology2019,3.0.5,59.905319758047106,
To what extent did the music make you feel ,ANGRY,30MonoWAV/30MonoF1.wav,1,2,2,1,,,,,0,2,2,0,0,1,1,2,,,,,,,,,1,1.5853519719967153,082,001,2019_Aug_28_0909,MusicAffectPsychophysiology2019,3.0.5,59.905319758047106,
To what extent did the music make you feel ,TENDER,30MonoWAV/30MonoF1.wav,1,2,2,1,,,,,0,2,2,0,0,2,2,10,,,,,,,,,1,2.185570215980988,082,001,2019_Aug_28_0909,MusicAffectPsychophysiology2019,3.0.5,59.905319758047106,
To what extent did the music make you feel ,GUILTY,30MonoWAV/30MonoF1.wav,1,2,2,1,,,,,0,2,2,0,0,3,3,5,,,,,,,,,1,1.286066569009563,082,001,2019_Aug_28_0909,MusicAffectPsychophysiology2019,3.0.5,59.905319758047106,
To what extent did the music make you feel ,SCARED,30MonoWAV/30MonoF1.wav,1,2,2,1,,,,,0,2,2,0,0,4,4,11,,,,,,,,,2,2.086557361006271,082,001,2019_Aug_28_0909,MusicAffectPsychophysiology2019,3.0.5,59.905319758047106,
To what extent did the music make you feel ,ACTIVE,30MonoWAV/30MonoF1.wav,1,2,2,1,,,,,0,2,2,0,0,5,5,9,,,,,,,,,2,0.8526913670066278,082,001,2019_Aug_28_0909,MusicAffectPsychophysiology2019,3.0.5,59.905319758047106,
To what extent did the music make you feel ,ANXIOUS ,30MonoWAV/30MonoF1.wav,1,2,2,1,,,,,0,2,2,0,0,6,6,1,,,,,,,,,2,1.3829203580098692,082,001,2019_Aug_28_0909,MusicAffectPsychophysiology2019,3.0.5,59.905319758047106,
To what extent did the music make you feel ,SAD,30MonoWAV/30MonoF1.wav,1,2,2,1,,,,,0,2,2,0,0,7,7,0,,,,,,,,,2,1.7495482740050647,082,001,2019_Aug_28_0909,MusicAffectPsychophysiology2019,3.0.5,59.905319758047106,
To what extent did the music make you feel ,ALERT,30MonoWAV/30MonoF1.wav,1,2,2,1,,,,,0,2,2,0,0,8,8,8,,,,,,,,,2,3.1525355839985423,082,001,2019_Aug_28_0909,MusicAffectPsychophysiology2019,3.0.5,59.905319758047106,
To what extent did the music make you feel ,ASHAMED,30MonoWAV/30MonoF1.wav,1,2,2,1,,,,,0,2,2,0,0,9,9,4,,,,,,,,,1,1.1353487629967276,082,001,2019_Aug_28_0909,MusicAffectPsychophysiology2019,3.0.5,59.905319758047106,
To what extent did the music make you feel ,FRUSTRATED,30MonoWAV/30MonoF1.wav,1,2,2,1,,,,,0,2,2,0,0,10,10,3,,,,,,,,,1,1.1190698689897545,082,001,2019_Aug_28_0909,MusicAffectPsychophysiology2019,3.0.5,59.905319758047106,
To what extent did the music make you feel ,HAPPY,30MonoWAV/30MonoF1.wav,1,2,2,1,,,,,0,2,2,0,0,11,11,6,,,,,,,,,1,1.3362109469890129,082,001,2019_Aug_28_0909,MusicAffectPsychophysiology2019,3.0.5,59.905319758047106,
,,30MonoWAV/30MonoF1.wav,1,2,2,1,,,,,0,2,2,0,,,,,,,,,,,,,,,082,001,2019_Aug_28_0909,MusicAffectPsychophysiology2019,3.0.5,59.905319758047106,
To what extent did the music make you feel ,GUILTY,30MonoWAV/30MonoH4.wav,2,2,1,8,,,,,0,3,3,7,0,0,0,5,,,4,7.352140339004109,3,1.586161187995458,3,3.969303983001737,1,1.7272300979821011,082,001,2019_Aug_28_0909,MusicAffectPsychophysiology2019,3.0.5,59.905319758047106,
To what extent did the music make you feel ,FRUSTRATED,30MonoWAV/30MonoH4.wav,2,2,1,8,,,,,0,3,3,7,0,1,1,3,,,,,,,,,1,0.7261773500067648,082,001,2019_Aug_28_0909,MusicAffectPsychophysiology2019,3.0.5,59.905319758047106,
To what extent did the music make you feel ,ASHAMED,30MonoWAV/30MonoH4.wav,2,2,1,8,,,,,0,3,3,7,0,2,2,4,,,,,,,,,1,0.9864209560037125,082,001,2019_Aug_28_0909,MusicAffectPsychophysiology2019,3.0.5,59.905319758047106,
To what extent did the music make you feel ,ALERT,30MonoWAV/30MonoH4.wav,2,2,1,8,,,,,0,3,3,7,0,3,3,8,,,,,,,,,2,1.568584305990953,082,001,2019_Aug_28_0909,MusicAffectPsychophysiology2019,3.0.5,59.905319758047106,
To what extent did the music make you feel ,SAD,30MonoWAV/30MonoH4.wav,2,2,1,8,,,,,0,3,3,7,0,4,4,0,,,,,,,,,1,1.1199505879776552,082,001,2019_Aug_28_0909,MusicAffectPsychophysiology2019,3.0.5,59.905319758047106,
To what extent did the music make you feel ,EXCITED,30MonoWAV/30MonoH4.wav,2,2,1,8,,,,,0,3,3,7,0,5,5,7,,,,,,,,,3,1.0021306250127964,082,001,2019_Aug_28_0909,MusicAffectPsychophysiology2019,3.0.5,59.905319758047106,
To what extent did the music make you feel ,TENDER,30MonoWAV/30MonoH4.wav,2,2,1,8,,,,,0,3,3,7,0,6,6,10,,,,,,,,,3,0.7860559039982036,082,001,2019_Aug_28_0909,MusicAffectPsychophysiology2019,3.0.5,59.905319758047106,
To what extent did the music make you feel ,ACTIVE,30MonoWAV/30MonoH4.wav,2,2,1,8,,,,,0,3,3,7,0,7,7,9,,,,,,,,,3,0.8024887760111596,082,001,2019_Aug_28_0909,MusicAffectPsychophysiology2019,3.0.5,59.905319758047106,
To what extent did the music make you feel ,SCARED,30MonoWAV/30MonoH4.wav,2,2,1,8,,,,,0,3,3,7,0,8,8,11,,,,,,,,,1,0.9186121270176955,082,001,2019_Aug_28_0909,MusicAffectPsychophysiology2019,3.0.5,59.905319758047106,
To what extent did the music make you feel ,ANGRY,30MonoWAV/30MonoH4.wav,2,2,1,8,,,,,0,3,3,7,0,9,9,2,,,,,,,,,1,0.8032185609918088,082,001,2019_Aug_28_0909,MusicAffectPsychophysiology2019,3.0.5,59.905319758047106,
To what extent did the music make you feel ,ANXIOUS ,30MonoWAV/30MonoH4.wav,2,2,1,8,,,,,0,3,3,7,0,10,10,1,,,,,,,,,1,0.7874834350077435,082,001,2019_Aug_28_0909,MusicAffectPsychophysiology2019,3.0.5,59.905319758047106,
To what extent did the music make you feel ,HAPPY,30MonoWAV/30MonoH4.wav,2,2,1,8,,,,,0,3,3,7,0,11,11,6,,,,,,,,,3,0.81942459999118,082,001,2019_Aug_28_0909,MusicAffectPsychophysiology2019,3.0.5,59.905319758047106,
,,30MonoWAV/30MonoH4.wav,2,2,1,8,,,,,0,3,3,7,,,,,,,,,,,,,,,082,001,2019_Aug_28_0909,MusicAffectPsychophysiology2019,3.0.5,59.905319758047106,
To what extent did the music make you feel ,SCARED,30MonoWAV/30MonoF4.wav,1,2,2,4,,,,,0,4,4,3,0,0,0,11,,,4,7.03338627400808,3,1.9195258539984934,3,2.3855615940119606,2,1.6194251329870895,082,001,2019_Aug_28_0909,MusicAffectPsychophysiology2019,3.0.5,59.905319758047106,
To what extent did the music make you feel ,ASHAMED,30MonoWAV/30MonoF4.wav,1,2,2,4,,,,,0,4,4,3,0,1,1,4,,,,,,,,,1,0.851848438003799,082,001,2019_Aug_28_0909,MusicAffectPsychophysiology2019,3.0.5,59.905319758047106,
To what extent did the music make you feel ,EXCITED,30MonoWAV/30MonoF4.wav,1,2,2,4,,,,,0,4,4,3,0,2,2,7,,,,,,,,,2,1.2692987059999723,082,001,2019_Aug_28_0909,MusicAffectPsychophysiology2019,3.0.5,59.905319758047106,
To what extent did the music make you feel ,ACTIVE,30MonoWAV/30MonoF4.wav,1,2,2,4,,,,,0,4,4,3,0,3,3,9,,,,,,,,,3,1.237549280980602,082,001,2019_Aug_28_0909,MusicAffectPsychophysiology2019,3.0.5,59.905319758047106,
To what extent did the music make you feel ,ANXIOUS ,30MonoWAV/30MonoF4.wav,1,2,2,4,,,,,0,4,4,3,0,4,4,1,,,,,,,,,2,1.3865811819850933,082,001,2019_Aug_28_0909,MusicAffectPsychophysiology2019,3.0.5,59.905319758047106,
To what extent did the music make you feel ,SAD,30MonoWAV/30MonoF4.wav,1,2,2,4,,,,,0,4,4,3,0,5,5,0,,,,,,,,,2,1.235941418010043,082,001,2019_Aug_28_0909,MusicAffectPsychophysiology2019,3.0.5,59.905319758047106,
To what extent did the music make you feel ,FRUSTRATED,30MonoWAV/30MonoF4.wav,1,2,2,4,,,,,0,4,4,3,0,6,6,3,,,,,,,,,1,0.9357922600174788,082,001,2019_Aug_28_0909,MusicAffectPsychophysiology2019,3.0.5,59.905319758047106,
To what extent did the music make you feel ,ALERT,30MonoWAV/30MonoF4.wav,1,2,2,4,,,,,0,4,4,3,0,7,7,8,,,,,,,,,2,0.9504326730093453,082,001,2019_Aug_28_0909,MusicAffectPsychophysiology2019,3.0.5,59.905319758047106,
To what extent did the music make you feel ,ANGRY,30MonoWAV/30MonoF4.wav,1,2,2,4,,,,,0,4,4,3,0,8,8,2,,,,,,,,,1,0.9190510390035342,082,001,2019_Aug_28_0909,MusicAffectPsychophysiology2019,3.0.5,59.905319758047106,
To what extent did the music make you feel ,TENDER,30MonoWAV/30MonoF4.wav,1,2,2,4,,,,,0,4,4,3,0,9,9,10,,,,,,,,,2,1.4691307869798038,082,001,2019_Aug_28_0909,MusicAffectPsychophysiology2019,3.0.5,59.905319758047106,
To what extent did the music make you feel ,HAPPY,30MonoWAV/30MonoF4.wav,1,2,2,4,,,,,0,4,4,3,0,10,10,6,,,,,,,,,1,1.0529025830037426,082,001,2019_Aug_28_0909,MusicAffectPsychophysiology2019,3.0.5,59.905319758047106,
To what extent did the music make you feel ,GUILTY,30MonoWAV/30MonoF4.wav,1,2,2,4,,,,,0,4,4,3,0,11,11,5,,,,,,,,,1,1.5853284999902826,082,001,2019_Aug_28_0909,MusicAffectPsychophysiology2019,3.0.5,59.905319758047106,
,,30MonoWAV/30MonoF4.wav,1,2,2,4,,,,,0,4,4,3,,,,,,,,,,,,,,,082,001,2019_Aug_28_0909,MusicAffectPsychophysiology2019,3.0.5,59.905319758047106,
To what extent did the music make you feel ,ANXIOUS ,30MonoWAV/30MonoS2.wav,1,1,3,10,,,,,0,5,5,9,0,0,0,1,,,5,3.5702049550018273,3,3.0683248699933756,5,1.486503266991349,1,1.9648674039926846,082,001,2019_Aug_28_0909,MusicAffectPsychophysiology2019,3.0.5,59.905319758047106,
To what extent did the music make you feel ,HAPPY,30MonoWAV/30MonoS2.wav,1,1,3,10,,,,,0,5,5,9,0,1,1,6,,,,,,,,,1,2.1190656750113703,082,001,2019_Aug_28_0909,MusicAffectPsychophysiology2019,3.0.5,59.905319758047106,
To what extent did the music make you feel ,SCARED,30MonoWAV/30MonoS2.wav,1,1,3,10,,,,,0,5,5,9,0,2,2,11,,,,,,,,,1,0.8521218910173047,082,001,2019_Aug_28_0909,MusicAffectPsychophysiology2019,3.0.5,59.905319758047106,
To what extent did the music make you feel ,TENDER,30MonoWAV/30MonoS2.wav,1,1,3,10,,,,,0,5,5,9,0,3,3,10,,,,,,,,,5,2.3677319400012493,082,001,2019_Aug_28_0909,MusicAffectPsychophysiology2019,3.0.5,59.905319758047106,
To what extent did the music make you feel ,SAD,30MonoWAV/30MonoS2.wav,1,1,3,10,,,,,0,5,5,9,0,4,4,0,,,,,,,,,5,0.9357596370100509,082,001,2019_Aug_28_0909,MusicAffectPsychophysiology2019,3.0.5,59.905319758047106,
To what extent did the music make you feel ,ACTIVE,30MonoWAV/30MonoS2.wav,1,1,3,10,,,,,0,5,5,9,0,5,5,9,,,,,,,,,2,1.4362933879892807,082,001,2019_Aug_28_0909,MusicAffectPsychophysiology2019,3.0.5,59.905319758047106,
To what extent did the music make you feel ,ALERT,30MonoWAV/30MonoS2.wav,1,1,3,10,,,,,0,5,5,9,0,6,6,8,,,,,,,,,1,1.3027714640193153,082,001,2019_Aug_28_0909,MusicAffectPsychophysiology2019,3.0.5,59.905319758047106,
To what extent did the music make you feel ,ASHAMED,30MonoWAV/30MonoS2.wav,1,1,3,10,,,,,0,5,5,9,0,7,7,4,,,,,,,,,1,0.6351246389967855,082,001,2019_Aug_28_0909,MusicAffectPsychophysiology2019,3.0.5,59.905319758047106,
To what extent did the music make you feel ,GUILTY,30MonoWAV/30MonoS2.wav,1,1,3,10,,,,,0,5,5,9,0,8,8,5,,,,,,,,,1,0.6862437459931243,082,001,2019_Aug_28_0909,MusicAffectPsychophysiology2019,3.0.5,59.905319758047106,
To what extent did the music make you feel ,EXCITED,30MonoWAV/30MonoS2.wav,1,1,3,10,,,,,0,5,5,9,0,9,9,7,,,,,,,,,1,1.2006207469967194,082,001,2019_Aug_28_0909,MusicAffectPsychophysiology2019,3.0.5,59.905319758047106,
To what extent did the music make you feel ,FRUSTRATED,30MonoWAV/30MonoS2.wav,1,1,3,10,,,,,0,5,5,9,0,10,10,3,,,,,,,,,1,0.8535571340180468,082,001,2019_Aug_28_0909,MusicAffectPsychophysiology2019,3.0.5,59.905319758047106,
To what extent did the music make you feel ,ANGRY,30MonoWAV/30MonoS2.wav,1,1,3,10,,,,,0,5,5,9,0,11,11,2,,,,,,,,,1,0.802703385008499,082,001,2019_Aug_28_0909,MusicAffectPsychophysiology2019,3.0.5,59.905319758047106,
,,30MonoWAV/30MonoS2.wav,1,1,3,10,,,,,0,5,5,9,,,,,,,,,,,,,,,082,001,2019_Aug_28_0909,MusicAffectPsychophysiology2019,3.0.5,59.905319758047106,
To what extent did the music make you feel ,GUILTY,30MonoWAV/30MonoT3.wav,2,1,4,15,,,,,0,6,6,14,0,0,0,5,,,4,7.102456758002518,5,1.1010577989800368,5,2.383531807019608,1,2.488636289985152,082,001,2019_Aug_28_0909,MusicAffectPsychophysiology2019,3.0.5,59.905319758047106,
To what extent did the music make you feel ,ASHAMED,30MonoWAV/30MonoT3.wav,2,1,4,15,,,,,0,6,6,14,0,1,1,4,,,,,,,,,1,1.1871908680186607,082,001,2019_Aug_28_0909,MusicAffectPsychophysiology2019,3.0.5,59.905319758047106,
To what extent did the music make you feel ,EXCITED,30MonoWAV/30MonoT3.wav,2,1,4,15,,,,,0,6,6,14,0,2,2,7,,,,,,,,,3,2.2052468600159045,082,001,2019_Aug_28_0909,MusicAffectPsychophysiology2019,3.0.5,59.905319758047106,
To what extent did the music make you feel ,ALERT,30MonoWAV/30MonoT3.wav,2,1,4,15,,,,,0,6,6,14,0,3,3,8,,,,,,,,,2,1.3372041959955823,082,001,2019_Aug_28_0909,MusicAffectPsychophysiology2019,3.0.5,59.905319758047106,
To what extent did the music make you feel ,HAPPY,30MonoWAV/30MonoT3.wav,2,1,4,15,,,,,0,6,6,14,0,4,4,6,,,,,,,,,5,1.819905013020616,082,001,2019_Aug_28_0909,MusicAffectPsychophysiology2019,3.0.5,59.905319758047106,
To what extent did the music make you feel ,ACTIVE,30MonoWAV/30MonoT3.wav,2,1,4,15,,,,,0,6,6,14,0,5,5,9,,,,,,,,,2,1.8519325869856402,082,001,2019_Aug_28_0909,MusicAffectPsychophysiology2019,3.0.5,59.905319758047106,
To what extent did the music make you feel ,ANXIOUS ,30MonoWAV/30MonoT3.wav,2,1,4,15,,,,,0,6,6,14,0,6,6,1,,,,,,,,,1,1.0692342259862926,082,001,2019_Aug_28_0909,MusicAffectPsychophysiology2019,3.0.5,59.905319758047106,
To what extent did the music make you feel ,FRUSTRATED,30MonoWAV/30MonoT3.wav,2,1,4,15,,,,,0,6,6,14,0,7,7,3,,,,,,,,,1,0.9693687929830048,082,001,2019_Aug_28_0909,MusicAffectPsychophysiology2019,3.0.5,59.905319758047106,
To what extent did the music make you feel ,ANGRY,30MonoWAV/30MonoT3.wav,2,1,4,15,,,,,0,6,6,14,0,8,8,2,,,,,,,,,1,0.8871750819962472,082,001,2019_Aug_28_0909,MusicAffectPsychophysiology2019,3.0.5,59.905319758047106,
To what extent did the music make you feel ,SAD,30MonoWAV/30MonoT3.wav,2,1,4,15,,,,,0,6,6,14,0,9,9,0,,,,,,,,,2,2.135247299011098,082,001,2019_Aug_28_0909,MusicAffectPsychophysiology2019,3.0.5,59.905319758047106,
To what extent did the music make you feel ,SCARED,30MonoWAV/30MonoT3.wav,2,1,4,15,,,,,0,6,6,14,0,10,10,11,,,,,,,,,1,1.1704183999972884,082,001,2019_Aug_28_0909,MusicAffectPsychophysiology2019,3.0.5,59.905319758047106,
To what extent did the music make you feel ,TENDER,30MonoWAV/30MonoT3.wav,2,1,4,15,,,,,0,6,6,14,0,11,11,10,,,,,,,,,5,1.5355500750010833,082,001,2019_Aug_28_0909,MusicAffectPsychophysiology2019,3.0.5,59.905319758047106,
,,30MonoWAV/30MonoT3.wav,2,1,4,15,,,,,0,6,6,14,,,,,,,,,,,,,,,082,001,2019_Aug_28_0909,MusicAffectPsychophysiology2019,3.0.5,59.905319758047106,
To what extent did the music make you feel ,ACTIVE,30MonoWAV/30MonoS4.wav,1,1,3,12,,,,,0,7,7,11,0,0,0,9,,,3,8.284777471009875,4,5.002324861998204,5,1.5527895390114281,1,1.765167002013186,082,001,2019_Aug_28_0909,MusicAffectPsychophysiology2019,3.0.5,59.905319758047106,
To what extent did the music make you feel ,ALERT,30MonoWAV/30MonoS4.wav,1,1,3,12,,,,,0,7,7,11,0,1,1,8,,,,,,,,,1,1.9191439409914892,082,001,2019_Aug_28_0909,MusicAffectPsychophysiology2019,3.0.5,59.905319758047106,
To what extent did the music make you feel ,FRUSTRATED,30MonoWAV/30MonoS4.wav,1,1,3,12,,,,,0,7,7,11,0,2,2,3,,,,,,,,,2,1.1349394370045047,082,001,2019_Aug_28_0909,MusicAffectPsychophysiology2019,3.0.5,59.905319758047106,
To what extent did the music make you feel ,ANGRY,30MonoWAV/30MonoS4.wav,1,1,3,12,,,,,0,7,7,11,0,3,3,2,,,,,,,,,1,0.8195209219993558,082,001,2019_Aug_28_0909,MusicAffectPsychophysiology2019,3.0.5,59.905319758047106,
To what extent did the music make you feel ,ANXIOUS ,30MonoWAV/30MonoS4.wav,1,1,3,12,,,,,0,7,7,11,0,4,4,1,,,,,,,,,2,2.019519565976225,082,001,2019_Aug_28_0909,MusicAffectPsychophysiology2019,3.0.5,59.905319758047106,
To what extent did the music make you feel ,GUILTY,30MonoWAV/30MonoS4.wav,1,1,3,12,,,,,0,7,7,11,0,5,5,5,,,,,,,,,2,1.0865648799808696,082,001,2019_Aug_28_0909,MusicAffectPsychophysiology2019,3.0.5,59.905319758047106,
To what extent did the music make you feel ,EXCITED,30MonoWAV/30MonoS4.wav,1,1,3,12,,,,,0,7,7,11,0,6,6,7,,,,,,,,,1,2.1027868360106368,082,001,2019_Aug_28_0909,MusicAffectPsychophysiology2019,3.0.5,59.905319758047106,
To what extent did the music make you feel ,SCARED,30MonoWAV/30MonoS4.wav,1,1,3,12,,,,,0,7,7,11,0,7,7,11,,,,,,,,,1,0.904884913994465,082,001,2019_Aug_28_0909,MusicAffectPsychophysiology2019,3.0.5,59.905319758047106,
To what extent did the music make you feel ,HAPPY,30MonoWAV/30MonoS4.wav,1,1,3,12,,,,,0,7,7,11,0,8,8,6,,,,,,,,,2,2.351997024990851,082,001,2019_Aug_28_0909,MusicAffectPsychophysiology2019,3.0.5,59.905319758047106,
To what extent did the music make you feel ,ASHAMED,30MonoWAV/30MonoS4.wav,1,1,3,12,,,,,0,7,7,11,0,9,9,4,,,,,,,,,1,1.6037211480143014,082,001,2019_Aug_28_0909,MusicAffectPsychophysiology2019,3.0.5,59.905319758047106,
To what extent did the music make you feel ,TENDER,30MonoWAV/30MonoS4.wav,1,1,3,12,,,,,0,7,7,11,0,10,10,10,,,,,,,,,5,2.101389540010132,082,001,2019_Aug_28_0909,MusicAffectPsychophysiology2019,3.0.5,59.905319758047106,
To what extent did the music make you feel ,SAD,30MonoWAV/30MonoS4.wav,1,1,3,12,,,,,0,7,7,11,0,11,11,0,,,,,,,,,4,1.9861480180115905,082,001,2019_Aug_28_0909,MusicAffectPsychophysiology2019,3.0.5,59.905319758047106,
,,30MonoWAV/30MonoS4.wav,1,1,3,12,,,,,0,7,7,11,,,,,,,,,,,,,,,082,001,2019_Aug_28_0909,MusicAffectPsychophysiology2019,3.0.5,59.905319758047106,
To what extent did the music make you feel ,SCARED,30MonoWAV/30MonoT2.wav,2,1,4,14,,,,,0,8,8,13,0,0,0,11,,,5,3.9031003870186396,5,1.4024390510166995,5,1.519227597018471,1,1.290352644980885,082,001,2019_Aug_28_0909,MusicAffectPsychophysiology2019,3.0.5,59.905319758047106,
To what extent did the music make you feel ,ASHAMED,30MonoWAV/30MonoT2.wav,2,1,4,14,,,,,0,8,8,13,0,1,1,4,,,,,,,,,1,0.7364310069824569,082,001,2019_Aug_28_0909,MusicAffectPsychophysiology2019,3.0.5,59.905319758047106,
To what extent did the music make you feel ,ALERT,30MonoWAV/30MonoT2.wav,2,1,4,14,,,,,0,8,8,13,0,2,2,8,,,,,,,,,2,1.2021611859963741,082,001,2019_Aug_28_0909,MusicAffectPsychophysiology2019,3.0.5,59.905319758047106,
To what extent did the music make you feel ,GUILTY,30MonoWAV/30MonoT2.wav,2,1,4,14,,,,,0,8,8,13,0,3,3,5,,,,,,,,,1,1.1198083209746983,082,001,2019_Aug_28_0909,MusicAffectPsychophysiology2019,3.0.5,59.905319758047106,
To what extent did the music make you feel ,SAD,30MonoWAV/30MonoT2.wav,2,1,4,14,,,,,0,8,8,13,0,4,4,0,,,,,,,,,3,2.4184338449849747,082,001,2019_Aug_28_0909,MusicAffectPsychophysiology2019,3.0.5,59.905319758047106,
To what extent did the music make you feel ,EXCITED,30MonoWAV/30MonoT2.wav,2,1,4,14,,,,,0,8,8,13,0,5,5,7,,,,,,,,,4,1.3865920870157424,082,001,2019_Aug_28_0909,MusicAffectPsychophysiology2019,3.0.5,59.905319758047106,
To what extent did the music make you feel ,HAPPY,30MonoWAV/30MonoT2.wav,2,1,4,14,,,,,0,8,8,13,0,6,6,6,,,,,,,,,4,0.6703668209956959,082,001,2019_Aug_28_0909,MusicAffectPsychophysiology2019,3.0.5,59.905319758047106,
To what extent did the music make you feel ,ACTIVE,30MonoWAV/30MonoT2.wav,2,1,4,14,,,,,0,8,8,13,0,7,7,9,,,,,,,,,2,1.3524758869898506,082,001,2019_Aug_28_0909,MusicAffectPsychophysiology2019,3.0.5,59.905319758047106,
To what extent did the music make you feel ,TENDER,30MonoWAV/30MonoT2.wav,2,1,4,14,,,,,0,8,8,13,0,8,8,10,,,,,,,,,4,0.7194869200175162,082,001,2019_Aug_28_0909,MusicAffectPsychophysiology2019,3.0.5,59.905319758047106,
To what extent did the music make you feel ,ANGRY,30MonoWAV/30MonoT2.wav,2,1,4,14,,,,,0,8,8,13,0,9,9,2,,,,,,,,,1,1.4025193700217642,082,001,2019_Aug_28_0909,MusicAffectPsychophysiology2019,3.0.5,59.905319758047106,
To what extent did the music make you feel ,FRUSTRATED,30MonoWAV/30MonoT2.wav,2,1,4,14,,,,,0,8,8,13,0,10,10,3,,,,,,,,,1,1.7858723419776652,082,001,2019_Aug_28_0909,MusicAffectPsychophysiology2019,3.0.5,59.905319758047106,
To what extent did the music make you feel ,ANXIOUS ,30MonoWAV/30MonoT2.wav,2,1,4,14,,,,,0,8,8,13,0,11,11,1,,,,,,,,,1,1.4686515269859228,082,001,2019_Aug_28_0909,MusicAffectPsychophysiology2019,3.0.5,59.905319758047106,
,,30MonoWAV/30MonoT2.wav,2,1,4,14,,,,,0,8,8,13,,,,,,,,,,,,,,,082,001,2019_Aug_28_0909,MusicAffectPsychophysiology2019,3.0.5,59.905319758047106,
To what extent did the music make you feel ,GUILTY,30MonoWAV/30MonoT1.wav,2,1,4,13,,,,,0,9,9,12,0,0,0,5,,,4,3.586067986994749,4,1.9190041010151617,5,0.6518971280020196,2,1.5010803760087583,082,001,2019_Aug_28_0909,MusicAffectPsychophysiology2019,3.0.5,59.905319758047106,
To what extent did the music make you feel ,ACTIVE,30MonoWAV/30MonoT1.wav,2,1,4,13,,,,,0,9,9,12,0,1,1,9,,,,,,,,,3,1.5538892759941518,082,001,2019_Aug_28_0909,MusicAffectPsychophysiology2019,3.0.5,59.905319758047106,
To what extent did the music make you feel ,HAPPY,30MonoWAV/30MonoT1.wav,2,1,4,13,,,,,0,9,9,12,0,2,2,6,,,,,,,,,2,1.8516863419790752,082,001,2019_Aug_28_0909,MusicAffectPsychophysiology2019,3.0.5,59.905319758047106,
To what extent did the music make you feel ,ANGRY,30MonoWAV/30MonoT1.wav,2,1,4,13,,,,,0,9,9,12,0,3,3,2,,,,,,,,,1,1.4361469320137985,082,001,2019_Aug_28_0909,MusicAffectPsychophysiology2019,3.0.5,59.905319758047106,
To what extent did the music make you feel ,ASHAMED,30MonoWAV/30MonoT1.wav,2,1,4,13,,,,,0,9,9,12,0,4,4,4,,,,,,,,,1,1.469010763015831,082,001,2019_Aug_28_0909,MusicAffectPsychophysiology2019,3.0.5,59.905319758047106,
To what extent did the music make you feel ,SAD,30MonoWAV/30MonoT1.wav,2,1,4,13,,,,,0,9,9,12,0,5,5,0,,,,,,,,,2,1.5015499159926549,082,001,2019_Aug_28_0909,MusicAffectPsychophysiology2019,3.0.5,59.905319758047106,
To what extent did the music make you feel ,EXCITED,30MonoWAV/30MonoT1.wav,2,1,4,13,,,,,0,9,9,12,0,6,6,7,,,,,,,,,1,1.2172887919878121,082,001,2019_Aug_28_0909,MusicAffectPsychophysiology2019,3.0.5,59.905319758047106,
To what extent did the music make you feel ,ANXIOUS ,30MonoWAV/30MonoT1.wav,2,1,4,13,,,,,0,9,9,12,0,7,7,1,,,,,,,,,1,1.0026037970092148,082,001,2019_Aug_28_0909,MusicAffectPsychophysiology2019,3.0.5,59.905319758047106,
To what extent did the music make you feel ,SCARED,30MonoWAV/30MonoT1.wav,2,1,4,13,,,,,0,9,9,12,0,8,8,11,,,,,,,,,1,1.0689288809953723,082,001,2019_Aug_28_0909,MusicAffectPsychophysiology2019,3.0.5,59.905319758047106,
To what extent did the music make you feel ,TENDER,30MonoWAV/30MonoT1.wav,2,1,4,13,,,,,0,9,9,12,0,9,9,10,,,,,,,,,5,1.7520042420073878,082,001,2019_Aug_28_0909,MusicAffectPsychophysiology2019,3.0.5,59.905319758047106,
To what extent did the music make you feel ,FRUSTRATED,30MonoWAV/30MonoT1.wav,2,1,4,13,,,,,0,9,9,12,0,10,10,3,,,,,,,,,1,1.0859057290072087,082,001,2019_Aug_28_0909,MusicAffectPsychophysiology2019,3.0.5,59.905319758047106,
To what extent did the music make you feel ,ALERT,30MonoWAV/30MonoT1.wav,2,1,4,13,,,,,0,9,9,12,0,11,11,8,,,,,,,,,1,1.1865329089923762,082,001,2019_Aug_28_0909,MusicAffectPsychophysiology2019,3.0.5,59.905319758047106,
,,30MonoWAV/30MonoT1.wav,2,1,4,13,,,,,0,9,9,12,,,,,,,,,,,,,,,082,001,2019_Aug_28_0909,MusicAffectPsychophysiology2019,3.0.5,59.905319758047106,
To what extent did the music make you feel ,ACTIVE,30MonoWAV/30MonoH2.wav,2,2,1,6,,,,,0,10,10,5,0,0,0,9,,,5,2.185948672995437,5,0.8684489039878827,4,1.1013669399835635,5,3.2601024910109118,082,001,2019_Aug_28_0909,MusicAffectPsychophysiology2019,3.0.5,59.905319758047106,
To what extent did the music make you feel ,SAD,30MonoWAV/30MonoH2.wav,2,2,1,6,,,,,0,10,10,5,0,1,1,0,,,,,,,,,2,1.686192631983431,082,001,2019_Aug_28_0909,MusicAffectPsychophysiology2019,3.0.5,59.905319758047106,
To what extent did the music make you feel ,FRUSTRATED,30MonoWAV/30MonoH2.wav,2,2,1,6,,,,,0,10,10,5,0,2,2,3,,,,,,,,,1,1.2198523819970433,082,001,2019_Aug_28_0909,MusicAffectPsychophysiology2019,3.0.5,59.905319758047106,
To what extent did the music make you feel ,ANXIOUS ,30MonoWAV/30MonoH2.wav,2,2,1,6,,,,,0,10,10,5,0,3,3,1,,,,,,,,,1,1.1869456169952173,082,001,2019_Aug_28_0909,MusicAffectPsychophysiology2019,3.0.5,59.905319758047106,
To what extent did the music make you feel ,SCARED,30MonoWAV/30MonoH2.wav,2,2,1,6,,,,,0,10,10,5,0,4,4,11,,,,,,,,,1,0.652682913991157,082,001,2019_Aug_28_0909,MusicAffectPsychophysiology2019,3.0.5,59.905319758047106,
To what extent did the music make you feel ,ALERT,30MonoWAV/30MonoH2.wav,2,2,1,6,,,,,0,10,10,5,0,5,5,8,,,,,,,,,5,2.9868583700153977,082,001,2019_Aug_28_0909,MusicAffectPsychophysiology2019,3.0.5,59.905319758047106,
To what extent did the music make you feel ,EXCITED,30MonoWAV/30MonoH2.wav,2,2,1,6,,,,,0,10,10,5,0,6,6,7,,,,,,,,,5,1.0830134650168475,082,001,2019_Aug_28_0909,MusicAffectPsychophysiology2019,3.0.5,59.905319758047106,
To what extent did the music make you feel ,HAPPY,30MonoWAV/30MonoH2.wav,2,2,1,6,,,,,0,10,10,5,0,7,7,6,,,,,,,,,5,0.6517647569999099,082,001,2019_Aug_28_0909,MusicAffectPsychophysiology2019,3.0.5,59.905319758047106,
To what extent did the music make you feel ,ASHAMED,30MonoWAV/30MonoH2.wav,2,2,1,6,,,,,0,10,10,5,0,8,8,4,,,,,,,,,1,1.0856729469960555,082,001,2019_Aug_28_0909,MusicAffectPsychophysiology2019,3.0.5,59.905319758047106,
To what extent did the music make you feel ,TENDER,30MonoWAV/30MonoH2.wav,2,2,1,6,,,,,0,10,10,5,0,9,9,10,,,,,,,,,5,1.6849371250136755,082,001,2019_Aug_28_0909,MusicAffectPsychophysiology2019,3.0.5,59.905319758047106,
To what extent did the music make you feel ,ANGRY,30MonoWAV/30MonoH2.wav,2,2,1,6,,,,,0,10,10,5,0,10,10,2,,,,,,,,,1,0.8023952909861691,082,001,2019_Aug_28_0909,MusicAffectPsychophysiology2019,3.0.5,59.905319758047106,
To what extent did the music make you feel ,GUILTY,30MonoWAV/30MonoH2.wav,2,2,1,6,,,,,0,10,10,5,0,11,11,5,,,,,,,,,1,0.7847408959933091,082,001,2019_Aug_28_0909,MusicAffectPsychophysiology2019,3.0.5,59.905319758047106,
,,30MonoWAV/30MonoH2.wav,2,2,1,6,,,,,0,10,10,5,,,,,,,,,,,,,,,082,001,2019_Aug_28_0909,MusicAffectPsychophysiology2019,3.0.5,59.905319758047106,
To what extent did the music make you feel ,GUILTY,30MonoWAV/30MonoT4.wav,2,1,4,16,,,,,0,11,11,15,0,0,0,5,,,5,7.334199178003473,5,1.5698580760217737,5,1.051933683018433,1,2.219966025004396,082,001,2019_Aug_28_0909,MusicAffectPsychophysiology2019,3.0.5,59.905319758047106,
To what extent did the music make you feel ,ALERT,30MonoWAV/30MonoT4.wav,2,1,4,16,,,,,0,11,11,15,0,1,1,8,,,,,,,,,1,1.35082670499105,082,001,2019_Aug_28_0909,MusicAffectPsychophysiology2019,3.0.5,59.905319758047106,
To what extent did the music make you feel ,ANGRY,30MonoWAV/30MonoT4.wav,2,1,4,16,,,,,0,11,11,15,0,2,2,2,,,,,,,,,1,0.9357318910188042,082,001,2019_Aug_28_0909,MusicAffectPsychophysiology2019,3.0.5,59.905319758047106,
To what extent did the music make you feel ,EXCITED,30MonoWAV/30MonoT4.wav,2,1,4,16,,,,,0,11,11,15,0,3,3,7,,,,,,,,,4,1.9847332189965528,082,001,2019_Aug_28_0909,MusicAffectPsychophysiology2019,3.0.5,59.905319758047106,
To what extent did the music make you feel ,FRUSTRATED,30MonoWAV/30MonoT4.wav,2,1,4,16,,,,,0,11,11,15,0,4,4,3,,,,,,,,,1,1.187889669003198,082,001,2019_Aug_28_0909,MusicAffectPsychophysiology2019,3.0.5,59.905319758047106,
To what extent did the music make you feel ,SCARED,30MonoWAV/30MonoT4.wav,2,1,4,16,,,,,0,11,11,15,0,5,5,11,,,,,,,,,1,0.9544544839882292,082,001,2019_Aug_28_0909,MusicAffectPsychophysiology2019,3.0.5,59.905319758047106,
To what extent did the music make you feel ,ASHAMED,30MonoWAV/30MonoT4.wav,2,1,4,16,,,,,0,11,11,15,0,6,6,4,,,,,,,,,1,1.1863761090207845,082,001,2019_Aug_28_0909,MusicAffectPsychophysiology2019,3.0.5,59.905319758047106,
To what extent did the music make you feel ,HAPPY,30MonoWAV/30MonoT4.wav,2,1,4,16,,,,,0,11,11,15,0,7,7,6,,,,,,,,,4,1.8017005510046147,082,001,2019_Aug_28_0909,MusicAffectPsychophysiology2019,3.0.5,59.905319758047106,
To what extent did the music make you feel ,TENDER,30MonoWAV/30MonoT4.wav,2,1,4,16,,,,,0,11,11,15,0,8,8,10,,,,,,,,,5,1.1514390440133866,082,001,2019_Aug_28_0909,MusicAffectPsychophysiology2019,3.0.5,59.905319758047106,
To what extent did the music make you feel ,ANXIOUS ,30MonoWAV/30MonoT4.wav,2,1,4,16,,,,,0,11,11,15,0,9,9,1,,,,,,,,,1,1.1695604530104902,082,001,2019_Aug_28_0909,MusicAffectPsychophysiology2019,3.0.5,59.905319758047106,
To what extent did the music make you feel ,SAD,30MonoWAV/30MonoT4.wav,2,1,4,16,,,,,0,11,11,15,0,10,10,0,,,,,,,,,2,2.2682258099957835,082,001,2019_Aug_28_0909,MusicAffectPsychophysiology2019,3.0.5,59.905319758047106,
To what extent did the music make you feel ,ACTIVE,30MonoWAV/30MonoT4.wav,2,1,4,16,,,,,0,11,11,15,0,11,11,9,,,,,,,,,4,3.1693256389989983,082,001,2019_Aug_28_0909,MusicAffectPsychophysiology2019,3.0.5,59.905319758047106,
,,30MonoWAV/30MonoT4.wav,2,1,4,16,,,,,0,11,11,15,,,,,,,,,,,,,,,082,001,2019_Aug_28_0909,MusicAffectPsychophysiology2019,3.0.5,59.905319758047106,
To what extent did the music make you feel ,GUILTY,30MonoWAV/30MonoH3.wav,2,2,1,7,,,,,0,12,12,6,0,0,0,5,,,5,2.751678544009337,4,1.0367412120103836,4,1.00234608197934,1,1.9595432029746007,082,001,2019_Aug_28_0909,MusicAffectPsychophysiology2019,3.0.5,59.905319758047106,
To what extent did the music make you feel ,ANXIOUS ,30MonoWAV/30MonoH3.wav,2,2,1,7,,,,,0,12,12,6,0,1,1,1,,,,,,,,,1,1.835382910008775,082,001,2019_Aug_28_0909,MusicAffectPsychophysiology2019,3.0.5,59.905319758047106,
To what extent did the music make you feel ,FRUSTRATED,30MonoWAV/30MonoH3.wav,2,2,1,7,,,,,0,12,12,6,0,2,2,3,,,,,,,,,1,0.7709828950173687,082,001,2019_Aug_28_0909,MusicAffectPsychophysiology2019,3.0.5,59.905319758047106,
To what extent did the music make you feel ,ALERT,30MonoWAV/30MonoH3.wav,2,2,1,7,,,,,0,12,12,6,0,3,3,8,,,,,,,,,4,2.319206062995363,082,001,2019_Aug_28_0909,MusicAffectPsychophysiology2019,3.0.5,59.905319758047106,
To what extent did the music make you feel ,ACTIVE,30MonoWAV/30MonoH3.wav,2,2,1,7,,,,,0,12,12,6,0,4,4,9,,,,,,,,,4,0.8859908519953024,082,001,2019_Aug_28_0909,MusicAffectPsychophysiology2019,3.0.5,59.905319758047106,
To what extent did the music make you feel ,ANGRY,30MonoWAV/30MonoH3.wav,2,2,1,7,,,,,0,12,12,6,0,5,5,2,,,,,,,,,1,1.5504537780070677,082,001,2019_Aug_28_0909,MusicAffectPsychophysiology2019,3.0.5,59.905319758047106,
To what extent did the music make you feel ,SAD,30MonoWAV/30MonoH3.wav,2,2,1,7,,,,,0,12,12,6,0,6,6,0,,,,,,,,,1,1.1672470660123508,082,001,2019_Aug_28_0909,MusicAffectPsychophysiology2019,3.0.5,59.905319758047106,
To what extent did the music make you feel ,SCARED,30MonoWAV/30MonoH3.wav,2,2,1,7,,,,,0,12,12,6,0,7,7,11,,,,,,,,,1,1.0536511620157398,082,001,2019_Aug_28_0909,MusicAffectPsychophysiology2019,3.0.5,59.905319758047106,
To what extent did the music make you feel ,HAPPY,30MonoWAV/30MonoH3.wav,2,2,1,7,,,,,0,12,12,6,0,8,8,6,,,,,,,,,4,1.7858788360026665,082,001,2019_Aug_28_0909,MusicAffectPsychophysiology2019,3.0.5,59.905319758047106,
To what extent did the music make you feel ,TENDER,30MonoWAV/30MonoH3.wav,2,2,1,7,,,,,0,12,12,6,0,9,9,10,,,,,,,,,4,0.6774493809789419,082,001,2019_Aug_28_0909,MusicAffectPsychophysiology2019,3.0.5,59.905319758047106,
To what extent did the music make you feel ,EXCITED,30MonoWAV/30MonoH3.wav,2,2,1,7,,,,,0,12,12,6,0,10,10,7,,,,,,,,,4,0.701233058993239,082,001,2019_Aug_28_0909,MusicAffectPsychophysiology2019,3.0.5,59.905319758047106,
To what extent did the music make you feel ,ASHAMED,30MonoWAV/30MonoH3.wav,2,2,1,7,,,,,0,12,12,6,0,11,11,4,,,,,,,,,1,0.900394755997695,082,001,2019_Aug_28_0909,MusicAffectPsychophysiology2019,3.0.5,59.905319758047106,
,,30MonoWAV/30MonoH3.wav,2,2,1,7,,,,,0,12,12,6,,,,,,,,,,,,,,,082,001,2019_Aug_28_0909,MusicAffectPsychophysiology2019,3.0.5,59.905319758047106,
To what extent did the music make you feel ,ANGRY,30MonoWAV/30MonoS3.wav,1,1,3,11,,,,,0,13,13,10,0,0,0,2,,,4,7.654563461983344,3,1.986636326997541,5,1.1519135640119202,1,2.605074100982165,082,001,2019_Aug_28_0909,MusicAffectPsychophysiology2019,3.0.5,59.905319758047106,
To what extent did the music make you feel ,SCARED,30MonoWAV/30MonoS3.wav,1,1,3,11,,,,,0,13,13,10,0,1,1,11,,,,,,,,,2,1.336034378997283,082,001,2019_Aug_28_0909,MusicAffectPsychophysiology2019,3.0.5,59.905319758047106,
To what extent did the music make you feel ,HAPPY,30MonoWAV/30MonoS3.wav,1,1,3,11,,,,,0,13,13,10,0,2,2,6,,,,,,,,,1,1.4521842139947694,082,001,2019_Aug_28_0909,MusicAffectPsychophysiology2019,3.0.5,59.905319758047106,
To what extent did the music make you feel ,ASHAMED,30MonoWAV/30MonoS3.wav,1,1,3,11,,,,,0,13,13,10,0,3,3,4,,,,,,,,,2,1.1524901910161134,082,001,2019_Aug_28_0909,MusicAffectPsychophysiology2019,3.0.5,59.905319758047106,
To what extent did the music make you feel ,GUILTY,30MonoWAV/30MonoS3.wav,1,1,3,11,,,,,0,13,13,10,0,4,4,5,,,,,,,,,1,1.1695700220006984,082,001,2019_Aug_28_0909,MusicAffectPsychophysiology2019,3.0.5,59.905319758047106,
To what extent did the music make you feel ,FRUSTRATED,30MonoWAV/30MonoS3.wav,1,1,3,11,,,,,0,13,13,10,0,5,5,3,,,,,,,,,1,0.9008106869878247,082,001,2019_Aug_28_0909,MusicAffectPsychophysiology2019,3.0.5,59.905319758047106,
To what extent did the music make you feel ,ALERT,30MonoWAV/30MonoS3.wav,1,1,3,11,,,,,0,13,13,10,0,6,6,8,,,,,,,,,2,1.5176429270068184,082,001,2019_Aug_28_0909,MusicAffectPsychophysiology2019,3.0.5,59.905319758047106,
To what extent did the music make you feel ,TENDER,30MonoWAV/30MonoS3.wav,1,1,3,11,,,,,0,13,13,10,0,7,7,10,,,,,,,,,3,2.3525490899919532,082,001,2019_Aug_28_0909,MusicAffectPsychophysiology2019,3.0.5,59.905319758047106,
To what extent did the music make you feel ,ACTIVE,30MonoWAV/30MonoS3.wav,1,1,3,11,,,,,0,13,13,10,0,8,8,9,,,,,,,,,2,1.919355620018905,082,001,2019_Aug_28_0909,MusicAffectPsychophysiology2019,3.0.5,59.905319758047106,
To what extent did the music make you feel ,SAD,30MonoWAV/30MonoS3.wav,1,1,3,11,,,,,0,13,13,10,0,9,9,0,,,,,,,,,4,2.183014165988425,082,001,2019_Aug_28_0909,MusicAffectPsychophysiology2019,3.0.5,59.905319758047106,
To what extent did the music make you feel ,ANXIOUS ,30MonoWAV/30MonoS3.wav,1,1,3,11,,,,,0,13,13,10,0,10,10,1,,,,,,,,,5,1.819445691013243,082,001,2019_Aug_28_0909,MusicAffectPsychophysiology2019,3.0.5,59.905319758047106,
To what extent did the music make you feel ,EXCITED,30MonoWAV/30MonoS3.wav,1,1,3,11,,,,,0,13,13,10,0,11,11,7,,,,,,,,,1,1.2183164470188785,082,001,2019_Aug_28_0909,MusicAffectPsychophysiology2019,3.0.5,59.905319758047106,
,,30MonoWAV/30MonoS3.wav,1,1,3,11,,,,,0,13,13,10,,,,,,,,,,,,,,,082,001,2019_Aug_28_0909,MusicAffectPsychophysiology2019,3.0.5,59.905319758047106,
To what extent did the music make you feel ,SAD,30MonoWAV/30MonoS1.wav,1,1,3,9,,,,,0,14,14,8,0,0,0,0,,,3,5.834975412028143,3,1.685479458014015,4,0.9521146579936612,5,2.6484881849901285,082,001,2019_Aug_28_0909,MusicAffectPsychophysiology2019,3.0.5,59.905319758047106,
To what extent did the music make you feel ,ALERT,30MonoWAV/30MonoS1.wav,1,1,3,9,,,,,0,14,14,8,0,1,1,8,,,,,,,,,1,3.070874093013117,082,001,2019_Aug_28_0909,MusicAffectPsychophysiology2019,3.0.5,59.905319758047106,
To what extent did the music make you feel ,HAPPY,30MonoWAV/30MonoS1.wav,1,1,3,9,,,,,0,14,14,8,0,2,2,6,,,,,,,,,3,3.369311074988218,082,001,2019_Aug_28_0909,MusicAffectPsychophysiology2019,3.0.5,59.905319758047106,
To what extent did the music make you feel ,SCARED,30MonoWAV/30MonoS1.wav,1,1,3,9,,,,,0,14,14,8,0,3,3,11,,,,,,,,,2,1.7688771869870834,082,001,2019_Aug_28_0909,MusicAffectPsychophysiology2019,3.0.5,59.905319758047106,
To what extent did the music make you feel ,FRUSTRATED,30MonoWAV/30MonoS1.wav,1,1,3,9,,,,,0,14,14,8,0,4,4,3,,,,,,,,,1,0.9791819020174444,082,001,2019_Aug_28_0909,MusicAffectPsychophysiology2019,3.0.5,59.905319758047106,
To what extent did the music make you feel ,EXCITED,30MonoWAV/30MonoS1.wav,1,1,3,9,,,,,0,14,14,8,0,5,5,7,,,,,,,,,1,1.4698894300090615,082,001,2019_Aug_28_0909,MusicAffectPsychophysiology2019,3.0.5,59.905319758047106,
To what extent did the music make you feel ,ANGRY,30MonoWAV/30MonoS1.wav,1,1,3,9,,,,,0,14,14,8,0,6,6,2,,,,,,,,,1,1.3959306180186104,082,001,2019_Aug_28_0909,MusicAffectPsychophysiology2019,3.0.5,59.905319758047106,
To what extent did the music make you feel ,ACTIVE,30MonoWAV/30MonoS1.wav,1,1,3,9,,,,,0,14,14,8,0,7,7,9,,,,,,,,,2,1.253266175976023,082,001,2019_Aug_28_0909,MusicAffectPsychophysiology2019,3.0.5,59.905319758047106,
To what extent did the music make you feel ,GUILTY,30MonoWAV/30MonoS1.wav,1,1,3,9,,,,,0,14,14,8,0,8,8,5,,,,,,,,,3,1.4369071509863716,082,001,2019_Aug_28_0909,MusicAffectPsychophysiology2019,3.0.5,59.905319758047106,
To what extent did the music make you feel ,ASHAMED,30MonoWAV/30MonoS1.wav,1,1,3,9,,,,,0,14,14,8,0,9,9,4,,,,,,,,,1,2.2174511670018546,082,001,2019_Aug_28_0909,MusicAffectPsychophysiology2019,3.0.5,59.905319758047106,
To what extent did the music make you feel ,TENDER,30MonoWAV/30MonoS1.wav,1,1,3,9,,,,,0,14,14,8,0,10,10,10,,,,,,,,,5,1.8196543979865965,082,001,2019_Aug_28_0909,MusicAffectPsychophysiology2019,3.0.5,59.905319758047106,
To what extent did the music make you feel ,ANXIOUS ,30MonoWAV/30MonoS1.wav,1,1,3,9,,,,,0,14,14,8,0,11,11,1,,,,,,,,,3,3.285847143997671,082,001,2019_Aug_28_0909,MusicAffectPsychophysiology2019,3.0.5,59.905319758047106,
,,30MonoWAV/30MonoS1.wav,1,1,3,9,,,,,0,14,14,8,,,,,,,,,,,,,,,082,001,2019_Aug_28_0909,MusicAffectPsychophysiology2019,3.0.5,59.905319758047106,
To what extent did the music make you feel ,ACTIVE,30MonoWAV/30MonoF3.wav,1,2,2,3,,,,,0,15,15,2,0,0,0,9,,,4,10.73521422498743,3,1.8662184290005825,2,2.4204321159922983,2,3.904576036002254,082,001,2019_Aug_28_0909,MusicAffectPsychophysiology2019,3.0.5,59.905319758047106,
To what extent did the music make you feel ,TENDER,30MonoWAV/30MonoF3.wav,1,2,2,3,,,,,0,15,15,2,0,1,1,10,,,,,,,,,3,1.2034698799834587,082,001,2019_Aug_28_0909,MusicAffectPsychophysiology2019,3.0.5,59.905319758047106,
To what extent did the music make you feel ,ANXIOUS ,30MonoWAV/30MonoF3.wav,1,2,2,3,,,,,0,15,15,2,0,2,2,1,,,,,,,,,3,2.8354447440069634,082,001,2019_Aug_28_0909,MusicAffectPsychophysiology2019,3.0.5,59.905319758047106,
To what extent did the music make you feel ,ANGRY,30MonoWAV/30MonoF3.wav,1,2,2,3,,,,,0,15,15,2,0,3,3,2,,,,,,,,,1,0.9197195509914309,082,001,2019_Aug_28_0909,MusicAffectPsychophysiology2019,3.0.5,59.905319758047106,
To what extent did the music make you feel ,ALERT,30MonoWAV/30MonoF3.wav,1,2,2,3,,,,,0,15,15,2,0,4,4,8,,,,,,,,,1,2.5028246929869056,082,001,2019_Aug_28_0909,MusicAffectPsychophysiology2019,3.0.5,59.905319758047106,
To what extent did the music make you feel ,SAD,30MonoWAV/30MonoF3.wav,1,2,2,3,,,,,0,15,15,2,0,5,5,0,,,,,,,,,2,1.50174537600833,082,001,2019_Aug_28_0909,MusicAffectPsychophysiology2019,3.0.5,59.905319758047106,
To what extent did the music make you feel ,FRUSTRATED,30MonoWAV/30MonoF3.wav,1,2,2,3,,,,,0,15,15,2,0,6,6,3,,,,,,,,,3,1.5687853530107532,082,001,2019_Aug_28_0909,MusicAffectPsychophysiology2019,3.0.5,59.905319758047106,
To what extent did the music make you feel ,HAPPY,30MonoWAV/30MonoF3.wav,1,2,2,3,,,,,0,15,15,2,0,7,7,6,,,,,,,,,1,1.5546267370227724,082,001,2019_Aug_28_0909,MusicAffectPsychophysiology2019,3.0.5,59.905319758047106,
To what extent did the music make you feel ,GUILTY,30MonoWAV/30MonoF3.wav,1,2,2,3,,,,,0,15,15,2,0,8,8,5,,,,,,,,,1,1.1344259879842866,082,001,2019_Aug_28_0909,MusicAffectPsychophysiology2019,3.0.5,59.905319758047106,
To what extent did the music make you feel ,EXCITED,30MonoWAV/30MonoF3.wav,1,2,2,3,,,,,0,15,15,2,0,9,9,7,,,,,,,,,1,0.7531639279914089,082,001,2019_Aug_28_0909,MusicAffectPsychophysiology2019,3.0.5,59.905319758047106,
To what extent did the music make you feel ,SCARED,30MonoWAV/30MonoF3.wav,1,2,2,3,,,,,0,15,15,2,0,10,10,11,,,,,,,,,1,1.6204117269953713,082,001,2019_Aug_28_0909,MusicAffectPsychophysiology2019,3.0.5,59.905319758047106,
To what extent did the music make you feel ,ASHAMED,30MonoWAV/30MonoF3.wav,1,2,2,3,,,,,0,15,15,2,0,11,11,4,,,,,,,,,2,1.2695410599990282,082,001,2019_Aug_28_0909,MusicAffectPsychophysiology2019,3.0.5,59.905319758047106,
,,30MonoWAV/30MonoF3.wav,1,2,2,3,,,,,0,15,15,2,,,,,,,,,,,,,,,082,001,2019_Aug_28_0909,MusicAffectPsychophysiology2019,3.0.5,59.905319758047106,
To what extent did the music make you feel ,ANXIOUS ,30MonoWAV/30MonoT2.wav,2,1,4,14,,,,,1,0,16,13,0,0,0,1,,,4,3.2694601039984263,4,1.1855224150058348,5,0.9197516859858297,2,1.6191067420004401,082,001,2019_Aug_28_0909,MusicAffectPsychophysiology2019,3.0.5,59.905319758047106,
To what extent did the music make you feel ,ASHAMED,30MonoWAV/30MonoT2.wav,2,1,4,14,,,,,1,0,16,13,0,1,1,4,,,,,,,,,1,0.9035006439953577,082,001,2019_Aug_28_0909,MusicAffectPsychophysiology2019,3.0.5,59.905319758047106,
To what extent did the music make you feel ,ACTIVE,30MonoWAV/30MonoT2.wav,2,1,4,14,,,,,1,0,16,13,0,2,2,9,,,,,,,,,3,1.0691461640235502,082,001,2019_Aug_28_0909,MusicAffectPsychophysiology2019,3.0.5,59.905319758047106,
To what extent did the music make you feel ,GUILTY,30MonoWAV/30MonoT2.wav,2,1,4,14,,,,,1,0,16,13,0,3,3,5,,,,,,,,,1,2.102388784987852,082,001,2019_Aug_28_0909,MusicAffectPsychophysiology2019,3.0.5,59.905319758047106,
To what extent did the music make you feel ,ALERT,30MonoWAV/30MonoT2.wav,2,1,4,14,,,,,1,0,16,13,0,4,4,8,,,,,,,,,3,1.000744309014408,082,001,2019_Aug_28_0909,MusicAffectPsychophysiology2019,3.0.5,59.905319758047106,
To what extent did the music make you feel ,HAPPY,30MonoWAV/30MonoT2.wav,2,1,4,14,,,,,1,0,16,13,0,5,5,6,,,,,,,,,5,2.4031610889942385,082,001,2019_Aug_28_0909,MusicAffectPsychophysiology2019,3.0.5,59.905319758047106,
To what extent did the music make you feel ,TENDER,30MonoWAV/30MonoT2.wav,2,1,4,14,,,,,1,0,16,13,0,6,6,10,,,,,,,,,5,3.183304126985604,082,001,2019_Aug_28_0909,MusicAffectPsychophysiology2019,3.0.5,59.905319758047106,
To what extent did the music make you feel ,SCARED,30MonoWAV/30MonoT2.wav,2,1,4,14,,,,,1,0,16,13,0,7,7,11,,,,,,,,,1,1.0364612249832135,082,001,2019_Aug_28_0909,MusicAffectPsychophysiology2019,3.0.5,59.905319758047106,
To what extent did the music make you feel ,SAD,30MonoWAV/30MonoT2.wav,2,1,4,14,,,,,1,0,16,13,0,8,8,0,,,,,,,,,3,3.5846379380091093,082,001,2019_Aug_28_0909,MusicAffectPsychophysiology2019,3.0.5,59.905319758047106,
To what extent did the music make you feel ,FRUSTRATED,30MonoWAV/30MonoT2.wav,2,1,4,14,,,,,1,0,16,13,0,9,9,3,,,,,,,,,1,2.133919932995923,082,001,2019_Aug_28_0909,MusicAffectPsychophysiology2019,3.0.5,59.905319758047106,
To what extent did the music make you feel ,EXCITED,30MonoWAV/30MonoT2.wav,2,1,4,14,,,,,1,0,16,13,0,10,10,7,,,,,,,,,1,0.9680339029873721,082,001,2019_Aug_28_0909,MusicAffectPsychophysiology2019,3.0.5,59.905319758047106,
To what extent did the music make you feel ,ANGRY,30MonoWAV/30MonoT2.wav,2,1,4,14,,,,,1,0,16,13,0,11,11,2,,,,,,,,,1,1.0521408430067822,082,001,2019_Aug_28_0909,MusicAffectPsychophysiology2019,3.0.5,59.905319758047106,
,,30MonoWAV/30MonoT2.wav,2,1,4,14,,,,,1,0,16,13,,,,,,,,,,,,,,,082,001,2019_Aug_28_0909,MusicAffectPsychophysiology2019,3.0.5,59.905319758047106,
To what extent did the music make you feel ,EXCITED,30MonoWAV/30MonoH3.wav,2,2,1,7,,,,,1,1,17,6,0,0,0,7,,,5,1.5857586459896993,5,1.4198908089892939,5,0.8690765469800681,5,1.3072626139910426,082,001,2019_Aug_28_0909,MusicAffectPsychophysiology2019,3.0.5,59.905319758047106,
To what extent did the music make you feel ,ANGRY,30MonoWAV/30MonoH3.wav,2,2,1,7,,,,,1,1,17,6,0,1,1,2,,,,,,,,,1,1.2360963090031873,082,001,2019_Aug_28_0909,MusicAffectPsychophysiology2019,3.0.5,59.905319758047106,
To what extent did the music make you feel ,GUILTY,30MonoWAV/30MonoH3.wav,2,2,1,7,,,,,1,1,17,6,0,2,2,5,,,,,,,,,1,0.9196351509890519,082,001,2019_Aug_28_0909,MusicAffectPsychophysiology2019,3.0.5,59.905319758047106,
To what extent did the music make you feel ,FRUSTRATED,30MonoWAV/30MonoH3.wav,2,2,1,7,,,,,1,1,17,6,0,3,3,3,,,,,,,,,1,0.8033152779971715,082,001,2019_Aug_28_0909,MusicAffectPsychophysiology2019,3.0.5,59.905319758047106,
To what extent did the music make you feel ,ANXIOUS ,30MonoWAV/30MonoH3.wav,2,2,1,7,,,,,1,1,17,6,0,4,4,1,,,,,,,,,2,1.3037868430255912,082,001,2019_Aug_28_0909,MusicAffectPsychophysiology2019,3.0.5,59.905319758047106,
To what extent did the music make you feel ,ALERT,30MonoWAV/30MonoH3.wav,2,2,1,7,,,,,1,1,17,6,0,5,5,8,,,,,,,,,2,0.8359839670010842,082,001,2019_Aug_28_0909,MusicAffectPsychophysiology2019,3.0.5,59.905319758047106,
To what extent did the music make you feel ,ACTIVE,30MonoWAV/30MonoH3.wav,2,2,1,7,,,,,1,1,17,6,0,6,6,9,,,,,,,,,5,4.11875250400044,082,001,2019_Aug_28_0909,MusicAffectPsychophysiology2019,3.0.5,59.905319758047106,
To what extent did the music make you feel ,ASHAMED,30MonoWAV/30MonoH3.wav,2,2,1,7,,,,,1,1,17,6,0,7,7,4,,,,,,,,,1,1.0348091149935499,082,001,2019_Aug_28_0909,MusicAffectPsychophysiology2019,3.0.5,59.905319758047106,
To what extent did the music make you feel ,SCARED,30MonoWAV/30MonoH3.wav,2,2,1,7,,,,,1,1,17,6,0,8,8,11,,,,,,,,,1,0.970207162987208,082,001,2019_Aug_28_0909,MusicAffectPsychophysiology2019,3.0.5,59.905319758047106,
To what extent did the music make you feel ,TENDER,30MonoWAV/30MonoH3.wav,2,2,1,7,,,,,1,1,17,6,0,9,9,10,,,,,,,,,4,1.4038432700035628,082,001,2019_Aug_28_0909,MusicAffectPsychophysiology2019,3.0.5,59.905319758047106,
To what extent did the music make you feel ,SAD,30MonoWAV/30MonoH3.wav,2,2,1,7,,,,,1,1,17,6,0,10,10,0,,,,,,,,,2,1.6201839929854032,082,001,2019_Aug_28_0909,MusicAffectPsychophysiology2019,3.0.5,59.905319758047106,
To what extent did the music make you feel ,HAPPY,30MonoWAV/30MonoH3.wav,2,2,1,7,,,,,1,1,17,6,0,11,11,6,,,,,,,,,5,1.2502835050108843,082,001,2019_Aug_28_0909,MusicAffectPsychophysiology2019,3.0.5,59.905319758047106,
,,30MonoWAV/30MonoH3.wav,2,2,1,7,,,,,1,1,17,6,,,,,,,,,,,,,,,082,001,2019_Aug_28_0909,MusicAffectPsychophysiology2019,3.0.5,59.905319758047106,
To what extent did the music make you feel ,ANXIOUS ,30MonoWAV/30MonoT3.wav,2,1,4,15,,,,,1,2,18,14,0,0,0,1,,,4,4.869069609994767,5,1.016624412004603,5,0.7353974659927189,1,1.7526306609797757,082,001,2019_Aug_28_0909,MusicAffectPsychophysiology2019,3.0.5,59.905319758047106,
To what extent did the music make you feel ,EXCITED,30MonoWAV/30MonoT3.wav,2,1,4,15,,,,,1,2,18,14,0,1,1,7,,,,,,,,,3,2.4010586960066576,082,001,2019_Aug_28_0909,MusicAffectPsychophysiology2019,3.0.5,59.905319758047106,
To what extent did the music make you feel ,GUILTY,30MonoWAV/30MonoT3.wav,2,1,4,15,,,,,1,2,18,14,0,2,2,5,,,,,,,,,2,2.120075792015996,082,001,2019_Aug_28_0909,MusicAffectPsychophysiology2019,3.0.5,59.905319758047106,
To what extent did the music make you feel ,ASHAMED,30MonoWAV/30MonoT3.wav,2,1,4,15,,,,,1,2,18,14,0,3,3,4,,,,,,,,,1,0.7529239360010251,082,001,2019_Aug_28_0909,MusicAffectPsychophysiology2019,3.0.5,59.905319758047106,
To what extent did the music make you feel ,ANGRY,30MonoWAV/30MonoT3.wav,2,1,4,15,,,,,1,2,18,14,0,4,4,2,,,,,,,,,1,0.7182379949954338,082,001,2019_Aug_28_0909,MusicAffectPsychophysiology2019,3.0.5,59.905319758047106,
To what extent did the music make you feel ,ALERT,30MonoWAV/30MonoT3.wav,2,1,4,15,,,,,1,2,18,14,0,5,5,8,,,,,,,,,1,0.8357555840048008,082,001,2019_Aug_28_0909,MusicAffectPsychophysiology2019,3.0.5,59.905319758047106,
To what extent did the music make you feel ,SCARED,30MonoWAV/30MonoT3.wav,2,1,4,15,,,,,1,2,18,14,0,6,6,11,,,,,,,,,1,0.6693139090202749,082,001,2019_Aug_28_0909,MusicAffectPsychophysiology2019,3.0.5,59.905319758047106,
To what extent did the music make you feel ,FRUSTRATED,30MonoWAV/30MonoT3.wav,2,1,4,15,,,,,1,2,18,14,0,7,7,3,,,,,,,,,1,0.8030824189772829,082,001,2019_Aug_28_0909,MusicAffectPsychophysiology2019,3.0.5,59.905319758047106,
To what extent did the music make you feel ,SAD,30MonoWAV/30MonoT3.wav,2,1,4,15,,,,,1,2,18,14,0,8,8,0,,,,,,,,,4,2.9522101969923824,082,001,2019_Aug_28_0909,MusicAffectPsychophysiology2019,3.0.5,59.905319758047106,
To what extent did the music make you feel ,ACTIVE,30MonoWAV/30MonoT3.wav,2,1,4,15,,,,,1,2,18,14,0,9,9,9,,,,,,,,,4,1.5853654550155625,082,001,2019_Aug_28_0909,MusicAffectPsychophysiology2019,3.0.5,59.905319758047106,
To what extent did the music make you feel ,HAPPY,30MonoWAV/30MonoT3.wav,2,1,4,15,,,,,1,2,18,14,0,10,10,6,,,,,,,,,3,2.019785413023783,082,001,2019_Aug_28_0909,MusicAffectPsychophysiology2019,3.0.5,59.905319758047106,
To what extent did the music make you feel ,TENDER,30MonoWAV/30MonoT3.wav,2,1,4,15,,,,,1,2,18,14,0,11,11,10,,,,,,,,,5,1.30253329500556,082,001,2019_Aug_28_0909,MusicAffectPsychophysiology2019,3.0.5,59.905319758047106,
,,30MonoWAV/30MonoT3.wav,2,1,4,15,,,,,1,2,18,14,,,,,,,,,,,,,,,082,001,2019_Aug_28_0909,MusicAffectPsychophysiology2019,3.0.5,59.905319758047106,
To what extent did the music make you feel ,HAPPY,30MonoWAV/30MonoF3.wav,1,2,2,3,,,,,1,3,19,2,0,0,0,6,,,5,3.685510663985042,3,1.802919419016689,2,2.1862668489920907,1,3.3940173760056496,082,001,2019_Aug_28_0909,MusicAffectPsychophysiology2019,3.0.5,59.905319758047106,
To what extent did the music make you feel ,ACTIVE,30MonoWAV/30MonoF3.wav,1,2,2,3,,,,,1,3,19,2,0,1,1,9,,,,,,,,,4,2.141145689005498,082,001,2019_Aug_28_0909,MusicAffectPsychophysiology2019,3.0.5,59.905319758047106,
To what extent did the music make you feel ,ASHAMED,30MonoWAV/30MonoF3.wav,1,2,2,3,,,,,1,3,19,2,0,2,2,4,,,,,,,,,1,1.1672687490063254,082,001,2019_Aug_28_0909,MusicAffectPsychophysiology2019,3.0.5,59.905319758047106,
To what extent did the music make you feel ,SAD,30MonoWAV/30MonoF3.wav,1,2,2,3,,,,,1,3,19,2,0,3,3,0,,,,,,,,,3,1.385534806002397,082,001,2019_Aug_28_0909,MusicAffectPsychophysiology2019,3.0.5,59.905319758047106,
To what extent did the music make you feel ,FRUSTRATED,30MonoWAV/30MonoF3.wav,1,2,2,3,,,,,1,3,19,2,0,4,4,3,,,,,,,,,3,1.2002492989995517,082,001,2019_Aug_28_0909,MusicAffectPsychophysiology2019,3.0.5,59.905319758047106,
To what extent did the music make you feel ,ALERT,30MonoWAV/30MonoF3.wav,1,2,2,3,,,,,1,3,19,2,0,5,5,8,,,,,,,,,3,1.536621922015911,082,001,2019_Aug_28_0909,MusicAffectPsychophysiology2019,3.0.5,59.905319758047106,
To what extent did the music make you feel ,TENDER,30MonoWAV/30MonoF3.wav,1,2,2,3,,,,,1,3,19,2,0,6,6,10,,,,,,,,,1,1.2030800469801761,082,001,2019_Aug_28_0909,MusicAffectPsychophysiology2019,3.0.5,59.905319758047106,
To what extent did the music make you feel ,EXCITED,30MonoWAV/30MonoF3.wav,1,2,2,3,,,,,1,3,19,2,0,7,7,7,,,,,,,,,2,3.1528510350035504,082,001,2019_Aug_28_0909,MusicAffectPsychophysiology2019,3.0.5,59.905319758047106,
To what extent did the music make you feel ,ANXIOUS ,30MonoWAV/30MonoF3.wav,1,2,2,3,,,,,1,3,19,2,0,8,8,1,,,,,,,,,3,1.968327048001811,082,001,2019_Aug_28_0909,MusicAffectPsychophysiology2019,3.0.5,59.905319758047106,
To what extent did the music make you feel ,SCARED,30MonoWAV/30MonoF3.wav,1,2,2,3,,,,,1,3,19,2,0,9,9,11,,,,,,,,,3,1.6373464450007305,082,001,2019_Aug_28_0909,MusicAffectPsychophysiology2019,3.0.5,59.905319758047106,
To what extent did the music make you feel ,ANGRY,30MonoWAV/30MonoF3.wav,1,2,2,3,,,,,1,3,19,2,0,10,10,2,,,,,,,,,1,1.5008106800087262,082,001,2019_Aug_28_0909,MusicAffectPsychophysiology2019,3.0.5,59.905319758047106,
To what extent did the music make you feel ,GUILTY,30MonoWAV/30MonoF3.wav,1,2,2,3,,,,,1,3,19,2,0,11,11,5,,,,,,,,,1,2.036288539005909,082,001,2019_Aug_28_0909,MusicAffectPsychophysiology2019,3.0.5,59.905319758047106,
,,30MonoWAV/30MonoF3.wav,1,2,2,3,,,,,1,3,19,2,,,,,,,,,,,,,,,082,001,2019_Aug_28_0909,MusicAffectPsychophysiology2019,3.0.5,59.905319758047106,
To what extent did the music make you feel ,ASHAMED,30MonoWAV/30MonoS3.wav,1,1,3,11,,,,,1,4,20,10,0,0,0,4,,,5,3.935247924993746,3,2.8517555269936565,4,1.8856721420015674,3,3.0019477309833746,082,001,2019_Aug_28_0909,MusicAffectPsychophysiology2019,3.0.5,59.905319758047106,
To what extent did the music make you feel ,ANXIOUS ,30MonoWAV/30MonoS3.wav,1,1,3,11,,,,,1,4,20,10,0,1,1,1,,,,,,,,,3,0.6203203399782069,082,001,2019_Aug_28_0909,MusicAffectPsychophysiology2019,3.0.5,59.905319758047106,
To what extent did the music make you feel ,FRUSTRATED,30MonoWAV/30MonoS3.wav,1,1,3,11,,,,,1,4,20,10,0,2,2,3,,,,,,,,,1,1.7027198540163226,082,001,2019_Aug_28_0909,MusicAffectPsychophysiology2019,3.0.5,59.905319758047106,
To what extent did the music make you feel ,SCARED,30MonoWAV/30MonoS3.wav,1,1,3,11,,,,,1,4,20,10,0,3,3,11,,,,,,,,,2,0.9355087190051563,082,001,2019_Aug_28_0909,MusicAffectPsychophysiology2019,3.0.5,59.905319758047106,
To what extent did the music make you feel ,ALERT,30MonoWAV/30MonoS3.wav,1,1,3,11,,,,,1,4,20,10,0,4,4,8,,,,,,,,,3,1.2200079259928316,082,001,2019_Aug_28_0909,MusicAffectPsychophysiology2019,3.0.5,59.905319758047106,
To what extent did the music make you feel ,HAPPY,30MonoWAV/30MonoS3.wav,1,1,3,11,,,,,1,4,20,10,0,5,5,6,,,,,,,,,1,1.1530963460099883,082,001,2019_Aug_28_0909,MusicAffectPsychophysiology2019,3.0.5,59.905319758047106,
To what extent did the music make you feel ,EXCITED,30MonoWAV/30MonoS3.wav,1,1,3,11,,,,,1,4,20,10,0,6,6,7,,,,,,,,,2,3.4349068099982105,082,001,2019_Aug_28_0909,MusicAffectPsychophysiology2019,3.0.5,59.905319758047106,
To what extent did the music make you feel ,SAD,30MonoWAV/30MonoS3.wav,1,1,3,11,,,,,1,4,20,10,0,7,7,0,,,,,,,,,4,2.4022411729965825,082,001,2019_Aug_28_0909,MusicAffectPsychophysiology2019,3.0.5,59.905319758047106,
To what extent did the music make you feel ,ACTIVE,30MonoWAV/30MonoS3.wav,1,1,3,11,,,,,1,4,20,10,0,8,8,9,,,,,,,,,3,1.2514249740052037,082,001,2019_Aug_28_0909,MusicAffectPsychophysiology2019,3.0.5,59.905319758047106,
To what extent did the music make you feel ,TENDER,30MonoWAV/30MonoS3.wav,1,1,3,11,,,,,1,4,20,10,0,9,9,10,,,,,,,,,4,1.4020653539919294,082,001,2019_Aug_28_0909,MusicAffectPsychophysiology2019,3.0.5,59.905319758047106,
To what extent did the music make you feel ,ANGRY,30MonoWAV/30MonoS3.wav,1,1,3,11,,,,,1,4,20,10,0,10,10,2,,,,,,,,,1,1.2197362300066743,082,001,2019_Aug_28_0909,MusicAffectPsychophysiology2019,3.0.5,59.905319758047106,
To what extent did the music make you feel ,GUILTY,30MonoWAV/30MonoS3.wav,1,1,3,11,,,,,1,4,20,10,0,11,11,5,,,,,,,,,2,0.9362249610130675,082,001,2019_Aug_28_0909,MusicAffectPsychophysiology2019,3.0.5,59.905319758047106,
,,30MonoWAV/30MonoS3.wav,1,1,3,11,,,,,1,4,20,10,,,,,,,,,,,,,,,082,001,2019_Aug_28_0909,MusicAffectPsychophysiology2019,3.0.5,59.905319758047106,
To what extent did the music make you feel ,GUILTY,30MonoWAV/30MonoH1.wav,2,2,1,5,,,,,1,5,21,4,0,0,0,5,,,4,2.999902668001596,4,1.5857652509876061,3,1.4006706140062306,1,1.8850269289978314,082,001,2019_Aug_28_0909,MusicAffectPsychophysiology2019,3.0.5,59.905319758047106,
To what extent did the music make you feel ,ANXIOUS ,30MonoWAV/30MonoH1.wav,2,2,1,5,,,,,1,5,21,4,0,1,1,1,,,,,,,,,2,1.1349239989940543,082,001,2019_Aug_28_0909,MusicAffectPsychophysiology2019,3.0.5,59.905319758047106,
To what extent did the music make you feel ,ACTIVE,30MonoWAV/30MonoH1.wav,2,2,1,5,,,,,1,5,21,4,0,2,2,9,,,,,,,,,3,1.0021088370122015,082,001,2019_Aug_28_0909,MusicAffectPsychophysiology2019,3.0.5,59.905319758047106,
To what extent did the music make you feel ,ASHAMED,30MonoWAV/30MonoH1.wav,2,2,1,5,,,,,1,5,21,4,0,3,3,4,,,,,,,,,1,1.6351073620026,082,001,2019_Aug_28_0909,MusicAffectPsychophysiology2019,3.0.5,59.905319758047106,
To what extent did the music make you feel ,SAD,30MonoWAV/30MonoH1.wav,2,2,1,5,,,,,1,5,21,4,0,4,4,0,,,,,,,,,3,1.2866564659925643,082,001,2019_Aug_28_0909,MusicAffectPsychophysiology2019,3.0.5,59.905319758047106,
To what extent did the music make you feel ,EXCITED,30MonoWAV/30MonoH1.wav,2,2,1,5,,,,,1,5,21,4,0,5,5,7,,,,,,,,,3,1.4519898149883375,082,001,2019_Aug_28_0909,MusicAffectPsychophysiology2019,3.0.5,59.905319758047106,
To what extent did the music make you feel ,ANGRY,30MonoWAV/30MonoH1.wav,2,2,1,5,,,,,1,5,21,4,0,6,6,2,,,,,,,,,1,0.953513505985029,082,001,2019_Aug_28_0909,MusicAffectPsychophysiology2019,3.0.5,59.905319758047106,
To what extent did the music make you feel ,ALERT,30MonoWAV/30MonoH1.wav,2,2,1,5,,,,,1,5,21,4,0,7,7,8,,,,,,,,,3,1.3865718680026475,082,001,2019_Aug_28_0909,MusicAffectPsychophysiology2019,3.0.5,59.905319758047106,
To what extent did the music make you feel ,FRUSTRATED,30MonoWAV/30MonoH1.wav,2,2,1,5,,,,,1,5,21,4,0,8,8,3,,,,,,,,,1,1.225530894997064,082,001,2019_Aug_28_0909,MusicAffectPsychophysiology2019,3.0.5,59.905319758047106,
To what extent did the music make you feel ,SCARED,30MonoWAV/30MonoH1.wav,2,2,1,5,,,,,1,5,21,4,0,9,9,11,,,,,,,,,1,1.003189076000126,082,001,2019_Aug_28_0909,MusicAffectPsychophysiology2019,3.0.5,59.905319758047106,
To what extent did the music make you feel ,HAPPY,30MonoWAV/30MonoH1.wav,2,2,1,5,,,,,1,5,21,4,0,10,10,6,,,,,,,,,4,1.5188430180132855,082,001,2019_Aug_28_0909,MusicAffectPsychophysiology2019,3.0.5,59.905319758047106,
To what extent did the music make you feel ,TENDER,30MonoWAV/30MonoH1.wav,2,2,1,5,,,,,1,5,21,4,0,11,11,10,,,,,,,,,5,1.2694057099870406,082,001,2019_Aug_28_0909,MusicAffectPsychophysiology2019,3.0.5,59.905319758047106,
,,30MonoWAV/30MonoH1.wav,2,2,1,5,,,,,1,5,21,4,,,,,,,,,,,,,,,082,001,2019_Aug_28_0909,MusicAffectPsychophysiology2019,3.0.5,59.905319758047106,
To what extent did the music make you feel ,FRUSTRATED,30MonoWAV/30MonoH2.wav,2,2,1,6,,,,,1,6,22,5,0,0,0,3,,,5,4.2192790060071275,4,1.0025618550134823,4,1.8530433830164839,1,5.1185757020139135,082,001,2019_Aug_28_0909,MusicAffectPsychophysiology2019,3.0.5,59.905319758047106,
To what extent did the music make you feel ,HAPPY,30MonoWAV/30MonoH2.wav,2,2,1,6,,,,,1,6,22,5,0,1,1,6,,,,,,,,,3,1.5693071649875492,082,001,2019_Aug_28_0909,MusicAffectPsychophysiology2019,3.0.5,59.905319758047106,
To what extent did the music make you feel ,SAD,30MonoWAV/30MonoH2.wav,2,2,1,6,,,,,1,6,22,5,0,2,2,0,,,,,,,,,2,1.0344948960118927,082,001,2019_Aug_28_0909,MusicAffectPsychophysiology2019,3.0.5,59.905319758047106,
To what extent did the music make you feel ,SCARED,30MonoWAV/30MonoH2.wav,2,2,1,6,,,,,1,6,22,5,0,3,3,11,,,,,,,,,1,0.9504703349957708,082,001,2019_Aug_28_0909,MusicAffectPsychophysiology2019,3.0.5,59.905319758047106,
To what extent did the music make you feel ,EXCITED,30MonoWAV/30MonoH2.wav,2,2,1,6,,,,,1,6,22,5,0,4,4,7,,,,,,,,,3,1.587220265995711,082,001,2019_Aug_28_0909,MusicAffectPsychophysiology2019,3.0.5,59.905319758047106,
To what extent did the music make you feel ,ACTIVE,30MonoWAV/30MonoH2.wav,2,2,1,6,,,,,1,6,22,5,0,5,5,9,,,,,,,,,3,0.8027028609940317,082,001,2019_Aug_28_0909,MusicAffectPsychophysiology2019,3.0.5,59.905319758047106,
To what extent did the music make you feel ,TENDER,30MonoWAV/30MonoH2.wav,2,2,1,6,,,,,1,6,22,5,0,6,6,10,,,,,,,,,3,0.8202596630144399,082,001,2019_Aug_28_0909,MusicAffectPsychophysiology2019,3.0.5,59.905319758047106,
To what extent did the music make you feel ,GUILTY,30MonoWAV/30MonoH2.wav,2,2,1,6,,,,,1,6,22,5,0,7,7,5,,,,,,,,,1,0.8358530730183702,082,001,2019_Aug_28_0909,MusicAffectPsychophysiology2019,3.0.5,59.905319758047106,
To what extent did the music make you feel ,ASHAMED,30MonoWAV/30MonoH2.wav,2,2,1,6,,,,,1,6,22,5,0,8,8,4,,,,,,,,,1,1.119500191998668,082,001,2019_Aug_28_0909,MusicAffectPsychophysiology2019,3.0.5,59.905319758047106,
To what extent did the music make you feel ,ANXIOUS ,30MonoWAV/30MonoH2.wav,2,2,1,6,,,,,1,6,22,5,0,9,9,1,,,,,,,,,1,1.2694836749869864,082,001,2019_Aug_28_0909,MusicAffectPsychophysiology2019,3.0.5,59.905319758047106,
To what extent did the music make you feel ,ALERT,30MonoWAV/30MonoH2.wav,2,2,1,6,,,,,1,6,22,5,0,10,10,8,,,,,,,,,3,1.0687871509871911,082,001,2019_Aug_28_0909,MusicAffectPsychophysiology2019,3.0.5,59.905319758047106,
To what extent did the music make you feel ,ANGRY,30MonoWAV/30MonoH2.wav,2,2,1,6,,,,,1,6,22,5,0,11,11,2,,,,,,,,,1,0.8362749210209586,082,001,2019_Aug_28_0909,MusicAffectPsychophysiology2019,3.0.5,59.905319758047106,
,,30MonoWAV/30MonoH2.wav,2,2,1,6,,,,,1,6,22,5,,,,,,,,,,,,,,,082,001,2019_Aug_28_0909,MusicAffectPsychophysiology2019,3.0.5,59.905319758047106,
To what extent did the music make you feel ,TENDER,30MonoWAV/30MonoF4.wav,1,2,2,4,,,,,1,7,23,3,0,0,0,10,,,5,1.721188308991259,3,1.7026779849838931,5,0.9860057510086335,2,1.5149407290155068,082,001,2019_Aug_28_0909,MusicAffectPsychophysiology2019,3.0.5,59.905319758047106,
To what extent did the music make you feel ,SCARED,30MonoWAV/30MonoF4.wav,1,2,2,4,,,,,1,7,23,3,0,1,1,11,,,,,,,,,3,3.120811583008617,082,001,2019_Aug_28_0909,MusicAffectPsychophysiology2019,3.0.5,59.905319758047106,
To what extent did the music make you feel ,ANGRY,30MonoWAV/30MonoF4.wav,1,2,2,4,,,,,1,7,23,3,0,2,2,2,,,,,,,,,2,1.6196114449994639,082,001,2019_Aug_28_0909,MusicAffectPsychophysiology2019,3.0.5,59.905319758047106,
To what extent did the music make you feel ,ACTIVE,30MonoWAV/30MonoF4.wav,1,2,2,4,,,,,1,7,23,3,0,3,3,9,,,,,,,,,4,1.5691317550081294,082,001,2019_Aug_28_0909,MusicAffectPsychophysiology2019,3.0.5,59.905319758047106,
To what extent did the music make you feel ,ALERT,30MonoWAV/30MonoF4.wav,1,2,2,4,,,,,1,7,23,3,0,4,4,8,,,,,,,,,5,1.401730508019682,082,001,2019_Aug_28_0909,MusicAffectPsychophysiology2019,3.0.5,59.905319758047106,
To what extent did the music make you feel ,HAPPY,30MonoWAV/30MonoF4.wav,1,2,2,4,,,,,1,7,23,3,0,5,5,6,,,,,,,,,2,2.0687340720032807,082,001,2019_Aug_28_0909,MusicAffectPsychophysiology2019,3.0.5,59.905319758047106,
To what extent did the music make you feel ,GUILTY,30MonoWAV/30MonoF4.wav,1,2,2,4,,,,,1,7,23,3,0,6,6,5,,,,,,,,,2,1.153499409003416,082,001,2019_Aug_28_0909,MusicAffectPsychophysiology2019,3.0.5,59.905319758047106,
To what extent did the music make you feel ,ASHAMED,30MonoWAV/30MonoF4.wav,1,2,2,4,,,,,1,7,23,3,0,7,7,4,,,,,,,,,2,0.7692451479961164,082,001,2019_Aug_28_0909,MusicAffectPsychophysiology2019,3.0.5,59.905319758047106,
To what extent did the music make you feel ,SAD,30MonoWAV/30MonoF4.wav,1,2,2,4,,,,,1,7,23,3,0,8,8,0,,,,,,,,,2,1.2201671189977787,082,001,2019_Aug_28_0909,MusicAffectPsychophysiology2019,3.0.5,59.905319758047106,
To what extent did the music make you feel ,ANXIOUS ,30MonoWAV/30MonoF4.wav,1,2,2,4,,,,,1,7,23,3,0,9,9,1,,,,,,,,,3,1.4502933530020528,082,001,2019_Aug_28_0909,MusicAffectPsychophysiology2019,3.0.5,59.905319758047106,
To what extent did the music make you feel ,FRUSTRATED,30MonoWAV/30MonoF4.wav,1,2,2,4,,,,,1,7,23,3,0,10,10,3,,,,,,,,,1,1.085976710979594,082,001,2019_Aug_28_0909,MusicAffectPsychophysiology2019,3.0.5,59.905319758047106,
To what extent did the music make you feel ,EXCITED,30MonoWAV/30MonoF4.wav,1,2,2,4,,,,,1,7,23,3,0,11,11,7,,,,,,,,,3,1.868406950001372,082,001,2019_Aug_28_0909,MusicAffectPsychophysiology2019,3.0.5,59.905319758047106,
,,30MonoWAV/30MonoF4.wav,1,2,2,4,,,,,1,7,23,3,,,,,,,,,,,,,,,082,001,2019_Aug_28_0909,MusicAffectPsychophysiology2019,3.0.5,59.905319758047106,
To what extent did the music make you feel ,ANGRY,30MonoWAV/30MonoT4.wav,2,1,4,16,,,,,1,8,24,15,0,0,0,2,,,5,8.567703298002016,5,1.269954653980676,5,3.9016752089955844,1,1.6228937190026045,082,001,2019_Aug_28_0909,MusicAffectPsychophysiology2019,3.0.5,59.905319758047106,
To what extent did the music make you feel ,GUILTY,30MonoWAV/30MonoT4.wav,2,1,4,16,,,,,1,8,24,15,0,1,1,5,,,,,,,,,1,0.8195663600054104,082,001,2019_Aug_28_0909,MusicAffectPsychophysiology2019,3.0.5,59.905319758047106,
To what extent did the music make you feel ,SCARED,30MonoWAV/30MonoT4.wav,2,1,4,16,,,,,1,8,24,15,0,2,2,11,,,,,,,,,1,0.7536464860022534,082,001,2019_Aug_28_0909,MusicAffectPsychophysiology2019,3.0.5,59.905319758047106,
To what extent did the music make you feel ,ANXIOUS ,30MonoWAV/30MonoT4.wav,2,1,4,16,,,,,1,8,24,15,0,3,3,1,,,,,,,,,2,1.1397297059884295,082,001,2019_Aug_28_0909,MusicAffectPsychophysiology2019,3.0.5,59.905319758047106,
To what extent did the music make you feel ,ACTIVE,30MonoWAV/30MonoT4.wav,2,1,4,16,,,,,1,8,24,15,0,4,4,9,,,,,,,,,4,1.5696458340098616,082,001,2019_Aug_28_0909,MusicAffectPsychophysiology2019,3.0.5,59.905319758047106,
To what extent did the music make you feel ,ALERT,30MonoWAV/30MonoT4.wav,2,1,4,16,,,,,1,8,24,15,0,5,5,8,,,,,,,,,1,1.053873115015449,082,001,2019_Aug_28_0909,MusicAffectPsychophysiology2019,3.0.5,59.905319758047106,
To what extent did the music make you feel ,SAD,30MonoWAV/30MonoT4.wav,2,1,4,16,,,,,1,8,24,15,0,6,6,0,,,,,,,,,2,1.5330644090136047,082,001,2019_Aug_28_0909,MusicAffectPsychophysiology2019,3.0.5,59.905319758047106,
To what extent did the music make you feel ,HAPPY,30MonoWAV/30MonoT4.wav,2,1,4,16,,,,,1,8,24,15,0,7,7,6,,,,,,,,,4,2.219739889987977,082,001,2019_Aug_28_0909,MusicAffectPsychophysiology2019,3.0.5,59.905319758047106,
To what extent did the music make you feel ,TENDER,30MonoWAV/30MonoT4.wav,2,1,4,16,,,,,1,8,24,15,0,8,8,10,,,,,,,,,4,1.4889255299931392,082,001,2019_Aug_28_0909,MusicAffectPsychophysiology2019,3.0.5,59.905319758047106,
To what extent did the music make you feel ,FRUSTRATED,30MonoWAV/30MonoT4.wav,2,1,4,16,,,,,1,8,24,15,0,9,9,3,,,,,,,,,1,3.6037405719980597,082,001,2019_Aug_28_0909,MusicAffectPsychophysiology2019,3.0.5,59.905319758047106,
To what extent did the music make you feel ,EXCITED,30MonoWAV/30MonoT4.wav,2,1,4,16,,,,,1,8,24,15,0,10,10,7,,,,,,,,,3,1.1021958519995678,082,001,2019_Aug_28_0909,MusicAffectPsychophysiology2019,3.0.5,59.905319758047106,
To what extent did the music make you feel ,ASHAMED,30MonoWAV/30MonoT4.wav,2,1,4,16,,,,,1,8,24,15,0,11,11,4,,,,,,,,,1,0.802868597995257,082,001,2019_Aug_28_0909,MusicAffectPsychophysiology2019,3.0.5,59.905319758047106,
,,30MonoWAV/30MonoT4.wav,2,1,4,16,,,,,1,8,24,15,,,,,,,,,,,,,,,082,001,2019_Aug_28_0909,MusicAffectPsychophysiology2019,3.0.5,59.905319758047106,
To what extent did the music make you feel ,ASHAMED,30MonoWAV/30MonoH4.wav,2,2,1,8,,,,,1,9,25,7,0,0,0,4,,,5,4.5684799709997606,4,1.2516599160153419,5,1.5689733270264696,1,3.7200895480054896,082,001,2019_Aug_28_0909,MusicAffectPsychophysiology2019,3.0.5,59.905319758047106,
To what extent did the music make you feel ,TENDER,30MonoWAV/30MonoH4.wav,2,2,1,8,,,,,1,9,25,7,0,1,1,10,,,,,,,,,4,2.1030046849919017,082,001,2019_Aug_28_0909,MusicAffectPsychophysiology2019,3.0.5,59.905319758047106,
To what extent did the music make you feel ,SAD,30MonoWAV/30MonoH4.wav,2,2,1,8,,,,,1,9,25,7,0,2,2,0,,,,,,,,,2,1.2184134790149983,082,001,2019_Aug_28_0909,MusicAffectPsychophysiology2019,3.0.5,59.905319758047106,
To what extent did the music make you feel ,HAPPY,30MonoWAV/30MonoH4.wav,2,2,1,8,,,,,1,9,25,7,0,3,3,6,,,,,,,,,5,1.801321137987543,082,001,2019_Aug_28_0909,MusicAffectPsychophysiology2019,3.0.5,59.905319758047106,
To what extent did the music make you feel ,ALERT,30MonoWAV/30MonoH4.wav,2,2,1,8,,,,,1,9,25,7,0,4,4,8,,,,,,,,,3,2.3363230880058836,082,001,2019_Aug_28_0909,MusicAffectPsychophysiology2019,3.0.5,59.905319758047106,
To what extent did the music make you feel ,ANXIOUS ,30MonoWAV/30MonoH4.wav,2,2,1,8,,,,,1,9,25,7,0,5,5,1,,,,,,,,,2,1.2202213490090799,082,001,2019_Aug_28_0909,MusicAffectPsychophysiology2019,3.0.5,59.905319758047106,
To what extent did the music make you feel ,FRUSTRATED,30MonoWAV/30MonoH4.wav,2,2,1,8,,,,,1,9,25,7,0,6,6,3,,,,,,,,,1,1.0030452490027528,082,001,2019_Aug_28_0909,MusicAffectPsychophysiology2019,3.0.5,59.905319758047106,
To what extent did the music make you feel ,GUILTY,30MonoWAV/30MonoH4.wav,2,2,1,8,,,,,1,9,25,7,0,7,7,5,,,,,,,,,1,1.4526574299961794,082,001,2019_Aug_28_0909,MusicAffectPsychophysiology2019,3.0.5,59.905319758047106,
To what extent did the music make you feel ,EXCITED,30MonoWAV/30MonoH4.wav,2,2,1,8,,,,,1,9,25,7,0,8,8,7,,,,,,,,,4,1.519775631983066,082,001,2019_Aug_28_0909,MusicAffectPsychophysiology2019,3.0.5,59.905319758047106,
To what extent did the music make you feel ,SCARED,30MonoWAV/30MonoH4.wav,2,2,1,8,,,,,1,9,25,7,0,9,9,11,,,,,,,,,1,1.0523821899842005,082,001,2019_Aug_28_0909,MusicAffectPsychophysiology2019,3.0.5,59.905319758047106,
To what extent did the music make you feel ,ACTIVE,30MonoWAV/30MonoH4.wav,2,2,1,8,,,,,1,9,25,7,0,10,10,9,,,,,,,,,5,1.852457132015843,082,001,2019_Aug_28_0909,MusicAffectPsychophysiology2019,3.0.5,59.905319758047106,
To what extent did the music make you feel ,ANGRY,30MonoWAV/30MonoH4.wav,2,2,1,8,,,,,1,9,25,7,0,11,11,2,,,,,,,,,1,1.18361475400161,082,001,2019_Aug_28_0909,MusicAffectPsychophysiology2019,3.0.5,59.905319758047106,
,,30MonoWAV/30MonoH4.wav,2,2,1,8,,,,,1,9,25,7,,,,,,,,,,,,,,,082,001,2019_Aug_28_0909,MusicAffectPsychophysiology2019,3.0.5,59.905319758047106,
To what extent did the music make you feel ,FRUSTRATED,30MonoWAV/30MonoS1.wav,1,1,3,9,,,,,1,10,26,8,0,0,0,3,,,4,3.0835342219797894,4,1.03564760601148,5,0.8687346199876629,1,1.2087980670039542,082,001,2019_Aug_28_0909,MusicAffectPsychophysiology2019,3.0.5,59.905319758047106,
To what extent did the music make you feel ,ALERT,30MonoWAV/30MonoS1.wav,1,1,3,9,,,,,1,10,26,8,0,1,1,8,,,,,,,,,2,1.3027163489896338,082,001,2019_Aug_28_0909,MusicAffectPsychophysiology2019,3.0.5,59.905319758047106,
To what extent did the music make you feel ,GUILTY,30MonoWAV/30MonoS1.wav,1,1,3,9,,,,,1,10,26,8,0,2,2,5,,,,,,,,,1,1.1329653349821456,082,001,2019_Aug_28_0909,MusicAffectPsychophysiology2019,3.0.5,59.905319758047106,
To what extent did the music make you feel ,SCARED,30MonoWAV/30MonoS1.wav,1,1,3,9,,,,,1,10,26,8,0,3,3,11,,,,,,,,,1,1.0027163680060767,082,001,2019_Aug_28_0909,MusicAffectPsychophysiology2019,3.0.5,59.905319758047106,
To what extent did the music make you feel ,TENDER,30MonoWAV/30MonoS1.wav,1,1,3,9,,,,,1,10,26,8,0,4,4,10,,,,,,,,,4,1.1691595030133612,082,001,2019_Aug_28_0909,MusicAffectPsychophysiology2019,3.0.5,59.905319758047106,
To what extent did the music make you feel ,HAPPY,30MonoWAV/30MonoS1.wav,1,1,3,9,,,,,1,10,26,8,0,5,5,6,,,,,,,,,4,0.8193072010180913,082,001,2019_Aug_28_0909,MusicAffectPsychophysiology2019,3.0.5,59.905319758047106,
To what extent did the music make you feel ,ANGRY,30MonoWAV/30MonoS1.wav,1,1,3,9,,,,,1,10,26,8,0,6,6,2,,,,,,,,,1,1.085571482020896,082,001,2019_Aug_28_0909,MusicAffectPsychophysiology2019,3.0.5,59.905319758047106,
To what extent did the music make you feel ,EXCITED,30MonoWAV/30MonoS1.wav,1,1,3,9,,,,,1,10,26,8,0,7,7,7,,,,,,,,,1,2.3348829230235424,082,001,2019_Aug_28_0909,MusicAffectPsychophysiology2019,3.0.5,59.905319758047106,
To what extent did the music make you feel ,ACTIVE,30MonoWAV/30MonoS1.wav,1,1,3,9,,,,,1,10,26,8,0,8,8,9,,,,,,,,,3,2.552765387983527,082,001,2019_Aug_28_0909,MusicAffectPsychophysiology2019,3.0.5,59.905319758047106,
To what extent did the music make you feel ,ASHAMED,30MonoWAV/30MonoS1.wav,1,1,3,9,,,,,1,10,26,8,0,9,9,4,,,,,,,,,1,0.7519770229991991,082,001,2019_Aug_28_0909,MusicAffectPsychophysiology2019,3.0.5,59.905319758047106,
To what extent did the music make you feel ,SAD,30MonoWAV/30MonoS1.wav,1,1,3,9,,,,,1,10,26,8,0,10,10,0,,,,,,,,,1,0.7841424439975526,082,001,2019_Aug_28_0909,MusicAffectPsychophysiology2019,3.0.5,59.905319758047106,
To what extent did the music make you feel ,ANXIOUS ,30MonoWAV/30MonoS1.wav,1,1,3,9,,,,,1,10,26,8,0,11,11,1,,,,,,,,,2,2.0524195570033044,082,001,2019_Aug_28_0909,MusicAffectPsychophysiology2019,3.0.5,59.905319758047106,
,,30MonoWAV/30MonoS1.wav,1,1,3,9,,,,,1,10,26,8,,,,,,,,,,,,,,,082,001,2019_Aug_28_0909,MusicAffectPsychophysiology2019,3.0.5,59.905319758047106,
To what extent did the music make you feel ,GUILTY,30MonoWAV/30MonoT1.wav,2,1,4,13,,,,,1,11,27,12,0,0,0,5,,,4,4.118662770022638,5,0.8835381020035129,4,1.1199997439980507,1,1.6188401760009583,082,001,2019_Aug_28_0909,MusicAffectPsychophysiology2019,3.0.5,59.905319758047106,
To what extent did the music make you feel ,ASHAMED,30MonoWAV/30MonoT1.wav,2,1,4,13,,,,,1,11,27,12,0,1,1,4,,,,,,,,,1,0.7527351969911251,082,001,2019_Aug_28_0909,MusicAffectPsychophysiology2019,3.0.5,59.905319758047106,
To what extent did the music make you feel ,ANXIOUS ,30MonoWAV/30MonoT1.wav,2,1,4,13,,,,,1,11,27,12,0,2,2,1,,,,,,,,,2,2.4669180779892486,082,001,2019_Aug_28_0909,MusicAffectPsychophysiology2019,3.0.5,59.905319758047106,
To what extent did the music make you feel ,SAD,30MonoWAV/30MonoT1.wav,2,1,4,13,,,,,1,11,27,12,0,3,3,0,,,,,,,,,2,1.2185245180153288,082,001,2019_Aug_28_0909,MusicAffectPsychophysiology2019,3.0.5,59.905319758047106,
To what extent did the music make you feel ,ALERT,30MonoWAV/30MonoT1.wav,2,1,4,13,,,,,1,11,27,12,0,4,4,8,,,,,,,,,2,1.58581117799622,082,001,2019_Aug_28_0909,MusicAffectPsychophysiology2019,3.0.5,59.905319758047106,
To what extent did the music make you feel ,EXCITED,30MonoWAV/30MonoT1.wav,2,1,4,13,,,,,1,11,27,12,0,5,5,7,,,,,,,,,4,2.0023510629835073,082,001,2019_Aug_28_0909,MusicAffectPsychophysiology2019,3.0.5,59.905319758047106,
To what extent did the music make you feel ,HAPPY,30MonoWAV/30MonoT1.wav,2,1,4,13,,,,,1,11,27,12,0,6,6,6,,,,,,,,,4,0.6688561899936758,082,001,2019_Aug_28_0909,MusicAffectPsychophysiology2019,3.0.5,59.905319758047106,
To what extent did the music make you feel ,TENDER,30MonoWAV/30MonoT1.wav,2,1,4,13,,,,,1,11,27,12,0,7,7,10,,,,,,,,,4,0.4516389279742725,082,001,2019_Aug_28_0909,MusicAffectPsychophysiology2019,3.0.5,59.905319758047106,
To what extent did the music make you feel ,SCARED,30MonoWAV/30MonoT1.wav,2,1,4,13,,,,,1,11,27,12,0,8,8,11,,,,,,,,,1,0.8015173349995166,082,001,2019_Aug_28_0909,MusicAffectPsychophysiology2019,3.0.5,59.905319758047106,
To what extent did the music make you feel ,FRUSTRATED,30MonoWAV/30MonoT1.wav,2,1,4,13,,,,,1,11,27,12,0,9,9,3,,,,,,,,,1,0.8848745980067179,082,001,2019_Aug_28_0909,MusicAffectPsychophysiology2019,3.0.5,59.905319758047106,
To what extent did the music make you feel ,ACTIVE,30MonoWAV/30MonoT1.wav,2,1,4,13,,,,,1,11,27,12,0,10,10,9,,,,,,,,,2,0.9026759050029796,082,001,2019_Aug_28_0909,MusicAffectPsychophysiology2019,3.0.5,59.905319758047106,
To what extent did the music make you feel ,ANGRY,30MonoWAV/30MonoT1.wav,2,1,4,13,,,,,1,11,27,12,0,11,11,2,,,,,,,,,1,0.8531482309917919,082,001,2019_Aug_28_0909,MusicAffectPsychophysiology2019,3.0.5,59.905319758047106,
,,30MonoWAV/30MonoT1.wav,2,1,4,13,,,,,1,11,27,12,,,,,,,,,,,,,,,082,001,2019_Aug_28_0909,MusicAffectPsychophysiology2019,3.0.5,59.905319758047106,
To what extent did the music make you feel ,SCARED,30MonoWAV/30MonoF2.wav,1,2,2,2,,,,,1,12,28,1,0,0,0,11,,,3,6.051787566015264,2,2.7191557259939145,4,1.2526168519980274,4,3.758506034006132,082,001,2019_Aug_28_0909,MusicAffectPsychophysiology2019,3.0.5,59.905319758047106,
To what extent did the music make you feel ,ANGRY,30MonoWAV/30MonoF2.wav,1,2,2,2,,,,,1,12,28,1,0,1,1,2,,,,,,,,,4,0.8856899980164599,082,001,2019_Aug_28_0909,MusicAffectPsychophysiology2019,3.0.5,59.905319758047106,
To what extent did the music make you feel ,ANXIOUS ,30MonoWAV/30MonoF2.wav,1,2,2,2,,,,,1,12,28,1,0,2,2,1,,,,,,,,,4,0.8018277639930602,082,001,2019_Aug_28_0909,MusicAffectPsychophysiology2019,3.0.5,59.905319758047106,
To what extent did the music make you feel ,TENDER,30MonoWAV/30MonoF2.wav,1,2,2,2,,,,,1,12,28,1,0,3,3,10,,,,,,,,,4,1.768340366979828,082,001,2019_Aug_28_0909,MusicAffectPsychophysiology2019,3.0.5,59.905319758047106,
To what extent did the music make you feel ,EXCITED,30MonoWAV/30MonoF2.wav,1,2,2,2,,,,,1,12,28,1,0,4,4,7,,,,,,,,,2,1.770175730023766,082,001,2019_Aug_28_0909,MusicAffectPsychophysiology2019,3.0.5,59.905319758047106,
To what extent did the music make you feel ,GUILTY,30MonoWAV/30MonoF2.wav,1,2,2,2,,,,,1,12,28,1,0,5,5,5,,,,,,,,,1,1.269091544992989,082,001,2019_Aug_28_0909,MusicAffectPsychophysiology2019,3.0.5,59.905319758047106,
To what extent did the music make you feel ,HAPPY,30MonoWAV/30MonoF2.wav,1,2,2,2,,,,,1,12,28,1,0,6,6,6,,,,,,,,,1,0.9185551709961146,082,001,2019_Aug_28_0909,MusicAffectPsychophysiology2019,3.0.5,59.905319758047106,
To what extent did the music make you feel ,SAD,30MonoWAV/30MonoF2.wav,1,2,2,2,,,,,1,12,28,1,0,7,7,0,,,,,,,,,1,2.133008313976461,082,001,2019_Aug_28_0909,MusicAffectPsychophysiology2019,3.0.5,59.905319758047106,
To what extent did the music make you feel ,ASHAMED,30MonoWAV/30MonoF2.wav,1,2,2,2,,,,,1,12,28,1,0,8,8,4,,,,,,,,,1,1.1529925060167443,082,001,2019_Aug_28_0909,MusicAffectPsychophysiology2019,3.0.5,59.905319758047106,
To what extent did the music make you feel ,ACTIVE,30MonoWAV/30MonoF2.wav,1,2,2,2,,,,,1,12,28,1,0,9,9,9,,,,,,,,,3,1.4702313430025242,082,001,2019_Aug_28_0909,MusicAffectPsychophysiology2019,3.0.5,59.905319758047106,
To what extent did the music make you feel ,ALERT,30MonoWAV/30MonoF2.wav,1,2,2,2,,,,,1,12,28,1,0,10,10,8,,,,,,,,,3,1.0756984830077272,082,001,2019_Aug_28_0909,MusicAffectPsychophysiology2019,3.0.5,59.905319758047106,
To what extent did the music make you feel ,FRUSTRATED,30MonoWAV/30MonoF2.wav,1,2,2,2,,,,,1,12,28,1,0,11,11,3,,,,,,,,,1,1.1922963529941626,082,001,2019_Aug_28_0909,MusicAffectPsychophysiology2019,3.0.5,59.905319758047106,
,,30MonoWAV/30MonoF2.wav,1,2,2,2,,,,,1,12,28,1,,,,,,,,,,,,,,,082,001,2019_Aug_28_0909,MusicAffectPsychophysiology2019,3.0.5,59.905319758047106,
To what extent did the music make you feel ,HAPPY,30MonoWAV/30MonoS4.wav,1,1,3,12,,,,,1,13,29,11,0,0,0,6,,,4,7.568170067999745,4,1.1524903000099584,5,1.253659959998913,2,1.5702392099774443,082,001,2019_Aug_28_0909,MusicAffectPsychophysiology2019,3.0.5,59.905319758047106,
To what extent did the music make you feel ,FRUSTRATED,30MonoWAV/30MonoS4.wav,1,1,3,12,,,,,1,13,29,11,0,1,1,3,,,,,,,,,1,1.5490538080048282,082,001,2019_Aug_28_0909,MusicAffectPsychophysiology2019,3.0.5,59.905319758047106,
To what extent did the music make you feel ,SAD,30MonoWAV/30MonoS4.wav,1,1,3,12,,,,,1,13,29,11,0,2,2,0,,,,,,,,,2,0.935767611983465,082,001,2019_Aug_28_0909,MusicAffectPsychophysiology2019,3.0.5,59.905319758047106,
To what extent did the music make you feel ,ASHAMED,30MonoWAV/30MonoS4.wav,1,1,3,12,,,,,1,13,29,11,0,3,3,4,,,,,,,,,1,0.9358611000061501,082,001,2019_Aug_28_0909,MusicAffectPsychophysiology2019,3.0.5,59.905319758047106,
To what extent did the music make you feel ,ANXIOUS ,30MonoWAV/30MonoS4.wav,1,1,3,12,,,,,1,13,29,11,0,4,4,1,,,,,,,,,2,1.5362822079914622,082,001,2019_Aug_28_0909,MusicAffectPsychophysiology2019,3.0.5,59.905319758047106,
To what extent did the music make you feel ,EXCITED,30MonoWAV/30MonoS4.wav,1,1,3,12,,,,,1,13,29,11,0,5,5,7,,,,,,,,,1,0.9353138009901159,082,001,2019_Aug_28_0909,MusicAffectPsychophysiology2019,3.0.5,59.905319758047106,
To what extent did the music make you feel ,ALERT,30MonoWAV/30MonoS4.wav,1,1,3,12,,,,,1,13,29,11,0,6,6,8,,,,,,,,,4,2.7020552400208544,082,001,2019_Aug_28_0909,MusicAffectPsychophysiology2019,3.0.5,59.905319758047106,
To what extent did the music make you feel ,SCARED,30MonoWAV/30MonoS4.wav,1,1,3,12,,,,,1,13,29,11,0,7,7,11,,,,,,,,,3,1.801820491993567,082,001,2019_Aug_28_0909,MusicAffectPsychophysiology2019,3.0.5,59.905319758047106,
To what extent did the music make you feel ,GUILTY,30MonoWAV/30MonoS4.wav,1,1,3,12,,,,,1,13,29,11,0,8,8,5,,,,,,,,,3,2.0193327990127727,082,001,2019_Aug_28_0909,MusicAffectPsychophysiology2019,3.0.5,59.905319758047106,
To what extent did the music make you feel ,ACTIVE,30MonoWAV/30MonoS4.wav,1,1,3,12,,,,,1,13,29,11,0,9,9,9,,,,,,,,,4,3.30322573101148,082,001,2019_Aug_28_0909,MusicAffectPsychophysiology2019,3.0.5,59.905319758047106,
To what extent did the music make you feel ,TENDER,30MonoWAV/30MonoS4.wav,1,1,3,12,,,,,1,13,29,11,0,10,10,10,,,,,,,,,5,15.781848351005465,082,001,2019_Aug_28_0909,MusicAffectPsychophysiology2019,3.0.5,59.905319758047106,
To what extent did the music make you feel ,ANGRY,30MonoWAV/30MonoS4.wav,1,1,3,12,,,,,1,13,29,11,0,11,11,2,,,,,,,,,2,2.852676854003221,082,001,2019_Aug_28_0909,MusicAffectPsychophysiology2019,3.0.5,59.905319758047106,
,,30MonoWAV/30MonoS4.wav,1,1,3,12,,,,,1,13,29,11,,,,,,,,,,,,,,,082,001,2019_Aug_28_0909,MusicAffectPsychophysiology2019,3.0.5,59.905319758047106,
To what extent did the music make you feel ,ANGRY,30MonoWAV/30MonoF1.wav,1,2,2,1,,,,,1,14,30,0,0,0,0,2,,,5,2.384890206012642,3,3.8169893639860675,5,1.2511775580060203,3,2.536367985972902,082,001,2019_Aug_28_0909,MusicAffectPsychophysiology2019,3.0.5,59.905319758047106,
To what extent did the music make you feel ,ANXIOUS ,30MonoWAV/30MonoF1.wav,1,2,2,1,,,,,1,14,30,0,0,1,1,1,,,,,,,,,2,1.3169290670193732,082,001,2019_Aug_28_0909,MusicAffectPsychophysiology2019,3.0.5,59.905319758047106,
To what extent did the music make you feel ,EXCITED,30MonoWAV/30MonoF1.wav,1,2,2,1,,,,,1,14,30,0,0,2,2,7,,,,,,,,,4,1.4353346299903933,082,001,2019_Aug_28_0909,MusicAffectPsychophysiology2019,3.0.5,59.905319758047106,
To what extent did the music make you feel ,SCARED,30MonoWAV/30MonoF1.wav,1,2,2,1,,,,,1,14,30,0,0,3,3,11,,,,,,,,,3,2.2521688909910154,082,001,2019_Aug_28_0909,MusicAffectPsychophysiology2019,3.0.5,59.905319758047106,
To what extent did the music make you feel ,ALERT,30MonoWAV/30MonoF1.wav,1,2,2,1,,,,,1,14,30,0,0,4,4,8,,,,,,,,,4,0.9172835900099017,082,001,2019_Aug_28_0909,MusicAffectPsychophysiology2019,3.0.5,59.905319758047106,
To what extent did the music make you feel ,HAPPY,30MonoWAV/30MonoF1.wav,1,2,2,1,,,,,1,14,30,0,0,5,5,6,,,,,,,,,1,1.0187566060048994,082,001,2019_Aug_28_0909,MusicAffectPsychophysiology2019,3.0.5,59.905319758047106,
To what extent did the music make you feel ,GUILTY,30MonoWAV/30MonoF1.wav,1,2,2,1,,,,,1,14,30,0,0,6,6,5,,,,,,,,,2,1.1866694490017835,082,001,2019_Aug_28_0909,MusicAffectPsychophysiology2019,3.0.5,59.905319758047106,
To what extent did the music make you feel ,ACTIVE,30MonoWAV/30MonoF1.wav,1,2,2,1,,,,,1,14,30,0,0,7,7,9,,,,,,,,,5,1.9028225160145666,082,001,2019_Aug_28_0909,MusicAffectPsychophysiology2019,3.0.5,59.905319758047106,
To what extent did the music make you feel ,SAD,30MonoWAV/30MonoF1.wav,1,2,2,1,,,,,1,14,30,0,0,8,8,0,,,,,,,,,2,1.168061767006293,082,001,2019_Aug_28_0909,MusicAffectPsychophysiology2019,3.0.5,59.905319758047106,
To what extent did the music make you feel ,ASHAMED,30MonoWAV/30MonoF1.wav,1,2,2,1,,,,,1,14,30,0,0,9,9,4,,,,,,,,,1,0.9527387999987695,082,001,2019_Aug_28_0909,MusicAffectPsychophysiology2019,3.0.5,59.905319758047106,
To what extent did the music make you feel ,TENDER,30MonoWAV/30MonoF1.wav,1,2,2,1,,,,,1,14,30,0,0,10,10,10,,,,,,,,,1,2.3157003989908844,082,001,2019_Aug_28_0909,MusicAffectPsychophysiology2019,3.0.5,59.905319758047106,
To what extent did the music make you feel ,FRUSTRATED,30MonoWAV/30MonoF1.wav,1,2,2,1,,,,,1,14,30,0,0,11,11,3,,,,,,,,,1,0.9195233990030829,082,001,2019_Aug_28_0909,MusicAffectPsychophysiology2019,3.0.5,59.905319758047106,
,,30MonoWAV/30MonoF1.wav,1,2,2,1,,,,,1,14,30,0,,,,,,,,,,,,,,,082,001,2019_Aug_28_0909,MusicAffectPsychophysiology2019,3.0.5,59.905319758047106,
To what extent did the music make you feel ,SAD,30MonoWAV/30MonoS2.wav,1,1,3,10,,,,,1,15,31,9,0,0,0,0,,,2,5.668934771005297,4,5.218534794985317,5,2.2681180280051194,5,2.670920656993985,082,001,2019_Aug_28_0909,MusicAffectPsychophysiology2019,3.0.5,59.905319758047106,
To what extent did the music make you feel ,ANXIOUS ,30MonoWAV/30MonoS2.wav,1,1,3,10,,,,,1,15,31,9,0,1,1,1,,,,,,,,,2,1.2703012349957135,082,001,2019_Aug_28_0909,MusicAffectPsychophysiology2019,3.0.5,59.905319758047106,
To what extent did the music make you feel ,EXCITED,30MonoWAV/30MonoS2.wav,1,1,3,10,,,,,1,15,31,9,0,2,2,7,,,,,,,,,1,0.9529749240027741,082,001,2019_Aug_28_0909,MusicAffectPsychophysiology2019,3.0.5,59.905319758047106,
To what extent did the music make you feel ,ACTIVE,30MonoWAV/30MonoS2.wav,1,1,3,10,,,,,1,15,31,9,0,3,3,9,,,,,,,,,2,1.7366170829918701,082,001,2019_Aug_28_0909,MusicAffectPsychophysiology2019,3.0.5,59.905319758047106,
To what extent did the music make you feel ,GUILTY,30MonoWAV/30MonoS2.wav,1,1,3,10,,,,,1,15,31,9,0,4,4,5,,,,,,,,,2,1.4858986029867083,082,001,2019_Aug_28_0909,MusicAffectPsychophysiology2019,3.0.5,59.905319758047106,
To what extent did the music make you feel ,SCARED,30MonoWAV/30MonoS2.wav,1,1,3,10,,,,,1,15,31,9,0,5,5,11,,,,,,,,,1,1.5521580299828202,082,001,2019_Aug_28_0909,MusicAffectPsychophysiology2019,3.0.5,59.905319758047106,
To what extent did the music make you feel ,FRUSTRATED,30MonoWAV/30MonoS2.wav,1,1,3,10,,,,,1,15,31,9,0,6,6,3,,,,,,,,,1,1.2356793829821981,082,001,2019_Aug_28_0909,MusicAffectPsychophysiology2019,3.0.5,59.905319758047106,
To what extent did the music make you feel ,HAPPY,30MonoWAV/30MonoS2.wav,1,1,3,10,,,,,1,15,31,9,0,7,7,6,,,,,,,,,1,1.2694787450018339,082,001,2019_Aug_28_0909,MusicAffectPsychophysiology2019,3.0.5,59.905319758047106,
To what extent did the music make you feel ,ANGRY,30MonoWAV/30MonoS2.wav,1,1,3,10,,,,,1,15,31,9,0,8,8,2,,,,,,,,,1,2.0524167619878426,082,001,2019_Aug_28_0909,MusicAffectPsychophysiology2019,3.0.5,59.905319758047106,
To what extent did the music make you feel ,ALERT,30MonoWAV/30MonoS2.wav,1,1,3,10,,,,,1,15,31,9,0,9,9,8,,,,,,,,,1,1.7023639300023206,082,001,2019_Aug_28_0909,MusicAffectPsychophysiology2019,3.0.5,59.905319758047106,
To what extent did the music make you feel ,ASHAMED,30MonoWAV/30MonoS2.wav,1,1,3,10,,,,,1,15,31,9,0,10,10,4,,,,,,,,,1,0.8178250269847922,082,001,2019_Aug_28_0909,MusicAffectPsychophysiology2019,3.0.5,59.905319758047106,
To what extent did the music make you feel ,TENDER,30MonoWAV/30MonoS2.wav,1,1,3,10,,,,,1,15,31,9,0,11,11,10,,,,,,,,,5,1.6353214330156334,082,001,2019_Aug_28_0909,MusicAffectPsychophysiology2019,3.0.5,59.905319758047106,
,,30MonoWAV/30MonoS2.wav,1,1,3,10,,,,,1,15,31,9,,,,,,,,,,,,,,,082,001,2019_Aug_28_0909,MusicAffectPsychophysiology2019,3.0.5,59.905319758047106,
