Instruction,Word,song,valence,arousal,affectcat,songmark,pracwords.thisRepN,pracwords.thisTrialN,pracwords.thisN,pracwords.thisIndex,songtrials.thisRepN,songtrials.thisTrialN,songtrials.thisN,songtrials.thisIndex,words.thisRepN,words.thisTrialN,words.thisN,words.thisIndex,begin.keys,begin.rt,arousalkey.keys,arousalkey.rt,valencekey.keys,valencekey.rt,likekey.keys,likekey.rt,WordResponse.keys,WordResponse.rt,key_resp_2.keys,key_resp_2.rt,participant,session,date,expName,psychopyVersion,frameRate,
,,,,,,,,,,,,,,,,,,,space,17.385823401011294,,,,,,,,,,,083,001,2019_Aug_28_1010,MusicAffectPsychophysiology2019,3.0.5,59.664186214871165,
,,,,,,,,,,,,,,,,,,,,,3,10.71849290598766,,,,,,,,,083,001,2019_Aug_28_1010,MusicAffectPsychophysiology2019,3.0.5,59.664186214871165,
,,,,,,,,,,,,,,,,,,,,,,,4,3.2859494680014905,,,,,,,083,001,2019_Aug_28_1010,MusicAffectPsychophysiology2019,3.0.5,59.664186214871165,
,,,,,,,,,,,,,,,,,,,,,,,,,4,5.449367387016537,,,,,083,001,2019_Aug_28_1010,MusicAffectPsychophysiology2019,3.0.5,59.664186214871165,
To what extent did the music make you feel ,EXCITED,,,,,,0,0,0,7,,,,,,,,,,,,,,,,,3,8.170007617009105,,,083,001,2019_Aug_28_1010,MusicAffectPsychophysiology2019,3.0.5,59.664186214871165,
To what extent did the music make you feel ,TENDER,,,,,,0,1,1,10,,,,,,,,,,,,,,,,,2,8.016225298983045,,,083,001,2019_Aug_28_1010,MusicAffectPsychophysiology2019,3.0.5,59.664186214871165,
To what extent did the music make you feel ,SAD,,,,,,0,2,2,0,,,,,,,,,,,,,,,,,1,1.9191014399984851,,,083,001,2019_Aug_28_1010,MusicAffectPsychophysiology2019,3.0.5,59.664186214871165,
To what extent did the music make you feel ,ANXIOUS ,,,,,,0,3,3,1,,,,,,,,,,,,,,,,,1,1.4691423269978259,,,083,001,2019_Aug_28_1010,MusicAffectPsychophysiology2019,3.0.5,59.664186214871165,
To what extent did the music make you feel ,GUILTY,,,,,,0,4,4,5,,,,,,,,,,,,,,,,,1,0.8853955020022113,,,083,001,2019_Aug_28_1010,MusicAffectPsychophysiology2019,3.0.5,59.664186214871165,
To what extent did the music make you feel ,FRUSTRATED,,,,,,0,5,5,3,,,,,,,,,,,,,,,,,1,1.8081830340088345,,,083,001,2019_Aug_28_1010,MusicAffectPsychophysiology2019,3.0.5,59.664186214871165,
To what extent did the music make you feel ,ALERT,,,,,,0,6,6,8,,,,,,,,,,,,,,,,,1,2.3684794009895995,,,083,001,2019_Aug_28_1010,MusicAffectPsychophysiology2019,3.0.5,59.664186214871165,
To what extent did the music make you feel ,ASHAMED,,,,,,0,7,7,4,,,,,,,,,,,,,,,,,1,3.0869433030020446,,,083,001,2019_Aug_28_1010,MusicAffectPsychophysiology2019,3.0.5,59.664186214871165,
To what extent did the music make you feel ,SCARED,,,,,,0,8,8,11,,,,,,,,,,,,,,,,,1,0.8029844480042811,,,083,001,2019_Aug_28_1010,MusicAffectPsychophysiology2019,3.0.5,59.664186214871165,
To what extent did the music make you feel ,ACTIVE,,,,,,0,9,9,9,,,,,,,,,,,,,,,,,3,2.6533007480029482,,,083,001,2019_Aug_28_1010,MusicAffectPsychophysiology2019,3.0.5,59.664186214871165,
To what extent did the music make you feel ,HAPPY,,,,,,0,10,10,6,,,,,,,,,,,,,,,,,4,1.4858492719940841,,,083,001,2019_Aug_28_1010,MusicAffectPsychophysiology2019,3.0.5,59.664186214871165,
To what extent did the music make you feel ,ANGRY,,,,,,0,11,11,2,,,,,,,,,,,,,,,,,1,1.5183255279844161,,,083,001,2019_Aug_28_1010,MusicAffectPsychophysiology2019,3.0.5,59.664186214871165,
To what extent did the music make you feel ,ACTIVE,30MonoWAV/30MonoT3.wav,2,1,4,15,,,,,0,0,0,14,0,0,0,9,,,2,6.068719624017831,2,7.168817188998219,2,6.450471940013813,1,2.7024634910048917,,,083,001,2019_Aug_28_1010,MusicAffectPsychophysiology2019,3.0.5,59.664186214871165,
To what extent did the music make you feel ,ANGRY,30MonoWAV/30MonoT3.wav,2,1,4,15,,,,,0,0,0,14,0,1,1,2,,,,,,,,,1,2.616902839014074,,,083,001,2019_Aug_28_1010,MusicAffectPsychophysiology2019,3.0.5,59.664186214871165,
To what extent did the music make you feel ,TENDER,30MonoWAV/30MonoT3.wav,2,1,4,15,,,,,0,0,0,14,0,2,2,10,,,,,,,,,2,4.051372553978581,,,083,001,2019_Aug_28_1010,MusicAffectPsychophysiology2019,3.0.5,59.664186214871165,
To what extent did the music make you feel ,ANXIOUS ,30MonoWAV/30MonoT3.wav,2,1,4,15,,,,,0,0,0,14,0,3,3,1,,,,,,,,,2,1.3165669959853403,,,083,001,2019_Aug_28_1010,MusicAffectPsychophysiology2019,3.0.5,59.664186214871165,
To what extent did the music make you feel ,FRUSTRATED,30MonoWAV/30MonoT3.wav,2,1,4,15,,,,,0,0,0,14,0,4,4,3,,,,,,,,,1,1.418424039002275,,,083,001,2019_Aug_28_1010,MusicAffectPsychophysiology2019,3.0.5,59.664186214871165,
To what extent did the music make you feel ,HAPPY,30MonoWAV/30MonoT3.wav,2,1,4,15,,,,,0,0,0,14,0,5,5,6,,,,,,,,,1,2.4180323370092083,,,083,001,2019_Aug_28_1010,MusicAffectPsychophysiology2019,3.0.5,59.664186214871165,
To what extent did the music make you feel ,EXCITED,30MonoWAV/30MonoT3.wav,2,1,4,15,,,,,0,0,0,14,0,6,6,7,,,,,,,,,1,1.2191033010021783,,,083,001,2019_Aug_28_1010,MusicAffectPsychophysiology2019,3.0.5,59.664186214871165,
To what extent did the music make you feel ,ALERT,30MonoWAV/30MonoT3.wav,2,1,4,15,,,,,0,0,0,14,0,7,7,8,,,,,,,,,1,1.2522243129787967,,,083,001,2019_Aug_28_1010,MusicAffectPsychophysiology2019,3.0.5,59.664186214871165,
To what extent did the music make you feel ,GUILTY,30MonoWAV/30MonoT3.wav,2,1,4,15,,,,,0,0,0,14,0,8,8,5,,,,,,,,,1,0.7854335489973892,,,083,001,2019_Aug_28_1010,MusicAffectPsychophysiology2019,3.0.5,59.664186214871165,
To what extent did the music make you feel ,SCARED,30MonoWAV/30MonoT3.wav,2,1,4,15,,,,,0,0,0,14,0,9,9,11,,,,,,,,,1,0.817320647998713,,,083,001,2019_Aug_28_1010,MusicAffectPsychophysiology2019,3.0.5,59.664186214871165,
To what extent did the music make you feel ,ASHAMED,30MonoWAV/30MonoT3.wav,2,1,4,15,,,,,0,0,0,14,0,10,10,4,,,,,,,,,1,0.6357558140007313,,,083,001,2019_Aug_28_1010,MusicAffectPsychophysiology2019,3.0.5,59.664186214871165,
To what extent did the music make you feel ,SAD,30MonoWAV/30MonoT3.wav,2,1,4,15,,,,,0,0,0,14,0,11,11,0,,,,,,,,,3,3.1505625149875414,,,083,001,2019_Aug_28_1010,MusicAffectPsychophysiology2019,3.0.5,59.664186214871165,
,,30MonoWAV/30MonoT3.wav,2,1,4,15,,,,,0,0,0,14,,,,,,,,,,,,,,,,,083,001,2019_Aug_28_1010,MusicAffectPsychophysiology2019,3.0.5,59.664186214871165,
To what extent did the music make you feel ,HAPPY,30MonoWAV/30MonoT2.wav,2,1,4,14,,,,,0,1,1,13,0,0,0,6,,,3,6.735506538010668,3,2.3336025099852122,2,5.169340071006445,2,1.8238300480006728,,,083,001,2019_Aug_28_1010,MusicAffectPsychophysiology2019,3.0.5,59.664186214871165,
To what extent did the music make you feel ,ACTIVE,30MonoWAV/30MonoT2.wav,2,1,4,14,,,,,0,1,1,13,0,1,1,9,,,,,,,,,4,3.0675329540099483,,,083,001,2019_Aug_28_1010,MusicAffectPsychophysiology2019,3.0.5,59.664186214871165,
To what extent did the music make you feel ,SCARED,30MonoWAV/30MonoT2.wav,2,1,4,14,,,,,0,1,1,13,0,2,2,11,,,,,,,,,1,1.6544251379964408,,,083,001,2019_Aug_28_1010,MusicAffectPsychophysiology2019,3.0.5,59.664186214871165,
To what extent did the music make you feel ,EXCITED,30MonoWAV/30MonoT2.wav,2,1,4,14,,,,,0,1,1,13,0,3,3,7,,,,,,,,,3,1.8692162109946366,,,083,001,2019_Aug_28_1010,MusicAffectPsychophysiology2019,3.0.5,59.664186214871165,
To what extent did the music make you feel ,ANXIOUS ,30MonoWAV/30MonoT2.wav,2,1,4,14,,,,,0,1,1,13,0,4,4,1,,,,,,,,,1,1.1192129559931345,,,083,001,2019_Aug_28_1010,MusicAffectPsychophysiology2019,3.0.5,59.664186214871165,
To what extent did the music make you feel ,GUILTY,30MonoWAV/30MonoT2.wav,2,1,4,14,,,,,0,1,1,13,0,5,5,5,,,,,,,,,1,1.168482937006047,,,083,001,2019_Aug_28_1010,MusicAffectPsychophysiology2019,3.0.5,59.664186214871165,
To what extent did the music make you feel ,ANGRY,30MonoWAV/30MonoT2.wav,2,1,4,14,,,,,0,1,1,13,0,6,6,2,,,,,,,,,1,0.6534494970110245,,,083,001,2019_Aug_28_1010,MusicAffectPsychophysiology2019,3.0.5,59.664186214871165,
To what extent did the music make you feel ,TENDER,30MonoWAV/30MonoT2.wav,2,1,4,14,,,,,0,1,1,13,0,7,7,10,,,,,,,,,1,0.6023294070037082,,,083,001,2019_Aug_28_1010,MusicAffectPsychophysiology2019,3.0.5,59.664186214871165,
To what extent did the music make you feel ,ASHAMED,30MonoWAV/30MonoT2.wav,2,1,4,14,,,,,0,1,1,13,0,8,8,4,,,,,,,,,1,0.8700497389945667,,,083,001,2019_Aug_28_1010,MusicAffectPsychophysiology2019,3.0.5,59.664186214871165,
To what extent did the music make you feel ,SAD,30MonoWAV/30MonoT2.wav,2,1,4,14,,,,,0,1,1,13,0,9,9,0,,,,,,,,,1,1.7024161260051187,,,083,001,2019_Aug_28_1010,MusicAffectPsychophysiology2019,3.0.5,59.664186214871165,
To what extent did the music make you feel ,ALERT,30MonoWAV/30MonoT2.wav,2,1,4,14,,,,,0,1,1,13,0,10,10,8,,,,,,,,,1,0.703227114980109,,,083,001,2019_Aug_28_1010,MusicAffectPsychophysiology2019,3.0.5,59.664186214871165,
To what extent did the music make you feel ,FRUSTRATED,30MonoWAV/30MonoT2.wav,2,1,4,14,,,,,0,1,1,13,0,11,11,3,,,,,,,,,1,0.6392632749921177,,,083,001,2019_Aug_28_1010,MusicAffectPsychophysiology2019,3.0.5,59.664186214871165,
,,30MonoWAV/30MonoT2.wav,2,1,4,14,,,,,0,1,1,13,,,,,,,,,,,,,,,,,083,001,2019_Aug_28_1010,MusicAffectPsychophysiology2019,3.0.5,59.664186214871165,
To what extent did the music make you feel ,SCARED,30MonoWAV/30MonoS1.wav,1,1,3,9,,,,,0,2,2,8,0,0,0,11,,,1,8.268312368978513,2,2.9362386429856997,2,3.152640746993711,1,1.7495794419955928,,,083,001,2019_Aug_28_1010,MusicAffectPsychophysiology2019,3.0.5,59.664186214871165,
To what extent did the music make you feel ,SAD,30MonoWAV/30MonoS1.wav,1,1,3,9,,,,,0,2,2,8,0,1,1,0,,,,,,,,,3,4.418538864003494,,,083,001,2019_Aug_28_1010,MusicAffectPsychophysiology2019,3.0.5,59.664186214871165,
To what extent did the music make you feel ,TENDER,30MonoWAV/30MonoS1.wav,1,1,3,9,,,,,0,2,2,8,0,2,2,10,,,,,,,,,2,1.7686596309940796,,,083,001,2019_Aug_28_1010,MusicAffectPsychophysiology2019,3.0.5,59.664186214871165,
To what extent did the music make you feel ,EXCITED,30MonoWAV/30MonoS1.wav,1,1,3,9,,,,,0,2,2,8,0,3,3,7,,,,,,,,,1,1.8522816689801402,,,083,001,2019_Aug_28_1010,MusicAffectPsychophysiology2019,3.0.5,59.664186214871165,
To what extent did the music make you feel ,FRUSTRATED,30MonoWAV/30MonoS1.wav,1,1,3,9,,,,,0,2,2,8,0,4,4,3,,,,,,,,,1,1.2534643370017875,,,083,001,2019_Aug_28_1010,MusicAffectPsychophysiology2019,3.0.5,59.664186214871165,
To what extent did the music make you feel ,ASHAMED,30MonoWAV/30MonoS1.wav,1,1,3,9,,,,,0,2,2,8,0,5,5,4,,,,,,,,,1,0.8041374490130693,,,083,001,2019_Aug_28_1010,MusicAffectPsychophysiology2019,3.0.5,59.664186214871165,
To what extent did the music make you feel ,HAPPY,30MonoWAV/30MonoS1.wav,1,1,3,9,,,,,0,2,2,8,0,6,6,6,,,,,,,,,1,2.30190351701458,,,083,001,2019_Aug_28_1010,MusicAffectPsychophysiology2019,3.0.5,59.664186214871165,
To what extent did the music make you feel ,GUILTY,30MonoWAV/30MonoS1.wav,1,1,3,9,,,,,0,2,2,8,0,7,7,5,,,,,,,,,1,0.9166376070061233,,,083,001,2019_Aug_28_1010,MusicAffectPsychophysiology2019,3.0.5,59.664186214871165,
To what extent did the music make you feel ,ANXIOUS ,30MonoWAV/30MonoS1.wav,1,1,3,9,,,,,0,2,2,8,0,8,8,1,,,,,,,,,1,0.8684163790021557,,,083,001,2019_Aug_28_1010,MusicAffectPsychophysiology2019,3.0.5,59.664186214871165,
To what extent did the music make you feel ,ANGRY,30MonoWAV/30MonoS1.wav,1,1,3,9,,,,,0,2,2,8,0,9,9,2,,,,,,,,,1,0.9359995959966909,,,083,001,2019_Aug_28_1010,MusicAffectPsychophysiology2019,3.0.5,59.664186214871165,
To what extent did the music make you feel ,ALERT,30MonoWAV/30MonoS1.wav,1,1,3,9,,,,,0,2,2,8,0,10,10,8,,,,,,,,,1,1.1854288160102442,,,083,001,2019_Aug_28_1010,MusicAffectPsychophysiology2019,3.0.5,59.664186214871165,
To what extent did the music make you feel ,ACTIVE,30MonoWAV/30MonoS1.wav,1,1,3,9,,,,,0,2,2,8,0,11,11,9,,,,,,,,,1,2.3197678250144236,,,083,001,2019_Aug_28_1010,MusicAffectPsychophysiology2019,3.0.5,59.664186214871165,
,,30MonoWAV/30MonoS1.wav,1,1,3,9,,,,,0,2,2,8,,,,,,,,,,,,,,,,,083,001,2019_Aug_28_1010,MusicAffectPsychophysiology2019,3.0.5,59.664186214871165,
To what extent did the music make you feel ,ACTIVE,30MonoWAV/30MonoT1.wav,2,1,4,13,,,,,0,3,3,12,0,0,0,9,,,3,5.166120665002381,4,2.8522941079863813,3,3.1690196440031286,3,2.8856406059931032,,,083,001,2019_Aug_28_1010,MusicAffectPsychophysiology2019,3.0.5,59.664186214871165,
To what extent did the music make you feel ,HAPPY,30MonoWAV/30MonoT1.wav,2,1,4,13,,,,,0,3,3,12,0,1,1,6,,,,,,,,,4,1.219137705018511,,,083,001,2019_Aug_28_1010,MusicAffectPsychophysiology2019,3.0.5,59.664186214871165,
To what extent did the music make you feel ,EXCITED,30MonoWAV/30MonoT1.wav,2,1,4,13,,,,,0,3,3,12,0,2,2,7,,,,,,,,,2,2.0524692730105016,,,083,001,2019_Aug_28_1010,MusicAffectPsychophysiology2019,3.0.5,59.664186214871165,
To what extent did the music make you feel ,SCARED,30MonoWAV/30MonoT1.wav,2,1,4,13,,,,,0,3,3,12,0,3,3,11,,,,,,,,,1,0.8761092229979113,,,083,001,2019_Aug_28_1010,MusicAffectPsychophysiology2019,3.0.5,59.664186214871165,
To what extent did the music make you feel ,ALERT,30MonoWAV/30MonoT1.wav,2,1,4,13,,,,,0,3,3,12,0,4,4,8,,,,,,,,,1,0.5032290209783241,,,083,001,2019_Aug_28_1010,MusicAffectPsychophysiology2019,3.0.5,59.664186214871165,
To what extent did the music make you feel ,SAD,30MonoWAV/30MonoT1.wav,2,1,4,13,,,,,0,3,3,12,0,5,5,0,,,,,,,,,1,0.5527707069995813,,,083,001,2019_Aug_28_1010,MusicAffectPsychophysiology2019,3.0.5,59.664186214871165,
To what extent did the music make you feel ,GUILTY,30MonoWAV/30MonoT1.wav,2,1,4,13,,,,,0,3,3,12,0,6,6,5,,,,,,,,,1,0.4523207670135889,,,083,001,2019_Aug_28_1010,MusicAffectPsychophysiology2019,3.0.5,59.664186214871165,
To what extent did the music make you feel ,FRUSTRATED,30MonoWAV/30MonoT1.wav,2,1,4,13,,,,,0,3,3,12,0,7,7,3,,,,,,,,,1,0.4932068119815085,,,083,001,2019_Aug_28_1010,MusicAffectPsychophysiology2019,3.0.5,59.664186214871165,
To what extent did the music make you feel ,TENDER,30MonoWAV/30MonoT1.wav,2,1,4,13,,,,,0,3,3,12,0,8,8,10,,,,,,,,,1,1.1535740680119488,,,083,001,2019_Aug_28_1010,MusicAffectPsychophysiology2019,3.0.5,59.664186214871165,
To what extent did the music make you feel ,ANXIOUS ,30MonoWAV/30MonoT1.wav,2,1,4,13,,,,,0,3,3,12,0,9,9,1,,,,,,,,,1,0.5521582959918305,,,083,001,2019_Aug_28_1010,MusicAffectPsychophysiology2019,3.0.5,59.664186214871165,
To what extent did the music make you feel ,ANGRY,30MonoWAV/30MonoT1.wav,2,1,4,13,,,,,0,3,3,12,0,10,10,2,,,,,,,,,1,0.6038340390077792,,,083,001,2019_Aug_28_1010,MusicAffectPsychophysiology2019,3.0.5,59.664186214871165,
To what extent did the music make you feel ,ASHAMED,30MonoWAV/30MonoT1.wav,2,1,4,13,,,,,0,3,3,12,0,11,11,4,,,,,,,,,1,0.5995858770038467,,,083,001,2019_Aug_28_1010,MusicAffectPsychophysiology2019,3.0.5,59.664186214871165,
,,30MonoWAV/30MonoT1.wav,2,1,4,13,,,,,0,3,3,12,,,,,,,,,,,,,,,,,083,001,2019_Aug_28_1010,MusicAffectPsychophysiology2019,3.0.5,59.664186214871165,
To what extent did the music make you feel ,ANXIOUS ,30MonoWAV/30MonoH3.wav,2,2,1,7,,,,,0,4,4,6,0,0,0,1,,,5,4.335347157990327,4,2.851480109995464,2,4.535869711980922,1,1.6854106520186178,,,083,001,2019_Aug_28_1010,MusicAffectPsychophysiology2019,3.0.5,59.664186214871165,
To what extent did the music make you feel ,SCARED,30MonoWAV/30MonoH3.wav,2,2,1,7,,,,,0,4,4,6,0,1,1,11,,,,,,,,,1,1.1194709280098323,,,083,001,2019_Aug_28_1010,MusicAffectPsychophysiology2019,3.0.5,59.664186214871165,
To what extent did the music make you feel ,ALERT,30MonoWAV/30MonoH3.wav,2,2,1,7,,,,,0,4,4,6,0,2,2,8,,,,,,,,,1,0.868604481976945,,,083,001,2019_Aug_28_1010,MusicAffectPsychophysiology2019,3.0.5,59.664186214871165,
To what extent did the music make you feel ,ANGRY,30MonoWAV/30MonoH3.wav,2,2,1,7,,,,,0,4,4,6,0,3,3,2,,,,,,,,,1,0.7522181289969012,,,083,001,2019_Aug_28_1010,MusicAffectPsychophysiology2019,3.0.5,59.664186214871165,
To what extent did the music make you feel ,FRUSTRATED,30MonoWAV/30MonoH3.wav,2,2,1,7,,,,,0,4,4,6,0,4,4,3,,,,,,,,,1,0.9376145630085375,,,083,001,2019_Aug_28_1010,MusicAffectPsychophysiology2019,3.0.5,59.664186214871165,
To what extent did the music make you feel ,TENDER,30MonoWAV/30MonoH3.wav,2,2,1,7,,,,,0,4,4,6,0,5,5,10,,,,,,,,,1,0.6535423560126219,,,083,001,2019_Aug_28_1010,MusicAffectPsychophysiology2019,3.0.5,59.664186214871165,
To what extent did the music make you feel ,SAD,30MonoWAV/30MonoH3.wav,2,2,1,7,,,,,0,4,4,6,0,6,6,0,,,,,,,,,1,0.6520784640160855,,,083,001,2019_Aug_28_1010,MusicAffectPsychophysiology2019,3.0.5,59.664186214871165,
To what extent did the music make you feel ,HAPPY,30MonoWAV/30MonoH3.wav,2,2,1,7,,,,,0,4,4,6,0,7,7,6,,,,,,,,,3,1.852921473007882,,,083,001,2019_Aug_28_1010,MusicAffectPsychophysiology2019,3.0.5,59.664186214871165,
To what extent did the music make you feel ,GUILTY,30MonoWAV/30MonoH3.wav,2,2,1,7,,,,,0,4,4,6,0,8,8,5,,,,,,,,,1,1.2530482280126307,,,083,001,2019_Aug_28_1010,MusicAffectPsychophysiology2019,3.0.5,59.664186214871165,
To what extent did the music make you feel ,ASHAMED,30MonoWAV/30MonoH3.wav,2,2,1,7,,,,,0,4,4,6,0,9,9,4,,,,,,,,,1,1.0024119750014506,,,083,001,2019_Aug_28_1010,MusicAffectPsychophysiology2019,3.0.5,59.664186214871165,
To what extent did the music make you feel ,ACTIVE,30MonoWAV/30MonoH3.wav,2,2,1,7,,,,,0,4,4,6,0,10,10,9,,,,,,,,,5,2.152072467986727,,,083,001,2019_Aug_28_1010,MusicAffectPsychophysiology2019,3.0.5,59.664186214871165,
To what extent did the music make you feel ,EXCITED,30MonoWAV/30MonoH3.wav,2,2,1,7,,,,,0,4,4,6,0,11,11,7,,,,,,,,,5,1.1197442580014467,,,083,001,2019_Aug_28_1010,MusicAffectPsychophysiology2019,3.0.5,59.664186214871165,
,,30MonoWAV/30MonoH3.wav,2,2,1,7,,,,,0,4,4,6,,,,,,,,,,,,,,,,,083,001,2019_Aug_28_1010,MusicAffectPsychophysiology2019,3.0.5,59.664186214871165,
To what extent did the music make you feel ,EXCITED,30MonoWAV/30MonoS4.wav,1,1,3,12,,,,,0,5,5,11,0,0,0,7,,,1,4.719384911993984,1,3.0357561690034345,1,5.202010041975882,1,2.6839153800101485,,,083,001,2019_Aug_28_1010,MusicAffectPsychophysiology2019,3.0.5,59.664186214871165,
To what extent did the music make you feel ,SAD,30MonoWAV/30MonoS4.wav,1,1,3,12,,,,,0,5,5,11,0,1,1,0,,,,,,,,,4,3.6680930459988303,,,083,001,2019_Aug_28_1010,MusicAffectPsychophysiology2019,3.0.5,59.664186214871165,
To what extent did the music make you feel ,ACTIVE,30MonoWAV/30MonoS4.wav,1,1,3,12,,,,,0,5,5,11,0,2,2,9,,,,,,,,,1,1.7192660580039956,,,083,001,2019_Aug_28_1010,MusicAffectPsychophysiology2019,3.0.5,59.664186214871165,
To what extent did the music make you feel ,TENDER,30MonoWAV/30MonoS4.wav,1,1,3,12,,,,,0,5,5,11,0,3,3,10,,,,,,,,,3,27.76577736600302,,,083,001,2019_Aug_28_1010,MusicAffectPsychophysiology2019,3.0.5,59.664186214871165,
To what extent did the music make you feel ,ASHAMED,30MonoWAV/30MonoS4.wav,1,1,3,12,,,,,0,5,5,11,0,4,4,4,,,,,,,,,1,1.8538479580020066,,,083,001,2019_Aug_28_1010,MusicAffectPsychophysiology2019,3.0.5,59.664186214871165,
To what extent did the music make you feel ,GUILTY,30MonoWAV/30MonoS4.wav,1,1,3,12,,,,,0,5,5,11,0,5,5,5,,,,,,,,,2,1.3358375139941927,,,083,001,2019_Aug_28_1010,MusicAffectPsychophysiology2019,3.0.5,59.664186214871165,
To what extent did the music make you feel ,ALERT,30MonoWAV/30MonoS4.wav,1,1,3,12,,,,,0,5,5,11,0,6,6,8,,,,,,,,,1,1.1353572879743297,,,083,001,2019_Aug_28_1010,MusicAffectPsychophysiology2019,3.0.5,59.664186214871165,
To what extent did the music make you feel ,ANGRY,30MonoWAV/30MonoS4.wav,1,1,3,12,,,,,0,5,5,11,0,7,7,2,,,,,,,,,1,1.120126102003269,,,083,001,2019_Aug_28_1010,MusicAffectPsychophysiology2019,3.0.5,59.664186214871165,
To what extent did the music make you feel ,FRUSTRATED,30MonoWAV/30MonoS4.wav,1,1,3,12,,,,,0,5,5,11,0,8,8,3,,,,,,,,,1,1.3414878780022264,,,083,001,2019_Aug_28_1010,MusicAffectPsychophysiology2019,3.0.5,59.664186214871165,
To what extent did the music make you feel ,HAPPY,30MonoWAV/30MonoS4.wav,1,1,3,12,,,,,0,5,5,11,0,9,9,6,,,,,,,,,1,1.4362685599771794,,,083,001,2019_Aug_28_1010,MusicAffectPsychophysiology2019,3.0.5,59.664186214871165,
To what extent did the music make you feel ,ANXIOUS ,30MonoWAV/30MonoS4.wav,1,1,3,12,,,,,0,5,5,11,0,10,10,1,,,,,,,,,2,1.6515233099926263,,,083,001,2019_Aug_28_1010,MusicAffectPsychophysiology2019,3.0.5,59.664186214871165,
To what extent did the music make you feel ,SCARED,30MonoWAV/30MonoS4.wav,1,1,3,12,,,,,0,5,5,11,0,11,11,11,,,,,,,,,1,3.1497728409885895,,,083,001,2019_Aug_28_1010,MusicAffectPsychophysiology2019,3.0.5,59.664186214871165,
,,30MonoWAV/30MonoS4.wav,1,1,3,12,,,,,0,5,5,11,,,,,,,,,,,,,,,,,083,001,2019_Aug_28_1010,MusicAffectPsychophysiology2019,3.0.5,59.664186214871165,
To what extent did the music make you feel ,GUILTY,30MonoWAV/30MonoF2.wav,1,2,2,2,,,,,0,6,6,1,0,0,0,5,,,1,3.8515912830189336,1,1.502267939999001,1,2.4524999329878483,1,1.9695895979821216,,,083,001,2019_Aug_28_1010,MusicAffectPsychophysiology2019,3.0.5,59.664186214871165,
To what extent did the music make you feel ,ASHAMED,30MonoWAV/30MonoF2.wav,1,2,2,2,,,,,0,6,6,1,0,1,1,4,,,,,,,,,1,1.551926172018284,,,083,001,2019_Aug_28_1010,MusicAffectPsychophysiology2019,3.0.5,59.664186214871165,
To what extent did the music make you feel ,ANGRY,30MonoWAV/30MonoF2.wav,1,2,2,2,,,,,0,6,6,1,0,2,2,2,,,,,,,,,2,2.636141563009005,,,083,001,2019_Aug_28_1010,MusicAffectPsychophysiology2019,3.0.5,59.664186214871165,
To what extent did the music make you feel ,ANXIOUS ,30MonoWAV/30MonoF2.wav,1,2,2,2,,,,,0,6,6,1,0,3,3,1,,,,,,,,,5,2.8039591220149305,,,083,001,2019_Aug_28_1010,MusicAffectPsychophysiology2019,3.0.5,59.664186214871165,
To what extent did the music make you feel ,ALERT,30MonoWAV/30MonoF2.wav,1,2,2,2,,,,,0,6,6,1,0,4,4,8,,,,,,,,,4,16.968003825983033,,,083,001,2019_Aug_28_1010,MusicAffectPsychophysiology2019,3.0.5,59.664186214871165,
To what extent did the music make you feel ,HAPPY,30MonoWAV/30MonoF2.wav,1,2,2,2,,,,,0,6,6,1,0,5,5,6,,,,,,,,,1,1.0692631459969562,,,083,001,2019_Aug_28_1010,MusicAffectPsychophysiology2019,3.0.5,59.664186214871165,
To what extent did the music make you feel ,TENDER,30MonoWAV/30MonoF2.wav,1,2,2,2,,,,,0,6,6,1,0,6,6,10,,,,,,,,,1,1.2023507809790317,,,083,001,2019_Aug_28_1010,MusicAffectPsychophysiology2019,3.0.5,59.664186214871165,
To what extent did the music make you feel ,ACTIVE,30MonoWAV/30MonoF2.wav,1,2,2,2,,,,,0,6,6,1,0,7,7,9,,,,,,,,,1,1.0020477430080064,,,083,001,2019_Aug_28_1010,MusicAffectPsychophysiology2019,3.0.5,59.664186214871165,
To what extent did the music make you feel ,EXCITED,30MonoWAV/30MonoF2.wav,1,2,2,2,,,,,0,6,6,1,0,8,8,7,,,,,,,,,1,0.8351420459803194,,,083,001,2019_Aug_28_1010,MusicAffectPsychophysiology2019,3.0.5,59.664186214871165,
To what extent did the music make you feel ,SAD,30MonoWAV/30MonoF2.wav,1,2,2,2,,,,,0,6,6,1,0,9,9,0,,,,,,,,,3,1.7665671029826626,,,083,001,2019_Aug_28_1010,MusicAffectPsychophysiology2019,3.0.5,59.664186214871165,
To what extent did the music make you feel ,FRUSTRATED,30MonoWAV/30MonoF2.wav,1,2,2,2,,,,,0,6,6,1,0,10,10,3,,,,,,,,,4,1.8843936850025784,,,083,001,2019_Aug_28_1010,MusicAffectPsychophysiology2019,3.0.5,59.664186214871165,
To what extent did the music make you feel ,SCARED,30MonoWAV/30MonoF2.wav,1,2,2,2,,,,,0,6,6,1,0,11,11,11,,,,,,,,,4,1.5175398999999743,,,083,001,2019_Aug_28_1010,MusicAffectPsychophysiology2019,3.0.5,59.664186214871165,
,,30MonoWAV/30MonoF2.wav,1,2,2,2,,,,,0,6,6,1,,,,,,,,,,,,,,,,,083,001,2019_Aug_28_1010,MusicAffectPsychophysiology2019,3.0.5,59.664186214871165,
To what extent did the music make you feel ,ALERT,30MonoWAV/30MonoF4.wav,1,2,2,4,,,,,0,7,7,3,0,0,0,8,,,1,5.683829260000493,1,0.8864928930124734,1,1.2365822120045777,4,4.558810351009015,,,083,001,2019_Aug_28_1010,MusicAffectPsychophysiology2019,3.0.5,59.664186214871165,
To what extent did the music make you feel ,ANGRY,30MonoWAV/30MonoF4.wav,1,2,2,4,,,,,0,7,7,3,0,1,1,2,,,,,,,,,1,2.1527012799924705,,,083,001,2019_Aug_28_1010,MusicAffectPsychophysiology2019,3.0.5,59.664186214871165,
To what extent did the music make you feel ,ACTIVE,30MonoWAV/30MonoF4.wav,1,2,2,4,,,,,0,7,7,3,0,2,2,9,,,,,,,,,1,1.116688834008528,,,083,001,2019_Aug_28_1010,MusicAffectPsychophysiology2019,3.0.5,59.664186214871165,
To what extent did the music make you feel ,GUILTY,30MonoWAV/30MonoF4.wav,1,2,2,4,,,,,0,7,7,3,0,3,3,5,,,,,,,,,1,1.3670136249857023,,,083,001,2019_Aug_28_1010,MusicAffectPsychophysiology2019,3.0.5,59.664186214871165,
To what extent did the music make you feel ,ANXIOUS ,30MonoWAV/30MonoF4.wav,1,2,2,4,,,,,0,7,7,3,0,4,4,1,,,,,,,,,5,2.418313581001712,,,083,001,2019_Aug_28_1010,MusicAffectPsychophysiology2019,3.0.5,59.664186214871165,
To what extent did the music make you feel ,TENDER,30MonoWAV/30MonoF4.wav,1,2,2,4,,,,,0,7,7,3,0,5,5,10,,,,,,,,,1,1.4537784869899042,,,083,001,2019_Aug_28_1010,MusicAffectPsychophysiology2019,3.0.5,59.664186214871165,
To what extent did the music make you feel ,SCARED,30MonoWAV/30MonoF4.wav,1,2,2,4,,,,,0,7,7,3,0,6,6,11,,,,,,,,,4,1.5524822929874063,,,083,001,2019_Aug_28_1010,MusicAffectPsychophysiology2019,3.0.5,59.664186214871165,
To what extent did the music make you feel ,ASHAMED,30MonoWAV/30MonoF4.wav,1,2,2,4,,,,,0,7,7,3,0,7,7,4,,,,,,,,,1,1.5508689940033946,,,083,001,2019_Aug_28_1010,MusicAffectPsychophysiology2019,3.0.5,59.664186214871165,
To what extent did the music make you feel ,SAD,30MonoWAV/30MonoF4.wav,1,2,2,4,,,,,0,7,7,3,0,8,8,0,,,,,,,,,3,3.4188725739950314,,,083,001,2019_Aug_28_1010,MusicAffectPsychophysiology2019,3.0.5,59.664186214871165,
To what extent did the music make you feel ,FRUSTRATED,30MonoWAV/30MonoF4.wav,1,2,2,4,,,,,0,7,7,3,0,9,9,3,,,,,,,,,5,1.6693315510055982,,,083,001,2019_Aug_28_1010,MusicAffectPsychophysiology2019,3.0.5,59.664186214871165,
To what extent did the music make you feel ,HAPPY,30MonoWAV/30MonoF4.wav,1,2,2,4,,,,,0,7,7,3,0,10,10,6,,,,,,,,,1,1.4033275880210567,,,083,001,2019_Aug_28_1010,MusicAffectPsychophysiology2019,3.0.5,59.664186214871165,
To what extent did the music make you feel ,EXCITED,30MonoWAV/30MonoF4.wav,1,2,2,4,,,,,0,7,7,3,0,11,11,7,,,,,,,,,1,0.8682460429845378,,,083,001,2019_Aug_28_1010,MusicAffectPsychophysiology2019,3.0.5,59.664186214871165,
,,30MonoWAV/30MonoF4.wav,1,2,2,4,,,,,0,7,7,3,,,,,,,,,,,,,,,,,083,001,2019_Aug_28_1010,MusicAffectPsychophysiology2019,3.0.5,59.664186214871165,
To what extent did the music make you feel ,SAD,30MonoWAV/30MonoH1.wav,2,2,1,5,,,,,0,8,8,4,0,0,0,0,,,3,3.0179452360025607,3,5.282352129986975,3,3.8510912049969193,1,2.2356173880107235,,,083,001,2019_Aug_28_1010,MusicAffectPsychophysiology2019,3.0.5,59.664186214871165,
To what extent did the music make you feel ,ANGRY,30MonoWAV/30MonoH1.wav,2,2,1,5,,,,,0,8,8,4,0,1,1,2,,,,,,,,,1,0.7358912730123848,,,083,001,2019_Aug_28_1010,MusicAffectPsychophysiology2019,3.0.5,59.664186214871165,
To what extent did the music make you feel ,TENDER,30MonoWAV/30MonoH1.wav,2,2,1,5,,,,,0,8,8,4,0,2,2,10,,,,,,,,,3,3.335161782015348,,,083,001,2019_Aug_28_1010,MusicAffectPsychophysiology2019,3.0.5,59.664186214871165,
To what extent did the music make you feel ,ANXIOUS ,30MonoWAV/30MonoH1.wav,2,2,1,5,,,,,0,8,8,4,0,3,3,1,,,,,,,,,1,1.1022180940199178,,,083,001,2019_Aug_28_1010,MusicAffectPsychophysiology2019,3.0.5,59.664186214871165,
To what extent did the music make you feel ,ACTIVE,30MonoWAV/30MonoH1.wav,2,2,1,5,,,,,0,8,8,4,0,4,4,9,,,,,,,,,4,2.502200582996011,,,083,001,2019_Aug_28_1010,MusicAffectPsychophysiology2019,3.0.5,59.664186214871165,
To what extent did the music make you feel ,ALERT,30MonoWAV/30MonoH1.wav,2,2,1,5,,,,,0,8,8,4,0,5,5,8,,,,,,,,,1,1.134055280010216,,,083,001,2019_Aug_28_1010,MusicAffectPsychophysiology2019,3.0.5,59.664186214871165,
To what extent did the music make you feel ,GUILTY,30MonoWAV/30MonoH1.wav,2,2,1,5,,,,,0,8,8,4,0,6,6,5,,,,,,,,,1,1.0175088700198103,,,083,001,2019_Aug_28_1010,MusicAffectPsychophysiology2019,3.0.5,59.664186214871165,
To what extent did the music make you feel ,FRUSTRATED,30MonoWAV/30MonoH1.wav,2,2,1,5,,,,,0,8,8,4,0,7,7,3,,,,,,,,,1,0.7011603800056037,,,083,001,2019_Aug_28_1010,MusicAffectPsychophysiology2019,3.0.5,59.664186214871165,
To what extent did the music make you feel ,HAPPY,30MonoWAV/30MonoH1.wav,2,2,1,5,,,,,0,8,8,4,0,8,8,6,,,,,,,,,3,2.201698339980794,,,083,001,2019_Aug_28_1010,MusicAffectPsychophysiology2019,3.0.5,59.664186214871165,
To what extent did the music make you feel ,SCARED,30MonoWAV/30MonoH1.wav,2,2,1,5,,,,,0,8,8,4,0,9,9,11,,,,,,,,,1,1.2873460330010857,,,083,001,2019_Aug_28_1010,MusicAffectPsychophysiology2019,3.0.5,59.664186214871165,
To what extent did the music make you feel ,EXCITED,30MonoWAV/30MonoH1.wav,2,2,1,5,,,,,0,8,8,4,0,10,10,7,,,,,,,,,2,1.7031497829884756,,,083,001,2019_Aug_28_1010,MusicAffectPsychophysiology2019,3.0.5,59.664186214871165,
To what extent did the music make you feel ,ASHAMED,30MonoWAV/30MonoH1.wav,2,2,1,5,,,,,0,8,8,4,0,11,11,4,,,,,,,,,1,1.4513690099993255,,,083,001,2019_Aug_28_1010,MusicAffectPsychophysiology2019,3.0.5,59.664186214871165,
,,30MonoWAV/30MonoH1.wav,2,2,1,5,,,,,0,8,8,4,,,,,,,,,,,,,,,,,083,001,2019_Aug_28_1010,MusicAffectPsychophysiology2019,3.0.5,59.664186214871165,
To what extent did the music make you feel ,TENDER,30MonoWAV/30MonoH4.wav,2,2,1,8,,,,,0,9,9,7,0,0,0,10,,,5,3.185223650012631,5,1.969237517012516,4,2.135682855005143,2,5.459984306013212,,,083,001,2019_Aug_28_1010,MusicAffectPsychophysiology2019,3.0.5,59.664186214871165,
To what extent did the music make you feel ,EXCITED,30MonoWAV/30MonoH4.wav,2,2,1,8,,,,,0,9,9,7,0,1,1,7,,,,,,,,,5,2.0688644390029367,,,083,001,2019_Aug_28_1010,MusicAffectPsychophysiology2019,3.0.5,59.664186214871165,
To what extent did the music make you feel ,ASHAMED,30MonoWAV/30MonoH4.wav,2,2,1,8,,,,,0,9,9,7,0,2,2,4,,,,,,,,,1,0.9996165389893577,,,083,001,2019_Aug_28_1010,MusicAffectPsychophysiology2019,3.0.5,59.664186214871165,
To what extent did the music make you feel ,FRUSTRATED,30MonoWAV/30MonoH4.wav,2,2,1,8,,,,,0,9,9,7,0,3,3,3,,,,,,,,,1,1.002346414985368,,,083,001,2019_Aug_28_1010,MusicAffectPsychophysiology2019,3.0.5,59.664186214871165,
To what extent did the music make you feel ,ACTIVE,30MonoWAV/30MonoH4.wav,2,2,1,8,,,,,0,9,9,7,0,4,4,9,,,,,,,,,5,0.8695978290052153,,,083,001,2019_Aug_28_1010,MusicAffectPsychophysiology2019,3.0.5,59.664186214871165,
To what extent did the music make you feel ,SAD,30MonoWAV/30MonoH4.wav,2,2,1,8,,,,,0,9,9,7,0,5,5,0,,,,,,,,,1,1.5031800139986444,,,083,001,2019_Aug_28_1010,MusicAffectPsychophysiology2019,3.0.5,59.664186214871165,
To what extent did the music make you feel ,ANGRY,30MonoWAV/30MonoH4.wav,2,2,1,8,,,,,0,9,9,7,0,6,6,2,,,,,,,,,1,1.6023614089936018,,,083,001,2019_Aug_28_1010,MusicAffectPsychophysiology2019,3.0.5,59.664186214871165,
To what extent did the music make you feel ,HAPPY,30MonoWAV/30MonoH4.wav,2,2,1,8,,,,,0,9,9,7,0,7,7,6,,,,,,,,,5,1.1504454830137547,,,083,001,2019_Aug_28_1010,MusicAffectPsychophysiology2019,3.0.5,59.664186214871165,
To what extent did the music make you feel ,ANXIOUS ,30MonoWAV/30MonoH4.wav,2,2,1,8,,,,,0,9,9,7,0,8,8,1,,,,,,,,,1,1.2686999809811823,,,083,001,2019_Aug_28_1010,MusicAffectPsychophysiology2019,3.0.5,59.664186214871165,
To what extent did the music make you feel ,SCARED,30MonoWAV/30MonoH4.wav,2,2,1,8,,,,,0,9,9,7,0,9,9,11,,,,,,,,,1,0.602072665002197,,,083,001,2019_Aug_28_1010,MusicAffectPsychophysiology2019,3.0.5,59.664186214871165,
To what extent did the music make you feel ,ALERT,30MonoWAV/30MonoH4.wav,2,2,1,8,,,,,0,9,9,7,0,10,10,8,,,,,,,,,1,1.0853698089777026,,,083,001,2019_Aug_28_1010,MusicAffectPsychophysiology2019,3.0.5,59.664186214871165,
To what extent did the music make you feel ,GUILTY,30MonoWAV/30MonoH4.wav,2,2,1,8,,,,,0,9,9,7,0,11,11,5,,,,,,,,,1,3.235309439012781,,,083,001,2019_Aug_28_1010,MusicAffectPsychophysiology2019,3.0.5,59.664186214871165,
,,30MonoWAV/30MonoH4.wav,2,2,1,8,,,,,0,9,9,7,,,,,,,,,,,,,,,,,083,001,2019_Aug_28_1010,MusicAffectPsychophysiology2019,3.0.5,59.664186214871165,
To what extent did the music make you feel ,ALERT,30MonoWAV/30MonoS2.wav,1,1,3,10,,,,,0,10,10,9,0,0,0,8,,,1,5.802491731010377,1,1.2516041889903136,1,2.2859136239858344,1,7.986063568998361,,,083,001,2019_Aug_28_1010,MusicAffectPsychophysiology2019,3.0.5,59.664186214871165,
To what extent did the music make you feel ,ASHAMED,30MonoWAV/30MonoS2.wav,1,1,3,10,,,,,0,10,10,9,0,1,1,4,,,,,,,,,1,3.285773453011643,,,083,001,2019_Aug_28_1010,MusicAffectPsychophysiology2019,3.0.5,59.664186214871165,
To what extent did the music make you feel ,FRUSTRATED,30MonoWAV/30MonoS2.wav,1,1,3,10,,,,,0,10,10,9,0,2,2,3,,,,,,,,,1,1.632065084995702,,,083,001,2019_Aug_28_1010,MusicAffectPsychophysiology2019,3.0.5,59.664186214871165,
To what extent did the music make you feel ,ANXIOUS ,30MonoWAV/30MonoS2.wav,1,1,3,10,,,,,0,10,10,9,0,3,3,1,,,,,,,,,2,2.801859026978491,,,083,001,2019_Aug_28_1010,MusicAffectPsychophysiology2019,3.0.5,59.664186214871165,
To what extent did the music make you feel ,SCARED,30MonoWAV/30MonoS2.wav,1,1,3,10,,,,,0,10,10,9,0,4,4,11,,,,,,,,,2,2.218440853001084,,,083,001,2019_Aug_28_1010,MusicAffectPsychophysiology2019,3.0.5,59.664186214871165,
To what extent did the music make you feel ,TENDER,30MonoWAV/30MonoS2.wav,1,1,3,10,,,,,0,10,10,9,0,5,5,10,,,,,,,,,4,3.4688070609990973,,,083,001,2019_Aug_28_1010,MusicAffectPsychophysiology2019,3.0.5,59.664186214871165,
To what extent did the music make you feel ,ANGRY,30MonoWAV/30MonoS2.wav,1,1,3,10,,,,,0,10,10,9,0,6,6,2,,,,,,,,,1,1.6194504869927187,,,083,001,2019_Aug_28_1010,MusicAffectPsychophysiology2019,3.0.5,59.664186214871165,
To what extent did the music make you feel ,SAD,30MonoWAV/30MonoS2.wav,1,1,3,10,,,,,0,10,10,9,0,7,7,0,,,,,,,,,5,2.4189172880141996,,,083,001,2019_Aug_28_1010,MusicAffectPsychophysiology2019,3.0.5,59.664186214871165,
To what extent did the music make you feel ,EXCITED,30MonoWAV/30MonoS2.wav,1,1,3,10,,,,,0,10,10,9,0,8,8,7,,,,,,,,,1,1.11906651998288,,,083,001,2019_Aug_28_1010,MusicAffectPsychophysiology2019,3.0.5,59.664186214871165,
To what extent did the music make you feel ,HAPPY,30MonoWAV/30MonoS2.wav,1,1,3,10,,,,,0,10,10,9,0,9,9,6,,,,,,,,,1,0.5856758469890337,,,083,001,2019_Aug_28_1010,MusicAffectPsychophysiology2019,3.0.5,59.664186214871165,
To what extent did the music make you feel ,GUILTY,30MonoWAV/30MonoS2.wav,1,1,3,10,,,,,0,10,10,9,0,10,10,5,,,,,,,,,3,1.7019142369972542,,,083,001,2019_Aug_28_1010,MusicAffectPsychophysiology2019,3.0.5,59.664186214871165,
To what extent did the music make you feel ,ACTIVE,30MonoWAV/30MonoS2.wav,1,1,3,10,,,,,0,10,10,9,0,11,11,9,,,,,,,,,1,1.169011591002345,,,083,001,2019_Aug_28_1010,MusicAffectPsychophysiology2019,3.0.5,59.664186214871165,
,,30MonoWAV/30MonoS2.wav,1,1,3,10,,,,,0,10,10,9,,,,,,,,,,,,,,,,,083,001,2019_Aug_28_1010,MusicAffectPsychophysiology2019,3.0.5,59.664186214871165,
To what extent did the music make you feel ,ASHAMED,30MonoWAV/30MonoF3.wav,1,2,2,3,,,,,0,11,11,2,0,0,0,4,,,3,5.099982555984752,2,1.4688263419957366,1,1.485655976983253,1,5.860443439014489,,,083,001,2019_Aug_28_1010,MusicAffectPsychophysiology2019,3.0.5,59.664186214871165,
To what extent did the music make you feel ,TENDER,30MonoWAV/30MonoF3.wav,1,2,2,3,,,,,0,11,11,2,0,1,1,10,,,,,,,,,1,1.25218506300007,,,083,001,2019_Aug_28_1010,MusicAffectPsychophysiology2019,3.0.5,59.664186214871165,
To what extent did the music make you feel ,FRUSTRATED,30MonoWAV/30MonoF3.wav,1,2,2,3,,,,,0,11,11,2,0,2,2,3,,,,,,,,,2,1.344297761010239,,,083,001,2019_Aug_28_1010,MusicAffectPsychophysiology2019,3.0.5,59.664186214871165,
To what extent did the music make you feel ,ANGRY,30MonoWAV/30MonoF3.wav,1,2,2,3,,,,,0,11,11,2,0,3,3,2,,,,,,,,,1,4.951733265974326,,,083,001,2019_Aug_28_1010,MusicAffectPsychophysiology2019,3.0.5,59.664186214871165,
To what extent did the music make you feel ,SCARED,30MonoWAV/30MonoF3.wav,1,2,2,3,,,,,0,11,11,2,0,4,4,11,,,,,,,,,2,1.3664014309761114,,,083,001,2019_Aug_28_1010,MusicAffectPsychophysiology2019,3.0.5,59.664186214871165,
To what extent did the music make you feel ,ACTIVE,30MonoWAV/30MonoF3.wav,1,2,2,3,,,,,0,11,11,2,0,5,5,9,,,,,,,,,3,3.503031388972886,,,083,001,2019_Aug_28_1010,MusicAffectPsychophysiology2019,3.0.5,59.664186214871165,
To what extent did the music make you feel ,ALERT,30MonoWAV/30MonoF3.wav,1,2,2,3,,,,,0,11,11,2,0,6,6,8,,,,,,,,,2,5.649378107016673,,,083,001,2019_Aug_28_1010,MusicAffectPsychophysiology2019,3.0.5,59.664186214871165,
To what extent did the music make you feel ,SAD,30MonoWAV/30MonoF3.wav,1,2,2,3,,,,,0,11,11,2,0,7,7,0,,,,,,,,,1,1.9857923829986248,,,083,001,2019_Aug_28_1010,MusicAffectPsychophysiology2019,3.0.5,59.664186214871165,
To what extent did the music make you feel ,GUILTY,30MonoWAV/30MonoF3.wav,1,2,2,3,,,,,0,11,11,2,0,8,8,5,,,,,,,,,2,2.2856652639748063,,,083,001,2019_Aug_28_1010,MusicAffectPsychophysiology2019,3.0.5,59.664186214871165,
To what extent did the music make you feel ,HAPPY,30MonoWAV/30MonoF3.wav,1,2,2,3,,,,,0,11,11,2,0,9,9,6,,,,,,,,,1,1.5846357890113723,,,083,001,2019_Aug_28_1010,MusicAffectPsychophysiology2019,3.0.5,59.664186214871165,
To what extent did the music make you feel ,ANXIOUS ,30MonoWAV/30MonoF3.wav,1,2,2,3,,,,,0,11,11,2,0,10,10,1,,,,,,,,,4,2.269444511999609,,,083,001,2019_Aug_28_1010,MusicAffectPsychophysiology2019,3.0.5,59.664186214871165,
To what extent did the music make you feel ,EXCITED,30MonoWAV/30MonoF3.wav,1,2,2,3,,,,,0,11,11,2,0,11,11,7,,,,,,,,,2,7.249669970013201,,,083,001,2019_Aug_28_1010,MusicAffectPsychophysiology2019,3.0.5,59.664186214871165,
,,30MonoWAV/30MonoF3.wav,1,2,2,3,,,,,0,11,11,2,,,,,,,,,,,,,,,,,083,001,2019_Aug_28_1010,MusicAffectPsychophysiology2019,3.0.5,59.664186214871165,
To what extent did the music make you feel ,ANGRY,30MonoWAV/30MonoH2.wav,2,2,1,6,,,,,0,12,12,5,0,0,0,2,,,4,3.6998816539999098,3,2.0361642990028486,2,2.00186794999172,1,4.002259502012748,,,083,001,2019_Aug_28_1010,MusicAffectPsychophysiology2019,3.0.5,59.664186214871165,
To what extent did the music make you feel ,EXCITED,30MonoWAV/30MonoH2.wav,2,2,1,6,,,,,0,12,12,5,0,1,1,7,,,,,,,,,4,6.166372530016815,,,083,001,2019_Aug_28_1010,MusicAffectPsychophysiology2019,3.0.5,59.664186214871165,
To what extent did the music make you feel ,GUILTY,30MonoWAV/30MonoH2.wav,2,2,1,6,,,,,0,12,12,5,0,2,2,5,,,,,,,,,1,2.7186054140038323,,,083,001,2019_Aug_28_1010,MusicAffectPsychophysiology2019,3.0.5,59.664186214871165,
To what extent did the music make you feel ,ACTIVE,30MonoWAV/30MonoH2.wav,2,2,1,6,,,,,0,12,12,5,0,3,3,9,,,,,,,,,3,2.619294047995936,,,083,001,2019_Aug_28_1010,MusicAffectPsychophysiology2019,3.0.5,59.664186214871165,
To what extent did the music make you feel ,ASHAMED,30MonoWAV/30MonoH2.wav,2,2,1,6,,,,,0,12,12,5,0,4,4,4,,,,,,,,,1,1.5529250770050567,,,083,001,2019_Aug_28_1010,MusicAffectPsychophysiology2019,3.0.5,59.664186214871165,
To what extent did the music make you feel ,ANXIOUS ,30MonoWAV/30MonoH2.wav,2,2,1,6,,,,,0,12,12,5,0,5,5,1,,,,,,,,,1,2.5857540800061543,,,083,001,2019_Aug_28_1010,MusicAffectPsychophysiology2019,3.0.5,59.664186214871165,
To what extent did the music make you feel ,HAPPY,30MonoWAV/30MonoH2.wav,2,2,1,6,,,,,0,12,12,5,0,6,6,6,,,,,,,,,2,1.8692686989961658,,,083,001,2019_Aug_28_1010,MusicAffectPsychophysiology2019,3.0.5,59.664186214871165,
To what extent did the music make you feel ,ALERT,30MonoWAV/30MonoH2.wav,2,2,1,6,,,,,0,12,12,5,0,7,7,8,,,,,,,,,1,2.3855758309946395,,,083,001,2019_Aug_28_1010,MusicAffectPsychophysiology2019,3.0.5,59.664186214871165,
To what extent did the music make you feel ,TENDER,30MonoWAV/30MonoH2.wav,2,2,1,6,,,,,0,12,12,5,0,8,8,10,,,,,,,,,1,1.4532233710051514,,,083,001,2019_Aug_28_1010,MusicAffectPsychophysiology2019,3.0.5,59.664186214871165,
To what extent did the music make you feel ,SAD,30MonoWAV/30MonoH2.wav,2,2,1,6,,,,,0,12,12,5,0,9,9,0,,,,,,,,,2,2.8687477570201736,,,083,001,2019_Aug_28_1010,MusicAffectPsychophysiology2019,3.0.5,59.664186214871165,
To what extent did the music make you feel ,SCARED,30MonoWAV/30MonoH2.wav,2,2,1,6,,,,,0,12,12,5,0,10,10,11,,,,,,,,,1,1.3373183399962727,,,083,001,2019_Aug_28_1010,MusicAffectPsychophysiology2019,3.0.5,59.664186214871165,
To what extent did the music make you feel ,FRUSTRATED,30MonoWAV/30MonoH2.wav,2,2,1,6,,,,,0,12,12,5,0,11,11,3,,,,,,,,,1,0.6823126360250171,,,083,001,2019_Aug_28_1010,MusicAffectPsychophysiology2019,3.0.5,59.664186214871165,
,,30MonoWAV/30MonoH2.wav,2,2,1,6,,,,,0,12,12,5,,,,,,,,,,,,,,,,,083,001,2019_Aug_28_1010,MusicAffectPsychophysiology2019,3.0.5,59.664186214871165,
To what extent did the music make you feel ,ACTIVE,30MonoWAV/30MonoS3.wav,1,1,3,11,,,,,0,13,13,10,0,0,0,9,,,3,3.4184881639957894,2,2.3019797260058112,1,3.434960640995996,1,3.109711981989676,,,083,001,2019_Aug_28_1010,MusicAffectPsychophysiology2019,3.0.5,59.664186214871165,
To what extent did the music make you feel ,GUILTY,30MonoWAV/30MonoS3.wav,1,1,3,11,,,,,0,13,13,10,0,1,1,5,,,,,,,,,4,2.802075434010476,,,083,001,2019_Aug_28_1010,MusicAffectPsychophysiology2019,3.0.5,59.664186214871165,
To what extent did the music make you feel ,TENDER,30MonoWAV/30MonoS3.wav,1,1,3,11,,,,,0,13,13,10,0,2,2,10,,,,,,,,,3,2.4846174879930913,,,083,001,2019_Aug_28_1010,MusicAffectPsychophysiology2019,3.0.5,59.664186214871165,
To what extent did the music make you feel ,ANXIOUS ,30MonoWAV/30MonoS3.wav,1,1,3,11,,,,,0,13,13,10,0,3,3,1,,,,,,,,,1,2.6668512459727935,,,083,001,2019_Aug_28_1010,MusicAffectPsychophysiology2019,3.0.5,59.664186214871165,
To what extent did the music make you feel ,SCARED,30MonoWAV/30MonoS3.wav,1,1,3,11,,,,,0,13,13,10,0,4,4,11,,,,,,,,,1,0.8694070519995876,,,083,001,2019_Aug_28_1010,MusicAffectPsychophysiology2019,3.0.5,59.664186214871165,
To what extent did the music make you feel ,ALERT,30MonoWAV/30MonoS3.wav,1,1,3,11,,,,,0,13,13,10,0,5,5,8,,,,,,,,,2,2.5516517180076335,,,083,001,2019_Aug_28_1010,MusicAffectPsychophysiology2019,3.0.5,59.664186214871165,
To what extent did the music make you feel ,HAPPY,30MonoWAV/30MonoS3.wav,1,1,3,11,,,,,0,13,13,10,0,6,6,6,,,,,,,,,1,0.9195044270018116,,,083,001,2019_Aug_28_1010,MusicAffectPsychophysiology2019,3.0.5,59.664186214871165,
To what extent did the music make you feel ,FRUSTRATED,30MonoWAV/30MonoS3.wav,1,1,3,11,,,,,0,13,13,10,0,7,7,3,,,,,,,,,1,1.2085889459995087,,,083,001,2019_Aug_28_1010,MusicAffectPsychophysiology2019,3.0.5,59.664186214871165,
To what extent did the music make you feel ,ASHAMED,30MonoWAV/30MonoS3.wav,1,1,3,11,,,,,0,13,13,10,0,8,8,4,,,,,,,,,3,2.7685687949997373,,,083,001,2019_Aug_28_1010,MusicAffectPsychophysiology2019,3.0.5,59.664186214871165,
To what extent did the music make you feel ,SAD,30MonoWAV/30MonoS3.wav,1,1,3,11,,,,,0,13,13,10,0,9,9,0,,,,,,,,,3,3.5367257410252932,,,083,001,2019_Aug_28_1010,MusicAffectPsychophysiology2019,3.0.5,59.664186214871165,
To what extent did the music make you feel ,EXCITED,30MonoWAV/30MonoS3.wav,1,1,3,11,,,,,0,13,13,10,0,10,10,7,,,,,,,,,1,1.5527472530084196,,,083,001,2019_Aug_28_1010,MusicAffectPsychophysiology2019,3.0.5,59.664186214871165,
To what extent did the music make you feel ,ANGRY,30MonoWAV/30MonoS3.wav,1,1,3,11,,,,,0,13,13,10,0,11,11,2,,,,,,,,,1,1.702786888985429,,,083,001,2019_Aug_28_1010,MusicAffectPsychophysiology2019,3.0.5,59.664186214871165,
,,30MonoWAV/30MonoS3.wav,1,1,3,11,,,,,0,13,13,10,,,,,,,,,,,,,,,,,083,001,2019_Aug_28_1010,MusicAffectPsychophysiology2019,3.0.5,59.664186214871165,
To what extent did the music make you feel ,ALERT,30MonoWAV/30MonoT4.wav,2,1,4,16,,,,,0,14,14,15,0,0,0,8,,,4,3.802555389003828,4,2.1194047610042617,3,1.5177213469869457,1,1.6526935150031932,,,083,001,2019_Aug_28_1010,MusicAffectPsychophysiology2019,3.0.5,59.664186214871165,
To what extent did the music make you feel ,EXCITED,30MonoWAV/30MonoT4.wav,2,1,4,16,,,,,0,14,14,15,0,1,1,7,,,,,,,,,3,2.519178093993105,,,083,001,2019_Aug_28_1010,MusicAffectPsychophysiology2019,3.0.5,59.664186214871165,
To what extent did the music make you feel ,GUILTY,30MonoWAV/30MonoT4.wav,2,1,4,16,,,,,0,14,14,15,0,2,2,5,,,,,,,,,1,1.4523570869932882,,,083,001,2019_Aug_28_1010,MusicAffectPsychophysiology2019,3.0.5,59.664186214871165,
To what extent did the music make you feel ,ASHAMED,30MonoWAV/30MonoT4.wav,2,1,4,16,,,,,0,14,14,15,0,3,3,4,,,,,,,,,1,0.9022324300021864,,,083,001,2019_Aug_28_1010,MusicAffectPsychophysiology2019,3.0.5,59.664186214871165,
To what extent did the music make you feel ,SCARED,30MonoWAV/30MonoT4.wav,2,1,4,16,,,,,0,14,14,15,0,4,4,11,,,,,,,,,1,0.7524331429740414,,,083,001,2019_Aug_28_1010,MusicAffectPsychophysiology2019,3.0.5,59.664186214871165,
To what extent did the music make you feel ,TENDER,30MonoWAV/30MonoT4.wav,2,1,4,16,,,,,0,14,14,15,0,5,5,10,,,,,,,,,5,1.8359110520104878,,,083,001,2019_Aug_28_1010,MusicAffectPsychophysiology2019,3.0.5,59.664186214871165,
To what extent did the music make you feel ,ANXIOUS ,30MonoWAV/30MonoT4.wav,2,1,4,16,,,,,0,14,14,15,0,6,6,1,,,,,,,,,1,1.7185184209956788,,,083,001,2019_Aug_28_1010,MusicAffectPsychophysiology2019,3.0.5,59.664186214871165,
To what extent did the music make you feel ,ANGRY,30MonoWAV/30MonoT4.wav,2,1,4,16,,,,,0,14,14,15,0,7,7,2,,,,,,,,,1,1.0524121500202455,,,083,001,2019_Aug_28_1010,MusicAffectPsychophysiology2019,3.0.5,59.664186214871165,
To what extent did the music make you feel ,FRUSTRATED,30MonoWAV/30MonoT4.wav,2,1,4,16,,,,,0,14,14,15,0,8,8,3,,,,,,,,,1,0.9360734499932732,,,083,001,2019_Aug_28_1010,MusicAffectPsychophysiology2019,3.0.5,59.664186214871165,
To what extent did the music make you feel ,SAD,30MonoWAV/30MonoT4.wav,2,1,4,16,,,,,0,14,14,15,0,9,9,0,,,,,,,,,2,2.802395334991161,,,083,001,2019_Aug_28_1010,MusicAffectPsychophysiology2019,3.0.5,59.664186214871165,
To what extent did the music make you feel ,HAPPY,30MonoWAV/30MonoT4.wav,2,1,4,16,,,,,0,14,14,15,0,10,10,6,,,,,,,,,1,2.602350667002611,,,083,001,2019_Aug_28_1010,MusicAffectPsychophysiology2019,3.0.5,59.664186214871165,
To what extent did the music make you feel ,ACTIVE,30MonoWAV/30MonoT4.wav,2,1,4,16,,,,,0,14,14,15,0,11,11,9,,,,,,,,,3,2.968678973003989,,,083,001,2019_Aug_28_1010,MusicAffectPsychophysiology2019,3.0.5,59.664186214871165,
,,30MonoWAV/30MonoT4.wav,2,1,4,16,,,,,0,14,14,15,,,,,,,,,,,,,,,,,083,001,2019_Aug_28_1010,MusicAffectPsychophysiology2019,3.0.5,59.664186214871165,
To what extent did the music make you feel ,ASHAMED,30MonoWAV/30MonoF1.wav,1,2,2,1,,,,,0,15,15,0,0,0,0,4,,,1,6.652742967009544,1,1.3517746129946318,1,1.268213736009784,1,4.544104438013164,,,083,001,2019_Aug_28_1010,MusicAffectPsychophysiology2019,3.0.5,59.664186214871165,
To what extent did the music make you feel ,SCARED,30MonoWAV/30MonoF1.wav,1,2,2,1,,,,,0,15,15,0,0,1,1,11,,,,,,,,,5,1.787046928977361,,,083,001,2019_Aug_28_1010,MusicAffectPsychophysiology2019,3.0.5,59.664186214871165,
To what extent did the music make you feel ,GUILTY,30MonoWAV/30MonoF1.wav,1,2,2,1,,,,,0,15,15,0,0,2,2,5,,,,,,,,,1,1.7939874019939452,,,083,001,2019_Aug_28_1010,MusicAffectPsychophysiology2019,3.0.5,59.664186214871165,
To what extent did the music make you feel ,ANXIOUS ,30MonoWAV/30MonoF1.wav,1,2,2,1,,,,,0,15,15,0,0,3,3,1,,,,,,,,,5,1.8686611189914402,,,083,001,2019_Aug_28_1010,MusicAffectPsychophysiology2019,3.0.5,59.664186214871165,
To what extent did the music make you feel ,ANGRY,30MonoWAV/30MonoF1.wav,1,2,2,1,,,,,0,15,15,0,0,4,4,2,,,,,,,,,2,1.985578482010169,,,083,001,2019_Aug_28_1010,MusicAffectPsychophysiology2019,3.0.5,59.664186214871165,
To what extent did the music make you feel ,EXCITED,30MonoWAV/30MonoF1.wav,1,2,2,1,,,,,0,15,15,0,0,5,5,7,,,,,,,,,1,1.9523144790146034,,,083,001,2019_Aug_28_1010,MusicAffectPsychophysiology2019,3.0.5,59.664186214871165,
To what extent did the music make you feel ,FRUSTRATED,30MonoWAV/30MonoF1.wav,1,2,2,1,,,,,0,15,15,0,0,6,6,3,,,,,,,,,5,1.6095878469932359,,,083,001,2019_Aug_28_1010,MusicAffectPsychophysiology2019,3.0.5,59.664186214871165,
To what extent did the music make you feel ,TENDER,30MonoWAV/30MonoF1.wav,1,2,2,1,,,,,0,15,15,0,0,7,7,10,,,,,,,,,1,1.4196110369812232,,,083,001,2019_Aug_28_1010,MusicAffectPsychophysiology2019,3.0.5,59.664186214871165,
To what extent did the music make you feel ,ALERT,30MonoWAV/30MonoF1.wav,1,2,2,1,,,,,0,15,15,0,0,8,8,8,,,,,,,,,1,2.7347913199919276,,,083,001,2019_Aug_28_1010,MusicAffectPsychophysiology2019,3.0.5,59.664186214871165,
To what extent did the music make you feel ,ACTIVE,30MonoWAV/30MonoF1.wav,1,2,2,1,,,,,0,15,15,0,0,9,9,9,,,,,,,,,1,4.3681982579873875,,,083,001,2019_Aug_28_1010,MusicAffectPsychophysiology2019,3.0.5,59.664186214871165,
To what extent did the music make you feel ,HAPPY,30MonoWAV/30MonoF1.wav,1,2,2,1,,,,,0,15,15,0,0,10,10,6,,,,,,,,,1,0.5691447030112613,,,083,001,2019_Aug_28_1010,MusicAffectPsychophysiology2019,3.0.5,59.664186214871165,
To what extent did the music make you feel ,SAD,30MonoWAV/30MonoF1.wav,1,2,2,1,,,,,0,15,15,0,0,11,11,0,,,,,,,,,1,1.2192179690173361,,,083,001,2019_Aug_28_1010,MusicAffectPsychophysiology2019,3.0.5,59.664186214871165,
,,30MonoWAV/30MonoF1.wav,1,2,2,1,,,,,0,15,15,0,,,,,,,,,,,,,,,,,083,001,2019_Aug_28_1010,MusicAffectPsychophysiology2019,3.0.5,59.664186214871165,
To what extent did the music make you feel ,ACTIVE,30MonoWAV/30MonoH1.wav,2,2,1,5,,,,,1,0,16,4,0,0,0,9,,,3,4.23566049800138,4,1.5186310470162425,4,4.018205091007985,4,4.0690906119998544,,,083,001,2019_Aug_28_1010,MusicAffectPsychophysiology2019,3.0.5,59.664186214871165,
To what extent did the music make you feel ,ANXIOUS ,30MonoWAV/30MonoH1.wav,2,2,1,5,,,,,1,0,16,4,0,1,1,1,,,,,,,,,1,1.2684095659933519,,,083,001,2019_Aug_28_1010,MusicAffectPsychophysiology2019,3.0.5,59.664186214871165,
To what extent did the music make you feel ,FRUSTRATED,30MonoWAV/30MonoH1.wav,2,2,1,5,,,,,1,0,16,4,0,2,2,3,,,,,,,,,1,0.8189053730166052,,,083,001,2019_Aug_28_1010,MusicAffectPsychophysiology2019,3.0.5,59.664186214871165,
To what extent did the music make you feel ,SCARED,30MonoWAV/30MonoH1.wav,2,2,1,5,,,,,1,0,16,4,0,3,3,11,,,,,,,,,1,0.6338115239923354,,,083,001,2019_Aug_28_1010,MusicAffectPsychophysiology2019,3.0.5,59.664186214871165,
To what extent did the music make you feel ,EXCITED,30MonoWAV/30MonoH1.wav,2,2,1,5,,,,,1,0,16,4,0,4,4,7,,,,,,,,,4,2.1016876380017493,,,083,001,2019_Aug_28_1010,MusicAffectPsychophysiology2019,3.0.5,59.664186214871165,
To what extent did the music make you feel ,HAPPY,30MonoWAV/30MonoH1.wav,2,2,1,5,,,,,1,0,16,4,0,5,5,6,,,,,,,,,4,1.2527903839945793,,,083,001,2019_Aug_28_1010,MusicAffectPsychophysiology2019,3.0.5,59.664186214871165,
To what extent did the music make you feel ,ANGRY,30MonoWAV/30MonoH1.wav,2,2,1,5,,,,,1,0,16,4,0,6,6,2,,,,,,,,,1,1.3859750020201318,,,083,001,2019_Aug_28_1010,MusicAffectPsychophysiology2019,3.0.5,59.664186214871165,
To what extent did the music make you feel ,ALERT,30MonoWAV/30MonoH1.wav,2,2,1,5,,,,,1,0,16,4,0,7,7,8,,,,,,,,,1,0.8521305529866368,,,083,001,2019_Aug_28_1010,MusicAffectPsychophysiology2019,3.0.5,59.664186214871165,
To what extent did the music make you feel ,ASHAMED,30MonoWAV/30MonoH1.wav,2,2,1,5,,,,,1,0,16,4,0,8,8,4,,,,,,,,,1,0.6524085279961582,,,083,001,2019_Aug_28_1010,MusicAffectPsychophysiology2019,3.0.5,59.664186214871165,
To what extent did the music make you feel ,GUILTY,30MonoWAV/30MonoH1.wav,2,2,1,5,,,,,1,0,16,4,0,9,9,5,,,,,,,,,1,0.7678791149810422,,,083,001,2019_Aug_28_1010,MusicAffectPsychophysiology2019,3.0.5,59.664186214871165,
To what extent did the music make you feel ,SAD,30MonoWAV/30MonoH1.wav,2,2,1,5,,,,,1,0,16,4,0,10,10,0,,,,,,,,,1,0.569081114983419,,,083,001,2019_Aug_28_1010,MusicAffectPsychophysiology2019,3.0.5,59.664186214871165,
To what extent did the music make you feel ,TENDER,30MonoWAV/30MonoH1.wav,2,2,1,5,,,,,1,0,16,4,0,11,11,10,,,,,,,,,2,2.736656410008436,,,083,001,2019_Aug_28_1010,MusicAffectPsychophysiology2019,3.0.5,59.664186214871165,
,,30MonoWAV/30MonoH1.wav,2,2,1,5,,,,,1,0,16,4,,,,,,,,,,,,,,,,,083,001,2019_Aug_28_1010,MusicAffectPsychophysiology2019,3.0.5,59.664186214871165,
To what extent did the music make you feel ,SCARED,30MonoWAV/30MonoT4.wav,2,1,4,16,,,,,1,1,17,15,0,0,0,11,,,3,6.202328215003945,4,2.5513272660027724,3,2.119810615986353,1,1.3946387489850167,,,083,001,2019_Aug_28_1010,MusicAffectPsychophysiology2019,3.0.5,59.664186214871165,
To what extent did the music make you feel ,ANGRY,30MonoWAV/30MonoT4.wav,2,1,4,16,,,,,1,1,17,15,0,1,1,2,,,,,,,,,1,0.9678785620199051,,,083,001,2019_Aug_28_1010,MusicAffectPsychophysiology2019,3.0.5,59.664186214871165,
To what extent did the music make you feel ,TENDER,30MonoWAV/30MonoT4.wav,2,1,4,16,,,,,1,1,17,15,0,2,2,10,,,,,,,,,4,2.568610868009273,,,083,001,2019_Aug_28_1010,MusicAffectPsychophysiology2019,3.0.5,59.664186214871165,
To what extent did the music make you feel ,ALERT,30MonoWAV/30MonoT4.wav,2,1,4,16,,,,,1,1,17,15,0,3,3,8,,,,,,,,,1,1.9513852020027116,,,083,001,2019_Aug_28_1010,MusicAffectPsychophysiology2019,3.0.5,59.664186214871165,
To what extent did the music make you feel ,FRUSTRATED,30MonoWAV/30MonoT4.wav,2,1,4,16,,,,,1,1,17,15,0,4,4,3,,,,,,,,,1,0.7684597090119496,,,083,001,2019_Aug_28_1010,MusicAffectPsychophysiology2019,3.0.5,59.664186214871165,
To what extent did the music make you feel ,ACTIVE,30MonoWAV/30MonoT4.wav,2,1,4,16,,,,,1,1,17,15,0,5,5,9,,,,,,,,,2,1.5027517499984242,,,083,001,2019_Aug_28_1010,MusicAffectPsychophysiology2019,3.0.5,59.664186214871165,
To what extent did the music make you feel ,SAD,30MonoWAV/30MonoT4.wav,2,1,4,16,,,,,1,1,17,15,0,6,6,0,,,,,,,,,1,2.6016429390001576,,,083,001,2019_Aug_28_1010,MusicAffectPsychophysiology2019,3.0.5,59.664186214871165,
To what extent did the music make you feel ,EXCITED,30MonoWAV/30MonoT4.wav,2,1,4,16,,,,,1,1,17,15,0,7,7,7,,,,,,,,,2,2.301486098993337,,,083,001,2019_Aug_28_1010,MusicAffectPsychophysiology2019,3.0.5,59.664186214871165,
To what extent did the music make you feel ,ASHAMED,30MonoWAV/30MonoT4.wav,2,1,4,16,,,,,1,1,17,15,0,8,8,4,,,,,,,,,1,1.0688285409996752,,,083,001,2019_Aug_28_1010,MusicAffectPsychophysiology2019,3.0.5,59.664186214871165,
To what extent did the music make you feel ,ANXIOUS ,30MonoWAV/30MonoT4.wav,2,1,4,16,,,,,1,1,17,15,0,9,9,1,,,,,,,,,1,1.685429042991018,,,083,001,2019_Aug_28_1010,MusicAffectPsychophysiology2019,3.0.5,59.664186214871165,
To what extent did the music make you feel ,GUILTY,30MonoWAV/30MonoT4.wav,2,1,4,16,,,,,1,1,17,15,0,10,10,5,,,,,,,,,1,0.6189954089932144,,,083,001,2019_Aug_28_1010,MusicAffectPsychophysiology2019,3.0.5,59.664186214871165,
To what extent did the music make you feel ,HAPPY,30MonoWAV/30MonoT4.wav,2,1,4,16,,,,,1,1,17,15,0,11,11,6,,,,,,,,,3,2.1530879290075973,,,083,001,2019_Aug_28_1010,MusicAffectPsychophysiology2019,3.0.5,59.664186214871165,
,,30MonoWAV/30MonoT4.wav,2,1,4,16,,,,,1,1,17,15,,,,,,,,,,,,,,,,,083,001,2019_Aug_28_1010,MusicAffectPsychophysiology2019,3.0.5,59.664186214871165,
To what extent did the music make you feel ,GUILTY,30MonoWAV/30MonoS1.wav,1,1,3,9,,,,,1,2,18,8,0,0,0,5,,,2,10.184480643976713,3,1.4025528250203934,3,2.335830370982876,3,5.6188969379873015,,,083,001,2019_Aug_28_1010,MusicAffectPsychophysiology2019,3.0.5,59.664186214871165,
To what extent did the music make you feel ,ASHAMED,30MonoWAV/30MonoS1.wav,1,1,3,9,,,,,1,2,18,8,0,1,1,4,,,,,,,,,1,1.4515818970103282,,,083,001,2019_Aug_28_1010,MusicAffectPsychophysiology2019,3.0.5,59.664186214871165,
To what extent did the music make you feel ,SAD,30MonoWAV/30MonoS1.wav,1,1,3,9,,,,,1,2,18,8,0,2,2,0,,,,,,,,,2,3.103366163006285,,,083,001,2019_Aug_28_1010,MusicAffectPsychophysiology2019,3.0.5,59.664186214871165,
To what extent did the music make you feel ,SCARED,30MonoWAV/30MonoS1.wav,1,1,3,9,,,,,1,2,18,8,0,3,3,11,,,,,,,,,1,1.7185532889852766,,,083,001,2019_Aug_28_1010,MusicAffectPsychophysiology2019,3.0.5,59.664186214871165,
To what extent did the music make you feel ,EXCITED,30MonoWAV/30MonoS1.wav,1,1,3,9,,,,,1,2,18,8,0,4,4,7,,,,,,,,,1,1.203217770991614,,,083,001,2019_Aug_28_1010,MusicAffectPsychophysiology2019,3.0.5,59.664186214871165,
To what extent did the music make you feel ,HAPPY,30MonoWAV/30MonoS1.wav,1,1,3,9,,,,,1,2,18,8,0,5,5,6,,,,,,,,,1,1.5859478370111901,,,083,001,2019_Aug_28_1010,MusicAffectPsychophysiology2019,3.0.5,59.664186214871165,
To what extent did the music make you feel ,ALERT,30MonoWAV/30MonoS1.wav,1,1,3,9,,,,,1,2,18,8,0,6,6,8,,,,,,,,,1,0.75256883201655,,,083,001,2019_Aug_28_1010,MusicAffectPsychophysiology2019,3.0.5,59.664186214871165,
To what extent did the music make you feel ,ANXIOUS ,30MonoWAV/30MonoS1.wav,1,1,3,9,,,,,1,2,18,8,0,7,7,1,,,,,,,,,1,1.25218398598372,,,083,001,2019_Aug_28_1010,MusicAffectPsychophysiology2019,3.0.5,59.664186214871165,
To what extent did the music make you feel ,TENDER,30MonoWAV/30MonoS1.wav,1,1,3,9,,,,,1,2,18,8,0,8,8,10,,,,,,,,,4,2.5020104850118514,,,083,001,2019_Aug_28_1010,MusicAffectPsychophysiology2019,3.0.5,59.664186214871165,
To what extent did the music make you feel ,FRUSTRATED,30MonoWAV/30MonoS1.wav,1,1,3,9,,,,,1,2,18,8,0,9,9,3,,,,,,,,,1,1.9676998750073835,,,083,001,2019_Aug_28_1010,MusicAffectPsychophysiology2019,3.0.5,59.664186214871165,
To what extent did the music make you feel ,ACTIVE,30MonoWAV/30MonoS1.wav,1,1,3,9,,,,,1,2,18,8,0,10,10,9,,,,,,,,,1,1.8004410749999806,,,083,001,2019_Aug_28_1010,MusicAffectPsychophysiology2019,3.0.5,59.664186214871165,
To what extent did the music make you feel ,ANGRY,30MonoWAV/30MonoS1.wav,1,1,3,9,,,,,1,2,18,8,0,11,11,2,,,,,,,,,1,0.7696725370187778,,,083,001,2019_Aug_28_1010,MusicAffectPsychophysiology2019,3.0.5,59.664186214871165,
,,30MonoWAV/30MonoS1.wav,1,1,3,9,,,,,1,2,18,8,,,,,,,,,,,,,,,,,083,001,2019_Aug_28_1010,MusicAffectPsychophysiology2019,3.0.5,59.664186214871165,
To what extent did the music make you feel ,ANXIOUS ,30MonoWAV/30MonoT3.wav,2,1,4,15,,,,,1,3,19,14,0,0,0,1,,,2,3.703067458991427,2,1.5507813059957698,2,1.4358621280116495,2,3.528223285014974,,,083,001,2019_Aug_28_1010,MusicAffectPsychophysiology2019,3.0.5,59.664186214871165,
To what extent did the music make you feel ,ASHAMED,30MonoWAV/30MonoT3.wav,2,1,4,15,,,,,1,3,19,14,0,1,1,4,,,,,,,,,1,2.2526908069849014,,,083,001,2019_Aug_28_1010,MusicAffectPsychophysiology2019,3.0.5,59.664186214871165,
To what extent did the music make you feel ,TENDER,30MonoWAV/30MonoT3.wav,2,1,4,15,,,,,1,3,19,14,0,2,2,10,,,,,,,,,5,2.38526616897434,,,083,001,2019_Aug_28_1010,MusicAffectPsychophysiology2019,3.0.5,59.664186214871165,
To what extent did the music make you feel ,ALERT,30MonoWAV/30MonoT3.wav,2,1,4,15,,,,,1,3,19,14,0,3,3,8,,,,,,,,,1,1.818916539021302,,,083,001,2019_Aug_28_1010,MusicAffectPsychophysiology2019,3.0.5,59.664186214871165,
To what extent did the music make you feel ,ACTIVE,30MonoWAV/30MonoT3.wav,2,1,4,15,,,,,1,3,19,14,0,4,4,9,,,,,,,,,1,1.1198461180028971,,,083,001,2019_Aug_28_1010,MusicAffectPsychophysiology2019,3.0.5,59.664186214871165,
To what extent did the music make you feel ,GUILTY,30MonoWAV/30MonoT3.wav,2,1,4,15,,,,,1,3,19,14,0,5,5,5,,,,,,,,,1,1.1016925259900745,,,083,001,2019_Aug_28_1010,MusicAffectPsychophysiology2019,3.0.5,59.664186214871165,
To what extent did the music make you feel ,HAPPY,30MonoWAV/30MonoT3.wav,2,1,4,15,,,,,1,3,19,14,0,6,6,6,,,,,,,,,1,0.9355538109957706,,,083,001,2019_Aug_28_1010,MusicAffectPsychophysiology2019,3.0.5,59.664186214871165,
To what extent did the music make you feel ,ANGRY,30MonoWAV/30MonoT3.wav,2,1,4,15,,,,,1,3,19,14,0,7,7,2,,,,,,,,,1,0.9366490359825548,,,083,001,2019_Aug_28_1010,MusicAffectPsychophysiology2019,3.0.5,59.664186214871165,
To what extent did the music make you feel ,FRUSTRATED,30MonoWAV/30MonoT3.wav,2,1,4,15,,,,,1,3,19,14,0,8,8,3,,,,,,,,,1,1.211990348994732,,,083,001,2019_Aug_28_1010,MusicAffectPsychophysiology2019,3.0.5,59.664186214871165,
To what extent did the music make you feel ,EXCITED,30MonoWAV/30MonoT3.wav,2,1,4,15,,,,,1,3,19,14,0,9,9,7,,,,,,,,,1,0.7019391740032006,,,083,001,2019_Aug_28_1010,MusicAffectPsychophysiology2019,3.0.5,59.664186214871165,
To what extent did the music make you feel ,SCARED,30MonoWAV/30MonoT3.wav,2,1,4,15,,,,,1,3,19,14,0,10,10,11,,,,,,,,,1,0.8021884670015424,,,083,001,2019_Aug_28_1010,MusicAffectPsychophysiology2019,3.0.5,59.664186214871165,
To what extent did the music make you feel ,SAD,30MonoWAV/30MonoT3.wav,2,1,4,15,,,,,1,3,19,14,0,11,11,0,,,,,,,,,2,1.6686883899965324,,,083,001,2019_Aug_28_1010,MusicAffectPsychophysiology2019,3.0.5,59.664186214871165,
,,30MonoWAV/30MonoT3.wav,2,1,4,15,,,,,1,3,19,14,,,,,,,,,,,,,,,,,083,001,2019_Aug_28_1010,MusicAffectPsychophysiology2019,3.0.5,59.664186214871165,
To what extent did the music make you feel ,EXCITED,30MonoWAV/30MonoS4.wav,1,1,3,12,,,,,1,4,20,11,0,0,0,7,,,1,4.135250246006763,1,1.3693915670155548,1,1.7364771279972047,1,1.9548746829968877,,,083,001,2019_Aug_28_1010,MusicAffectPsychophysiology2019,3.0.5,59.664186214871165,
To what extent did the music make you feel ,TENDER,30MonoWAV/30MonoS4.wav,1,1,3,12,,,,,1,4,20,11,0,1,1,10,,,,,,,,,4,2.3367020600126125,,,083,001,2019_Aug_28_1010,MusicAffectPsychophysiology2019,3.0.5,59.664186214871165,
To what extent did the music make you feel ,FRUSTRATED,30MonoWAV/30MonoS4.wav,1,1,3,12,,,,,1,4,20,11,0,2,2,3,,,,,,,,,2,5.032735736022005,,,083,001,2019_Aug_28_1010,MusicAffectPsychophysiology2019,3.0.5,59.664186214871165,
To what extent did the music make you feel ,GUILTY,30MonoWAV/30MonoS4.wav,1,1,3,12,,,,,1,4,20,11,0,3,3,5,,,,,,,,,3,1.599169665016234,,,083,001,2019_Aug_28_1010,MusicAffectPsychophysiology2019,3.0.5,59.664186214871165,
To what extent did the music make you feel ,ASHAMED,30MonoWAV/30MonoS4.wav,1,1,3,12,,,,,1,4,20,11,0,4,4,4,,,,,,,,,1,1.0521469899977092,,,083,001,2019_Aug_28_1010,MusicAffectPsychophysiology2019,3.0.5,59.664186214871165,
To what extent did the music make you feel ,ANXIOUS ,30MonoWAV/30MonoS4.wav,1,1,3,12,,,,,1,4,20,11,0,5,5,1,,,,,,,,,3,1.869929421984125,,,083,001,2019_Aug_28_1010,MusicAffectPsychophysiology2019,3.0.5,59.664186214871165,
To what extent did the music make you feel ,ALERT,30MonoWAV/30MonoS4.wav,1,1,3,12,,,,,1,4,20,11,0,6,6,8,,,,,,,,,1,1.2193624819919933,,,083,001,2019_Aug_28_1010,MusicAffectPsychophysiology2019,3.0.5,59.664186214871165,
To what extent did the music make you feel ,ANGRY,30MonoWAV/30MonoS4.wav,1,1,3,12,,,,,1,4,20,11,0,7,7,2,,,,,,,,,1,0.8015211849997286,,,083,001,2019_Aug_28_1010,MusicAffectPsychophysiology2019,3.0.5,59.664186214871165,
To what extent did the music make you feel ,HAPPY,30MonoWAV/30MonoS4.wav,1,1,3,12,,,,,1,4,20,11,0,8,8,6,,,,,,,,,1,1.0176389689731877,,,083,001,2019_Aug_28_1010,MusicAffectPsychophysiology2019,3.0.5,59.664186214871165,
To what extent did the music make you feel ,SCARED,30MonoWAV/30MonoS4.wav,1,1,3,12,,,,,1,4,20,11,0,9,9,11,,,,,,,,,1,3.366671502008103,,,083,001,2019_Aug_28_1010,MusicAffectPsychophysiology2019,3.0.5,59.664186214871165,
To what extent did the music make you feel ,ACTIVE,30MonoWAV/30MonoS4.wav,1,1,3,12,,,,,1,4,20,11,0,10,10,9,,,,,,,,,1,1.3185357000038493,,,083,001,2019_Aug_28_1010,MusicAffectPsychophysiology2019,3.0.5,59.664186214871165,
To what extent did the music make you feel ,SAD,30MonoWAV/30MonoS4.wav,1,1,3,12,,,,,1,4,20,11,0,11,11,0,,,,,,,,,3,1.7179953079903498,,,083,001,2019_Aug_28_1010,MusicAffectPsychophysiology2019,3.0.5,59.664186214871165,
,,30MonoWAV/30MonoS4.wav,1,1,3,12,,,,,1,4,20,11,,,,,,,,,,,,,,,,,083,001,2019_Aug_28_1010,MusicAffectPsychophysiology2019,3.0.5,59.664186214871165,
To what extent did the music make you feel ,TENDER,30MonoWAV/30MonoF3.wav,1,2,2,3,,,,,1,5,21,2,0,0,0,10,,,3,3.7007201819797046,1,2.9851046899857465,1,1.3323355200118385,1,1.4631404899992049,,,083,001,2019_Aug_28_1010,MusicAffectPsychophysiology2019,3.0.5,59.664186214871165,
To what extent did the music make you feel ,ANXIOUS ,30MonoWAV/30MonoF3.wav,1,2,2,3,,,,,1,5,21,2,0,1,1,1,,,,,,,,,3,2.0999662349931896,,,083,001,2019_Aug_28_1010,MusicAffectPsychophysiology2019,3.0.5,59.664186214871165,
To what extent did the music make you feel ,HAPPY,30MonoWAV/30MonoF3.wav,1,2,2,3,,,,,1,5,21,2,0,2,2,6,,,,,,,,,1,1.1520704969880171,,,083,001,2019_Aug_28_1010,MusicAffectPsychophysiology2019,3.0.5,59.664186214871165,
To what extent did the music make you feel ,GUILTY,30MonoWAV/30MonoF3.wav,1,2,2,3,,,,,1,5,21,2,0,3,3,5,,,,,,,,,2,1.5531032609869726,,,083,001,2019_Aug_28_1010,MusicAffectPsychophysiology2019,3.0.5,59.664186214871165,
To what extent did the music make you feel ,ACTIVE,30MonoWAV/30MonoF3.wav,1,2,2,3,,,,,1,5,21,2,0,4,4,9,,,,,,,,,1,4.903063223988283,,,083,001,2019_Aug_28_1010,MusicAffectPsychophysiology2019,3.0.5,59.664186214871165,
To what extent did the music make you feel ,ALERT,30MonoWAV/30MonoF3.wav,1,2,2,3,,,,,1,5,21,2,0,5,5,8,,,,,,,,,2,2.5857698239851743,,,083,001,2019_Aug_28_1010,MusicAffectPsychophysiology2019,3.0.5,59.664186214871165,
To what extent did the music make you feel ,EXCITED,30MonoWAV/30MonoF3.wav,1,2,2,3,,,,,1,5,21,2,0,6,6,7,,,,,,,,,1,2.2856713010114618,,,083,001,2019_Aug_28_1010,MusicAffectPsychophysiology2019,3.0.5,59.664186214871165,
To what extent did the music make you feel ,SAD,30MonoWAV/30MonoF3.wav,1,2,2,3,,,,,1,5,21,2,0,7,7,0,,,,,,,,,2,1.8520940799789969,,,083,001,2019_Aug_28_1010,MusicAffectPsychophysiology2019,3.0.5,59.664186214871165,
To what extent did the music make you feel ,ASHAMED,30MonoWAV/30MonoF3.wav,1,2,2,3,,,,,1,5,21,2,0,8,8,4,,,,,,,,,2,3.218124973005615,,,083,001,2019_Aug_28_1010,MusicAffectPsychophysiology2019,3.0.5,59.664186214871165,
To what extent did the music make you feel ,FRUSTRATED,30MonoWAV/30MonoF3.wav,1,2,2,3,,,,,1,5,21,2,0,9,9,3,,,,,,,,,4,2.0033045949821826,,,083,001,2019_Aug_28_1010,MusicAffectPsychophysiology2019,3.0.5,59.664186214871165,
To what extent did the music make you feel ,SCARED,30MonoWAV/30MonoF3.wav,1,2,2,3,,,,,1,5,21,2,0,10,10,11,,,,,,,,,5,1.2614489840052556,,,083,001,2019_Aug_28_1010,MusicAffectPsychophysiology2019,3.0.5,59.664186214871165,
To what extent did the music make you feel ,ANGRY,30MonoWAV/30MonoF3.wav,1,2,2,3,,,,,1,5,21,2,0,11,11,2,,,,,,,,,1,2.4368408109876327,,,083,001,2019_Aug_28_1010,MusicAffectPsychophysiology2019,3.0.5,59.664186214871165,
,,30MonoWAV/30MonoF3.wav,1,2,2,3,,,,,1,5,21,2,,,,,,,,,,,,,,,,,083,001,2019_Aug_28_1010,MusicAffectPsychophysiology2019,3.0.5,59.664186214871165,
To what extent did the music make you feel ,ALERT,30MonoWAV/30MonoT2.wav,2,1,4,14,,,,,1,6,22,13,0,0,0,8,,,4,4.417883682996035,3,1.868903661990771,3,2.2191823570174165,1,2.5586342029855587,,,083,001,2019_Aug_28_1010,MusicAffectPsychophysiology2019,3.0.5,59.664186214871165,
To what extent did the music make you feel ,SAD,30MonoWAV/30MonoT2.wav,2,1,4,14,,,,,1,6,22,13,0,1,1,0,,,,,,,,,2,2.4532572939933743,,,083,001,2019_Aug_28_1010,MusicAffectPsychophysiology2019,3.0.5,59.664186214871165,
To what extent did the music make you feel ,HAPPY,30MonoWAV/30MonoT2.wav,2,1,4,14,,,,,1,6,22,13,0,2,2,6,,,,,,,,,3,4.5498366029933095,,,083,001,2019_Aug_28_1010,MusicAffectPsychophysiology2019,3.0.5,59.664186214871165,
To what extent did the music make you feel ,ASHAMED,30MonoWAV/30MonoT2.wav,2,1,4,14,,,,,1,6,22,13,0,3,3,4,,,,,,,,,1,1.2008866340038367,,,083,001,2019_Aug_28_1010,MusicAffectPsychophysiology2019,3.0.5,59.664186214871165,
To what extent did the music make you feel ,ANXIOUS ,30MonoWAV/30MonoT2.wav,2,1,4,14,,,,,1,6,22,13,0,4,4,1,,,,,,,,,1,2.319313602987677,,,083,001,2019_Aug_28_1010,MusicAffectPsychophysiology2019,3.0.5,59.664186214871165,
To what extent did the music make you feel ,ACTIVE,30MonoWAV/30MonoT2.wav,2,1,4,14,,,,,1,6,22,13,0,5,5,9,,,,,,,,,4,2.5358495300170034,,,083,001,2019_Aug_28_1010,MusicAffectPsychophysiology2019,3.0.5,59.664186214871165,
To what extent did the music make you feel ,ANGRY,30MonoWAV/30MonoT2.wav,2,1,4,14,,,,,1,6,22,13,0,6,6,2,,,,,,,,,1,1.1335159500013106,,,083,001,2019_Aug_28_1010,MusicAffectPsychophysiology2019,3.0.5,59.664186214871165,
To what extent did the music make you feel ,EXCITED,30MonoWAV/30MonoT2.wav,2,1,4,14,,,,,1,6,22,13,0,7,7,7,,,,,,,,,4,2.1022594559763093,,,083,001,2019_Aug_28_1010,MusicAffectPsychophysiology2019,3.0.5,59.664186214871165,
To what extent did the music make you feel ,TENDER,30MonoWAV/30MonoT2.wav,2,1,4,14,,,,,1,6,22,13,0,8,8,10,,,,,,,,,5,1.7185456639854237,,,083,001,2019_Aug_28_1010,MusicAffectPsychophysiology2019,3.0.5,59.664186214871165,
To what extent did the music make you feel ,GUILTY,30MonoWAV/30MonoT2.wav,2,1,4,14,,,,,1,6,22,13,0,9,9,5,,,,,,,,,1,1.486708525015274,,,083,001,2019_Aug_28_1010,MusicAffectPsychophysiology2019,3.0.5,59.664186214871165,
To what extent did the music make you feel ,SCARED,30MonoWAV/30MonoT2.wav,2,1,4,14,,,,,1,6,22,13,0,10,10,11,,,,,,,,,1,0.7701680750178639,,,083,001,2019_Aug_28_1010,MusicAffectPsychophysiology2019,3.0.5,59.664186214871165,
To what extent did the music make you feel ,FRUSTRATED,30MonoWAV/30MonoT2.wav,2,1,4,14,,,,,1,6,22,13,0,11,11,3,,,,,,,,,1,0.6857842919998802,,,083,001,2019_Aug_28_1010,MusicAffectPsychophysiology2019,3.0.5,59.664186214871165,
,,30MonoWAV/30MonoT2.wav,2,1,4,14,,,,,1,6,22,13,,,,,,,,,,,,,,,,,083,001,2019_Aug_28_1010,MusicAffectPsychophysiology2019,3.0.5,59.664186214871165,
To what extent did the music make you feel ,ACTIVE,30MonoWAV/30MonoS2.wav,1,1,3,10,,,,,1,7,23,9,0,0,0,9,,,1,3.7849922709865496,1,1.266849514999194,2,1.6522514229873195,1,1.714318355981959,,,083,001,2019_Aug_28_1010,MusicAffectPsychophysiology2019,3.0.5,59.664186214871165,
To what extent did the music make you feel ,HAPPY,30MonoWAV/30MonoS2.wav,1,1,3,10,,,,,1,7,23,9,0,1,1,6,,,,,,,,,1,1.2525503410142846,,,083,001,2019_Aug_28_1010,MusicAffectPsychophysiology2019,3.0.5,59.664186214871165,
To what extent did the music make you feel ,GUILTY,30MonoWAV/30MonoS2.wav,1,1,3,10,,,,,1,7,23,9,0,2,2,5,,,,,,,,,2,1.3026953660009895,,,083,001,2019_Aug_28_1010,MusicAffectPsychophysiology2019,3.0.5,59.664186214871165,
To what extent did the music make you feel ,ANXIOUS ,30MonoWAV/30MonoS2.wav,1,1,3,10,,,,,1,7,23,9,0,3,3,1,,,,,,,,,2,1.4174603980209213,,,083,001,2019_Aug_28_1010,MusicAffectPsychophysiology2019,3.0.5,59.664186214871165,
To what extent did the music make you feel ,SAD,30MonoWAV/30MonoS2.wav,1,1,3,10,,,,,1,7,23,9,0,4,4,0,,,,,,,,,4,2.1194146150082815,,,083,001,2019_Aug_28_1010,MusicAffectPsychophysiology2019,3.0.5,59.664186214871165,
To what extent did the music make you feel ,EXCITED,30MonoWAV/30MonoS2.wav,1,1,3,10,,,,,1,7,23,9,0,5,5,7,,,,,,,,,1,1.253332041989779,,,083,001,2019_Aug_28_1010,MusicAffectPsychophysiology2019,3.0.5,59.664186214871165,
To what extent did the music make you feel ,TENDER,30MonoWAV/30MonoS2.wav,1,1,3,10,,,,,1,7,23,9,0,6,6,10,,,,,,,,,4,2.2859305260062683,,,083,001,2019_Aug_28_1010,MusicAffectPsychophysiology2019,3.0.5,59.664186214871165,
To what extent did the music make you feel ,ALERT,30MonoWAV/30MonoS2.wav,1,1,3,10,,,,,1,7,23,9,0,7,7,8,,,,,,,,,1,1.283574025001144,,,083,001,2019_Aug_28_1010,MusicAffectPsychophysiology2019,3.0.5,59.664186214871165,
To what extent did the music make you feel ,FRUSTRATED,30MonoWAV/30MonoS2.wav,1,1,3,10,,,,,1,7,23,9,0,8,8,3,,,,,,,,,1,1.0363862550002523,,,083,001,2019_Aug_28_1010,MusicAffectPsychophysiology2019,3.0.5,59.664186214871165,
To what extent did the music make you feel ,ANGRY,30MonoWAV/30MonoS2.wav,1,1,3,10,,,,,1,7,23,9,0,9,9,2,,,,,,,,,1,1.0180978850112297,,,083,001,2019_Aug_28_1010,MusicAffectPsychophysiology2019,3.0.5,59.664186214871165,
To what extent did the music make you feel ,ASHAMED,30MonoWAV/30MonoS2.wav,1,1,3,10,,,,,1,7,23,9,0,10,10,4,,,,,,,,,1,0.652782657998614,,,083,001,2019_Aug_28_1010,MusicAffectPsychophysiology2019,3.0.5,59.664186214871165,
To what extent did the music make you feel ,SCARED,30MonoWAV/30MonoS2.wav,1,1,3,10,,,,,1,7,23,9,0,11,11,11,,,,,,,,,1,0.9029664960107766,,,083,001,2019_Aug_28_1010,MusicAffectPsychophysiology2019,3.0.5,59.664186214871165,
,,30MonoWAV/30MonoS2.wav,1,1,3,10,,,,,1,7,23,9,,,,,,,,,,,,,,,,,083,001,2019_Aug_28_1010,MusicAffectPsychophysiology2019,3.0.5,59.664186214871165,
To what extent did the music make you feel ,HAPPY,30MonoWAV/30MonoH3.wav,2,2,1,7,,,,,1,8,24,6,0,0,0,6,,,5,5.3020656169974245,4,1.819944257993484,4,1.6853181429905817,5,2.623571236996213,,,083,001,2019_Aug_28_1010,MusicAffectPsychophysiology2019,3.0.5,59.664186214871165,
To what extent did the music make you feel ,ANXIOUS ,30MonoWAV/30MonoH3.wav,2,2,1,7,,,,,1,8,24,6,0,1,1,1,,,,,,,,,1,1.3500576719816308,,,083,001,2019_Aug_28_1010,MusicAffectPsychophysiology2019,3.0.5,59.664186214871165,
To what extent did the music make you feel ,ACTIVE,30MonoWAV/30MonoH3.wav,2,2,1,7,,,,,1,8,24,6,0,2,2,9,,,,,,,,,4,1.4527116249955725,,,083,001,2019_Aug_28_1010,MusicAffectPsychophysiology2019,3.0.5,59.664186214871165,
To what extent did the music make you feel ,SCARED,30MonoWAV/30MonoH3.wav,2,2,1,7,,,,,1,8,24,6,0,3,3,11,,,,,,,,,1,1.0198374440078624,,,083,001,2019_Aug_28_1010,MusicAffectPsychophysiology2019,3.0.5,59.664186214871165,
To what extent did the music make you feel ,SAD,30MonoWAV/30MonoH3.wav,2,2,1,7,,,,,1,8,24,6,0,4,4,0,,,,,,,,,1,0.8860361260012724,,,083,001,2019_Aug_28_1010,MusicAffectPsychophysiology2019,3.0.5,59.664186214871165,
To what extent did the music make you feel ,FRUSTRATED,30MonoWAV/30MonoH3.wav,2,2,1,7,,,,,1,8,24,6,0,5,5,3,,,,,,,,,1,0.7355159670114517,,,083,001,2019_Aug_28_1010,MusicAffectPsychophysiology2019,3.0.5,59.664186214871165,
To what extent did the music make you feel ,TENDER,30MonoWAV/30MonoH3.wav,2,2,1,7,,,,,1,8,24,6,0,6,6,10,,,,,,,,,3,2.7522997929772828,,,083,001,2019_Aug_28_1010,MusicAffectPsychophysiology2019,3.0.5,59.664186214871165,
To what extent did the music make you feel ,ALERT,30MonoWAV/30MonoH3.wav,2,2,1,7,,,,,1,8,24,6,0,7,7,8,,,,,,,,,1,1.037940044014249,,,083,001,2019_Aug_28_1010,MusicAffectPsychophysiology2019,3.0.5,59.664186214871165,
To what extent did the music make you feel ,EXCITED,30MonoWAV/30MonoH3.wav,2,2,1,7,,,,,1,8,24,6,0,8,8,7,,,,,,,,,5,1.685857559001306,,,083,001,2019_Aug_28_1010,MusicAffectPsychophysiology2019,3.0.5,59.664186214871165,
To what extent did the music make you feel ,ASHAMED,30MonoWAV/30MonoH3.wav,2,2,1,7,,,,,1,8,24,6,0,9,9,4,,,,,,,,,1,1.0018272479937878,,,083,001,2019_Aug_28_1010,MusicAffectPsychophysiology2019,3.0.5,59.664186214871165,
To what extent did the music make you feel ,GUILTY,30MonoWAV/30MonoH3.wav,2,2,1,7,,,,,1,8,24,6,0,10,10,5,,,,,,,,,1,0.786349320987938,,,083,001,2019_Aug_28_1010,MusicAffectPsychophysiology2019,3.0.5,59.664186214871165,
To what extent did the music make you feel ,ANGRY,30MonoWAV/30MonoH3.wav,2,2,1,7,,,,,1,8,24,6,0,11,11,2,,,,,,,,,1,0.9500182149931788,,,083,001,2019_Aug_28_1010,MusicAffectPsychophysiology2019,3.0.5,59.664186214871165,
,,30MonoWAV/30MonoH3.wav,2,2,1,7,,,,,1,8,24,6,,,,,,,,,,,,,,,,,083,001,2019_Aug_28_1010,MusicAffectPsychophysiology2019,3.0.5,59.664186214871165,
To what extent did the music make you feel ,ANXIOUS ,30MonoWAV/30MonoF1.wav,1,2,2,1,,,,,1,9,25,0,0,0,0,1,,,1,6.251862750999862,1,1.0859728649957106,1,1.0856994390196633,5,2.0023999659752008,,,083,001,2019_Aug_28_1010,MusicAffectPsychophysiology2019,3.0.5,59.664186214871165,
To what extent did the music make you feel ,SAD,30MonoWAV/30MonoF1.wav,1,2,2,1,,,,,1,9,25,0,0,1,1,0,,,,,,,,,1,1.5528656440146733,,,083,001,2019_Aug_28_1010,MusicAffectPsychophysiology2019,3.0.5,59.664186214871165,
To what extent did the music make you feel ,TENDER,30MonoWAV/30MonoF1.wav,1,2,2,1,,,,,1,9,25,0,0,2,2,10,,,,,,,,,1,2.284946787985973,,,083,001,2019_Aug_28_1010,MusicAffectPsychophysiology2019,3.0.5,59.664186214871165,
To what extent did the music make you feel ,GUILTY,30MonoWAV/30MonoF1.wav,1,2,2,1,,,,,1,9,25,0,0,3,3,5,,,,,,,,,1,1.2694139130180702,,,083,001,2019_Aug_28_1010,MusicAffectPsychophysiology2019,3.0.5,59.664186214871165,
To what extent did the music make you feel ,ANGRY,30MonoWAV/30MonoF1.wav,1,2,2,1,,,,,1,9,25,0,0,4,4,2,,,,,,,,,1,2.666617770009907,,,083,001,2019_Aug_28_1010,MusicAffectPsychophysiology2019,3.0.5,59.664186214871165,
To what extent did the music make you feel ,ALERT,30MonoWAV/30MonoF1.wav,1,2,2,1,,,,,1,9,25,0,0,5,5,8,,,,,,,,,1,1.3193412899854593,,,083,001,2019_Aug_28_1010,MusicAffectPsychophysiology2019,3.0.5,59.664186214871165,
To what extent did the music make you feel ,SCARED,30MonoWAV/30MonoF1.wav,1,2,2,1,,,,,1,9,25,0,0,6,6,11,,,,,,,,,5,0.8692143519874662,,,083,001,2019_Aug_28_1010,MusicAffectPsychophysiology2019,3.0.5,59.664186214871165,
To what extent did the music make you feel ,ACTIVE,30MonoWAV/30MonoF1.wav,1,2,2,1,,,,,1,9,25,0,0,7,7,9,,,,,,,,,1,1.2853324569878168,,,083,001,2019_Aug_28_1010,MusicAffectPsychophysiology2019,3.0.5,59.664186214871165,
To what extent did the music make you feel ,HAPPY,30MonoWAV/30MonoF1.wav,1,2,2,1,,,,,1,9,25,0,0,8,8,6,,,,,,,,,1,0.9185019720171113,,,083,001,2019_Aug_28_1010,MusicAffectPsychophysiology2019,3.0.5,59.664186214871165,
To what extent did the music make you feel ,ASHAMED,30MonoWAV/30MonoF1.wav,1,2,2,1,,,,,1,9,25,0,0,9,9,4,,,,,,,,,1,1.0367087600170635,,,083,001,2019_Aug_28_1010,MusicAffectPsychophysiology2019,3.0.5,59.664186214871165,
To what extent did the music make you feel ,FRUSTRATED,30MonoWAV/30MonoF1.wav,1,2,2,1,,,,,1,9,25,0,0,10,10,3,,,,,,,,,5,0.8866528980142903,,,083,001,2019_Aug_28_1010,MusicAffectPsychophysiology2019,3.0.5,59.664186214871165,
To what extent did the music make you feel ,EXCITED,30MonoWAV/30MonoF1.wav,1,2,2,1,,,,,1,9,25,0,0,11,11,7,,,,,,,,,1,2.9358927590074018,,,083,001,2019_Aug_28_1010,MusicAffectPsychophysiology2019,3.0.5,59.664186214871165,
,,30MonoWAV/30MonoF1.wav,1,2,2,1,,,,,1,9,25,0,,,,,,,,,,,,,,,,,083,001,2019_Aug_28_1010,MusicAffectPsychophysiology2019,3.0.5,59.664186214871165,
To what extent did the music make you feel ,ALERT,30MonoWAV/30MonoH2.wav,2,2,1,6,,,,,1,10,26,5,0,0,0,8,,,4,3.3671034520084504,4,2.8683560920180753,4,1.536033229000168,1,1.893982000008691,,,083,001,2019_Aug_28_1010,MusicAffectPsychophysiology2019,3.0.5,59.664186214871165,
To what extent did the music make you feel ,EXCITED,30MonoWAV/30MonoH2.wav,2,2,1,6,,,,,1,10,26,5,0,1,1,7,,,,,,,,,4,2.385081596003147,,,083,001,2019_Aug_28_1010,MusicAffectPsychophysiology2019,3.0.5,59.664186214871165,
To what extent did the music make you feel ,ASHAMED,30MonoWAV/30MonoH2.wav,2,2,1,6,,,,,1,10,26,5,0,2,2,4,,,,,,,,,1,1.1526084009965416,,,083,001,2019_Aug_28_1010,MusicAffectPsychophysiology2019,3.0.5,59.664186214871165,
To what extent did the music make you feel ,ANXIOUS ,30MonoWAV/30MonoH2.wav,2,2,1,6,,,,,1,10,26,5,0,3,3,1,,,,,,,,,1,1.3518446260131896,,,083,001,2019_Aug_28_1010,MusicAffectPsychophysiology2019,3.0.5,59.664186214871165,
To what extent did the music make you feel ,ANGRY,30MonoWAV/30MonoH2.wav,2,2,1,6,,,,,1,10,26,5,0,4,4,2,,,,,,,,,1,0.7523317349841818,,,083,001,2019_Aug_28_1010,MusicAffectPsychophysiology2019,3.0.5,59.664186214871165,
To what extent did the music make you feel ,HAPPY,30MonoWAV/30MonoH2.wav,2,2,1,6,,,,,1,10,26,5,0,5,5,6,,,,,,,,,4,3.0847757380106486,,,083,001,2019_Aug_28_1010,MusicAffectPsychophysiology2019,3.0.5,59.664186214871165,
To what extent did the music make you feel ,SAD,30MonoWAV/30MonoH2.wav,2,2,1,6,,,,,1,10,26,5,0,6,6,0,,,,,,,,,1,1.3189937240094878,,,083,001,2019_Aug_28_1010,MusicAffectPsychophysiology2019,3.0.5,59.664186214871165,
To what extent did the music make you feel ,ACTIVE,30MonoWAV/30MonoH2.wav,2,2,1,6,,,,,1,10,26,5,0,7,7,9,,,,,,,,,4,1.1525657099846285,,,083,001,2019_Aug_28_1010,MusicAffectPsychophysiology2019,3.0.5,59.664186214871165,
To what extent did the music make you feel ,SCARED,30MonoWAV/30MonoH2.wav,2,2,1,6,,,,,1,10,26,5,0,8,8,11,,,,,,,,,1,1.1849185489991214,,,083,001,2019_Aug_28_1010,MusicAffectPsychophysiology2019,3.0.5,59.664186214871165,
To what extent did the music make you feel ,GUILTY,30MonoWAV/30MonoH2.wav,2,2,1,6,,,,,1,10,26,5,0,9,9,5,,,,,,,,,1,0.7024555199895985,,,083,001,2019_Aug_28_1010,MusicAffectPsychophysiology2019,3.0.5,59.664186214871165,
To what extent did the music make you feel ,TENDER,30MonoWAV/30MonoH2.wav,2,2,1,6,,,,,1,10,26,5,0,10,10,10,,,,,,,,,2,3.0497670059849042,,,083,001,2019_Aug_28_1010,MusicAffectPsychophysiology2019,3.0.5,59.664186214871165,
To what extent did the music make you feel ,FRUSTRATED,30MonoWAV/30MonoH2.wav,2,2,1,6,,,,,1,10,26,5,0,11,11,3,,,,,,,,,1,0.8168698069930542,,,083,001,2019_Aug_28_1010,MusicAffectPsychophysiology2019,3.0.5,59.664186214871165,
,,30MonoWAV/30MonoH2.wav,2,2,1,6,,,,,1,10,26,5,,,,,,,,,,,,,,,,,083,001,2019_Aug_28_1010,MusicAffectPsychophysiology2019,3.0.5,59.664186214871165,
To what extent did the music make you feel ,ANGRY,30MonoWAV/30MonoS3.wav,1,1,3,11,,,,,1,11,27,10,0,0,0,2,,,3,2.9038942249899264,2,1.769121562014334,2,2.41939674000605,1,1.6020066270139068,,,083,001,2019_Aug_28_1010,MusicAffectPsychophysiology2019,3.0.5,59.664186214871165,
To what extent did the music make you feel ,GUILTY,30MonoWAV/30MonoS3.wav,1,1,3,11,,,,,1,11,27,10,0,1,1,5,,,,,,,,,3,2.4356333120085765,,,083,001,2019_Aug_28_1010,MusicAffectPsychophysiology2019,3.0.5,59.664186214871165,
To what extent did the music make you feel ,SAD,30MonoWAV/30MonoS3.wav,1,1,3,11,,,,,1,11,27,10,0,2,2,0,,,,,,,,,4,1.335320487007266,,,083,001,2019_Aug_28_1010,MusicAffectPsychophysiology2019,3.0.5,59.664186214871165,
To what extent did the music make you feel ,ALERT,30MonoWAV/30MonoS3.wav,1,1,3,11,,,,,1,11,27,10,0,3,3,8,,,,,,,,,3,3.4024138640088495,,,083,001,2019_Aug_28_1010,MusicAffectPsychophysiology2019,3.0.5,59.664186214871165,
To what extent did the music make you feel ,ACTIVE,30MonoWAV/30MonoS3.wav,1,1,3,11,,,,,1,11,27,10,0,4,4,9,,,,,,,,,1,1.302115447993856,,,083,001,2019_Aug_28_1010,MusicAffectPsychophysiology2019,3.0.5,59.664186214871165,
To what extent did the music make you feel ,TENDER,30MonoWAV/30MonoS3.wav,1,1,3,11,,,,,1,11,27,10,0,5,5,10,,,,,,,,,3,3.986303603014676,,,083,001,2019_Aug_28_1010,MusicAffectPsychophysiology2019,3.0.5,59.664186214871165,
To what extent did the music make you feel ,EXCITED,30MonoWAV/30MonoS3.wav,1,1,3,11,,,,,1,11,27,10,0,6,6,7,,,,,,,,,1,1.6857155170000624,,,083,001,2019_Aug_28_1010,MusicAffectPsychophysiology2019,3.0.5,59.664186214871165,
To what extent did the music make you feel ,FRUSTRATED,30MonoWAV/30MonoS3.wav,1,1,3,11,,,,,1,11,27,10,0,7,7,3,,,,,,,,,2,1.700036875990918,,,083,001,2019_Aug_28_1010,MusicAffectPsychophysiology2019,3.0.5,59.664186214871165,
To what extent did the music make you feel ,ANXIOUS ,30MonoWAV/30MonoS3.wav,1,1,3,11,,,,,1,11,27,10,0,8,8,1,,,,,,,,,4,2.0694694830162916,,,083,001,2019_Aug_28_1010,MusicAffectPsychophysiology2019,3.0.5,59.664186214871165,
To what extent did the music make you feel ,ASHAMED,30MonoWAV/30MonoS3.wav,1,1,3,11,,,,,1,11,27,10,0,9,9,4,,,,,,,,,3,1.6682165219972376,,,083,001,2019_Aug_28_1010,MusicAffectPsychophysiology2019,3.0.5,59.664186214871165,
To what extent did the music make you feel ,HAPPY,30MonoWAV/30MonoS3.wav,1,1,3,11,,,,,1,11,27,10,0,10,10,6,,,,,,,,,1,1.2506607639952563,,,083,001,2019_Aug_28_1010,MusicAffectPsychophysiology2019,3.0.5,59.664186214871165,
To what extent did the music make you feel ,SCARED,30MonoWAV/30MonoS3.wav,1,1,3,11,,,,,1,11,27,10,0,11,11,11,,,,,,,,,2,1.385542684001848,,,083,001,2019_Aug_28_1010,MusicAffectPsychophysiology2019,3.0.5,59.664186214871165,
,,30MonoWAV/30MonoS3.wav,1,1,3,11,,,,,1,11,27,10,,,,,,,,,,,,,,,,,083,001,2019_Aug_28_1010,MusicAffectPsychophysiology2019,3.0.5,59.664186214871165,
To what extent did the music make you feel ,EXCITED,30MonoWAV/30MonoT1.wav,2,1,4,13,,,,,1,12,28,12,0,0,0,7,,,3,7.051976635004394,3,1.5009963480115402,2,1.5175431810203008,2,1.9947933200164698,,,083,001,2019_Aug_28_1010,MusicAffectPsychophysiology2019,3.0.5,59.664186214871165,
To what extent did the music make you feel ,ANXIOUS ,30MonoWAV/30MonoT1.wav,2,1,4,13,,,,,1,12,28,12,0,1,1,1,,,,,,,,,1,1.002376270975219,,,083,001,2019_Aug_28_1010,MusicAffectPsychophysiology2019,3.0.5,59.664186214871165,
To what extent did the music make you feel ,FRUSTRATED,30MonoWAV/30MonoT1.wav,2,1,4,13,,,,,1,12,28,12,0,2,2,3,,,,,,,,,1,0.8693336819997057,,,083,001,2019_Aug_28_1010,MusicAffectPsychophysiology2019,3.0.5,59.664186214871165,
To what extent did the music make you feel ,TENDER,30MonoWAV/30MonoT1.wav,2,1,4,13,,,,,1,12,28,12,0,3,3,10,,,,,,,,,5,1.968927011010237,,,083,001,2019_Aug_28_1010,MusicAffectPsychophysiology2019,3.0.5,59.664186214871165,
To what extent did the music make you feel ,HAPPY,30MonoWAV/30MonoT1.wav,2,1,4,13,,,,,1,12,28,12,0,4,4,6,,,,,,,,,4,1.484758195001632,,,083,001,2019_Aug_28_1010,MusicAffectPsychophysiology2019,3.0.5,59.664186214871165,
To what extent did the music make you feel ,ACTIVE,30MonoWAV/30MonoT1.wav,2,1,4,13,,,,,1,12,28,12,0,5,5,9,,,,,,,,,3,2.1695269610208925,,,083,001,2019_Aug_28_1010,MusicAffectPsychophysiology2019,3.0.5,59.664186214871165,
To what extent did the music make you feel ,ALERT,30MonoWAV/30MonoT1.wav,2,1,4,13,,,,,1,12,28,12,0,6,6,8,,,,,,,,,1,1.6011762100097258,,,083,001,2019_Aug_28_1010,MusicAffectPsychophysiology2019,3.0.5,59.664186214871165,
To what extent did the music make you feel ,SAD,30MonoWAV/30MonoT1.wav,2,1,4,13,,,,,1,12,28,12,0,7,7,0,,,,,,,,,1,1.302484257001197,,,083,001,2019_Aug_28_1010,MusicAffectPsychophysiology2019,3.0.5,59.664186214871165,
To what extent did the music make you feel ,GUILTY,30MonoWAV/30MonoT1.wav,2,1,4,13,,,,,1,12,28,12,0,8,8,5,,,,,,,,,1,0.7868661729735322,,,083,001,2019_Aug_28_1010,MusicAffectPsychophysiology2019,3.0.5,59.664186214871165,
To what extent did the music make you feel ,ANGRY,30MonoWAV/30MonoT1.wav,2,1,4,13,,,,,1,12,28,12,0,9,9,2,,,,,,,,,1,0.6371469569858164,,,083,001,2019_Aug_28_1010,MusicAffectPsychophysiology2019,3.0.5,59.664186214871165,
To what extent did the music make you feel ,ASHAMED,30MonoWAV/30MonoT1.wav,2,1,4,13,,,,,1,12,28,12,0,10,10,4,,,,,,,,,1,0.5359971740108449,,,083,001,2019_Aug_28_1010,MusicAffectPsychophysiology2019,3.0.5,59.664186214871165,
To what extent did the music make you feel ,SCARED,30MonoWAV/30MonoT1.wav,2,1,4,13,,,,,1,12,28,12,0,11,11,11,,,,,,,,,1,0.6192065440118313,,,083,001,2019_Aug_28_1010,MusicAffectPsychophysiology2019,3.0.5,59.664186214871165,
,,30MonoWAV/30MonoT1.wav,2,1,4,13,,,,,1,12,28,12,,,,,,,,,,,,,,,,,083,001,2019_Aug_28_1010,MusicAffectPsychophysiology2019,3.0.5,59.664186214871165,
To what extent did the music make you feel ,GUILTY,30MonoWAV/30MonoH4.wav,2,2,1,8,,,,,1,13,29,7,0,0,0,5,,,5,3.4030520530068316,5,0.3189557089935988,5,2.7362294440099504,1,1.5538535499945283,,,083,001,2019_Aug_28_1010,MusicAffectPsychophysiology2019,3.0.5,59.664186214871165,
To what extent did the music make you feel ,TENDER,30MonoWAV/30MonoH4.wav,2,2,1,8,,,,,1,13,29,7,0,1,1,10,,,,,,,,,3,2.8695677270006854,,,083,001,2019_Aug_28_1010,MusicAffectPsychophysiology2019,3.0.5,59.664186214871165,
To what extent did the music make you feel ,HAPPY,30MonoWAV/30MonoH4.wav,2,2,1,8,,,,,1,13,29,7,0,2,2,6,,,,,,,,,5,1.400378513004398,,,083,001,2019_Aug_28_1010,MusicAffectPsychophysiology2019,3.0.5,59.664186214871165,
To what extent did the music make you feel ,FRUSTRATED,30MonoWAV/30MonoH4.wav,2,2,1,8,,,,,1,13,29,7,0,3,3,3,,,,,,,,,1,1.1692610600148328,,,083,001,2019_Aug_28_1010,MusicAffectPsychophysiology2019,3.0.5,59.664186214871165,
To what extent did the music make you feel ,ALERT,30MonoWAV/30MonoH4.wav,2,2,1,8,,,,,1,13,29,7,0,4,4,8,,,,,,,,,1,0.7692251469998155,,,083,001,2019_Aug_28_1010,MusicAffectPsychophysiology2019,3.0.5,59.664186214871165,
To what extent did the music make you feel ,SCARED,30MonoWAV/30MonoH4.wav,2,2,1,8,,,,,1,13,29,7,0,5,5,11,,,,,,,,,1,0.5028240380052011,,,083,001,2019_Aug_28_1010,MusicAffectPsychophysiology2019,3.0.5,59.664186214871165,
To what extent did the music make you feel ,SAD,30MonoWAV/30MonoH4.wav,2,2,1,8,,,,,1,13,29,7,0,6,6,0,,,,,,,,,1,0.8195824970025569,,,083,001,2019_Aug_28_1010,MusicAffectPsychophysiology2019,3.0.5,59.664186214871165,
To what extent did the music make you feel ,EXCITED,30MonoWAV/30MonoH4.wav,2,2,1,8,,,,,1,13,29,7,0,7,7,7,,,,,,,,,5,1.6513399109826423,,,083,001,2019_Aug_28_1010,MusicAffectPsychophysiology2019,3.0.5,59.664186214871165,
To what extent did the music make you feel ,ANGRY,30MonoWAV/30MonoH4.wav,2,2,1,8,,,,,1,13,29,7,0,8,8,2,,,,,,,,,1,0.9367126800061669,,,083,001,2019_Aug_28_1010,MusicAffectPsychophysiology2019,3.0.5,59.664186214871165,
To what extent did the music make you feel ,ANXIOUS ,30MonoWAV/30MonoH4.wav,2,2,1,8,,,,,1,13,29,7,0,9,9,1,,,,,,,,,1,1.0358539239969105,,,083,001,2019_Aug_28_1010,MusicAffectPsychophysiology2019,3.0.5,59.664186214871165,
To what extent did the music make you feel ,ASHAMED,30MonoWAV/30MonoH4.wav,2,2,1,8,,,,,1,13,29,7,0,10,10,4,,,,,,,,,1,0.5859294759866316,,,083,001,2019_Aug_28_1010,MusicAffectPsychophysiology2019,3.0.5,59.664186214871165,
To what extent did the music make you feel ,ACTIVE,30MonoWAV/30MonoH4.wav,2,2,1,8,,,,,1,13,29,7,0,11,11,9,,,,,,,,,5,1.3024343519937247,,,083,001,2019_Aug_28_1010,MusicAffectPsychophysiology2019,3.0.5,59.664186214871165,
,,30MonoWAV/30MonoH4.wav,2,2,1,8,,,,,1,13,29,7,,,,,,,,,,,,,,,,,083,001,2019_Aug_28_1010,MusicAffectPsychophysiology2019,3.0.5,59.664186214871165,
To what extent did the music make you feel ,ASHAMED,30MonoWAV/30MonoF2.wav,1,2,2,2,,,,,1,14,30,1,0,0,0,4,,,1,3.202505075983936,1,0.5192128989729099,1,0.9003147929906845,3,2.619207693001954,,,083,001,2019_Aug_28_1010,MusicAffectPsychophysiology2019,3.0.5,59.664186214871165,
To what extent did the music make you feel ,HAPPY,30MonoWAV/30MonoF2.wav,1,2,2,2,,,,,1,14,30,1,0,1,1,6,,,,,,,,,1,1.3188331769779325,,,083,001,2019_Aug_28_1010,MusicAffectPsychophysiology2019,3.0.5,59.664186214871165,
To what extent did the music make you feel ,ANGRY,30MonoWAV/30MonoF2.wav,1,2,2,2,,,,,1,14,30,1,0,2,2,2,,,,,,,,,1,1.8364757630042732,,,083,001,2019_Aug_28_1010,MusicAffectPsychophysiology2019,3.0.5,59.664186214871165,
To what extent did the music make you feel ,ALERT,30MonoWAV/30MonoF2.wav,1,2,2,2,,,,,1,14,30,1,0,3,3,8,,,,,,,,,3,1.119710296014091,,,083,001,2019_Aug_28_1010,MusicAffectPsychophysiology2019,3.0.5,59.664186214871165,
To what extent did the music make you feel ,SCARED,30MonoWAV/30MonoF2.wav,1,2,2,2,,,,,1,14,30,1,0,4,4,11,,,,,,,,,5,1.4033357380249072,,,083,001,2019_Aug_28_1010,MusicAffectPsychophysiology2019,3.0.5,59.664186214871165,
To what extent did the music make you feel ,ACTIVE,30MonoWAV/30MonoF2.wav,1,2,2,2,,,,,1,14,30,1,0,5,5,9,,,,,,,,,1,1.3019876909966115,,,083,001,2019_Aug_28_1010,MusicAffectPsychophysiology2019,3.0.5,59.664186214871165,
To what extent did the music make you feel ,ANXIOUS ,30MonoWAV/30MonoF2.wav,1,2,2,2,,,,,1,14,30,1,0,6,6,1,,,,,,,,,5,1.2856868370145094,,,083,001,2019_Aug_28_1010,MusicAffectPsychophysiology2019,3.0.5,59.664186214871165,
To what extent did the music make you feel ,SAD,30MonoWAV/30MonoF2.wav,1,2,2,2,,,,,1,14,30,1,0,7,7,0,,,,,,,,,3,2.470345798996277,,,083,001,2019_Aug_28_1010,MusicAffectPsychophysiology2019,3.0.5,59.664186214871165,
To what extent did the music make you feel ,FRUSTRATED,30MonoWAV/30MonoF2.wav,1,2,2,2,,,,,1,14,30,1,0,8,8,3,,,,,,,,,5,1.2147584769991226,,,083,001,2019_Aug_28_1010,MusicAffectPsychophysiology2019,3.0.5,59.664186214871165,
To what extent did the music make you feel ,GUILTY,30MonoWAV/30MonoF2.wav,1,2,2,2,,,,,1,14,30,1,0,9,9,5,,,,,,,,,1,2.635819385002833,,,083,001,2019_Aug_28_1010,MusicAffectPsychophysiology2019,3.0.5,59.664186214871165,
To what extent did the music make you feel ,EXCITED,30MonoWAV/30MonoF2.wav,1,2,2,2,,,,,1,14,30,1,0,10,10,7,,,,,,,,,1,1.3525834799802396,,,083,001,2019_Aug_28_1010,MusicAffectPsychophysiology2019,3.0.5,59.664186214871165,
To what extent did the music make you feel ,TENDER,30MonoWAV/30MonoF2.wav,1,2,2,2,,,,,1,14,30,1,0,11,11,10,,,,,,,,,1,1.7864017079991754,,,083,001,2019_Aug_28_1010,MusicAffectPsychophysiology2019,3.0.5,59.664186214871165,
,,30MonoWAV/30MonoF2.wav,1,2,2,2,,,,,1,14,30,1,,,,,,,,,,,,,,,,,083,001,2019_Aug_28_1010,MusicAffectPsychophysiology2019,3.0.5,59.664186214871165,
To what extent did the music make you feel ,GUILTY,30MonoWAV/30MonoF4.wav,1,2,2,4,,,,,1,15,31,3,0,0,0,5,,,1,3.1513920379802585,1,0.3690117179939989,1,0.4191113690030761,1,1.990677585999947,,,083,001,2019_Aug_28_1010,MusicAffectPsychophysiology2019,3.0.5,59.664186214871165,
To what extent did the music make you feel ,HAPPY,30MonoWAV/30MonoF4.wav,1,2,2,4,,,,,1,15,31,3,0,1,1,6,,,,,,,,,1,0.7682887580012903,,,083,001,2019_Aug_28_1010,MusicAffectPsychophysiology2019,3.0.5,59.664186214871165,
To what extent did the music make you feel ,FRUSTRATED,30MonoWAV/30MonoF4.wav,1,2,2,4,,,,,1,15,31,3,0,2,2,3,,,,,,,,,5,1.3874857050250284,,,083,001,2019_Aug_28_1010,MusicAffectPsychophysiology2019,3.0.5,59.664186214871165,
To what extent did the music make you feel ,ACTIVE,30MonoWAV/30MonoF4.wav,1,2,2,4,,,,,1,15,31,3,0,3,3,9,,,,,,,,,1,1.1035093259997666,,,083,001,2019_Aug_28_1010,MusicAffectPsychophysiology2019,3.0.5,59.664186214871165,
To what extent did the music make you feel ,ALERT,30MonoWAV/30MonoF4.wav,1,2,2,4,,,,,1,15,31,3,0,4,4,8,,,,,,,,,1,1.1693146920006257,,,083,001,2019_Aug_28_1010,MusicAffectPsychophysiology2019,3.0.5,59.664186214871165,
To what extent did the music make you feel ,ANGRY,30MonoWAV/30MonoF4.wav,1,2,2,4,,,,,1,15,31,3,0,5,5,2,,,,,,,,,1,1.1664432880061213,,,083,001,2019_Aug_28_1010,MusicAffectPsychophysiology2019,3.0.5,59.664186214871165,
To what extent did the music make you feel ,TENDER,30MonoWAV/30MonoF4.wav,1,2,2,4,,,,,1,15,31,3,0,6,6,10,,,,,,,,,1,0.7196774320036639,,,083,001,2019_Aug_28_1010,MusicAffectPsychophysiology2019,3.0.5,59.664186214871165,
To what extent did the music make you feel ,ASHAMED,30MonoWAV/30MonoF4.wav,1,2,2,4,,,,,1,15,31,3,0,7,7,4,,,,,,,,,1,1.002907371002948,,,083,001,2019_Aug_28_1010,MusicAffectPsychophysiology2019,3.0.5,59.664186214871165,
To what extent did the music make you feel ,SCARED,30MonoWAV/30MonoF4.wav,1,2,2,4,,,,,1,15,31,3,0,8,8,11,,,,,,,,,5,0.8692492970149033,,,083,001,2019_Aug_28_1010,MusicAffectPsychophysiology2019,3.0.5,59.664186214871165,
To what extent did the music make you feel ,EXCITED,30MonoWAV/30MonoF4.wav,1,2,2,4,,,,,1,15,31,3,0,9,9,7,,,,,,,,,1,0.8016660230059642,,,083,001,2019_Aug_28_1010,MusicAffectPsychophysiology2019,3.0.5,59.664186214871165,
To what extent did the music make you feel ,SAD,30MonoWAV/30MonoF4.wav,1,2,2,4,,,,,1,15,31,3,0,10,10,0,,,,,,,,,1,7.168094274005853,,,083,001,2019_Aug_28_1010,MusicAffectPsychophysiology2019,3.0.5,59.664186214871165,
To what extent did the music make you feel ,ANXIOUS ,30MonoWAV/30MonoF4.wav,1,2,2,4,,,,,1,15,31,3,0,11,11,1,,,,,,,,,5,0.8694040520058479,,,083,001,2019_Aug_28_1010,MusicAffectPsychophysiology2019,3.0.5,59.664186214871165,
,,30MonoWAV/30MonoF4.wav,1,2,2,4,,,,,1,15,31,3,,,,,,,,,,,,,,,,,083,001,2019_Aug_28_1010,MusicAffectPsychophysiology2019,3.0.5,59.664186214871165,
,,,,,,,,,,,,,,,,,,,,,,,,,,,,,space,18.51799127200502,083,001,2019_Aug_28_1010,MusicAffectPsychophysiology2019,3.0.5,59.664186214871165,
