Instruction,Word,song,valence,arousal,affectcat,songmark,pracwords.thisRepN,pracwords.thisTrialN,pracwords.thisN,pracwords.thisIndex,songtrials.thisRepN,songtrials.thisTrialN,songtrials.thisN,songtrials.thisIndex,words.thisRepN,words.thisTrialN,words.thisN,words.thisIndex,begin.keys,begin.rt,arousalkey.keys,arousalkey.rt,valencekey.keys,valencekey.rt,likekey.keys,likekey.rt,WordResponse.keys,WordResponse.rt,key_resp_2.keys,key_resp_2.rt,participant,session,date,expName,psychopyVersion,frameRate,
,,,,,,,,,,,,,,,,,,,space,6.736184457986383,,,,,,,,,,,084,001,2019_Aug_28_1113,MusicAffectPsychophysiology2019,3.0.5,60.05943133290414,
,,,,,,,,,,,,,,,,,,,,,3,5.3031792959955055,,,,,,,,,084,001,2019_Aug_28_1113,MusicAffectPsychophysiology2019,3.0.5,60.05943133290414,
,,,,,,,,,,,,,,,,,,,,,,,4,3.1016090989869554,,,,,,,084,001,2019_Aug_28_1113,MusicAffectPsychophysiology2019,3.0.5,60.05943133290414,
,,,,,,,,,,,,,,,,,,,,,,,,,2,2.3033233580063097,,,,,084,001,2019_Aug_28_1113,MusicAffectPsychophysiology2019,3.0.5,60.05943133290414,
To what extent did the music make you feel ,EXCITED,,,,,,0,0,0,7,,,,,,,,,,,,,,,,,2,2.5267443359771278,,,084,001,2019_Aug_28_1113,MusicAffectPsychophysiology2019,3.0.5,60.05943133290414,
To what extent did the music make you feel ,TENDER,,,,,,0,1,1,10,,,,,,,,,,,,,,,,,2,2.2767856490099803,,,084,001,2019_Aug_28_1113,MusicAffectPsychophysiology2019,3.0.5,60.05943133290414,
To what extent did the music make you feel ,ALERT,,,,,,0,2,2,8,,,,,,,,,,,,,,,,,1,1.4530136990069877,,,084,001,2019_Aug_28_1113,MusicAffectPsychophysiology2019,3.0.5,60.05943133290414,
To what extent did the music make you feel ,ASHAMED,,,,,,0,3,3,4,,,,,,,,,,,,,,,,,1,1.0698157740116585,,,084,001,2019_Aug_28_1113,MusicAffectPsychophysiology2019,3.0.5,60.05943133290414,
To what extent did the music make you feel ,GUILTY,,,,,,0,4,4,5,,,,,,,,,,,,,,,,,1,0.7758100870123599,,,084,001,2019_Aug_28_1113,MusicAffectPsychophysiology2019,3.0.5,60.05943133290414,
To what extent did the music make you feel ,FRUSTRATED,,,,,,0,5,5,3,,,,,,,,,,,,,,,,,1,0.9938066110189538,,,084,001,2019_Aug_28_1113,MusicAffectPsychophysiology2019,3.0.5,60.05943133290414,
To what extent did the music make you feel ,SAD,,,,,,0,6,6,0,,,,,,,,,,,,,,,,,1,1.2864625510119367,,,084,001,2019_Aug_28_1113,MusicAffectPsychophysiology2019,3.0.5,60.05943133290414,
To what extent did the music make you feel ,ACTIVE,,,,,,0,7,7,9,,,,,,,,,,,,,,,,,3,1.5023039960069582,,,084,001,2019_Aug_28_1113,MusicAffectPsychophysiology2019,3.0.5,60.05943133290414,
To what extent did the music make you feel ,ANGRY,,,,,,0,8,8,2,,,,,,,,,,,,,,,,,1,1.3188300909823738,,,084,001,2019_Aug_28_1113,MusicAffectPsychophysiology2019,3.0.5,60.05943133290414,
To what extent did the music make you feel ,ANXIOUS ,,,,,,0,9,9,1,,,,,,,,,,,,,,,,,1,0.7184911719814409,,,084,001,2019_Aug_28_1113,MusicAffectPsychophysiology2019,3.0.5,60.05943133290414,
To what extent did the music make you feel ,SCARED,,,,,,0,10,10,11,,,,,,,,,,,,,,,,,1,0.6039132800069638,,,084,001,2019_Aug_28_1113,MusicAffectPsychophysiology2019,3.0.5,60.05943133290414,
To what extent did the music make you feel ,HAPPY,,,,,,0,11,11,6,,,,,,,,,,,,,,,,,4,1.5525586350122467,,,084,001,2019_Aug_28_1113,MusicAffectPsychophysiology2019,3.0.5,60.05943133290414,
To what extent did the music make you feel ,SCARED,30MonoWAV/30MonoS1.wav,1,1,3,9,,,,,0,0,0,8,0,0,0,11,,,2,4.651481339009479,3,2.619135212007677,1,3.1845865880022757,1,1.4390667330008,,,084,001,2019_Aug_28_1113,MusicAffectPsychophysiology2019,3.0.5,60.05943133290414,
To what extent did the music make you feel ,ALERT,30MonoWAV/30MonoS1.wav,1,1,3,9,,,,,0,0,0,8,0,1,1,8,,,,,,,,,1,1.0880889120162465,,,084,001,2019_Aug_28_1113,MusicAffectPsychophysiology2019,3.0.5,60.05943133290414,
To what extent did the music make you feel ,ANXIOUS ,30MonoWAV/30MonoS1.wav,1,1,3,9,,,,,0,0,0,8,0,2,2,1,,,,,,,,,1,0.9179103950154968,,,084,001,2019_Aug_28_1113,MusicAffectPsychophysiology2019,3.0.5,60.05943133290414,
To what extent did the music make you feel ,ACTIVE,30MonoWAV/30MonoS1.wav,1,1,3,9,,,,,0,0,0,8,0,3,3,9,,,,,,,,,2,1.6000230420031585,,,084,001,2019_Aug_28_1113,MusicAffectPsychophysiology2019,3.0.5,60.05943133290414,
To what extent did the music make you feel ,EXCITED,30MonoWAV/30MonoS1.wav,1,1,3,9,,,,,0,0,0,8,0,4,4,7,,,,,,,,,1,1.6673291150073055,,,084,001,2019_Aug_28_1113,MusicAffectPsychophysiology2019,3.0.5,60.05943133290414,
To what extent did the music make you feel ,SAD,30MonoWAV/30MonoS1.wav,1,1,3,9,,,,,0,0,0,8,0,5,5,0,,,,,,,,,2,1.7856391799869016,,,084,001,2019_Aug_28_1113,MusicAffectPsychophysiology2019,3.0.5,60.05943133290414,
To what extent did the music make you feel ,GUILTY,30MonoWAV/30MonoS1.wav,1,1,3,9,,,,,0,0,0,8,0,6,6,5,,,,,,,,,1,1.1532141540083103,,,084,001,2019_Aug_28_1113,MusicAffectPsychophysiology2019,3.0.5,60.05943133290414,
To what extent did the music make you feel ,TENDER,30MonoWAV/30MonoS1.wav,1,1,3,9,,,,,0,0,0,8,0,7,7,10,,,,,,,,,3,1.5200723659945652,,,084,001,2019_Aug_28_1113,MusicAffectPsychophysiology2019,3.0.5,60.05943133290414,
To what extent did the music make you feel ,FRUSTRATED,30MonoWAV/30MonoS1.wav,1,1,3,9,,,,,0,0,0,8,0,8,8,3,,,,,,,,,1,1.8689680509851314,,,084,001,2019_Aug_28_1113,MusicAffectPsychophysiology2019,3.0.5,60.05943133290414,
To what extent did the music make you feel ,ANGRY,30MonoWAV/30MonoS1.wav,1,1,3,9,,,,,0,0,0,8,0,9,9,2,,,,,,,,,1,0.8839312329946551,,,084,001,2019_Aug_28_1113,MusicAffectPsychophysiology2019,3.0.5,60.05943133290414,
To what extent did the music make you feel ,ASHAMED,30MonoWAV/30MonoS1.wav,1,1,3,9,,,,,0,0,0,8,0,10,10,4,,,,,,,,,1,0.9187115899985656,,,084,001,2019_Aug_28_1113,MusicAffectPsychophysiology2019,3.0.5,60.05943133290414,
To what extent did the music make you feel ,HAPPY,30MonoWAV/30MonoS1.wav,1,1,3,9,,,,,0,0,0,8,0,11,11,6,,,,,,,,,2,1.0194593310006894,,,084,001,2019_Aug_28_1113,MusicAffectPsychophysiology2019,3.0.5,60.05943133290414,
,,30MonoWAV/30MonoS1.wav,1,1,3,9,,,,,0,0,0,8,,,,,,,,,,,,,,,,,084,001,2019_Aug_28_1113,MusicAffectPsychophysiology2019,3.0.5,60.05943133290414,
To what extent did the music make you feel ,HAPPY,30MonoWAV/30MonoT2.wav,2,1,4,14,,,,,0,1,1,13,0,0,0,6,,,2,2.502938446996268,4,1.3355003480101004,3,1.586367938987678,4,2.218843751004897,,,084,001,2019_Aug_28_1113,MusicAffectPsychophysiology2019,3.0.5,60.05943133290414,
To what extent did the music make you feel ,SAD,30MonoWAV/30MonoT2.wav,2,1,4,14,,,,,0,1,1,13,0,1,1,0,,,,,,,,,1,2.1022853840258904,,,084,001,2019_Aug_28_1113,MusicAffectPsychophysiology2019,3.0.5,60.05943133290414,
To what extent did the music make you feel ,GUILTY,30MonoWAV/30MonoT2.wav,2,1,4,14,,,,,0,1,1,13,0,2,2,5,,,,,,,,,1,0.5517570119991433,,,084,001,2019_Aug_28_1113,MusicAffectPsychophysiology2019,3.0.5,60.05943133290414,
To what extent did the music make you feel ,SCARED,30MonoWAV/30MonoT2.wav,2,1,4,14,,,,,0,1,1,13,0,3,3,11,,,,,,,,,1,0.6365965399891138,,,084,001,2019_Aug_28_1113,MusicAffectPsychophysiology2019,3.0.5,60.05943133290414,
To what extent did the music make you feel ,ANGRY,30MonoWAV/30MonoT2.wav,2,1,4,14,,,,,0,1,1,13,0,4,4,2,,,,,,,,,1,0.6028457359934691,,,084,001,2019_Aug_28_1113,MusicAffectPsychophysiology2019,3.0.5,60.05943133290414,
To what extent did the music make you feel ,ALERT,30MonoWAV/30MonoT2.wav,2,1,4,14,,,,,0,1,1,13,0,5,5,8,,,,,,,,,2,1.7031718140060548,,,084,001,2019_Aug_28_1113,MusicAffectPsychophysiology2019,3.0.5,60.05943133290414,
To what extent did the music make you feel ,ACTIVE,30MonoWAV/30MonoT2.wav,2,1,4,14,,,,,0,1,1,13,0,6,6,9,,,,,,,,,3,1.7030095049994998,,,084,001,2019_Aug_28_1113,MusicAffectPsychophysiology2019,3.0.5,60.05943133290414,
To what extent did the music make you feel ,ASHAMED,30MonoWAV/30MonoT2.wav,2,1,4,14,,,,,0,1,1,13,0,7,7,4,,,,,,,,,1,1.3700262930069584,,,084,001,2019_Aug_28_1113,MusicAffectPsychophysiology2019,3.0.5,60.05943133290414,
To what extent did the music make you feel ,TENDER,30MonoWAV/30MonoT2.wav,2,1,4,14,,,,,0,1,1,13,0,8,8,10,,,,,,,,,2,2.570640342979459,,,084,001,2019_Aug_28_1113,MusicAffectPsychophysiology2019,3.0.5,60.05943133290414,
To what extent did the music make you feel ,FRUSTRATED,30MonoWAV/30MonoT2.wav,2,1,4,14,,,,,0,1,1,13,0,9,9,3,,,,,,,,,1,0.8455692149873357,,,084,001,2019_Aug_28_1113,MusicAffectPsychophysiology2019,3.0.5,60.05943133290414,
To what extent did the music make you feel ,ANXIOUS ,30MonoWAV/30MonoT2.wav,2,1,4,14,,,,,0,1,1,13,0,10,10,1,,,,,,,,,1,0.8369084260193631,,,084,001,2019_Aug_28_1113,MusicAffectPsychophysiology2019,3.0.5,60.05943133290414,
To what extent did the music make you feel ,EXCITED,30MonoWAV/30MonoT2.wav,2,1,4,14,,,,,0,1,1,13,0,11,11,7,,,,,,,,,3,1.1183892480039503,,,084,001,2019_Aug_28_1113,MusicAffectPsychophysiology2019,3.0.5,60.05943133290414,
,,30MonoWAV/30MonoT2.wav,2,1,4,14,,,,,0,1,1,13,,,,,,,,,,,,,,,,,084,001,2019_Aug_28_1113,MusicAffectPsychophysiology2019,3.0.5,60.05943133290414,
To what extent did the music make you feel ,SCARED,30MonoWAV/30MonoF3.wav,1,2,2,3,,,,,0,2,2,2,0,0,0,11,,,3,3.2526634210080374,2,1.2365692240127828,1,2.586059472989291,4,1.9239089759939816,,,084,001,2019_Aug_28_1113,MusicAffectPsychophysiology2019,3.0.5,60.05943133290414,
To what extent did the music make you feel ,ACTIVE,30MonoWAV/30MonoF3.wav,1,2,2,3,,,,,0,2,2,2,0,1,1,9,,,,,,,,,3,1.8681446640111972,,,084,001,2019_Aug_28_1113,MusicAffectPsychophysiology2019,3.0.5,60.05943133290414,
To what extent did the music make you feel ,ANGRY,30MonoWAV/30MonoF3.wav,1,2,2,3,,,,,0,2,2,2,0,2,2,2,,,,,,,,,2,1.3694125770125538,,,084,001,2019_Aug_28_1113,MusicAffectPsychophysiology2019,3.0.5,60.05943133290414,
To what extent did the music make you feel ,TENDER,30MonoWAV/30MonoF3.wav,1,2,2,3,,,,,0,2,2,2,0,3,3,10,,,,,,,,,2,0.9192643419955857,,,084,001,2019_Aug_28_1113,MusicAffectPsychophysiology2019,3.0.5,60.05943133290414,
To what extent did the music make you feel ,ANXIOUS ,30MonoWAV/30MonoF3.wav,1,2,2,3,,,,,0,2,2,2,0,4,4,1,,,,,,,,,3,1.7349251679843292,,,084,001,2019_Aug_28_1113,MusicAffectPsychophysiology2019,3.0.5,60.05943133290414,
To what extent did the music make you feel ,ASHAMED,30MonoWAV/30MonoF3.wav,1,2,2,3,,,,,0,2,2,2,0,5,5,4,,,,,,,,,1,1.1526982669893187,,,084,001,2019_Aug_28_1113,MusicAffectPsychophysiology2019,3.0.5,60.05943133290414,
To what extent did the music make you feel ,FRUSTRATED,30MonoWAV/30MonoF3.wav,1,2,2,3,,,,,0,2,2,2,0,6,6,3,,,,,,,,,1,0.8034924019884784,,,084,001,2019_Aug_28_1113,MusicAffectPsychophysiology2019,3.0.5,60.05943133290414,
To what extent did the music make you feel ,SAD,30MonoWAV/30MonoF3.wav,1,2,2,3,,,,,0,2,2,2,0,7,7,0,,,,,,,,,1,0.8530632230103947,,,084,001,2019_Aug_28_1113,MusicAffectPsychophysiology2019,3.0.5,60.05943133290414,
To what extent did the music make you feel ,ALERT,30MonoWAV/30MonoF3.wav,1,2,2,3,,,,,0,2,2,2,0,8,8,8,,,,,,,,,2,0.9507509469985962,,,084,001,2019_Aug_28_1113,MusicAffectPsychophysiology2019,3.0.5,60.05943133290414,
To what extent did the music make you feel ,EXCITED,30MonoWAV/30MonoF3.wav,1,2,2,3,,,,,0,2,2,2,0,9,9,7,,,,,,,,,3,3.2004716680094134,,,084,001,2019_Aug_28_1113,MusicAffectPsychophysiology2019,3.0.5,60.05943133290414,
To what extent did the music make you feel ,GUILTY,30MonoWAV/30MonoF3.wav,1,2,2,3,,,,,0,2,2,2,0,10,10,5,,,,,,,,,2,1.019345357985003,,,084,001,2019_Aug_28_1113,MusicAffectPsychophysiology2019,3.0.5,60.05943133290414,
To what extent did the music make you feel ,HAPPY,30MonoWAV/30MonoF3.wav,1,2,2,3,,,,,0,2,2,2,0,11,11,6,,,,,,,,,2,1.4198154979967512,,,084,001,2019_Aug_28_1113,MusicAffectPsychophysiology2019,3.0.5,60.05943133290414,
,,30MonoWAV/30MonoF3.wav,1,2,2,3,,,,,0,2,2,2,,,,,,,,,,,,,,,,,084,001,2019_Aug_28_1113,MusicAffectPsychophysiology2019,3.0.5,60.05943133290414,
To what extent did the music make you feel ,GUILTY,30MonoWAV/30MonoH3.wav,2,2,1,7,,,,,0,3,3,6,0,0,0,5,,,4,2.369452482002089,4,1.8356506860000081,2,1.60298395800055,1,1.7019697820069268,,,084,001,2019_Aug_28_1113,MusicAffectPsychophysiology2019,3.0.5,60.05943133290414,
To what extent did the music make you feel ,ALERT,30MonoWAV/30MonoH3.wav,2,2,1,7,,,,,0,3,3,6,0,1,1,8,,,,,,,,,4,1.6341363420069683,,,084,001,2019_Aug_28_1113,MusicAffectPsychophysiology2019,3.0.5,60.05943133290414,
To what extent did the music make you feel ,ACTIVE,30MonoWAV/30MonoH3.wav,2,2,1,7,,,,,0,3,3,6,0,2,2,9,,,,,,,,,4,0.884704788972158,,,084,001,2019_Aug_28_1113,MusicAffectPsychophysiology2019,3.0.5,60.05943133290414,
To what extent did the music make you feel ,TENDER,30MonoWAV/30MonoH3.wav,2,2,1,7,,,,,0,3,3,6,0,3,3,10,,,,,,,,,2,1.818976621987531,,,084,001,2019_Aug_28_1113,MusicAffectPsychophysiology2019,3.0.5,60.05943133290414,
To what extent did the music make you feel ,FRUSTRATED,30MonoWAV/30MonoH3.wav,2,2,1,7,,,,,0,3,3,6,0,4,4,3,,,,,,,,,1,0.6523132440051995,,,084,001,2019_Aug_28_1113,MusicAffectPsychophysiology2019,3.0.5,60.05943133290414,
To what extent did the music make you feel ,EXCITED,30MonoWAV/30MonoH3.wav,2,2,1,7,,,,,0,3,3,6,0,5,5,7,,,,,,,,,4,1.3520955439889804,,,084,001,2019_Aug_28_1113,MusicAffectPsychophysiology2019,3.0.5,60.05943133290414,
To what extent did the music make you feel ,ASHAMED,30MonoWAV/30MonoH3.wav,2,2,1,7,,,,,0,3,3,6,0,6,6,4,,,,,,,,,1,0.9358329960086849,,,084,001,2019_Aug_28_1113,MusicAffectPsychophysiology2019,3.0.5,60.05943133290414,
To what extent did the music make you feel ,SAD,30MonoWAV/30MonoH3.wav,2,2,1,7,,,,,0,3,3,6,0,7,7,0,,,,,,,,,1,0.6692121020168997,,,084,001,2019_Aug_28_1113,MusicAffectPsychophysiology2019,3.0.5,60.05943133290414,
To what extent did the music make you feel ,ANXIOUS ,30MonoWAV/30MonoH3.wav,2,2,1,7,,,,,0,3,3,6,0,8,8,1,,,,,,,,,1,0.8176828860014211,,,084,001,2019_Aug_28_1113,MusicAffectPsychophysiology2019,3.0.5,60.05943133290414,
To what extent did the music make you feel ,HAPPY,30MonoWAV/30MonoH3.wav,2,2,1,7,,,,,0,3,3,6,0,9,9,6,,,,,,,,,3,1.2532408490078524,,,084,001,2019_Aug_28_1113,MusicAffectPsychophysiology2019,3.0.5,60.05943133290414,
To what extent did the music make you feel ,ANGRY,30MonoWAV/30MonoH3.wav,2,2,1,7,,,,,0,3,3,6,0,10,10,2,,,,,,,,,1,1.4358940969977994,,,084,001,2019_Aug_28_1113,MusicAffectPsychophysiology2019,3.0.5,60.05943133290414,
To what extent did the music make you feel ,SCARED,30MonoWAV/30MonoH3.wav,2,2,1,7,,,,,0,3,3,6,0,11,11,11,,,,,,,,,1,0.8033253409957979,,,084,001,2019_Aug_28_1113,MusicAffectPsychophysiology2019,3.0.5,60.05943133290414,
,,30MonoWAV/30MonoH3.wav,2,2,1,7,,,,,0,3,3,6,,,,,,,,,,,,,,,,,084,001,2019_Aug_28_1113,MusicAffectPsychophysiology2019,3.0.5,60.05943133290414,
To what extent did the music make you feel ,ASHAMED,30MonoWAV/30MonoS2.wav,1,1,3,10,,,,,0,4,4,9,0,0,0,4,,,1,2.869095549976919,2,1.5345003270194866,2,3.868402390013216,2,3.976094010984525,,,084,001,2019_Aug_28_1113,MusicAffectPsychophysiology2019,3.0.5,60.05943133290414,
To what extent did the music make you feel ,ANGRY,30MonoWAV/30MonoS2.wav,1,1,3,10,,,,,0,4,4,9,0,1,1,2,,,,,,,,,1,1.9523908190021757,,,084,001,2019_Aug_28_1113,MusicAffectPsychophysiology2019,3.0.5,60.05943133290414,
To what extent did the music make you feel ,SAD,30MonoWAV/30MonoS2.wav,1,1,3,10,,,,,0,4,4,9,0,2,2,0,,,,,,,,,4,1.4036510339938104,,,084,001,2019_Aug_28_1113,MusicAffectPsychophysiology2019,3.0.5,60.05943133290414,
To what extent did the music make you feel ,ALERT,30MonoWAV/30MonoS2.wav,1,1,3,10,,,,,0,4,4,9,0,3,3,8,,,,,,,,,1,1.8032316619937774,,,084,001,2019_Aug_28_1113,MusicAffectPsychophysiology2019,3.0.5,60.05943133290414,
To what extent did the music make you feel ,TENDER,30MonoWAV/30MonoS2.wav,1,1,3,10,,,,,0,4,4,9,0,4,4,10,,,,,,,,,2,1.7530356580100488,,,084,001,2019_Aug_28_1113,MusicAffectPsychophysiology2019,3.0.5,60.05943133290414,
To what extent did the music make you feel ,SCARED,30MonoWAV/30MonoS2.wav,1,1,3,10,,,,,0,4,4,9,0,5,5,11,,,,,,,,,2,1.5517935949901585,,,084,001,2019_Aug_28_1113,MusicAffectPsychophysiology2019,3.0.5,60.05943133290414,
To what extent did the music make you feel ,GUILTY,30MonoWAV/30MonoS2.wav,1,1,3,10,,,,,0,4,4,9,0,6,6,5,,,,,,,,,3,1.5665368430200033,,,084,001,2019_Aug_28_1113,MusicAffectPsychophysiology2019,3.0.5,60.05943133290414,
To what extent did the music make you feel ,FRUSTRATED,30MonoWAV/30MonoS2.wav,1,1,3,10,,,,,0,4,4,9,0,7,7,3,,,,,,,,,1,1.7696677779895253,,,084,001,2019_Aug_28_1113,MusicAffectPsychophysiology2019,3.0.5,60.05943133290414,
To what extent did the music make you feel ,ACTIVE,30MonoWAV/30MonoS2.wav,1,1,3,10,,,,,0,4,4,9,0,8,8,9,,,,,,,,,1,0.7031006710021757,,,084,001,2019_Aug_28_1113,MusicAffectPsychophysiology2019,3.0.5,60.05943133290414,
To what extent did the music make you feel ,EXCITED,30MonoWAV/30MonoS2.wav,1,1,3,10,,,,,0,4,4,9,0,9,9,7,,,,,,,,,1,0.6683398719760589,,,084,001,2019_Aug_28_1113,MusicAffectPsychophysiology2019,3.0.5,60.05943133290414,
To what extent did the music make you feel ,HAPPY,30MonoWAV/30MonoS2.wav,1,1,3,10,,,,,0,4,4,9,0,10,10,6,,,,,,,,,1,0.9860648309986573,,,084,001,2019_Aug_28_1113,MusicAffectPsychophysiology2019,3.0.5,60.05943133290414,
To what extent did the music make you feel ,ANXIOUS ,30MonoWAV/30MonoS2.wav,1,1,3,10,,,,,0,4,4,9,0,11,11,1,,,,,,,,,2,1.6362914979981724,,,084,001,2019_Aug_28_1113,MusicAffectPsychophysiology2019,3.0.5,60.05943133290414,
,,30MonoWAV/30MonoS2.wav,1,1,3,10,,,,,0,4,4,9,,,,,,,,,,,,,,,,,084,001,2019_Aug_28_1113,MusicAffectPsychophysiology2019,3.0.5,60.05943133290414,
To what extent did the music make you feel ,ALERT,30MonoWAV/30MonoF2.wav,1,2,2,2,,,,,0,5,5,1,0,0,0,8,,,2,2.119322287006071,1,1.0694523229904007,2,1.1183646470017266,3,2.7707474950002506,,,084,001,2019_Aug_28_1113,MusicAffectPsychophysiology2019,3.0.5,60.05943133290414,
To what extent did the music make you feel ,HAPPY,30MonoWAV/30MonoF2.wav,1,2,2,2,,,,,0,5,5,1,0,1,1,6,,,,,,,,,2,2.3188839409849606,,,084,001,2019_Aug_28_1113,MusicAffectPsychophysiology2019,3.0.5,60.05943133290414,
To what extent did the music make you feel ,EXCITED,30MonoWAV/30MonoF2.wav,1,2,2,2,,,,,0,5,5,1,0,2,2,7,,,,,,,,,3,1.4190076160011813,,,084,001,2019_Aug_28_1113,MusicAffectPsychophysiology2019,3.0.5,60.05943133290414,
To what extent did the music make you feel ,GUILTY,30MonoWAV/30MonoF2.wav,1,2,2,2,,,,,0,5,5,1,0,3,3,5,,,,,,,,,1,0.918889988999581,,,084,001,2019_Aug_28_1113,MusicAffectPsychophysiology2019,3.0.5,60.05943133290414,
To what extent did the music make you feel ,ANGRY,30MonoWAV/30MonoF2.wav,1,2,2,2,,,,,0,5,5,1,0,4,4,2,,,,,,,,,1,0.8329464810085483,,,084,001,2019_Aug_28_1113,MusicAffectPsychophysiology2019,3.0.5,60.05943133290414,
To what extent did the music make you feel ,SCARED,30MonoWAV/30MonoF2.wav,1,2,2,2,,,,,0,5,5,1,0,5,5,11,,,,,,,,,4,0.9361292799876537,,,084,001,2019_Aug_28_1113,MusicAffectPsychophysiology2019,3.0.5,60.05943133290414,
To what extent did the music make you feel ,TENDER,30MonoWAV/30MonoF2.wav,1,2,2,2,,,,,0,5,5,1,0,6,6,10,,,,,,,,,1,1.535899534006603,,,084,001,2019_Aug_28_1113,MusicAffectPsychophysiology2019,3.0.5,60.05943133290414,
To what extent did the music make you feel ,SAD,30MonoWAV/30MonoF2.wav,1,2,2,2,,,,,0,5,5,1,0,7,7,0,,,,,,,,,1,1.6998512469872367,,,084,001,2019_Aug_28_1113,MusicAffectPsychophysiology2019,3.0.5,60.05943133290414,
To what extent did the music make you feel ,ACTIVE,30MonoWAV/30MonoF2.wav,1,2,2,2,,,,,0,5,5,1,0,8,8,9,,,,,,,,,3,1.4188208759878762,,,084,001,2019_Aug_28_1113,MusicAffectPsychophysiology2019,3.0.5,60.05943133290414,
To what extent did the music make you feel ,FRUSTRATED,30MonoWAV/30MonoF2.wav,1,2,2,2,,,,,0,5,5,1,0,9,9,3,,,,,,,,,2,1.436465674021747,,,084,001,2019_Aug_28_1113,MusicAffectPsychophysiology2019,3.0.5,60.05943133290414,
To what extent did the music make you feel ,ANXIOUS ,30MonoWAV/30MonoF2.wav,1,2,2,2,,,,,0,5,5,1,0,10,10,1,,,,,,,,,4,1.4865823180007283,,,084,001,2019_Aug_28_1113,MusicAffectPsychophysiology2019,3.0.5,60.05943133290414,
To what extent did the music make you feel ,ASHAMED,30MonoWAV/30MonoF2.wav,1,2,2,2,,,,,0,5,5,1,0,11,11,4,,,,,,,,,1,1.869318570010364,,,084,001,2019_Aug_28_1113,MusicAffectPsychophysiology2019,3.0.5,60.05943133290414,
,,30MonoWAV/30MonoF2.wav,1,2,2,2,,,,,0,5,5,1,,,,,,,,,,,,,,,,,084,001,2019_Aug_28_1113,MusicAffectPsychophysiology2019,3.0.5,60.05943133290414,
To what extent did the music make you feel ,SCARED,30MonoWAV/30MonoT4.wav,2,1,4,16,,,,,0,6,6,15,0,0,0,11,,,3,4.152106426976388,3,1.8185252149996813,3,2.468622657004744,3,0.5800545509846415,,,084,001,2019_Aug_28_1113,MusicAffectPsychophysiology2019,3.0.5,60.05943133290414,
To what extent did the music make you feel ,FRUSTRATED,30MonoWAV/30MonoT4.wav,2,1,4,16,,,,,0,6,6,15,0,1,1,3,,,,,,,,,1,3.5182235249958467,,,084,001,2019_Aug_28_1113,MusicAffectPsychophysiology2019,3.0.5,60.05943133290414,
To what extent did the music make you feel ,HAPPY,30MonoWAV/30MonoT4.wav,2,1,4,16,,,,,0,6,6,15,0,2,2,6,,,,,,,,,4,1.1211693119839765,,,084,001,2019_Aug_28_1113,MusicAffectPsychophysiology2019,3.0.5,60.05943133290414,
To what extent did the music make you feel ,ANXIOUS ,30MonoWAV/30MonoT4.wav,2,1,4,16,,,,,0,6,6,15,0,3,3,1,,,,,,,,,1,1.8855234210204799,,,084,001,2019_Aug_28_1113,MusicAffectPsychophysiology2019,3.0.5,60.05943133290414,
To what extent did the music make you feel ,ALERT,30MonoWAV/30MonoT4.wav,2,1,4,16,,,,,0,6,6,15,0,4,4,8,,,,,,,,,4,2.0693557639897335,,,084,001,2019_Aug_28_1113,MusicAffectPsychophysiology2019,3.0.5,60.05943133290414,
To what extent did the music make you feel ,GUILTY,30MonoWAV/30MonoT4.wav,2,1,4,16,,,,,0,6,6,15,0,5,5,5,,,,,,,,,1,1.0696956549945753,,,084,001,2019_Aug_28_1113,MusicAffectPsychophysiology2019,3.0.5,60.05943133290414,
To what extent did the music make you feel ,SAD,30MonoWAV/30MonoT4.wav,2,1,4,16,,,,,0,6,6,15,0,6,6,0,,,,,,,,,2,1.2831530370167457,,,084,001,2019_Aug_28_1113,MusicAffectPsychophysiology2019,3.0.5,60.05943133290414,
To what extent did the music make you feel ,ACTIVE,30MonoWAV/30MonoT4.wav,2,1,4,16,,,,,0,6,6,15,0,7,7,9,,,,,,,,,3,1.136003140010871,,,084,001,2019_Aug_28_1113,MusicAffectPsychophysiology2019,3.0.5,60.05943133290414,
To what extent did the music make you feel ,TENDER,30MonoWAV/30MonoT4.wav,2,1,4,16,,,,,0,6,6,15,0,8,8,10,,,,,,,,,1,1.2689462339913007,,,084,001,2019_Aug_28_1113,MusicAffectPsychophysiology2019,3.0.5,60.05943133290414,
To what extent did the music make you feel ,ASHAMED,30MonoWAV/30MonoT4.wav,2,1,4,16,,,,,0,6,6,15,0,9,9,4,,,,,,,,,1,0.9688821620075032,,,084,001,2019_Aug_28_1113,MusicAffectPsychophysiology2019,3.0.5,60.05943133290414,
To what extent did the music make you feel ,ANGRY,30MonoWAV/30MonoT4.wav,2,1,4,16,,,,,0,6,6,15,0,10,10,2,,,,,,,,,1,0.8355650560115464,,,084,001,2019_Aug_28_1113,MusicAffectPsychophysiology2019,3.0.5,60.05943133290414,
To what extent did the music make you feel ,EXCITED,30MonoWAV/30MonoT4.wav,2,1,4,16,,,,,0,6,6,15,0,11,11,7,,,,,,,,,3,1.135712590010371,,,084,001,2019_Aug_28_1113,MusicAffectPsychophysiology2019,3.0.5,60.05943133290414,
,,30MonoWAV/30MonoT4.wav,2,1,4,16,,,,,0,6,6,15,,,,,,,,,,,,,,,,,084,001,2019_Aug_28_1113,MusicAffectPsychophysiology2019,3.0.5,60.05943133290414,
To what extent did the music make you feel ,SCARED,30MonoWAV/30MonoF1.wav,1,2,2,1,,,,,0,7,7,0,0,0,0,11,,,3,1.9355885429831687,2,1.950363253010437,2,1.485305990994675,3,1.4700932999840006,,,084,001,2019_Aug_28_1113,MusicAffectPsychophysiology2019,3.0.5,60.05943133290414,
To what extent did the music make you feel ,FRUSTRATED,30MonoWAV/30MonoF1.wav,1,2,2,1,,,,,0,7,7,0,0,1,1,3,,,,,,,,,1,0.9342192629992496,,,084,001,2019_Aug_28_1113,MusicAffectPsychophysiology2019,3.0.5,60.05943133290414,
To what extent did the music make you feel ,TENDER,30MonoWAV/30MonoF1.wav,1,2,2,1,,,,,0,7,7,0,0,2,2,10,,,,,,,,,1,0.6534033480274957,,,084,001,2019_Aug_28_1113,MusicAffectPsychophysiology2019,3.0.5,60.05943133290414,
To what extent did the music make you feel ,ANXIOUS ,30MonoWAV/30MonoF1.wav,1,2,2,1,,,,,0,7,7,0,0,3,3,1,,,,,,,,,3,1.3523749820014928,,,084,001,2019_Aug_28_1113,MusicAffectPsychophysiology2019,3.0.5,60.05943133290414,
To what extent did the music make you feel ,EXCITED,30MonoWAV/30MonoF1.wav,1,2,2,1,,,,,0,7,7,0,0,4,4,7,,,,,,,,,4,1.2183933499909472,,,084,001,2019_Aug_28_1113,MusicAffectPsychophysiology2019,3.0.5,60.05943133290414,
To what extent did the music make you feel ,GUILTY,30MonoWAV/30MonoF1.wav,1,2,2,1,,,,,0,7,7,0,0,5,5,5,,,,,,,,,1,1.0360072659968864,,,084,001,2019_Aug_28_1113,MusicAffectPsychophysiology2019,3.0.5,60.05943133290414,
To what extent did the music make you feel ,ACTIVE,30MonoWAV/30MonoF1.wav,1,2,2,1,,,,,0,7,7,0,0,6,6,9,,,,,,,,,4,1.018636840977706,,,084,001,2019_Aug_28_1113,MusicAffectPsychophysiology2019,3.0.5,60.05943133290414,
To what extent did the music make you feel ,HAPPY,30MonoWAV/30MonoF1.wav,1,2,2,1,,,,,0,7,7,0,0,7,7,6,,,,,,,,,2,1.585731196013512,,,084,001,2019_Aug_28_1113,MusicAffectPsychophysiology2019,3.0.5,60.05943133290414,
To what extent did the music make you feel ,ASHAMED,30MonoWAV/30MonoF1.wav,1,2,2,1,,,,,0,7,7,0,0,8,8,4,,,,,,,,,1,0.7532226599869318,,,084,001,2019_Aug_28_1113,MusicAffectPsychophysiology2019,3.0.5,60.05943133290414,
To what extent did the music make you feel ,SAD,30MonoWAV/30MonoF1.wav,1,2,2,1,,,,,0,7,7,0,0,9,9,0,,,,,,,,,1,0.7205079559935257,,,084,001,2019_Aug_28_1113,MusicAffectPsychophysiology2019,3.0.5,60.05943133290414,
To what extent did the music make you feel ,ALERT,30MonoWAV/30MonoF1.wav,1,2,2,1,,,,,0,7,7,0,0,10,10,8,,,,,,,,,4,3.7513559490034822,,,084,001,2019_Aug_28_1113,MusicAffectPsychophysiology2019,3.0.5,60.05943133290414,
To what extent did the music make you feel ,ANGRY,30MonoWAV/30MonoF1.wav,1,2,2,1,,,,,0,7,7,0,0,11,11,2,,,,,,,,,2,1.168319190008333,,,084,001,2019_Aug_28_1113,MusicAffectPsychophysiology2019,3.0.5,60.05943133290414,
,,30MonoWAV/30MonoF1.wav,1,2,2,1,,,,,0,7,7,0,,,,,,,,,,,,,,,,,084,001,2019_Aug_28_1113,MusicAffectPsychophysiology2019,3.0.5,60.05943133290414,
To what extent did the music make you feel ,ANGRY,30MonoWAV/30MonoT1.wav,2,1,4,13,,,,,0,8,8,12,0,0,0,2,,,1,4.318573209020542,3,1.63540989800822,2,2.1519613550044596,1,1.1188868910248857,,,084,001,2019_Aug_28_1113,MusicAffectPsychophysiology2019,3.0.5,60.05943133290414,
To what extent did the music make you feel ,SAD,30MonoWAV/30MonoT1.wav,2,1,4,13,,,,,0,8,8,12,0,1,1,0,,,,,,,,,1,1.050841396994656,,,084,001,2019_Aug_28_1113,MusicAffectPsychophysiology2019,3.0.5,60.05943133290414,
To what extent did the music make you feel ,EXCITED,30MonoWAV/30MonoT1.wav,2,1,4,13,,,,,0,8,8,12,0,2,2,7,,,,,,,,,2,2.71732764900662,,,084,001,2019_Aug_28_1113,MusicAffectPsychophysiology2019,3.0.5,60.05943133290414,
To what extent did the music make you feel ,ACTIVE,30MonoWAV/30MonoT1.wav,2,1,4,13,,,,,0,8,8,12,0,3,3,9,,,,,,,,,2,0.8528205519833136,,,084,001,2019_Aug_28_1113,MusicAffectPsychophysiology2019,3.0.5,60.05943133290414,
To what extent did the music make you feel ,ANXIOUS ,30MonoWAV/30MonoT1.wav,2,1,4,13,,,,,0,8,8,12,0,4,4,1,,,,,,,,,1,2.4868568340025377,,,084,001,2019_Aug_28_1113,MusicAffectPsychophysiology2019,3.0.5,60.05943133290414,
To what extent did the music make you feel ,FRUSTRATED,30MonoWAV/30MonoT1.wav,2,1,4,13,,,,,0,8,8,12,0,5,5,3,,,,,,,,,1,1.0146217489964329,,,084,001,2019_Aug_28_1113,MusicAffectPsychophysiology2019,3.0.5,60.05943133290414,
To what extent did the music make you feel ,GUILTY,30MonoWAV/30MonoT1.wav,2,1,4,13,,,,,0,8,8,12,0,6,6,5,,,,,,,,,2,1.1688551690021995,,,084,001,2019_Aug_28_1113,MusicAffectPsychophysiology2019,3.0.5,60.05943133290414,
To what extent did the music make you feel ,HAPPY,30MonoWAV/30MonoT1.wav,2,1,4,13,,,,,0,8,8,12,0,7,7,6,,,,,,,,,2,2.1852630079956725,,,084,001,2019_Aug_28_1113,MusicAffectPsychophysiology2019,3.0.5,60.05943133290414,
To what extent did the music make you feel ,SCARED,30MonoWAV/30MonoT1.wav,2,1,4,13,,,,,0,8,8,12,0,8,8,11,,,,,,,,,1,1.6016976669779979,,,084,001,2019_Aug_28_1113,MusicAffectPsychophysiology2019,3.0.5,60.05943133290414,
To what extent did the music make you feel ,TENDER,30MonoWAV/30MonoT1.wav,2,1,4,13,,,,,0,8,8,12,0,9,9,10,,,,,,,,,3,1.3171712839975953,,,084,001,2019_Aug_28_1113,MusicAffectPsychophysiology2019,3.0.5,60.05943133290414,
To what extent did the music make you feel ,ASHAMED,30MonoWAV/30MonoT1.wav,2,1,4,13,,,,,0,8,8,12,0,10,10,4,,,,,,,,,1,1.1351884980103932,,,084,001,2019_Aug_28_1113,MusicAffectPsychophysiology2019,3.0.5,60.05943133290414,
To what extent did the music make you feel ,ALERT,30MonoWAV/30MonoT1.wav,2,1,4,13,,,,,0,8,8,12,0,11,11,8,,,,,,,,,1,1.3033172709983774,,,084,001,2019_Aug_28_1113,MusicAffectPsychophysiology2019,3.0.5,60.05943133290414,
,,30MonoWAV/30MonoT1.wav,2,1,4,13,,,,,0,8,8,12,,,,,,,,,,,,,,,,,084,001,2019_Aug_28_1113,MusicAffectPsychophysiology2019,3.0.5,60.05943133290414,
To what extent did the music make you feel ,ALERT,30MonoWAV/30MonoS4.wav,1,1,3,12,,,,,0,9,9,11,0,0,0,8,,,1,7.50151673599612,2,1.5194143589760642,3,1.4026029100059532,1,1.51863660098752,,,084,001,2019_Aug_28_1113,MusicAffectPsychophysiology2019,3.0.5,60.05943133290414,
To what extent did the music make you feel ,SCARED,30MonoWAV/30MonoS4.wav,1,1,3,12,,,,,0,9,9,11,0,1,1,11,,,,,,,,,1,1.0857442219858058,,,084,001,2019_Aug_28_1113,MusicAffectPsychophysiology2019,3.0.5,60.05943133290414,
To what extent did the music make you feel ,TENDER,30MonoWAV/30MonoS4.wav,1,1,3,12,,,,,0,9,9,11,0,2,2,10,,,,,,,,,3,1.0363707820069976,,,084,001,2019_Aug_28_1113,MusicAffectPsychophysiology2019,3.0.5,60.05943133290414,
To what extent did the music make you feel ,ANGRY,30MonoWAV/30MonoS4.wav,1,1,3,12,,,,,0,9,9,11,0,3,3,2,,,,,,,,,1,1.1865715769818053,,,084,001,2019_Aug_28_1113,MusicAffectPsychophysiology2019,3.0.5,60.05943133290414,
To what extent did the music make you feel ,ASHAMED,30MonoWAV/30MonoS4.wav,1,1,3,12,,,,,0,9,9,11,0,4,4,4,,,,,,,,,2,1.2030812650045846,,,084,001,2019_Aug_28_1113,MusicAffectPsychophysiology2019,3.0.5,60.05943133290414,
To what extent did the music make you feel ,ACTIVE,30MonoWAV/30MonoS4.wav,1,1,3,12,,,,,0,9,9,11,0,5,5,9,,,,,,,,,2,0.5003315430076327,,,084,001,2019_Aug_28_1113,MusicAffectPsychophysiology2019,3.0.5,60.05943133290414,
To what extent did the music make you feel ,HAPPY,30MonoWAV/30MonoS4.wav,1,1,3,12,,,,,0,9,9,11,0,6,6,6,,,,,,,,,1,0.6867471300065517,,,084,001,2019_Aug_28_1113,MusicAffectPsychophysiology2019,3.0.5,60.05943133290414,
To what extent did the music make you feel ,ANXIOUS ,30MonoWAV/30MonoS4.wav,1,1,3,12,,,,,0,9,9,11,0,7,7,1,,,,,,,,,2,3.9036530810117256,,,084,001,2019_Aug_28_1113,MusicAffectPsychophysiology2019,3.0.5,60.05943133290414,
To what extent did the music make you feel ,SAD,30MonoWAV/30MonoS4.wav,1,1,3,12,,,,,0,9,9,11,0,8,8,0,,,,,,,,,3,1.3527409350208472,,,084,001,2019_Aug_28_1113,MusicAffectPsychophysiology2019,3.0.5,60.05943133290414,
To what extent did the music make you feel ,GUILTY,30MonoWAV/30MonoS4.wav,1,1,3,12,,,,,0,9,9,11,0,9,9,5,,,,,,,,,2,1.6036134189926088,,,084,001,2019_Aug_28_1113,MusicAffectPsychophysiology2019,3.0.5,60.05943133290414,
To what extent did the music make you feel ,EXCITED,30MonoWAV/30MonoS4.wav,1,1,3,12,,,,,0,9,9,11,0,10,10,7,,,,,,,,,1,1.1510703840176575,,,084,001,2019_Aug_28_1113,MusicAffectPsychophysiology2019,3.0.5,60.05943133290414,
To what extent did the music make you feel ,FRUSTRATED,30MonoWAV/30MonoS4.wav,1,1,3,12,,,,,0,9,9,11,0,11,11,3,,,,,,,,,1,1.2185983530071098,,,084,001,2019_Aug_28_1113,MusicAffectPsychophysiology2019,3.0.5,60.05943133290414,
,,30MonoWAV/30MonoS4.wav,1,1,3,12,,,,,0,9,9,11,,,,,,,,,,,,,,,,,084,001,2019_Aug_28_1113,MusicAffectPsychophysiology2019,3.0.5,60.05943133290414,
To what extent did the music make you feel ,SCARED,30MonoWAV/30MonoF4.wav,1,2,2,4,,,,,0,10,10,3,0,0,0,11,,,3,2.518685978022404,2,2.285192466020817,1,1.4353070399956778,3,1.5840026609948836,,,084,001,2019_Aug_28_1113,MusicAffectPsychophysiology2019,3.0.5,60.05943133290414,
To what extent did the music make you feel ,HAPPY,30MonoWAV/30MonoF4.wav,1,2,2,4,,,,,0,10,10,3,0,1,1,6,,,,,,,,,2,1.335678261006251,,,084,001,2019_Aug_28_1113,MusicAffectPsychophysiology2019,3.0.5,60.05943133290414,
To what extent did the music make you feel ,FRUSTRATED,30MonoWAV/30MonoF4.wav,1,2,2,4,,,,,0,10,10,3,0,2,2,3,,,,,,,,,1,0.8683957010216545,,,084,001,2019_Aug_28_1113,MusicAffectPsychophysiology2019,3.0.5,60.05943133290414,
To what extent did the music make you feel ,ACTIVE,30MonoWAV/30MonoF4.wav,1,2,2,4,,,,,0,10,10,3,0,3,3,9,,,,,,,,,3,0.8692715679935645,,,084,001,2019_Aug_28_1113,MusicAffectPsychophysiology2019,3.0.5,60.05943133290414,
To what extent did the music make you feel ,SAD,30MonoWAV/30MonoF4.wav,1,2,2,4,,,,,0,10,10,3,0,4,4,0,,,,,,,,,1,0.8694207499793265,,,084,001,2019_Aug_28_1113,MusicAffectPsychophysiology2019,3.0.5,60.05943133290414,
To what extent did the music make you feel ,ALERT,30MonoWAV/30MonoF4.wav,1,2,2,4,,,,,0,10,10,3,0,5,5,8,,,,,,,,,3,1.0189520349958912,,,084,001,2019_Aug_28_1113,MusicAffectPsychophysiology2019,3.0.5,60.05943133290414,
To what extent did the music make you feel ,ANGRY,30MonoWAV/30MonoF4.wav,1,2,2,4,,,,,0,10,10,3,0,6,6,2,,,,,,,,,1,1.402837711997563,,,084,001,2019_Aug_28_1113,MusicAffectPsychophysiology2019,3.0.5,60.05943133290414,
To what extent did the music make you feel ,GUILTY,30MonoWAV/30MonoF4.wav,1,2,2,4,,,,,0,10,10,3,0,7,7,5,,,,,,,,,1,0.885713449009927,,,084,001,2019_Aug_28_1113,MusicAffectPsychophysiology2019,3.0.5,60.05943133290414,
To what extent did the music make you feel ,TENDER,30MonoWAV/30MonoF4.wav,1,2,2,4,,,,,0,10,10,3,0,8,8,10,,,,,,,,,1,0.7695276209851727,,,084,001,2019_Aug_28_1113,MusicAffectPsychophysiology2019,3.0.5,60.05943133290414,
To what extent did the music make you feel ,ANXIOUS ,30MonoWAV/30MonoF4.wav,1,2,2,4,,,,,0,10,10,3,0,9,9,1,,,,,,,,,1,0.5855898400186561,,,084,001,2019_Aug_28_1113,MusicAffectPsychophysiology2019,3.0.5,60.05943133290414,
To what extent did the music make you feel ,EXCITED,30MonoWAV/30MonoF4.wav,1,2,2,4,,,,,0,10,10,3,0,10,10,7,,,,,,,,,3,2.3364485089841764,,,084,001,2019_Aug_28_1113,MusicAffectPsychophysiology2019,3.0.5,60.05943133290414,
To what extent did the music make you feel ,ASHAMED,30MonoWAV/30MonoF4.wav,1,2,2,4,,,,,0,10,10,3,0,11,11,4,,,,,,,,,1,0.8853576969995629,,,084,001,2019_Aug_28_1113,MusicAffectPsychophysiology2019,3.0.5,60.05943133290414,
,,30MonoWAV/30MonoF4.wav,1,2,2,4,,,,,0,10,10,3,,,,,,,,,,,,,,,,,084,001,2019_Aug_28_1113,MusicAffectPsychophysiology2019,3.0.5,60.05943133290414,
To what extent did the music make you feel ,ACTIVE,30MonoWAV/30MonoH1.wav,2,2,1,5,,,,,0,11,11,4,0,0,0,9,,,3,1.7338962460053153,3,0.9359496549877804,3,0.602849781018449,4,1.0274239110003691,,,084,001,2019_Aug_28_1113,MusicAffectPsychophysiology2019,3.0.5,60.05943133290414,
To what extent did the music make you feel ,FRUSTRATED,30MonoWAV/30MonoH1.wav,2,2,1,5,,,,,0,11,11,4,0,1,1,3,,,,,,,,,1,0.8859450230083894,,,084,001,2019_Aug_28_1113,MusicAffectPsychophysiology2019,3.0.5,60.05943133290414,
To what extent did the music make you feel ,ALERT,30MonoWAV/30MonoH1.wav,2,2,1,5,,,,,0,11,11,4,0,2,2,8,,,,,,,,,3,1.0527342649875209,,,084,001,2019_Aug_28_1113,MusicAffectPsychophysiology2019,3.0.5,60.05943133290414,
To what extent did the music make you feel ,ANGRY,30MonoWAV/30MonoH1.wav,2,2,1,5,,,,,0,11,11,4,0,3,3,2,,,,,,,,,1,0.8697322799998801,,,084,001,2019_Aug_28_1113,MusicAffectPsychophysiology2019,3.0.5,60.05943133290414,
To what extent did the music make you feel ,TENDER,30MonoWAV/30MonoH1.wav,2,2,1,5,,,,,0,11,11,4,0,4,4,10,,,,,,,,,1,0.8018362169968896,,,084,001,2019_Aug_28_1113,MusicAffectPsychophysiology2019,3.0.5,60.05943133290414,
To what extent did the music make you feel ,EXCITED,30MonoWAV/30MonoH1.wav,2,2,1,5,,,,,0,11,11,4,0,5,5,7,,,,,,,,,4,1.0536718869989272,,,084,001,2019_Aug_28_1113,MusicAffectPsychophysiology2019,3.0.5,60.05943133290414,
To what extent did the music make you feel ,ANXIOUS ,30MonoWAV/30MonoH1.wav,2,2,1,5,,,,,0,11,11,4,0,6,6,1,,,,,,,,,2,1.151648738014046,,,084,001,2019_Aug_28_1113,MusicAffectPsychophysiology2019,3.0.5,60.05943133290414,
To what extent did the music make you feel ,ASHAMED,30MonoWAV/30MonoH1.wav,2,2,1,5,,,,,0,11,11,4,0,7,7,4,,,,,,,,,1,0.8858572099998128,,,084,001,2019_Aug_28_1113,MusicAffectPsychophysiology2019,3.0.5,60.05943133290414,
To what extent did the music make you feel ,GUILTY,30MonoWAV/30MonoH1.wav,2,2,1,5,,,,,0,11,11,4,0,8,8,5,,,,,,,,,1,1.7029467909887899,,,084,001,2019_Aug_28_1113,MusicAffectPsychophysiology2019,3.0.5,60.05943133290414,
To what extent did the music make you feel ,SAD,30MonoWAV/30MonoH1.wav,2,2,1,5,,,,,0,11,11,4,0,9,9,0,,,,,,,,,1,0.7024495180230588,,,084,001,2019_Aug_28_1113,MusicAffectPsychophysiology2019,3.0.5,60.05943133290414,
To what extent did the music make you feel ,HAPPY,30MonoWAV/30MonoH1.wav,2,2,1,5,,,,,0,11,11,4,0,10,10,6,,,,,,,,,4,0.86858166300226,,,084,001,2019_Aug_28_1113,MusicAffectPsychophysiology2019,3.0.5,60.05943133290414,
To what extent did the music make you feel ,SCARED,30MonoWAV/30MonoH1.wav,2,2,1,5,,,,,0,11,11,4,0,11,11,11,,,,,,,,,1,1.2987198140181135,,,084,001,2019_Aug_28_1113,MusicAffectPsychophysiology2019,3.0.5,60.05943133290414,
,,30MonoWAV/30MonoH1.wav,2,2,1,5,,,,,0,11,11,4,,,,,,,,,,,,,,,,,084,001,2019_Aug_28_1113,MusicAffectPsychophysiology2019,3.0.5,60.05943133290414,
To what extent did the music make you feel ,ANXIOUS ,30MonoWAV/30MonoT3.wav,2,1,4,15,,,,,0,12,12,14,0,0,0,1,,,2,4.235962845006725,4,1.4178348889981862,3,1.869346438004868,1,1.136946970014833,,,084,001,2019_Aug_28_1113,MusicAffectPsychophysiology2019,3.0.5,60.05943133290414,
To what extent did the music make you feel ,EXCITED,30MonoWAV/30MonoT3.wav,2,1,4,15,,,,,0,12,12,14,0,1,1,7,,,,,,,,,2,0.917502977012191,,,084,001,2019_Aug_28_1113,MusicAffectPsychophysiology2019,3.0.5,60.05943133290414,
To what extent did the music make you feel ,TENDER,30MonoWAV/30MonoT3.wav,2,1,4,15,,,,,0,12,12,14,0,2,2,10,,,,,,,,,3,0.951830803998746,,,084,001,2019_Aug_28_1113,MusicAffectPsychophysiology2019,3.0.5,60.05943133290414,
To what extent did the music make you feel ,SAD,30MonoWAV/30MonoT3.wav,2,1,4,15,,,,,0,12,12,14,0,3,3,0,,,,,,,,,1,0.7527722960221581,,,084,001,2019_Aug_28_1113,MusicAffectPsychophysiology2019,3.0.5,60.05943133290414,
To what extent did the music make you feel ,GUILTY,30MonoWAV/30MonoT3.wav,2,1,4,15,,,,,0,12,12,14,0,4,4,5,,,,,,,,,1,0.7691222179855686,,,084,001,2019_Aug_28_1113,MusicAffectPsychophysiology2019,3.0.5,60.05943133290414,
To what extent did the music make you feel ,FRUSTRATED,30MonoWAV/30MonoT3.wav,2,1,4,15,,,,,0,12,12,14,0,5,5,3,,,,,,,,,1,0.8849096320045646,,,084,001,2019_Aug_28_1113,MusicAffectPsychophysiology2019,3.0.5,60.05943133290414,
To what extent did the music make you feel ,ASHAMED,30MonoWAV/30MonoT3.wav,2,1,4,15,,,,,0,12,12,14,0,6,6,4,,,,,,,,,1,1.285143432993209,,,084,001,2019_Aug_28_1113,MusicAffectPsychophysiology2019,3.0.5,60.05943133290414,
To what extent did the music make you feel ,ALERT,30MonoWAV/30MonoT3.wav,2,1,4,15,,,,,0,12,12,14,0,7,7,8,,,,,,,,,1,1.6696140250132885,,,084,001,2019_Aug_28_1113,MusicAffectPsychophysiology2019,3.0.5,60.05943133290414,
To what extent did the music make you feel ,SCARED,30MonoWAV/30MonoT3.wav,2,1,4,15,,,,,0,12,12,14,0,8,8,11,,,,,,,,,1,0.9192400560132228,,,084,001,2019_Aug_28_1113,MusicAffectPsychophysiology2019,3.0.5,60.05943133290414,
To what extent did the music make you feel ,ACTIVE,30MonoWAV/30MonoT3.wav,2,1,4,15,,,,,0,12,12,14,0,9,9,9,,,,,,,,,2,0.953356165002333,,,084,001,2019_Aug_28_1113,MusicAffectPsychophysiology2019,3.0.5,60.05943133290414,
To what extent did the music make you feel ,HAPPY,30MonoWAV/30MonoT3.wav,2,1,4,15,,,,,0,12,12,14,0,10,10,6,,,,,,,,,4,1.3861220180115197,,,084,001,2019_Aug_28_1113,MusicAffectPsychophysiology2019,3.0.5,60.05943133290414,
To what extent did the music make you feel ,ANGRY,30MonoWAV/30MonoT3.wav,2,1,4,15,,,,,0,12,12,14,0,11,11,2,,,,,,,,,1,2.186436050978955,,,084,001,2019_Aug_28_1113,MusicAffectPsychophysiology2019,3.0.5,60.05943133290414,
,,30MonoWAV/30MonoT3.wav,2,1,4,15,,,,,0,12,12,14,,,,,,,,,,,,,,,,,084,001,2019_Aug_28_1113,MusicAffectPsychophysiology2019,3.0.5,60.05943133290414,
To what extent did the music make you feel ,ACTIVE,30MonoWAV/30MonoS3.wav,1,1,3,11,,,,,0,13,13,10,0,0,0,9,,,2,2.6502616739890072,2,0.9862519169982988,2,1.803262334986357,3,0.9454520730068907,,,084,001,2019_Aug_28_1113,MusicAffectPsychophysiology2019,3.0.5,60.05943133290414,
To what extent did the music make you feel ,ANXIOUS ,30MonoWAV/30MonoS3.wav,1,1,3,11,,,,,0,13,13,10,0,1,1,1,,,,,,,,,1,0.9018963010166772,,,084,001,2019_Aug_28_1113,MusicAffectPsychophysiology2019,3.0.5,60.05943133290414,
To what extent did the music make you feel ,ANGRY,30MonoWAV/30MonoS3.wav,1,1,3,11,,,,,0,13,13,10,0,2,2,2,,,,,,,,,1,0.8835785709961783,,,084,001,2019_Aug_28_1113,MusicAffectPsychophysiology2019,3.0.5,60.05943133290414,
To what extent did the music make you feel ,HAPPY,30MonoWAV/30MonoS3.wav,1,1,3,11,,,,,0,13,13,10,0,3,3,6,,,,,,,,,2,0.7697026419918984,,,084,001,2019_Aug_28_1113,MusicAffectPsychophysiology2019,3.0.5,60.05943133290414,
To what extent did the music make you feel ,SCARED,30MonoWAV/30MonoS3.wav,1,1,3,11,,,,,0,13,13,10,0,4,4,11,,,,,,,,,3,1.5868280560243875,,,084,001,2019_Aug_28_1113,MusicAffectPsychophysiology2019,3.0.5,60.05943133290414,
To what extent did the music make you feel ,GUILTY,30MonoWAV/30MonoS3.wav,1,1,3,11,,,,,0,13,13,10,0,5,5,5,,,,,,,,,3,1.0533931009995285,,,084,001,2019_Aug_28_1113,MusicAffectPsychophysiology2019,3.0.5,60.05943133290414,
To what extent did the music make you feel ,ALERT,30MonoWAV/30MonoS3.wav,1,1,3,11,,,,,0,13,13,10,0,6,6,8,,,,,,,,,1,0.9691710939805489,,,084,001,2019_Aug_28_1113,MusicAffectPsychophysiology2019,3.0.5,60.05943133290414,
To what extent did the music make you feel ,SAD,30MonoWAV/30MonoS3.wav,1,1,3,11,,,,,0,13,13,10,0,7,7,0,,,,,,,,,1,1.0690830509993248,,,084,001,2019_Aug_28_1113,MusicAffectPsychophysiology2019,3.0.5,60.05943133290414,
To what extent did the music make you feel ,FRUSTRATED,30MonoWAV/30MonoS3.wav,1,1,3,11,,,,,0,13,13,10,0,8,8,3,,,,,,,,,1,0.8941821269982029,,,084,001,2019_Aug_28_1113,MusicAffectPsychophysiology2019,3.0.5,60.05943133290414,
To what extent did the music make you feel ,ASHAMED,30MonoWAV/30MonoS3.wav,1,1,3,11,,,,,0,13,13,10,0,9,9,4,,,,,,,,,1,0.9696576500136871,,,084,001,2019_Aug_28_1113,MusicAffectPsychophysiology2019,3.0.5,60.05943133290414,
To what extent did the music make you feel ,EXCITED,30MonoWAV/30MonoS3.wav,1,1,3,11,,,,,0,13,13,10,0,10,10,7,,,,,,,,,2,0.9690755140036345,,,084,001,2019_Aug_28_1113,MusicAffectPsychophysiology2019,3.0.5,60.05943133290414,
To what extent did the music make you feel ,TENDER,30MonoWAV/30MonoS3.wav,1,1,3,11,,,,,0,13,13,10,0,11,11,10,,,,,,,,,2,1.1041480489948299,,,084,001,2019_Aug_28_1113,MusicAffectPsychophysiology2019,3.0.5,60.05943133290414,
,,30MonoWAV/30MonoS3.wav,1,1,3,11,,,,,0,13,13,10,,,,,,,,,,,,,,,,,084,001,2019_Aug_28_1113,MusicAffectPsychophysiology2019,3.0.5,60.05943133290414,
To what extent did the music make you feel ,SCARED,30MonoWAV/30MonoH4.wav,2,2,1,8,,,,,0,14,14,7,0,0,0,11,,,4,2.5998906570021063,4,0.5360303280176595,3,1.0027568670047913,1,1.3246849139977712,,,084,001,2019_Aug_28_1113,MusicAffectPsychophysiology2019,3.0.5,60.05943133290414,
To what extent did the music make you feel ,SAD,30MonoWAV/30MonoH4.wav,2,2,1,8,,,,,0,14,14,7,0,1,1,0,,,,,,,,,1,0.7193957040144596,,,084,001,2019_Aug_28_1113,MusicAffectPsychophysiology2019,3.0.5,60.05943133290414,
To what extent did the music make you feel ,HAPPY,30MonoWAV/30MonoH4.wav,2,2,1,8,,,,,0,14,14,7,0,2,2,6,,,,,,,,,4,0.986236254015239,,,084,001,2019_Aug_28_1113,MusicAffectPsychophysiology2019,3.0.5,60.05943133290414,
To what extent did the music make you feel ,ANGRY,30MonoWAV/30MonoH4.wav,2,2,1,8,,,,,0,14,14,7,0,3,3,2,,,,,,,,,1,1.1033662809932139,,,084,001,2019_Aug_28_1113,MusicAffectPsychophysiology2019,3.0.5,60.05943133290414,
To what extent did the music make you feel ,EXCITED,30MonoWAV/30MonoH4.wav,2,2,1,8,,,,,0,14,14,7,0,4,4,7,,,,,,,,,3,1.0690894539875444,,,084,001,2019_Aug_28_1113,MusicAffectPsychophysiology2019,3.0.5,60.05943133290414,
To what extent did the music make you feel ,TENDER,30MonoWAV/30MonoH4.wav,2,2,1,8,,,,,0,14,14,7,0,5,5,10,,,,,,,,,1,1.0025108060217462,,,084,001,2019_Aug_28_1113,MusicAffectPsychophysiology2019,3.0.5,60.05943133290414,
To what extent did the music make you feel ,ANXIOUS ,30MonoWAV/30MonoH4.wav,2,2,1,8,,,,,0,14,14,7,0,6,6,1,,,,,,,,,1,1.3689217159990221,,,084,001,2019_Aug_28_1113,MusicAffectPsychophysiology2019,3.0.5,60.05943133290414,
To what extent did the music make you feel ,GUILTY,30MonoWAV/30MonoH4.wav,2,2,1,8,,,,,0,14,14,7,0,7,7,5,,,,,,,,,1,0.886570018978091,,,084,001,2019_Aug_28_1113,MusicAffectPsychophysiology2019,3.0.5,60.05943133290414,
To what extent did the music make you feel ,FRUSTRATED,30MonoWAV/30MonoH4.wav,2,2,1,8,,,,,0,14,14,7,0,8,8,3,,,,,,,,,1,0.8186428949993569,,,084,001,2019_Aug_28_1113,MusicAffectPsychophysiology2019,3.0.5,60.05943133290414,
To what extent did the music make you feel ,ALERT,30MonoWAV/30MonoH4.wav,2,2,1,8,,,,,0,14,14,7,0,9,9,8,,,,,,,,,4,1.4201392070099246,,,084,001,2019_Aug_28_1113,MusicAffectPsychophysiology2019,3.0.5,60.05943133290414,
To what extent did the music make you feel ,ASHAMED,30MonoWAV/30MonoH4.wav,2,2,1,8,,,,,0,14,14,7,0,10,10,4,,,,,,,,,1,1.2899562729871832,,,084,001,2019_Aug_28_1113,MusicAffectPsychophysiology2019,3.0.5,60.05943133290414,
To what extent did the music make you feel ,ACTIVE,30MonoWAV/30MonoH4.wav,2,2,1,8,,,,,0,14,14,7,0,11,11,9,,,,,,,,,4,1.6027903450012673,,,084,001,2019_Aug_28_1113,MusicAffectPsychophysiology2019,3.0.5,60.05943133290414,
,,30MonoWAV/30MonoH4.wav,2,2,1,8,,,,,0,14,14,7,,,,,,,,,,,,,,,,,084,001,2019_Aug_28_1113,MusicAffectPsychophysiology2019,3.0.5,60.05943133290414,
To what extent did the music make you feel ,ANXIOUS ,30MonoWAV/30MonoH2.wav,2,2,1,6,,,,,0,15,15,5,0,0,0,1,,,4,2.1700846340099815,3,1.1187330379907507,2,1.0835814560123254,1,1.4190617080021184,,,084,001,2019_Aug_28_1113,MusicAffectPsychophysiology2019,3.0.5,60.05943133290414,
To what extent did the music make you feel ,SCARED,30MonoWAV/30MonoH2.wav,2,2,1,6,,,,,0,15,15,5,0,1,1,11,,,,,,,,,1,1.036880025989376,,,084,001,2019_Aug_28_1113,MusicAffectPsychophysiology2019,3.0.5,60.05943133290414,
To what extent did the music make you feel ,TENDER,30MonoWAV/30MonoH2.wav,2,2,1,6,,,,,0,15,15,5,0,2,2,10,,,,,,,,,1,1.085724286007462,,,084,001,2019_Aug_28_1113,MusicAffectPsychophysiology2019,3.0.5,60.05943133290414,
To what extent did the music make you feel ,EXCITED,30MonoWAV/30MonoH2.wav,2,2,1,6,,,,,0,15,15,5,0,3,3,7,,,,,,,,,4,1.202732081990689,,,084,001,2019_Aug_28_1113,MusicAffectPsychophysiology2019,3.0.5,60.05943133290414,
To what extent did the music make you feel ,SAD,30MonoWAV/30MonoH2.wav,2,2,1,6,,,,,0,15,15,5,0,4,4,0,,,,,,,,,1,1.1856014110089745,,,084,001,2019_Aug_28_1113,MusicAffectPsychophysiology2019,3.0.5,60.05943133290414,
To what extent did the music make you feel ,GUILTY,30MonoWAV/30MonoH2.wav,2,2,1,6,,,,,0,15,15,5,0,5,5,5,,,,,,,,,1,1.0857034410000779,,,084,001,2019_Aug_28_1113,MusicAffectPsychophysiology2019,3.0.5,60.05943133290414,
To what extent did the music make you feel ,ALERT,30MonoWAV/30MonoH2.wav,2,2,1,6,,,,,0,15,15,5,0,6,6,8,,,,,,,,,3,1.135331357974792,,,084,001,2019_Aug_28_1113,MusicAffectPsychophysiology2019,3.0.5,60.05943133290414,
To what extent did the music make you feel ,ASHAMED,30MonoWAV/30MonoH2.wav,2,2,1,6,,,,,0,15,15,5,0,7,7,4,,,,,,,,,1,1.135814223001944,,,084,001,2019_Aug_28_1113,MusicAffectPsychophysiology2019,3.0.5,60.05943133290414,
To what extent did the music make you feel ,FRUSTRATED,30MonoWAV/30MonoH2.wav,2,2,1,6,,,,,0,15,15,5,0,8,8,3,,,,,,,,,1,1.2039680909947492,,,084,001,2019_Aug_28_1113,MusicAffectPsychophysiology2019,3.0.5,60.05943133290414,
To what extent did the music make you feel ,ACTIVE,30MonoWAV/30MonoH2.wav,2,2,1,6,,,,,0,15,15,5,0,9,9,9,,,,,,,,,4,1.1677074930048548,,,084,001,2019_Aug_28_1113,MusicAffectPsychophysiology2019,3.0.5,60.05943133290414,
To what extent did the music make you feel ,HAPPY,30MonoWAV/30MonoH2.wav,2,2,1,6,,,,,0,15,15,5,0,10,10,6,,,,,,,,,3,1.168956804991467,,,084,001,2019_Aug_28_1113,MusicAffectPsychophysiology2019,3.0.5,60.05943133290414,
To what extent did the music make you feel ,ANGRY,30MonoWAV/30MonoH2.wav,2,2,1,6,,,,,0,15,15,5,0,11,11,2,,,,,,,,,1,1.3517804139992222,,,084,001,2019_Aug_28_1113,MusicAffectPsychophysiology2019,3.0.5,60.05943133290414,
,,30MonoWAV/30MonoH2.wav,2,2,1,6,,,,,0,15,15,5,,,,,,,,,,,,,,,,,084,001,2019_Aug_28_1113,MusicAffectPsychophysiology2019,3.0.5,60.05943133290414,
To what extent did the music make you feel ,ANGRY,30MonoWAV/30MonoS3.wav,1,1,3,11,,,,,1,0,16,10,0,0,0,2,,,2,3.202511166979093,2,1.5022575500188395,1,0.7359432649973314,1,1.5523334979952779,,,084,001,2019_Aug_28_1113,MusicAffectPsychophysiology2019,3.0.5,60.05943133290414,
To what extent did the music make you feel ,EXCITED,30MonoWAV/30MonoS3.wav,1,1,3,11,,,,,1,0,16,10,0,1,1,7,,,,,,,,,2,1.002665790001629,,,084,001,2019_Aug_28_1113,MusicAffectPsychophysiology2019,3.0.5,60.05943133290414,
To what extent did the music make you feel ,SCARED,30MonoWAV/30MonoS3.wav,1,1,3,11,,,,,1,0,16,10,0,2,2,11,,,,,,,,,2,1.1701429719978478,,,084,001,2019_Aug_28_1113,MusicAffectPsychophysiology2019,3.0.5,60.05943133290414,
To what extent did the music make you feel ,TENDER,30MonoWAV/30MonoS3.wav,1,1,3,11,,,,,1,0,16,10,0,3,3,10,,,,,,,,,1,0.6573802719940431,,,084,001,2019_Aug_28_1113,MusicAffectPsychophysiology2019,3.0.5,60.05943133290414,
To what extent did the music make you feel ,ACTIVE,30MonoWAV/30MonoS3.wav,1,1,3,11,,,,,1,0,16,10,0,4,4,9,,,,,,,,,3,1.041358799993759,,,084,001,2019_Aug_28_1113,MusicAffectPsychophysiology2019,3.0.5,60.05943133290414,
To what extent did the music make you feel ,FRUSTRATED,30MonoWAV/30MonoS3.wav,1,1,3,11,,,,,1,0,16,10,0,5,5,3,,,,,,,,,1,0.7693590029957704,,,084,001,2019_Aug_28_1113,MusicAffectPsychophysiology2019,3.0.5,60.05943133290414,
To what extent did the music make you feel ,ALERT,30MonoWAV/30MonoS3.wav,1,1,3,11,,,,,1,0,16,10,0,6,6,8,,,,,,,,,2,1.103319685003953,,,084,001,2019_Aug_28_1113,MusicAffectPsychophysiology2019,3.0.5,60.05943133290414,
To what extent did the music make you feel ,GUILTY,30MonoWAV/30MonoS3.wav,1,1,3,11,,,,,1,0,16,10,0,7,7,5,,,,,,,,,1,1.702125939016696,,,084,001,2019_Aug_28_1113,MusicAffectPsychophysiology2019,3.0.5,60.05943133290414,
To what extent did the music make you feel ,HAPPY,30MonoWAV/30MonoS3.wav,1,1,3,11,,,,,1,0,16,10,0,8,8,6,,,,,,,,,3,0.9698003699886613,,,084,001,2019_Aug_28_1113,MusicAffectPsychophysiology2019,3.0.5,60.05943133290414,
To what extent did the music make you feel ,SAD,30MonoWAV/30MonoS3.wav,1,1,3,11,,,,,1,0,16,10,0,9,9,0,,,,,,,,,3,1.6021773829997983,,,084,001,2019_Aug_28_1113,MusicAffectPsychophysiology2019,3.0.5,60.05943133290414,
To what extent did the music make you feel ,ASHAMED,30MonoWAV/30MonoS3.wav,1,1,3,11,,,,,1,0,16,10,0,10,10,4,,,,,,,,,1,3.4195671449997462,,,084,001,2019_Aug_28_1113,MusicAffectPsychophysiology2019,3.0.5,60.05943133290414,
To what extent did the music make you feel ,ANXIOUS ,30MonoWAV/30MonoS3.wav,1,1,3,11,,,,,1,0,16,10,0,11,11,1,,,,,,,,,2,1.3667627300019376,,,084,001,2019_Aug_28_1113,MusicAffectPsychophysiology2019,3.0.5,60.05943133290414,
,,30MonoWAV/30MonoS3.wav,1,1,3,11,,,,,1,0,16,10,,,,,,,,,,,,,,,,,084,001,2019_Aug_28_1113,MusicAffectPsychophysiology2019,3.0.5,60.05943133290414,
To what extent did the music make you feel ,TENDER,30MonoWAV/30MonoF3.wav,1,2,2,3,,,,,1,1,17,2,0,0,0,10,,,3,2.935355951980455,2,1.2525504149962217,1,1.2350264170090668,1,6.820191588980379,,,084,001,2019_Aug_28_1113,MusicAffectPsychophysiology2019,3.0.5,60.05943133290414,
To what extent did the music make you feel ,ANXIOUS ,30MonoWAV/30MonoF3.wav,1,2,2,3,,,,,1,1,17,2,0,1,1,1,,,,,,,,,2,1.321321738010738,,,084,001,2019_Aug_28_1113,MusicAffectPsychophysiology2019,3.0.5,60.05943133290414,
To what extent did the music make you feel ,SAD,30MonoWAV/30MonoF3.wav,1,2,2,3,,,,,1,1,17,2,0,2,2,0,,,,,,,,,1,0.8325635979999788,,,084,001,2019_Aug_28_1113,MusicAffectPsychophysiology2019,3.0.5,60.05943133290414,
To what extent did the music make you feel ,GUILTY,30MonoWAV/30MonoF3.wav,1,2,2,3,,,,,1,1,17,2,0,3,3,5,,,,,,,,,1,0.7366992669994943,,,084,001,2019_Aug_28_1113,MusicAffectPsychophysiology2019,3.0.5,60.05943133290414,
To what extent did the music make you feel ,ACTIVE,30MonoWAV/30MonoF3.wav,1,2,2,3,,,,,1,1,17,2,0,4,4,9,,,,,,,,,3,1.4021648009947967,,,084,001,2019_Aug_28_1113,MusicAffectPsychophysiology2019,3.0.5,60.05943133290414,
To what extent did the music make you feel ,SCARED,30MonoWAV/30MonoF3.wav,1,2,2,3,,,,,1,1,17,2,0,5,5,11,,,,,,,,,2,1.0180281579960138,,,084,001,2019_Aug_28_1113,MusicAffectPsychophysiology2019,3.0.5,60.05943133290414,
To what extent did the music make you feel ,HAPPY,30MonoWAV/30MonoF3.wav,1,2,2,3,,,,,1,1,17,2,0,6,6,6,,,,,,,,,3,1.0025463420024607,,,084,001,2019_Aug_28_1113,MusicAffectPsychophysiology2019,3.0.5,60.05943133290414,
To what extent did the music make you feel ,ASHAMED,30MonoWAV/30MonoF3.wav,1,2,2,3,,,,,1,1,17,2,0,7,7,4,,,,,,,,,1,1.4360067280067597,,,084,001,2019_Aug_28_1113,MusicAffectPsychophysiology2019,3.0.5,60.05943133290414,
To what extent did the music make you feel ,FRUSTRATED,30MonoWAV/30MonoF3.wav,1,2,2,3,,,,,1,1,17,2,0,8,8,3,,,,,,,,,2,0.6366248300182633,,,084,001,2019_Aug_28_1113,MusicAffectPsychophysiology2019,3.0.5,60.05943133290414,
To what extent did the music make you feel ,EXCITED,30MonoWAV/30MonoF3.wav,1,2,2,3,,,,,1,1,17,2,0,9,9,7,,,,,,,,,3,1.9683730030083098,,,084,001,2019_Aug_28_1113,MusicAffectPsychophysiology2019,3.0.5,60.05943133290414,
To what extent did the music make you feel ,ANGRY,30MonoWAV/30MonoF3.wav,1,2,2,3,,,,,1,1,17,2,0,10,10,2,,,,,,,,,1,0.7853959260100964,,,084,001,2019_Aug_28_1113,MusicAffectPsychophysiology2019,3.0.5,60.05943133290414,
To what extent did the music make you feel ,ALERT,30MonoWAV/30MonoF3.wav,1,2,2,3,,,,,1,1,17,2,0,11,11,8,,,,,,,,,3,0.9193558529950678,,,084,001,2019_Aug_28_1113,MusicAffectPsychophysiology2019,3.0.5,60.05943133290414,
,,30MonoWAV/30MonoF3.wav,1,2,2,3,,,,,1,1,17,2,,,,,,,,,,,,,,,,,084,001,2019_Aug_28_1113,MusicAffectPsychophysiology2019,3.0.5,60.05943133290414,
To what extent did the music make you feel ,FRUSTRATED,30MonoWAV/30MonoS2.wav,1,1,3,10,,,,,1,2,18,9,0,0,0,3,,,1,4.602596656011883,1,1.520183229004033,2,1.036607370013371,1,0.9872749500209466,,,084,001,2019_Aug_28_1113,MusicAffectPsychophysiology2019,3.0.5,60.05943133290414,
To what extent did the music make you feel ,GUILTY,30MonoWAV/30MonoS2.wav,1,1,3,10,,,,,1,2,18,9,0,1,1,5,,,,,,,,,3,1.1882963159878273,,,084,001,2019_Aug_28_1113,MusicAffectPsychophysiology2019,3.0.5,60.05943133290414,
To what extent did the music make you feel ,HAPPY,30MonoWAV/30MonoS2.wav,1,1,3,10,,,,,1,2,18,9,0,2,2,6,,,,,,,,,1,1.185649363003904,,,084,001,2019_Aug_28_1113,MusicAffectPsychophysiology2019,3.0.5,60.05943133290414,
To what extent did the music make you feel ,EXCITED,30MonoWAV/30MonoS2.wav,1,1,3,10,,,,,1,2,18,9,0,3,3,7,,,,,,,,,1,1.2188968400005251,,,084,001,2019_Aug_28_1113,MusicAffectPsychophysiology2019,3.0.5,60.05943133290414,
To what extent did the music make you feel ,SCARED,30MonoWAV/30MonoS2.wav,1,1,3,10,,,,,1,2,18,9,0,4,4,11,,,,,,,,,3,1.1027235799992923,,,084,001,2019_Aug_28_1113,MusicAffectPsychophysiology2019,3.0.5,60.05943133290414,
To what extent did the music make you feel ,ASHAMED,30MonoWAV/30MonoS2.wav,1,1,3,10,,,,,1,2,18,9,0,5,5,4,,,,,,,,,4,1.1861136560037266,,,084,001,2019_Aug_28_1113,MusicAffectPsychophysiology2019,3.0.5,60.05943133290414,
To what extent did the music make you feel ,ANXIOUS ,30MonoWAV/30MonoS2.wav,1,1,3,10,,,,,1,2,18,9,0,6,6,1,,,,,,,,,2,0.9857450400013477,,,084,001,2019_Aug_28_1113,MusicAffectPsychophysiology2019,3.0.5,60.05943133290414,
To what extent did the music make you feel ,SAD,30MonoWAV/30MonoS2.wav,1,1,3,10,,,,,1,2,18,9,0,7,7,0,,,,,,,,,4,1.1205600640096236,,,084,001,2019_Aug_28_1113,MusicAffectPsychophysiology2019,3.0.5,60.05943133290414,
To what extent did the music make you feel ,ANGRY,30MonoWAV/30MonoS2.wav,1,1,3,10,,,,,1,2,18,9,0,8,8,2,,,,,,,,,1,1.0353410560055636,,,084,001,2019_Aug_28_1113,MusicAffectPsychophysiology2019,3.0.5,60.05943133290414,
To what extent did the music make you feel ,ACTIVE,30MonoWAV/30MonoS2.wav,1,1,3,10,,,,,1,2,18,9,0,9,9,9,,,,,,,,,1,1.1183091819984838,,,084,001,2019_Aug_28_1113,MusicAffectPsychophysiology2019,3.0.5,60.05943133290414,
To what extent did the music make you feel ,ALERT,30MonoWAV/30MonoS2.wav,1,1,3,10,,,,,1,2,18,9,0,10,10,8,,,,,,,,,1,1.2673968250164762,,,084,001,2019_Aug_28_1113,MusicAffectPsychophysiology2019,3.0.5,60.05943133290414,
To what extent did the music make you feel ,TENDER,30MonoWAV/30MonoS2.wav,1,1,3,10,,,,,1,2,18,9,0,11,11,10,,,,,,,,,2,0.9670496890030336,,,084,001,2019_Aug_28_1113,MusicAffectPsychophysiology2019,3.0.5,60.05943133290414,
,,30MonoWAV/30MonoS2.wav,1,1,3,10,,,,,1,2,18,9,,,,,,,,,,,,,,,,,084,001,2019_Aug_28_1113,MusicAffectPsychophysiology2019,3.0.5,60.05943133290414,
To what extent did the music make you feel ,HAPPY,30MonoWAV/30MonoH4.wav,2,2,1,8,,,,,1,3,19,7,0,0,0,6,,,4,3.5200929720012937,3,1.3033113369892817,1,0.9857253679947462,4,1.2247845139936544,,,084,001,2019_Aug_28_1113,MusicAffectPsychophysiology2019,3.0.5,60.05943133290414,
To what extent did the music make you feel ,ALERT,30MonoWAV/30MonoH4.wav,2,2,1,8,,,,,1,3,19,7,0,1,1,8,,,,,,,,,3,1.1537039859977085,,,084,001,2019_Aug_28_1113,MusicAffectPsychophysiology2019,3.0.5,60.05943133290414,
To what extent did the music make you feel ,ACTIVE,30MonoWAV/30MonoH4.wav,2,2,1,8,,,,,1,3,19,7,0,2,2,9,,,,,,,,,4,0.9351966689864639,,,084,001,2019_Aug_28_1113,MusicAffectPsychophysiology2019,3.0.5,60.05943133290414,
To what extent did the music make you feel ,ANXIOUS ,30MonoWAV/30MonoH4.wav,2,2,1,8,,,,,1,3,19,7,0,3,3,1,,,,,,,,,1,0.9886633319838438,,,084,001,2019_Aug_28_1113,MusicAffectPsychophysiology2019,3.0.5,60.05943133290414,
To what extent did the music make you feel ,SAD,30MonoWAV/30MonoH4.wav,2,2,1,8,,,,,1,3,19,7,0,4,4,0,,,,,,,,,1,0.935607682011323,,,084,001,2019_Aug_28_1113,MusicAffectPsychophysiology2019,3.0.5,60.05943133290414,
To what extent did the music make you feel ,EXCITED,30MonoWAV/30MonoH4.wav,2,2,1,8,,,,,1,3,19,7,0,5,5,7,,,,,,,,,4,0.9854340729943942,,,084,001,2019_Aug_28_1113,MusicAffectPsychophysiology2019,3.0.5,60.05943133290414,
To what extent did the music make you feel ,FRUSTRATED,30MonoWAV/30MonoH4.wav,2,2,1,8,,,,,1,3,19,7,0,6,6,3,,,,,,,,,1,0.9236252730188426,,,084,001,2019_Aug_28_1113,MusicAffectPsychophysiology2019,3.0.5,60.05943133290414,
To what extent did the music make you feel ,GUILTY,30MonoWAV/30MonoH4.wav,2,2,1,8,,,,,1,3,19,7,0,7,7,5,,,,,,,,,1,1.0173743710038252,,,084,001,2019_Aug_28_1113,MusicAffectPsychophysiology2019,3.0.5,60.05943133290414,
To what extent did the music make you feel ,ANGRY,30MonoWAV/30MonoH4.wav,2,2,1,8,,,,,1,3,19,7,0,8,8,2,,,,,,,,,1,1.3678521910042036,,,084,001,2019_Aug_28_1113,MusicAffectPsychophysiology2019,3.0.5,60.05943133290414,
To what extent did the music make you feel ,TENDER,30MonoWAV/30MonoH4.wav,2,2,1,8,,,,,1,3,19,7,0,9,9,10,,,,,,,,,1,0.8862252339895349,,,084,001,2019_Aug_28_1113,MusicAffectPsychophysiology2019,3.0.5,60.05943133290414,
To what extent did the music make you feel ,ASHAMED,30MonoWAV/30MonoH4.wav,2,2,1,8,,,,,1,3,19,7,0,10,10,4,,,,,,,,,1,0.9204983300005551,,,084,001,2019_Aug_28_1113,MusicAffectPsychophysiology2019,3.0.5,60.05943133290414,
To what extent did the music make you feel ,SCARED,30MonoWAV/30MonoH4.wav,2,2,1,8,,,,,1,3,19,7,0,11,11,11,,,,,,,,,1,1.0562255310069304,,,084,001,2019_Aug_28_1113,MusicAffectPsychophysiology2019,3.0.5,60.05943133290414,
,,30MonoWAV/30MonoH4.wav,2,2,1,8,,,,,1,3,19,7,,,,,,,,,,,,,,,,,084,001,2019_Aug_28_1113,MusicAffectPsychophysiology2019,3.0.5,60.05943133290414,
To what extent did the music make you feel ,HAPPY,30MonoWAV/30MonoH1.wav,2,2,1,5,,,,,1,4,20,4,0,0,0,6,,,3,3.102882622013567,2,0.8196132729935925,1,0.785947900993051,3,1.3697177220019512,,,084,001,2019_Aug_28_1113,MusicAffectPsychophysiology2019,3.0.5,60.05943133290414,
To what extent did the music make you feel ,ASHAMED,30MonoWAV/30MonoH1.wav,2,2,1,5,,,,,1,4,20,4,0,1,1,4,,,,,,,,,1,0.9345882890047505,,,084,001,2019_Aug_28_1113,MusicAffectPsychophysiology2019,3.0.5,60.05943133290414,
To what extent did the music make you feel ,GUILTY,30MonoWAV/30MonoH1.wav,2,2,1,5,,,,,1,4,20,4,0,2,2,5,,,,,,,,,1,0.8526639449992217,,,084,001,2019_Aug_28_1113,MusicAffectPsychophysiology2019,3.0.5,60.05943133290414,
To what extent did the music make you feel ,SCARED,30MonoWAV/30MonoH1.wav,2,2,1,5,,,,,1,4,20,4,0,3,3,11,,,,,,,,,2,0.7534713959903456,,,084,001,2019_Aug_28_1113,MusicAffectPsychophysiology2019,3.0.5,60.05943133290414,
To what extent did the music make you feel ,SAD,30MonoWAV/30MonoH1.wav,2,2,1,5,,,,,1,4,20,4,0,4,4,0,,,,,,,,,1,0.06762008400983177,,,084,001,2019_Aug_28_1113,MusicAffectPsychophysiology2019,3.0.5,60.05943133290414,
To what extent did the music make you feel ,TENDER,30MonoWAV/30MonoH1.wav,2,2,1,5,,,,,1,4,20,4,0,5,5,10,,,,,,,,,1,1.1027208309969865,,,084,001,2019_Aug_28_1113,MusicAffectPsychophysiology2019,3.0.5,60.05943133290414,
To what extent did the music make you feel ,FRUSTRATED,30MonoWAV/30MonoH1.wav,2,2,1,5,,,,,1,4,20,4,0,6,6,3,,,,,,,,,1,1.000130749976961,,,084,001,2019_Aug_28_1113,MusicAffectPsychophysiology2019,3.0.5,60.05943133290414,
To what extent did the music make you feel ,ALERT,30MonoWAV/30MonoH1.wav,2,2,1,5,,,,,1,4,20,4,0,7,7,8,,,,,,,,,3,1.1208426310040522,,,084,001,2019_Aug_28_1113,MusicAffectPsychophysiology2019,3.0.5,60.05943133290414,
To what extent did the music make you feel ,ACTIVE,30MonoWAV/30MonoH1.wav,2,2,1,5,,,,,1,4,20,4,0,8,8,9,,,,,,,,,4,0.8538303560053464,,,084,001,2019_Aug_28_1113,MusicAffectPsychophysiology2019,3.0.5,60.05943133290414,
To what extent did the music make you feel ,ANGRY,30MonoWAV/30MonoH1.wav,2,2,1,5,,,,,1,4,20,4,0,9,9,2,,,,,,,,,1,1.0368061369808856,,,084,001,2019_Aug_28_1113,MusicAffectPsychophysiology2019,3.0.5,60.05943133290414,
To what extent did the music make you feel ,EXCITED,30MonoWAV/30MonoH1.wav,2,2,1,5,,,,,1,4,20,4,0,10,10,7,,,,,,,,,3,1.2693617200129665,,,084,001,2019_Aug_28_1113,MusicAffectPsychophysiology2019,3.0.5,60.05943133290414,
To what extent did the music make you feel ,ANXIOUS ,30MonoWAV/30MonoH1.wav,2,2,1,5,,,,,1,4,20,4,0,11,11,1,,,,,,,,,2,1.1865672059939243,,,084,001,2019_Aug_28_1113,MusicAffectPsychophysiology2019,3.0.5,60.05943133290414,
,,30MonoWAV/30MonoH1.wav,2,2,1,5,,,,,1,4,20,4,,,,,,,,,,,,,,,,,084,001,2019_Aug_28_1113,MusicAffectPsychophysiology2019,3.0.5,60.05943133290414,
To what extent did the music make you feel ,GUILTY,30MonoWAV/30MonoT1.wav,2,1,4,13,,,,,1,5,21,12,0,0,0,5,,,2,3.6692217270028777,3,1.1691085520142224,2,1.0184164160164073,1,1.011421385977883,,,084,001,2019_Aug_28_1113,MusicAffectPsychophysiology2019,3.0.5,60.05943133290414,
To what extent did the music make you feel ,HAPPY,30MonoWAV/30MonoT1.wav,2,1,4,13,,,,,1,5,21,12,0,1,1,6,,,,,,,,,3,1.0528062079974916,,,084,001,2019_Aug_28_1113,MusicAffectPsychophysiology2019,3.0.5,60.05943133290414,
To what extent did the music make you feel ,ACTIVE,30MonoWAV/30MonoT1.wav,2,1,4,13,,,,,1,5,21,12,0,2,2,9,,,,,,,,,3,0.4535414570127614,,,084,001,2019_Aug_28_1113,MusicAffectPsychophysiology2019,3.0.5,60.05943133290414,
To what extent did the music make you feel ,ANGRY,30MonoWAV/30MonoT1.wav,2,1,4,13,,,,,1,5,21,12,0,3,3,2,,,,,,,,,3,0.1441680889984127,,,084,001,2019_Aug_28_1113,MusicAffectPsychophysiology2019,3.0.5,60.05943133290414,
To what extent did the music make you feel ,ALERT,30MonoWAV/30MonoT1.wav,2,1,4,13,,,,,1,5,21,12,0,4,4,8,,,,,,,,,3,0.419643830973655,,,084,001,2019_Aug_28_1113,MusicAffectPsychophysiology2019,3.0.5,60.05943133290414,
To what extent did the music make you feel ,EXCITED,30MonoWAV/30MonoT1.wav,2,1,4,13,,,,,1,5,21,12,0,5,5,7,,,,,,,,,3,1.4703643000102602,,,084,001,2019_Aug_28_1113,MusicAffectPsychophysiology2019,3.0.5,60.05943133290414,
To what extent did the music make you feel ,TENDER,30MonoWAV/30MonoT1.wav,2,1,4,13,,,,,1,5,21,12,0,6,6,10,,,,,,,,,2,0.9354813579993788,,,084,001,2019_Aug_28_1113,MusicAffectPsychophysiology2019,3.0.5,60.05943133290414,
To what extent did the music make you feel ,FRUSTRATED,30MonoWAV/30MonoT1.wav,2,1,4,13,,,,,1,5,21,12,0,7,7,3,,,,,,,,,1,0.699849088996416,,,084,001,2019_Aug_28_1113,MusicAffectPsychophysiology2019,3.0.5,60.05943133290414,
To what extent did the music make you feel ,ASHAMED,30MonoWAV/30MonoT1.wav,2,1,4,13,,,,,1,5,21,12,0,8,8,4,,,,,,,,,1,0.6174960790085606,,,084,001,2019_Aug_28_1113,MusicAffectPsychophysiology2019,3.0.5,60.05943133290414,
To what extent did the music make you feel ,SCARED,30MonoWAV/30MonoT1.wav,2,1,4,13,,,,,1,5,21,12,0,9,9,11,,,,,,,,,1,0.7698650039965287,,,084,001,2019_Aug_28_1113,MusicAffectPsychophysiology2019,3.0.5,60.05943133290414,
To what extent did the music make you feel ,SAD,30MonoWAV/30MonoT1.wav,2,1,4,13,,,,,1,5,21,12,0,10,10,0,,,,,,,,,2,1.1533789079985581,,,084,001,2019_Aug_28_1113,MusicAffectPsychophysiology2019,3.0.5,60.05943133290414,
To what extent did the music make you feel ,ANXIOUS ,30MonoWAV/30MonoT1.wav,2,1,4,13,,,,,1,5,21,12,0,11,11,1,,,,,,,,,2,0.4522587640094571,,,084,001,2019_Aug_28_1113,MusicAffectPsychophysiology2019,3.0.5,60.05943133290414,
,,30MonoWAV/30MonoT1.wav,2,1,4,13,,,,,1,5,21,12,,,,,,,,,,,,,,,,,084,001,2019_Aug_28_1113,MusicAffectPsychophysiology2019,3.0.5,60.05943133290414,
To what extent did the music make you feel ,ASHAMED,30MonoWAV/30MonoF1.wav,1,2,2,1,,,,,1,6,22,0,0,0,0,4,,,4,6.669177084986586,3,1.0361379089881666,2,1.1858520209789276,1,0.9380372939922381,,,084,001,2019_Aug_28_1113,MusicAffectPsychophysiology2019,3.0.5,60.05943133290414,
To what extent did the music make you feel ,SCARED,30MonoWAV/30MonoF1.wav,1,2,2,1,,,,,1,6,22,0,0,1,1,11,,,,,,,,,2,0.9676961300137918,,,084,001,2019_Aug_28_1113,MusicAffectPsychophysiology2019,3.0.5,60.05943133290414,
To what extent did the music make you feel ,ALERT,30MonoWAV/30MonoF1.wav,1,2,2,1,,,,,1,6,22,0,0,2,2,8,,,,,,,,,4,1.1199710150249302,,,084,001,2019_Aug_28_1113,MusicAffectPsychophysiology2019,3.0.5,60.05943133290414,
To what extent did the music make you feel ,TENDER,30MonoWAV/30MonoF1.wav,1,2,2,1,,,,,1,6,22,0,0,3,3,10,,,,,,,,,1,1.0695034440141171,,,084,001,2019_Aug_28_1113,MusicAffectPsychophysiology2019,3.0.5,60.05943133290414,
To what extent did the music make you feel ,EXCITED,30MonoWAV/30MonoF1.wav,1,2,2,1,,,,,1,6,22,0,0,4,4,7,,,,,,,,,3,1.0020190429931972,,,084,001,2019_Aug_28_1113,MusicAffectPsychophysiology2019,3.0.5,60.05943133290414,
To what extent did the music make you feel ,ANGRY,30MonoWAV/30MonoF1.wav,1,2,2,1,,,,,1,6,22,0,0,5,5,2,,,,,,,,,2,1.0859073309984524,,,084,001,2019_Aug_28_1113,MusicAffectPsychophysiology2019,3.0.5,60.05943133290414,
To what extent did the music make you feel ,GUILTY,30MonoWAV/30MonoF1.wav,1,2,2,1,,,,,1,6,22,0,0,6,6,5,,,,,,,,,1,0.9196607419871725,,,084,001,2019_Aug_28_1113,MusicAffectPsychophysiology2019,3.0.5,60.05943133290414,
To what extent did the music make you feel ,ACTIVE,30MonoWAV/30MonoF1.wav,1,2,2,1,,,,,1,6,22,0,0,7,7,9,,,,,,,,,4,0.968884548987262,,,084,001,2019_Aug_28_1113,MusicAffectPsychophysiology2019,3.0.5,60.05943133290414,
To what extent did the music make you feel ,FRUSTRATED,30MonoWAV/30MonoF1.wav,1,2,2,1,,,,,1,6,22,0,0,8,8,3,,,,,,,,,1,1.6698095260071568,,,084,001,2019_Aug_28_1113,MusicAffectPsychophysiology2019,3.0.5,60.05943133290414,
To what extent did the music make you feel ,ANXIOUS ,30MonoWAV/30MonoF1.wav,1,2,2,1,,,,,1,6,22,0,0,9,9,1,,,,,,,,,2,0.7870155510026962,,,084,001,2019_Aug_28_1113,MusicAffectPsychophysiology2019,3.0.5,60.05943133290414,
To what extent did the music make you feel ,SAD,30MonoWAV/30MonoF1.wav,1,2,2,1,,,,,1,6,22,0,0,10,10,0,,,,,,,,,1,0.7517420489748474,,,084,001,2019_Aug_28_1113,MusicAffectPsychophysiology2019,3.0.5,60.05943133290414,
To what extent did the music make you feel ,HAPPY,30MonoWAV/30MonoF1.wav,1,2,2,1,,,,,1,6,22,0,0,11,11,6,,,,,,,,,3,0.78654374400503,,,084,001,2019_Aug_28_1113,MusicAffectPsychophysiology2019,3.0.5,60.05943133290414,
,,30MonoWAV/30MonoF1.wav,1,2,2,1,,,,,1,6,22,0,,,,,,,,,,,,,,,,,084,001,2019_Aug_28_1113,MusicAffectPsychophysiology2019,3.0.5,60.05943133290414,
To what extent did the music make you feel ,ANGRY,30MonoWAV/30MonoH3.wav,2,2,1,7,,,,,1,7,23,6,0,0,0,2,,,4,1.9690599750028923,3,1.003522001003148,3,1.0851273020089138,1,1.2690518449817318,,,084,001,2019_Aug_28_1113,MusicAffectPsychophysiology2019,3.0.5,60.05943133290414,
To what extent did the music make you feel ,EXCITED,30MonoWAV/30MonoH3.wav,2,2,1,7,,,,,1,7,23,6,0,1,1,7,,,,,,,,,4,1.0694027869903948,,,084,001,2019_Aug_28_1113,MusicAffectPsychophysiology2019,3.0.5,60.05943133290414,
To what extent did the music make you feel ,ASHAMED,30MonoWAV/30MonoH3.wav,2,2,1,7,,,,,1,7,23,6,0,2,2,4,,,,,,,,,1,4.035435633006273,,,084,001,2019_Aug_28_1113,MusicAffectPsychophysiology2019,3.0.5,60.05943133290414,
To what extent did the music make you feel ,ANXIOUS ,30MonoWAV/30MonoH3.wav,2,2,1,7,,,,,1,7,23,6,0,3,3,1,,,,,,,,,1,0.9855370379809756,,,084,001,2019_Aug_28_1113,MusicAffectPsychophysiology2019,3.0.5,60.05943133290414,
To what extent did the music make you feel ,ALERT,30MonoWAV/30MonoH3.wav,2,2,1,7,,,,,1,7,23,6,0,4,4,8,,,,,,,,,4,1.2855459900165442,,,084,001,2019_Aug_28_1113,MusicAffectPsychophysiology2019,3.0.5,60.05943133290414,
To what extent did the music make you feel ,SCARED,30MonoWAV/30MonoH3.wav,2,2,1,7,,,,,1,7,23,6,0,5,5,11,,,,,,,,,1,1.0311115559889004,,,084,001,2019_Aug_28_1113,MusicAffectPsychophysiology2019,3.0.5,60.05943133290414,
To what extent did the music make you feel ,FRUSTRATED,30MonoWAV/30MonoH3.wav,2,2,1,7,,,,,1,7,23,6,0,6,6,3,,,,,,,,,1,0.797820548992604,,,084,001,2019_Aug_28_1113,MusicAffectPsychophysiology2019,3.0.5,60.05943133290414,
To what extent did the music make you feel ,TENDER,30MonoWAV/30MonoH3.wav,2,2,1,7,,,,,1,7,23,6,0,7,7,10,,,,,,,,,1,0.7671574850101024,,,084,001,2019_Aug_28_1113,MusicAffectPsychophysiology2019,3.0.5,60.05943133290414,
To what extent did the music make you feel ,GUILTY,30MonoWAV/30MonoH3.wav,2,2,1,7,,,,,1,7,23,6,0,8,8,5,,,,,,,,,1,1.0190714620111976,,,084,001,2019_Aug_28_1113,MusicAffectPsychophysiology2019,3.0.5,60.05943133290414,
To what extent did the music make you feel ,ACTIVE,30MonoWAV/30MonoH3.wav,2,2,1,7,,,,,1,7,23,6,0,9,9,9,,,,,,,,,4,1.0523683319916017,,,084,001,2019_Aug_28_1113,MusicAffectPsychophysiology2019,3.0.5,60.05943133290414,
To what extent did the music make you feel ,HAPPY,30MonoWAV/30MonoH3.wav,2,2,1,7,,,,,1,7,23,6,0,10,10,6,,,,,,,,,3,0.9028073039953597,,,084,001,2019_Aug_28_1113,MusicAffectPsychophysiology2019,3.0.5,60.05943133290414,
To what extent did the music make you feel ,SAD,30MonoWAV/30MonoH3.wav,2,2,1,7,,,,,1,7,23,6,0,11,11,0,,,,,,,,,2,1.0865867630054709,,,084,001,2019_Aug_28_1113,MusicAffectPsychophysiology2019,3.0.5,60.05943133290414,
,,30MonoWAV/30MonoH3.wav,2,2,1,7,,,,,1,7,23,6,,,,,,,,,,,,,,,,,084,001,2019_Aug_28_1113,MusicAffectPsychophysiology2019,3.0.5,60.05943133290414,
To what extent did the music make you feel ,SCARED,30MonoWAV/30MonoT3.wav,2,1,4,15,,,,,1,8,24,14,0,0,0,11,,,3,2.1347878030210268,3,0.7697726240148768,2,0.7533369039883837,1,0.8427859320072457,,,084,001,2019_Aug_28_1113,MusicAffectPsychophysiology2019,3.0.5,60.05943133290414,
To what extent did the music make you feel ,EXCITED,30MonoWAV/30MonoT3.wav,2,1,4,15,,,,,1,8,24,14,0,1,1,7,,,,,,,,,2,0.9700189509894699,,,084,001,2019_Aug_28_1113,MusicAffectPsychophysiology2019,3.0.5,60.05943133290414,
To what extent did the music make you feel ,SAD,30MonoWAV/30MonoT3.wav,2,1,4,15,,,,,1,8,24,14,0,2,2,0,,,,,,,,,2,1.353085923998151,,,084,001,2019_Aug_28_1113,MusicAffectPsychophysiology2019,3.0.5,60.05943133290414,
To what extent did the music make you feel ,TENDER,30MonoWAV/30MonoT3.wav,2,1,4,15,,,,,1,8,24,14,0,3,3,10,,,,,,,,,3,0.8017724989913404,,,084,001,2019_Aug_28_1113,MusicAffectPsychophysiology2019,3.0.5,60.05943133290414,
To what extent did the music make you feel ,FRUSTRATED,30MonoWAV/30MonoT3.wav,2,1,4,15,,,,,1,8,24,14,0,4,4,3,,,,,,,,,1,0.8197919969970826,,,084,001,2019_Aug_28_1113,MusicAffectPsychophysiology2019,3.0.5,60.05943133290414,
To what extent did the music make you feel ,GUILTY,30MonoWAV/30MonoT3.wav,2,1,4,15,,,,,1,8,24,14,0,5,5,5,,,,,,,,,1,0.9360887819784693,,,084,001,2019_Aug_28_1113,MusicAffectPsychophysiology2019,3.0.5,60.05943133290414,
To what extent did the music make you feel ,ASHAMED,30MonoWAV/30MonoT3.wav,2,1,4,15,,,,,1,8,24,14,0,6,6,4,,,,,,,,,1,0.8660691890108865,,,084,001,2019_Aug_28_1113,MusicAffectPsychophysiology2019,3.0.5,60.05943133290414,
To what extent did the music make you feel ,ANGRY,30MonoWAV/30MonoT3.wav,2,1,4,15,,,,,1,8,24,14,0,7,7,2,,,,,,,,,1,0.8033809380140156,,,084,001,2019_Aug_28_1113,MusicAffectPsychophysiology2019,3.0.5,60.05943133290414,
To what extent did the music make you feel ,ANXIOUS ,30MonoWAV/30MonoT3.wav,2,1,4,15,,,,,1,8,24,14,0,8,8,1,,,,,,,,,1,0.9355587589961942,,,084,001,2019_Aug_28_1113,MusicAffectPsychophysiology2019,3.0.5,60.05943133290414,
To what extent did the music make you feel ,ACTIVE,30MonoWAV/30MonoT3.wav,2,1,4,15,,,,,1,8,24,14,0,9,9,9,,,,,,,,,2,0.8532187129894737,,,084,001,2019_Aug_28_1113,MusicAffectPsychophysiology2019,3.0.5,60.05943133290414,
To what extent did the music make you feel ,HAPPY,30MonoWAV/30MonoT3.wav,2,1,4,15,,,,,1,8,24,14,0,10,10,6,,,,,,,,,3,1.1366507660131902,,,084,001,2019_Aug_28_1113,MusicAffectPsychophysiology2019,3.0.5,60.05943133290414,
To what extent did the music make you feel ,ALERT,30MonoWAV/30MonoT3.wav,2,1,4,15,,,,,1,8,24,14,0,11,11,8,,,,,,,,,1,1.1186420189915225,,,084,001,2019_Aug_28_1113,MusicAffectPsychophysiology2019,3.0.5,60.05943133290414,
,,30MonoWAV/30MonoT3.wav,2,1,4,15,,,,,1,8,24,14,,,,,,,,,,,,,,,,,084,001,2019_Aug_28_1113,MusicAffectPsychophysiology2019,3.0.5,60.05943133290414,
To what extent did the music make you feel ,HAPPY,30MonoWAV/30MonoH2.wav,2,2,1,6,,,,,1,9,25,5,0,0,0,6,,,4,2.05207994900411,3,0.7855660210188944,3,0.9844401160080452,4,1.0374334339867346,,,084,001,2019_Aug_28_1113,MusicAffectPsychophysiology2019,3.0.5,60.05943133290414,
To what extent did the music make you feel ,TENDER,30MonoWAV/30MonoH2.wav,2,2,1,6,,,,,1,9,25,5,0,1,1,10,,,,,,,,,1,0.903559963015141,,,084,001,2019_Aug_28_1113,MusicAffectPsychophysiology2019,3.0.5,60.05943133290414,
To what extent did the music make you feel ,ANXIOUS ,30MonoWAV/30MonoH2.wav,2,2,1,6,,,,,1,9,25,5,0,2,2,1,,,,,,,,,2,0.9859118440072052,,,084,001,2019_Aug_28_1113,MusicAffectPsychophysiology2019,3.0.5,60.05943133290414,
To what extent did the music make you feel ,EXCITED,30MonoWAV/30MonoH2.wav,2,2,1,6,,,,,1,9,25,5,0,3,3,7,,,,,,,,,4,1.2190857219975442,,,084,001,2019_Aug_28_1113,MusicAffectPsychophysiology2019,3.0.5,60.05943133290414,
To what extent did the music make you feel ,SCARED,30MonoWAV/30MonoH2.wav,2,2,1,6,,,,,1,9,25,5,0,4,4,11,,,,,,,,,1,0.9518898350070231,,,084,001,2019_Aug_28_1113,MusicAffectPsychophysiology2019,3.0.5,60.05943133290414,
To what extent did the music make you feel ,ALERT,30MonoWAV/30MonoH2.wav,2,2,1,6,,,,,1,9,25,5,0,5,5,8,,,,,,,,,4,1.0687065810197964,,,084,001,2019_Aug_28_1113,MusicAffectPsychophysiology2019,3.0.5,60.05943133290414,
To what extent did the music make you feel ,GUILTY,30MonoWAV/30MonoH2.wav,2,2,1,6,,,,,1,9,25,5,0,6,6,5,,,,,,,,,1,0.7696428760245908,,,084,001,2019_Aug_28_1113,MusicAffectPsychophysiology2019,3.0.5,60.05943133290414,
To what extent did the music make you feel ,ASHAMED,30MonoWAV/30MonoH2.wav,2,2,1,6,,,,,1,9,25,5,0,7,7,4,,,,,,,,,1,0.6365343369834591,,,084,001,2019_Aug_28_1113,MusicAffectPsychophysiology2019,3.0.5,60.05943133290414,
To what extent did the music make you feel ,FRUSTRATED,30MonoWAV/30MonoH2.wav,2,2,1,6,,,,,1,9,25,5,0,8,8,3,,,,,,,,,1,0.5355982620094437,,,084,001,2019_Aug_28_1113,MusicAffectPsychophysiology2019,3.0.5,60.05943133290414,
To what extent did the music make you feel ,ANGRY,30MonoWAV/30MonoH2.wav,2,2,1,6,,,,,1,9,25,5,0,9,9,2,,,,,,,,,1,0.5861011329980101,,,084,001,2019_Aug_28_1113,MusicAffectPsychophysiology2019,3.0.5,60.05943133290414,
To what extent did the music make you feel ,SAD,30MonoWAV/30MonoH2.wav,2,2,1,6,,,,,1,9,25,5,0,10,10,0,,,,,,,,,1,0.7850723899900913,,,084,001,2019_Aug_28_1113,MusicAffectPsychophysiology2019,3.0.5,60.05943133290414,
To what extent did the music make you feel ,ACTIVE,30MonoWAV/30MonoH2.wav,2,2,1,6,,,,,1,9,25,5,0,11,11,9,,,,,,,,,3,1.0191803990164772,,,084,001,2019_Aug_28_1113,MusicAffectPsychophysiology2019,3.0.5,60.05943133290414,
,,30MonoWAV/30MonoH2.wav,2,2,1,6,,,,,1,9,25,5,,,,,,,,,,,,,,,,,084,001,2019_Aug_28_1113,MusicAffectPsychophysiology2019,3.0.5,60.05943133290414,
To what extent did the music make you feel ,ASHAMED,30MonoWAV/30MonoS1.wav,1,1,3,9,,,,,1,10,26,8,0,0,0,4,,,2,4.003233338007703,2,0.8191417710040696,3,1.2353834199893754,1,1.1961462189792655,,,084,001,2019_Aug_28_1113,MusicAffectPsychophysiology2019,3.0.5,60.05943133290414,
To what extent did the music make you feel ,EXCITED,30MonoWAV/30MonoS1.wav,1,1,3,9,,,,,1,10,26,8,0,1,1,7,,,,,,,,,2,1.1854669279709924,,,084,001,2019_Aug_28_1113,MusicAffectPsychophysiology2019,3.0.5,60.05943133290414,
To what extent did the music make you feel ,GUILTY,30MonoWAV/30MonoS1.wav,1,1,3,9,,,,,1,10,26,8,0,2,2,5,,,,,,,,,2,1.2194952110003214,,,084,001,2019_Aug_28_1113,MusicAffectPsychophysiology2019,3.0.5,60.05943133290414,
To what extent did the music make you feel ,ALERT,30MonoWAV/30MonoS1.wav,1,1,3,9,,,,,1,10,26,8,0,3,3,8,,,,,,,,,2,1.853082542977063,,,084,001,2019_Aug_28_1113,MusicAffectPsychophysiology2019,3.0.5,60.05943133290414,
To what extent did the music make you feel ,ANGRY,30MonoWAV/30MonoS1.wav,1,1,3,9,,,,,1,10,26,8,0,4,4,2,,,,,,,,,2,0.13523921801242977,,,084,001,2019_Aug_28_1113,MusicAffectPsychophysiology2019,3.0.5,60.05943133290414,
To what extent did the music make you feel ,SAD,30MonoWAV/30MonoS1.wav,1,1,3,9,,,,,1,10,26,8,0,5,5,0,,,,,,,,,3,1.2527374069904909,,,084,001,2019_Aug_28_1113,MusicAffectPsychophysiology2019,3.0.5,60.05943133290414,
To what extent did the music make you feel ,HAPPY,30MonoWAV/30MonoS1.wav,1,1,3,9,,,,,1,10,26,8,0,6,6,6,,,,,,,,,2,1.1374550100008491,,,084,001,2019_Aug_28_1113,MusicAffectPsychophysiology2019,3.0.5,60.05943133290414,
To what extent did the music make you feel ,TENDER,30MonoWAV/30MonoS1.wav,1,1,3,9,,,,,1,10,26,8,0,7,7,10,,,,,,,,,3,1.2696792889910284,,,084,001,2019_Aug_28_1113,MusicAffectPsychophysiology2019,3.0.5,60.05943133290414,
To what extent did the music make you feel ,ANXIOUS ,30MonoWAV/30MonoS1.wav,1,1,3,9,,,,,1,10,26,8,0,8,8,1,,,,,,,,,2,0.9021964239946101,,,084,001,2019_Aug_28_1113,MusicAffectPsychophysiology2019,3.0.5,60.05943133290414,
To what extent did the music make you feel ,ACTIVE,30MonoWAV/30MonoS1.wav,1,1,3,9,,,,,1,10,26,8,0,9,9,9,,,,,,,,,2,1.7193925510218833,,,084,001,2019_Aug_28_1113,MusicAffectPsychophysiology2019,3.0.5,60.05943133290414,
To what extent did the music make you feel ,SCARED,30MonoWAV/30MonoS1.wav,1,1,3,9,,,,,1,10,26,8,0,10,10,11,,,,,,,,,1,1.0926992539898492,,,084,001,2019_Aug_28_1113,MusicAffectPsychophysiology2019,3.0.5,60.05943133290414,
To what extent did the music make you feel ,FRUSTRATED,30MonoWAV/30MonoS1.wav,1,1,3,9,,,,,1,10,26,8,0,11,11,3,,,,,,,,,1,0.3525988250039518,,,084,001,2019_Aug_28_1113,MusicAffectPsychophysiology2019,3.0.5,60.05943133290414,
,,30MonoWAV/30MonoS1.wav,1,1,3,9,,,,,1,10,26,8,,,,,,,,,,,,,,,,,084,001,2019_Aug_28_1113,MusicAffectPsychophysiology2019,3.0.5,60.05943133290414,
To what extent did the music make you feel ,FRUSTRATED,30MonoWAV/30MonoS4.wav,1,1,3,12,,,,,1,11,27,11,0,0,0,3,,,1,3.285806796979159,2,7.084811962995445,2,1.253084726020461,1,0.9536829440039583,,,084,001,2019_Aug_28_1113,MusicAffectPsychophysiology2019,3.0.5,60.05943133290414,
To what extent did the music make you feel ,ACTIVE,30MonoWAV/30MonoS4.wav,1,1,3,12,,,,,1,11,27,11,0,1,1,9,,,,,,,,,1,0.9680752370040864,,,084,001,2019_Aug_28_1113,MusicAffectPsychophysiology2019,3.0.5,60.05943133290414,
To what extent did the music make you feel ,ALERT,30MonoWAV/30MonoS4.wav,1,1,3,12,,,,,1,11,27,11,0,2,2,8,,,,,,,,,2,0.03677823499310762,,,084,001,2019_Aug_28_1113,MusicAffectPsychophysiology2019,3.0.5,60.05943133290414,
To what extent did the music make you feel ,GUILTY,30MonoWAV/30MonoS4.wav,1,1,3,12,,,,,1,11,27,11,0,3,3,5,,,,,,,,,2,1.2032332879898604,,,084,001,2019_Aug_28_1113,MusicAffectPsychophysiology2019,3.0.5,60.05943133290414,
To what extent did the music make you feel ,HAPPY,30MonoWAV/30MonoS4.wav,1,1,3,12,,,,,1,11,27,11,0,4,4,6,,,,,,,,,1,0.8190686859888956,,,084,001,2019_Aug_28_1113,MusicAffectPsychophysiology2019,3.0.5,60.05943133290414,
To what extent did the music make you feel ,ANGRY,30MonoWAV/30MonoS4.wav,1,1,3,12,,,,,1,11,27,11,0,5,5,2,,,,,,,,,2,0.8496000180020928,,,084,001,2019_Aug_28_1113,MusicAffectPsychophysiology2019,3.0.5,60.05943133290414,
To what extent did the music make you feel ,SCARED,30MonoWAV/30MonoS4.wav,1,1,3,12,,,,,1,11,27,11,0,6,6,11,,,,,,,,,2,0.9861049720202573,,,084,001,2019_Aug_28_1113,MusicAffectPsychophysiology2019,3.0.5,60.05943133290414,
To what extent did the music make you feel ,ANXIOUS ,30MonoWAV/30MonoS4.wav,1,1,3,12,,,,,1,11,27,11,0,7,7,1,,,,,,,,,3,1.0702310999913607,,,084,001,2019_Aug_28_1113,MusicAffectPsychophysiology2019,3.0.5,60.05943133290414,
To what extent did the music make you feel ,EXCITED,30MonoWAV/30MonoS4.wav,1,1,3,12,,,,,1,11,27,11,0,8,8,7,,,,,,,,,2,1.0866962410218548,,,084,001,2019_Aug_28_1113,MusicAffectPsychophysiology2019,3.0.5,60.05943133290414,
To what extent did the music make you feel ,TENDER,30MonoWAV/30MonoS4.wav,1,1,3,12,,,,,1,11,27,11,0,9,9,10,,,,,,,,,1,0.7198180640116334,,,084,001,2019_Aug_28_1113,MusicAffectPsychophysiology2019,3.0.5,60.05943133290414,
To what extent did the music make you feel ,SAD,30MonoWAV/30MonoS4.wav,1,1,3,12,,,,,1,11,27,11,0,10,10,0,,,,,,,,,3,0.8846569169836584,,,084,001,2019_Aug_28_1113,MusicAffectPsychophysiology2019,3.0.5,60.05943133290414,
To what extent did the music make you feel ,ASHAMED,30MonoWAV/30MonoS4.wav,1,1,3,12,,,,,1,11,27,11,0,11,11,4,,,,,,,,,2,1.2210061450023204,,,084,001,2019_Aug_28_1113,MusicAffectPsychophysiology2019,3.0.5,60.05943133290414,
,,30MonoWAV/30MonoS4.wav,1,1,3,12,,,,,1,11,27,11,,,,,,,,,,,,,,,,,084,001,2019_Aug_28_1113,MusicAffectPsychophysiology2019,3.0.5,60.05943133290414,
To what extent did the music make you feel ,GUILTY,30MonoWAV/30MonoF4.wav,1,2,2,4,,,,,1,12,28,3,0,0,0,5,,,4,3.599543206015369,2,1.319740464008646,2,1.6190503490215633,1,1.2129400109988637,,,084,001,2019_Aug_28_1113,MusicAffectPsychophysiology2019,3.0.5,60.05943133290414,
To what extent did the music make you feel ,ANXIOUS ,30MonoWAV/30MonoF4.wav,1,2,2,4,,,,,1,12,28,3,0,1,1,1,,,,,,,,,2,0.8363263930077665,,,084,001,2019_Aug_28_1113,MusicAffectPsychophysiology2019,3.0.5,60.05943133290414,
To what extent did the music make you feel ,ALERT,30MonoWAV/30MonoF4.wav,1,2,2,4,,,,,1,12,28,3,0,2,2,8,,,,,,,,,4,0.9697563310037367,,,084,001,2019_Aug_28_1113,MusicAffectPsychophysiology2019,3.0.5,60.05943133290414,
To what extent did the music make you feel ,EXCITED,30MonoWAV/30MonoF4.wav,1,2,2,4,,,,,1,12,28,3,0,3,3,7,,,,,,,,,4,0.9693418130045757,,,084,001,2019_Aug_28_1113,MusicAffectPsychophysiology2019,3.0.5,60.05943133290414,
To what extent did the music make you feel ,SAD,30MonoWAV/30MonoF4.wav,1,2,2,4,,,,,1,12,28,3,0,4,4,0,,,,,,,,,1,1.18309917501756,,,084,001,2019_Aug_28_1113,MusicAffectPsychophysiology2019,3.0.5,60.05943133290414,
To what extent did the music make you feel ,HAPPY,30MonoWAV/30MonoF4.wav,1,2,2,4,,,,,1,12,28,3,0,5,5,6,,,,,,,,,2,0.9694439800223336,,,084,001,2019_Aug_28_1113,MusicAffectPsychophysiology2019,3.0.5,60.05943133290414,
To what extent did the music make you feel ,ASHAMED,30MonoWAV/30MonoF4.wav,1,2,2,4,,,,,1,12,28,3,0,6,6,4,,,,,,,,,1,1.0004591849865392,,,084,001,2019_Aug_28_1113,MusicAffectPsychophysiology2019,3.0.5,60.05943133290414,
To what extent did the music make you feel ,TENDER,30MonoWAV/30MonoF4.wav,1,2,2,4,,,,,1,12,28,3,0,7,7,10,,,,,,,,,1,0.7863729119999334,,,084,001,2019_Aug_28_1113,MusicAffectPsychophysiology2019,3.0.5,60.05943133290414,
To what extent did the music make you feel ,FRUSTRATED,30MonoWAV/30MonoF4.wav,1,2,2,4,,,,,1,12,28,3,0,8,8,3,,,,,,,,,2,0.9353263269877061,,,084,001,2019_Aug_28_1113,MusicAffectPsychophysiology2019,3.0.5,60.05943133290414,
To what extent did the music make you feel ,ACTIVE,30MonoWAV/30MonoF4.wav,1,2,2,4,,,,,1,12,28,3,0,9,9,9,,,,,,,,,3,1.7514064470015,,,084,001,2019_Aug_28_1113,MusicAffectPsychophysiology2019,3.0.5,60.05943133290414,
To what extent did the music make you feel ,SCARED,30MonoWAV/30MonoF4.wav,1,2,2,4,,,,,1,12,28,3,0,10,10,11,,,,,,,,,2,1.2361947369936388,,,084,001,2019_Aug_28_1113,MusicAffectPsychophysiology2019,3.0.5,60.05943133290414,
To what extent did the music make you feel ,ANGRY,30MonoWAV/30MonoF4.wav,1,2,2,4,,,,,1,12,28,3,0,11,11,2,,,,,,,,,1,1.234860217984533,,,084,001,2019_Aug_28_1113,MusicAffectPsychophysiology2019,3.0.5,60.05943133290414,
,,30MonoWAV/30MonoF4.wav,1,2,2,4,,,,,1,12,28,3,,,,,,,,,,,,,,,,,084,001,2019_Aug_28_1113,MusicAffectPsychophysiology2019,3.0.5,60.05943133290414,
To what extent did the music make you feel ,EXCITED,30MonoWAV/30MonoT4.wav,2,1,4,16,,,,,1,13,29,15,0,0,0,7,,,3,2.0028439430170693,3,1.0693233599886298,2,0.902941047999775,2,0.8099494600028265,,,084,001,2019_Aug_28_1113,MusicAffectPsychophysiology2019,3.0.5,60.05943133290414,
To what extent did the music make you feel ,SAD,30MonoWAV/30MonoT4.wav,2,1,4,16,,,,,1,13,29,15,0,1,1,0,,,,,,,,,2,0.835812708013691,,,084,001,2019_Aug_28_1113,MusicAffectPsychophysiology2019,3.0.5,60.05943133290414,
To what extent did the music make you feel ,SCARED,30MonoWAV/30MonoT4.wav,2,1,4,16,,,,,1,13,29,15,0,2,2,11,,,,,,,,,1,2.3440167859953362,,,084,001,2019_Aug_28_1113,MusicAffectPsychophysiology2019,3.0.5,60.05943133290414,
To what extent did the music make you feel ,ALERT,30MonoWAV/30MonoT4.wav,2,1,4,16,,,,,1,13,29,15,0,3,3,8,,,,,,,,,2,0.9030042350059375,,,084,001,2019_Aug_28_1113,MusicAffectPsychophysiology2019,3.0.5,60.05943133290414,
To what extent did the music make you feel ,HAPPY,30MonoWAV/30MonoT4.wav,2,1,4,16,,,,,1,13,29,15,0,4,4,6,,,,,,,,,3,0.7028951429820154,,,084,001,2019_Aug_28_1113,MusicAffectPsychophysiology2019,3.0.5,60.05943133290414,
To what extent did the music make you feel ,ANXIOUS ,30MonoWAV/30MonoT4.wav,2,1,4,16,,,,,1,13,29,15,0,5,5,1,,,,,,,,,2,0.7518867809849326,,,084,001,2019_Aug_28_1113,MusicAffectPsychophysiology2019,3.0.5,60.05943133290414,
To what extent did the music make you feel ,ANGRY,30MonoWAV/30MonoT4.wav,2,1,4,16,,,,,1,13,29,15,0,6,6,2,,,,,,,,,1,0.7352167060016654,,,084,001,2019_Aug_28_1113,MusicAffectPsychophysiology2019,3.0.5,60.05943133290414,
To what extent did the music make you feel ,TENDER,30MonoWAV/30MonoT4.wav,2,1,4,16,,,,,1,13,29,15,0,7,7,10,,,,,,,,,1,0.6376905679935589,,,084,001,2019_Aug_28_1113,MusicAffectPsychophysiology2019,3.0.5,60.05943133290414,
To what extent did the music make you feel ,ASHAMED,30MonoWAV/30MonoT4.wav,2,1,4,16,,,,,1,13,29,15,0,8,8,4,,,,,,,,,1,0.7192502540128771,,,084,001,2019_Aug_28_1113,MusicAffectPsychophysiology2019,3.0.5,60.05943133290414,
To what extent did the music make you feel ,GUILTY,30MonoWAV/30MonoT4.wav,2,1,4,16,,,,,1,13,29,15,0,9,9,5,,,,,,,,,1,0.7857059499947354,,,084,001,2019_Aug_28_1113,MusicAffectPsychophysiology2019,3.0.5,60.05943133290414,
To what extent did the music make you feel ,ACTIVE,30MonoWAV/30MonoT4.wav,2,1,4,16,,,,,1,13,29,15,0,10,10,9,,,,,,,,,2,0.8527232809865382,,,084,001,2019_Aug_28_1113,MusicAffectPsychophysiology2019,3.0.5,60.05943133290414,
To what extent did the music make you feel ,FRUSTRATED,30MonoWAV/30MonoT4.wav,2,1,4,16,,,,,1,13,29,15,0,11,11,3,,,,,,,,,1,1.0205517009890173,,,084,001,2019_Aug_28_1113,MusicAffectPsychophysiology2019,3.0.5,60.05943133290414,
,,30MonoWAV/30MonoT4.wav,2,1,4,16,,,,,1,13,29,15,,,,,,,,,,,,,,,,,084,001,2019_Aug_28_1113,MusicAffectPsychophysiology2019,3.0.5,60.05943133290414,
To what extent did the music make you feel ,ALERT,30MonoWAV/30MonoT2.wav,2,1,4,14,,,,,1,14,30,13,0,0,0,8,,,2,1.949721975979628,3,1.0025598829961382,2,0.9531857580004726,2,1.4169497830152977,,,084,001,2019_Aug_28_1113,MusicAffectPsychophysiology2019,3.0.5,60.05943133290414,
To what extent did the music make you feel ,TENDER,30MonoWAV/30MonoT2.wav,2,1,4,14,,,,,1,14,30,13,0,1,1,10,,,,,,,,,2,1.4027375339937862,,,084,001,2019_Aug_28_1113,MusicAffectPsychophysiology2019,3.0.5,60.05943133290414,
To what extent did the music make you feel ,EXCITED,30MonoWAV/30MonoT2.wav,2,1,4,14,,,,,1,14,30,13,0,2,2,7,,,,,,,,,1,1.1685620689822827,,,084,001,2019_Aug_28_1113,MusicAffectPsychophysiology2019,3.0.5,60.05943133290414,
To what extent did the music make you feel ,SAD,30MonoWAV/30MonoT2.wav,2,1,4,14,,,,,1,14,30,13,0,3,3,0,,,,,,,,,2,1.1194423089909833,,,084,001,2019_Aug_28_1113,MusicAffectPsychophysiology2019,3.0.5,60.05943133290414,
To what extent did the music make you feel ,ACTIVE,30MonoWAV/30MonoT2.wav,2,1,4,14,,,,,1,14,30,13,0,4,4,9,,,,,,,,,2,1.2189682850148529,,,084,001,2019_Aug_28_1113,MusicAffectPsychophysiology2019,3.0.5,60.05943133290414,
To what extent did the music make you feel ,ANXIOUS ,30MonoWAV/30MonoT2.wav,2,1,4,14,,,,,1,14,30,13,0,5,5,1,,,,,,,,,1,1.0357826620165724,,,084,001,2019_Aug_28_1113,MusicAffectPsychophysiology2019,3.0.5,60.05943133290414,
To what extent did the music make you feel ,ASHAMED,30MonoWAV/30MonoT2.wav,2,1,4,14,,,,,1,14,30,13,0,6,6,4,,,,,,,,,1,0.9366994900046848,,,084,001,2019_Aug_28_1113,MusicAffectPsychophysiology2019,3.0.5,60.05943133290414,
To what extent did the music make you feel ,FRUSTRATED,30MonoWAV/30MonoT2.wav,2,1,4,14,,,,,1,14,30,13,0,7,7,3,,,,,,,,,1,0.6527151640038937,,,084,001,2019_Aug_28_1113,MusicAffectPsychophysiology2019,3.0.5,60.05943133290414,
To what extent did the music make you feel ,HAPPY,30MonoWAV/30MonoT2.wav,2,1,4,14,,,,,1,14,30,13,0,8,8,6,,,,,,,,,3,1.0189767749980092,,,084,001,2019_Aug_28_1113,MusicAffectPsychophysiology2019,3.0.5,60.05943133290414,
To what extent did the music make you feel ,ANGRY,30MonoWAV/30MonoT2.wav,2,1,4,14,,,,,1,14,30,13,0,9,9,2,,,,,,,,,2,1.0826694429852068,,,084,001,2019_Aug_28_1113,MusicAffectPsychophysiology2019,3.0.5,60.05943133290414,
To what extent did the music make you feel ,SCARED,30MonoWAV/30MonoT2.wav,2,1,4,14,,,,,1,14,30,13,0,10,10,11,,,,,,,,,2,1.5355436929967254,,,084,001,2019_Aug_28_1113,MusicAffectPsychophysiology2019,3.0.5,60.05943133290414,
To what extent did the music make you feel ,GUILTY,30MonoWAV/30MonoT2.wav,2,1,4,14,,,,,1,14,30,13,0,11,11,5,,,,,,,,,1,0.9866360960004386,,,084,001,2019_Aug_28_1113,MusicAffectPsychophysiology2019,3.0.5,60.05943133290414,
,,30MonoWAV/30MonoT2.wav,2,1,4,14,,,,,1,14,30,13,,,,,,,,,,,,,,,,,084,001,2019_Aug_28_1113,MusicAffectPsychophysiology2019,3.0.5,60.05943133290414,
To what extent did the music make you feel ,TENDER,30MonoWAV/30MonoF2.wav,1,2,2,2,,,,,1,15,31,1,0,0,0,10,,,3,2.4187381399970036,2,0.5172977540059946,2,0.8032430619932711,1,0.93116611399455,,,084,001,2019_Aug_28_1113,MusicAffectPsychophysiology2019,3.0.5,60.05943133290414,
To what extent did the music make you feel ,SAD,30MonoWAV/30MonoF2.wav,1,2,2,2,,,,,1,15,31,1,0,1,1,0,,,,,,,,,2,0.820451611012686,,,084,001,2019_Aug_28_1113,MusicAffectPsychophysiology2019,3.0.5,60.05943133290414,
To what extent did the music make you feel ,ACTIVE,30MonoWAV/30MonoF2.wav,1,2,2,2,,,,,1,15,31,1,0,2,2,9,,,,,,,,,3,1.4367569099995308,,,084,001,2019_Aug_28_1113,MusicAffectPsychophysiology2019,3.0.5,60.05943133290414,
To what extent did the music make you feel ,ASHAMED,30MonoWAV/30MonoF2.wav,1,2,2,2,,,,,1,15,31,1,0,3,3,4,,,,,,,,,2,1.4199703269987367,,,084,001,2019_Aug_28_1113,MusicAffectPsychophysiology2019,3.0.5,60.05943133290414,
To what extent did the music make you feel ,GUILTY,30MonoWAV/30MonoF2.wav,1,2,2,2,,,,,1,15,31,1,0,4,4,5,,,,,,,,,1,0.8027174710005056,,,084,001,2019_Aug_28_1113,MusicAffectPsychophysiology2019,3.0.5,60.05943133290414,
To what extent did the music make you feel ,HAPPY,30MonoWAV/30MonoF2.wav,1,2,2,2,,,,,1,15,31,1,0,5,5,6,,,,,,,,,1,4.384506450005574,,,084,001,2019_Aug_28_1113,MusicAffectPsychophysiology2019,3.0.5,60.05943133290414,
To what extent did the music make you feel ,ANGRY,30MonoWAV/30MonoF2.wav,1,2,2,2,,,,,1,15,31,1,0,6,6,2,,,,,,,,,1,8.184912689990597,,,084,001,2019_Aug_28_1113,MusicAffectPsychophysiology2019,3.0.5,60.05943133290414,
To what extent did the music make you feel ,ALERT,30MonoWAV/30MonoF2.wav,1,2,2,2,,,,,1,15,31,1,0,7,7,8,,,,,,,,,3,0.9856072359834798,,,084,001,2019_Aug_28_1113,MusicAffectPsychophysiology2019,3.0.5,60.05943133290414,
To what extent did the music make you feel ,FRUSTRATED,30MonoWAV/30MonoF2.wav,1,2,2,2,,,,,1,15,31,1,0,8,8,3,,,,,,,,,2,1.018416093022097,,,084,001,2019_Aug_28_1113,MusicAffectPsychophysiology2019,3.0.5,60.05943133290414,
To what extent did the music make you feel ,ANXIOUS ,30MonoWAV/30MonoF2.wav,1,2,2,2,,,,,1,15,31,1,0,9,9,1,,,,,,,,,4,1.1185390169848688,,,084,001,2019_Aug_28_1113,MusicAffectPsychophysiology2019,3.0.5,60.05943133290414,
To what extent did the music make you feel ,EXCITED,30MonoWAV/30MonoF2.wav,1,2,2,2,,,,,1,15,31,1,0,10,10,7,,,,,,,,,3,1.052161461993819,,,084,001,2019_Aug_28_1113,MusicAffectPsychophysiology2019,3.0.5,60.05943133290414,
To what extent did the music make you feel ,SCARED,30MonoWAV/30MonoF2.wav,1,2,2,2,,,,,1,15,31,1,0,11,11,11,,,,,,,,,4,1.1023956590215676,,,084,001,2019_Aug_28_1113,MusicAffectPsychophysiology2019,3.0.5,60.05943133290414,
,,30MonoWAV/30MonoF2.wav,1,2,2,2,,,,,1,15,31,1,,,,,,,,,,,,,,,,,084,001,2019_Aug_28_1113,MusicAffectPsychophysiology2019,3.0.5,60.05943133290414,
,,,,,,,,,,,,,,,,,,,,,,,,,,,,,space,3.6262449349742383,084,001,2019_Aug_28_1113,MusicAffectPsychophysiology2019,3.0.5,60.05943133290414,
