Instruction,Word,song,valence,arousal,affectcat,songmark,pracwords.thisRepN,pracwords.thisTrialN,pracwords.thisN,pracwords.thisIndex,songtrials.thisRepN,songtrials.thisTrialN,songtrials.thisN,songtrials.thisIndex,words.thisRepN,words.thisTrialN,words.thisN,words.thisIndex,begin.keys,begin.rt,arousalkey.keys,arousalkey.rt,valencekey.keys,valencekey.rt,likekey.keys,likekey.rt,WordResponse.keys,WordResponse.rt,key_resp_2.keys,key_resp_2.rt,participant,session,date,expName,psychopyVersion,frameRate,
,,,,,,,,,,,,,,,,,,,space,18.651058348012157,,,,,,,,,,,085,001,2019_Aug_28_1212,MusicAffectPsychophysiology2019,3.0.5,60.05102138609884,
,,,,,,,,,,,,,,,,,,,,,5,5.19898163099424,,,,,,,,,085,001,2019_Aug_28_1212,MusicAffectPsychophysiology2019,3.0.5,60.05102138609884,
,,,,,,,,,,,,,,,,,,,,,,,5,2.4854204090079293,,,,,,,085,001,2019_Aug_28_1212,MusicAffectPsychophysiology2019,3.0.5,60.05102138609884,
,,,,,,,,,,,,,,,,,,,,,,,,,4,2.919305929011898,,,,,085,001,2019_Aug_28_1212,MusicAffectPsychophysiology2019,3.0.5,60.05102138609884,
To what extent did the music make you feel ,SAD,,,,,,0,0,0,0,,,,,,,,,,,,,,,,,2,5.386486553994473,,,085,001,2019_Aug_28_1212,MusicAffectPsychophysiology2019,3.0.5,60.05102138609884,
To what extent did the music make you feel ,ALERT,,,,,,0,1,1,8,,,,,,,,,,,,,,,,,3,4.135166505991947,,,085,001,2019_Aug_28_1212,MusicAffectPsychophysiology2019,3.0.5,60.05102138609884,
To what extent did the music make you feel ,HAPPY,,,,,,0,2,2,6,,,,,,,,,,,,,,,,,5,1.4859455710102338,,,085,001,2019_Aug_28_1212,MusicAffectPsychophysiology2019,3.0.5,60.05102138609884,
To what extent did the music make you feel ,ANGRY,,,,,,0,3,3,2,,,,,,,,,,,,,,,,,1,1.9684580510074738,,,085,001,2019_Aug_28_1212,MusicAffectPsychophysiology2019,3.0.5,60.05102138609884,
To what extent did the music make you feel ,FRUSTRATED,,,,,,0,4,4,3,,,,,,,,,,,,,,,,,1,1.7913916559773497,,,085,001,2019_Aug_28_1212,MusicAffectPsychophysiology2019,3.0.5,60.05102138609884,
To what extent did the music make you feel ,EXCITED,,,,,,0,5,5,7,,,,,,,,,,,,,,,,,5,1.8526602379861288,,,085,001,2019_Aug_28_1212,MusicAffectPsychophysiology2019,3.0.5,60.05102138609884,
To what extent did the music make you feel ,GUILTY,,,,,,0,6,6,5,,,,,,,,,,,,,,,,,1,2.401989467005478,,,085,001,2019_Aug_28_1212,MusicAffectPsychophysiology2019,3.0.5,60.05102138609884,
To what extent did the music make you feel ,ANXIOUS ,,,,,,0,7,7,1,,,,,,,,,,,,,,,,,2,3.3010771670087706,,,085,001,2019_Aug_28_1212,MusicAffectPsychophysiology2019,3.0.5,60.05102138609884,
To what extent did the music make you feel ,TENDER,,,,,,0,8,8,10,,,,,,,,,,,,,,,,,5,2.086700892978115,,,085,001,2019_Aug_28_1212,MusicAffectPsychophysiology2019,3.0.5,60.05102138609884,
To what extent did the music make you feel ,ACTIVE,,,,,,0,9,9,9,,,,,,,,,,,,,,,,,4,2.2856223020062316,,,085,001,2019_Aug_28_1212,MusicAffectPsychophysiology2019,3.0.5,60.05102138609884,
To what extent did the music make you feel ,ASHAMED,,,,,,0,10,10,4,,,,,,,,,,,,,,,,,1,2.0693049209949095,,,085,001,2019_Aug_28_1212,MusicAffectPsychophysiology2019,3.0.5,60.05102138609884,
To what extent did the music make you feel ,SCARED,,,,,,0,11,11,11,,,,,,,,,,,,,,,,,1,3.699656128999777,,,085,001,2019_Aug_28_1212,MusicAffectPsychophysiology2019,3.0.5,60.05102138609884,
To what extent did the music make you feel ,ANXIOUS ,30MonoWAV/30MonoS4.wav,1,1,3,12,,,,,0,0,0,11,0,0,0,1,,,1,5.816603859013412,2,4.218768074992113,3,3.019164692988852,2,4.401571675989544,,,085,001,2019_Aug_28_1212,MusicAffectPsychophysiology2019,3.0.5,60.05102138609884,
To what extent did the music make you feel ,SAD,30MonoWAV/30MonoS4.wav,1,1,3,12,,,,,0,0,0,11,0,1,1,0,,,,,,,,,5,2.719197378028184,,,085,001,2019_Aug_28_1212,MusicAffectPsychophysiology2019,3.0.5,60.05102138609884,
To what extent did the music make you feel ,TENDER,30MonoWAV/30MonoS4.wav,1,1,3,12,,,,,0,0,0,11,0,2,2,10,,,,,,,,,3,2.085693562985398,,,085,001,2019_Aug_28_1212,MusicAffectPsychophysiology2019,3.0.5,60.05102138609884,
To what extent did the music make you feel ,ASHAMED,30MonoWAV/30MonoS4.wav,1,1,3,12,,,,,0,0,0,11,0,3,3,4,,,,,,,,,4,4.05218545201933,,,085,001,2019_Aug_28_1212,MusicAffectPsychophysiology2019,3.0.5,60.05102138609884,
To what extent did the music make you feel ,ALERT,30MonoWAV/30MonoS4.wav,1,1,3,12,,,,,0,0,0,11,0,4,4,8,,,,,,,,,2,3.8497698759892955,,,085,001,2019_Aug_28_1212,MusicAffectPsychophysiology2019,3.0.5,60.05102138609884,
To what extent did the music make you feel ,HAPPY,30MonoWAV/30MonoS4.wav,1,1,3,12,,,,,0,0,0,11,0,5,5,6,,,,,,,,,1,2.468926494999323,,,085,001,2019_Aug_28_1212,MusicAffectPsychophysiology2019,3.0.5,60.05102138609884,
To what extent did the music make you feel ,ANGRY,30MonoWAV/30MonoS4.wav,1,1,3,12,,,,,0,0,0,11,0,6,6,2,,,,,,,,,2,2.0850320540193934,,,085,001,2019_Aug_28_1212,MusicAffectPsychophysiology2019,3.0.5,60.05102138609884,
To what extent did the music make you feel ,FRUSTRATED,30MonoWAV/30MonoS4.wav,1,1,3,12,,,,,0,0,0,11,0,7,7,3,,,,,,,,,1,2.1699140449927654,,,085,001,2019_Aug_28_1212,MusicAffectPsychophysiology2019,3.0.5,60.05102138609884,
To what extent did the music make you feel ,SCARED,30MonoWAV/30MonoS4.wav,1,1,3,12,,,,,0,0,0,11,0,8,8,11,,,,,,,,,2,2.5182069209986366,,,085,001,2019_Aug_28_1212,MusicAffectPsychophysiology2019,3.0.5,60.05102138609884,
To what extent did the music make you feel ,ACTIVE,30MonoWAV/30MonoS4.wav,1,1,3,12,,,,,0,0,0,11,0,9,9,9,,,,,,,,,1,2.968647330009844,,,085,001,2019_Aug_28_1212,MusicAffectPsychophysiology2019,3.0.5,60.05102138609884,
To what extent did the music make you feel ,GUILTY,30MonoWAV/30MonoS4.wav,1,1,3,12,,,,,0,0,0,11,0,10,10,5,,,,,,,,,3,2.7528859170270152,,,085,001,2019_Aug_28_1212,MusicAffectPsychophysiology2019,3.0.5,60.05102138609884,
To what extent did the music make you feel ,EXCITED,30MonoWAV/30MonoS4.wav,1,1,3,12,,,,,0,0,0,11,0,11,11,7,,,,,,,,,2,2.6524935539928265,,,085,001,2019_Aug_28_1212,MusicAffectPsychophysiology2019,3.0.5,60.05102138609884,
,,30MonoWAV/30MonoS4.wav,1,1,3,12,,,,,0,0,0,11,,,,,,,,,,,,,,,,,085,001,2019_Aug_28_1212,MusicAffectPsychophysiology2019,3.0.5,60.05102138609884,
To what extent did the music make you feel ,TENDER,30MonoWAV/30MonoF3.wav,1,2,2,3,,,,,0,1,1,2,0,0,0,10,,,4,4.433052453008713,3,2.8183582840138115,5,2.117528131988365,2,2.2920433029939886,,,085,001,2019_Aug_28_1212,MusicAffectPsychophysiology2019,3.0.5,60.05102138609884,
To what extent did the music make you feel ,ANXIOUS ,30MonoWAV/30MonoF3.wav,1,2,2,3,,,,,0,1,1,2,0,1,1,1,,,,,,,,,5,1.502608885988593,,,085,001,2019_Aug_28_1212,MusicAffectPsychophysiology2019,3.0.5,60.05102138609884,
To what extent did the music make you feel ,ASHAMED,30MonoWAV/30MonoF3.wav,1,2,2,3,,,,,0,1,1,2,0,2,2,4,,,,,,,,,1,2.2695222349721007,,,085,001,2019_Aug_28_1212,MusicAffectPsychophysiology2019,3.0.5,60.05102138609884,
To what extent did the music make you feel ,GUILTY,30MonoWAV/30MonoF3.wav,1,2,2,3,,,,,0,1,1,2,0,3,3,5,,,,,,,,,2,2.369357690011384,,,085,001,2019_Aug_28_1212,MusicAffectPsychophysiology2019,3.0.5,60.05102138609884,
To what extent did the music make you feel ,SCARED,30MonoWAV/30MonoF3.wav,1,2,2,3,,,,,0,1,1,2,0,4,4,11,,,,,,,,,5,1.4243467000196688,,,085,001,2019_Aug_28_1212,MusicAffectPsychophysiology2019,3.0.5,60.05102138609884,
To what extent did the music make you feel ,EXCITED,30MonoWAV/30MonoF3.wav,1,2,2,3,,,,,0,1,1,2,0,5,5,7,,,,,,,,,4,2.202987876982661,,,085,001,2019_Aug_28_1212,MusicAffectPsychophysiology2019,3.0.5,60.05102138609884,
To what extent did the music make you feel ,ANGRY,30MonoWAV/30MonoF3.wav,1,2,2,3,,,,,0,1,1,2,0,6,6,2,,,,,,,,,1,2.8370780289988033,,,085,001,2019_Aug_28_1212,MusicAffectPsychophysiology2019,3.0.5,60.05102138609884,
To what extent did the music make you feel ,HAPPY,30MonoWAV/30MonoF3.wav,1,2,2,3,,,,,0,1,1,2,0,7,7,6,,,,,,,,,3,2.5527205649996176,,,085,001,2019_Aug_28_1212,MusicAffectPsychophysiology2019,3.0.5,60.05102138609884,
To what extent did the music make you feel ,ALERT,30MonoWAV/30MonoF3.wav,1,2,2,3,,,,,0,1,1,2,0,8,8,8,,,,,,,,,5,1.4871259150095284,,,085,001,2019_Aug_28_1212,MusicAffectPsychophysiology2019,3.0.5,60.05102138609884,
To what extent did the music make you feel ,ACTIVE,30MonoWAV/30MonoF3.wav,1,2,2,3,,,,,0,1,1,2,0,9,9,9,,,,,,,,,5,2.001723216002574,,,085,001,2019_Aug_28_1212,MusicAffectPsychophysiology2019,3.0.5,60.05102138609884,
To what extent did the music make you feel ,SAD,30MonoWAV/30MonoF3.wav,1,2,2,3,,,,,0,1,1,2,0,10,10,0,,,,,,,,,1,3.5363172680081334,,,085,001,2019_Aug_28_1212,MusicAffectPsychophysiology2019,3.0.5,60.05102138609884,
To what extent did the music make you feel ,FRUSTRATED,30MonoWAV/30MonoF3.wav,1,2,2,3,,,,,0,1,1,2,0,11,11,3,,,,,,,,,1,2.423351395991631,,,085,001,2019_Aug_28_1212,MusicAffectPsychophysiology2019,3.0.5,60.05102138609884,
,,30MonoWAV/30MonoF3.wav,1,2,2,3,,,,,0,1,1,2,,,,,,,,,,,,,,,,,085,001,2019_Aug_28_1212,MusicAffectPsychophysiology2019,3.0.5,60.05102138609884,
To what extent did the music make you feel ,EXCITED,30MonoWAV/30MonoF4.wav,1,2,2,4,,,,,0,2,2,3,0,0,0,7,,,5,4.401573027018458,1,3.2025270389858633,1,2.2026431580015924,3,4.800479356985306,,,085,001,2019_Aug_28_1212,MusicAffectPsychophysiology2019,3.0.5,60.05102138609884,
To what extent did the music make you feel ,SAD,30MonoWAV/30MonoF4.wav,1,2,2,4,,,,,0,2,2,3,0,1,1,0,,,,,,,,,1,1.4689105459838174,,,085,001,2019_Aug_28_1212,MusicAffectPsychophysiology2019,3.0.5,60.05102138609884,
To what extent did the music make you feel ,TENDER,30MonoWAV/30MonoF4.wav,1,2,2,4,,,,,0,2,2,3,0,2,2,10,,,,,,,,,1,1.6858631260110997,,,085,001,2019_Aug_28_1212,MusicAffectPsychophysiology2019,3.0.5,60.05102138609884,
To what extent did the music make you feel ,ALERT,30MonoWAV/30MonoF4.wav,1,2,2,4,,,,,0,2,2,3,0,3,3,8,,,,,,,,,5,1.151895395014435,,,085,001,2019_Aug_28_1212,MusicAffectPsychophysiology2019,3.0.5,60.05102138609884,
To what extent did the music make you feel ,HAPPY,30MonoWAV/30MonoF4.wav,1,2,2,4,,,,,0,2,2,3,0,4,4,6,,,,,,,,,2,3.602332323003793,,,085,001,2019_Aug_28_1212,MusicAffectPsychophysiology2019,3.0.5,60.05102138609884,
To what extent did the music make you feel ,FRUSTRATED,30MonoWAV/30MonoF4.wav,1,2,2,4,,,,,0,2,2,3,0,5,5,3,,,,,,,,,2,1.9522962410119362,,,085,001,2019_Aug_28_1212,MusicAffectPsychophysiology2019,3.0.5,60.05102138609884,
To what extent did the music make you feel ,ANGRY,30MonoWAV/30MonoF4.wav,1,2,2,4,,,,,0,2,2,3,0,6,6,2,,,,,,,,,2,3.883699180005351,,,085,001,2019_Aug_28_1212,MusicAffectPsychophysiology2019,3.0.5,60.05102138609884,
To what extent did the music make you feel ,ACTIVE,30MonoWAV/30MonoF4.wav,1,2,2,4,,,,,0,2,2,3,0,7,7,9,,,,,,,,,4,2.1852230810036417,,,085,001,2019_Aug_28_1212,MusicAffectPsychophysiology2019,3.0.5,60.05102138609884,
To what extent did the music make you feel ,GUILTY,30MonoWAV/30MonoF4.wav,1,2,2,4,,,,,0,2,2,3,0,8,8,5,,,,,,,,,2,2.236716144019738,,,085,001,2019_Aug_28_1212,MusicAffectPsychophysiology2019,3.0.5,60.05102138609884,
To what extent did the music make you feel ,ASHAMED,30MonoWAV/30MonoF4.wav,1,2,2,4,,,,,0,2,2,3,0,9,9,4,,,,,,,,,1,1.902548300975468,,,085,001,2019_Aug_28_1212,MusicAffectPsychophysiology2019,3.0.5,60.05102138609884,
To what extent did the music make you feel ,ANXIOUS ,30MonoWAV/30MonoF4.wav,1,2,2,4,,,,,0,2,2,3,0,10,10,1,,,,,,,,,5,2.236175032972824,,,085,001,2019_Aug_28_1212,MusicAffectPsychophysiology2019,3.0.5,60.05102138609884,
To what extent did the music make you feel ,SCARED,30MonoWAV/30MonoF4.wav,1,2,2,4,,,,,0,2,2,3,0,11,11,11,,,,,,,,,4,2.9853965129877906,,,085,001,2019_Aug_28_1212,MusicAffectPsychophysiology2019,3.0.5,60.05102138609884,
,,30MonoWAV/30MonoF4.wav,1,2,2,4,,,,,0,2,2,3,,,,,,,,,,,,,,,,,085,001,2019_Aug_28_1212,MusicAffectPsychophysiology2019,3.0.5,60.05102138609884,
To what extent did the music make you feel ,FRUSTRATED,30MonoWAV/30MonoH4.wav,2,2,1,8,,,,,0,3,3,7,0,0,0,3,,,5,2.3334565040131565,5,1.6186477769806515,5,1.0016862710181158,1,1.8090867080027238,,,085,001,2019_Aug_28_1212,MusicAffectPsychophysiology2019,3.0.5,60.05102138609884,
To what extent did the music make you feel ,ANGRY,30MonoWAV/30MonoH4.wav,2,2,1,8,,,,,0,3,3,7,0,1,1,2,,,,,,,,,1,1.2521041099971626,,,085,001,2019_Aug_28_1212,MusicAffectPsychophysiology2019,3.0.5,60.05102138609884,
To what extent did the music make you feel ,SAD,30MonoWAV/30MonoH4.wav,2,2,1,8,,,,,0,3,3,7,0,2,2,0,,,,,,,,,1,1.0346988279779907,,,085,001,2019_Aug_28_1212,MusicAffectPsychophysiology2019,3.0.5,60.05102138609884,
To what extent did the music make you feel ,ACTIVE,30MonoWAV/30MonoH4.wav,2,2,1,8,,,,,0,3,3,7,0,3,3,9,,,,,,,,,5,1.8842557270254474,,,085,001,2019_Aug_28_1212,MusicAffectPsychophysiology2019,3.0.5,60.05102138609884,
To what extent did the music make you feel ,ASHAMED,30MonoWAV/30MonoH4.wav,2,2,1,8,,,,,0,3,3,7,0,4,4,4,,,,,,,,,1,1.4370905020041391,,,085,001,2019_Aug_28_1212,MusicAffectPsychophysiology2019,3.0.5,60.05102138609884,
To what extent did the music make you feel ,ALERT,30MonoWAV/30MonoH4.wav,2,2,1,8,,,,,0,3,3,7,0,5,5,8,,,,,,,,,4,3.736179280997021,,,085,001,2019_Aug_28_1212,MusicAffectPsychophysiology2019,3.0.5,60.05102138609884,
To what extent did the music make you feel ,SCARED,30MonoWAV/30MonoH4.wav,2,2,1,8,,,,,0,3,3,7,0,6,6,11,,,,,,,,,1,1.5872566160105634,,,085,001,2019_Aug_28_1212,MusicAffectPsychophysiology2019,3.0.5,60.05102138609884,
To what extent did the music make you feel ,ANXIOUS ,30MonoWAV/30MonoH4.wav,2,2,1,8,,,,,0,3,3,7,0,7,7,1,,,,,,,,,2,3.167746751976665,,,085,001,2019_Aug_28_1212,MusicAffectPsychophysiology2019,3.0.5,60.05102138609884,
To what extent did the music make you feel ,HAPPY,30MonoWAV/30MonoH4.wav,2,2,1,8,,,,,0,3,3,7,0,8,8,6,,,,,,,,,5,1.1666238710167818,,,085,001,2019_Aug_28_1212,MusicAffectPsychophysiology2019,3.0.5,60.05102138609884,
To what extent did the music make you feel ,EXCITED,30MonoWAV/30MonoH4.wav,2,2,1,8,,,,,0,3,3,7,0,9,9,7,,,,,,,,,5,1.3031052300066222,,,085,001,2019_Aug_28_1212,MusicAffectPsychophysiology2019,3.0.5,60.05102138609884,
To what extent did the music make you feel ,TENDER,30MonoWAV/30MonoH4.wav,2,2,1,8,,,,,0,3,3,7,0,10,10,10,,,,,,,,,5,1.0665470630046912,,,085,001,2019_Aug_28_1212,MusicAffectPsychophysiology2019,3.0.5,60.05102138609884,
To what extent did the music make you feel ,GUILTY,30MonoWAV/30MonoH4.wav,2,2,1,8,,,,,0,3,3,7,0,11,11,5,,,,,,,,,1,1.4528283739928156,,,085,001,2019_Aug_28_1212,MusicAffectPsychophysiology2019,3.0.5,60.05102138609884,
,,30MonoWAV/30MonoH4.wav,2,2,1,8,,,,,0,3,3,7,,,,,,,,,,,,,,,,,085,001,2019_Aug_28_1212,MusicAffectPsychophysiology2019,3.0.5,60.05102138609884,
To what extent did the music make you feel ,ALERT,30MonoWAV/30MonoF1.wav,1,2,2,1,,,,,0,4,4,0,0,0,0,8,,,5,3.6515966599981766,2,2.685272698989138,2,3.1176016819954384,5,1.8359271480003372,,,085,001,2019_Aug_28_1212,MusicAffectPsychophysiology2019,3.0.5,60.05102138609884,
To what extent did the music make you feel ,ANGRY,30MonoWAV/30MonoF1.wav,1,2,2,1,,,,,0,4,4,0,0,1,1,2,,,,,,,,,3,2.351581872004317,,,085,001,2019_Aug_28_1212,MusicAffectPsychophysiology2019,3.0.5,60.05102138609884,
To what extent did the music make you feel ,ACTIVE,30MonoWAV/30MonoF1.wav,1,2,2,1,,,,,0,4,4,0,0,2,2,9,,,,,,,,,5,1.219207750982605,,,085,001,2019_Aug_28_1212,MusicAffectPsychophysiology2019,3.0.5,60.05102138609884,
To what extent did the music make you feel ,SCARED,30MonoWAV/30MonoF1.wav,1,2,2,1,,,,,0,4,4,0,0,3,3,11,,,,,,,,,4,1.8526793649944011,,,085,001,2019_Aug_28_1212,MusicAffectPsychophysiology2019,3.0.5,60.05102138609884,
To what extent did the music make you feel ,ASHAMED,30MonoWAV/30MonoF1.wav,1,2,2,1,,,,,0,4,4,0,0,4,4,4,,,,,,,,,1,1.6505910019914154,,,085,001,2019_Aug_28_1212,MusicAffectPsychophysiology2019,3.0.5,60.05102138609884,
To what extent did the music make you feel ,EXCITED,30MonoWAV/30MonoF1.wav,1,2,2,1,,,,,0,4,4,0,0,5,5,7,,,,,,,,,3,2.2195704100013245,,,085,001,2019_Aug_28_1212,MusicAffectPsychophysiology2019,3.0.5,60.05102138609884,
To what extent did the music make you feel ,TENDER,30MonoWAV/30MonoF1.wav,1,2,2,1,,,,,0,4,4,0,0,6,6,10,,,,,,,,,1,2.654511417989852,,,085,001,2019_Aug_28_1212,MusicAffectPsychophysiology2019,3.0.5,60.05102138609884,
To what extent did the music make you feel ,SAD,30MonoWAV/30MonoF1.wav,1,2,2,1,,,,,0,4,4,0,0,7,7,0,,,,,,,,,1,1.7854384490055963,,,085,001,2019_Aug_28_1212,MusicAffectPsychophysiology2019,3.0.5,60.05102138609884,
To what extent did the music make you feel ,FRUSTRATED,30MonoWAV/30MonoF1.wav,1,2,2,1,,,,,0,4,4,0,0,8,8,3,,,,,,,,,2,1.735993694019271,,,085,001,2019_Aug_28_1212,MusicAffectPsychophysiology2019,3.0.5,60.05102138609884,
To what extent did the music make you feel ,HAPPY,30MonoWAV/30MonoF1.wav,1,2,2,1,,,,,0,4,4,0,0,9,9,6,,,,,,,,,3,2.568748190999031,,,085,001,2019_Aug_28_1212,MusicAffectPsychophysiology2019,3.0.5,60.05102138609884,
To what extent did the music make you feel ,GUILTY,30MonoWAV/30MonoF1.wav,1,2,2,1,,,,,0,4,4,0,0,10,10,5,,,,,,,,,1,2.767340251011774,,,085,001,2019_Aug_28_1212,MusicAffectPsychophysiology2019,3.0.5,60.05102138609884,
To what extent did the music make you feel ,ANXIOUS ,30MonoWAV/30MonoF1.wav,1,2,2,1,,,,,0,4,4,0,0,11,11,1,,,,,,,,,5,1.7020334470144007,,,085,001,2019_Aug_28_1212,MusicAffectPsychophysiology2019,3.0.5,60.05102138609884,
,,30MonoWAV/30MonoF1.wav,1,2,2,1,,,,,0,4,4,0,,,,,,,,,,,,,,,,,085,001,2019_Aug_28_1212,MusicAffectPsychophysiology2019,3.0.5,60.05102138609884,
To what extent did the music make you feel ,TENDER,30MonoWAV/30MonoT4.wav,2,1,4,16,,,,,0,5,5,15,0,0,0,10,,,4,3.202363554009935,4,3.6346434030274395,2,3.0010103690146934,5,1.4607534460083116,,,085,001,2019_Aug_28_1212,MusicAffectPsychophysiology2019,3.0.5,60.05102138609884,
To what extent did the music make you feel ,ACTIVE,30MonoWAV/30MonoT4.wav,2,1,4,16,,,,,0,5,5,15,0,1,1,9,,,,,,,,,3,2.053779273002874,,,085,001,2019_Aug_28_1212,MusicAffectPsychophysiology2019,3.0.5,60.05102138609884,
To what extent did the music make you feel ,FRUSTRATED,30MonoWAV/30MonoT4.wav,2,1,4,16,,,,,0,5,5,15,0,2,2,3,,,,,,,,,2,1.5932346799818333,,,085,001,2019_Aug_28_1212,MusicAffectPsychophysiology2019,3.0.5,60.05102138609884,
To what extent did the music make you feel ,ASHAMED,30MonoWAV/30MonoT4.wav,2,1,4,16,,,,,0,5,5,15,0,3,3,4,,,,,,,,,1,1.8019189330225345,,,085,001,2019_Aug_28_1212,MusicAffectPsychophysiology2019,3.0.5,60.05102138609884,
To what extent did the music make you feel ,EXCITED,30MonoWAV/30MonoT4.wav,2,1,4,16,,,,,0,5,5,15,0,4,4,7,,,,,,,,,3,3.001557284005685,,,085,001,2019_Aug_28_1212,MusicAffectPsychophysiology2019,3.0.5,60.05102138609884,
To what extent did the music make you feel ,ALERT,30MonoWAV/30MonoT4.wav,2,1,4,16,,,,,0,5,5,15,0,5,5,8,,,,,,,,,3,3.3005690750142094,,,085,001,2019_Aug_28_1212,MusicAffectPsychophysiology2019,3.0.5,60.05102138609884,
To what extent did the music make you feel ,ANXIOUS ,30MonoWAV/30MonoT4.wav,2,1,4,16,,,,,0,5,5,15,0,6,6,1,,,,,,,,,1,2.0851614690036513,,,085,001,2019_Aug_28_1212,MusicAffectPsychophysiology2019,3.0.5,60.05102138609884,
To what extent did the music make you feel ,GUILTY,30MonoWAV/30MonoT4.wav,2,1,4,16,,,,,0,5,5,15,0,7,7,5,,,,,,,,,2,2.753061806986807,,,085,001,2019_Aug_28_1212,MusicAffectPsychophysiology2019,3.0.5,60.05102138609884,
To what extent did the music make you feel ,SAD,30MonoWAV/30MonoT4.wav,2,1,4,16,,,,,0,5,5,15,0,8,8,0,,,,,,,,,2,2.0857752230076585,,,085,001,2019_Aug_28_1212,MusicAffectPsychophysiology2019,3.0.5,60.05102138609884,
To what extent did the music make you feel ,HAPPY,30MonoWAV/30MonoT4.wav,2,1,4,16,,,,,0,5,5,15,0,9,9,6,,,,,,,,,5,1.5025842289905995,,,085,001,2019_Aug_28_1212,MusicAffectPsychophysiology2019,3.0.5,60.05102138609884,
To what extent did the music make you feel ,SCARED,30MonoWAV/30MonoT4.wav,2,1,4,16,,,,,0,5,5,15,0,10,10,11,,,,,,,,,1,3.885869363002712,,,085,001,2019_Aug_28_1212,MusicAffectPsychophysiology2019,3.0.5,60.05102138609884,
To what extent did the music make you feel ,ANGRY,30MonoWAV/30MonoT4.wav,2,1,4,16,,,,,0,5,5,15,0,11,11,2,,,,,,,,,2,2.237036573002115,,,085,001,2019_Aug_28_1212,MusicAffectPsychophysiology2019,3.0.5,60.05102138609884,
,,30MonoWAV/30MonoT4.wav,2,1,4,16,,,,,0,5,5,15,,,,,,,,,,,,,,,,,085,001,2019_Aug_28_1212,MusicAffectPsychophysiology2019,3.0.5,60.05102138609884,
To what extent did the music make you feel ,ASHAMED,30MonoWAV/30MonoT2.wav,2,1,4,14,,,,,0,6,6,13,0,0,0,4,,,3,5.933490960014751,5,2.2509758250089362,4,1.36968241102295,1,1.6192115370067768,,,085,001,2019_Aug_28_1212,MusicAffectPsychophysiology2019,3.0.5,60.05102138609884,
To what extent did the music make you feel ,GUILTY,30MonoWAV/30MonoT2.wav,2,1,4,14,,,,,0,6,6,13,0,1,1,5,,,,,,,,,1,1.517240528977709,,,085,001,2019_Aug_28_1212,MusicAffectPsychophysiology2019,3.0.5,60.05102138609884,
To what extent did the music make you feel ,ANXIOUS ,30MonoWAV/30MonoT2.wav,2,1,4,14,,,,,0,6,6,13,0,2,2,1,,,,,,,,,1,1.619191245001275,,,085,001,2019_Aug_28_1212,MusicAffectPsychophysiology2019,3.0.5,60.05102138609884,
To what extent did the music make you feel ,HAPPY,30MonoWAV/30MonoT2.wav,2,1,4,14,,,,,0,6,6,13,0,3,3,6,,,,,,,,,4,2.3193730159837287,,,085,001,2019_Aug_28_1212,MusicAffectPsychophysiology2019,3.0.5,60.05102138609884,
To what extent did the music make you feel ,EXCITED,30MonoWAV/30MonoT2.wav,2,1,4,14,,,,,0,6,6,13,0,4,4,7,,,,,,,,,5,1.9531595730222762,,,085,001,2019_Aug_28_1212,MusicAffectPsychophysiology2019,3.0.5,60.05102138609884,
To what extent did the music make you feel ,ALERT,30MonoWAV/30MonoT2.wav,2,1,4,14,,,,,0,6,6,13,0,5,5,8,,,,,,,,,2,2.3197275639977306,,,085,001,2019_Aug_28_1212,MusicAffectPsychophysiology2019,3.0.5,60.05102138609884,
To what extent did the music make you feel ,FRUSTRATED,30MonoWAV/30MonoT2.wav,2,1,4,14,,,,,0,6,6,13,0,6,6,3,,,,,,,,,1,1.6362819809874054,,,085,001,2019_Aug_28_1212,MusicAffectPsychophysiology2019,3.0.5,60.05102138609884,
To what extent did the music make you feel ,SCARED,30MonoWAV/30MonoT2.wav,2,1,4,14,,,,,0,6,6,13,0,7,7,11,,,,,,,,,1,2.919053582008928,,,085,001,2019_Aug_28_1212,MusicAffectPsychophysiology2019,3.0.5,60.05102138609884,
To what extent did the music make you feel ,ACTIVE,30MonoWAV/30MonoT2.wav,2,1,4,14,,,,,0,6,6,13,0,8,8,9,,,,,,,,,3,1.8690524690027814,,,085,001,2019_Aug_28_1212,MusicAffectPsychophysiology2019,3.0.5,60.05102138609884,
To what extent did the music make you feel ,TENDER,30MonoWAV/30MonoT2.wav,2,1,4,14,,,,,0,6,6,13,0,9,9,10,,,,,,,,,5,1.471133598999586,,,085,001,2019_Aug_28_1212,MusicAffectPsychophysiology2019,3.0.5,60.05102138609884,
To what extent did the music make you feel ,ANGRY,30MonoWAV/30MonoT2.wav,2,1,4,14,,,,,0,6,6,13,0,10,10,2,,,,,,,,,1,2.0163454900030047,,,085,001,2019_Aug_28_1212,MusicAffectPsychophysiology2019,3.0.5,60.05102138609884,
To what extent did the music make you feel ,SAD,30MonoWAV/30MonoT2.wav,2,1,4,14,,,,,0,6,6,13,0,11,11,0,,,,,,,,,3,1.5187986420060042,,,085,001,2019_Aug_28_1212,MusicAffectPsychophysiology2019,3.0.5,60.05102138609884,
,,30MonoWAV/30MonoT2.wav,2,1,4,14,,,,,0,6,6,13,,,,,,,,,,,,,,,,,085,001,2019_Aug_28_1212,MusicAffectPsychophysiology2019,3.0.5,60.05102138609884,
To what extent did the music make you feel ,ANGRY,30MonoWAV/30MonoH1.wav,2,2,1,5,,,,,0,7,7,4,0,0,0,2,,,4,3.753041337011382,4,2.1681918280082755,2,1.719279518991243,1,2.1758424020081293,,,085,001,2019_Aug_28_1212,MusicAffectPsychophysiology2019,3.0.5,60.05102138609884,
To what extent did the music make you feel ,FRUSTRATED,30MonoWAV/30MonoH1.wav,2,2,1,5,,,,,0,7,7,4,0,1,1,3,,,,,,,,,1,1.2033399809733965,,,085,001,2019_Aug_28_1212,MusicAffectPsychophysiology2019,3.0.5,60.05102138609884,
To what extent did the music make you feel ,TENDER,30MonoWAV/30MonoH1.wav,2,2,1,5,,,,,0,7,7,4,0,2,2,10,,,,,,,,,2,1.786052473995369,,,085,001,2019_Aug_28_1212,MusicAffectPsychophysiology2019,3.0.5,60.05102138609884,
To what extent did the music make you feel ,GUILTY,30MonoWAV/30MonoH1.wav,2,2,1,5,,,,,0,7,7,4,0,3,3,5,,,,,,,,,1,1.753531214024406,,,085,001,2019_Aug_28_1212,MusicAffectPsychophysiology2019,3.0.5,60.05102138609884,
To what extent did the music make you feel ,SCARED,30MonoWAV/30MonoH1.wav,2,2,1,5,,,,,0,7,7,4,0,4,4,11,,,,,,,,,1,1.400779749994399,,,085,001,2019_Aug_28_1212,MusicAffectPsychophysiology2019,3.0.5,60.05102138609884,
To what extent did the music make you feel ,ANXIOUS ,30MonoWAV/30MonoH1.wav,2,2,1,5,,,,,0,7,7,4,0,5,5,1,,,,,,,,,2,1.9866635159996804,,,085,001,2019_Aug_28_1212,MusicAffectPsychophysiology2019,3.0.5,60.05102138609884,
To what extent did the music make you feel ,HAPPY,30MonoWAV/30MonoH1.wav,2,2,1,5,,,,,0,7,7,4,0,6,6,6,,,,,,,,,4,1.9187348919804208,,,085,001,2019_Aug_28_1212,MusicAffectPsychophysiology2019,3.0.5,60.05102138609884,
To what extent did the music make you feel ,EXCITED,30MonoWAV/30MonoH1.wav,2,2,1,5,,,,,0,7,7,4,0,7,7,7,,,,,,,,,4,2.0190891890088096,,,085,001,2019_Aug_28_1212,MusicAffectPsychophysiology2019,3.0.5,60.05102138609884,
To what extent did the music make you feel ,SAD,30MonoWAV/30MonoH1.wav,2,2,1,5,,,,,0,7,7,4,0,8,8,0,,,,,,,,,1,2.019189065002138,,,085,001,2019_Aug_28_1212,MusicAffectPsychophysiology2019,3.0.5,60.05102138609884,
To what extent did the music make you feel ,ALERT,30MonoWAV/30MonoH1.wav,2,2,1,5,,,,,0,7,7,4,0,9,9,8,,,,,,,,,4,1.7528238380036782,,,085,001,2019_Aug_28_1212,MusicAffectPsychophysiology2019,3.0.5,60.05102138609884,
To what extent did the music make you feel ,ACTIVE,30MonoWAV/30MonoH1.wav,2,2,1,5,,,,,0,7,7,4,0,10,10,9,,,,,,,,,5,1.2354599590180442,,,085,001,2019_Aug_28_1212,MusicAffectPsychophysiology2019,3.0.5,60.05102138609884,
To what extent did the music make you feel ,ASHAMED,30MonoWAV/30MonoH1.wav,2,2,1,5,,,,,0,7,7,4,0,11,11,4,,,,,,,,,1,1.7019753040221985,,,085,001,2019_Aug_28_1212,MusicAffectPsychophysiology2019,3.0.5,60.05102138609884,
,,30MonoWAV/30MonoH1.wav,2,2,1,5,,,,,0,7,7,4,,,,,,,,,,,,,,,,,085,001,2019_Aug_28_1212,MusicAffectPsychophysiology2019,3.0.5,60.05102138609884,
To what extent did the music make you feel ,ACTIVE,30MonoWAV/30MonoH3.wav,2,2,1,7,,,,,0,8,8,6,0,0,0,9,,,4,5.31792924500769,2,2.9689984699944034,1,1.4166115469997749,3,5.036395668023033,,,085,001,2019_Aug_28_1212,MusicAffectPsychophysiology2019,3.0.5,60.05102138609884,
To what extent did the music make you feel ,SAD,30MonoWAV/30MonoH3.wav,2,2,1,7,,,,,0,8,8,6,0,1,1,0,,,,,,,,,1,2.4517278540006373,,,085,001,2019_Aug_28_1212,MusicAffectPsychophysiology2019,3.0.5,60.05102138609884,
To what extent did the music make you feel ,EXCITED,30MonoWAV/30MonoH3.wav,2,2,1,7,,,,,0,8,8,6,0,2,2,7,,,,,,,,,3,2.0361573009868152,,,085,001,2019_Aug_28_1212,MusicAffectPsychophysiology2019,3.0.5,60.05102138609884,
To what extent did the music make you feel ,ASHAMED,30MonoWAV/30MonoH3.wav,2,2,1,7,,,,,0,8,8,6,0,3,3,4,,,,,,,,,1,3.701190310996026,,,085,001,2019_Aug_28_1212,MusicAffectPsychophysiology2019,3.0.5,60.05102138609884,
To what extent did the music make you feel ,HAPPY,30MonoWAV/30MonoH3.wav,2,2,1,7,,,,,0,8,8,6,0,4,4,6,,,,,,,,,3,2.8524901840137318,,,085,001,2019_Aug_28_1212,MusicAffectPsychophysiology2019,3.0.5,60.05102138609884,
To what extent did the music make you feel ,ANXIOUS ,30MonoWAV/30MonoH3.wav,2,2,1,7,,,,,0,8,8,6,0,5,5,1,,,,,,,,,1,3.402487230981933,,,085,001,2019_Aug_28_1212,MusicAffectPsychophysiology2019,3.0.5,60.05102138609884,
To what extent did the music make you feel ,ANGRY,30MonoWAV/30MonoH3.wav,2,2,1,7,,,,,0,8,8,6,0,6,6,2,,,,,,,,,2,1.836080725013744,,,085,001,2019_Aug_28_1212,MusicAffectPsychophysiology2019,3.0.5,60.05102138609884,
To what extent did the music make you feel ,GUILTY,30MonoWAV/30MonoH3.wav,2,2,1,7,,,,,0,8,8,6,0,7,7,5,,,,,,,,,2,1.3693130899919197,,,085,001,2019_Aug_28_1212,MusicAffectPsychophysiology2019,3.0.5,60.05102138609884,
To what extent did the music make you feel ,SCARED,30MonoWAV/30MonoH3.wav,2,2,1,7,,,,,0,8,8,6,0,8,8,11,,,,,,,,,1,1.669809882005211,,,085,001,2019_Aug_28_1212,MusicAffectPsychophysiology2019,3.0.5,60.05102138609884,
To what extent did the music make you feel ,TENDER,30MonoWAV/30MonoH3.wav,2,2,1,7,,,,,0,8,8,6,0,9,9,10,,,,,,,,,3,1.98711518701748,,,085,001,2019_Aug_28_1212,MusicAffectPsychophysiology2019,3.0.5,60.05102138609884,
To what extent did the music make you feel ,ALERT,30MonoWAV/30MonoH3.wav,2,2,1,7,,,,,0,8,8,6,0,10,10,8,,,,,,,,,3,2.9022753770113923,,,085,001,2019_Aug_28_1212,MusicAffectPsychophysiology2019,3.0.5,60.05102138609884,
To what extent did the music make you feel ,FRUSTRATED,30MonoWAV/30MonoH3.wav,2,2,1,7,,,,,0,8,8,6,0,11,11,3,,,,,,,,,2,2.469062567979563,,,085,001,2019_Aug_28_1212,MusicAffectPsychophysiology2019,3.0.5,60.05102138609884,
,,30MonoWAV/30MonoH3.wav,2,2,1,7,,,,,0,8,8,6,,,,,,,,,,,,,,,,,085,001,2019_Aug_28_1212,MusicAffectPsychophysiology2019,3.0.5,60.05102138609884,
To what extent did the music make you feel ,ASHAMED,30MonoWAV/30MonoS3.wav,1,1,3,11,,,,,0,9,9,10,0,0,0,4,,,2,5.585719525988679,1,3.6362787089892663,2,4.418739415996242,2,3.0101128410024103,,,085,001,2019_Aug_28_1212,MusicAffectPsychophysiology2019,3.0.5,60.05102138609884,
To what extent did the music make you feel ,EXCITED,30MonoWAV/30MonoS3.wav,1,1,3,11,,,,,0,9,9,10,0,1,1,7,,,,,,,,,1,1.53709153298405,,,085,001,2019_Aug_28_1212,MusicAffectPsychophysiology2019,3.0.5,60.05102138609884,
To what extent did the music make you feel ,ALERT,30MonoWAV/30MonoS3.wav,1,1,3,11,,,,,0,9,9,10,0,2,2,8,,,,,,,,,4,3.668823850020999,,,085,001,2019_Aug_28_1212,MusicAffectPsychophysiology2019,3.0.5,60.05102138609884,
To what extent did the music make you feel ,SAD,30MonoWAV/30MonoS3.wav,1,1,3,11,,,,,0,9,9,10,0,3,3,0,,,,,,,,,5,1.8519906899891794,,,085,001,2019_Aug_28_1212,MusicAffectPsychophysiology2019,3.0.5,60.05102138609884,
To what extent did the music make you feel ,FRUSTRATED,30MonoWAV/30MonoS3.wav,1,1,3,11,,,,,0,9,9,10,0,4,4,3,,,,,,,,,3,2.0865126500139013,,,085,001,2019_Aug_28_1212,MusicAffectPsychophysiology2019,3.0.5,60.05102138609884,
To what extent did the music make you feel ,ANXIOUS ,30MonoWAV/30MonoS3.wav,1,1,3,11,,,,,0,9,9,10,0,5,5,1,,,,,,,,,3,1.9700398540007882,,,085,001,2019_Aug_28_1212,MusicAffectPsychophysiology2019,3.0.5,60.05102138609884,
To what extent did the music make you feel ,GUILTY,30MonoWAV/30MonoS3.wav,1,1,3,11,,,,,0,9,9,10,0,6,6,5,,,,,,,,,4,1.5692980439926032,,,085,001,2019_Aug_28_1212,MusicAffectPsychophysiology2019,3.0.5,60.05102138609884,
To what extent did the music make you feel ,SCARED,30MonoWAV/30MonoS3.wav,1,1,3,11,,,,,0,9,9,10,0,7,7,11,,,,,,,,,3,1.8199273169739172,,,085,001,2019_Aug_28_1212,MusicAffectPsychophysiology2019,3.0.5,60.05102138609884,
To what extent did the music make you feel ,ACTIVE,30MonoWAV/30MonoS3.wav,1,1,3,11,,,,,0,9,9,10,0,8,8,9,,,,,,,,,1,1.9366116870078258,,,085,001,2019_Aug_28_1212,MusicAffectPsychophysiology2019,3.0.5,60.05102138609884,
To what extent did the music make you feel ,HAPPY,30MonoWAV/30MonoS3.wav,1,1,3,11,,,,,0,9,9,10,0,9,9,6,,,,,,,,,1,1.6350369259889703,,,085,001,2019_Aug_28_1212,MusicAffectPsychophysiology2019,3.0.5,60.05102138609884,
To what extent did the music make you feel ,ANGRY,30MonoWAV/30MonoS3.wav,1,1,3,11,,,,,0,9,9,10,0,10,10,2,,,,,,,,,2,1.5356413480185438,,,085,001,2019_Aug_28_1212,MusicAffectPsychophysiology2019,3.0.5,60.05102138609884,
To what extent did the music make you feel ,TENDER,30MonoWAV/30MonoS3.wav,1,1,3,11,,,,,0,9,9,10,0,11,11,10,,,,,,,,,3,2.483920867991401,,,085,001,2019_Aug_28_1212,MusicAffectPsychophysiology2019,3.0.5,60.05102138609884,
,,30MonoWAV/30MonoS3.wav,1,1,3,11,,,,,0,9,9,10,,,,,,,,,,,,,,,,,085,001,2019_Aug_28_1212,MusicAffectPsychophysiology2019,3.0.5,60.05102138609884,
To what extent did the music make you feel ,ANGRY,30MonoWAV/30MonoF2.wav,1,2,2,2,,,,,0,10,10,1,0,0,0,2,,,4,3.8358917200239375,1,2.102424269018229,3,2.736986860021716,2,2.902088325994555,,,085,001,2019_Aug_28_1212,MusicAffectPsychophysiology2019,3.0.5,60.05102138609884,
To what extent did the music make you feel ,FRUSTRATED,30MonoWAV/30MonoF2.wav,1,2,2,2,,,,,0,10,10,1,0,1,1,3,,,,,,,,,2,1.5172012069961056,,,085,001,2019_Aug_28_1212,MusicAffectPsychophysiology2019,3.0.5,60.05102138609884,
To what extent did the music make you feel ,SAD,30MonoWAV/30MonoF2.wav,1,2,2,2,,,,,0,10,10,1,0,2,2,0,,,,,,,,,1,2.05272047498147,,,085,001,2019_Aug_28_1212,MusicAffectPsychophysiology2019,3.0.5,60.05102138609884,
To what extent did the music make you feel ,HAPPY,30MonoWAV/30MonoF2.wav,1,2,2,2,,,,,0,10,10,1,0,3,3,6,,,,,,,,,1,1.8993382640182972,,,085,001,2019_Aug_28_1212,MusicAffectPsychophysiology2019,3.0.5,60.05102138609884,
To what extent did the music make you feel ,ASHAMED,30MonoWAV/30MonoF2.wav,1,2,2,2,,,,,0,10,10,1,0,4,4,4,,,,,,,,,1,1.9194911110098474,,,085,001,2019_Aug_28_1212,MusicAffectPsychophysiology2019,3.0.5,60.05102138609884,
To what extent did the music make you feel ,EXCITED,30MonoWAV/30MonoF2.wav,1,2,2,2,,,,,0,10,10,1,0,5,5,7,,,,,,,,,3,2.3842988050018903,,,085,001,2019_Aug_28_1212,MusicAffectPsychophysiology2019,3.0.5,60.05102138609884,
To what extent did the music make you feel ,TENDER,30MonoWAV/30MonoF2.wav,1,2,2,2,,,,,0,10,10,1,0,6,6,10,,,,,,,,,1,1.8195805859868415,,,085,001,2019_Aug_28_1212,MusicAffectPsychophysiology2019,3.0.5,60.05102138609884,
To what extent did the music make you feel ,ALERT,30MonoWAV/30MonoF2.wav,1,2,2,2,,,,,0,10,10,1,0,7,7,8,,,,,,,,,5,1.4340160280116834,,,085,001,2019_Aug_28_1212,MusicAffectPsychophysiology2019,3.0.5,60.05102138609884,
To what extent did the music make you feel ,ACTIVE,30MonoWAV/30MonoF2.wav,1,2,2,2,,,,,0,10,10,1,0,8,8,9,,,,,,,,,4,2.0516608170000836,,,085,001,2019_Aug_28_1212,MusicAffectPsychophysiology2019,3.0.5,60.05102138609884,
To what extent did the music make you feel ,ANXIOUS ,30MonoWAV/30MonoF2.wav,1,2,2,2,,,,,0,10,10,1,0,9,9,1,,,,,,,,,5,1.769815687002847,,,085,001,2019_Aug_28_1212,MusicAffectPsychophysiology2019,3.0.5,60.05102138609884,
To what extent did the music make you feel ,SCARED,30MonoWAV/30MonoF2.wav,1,2,2,2,,,,,0,10,10,1,0,10,10,11,,,,,,,,,5,1.0205848049954511,,,085,001,2019_Aug_28_1212,MusicAffectPsychophysiology2019,3.0.5,60.05102138609884,
To what extent did the music make you feel ,GUILTY,30MonoWAV/30MonoF2.wav,1,2,2,2,,,,,0,10,10,1,0,11,11,5,,,,,,,,,2,2.116455762006808,,,085,001,2019_Aug_28_1212,MusicAffectPsychophysiology2019,3.0.5,60.05102138609884,
,,30MonoWAV/30MonoF2.wav,1,2,2,2,,,,,0,10,10,1,,,,,,,,,,,,,,,,,085,001,2019_Aug_28_1212,MusicAffectPsychophysiology2019,3.0.5,60.05102138609884,
To what extent did the music make you feel ,EXCITED,30MonoWAV/30MonoS2.wav,1,1,3,10,,,,,0,11,11,9,0,0,0,7,,,1,4.099294736981392,2,2.284907501016278,1,1.5361203819920775,1,4.210808812989853,,,085,001,2019_Aug_28_1212,MusicAffectPsychophysiology2019,3.0.5,60.05102138609884,
To what extent did the music make you feel ,ANGRY,30MonoWAV/30MonoS2.wav,1,1,3,10,,,,,0,11,11,9,0,1,1,2,,,,,,,,,2,1.7195410419953987,,,085,001,2019_Aug_28_1212,MusicAffectPsychophysiology2019,3.0.5,60.05102138609884,
To what extent did the music make you feel ,TENDER,30MonoWAV/30MonoS2.wav,1,1,3,10,,,,,0,11,11,9,0,2,2,10,,,,,,,,,3,1.618359396001324,,,085,001,2019_Aug_28_1212,MusicAffectPsychophysiology2019,3.0.5,60.05102138609884,
To what extent did the music make you feel ,HAPPY,30MonoWAV/30MonoS2.wav,1,1,3,10,,,,,0,11,11,9,0,3,3,6,,,,,,,,,1,1.7192549399915151,,,085,001,2019_Aug_28_1212,MusicAffectPsychophysiology2019,3.0.5,60.05102138609884,
To what extent did the music make you feel ,ASHAMED,30MonoWAV/30MonoS2.wav,1,1,3,10,,,,,0,11,11,9,0,4,4,4,,,,,,,,,3,1.9698767740046605,,,085,001,2019_Aug_28_1212,MusicAffectPsychophysiology2019,3.0.5,60.05102138609884,
To what extent did the music make you feel ,ALERT,30MonoWAV/30MonoS2.wav,1,1,3,10,,,,,0,11,11,9,0,5,5,8,,,,,,,,,1,2.401954459026456,,,085,001,2019_Aug_28_1212,MusicAffectPsychophysiology2019,3.0.5,60.05102138609884,
To what extent did the music make you feel ,ANXIOUS ,30MonoWAV/30MonoS2.wav,1,1,3,10,,,,,0,11,11,9,0,6,6,1,,,,,,,,,1,1.9865661390067544,,,085,001,2019_Aug_28_1212,MusicAffectPsychophysiology2019,3.0.5,60.05102138609884,
To what extent did the music make you feel ,SCARED,30MonoWAV/30MonoS2.wav,1,1,3,10,,,,,0,11,11,9,0,7,7,11,,,,,,,,,2,3.2344759429979604,,,085,001,2019_Aug_28_1212,MusicAffectPsychophysiology2019,3.0.5,60.05102138609884,
To what extent did the music make you feel ,GUILTY,30MonoWAV/30MonoS2.wav,1,1,3,10,,,,,0,11,11,9,0,8,8,5,,,,,,,,,4,2.0695695460017305,,,085,001,2019_Aug_28_1212,MusicAffectPsychophysiology2019,3.0.5,60.05102138609884,
To what extent did the music make you feel ,ACTIVE,30MonoWAV/30MonoS2.wav,1,1,3,10,,,,,0,11,11,9,0,9,9,9,,,,,,,,,1,2.93578713099123,,,085,001,2019_Aug_28_1212,MusicAffectPsychophysiology2019,3.0.5,60.05102138609884,
To what extent did the music make you feel ,SAD,30MonoWAV/30MonoS2.wav,1,1,3,10,,,,,0,11,11,9,0,10,10,0,,,,,,,,,4,1.652749995002523,,,085,001,2019_Aug_28_1212,MusicAffectPsychophysiology2019,3.0.5,60.05102138609884,
To what extent did the music make you feel ,FRUSTRATED,30MonoWAV/30MonoS2.wav,1,1,3,10,,,,,0,11,11,9,0,11,11,3,,,,,,,,,2,3.0535881760006305,,,085,001,2019_Aug_28_1212,MusicAffectPsychophysiology2019,3.0.5,60.05102138609884,
,,30MonoWAV/30MonoS2.wav,1,1,3,10,,,,,0,11,11,9,,,,,,,,,,,,,,,,,085,001,2019_Aug_28_1212,MusicAffectPsychophysiology2019,3.0.5,60.05102138609884,
To what extent did the music make you feel ,GUILTY,30MonoWAV/30MonoH2.wav,2,2,1,6,,,,,0,12,12,5,0,0,0,5,,,4,3.4698559060052503,4,3.8691105360048823,2,2.702378943999065,1,1.9685602769895922,,,085,001,2019_Aug_28_1212,MusicAffectPsychophysiology2019,3.0.5,60.05102138609884,
To what extent did the music make you feel ,ALERT,30MonoWAV/30MonoH2.wav,2,2,1,6,,,,,0,12,12,5,0,1,1,8,,,,,,,,,4,1.8519241100002546,,,085,001,2019_Aug_28_1212,MusicAffectPsychophysiology2019,3.0.5,60.05102138609884,
To what extent did the music make you feel ,HAPPY,30MonoWAV/30MonoH2.wav,2,2,1,6,,,,,0,12,12,5,0,2,2,6,,,,,,,,,4,2.203032876015641,,,085,001,2019_Aug_28_1212,MusicAffectPsychophysiology2019,3.0.5,60.05102138609884,
To what extent did the music make you feel ,SAD,30MonoWAV/30MonoH2.wav,2,2,1,6,,,,,0,12,12,5,0,3,3,0,,,,,,,,,1,1.8851575450098608,,,085,001,2019_Aug_28_1212,MusicAffectPsychophysiology2019,3.0.5,60.05102138609884,
To what extent did the music make you feel ,ACTIVE,30MonoWAV/30MonoH2.wav,2,2,1,6,,,,,0,12,12,5,0,4,4,9,,,,,,,,,5,1.2857408369891346,,,085,001,2019_Aug_28_1212,MusicAffectPsychophysiology2019,3.0.5,60.05102138609884,
To what extent did the music make you feel ,TENDER,30MonoWAV/30MonoH2.wav,2,2,1,6,,,,,0,12,12,5,0,5,5,10,,,,,,,,,5,2.036252960009733,,,085,001,2019_Aug_28_1212,MusicAffectPsychophysiology2019,3.0.5,60.05102138609884,
To what extent did the music make you feel ,FRUSTRATED,30MonoWAV/30MonoH2.wav,2,2,1,6,,,,,0,12,12,5,0,6,6,3,,,,,,,,,2,2.1191953450033907,,,085,001,2019_Aug_28_1212,MusicAffectPsychophysiology2019,3.0.5,60.05102138609884,
To what extent did the music make you feel ,ASHAMED,30MonoWAV/30MonoH2.wav,2,2,1,6,,,,,0,12,12,5,0,7,7,4,,,,,,,,,1,1.2504681950085796,,,085,001,2019_Aug_28_1212,MusicAffectPsychophysiology2019,3.0.5,60.05102138609884,
To what extent did the music make you feel ,ANXIOUS ,30MonoWAV/30MonoH2.wav,2,2,1,6,,,,,0,12,12,5,0,8,8,1,,,,,,,,,1,1.3702002010249998,,,085,001,2019_Aug_28_1212,MusicAffectPsychophysiology2019,3.0.5,60.05102138609884,
To what extent did the music make you feel ,EXCITED,30MonoWAV/30MonoH2.wav,2,2,1,6,,,,,0,12,12,5,0,9,9,7,,,,,,,,,5,1.3033398219849914,,,085,001,2019_Aug_28_1212,MusicAffectPsychophysiology2019,3.0.5,60.05102138609884,
To what extent did the music make you feel ,SCARED,30MonoWAV/30MonoH2.wav,2,2,1,6,,,,,0,12,12,5,0,10,10,11,,,,,,,,,1,1.883882916008588,,,085,001,2019_Aug_28_1212,MusicAffectPsychophysiology2019,3.0.5,60.05102138609884,
To what extent did the music make you feel ,ANGRY,30MonoWAV/30MonoH2.wav,2,2,1,6,,,,,0,12,12,5,0,11,11,2,,,,,,,,,1,1.520794035983272,,,085,001,2019_Aug_28_1212,MusicAffectPsychophysiology2019,3.0.5,60.05102138609884,
,,30MonoWAV/30MonoH2.wav,2,2,1,6,,,,,0,12,12,5,,,,,,,,,,,,,,,,,085,001,2019_Aug_28_1212,MusicAffectPsychophysiology2019,3.0.5,60.05102138609884,
To what extent did the music make you feel ,ANXIOUS ,30MonoWAV/30MonoT3.wav,2,1,4,15,,,,,0,13,13,14,0,0,0,1,,,3,3.7854291179974098,5,2.001929168996867,5,1.7336003000091296,3,3.478191047994187,,,085,001,2019_Aug_28_1212,MusicAffectPsychophysiology2019,3.0.5,60.05102138609884,
To what extent did the music make you feel ,SAD,30MonoWAV/30MonoT3.wav,2,1,4,15,,,,,0,13,13,14,0,1,1,0,,,,,,,,,1,5.236375387001317,,,085,001,2019_Aug_28_1212,MusicAffectPsychophysiology2019,3.0.5,60.05102138609884,
To what extent did the music make you feel ,ALERT,30MonoWAV/30MonoT3.wav,2,1,4,15,,,,,0,13,13,14,0,2,2,8,,,,,,,,,2,2.7182894500147086,,,085,001,2019_Aug_28_1212,MusicAffectPsychophysiology2019,3.0.5,60.05102138609884,
To what extent did the music make you feel ,ACTIVE,30MonoWAV/30MonoT3.wav,2,1,4,15,,,,,0,13,13,14,0,3,3,9,,,,,,,,,3,2.419658575003268,,,085,001,2019_Aug_28_1212,MusicAffectPsychophysiology2019,3.0.5,60.05102138609884,
To what extent did the music make you feel ,SCARED,30MonoWAV/30MonoT3.wav,2,1,4,15,,,,,0,13,13,14,0,4,4,11,,,,,,,,,1,1.6692149150185287,,,085,001,2019_Aug_28_1212,MusicAffectPsychophysiology2019,3.0.5,60.05102138609884,
To what extent did the music make you feel ,EXCITED,30MonoWAV/30MonoT3.wav,2,1,4,15,,,,,0,13,13,14,0,5,5,7,,,,,,,,,3,2.5528693700034637,,,085,001,2019_Aug_28_1212,MusicAffectPsychophysiology2019,3.0.5,60.05102138609884,
To what extent did the music make you feel ,TENDER,30MonoWAV/30MonoT3.wav,2,1,4,15,,,,,0,13,13,14,0,6,6,10,,,,,,,,,5,1.9525223250093404,,,085,001,2019_Aug_28_1212,MusicAffectPsychophysiology2019,3.0.5,60.05102138609884,
To what extent did the music make you feel ,HAPPY,30MonoWAV/30MonoT3.wav,2,1,4,15,,,,,0,13,13,14,0,7,7,6,,,,,,,,,5,2.318065016006585,,,085,001,2019_Aug_28_1212,MusicAffectPsychophysiology2019,3.0.5,60.05102138609884,
To what extent did the music make you feel ,GUILTY,30MonoWAV/30MonoT3.wav,2,1,4,15,,,,,0,13,13,14,0,8,8,5,,,,,,,,,1,2.085927273001289,,,085,001,2019_Aug_28_1212,MusicAffectPsychophysiology2019,3.0.5,60.05102138609884,
To what extent did the music make you feel ,ANGRY,30MonoWAV/30MonoT3.wav,2,1,4,15,,,,,0,13,13,14,0,9,9,2,,,,,,,,,1,1.1841601179912686,,,085,001,2019_Aug_28_1212,MusicAffectPsychophysiology2019,3.0.5,60.05102138609884,
To what extent did the music make you feel ,ASHAMED,30MonoWAV/30MonoT3.wav,2,1,4,15,,,,,0,13,13,14,0,10,10,4,,,,,,,,,1,1.9529327639902476,,,085,001,2019_Aug_28_1212,MusicAffectPsychophysiology2019,3.0.5,60.05102138609884,
To what extent did the music make you feel ,FRUSTRATED,30MonoWAV/30MonoT3.wav,2,1,4,15,,,,,0,13,13,14,0,11,11,3,,,,,,,,,4,1.4269644790038,,,085,001,2019_Aug_28_1212,MusicAffectPsychophysiology2019,3.0.5,60.05102138609884,
,,30MonoWAV/30MonoT3.wav,2,1,4,15,,,,,0,13,13,14,,,,,,,,,,,,,,,,,085,001,2019_Aug_28_1212,MusicAffectPsychophysiology2019,3.0.5,60.05102138609884,
To what extent did the music make you feel ,SAD,30MonoWAV/30MonoS1.wav,1,1,3,9,,,,,0,14,14,8,0,0,0,0,,,3,4.385648144001607,3,4.233195798005909,4,2.3829538410063833,4,3.620908263983438,,,085,001,2019_Aug_28_1212,MusicAffectPsychophysiology2019,3.0.5,60.05102138609884,
To what extent did the music make you feel ,ANGRY,30MonoWAV/30MonoS1.wav,1,1,3,9,,,,,0,14,14,8,0,1,1,2,,,,,,,,,1,1.851303038012702,,,085,001,2019_Aug_28_1212,MusicAffectPsychophysiology2019,3.0.5,60.05102138609884,
To what extent did the music make you feel ,EXCITED,30MonoWAV/30MonoS1.wav,1,1,3,9,,,,,0,14,14,8,0,2,2,7,,,,,,,,,3,2.1361208699818235,,,085,001,2019_Aug_28_1212,MusicAffectPsychophysiology2019,3.0.5,60.05102138609884,
To what extent did the music make you feel ,ALERT,30MonoWAV/30MonoS1.wav,1,1,3,9,,,,,0,14,14,8,0,3,3,8,,,,,,,,,2,1.6193762180046178,,,085,001,2019_Aug_28_1212,MusicAffectPsychophysiology2019,3.0.5,60.05102138609884,
To what extent did the music make you feel ,HAPPY,30MonoWAV/30MonoS1.wav,1,1,3,9,,,,,0,14,14,8,0,4,4,6,,,,,,,,,2,1.7021858640073333,,,085,001,2019_Aug_28_1212,MusicAffectPsychophysiology2019,3.0.5,60.05102138609884,
To what extent did the music make you feel ,TENDER,30MonoWAV/30MonoS1.wav,1,1,3,9,,,,,0,14,14,8,0,5,5,10,,,,,,,,,3,1.6684393319883384,,,085,001,2019_Aug_28_1212,MusicAffectPsychophysiology2019,3.0.5,60.05102138609884,
To what extent did the music make you feel ,ACTIVE,30MonoWAV/30MonoS1.wav,1,1,3,9,,,,,0,14,14,8,0,6,6,9,,,,,,,,,1,2.435870690009324,,,085,001,2019_Aug_28_1212,MusicAffectPsychophysiology2019,3.0.5,60.05102138609884,
To what extent did the music make you feel ,SCARED,30MonoWAV/30MonoS1.wav,1,1,3,9,,,,,0,14,14,8,0,7,7,11,,,,,,,,,2,2.001886172016384,,,085,001,2019_Aug_28_1212,MusicAffectPsychophysiology2019,3.0.5,60.05102138609884,
To what extent did the music make you feel ,ASHAMED,30MonoWAV/30MonoS1.wav,1,1,3,9,,,,,0,14,14,8,0,8,8,4,,,,,,,,,2,2.1193942069949117,,,085,001,2019_Aug_28_1212,MusicAffectPsychophysiology2019,3.0.5,60.05102138609884,
To what extent did the music make you feel ,GUILTY,30MonoWAV/30MonoS1.wav,1,1,3,9,,,,,0,14,14,8,0,9,9,5,,,,,,,,,1,1.7515652450092603,,,085,001,2019_Aug_28_1212,MusicAffectPsychophysiology2019,3.0.5,60.05102138609884,
To what extent did the music make you feel ,FRUSTRATED,30MonoWAV/30MonoS1.wav,1,1,3,9,,,,,0,14,14,8,0,10,10,3,,,,,,,,,1,1.7705900270084385,,,085,001,2019_Aug_28_1212,MusicAffectPsychophysiology2019,3.0.5,60.05102138609884,
To what extent did the music make you feel ,ANXIOUS ,30MonoWAV/30MonoS1.wav,1,1,3,9,,,,,0,14,14,8,0,11,11,1,,,,,,,,,1,1.8521987560088746,,,085,001,2019_Aug_28_1212,MusicAffectPsychophysiology2019,3.0.5,60.05102138609884,
,,30MonoWAV/30MonoS1.wav,1,1,3,9,,,,,0,14,14,8,,,,,,,,,,,,,,,,,085,001,2019_Aug_28_1212,MusicAffectPsychophysiology2019,3.0.5,60.05102138609884,
To what extent did the music make you feel ,SCARED,30MonoWAV/30MonoT1.wav,2,1,4,13,,,,,0,15,15,12,0,0,0,11,,,3,3.2243520990014076,5,2.052673379017506,5,1.618692446994828,1,2.595719700009795,,,085,001,2019_Aug_28_1212,MusicAffectPsychophysiology2019,3.0.5,60.05102138609884,
To what extent did the music make you feel ,ANGRY,30MonoWAV/30MonoT1.wav,2,1,4,13,,,,,0,15,15,12,0,1,1,2,,,,,,,,,1,1.5331111520063132,,,085,001,2019_Aug_28_1212,MusicAffectPsychophysiology2019,3.0.5,60.05102138609884,
To what extent did the music make you feel ,ANXIOUS ,30MonoWAV/30MonoT1.wav,2,1,4,13,,,,,0,15,15,12,0,2,2,1,,,,,,,,,1,1.235186716017779,,,085,001,2019_Aug_28_1212,MusicAffectPsychophysiology2019,3.0.5,60.05102138609884,
To what extent did the music make you feel ,EXCITED,30MonoWAV/30MonoT1.wav,2,1,4,13,,,,,0,15,15,12,0,3,3,7,,,,,,,,,4,1.553017094003735,,,085,001,2019_Aug_28_1212,MusicAffectPsychophysiology2019,3.0.5,60.05102138609884,
To what extent did the music make you feel ,HAPPY,30MonoWAV/30MonoT1.wav,2,1,4,13,,,,,0,15,15,12,0,4,4,6,,,,,,,,,5,1.0362397709977813,,,085,001,2019_Aug_28_1212,MusicAffectPsychophysiology2019,3.0.5,60.05102138609884,
To what extent did the music make you feel ,ASHAMED,30MonoWAV/30MonoT1.wav,2,1,4,13,,,,,0,15,15,12,0,5,5,4,,,,,,,,,1,1.2681908730010036,,,085,001,2019_Aug_28_1212,MusicAffectPsychophysiology2019,3.0.5,60.05102138609884,
To what extent did the music make you feel ,ACTIVE,30MonoWAV/30MonoT1.wav,2,1,4,13,,,,,0,15,15,12,0,6,6,9,,,,,,,,,4,1.2170935139874928,,,085,001,2019_Aug_28_1212,MusicAffectPsychophysiology2019,3.0.5,60.05102138609884,
To what extent did the music make you feel ,FRUSTRATED,30MonoWAV/30MonoT1.wav,2,1,4,13,,,,,0,15,15,12,0,7,7,3,,,,,,,,,1,1.534831728989957,,,085,001,2019_Aug_28_1212,MusicAffectPsychophysiology2019,3.0.5,60.05102138609884,
To what extent did the music make you feel ,SAD,30MonoWAV/30MonoT1.wav,2,1,4,13,,,,,0,15,15,12,0,8,8,0,,,,,,,,,2,1.7025882220186759,,,085,001,2019_Aug_28_1212,MusicAffectPsychophysiology2019,3.0.5,60.05102138609884,
To what extent did the music make you feel ,GUILTY,30MonoWAV/30MonoT1.wav,2,1,4,13,,,,,0,15,15,12,0,9,9,5,,,,,,,,,1,1.3025768430088647,,,085,001,2019_Aug_28_1212,MusicAffectPsychophysiology2019,3.0.5,60.05102138609884,
To what extent did the music make you feel ,ALERT,30MonoWAV/30MonoT1.wav,2,1,4,13,,,,,0,15,15,12,0,10,10,8,,,,,,,,,3,2.4532536240003537,,,085,001,2019_Aug_28_1212,MusicAffectPsychophysiology2019,3.0.5,60.05102138609884,
To what extent did the music make you feel ,TENDER,30MonoWAV/30MonoT1.wav,2,1,4,13,,,,,0,15,15,12,0,11,11,10,,,,,,,,,5,1.2014970949967392,,,085,001,2019_Aug_28_1212,MusicAffectPsychophysiology2019,3.0.5,60.05102138609884,
,,30MonoWAV/30MonoT1.wav,2,1,4,13,,,,,0,15,15,12,,,,,,,,,,,,,,,,,085,001,2019_Aug_28_1212,MusicAffectPsychophysiology2019,3.0.5,60.05102138609884,
To what extent did the music make you feel ,ANXIOUS ,30MonoWAV/30MonoT1.wav,2,1,4,13,,,,,1,0,16,12,0,0,0,1,,,3,6.169434693991207,4,2.185629446990788,5,2.269454905996099,1,1.620764738006983,,,085,001,2019_Aug_28_1212,MusicAffectPsychophysiology2019,3.0.5,60.05102138609884,
To what extent did the music make you feel ,EXCITED,30MonoWAV/30MonoT1.wav,2,1,4,13,,,,,1,0,16,12,0,1,1,7,,,,,,,,,3,3.5189554739918094,,,085,001,2019_Aug_28_1212,MusicAffectPsychophysiology2019,3.0.5,60.05102138609884,
To what extent did the music make you feel ,GUILTY,30MonoWAV/30MonoT1.wav,2,1,4,13,,,,,1,0,16,12,0,2,2,5,,,,,,,,,1,2.7859913569991477,,,085,001,2019_Aug_28_1212,MusicAffectPsychophysiology2019,3.0.5,60.05102138609884,
To what extent did the music make you feel ,SAD,30MonoWAV/30MonoT1.wav,2,1,4,13,,,,,1,0,16,12,0,3,3,0,,,,,,,,,2,1.6671756860159803,,,085,001,2019_Aug_28_1212,MusicAffectPsychophysiology2019,3.0.5,60.05102138609884,
To what extent did the music make you feel ,ANGRY,30MonoWAV/30MonoT1.wav,2,1,4,13,,,,,1,0,16,12,0,4,4,2,,,,,,,,,1,2.152773331006756,,,085,001,2019_Aug_28_1212,MusicAffectPsychophysiology2019,3.0.5,60.05102138609884,
To what extent did the music make you feel ,ASHAMED,30MonoWAV/30MonoT1.wav,2,1,4,13,,,,,1,0,16,12,0,5,5,4,,,,,,,,,1,1.6026370189792942,,,085,001,2019_Aug_28_1212,MusicAffectPsychophysiology2019,3.0.5,60.05102138609884,
To what extent did the music make you feel ,ALERT,30MonoWAV/30MonoT1.wav,2,1,4,13,,,,,1,0,16,12,0,6,6,8,,,,,,,,,2,3.8851622200163547,,,085,001,2019_Aug_28_1212,MusicAffectPsychophysiology2019,3.0.5,60.05102138609884,
To what extent did the music make you feel ,SCARED,30MonoWAV/30MonoT1.wav,2,1,4,13,,,,,1,0,16,12,0,7,7,11,,,,,,,,,1,1.3849911989818793,,,085,001,2019_Aug_28_1212,MusicAffectPsychophysiology2019,3.0.5,60.05102138609884,
To what extent did the music make you feel ,HAPPY,30MonoWAV/30MonoT1.wav,2,1,4,13,,,,,1,0,16,12,0,8,8,6,,,,,,,,,4,2.5008182909805328,,,085,001,2019_Aug_28_1212,MusicAffectPsychophysiology2019,3.0.5,60.05102138609884,
To what extent did the music make you feel ,ACTIVE,30MonoWAV/30MonoT1.wav,2,1,4,13,,,,,1,0,16,12,0,9,9,9,,,,,,,,,3,3.769416678987909,,,085,001,2019_Aug_28_1212,MusicAffectPsychophysiology2019,3.0.5,60.05102138609884,
To what extent did the music make you feel ,TENDER,30MonoWAV/30MonoT1.wav,2,1,4,13,,,,,1,0,16,12,0,10,10,10,,,,,,,,,5,1.9705492889916059,,,085,001,2019_Aug_28_1212,MusicAffectPsychophysiology2019,3.0.5,60.05102138609884,
To what extent did the music make you feel ,FRUSTRATED,30MonoWAV/30MonoT1.wav,2,1,4,13,,,,,1,0,16,12,0,11,11,3,,,,,,,,,2,2.5855975410086103,,,085,001,2019_Aug_28_1212,MusicAffectPsychophysiology2019,3.0.5,60.05102138609884,
,,30MonoWAV/30MonoT1.wav,2,1,4,13,,,,,1,0,16,12,,,,,,,,,,,,,,,,,085,001,2019_Aug_28_1212,MusicAffectPsychophysiology2019,3.0.5,60.05102138609884,
To what extent did the music make you feel ,ALERT,30MonoWAV/30MonoS2.wav,1,1,3,10,,,,,1,1,17,9,0,0,0,8,,,1,3.9358614780067,2,5.934673841984477,3,3.835627153981477,2,2.1614764590049163,,,085,001,2019_Aug_28_1212,MusicAffectPsychophysiology2019,3.0.5,60.05102138609884,
To what extent did the music make you feel ,GUILTY,30MonoWAV/30MonoS2.wav,1,1,3,10,,,,,1,1,17,9,0,1,1,5,,,,,,,,,3,1.8019196410023142,,,085,001,2019_Aug_28_1212,MusicAffectPsychophysiology2019,3.0.5,60.05102138609884,
To what extent did the music make you feel ,ASHAMED,30MonoWAV/30MonoS2.wav,1,1,3,10,,,,,1,1,17,9,0,2,2,4,,,,,,,,,3,1.686024025984807,,,085,001,2019_Aug_28_1212,MusicAffectPsychophysiology2019,3.0.5,60.05102138609884,
To what extent did the music make you feel ,SAD,30MonoWAV/30MonoS2.wav,1,1,3,10,,,,,1,1,17,9,0,3,3,0,,,,,,,,,5,2.1507780919782817,,,085,001,2019_Aug_28_1212,MusicAffectPsychophysiology2019,3.0.5,60.05102138609884,
To what extent did the music make you feel ,TENDER,30MonoWAV/30MonoS2.wav,1,1,3,10,,,,,1,1,17,9,0,4,4,10,,,,,,,,,3,1.3527355570113286,,,085,001,2019_Aug_28_1212,MusicAffectPsychophysiology2019,3.0.5,60.05102138609884,
To what extent did the music make you feel ,FRUSTRATED,30MonoWAV/30MonoS2.wav,1,1,3,10,,,,,1,1,17,9,0,5,5,3,,,,,,,,,2,2.3016979600070044,,,085,001,2019_Aug_28_1212,MusicAffectPsychophysiology2019,3.0.5,60.05102138609884,
To what extent did the music make you feel ,ANGRY,30MonoWAV/30MonoS2.wav,1,1,3,10,,,,,1,1,17,9,0,6,6,2,,,,,,,,,1,1.4197700149961747,,,085,001,2019_Aug_28_1212,MusicAffectPsychophysiology2019,3.0.5,60.05102138609884,
To what extent did the music make you feel ,EXCITED,30MonoWAV/30MonoS2.wav,1,1,3,10,,,,,1,1,17,9,0,7,7,7,,,,,,,,,1,2.5685819730279036,,,085,001,2019_Aug_28_1212,MusicAffectPsychophysiology2019,3.0.5,60.05102138609884,
To what extent did the music make you feel ,ACTIVE,30MonoWAV/30MonoS2.wav,1,1,3,10,,,,,1,1,17,9,0,8,8,9,,,,,,,,,1,1.6024017879972234,,,085,001,2019_Aug_28_1212,MusicAffectPsychophysiology2019,3.0.5,60.05102138609884,
To what extent did the music make you feel ,ANXIOUS ,30MonoWAV/30MonoS2.wav,1,1,3,10,,,,,1,1,17,9,0,9,9,1,,,,,,,,,1,1.5019151629821863,,,085,001,2019_Aug_28_1212,MusicAffectPsychophysiology2019,3.0.5,60.05102138609884,
To what extent did the music make you feel ,HAPPY,30MonoWAV/30MonoS2.wav,1,1,3,10,,,,,1,1,17,9,0,10,10,6,,,,,,,,,1,1.9200912070227787,,,085,001,2019_Aug_28_1212,MusicAffectPsychophysiology2019,3.0.5,60.05102138609884,
To what extent did the music make you feel ,SCARED,30MonoWAV/30MonoS2.wav,1,1,3,10,,,,,1,1,17,9,0,11,11,11,,,,,,,,,1,1.4024375200096983,,,085,001,2019_Aug_28_1212,MusicAffectPsychophysiology2019,3.0.5,60.05102138609884,
,,30MonoWAV/30MonoS2.wav,1,1,3,10,,,,,1,1,17,9,,,,,,,,,,,,,,,,,085,001,2019_Aug_28_1212,MusicAffectPsychophysiology2019,3.0.5,60.05102138609884,
To what extent did the music make you feel ,HAPPY,30MonoWAV/30MonoH2.wav,2,2,1,6,,,,,1,2,18,5,0,0,0,6,,,5,2.93752826898708,4,1.7515139570168685,4,1.702714710001601,5,2.354825389018515,,,085,001,2019_Aug_28_1212,MusicAffectPsychophysiology2019,3.0.5,60.05102138609884,
To what extent did the music make you feel ,ALERT,30MonoWAV/30MonoH2.wav,2,2,1,6,,,,,1,2,18,5,0,1,1,8,,,,,,,,,4,2.366746993007837,,,085,001,2019_Aug_28_1212,MusicAffectPsychophysiology2019,3.0.5,60.05102138609884,
To what extent did the music make you feel ,ANGRY,30MonoWAV/30MonoH2.wav,2,2,1,6,,,,,1,2,18,5,0,2,2,2,,,,,,,,,1,1.65142720300355,,,085,001,2019_Aug_28_1212,MusicAffectPsychophysiology2019,3.0.5,60.05102138609884,
To what extent did the music make you feel ,TENDER,30MonoWAV/30MonoH2.wav,2,2,1,6,,,,,1,2,18,5,0,3,3,10,,,,,,,,,3,1.8519207740027923,,,085,001,2019_Aug_28_1212,MusicAffectPsychophysiology2019,3.0.5,60.05102138609884,
To what extent did the music make you feel ,ACTIVE,30MonoWAV/30MonoH2.wav,2,2,1,6,,,,,1,2,18,5,0,4,4,9,,,,,,,,,5,1.2868959220068064,,,085,001,2019_Aug_28_1212,MusicAffectPsychophysiology2019,3.0.5,60.05102138609884,
To what extent did the music make you feel ,SAD,30MonoWAV/30MonoH2.wav,2,2,1,6,,,,,1,2,18,5,0,5,5,0,,,,,,,,,1,1.4184649800008629,,,085,001,2019_Aug_28_1212,MusicAffectPsychophysiology2019,3.0.5,60.05102138609884,
To what extent did the music make you feel ,FRUSTRATED,30MonoWAV/30MonoH2.wav,2,2,1,6,,,,,1,2,18,5,0,6,6,3,,,,,,,,,1,1.3518928920093458,,,085,001,2019_Aug_28_1212,MusicAffectPsychophysiology2019,3.0.5,60.05102138609884,
To what extent did the music make you feel ,ANXIOUS ,30MonoWAV/30MonoH2.wav,2,2,1,6,,,,,1,2,18,5,0,7,7,1,,,,,,,,,1,3.1674040170037188,,,085,001,2019_Aug_28_1212,MusicAffectPsychophysiology2019,3.0.5,60.05102138609884,
To what extent did the music make you feel ,EXCITED,30MonoWAV/30MonoH2.wav,2,2,1,6,,,,,1,2,18,5,0,8,8,7,,,,,,,,,5,2.6355510110151954,,,085,001,2019_Aug_28_1212,MusicAffectPsychophysiology2019,3.0.5,60.05102138609884,
To what extent did the music make you feel ,GUILTY,30MonoWAV/30MonoH2.wav,2,2,1,6,,,,,1,2,18,5,0,9,9,5,,,,,,,,,1,1.8356323660118505,,,085,001,2019_Aug_28_1212,MusicAffectPsychophysiology2019,3.0.5,60.05102138609884,
To what extent did the music make you feel ,SCARED,30MonoWAV/30MonoH2.wav,2,2,1,6,,,,,1,2,18,5,0,10,10,11,,,,,,,,,1,1.219304911996005,,,085,001,2019_Aug_28_1212,MusicAffectPsychophysiology2019,3.0.5,60.05102138609884,
To what extent did the music make you feel ,ASHAMED,30MonoWAV/30MonoH2.wav,2,2,1,6,,,,,1,2,18,5,0,11,11,4,,,,,,,,,1,1.1845080759958364,,,085,001,2019_Aug_28_1212,MusicAffectPsychophysiology2019,3.0.5,60.05102138609884,
,,30MonoWAV/30MonoH2.wav,2,2,1,6,,,,,1,2,18,5,,,,,,,,,,,,,,,,,085,001,2019_Aug_28_1212,MusicAffectPsychophysiology2019,3.0.5,60.05102138609884,
To what extent did the music make you feel ,ACTIVE,30MonoWAV/30MonoH4.wav,2,2,1,8,,,,,1,3,19,7,0,0,0,9,,,5,1.986318940995261,5,1.4024935259949416,5,1.0352400149859022,5,1.613137677020859,,,085,001,2019_Aug_28_1212,MusicAffectPsychophysiology2019,3.0.5,60.05102138609884,
To what extent did the music make you feel ,SAD,30MonoWAV/30MonoH4.wav,2,2,1,8,,,,,1,3,19,7,0,1,1,0,,,,,,,,,1,1.5193131399864797,,,085,001,2019_Aug_28_1212,MusicAffectPsychophysiology2019,3.0.5,60.05102138609884,
To what extent did the music make you feel ,ASHAMED,30MonoWAV/30MonoH4.wav,2,2,1,8,,,,,1,3,19,7,0,2,2,4,,,,,,,,,1,1.052484068000922,,,085,001,2019_Aug_28_1212,MusicAffectPsychophysiology2019,3.0.5,60.05102138609884,
To what extent did the music make you feel ,HAPPY,30MonoWAV/30MonoH4.wav,2,2,1,8,,,,,1,3,19,7,0,3,3,6,,,,,,,,,5,1.1859368850127794,,,085,001,2019_Aug_28_1212,MusicAffectPsychophysiology2019,3.0.5,60.05102138609884,
To what extent did the music make you feel ,GUILTY,30MonoWAV/30MonoH4.wav,2,2,1,8,,,,,1,3,19,7,0,4,4,5,,,,,,,,,1,1.1671102789987344,,,085,001,2019_Aug_28_1212,MusicAffectPsychophysiology2019,3.0.5,60.05102138609884,
To what extent did the music make you feel ,ANGRY,30MonoWAV/30MonoH4.wav,2,2,1,8,,,,,1,3,19,7,0,5,5,2,,,,,,,,,1,1.1358954550232738,,,085,001,2019_Aug_28_1212,MusicAffectPsychophysiology2019,3.0.5,60.05102138609884,
To what extent did the music make you feel ,SCARED,30MonoWAV/30MonoH4.wav,2,2,1,8,,,,,1,3,19,7,0,6,6,11,,,,,,,,,1,1.1674258499988355,,,085,001,2019_Aug_28_1212,MusicAffectPsychophysiology2019,3.0.5,60.05102138609884,
To what extent did the music make you feel ,ANXIOUS ,30MonoWAV/30MonoH4.wav,2,2,1,8,,,,,1,3,19,7,0,7,7,1,,,,,,,,,1,1.1022886429855134,,,085,001,2019_Aug_28_1212,MusicAffectPsychophysiology2019,3.0.5,60.05102138609884,
To what extent did the music make you feel ,FRUSTRATED,30MonoWAV/30MonoH4.wav,2,2,1,8,,,,,1,3,19,7,0,8,8,3,,,,,,,,,1,1.8682513939857017,,,085,001,2019_Aug_28_1212,MusicAffectPsychophysiology2019,3.0.5,60.05102138609884,
To what extent did the music make you feel ,TENDER,30MonoWAV/30MonoH4.wav,2,2,1,8,,,,,1,3,19,7,0,9,9,10,,,,,,,,,5,1.1024798270082101,,,085,001,2019_Aug_28_1212,MusicAffectPsychophysiology2019,3.0.5,60.05102138609884,
To what extent did the music make you feel ,EXCITED,30MonoWAV/30MonoH4.wav,2,2,1,8,,,,,1,3,19,7,0,10,10,7,,,,,,,,,5,0.9526705680182204,,,085,001,2019_Aug_28_1212,MusicAffectPsychophysiology2019,3.0.5,60.05102138609884,
To what extent did the music make you feel ,ALERT,30MonoWAV/30MonoH4.wav,2,2,1,8,,,,,1,3,19,7,0,11,11,8,,,,,,,,,4,2.1359008610015735,,,085,001,2019_Aug_28_1212,MusicAffectPsychophysiology2019,3.0.5,60.05102138609884,
,,30MonoWAV/30MonoH4.wav,2,2,1,8,,,,,1,3,19,7,,,,,,,,,,,,,,,,,085,001,2019_Aug_28_1212,MusicAffectPsychophysiology2019,3.0.5,60.05102138609884,
To what extent did the music make you feel ,SAD,30MonoWAV/30MonoF4.wav,1,2,2,4,,,,,1,4,20,3,0,0,0,0,,,4,4.5861118150060065,2,1.7187193749996368,3,2.1191378840012476,1,1.8394685829989612,,,085,001,2019_Aug_28_1212,MusicAffectPsychophysiology2019,3.0.5,60.05102138609884,
To what extent did the music make you feel ,HAPPY,30MonoWAV/30MonoF4.wav,1,2,2,4,,,,,1,4,20,3,0,1,1,6,,,,,,,,,1,2.052585004013963,,,085,001,2019_Aug_28_1212,MusicAffectPsychophysiology2019,3.0.5,60.05102138609884,
To what extent did the music make you feel ,ANXIOUS ,30MonoWAV/30MonoF4.wav,1,2,2,4,,,,,1,4,20,3,0,2,2,1,,,,,,,,,3,3.1217962020018604,,,085,001,2019_Aug_28_1212,MusicAffectPsychophysiology2019,3.0.5,60.05102138609884,
To what extent did the music make you feel ,ACTIVE,30MonoWAV/30MonoF4.wav,1,2,2,4,,,,,1,4,20,3,0,3,3,9,,,,,,,,,3,2.4360503269999754,,,085,001,2019_Aug_28_1212,MusicAffectPsychophysiology2019,3.0.5,60.05102138609884,
To what extent did the music make you feel ,ASHAMED,30MonoWAV/30MonoF4.wav,1,2,2,4,,,,,1,4,20,3,0,4,4,4,,,,,,,,,1,1.6017579879844561,,,085,001,2019_Aug_28_1212,MusicAffectPsychophysiology2019,3.0.5,60.05102138609884,
To what extent did the music make you feel ,EXCITED,30MonoWAV/30MonoF4.wav,1,2,2,4,,,,,1,4,20,3,0,5,5,7,,,,,,,,,3,1.5520907540048938,,,085,001,2019_Aug_28_1212,MusicAffectPsychophysiology2019,3.0.5,60.05102138609884,
To what extent did the music make you feel ,ANGRY,30MonoWAV/30MonoF4.wav,1,2,2,4,,,,,1,4,20,3,0,6,6,2,,,,,,,,,1,1.7365467050112784,,,085,001,2019_Aug_28_1212,MusicAffectPsychophysiology2019,3.0.5,60.05102138609884,
To what extent did the music make you feel ,ALERT,30MonoWAV/30MonoF4.wav,1,2,2,4,,,,,1,4,20,3,0,7,7,8,,,,,,,,,5,3.0184853920072783,,,085,001,2019_Aug_28_1212,MusicAffectPsychophysiology2019,3.0.5,60.05102138609884,
To what extent did the music make you feel ,FRUSTRATED,30MonoWAV/30MonoF4.wav,1,2,2,4,,,,,1,4,20,3,0,8,8,3,,,,,,,,,2,2.1354029909998644,,,085,001,2019_Aug_28_1212,MusicAffectPsychophysiology2019,3.0.5,60.05102138609884,
To what extent did the music make you feel ,SCARED,30MonoWAV/30MonoF4.wav,1,2,2,4,,,,,1,4,20,3,0,9,9,11,,,,,,,,,2,2.769080730009591,,,085,001,2019_Aug_28_1212,MusicAffectPsychophysiology2019,3.0.5,60.05102138609884,
To what extent did the music make you feel ,GUILTY,30MonoWAV/30MonoF4.wav,1,2,2,4,,,,,1,4,20,3,0,10,10,5,,,,,,,,,1,1.4002702650032006,,,085,001,2019_Aug_28_1212,MusicAffectPsychophysiology2019,3.0.5,60.05102138609884,
To what extent did the music make you feel ,TENDER,30MonoWAV/30MonoF4.wav,1,2,2,4,,,,,1,4,20,3,0,11,11,10,,,,,,,,,2,2.0163846889918204,,,085,001,2019_Aug_28_1212,MusicAffectPsychophysiology2019,3.0.5,60.05102138609884,
,,30MonoWAV/30MonoF4.wav,1,2,2,4,,,,,1,4,20,3,,,,,,,,,,,,,,,,,085,001,2019_Aug_28_1212,MusicAffectPsychophysiology2019,3.0.5,60.05102138609884,
To what extent did the music make you feel ,ANGRY,30MonoWAV/30MonoF3.wav,1,2,2,3,,,,,1,5,21,2,0,0,0,2,,,4,2.7846314880007412,3,2.6028348919935524,5,1.9013891800132114,1,2.049827570008347,,,085,001,2019_Aug_28_1212,MusicAffectPsychophysiology2019,3.0.5,60.05102138609884,
To what extent did the music make you feel ,GUILTY,30MonoWAV/30MonoF3.wav,1,2,2,3,,,,,1,5,21,2,0,1,1,5,,,,,,,,,1,1.7689419900125358,,,085,001,2019_Aug_28_1212,MusicAffectPsychophysiology2019,3.0.5,60.05102138609884,
To what extent did the music make you feel ,TENDER,30MonoWAV/30MonoF3.wav,1,2,2,3,,,,,1,5,21,2,0,2,2,10,,,,,,,,,3,1.3006631860043854,,,085,001,2019_Aug_28_1212,MusicAffectPsychophysiology2019,3.0.5,60.05102138609884,
To what extent did the music make you feel ,SAD,30MonoWAV/30MonoF3.wav,1,2,2,3,,,,,1,5,21,2,0,3,3,0,,,,,,,,,1,1.5031641880050302,,,085,001,2019_Aug_28_1212,MusicAffectPsychophysiology2019,3.0.5,60.05102138609884,
To what extent did the music make you feel ,ASHAMED,30MonoWAV/30MonoF3.wav,1,2,2,3,,,,,1,5,21,2,0,4,4,4,,,,,,,,,1,1.300495622010203,,,085,001,2019_Aug_28_1212,MusicAffectPsychophysiology2019,3.0.5,60.05102138609884,
To what extent did the music make you feel ,ALERT,30MonoWAV/30MonoF3.wav,1,2,2,3,,,,,1,5,21,2,0,5,5,8,,,,,,,,,4,1.9026968980033416,,,085,001,2019_Aug_28_1212,MusicAffectPsychophysiology2019,3.0.5,60.05102138609884,
To what extent did the music make you feel ,ANXIOUS ,30MonoWAV/30MonoF3.wav,1,2,2,3,,,,,1,5,21,2,0,6,6,1,,,,,,,,,4,1.4687241619976703,,,085,001,2019_Aug_28_1212,MusicAffectPsychophysiology2019,3.0.5,60.05102138609884,
To what extent did the music make you feel ,ACTIVE,30MonoWAV/30MonoF3.wav,1,2,2,3,,,,,1,5,21,2,0,7,7,9,,,,,,,,,4,2.8525536569941323,,,085,001,2019_Aug_28_1212,MusicAffectPsychophysiology2019,3.0.5,60.05102138609884,
To what extent did the music make you feel ,EXCITED,30MonoWAV/30MonoF3.wav,1,2,2,3,,,,,1,5,21,2,0,8,8,7,,,,,,,,,5,2.1019707629748154,,,085,001,2019_Aug_28_1212,MusicAffectPsychophysiology2019,3.0.5,60.05102138609884,
To what extent did the music make you feel ,FRUSTRATED,30MonoWAV/30MonoF3.wav,1,2,2,3,,,,,1,5,21,2,0,9,9,3,,,,,,,,,1,6.386830255010864,,,085,001,2019_Aug_28_1212,MusicAffectPsychophysiology2019,3.0.5,60.05102138609884,
To what extent did the music make you feel ,HAPPY,30MonoWAV/30MonoF3.wav,1,2,2,3,,,,,1,5,21,2,0,10,10,6,,,,,,,,,3,2.136324847000651,,,085,001,2019_Aug_28_1212,MusicAffectPsychophysiology2019,3.0.5,60.05102138609884,
To what extent did the music make you feel ,SCARED,30MonoWAV/30MonoF3.wav,1,2,2,3,,,,,1,5,21,2,0,11,11,11,,,,,,,,,3,1.6459297969995532,,,085,001,2019_Aug_28_1212,MusicAffectPsychophysiology2019,3.0.5,60.05102138609884,
,,30MonoWAV/30MonoF3.wav,1,2,2,3,,,,,1,5,21,2,,,,,,,,,,,,,,,,,085,001,2019_Aug_28_1212,MusicAffectPsychophysiology2019,3.0.5,60.05102138609884,
To what extent did the music make you feel ,SAD,30MonoWAV/30MonoF2.wav,1,2,2,2,,,,,1,6,22,1,0,0,0,0,,,5,3.2179034689906985,2,4.100658022973221,3,4.235250027995789,1,1.890527016017586,,,085,001,2019_Aug_28_1212,MusicAffectPsychophysiology2019,3.0.5,60.05102138609884,
To what extent did the music make you feel ,EXCITED,30MonoWAV/30MonoF2.wav,1,2,2,2,,,,,1,6,22,1,0,1,1,7,,,,,,,,,4,2.056188824994024,,,085,001,2019_Aug_28_1212,MusicAffectPsychophysiology2019,3.0.5,60.05102138609884,
To what extent did the music make you feel ,FRUSTRATED,30MonoWAV/30MonoF2.wav,1,2,2,2,,,,,1,6,22,1,0,2,2,3,,,,,,,,,1,2.7371928640059195,,,085,001,2019_Aug_28_1212,MusicAffectPsychophysiology2019,3.0.5,60.05102138609884,
To what extent did the music make you feel ,ASHAMED,30MonoWAV/30MonoF2.wav,1,2,2,2,,,,,1,6,22,1,0,3,3,4,,,,,,,,,1,1.2519335859979037,,,085,001,2019_Aug_28_1212,MusicAffectPsychophysiology2019,3.0.5,60.05102138609884,
To what extent did the music make you feel ,GUILTY,30MonoWAV/30MonoF2.wav,1,2,2,2,,,,,1,6,22,1,0,4,4,5,,,,,,,,,1,1.336305866978364,,,085,001,2019_Aug_28_1212,MusicAffectPsychophysiology2019,3.0.5,60.05102138609884,
To what extent did the music make you feel ,SCARED,30MonoWAV/30MonoF2.wav,1,2,2,2,,,,,1,6,22,1,0,5,5,11,,,,,,,,,5,1.11883012499311,,,085,001,2019_Aug_28_1212,MusicAffectPsychophysiology2019,3.0.5,60.05102138609884,
To what extent did the music make you feel ,HAPPY,30MonoWAV/30MonoF2.wav,1,2,2,2,,,,,1,6,22,1,0,6,6,6,,,,,,,,,3,3.9192863809876144,,,085,001,2019_Aug_28_1212,MusicAffectPsychophysiology2019,3.0.5,60.05102138609884,
To what extent did the music make you feel ,ALERT,30MonoWAV/30MonoF2.wav,1,2,2,2,,,,,1,6,22,1,0,7,7,8,,,,,,,,,5,1.1858781549963169,,,085,001,2019_Aug_28_1212,MusicAffectPsychophysiology2019,3.0.5,60.05102138609884,
To what extent did the music make you feel ,ANXIOUS ,30MonoWAV/30MonoF2.wav,1,2,2,2,,,,,1,6,22,1,0,8,8,1,,,,,,,,,5,1.752337619982427,,,085,001,2019_Aug_28_1212,MusicAffectPsychophysiology2019,3.0.5,60.05102138609884,
To what extent did the music make you feel ,ACTIVE,30MonoWAV/30MonoF2.wav,1,2,2,2,,,,,1,6,22,1,0,9,9,9,,,,,,,,,5,1.8000792899983935,,,085,001,2019_Aug_28_1212,MusicAffectPsychophysiology2019,3.0.5,60.05102138609884,
To what extent did the music make you feel ,ANGRY,30MonoWAV/30MonoF2.wav,1,2,2,2,,,,,1,6,22,1,0,10,10,2,,,,,,,,,1,2.0679375659965444,,,085,001,2019_Aug_28_1212,MusicAffectPsychophysiology2019,3.0.5,60.05102138609884,
To what extent did the music make you feel ,TENDER,30MonoWAV/30MonoF2.wav,1,2,2,2,,,,,1,6,22,1,0,11,11,10,,,,,,,,,1,1.6522817299992312,,,085,001,2019_Aug_28_1212,MusicAffectPsychophysiology2019,3.0.5,60.05102138609884,
,,30MonoWAV/30MonoF2.wav,1,2,2,2,,,,,1,6,22,1,,,,,,,,,,,,,,,,,085,001,2019_Aug_28_1212,MusicAffectPsychophysiology2019,3.0.5,60.05102138609884,
To what extent did the music make you feel ,FRUSTRATED,30MonoWAV/30MonoT4.wav,2,1,4,16,,,,,1,7,23,15,0,0,0,3,,,4,4.468605245987419,5,1.8201011150085833,3,4.835836056008702,1,2.1690858509973623,,,085,001,2019_Aug_28_1212,MusicAffectPsychophysiology2019,3.0.5,60.05102138609884,
To what extent did the music make you feel ,GUILTY,30MonoWAV/30MonoT4.wav,2,1,4,16,,,,,1,7,23,15,0,1,1,5,,,,,,,,,1,0.9854121300159022,,,085,001,2019_Aug_28_1212,MusicAffectPsychophysiology2019,3.0.5,60.05102138609884,
To what extent did the music make you feel ,ALERT,30MonoWAV/30MonoT4.wav,2,1,4,16,,,,,1,7,23,15,0,2,2,8,,,,,,,,,3,2.503150996984914,,,085,001,2019_Aug_28_1212,MusicAffectPsychophysiology2019,3.0.5,60.05102138609884,
To what extent did the music make you feel ,ASHAMED,30MonoWAV/30MonoT4.wav,2,1,4,16,,,,,1,7,23,15,0,3,3,4,,,,,,,,,1,2.0836859729897697,,,085,001,2019_Aug_28_1212,MusicAffectPsychophysiology2019,3.0.5,60.05102138609884,
To what extent did the music make you feel ,ANGRY,30MonoWAV/30MonoT4.wav,2,1,4,16,,,,,1,7,23,15,0,4,4,2,,,,,,,,,1,1.1694267140119337,,,085,001,2019_Aug_28_1212,MusicAffectPsychophysiology2019,3.0.5,60.05102138609884,
To what extent did the music make you feel ,ANXIOUS ,30MonoWAV/30MonoT4.wav,2,1,4,16,,,,,1,7,23,15,0,5,5,1,,,,,,,,,1,1.3527172849862836,,,085,001,2019_Aug_28_1212,MusicAffectPsychophysiology2019,3.0.5,60.05102138609884,
To what extent did the music make you feel ,EXCITED,30MonoWAV/30MonoT4.wav,2,1,4,16,,,,,1,7,23,15,0,6,6,7,,,,,,,,,4,1.3854787590098567,,,085,001,2019_Aug_28_1212,MusicAffectPsychophysiology2019,3.0.5,60.05102138609884,
To what extent did the music make you feel ,SCARED,30MonoWAV/30MonoT4.wav,2,1,4,16,,,,,1,7,23,15,0,7,7,11,,,,,,,,,1,2.336421979009174,,,085,001,2019_Aug_28_1212,MusicAffectPsychophysiology2019,3.0.5,60.05102138609884,
To what extent did the music make you feel ,SAD,30MonoWAV/30MonoT4.wav,2,1,4,16,,,,,1,7,23,15,0,8,8,0,,,,,,,,,2,1.819028593978146,,,085,001,2019_Aug_28_1212,MusicAffectPsychophysiology2019,3.0.5,60.05102138609884,
To what extent did the music make you feel ,ACTIVE,30MonoWAV/30MonoT4.wav,2,1,4,16,,,,,1,7,23,15,0,9,9,9,,,,,,,,,3,3.4020763089938555,,,085,001,2019_Aug_28_1212,MusicAffectPsychophysiology2019,3.0.5,60.05102138609884,
To what extent did the music make you feel ,HAPPY,30MonoWAV/30MonoT4.wav,2,1,4,16,,,,,1,7,23,15,0,10,10,6,,,,,,,,,5,1.137886737997178,,,085,001,2019_Aug_28_1212,MusicAffectPsychophysiology2019,3.0.5,60.05102138609884,
To what extent did the music make you feel ,TENDER,30MonoWAV/30MonoT4.wav,2,1,4,16,,,,,1,7,23,15,0,11,11,10,,,,,,,,,5,1.111026367987506,,,085,001,2019_Aug_28_1212,MusicAffectPsychophysiology2019,3.0.5,60.05102138609884,
,,30MonoWAV/30MonoT4.wav,2,1,4,16,,,,,1,7,23,15,,,,,,,,,,,,,,,,,085,001,2019_Aug_28_1212,MusicAffectPsychophysiology2019,3.0.5,60.05102138609884,
To what extent did the music make you feel ,GUILTY,30MonoWAV/30MonoT2.wav,2,1,4,14,,,,,1,8,24,13,0,0,0,5,,,5,3.7030206980125513,5,1.2189934860216454,4,1.550140535022365,1,1.5577600210090168,,,085,001,2019_Aug_28_1212,MusicAffectPsychophysiology2019,3.0.5,60.05102138609884,
To what extent did the music make you feel ,EXCITED,30MonoWAV/30MonoT2.wav,2,1,4,14,,,,,1,8,24,13,0,1,1,7,,,,,,,,,5,2.2003045870224014,,,085,001,2019_Aug_28_1212,MusicAffectPsychophysiology2019,3.0.5,60.05102138609884,
To what extent did the music make you feel ,ASHAMED,30MonoWAV/30MonoT2.wav,2,1,4,14,,,,,1,8,24,13,0,2,2,4,,,,,,,,,1,1.269824785005767,,,085,001,2019_Aug_28_1212,MusicAffectPsychophysiology2019,3.0.5,60.05102138609884,
To what extent did the music make you feel ,ANGRY,30MonoWAV/30MonoT2.wav,2,1,4,14,,,,,1,8,24,13,0,3,3,2,,,,,,,,,1,1.1864754829730373,,,085,001,2019_Aug_28_1212,MusicAffectPsychophysiology2019,3.0.5,60.05102138609884,
To what extent did the music make you feel ,ALERT,30MonoWAV/30MonoT2.wav,2,1,4,14,,,,,1,8,24,13,0,4,4,8,,,,,,,,,2,1.683503426000243,,,085,001,2019_Aug_28_1212,MusicAffectPsychophysiology2019,3.0.5,60.05102138609884,
To what extent did the music make you feel ,HAPPY,30MonoWAV/30MonoT2.wav,2,1,4,14,,,,,1,8,24,13,0,5,5,6,,,,,,,,,5,1.6523014649865218,,,085,001,2019_Aug_28_1212,MusicAffectPsychophysiology2019,3.0.5,60.05102138609884,
To what extent did the music make you feel ,SAD,30MonoWAV/30MonoT2.wav,2,1,4,14,,,,,1,8,24,13,0,6,6,0,,,,,,,,,2,1.5360972310008947,,,085,001,2019_Aug_28_1212,MusicAffectPsychophysiology2019,3.0.5,60.05102138609884,
To what extent did the music make you feel ,TENDER,30MonoWAV/30MonoT2.wav,2,1,4,14,,,,,1,8,24,13,0,7,7,10,,,,,,,,,5,1.369003005005652,,,085,001,2019_Aug_28_1212,MusicAffectPsychophysiology2019,3.0.5,60.05102138609884,
To what extent did the music make you feel ,ANXIOUS ,30MonoWAV/30MonoT2.wav,2,1,4,14,,,,,1,8,24,13,0,8,8,1,,,,,,,,,1,1.468571787001565,,,085,001,2019_Aug_28_1212,MusicAffectPsychophysiology2019,3.0.5,60.05102138609884,
To what extent did the music make you feel ,ACTIVE,30MonoWAV/30MonoT2.wav,2,1,4,14,,,,,1,8,24,13,0,9,9,9,,,,,,,,,3,1.4358636960096192,,,085,001,2019_Aug_28_1212,MusicAffectPsychophysiology2019,3.0.5,60.05102138609884,
To what extent did the music make you feel ,SCARED,30MonoWAV/30MonoT2.wav,2,1,4,14,,,,,1,8,24,13,0,10,10,11,,,,,,,,,1,1.3866069659998175,,,085,001,2019_Aug_28_1212,MusicAffectPsychophysiology2019,3.0.5,60.05102138609884,
To what extent did the music make you feel ,FRUSTRATED,30MonoWAV/30MonoT2.wav,2,1,4,14,,,,,1,8,24,13,0,11,11,3,,,,,,,,,1,1.206231783988187,,,085,001,2019_Aug_28_1212,MusicAffectPsychophysiology2019,3.0.5,60.05102138609884,
,,30MonoWAV/30MonoT2.wav,2,1,4,14,,,,,1,8,24,13,,,,,,,,,,,,,,,,,085,001,2019_Aug_28_1212,MusicAffectPsychophysiology2019,3.0.5,60.05102138609884,
To what extent did the music make you feel ,ACTIVE,30MonoWAV/30MonoS3.wav,1,1,3,11,,,,,1,9,25,10,0,0,0,9,,,3,3.1852257600112353,2,1.6857131730066612,1,2.5026333490095567,1,3.469098617992131,,,085,001,2019_Aug_28_1212,MusicAffectPsychophysiology2019,3.0.5,60.05102138609884,
To what extent did the music make you feel ,EXCITED,30MonoWAV/30MonoS3.wav,1,1,3,11,,,,,1,9,25,10,0,1,1,7,,,,,,,,,1,1.685414731997298,,,085,001,2019_Aug_28_1212,MusicAffectPsychophysiology2019,3.0.5,60.05102138609884,
To what extent did the music make you feel ,HAPPY,30MonoWAV/30MonoS3.wav,1,1,3,11,,,,,1,9,25,10,0,2,2,6,,,,,,,,,1,2.4521915079967584,,,085,001,2019_Aug_28_1212,MusicAffectPsychophysiology2019,3.0.5,60.05102138609884,
To what extent did the music make you feel ,SAD,30MonoWAV/30MonoS3.wav,1,1,3,11,,,,,1,9,25,10,0,3,3,0,,,,,,,,,3,1.4859419370186515,,,085,001,2019_Aug_28_1212,MusicAffectPsychophysiology2019,3.0.5,60.05102138609884,
To what extent did the music make you feel ,SCARED,30MonoWAV/30MonoS3.wav,1,1,3,11,,,,,1,9,25,10,0,4,4,11,,,,,,,,,4,1.7529736249998678,,,085,001,2019_Aug_28_1212,MusicAffectPsychophysiology2019,3.0.5,60.05102138609884,
To what extent did the music make you feel ,ALERT,30MonoWAV/30MonoS3.wav,1,1,3,11,,,,,1,9,25,10,0,5,5,8,,,,,,,,,4,1.2528429300000425,,,085,001,2019_Aug_28_1212,MusicAffectPsychophysiology2019,3.0.5,60.05102138609884,
To what extent did the music make you feel ,ANXIOUS ,30MonoWAV/30MonoS3.wav,1,1,3,11,,,,,1,9,25,10,0,6,6,1,,,,,,,,,5,1.783839370997157,,,085,001,2019_Aug_28_1212,MusicAffectPsychophysiology2019,3.0.5,60.05102138609884,
To what extent did the music make you feel ,ASHAMED,30MonoWAV/30MonoS3.wav,1,1,3,11,,,,,1,9,25,10,0,7,7,4,,,,,,,,,2,1.8522980650013778,,,085,001,2019_Aug_28_1212,MusicAffectPsychophysiology2019,3.0.5,60.05102138609884,
To what extent did the music make you feel ,FRUSTRATED,30MonoWAV/30MonoS3.wav,1,1,3,11,,,,,1,9,25,10,0,8,8,3,,,,,,,,,1,3.6700619689945597,,,085,001,2019_Aug_28_1212,MusicAffectPsychophysiology2019,3.0.5,60.05102138609884,
To what extent did the music make you feel ,ANGRY,30MonoWAV/30MonoS3.wav,1,1,3,11,,,,,1,9,25,10,0,9,9,2,,,,,,,,,2,1.6708540559920948,,,085,001,2019_Aug_28_1212,MusicAffectPsychophysiology2019,3.0.5,60.05102138609884,
To what extent did the music make you feel ,TENDER,30MonoWAV/30MonoS3.wav,1,1,3,11,,,,,1,9,25,10,0,10,10,10,,,,,,,,,4,1.6020660839858465,,,085,001,2019_Aug_28_1212,MusicAffectPsychophysiology2019,3.0.5,60.05102138609884,
To what extent did the music make you feel ,GUILTY,30MonoWAV/30MonoS3.wav,1,1,3,11,,,,,1,9,25,10,0,11,11,5,,,,,,,,,1,2.619541301013669,,,085,001,2019_Aug_28_1212,MusicAffectPsychophysiology2019,3.0.5,60.05102138609884,
,,30MonoWAV/30MonoS3.wav,1,1,3,11,,,,,1,9,25,10,,,,,,,,,,,,,,,,,085,001,2019_Aug_28_1212,MusicAffectPsychophysiology2019,3.0.5,60.05102138609884,
To what extent did the music make you feel ,ANGRY,30MonoWAV/30MonoT3.wav,2,1,4,15,,,,,1,10,26,14,0,0,0,2,,,2,3.8336575439898297,4,3.5196108400123194,4,2.3354593759868294,1,1.9253645540156867,,,085,001,2019_Aug_28_1212,MusicAffectPsychophysiology2019,3.0.5,60.05102138609884,
To what extent did the music make you feel ,SAD,30MonoWAV/30MonoT3.wav,2,1,4,15,,,,,1,10,26,14,0,1,1,0,,,,,,,,,2,2.4853924750059377,,,085,001,2019_Aug_28_1212,MusicAffectPsychophysiology2019,3.0.5,60.05102138609884,
To what extent did the music make you feel ,EXCITED,30MonoWAV/30MonoT3.wav,2,1,4,15,,,,,1,10,26,14,0,2,2,7,,,,,,,,,2,2.6372700369975064,,,085,001,2019_Aug_28_1212,MusicAffectPsychophysiology2019,3.0.5,60.05102138609884,
To what extent did the music make you feel ,ASHAMED,30MonoWAV/30MonoT3.wav,2,1,4,15,,,,,1,10,26,14,0,3,3,4,,,,,,,,,1,1.7690601749927737,,,085,001,2019_Aug_28_1212,MusicAffectPsychophysiology2019,3.0.5,60.05102138609884,
To what extent did the music make you feel ,ALERT,30MonoWAV/30MonoT3.wav,2,1,4,15,,,,,1,10,26,14,0,4,4,8,,,,,,,,,2,2.3535021689895075,,,085,001,2019_Aug_28_1212,MusicAffectPsychophysiology2019,3.0.5,60.05102138609884,
To what extent did the music make you feel ,GUILTY,30MonoWAV/30MonoT3.wav,2,1,4,15,,,,,1,10,26,14,0,5,5,5,,,,,,,,,1,2.335845069028437,,,085,001,2019_Aug_28_1212,MusicAffectPsychophysiology2019,3.0.5,60.05102138609884,
To what extent did the music make you feel ,SCARED,30MonoWAV/30MonoT3.wav,2,1,4,15,,,,,1,10,26,14,0,6,6,11,,,,,,,,,1,1.3572793710045516,,,085,001,2019_Aug_28_1212,MusicAffectPsychophysiology2019,3.0.5,60.05102138609884,
To what extent did the music make you feel ,FRUSTRATED,30MonoWAV/30MonoT3.wav,2,1,4,15,,,,,1,10,26,14,0,7,7,3,,,,,,,,,1,1.137212998000905,,,085,001,2019_Aug_28_1212,MusicAffectPsychophysiology2019,3.0.5,60.05102138609884,
To what extent did the music make you feel ,ANXIOUS ,30MonoWAV/30MonoT3.wav,2,1,4,15,,,,,1,10,26,14,0,8,8,1,,,,,,,,,2,2.1852210400102194,,,085,001,2019_Aug_28_1212,MusicAffectPsychophysiology2019,3.0.5,60.05102138609884,
To what extent did the music make you feel ,ACTIVE,30MonoWAV/30MonoT3.wav,2,1,4,15,,,,,1,10,26,14,0,9,9,9,,,,,,,,,2,2.336366431991337,,,085,001,2019_Aug_28_1212,MusicAffectPsychophysiology2019,3.0.5,60.05102138609884,
To what extent did the music make you feel ,HAPPY,30MonoWAV/30MonoT3.wav,2,1,4,15,,,,,1,10,26,14,0,10,10,6,,,,,,,,,4,1.33614117000252,,,085,001,2019_Aug_28_1212,MusicAffectPsychophysiology2019,3.0.5,60.05102138609884,
To what extent did the music make you feel ,TENDER,30MonoWAV/30MonoT3.wav,2,1,4,15,,,,,1,10,26,14,0,11,11,10,,,,,,,,,5,1.0689915840048343,,,085,001,2019_Aug_28_1212,MusicAffectPsychophysiology2019,3.0.5,60.05102138609884,
,,30MonoWAV/30MonoT3.wav,2,1,4,15,,,,,1,10,26,14,,,,,,,,,,,,,,,,,085,001,2019_Aug_28_1212,MusicAffectPsychophysiology2019,3.0.5,60.05102138609884,
To what extent did the music make you feel ,EXCITED,30MonoWAV/30MonoS4.wav,1,1,3,12,,,,,1,11,27,11,0,0,0,7,,,1,3.203175539994845,2,2.3187419190071523,3,2.7861267130065244,1,1.769335860008141,,,085,001,2019_Aug_28_1212,MusicAffectPsychophysiology2019,3.0.5,60.05102138609884,
To what extent did the music make you feel ,ACTIVE,30MonoWAV/30MonoS4.wav,1,1,3,12,,,,,1,11,27,11,0,1,1,9,,,,,,,,,1,1.603890661004698,,,085,001,2019_Aug_28_1212,MusicAffectPsychophysiology2019,3.0.5,60.05102138609884,
To what extent did the music make you feel ,ANGRY,30MonoWAV/30MonoS4.wav,1,1,3,12,,,,,1,11,27,11,0,2,2,2,,,,,,,,,1,1.6356229910161346,,,085,001,2019_Aug_28_1212,MusicAffectPsychophysiology2019,3.0.5,60.05102138609884,
To what extent did the music make you feel ,FRUSTRATED,30MonoWAV/30MonoS4.wav,1,1,3,12,,,,,1,11,27,11,0,3,3,3,,,,,,,,,1,1.4205038639775012,,,085,001,2019_Aug_28_1212,MusicAffectPsychophysiology2019,3.0.5,60.05102138609884,
To what extent did the music make you feel ,GUILTY,30MonoWAV/30MonoS4.wav,1,1,3,12,,,,,1,11,27,11,0,4,4,5,,,,,,,,,2,1.618336278013885,,,085,001,2019_Aug_28_1212,MusicAffectPsychophysiology2019,3.0.5,60.05102138609884,
To what extent did the music make you feel ,ASHAMED,30MonoWAV/30MonoS4.wav,1,1,3,12,,,,,1,11,27,11,0,5,5,4,,,,,,,,,2,1.9700002309982665,,,085,001,2019_Aug_28_1212,MusicAffectPsychophysiology2019,3.0.5,60.05102138609884,
To what extent did the music make you feel ,SAD,30MonoWAV/30MonoS4.wav,1,1,3,12,,,,,1,11,27,11,0,6,6,0,,,,,,,,,4,1.966170779982349,,,085,001,2019_Aug_28_1212,MusicAffectPsychophysiology2019,3.0.5,60.05102138609884,
To what extent did the music make you feel ,ANXIOUS ,30MonoWAV/30MonoS4.wav,1,1,3,12,,,,,1,11,27,11,0,7,7,1,,,,,,,,,1,2.91995643399423,,,085,001,2019_Aug_28_1212,MusicAffectPsychophysiology2019,3.0.5,60.05102138609884,
To what extent did the music make you feel ,SCARED,30MonoWAV/30MonoS4.wav,1,1,3,12,,,,,1,11,27,11,0,8,8,11,,,,,,,,,1,2.0167835550091695,,,085,001,2019_Aug_28_1212,MusicAffectPsychophysiology2019,3.0.5,60.05102138609884,
To what extent did the music make you feel ,HAPPY,30MonoWAV/30MonoS4.wav,1,1,3,12,,,,,1,11,27,11,0,9,9,6,,,,,,,,,3,1.4527285509975627,,,085,001,2019_Aug_28_1212,MusicAffectPsychophysiology2019,3.0.5,60.05102138609884,
To what extent did the music make you feel ,ALERT,30MonoWAV/30MonoS4.wav,1,1,3,12,,,,,1,11,27,11,0,10,10,8,,,,,,,,,1,3.0705682930129115,,,085,001,2019_Aug_28_1212,MusicAffectPsychophysiology2019,3.0.5,60.05102138609884,
To what extent did the music make you feel ,TENDER,30MonoWAV/30MonoS4.wav,1,1,3,12,,,,,1,11,27,11,0,11,11,10,,,,,,,,,5,1.384778889012523,,,085,001,2019_Aug_28_1212,MusicAffectPsychophysiology2019,3.0.5,60.05102138609884,
,,30MonoWAV/30MonoS4.wav,1,1,3,12,,,,,1,11,27,11,,,,,,,,,,,,,,,,,085,001,2019_Aug_28_1212,MusicAffectPsychophysiology2019,3.0.5,60.05102138609884,
To what extent did the music make you feel ,EXCITED,30MonoWAV/30MonoH1.wav,2,2,1,5,,,,,1,12,28,4,0,0,0,7,,,5,4.068598746001953,5,1.6520021710020956,3,4.469224152999232,5,2.0109084750001784,,,085,001,2019_Aug_28_1212,MusicAffectPsychophysiology2019,3.0.5,60.05102138609884,
To what extent did the music make you feel ,ANXIOUS ,30MonoWAV/30MonoH1.wav,2,2,1,5,,,,,1,12,28,4,0,1,1,1,,,,,,,,,1,1.8026691380073316,,,085,001,2019_Aug_28_1212,MusicAffectPsychophysiology2019,3.0.5,60.05102138609884,
To what extent did the music make you feel ,SAD,30MonoWAV/30MonoH1.wav,2,2,1,5,,,,,1,12,28,4,0,2,2,0,,,,,,,,,1,1.5860375750053208,,,085,001,2019_Aug_28_1212,MusicAffectPsychophysiology2019,3.0.5,60.05102138609884,
To what extent did the music make you feel ,FRUSTRATED,30MonoWAV/30MonoH1.wav,2,2,1,5,,,,,1,12,28,4,0,3,3,3,,,,,,,,,1,1.225572972005466,,,085,001,2019_Aug_28_1212,MusicAffectPsychophysiology2019,3.0.5,60.05102138609884,
To what extent did the music make you feel ,ASHAMED,30MonoWAV/30MonoH1.wav,2,2,1,5,,,,,1,12,28,4,0,4,4,4,,,,,,,,,1,1.2027318989858031,,,085,001,2019_Aug_28_1212,MusicAffectPsychophysiology2019,3.0.5,60.05102138609884,
To what extent did the music make you feel ,HAPPY,30MonoWAV/30MonoH1.wav,2,2,1,5,,,,,1,12,28,4,0,5,5,6,,,,,,,,,4,2.417613708996214,,,085,001,2019_Aug_28_1212,MusicAffectPsychophysiology2019,3.0.5,60.05102138609884,
To what extent did the music make you feel ,ALERT,30MonoWAV/30MonoH1.wav,2,2,1,5,,,,,1,12,28,4,0,6,6,8,,,,,,,,,3,1.5697716790018603,,,085,001,2019_Aug_28_1212,MusicAffectPsychophysiology2019,3.0.5,60.05102138609884,
To what extent did the music make you feel ,ANGRY,30MonoWAV/30MonoH1.wav,2,2,1,5,,,,,1,12,28,4,0,7,7,2,,,,,,,,,1,1.4698099399975035,,,085,001,2019_Aug_28_1212,MusicAffectPsychophysiology2019,3.0.5,60.05102138609884,
To what extent did the music make you feel ,SCARED,30MonoWAV/30MonoH1.wav,2,2,1,5,,,,,1,12,28,4,0,8,8,11,,,,,,,,,1,1.723875992000103,,,085,001,2019_Aug_28_1212,MusicAffectPsychophysiology2019,3.0.5,60.05102138609884,
To what extent did the music make you feel ,TENDER,30MonoWAV/30MonoH1.wav,2,2,1,5,,,,,1,12,28,4,0,9,9,10,,,,,,,,,1,2.119457010005135,,,085,001,2019_Aug_28_1212,MusicAffectPsychophysiology2019,3.0.5,60.05102138609884,
To what extent did the music make you feel ,GUILTY,30MonoWAV/30MonoH1.wav,2,2,1,5,,,,,1,12,28,4,0,10,10,5,,,,,,,,,1,1.3516287099919282,,,085,001,2019_Aug_28_1212,MusicAffectPsychophysiology2019,3.0.5,60.05102138609884,
To what extent did the music make you feel ,ACTIVE,30MonoWAV/30MonoH1.wav,2,2,1,5,,,,,1,12,28,4,0,11,11,9,,,,,,,,,4,3.967021165008191,,,085,001,2019_Aug_28_1212,MusicAffectPsychophysiology2019,3.0.5,60.05102138609884,
,,30MonoWAV/30MonoH1.wav,2,2,1,5,,,,,1,12,28,4,,,,,,,,,,,,,,,,,085,001,2019_Aug_28_1212,MusicAffectPsychophysiology2019,3.0.5,60.05102138609884,
To what extent did the music make you feel ,ACTIVE,30MonoWAV/30MonoH3.wav,2,2,1,7,,,,,1,13,29,6,0,0,0,9,,,3,6.266273120971164,2,3.7364087250025477,1,0.9857842139899731,2,4.28437263899832,,,085,001,2019_Aug_28_1212,MusicAffectPsychophysiology2019,3.0.5,60.05102138609884,
To what extent did the music make you feel ,FRUSTRATED,30MonoWAV/30MonoH3.wav,2,2,1,7,,,,,1,13,29,6,0,1,1,3,,,,,,,,,3,1.6688054570113309,,,085,001,2019_Aug_28_1212,MusicAffectPsychophysiology2019,3.0.5,60.05102138609884,
To what extent did the music make you feel ,ANGRY,30MonoWAV/30MonoH3.wav,2,2,1,7,,,,,1,13,29,6,0,2,2,2,,,,,,,,,2,1.936052128992742,,,085,001,2019_Aug_28_1212,MusicAffectPsychophysiology2019,3.0.5,60.05102138609884,
To what extent did the music make you feel ,ALERT,30MonoWAV/30MonoH3.wav,2,2,1,7,,,,,1,13,29,6,0,3,3,8,,,,,,,,,1,1.9694480299949646,,,085,001,2019_Aug_28_1212,MusicAffectPsychophysiology2019,3.0.5,60.05102138609884,
To what extent did the music make you feel ,SAD,30MonoWAV/30MonoH3.wav,2,2,1,7,,,,,1,13,29,6,0,4,4,0,,,,,,,,,1,2.2344246939755976,,,085,001,2019_Aug_28_1212,MusicAffectPsychophysiology2019,3.0.5,60.05102138609884,
To what extent did the music make you feel ,HAPPY,30MonoWAV/30MonoH3.wav,2,2,1,7,,,,,1,13,29,6,0,5,5,6,,,,,,,,,2,3.1860771119827405,,,085,001,2019_Aug_28_1212,MusicAffectPsychophysiology2019,3.0.5,60.05102138609884,
To what extent did the music make you feel ,ASHAMED,30MonoWAV/30MonoH3.wav,2,2,1,7,,,,,1,13,29,6,0,6,6,4,,,,,,,,,1,1.4525953879929148,,,085,001,2019_Aug_28_1212,MusicAffectPsychophysiology2019,3.0.5,60.05102138609884,
To what extent did the music make you feel ,ANXIOUS ,30MonoWAV/30MonoH3.wav,2,2,1,7,,,,,1,13,29,6,0,7,7,1,,,,,,,,,1,1.3353117599908728,,,085,001,2019_Aug_28_1212,MusicAffectPsychophysiology2019,3.0.5,60.05102138609884,
To what extent did the music make you feel ,EXCITED,30MonoWAV/30MonoH3.wav,2,2,1,7,,,,,1,13,29,6,0,8,8,7,,,,,,,,,3,1.7363125859992579,,,085,001,2019_Aug_28_1212,MusicAffectPsychophysiology2019,3.0.5,60.05102138609884,
To what extent did the music make you feel ,SCARED,30MonoWAV/30MonoH3.wav,2,2,1,7,,,,,1,13,29,6,0,9,9,11,,,,,,,,,1,2.3185731840203516,,,085,001,2019_Aug_28_1212,MusicAffectPsychophysiology2019,3.0.5,60.05102138609884,
To what extent did the music make you feel ,TENDER,30MonoWAV/30MonoH3.wav,2,2,1,7,,,,,1,13,29,6,0,10,10,10,,,,,,,,,2,2.8039265550032724,,,085,001,2019_Aug_28_1212,MusicAffectPsychophysiology2019,3.0.5,60.05102138609884,
To what extent did the music make you feel ,GUILTY,30MonoWAV/30MonoH3.wav,2,2,1,7,,,,,1,13,29,6,0,11,11,5,,,,,,,,,1,3.951630338007817,,,085,001,2019_Aug_28_1212,MusicAffectPsychophysiology2019,3.0.5,60.05102138609884,
,,30MonoWAV/30MonoH3.wav,2,2,1,7,,,,,1,13,29,6,,,,,,,,,,,,,,,,,085,001,2019_Aug_28_1212,MusicAffectPsychophysiology2019,3.0.5,60.05102138609884,
To what extent did the music make you feel ,TENDER,30MonoWAV/30MonoS1.wav,1,1,3,9,,,,,1,14,30,8,0,0,0,10,,,1,4.0854355600022245,1,1.7850574430194683,3,2.1197871809999924,5,1.8106761229864787,,,085,001,2019_Aug_28_1212,MusicAffectPsychophysiology2019,3.0.5,60.05102138609884,
To what extent did the music make you feel ,GUILTY,30MonoWAV/30MonoS1.wav,1,1,3,9,,,,,1,14,30,8,0,1,1,5,,,,,,,,,3,2.3355875329871196,,,085,001,2019_Aug_28_1212,MusicAffectPsychophysiology2019,3.0.5,60.05102138609884,
To what extent did the music make you feel ,FRUSTRATED,30MonoWAV/30MonoS1.wav,1,1,3,9,,,,,1,14,30,8,0,2,2,3,,,,,,,,,3,1.837259735999396,,,085,001,2019_Aug_28_1212,MusicAffectPsychophysiology2019,3.0.5,60.05102138609884,
To what extent did the music make you feel ,SCARED,30MonoWAV/30MonoS1.wav,1,1,3,9,,,,,1,14,30,8,0,3,3,11,,,,,,,,,2,1.4424244420079049,,,085,001,2019_Aug_28_1212,MusicAffectPsychophysiology2019,3.0.5,60.05102138609884,
To what extent did the music make you feel ,EXCITED,30MonoWAV/30MonoS1.wav,1,1,3,9,,,,,1,14,30,8,0,4,4,7,,,,,,,,,1,1.451685403008014,,,085,001,2019_Aug_28_1212,MusicAffectPsychophysiology2019,3.0.5,60.05102138609884,
To what extent did the music make you feel ,ALERT,30MonoWAV/30MonoS1.wav,1,1,3,9,,,,,1,14,30,8,0,5,5,8,,,,,,,,,1,1.5522602059936617,,,085,001,2019_Aug_28_1212,MusicAffectPsychophysiology2019,3.0.5,60.05102138609884,
To what extent did the music make you feel ,ASHAMED,30MonoWAV/30MonoS1.wav,1,1,3,9,,,,,1,14,30,8,0,6,6,4,,,,,,,,,3,1.5353799909935333,,,085,001,2019_Aug_28_1212,MusicAffectPsychophysiology2019,3.0.5,60.05102138609884,
To what extent did the music make you feel ,SAD,30MonoWAV/30MonoS1.wav,1,1,3,9,,,,,1,14,30,8,0,7,7,0,,,,,,,,,5,1.7159230589750223,,,085,001,2019_Aug_28_1212,MusicAffectPsychophysiology2019,3.0.5,60.05102138609884,
To what extent did the music make you feel ,ACTIVE,30MonoWAV/30MonoS1.wav,1,1,3,9,,,,,1,14,30,8,0,8,8,9,,,,,,,,,1,1.5371339250123128,,,085,001,2019_Aug_28_1212,MusicAffectPsychophysiology2019,3.0.5,60.05102138609884,
To what extent did the music make you feel ,ANXIOUS ,30MonoWAV/30MonoS1.wav,1,1,3,9,,,,,1,14,30,8,0,9,9,1,,,,,,,,,2,1.5088622860203031,,,085,001,2019_Aug_28_1212,MusicAffectPsychophysiology2019,3.0.5,60.05102138609884,
To what extent did the music make you feel ,ANGRY,30MonoWAV/30MonoS1.wav,1,1,3,9,,,,,1,14,30,8,0,10,10,2,,,,,,,,,2,1.7168376960034948,,,085,001,2019_Aug_28_1212,MusicAffectPsychophysiology2019,3.0.5,60.05102138609884,
To what extent did the music make you feel ,HAPPY,30MonoWAV/30MonoS1.wav,1,1,3,9,,,,,1,14,30,8,0,11,11,6,,,,,,,,,1,1.53570038502221,,,085,001,2019_Aug_28_1212,MusicAffectPsychophysiology2019,3.0.5,60.05102138609884,
,,30MonoWAV/30MonoS1.wav,1,1,3,9,,,,,1,14,30,8,,,,,,,,,,,,,,,,,085,001,2019_Aug_28_1212,MusicAffectPsychophysiology2019,3.0.5,60.05102138609884,
To what extent did the music make you feel ,TENDER,30MonoWAV/30MonoF1.wav,1,2,2,1,,,,,1,15,31,0,0,0,0,10,,,4,4.2351525709964335,1,1.9192653479985893,1,1.9870366760005709,1,1.8183505130000412,,,085,001,2019_Aug_28_1212,MusicAffectPsychophysiology2019,3.0.5,60.05102138609884,
To what extent did the music make you feel ,ANGRY,30MonoWAV/30MonoF1.wav,1,2,2,1,,,,,1,15,31,0,0,1,1,2,,,,,,,,,1,1.7859120630018879,,,085,001,2019_Aug_28_1212,MusicAffectPsychophysiology2019,3.0.5,60.05102138609884,
To what extent did the music make you feel ,ALERT,30MonoWAV/30MonoF1.wav,1,2,2,1,,,,,1,15,31,0,0,2,2,8,,,,,,,,,5,2.0512691990006715,,,085,001,2019_Aug_28_1212,MusicAffectPsychophysiology2019,3.0.5,60.05102138609884,
To what extent did the music make you feel ,HAPPY,30MonoWAV/30MonoF1.wav,1,2,2,1,,,,,1,15,31,0,0,3,3,6,,,,,,,,,1,1.4337818890053313,,,085,001,2019_Aug_28_1212,MusicAffectPsychophysiology2019,3.0.5,60.05102138609884,
To what extent did the music make you feel ,FRUSTRATED,30MonoWAV/30MonoF1.wav,1,2,2,1,,,,,1,15,31,0,0,4,4,3,,,,,,,,,1,1.3685983000032138,,,085,001,2019_Aug_28_1212,MusicAffectPsychophysiology2019,3.0.5,60.05102138609884,
To what extent did the music make you feel ,GUILTY,30MonoWAV/30MonoF1.wav,1,2,2,1,,,,,1,15,31,0,0,5,5,5,,,,,,,,,1,1.900179118005326,,,085,001,2019_Aug_28_1212,MusicAffectPsychophysiology2019,3.0.5,60.05102138609884,
To what extent did the music make you feel ,ANXIOUS ,30MonoWAV/30MonoF1.wav,1,2,2,1,,,,,1,15,31,0,0,6,6,1,,,,,,,,,5,1.1522459400002845,,,085,001,2019_Aug_28_1212,MusicAffectPsychophysiology2019,3.0.5,60.05102138609884,
To what extent did the music make you feel ,EXCITED,30MonoWAV/30MonoF1.wav,1,2,2,1,,,,,1,15,31,0,0,7,7,7,,,,,,,,,2,2.6853503310121596,,,085,001,2019_Aug_28_1212,MusicAffectPsychophysiology2019,3.0.5,60.05102138609884,
To what extent did the music make you feel ,ACTIVE,30MonoWAV/30MonoF1.wav,1,2,2,1,,,,,1,15,31,0,0,8,8,9,,,,,,,,,2,2.5023775049776305,,,085,001,2019_Aug_28_1212,MusicAffectPsychophysiology2019,3.0.5,60.05102138609884,
To what extent did the music make you feel ,ASHAMED,30MonoWAV/30MonoF1.wav,1,2,2,1,,,,,1,15,31,0,0,9,9,4,,,,,,,,,1,1.6019664200139232,,,085,001,2019_Aug_28_1212,MusicAffectPsychophysiology2019,3.0.5,60.05102138609884,
To what extent did the music make you feel ,SCARED,30MonoWAV/30MonoF1.wav,1,2,2,1,,,,,1,15,31,0,0,10,10,11,,,,,,,,,5,1.3188223960169125,,,085,001,2019_Aug_28_1212,MusicAffectPsychophysiology2019,3.0.5,60.05102138609884,
To what extent did the music make you feel ,SAD,30MonoWAV/30MonoF1.wav,1,2,2,1,,,,,1,15,31,0,0,11,11,0,,,,,,,,,2,3.05189708902617,,,085,001,2019_Aug_28_1212,MusicAffectPsychophysiology2019,3.0.5,60.05102138609884,
,,30MonoWAV/30MonoF1.wav,1,2,2,1,,,,,1,15,31,0,,,,,,,,,,,,,,,,,085,001,2019_Aug_28_1212,MusicAffectPsychophysiology2019,3.0.5,60.05102138609884,
,,,,,,,,,,,,,,,,,,,,,,,,,,,,,space,6.565011736005545,085,001,2019_Aug_28_1212,MusicAffectPsychophysiology2019,3.0.5,60.05102138609884,
