Instruction,Word,song,valence,arousal,affectcat,songmark,pracwords.thisRepN,pracwords.thisTrialN,pracwords.thisN,pracwords.thisIndex,songtrials.thisRepN,songtrials.thisTrialN,songtrials.thisN,songtrials.thisIndex,words.thisRepN,words.thisTrialN,words.thisN,words.thisIndex,begin.keys,begin.rt,arousalkey.keys,arousalkey.rt,valencekey.keys,valencekey.rt,likekey.keys,likekey.rt,WordResponse.keys,WordResponse.rt,participant,session,date,expName,psychopyVersion,frameRate,
,,,,,,,,,,,,,,,,,,,space,39.22974057699321,,,,,,,,,086,001,2019_Aug_28_1417,MusicAffectPsychophysiology2019,3.0.5,60.03587947951229,
,,,,,,,,,,,,,,,,,,,,,4,17.83432544200332,,,,,,,086,001,2019_Aug_28_1417,MusicAffectPsychophysiology2019,3.0.5,60.03587947951229,
,,,,,,,,,,,,,,,,,,,,,,,4,7.268210053007351,,,,,086,001,2019_Aug_28_1417,MusicAffectPsychophysiology2019,3.0.5,60.03587947951229,
,,,,,,,,,,,,,,,,,,,,,,,,,4,8.682988426997326,,,086,001,2019_Aug_28_1417,MusicAffectPsychophysiology2019,3.0.5,60.03587947951229,
To what extent did the music make you feel ,GUILTY,,,,,,0,0,0,5,,,,,,,,,,,,,,,,,1,10.000423146004323,086,001,2019_Aug_28_1417,MusicAffectPsychophysiology2019,3.0.5,60.03587947951229,
To what extent did the music make you feel ,TENDER,,,,,,0,1,1,10,,,,,,,,,,,,,,,,,1,1.686077471007593,086,001,2019_Aug_28_1417,MusicAffectPsychophysiology2019,3.0.5,60.03587947951229,
To what extent did the music make you feel ,FRUSTRATED,,,,,,0,2,2,3,,,,,,,,,,,,,,,,,1,5.369106466998346,086,001,2019_Aug_28_1417,MusicAffectPsychophysiology2019,3.0.5,60.03587947951229,
To what extent did the music make you feel ,ASHAMED,,,,,,0,3,3,4,,,,,,,,,,,,,,,,,2,9.884809206996579,086,001,2019_Aug_28_1417,MusicAffectPsychophysiology2019,3.0.5,60.03587947951229,
To what extent did the music make you feel ,ANXIOUS ,,,,,,0,4,4,1,,,,,,,,,,,,,,,,,1,1.5696838109870441,086,001,2019_Aug_28_1417,MusicAffectPsychophysiology2019,3.0.5,60.03587947951229,
To what extent did the music make you feel ,HAPPY,,,,,,0,5,5,6,,,,,,,,,,,,,,,,,4,4.735794100997737,086,001,2019_Aug_28_1417,MusicAffectPsychophysiology2019,3.0.5,60.03587947951229,
To what extent did the music make you feel ,SAD,,,,,,0,6,6,0,,,,,,,,,,,,,,,,,2,9.502079993020743,086,001,2019_Aug_28_1417,MusicAffectPsychophysiology2019,3.0.5,60.03587947951229,
To what extent did the music make you feel ,SCARED,,,,,,0,7,7,11,,,,,,,,,,,,,,,,,1,4.997482284990838,086,001,2019_Aug_28_1417,MusicAffectPsychophysiology2019,3.0.5,60.03587947951229,
To what extent did the music make you feel ,ACTIVE,,,,,,0,8,8,9,,,,,,,,,,,,,,,,,4,2.9014471280097496,086,001,2019_Aug_28_1417,MusicAffectPsychophysiology2019,3.0.5,60.03587947951229,
To what extent did the music make you feel ,ANGRY,,,,,,0,9,9,2,,,,,,,,,,,,,,,,,1,3.635863050003536,086,001,2019_Aug_28_1417,MusicAffectPsychophysiology2019,3.0.5,60.03587947951229,
To what extent did the music make you feel ,EXCITED,,,,,,0,10,10,7,,,,,,,,,,,,,,,,,5,2.84958062399528,086,001,2019_Aug_28_1417,MusicAffectPsychophysiology2019,3.0.5,60.03587947951229,
To what extent did the music make you feel ,ALERT,,,,,,0,11,11,8,,,,,,,,,,,,,,,,,1,6.401722703012638,086,001,2019_Aug_28_1417,MusicAffectPsychophysiology2019,3.0.5,60.03587947951229,
To what extent did the music make you feel ,ACTIVE,30MonoWAV/30MonoF1.wav,1,2,2,1,,,,,0,0,0,0,0,0,0,9,,,3,24.44999383101822,1,7.367473994003376,3,4.601712600997416,4,7.755830446985783,086,001,2019_Aug_28_1417,MusicAffectPsychophysiology2019,3.0.5,60.03587947951229,
To what extent did the music make you feel ,HAPPY,30MonoWAV/30MonoF1.wav,1,2,2,1,,,,,0,0,0,0,0,1,1,6,,,,,,,,,1,2.052829231019132,086,001,2019_Aug_28_1417,MusicAffectPsychophysiology2019,3.0.5,60.03587947951229,
To what extent did the music make you feel ,ASHAMED,30MonoWAV/30MonoF1.wav,1,2,2,1,,,,,0,0,0,0,0,2,2,4,,,,,,,,,1,2.5021724939870182,086,001,2019_Aug_28_1417,MusicAffectPsychophysiology2019,3.0.5,60.03587947951229,
To what extent did the music make you feel ,ALERT,30MonoWAV/30MonoF1.wav,1,2,2,1,,,,,0,0,0,0,0,3,3,8,,,,,,,,,5,1.9016038269910496,086,001,2019_Aug_28_1417,MusicAffectPsychophysiology2019,3.0.5,60.03587947951229,
To what extent did the music make you feel ,EXCITED,30MonoWAV/30MonoF1.wav,1,2,2,1,,,,,0,0,0,0,0,4,4,7,,,,,,,,,1,5.884653585002525,086,001,2019_Aug_28_1417,MusicAffectPsychophysiology2019,3.0.5,60.03587947951229,
To what extent did the music make you feel ,GUILTY,30MonoWAV/30MonoF1.wav,1,2,2,1,,,,,0,0,0,0,0,5,5,5,,,,,,,,,4,2.9855979580024723,086,001,2019_Aug_28_1417,MusicAffectPsychophysiology2019,3.0.5,60.03587947951229,
To what extent did the music make you feel ,TENDER,30MonoWAV/30MonoF1.wav,1,2,2,1,,,,,0,0,0,0,0,6,6,10,,,,,,,,,1,4.084280634997413,086,001,2019_Aug_28_1417,MusicAffectPsychophysiology2019,3.0.5,60.03587947951229,
To what extent did the music make you feel ,ANXIOUS ,30MonoWAV/30MonoF1.wav,1,2,2,1,,,,,0,0,0,0,0,7,7,1,,,,,,,,,5,2.133526161982445,086,001,2019_Aug_28_1417,MusicAffectPsychophysiology2019,3.0.5,60.03587947951229,
To what extent did the music make you feel ,FRUSTRATED,30MonoWAV/30MonoF1.wav,1,2,2,1,,,,,0,0,0,0,0,8,8,3,,,,,,,,,4,5.565815829002531,086,001,2019_Aug_28_1417,MusicAffectPsychophysiology2019,3.0.5,60.03587947951229,
To what extent did the music make you feel ,SCARED,30MonoWAV/30MonoF1.wav,1,2,2,1,,,,,0,0,0,0,0,9,9,11,,,,,,,,,5,1.1848044600046705,086,001,2019_Aug_28_1417,MusicAffectPsychophysiology2019,3.0.5,60.03587947951229,
To what extent did the music make you feel ,SAD,30MonoWAV/30MonoF1.wav,1,2,2,1,,,,,0,0,0,0,0,10,10,0,,,,,,,,,1,6.701726763014449,086,001,2019_Aug_28_1417,MusicAffectPsychophysiology2019,3.0.5,60.03587947951229,
To what extent did the music make you feel ,ANGRY,30MonoWAV/30MonoF1.wav,1,2,2,1,,,,,0,0,0,0,0,11,11,2,,,,,,,,,5,1.9853786560124718,086,001,2019_Aug_28_1417,MusicAffectPsychophysiology2019,3.0.5,60.03587947951229,
,,30MonoWAV/30MonoF1.wav,1,2,2,1,,,,,0,0,0,0,,,,,,,,,,,,,,,086,001,2019_Aug_28_1417,MusicAffectPsychophysiology2019,3.0.5,60.03587947951229,
To what extent did the music make you feel ,ASHAMED,30MonoWAV/30MonoS3.wav,1,1,3,11,,,,,0,1,1,10,0,0,0,4,,,2,3.719649409991689,1,1.9699863819987513,2,4.8358559669868555,3,5.029324211005587,086,001,2019_Aug_28_1417,MusicAffectPsychophysiology2019,3.0.5,60.03587947951229,
To what extent did the music make you feel ,ANXIOUS ,30MonoWAV/30MonoS3.wav,1,1,3,11,,,,,0,1,1,10,0,1,1,1,,,,,,,,,5,1.5856210910133086,086,001,2019_Aug_28_1417,MusicAffectPsychophysiology2019,3.0.5,60.03587947951229,
To what extent did the music make you feel ,ALERT,30MonoWAV/30MonoS3.wav,1,1,3,11,,,,,0,1,1,10,0,2,2,8,,,,,,,,,4,2.5358709080028348,086,001,2019_Aug_28_1417,MusicAffectPsychophysiology2019,3.0.5,60.03587947951229,
To what extent did the music make you feel ,FRUSTRATED,30MonoWAV/30MonoS3.wav,1,1,3,11,,,,,0,1,1,10,0,3,3,3,,,,,,,,,3,4.552810769993812,086,001,2019_Aug_28_1417,MusicAffectPsychophysiology2019,3.0.5,60.03587947951229,
To what extent did the music make you feel ,TENDER,30MonoWAV/30MonoS3.wav,1,1,3,11,,,,,0,1,1,10,0,4,4,10,,,,,,,,,4,5.749902175011812,086,001,2019_Aug_28_1417,MusicAffectPsychophysiology2019,3.0.5,60.03587947951229,
To what extent did the music make you feel ,ANGRY,30MonoWAV/30MonoS3.wav,1,1,3,11,,,,,0,1,1,10,0,5,5,2,,,,,,,,,3,5.952299736003624,086,001,2019_Aug_28_1417,MusicAffectPsychophysiology2019,3.0.5,60.03587947951229,
To what extent did the music make you feel ,HAPPY,30MonoWAV/30MonoS3.wav,1,1,3,11,,,,,0,1,1,10,0,6,6,6,,,,,,,,,1,1.2524953210086096,086,001,2019_Aug_28_1417,MusicAffectPsychophysiology2019,3.0.5,60.03587947951229,
To what extent did the music make you feel ,GUILTY,30MonoWAV/30MonoS3.wav,1,1,3,11,,,,,0,1,1,10,0,7,7,5,,,,,,,,,4,2.3365139729867224,086,001,2019_Aug_28_1417,MusicAffectPsychophysiology2019,3.0.5,60.03587947951229,
To what extent did the music make you feel ,ACTIVE,30MonoWAV/30MonoS3.wav,1,1,3,11,,,,,0,1,1,10,0,8,8,9,,,,,,,,,2,4.301438088994473,086,001,2019_Aug_28_1417,MusicAffectPsychophysiology2019,3.0.5,60.03587947951229,
To what extent did the music make you feel ,SAD,30MonoWAV/30MonoS3.wav,1,1,3,11,,,,,0,1,1,10,0,9,9,0,,,,,,,,,5,1.7523966940061655,086,001,2019_Aug_28_1417,MusicAffectPsychophysiology2019,3.0.5,60.03587947951229,
To what extent did the music make you feel ,EXCITED,30MonoWAV/30MonoS3.wav,1,1,3,11,,,,,0,1,1,10,0,10,10,7,,,,,,,,,1,1.6690721210034098,086,001,2019_Aug_28_1417,MusicAffectPsychophysiology2019,3.0.5,60.03587947951229,
To what extent did the music make you feel ,SCARED,30MonoWAV/30MonoS3.wav,1,1,3,11,,,,,0,1,1,10,0,11,11,11,,,,,,,,,4,1.7516282200231217,086,001,2019_Aug_28_1417,MusicAffectPsychophysiology2019,3.0.5,60.03587947951229,
,,30MonoWAV/30MonoS3.wav,1,1,3,11,,,,,0,1,1,10,,,,,,,,,,,,,,,086,001,2019_Aug_28_1417,MusicAffectPsychophysiology2019,3.0.5,60.03587947951229,
To what extent did the music make you feel ,SAD,30MonoWAV/30MonoF2.wav,1,2,2,2,,,,,0,2,2,1,0,0,0,0,,,3,3.201933995995205,1,2.4368501559947617,2,3.617835926997941,4,2.968295108003076,086,001,2019_Aug_28_1417,MusicAffectPsychophysiology2019,3.0.5,60.03587947951229,
To what extent did the music make you feel ,TENDER,30MonoWAV/30MonoF2.wav,1,2,2,2,,,,,0,2,2,1,0,1,1,10,,,,,,,,,2,2.035587349004345,086,001,2019_Aug_28_1417,MusicAffectPsychophysiology2019,3.0.5,60.03587947951229,
To what extent did the music make you feel ,HAPPY,30MonoWAV/30MonoF2.wav,1,2,2,2,,,,,0,2,2,1,0,2,2,6,,,,,,,,,1,1.3016870559949894,086,001,2019_Aug_28_1417,MusicAffectPsychophysiology2019,3.0.5,60.03587947951229,
To what extent did the music make you feel ,FRUSTRATED,30MonoWAV/30MonoF2.wav,1,2,2,2,,,,,0,2,2,1,0,3,3,3,,,,,,,,,5,3.518588410981465,086,001,2019_Aug_28_1417,MusicAffectPsychophysiology2019,3.0.5,60.03587947951229,
To what extent did the music make you feel ,ASHAMED,30MonoWAV/30MonoF2.wav,1,2,2,2,,,,,0,2,2,1,0,4,4,4,,,,,,,,,2,3.518865784018999,086,001,2019_Aug_28_1417,MusicAffectPsychophysiology2019,3.0.5,60.03587947951229,
To what extent did the music make you feel ,ALERT,30MonoWAV/30MonoF2.wav,1,2,2,2,,,,,0,2,2,1,0,5,5,8,,,,,,,,,5,1.6518614160013385,086,001,2019_Aug_28_1417,MusicAffectPsychophysiology2019,3.0.5,60.03587947951229,
To what extent did the music make you feel ,GUILTY,30MonoWAV/30MonoF2.wav,1,2,2,2,,,,,0,2,2,1,0,6,6,5,,,,,,,,,4,2.085137278016191,086,001,2019_Aug_28_1417,MusicAffectPsychophysiology2019,3.0.5,60.03587947951229,
To what extent did the music make you feel ,ACTIVE,30MonoWAV/30MonoF2.wav,1,2,2,2,,,,,0,2,2,1,0,7,7,9,,,,,,,,,3,2.199475089990301,086,001,2019_Aug_28_1417,MusicAffectPsychophysiology2019,3.0.5,60.03587947951229,
To what extent did the music make you feel ,ANGRY,30MonoWAV/30MonoF2.wav,1,2,2,2,,,,,0,2,2,1,0,8,8,2,,,,,,,,,5,1.5698608639941085,086,001,2019_Aug_28_1417,MusicAffectPsychophysiology2019,3.0.5,60.03587947951229,
To what extent did the music make you feel ,ANXIOUS ,30MonoWAV/30MonoF2.wav,1,2,2,2,,,,,0,2,2,1,0,9,9,1,,,,,,,,,5,1.800338789995294,086,001,2019_Aug_28_1417,MusicAffectPsychophysiology2019,3.0.5,60.03587947951229,
To what extent did the music make you feel ,SCARED,30MonoWAV/30MonoF2.wav,1,2,2,2,,,,,0,2,2,1,0,10,10,11,,,,,,,,,5,1.3024280879762955,086,001,2019_Aug_28_1417,MusicAffectPsychophysiology2019,3.0.5,60.03587947951229,
To what extent did the music make you feel ,EXCITED,30MonoWAV/30MonoF2.wav,1,2,2,2,,,,,0,2,2,1,0,11,11,7,,,,,,,,,1,1.4693246079841629,086,001,2019_Aug_28_1417,MusicAffectPsychophysiology2019,3.0.5,60.03587947951229,
,,30MonoWAV/30MonoF2.wav,1,2,2,2,,,,,0,2,2,1,,,,,,,,,,,,,,,086,001,2019_Aug_28_1417,MusicAffectPsychophysiology2019,3.0.5,60.03587947951229,
To what extent did the music make you feel ,GUILTY,30MonoWAV/30MonoF4.wav,1,2,2,4,,,,,0,3,3,3,0,0,0,5,,,4,12.268284850986674,2,5.968581741006346,3,5.318801763001829,3,3.3419285110139754,086,001,2019_Aug_28_1417,MusicAffectPsychophysiology2019,3.0.5,60.03587947951229,
To what extent did the music make you feel ,ANGRY,30MonoWAV/30MonoF4.wav,1,2,2,4,,,,,0,3,3,3,0,1,1,2,,,,,,,,,3,1.385180429002503,086,001,2019_Aug_28_1417,MusicAffectPsychophysiology2019,3.0.5,60.03587947951229,
To what extent did the music make you feel ,ACTIVE,30MonoWAV/30MonoF4.wav,1,2,2,4,,,,,0,3,3,3,0,2,2,9,,,,,,,,,4,2.769980457989732,086,001,2019_Aug_28_1417,MusicAffectPsychophysiology2019,3.0.5,60.03587947951229,
To what extent did the music make you feel ,ANXIOUS ,30MonoWAV/30MonoF4.wav,1,2,2,4,,,,,0,3,3,3,0,3,3,1,,,,,,,,,4,1.8371101740049198,086,001,2019_Aug_28_1417,MusicAffectPsychophysiology2019,3.0.5,60.03587947951229,
To what extent did the music make you feel ,SAD,30MonoWAV/30MonoF4.wav,1,2,2,4,,,,,0,3,3,3,0,4,4,0,,,,,,,,,3,2.652782126009697,086,001,2019_Aug_28_1417,MusicAffectPsychophysiology2019,3.0.5,60.03587947951229,
To what extent did the music make you feel ,ASHAMED,30MonoWAV/30MonoF4.wav,1,2,2,4,,,,,0,3,3,3,0,5,5,4,,,,,,,,,2,2.9498825639893766,086,001,2019_Aug_28_1417,MusicAffectPsychophysiology2019,3.0.5,60.03587947951229,
To what extent did the music make you feel ,EXCITED,30MonoWAV/30MonoF4.wav,1,2,2,4,,,,,0,3,3,3,0,6,6,7,,,,,,,,,4,1.5859164319990668,086,001,2019_Aug_28_1417,MusicAffectPsychophysiology2019,3.0.5,60.03587947951229,
To what extent did the music make you feel ,HAPPY,30MonoWAV/30MonoF4.wav,1,2,2,4,,,,,0,3,3,3,0,7,7,6,,,,,,,,,1,1.5354706179932691,086,001,2019_Aug_28_1417,MusicAffectPsychophysiology2019,3.0.5,60.03587947951229,
To what extent did the music make you feel ,SCARED,30MonoWAV/30MonoF4.wav,1,2,2,4,,,,,0,3,3,3,0,8,8,11,,,,,,,,,4,2.2873816920036916,086,001,2019_Aug_28_1417,MusicAffectPsychophysiology2019,3.0.5,60.03587947951229,
To what extent did the music make you feel ,TENDER,30MonoWAV/30MonoF4.wav,1,2,2,4,,,,,0,3,3,3,0,9,9,10,,,,,,,,,2,2.2020439360057935,086,001,2019_Aug_28_1417,MusicAffectPsychophysiology2019,3.0.5,60.03587947951229,
To what extent did the music make you feel ,ALERT,30MonoWAV/30MonoF4.wav,1,2,2,4,,,,,0,3,3,3,0,10,10,8,,,,,,,,,4,3.435286952997558,086,001,2019_Aug_28_1417,MusicAffectPsychophysiology2019,3.0.5,60.03587947951229,
To what extent did the music make you feel ,FRUSTRATED,30MonoWAV/30MonoF4.wav,1,2,2,4,,,,,0,3,3,3,0,11,11,3,,,,,,,,,3,2.036363515013363,086,001,2019_Aug_28_1417,MusicAffectPsychophysiology2019,3.0.5,60.03587947951229,
,,30MonoWAV/30MonoF4.wav,1,2,2,4,,,,,0,3,3,3,,,,,,,,,,,,,,,086,001,2019_Aug_28_1417,MusicAffectPsychophysiology2019,3.0.5,60.03587947951229,
To what extent did the music make you feel ,EXCITED,30MonoWAV/30MonoT1.wav,2,1,4,13,,,,,0,4,4,12,0,0,0,7,,,3,3.7023350689851213,4,1.4164906789956149,4,1.968998260999797,3,4.6524827570247,086,001,2019_Aug_28_1417,MusicAffectPsychophysiology2019,3.0.5,60.03587947951229,
To what extent did the music make you feel ,ALERT,30MonoWAV/30MonoT1.wav,2,1,4,13,,,,,0,4,4,12,0,1,1,8,,,,,,,,,1,2.335986751015298,086,001,2019_Aug_28_1417,MusicAffectPsychophysiology2019,3.0.5,60.03587947951229,
To what extent did the music make you feel ,SCARED,30MonoWAV/30MonoT1.wav,2,1,4,13,,,,,0,4,4,12,0,2,2,11,,,,,,,,,1,1.4357284019934013,086,001,2019_Aug_28_1417,MusicAffectPsychophysiology2019,3.0.5,60.03587947951229,
To what extent did the music make you feel ,FRUSTRATED,30MonoWAV/30MonoT1.wav,2,1,4,13,,,,,0,4,4,12,0,3,3,3,,,,,,,,,1,1.403042819001712,086,001,2019_Aug_28_1417,MusicAffectPsychophysiology2019,3.0.5,60.03587947951229,
To what extent did the music make you feel ,SAD,30MonoWAV/30MonoT1.wav,2,1,4,13,,,,,0,4,4,12,0,4,4,0,,,,,,,,,1,0.9332302030234132,086,001,2019_Aug_28_1417,MusicAffectPsychophysiology2019,3.0.5,60.03587947951229,
To what extent did the music make you feel ,HAPPY,30MonoWAV/30MonoT1.wav,2,1,4,13,,,,,0,4,4,12,0,5,5,6,,,,,,,,,4,2.08527881099144,086,001,2019_Aug_28_1417,MusicAffectPsychophysiology2019,3.0.5,60.03587947951229,
To what extent did the music make you feel ,ANXIOUS ,30MonoWAV/30MonoT1.wav,2,1,4,13,,,,,0,4,4,12,0,6,6,1,,,,,,,,,1,1.5353470309928525,086,001,2019_Aug_28_1417,MusicAffectPsychophysiology2019,3.0.5,60.03587947951229,
To what extent did the music make you feel ,GUILTY,30MonoWAV/30MonoT1.wav,2,1,4,13,,,,,0,4,4,12,0,7,7,5,,,,,,,,,1,5.251937443012139,086,001,2019_Aug_28_1417,MusicAffectPsychophysiology2019,3.0.5,60.03587947951229,
To what extent did the music make you feel ,TENDER,30MonoWAV/30MonoT1.wav,2,1,4,13,,,,,0,4,4,12,0,8,8,10,,,,,,,,,4,1.9338163459906355,086,001,2019_Aug_28_1417,MusicAffectPsychophysiology2019,3.0.5,60.03587947951229,
To what extent did the music make you feel ,ASHAMED,30MonoWAV/30MonoT1.wav,2,1,4,13,,,,,0,4,4,12,0,9,9,4,,,,,,,,,2,2.8194870639999863,086,001,2019_Aug_28_1417,MusicAffectPsychophysiology2019,3.0.5,60.03587947951229,
To what extent did the music make you feel ,ACTIVE,30MonoWAV/30MonoT1.wav,2,1,4,13,,,,,0,4,4,12,0,10,10,9,,,,,,,,,3,3.2185884889913723,086,001,2019_Aug_28_1417,MusicAffectPsychophysiology2019,3.0.5,60.03587947951229,
To what extent did the music make you feel ,ANGRY,30MonoWAV/30MonoT1.wav,2,1,4,13,,,,,0,4,4,12,0,11,11,2,,,,,,,,,1,1.6359265159990173,086,001,2019_Aug_28_1417,MusicAffectPsychophysiology2019,3.0.5,60.03587947951229,
,,30MonoWAV/30MonoT1.wav,2,1,4,13,,,,,0,4,4,12,,,,,,,,,,,,,,,086,001,2019_Aug_28_1417,MusicAffectPsychophysiology2019,3.0.5,60.03587947951229,
To what extent did the music make you feel ,ALERT,30MonoWAV/30MonoT3.wav,2,1,4,15,,,,,0,5,5,14,0,0,0,8,,,3,2.9517572799813934,5,3.102183667011559,4,2.2371657869953196,1,1.6605431670031976,086,001,2019_Aug_28_1417,MusicAffectPsychophysiology2019,3.0.5,60.03587947951229,
To what extent did the music make you feel ,FRUSTRATED,30MonoWAV/30MonoT3.wav,2,1,4,15,,,,,0,5,5,14,0,1,1,3,,,,,,,,,1,1.286305382993305,086,001,2019_Aug_28_1417,MusicAffectPsychophysiology2019,3.0.5,60.03587947951229,
To what extent did the music make you feel ,EXCITED,30MonoWAV/30MonoT3.wav,2,1,4,15,,,,,0,5,5,14,0,2,2,7,,,,,,,,,3,2.06668529601302,086,001,2019_Aug_28_1417,MusicAffectPsychophysiology2019,3.0.5,60.03587947951229,
To what extent did the music make you feel ,ASHAMED,30MonoWAV/30MonoT3.wav,2,1,4,15,,,,,0,5,5,14,0,3,3,4,,,,,,,,,2,2.084406031994149,086,001,2019_Aug_28_1417,MusicAffectPsychophysiology2019,3.0.5,60.03587947951229,
To what extent did the music make you feel ,TENDER,30MonoWAV/30MonoT3.wav,2,1,4,15,,,,,0,5,5,14,0,4,4,10,,,,,,,,,5,1.6026892789814156,086,001,2019_Aug_28_1417,MusicAffectPsychophysiology2019,3.0.5,60.03587947951229,
To what extent did the music make you feel ,SAD,30MonoWAV/30MonoT3.wav,2,1,4,15,,,,,0,5,5,14,0,5,5,0,,,,,,,,,2,2.7541140880202875,086,001,2019_Aug_28_1417,MusicAffectPsychophysiology2019,3.0.5,60.03587947951229,
To what extent did the music make you feel ,ANXIOUS ,30MonoWAV/30MonoT3.wav,2,1,4,15,,,,,0,5,5,14,0,6,6,1,,,,,,,,,1,4.718758007977158,086,001,2019_Aug_28_1417,MusicAffectPsychophysiology2019,3.0.5,60.03587947951229,
To what extent did the music make you feel ,ANGRY,30MonoWAV/30MonoT3.wav,2,1,4,15,,,,,0,5,5,14,0,7,7,2,,,,,,,,,1,0.952938300993992,086,001,2019_Aug_28_1417,MusicAffectPsychophysiology2019,3.0.5,60.03587947951229,
To what extent did the music make you feel ,GUILTY,30MonoWAV/30MonoT3.wav,2,1,4,15,,,,,0,5,5,14,0,8,8,5,,,,,,,,,1,1.5686920110019855,086,001,2019_Aug_28_1417,MusicAffectPsychophysiology2019,3.0.5,60.03587947951229,
To what extent did the music make you feel ,SCARED,30MonoWAV/30MonoT3.wav,2,1,4,15,,,,,0,5,5,14,0,9,9,11,,,,,,,,,1,1.2506476190173998,086,001,2019_Aug_28_1417,MusicAffectPsychophysiology2019,3.0.5,60.03587947951229,
To what extent did the music make you feel ,HAPPY,30MonoWAV/30MonoT3.wav,2,1,4,15,,,,,0,5,5,14,0,10,10,6,,,,,,,,,3,1.7203122799983248,086,001,2019_Aug_28_1417,MusicAffectPsychophysiology2019,3.0.5,60.03587947951229,
To what extent did the music make you feel ,ACTIVE,30MonoWAV/30MonoT3.wav,2,1,4,15,,,,,0,5,5,14,0,11,11,9,,,,,,,,,1,2.0667947519978043,086,001,2019_Aug_28_1417,MusicAffectPsychophysiology2019,3.0.5,60.03587947951229,
,,30MonoWAV/30MonoT3.wav,2,1,4,15,,,,,0,5,5,14,,,,,,,,,,,,,,,086,001,2019_Aug_28_1417,MusicAffectPsychophysiology2019,3.0.5,60.03587947951229,
To what extent did the music make you feel ,EXCITED,30MonoWAV/30MonoH2.wav,2,2,1,6,,,,,0,6,6,5,0,0,0,7,,,4,4.186014873004751,4,4.401409559999593,4,2.567753207986243,4,7.235085291002179,086,001,2019_Aug_28_1417,MusicAffectPsychophysiology2019,3.0.5,60.03587947951229,
To what extent did the music make you feel ,TENDER,30MonoWAV/30MonoH2.wav,2,2,1,6,,,,,0,6,6,5,0,1,1,10,,,,,,,,,3,2.1862042539869435,086,001,2019_Aug_28_1417,MusicAffectPsychophysiology2019,3.0.5,60.03587947951229,
To what extent did the music make you feel ,FRUSTRATED,30MonoWAV/30MonoH2.wav,2,2,1,6,,,,,0,6,6,5,0,2,2,3,,,,,,,,,1,1.4866157910146285,086,001,2019_Aug_28_1417,MusicAffectPsychophysiology2019,3.0.5,60.03587947951229,
To what extent did the music make you feel ,ANXIOUS ,30MonoWAV/30MonoH2.wav,2,2,1,6,,,,,0,6,6,5,0,3,3,1,,,,,,,,,1,1.0361127560026944,086,001,2019_Aug_28_1417,MusicAffectPsychophysiology2019,3.0.5,60.03587947951229,
To what extent did the music make you feel ,ACTIVE,30MonoWAV/30MonoH2.wav,2,2,1,6,,,,,0,6,6,5,0,4,4,9,,,,,,,,,4,2.4022851350018755,086,001,2019_Aug_28_1417,MusicAffectPsychophysiology2019,3.0.5,60.03587947951229,
To what extent did the music make you feel ,GUILTY,30MonoWAV/30MonoH2.wav,2,2,1,6,,,,,0,6,6,5,0,5,5,5,,,,,,,,,1,2.8023370589944534,086,001,2019_Aug_28_1417,MusicAffectPsychophysiology2019,3.0.5,60.03587947951229,
To what extent did the music make you feel ,ANGRY,30MonoWAV/30MonoH2.wav,2,2,1,6,,,,,0,6,6,5,0,6,6,2,,,,,,,,,1,0.9850617019983474,086,001,2019_Aug_28_1417,MusicAffectPsychophysiology2019,3.0.5,60.03587947951229,
To what extent did the music make you feel ,ASHAMED,30MonoWAV/30MonoH2.wav,2,2,1,6,,,,,0,6,6,5,0,7,7,4,,,,,,,,,1,1.6023565159994178,086,001,2019_Aug_28_1417,MusicAffectPsychophysiology2019,3.0.5,60.03587947951229,
To what extent did the music make you feel ,SAD,30MonoWAV/30MonoH2.wav,2,2,1,6,,,,,0,6,6,5,0,8,8,0,,,,,,,,,1,0.7867371650063433,086,001,2019_Aug_28_1417,MusicAffectPsychophysiology2019,3.0.5,60.03587947951229,
To what extent did the music make you feel ,ALERT,30MonoWAV/30MonoH2.wav,2,2,1,6,,,,,0,6,6,5,0,9,9,8,,,,,,,,,1,1.050536919006845,086,001,2019_Aug_28_1417,MusicAffectPsychophysiology2019,3.0.5,60.03587947951229,
To what extent did the music make you feel ,SCARED,30MonoWAV/30MonoH2.wav,2,2,1,6,,,,,0,6,6,5,0,10,10,11,,,,,,,,,1,0.8853854019835126,086,001,2019_Aug_28_1417,MusicAffectPsychophysiology2019,3.0.5,60.03587947951229,
To what extent did the music make you feel ,HAPPY,30MonoWAV/30MonoH2.wav,2,2,1,6,,,,,0,6,6,5,0,11,11,6,,,,,,,,,5,1.4200180379848462,086,001,2019_Aug_28_1417,MusicAffectPsychophysiology2019,3.0.5,60.03587947951229,
,,30MonoWAV/30MonoH2.wav,2,2,1,6,,,,,0,6,6,5,,,,,,,,,,,,,,,086,001,2019_Aug_28_1417,MusicAffectPsychophysiology2019,3.0.5,60.03587947951229,
To what extent did the music make you feel ,ALERT,30MonoWAV/30MonoS1.wav,1,1,3,9,,,,,0,7,7,8,0,0,0,8,,,1,13.984858210984385,1,2.636601394013269,3,2.7185117390181404,1,3.9430402609868906,086,001,2019_Aug_28_1417,MusicAffectPsychophysiology2019,3.0.5,60.03587947951229,
To what extent did the music make you feel ,SAD,30MonoWAV/30MonoS1.wav,1,1,3,9,,,,,0,7,7,8,0,1,1,0,,,,,,,,,5,1.5679001869866624,086,001,2019_Aug_28_1417,MusicAffectPsychophysiology2019,3.0.5,60.03587947951229,
To what extent did the music make you feel ,ANXIOUS ,30MonoWAV/30MonoS1.wav,1,1,3,9,,,,,0,7,7,8,0,2,2,1,,,,,,,,,4,3.6357137100130785,086,001,2019_Aug_28_1417,MusicAffectPsychophysiology2019,3.0.5,60.03587947951229,
To what extent did the music make you feel ,GUILTY,30MonoWAV/30MonoS1.wav,1,1,3,9,,,,,0,7,7,8,0,3,3,5,,,,,,,,,3,1.5365762359870132,086,001,2019_Aug_28_1417,MusicAffectPsychophysiology2019,3.0.5,60.03587947951229,
To what extent did the music make you feel ,ASHAMED,30MonoWAV/30MonoS1.wav,1,1,3,9,,,,,0,7,7,8,0,4,4,4,,,,,,,,,3,1.9504637549980544,086,001,2019_Aug_28_1417,MusicAffectPsychophysiology2019,3.0.5,60.03587947951229,
To what extent did the music make you feel ,FRUSTRATED,30MonoWAV/30MonoS1.wav,1,1,3,9,,,,,0,7,7,8,0,5,5,3,,,,,,,,,2,4.616250654013129,086,001,2019_Aug_28_1417,MusicAffectPsychophysiology2019,3.0.5,60.03587947951229,
To what extent did the music make you feel ,HAPPY,30MonoWAV/30MonoS1.wav,1,1,3,9,,,,,0,7,7,8,0,6,6,6,,,,,,,,,2,5.983191317995079,086,001,2019_Aug_28_1417,MusicAffectPsychophysiology2019,3.0.5,60.03587947951229,
To what extent did the music make you feel ,SCARED,30MonoWAV/30MonoS1.wav,1,1,3,9,,,,,0,7,7,8,0,7,7,11,,,,,,,,,1,2.868199607008137,086,001,2019_Aug_28_1417,MusicAffectPsychophysiology2019,3.0.5,60.03587947951229,
To what extent did the music make you feel ,EXCITED,30MonoWAV/30MonoS1.wav,1,1,3,9,,,,,0,7,7,8,0,8,8,7,,,,,,,,,1,3.167950450006174,086,001,2019_Aug_28_1417,MusicAffectPsychophysiology2019,3.0.5,60.03587947951229,
To what extent did the music make you feel ,ACTIVE,30MonoWAV/30MonoS1.wav,1,1,3,9,,,,,0,7,7,8,0,9,9,9,,,,,,,,,1,1.4025432060007006,086,001,2019_Aug_28_1417,MusicAffectPsychophysiology2019,3.0.5,60.03587947951229,
To what extent did the music make you feel ,ANGRY,30MonoWAV/30MonoS1.wav,1,1,3,9,,,,,0,7,7,8,0,10,10,2,,,,,,,,,1,2.4997414750105236,086,001,2019_Aug_28_1417,MusicAffectPsychophysiology2019,3.0.5,60.03587947951229,
To what extent did the music make you feel ,TENDER,30MonoWAV/30MonoS1.wav,1,1,3,9,,,,,0,7,7,8,0,11,11,10,,,,,,,,,5,2.0013241059787106,086,001,2019_Aug_28_1417,MusicAffectPsychophysiology2019,3.0.5,60.03587947951229,
,,30MonoWAV/30MonoS1.wav,1,1,3,9,,,,,0,7,7,8,,,,,,,,,,,,,,,086,001,2019_Aug_28_1417,MusicAffectPsychophysiology2019,3.0.5,60.03587947951229,
To what extent did the music make you feel ,EXCITED,30MonoWAV/30MonoT4.wav,2,1,4,16,,,,,0,8,8,15,0,0,0,7,,,4,2.602370054984931,5,1.602003339008661,4,2.5194486789987423,4,6.35123579899664,086,001,2019_Aug_28_1417,MusicAffectPsychophysiology2019,3.0.5,60.03587947951229,
To what extent did the music make you feel ,SCARED,30MonoWAV/30MonoT4.wav,2,1,4,16,,,,,0,8,8,15,0,1,1,11,,,,,,,,,1,1.3018498870078474,086,001,2019_Aug_28_1417,MusicAffectPsychophysiology2019,3.0.5,60.03587947951229,
To what extent did the music make you feel ,FRUSTRATED,30MonoWAV/30MonoT4.wav,2,1,4,16,,,,,0,8,8,15,0,2,2,3,,,,,,,,,1,1.9859259930090047,086,001,2019_Aug_28_1417,MusicAffectPsychophysiology2019,3.0.5,60.03587947951229,
To what extent did the music make you feel ,ACTIVE,30MonoWAV/30MonoT4.wav,2,1,4,16,,,,,0,8,8,15,0,3,3,9,,,,,,,,,3,2.984121030982351,086,001,2019_Aug_28_1417,MusicAffectPsychophysiology2019,3.0.5,60.03587947951229,
To what extent did the music make you feel ,GUILTY,30MonoWAV/30MonoT4.wav,2,1,4,16,,,,,0,8,8,15,0,4,4,5,,,,,,,,,1,5.335024936997797,086,001,2019_Aug_28_1417,MusicAffectPsychophysiology2019,3.0.5,60.03587947951229,
To what extent did the music make you feel ,TENDER,30MonoWAV/30MonoT4.wav,2,1,4,16,,,,,0,8,8,15,0,5,5,10,,,,,,,,,4,2.1857653470069636,086,001,2019_Aug_28_1417,MusicAffectPsychophysiology2019,3.0.5,60.03587947951229,
To what extent did the music make you feel ,ASHAMED,30MonoWAV/30MonoT4.wav,2,1,4,16,,,,,0,8,8,15,0,6,6,4,,,,,,,,,2,2.1185964359901845,086,001,2019_Aug_28_1417,MusicAffectPsychophysiology2019,3.0.5,60.03587947951229,
To what extent did the music make you feel ,ALERT,30MonoWAV/30MonoT4.wav,2,1,4,16,,,,,0,8,8,15,0,7,7,8,,,,,,,,,1,1.6024549219873734,086,001,2019_Aug_28_1417,MusicAffectPsychophysiology2019,3.0.5,60.03587947951229,
To what extent did the music make you feel ,SAD,30MonoWAV/30MonoT4.wav,2,1,4,16,,,,,0,8,8,15,0,8,8,0,,,,,,,,,1,2.70306666297256,086,001,2019_Aug_28_1417,MusicAffectPsychophysiology2019,3.0.5,60.03587947951229,
To what extent did the music make you feel ,HAPPY,30MonoWAV/30MonoT4.wav,2,1,4,16,,,,,0,8,8,15,0,9,9,6,,,,,,,,,5,1.152132638002513,086,001,2019_Aug_28_1417,MusicAffectPsychophysiology2019,3.0.5,60.03587947951229,
To what extent did the music make you feel ,ANGRY,30MonoWAV/30MonoT4.wav,2,1,4,16,,,,,0,8,8,15,0,10,10,2,,,,,,,,,1,1.8865498740051407,086,001,2019_Aug_28_1417,MusicAffectPsychophysiology2019,3.0.5,60.03587947951229,
To what extent did the music make you feel ,ANXIOUS ,30MonoWAV/30MonoT4.wav,2,1,4,16,,,,,0,8,8,15,0,11,11,1,,,,,,,,,1,1.935374014021363,086,001,2019_Aug_28_1417,MusicAffectPsychophysiology2019,3.0.5,60.03587947951229,
,,30MonoWAV/30MonoT4.wav,2,1,4,16,,,,,0,8,8,15,,,,,,,,,,,,,,,086,001,2019_Aug_28_1417,MusicAffectPsychophysiology2019,3.0.5,60.03587947951229,
To what extent did the music make you feel ,ANGRY,30MonoWAV/30MonoH3.wav,2,2,1,7,,,,,0,9,9,6,0,0,0,2,,,5,2.3853691419935785,5,1.8331277380057145,5,1.2688248890044633,1,3.4601286060060374,086,001,2019_Aug_28_1417,MusicAffectPsychophysiology2019,3.0.5,60.03587947951229,
To what extent did the music make you feel ,TENDER,30MonoWAV/30MonoH3.wav,2,2,1,7,,,,,0,9,9,6,0,1,1,10,,,,,,,,,2,1.7998762960196473,086,001,2019_Aug_28_1417,MusicAffectPsychophysiology2019,3.0.5,60.03587947951229,
To what extent did the music make you feel ,ACTIVE,30MonoWAV/30MonoH3.wav,2,2,1,7,,,,,0,9,9,6,0,2,2,9,,,,,,,,,4,2.7695037519733887,086,001,2019_Aug_28_1417,MusicAffectPsychophysiology2019,3.0.5,60.03587947951229,
To what extent did the music make you feel ,ALERT,30MonoWAV/30MonoH3.wav,2,2,1,7,,,,,0,9,9,6,0,3,3,8,,,,,,,,,1,1.219930535997264,086,001,2019_Aug_28_1417,MusicAffectPsychophysiology2019,3.0.5,60.03587947951229,
To what extent did the music make you feel ,ASHAMED,30MonoWAV/30MonoH3.wav,2,2,1,7,,,,,0,9,9,6,0,4,4,4,,,,,,,,,1,3.352005680993898,086,001,2019_Aug_28_1417,MusicAffectPsychophysiology2019,3.0.5,60.03587947951229,
To what extent did the music make you feel ,SAD,30MonoWAV/30MonoH3.wav,2,2,1,7,,,,,0,9,9,6,0,5,5,0,,,,,,,,,1,0.7860060130187776,086,001,2019_Aug_28_1417,MusicAffectPsychophysiology2019,3.0.5,60.03587947951229,
To what extent did the music make you feel ,SCARED,30MonoWAV/30MonoH3.wav,2,2,1,7,,,,,0,9,9,6,0,6,6,11,,,,,,,,,1,0.8849468900007196,086,001,2019_Aug_28_1417,MusicAffectPsychophysiology2019,3.0.5,60.03587947951229,
To what extent did the music make you feel ,EXCITED,30MonoWAV/30MonoH3.wav,2,2,1,7,,,,,0,9,9,6,0,7,7,7,,,,,,,,,5,1.902538098016521,086,001,2019_Aug_28_1417,MusicAffectPsychophysiology2019,3.0.5,60.03587947951229,
To what extent did the music make you feel ,ANXIOUS ,30MonoWAV/30MonoH3.wav,2,2,1,7,,,,,0,9,9,6,0,8,8,1,,,,,,,,,1,1.4033954640035518,086,001,2019_Aug_28_1417,MusicAffectPsychophysiology2019,3.0.5,60.03587947951229,
To what extent did the music make you feel ,HAPPY,30MonoWAV/30MonoH3.wav,2,2,1,7,,,,,0,9,9,6,0,9,9,6,,,,,,,,,5,1.1029412339848932,086,001,2019_Aug_28_1417,MusicAffectPsychophysiology2019,3.0.5,60.03587947951229,
To what extent did the music make you feel ,GUILTY,30MonoWAV/30MonoH3.wav,2,2,1,7,,,,,0,9,9,6,0,10,10,5,,,,,,,,,1,3.9329812549985945,086,001,2019_Aug_28_1417,MusicAffectPsychophysiology2019,3.0.5,60.03587947951229,
To what extent did the music make you feel ,FRUSTRATED,30MonoWAV/30MonoH3.wav,2,2,1,7,,,,,0,9,9,6,0,11,11,3,,,,,,,,,1,2.1825040449912194,086,001,2019_Aug_28_1417,MusicAffectPsychophysiology2019,3.0.5,60.03587947951229,
,,30MonoWAV/30MonoH3.wav,2,2,1,7,,,,,0,9,9,6,,,,,,,,,,,,,,,086,001,2019_Aug_28_1417,MusicAffectPsychophysiology2019,3.0.5,60.03587947951229,
To what extent did the music make you feel ,ASHAMED,30MonoWAV/30MonoT2.wav,2,1,4,14,,,,,0,10,10,13,0,0,0,4,,,4,4.135489068023162,3,3.0008820939983707,3,3.10195604301407,4,4.616597681015264,086,001,2019_Aug_28_1417,MusicAffectPsychophysiology2019,3.0.5,60.03587947951229,
To what extent did the music make you feel ,ANGRY,30MonoWAV/30MonoT2.wav,2,1,4,14,,,,,0,10,10,13,0,1,1,2,,,,,,,,,1,1.2851550380000845,086,001,2019_Aug_28_1417,MusicAffectPsychophysiology2019,3.0.5,60.03587947951229,
To what extent did the music make you feel ,SCARED,30MonoWAV/30MonoT2.wav,2,1,4,14,,,,,0,10,10,13,0,2,2,11,,,,,,,,,1,1.1856091399968136,086,001,2019_Aug_28_1417,MusicAffectPsychophysiology2019,3.0.5,60.03587947951229,
To what extent did the music make you feel ,TENDER,30MonoWAV/30MonoT2.wav,2,1,4,14,,,,,0,10,10,13,0,3,3,10,,,,,,,,,4,1.4517281760054175,086,001,2019_Aug_28_1417,MusicAffectPsychophysiology2019,3.0.5,60.03587947951229,
To what extent did the music make you feel ,SAD,30MonoWAV/30MonoT2.wav,2,1,4,14,,,,,0,10,10,13,0,4,4,0,,,,,,,,,2,1.6183755740057677,086,001,2019_Aug_28_1417,MusicAffectPsychophysiology2019,3.0.5,60.03587947951229,
To what extent did the music make you feel ,EXCITED,30MonoWAV/30MonoT2.wav,2,1,4,14,,,,,0,10,10,13,0,5,5,7,,,,,,,,,3,1.9206145939824637,086,001,2019_Aug_28_1417,MusicAffectPsychophysiology2019,3.0.5,60.03587947951229,
To what extent did the music make you feel ,ANXIOUS ,30MonoWAV/30MonoT2.wav,2,1,4,14,,,,,0,10,10,13,0,6,6,1,,,,,,,,,3,3.867369737010449,086,001,2019_Aug_28_1417,MusicAffectPsychophysiology2019,3.0.5,60.03587947951229,
To what extent did the music make you feel ,ACTIVE,30MonoWAV/30MonoT2.wav,2,1,4,14,,,,,0,10,10,13,0,7,7,9,,,,,,,,,2,3.2022933029802516,086,001,2019_Aug_28_1417,MusicAffectPsychophysiology2019,3.0.5,60.03587947951229,
To what extent did the music make you feel ,GUILTY,30MonoWAV/30MonoT2.wav,2,1,4,14,,,,,0,10,10,13,0,8,8,5,,,,,,,,,1,1.8178960270015523,086,001,2019_Aug_28_1417,MusicAffectPsychophysiology2019,3.0.5,60.03587947951229,
To what extent did the music make you feel ,ALERT,30MonoWAV/30MonoT2.wav,2,1,4,14,,,,,0,10,10,13,0,9,9,8,,,,,,,,,1,1.035146648006048,086,001,2019_Aug_28_1417,MusicAffectPsychophysiology2019,3.0.5,60.03587947951229,
To what extent did the music make you feel ,FRUSTRATED,30MonoWAV/30MonoT2.wav,2,1,4,14,,,,,0,10,10,13,0,10,10,3,,,,,,,,,1,1.6858700480079278,086,001,2019_Aug_28_1417,MusicAffectPsychophysiology2019,3.0.5,60.03587947951229,
To what extent did the music make you feel ,HAPPY,30MonoWAV/30MonoT2.wav,2,1,4,14,,,,,0,10,10,13,0,11,11,6,,,,,,,,,4,3.485465847013984,086,001,2019_Aug_28_1417,MusicAffectPsychophysiology2019,3.0.5,60.03587947951229,
,,30MonoWAV/30MonoT2.wav,2,1,4,14,,,,,0,10,10,13,,,,,,,,,,,,,,,086,001,2019_Aug_28_1417,MusicAffectPsychophysiology2019,3.0.5,60.03587947951229,
To what extent did the music make you feel ,HAPPY,30MonoWAV/30MonoH4.wav,2,2,1,8,,,,,0,11,11,7,0,0,0,6,,,5,2.0695150720130187,5,0.8188677110010758,5,1.7167688769986853,5,1.0360788340040017,086,001,2019_Aug_28_1417,MusicAffectPsychophysiology2019,3.0.5,60.03587947951229,
To what extent did the music make you feel ,FRUSTRATED,30MonoWAV/30MonoH4.wav,2,2,1,8,,,,,0,11,11,7,0,1,1,3,,,,,,,,,1,1.2027313270082232,086,001,2019_Aug_28_1417,MusicAffectPsychophysiology2019,3.0.5,60.03587947951229,
To what extent did the music make you feel ,ACTIVE,30MonoWAV/30MonoH4.wav,2,2,1,8,,,,,0,11,11,7,0,2,2,9,,,,,,,,,5,1.4859574940055609,086,001,2019_Aug_28_1417,MusicAffectPsychophysiology2019,3.0.5,60.03587947951229,
To what extent did the music make you feel ,ASHAMED,30MonoWAV/30MonoH4.wav,2,2,1,8,,,,,0,11,11,7,0,3,3,4,,,,,,,,,1,1.8340847570216283,086,001,2019_Aug_28_1417,MusicAffectPsychophysiology2019,3.0.5,60.03587947951229,
To what extent did the music make you feel ,SAD,30MonoWAV/30MonoH4.wav,2,2,1,8,,,,,0,11,11,7,0,4,4,0,,,,,,,,,1,0.9498941059864592,086,001,2019_Aug_28_1417,MusicAffectPsychophysiology2019,3.0.5,60.03587947951229,
To what extent did the music make you feel ,ANXIOUS ,30MonoWAV/30MonoH4.wav,2,2,1,8,,,,,0,11,11,7,0,5,5,1,,,,,,,,,1,0.9030190740013495,086,001,2019_Aug_28_1417,MusicAffectPsychophysiology2019,3.0.5,60.03587947951229,
To what extent did the music make you feel ,SCARED,30MonoWAV/30MonoH4.wav,2,2,1,8,,,,,0,11,11,7,0,6,6,11,,,,,,,,,1,1.035687733994564,086,001,2019_Aug_28_1417,MusicAffectPsychophysiology2019,3.0.5,60.03587947951229,
To what extent did the music make you feel ,ANGRY,30MonoWAV/30MonoH4.wav,2,2,1,8,,,,,0,11,11,7,0,7,7,2,,,,,,,,,1,0.8666959549882449,086,001,2019_Aug_28_1417,MusicAffectPsychophysiology2019,3.0.5,60.03587947951229,
To what extent did the music make you feel ,EXCITED,30MonoWAV/30MonoH4.wav,2,2,1,8,,,,,0,11,11,7,0,8,8,7,,,,,,,,,5,1.8186934499826748,086,001,2019_Aug_28_1417,MusicAffectPsychophysiology2019,3.0.5,60.03587947951229,
To what extent did the music make you feel ,TENDER,30MonoWAV/30MonoH4.wav,2,2,1,8,,,,,0,11,11,7,0,9,9,10,,,,,,,,,2,1.7361866330029443,086,001,2019_Aug_28_1417,MusicAffectPsychophysiology2019,3.0.5,60.03587947951229,
To what extent did the music make you feel ,ALERT,30MonoWAV/30MonoH4.wav,2,2,1,8,,,,,0,11,11,7,0,10,10,8,,,,,,,,,1,1.251685081020696,086,001,2019_Aug_28_1417,MusicAffectPsychophysiology2019,3.0.5,60.03587947951229,
To what extent did the music make you feel ,GUILTY,30MonoWAV/30MonoH4.wav,2,2,1,8,,,,,0,11,11,7,0,11,11,5,,,,,,,,,1,0.8358218609937467,086,001,2019_Aug_28_1417,MusicAffectPsychophysiology2019,3.0.5,60.03587947951229,
,,30MonoWAV/30MonoH4.wav,2,2,1,8,,,,,0,11,11,7,,,,,,,,,,,,,,,086,001,2019_Aug_28_1417,MusicAffectPsychophysiology2019,3.0.5,60.03587947951229,
To what extent did the music make you feel ,FRUSTRATED,30MonoWAV/30MonoF3.wav,1,2,2,3,,,,,0,12,12,2,0,0,0,3,,,3,9.452567681990331,1,3.068431942985626,2,2.2358608880022075,4,2.652833525004098,086,001,2019_Aug_28_1417,MusicAffectPsychophysiology2019,3.0.5,60.03587947951229,
To what extent did the music make you feel ,ASHAMED,30MonoWAV/30MonoF3.wav,1,2,2,3,,,,,0,12,12,2,0,1,1,4,,,,,,,,,1,2.318960636999691,086,001,2019_Aug_28_1417,MusicAffectPsychophysiology2019,3.0.5,60.03587947951229,
To what extent did the music make you feel ,GUILTY,30MonoWAV/30MonoF3.wav,1,2,2,3,,,,,0,12,12,2,0,2,2,5,,,,,,,,,4,2.101702646992635,086,001,2019_Aug_28_1417,MusicAffectPsychophysiology2019,3.0.5,60.03587947951229,
To what extent did the music make you feel ,ANXIOUS ,30MonoWAV/30MonoF3.wav,1,2,2,3,,,,,0,12,12,2,0,3,3,1,,,,,,,,,4,0.8183197680045851,086,001,2019_Aug_28_1417,MusicAffectPsychophysiology2019,3.0.5,60.03587947951229,
To what extent did the music make you feel ,ACTIVE,30MonoWAV/30MonoF3.wav,1,2,2,3,,,,,0,12,12,2,0,4,4,9,,,,,,,,,3,1.8017372000031173,086,001,2019_Aug_28_1417,MusicAffectPsychophysiology2019,3.0.5,60.03587947951229,
To what extent did the music make you feel ,ANGRY,30MonoWAV/30MonoF3.wav,1,2,2,3,,,,,0,12,12,2,0,5,5,2,,,,,,,,,4,1.1534148569917306,086,001,2019_Aug_28_1417,MusicAffectPsychophysiology2019,3.0.5,60.03587947951229,
To what extent did the music make you feel ,ALERT,30MonoWAV/30MonoF3.wav,1,2,2,3,,,,,0,12,12,2,0,6,6,8,,,,,,,,,5,1.1860807119810488,086,001,2019_Aug_28_1417,MusicAffectPsychophysiology2019,3.0.5,60.03587947951229,
To what extent did the music make you feel ,SCARED,30MonoWAV/30MonoF3.wav,1,2,2,3,,,,,0,12,12,2,0,7,7,11,,,,,,,,,5,1.1684726150124334,086,001,2019_Aug_28_1417,MusicAffectPsychophysiology2019,3.0.5,60.03587947951229,
To what extent did the music make you feel ,SAD,30MonoWAV/30MonoF3.wav,1,2,2,3,,,,,0,12,12,2,0,8,8,0,,,,,,,,,1,1.2526862139930017,086,001,2019_Aug_28_1417,MusicAffectPsychophysiology2019,3.0.5,60.03587947951229,
To what extent did the music make you feel ,TENDER,30MonoWAV/30MonoF3.wav,1,2,2,3,,,,,0,12,12,2,0,9,9,10,,,,,,,,,1,1.483776923007099,086,001,2019_Aug_28_1417,MusicAffectPsychophysiology2019,3.0.5,60.03587947951229,
To what extent did the music make you feel ,HAPPY,30MonoWAV/30MonoF3.wav,1,2,2,3,,,,,0,12,12,2,0,10,10,6,,,,,,,,,1,1.7842315929883625,086,001,2019_Aug_28_1417,MusicAffectPsychophysiology2019,3.0.5,60.03587947951229,
To what extent did the music make you feel ,EXCITED,30MonoWAV/30MonoF3.wav,1,2,2,3,,,,,0,12,12,2,0,11,11,7,,,,,,,,,1,1.4018292610126082,086,001,2019_Aug_28_1417,MusicAffectPsychophysiology2019,3.0.5,60.03587947951229,
,,30MonoWAV/30MonoF3.wav,1,2,2,3,,,,,0,12,12,2,,,,,,,,,,,,,,,086,001,2019_Aug_28_1417,MusicAffectPsychophysiology2019,3.0.5,60.03587947951229,
To what extent did the music make you feel ,HAPPY,30MonoWAV/30MonoS2.wav,1,1,3,10,,,,,0,13,13,9,0,0,0,6,,,1,4.968803403986385,1,1.63603676497587,2,2.718685806990834,1,2.6441626960004214,086,001,2019_Aug_28_1417,MusicAffectPsychophysiology2019,3.0.5,60.03587947951229,
To what extent did the music make you feel ,FRUSTRATED,30MonoWAV/30MonoS2.wav,1,1,3,10,,,,,0,13,13,9,0,1,1,3,,,,,,,,,1,1.670330474007642,086,001,2019_Aug_28_1417,MusicAffectPsychophysiology2019,3.0.5,60.03587947951229,
To what extent did the music make you feel ,SCARED,30MonoWAV/30MonoS2.wav,1,1,3,10,,,,,0,13,13,9,0,2,2,11,,,,,,,,,1,1.485241563001182,086,001,2019_Aug_28_1417,MusicAffectPsychophysiology2019,3.0.5,60.03587947951229,
To what extent did the music make you feel ,ACTIVE,30MonoWAV/30MonoS2.wav,1,1,3,10,,,,,0,13,13,9,0,3,3,9,,,,,,,,,1,2.502318262006156,086,001,2019_Aug_28_1417,MusicAffectPsychophysiology2019,3.0.5,60.03587947951229,
To what extent did the music make you feel ,EXCITED,30MonoWAV/30MonoS2.wav,1,1,3,10,,,,,0,13,13,9,0,4,4,7,,,,,,,,,1,1.4859068309888244,086,001,2019_Aug_28_1417,MusicAffectPsychophysiology2019,3.0.5,60.03587947951229,
To what extent did the music make you feel ,ASHAMED,30MonoWAV/30MonoS2.wav,1,1,3,10,,,,,0,13,13,9,0,5,5,4,,,,,,,,,2,2.50205690797884,086,001,2019_Aug_28_1417,MusicAffectPsychophysiology2019,3.0.5,60.03587947951229,
To what extent did the music make you feel ,TENDER,30MonoWAV/30MonoS2.wav,1,1,3,10,,,,,0,13,13,9,0,6,6,10,,,,,,,,,4,1.6350063740101177,086,001,2019_Aug_28_1417,MusicAffectPsychophysiology2019,3.0.5,60.03587947951229,
To what extent did the music make you feel ,ALERT,30MonoWAV/30MonoS2.wav,1,1,3,10,,,,,0,13,13,9,0,7,7,8,,,,,,,,,1,1.1527317069994751,086,001,2019_Aug_28_1417,MusicAffectPsychophysiology2019,3.0.5,60.03587947951229,
To what extent did the music make you feel ,SAD,30MonoWAV/30MonoS2.wav,1,1,3,10,,,,,0,13,13,9,0,8,8,0,,,,,,,,,5,2.1862809869926423,086,001,2019_Aug_28_1417,MusicAffectPsychophysiology2019,3.0.5,60.03587947951229,
To what extent did the music make you feel ,ANXIOUS ,30MonoWAV/30MonoS2.wav,1,1,3,10,,,,,0,13,13,9,0,9,9,1,,,,,,,,,4,2.335484755982179,086,001,2019_Aug_28_1417,MusicAffectPsychophysiology2019,3.0.5,60.03587947951229,
To what extent did the music make you feel ,ANGRY,30MonoWAV/30MonoS2.wav,1,1,3,10,,,,,0,13,13,9,0,10,10,2,,,,,,,,,1,2.802134394994937,086,001,2019_Aug_28_1417,MusicAffectPsychophysiology2019,3.0.5,60.03587947951229,
To what extent did the music make you feel ,GUILTY,30MonoWAV/30MonoS2.wav,1,1,3,10,,,,,0,13,13,9,0,11,11,5,,,,,,,,,2,1.6191361770033836,086,001,2019_Aug_28_1417,MusicAffectPsychophysiology2019,3.0.5,60.03587947951229,
,,30MonoWAV/30MonoS2.wav,1,1,3,10,,,,,0,13,13,9,,,,,,,,,,,,,,,086,001,2019_Aug_28_1417,MusicAffectPsychophysiology2019,3.0.5,60.03587947951229,
To what extent did the music make you feel ,TENDER,30MonoWAV/30MonoH1.wav,2,2,1,5,,,,,0,14,14,4,0,0,0,10,,,4,19.131323726003757,4,1.471411637001438,3,3.7531421770108864,2,2.335027610999532,086,001,2019_Aug_28_1417,MusicAffectPsychophysiology2019,3.0.5,60.03587947951229,
To what extent did the music make you feel ,GUILTY,30MonoWAV/30MonoH1.wav,2,2,1,5,,,,,0,14,14,4,0,1,1,5,,,,,,,,,1,1.9363020030141342,086,001,2019_Aug_28_1417,MusicAffectPsychophysiology2019,3.0.5,60.03587947951229,
To what extent did the music make you feel ,ANXIOUS ,30MonoWAV/30MonoH1.wav,2,2,1,5,,,,,0,14,14,4,0,2,2,1,,,,,,,,,2,3.16874990001088,086,001,2019_Aug_28_1417,MusicAffectPsychophysiology2019,3.0.5,60.03587947951229,
To what extent did the music make you feel ,ASHAMED,30MonoWAV/30MonoH1.wav,2,2,1,5,,,,,0,14,14,4,0,3,3,4,,,,,,,,,1,2.5857262829958927,086,001,2019_Aug_28_1417,MusicAffectPsychophysiology2019,3.0.5,60.03587947951229,
To what extent did the music make you feel ,FRUSTRATED,30MonoWAV/30MonoH1.wav,2,2,1,5,,,,,0,14,14,4,0,4,4,3,,,,,,,,,1,2.3852314809919335,086,001,2019_Aug_28_1417,MusicAffectPsychophysiology2019,3.0.5,60.03587947951229,
To what extent did the music make you feel ,EXCITED,30MonoWAV/30MonoH1.wav,2,2,1,5,,,,,0,14,14,4,0,5,5,7,,,,,,,,,4,1.6694217520125676,086,001,2019_Aug_28_1417,MusicAffectPsychophysiology2019,3.0.5,60.03587947951229,
To what extent did the music make you feel ,SAD,30MonoWAV/30MonoH1.wav,2,2,1,5,,,,,0,14,14,4,0,6,6,0,,,,,,,,,1,4.6188305120158475,086,001,2019_Aug_28_1417,MusicAffectPsychophysiology2019,3.0.5,60.03587947951229,
To what extent did the music make you feel ,HAPPY,30MonoWAV/30MonoH1.wav,2,2,1,5,,,,,0,14,14,4,0,7,7,6,,,,,,,,,3,2.619375731010223,086,001,2019_Aug_28_1417,MusicAffectPsychophysiology2019,3.0.5,60.03587947951229,
To what extent did the music make you feel ,ALERT,30MonoWAV/30MonoH1.wav,2,2,1,5,,,,,0,14,14,4,0,8,8,8,,,,,,,,,2,3.93273754499387,086,001,2019_Aug_28_1417,MusicAffectPsychophysiology2019,3.0.5,60.03587947951229,
To what extent did the music make you feel ,ACTIVE,30MonoWAV/30MonoH1.wav,2,2,1,5,,,,,0,14,14,4,0,9,9,9,,,,,,,,,5,1.8193133489985485,086,001,2019_Aug_28_1417,MusicAffectPsychophysiology2019,3.0.5,60.03587947951229,
To what extent did the music make you feel ,ANGRY,30MonoWAV/30MonoH1.wav,2,2,1,5,,,,,0,14,14,4,0,10,10,2,,,,,,,,,1,2.6198886260099243,086,001,2019_Aug_28_1417,MusicAffectPsychophysiology2019,3.0.5,60.03587947951229,
To what extent did the music make you feel ,SCARED,30MonoWAV/30MonoH1.wav,2,2,1,5,,,,,0,14,14,4,0,11,11,11,,,,,,,,,1,1.716662393999286,086,001,2019_Aug_28_1417,MusicAffectPsychophysiology2019,3.0.5,60.03587947951229,
,,30MonoWAV/30MonoH1.wav,2,2,1,5,,,,,0,14,14,4,,,,,,,,,,,,,,,086,001,2019_Aug_28_1417,MusicAffectPsychophysiology2019,3.0.5,60.03587947951229,
To what extent did the music make you feel ,HAPPY,30MonoWAV/30MonoS4.wav,1,1,3,12,,,,,0,15,15,11,0,0,0,6,,,1,3.1168127200216986,1,2.4000411500164773,3,2.2190753940085415,2,3.6265636310272384,086,001,2019_Aug_28_1417,MusicAffectPsychophysiology2019,3.0.5,60.03587947951229,
To what extent did the music make you feel ,ANXIOUS ,30MonoWAV/30MonoS4.wav,1,1,3,12,,,,,0,15,15,11,0,1,1,1,,,,,,,,,3,4.270626329001971,086,001,2019_Aug_28_1417,MusicAffectPsychophysiology2019,3.0.5,60.03587947951229,
To what extent did the music make you feel ,ALERT,30MonoWAV/30MonoS4.wav,1,1,3,12,,,,,0,15,15,11,0,2,2,8,,,,,,,,,1,1.3364485200145282,086,001,2019_Aug_28_1417,MusicAffectPsychophysiology2019,3.0.5,60.03587947951229,
To what extent did the music make you feel ,GUILTY,30MonoWAV/30MonoS4.wav,1,1,3,12,,,,,0,15,15,11,0,3,3,5,,,,,,,,,2,1.2676470890000928,086,001,2019_Aug_28_1417,MusicAffectPsychophysiology2019,3.0.5,60.03587947951229,
To what extent did the music make you feel ,SCARED,30MonoWAV/30MonoS4.wav,1,1,3,12,,,,,0,15,15,11,0,4,4,11,,,,,,,,,1,1.8191792849975172,086,001,2019_Aug_28_1417,MusicAffectPsychophysiology2019,3.0.5,60.03587947951229,
To what extent did the music make you feel ,SAD,30MonoWAV/30MonoS4.wav,1,1,3,12,,,,,0,15,15,11,0,5,5,0,,,,,,,,,5,1.4195492019935045,086,001,2019_Aug_28_1417,MusicAffectPsychophysiology2019,3.0.5,60.03587947951229,
To what extent did the music make you feel ,ANGRY,30MonoWAV/30MonoS4.wav,1,1,3,12,,,,,0,15,15,11,0,6,6,2,,,,,,,,,1,1.56934034297592,086,001,2019_Aug_28_1417,MusicAffectPsychophysiology2019,3.0.5,60.03587947951229,
To what extent did the music make you feel ,ACTIVE,30MonoWAV/30MonoS4.wav,1,1,3,12,,,,,0,15,15,11,0,7,7,9,,,,,,,,,1,2.986578762996942,086,001,2019_Aug_28_1417,MusicAffectPsychophysiology2019,3.0.5,60.03587947951229,
To what extent did the music make you feel ,ASHAMED,30MonoWAV/30MonoS4.wav,1,1,3,12,,,,,0,15,15,11,0,8,8,4,,,,,,,,,2,1.3032385210099164,086,001,2019_Aug_28_1417,MusicAffectPsychophysiology2019,3.0.5,60.03587947951229,
To what extent did the music make you feel ,TENDER,30MonoWAV/30MonoS4.wav,1,1,3,12,,,,,0,15,15,11,0,9,9,10,,,,,,,,,4,1.418969359016046,086,001,2019_Aug_28_1417,MusicAffectPsychophysiology2019,3.0.5,60.03587947951229,
To what extent did the music make you feel ,EXCITED,30MonoWAV/30MonoS4.wav,1,1,3,12,,,,,0,15,15,11,0,10,10,7,,,,,,,,,1,1.2686868739838246,086,001,2019_Aug_28_1417,MusicAffectPsychophysiology2019,3.0.5,60.03587947951229,
To what extent did the music make you feel ,FRUSTRATED,30MonoWAV/30MonoS4.wav,1,1,3,12,,,,,0,15,15,11,0,11,11,3,,,,,,,,,2,1.6197962000151165,086,001,2019_Aug_28_1417,MusicAffectPsychophysiology2019,3.0.5,60.03587947951229,
,,30MonoWAV/30MonoS4.wav,1,1,3,12,,,,,0,15,15,11,,,,,,,,,,,,,,,086,001,2019_Aug_28_1417,MusicAffectPsychophysiology2019,3.0.5,60.03587947951229,
To what extent did the music make you feel ,ACTIVE,30MonoWAV/30MonoH2.wav,2,2,1,6,,,,,1,0,16,5,0,0,0,9,,,5,12.402341473993147,4,3.2352910969930235,4,2.034769307007082,4,2.1352837459999137,086,001,2019_Aug_28_1417,MusicAffectPsychophysiology2019,3.0.5,60.03587947951229,
To what extent did the music make you feel ,SAD,30MonoWAV/30MonoH2.wav,2,2,1,6,,,,,1,0,16,5,0,1,1,0,,,,,,,,,1,1.3365211320051458,086,001,2019_Aug_28_1417,MusicAffectPsychophysiology2019,3.0.5,60.03587947951229,
To what extent did the music make you feel ,ALERT,30MonoWAV/30MonoH2.wav,2,2,1,6,,,,,1,0,16,5,0,2,2,8,,,,,,,,,1,1.0033546870108694,086,001,2019_Aug_28_1417,MusicAffectPsychophysiology2019,3.0.5,60.03587947951229,
To what extent did the music make you feel ,ANXIOUS ,30MonoWAV/30MonoH2.wav,2,2,1,6,,,,,1,0,16,5,0,3,3,1,,,,,,,,,1,0.7030478640226647,086,001,2019_Aug_28_1417,MusicAffectPsychophysiology2019,3.0.5,60.03587947951229,
To what extent did the music make you feel ,HAPPY,30MonoWAV/30MonoH2.wav,2,2,1,6,,,,,1,0,16,5,0,4,4,6,,,,,,,,,5,1.0358828809985425,086,001,2019_Aug_28_1417,MusicAffectPsychophysiology2019,3.0.5,60.03587947951229,
To what extent did the music make you feel ,TENDER,30MonoWAV/30MonoH2.wav,2,2,1,6,,,,,1,0,16,5,0,5,5,10,,,,,,,,,2,1.3529850360064302,086,001,2019_Aug_28_1417,MusicAffectPsychophysiology2019,3.0.5,60.03587947951229,
To what extent did the music make you feel ,GUILTY,30MonoWAV/30MonoH2.wav,2,2,1,6,,,,,1,0,16,5,0,6,6,5,,,,,,,,,1,3.2185822179890238,086,001,2019_Aug_28_1417,MusicAffectPsychophysiology2019,3.0.5,60.03587947951229,
To what extent did the music make you feel ,ANGRY,30MonoWAV/30MonoH2.wav,2,2,1,6,,,,,1,0,16,5,0,7,7,2,,,,,,,,,1,0.8365796819853131,086,001,2019_Aug_28_1417,MusicAffectPsychophysiology2019,3.0.5,60.03587947951229,
To what extent did the music make you feel ,ASHAMED,30MonoWAV/30MonoH2.wav,2,2,1,6,,,,,1,0,16,5,0,8,8,4,,,,,,,,,1,0.8006014919956215,086,001,2019_Aug_28_1417,MusicAffectPsychophysiology2019,3.0.5,60.03587947951229,
To what extent did the music make you feel ,SCARED,30MonoWAV/30MonoH2.wav,2,2,1,6,,,,,1,0,16,5,0,9,9,11,,,,,,,,,1,1.2020895020104945,086,001,2019_Aug_28_1417,MusicAffectPsychophysiology2019,3.0.5,60.03587947951229,
To what extent did the music make you feel ,FRUSTRATED,30MonoWAV/30MonoH2.wav,2,2,1,6,,,,,1,0,16,5,0,10,10,3,,,,,,,,,1,1.4878080369962845,086,001,2019_Aug_28_1417,MusicAffectPsychophysiology2019,3.0.5,60.03587947951229,
To what extent did the music make you feel ,EXCITED,30MonoWAV/30MonoH2.wav,2,2,1,6,,,,,1,0,16,5,0,11,11,7,,,,,,,,,5,1.7364573619852308,086,001,2019_Aug_28_1417,MusicAffectPsychophysiology2019,3.0.5,60.03587947951229,
,,30MonoWAV/30MonoH2.wav,2,2,1,6,,,,,1,0,16,5,,,,,,,,,,,,,,,086,001,2019_Aug_28_1417,MusicAffectPsychophysiology2019,3.0.5,60.03587947951229,
To what extent did the music make you feel ,ANXIOUS ,30MonoWAV/30MonoT3.wav,2,1,4,15,,,,,1,1,17,14,0,0,0,1,,,3,3.6504848359909374,4,1.3997668819793034,3,2.4357703330169898,1,1.544018564018188,086,001,2019_Aug_28_1417,MusicAffectPsychophysiology2019,3.0.5,60.03587947951229,
To what extent did the music make you feel ,ANGRY,30MonoWAV/30MonoT3.wav,2,1,4,15,,,,,1,1,17,14,0,1,1,2,,,,,,,,,1,0.7532915860065259,086,001,2019_Aug_28_1417,MusicAffectPsychophysiology2019,3.0.5,60.03587947951229,
To what extent did the music make you feel ,HAPPY,30MonoWAV/30MonoT3.wav,2,1,4,15,,,,,1,1,17,14,0,2,2,6,,,,,,,,,4,4.803190364007605,086,001,2019_Aug_28_1417,MusicAffectPsychophysiology2019,3.0.5,60.03587947951229,
To what extent did the music make you feel ,FRUSTRATED,30MonoWAV/30MonoT3.wav,2,1,4,15,,,,,1,1,17,14,0,3,3,3,,,,,,,,,1,1.5743261559982784,086,001,2019_Aug_28_1417,MusicAffectPsychophysiology2019,3.0.5,60.03587947951229,
To what extent did the music make you feel ,SAD,30MonoWAV/30MonoT3.wav,2,1,4,15,,,,,1,1,17,14,0,4,4,0,,,,,,,,,3,1.4360487260273658,086,001,2019_Aug_28_1417,MusicAffectPsychophysiology2019,3.0.5,60.03587947951229,
To what extent did the music make you feel ,ALERT,30MonoWAV/30MonoT3.wav,2,1,4,15,,,,,1,1,17,14,0,5,5,8,,,,,,,,,1,4.235672697977861,086,001,2019_Aug_28_1417,MusicAffectPsychophysiology2019,3.0.5,60.03587947951229,
To what extent did the music make you feel ,ASHAMED,30MonoWAV/30MonoT3.wav,2,1,4,15,,,,,1,1,17,14,0,6,6,4,,,,,,,,,1,1.4362635430006776,086,001,2019_Aug_28_1417,MusicAffectPsychophysiology2019,3.0.5,60.03587947951229,
To what extent did the music make you feel ,ACTIVE,30MonoWAV/30MonoT3.wav,2,1,4,15,,,,,1,1,17,14,0,7,7,9,,,,,,,,,1,1.1690136289980728,086,001,2019_Aug_28_1417,MusicAffectPsychophysiology2019,3.0.5,60.03587947951229,
To what extent did the music make you feel ,EXCITED,30MonoWAV/30MonoT3.wav,2,1,4,15,,,,,1,1,17,14,0,8,8,7,,,,,,,,,2,3.7188055219885428,086,001,2019_Aug_28_1417,MusicAffectPsychophysiology2019,3.0.5,60.03587947951229,
To what extent did the music make you feel ,GUILTY,30MonoWAV/30MonoT3.wav,2,1,4,15,,,,,1,1,17,14,0,9,9,5,,,,,,,,,1,0.9861634930130094,086,001,2019_Aug_28_1417,MusicAffectPsychophysiology2019,3.0.5,60.03587947951229,
To what extent did the music make you feel ,TENDER,30MonoWAV/30MonoT3.wav,2,1,4,15,,,,,1,1,17,14,0,10,10,10,,,,,,,,,5,1.7526676190027501,086,001,2019_Aug_28_1417,MusicAffectPsychophysiology2019,3.0.5,60.03587947951229,
To what extent did the music make you feel ,SCARED,30MonoWAV/30MonoT3.wav,2,1,4,15,,,,,1,1,17,14,0,11,11,11,,,,,,,,,1,1.2367825050023384,086,001,2019_Aug_28_1417,MusicAffectPsychophysiology2019,3.0.5,60.03587947951229,
,,30MonoWAV/30MonoT3.wav,2,1,4,15,,,,,1,1,17,14,,,,,,,,,,,,,,,086,001,2019_Aug_28_1417,MusicAffectPsychophysiology2019,3.0.5,60.03587947951229,
To what extent did the music make you feel ,SAD,30MonoWAV/30MonoF1.wav,1,2,2,1,,,,,1,2,18,0,0,0,0,0,,,5,3.602280151011655,2,2.1853112479730044,3,3.3519714750000276,1,2.586389569012681,086,001,2019_Aug_28_1417,MusicAffectPsychophysiology2019,3.0.5,60.03587947951229,
To what extent did the music make you feel ,ANGRY,30MonoWAV/30MonoF1.wav,1,2,2,1,,,,,1,2,18,0,0,1,1,2,,,,,,,,,4,1.5536977069859859,086,001,2019_Aug_28_1417,MusicAffectPsychophysiology2019,3.0.5,60.03587947951229,
To what extent did the music make you feel ,ANXIOUS ,30MonoWAV/30MonoF1.wav,1,2,2,1,,,,,1,2,18,0,0,2,2,1,,,,,,,,,4,2.518822974001523,086,001,2019_Aug_28_1417,MusicAffectPsychophysiology2019,3.0.5,60.03587947951229,
To what extent did the music make you feel ,ALERT,30MonoWAV/30MonoF1.wav,1,2,2,1,,,,,1,2,18,0,0,3,3,8,,,,,,,,,4,1.0851507219776977,086,001,2019_Aug_28_1417,MusicAffectPsychophysiology2019,3.0.5,60.03587947951229,
To what extent did the music make you feel ,GUILTY,30MonoWAV/30MonoF1.wav,1,2,2,1,,,,,1,2,18,0,0,4,4,5,,,,,,,,,3,2.6189326030144002,086,001,2019_Aug_28_1417,MusicAffectPsychophysiology2019,3.0.5,60.03587947951229,
To what extent did the music make you feel ,HAPPY,30MonoWAV/30MonoF1.wav,1,2,2,1,,,,,1,2,18,0,0,5,5,6,,,,,,,,,1,2.0689981180184986,086,001,2019_Aug_28_1417,MusicAffectPsychophysiology2019,3.0.5,60.03587947951229,
To what extent did the music make you feel ,FRUSTRATED,30MonoWAV/30MonoF1.wav,1,2,2,1,,,,,1,2,18,0,0,6,6,3,,,,,,,,,4,1.5524472979886923,086,001,2019_Aug_28_1417,MusicAffectPsychophysiology2019,3.0.5,60.03587947951229,
To what extent did the music make you feel ,SCARED,30MonoWAV/30MonoF1.wav,1,2,2,1,,,,,1,2,18,0,0,7,7,11,,,,,,,,,4,1.4866598829976283,086,001,2019_Aug_28_1417,MusicAffectPsychophysiology2019,3.0.5,60.03587947951229,
To what extent did the music make you feel ,ASHAMED,30MonoWAV/30MonoF1.wav,1,2,2,1,,,,,1,2,18,0,0,8,8,4,,,,,,,,,2,1.8695456339919474,086,001,2019_Aug_28_1417,MusicAffectPsychophysiology2019,3.0.5,60.03587947951229,
To what extent did the music make you feel ,TENDER,30MonoWAV/30MonoF1.wav,1,2,2,1,,,,,1,2,18,0,0,9,9,10,,,,,,,,,1,2.053682124998886,086,001,2019_Aug_28_1417,MusicAffectPsychophysiology2019,3.0.5,60.03587947951229,
To what extent did the music make you feel ,EXCITED,30MonoWAV/30MonoF1.wav,1,2,2,1,,,,,1,2,18,0,0,10,10,7,,,,,,,,,3,5.199930324975867,086,001,2019_Aug_28_1417,MusicAffectPsychophysiology2019,3.0.5,60.03587947951229,
To what extent did the music make you feel ,ACTIVE,30MonoWAV/30MonoF1.wav,1,2,2,1,,,,,1,2,18,0,0,11,11,9,,,,,,,,,5,2.569001352007035,086,001,2019_Aug_28_1417,MusicAffectPsychophysiology2019,3.0.5,60.03587947951229,
,,30MonoWAV/30MonoF1.wav,1,2,2,1,,,,,1,2,18,0,,,,,,,,,,,,,,,086,001,2019_Aug_28_1417,MusicAffectPsychophysiology2019,3.0.5,60.03587947951229,
To what extent did the music make you feel ,SCARED,30MonoWAV/30MonoF2.wav,1,2,2,2,,,,,1,3,19,1,0,0,0,11,,,4,3.669232001004275,1,1.4850060600147117,1,1.752608770999359,5,3.2278022399987094,086,001,2019_Aug_28_1417,MusicAffectPsychophysiology2019,3.0.5,60.03587947951229,
To what extent did the music make you feel ,EXCITED,30MonoWAV/30MonoF2.wav,1,2,2,2,,,,,1,3,19,1,0,1,1,7,,,,,,,,,1,1.7021978049888276,086,001,2019_Aug_28_1417,MusicAffectPsychophysiology2019,3.0.5,60.03587947951229,
To what extent did the music make you feel ,FRUSTRATED,30MonoWAV/30MonoF2.wav,1,2,2,2,,,,,1,3,19,1,0,2,2,3,,,,,,,,,5,1.4422207309980877,086,001,2019_Aug_28_1417,MusicAffectPsychophysiology2019,3.0.5,60.03587947951229,
To what extent did the music make you feel ,GUILTY,30MonoWAV/30MonoF2.wav,1,2,2,2,,,,,1,3,19,1,0,3,3,5,,,,,,,,,3,1.6695636759977788,086,001,2019_Aug_28_1417,MusicAffectPsychophysiology2019,3.0.5,60.03587947951229,
To what extent did the music make you feel ,TENDER,30MonoWAV/30MonoF2.wav,1,2,2,2,,,,,1,3,19,1,0,4,4,10,,,,,,,,,2,1.4518553969974164,086,001,2019_Aug_28_1417,MusicAffectPsychophysiology2019,3.0.5,60.03587947951229,
To what extent did the music make you feel ,ACTIVE,30MonoWAV/30MonoF2.wav,1,2,2,2,,,,,1,3,19,1,0,5,5,9,,,,,,,,,3,1.8854838930128608,086,001,2019_Aug_28_1417,MusicAffectPsychophysiology2019,3.0.5,60.03587947951229,
To what extent did the music make you feel ,ANGRY,30MonoWAV/30MonoF2.wav,1,2,2,2,,,,,1,3,19,1,0,6,6,2,,,,,,,,,5,2.6360227889963426,086,001,2019_Aug_28_1417,MusicAffectPsychophysiology2019,3.0.5,60.03587947951229,
To what extent did the music make you feel ,ANXIOUS ,30MonoWAV/30MonoF2.wav,1,2,2,2,,,,,1,3,19,1,0,7,7,1,,,,,,,,,5,2.587370635010302,086,001,2019_Aug_28_1417,MusicAffectPsychophysiology2019,3.0.5,60.03587947951229,
To what extent did the music make you feel ,HAPPY,30MonoWAV/30MonoF2.wav,1,2,2,2,,,,,1,3,19,1,0,8,8,6,,,,,,,,,1,1.1104211850033607,086,001,2019_Aug_28_1417,MusicAffectPsychophysiology2019,3.0.5,60.03587947951229,
To what extent did the music make you feel ,SAD,30MonoWAV/30MonoF2.wav,1,2,2,2,,,,,1,3,19,1,0,9,9,0,,,,,,,,,1,2.9012672169774305,086,001,2019_Aug_28_1417,MusicAffectPsychophysiology2019,3.0.5,60.03587947951229,
To what extent did the music make you feel ,ALERT,30MonoWAV/30MonoF2.wav,1,2,2,2,,,,,1,3,19,1,0,10,10,8,,,,,,,,,5,3.120294912980171,086,001,2019_Aug_28_1417,MusicAffectPsychophysiology2019,3.0.5,60.03587947951229,
To what extent did the music make you feel ,ASHAMED,30MonoWAV/30MonoF2.wav,1,2,2,2,,,,,1,3,19,1,0,11,11,4,,,,,,,,,1,2.718014113022946,086,001,2019_Aug_28_1417,MusicAffectPsychophysiology2019,3.0.5,60.03587947951229,
,,30MonoWAV/30MonoF2.wav,1,2,2,2,,,,,1,3,19,1,,,,,,,,,,,,,,,086,001,2019_Aug_28_1417,MusicAffectPsychophysiology2019,3.0.5,60.03587947951229,
To what extent did the music make you feel ,SCARED,30MonoWAV/30MonoT2.wav,2,1,4,14,,,,,1,4,20,13,0,0,0,11,,,3,4.319185025000479,4,1.451915294979699,4,3.5496741459937766,1,1.7360500180220697,086,001,2019_Aug_28_1417,MusicAffectPsychophysiology2019,3.0.5,60.03587947951229,
To what extent did the music make you feel ,TENDER,30MonoWAV/30MonoT2.wav,2,1,4,14,,,,,1,4,20,13,0,1,1,10,,,,,,,,,5,1.485768493002979,086,001,2019_Aug_28_1417,MusicAffectPsychophysiology2019,3.0.5,60.03587947951229,
To what extent did the music make you feel ,ACTIVE,30MonoWAV/30MonoT2.wav,2,1,4,14,,,,,1,4,20,13,0,2,2,9,,,,,,,,,2,2.569584067998221,086,001,2019_Aug_28_1417,MusicAffectPsychophysiology2019,3.0.5,60.03587947951229,
To what extent did the music make you feel ,EXCITED,30MonoWAV/30MonoT2.wav,2,1,4,14,,,,,1,4,20,13,0,3,3,7,,,,,,,,,3,1.7340127880161162,086,001,2019_Aug_28_1417,MusicAffectPsychophysiology2019,3.0.5,60.03587947951229,
To what extent did the music make you feel ,ASHAMED,30MonoWAV/30MonoT2.wav,2,1,4,14,,,,,1,4,20,13,0,4,4,4,,,,,,,,,2,2.0353384070040192,086,001,2019_Aug_28_1417,MusicAffectPsychophysiology2019,3.0.5,60.03587947951229,
To what extent did the music make you feel ,FRUSTRATED,30MonoWAV/30MonoT2.wav,2,1,4,14,,,,,1,4,20,13,0,5,5,3,,,,,,,,,1,1.5536884540051688,086,001,2019_Aug_28_1417,MusicAffectPsychophysiology2019,3.0.5,60.03587947951229,
To what extent did the music make you feel ,SAD,30MonoWAV/30MonoT2.wav,2,1,4,14,,,,,1,4,20,13,0,6,6,0,,,,,,,,,2,1.61798471500515,086,001,2019_Aug_28_1417,MusicAffectPsychophysiology2019,3.0.5,60.03587947951229,
To what extent did the music make you feel ,ALERT,30MonoWAV/30MonoT2.wav,2,1,4,14,,,,,1,4,20,13,0,7,7,8,,,,,,,,,1,1.451786314981291,086,001,2019_Aug_28_1417,MusicAffectPsychophysiology2019,3.0.5,60.03587947951229,
To what extent did the music make you feel ,GUILTY,30MonoWAV/30MonoT2.wav,2,1,4,14,,,,,1,4,20,13,0,8,8,5,,,,,,,,,1,1.2188112059957348,086,001,2019_Aug_28_1417,MusicAffectPsychophysiology2019,3.0.5,60.03587947951229,
To what extent did the music make you feel ,ANXIOUS ,30MonoWAV/30MonoT2.wav,2,1,4,14,,,,,1,4,20,13,0,9,9,1,,,,,,,,,1,2.268987749994267,086,001,2019_Aug_28_1417,MusicAffectPsychophysiology2019,3.0.5,60.03587947951229,
To what extent did the music make you feel ,ANGRY,30MonoWAV/30MonoT2.wav,2,1,4,14,,,,,1,4,20,13,0,10,10,2,,,,,,,,,1,1.6691384490113705,086,001,2019_Aug_28_1417,MusicAffectPsychophysiology2019,3.0.5,60.03587947951229,
To what extent did the music make you feel ,HAPPY,30MonoWAV/30MonoT2.wav,2,1,4,14,,,,,1,4,20,13,0,11,11,6,,,,,,,,,4,1.2861372210027184,086,001,2019_Aug_28_1417,MusicAffectPsychophysiology2019,3.0.5,60.03587947951229,
,,30MonoWAV/30MonoT2.wav,2,1,4,14,,,,,1,4,20,13,,,,,,,,,,,,,,,086,001,2019_Aug_28_1417,MusicAffectPsychophysiology2019,3.0.5,60.03587947951229,
To what extent did the music make you feel ,ASHAMED,30MonoWAV/30MonoH4.wav,2,2,1,8,,,,,1,5,21,7,0,0,0,4,,,5,2.3520409440097865,5,1.0695465260068886,5,1.3529220380005427,1,1.6792611950077116,086,001,2019_Aug_28_1417,MusicAffectPsychophysiology2019,3.0.5,60.03587947951229,
To what extent did the music make you feel ,TENDER,30MonoWAV/30MonoH4.wav,2,2,1,8,,,,,1,5,21,7,0,1,1,10,,,,,,,,,1,1.5361347179859877,086,001,2019_Aug_28_1417,MusicAffectPsychophysiology2019,3.0.5,60.03587947951229,
To what extent did the music make you feel ,GUILTY,30MonoWAV/30MonoH4.wav,2,2,1,8,,,,,1,5,21,7,0,2,2,5,,,,,,,,,1,0.9528498119907454,086,001,2019_Aug_28_1417,MusicAffectPsychophysiology2019,3.0.5,60.03587947951229,
To what extent did the music make you feel ,HAPPY,30MonoWAV/30MonoH4.wav,2,2,1,8,,,,,1,5,21,7,0,3,3,6,,,,,,,,,5,1.1022987779870164,086,001,2019_Aug_28_1417,MusicAffectPsychophysiology2019,3.0.5,60.03587947951229,
To what extent did the music make you feel ,ALERT,30MonoWAV/30MonoH4.wav,2,2,1,8,,,,,1,5,21,7,0,4,4,8,,,,,,,,,1,1.2188862950133625,086,001,2019_Aug_28_1417,MusicAffectPsychophysiology2019,3.0.5,60.03587947951229,
To what extent did the music make you feel ,SCARED,30MonoWAV/30MonoH4.wav,2,2,1,8,,,,,1,5,21,7,0,5,5,11,,,,,,,,,1,0.918708212004276,086,001,2019_Aug_28_1417,MusicAffectPsychophysiology2019,3.0.5,60.03587947951229,
To what extent did the music make you feel ,ANXIOUS ,30MonoWAV/30MonoH4.wav,2,2,1,8,,,,,1,5,21,7,0,6,6,1,,,,,,,,,1,0.7872398160106968,086,001,2019_Aug_28_1417,MusicAffectPsychophysiology2019,3.0.5,60.03587947951229,
To what extent did the music make you feel ,ANGRY,30MonoWAV/30MonoH4.wav,2,2,1,8,,,,,1,5,21,7,0,7,7,2,,,,,,,,,1,0.7024208489747252,086,001,2019_Aug_28_1417,MusicAffectPsychophysiology2019,3.0.5,60.03587947951229,
To what extent did the music make you feel ,FRUSTRATED,30MonoWAV/30MonoH4.wav,2,2,1,8,,,,,1,5,21,7,0,8,8,3,,,,,,,,,1,0.852692610991653,086,001,2019_Aug_28_1417,MusicAffectPsychophysiology2019,3.0.5,60.03587947951229,
To what extent did the music make you feel ,SAD,30MonoWAV/30MonoH4.wav,2,2,1,8,,,,,1,5,21,7,0,9,9,0,,,,,,,,,1,0.7536735539906658,086,001,2019_Aug_28_1417,MusicAffectPsychophysiology2019,3.0.5,60.03587947951229,
To what extent did the music make you feel ,ACTIVE,30MonoWAV/30MonoH4.wav,2,2,1,8,,,,,1,5,21,7,0,10,10,9,,,,,,,,,5,1.8696280480071437,086,001,2019_Aug_28_1417,MusicAffectPsychophysiology2019,3.0.5,60.03587947951229,
To what extent did the music make you feel ,EXCITED,30MonoWAV/30MonoH4.wav,2,2,1,8,,,,,1,5,21,7,0,11,11,7,,,,,,,,,5,1.9192471340065822,086,001,2019_Aug_28_1417,MusicAffectPsychophysiology2019,3.0.5,60.03587947951229,
