Instruction,Word,song,valence,arousal,affectcat,songmark,pracwords.thisRepN,pracwords.thisTrialN,pracwords.thisN,pracwords.thisIndex,songtrials.thisRepN,songtrials.thisTrialN,songtrials.thisN,songtrials.thisIndex,words.thisRepN,words.thisTrialN,words.thisN,words.thisIndex,begin.keys,begin.rt,arousalkey.keys,arousalkey.rt,valencekey.keys,valencekey.rt,likekey.keys,likekey.rt,WordResponse.keys,WordResponse.rt,participant,session,date,expName,psychopyVersion,frameRate,
,,,,,,,,,,,,,,,,,,,space,7.384954612003639,,,,,,,,,087,001,2019_Aug_28_1511,MusicAffectPsychophysiology2019,3.0.5,60.28811570186866,
,,,,,,,,,,,,,,,,,,,,,4,4.067772837996017,,,,,,,087,001,2019_Aug_28_1511,MusicAffectPsychophysiology2019,3.0.5,60.28811570186866,
,,,,,,,,,,,,,,,,,,,,,,,4,2.5190157210163306,,,,,087,001,2019_Aug_28_1511,MusicAffectPsychophysiology2019,3.0.5,60.28811570186866,
,,,,,,,,,,,,,,,,,,,,,,,,,4,3.884948571008863,,,087,001,2019_Aug_28_1511,MusicAffectPsychophysiology2019,3.0.5,60.28811570186866,
To what extent did the music make you feel ,TENDER,,,,,,0,0,0,10,,,,,,,,,,,,,,,,,4,4.602208105992759,087,001,2019_Aug_28_1511,MusicAffectPsychophysiology2019,3.0.5,60.28811570186866,
To what extent did the music make you feel ,SAD,,,,,,0,1,1,0,,,,,,,,,,,,,,,,,1,1.7360196340014227,087,001,2019_Aug_28_1511,MusicAffectPsychophysiology2019,3.0.5,60.28811570186866,
To what extent did the music make you feel ,FRUSTRATED,,,,,,0,2,2,3,,,,,,,,,,,,,,,,,1,1.2331920000142418,087,001,2019_Aug_28_1511,MusicAffectPsychophysiology2019,3.0.5,60.28811570186866,
To what extent did the music make you feel ,EXCITED,,,,,,0,3,3,7,,,,,,,,,,,,,,,,,2,1.8832084509776905,087,001,2019_Aug_28_1511,MusicAffectPsychophysiology2019,3.0.5,60.28811570186866,
To what extent did the music make you feel ,ANXIOUS ,,,,,,0,4,4,1,,,,,,,,,,,,,,,,,1,1.1022627679922152,087,001,2019_Aug_28_1511,MusicAffectPsychophysiology2019,3.0.5,60.28811570186866,
To what extent did the music make you feel ,SCARED,,,,,,0,5,5,11,,,,,,,,,,,,,,,,,1,1.0023154410009738,087,001,2019_Aug_28_1511,MusicAffectPsychophysiology2019,3.0.5,60.28811570186866,
To what extent did the music make you feel ,HAPPY,,,,,,0,6,6,6,,,,,,,,,,,,,,,,,4,1.5703661630104762,087,001,2019_Aug_28_1511,MusicAffectPsychophysiology2019,3.0.5,60.28811570186866,
To what extent did the music make you feel ,ALERT,,,,,,0,7,7,8,,,,,,,,,,,,,,,,,1,2.0345344110100996,087,001,2019_Aug_28_1511,MusicAffectPsychophysiology2019,3.0.5,60.28811570186866,
To what extent did the music make you feel ,ACTIVE,,,,,,0,8,8,9,,,,,,,,,,,,,,,,,2,1.6026562080078293,087,001,2019_Aug_28_1511,MusicAffectPsychophysiology2019,3.0.5,60.28811570186866,
To what extent did the music make you feel ,ANGRY,,,,,,0,9,9,2,,,,,,,,,,,,,,,,,1,0.9352199480053969,087,001,2019_Aug_28_1511,MusicAffectPsychophysiology2019,3.0.5,60.28811570186866,
To what extent did the music make you feel ,ASHAMED,,,,,,0,10,10,4,,,,,,,,,,,,,,,,,1,1.0528660010022577,087,001,2019_Aug_28_1511,MusicAffectPsychophysiology2019,3.0.5,60.28811570186866,
To what extent did the music make you feel ,GUILTY,,,,,,0,11,11,5,,,,,,,,,,,,,,,,,1,0.6361899690236896,087,001,2019_Aug_28_1511,MusicAffectPsychophysiology2019,3.0.5,60.28811570186866,
To what extent did the music make you feel ,ASHAMED,30MonoWAV/30MonoS1.wav,1,1,3,9,,,,,0,0,0,8,0,0,0,4,,,1,3.9859984859940596,2,1.8857131429831497,4,2.7691019030171447,1,1.8447964029910509,087,001,2019_Aug_28_1511,MusicAffectPsychophysiology2019,3.0.5,60.28811570186866,
To what extent did the music make you feel ,SAD,30MonoWAV/30MonoS1.wav,1,1,3,9,,,,,0,0,0,8,0,1,1,0,,,,,,,,,2,1.416058835980948,087,001,2019_Aug_28_1511,MusicAffectPsychophysiology2019,3.0.5,60.28811570186866,
To what extent did the music make you feel ,ANGRY,30MonoWAV/30MonoS1.wav,1,1,3,9,,,,,0,0,0,8,0,2,2,2,,,,,,,,,1,1.0028848340152763,087,001,2019_Aug_28_1511,MusicAffectPsychophysiology2019,3.0.5,60.28811570186866,
To what extent did the music make you feel ,ANXIOUS ,30MonoWAV/30MonoS1.wav,1,1,3,9,,,,,0,0,0,8,0,3,3,1,,,,,,,,,1,0.7033797320036683,087,001,2019_Aug_28_1511,MusicAffectPsychophysiology2019,3.0.5,60.28811570186866,
To what extent did the music make you feel ,GUILTY,30MonoWAV/30MonoS1.wav,1,1,3,9,,,,,0,0,0,8,0,4,4,5,,,,,,,,,1,1.7351549619925208,087,001,2019_Aug_28_1511,MusicAffectPsychophysiology2019,3.0.5,60.28811570186866,
To what extent did the music make you feel ,EXCITED,30MonoWAV/30MonoS1.wav,1,1,3,9,,,,,0,0,0,8,0,5,5,7,,,,,,,,,1,2.186012653983198,087,001,2019_Aug_28_1511,MusicAffectPsychophysiology2019,3.0.5,60.28811570186866,
To what extent did the music make you feel ,FRUSTRATED,30MonoWAV/30MonoS1.wav,1,1,3,9,,,,,0,0,0,8,0,6,6,3,,,,,,,,,1,1.2366742840094958,087,001,2019_Aug_28_1511,MusicAffectPsychophysiology2019,3.0.5,60.28811570186866,
To what extent did the music make you feel ,SCARED,30MonoWAV/30MonoS1.wav,1,1,3,9,,,,,0,0,0,8,0,7,7,11,,,,,,,,,1,1.2194170309812762,087,001,2019_Aug_28_1511,MusicAffectPsychophysiology2019,3.0.5,60.28811570186866,
To what extent did the music make you feel ,HAPPY,30MonoWAV/30MonoS1.wav,1,1,3,9,,,,,0,0,0,8,0,8,8,6,,,,,,,,,1,0.8680038460006472,087,001,2019_Aug_28_1511,MusicAffectPsychophysiology2019,3.0.5,60.28811570186866,
To what extent did the music make you feel ,ACTIVE,30MonoWAV/30MonoS1.wav,1,1,3,9,,,,,0,0,0,8,0,9,9,9,,,,,,,,,1,2.352897000993835,087,001,2019_Aug_28_1511,MusicAffectPsychophysiology2019,3.0.5,60.28811570186866,
To what extent did the music make you feel ,TENDER,30MonoWAV/30MonoS1.wav,1,1,3,9,,,,,0,0,0,8,0,10,10,10,,,,,,,,,2,3.3676999519811943,087,001,2019_Aug_28_1511,MusicAffectPsychophysiology2019,3.0.5,60.28811570186866,
To what extent did the music make you feel ,ALERT,30MonoWAV/30MonoS1.wav,1,1,3,9,,,,,0,0,0,8,0,11,11,8,,,,,,,,,1,1.0173637919942848,087,001,2019_Aug_28_1511,MusicAffectPsychophysiology2019,3.0.5,60.28811570186866,
,,30MonoWAV/30MonoS1.wav,1,1,3,9,,,,,0,0,0,8,,,,,,,,,,,,,,,087,001,2019_Aug_28_1511,MusicAffectPsychophysiology2019,3.0.5,60.28811570186866,
To what extent did the music make you feel ,ANGRY,30MonoWAV/30MonoT1.wav,2,1,4,13,,,,,0,1,1,12,0,0,0,2,,,2,4.701576900988584,4,3.1025772669818252,4,1.9353981240128633,1,1.2350815869867802,087,001,2019_Aug_28_1511,MusicAffectPsychophysiology2019,3.0.5,60.28811570186866,
To what extent did the music make you feel ,FRUSTRATED,30MonoWAV/30MonoT1.wav,2,1,4,13,,,,,0,1,1,12,0,1,1,3,,,,,,,,,1,0.6043704029871151,087,001,2019_Aug_28_1511,MusicAffectPsychophysiology2019,3.0.5,60.28811570186866,
To what extent did the music make you feel ,SAD,30MonoWAV/30MonoT1.wav,2,1,4,13,,,,,0,1,1,12,0,2,2,0,,,,,,,,,1,0.5695773629995529,087,001,2019_Aug_28_1511,MusicAffectPsychophysiology2019,3.0.5,60.28811570186866,
To what extent did the music make you feel ,ALERT,30MonoWAV/30MonoT1.wav,2,1,4,13,,,,,0,1,1,12,0,3,3,8,,,,,,,,,1,1.3356871920113917,087,001,2019_Aug_28_1511,MusicAffectPsychophysiology2019,3.0.5,60.28811570186866,
To what extent did the music make you feel ,EXCITED,30MonoWAV/30MonoT1.wav,2,1,4,13,,,,,0,1,1,12,0,4,4,7,,,,,,,,,1,1.3363414960040245,087,001,2019_Aug_28_1511,MusicAffectPsychophysiology2019,3.0.5,60.28811570186866,
To what extent did the music make you feel ,ANXIOUS ,30MonoWAV/30MonoT1.wav,2,1,4,13,,,,,0,1,1,12,0,5,5,1,,,,,,,,,1,1.703277275984874,087,001,2019_Aug_28_1511,MusicAffectPsychophysiology2019,3.0.5,60.28811570186866,
To what extent did the music make you feel ,GUILTY,30MonoWAV/30MonoT1.wav,2,1,4,13,,,,,0,1,1,12,0,6,6,5,,,,,,,,,1,0.652194308990147,087,001,2019_Aug_28_1511,MusicAffectPsychophysiology2019,3.0.5,60.28811570186866,
To what extent did the music make you feel ,HAPPY,30MonoWAV/30MonoT1.wav,2,1,4,13,,,,,0,1,1,12,0,7,7,6,,,,,,,,,4,1.1023721380042844,087,001,2019_Aug_28_1511,MusicAffectPsychophysiology2019,3.0.5,60.28811570186866,
To what extent did the music make you feel ,ACTIVE,30MonoWAV/30MonoT1.wav,2,1,4,13,,,,,0,1,1,12,0,8,8,9,,,,,,,,,2,3.236028197017731,087,001,2019_Aug_28_1511,MusicAffectPsychophysiology2019,3.0.5,60.28811570186866,
To what extent did the music make you feel ,SCARED,30MonoWAV/30MonoT1.wav,2,1,4,13,,,,,0,1,1,12,0,9,9,11,,,,,,,,,1,1.2504796810098924,087,001,2019_Aug_28_1511,MusicAffectPsychophysiology2019,3.0.5,60.28811570186866,
To what extent did the music make you feel ,ASHAMED,30MonoWAV/30MonoT1.wav,2,1,4,13,,,,,0,1,1,12,0,10,10,4,,,,,,,,,1,0.868942437984515,087,001,2019_Aug_28_1511,MusicAffectPsychophysiology2019,3.0.5,60.28811570186866,
To what extent did the music make you feel ,TENDER,30MonoWAV/30MonoT1.wav,2,1,4,13,,,,,0,1,1,12,0,11,11,10,,,,,,,,,3,1.2189542780106422,087,001,2019_Aug_28_1511,MusicAffectPsychophysiology2019,3.0.5,60.28811570186866,
,,30MonoWAV/30MonoT1.wav,2,1,4,13,,,,,0,1,1,12,,,,,,,,,,,,,,,087,001,2019_Aug_28_1511,MusicAffectPsychophysiology2019,3.0.5,60.28811570186866,
To what extent did the music make you feel ,ANXIOUS ,30MonoWAV/30MonoF4.wav,1,2,2,4,,,,,0,2,2,3,0,0,0,1,,,2,3.602662124001654,1,3.752517593995435,2,4.952501096006017,3,2.9609136569779366,087,001,2019_Aug_28_1511,MusicAffectPsychophysiology2019,3.0.5,60.28811570186866,
To what extent did the music make you feel ,TENDER,30MonoWAV/30MonoF4.wav,1,2,2,4,,,,,0,2,2,3,0,1,1,10,,,,,,,,,2,1.936180983990198,087,001,2019_Aug_28_1511,MusicAffectPsychophysiology2019,3.0.5,60.28811570186866,
To what extent did the music make you feel ,FRUSTRATED,30MonoWAV/30MonoF4.wav,1,2,2,4,,,,,0,2,2,3,0,2,2,3,,,,,,,,,1,3.409858302999055,087,001,2019_Aug_28_1511,MusicAffectPsychophysiology2019,3.0.5,60.28811570186866,
To what extent did the music make you feel ,EXCITED,30MonoWAV/30MonoF4.wav,1,2,2,4,,,,,0,2,2,3,0,3,3,7,,,,,,,,,1,0.935869230015669,087,001,2019_Aug_28_1511,MusicAffectPsychophysiology2019,3.0.5,60.28811570186866,
To what extent did the music make you feel ,HAPPY,30MonoWAV/30MonoF4.wav,1,2,2,4,,,,,0,2,2,3,0,4,4,6,,,,,,,,,1,0.6351860339927953,087,001,2019_Aug_28_1511,MusicAffectPsychophysiology2019,3.0.5,60.28811570186866,
To what extent did the music make you feel ,GUILTY,30MonoWAV/30MonoF4.wav,1,2,2,4,,,,,0,2,2,3,0,5,5,5,,,,,,,,,1,1.4692408689879812,087,001,2019_Aug_28_1511,MusicAffectPsychophysiology2019,3.0.5,60.28811570186866,
To what extent did the music make you feel ,SCARED,30MonoWAV/30MonoF4.wav,1,2,2,4,,,,,0,2,2,3,0,6,6,11,,,,,,,,,3,3.2365603600046597,087,001,2019_Aug_28_1511,MusicAffectPsychophysiology2019,3.0.5,60.28811570186866,
To what extent did the music make you feel ,ANGRY,30MonoWAV/30MonoF4.wav,1,2,2,4,,,,,0,2,2,3,0,7,7,2,,,,,,,,,3,1.368621144007193,087,001,2019_Aug_28_1511,MusicAffectPsychophysiology2019,3.0.5,60.28811570186866,
To what extent did the music make you feel ,ASHAMED,30MonoWAV/30MonoF4.wav,1,2,2,4,,,,,0,2,2,3,0,8,8,4,,,,,,,,,1,1.2859575439943,087,001,2019_Aug_28_1511,MusicAffectPsychophysiology2019,3.0.5,60.28811570186866,
To what extent did the music make you feel ,ACTIVE,30MonoWAV/30MonoF4.wav,1,2,2,4,,,,,0,2,2,3,0,9,9,9,,,,,,,,,1,0.686973442992894,087,001,2019_Aug_28_1511,MusicAffectPsychophysiology2019,3.0.5,60.28811570186866,
To what extent did the music make you feel ,SAD,30MonoWAV/30MonoF4.wav,1,2,2,4,,,,,0,2,2,3,0,10,10,0,,,,,,,,,1,1.3535129910160322,087,001,2019_Aug_28_1511,MusicAffectPsychophysiology2019,3.0.5,60.28811570186866,
To what extent did the music make you feel ,ALERT,30MonoWAV/30MonoF4.wav,1,2,2,4,,,,,0,2,2,3,0,11,11,8,,,,,,,,,3,3.2196953039965592,087,001,2019_Aug_28_1511,MusicAffectPsychophysiology2019,3.0.5,60.28811570186866,
,,30MonoWAV/30MonoF4.wav,1,2,2,4,,,,,0,2,2,3,,,,,,,,,,,,,,,087,001,2019_Aug_28_1511,MusicAffectPsychophysiology2019,3.0.5,60.28811570186866,
To what extent did the music make you feel ,SCARED,30MonoWAV/30MonoS3.wav,1,1,3,11,,,,,0,3,3,10,0,0,0,11,,,1,4.5185937069763895,1,2.8363805430126376,3,2.7318978469993453,1,2.4356684520025738,087,001,2019_Aug_28_1511,MusicAffectPsychophysiology2019,3.0.5,60.28811570186866,
To what extent did the music make you feel ,TENDER,30MonoWAV/30MonoS3.wav,1,1,3,11,,,,,0,3,3,10,0,1,1,10,,,,,,,,,3,1.6687136070104316,087,001,2019_Aug_28_1511,MusicAffectPsychophysiology2019,3.0.5,60.28811570186866,
To what extent did the music make you feel ,FRUSTRATED,30MonoWAV/30MonoS3.wav,1,1,3,11,,,,,0,3,3,10,0,2,2,3,,,,,,,,,1,1.0354280270112213,087,001,2019_Aug_28_1511,MusicAffectPsychophysiology2019,3.0.5,60.28811570186866,
To what extent did the music make you feel ,ANGRY,30MonoWAV/30MonoS3.wav,1,1,3,11,,,,,0,3,3,10,0,3,3,2,,,,,,,,,1,0.7700395110005047,087,001,2019_Aug_28_1511,MusicAffectPsychophysiology2019,3.0.5,60.28811570186866,
To what extent did the music make you feel ,ACTIVE,30MonoWAV/30MonoS3.wav,1,1,3,11,,,,,0,3,3,10,0,4,4,9,,,,,,,,,1,0.7355028699967079,087,001,2019_Aug_28_1511,MusicAffectPsychophysiology2019,3.0.5,60.28811570186866,
To what extent did the music make you feel ,ASHAMED,30MonoWAV/30MonoS3.wav,1,1,3,11,,,,,0,3,3,10,0,5,5,4,,,,,,,,,1,1.252844930975698,087,001,2019_Aug_28_1511,MusicAffectPsychophysiology2019,3.0.5,60.28811570186866,
To what extent did the music make you feel ,ALERT,30MonoWAV/30MonoS3.wav,1,1,3,11,,,,,0,3,3,10,0,6,6,8,,,,,,,,,1,1.419217172981007,087,001,2019_Aug_28_1511,MusicAffectPsychophysiology2019,3.0.5,60.28811570186866,
To what extent did the music make you feel ,HAPPY,30MonoWAV/30MonoS3.wav,1,1,3,11,,,,,0,3,3,10,0,7,7,6,,,,,,,,,1,0.9529689619957935,087,001,2019_Aug_28_1511,MusicAffectPsychophysiology2019,3.0.5,60.28811570186866,
To what extent did the music make you feel ,GUILTY,30MonoWAV/30MonoS3.wav,1,1,3,11,,,,,0,3,3,10,0,8,8,5,,,,,,,,,2,2.6172302139748354,087,001,2019_Aug_28_1511,MusicAffectPsychophysiology2019,3.0.5,60.28811570186866,
To what extent did the music make you feel ,EXCITED,30MonoWAV/30MonoS3.wav,1,1,3,11,,,,,0,3,3,10,0,9,9,7,,,,,,,,,1,1.1518274039844982,087,001,2019_Aug_28_1511,MusicAffectPsychophysiology2019,3.0.5,60.28811570186866,
To what extent did the music make you feel ,ANXIOUS ,30MonoWAV/30MonoS3.wav,1,1,3,11,,,,,0,3,3,10,0,10,10,1,,,,,,,,,1,3.7181816159863956,087,001,2019_Aug_28_1511,MusicAffectPsychophysiology2019,3.0.5,60.28811570186866,
To what extent did the music make you feel ,SAD,30MonoWAV/30MonoS3.wav,1,1,3,11,,,,,0,3,3,10,0,11,11,0,,,,,,,,,3,2.3853048229939304,087,001,2019_Aug_28_1511,MusicAffectPsychophysiology2019,3.0.5,60.28811570186866,
,,30MonoWAV/30MonoS3.wav,1,1,3,11,,,,,0,3,3,10,,,,,,,,,,,,,,,087,001,2019_Aug_28_1511,MusicAffectPsychophysiology2019,3.0.5,60.28811570186866,
To what extent did the music make you feel ,HAPPY,30MonoWAV/30MonoT2.wav,2,1,4,14,,,,,0,4,4,13,0,0,0,6,,,2,3.2196811430039816,5,2.469054112996673,5,1.586934379010927,4,1.9633981639926787,087,001,2019_Aug_28_1511,MusicAffectPsychophysiology2019,3.0.5,60.28811570186866,
To what extent did the music make you feel ,EXCITED,30MonoWAV/30MonoT2.wav,2,1,4,14,,,,,0,4,4,13,0,1,1,7,,,,,,,,,3,2.2206897840078454,087,001,2019_Aug_28_1511,MusicAffectPsychophysiology2019,3.0.5,60.28811570186866,
To what extent did the music make you feel ,GUILTY,30MonoWAV/30MonoT2.wav,2,1,4,14,,,,,0,4,4,13,0,2,2,5,,,,,,,,,1,1.0693280049890745,087,001,2019_Aug_28_1511,MusicAffectPsychophysiology2019,3.0.5,60.28811570186866,
To what extent did the music make you feel ,SCARED,30MonoWAV/30MonoT2.wav,2,1,4,14,,,,,0,4,4,13,0,3,3,11,,,,,,,,,1,0.8192752900067717,087,001,2019_Aug_28_1511,MusicAffectPsychophysiology2019,3.0.5,60.28811570186866,
To what extent did the music make you feel ,ANGRY,30MonoWAV/30MonoT2.wav,2,1,4,14,,,,,0,4,4,13,0,4,4,2,,,,,,,,,1,0.6194641649781261,087,001,2019_Aug_28_1511,MusicAffectPsychophysiology2019,3.0.5,60.28811570186866,
To what extent did the music make you feel ,ALERT,30MonoWAV/30MonoT2.wav,2,1,4,14,,,,,0,4,4,13,0,5,5,8,,,,,,,,,1,1.0360689829976764,087,001,2019_Aug_28_1511,MusicAffectPsychophysiology2019,3.0.5,60.28811570186866,
To what extent did the music make you feel ,TENDER,30MonoWAV/30MonoT2.wav,2,1,4,14,,,,,0,4,4,13,0,6,6,10,,,,,,,,,4,1.3693506869894918,087,001,2019_Aug_28_1511,MusicAffectPsychophysiology2019,3.0.5,60.28811570186866,
To what extent did the music make you feel ,ANXIOUS ,30MonoWAV/30MonoT2.wav,2,1,4,14,,,,,0,4,4,13,0,7,7,1,,,,,,,,,1,0.8377057969919406,087,001,2019_Aug_28_1511,MusicAffectPsychophysiology2019,3.0.5,60.28811570186866,
To what extent did the music make you feel ,SAD,30MonoWAV/30MonoT2.wav,2,1,4,14,,,,,0,4,4,13,0,8,8,0,,,,,,,,,1,0.6366081229934935,087,001,2019_Aug_28_1511,MusicAffectPsychophysiology2019,3.0.5,60.28811570186866,
To what extent did the music make you feel ,ACTIVE,30MonoWAV/30MonoT2.wav,2,1,4,14,,,,,0,4,4,13,0,9,9,9,,,,,,,,,1,1.0163051300041843,087,001,2019_Aug_28_1511,MusicAffectPsychophysiology2019,3.0.5,60.28811570186866,
To what extent did the music make you feel ,FRUSTRATED,30MonoWAV/30MonoT2.wav,2,1,4,14,,,,,0,4,4,13,0,10,10,3,,,,,,,,,1,1.3837792330014054,087,001,2019_Aug_28_1511,MusicAffectPsychophysiology2019,3.0.5,60.28811570186866,
To what extent did the music make you feel ,ASHAMED,30MonoWAV/30MonoT2.wav,2,1,4,14,,,,,0,4,4,13,0,11,11,4,,,,,,,,,1,0.8682333180040587,087,001,2019_Aug_28_1511,MusicAffectPsychophysiology2019,3.0.5,60.28811570186866,
,,30MonoWAV/30MonoT2.wav,2,1,4,14,,,,,0,4,4,13,,,,,,,,,,,,,,,087,001,2019_Aug_28_1511,MusicAffectPsychophysiology2019,3.0.5,60.28811570186866,
To what extent did the music make you feel ,EXCITED,30MonoWAV/30MonoS4.wav,1,1,3,12,,,,,0,5,5,11,0,0,0,7,,,1,2.6663622909982223,2,2.7691488540149294,4,2.7359700909873936,1,3.6212260400061496,087,001,2019_Aug_28_1511,MusicAffectPsychophysiology2019,3.0.5,60.28811570186866,
To what extent did the music make you feel ,TENDER,30MonoWAV/30MonoS4.wav,1,1,3,12,,,,,0,5,5,11,0,1,1,10,,,,,,,,,4,1.88616726998589,087,001,2019_Aug_28_1511,MusicAffectPsychophysiology2019,3.0.5,60.28811570186866,
To what extent did the music make you feel ,GUILTY,30MonoWAV/30MonoS4.wav,1,1,3,12,,,,,0,5,5,11,0,2,2,5,,,,,,,,,1,1.7200588710256852,087,001,2019_Aug_28_1511,MusicAffectPsychophysiology2019,3.0.5,60.28811570186866,
To what extent did the music make you feel ,ALERT,30MonoWAV/30MonoS4.wav,1,1,3,12,,,,,0,5,5,11,0,3,3,8,,,,,,,,,1,0.8692363739828579,087,001,2019_Aug_28_1511,MusicAffectPsychophysiology2019,3.0.5,60.28811570186866,
To what extent did the music make you feel ,HAPPY,30MonoWAV/30MonoS4.wav,1,1,3,12,,,,,0,5,5,11,0,4,4,6,,,,,,,,,1,1.1858254200196825,087,001,2019_Aug_28_1511,MusicAffectPsychophysiology2019,3.0.5,60.28811570186866,
To what extent did the music make you feel ,SCARED,30MonoWAV/30MonoS4.wav,1,1,3,12,,,,,0,5,5,11,0,5,5,11,,,,,,,,,1,1.0856534789782017,087,001,2019_Aug_28_1511,MusicAffectPsychophysiology2019,3.0.5,60.28811570186866,
To what extent did the music make you feel ,ANGRY,30MonoWAV/30MonoS4.wav,1,1,3,12,,,,,0,5,5,11,0,6,6,2,,,,,,,,,1,0.8522208660142496,087,001,2019_Aug_28_1511,MusicAffectPsychophysiology2019,3.0.5,60.28811570186866,
To what extent did the music make you feel ,ANXIOUS ,30MonoWAV/30MonoS4.wav,1,1,3,12,,,,,0,5,5,11,0,7,7,1,,,,,,,,,1,1.152697273006197,087,001,2019_Aug_28_1511,MusicAffectPsychophysiology2019,3.0.5,60.28811570186866,
To what extent did the music make you feel ,ASHAMED,30MonoWAV/30MonoS4.wav,1,1,3,12,,,,,0,5,5,11,0,8,8,4,,,,,,,,,1,0.5190023320028558,087,001,2019_Aug_28_1511,MusicAffectPsychophysiology2019,3.0.5,60.28811570186866,
To what extent did the music make you feel ,ACTIVE,30MonoWAV/30MonoS4.wav,1,1,3,12,,,,,0,5,5,11,0,9,9,9,,,,,,,,,1,1.8532993369735777,087,001,2019_Aug_28_1511,MusicAffectPsychophysiology2019,3.0.5,60.28811570186866,
To what extent did the music make you feel ,FRUSTRATED,30MonoWAV/30MonoS4.wav,1,1,3,12,,,,,0,5,5,11,0,10,10,3,,,,,,,,,1,0.6719040989992209,087,001,2019_Aug_28_1511,MusicAffectPsychophysiology2019,3.0.5,60.28811570186866,
To what extent did the music make you feel ,SAD,30MonoWAV/30MonoS4.wav,1,1,3,12,,,,,0,5,5,11,0,11,11,0,,,,,,,,,2,2.2693977459857706,087,001,2019_Aug_28_1511,MusicAffectPsychophysiology2019,3.0.5,60.28811570186866,
,,30MonoWAV/30MonoS4.wav,1,1,3,12,,,,,0,5,5,11,,,,,,,,,,,,,,,087,001,2019_Aug_28_1511,MusicAffectPsychophysiology2019,3.0.5,60.28811570186866,
To what extent did the music make you feel ,ACTIVE,30MonoWAV/30MonoF1.wav,1,2,2,1,,,,,0,6,6,0,0,0,0,9,,,3,3.1019087079912424,1,2.4524148360069375,3,3.068726041004993,4,2.814930836990243,087,001,2019_Aug_28_1511,MusicAffectPsychophysiology2019,3.0.5,60.28811570186866,
To what extent did the music make you feel ,TENDER,30MonoWAV/30MonoF1.wav,1,2,2,1,,,,,0,6,6,0,0,1,1,10,,,,,,,,,1,1.1367097120091785,087,001,2019_Aug_28_1511,MusicAffectPsychophysiology2019,3.0.5,60.28811570186866,
To what extent did the music make you feel ,SAD,30MonoWAV/30MonoF1.wav,1,2,2,1,,,,,0,6,6,0,0,2,2,0,,,,,,,,,1,0.6362797819892876,087,001,2019_Aug_28_1511,MusicAffectPsychophysiology2019,3.0.5,60.28811570186866,
To what extent did the music make you feel ,EXCITED,30MonoWAV/30MonoF1.wav,1,2,2,1,,,,,0,6,6,0,0,3,3,7,,,,,,,,,3,1.6334268220234662,087,001,2019_Aug_28_1511,MusicAffectPsychophysiology2019,3.0.5,60.28811570186866,
To what extent did the music make you feel ,GUILTY,30MonoWAV/30MonoF1.wav,1,2,2,1,,,,,0,6,6,0,0,4,4,5,,,,,,,,,1,0.8689371760119684,087,001,2019_Aug_28_1511,MusicAffectPsychophysiology2019,3.0.5,60.28811570186866,
To what extent did the music make you feel ,FRUSTRATED,30MonoWAV/30MonoF1.wav,1,2,2,1,,,,,0,6,6,0,0,5,5,3,,,,,,,,,1,0.7526645630132407,087,001,2019_Aug_28_1511,MusicAffectPsychophysiology2019,3.0.5,60.28811570186866,
To what extent did the music make you feel ,ANGRY,30MonoWAV/30MonoF1.wav,1,2,2,1,,,,,0,6,6,0,0,6,6,2,,,,,,,,,2,1.420297300996026,087,001,2019_Aug_28_1511,MusicAffectPsychophysiology2019,3.0.5,60.28811570186866,
To what extent did the music make you feel ,ASHAMED,30MonoWAV/30MonoF1.wav,1,2,2,1,,,,,0,6,6,0,0,7,7,4,,,,,,,,,1,1.003025379992323,087,001,2019_Aug_28_1511,MusicAffectPsychophysiology2019,3.0.5,60.28811570186866,
To what extent did the music make you feel ,ALERT,30MonoWAV/30MonoF1.wav,1,2,2,1,,,,,0,6,6,0,0,8,8,8,,,,,,,,,4,1.4195886269735638,087,001,2019_Aug_28_1511,MusicAffectPsychophysiology2019,3.0.5,60.28811570186866,
To what extent did the music make you feel ,ANXIOUS ,30MonoWAV/30MonoF1.wav,1,2,2,1,,,,,0,6,6,0,0,9,9,1,,,,,,,,,1,1.7192932160105556,087,001,2019_Aug_28_1511,MusicAffectPsychophysiology2019,3.0.5,60.28811570186866,
To what extent did the music make you feel ,SCARED,30MonoWAV/30MonoF1.wav,1,2,2,1,,,,,0,6,6,0,0,10,10,11,,,,,,,,,3,1.4141449510061648,087,001,2019_Aug_28_1511,MusicAffectPsychophysiology2019,3.0.5,60.28811570186866,
To what extent did the music make you feel ,HAPPY,30MonoWAV/30MonoF1.wav,1,2,2,1,,,,,0,6,6,0,0,11,11,6,,,,,,,,,1,1.1000810510013252,087,001,2019_Aug_28_1511,MusicAffectPsychophysiology2019,3.0.5,60.28811570186866,
,,30MonoWAV/30MonoF1.wav,1,2,2,1,,,,,0,6,6,0,,,,,,,,,,,,,,,087,001,2019_Aug_28_1511,MusicAffectPsychophysiology2019,3.0.5,60.28811570186866,
To what extent did the music make you feel ,TENDER,30MonoWAV/30MonoS2.wav,1,1,3,10,,,,,0,7,7,9,0,0,0,10,,,1,2.719151625991799,2,1.603074980987003,4,1.9032779639819637,4,1.626315378001891,087,001,2019_Aug_28_1511,MusicAffectPsychophysiology2019,3.0.5,60.28811570186866,
To what extent did the music make you feel ,EXCITED,30MonoWAV/30MonoS2.wav,1,1,3,10,,,,,0,7,7,9,0,1,1,7,,,,,,,,,1,0.9853122909844387,087,001,2019_Aug_28_1511,MusicAffectPsychophysiology2019,3.0.5,60.28811570186866,
To what extent did the music make you feel ,ACTIVE,30MonoWAV/30MonoS2.wav,1,1,3,10,,,,,0,7,7,9,0,2,2,9,,,,,,,,,1,0.6530130710161757,087,001,2019_Aug_28_1511,MusicAffectPsychophysiology2019,3.0.5,60.28811570186866,
To what extent did the music make you feel ,SCARED,30MonoWAV/30MonoS2.wav,1,1,3,10,,,,,0,7,7,9,0,3,3,11,,,,,,,,,1,0.9360139670025092,087,001,2019_Aug_28_1511,MusicAffectPsychophysiology2019,3.0.5,60.28811570186866,
To what extent did the music make you feel ,GUILTY,30MonoWAV/30MonoS2.wav,1,1,3,10,,,,,0,7,7,9,0,4,4,5,,,,,,,,,3,2.6194029329926707,087,001,2019_Aug_28_1511,MusicAffectPsychophysiology2019,3.0.5,60.28811570186866,
To what extent did the music make you feel ,ANGRY,30MonoWAV/30MonoS2.wav,1,1,3,10,,,,,0,7,7,9,0,5,5,2,,,,,,,,,1,0.9391346620104741,087,001,2019_Aug_28_1511,MusicAffectPsychophysiology2019,3.0.5,60.28811570186866,
To what extent did the music make you feel ,HAPPY,30MonoWAV/30MonoS2.wav,1,1,3,10,,,,,0,7,7,9,0,6,6,6,,,,,,,,,1,0.6522431120101828,087,001,2019_Aug_28_1511,MusicAffectPsychophysiology2019,3.0.5,60.28811570186866,
To what extent did the music make you feel ,SAD,30MonoWAV/30MonoS2.wav,1,1,3,10,,,,,0,7,7,9,0,7,7,0,,,,,,,,,2,1.369297622994054,087,001,2019_Aug_28_1511,MusicAffectPsychophysiology2019,3.0.5,60.28811570186866,
To what extent did the music make you feel ,FRUSTRATED,30MonoWAV/30MonoS2.wav,1,1,3,10,,,,,0,7,7,9,0,8,8,3,,,,,,,,,1,0.673966134985676,087,001,2019_Aug_28_1511,MusicAffectPsychophysiology2019,3.0.5,60.28811570186866,
To what extent did the music make you feel ,ANXIOUS ,30MonoWAV/30MonoS2.wav,1,1,3,10,,,,,0,7,7,9,0,9,9,1,,,,,,,,,1,1.5195012210169807,087,001,2019_Aug_28_1511,MusicAffectPsychophysiology2019,3.0.5,60.28811570186866,
To what extent did the music make you feel ,ALERT,30MonoWAV/30MonoS2.wav,1,1,3,10,,,,,0,7,7,9,0,10,10,8,,,,,,,,,1,0.8835210219840519,087,001,2019_Aug_28_1511,MusicAffectPsychophysiology2019,3.0.5,60.28811570186866,
To what extent did the music make you feel ,ASHAMED,30MonoWAV/30MonoS2.wav,1,1,3,10,,,,,0,7,7,9,0,11,11,4,,,,,,,,,2,1.1200139680004213,087,001,2019_Aug_28_1511,MusicAffectPsychophysiology2019,3.0.5,60.28811570186866,
,,30MonoWAV/30MonoS2.wav,1,1,3,10,,,,,0,7,7,9,,,,,,,,,,,,,,,087,001,2019_Aug_28_1511,MusicAffectPsychophysiology2019,3.0.5,60.28811570186866,
To what extent did the music make you feel ,FRUSTRATED,30MonoWAV/30MonoT4.wav,2,1,4,16,,,,,0,8,8,15,0,0,0,3,,,3,3.3831111710169353,4,1.5033541099983267,4,1.6846605599857867,1,1.7017056019976735,087,001,2019_Aug_28_1511,MusicAffectPsychophysiology2019,3.0.5,60.28811570186866,
To what extent did the music make you feel ,ACTIVE,30MonoWAV/30MonoT4.wav,2,1,4,16,,,,,0,8,8,15,0,1,1,9,,,,,,,,,1,1.0860657400044147,087,001,2019_Aug_28_1511,MusicAffectPsychophysiology2019,3.0.5,60.28811570186866,
To what extent did the music make you feel ,GUILTY,30MonoWAV/30MonoT4.wav,2,1,4,16,,,,,0,8,8,15,0,2,2,5,,,,,,,,,1,0.5859971790050622,087,001,2019_Aug_28_1511,MusicAffectPsychophysiology2019,3.0.5,60.28811570186866,
To what extent did the music make you feel ,SCARED,30MonoWAV/30MonoT4.wav,2,1,4,16,,,,,0,8,8,15,0,3,3,11,,,,,,,,,1,0.602535671001533,087,001,2019_Aug_28_1511,MusicAffectPsychophysiology2019,3.0.5,60.28811570186866,
To what extent did the music make you feel ,ANGRY,30MonoWAV/30MonoT4.wav,2,1,4,16,,,,,0,8,8,15,0,4,4,2,,,,,,,,,1,0.5028527909889817,087,001,2019_Aug_28_1511,MusicAffectPsychophysiology2019,3.0.5,60.28811570186866,
To what extent did the music make you feel ,TENDER,30MonoWAV/30MonoT4.wav,2,1,4,16,,,,,0,8,8,15,0,5,5,10,,,,,,,,,4,2.068321509985253,087,001,2019_Aug_28_1511,MusicAffectPsychophysiology2019,3.0.5,60.28811570186866,
To what extent did the music make you feel ,SAD,30MonoWAV/30MonoT4.wav,2,1,4,16,,,,,0,8,8,15,0,6,6,0,,,,,,,,,1,1.0025410509842914,087,001,2019_Aug_28_1511,MusicAffectPsychophysiology2019,3.0.5,60.28811570186866,
To what extent did the music make you feel ,ALERT,30MonoWAV/30MonoT4.wav,2,1,4,16,,,,,0,8,8,15,0,7,7,8,,,,,,,,,1,0.7033280580071732,087,001,2019_Aug_28_1511,MusicAffectPsychophysiology2019,3.0.5,60.28811570186866,
To what extent did the music make you feel ,ANXIOUS ,30MonoWAV/30MonoT4.wav,2,1,4,16,,,,,0,8,8,15,0,8,8,1,,,,,,,,,1,0.7025658529892098,087,001,2019_Aug_28_1511,MusicAffectPsychophysiology2019,3.0.5,60.28811570186866,
To what extent did the music make you feel ,EXCITED,30MonoWAV/30MonoT4.wav,2,1,4,16,,,,,0,8,8,15,0,9,9,7,,,,,,,,,3,2.202146958996309,087,001,2019_Aug_28_1511,MusicAffectPsychophysiology2019,3.0.5,60.28811570186866,
To what extent did the music make you feel ,HAPPY,30MonoWAV/30MonoT4.wav,2,1,4,16,,,,,0,8,8,15,0,10,10,6,,,,,,,,,5,1.5187730150064453,087,001,2019_Aug_28_1511,MusicAffectPsychophysiology2019,3.0.5,60.28811570186866,
To what extent did the music make you feel ,ASHAMED,30MonoWAV/30MonoT4.wav,2,1,4,16,,,,,0,8,8,15,0,11,11,4,,,,,,,,,1,1.949159365001833,087,001,2019_Aug_28_1511,MusicAffectPsychophysiology2019,3.0.5,60.28811570186866,
,,30MonoWAV/30MonoT4.wav,2,1,4,16,,,,,0,8,8,15,,,,,,,,,,,,,,,087,001,2019_Aug_28_1511,MusicAffectPsychophysiology2019,3.0.5,60.28811570186866,
To what extent did the music make you feel ,FRUSTRATED,30MonoWAV/30MonoT3.wav,2,1,4,15,,,,,0,9,9,14,0,0,0,3,,,3,3.4697106299863663,4,1.7517026250134222,5,0.8690057480125688,1,1.861154276994057,087,001,2019_Aug_28_1511,MusicAffectPsychophysiology2019,3.0.5,60.28811570186866,
To what extent did the music make you feel ,HAPPY,30MonoWAV/30MonoT3.wav,2,1,4,15,,,,,0,9,9,14,0,1,1,6,,,,,,,,,4,1.7528111050196458,087,001,2019_Aug_28_1511,MusicAffectPsychophysiology2019,3.0.5,60.28811570186866,
To what extent did the music make you feel ,ACTIVE,30MonoWAV/30MonoT3.wav,2,1,4,15,,,,,0,9,9,14,0,2,2,9,,,,,,,,,1,0.9684043230081443,087,001,2019_Aug_28_1511,MusicAffectPsychophysiology2019,3.0.5,60.28811570186866,
To what extent did the music make you feel ,SAD,30MonoWAV/30MonoT3.wav,2,1,4,15,,,,,0,9,9,14,0,3,3,0,,,,,,,,,1,0.6860123469959944,087,001,2019_Aug_28_1511,MusicAffectPsychophysiology2019,3.0.5,60.28811570186866,
To what extent did the music make you feel ,ASHAMED,30MonoWAV/30MonoT3.wav,2,1,4,15,,,,,0,9,9,14,0,4,4,4,,,,,,,,,1,0.6167739070078824,087,001,2019_Aug_28_1511,MusicAffectPsychophysiology2019,3.0.5,60.28811570186866,
To what extent did the music make you feel ,ALERT,30MonoWAV/30MonoT3.wav,2,1,4,15,,,,,0,9,9,14,0,5,5,8,,,,,,,,,1,0.6350643820187543,087,001,2019_Aug_28_1511,MusicAffectPsychophysiology2019,3.0.5,60.28811570186866,
To what extent did the music make you feel ,GUILTY,30MonoWAV/30MonoT3.wav,2,1,4,15,,,,,0,9,9,14,0,6,6,5,,,,,,,,,1,0.5335798129963223,087,001,2019_Aug_28_1511,MusicAffectPsychophysiology2019,3.0.5,60.28811570186866,
To what extent did the music make you feel ,EXCITED,30MonoWAV/30MonoT3.wav,2,1,4,15,,,,,0,9,9,14,0,7,7,7,,,,,,,,,2,2.0188139649981167,087,001,2019_Aug_28_1511,MusicAffectPsychophysiology2019,3.0.5,60.28811570186866,
To what extent did the music make you feel ,ANXIOUS ,30MonoWAV/30MonoT3.wav,2,1,4,15,,,,,0,9,9,14,0,8,8,1,,,,,,,,,1,0.8685848729801364,087,001,2019_Aug_28_1511,MusicAffectPsychophysiology2019,3.0.5,60.28811570186866,
To what extent did the music make you feel ,ANGRY,30MonoWAV/30MonoT3.wav,2,1,4,15,,,,,0,9,9,14,0,9,9,2,,,,,,,,,1,0.8828526549914386,087,001,2019_Aug_28_1511,MusicAffectPsychophysiology2019,3.0.5,60.28811570186866,
To what extent did the music make you feel ,SCARED,30MonoWAV/30MonoT3.wav,2,1,4,15,,,,,0,9,9,14,0,10,10,11,,,,,,,,,1,0.5527404659951571,087,001,2019_Aug_28_1511,MusicAffectPsychophysiology2019,3.0.5,60.28811570186866,
To what extent did the music make you feel ,TENDER,30MonoWAV/30MonoT3.wav,2,1,4,15,,,,,0,9,9,14,0,11,11,10,,,,,,,,,4,1.3029255229921546,087,001,2019_Aug_28_1511,MusicAffectPsychophysiology2019,3.0.5,60.28811570186866,
,,30MonoWAV/30MonoT3.wav,2,1,4,15,,,,,0,9,9,14,,,,,,,,,,,,,,,087,001,2019_Aug_28_1511,MusicAffectPsychophysiology2019,3.0.5,60.28811570186866,
To what extent did the music make you feel ,ACTIVE,30MonoWAV/30MonoH3.wav,2,2,1,7,,,,,0,10,10,6,0,0,0,9,,,4,2.6500260200118646,4,1.7855438039987348,4,1.5025372320087627,4,3.739058095990913,087,001,2019_Aug_28_1511,MusicAffectPsychophysiology2019,3.0.5,60.28811570186866,
To what extent did the music make you feel ,ANGRY,30MonoWAV/30MonoH3.wav,2,2,1,7,,,,,0,10,10,6,0,1,1,2,,,,,,,,,1,0.8189671500003897,087,001,2019_Aug_28_1511,MusicAffectPsychophysiology2019,3.0.5,60.28811570186866,
To what extent did the music make you feel ,ASHAMED,30MonoWAV/30MonoH3.wav,2,2,1,7,,,,,0,10,10,6,0,2,2,4,,,,,,,,,1,0.6860843479807954,087,001,2019_Aug_28_1511,MusicAffectPsychophysiology2019,3.0.5,60.28811570186866,
To what extent did the music make you feel ,TENDER,30MonoWAV/30MonoH3.wav,2,2,1,7,,,,,0,10,10,6,0,3,3,10,,,,,,,,,1,0.9358289590163622,087,001,2019_Aug_28_1511,MusicAffectPsychophysiology2019,3.0.5,60.28811570186866,
To what extent did the music make you feel ,HAPPY,30MonoWAV/30MonoH3.wav,2,2,1,7,,,,,0,10,10,6,0,4,4,6,,,,,,,,,2,1.6523878930020146,087,001,2019_Aug_28_1511,MusicAffectPsychophysiology2019,3.0.5,60.28811570186866,
To what extent did the music make you feel ,SCARED,30MonoWAV/30MonoH3.wav,2,2,1,7,,,,,0,10,10,6,0,5,5,11,,,,,,,,,1,1.1831931110064033,087,001,2019_Aug_28_1511,MusicAffectPsychophysiology2019,3.0.5,60.28811570186866,
To what extent did the music make you feel ,GUILTY,30MonoWAV/30MonoH3.wav,2,2,1,7,,,,,0,10,10,6,0,6,6,5,,,,,,,,,1,2.6523738960095216,087,001,2019_Aug_28_1511,MusicAffectPsychophysiology2019,3.0.5,60.28811570186866,
To what extent did the music make you feel ,SAD,30MonoWAV/30MonoH3.wav,2,2,1,7,,,,,0,10,10,6,0,7,7,0,,,,,,,,,1,0.6185363259864971,087,001,2019_Aug_28_1511,MusicAffectPsychophysiology2019,3.0.5,60.28811570186866,
To what extent did the music make you feel ,ALERT,30MonoWAV/30MonoH3.wav,2,2,1,7,,,,,0,10,10,6,0,8,8,8,,,,,,,,,4,2.085908514010953,087,001,2019_Aug_28_1511,MusicAffectPsychophysiology2019,3.0.5,60.28811570186866,
To what extent did the music make you feel ,ANXIOUS ,30MonoWAV/30MonoH3.wav,2,2,1,7,,,,,0,10,10,6,0,9,9,1,,,,,,,,,1,0.8328284399758559,087,001,2019_Aug_28_1511,MusicAffectPsychophysiology2019,3.0.5,60.28811570186866,
To what extent did the music make you feel ,EXCITED,30MonoWAV/30MonoH3.wav,2,2,1,7,,,,,0,10,10,6,0,10,10,7,,,,,,,,,4,1.270567294995999,087,001,2019_Aug_28_1511,MusicAffectPsychophysiology2019,3.0.5,60.28811570186866,
To what extent did the music make you feel ,FRUSTRATED,30MonoWAV/30MonoH3.wav,2,2,1,7,,,,,0,10,10,6,0,11,11,3,,,,,,,,,1,0.869596422999166,087,001,2019_Aug_28_1511,MusicAffectPsychophysiology2019,3.0.5,60.28811570186866,
,,30MonoWAV/30MonoH3.wav,2,2,1,7,,,,,0,10,10,6,,,,,,,,,,,,,,,087,001,2019_Aug_28_1511,MusicAffectPsychophysiology2019,3.0.5,60.28811570186866,
To what extent did the music make you feel ,HAPPY,30MonoWAV/30MonoH1.wav,2,2,1,5,,,,,0,11,11,4,0,0,0,6,,,2,4.1350357420160435,3,1.8690345920040272,3,2.2525348820199724,3,2.1321051879785955,087,001,2019_Aug_28_1511,MusicAffectPsychophysiology2019,3.0.5,60.28811570186866,
To what extent did the music make you feel ,ANXIOUS ,30MonoWAV/30MonoH1.wav,2,2,1,5,,,,,0,11,11,4,0,1,1,1,,,,,,,,,1,1.0027268060075585,087,001,2019_Aug_28_1511,MusicAffectPsychophysiology2019,3.0.5,60.28811570186866,
To what extent did the music make you feel ,ANGRY,30MonoWAV/30MonoH1.wav,2,2,1,5,,,,,0,11,11,4,0,2,2,2,,,,,,,,,1,0.620169656991493,087,001,2019_Aug_28_1511,MusicAffectPsychophysiology2019,3.0.5,60.28811570186866,
To what extent did the music make you feel ,TENDER,30MonoWAV/30MonoH1.wav,2,2,1,5,,,,,0,11,11,4,0,3,3,10,,,,,,,,,1,1.3023796349880286,087,001,2019_Aug_28_1511,MusicAffectPsychophysiology2019,3.0.5,60.28811570186866,
To what extent did the music make you feel ,FRUSTRATED,30MonoWAV/30MonoH1.wav,2,2,1,5,,,,,0,11,11,4,0,4,4,3,,,,,,,,,1,0.5856292050157208,087,001,2019_Aug_28_1511,MusicAffectPsychophysiology2019,3.0.5,60.28811570186866,
To what extent did the music make you feel ,ALERT,30MonoWAV/30MonoH1.wav,2,2,1,5,,,,,0,11,11,4,0,5,5,8,,,,,,,,,1,1.084411796007771,087,001,2019_Aug_28_1511,MusicAffectPsychophysiology2019,3.0.5,60.28811570186866,
To what extent did the music make you feel ,SAD,30MonoWAV/30MonoH1.wav,2,2,1,5,,,,,0,11,11,4,0,6,6,0,,,,,,,,,1,0.7028940790041815,087,001,2019_Aug_28_1511,MusicAffectPsychophysiology2019,3.0.5,60.28811570186866,
To what extent did the music make you feel ,SCARED,30MonoWAV/30MonoH1.wav,2,2,1,5,,,,,0,11,11,4,0,7,7,11,,,,,,,,,1,1.3533608889847528,087,001,2019_Aug_28_1511,MusicAffectPsychophysiology2019,3.0.5,60.28811570186866,
To what extent did the music make you feel ,ASHAMED,30MonoWAV/30MonoH1.wav,2,2,1,5,,,,,0,11,11,4,0,8,8,4,,,,,,,,,1,0.7358519799890928,087,001,2019_Aug_28_1511,MusicAffectPsychophysiology2019,3.0.5,60.28811570186866,
To what extent did the music make you feel ,ACTIVE,30MonoWAV/30MonoH1.wav,2,2,1,5,,,,,0,11,11,4,0,9,9,9,,,,,,,,,2,1.7697101320081856,087,001,2019_Aug_28_1511,MusicAffectPsychophysiology2019,3.0.5,60.28811570186866,
To what extent did the music make you feel ,GUILTY,30MonoWAV/30MonoH1.wav,2,2,1,5,,,,,0,11,11,4,0,10,10,5,,,,,,,,,1,0.5676780409994535,087,001,2019_Aug_28_1511,MusicAffectPsychophysiology2019,3.0.5,60.28811570186866,
To what extent did the music make you feel ,EXCITED,30MonoWAV/30MonoH1.wav,2,2,1,5,,,,,0,11,11,4,0,11,11,7,,,,,,,,,2,2.452911896019941,087,001,2019_Aug_28_1511,MusicAffectPsychophysiology2019,3.0.5,60.28811570186866,
,,30MonoWAV/30MonoH1.wav,2,2,1,5,,,,,0,11,11,4,,,,,,,,,,,,,,,087,001,2019_Aug_28_1511,MusicAffectPsychophysiology2019,3.0.5,60.28811570186866,
To what extent did the music make you feel ,ANXIOUS ,30MonoWAV/30MonoF3.wav,1,2,2,3,,,,,0,12,12,2,0,0,0,1,,,2,3.469402674003504,2,1.603092173987534,3,3.302255039976444,3,2.238373144995421,087,001,2019_Aug_28_1511,MusicAffectPsychophysiology2019,3.0.5,60.28811570186866,
To what extent did the music make you feel ,ANGRY,30MonoWAV/30MonoF3.wav,1,2,2,3,,,,,0,12,12,2,0,1,1,2,,,,,,,,,1,1.2187412600032985,087,001,2019_Aug_28_1511,MusicAffectPsychophysiology2019,3.0.5,60.28811570186866,
To what extent did the music make you feel ,FRUSTRATED,30MonoWAV/30MonoF3.wav,1,2,2,3,,,,,0,12,12,2,0,2,2,3,,,,,,,,,1,1.8855012150015682,087,001,2019_Aug_28_1511,MusicAffectPsychophysiology2019,3.0.5,60.28811570186866,
To what extent did the music make you feel ,EXCITED,30MonoWAV/30MonoF3.wav,1,2,2,3,,,,,0,12,12,2,0,3,3,7,,,,,,,,,1,0.9699168110091705,087,001,2019_Aug_28_1511,MusicAffectPsychophysiology2019,3.0.5,60.28811570186866,
To what extent did the music make you feel ,SCARED,30MonoWAV/30MonoF3.wav,1,2,2,3,,,,,0,12,12,2,0,4,4,11,,,,,,,,,1,0.551488977012923,087,001,2019_Aug_28_1511,MusicAffectPsychophysiology2019,3.0.5,60.28811570186866,
To what extent did the music make you feel ,ACTIVE,30MonoWAV/30MonoF3.wav,1,2,2,3,,,,,0,12,12,2,0,5,5,9,,,,,,,,,3,1.6188011390040629,087,001,2019_Aug_28_1511,MusicAffectPsychophysiology2019,3.0.5,60.28811570186866,
To what extent did the music make you feel ,GUILTY,30MonoWAV/30MonoF3.wav,1,2,2,3,,,,,0,12,12,2,0,6,6,5,,,,,,,,,1,0.769365365995327,087,001,2019_Aug_28_1511,MusicAffectPsychophysiology2019,3.0.5,60.28811570186866,
To what extent did the music make you feel ,ASHAMED,30MonoWAV/30MonoF3.wav,1,2,2,3,,,,,0,12,12,2,0,7,7,4,,,,,,,,,1,0.9693239309999626,087,001,2019_Aug_28_1511,MusicAffectPsychophysiology2019,3.0.5,60.28811570186866,
To what extent did the music make you feel ,ALERT,30MonoWAV/30MonoF3.wav,1,2,2,3,,,,,0,12,12,2,0,8,8,8,,,,,,,,,3,1.1521432129957248,087,001,2019_Aug_28_1511,MusicAffectPsychophysiology2019,3.0.5,60.28811570186866,
To what extent did the music make you feel ,SAD,30MonoWAV/30MonoF3.wav,1,2,2,3,,,,,0,12,12,2,0,9,9,0,,,,,,,,,1,0.7017906229884829,087,001,2019_Aug_28_1511,MusicAffectPsychophysiology2019,3.0.5,60.28811570186866,
To what extent did the music make you feel ,TENDER,30MonoWAV/30MonoF3.wav,1,2,2,3,,,,,0,12,12,2,0,10,10,10,,,,,,,,,1,1.0525333450059406,087,001,2019_Aug_28_1511,MusicAffectPsychophysiology2019,3.0.5,60.28811570186866,
To what extent did the music make you feel ,HAPPY,30MonoWAV/30MonoF3.wav,1,2,2,3,,,,,0,12,12,2,0,11,11,6,,,,,,,,,1,0.8693086269777268,087,001,2019_Aug_28_1511,MusicAffectPsychophysiology2019,3.0.5,60.28811570186866,
,,30MonoWAV/30MonoF3.wav,1,2,2,3,,,,,0,12,12,2,,,,,,,,,,,,,,,087,001,2019_Aug_28_1511,MusicAffectPsychophysiology2019,3.0.5,60.28811570186866,
To what extent did the music make you feel ,HAPPY,30MonoWAV/30MonoF2.wav,1,2,2,2,,,,,0,13,13,1,0,0,0,6,,,1,2.8517239649954718,1,1.0186096359975636,1,2.4350491809891537,1,0.8525545159936883,087,001,2019_Aug_28_1511,MusicAffectPsychophysiology2019,3.0.5,60.28811570186866,
To what extent did the music make you feel ,SAD,30MonoWAV/30MonoF2.wav,1,2,2,2,,,,,0,13,13,1,0,1,1,0,,,,,,,,,2,2.269104746024823,087,001,2019_Aug_28_1511,MusicAffectPsychophysiology2019,3.0.5,60.28811570186866,
To what extent did the music make you feel ,ALERT,30MonoWAV/30MonoF2.wav,1,2,2,2,,,,,0,13,13,1,0,2,2,8,,,,,,,,,4,1.9691479979956057,087,001,2019_Aug_28_1511,MusicAffectPsychophysiology2019,3.0.5,60.28811570186866,
To what extent did the music make you feel ,EXCITED,30MonoWAV/30MonoF2.wav,1,2,2,2,,,,,0,13,13,1,0,3,3,7,,,,,,,,,1,0.7188982399820816,087,001,2019_Aug_28_1511,MusicAffectPsychophysiology2019,3.0.5,60.28811570186866,
To what extent did the music make you feel ,ASHAMED,30MonoWAV/30MonoF2.wav,1,2,2,2,,,,,0,13,13,1,0,4,4,4,,,,,,,,,1,0.8363568469940219,087,001,2019_Aug_28_1511,MusicAffectPsychophysiology2019,3.0.5,60.28811570186866,
To what extent did the music make you feel ,FRUSTRATED,30MonoWAV/30MonoF2.wav,1,2,2,2,,,,,0,13,13,1,0,5,5,3,,,,,,,,,1,0.7021964990126435,087,001,2019_Aug_28_1511,MusicAffectPsychophysiology2019,3.0.5,60.28811570186866,
To what extent did the music make you feel ,GUILTY,30MonoWAV/30MonoF2.wav,1,2,2,2,,,,,0,13,13,1,0,6,6,5,,,,,,,,,1,0.7858616820012685,087,001,2019_Aug_28_1511,MusicAffectPsychophysiology2019,3.0.5,60.28811570186866,
To what extent did the music make you feel ,ANGRY,30MonoWAV/30MonoF2.wav,1,2,2,2,,,,,0,13,13,1,0,7,7,2,,,,,,,,,1,0.5694532640045509,087,001,2019_Aug_28_1511,MusicAffectPsychophysiology2019,3.0.5,60.28811570186866,
To what extent did the music make you feel ,TENDER,30MonoWAV/30MonoF2.wav,1,2,2,2,,,,,0,13,13,1,0,8,8,10,,,,,,,,,2,1.254093636001926,087,001,2019_Aug_28_1511,MusicAffectPsychophysiology2019,3.0.5,60.28811570186866,
To what extent did the music make you feel ,SCARED,30MonoWAV/30MonoF2.wav,1,2,2,2,,,,,0,13,13,1,0,9,9,11,,,,,,,,,5,2.5370793960173614,087,001,2019_Aug_28_1511,MusicAffectPsychophysiology2019,3.0.5,60.28811570186866,
To what extent did the music make you feel ,ACTIVE,30MonoWAV/30MonoF2.wav,1,2,2,2,,,,,0,13,13,1,0,10,10,9,,,,,,,,,1,1.1020262190140784,087,001,2019_Aug_28_1511,MusicAffectPsychophysiology2019,3.0.5,60.28811570186866,
To what extent did the music make you feel ,ANXIOUS ,30MonoWAV/30MonoF2.wav,1,2,2,2,,,,,0,13,13,1,0,11,11,1,,,,,,,,,5,1.4538850029930472,087,001,2019_Aug_28_1511,MusicAffectPsychophysiology2019,3.0.5,60.28811570186866,
,,30MonoWAV/30MonoF2.wav,1,2,2,2,,,,,0,13,13,1,,,,,,,,,,,,,,,087,001,2019_Aug_28_1511,MusicAffectPsychophysiology2019,3.0.5,60.28811570186866,
To what extent did the music make you feel ,TENDER,30MonoWAV/30MonoH2.wav,2,2,1,6,,,,,0,14,14,5,0,0,0,10,,,4,4.018963957001688,4,1.1523143549857195,4,1.069079568987945,1,1.9105390339973383,087,001,2019_Aug_28_1511,MusicAffectPsychophysiology2019,3.0.5,60.28811570186866,
To what extent did the music make you feel ,HAPPY,30MonoWAV/30MonoH2.wav,2,2,1,6,,,,,0,14,14,5,0,1,1,6,,,,,,,,,4,1.2190809000167064,087,001,2019_Aug_28_1511,MusicAffectPsychophysiology2019,3.0.5,60.28811570186866,
To what extent did the music make you feel ,FRUSTRATED,30MonoWAV/30MonoH2.wav,2,2,1,6,,,,,0,14,14,5,0,2,2,3,,,,,,,,,1,0.7195896669873036,087,001,2019_Aug_28_1511,MusicAffectPsychophysiology2019,3.0.5,60.28811570186866,
To what extent did the music make you feel ,ANXIOUS ,30MonoWAV/30MonoH2.wav,2,2,1,6,,,,,0,14,14,5,0,3,3,1,,,,,,,,,1,0.652028042008169,087,001,2019_Aug_28_1511,MusicAffectPsychophysiology2019,3.0.5,60.28811570186866,
To what extent did the music make you feel ,EXCITED,30MonoWAV/30MonoH2.wav,2,2,1,6,,,,,0,14,14,5,0,4,4,7,,,,,,,,,4,1.2866255940170959,087,001,2019_Aug_28_1511,MusicAffectPsychophysiology2019,3.0.5,60.28811570186866,
To what extent did the music make you feel ,ALERT,30MonoWAV/30MonoH2.wav,2,2,1,6,,,,,0,14,14,5,0,5,5,8,,,,,,,,,4,1.6532290389877744,087,001,2019_Aug_28_1511,MusicAffectPsychophysiology2019,3.0.5,60.28811570186866,
To what extent did the music make you feel ,GUILTY,30MonoWAV/30MonoH2.wav,2,2,1,6,,,,,0,14,14,5,0,6,6,5,,,,,,,,,1,0.736380882008234,087,001,2019_Aug_28_1511,MusicAffectPsychophysiology2019,3.0.5,60.28811570186866,
To what extent did the music make you feel ,SCARED,30MonoWAV/30MonoH2.wav,2,2,1,6,,,,,0,14,14,5,0,7,7,11,,,,,,,,,1,0.7863996480009519,087,001,2019_Aug_28_1511,MusicAffectPsychophysiology2019,3.0.5,60.28811570186866,
To what extent did the music make you feel ,ASHAMED,30MonoWAV/30MonoH2.wav,2,2,1,6,,,,,0,14,14,5,0,8,8,4,,,,,,,,,1,0.5827630340063479,087,001,2019_Aug_28_1511,MusicAffectPsychophysiology2019,3.0.5,60.28811570186866,
To what extent did the music make you feel ,ANGRY,30MonoWAV/30MonoH2.wav,2,2,1,6,,,,,0,14,14,5,0,9,9,2,,,,,,,,,1,0.46905905901803635,087,001,2019_Aug_28_1511,MusicAffectPsychophysiology2019,3.0.5,60.28811570186866,
To what extent did the music make you feel ,ACTIVE,30MonoWAV/30MonoH2.wav,2,2,1,6,,,,,0,14,14,5,0,10,10,9,,,,,,,,,3,1.702518545993371,087,001,2019_Aug_28_1511,MusicAffectPsychophysiology2019,3.0.5,60.28811570186866,
To what extent did the music make you feel ,SAD,30MonoWAV/30MonoH2.wav,2,2,1,6,,,,,0,14,14,5,0,11,11,0,,,,,,,,,1,0.7193576319841668,087,001,2019_Aug_28_1511,MusicAffectPsychophysiology2019,3.0.5,60.28811570186866,
,,30MonoWAV/30MonoH2.wav,2,2,1,6,,,,,0,14,14,5,,,,,,,,,,,,,,,087,001,2019_Aug_28_1511,MusicAffectPsychophysiology2019,3.0.5,60.28811570186866,
To what extent did the music make you feel ,EXCITED,30MonoWAV/30MonoH4.wav,2,2,1,8,,,,,0,15,15,7,0,0,0,7,,,4,4.335523903020658,4,1.2526117049856111,4,1.2362276029889472,4,1.754122840007767,087,001,2019_Aug_28_1511,MusicAffectPsychophysiology2019,3.0.5,60.28811570186866,
To what extent did the music make you feel ,GUILTY,30MonoWAV/30MonoH4.wav,2,2,1,8,,,,,0,15,15,7,0,1,1,5,,,,,,,,,1,0.7860271260142326,087,001,2019_Aug_28_1511,MusicAffectPsychophysiology2019,3.0.5,60.28811570186866,
To what extent did the music make you feel ,TENDER,30MonoWAV/30MonoH4.wav,2,2,1,8,,,,,0,15,15,7,0,2,2,10,,,,,,,,,1,1.0193717769871,087,001,2019_Aug_28_1511,MusicAffectPsychophysiology2019,3.0.5,60.28811570186866,
To what extent did the music make you feel ,ACTIVE,30MonoWAV/30MonoH4.wav,2,2,1,8,,,,,0,15,15,7,0,3,3,9,,,,,,,,,4,1.4021864899841603,087,001,2019_Aug_28_1511,MusicAffectPsychophysiology2019,3.0.5,60.28811570186866,
To what extent did the music make you feel ,ALERT,30MonoWAV/30MonoH4.wav,2,2,1,8,,,,,0,15,15,7,0,4,4,8,,,,,,,,,4,2.3181484890228603,087,001,2019_Aug_28_1511,MusicAffectPsychophysiology2019,3.0.5,60.28811570186866,
To what extent did the music make you feel ,HAPPY,30MonoWAV/30MonoH4.wav,2,2,1,8,,,,,0,15,15,7,0,5,5,6,,,,,,,,,4,1.2012214179849252,087,001,2019_Aug_28_1511,MusicAffectPsychophysiology2019,3.0.5,60.28811570186866,
To what extent did the music make you feel ,SCARED,30MonoWAV/30MonoH4.wav,2,2,1,8,,,,,0,15,15,7,0,6,6,11,,,,,,,,,1,0.8014016019878909,087,001,2019_Aug_28_1511,MusicAffectPsychophysiology2019,3.0.5,60.28811570186866,
To what extent did the music make you feel ,SAD,30MonoWAV/30MonoH4.wav,2,2,1,8,,,,,0,15,15,7,0,7,7,0,,,,,,,,,1,0.702593784983037,087,001,2019_Aug_28_1511,MusicAffectPsychophysiology2019,3.0.5,60.28811570186866,
To what extent did the music make you feel ,ANGRY,30MonoWAV/30MonoH4.wav,2,2,1,8,,,,,0,15,15,7,0,8,8,2,,,,,,,,,1,1.1019320850027725,087,001,2019_Aug_28_1511,MusicAffectPsychophysiology2019,3.0.5,60.28811570186866,
To what extent did the music make you feel ,ANXIOUS ,30MonoWAV/30MonoH4.wav,2,2,1,8,,,,,0,15,15,7,0,9,9,1,,,,,,,,,1,0.7692650210228749,087,001,2019_Aug_28_1511,MusicAffectPsychophysiology2019,3.0.5,60.28811570186866,
To what extent did the music make you feel ,ASHAMED,30MonoWAV/30MonoH4.wav,2,2,1,8,,,,,0,15,15,7,0,10,10,4,,,,,,,,,1,0.6022038740047719,087,001,2019_Aug_28_1511,MusicAffectPsychophysiology2019,3.0.5,60.28811570186866,
To what extent did the music make you feel ,FRUSTRATED,30MonoWAV/30MonoH4.wav,2,2,1,8,,,,,0,15,15,7,0,11,11,3,,,,,,,,,1,0.9348942069918849,087,001,2019_Aug_28_1511,MusicAffectPsychophysiology2019,3.0.5,60.28811570186866,
,,30MonoWAV/30MonoH4.wav,2,2,1,8,,,,,0,15,15,7,,,,,,,,,,,,,,,087,001,2019_Aug_28_1511,MusicAffectPsychophysiology2019,3.0.5,60.28811570186866,
To what extent did the music make you feel ,ASHAMED,30MonoWAV/30MonoT2.wav,2,1,4,14,,,,,1,0,16,13,0,0,0,4,,,2,2.249387399002444,5,1.2356308300222736,5,1.0527741919795517,1,2.1318188080040272,087,001,2019_Aug_28_1511,MusicAffectPsychophysiology2019,3.0.5,60.28811570186866,
To what extent did the music make you feel ,TENDER,30MonoWAV/30MonoT2.wav,2,1,4,14,,,,,1,0,16,13,0,1,1,10,,,,,,,,,4,1.3168022500176448,087,001,2019_Aug_28_1511,MusicAffectPsychophysiology2019,3.0.5,60.28811570186866,
To what extent did the music make you feel ,ANGRY,30MonoWAV/30MonoT2.wav,2,1,4,14,,,,,1,0,16,13,0,2,2,2,,,,,,,,,1,0.6848556740151253,087,001,2019_Aug_28_1511,MusicAffectPsychophysiology2019,3.0.5,60.28811570186866,
To what extent did the music make you feel ,EXCITED,30MonoWAV/30MonoT2.wav,2,1,4,14,,,,,1,0,16,13,0,3,3,7,,,,,,,,,2,1.4695038979989477,087,001,2019_Aug_28_1511,MusicAffectPsychophysiology2019,3.0.5,60.28811570186866,
To what extent did the music make you feel ,SCARED,30MonoWAV/30MonoT2.wav,2,1,4,14,,,,,1,0,16,13,0,4,4,11,,,,,,,,,1,1.1872422529850155,087,001,2019_Aug_28_1511,MusicAffectPsychophysiology2019,3.0.5,60.28811570186866,
To what extent did the music make you feel ,ACTIVE,30MonoWAV/30MonoT2.wav,2,1,4,14,,,,,1,0,16,13,0,5,5,9,,,,,,,,,1,1.2493939839769155,087,001,2019_Aug_28_1511,MusicAffectPsychophysiology2019,3.0.5,60.28811570186866,
To what extent did the music make you feel ,SAD,30MonoWAV/30MonoT2.wav,2,1,4,14,,,,,1,0,16,13,0,6,6,0,,,,,,,,,1,0.7535489030124154,087,001,2019_Aug_28_1511,MusicAffectPsychophysiology2019,3.0.5,60.28811570186866,
To what extent did the music make you feel ,GUILTY,30MonoWAV/30MonoT2.wav,2,1,4,14,,,,,1,0,16,13,0,7,7,5,,,,,,,,,1,0.4690849379985593,087,001,2019_Aug_28_1511,MusicAffectPsychophysiology2019,3.0.5,60.28811570186866,
To what extent did the music make you feel ,ALERT,30MonoWAV/30MonoT2.wav,2,1,4,14,,,,,1,0,16,13,0,8,8,8,,,,,,,,,1,0.7190290709841065,087,001,2019_Aug_28_1511,MusicAffectPsychophysiology2019,3.0.5,60.28811570186866,
To what extent did the music make you feel ,HAPPY,30MonoWAV/30MonoT2.wav,2,1,4,14,,,,,1,0,16,13,0,9,9,6,,,,,,,,,5,1.2847377489961218,087,001,2019_Aug_28_1511,MusicAffectPsychophysiology2019,3.0.5,60.28811570186866,
To what extent did the music make you feel ,FRUSTRATED,30MonoWAV/30MonoT2.wav,2,1,4,14,,,,,1,0,16,13,0,10,10,3,,,,,,,,,1,1.4042294349928852,087,001,2019_Aug_28_1511,MusicAffectPsychophysiology2019,3.0.5,60.28811570186866,
To what extent did the music make you feel ,ANXIOUS ,30MonoWAV/30MonoT2.wav,2,1,4,14,,,,,1,0,16,13,0,11,11,1,,,,,,,,,1,1.2196116419800092,087,001,2019_Aug_28_1511,MusicAffectPsychophysiology2019,3.0.5,60.28811570186866,
,,30MonoWAV/30MonoT2.wav,2,1,4,14,,,,,1,0,16,13,,,,,,,,,,,,,,,087,001,2019_Aug_28_1511,MusicAffectPsychophysiology2019,3.0.5,60.28811570186866,
To what extent did the music make you feel ,ALERT,30MonoWAV/30MonoS4.wav,1,1,3,12,,,,,1,1,17,11,0,0,0,8,,,1,2.652816397981951,1,2.351510923006572,4,2.785584037017543,1,1.705162124009803,087,001,2019_Aug_28_1511,MusicAffectPsychophysiology2019,3.0.5,60.28811570186866,
To what extent did the music make you feel ,HAPPY,30MonoWAV/30MonoS4.wav,1,1,3,12,,,,,1,1,17,11,0,1,1,6,,,,,,,,,1,0.7016863070020918,087,001,2019_Aug_28_1511,MusicAffectPsychophysiology2019,3.0.5,60.28811570186866,
To what extent did the music make you feel ,EXCITED,30MonoWAV/30MonoS4.wav,1,1,3,12,,,,,1,1,17,11,0,2,2,7,,,,,,,,,1,0.9198428590025287,087,001,2019_Aug_28_1511,MusicAffectPsychophysiology2019,3.0.5,60.28811570186866,
To what extent did the music make you feel ,SCARED,30MonoWAV/30MonoS4.wav,1,1,3,12,,,,,1,1,17,11,0,3,3,11,,,,,,,,,1,1.070437425019918,087,001,2019_Aug_28_1511,MusicAffectPsychophysiology2019,3.0.5,60.28811570186866,
To what extent did the music make you feel ,ASHAMED,30MonoWAV/30MonoS4.wav,1,1,3,12,,,,,1,1,17,11,0,4,4,4,,,,,,,,,2,1.7356666440027766,087,001,2019_Aug_28_1511,MusicAffectPsychophysiology2019,3.0.5,60.28811570186866,
To what extent did the music make you feel ,ACTIVE,30MonoWAV/30MonoS4.wav,1,1,3,12,,,,,1,1,17,11,0,5,5,9,,,,,,,,,1,1.4365243560168892,087,001,2019_Aug_28_1511,MusicAffectPsychophysiology2019,3.0.5,60.28811570186866,
To what extent did the music make you feel ,TENDER,30MonoWAV/30MonoS4.wav,1,1,3,12,,,,,1,1,17,11,0,6,6,10,,,,,,,,,2,1.2854612760129385,087,001,2019_Aug_28_1511,MusicAffectPsychophysiology2019,3.0.5,60.28811570186866,
To what extent did the music make you feel ,ANXIOUS ,30MonoWAV/30MonoS4.wav,1,1,3,12,,,,,1,1,17,11,0,7,7,1,,,,,,,,,1,2.405950104992371,087,001,2019_Aug_28_1511,MusicAffectPsychophysiology2019,3.0.5,60.28811570186866,
To what extent did the music make you feel ,ANGRY,30MonoWAV/30MonoS4.wav,1,1,3,12,,,,,1,1,17,11,0,8,8,2,,,,,,,,,1,0.520261539000785,087,001,2019_Aug_28_1511,MusicAffectPsychophysiology2019,3.0.5,60.28811570186866,
To what extent did the music make you feel ,GUILTY,30MonoWAV/30MonoS4.wav,1,1,3,12,,,,,1,1,17,11,0,9,9,5,,,,,,,,,1,0.6356498789973557,087,001,2019_Aug_28_1511,MusicAffectPsychophysiology2019,3.0.5,60.28811570186866,
To what extent did the music make you feel ,SAD,30MonoWAV/30MonoS4.wav,1,1,3,12,,,,,1,1,17,11,0,10,10,0,,,,,,,,,2,2.1357915670087095,087,001,2019_Aug_28_1511,MusicAffectPsychophysiology2019,3.0.5,60.28811570186866,
To what extent did the music make you feel ,FRUSTRATED,30MonoWAV/30MonoS4.wav,1,1,3,12,,,,,1,1,17,11,0,11,11,3,,,,,,,,,1,0.6566638770163991,087,001,2019_Aug_28_1511,MusicAffectPsychophysiology2019,3.0.5,60.28811570186866,
,,30MonoWAV/30MonoS4.wav,1,1,3,12,,,,,1,1,17,11,,,,,,,,,,,,,,,087,001,2019_Aug_28_1511,MusicAffectPsychophysiology2019,3.0.5,60.28811570186866,
To what extent did the music make you feel ,FRUSTRATED,30MonoWAV/30MonoT3.wav,2,1,4,15,,,,,1,2,18,14,0,0,0,3,,,2,3.803175109991571,4,2.2015508220065385,5,1.852266617002897,1,1.5697414560127072,087,001,2019_Aug_28_1511,MusicAffectPsychophysiology2019,3.0.5,60.28811570186866,
To what extent did the music make you feel ,GUILTY,30MonoWAV/30MonoT3.wav,2,1,4,15,,,,,1,2,18,14,0,1,1,5,,,,,,,,,1,0.48623020100058056,087,001,2019_Aug_28_1511,MusicAffectPsychophysiology2019,3.0.5,60.28811570186866,
To what extent did the music make you feel ,HAPPY,30MonoWAV/30MonoT3.wav,2,1,4,15,,,,,1,2,18,14,0,2,2,6,,,,,,,,,3,1.6346301710000262,087,001,2019_Aug_28_1511,MusicAffectPsychophysiology2019,3.0.5,60.28811570186866,
To what extent did the music make you feel ,ALERT,30MonoWAV/30MonoT3.wav,2,1,4,15,,,,,1,2,18,14,0,3,3,8,,,,,,,,,1,1.886339054995915,087,001,2019_Aug_28_1511,MusicAffectPsychophysiology2019,3.0.5,60.28811570186866,
To what extent did the music make you feel ,SCARED,30MonoWAV/30MonoT3.wav,2,1,4,15,,,,,1,2,18,14,0,4,4,11,,,,,,,,,1,0.8191008479916491,087,001,2019_Aug_28_1511,MusicAffectPsychophysiology2019,3.0.5,60.28811570186866,
To what extent did the music make you feel ,SAD,30MonoWAV/30MonoT3.wav,2,1,4,15,,,,,1,2,18,14,0,5,5,0,,,,,,,,,1,1.1358185890130699,087,001,2019_Aug_28_1511,MusicAffectPsychophysiology2019,3.0.5,60.28811570186866,
To what extent did the music make you feel ,ANGRY,30MonoWAV/30MonoT3.wav,2,1,4,15,,,,,1,2,18,14,0,6,6,2,,,,,,,,,1,0.5346147870004643,087,001,2019_Aug_28_1511,MusicAffectPsychophysiology2019,3.0.5,60.28811570186866,
To what extent did the music make you feel ,ANXIOUS ,30MonoWAV/30MonoT3.wav,2,1,4,15,,,,,1,2,18,14,0,7,7,1,,,,,,,,,1,0.6864249689970165,087,001,2019_Aug_28_1511,MusicAffectPsychophysiology2019,3.0.5,60.28811570186866,
To what extent did the music make you feel ,TENDER,30MonoWAV/30MonoT3.wav,2,1,4,15,,,,,1,2,18,14,0,8,8,10,,,,,,,,,4,1.368909568991512,087,001,2019_Aug_28_1511,MusicAffectPsychophysiology2019,3.0.5,60.28811570186866,
To what extent did the music make you feel ,ASHAMED,30MonoWAV/30MonoT3.wav,2,1,4,15,,,,,1,2,18,14,0,9,9,4,,,,,,,,,1,1.01845090999268,087,001,2019_Aug_28_1511,MusicAffectPsychophysiology2019,3.0.5,60.28811570186866,
To what extent did the music make you feel ,ACTIVE,30MonoWAV/30MonoT3.wav,2,1,4,15,,,,,1,2,18,14,0,10,10,9,,,,,,,,,1,0.769309033988975,087,001,2019_Aug_28_1511,MusicAffectPsychophysiology2019,3.0.5,60.28811570186866,
To what extent did the music make you feel ,EXCITED,30MonoWAV/30MonoT3.wav,2,1,4,15,,,,,1,2,18,14,0,11,11,7,,,,,,,,,1,1.1849988370086066,087,001,2019_Aug_28_1511,MusicAffectPsychophysiology2019,3.0.5,60.28811570186866,
,,30MonoWAV/30MonoT3.wav,2,1,4,15,,,,,1,2,18,14,,,,,,,,,,,,,,,087,001,2019_Aug_28_1511,MusicAffectPsychophysiology2019,3.0.5,60.28811570186866,
To what extent did the music make you feel ,FRUSTRATED,30MonoWAV/30MonoS2.wav,1,1,3,10,,,,,1,3,19,9,0,0,0,3,,,1,2.9708212690020446,1,2.1517731889907736,4,4.019717404997209,1,1.643355360982241,087,001,2019_Aug_28_1511,MusicAffectPsychophysiology2019,3.0.5,60.28811570186866,
To what extent did the music make you feel ,ANXIOUS ,30MonoWAV/30MonoS2.wav,1,1,3,10,,,,,1,3,19,9,0,1,1,1,,,,,,,,,1,1.135872416984057,087,001,2019_Aug_28_1511,MusicAffectPsychophysiology2019,3.0.5,60.28811570186866,
To what extent did the music make you feel ,SCARED,30MonoWAV/30MonoS2.wav,1,1,3,10,,,,,1,3,19,9,0,2,2,11,,,,,,,,,1,0.752131877001375,087,001,2019_Aug_28_1511,MusicAffectPsychophysiology2019,3.0.5,60.28811570186866,
To what extent did the music make you feel ,ACTIVE,30MonoWAV/30MonoS2.wav,1,1,3,10,,,,,1,3,19,9,0,3,3,9,,,,,,,,,1,1.0533803090220317,087,001,2019_Aug_28_1511,MusicAffectPsychophysiology2019,3.0.5,60.28811570186866,
To what extent did the music make you feel ,GUILTY,30MonoWAV/30MonoS2.wav,1,1,3,10,,,,,1,3,19,9,0,4,4,5,,,,,,,,,2,1.4349849179852754,087,001,2019_Aug_28_1511,MusicAffectPsychophysiology2019,3.0.5,60.28811570186866,
To what extent did the music make you feel ,HAPPY,30MonoWAV/30MonoS2.wav,1,1,3,10,,,,,1,3,19,9,0,5,5,6,,,,,,,,,1,0.8022603629797231,087,001,2019_Aug_28_1511,MusicAffectPsychophysiology2019,3.0.5,60.28811570186866,
To what extent did the music make you feel ,SAD,30MonoWAV/30MonoS2.wav,1,1,3,10,,,,,1,3,19,9,0,6,6,0,,,,,,,,,3,1.4362784110126086,087,001,2019_Aug_28_1511,MusicAffectPsychophysiology2019,3.0.5,60.28811570186866,
To what extent did the music make you feel ,ANGRY,30MonoWAV/30MonoS2.wav,1,1,3,10,,,,,1,3,19,9,0,7,7,2,,,,,,,,,1,0.5353741760191042,087,001,2019_Aug_28_1511,MusicAffectPsychophysiology2019,3.0.5,60.28811570186866,
To what extent did the music make you feel ,ALERT,30MonoWAV/30MonoS2.wav,1,1,3,10,,,,,1,3,19,9,0,8,8,8,,,,,,,,,1,0.8034986160055269,087,001,2019_Aug_28_1511,MusicAffectPsychophysiology2019,3.0.5,60.28811570186866,
To what extent did the music make you feel ,EXCITED,30MonoWAV/30MonoS2.wav,1,1,3,10,,,,,1,3,19,9,0,9,9,7,,,,,,,,,1,0.6517249990138225,087,001,2019_Aug_28_1511,MusicAffectPsychophysiology2019,3.0.5,60.28811570186866,
To what extent did the music make you feel ,TENDER,30MonoWAV/30MonoS2.wav,1,1,3,10,,,,,1,3,19,9,0,10,10,10,,,,,,,,,4,1.3685295399918687,087,001,2019_Aug_28_1511,MusicAffectPsychophysiology2019,3.0.5,60.28811570186866,
To what extent did the music make you feel ,ASHAMED,30MonoWAV/30MonoS2.wav,1,1,3,10,,,,,1,3,19,9,0,11,11,4,,,,,,,,,2,2.202511803014204,087,001,2019_Aug_28_1511,MusicAffectPsychophysiology2019,3.0.5,60.28811570186866,
,,30MonoWAV/30MonoS2.wav,1,1,3,10,,,,,1,3,19,9,,,,,,,,,,,,,,,087,001,2019_Aug_28_1511,MusicAffectPsychophysiology2019,3.0.5,60.28811570186866,
To what extent did the music make you feel ,ALERT,30MonoWAV/30MonoH2.wav,2,2,1,6,,,,,1,4,20,5,0,0,0,8,,,3,3.3528394709865097,3,1.485388346016407,4,2.269556447979994,3,4.018662315007532,087,001,2019_Aug_28_1511,MusicAffectPsychophysiology2019,3.0.5,60.28811570186866,
To what extent did the music make you feel ,SAD,30MonoWAV/30MonoH2.wav,2,2,1,6,,,,,1,4,20,5,0,1,1,0,,,,,,,,,1,1.085651355999289,087,001,2019_Aug_28_1511,MusicAffectPsychophysiology2019,3.0.5,60.28811570186866,
To what extent did the music make you feel ,EXCITED,30MonoWAV/30MonoH2.wav,2,2,1,6,,,,,1,4,20,5,0,2,2,7,,,,,,,,,4,1.2693352650094312,087,001,2019_Aug_28_1511,MusicAffectPsychophysiology2019,3.0.5,60.28811570186866,
To what extent did the music make you feel ,SCARED,30MonoWAV/30MonoH2.wav,2,2,1,6,,,,,1,4,20,5,0,3,3,11,,,,,,,,,1,0.736039082024945,087,001,2019_Aug_28_1511,MusicAffectPsychophysiology2019,3.0.5,60.28811570186866,
To what extent did the music make you feel ,GUILTY,30MonoWAV/30MonoH2.wav,2,2,1,6,,,,,1,4,20,5,0,4,4,5,,,,,,,,,1,0.5529980149876792,087,001,2019_Aug_28_1511,MusicAffectPsychophysiology2019,3.0.5,60.28811570186866,
To what extent did the music make you feel ,HAPPY,30MonoWAV/30MonoH2.wav,2,2,1,6,,,,,1,4,20,5,0,5,5,6,,,,,,,,,4,1.3029590699879918,087,001,2019_Aug_28_1511,MusicAffectPsychophysiology2019,3.0.5,60.28811570186866,
To what extent did the music make you feel ,ASHAMED,30MonoWAV/30MonoH2.wav,2,2,1,6,,,,,1,4,20,5,0,6,6,4,,,,,,,,,1,0.718149046995677,087,001,2019_Aug_28_1511,MusicAffectPsychophysiology2019,3.0.5,60.28811570186866,
To what extent did the music make you feel ,ANXIOUS ,30MonoWAV/30MonoH2.wav,2,2,1,6,,,,,1,4,20,5,0,7,7,1,,,,,,,,,1,0.5194319850124884,087,001,2019_Aug_28_1511,MusicAffectPsychophysiology2019,3.0.5,60.28811570186866,
To what extent did the music make you feel ,TENDER,30MonoWAV/30MonoH2.wav,2,2,1,6,,,,,1,4,20,5,0,8,8,10,,,,,,,,,1,1.1185517350095324,087,001,2019_Aug_28_1511,MusicAffectPsychophysiology2019,3.0.5,60.28811570186866,
To what extent did the music make you feel ,FRUSTRATED,30MonoWAV/30MonoH2.wav,2,2,1,6,,,,,1,4,20,5,0,9,9,3,,,,,,,,,1,0.6523691000184044,087,001,2019_Aug_28_1511,MusicAffectPsychophysiology2019,3.0.5,60.28811570186866,
To what extent did the music make you feel ,ACTIVE,30MonoWAV/30MonoH2.wav,2,2,1,6,,,,,1,4,20,5,0,10,10,9,,,,,,,,,1,0.8692800209973939,087,001,2019_Aug_28_1511,MusicAffectPsychophysiology2019,3.0.5,60.28811570186866,
To what extent did the music make you feel ,ANGRY,30MonoWAV/30MonoH2.wav,2,2,1,6,,,,,1,4,20,5,0,11,11,2,,,,,,,,,1,1.4038709700107574,087,001,2019_Aug_28_1511,MusicAffectPsychophysiology2019,3.0.5,60.28811570186866,
,,30MonoWAV/30MonoH2.wav,2,2,1,6,,,,,1,4,20,5,,,,,,,,,,,,,,,087,001,2019_Aug_28_1511,MusicAffectPsychophysiology2019,3.0.5,60.28811570186866,
To what extent did the music make you feel ,ANGRY,30MonoWAV/30MonoH4.wav,2,2,1,8,,,,,1,5,21,7,0,0,0,2,,,5,3.2025618359912187,5,0.9358625820023008,5,1.5138131119892932,1,2.0529745770036243,087,001,2019_Aug_28_1511,MusicAffectPsychophysiology2019,3.0.5,60.28811570186866,
To what extent did the music make you feel ,HAPPY,30MonoWAV/30MonoH4.wav,2,2,1,8,,,,,1,5,21,7,0,1,1,6,,,,,,,,,5,1.0689496640115976,087,001,2019_Aug_28_1511,MusicAffectPsychophysiology2019,3.0.5,60.28811570186866,
To what extent did the music make you feel ,ANXIOUS ,30MonoWAV/30MonoH4.wav,2,2,1,8,,,,,1,5,21,7,0,2,2,1,,,,,,,,,1,0.7354151689796709,087,001,2019_Aug_28_1511,MusicAffectPsychophysiology2019,3.0.5,60.28811570186866,
To what extent did the music make you feel ,ALERT,30MonoWAV/30MonoH4.wav,2,2,1,8,,,,,1,5,21,7,0,3,3,8,,,,,,,,,1,0.7365818149992265,087,001,2019_Aug_28_1511,MusicAffectPsychophysiology2019,3.0.5,60.28811570186866,
To what extent did the music make you feel ,FRUSTRATED,30MonoWAV/30MonoH4.wav,2,2,1,8,,,,,1,5,21,7,0,4,4,3,,,,,,,,,1,3.1958114079898223,087,001,2019_Aug_28_1511,MusicAffectPsychophysiology2019,3.0.5,60.28811570186866,
To what extent did the music make you feel ,EXCITED,30MonoWAV/30MonoH4.wav,2,2,1,8,,,,,1,5,21,7,0,5,5,7,,,,,,,,,5,1.0690127020061482,087,001,2019_Aug_28_1511,MusicAffectPsychophysiology2019,3.0.5,60.28811570186866,
To what extent did the music make you feel ,SCARED,30MonoWAV/30MonoH4.wav,2,2,1,8,,,,,1,5,21,7,0,6,6,11,,,,,,,,,1,0.8504406870051753,087,001,2019_Aug_28_1511,MusicAffectPsychophysiology2019,3.0.5,60.28811570186866,
To what extent did the music make you feel ,SAD,30MonoWAV/30MonoH4.wav,2,2,1,8,,,,,1,5,21,7,0,7,7,0,,,,,,,,,1,0.5363037360075396,087,001,2019_Aug_28_1511,MusicAffectPsychophysiology2019,3.0.5,60.28811570186866,
To what extent did the music make you feel ,ACTIVE,30MonoWAV/30MonoH4.wav,2,2,1,8,,,,,1,5,21,7,0,8,8,9,,,,,,,,,5,1.1023512929969002,087,001,2019_Aug_28_1511,MusicAffectPsychophysiology2019,3.0.5,60.28811570186866,
To what extent did the music make you feel ,TENDER,30MonoWAV/30MonoH4.wav,2,2,1,8,,,,,1,5,21,7,0,9,9,10,,,,,,,,,1,0.9696269760024734,087,001,2019_Aug_28_1511,MusicAffectPsychophysiology2019,3.0.5,60.28811570186866,
To what extent did the music make you feel ,GUILTY,30MonoWAV/30MonoH4.wav,2,2,1,8,,,,,1,5,21,7,0,10,10,5,,,,,,,,,1,1.7525913910067175,087,001,2019_Aug_28_1511,MusicAffectPsychophysiology2019,3.0.5,60.28811570186866,
To what extent did the music make you feel ,ASHAMED,30MonoWAV/30MonoH4.wav,2,2,1,8,,,,,1,5,21,7,0,11,11,4,,,,,,,,,1,0.8681678189896047,087,001,2019_Aug_28_1511,MusicAffectPsychophysiology2019,3.0.5,60.28811570186866,
,,30MonoWAV/30MonoH4.wav,2,2,1,8,,,,,1,5,21,7,,,,,,,,,,,,,,,087,001,2019_Aug_28_1511,MusicAffectPsychophysiology2019,3.0.5,60.28811570186866,
To what extent did the music make you feel ,ALERT,30MonoWAV/30MonoS1.wav,1,1,3,9,,,,,1,6,22,8,0,0,0,8,,,1,2.8695353319926653,2,1.6196334779961035,4,1.668462911999086,1,2.9028094339882955,087,001,2019_Aug_28_1511,MusicAffectPsychophysiology2019,3.0.5,60.28811570186866,
To what extent did the music make you feel ,TENDER,30MonoWAV/30MonoS1.wav,1,1,3,9,,,,,1,6,22,8,0,1,1,10,,,,,,,,,3,1.2906319650064688,087,001,2019_Aug_28_1511,MusicAffectPsychophysiology2019,3.0.5,60.28811570186866,
To what extent did the music make you feel ,SAD,30MonoWAV/30MonoS1.wav,1,1,3,9,,,,,1,6,22,8,0,2,2,0,,,,,,,,,2,1.2692545190220699,087,001,2019_Aug_28_1511,MusicAffectPsychophysiology2019,3.0.5,60.28811570186866,
To what extent did the music make you feel ,SCARED,30MonoWAV/30MonoS1.wav,1,1,3,9,,,,,1,6,22,8,0,3,3,11,,,,,,,,,1,1.0029862119990867,087,001,2019_Aug_28_1511,MusicAffectPsychophysiology2019,3.0.5,60.28811570186866,
To what extent did the music make you feel ,ANGRY,30MonoWAV/30MonoS1.wav,1,1,3,9,,,,,1,6,22,8,0,4,4,2,,,,,,,,,1,0.8027476029819809,087,001,2019_Aug_28_1511,MusicAffectPsychophysiology2019,3.0.5,60.28811570186866,
To what extent did the music make you feel ,GUILTY,30MonoWAV/30MonoS1.wav,1,1,3,9,,,,,1,6,22,8,0,5,5,5,,,,,,,,,2,1.983733626024332,087,001,2019_Aug_28_1511,MusicAffectPsychophysiology2019,3.0.5,60.28811570186866,
To what extent did the music make you feel ,ANXIOUS ,30MonoWAV/30MonoS1.wav,1,1,3,9,,,,,1,6,22,8,0,6,6,1,,,,,,,,,2,2.599397024983773,087,001,2019_Aug_28_1511,MusicAffectPsychophysiology2019,3.0.5,60.28811570186866,
To what extent did the music make you feel ,ACTIVE,30MonoWAV/30MonoS1.wav,1,1,3,9,,,,,1,6,22,8,0,7,7,9,,,,,,,,,1,0.7017495399923064,087,001,2019_Aug_28_1511,MusicAffectPsychophysiology2019,3.0.5,60.28811570186866,
To what extent did the music make you feel ,ASHAMED,30MonoWAV/30MonoS1.wav,1,1,3,9,,,,,1,6,22,8,0,8,8,4,,,,,,,,,2,1.3684670889924746,087,001,2019_Aug_28_1511,MusicAffectPsychophysiology2019,3.0.5,60.28811570186866,
To what extent did the music make you feel ,EXCITED,30MonoWAV/30MonoS1.wav,1,1,3,9,,,,,1,6,22,8,0,9,9,7,,,,,,,,,1,1.2832611989870202,087,001,2019_Aug_28_1511,MusicAffectPsychophysiology2019,3.0.5,60.28811570186866,
To what extent did the music make you feel ,FRUSTRATED,30MonoWAV/30MonoS1.wav,1,1,3,9,,,,,1,6,22,8,0,10,10,3,,,,,,,,,1,0.9193645089981146,087,001,2019_Aug_28_1511,MusicAffectPsychophysiology2019,3.0.5,60.28811570186866,
To what extent did the music make you feel ,HAPPY,30MonoWAV/30MonoS1.wav,1,1,3,9,,,,,1,6,22,8,0,11,11,6,,,,,,,,,1,1.2669465059880167,087,001,2019_Aug_28_1511,MusicAffectPsychophysiology2019,3.0.5,60.28811570186866,
,,30MonoWAV/30MonoS1.wav,1,1,3,9,,,,,1,6,22,8,,,,,,,,,,,,,,,087,001,2019_Aug_28_1511,MusicAffectPsychophysiology2019,3.0.5,60.28811570186866,
To what extent did the music make you feel ,ASHAMED,30MonoWAV/30MonoF4.wav,1,2,2,4,,,,,1,7,23,3,0,0,0,4,,,2,7.234435299993493,1,1.4360444339981768,2,1.9686224150063936,1,3.8851108479721006,087,001,2019_Aug_28_1511,MusicAffectPsychophysiology2019,3.0.5,60.28811570186866,
To what extent did the music make you feel ,ANGRY,30MonoWAV/30MonoF4.wav,1,2,2,4,,,,,1,7,23,3,0,1,1,2,,,,,,,,,3,1.6517266530136112,087,001,2019_Aug_28_1511,MusicAffectPsychophysiology2019,3.0.5,60.28811570186866,
To what extent did the music make you feel ,ANXIOUS ,30MonoWAV/30MonoF4.wav,1,2,2,4,,,,,1,7,23,3,0,2,2,1,,,,,,,,,2,1.702350829000352,087,001,2019_Aug_28_1511,MusicAffectPsychophysiology2019,3.0.5,60.28811570186866,
To what extent did the music make you feel ,GUILTY,30MonoWAV/30MonoF4.wav,1,2,2,4,,,,,1,7,23,3,0,3,3,5,,,,,,,,,2,1.2695550470089074,087,001,2019_Aug_28_1511,MusicAffectPsychophysiology2019,3.0.5,60.28811570186866,
To what extent did the music make you feel ,TENDER,30MonoWAV/30MonoF4.wav,1,2,2,4,,,,,1,7,23,3,0,4,4,10,,,,,,,,,1,0.9187409259902779,087,001,2019_Aug_28_1511,MusicAffectPsychophysiology2019,3.0.5,60.28811570186866,
To what extent did the music make you feel ,SCARED,30MonoWAV/30MonoF4.wav,1,2,2,4,,,,,1,7,23,3,0,5,5,11,,,,,,,,,3,1.0687706679746043,087,001,2019_Aug_28_1511,MusicAffectPsychophysiology2019,3.0.5,60.28811570186866,
To what extent did the music make you feel ,HAPPY,30MonoWAV/30MonoF4.wav,1,2,2,4,,,,,1,7,23,3,0,6,6,6,,,,,,,,,1,0.768722988985246,087,001,2019_Aug_28_1511,MusicAffectPsychophysiology2019,3.0.5,60.28811570186866,
To what extent did the music make you feel ,SAD,30MonoWAV/30MonoF4.wav,1,2,2,4,,,,,1,7,23,3,0,7,7,0,,,,,,,,,1,1.3693767030199524,087,001,2019_Aug_28_1511,MusicAffectPsychophysiology2019,3.0.5,60.28811570186866,
To what extent did the music make you feel ,ALERT,30MonoWAV/30MonoF4.wav,1,2,2,4,,,,,1,7,23,3,0,8,8,8,,,,,,,,,4,1.7197774189990014,087,001,2019_Aug_28_1511,MusicAffectPsychophysiology2019,3.0.5,60.28811570186866,
To what extent did the music make you feel ,FRUSTRATED,30MonoWAV/30MonoF4.wav,1,2,2,4,,,,,1,7,23,3,0,9,9,3,,,,,,,,,3,1.6694324369891547,087,001,2019_Aug_28_1511,MusicAffectPsychophysiology2019,3.0.5,60.28811570186866,
To what extent did the music make you feel ,EXCITED,30MonoWAV/30MonoF4.wav,1,2,2,4,,,,,1,7,23,3,0,10,10,7,,,,,,,,,1,1.536135013011517,087,001,2019_Aug_28_1511,MusicAffectPsychophysiology2019,3.0.5,60.28811570186866,
To what extent did the music make you feel ,ACTIVE,30MonoWAV/30MonoF4.wav,1,2,2,4,,,,,1,7,23,3,0,11,11,9,,,,,,,,,1,0.7848277610028163,087,001,2019_Aug_28_1511,MusicAffectPsychophysiology2019,3.0.5,60.28811570186866,
,,30MonoWAV/30MonoF4.wav,1,2,2,4,,,,,1,7,23,3,,,,,,,,,,,,,,,087,001,2019_Aug_28_1511,MusicAffectPsychophysiology2019,3.0.5,60.28811570186866,
To what extent did the music make you feel ,TENDER,30MonoWAV/30MonoT1.wav,2,1,4,13,,,,,1,8,24,12,0,0,0,10,,,2,3.419265542004723,4,1.952043085009791,4,1.9182671399903484,4,1.6759210599993821,087,001,2019_Aug_28_1511,MusicAffectPsychophysiology2019,3.0.5,60.28811570186866,
To what extent did the music make you feel ,ANGRY,30MonoWAV/30MonoT1.wav,2,1,4,13,,,,,1,8,24,12,0,1,1,2,,,,,,,,,1,0.8338986900052987,087,001,2019_Aug_28_1511,MusicAffectPsychophysiology2019,3.0.5,60.28811570186866,
To what extent did the music make you feel ,EXCITED,30MonoWAV/30MonoT1.wav,2,1,4,13,,,,,1,8,24,12,0,2,2,7,,,,,,,,,1,0.9858733389992267,087,001,2019_Aug_28_1511,MusicAffectPsychophysiology2019,3.0.5,60.28811570186866,
To what extent did the music make you feel ,SCARED,30MonoWAV/30MonoT1.wav,2,1,4,13,,,,,1,8,24,12,0,3,3,11,,,,,,,,,1,0.9018855829781387,087,001,2019_Aug_28_1511,MusicAffectPsychophysiology2019,3.0.5,60.28811570186866,
To what extent did the music make you feel ,ANXIOUS ,30MonoWAV/30MonoT1.wav,2,1,4,13,,,,,1,8,24,12,0,4,4,1,,,,,,,,,1,0.8514633140002843,087,001,2019_Aug_28_1511,MusicAffectPsychophysiology2019,3.0.5,60.28811570186866,
To what extent did the music make you feel ,ASHAMED,30MonoWAV/30MonoT1.wav,2,1,4,13,,,,,1,8,24,12,0,5,5,4,,,,,,,,,1,0.6692989720031619,087,001,2019_Aug_28_1511,MusicAffectPsychophysiology2019,3.0.5,60.28811570186866,
To what extent did the music make you feel ,HAPPY,30MonoWAV/30MonoT1.wav,2,1,4,13,,,,,1,8,24,12,0,6,6,6,,,,,,,,,4,1.3534328049863689,087,001,2019_Aug_28_1511,MusicAffectPsychophysiology2019,3.0.5,60.28811570186866,
To what extent did the music make you feel ,ACTIVE,30MonoWAV/30MonoT1.wav,2,1,4,13,,,,,1,8,24,12,0,7,7,9,,,,,,,,,2,2.418945654993877,087,001,2019_Aug_28_1511,MusicAffectPsychophysiology2019,3.0.5,60.28811570186866,
To what extent did the music make you feel ,SAD,30MonoWAV/30MonoT1.wav,2,1,4,13,,,,,1,8,24,12,0,8,8,0,,,,,,,,,1,0.7521431570057757,087,001,2019_Aug_28_1511,MusicAffectPsychophysiology2019,3.0.5,60.28811570186866,
To what extent did the music make you feel ,ALERT,30MonoWAV/30MonoT1.wav,2,1,4,13,,,,,1,8,24,12,0,9,9,8,,,,,,,,,1,2.3198674430022947,087,001,2019_Aug_28_1511,MusicAffectPsychophysiology2019,3.0.5,60.28811570186866,
To what extent did the music make you feel ,GUILTY,30MonoWAV/30MonoT1.wav,2,1,4,13,,,,,1,8,24,12,0,10,10,5,,,,,,,,,1,0.6864313349942677,087,001,2019_Aug_28_1511,MusicAffectPsychophysiology2019,3.0.5,60.28811570186866,
To what extent did the music make you feel ,FRUSTRATED,30MonoWAV/30MonoT1.wav,2,1,4,13,,,,,1,8,24,12,0,11,11,3,,,,,,,,,3,2.4741899340006057,087,001,2019_Aug_28_1511,MusicAffectPsychophysiology2019,3.0.5,60.28811570186866,
,,30MonoWAV/30MonoT1.wav,2,1,4,13,,,,,1,8,24,12,,,,,,,,,,,,,,,087,001,2019_Aug_28_1511,MusicAffectPsychophysiology2019,3.0.5,60.28811570186866,
To what extent did the music make you feel ,ANGRY,30MonoWAV/30MonoF3.wav,1,2,2,3,,,,,1,9,25,2,0,0,0,2,,,3,12.751533989008749,2,1.6335538449930027,4,2.5188888169941492,2,3.667717000003904,087,001,2019_Aug_28_1511,MusicAffectPsychophysiology2019,3.0.5,60.28811570186866,
To what extent did the music make you feel ,HAPPY,30MonoWAV/30MonoF3.wav,1,2,2,3,,,,,1,9,25,2,0,1,1,6,,,,,,,,,1,0.7861289989959914,087,001,2019_Aug_28_1511,MusicAffectPsychophysiology2019,3.0.5,60.28811570186866,
To what extent did the music make you feel ,ASHAMED,30MonoWAV/30MonoF3.wav,1,2,2,3,,,,,1,9,25,2,0,2,2,4,,,,,,,,,1,0.902361179003492,087,001,2019_Aug_28_1511,MusicAffectPsychophysiology2019,3.0.5,60.28811570186866,
To what extent did the music make you feel ,ACTIVE,30MonoWAV/30MonoF3.wav,1,2,2,3,,,,,1,9,25,2,0,3,3,9,,,,,,,,,4,1.2525556619802956,087,001,2019_Aug_28_1511,MusicAffectPsychophysiology2019,3.0.5,60.28811570186866,
To what extent did the music make you feel ,SCARED,30MonoWAV/30MonoF3.wav,1,2,2,3,,,,,1,9,25,2,0,4,4,11,,,,,,,,,1,2.269125950988382,087,001,2019_Aug_28_1511,MusicAffectPsychophysiology2019,3.0.5,60.28811570186866,
To what extent did the music make you feel ,FRUSTRATED,30MonoWAV/30MonoF3.wav,1,2,2,3,,,,,1,9,25,2,0,5,5,3,,,,,,,,,1,0.9367614939983469,087,001,2019_Aug_28_1511,MusicAffectPsychophysiology2019,3.0.5,60.28811570186866,
To what extent did the music make you feel ,ALERT,30MonoWAV/30MonoF3.wav,1,2,2,3,,,,,1,9,25,2,0,6,6,8,,,,,,,,,4,1.2864247460092884,087,001,2019_Aug_28_1511,MusicAffectPsychophysiology2019,3.0.5,60.28811570186866,
To what extent did the music make you feel ,GUILTY,30MonoWAV/30MonoF3.wav,1,2,2,3,,,,,1,9,25,2,0,7,7,5,,,,,,,,,1,0.8191649370128289,087,001,2019_Aug_28_1511,MusicAffectPsychophysiology2019,3.0.5,60.28811570186866,
To what extent did the music make you feel ,ANXIOUS ,30MonoWAV/30MonoF3.wav,1,2,2,3,,,,,1,9,25,2,0,8,8,1,,,,,,,,,1,0.952353956992738,087,001,2019_Aug_28_1511,MusicAffectPsychophysiology2019,3.0.5,60.28811570186866,
To what extent did the music make you feel ,EXCITED,30MonoWAV/30MonoF3.wav,1,2,2,3,,,,,1,9,25,2,0,9,9,7,,,,,,,,,1,4.702692630991805,087,001,2019_Aug_28_1511,MusicAffectPsychophysiology2019,3.0.5,60.28811570186866,
To what extent did the music make you feel ,TENDER,30MonoWAV/30MonoF3.wav,1,2,2,3,,,,,1,9,25,2,0,10,10,10,,,,,,,,,1,1.703599499014672,087,001,2019_Aug_28_1511,MusicAffectPsychophysiology2019,3.0.5,60.28811570186866,
To what extent did the music make you feel ,SAD,30MonoWAV/30MonoF3.wav,1,2,2,3,,,,,1,9,25,2,0,11,11,0,,,,,,,,,1,0.769661106984131,087,001,2019_Aug_28_1511,MusicAffectPsychophysiology2019,3.0.5,60.28811570186866,
,,30MonoWAV/30MonoF3.wav,1,2,2,3,,,,,1,9,25,2,,,,,,,,,,,,,,,087,001,2019_Aug_28_1511,MusicAffectPsychophysiology2019,3.0.5,60.28811570186866,
To what extent did the music make you feel ,SAD,30MonoWAV/30MonoF2.wav,1,2,2,2,,,,,1,10,26,1,0,0,0,0,,,1,3.3855714710080065,2,1.460818380001001,2,1.4698640730057377,1,1.7534722089767456,087,001,2019_Aug_28_1511,MusicAffectPsychophysiology2019,3.0.5,60.28811570186866,
To what extent did the music make you feel ,ALERT,30MonoWAV/30MonoF2.wav,1,2,2,2,,,,,1,10,26,1,0,1,1,8,,,,,,,,,4,2.152922001987463,087,001,2019_Aug_28_1511,MusicAffectPsychophysiology2019,3.0.5,60.28811570186866,
To what extent did the music make you feel ,SCARED,30MonoWAV/30MonoF2.wav,1,2,2,2,,,,,1,10,26,1,0,2,2,11,,,,,,,,,4,1.3003667340090033,087,001,2019_Aug_28_1511,MusicAffectPsychophysiology2019,3.0.5,60.28811570186866,
To what extent did the music make you feel ,TENDER,30MonoWAV/30MonoF2.wav,1,2,2,2,,,,,1,10,26,1,0,3,3,10,,,,,,,,,3,1.1662678720022086,087,001,2019_Aug_28_1511,MusicAffectPsychophysiology2019,3.0.5,60.28811570186866,
To what extent did the music make you feel ,ANGRY,30MonoWAV/30MonoF2.wav,1,2,2,2,,,,,1,10,26,1,0,4,4,2,,,,,,,,,1,1.5697009770083241,087,001,2019_Aug_28_1511,MusicAffectPsychophysiology2019,3.0.5,60.28811570186866,
To what extent did the music make you feel ,ASHAMED,30MonoWAV/30MonoF2.wav,1,2,2,2,,,,,1,10,26,1,0,5,5,4,,,,,,,,,1,0.9358410830027424,087,001,2019_Aug_28_1511,MusicAffectPsychophysiology2019,3.0.5,60.28811570186866,
To what extent did the music make you feel ,FRUSTRATED,30MonoWAV/30MonoF2.wav,1,2,2,2,,,,,1,10,26,1,0,6,6,3,,,,,,,,,4,1.303956464980729,087,001,2019_Aug_28_1511,MusicAffectPsychophysiology2019,3.0.5,60.28811570186866,
To what extent did the music make you feel ,ACTIVE,30MonoWAV/30MonoF2.wav,1,2,2,2,,,,,1,10,26,1,0,7,7,9,,,,,,,,,1,1.6688392130017746,087,001,2019_Aug_28_1511,MusicAffectPsychophysiology2019,3.0.5,60.28811570186866,
To what extent did the music make you feel ,EXCITED,30MonoWAV/30MonoF2.wav,1,2,2,2,,,,,1,10,26,1,0,8,8,7,,,,,,,,,1,0.751456917001633,087,001,2019_Aug_28_1511,MusicAffectPsychophysiology2019,3.0.5,60.28811570186866,
To what extent did the music make you feel ,ANXIOUS ,30MonoWAV/30MonoF2.wav,1,2,2,2,,,,,1,10,26,1,0,9,9,1,,,,,,,,,4,1.2194479960016906,087,001,2019_Aug_28_1511,MusicAffectPsychophysiology2019,3.0.5,60.28811570186866,
To what extent did the music make you feel ,GUILTY,30MonoWAV/30MonoF2.wav,1,2,2,2,,,,,1,10,26,1,0,10,10,5,,,,,,,,,1,0.7859985539980698,087,001,2019_Aug_28_1511,MusicAffectPsychophysiology2019,3.0.5,60.28811570186866,
To what extent did the music make you feel ,HAPPY,30MonoWAV/30MonoF2.wav,1,2,2,2,,,,,1,10,26,1,0,11,11,6,,,,,,,,,1,2.3859896609792486,087,001,2019_Aug_28_1511,MusicAffectPsychophysiology2019,3.0.5,60.28811570186866,
,,30MonoWAV/30MonoF2.wav,1,2,2,2,,,,,1,10,26,1,,,,,,,,,,,,,,,087,001,2019_Aug_28_1511,MusicAffectPsychophysiology2019,3.0.5,60.28811570186866,
To what extent did the music make you feel ,EXCITED,30MonoWAV/30MonoS3.wav,1,1,3,11,,,,,1,11,27,10,0,0,0,7,,,1,2.302852239983622,1,1.6991376359947026,2,1.9670250769995619,1,2.235327423986746,087,001,2019_Aug_28_1511,MusicAffectPsychophysiology2019,3.0.5,60.28811570186866,
To what extent did the music make you feel ,SAD,30MonoWAV/30MonoS3.wav,1,1,3,11,,,,,1,11,27,10,0,1,1,0,,,,,,,,,4,2.585912948998157,087,001,2019_Aug_28_1511,MusicAffectPsychophysiology2019,3.0.5,60.28811570186866,
To what extent did the music make you feel ,ANGRY,30MonoWAV/30MonoS3.wav,1,1,3,11,,,,,1,11,27,10,0,2,2,2,,,,,,,,,1,1.1335663750069216,087,001,2019_Aug_28_1511,MusicAffectPsychophysiology2019,3.0.5,60.28811570186866,
To what extent did the music make you feel ,TENDER,30MonoWAV/30MonoS3.wav,1,1,3,11,,,,,1,11,27,10,0,3,3,10,,,,,,,,,4,1.068679415009683,087,001,2019_Aug_28_1511,MusicAffectPsychophysiology2019,3.0.5,60.28811570186866,
To what extent did the music make you feel ,HAPPY,30MonoWAV/30MonoS3.wav,1,1,3,11,,,,,1,11,27,10,0,4,4,6,,,,,,,,,1,0.8522215980046894,087,001,2019_Aug_28_1511,MusicAffectPsychophysiology2019,3.0.5,60.28811570186866,
To what extent did the music make you feel ,SCARED,30MonoWAV/30MonoS3.wav,1,1,3,11,,,,,1,11,27,10,0,5,5,11,,,,,,,,,3,1.436120245984057,087,001,2019_Aug_28_1511,MusicAffectPsychophysiology2019,3.0.5,60.28811570186866,
To what extent did the music make you feel ,GUILTY,30MonoWAV/30MonoS3.wav,1,1,3,11,,,,,1,11,27,10,0,6,6,5,,,,,,,,,2,2.269742314994801,087,001,2019_Aug_28_1511,MusicAffectPsychophysiology2019,3.0.5,60.28811570186866,
To what extent did the music make you feel ,ASHAMED,30MonoWAV/30MonoS3.wav,1,1,3,11,,,,,1,11,27,10,0,7,7,4,,,,,,,,,1,1.4846619729942176,087,001,2019_Aug_28_1511,MusicAffectPsychophysiology2019,3.0.5,60.28811570186866,
To what extent did the music make you feel ,ACTIVE,30MonoWAV/30MonoS3.wav,1,1,3,11,,,,,1,11,27,10,0,8,8,9,,,,,,,,,1,0.8332018060027622,087,001,2019_Aug_28_1511,MusicAffectPsychophysiology2019,3.0.5,60.28811570186866,
To what extent did the music make you feel ,FRUSTRATED,30MonoWAV/30MonoS3.wav,1,1,3,11,,,,,1,11,27,10,0,9,9,3,,,,,,,,,1,0.9194090300006792,087,001,2019_Aug_28_1511,MusicAffectPsychophysiology2019,3.0.5,60.28811570186866,
To what extent did the music make you feel ,ALERT,30MonoWAV/30MonoS3.wav,1,1,3,11,,,,,1,11,27,10,0,10,10,8,,,,,,,,,1,0.7696445930050686,087,001,2019_Aug_28_1511,MusicAffectPsychophysiology2019,3.0.5,60.28811570186866,
To what extent did the music make you feel ,ANXIOUS ,30MonoWAV/30MonoS3.wav,1,1,3,11,,,,,1,11,27,10,0,11,11,1,,,,,,,,,3,1.3693873140146025,087,001,2019_Aug_28_1511,MusicAffectPsychophysiology2019,3.0.5,60.28811570186866,
,,30MonoWAV/30MonoS3.wav,1,1,3,11,,,,,1,11,27,10,,,,,,,,,,,,,,,087,001,2019_Aug_28_1511,MusicAffectPsychophysiology2019,3.0.5,60.28811570186866,
To what extent did the music make you feel ,EXCITED,30MonoWAV/30MonoH3.wav,2,2,1,7,,,,,1,12,28,6,0,0,0,7,,,5,2.019031397998333,5,0.8027001860027667,5,1.435675804008497,5,1.49626394797815,087,001,2019_Aug_28_1511,MusicAffectPsychophysiology2019,3.0.5,60.28811570186866,
To what extent did the music make you feel ,ANXIOUS ,30MonoWAV/30MonoH3.wav,2,2,1,7,,,,,1,12,28,6,0,1,1,1,,,,,,,,,1,0.9663829479832202,087,001,2019_Aug_28_1511,MusicAffectPsychophysiology2019,3.0.5,60.28811570186866,
To what extent did the music make you feel ,SAD,30MonoWAV/30MonoH3.wav,2,2,1,7,,,,,1,12,28,6,0,2,2,0,,,,,,,,,1,0.7189291509857867,087,001,2019_Aug_28_1511,MusicAffectPsychophysiology2019,3.0.5,60.28811570186866,
To what extent did the music make you feel ,ANGRY,30MonoWAV/30MonoH3.wav,2,2,1,7,,,,,1,12,28,6,0,3,3,2,,,,,,,,,1,0.5868710780050606,087,001,2019_Aug_28_1511,MusicAffectPsychophysiology2019,3.0.5,60.28811570186866,
To what extent did the music make you feel ,TENDER,30MonoWAV/30MonoH3.wav,2,2,1,7,,,,,1,12,28,6,0,4,4,10,,,,,,,,,1,0.7364971070201136,087,001,2019_Aug_28_1511,MusicAffectPsychophysiology2019,3.0.5,60.28811570186866,
To what extent did the music make you feel ,HAPPY,30MonoWAV/30MonoH3.wav,2,2,1,7,,,,,1,12,28,6,0,5,5,6,,,,,,,,,5,1.0531275460089091,087,001,2019_Aug_28_1511,MusicAffectPsychophysiology2019,3.0.5,60.28811570186866,
To what extent did the music make you feel ,SCARED,30MonoWAV/30MonoH3.wav,2,2,1,7,,,,,1,12,28,6,0,6,6,11,,,,,,,,,1,0.684856142004719,087,001,2019_Aug_28_1511,MusicAffectPsychophysiology2019,3.0.5,60.28811570186866,
To what extent did the music make you feel ,ALERT,30MonoWAV/30MonoH3.wav,2,2,1,7,,,,,1,12,28,6,0,7,7,8,,,,,,,,,5,1.4353780069795903,087,001,2019_Aug_28_1511,MusicAffectPsychophysiology2019,3.0.5,60.28811570186866,
To what extent did the music make you feel ,ASHAMED,30MonoWAV/30MonoH3.wav,2,2,1,7,,,,,1,12,28,6,0,8,8,4,,,,,,,,,1,0.6699988650216255,087,001,2019_Aug_28_1511,MusicAffectPsychophysiology2019,3.0.5,60.28811570186866,
To what extent did the music make you feel ,FRUSTRATED,30MonoWAV/30MonoH3.wav,2,2,1,7,,,,,1,12,28,6,0,9,9,3,,,,,,,,,1,0.5126868810039014,087,001,2019_Aug_28_1511,MusicAffectPsychophysiology2019,3.0.5,60.28811570186866,
To what extent did the music make you feel ,GUILTY,30MonoWAV/30MonoH3.wav,2,2,1,7,,,,,1,12,28,6,0,10,10,5,,,,,,,,,1,0.6193570699833799,087,001,2019_Aug_28_1511,MusicAffectPsychophysiology2019,3.0.5,60.28811570186866,
To what extent did the music make you feel ,ACTIVE,30MonoWAV/30MonoH3.wav,2,2,1,7,,,,,1,12,28,6,0,11,11,9,,,,,,,,,4,1.1527372209820896,087,001,2019_Aug_28_1511,MusicAffectPsychophysiology2019,3.0.5,60.28811570186866,
,,30MonoWAV/30MonoH3.wav,2,2,1,7,,,,,1,12,28,6,,,,,,,,,,,,,,,087,001,2019_Aug_28_1511,MusicAffectPsychophysiology2019,3.0.5,60.28811570186866,
To what extent did the music make you feel ,ASHAMED,30MonoWAV/30MonoT4.wav,2,1,4,16,,,,,1,13,29,15,0,0,0,4,,,2,3.5194043400115333,4,1.7349359120125882,5,1.95234819399775,1,1.4856363080034498,087,001,2019_Aug_28_1511,MusicAffectPsychophysiology2019,3.0.5,60.28811570186866,
To what extent did the music make you feel ,HAPPY,30MonoWAV/30MonoT4.wav,2,1,4,16,,,,,1,13,29,15,0,1,1,6,,,,,,,,,4,1.6527628119802102,087,001,2019_Aug_28_1511,MusicAffectPsychophysiology2019,3.0.5,60.28811570186866,
To what extent did the music make you feel ,GUILTY,30MonoWAV/30MonoT4.wav,2,1,4,16,,,,,1,13,29,15,0,2,2,5,,,,,,,,,1,0.7871797269908711,087,001,2019_Aug_28_1511,MusicAffectPsychophysiology2019,3.0.5,60.28811570186866,
To what extent did the music make you feel ,SCARED,30MonoWAV/30MonoT4.wav,2,1,4,16,,,,,1,13,29,15,0,3,3,11,,,,,,,,,1,0.5524644890101627,087,001,2019_Aug_28_1511,MusicAffectPsychophysiology2019,3.0.5,60.28811570186866,
To what extent did the music make you feel ,ANXIOUS ,30MonoWAV/30MonoT4.wav,2,1,4,16,,,,,1,13,29,15,0,4,4,1,,,,,,,,,1,0.6694195770251099,087,001,2019_Aug_28_1511,MusicAffectPsychophysiology2019,3.0.5,60.28811570186866,
To what extent did the music make you feel ,EXCITED,30MonoWAV/30MonoT4.wav,2,1,4,16,,,,,1,13,29,15,0,5,5,7,,,,,,,,,2,1.569569687009789,087,001,2019_Aug_28_1511,MusicAffectPsychophysiology2019,3.0.5,60.28811570186866,
To what extent did the music make you feel ,FRUSTRATED,30MonoWAV/30MonoT4.wav,2,1,4,16,,,,,1,13,29,15,0,6,6,3,,,,,,,,,1,1.3373622210056055,087,001,2019_Aug_28_1511,MusicAffectPsychophysiology2019,3.0.5,60.28811570186866,
To what extent did the music make you feel ,ANGRY,30MonoWAV/30MonoT4.wav,2,1,4,16,,,,,1,13,29,15,0,7,7,2,,,,,,,,,1,0.7510427529923618,087,001,2019_Aug_28_1511,MusicAffectPsychophysiology2019,3.0.5,60.28811570186866,
To what extent did the music make you feel ,ACTIVE,30MonoWAV/30MonoT4.wav,2,1,4,16,,,,,1,13,29,15,0,8,8,9,,,,,,,,,1,0.9532136299822014,087,001,2019_Aug_28_1511,MusicAffectPsychophysiology2019,3.0.5,60.28811570186866,
To what extent did the music make you feel ,ALERT,30MonoWAV/30MonoT4.wav,2,1,4,16,,,,,1,13,29,15,0,9,9,8,,,,,,,,,1,1.2517965540173464,087,001,2019_Aug_28_1511,MusicAffectPsychophysiology2019,3.0.5,60.28811570186866,
To what extent did the music make you feel ,TENDER,30MonoWAV/30MonoT4.wav,2,1,4,16,,,,,1,13,29,15,0,10,10,10,,,,,,,,,4,1.2858016259851865,087,001,2019_Aug_28_1511,MusicAffectPsychophysiology2019,3.0.5,60.28811570186866,
To what extent did the music make you feel ,SAD,30MonoWAV/30MonoT4.wav,2,1,4,16,,,,,1,13,29,15,0,11,11,0,,,,,,,,,1,1.6353843990073074,087,001,2019_Aug_28_1511,MusicAffectPsychophysiology2019,3.0.5,60.28811570186866,
,,30MonoWAV/30MonoT4.wav,2,1,4,16,,,,,1,13,29,15,,,,,,,,,,,,,,,087,001,2019_Aug_28_1511,MusicAffectPsychophysiology2019,3.0.5,60.28811570186866,
To what extent did the music make you feel ,ACTIVE,30MonoWAV/30MonoF1.wav,1,2,2,1,,,,,1,14,30,0,0,0,0,9,,,3,3.1362147880136035,3,1.2696607440011576,3,1.318649960012408,4,3.0506654570053797,087,001,2019_Aug_28_1511,MusicAffectPsychophysiology2019,3.0.5,60.28811570186866,
To what extent did the music make you feel ,ANGRY,30MonoWAV/30MonoF1.wav,1,2,2,1,,,,,1,14,30,0,0,1,1,2,,,,,,,,,1,0.8513342050136998,087,001,2019_Aug_28_1511,MusicAffectPsychophysiology2019,3.0.5,60.28811570186866,
To what extent did the music make you feel ,ALERT,30MonoWAV/30MonoF1.wav,1,2,2,1,,,,,1,14,30,0,0,2,2,8,,,,,,,,,4,1.5684568989963736,087,001,2019_Aug_28_1511,MusicAffectPsychophysiology2019,3.0.5,60.28811570186866,
To what extent did the music make you feel ,GUILTY,30MonoWAV/30MonoF1.wav,1,2,2,1,,,,,1,14,30,0,0,3,3,5,,,,,,,,,1,0.7851278799935244,087,001,2019_Aug_28_1511,MusicAffectPsychophysiology2019,3.0.5,60.28811570186866,
To what extent did the music make you feel ,EXCITED,30MonoWAV/30MonoF1.wav,1,2,2,1,,,,,1,14,30,0,0,4,4,7,,,,,,,,,3,2.0675629549950827,087,001,2019_Aug_28_1511,MusicAffectPsychophysiology2019,3.0.5,60.28811570186866,
To what extent did the music make you feel ,ANXIOUS ,30MonoWAV/30MonoF1.wav,1,2,2,1,,,,,1,14,30,0,0,5,5,1,,,,,,,,,1,1.5020260839955881,087,001,2019_Aug_28_1511,MusicAffectPsychophysiology2019,3.0.5,60.28811570186866,
To what extent did the music make you feel ,FRUSTRATED,30MonoWAV/30MonoF1.wav,1,2,2,1,,,,,1,14,30,0,0,6,6,3,,,,,,,,,1,0.6849237800051924,087,001,2019_Aug_28_1511,MusicAffectPsychophysiology2019,3.0.5,60.28811570186866,
To what extent did the music make you feel ,TENDER,30MonoWAV/30MonoF1.wav,1,2,2,1,,,,,1,14,30,0,0,7,7,10,,,,,,,,,1,1.0363055669877212,087,001,2019_Aug_28_1511,MusicAffectPsychophysiology2019,3.0.5,60.28811570186866,
To what extent did the music make you feel ,SAD,30MonoWAV/30MonoF1.wav,1,2,2,1,,,,,1,14,30,0,0,8,8,0,,,,,,,,,1,0.8536709430045448,087,001,2019_Aug_28_1511,MusicAffectPsychophysiology2019,3.0.5,60.28811570186866,
To what extent did the music make you feel ,ASHAMED,30MonoWAV/30MonoF1.wav,1,2,2,1,,,,,1,14,30,0,0,9,9,4,,,,,,,,,1,0.6675363760150503,087,001,2019_Aug_28_1511,MusicAffectPsychophysiology2019,3.0.5,60.28811570186866,
To what extent did the music make you feel ,SCARED,30MonoWAV/30MonoF1.wav,1,2,2,1,,,,,1,14,30,0,0,10,10,11,,,,,,,,,1,0.6335084570164327,087,001,2019_Aug_28_1511,MusicAffectPsychophysiology2019,3.0.5,60.28811570186866,
To what extent did the music make you feel ,HAPPY,30MonoWAV/30MonoF1.wav,1,2,2,1,,,,,1,14,30,0,0,11,11,6,,,,,,,,,1,1.319514025002718,087,001,2019_Aug_28_1511,MusicAffectPsychophysiology2019,3.0.5,60.28811570186866,
,,30MonoWAV/30MonoF1.wav,1,2,2,1,,,,,1,14,30,0,,,,,,,,,,,,,,,087,001,2019_Aug_28_1511,MusicAffectPsychophysiology2019,3.0.5,60.28811570186866,
To what extent did the music make you feel ,HAPPY,30MonoWAV/30MonoH1.wav,2,2,1,5,,,,,1,15,31,4,0,0,0,6,,,3,3.219224552012747,4,1.5183564879989717,4,1.1671401989879087,2,2.1023617060272954,087,001,2019_Aug_28_1511,MusicAffectPsychophysiology2019,3.0.5,60.28811570186866,
To what extent did the music make you feel ,ACTIVE,30MonoWAV/30MonoH1.wav,2,2,1,5,,,,,1,15,31,4,0,1,1,9,,,,,,,,,4,1.6028216730046552,087,001,2019_Aug_28_1511,MusicAffectPsychophysiology2019,3.0.5,60.28811570186866,
To what extent did the music make you feel ,SAD,30MonoWAV/30MonoH1.wav,2,2,1,5,,,,,1,15,31,4,0,2,2,0,,,,,,,,,1,0.9188504659978207,087,001,2019_Aug_28_1511,MusicAffectPsychophysiology2019,3.0.5,60.28811570186866,
To what extent did the music make you feel ,ANXIOUS ,30MonoWAV/30MonoH1.wav,2,2,1,5,,,,,1,15,31,4,0,3,3,1,,,,,,,,,1,0.6524019110074732,087,001,2019_Aug_28_1511,MusicAffectPsychophysiology2019,3.0.5,60.28811570186866,
To what extent did the music make you feel ,ALERT,30MonoWAV/30MonoH1.wav,2,2,1,5,,,,,1,15,31,4,0,4,4,8,,,,,,,,,2,2.202635609981371,087,001,2019_Aug_28_1511,MusicAffectPsychophysiology2019,3.0.5,60.28811570186866,
To what extent did the music make you feel ,GUILTY,30MonoWAV/30MonoH1.wav,2,2,1,5,,,,,1,15,31,4,0,5,5,5,,,,,,,,,1,0.6499274410016369,087,001,2019_Aug_28_1511,MusicAffectPsychophysiology2019,3.0.5,60.28811570186866,
To what extent did the music make you feel ,ASHAMED,30MonoWAV/30MonoH1.wav,2,2,1,5,,,,,1,15,31,4,0,6,6,4,,,,,,,,,1,0.6691740929963998,087,001,2019_Aug_28_1511,MusicAffectPsychophysiology2019,3.0.5,60.28811570186866,
To what extent did the music make you feel ,FRUSTRATED,30MonoWAV/30MonoH1.wav,2,2,1,5,,,,,1,15,31,4,0,7,7,3,,,,,,,,,1,1.1748035679920577,087,001,2019_Aug_28_1511,MusicAffectPsychophysiology2019,3.0.5,60.28811570186866,
To what extent did the music make you feel ,ANGRY,30MonoWAV/30MonoH1.wav,2,2,1,5,,,,,1,15,31,4,0,8,8,2,,,,,,,,,1,1.884132220002357,087,001,2019_Aug_28_1511,MusicAffectPsychophysiology2019,3.0.5,60.28811570186866,
To what extent did the music make you feel ,TENDER,30MonoWAV/30MonoH1.wav,2,2,1,5,,,,,1,15,31,4,0,9,9,10,,,,,,,,,2,1.5850703320174944,087,001,2019_Aug_28_1511,MusicAffectPsychophysiology2019,3.0.5,60.28811570186866,
To what extent did the music make you feel ,SCARED,30MonoWAV/30MonoH1.wav,2,2,1,5,,,,,1,15,31,4,0,10,10,11,,,,,,,,,1,0.7194986119866371,087,001,2019_Aug_28_1511,MusicAffectPsychophysiology2019,3.0.5,60.28811570186866,
To what extent did the music make you feel ,EXCITED,30MonoWAV/30MonoH1.wav,2,2,1,5,,,,,1,15,31,4,0,11,11,7,,,,,,,,,3,1.6697391079796944,087,001,2019_Aug_28_1511,MusicAffectPsychophysiology2019,3.0.5,60.28811570186866,
,,30MonoWAV/30MonoH1.wav,2,2,1,5,,,,,1,15,31,4,,,,,,,,,,,,,,,087,001,2019_Aug_28_1511,MusicAffectPsychophysiology2019,3.0.5,60.28811570186866,
