Instruction,Word,song,valence,arousal,affectcat,songmark,pracwords.thisRepN,pracwords.thisTrialN,pracwords.thisN,pracwords.thisIndex,songtrials.thisRepN,songtrials.thisTrialN,songtrials.thisN,songtrials.thisIndex,words.thisRepN,words.thisTrialN,words.thisN,words.thisIndex,begin.keys,begin.rt,arousalkey.keys,arousalkey.rt,valencekey.keys,valencekey.rt,likekey.keys,likekey.rt,WordResponse.keys,WordResponse.rt,participant,session,date,expName,psychopyVersion,frameRate,
,,,,,,,,,,,,,,,,,,,return,1.886218503001146,,,,,,,,,088,001,2019_Aug_28_1625,MusicAffectPsychophysiology2019,3.0.5,59.64677348541479,
,,,,,,,,,,,,,,,,,,,,,2,4.439889156987192,,,,,,,088,001,2019_Aug_28_1625,MusicAffectPsychophysiology2019,3.0.5,59.64677348541479,
,,,,,,,,,,,,,,,,,,,,,,,2,3.253097140986938,,,,,088,001,2019_Aug_28_1625,MusicAffectPsychophysiology2019,3.0.5,59.64677348541479,
,,,,,,,,,,,,,,,,,,,,,,,,,2,2.1023483460012358,,,088,001,2019_Aug_28_1625,MusicAffectPsychophysiology2019,3.0.5,59.64677348541479,
To what extent did the music make you feel ,SAD,,,,,,0,0,0,0,,,,,,,,,,,,,,,,,2,2.696150611009216,088,001,2019_Aug_28_1625,MusicAffectPsychophysiology2019,3.0.5,59.64677348541479,
To what extent did the music make you feel ,FRUSTRATED,,,,,,0,1,1,3,,,,,,,,,,,,,,,,,1,0.9608482790063135,088,001,2019_Aug_28_1625,MusicAffectPsychophysiology2019,3.0.5,59.64677348541479,
To what extent did the music make you feel ,EXCITED,,,,,,0,2,2,7,,,,,,,,,,,,,,,,,1,0.9787888280116022,088,001,2019_Aug_28_1625,MusicAffectPsychophysiology2019,3.0.5,59.64677348541479,
To what extent did the music make you feel ,ACTIVE,,,,,,0,3,3,9,,,,,,,,,,,,,,,,,1,0.8190894179861061,088,001,2019_Aug_28_1625,MusicAffectPsychophysiology2019,3.0.5,59.64677348541479,
To what extent did the music make you feel ,TENDER,,,,,,0,4,4,10,,,,,,,,,,,,,,,,,1,1.0855621140217409,088,001,2019_Aug_28_1625,MusicAffectPsychophysiology2019,3.0.5,59.64677348541479,
To what extent did the music make you feel ,ALERT,,,,,,0,5,5,8,,,,,,,,,,,,,,,,,1,0.6523541039787233,088,001,2019_Aug_28_1625,MusicAffectPsychophysiology2019,3.0.5,59.64677348541479,
To what extent did the music make you feel ,HAPPY,,,,,,0,6,6,6,,,,,,,,,,,,,,,,,1,1.0869184830226004,088,001,2019_Aug_28_1625,MusicAffectPsychophysiology2019,3.0.5,59.64677348541479,
To what extent did the music make you feel ,ANGRY,,,,,,0,7,7,2,,,,,,,,,,,,,,,,,1,0.8188323930080514,088,001,2019_Aug_28_1625,MusicAffectPsychophysiology2019,3.0.5,59.64677348541479,
To what extent did the music make you feel ,ANXIOUS ,,,,,,0,8,8,1,,,,,,,,,,,,,,,,,1,1.6835229199787136,088,001,2019_Aug_28_1625,MusicAffectPsychophysiology2019,3.0.5,59.64677348541479,
To what extent did the music make you feel ,SCARED,,,,,,0,9,9,11,,,,,,,,,,,,,,,,,1,1.519019035011297,088,001,2019_Aug_28_1625,MusicAffectPsychophysiology2019,3.0.5,59.64677348541479,
To what extent did the music make you feel ,ASHAMED,,,,,,0,10,10,4,,,,,,,,,,,,,,,,,1,1.0532787310075946,088,001,2019_Aug_28_1625,MusicAffectPsychophysiology2019,3.0.5,59.64677348541479,
To what extent did the music make you feel ,GUILTY,,,,,,0,11,11,5,,,,,,,,,,,,,,,,,2,4.052365083975019,088,001,2019_Aug_28_1625,MusicAffectPsychophysiology2019,3.0.5,59.64677348541479,
To what extent did the music make you feel ,GUILTY,30MonoWAV/30MonoS2.wav,1,1,3,10,,,,,0,0,0,9,0,0,0,5,,,3,12.134462558984524,1,3.219497866986785,1,1.9024297339783516,2,3.7702053550165147,088,001,2019_Aug_28_1625,MusicAffectPsychophysiology2019,3.0.5,59.64677348541479,
To what extent did the music make you feel ,ACTIVE,30MonoWAV/30MonoS2.wav,1,1,3,10,,,,,0,0,0,9,0,1,1,9,,,,,,,,,1,0.8704059830051847,088,001,2019_Aug_28_1625,MusicAffectPsychophysiology2019,3.0.5,59.64677348541479,
To what extent did the music make you feel ,TENDER,30MonoWAV/30MonoS2.wav,1,1,3,10,,,,,0,0,0,9,0,2,2,10,,,,,,,,,3,1.420863373001339,088,001,2019_Aug_28_1625,MusicAffectPsychophysiology2019,3.0.5,59.64677348541479,
To what extent did the music make you feel ,FRUSTRATED,30MonoWAV/30MonoS2.wav,1,1,3,10,,,,,0,0,0,9,0,3,3,3,,,,,,,,,4,1.7371191370184533,088,001,2019_Aug_28_1625,MusicAffectPsychophysiology2019,3.0.5,59.64677348541479,
To what extent did the music make you feel ,ALERT,30MonoWAV/30MonoS2.wav,1,1,3,10,,,,,0,0,0,9,0,4,4,8,,,,,,,,,1,0.968906211986905,088,001,2019_Aug_28_1625,MusicAffectPsychophysiology2019,3.0.5,59.64677348541479,
To what extent did the music make you feel ,ASHAMED,30MonoWAV/30MonoS2.wav,1,1,3,10,,,,,0,0,0,9,0,5,5,4,,,,,,,,,3,1.1194949470227584,088,001,2019_Aug_28_1625,MusicAffectPsychophysiology2019,3.0.5,59.64677348541479,
To what extent did the music make you feel ,SAD,30MonoWAV/30MonoS2.wav,1,1,3,10,,,,,0,0,0,9,0,6,6,0,,,,,,,,,2,1.0036012250056956,088,001,2019_Aug_28_1625,MusicAffectPsychophysiology2019,3.0.5,59.64677348541479,
To what extent did the music make you feel ,EXCITED,30MonoWAV/30MonoS2.wav,1,1,3,10,,,,,0,0,0,9,0,7,7,7,,,,,,,,,1,0.7990157349850051,088,001,2019_Aug_28_1625,MusicAffectPsychophysiology2019,3.0.5,59.64677348541479,
To what extent did the music make you feel ,ANXIOUS ,30MonoWAV/30MonoS2.wav,1,1,3,10,,,,,0,0,0,9,0,8,8,1,,,,,,,,,3,2.653455916995881,088,001,2019_Aug_28_1625,MusicAffectPsychophysiology2019,3.0.5,59.64677348541479,
To what extent did the music make you feel ,ANGRY,30MonoWAV/30MonoS2.wav,1,1,3,10,,,,,0,0,0,9,0,9,9,2,,,,,,,,,1,1.3182056980149355,088,001,2019_Aug_28_1625,MusicAffectPsychophysiology2019,3.0.5,59.64677348541479,
To what extent did the music make you feel ,HAPPY,30MonoWAV/30MonoS2.wav,1,1,3,10,,,,,0,0,0,9,0,10,10,6,,,,,,,,,1,0.653203964990098,088,001,2019_Aug_28_1625,MusicAffectPsychophysiology2019,3.0.5,59.64677348541479,
To what extent did the music make you feel ,SCARED,30MonoWAV/30MonoS2.wav,1,1,3,10,,,,,0,0,0,9,0,11,11,11,,,,,,,,,1,1.602548171998933,088,001,2019_Aug_28_1625,MusicAffectPsychophysiology2019,3.0.5,59.64677348541479,
,,30MonoWAV/30MonoS2.wav,1,1,3,10,,,,,0,0,0,9,,,,,,,,,,,,,,,088,001,2019_Aug_28_1625,MusicAffectPsychophysiology2019,3.0.5,59.64677348541479,
To what extent did the music make you feel ,EXCITED,30MonoWAV/30MonoH2.wav,2,2,1,6,,,,,0,1,1,5,0,0,0,7,,,2,3.020018039009301,2,3.0021654370066244,1,2.01999050800805,1,3.0187326110026333,088,001,2019_Aug_28_1625,MusicAffectPsychophysiology2019,3.0.5,59.64677348541479,
To what extent did the music make you feel ,SAD,30MonoWAV/30MonoH2.wav,2,2,1,6,,,,,0,1,1,5,0,1,1,0,,,,,,,,,1,1.219765070010908,088,001,2019_Aug_28_1625,MusicAffectPsychophysiology2019,3.0.5,59.64677348541479,
To what extent did the music make you feel ,HAPPY,30MonoWAV/30MonoH2.wav,2,2,1,6,,,,,0,1,1,5,0,2,2,6,,,,,,,,,1,0.9866598559892736,088,001,2019_Aug_28_1625,MusicAffectPsychophysiology2019,3.0.5,59.64677348541479,
To what extent did the music make you feel ,ANGRY,30MonoWAV/30MonoH2.wav,2,2,1,6,,,,,0,1,1,5,0,3,3,2,,,,,,,,,1,1.1526061930053402,088,001,2019_Aug_28_1625,MusicAffectPsychophysiology2019,3.0.5,59.64677348541479,
To what extent did the music make you feel ,ANXIOUS ,30MonoWAV/30MonoH2.wav,2,2,1,6,,,,,0,1,1,5,0,4,4,1,,,,,,,,,1,1.3693948069994804,088,001,2019_Aug_28_1625,MusicAffectPsychophysiology2019,3.0.5,59.64677348541479,
To what extent did the music make you feel ,ALERT,30MonoWAV/30MonoH2.wav,2,2,1,6,,,,,0,1,1,5,0,5,5,8,,,,,,,,,2,1.4840793570037931,088,001,2019_Aug_28_1625,MusicAffectPsychophysiology2019,3.0.5,59.64677348541479,
To what extent did the music make you feel ,TENDER,30MonoWAV/30MonoH2.wav,2,2,1,6,,,,,0,1,1,5,0,6,6,10,,,,,,,,,1,1.5692948150099255,088,001,2019_Aug_28_1625,MusicAffectPsychophysiology2019,3.0.5,59.64677348541479,
To what extent did the music make you feel ,ASHAMED,30MonoWAV/30MonoH2.wav,2,2,1,6,,,,,0,1,1,5,0,7,7,4,,,,,,,,,1,0.8033534619899001,088,001,2019_Aug_28_1625,MusicAffectPsychophysiology2019,3.0.5,59.64677348541479,
To what extent did the music make you feel ,FRUSTRATED,30MonoWAV/30MonoH2.wav,2,2,1,6,,,,,0,1,1,5,0,8,8,3,,,,,,,,,1,1.0170638140116353,088,001,2019_Aug_28_1625,MusicAffectPsychophysiology2019,3.0.5,59.64677348541479,
To what extent did the music make you feel ,SCARED,30MonoWAV/30MonoH2.wav,2,2,1,6,,,,,0,1,1,5,0,9,9,11,,,,,,,,,1,0.8532460950082168,088,001,2019_Aug_28_1625,MusicAffectPsychophysiology2019,3.0.5,59.64677348541479,
To what extent did the music make you feel ,GUILTY,30MonoWAV/30MonoH2.wav,2,2,1,6,,,,,0,1,1,5,0,10,10,5,,,,,,,,,1,0.6850409210019279,088,001,2019_Aug_28_1625,MusicAffectPsychophysiology2019,3.0.5,59.64677348541479,
To what extent did the music make you feel ,ACTIVE,30MonoWAV/30MonoH2.wav,2,2,1,6,,,,,0,1,1,5,0,11,11,9,,,,,,,,,3,1.016898760019103,088,001,2019_Aug_28_1625,MusicAffectPsychophysiology2019,3.0.5,59.64677348541479,
,,30MonoWAV/30MonoH2.wav,2,2,1,6,,,,,0,1,1,5,,,,,,,,,,,,,,,088,001,2019_Aug_28_1625,MusicAffectPsychophysiology2019,3.0.5,59.64677348541479,
To what extent did the music make you feel ,FRUSTRATED,30MonoWAV/30MonoT4.wav,2,1,4,16,,,,,0,2,2,15,0,0,0,3,,,3,6.735915819008369,1,2.1862353880133014,1,1.5185692129889503,2,1.773949869995704,088,001,2019_Aug_28_1625,MusicAffectPsychophysiology2019,3.0.5,59.64677348541479,
To what extent did the music make you feel ,ASHAMED,30MonoWAV/30MonoT4.wav,2,1,4,16,,,,,0,2,2,15,0,1,1,4,,,,,,,,,1,2.553268344985554,088,001,2019_Aug_28_1625,MusicAffectPsychophysiology2019,3.0.5,59.64677348541479,
To what extent did the music make you feel ,ACTIVE,30MonoWAV/30MonoT4.wav,2,1,4,16,,,,,0,2,2,15,0,2,2,9,,,,,,,,,1,0.9347721740195993,088,001,2019_Aug_28_1625,MusicAffectPsychophysiology2019,3.0.5,59.64677348541479,
To what extent did the music make you feel ,ANGRY,30MonoWAV/30MonoT4.wav,2,1,4,16,,,,,0,2,2,15,0,3,3,2,,,,,,,,,2,0.9856267069990281,088,001,2019_Aug_28_1625,MusicAffectPsychophysiology2019,3.0.5,59.64677348541479,
To what extent did the music make you feel ,TENDER,30MonoWAV/30MonoT4.wav,2,1,4,16,,,,,0,2,2,15,0,4,4,10,,,,,,,,,3,0.8522227159992326,088,001,2019_Aug_28_1625,MusicAffectPsychophysiology2019,3.0.5,59.64677348541479,
To what extent did the music make you feel ,EXCITED,30MonoWAV/30MonoT4.wav,2,1,4,16,,,,,0,2,2,15,0,5,5,7,,,,,,,,,1,0.9188375090016052,088,001,2019_Aug_28_1625,MusicAffectPsychophysiology2019,3.0.5,59.64677348541479,
To what extent did the music make you feel ,ANXIOUS ,30MonoWAV/30MonoT4.wav,2,1,4,16,,,,,0,2,2,15,0,6,6,1,,,,,,,,,2,2.3690926499839406,088,001,2019_Aug_28_1625,MusicAffectPsychophysiology2019,3.0.5,59.64677348541479,
To what extent did the music make you feel ,ALERT,30MonoWAV/30MonoT4.wav,2,1,4,16,,,,,0,2,2,15,0,7,7,8,,,,,,,,,1,4.936719535005977,088,001,2019_Aug_28_1625,MusicAffectPsychophysiology2019,3.0.5,59.64677348541479,
To what extent did the music make you feel ,HAPPY,30MonoWAV/30MonoT4.wav,2,1,4,16,,,,,0,2,2,15,0,8,8,6,,,,,,,,,1,0.5686793150089215,088,001,2019_Aug_28_1625,MusicAffectPsychophysiology2019,3.0.5,59.64677348541479,
To what extent did the music make you feel ,SAD,30MonoWAV/30MonoT4.wav,2,1,4,16,,,,,0,2,2,15,0,9,9,0,,,,,,,,,2,1.1196861310163513,088,001,2019_Aug_28_1625,MusicAffectPsychophysiology2019,3.0.5,59.64677348541479,
To what extent did the music make you feel ,GUILTY,30MonoWAV/30MonoT4.wav,2,1,4,16,,,,,0,2,2,15,0,10,10,5,,,,,,,,,2,1.317470982001396,088,001,2019_Aug_28_1625,MusicAffectPsychophysiology2019,3.0.5,59.64677348541479,
To what extent did the music make you feel ,SCARED,30MonoWAV/30MonoT4.wav,2,1,4,16,,,,,0,2,2,15,0,11,11,11,,,,,,,,,1,1.1691495920240413,088,001,2019_Aug_28_1625,MusicAffectPsychophysiology2019,3.0.5,59.64677348541479,
,,30MonoWAV/30MonoT4.wav,2,1,4,16,,,,,0,2,2,15,,,,,,,,,,,,,,,088,001,2019_Aug_28_1625,MusicAffectPsychophysiology2019,3.0.5,59.64677348541479,
To what extent did the music make you feel ,ANXIOUS ,30MonoWAV/30MonoT2.wav,2,1,4,14,,,,,0,3,3,13,0,0,0,1,,,3,4.368174647999695,2,2.202698301000055,3,2.1189733700011857,1,5.202018968004268,088,001,2019_Aug_28_1625,MusicAffectPsychophysiology2019,3.0.5,59.64677348541479,
To what extent did the music make you feel ,GUILTY,30MonoWAV/30MonoT2.wav,2,1,4,14,,,,,0,3,3,13,0,1,1,5,,,,,,,,,2,1.485911557014333,088,001,2019_Aug_28_1625,MusicAffectPsychophysiology2019,3.0.5,59.64677348541479,
To what extent did the music make you feel ,ASHAMED,30MonoWAV/30MonoT2.wav,2,1,4,14,,,,,0,3,3,13,0,2,2,4,,,,,,,,,2,1.0357797390024643,088,001,2019_Aug_28_1625,MusicAffectPsychophysiology2019,3.0.5,59.64677348541479,
To what extent did the music make you feel ,TENDER,30MonoWAV/30MonoT2.wav,2,1,4,14,,,,,0,3,3,13,0,3,3,10,,,,,,,,,2,1.036226586002158,088,001,2019_Aug_28_1625,MusicAffectPsychophysiology2019,3.0.5,59.64677348541479,
To what extent did the music make you feel ,EXCITED,30MonoWAV/30MonoT2.wav,2,1,4,14,,,,,0,3,3,13,0,4,4,7,,,,,,,,,1,0.9194548910018057,088,001,2019_Aug_28_1625,MusicAffectPsychophysiology2019,3.0.5,59.64677348541479,
To what extent did the music make you feel ,ACTIVE,30MonoWAV/30MonoT2.wav,2,1,4,14,,,,,0,3,3,13,0,5,5,9,,,,,,,,,1,0.9189647379971575,088,001,2019_Aug_28_1625,MusicAffectPsychophysiology2019,3.0.5,59.64677348541479,
To what extent did the music make you feel ,ALERT,30MonoWAV/30MonoT2.wav,2,1,4,14,,,,,0,3,3,13,0,6,6,8,,,,,,,,,1,1.1034454499895219,088,001,2019_Aug_28_1625,MusicAffectPsychophysiology2019,3.0.5,59.64677348541479,
To what extent did the music make you feel ,FRUSTRATED,30MonoWAV/30MonoT2.wav,2,1,4,14,,,,,0,3,3,13,0,7,7,3,,,,,,,,,3,1.7496833360055462,088,001,2019_Aug_28_1625,MusicAffectPsychophysiology2019,3.0.5,59.64677348541479,
To what extent did the music make you feel ,ANGRY,30MonoWAV/30MonoT2.wav,2,1,4,14,,,,,0,3,3,13,0,8,8,2,,,,,,,,,1,0.9706035300041549,088,001,2019_Aug_28_1625,MusicAffectPsychophysiology2019,3.0.5,59.64677348541479,
To what extent did the music make you feel ,SCARED,30MonoWAV/30MonoT2.wav,2,1,4,14,,,,,0,3,3,13,0,9,9,11,,,,,,,,,1,1.1189991470018867,088,001,2019_Aug_28_1625,MusicAffectPsychophysiology2019,3.0.5,59.64677348541479,
To what extent did the music make you feel ,HAPPY,30MonoWAV/30MonoT2.wav,2,1,4,14,,,,,0,3,3,13,0,10,10,6,,,,,,,,,1,0.7700753799872473,088,001,2019_Aug_28_1625,MusicAffectPsychophysiology2019,3.0.5,59.64677348541479,
To what extent did the music make you feel ,SAD,30MonoWAV/30MonoT2.wav,2,1,4,14,,,,,0,3,3,13,0,11,11,0,,,,,,,,,3,1.7165718169999309,088,001,2019_Aug_28_1625,MusicAffectPsychophysiology2019,3.0.5,59.64677348541479,
,,30MonoWAV/30MonoT2.wav,2,1,4,14,,,,,0,3,3,13,,,,,,,,,,,,,,,088,001,2019_Aug_28_1625,MusicAffectPsychophysiology2019,3.0.5,59.64677348541479,
To what extent did the music make you feel ,ANXIOUS ,30MonoWAV/30MonoS1.wav,1,1,3,9,,,,,0,4,4,8,0,0,0,1,,,2,2.2028668980055954,1,1.7865334629896097,1,1.3530744170129765,3,1.5095151069981512,088,001,2019_Aug_28_1625,MusicAffectPsychophysiology2019,3.0.5,59.64677348541479,
To what extent did the music make you feel ,SAD,30MonoWAV/30MonoS1.wav,1,1,3,9,,,,,0,4,4,8,0,1,1,0,,,,,,,,,2,2.0185394999862183,088,001,2019_Aug_28_1625,MusicAffectPsychophysiology2019,3.0.5,59.64677348541479,
To what extent did the music make you feel ,GUILTY,30MonoWAV/30MonoS1.wav,1,1,3,9,,,,,0,4,4,8,0,2,2,5,,,,,,,,,3,2.119781269982923,088,001,2019_Aug_28_1625,MusicAffectPsychophysiology2019,3.0.5,59.64677348541479,
To what extent did the music make you feel ,EXCITED,30MonoWAV/30MonoS1.wav,1,1,3,9,,,,,0,4,4,8,0,3,3,7,,,,,,,,,1,1.619232416007435,088,001,2019_Aug_28_1625,MusicAffectPsychophysiology2019,3.0.5,59.64677348541479,
To what extent did the music make you feel ,FRUSTRATED,30MonoWAV/30MonoS1.wav,1,1,3,9,,,,,0,4,4,8,0,4,4,3,,,,,,,,,4,1.1583198810112663,088,001,2019_Aug_28_1625,MusicAffectPsychophysiology2019,3.0.5,59.64677348541479,
To what extent did the music make you feel ,TENDER,30MonoWAV/30MonoS1.wav,1,1,3,9,,,,,0,4,4,8,0,5,5,10,,,,,,,,,3,1.5031535060261376,088,001,2019_Aug_28_1625,MusicAffectPsychophysiology2019,3.0.5,59.64677348541479,
To what extent did the music make you feel ,SCARED,30MonoWAV/30MonoS1.wav,1,1,3,9,,,,,0,4,4,8,0,6,6,11,,,,,,,,,1,0.900444881990552,088,001,2019_Aug_28_1625,MusicAffectPsychophysiology2019,3.0.5,59.64677348541479,
To what extent did the music make you feel ,ALERT,30MonoWAV/30MonoS1.wav,1,1,3,9,,,,,0,4,4,8,0,7,7,8,,,,,,,,,1,0.751057707995642,088,001,2019_Aug_28_1625,MusicAffectPsychophysiology2019,3.0.5,59.64677348541479,
To what extent did the music make you feel ,ACTIVE,30MonoWAV/30MonoS1.wav,1,1,3,9,,,,,0,4,4,8,0,8,8,9,,,,,,,,,1,0.7368172349815723,088,001,2019_Aug_28_1625,MusicAffectPsychophysiology2019,3.0.5,59.64677348541479,
To what extent did the music make you feel ,ANGRY,30MonoWAV/30MonoS1.wav,1,1,3,9,,,,,0,4,4,8,0,9,9,2,,,,,,,,,2,1.568917809985578,088,001,2019_Aug_28_1625,MusicAffectPsychophysiology2019,3.0.5,59.64677348541479,
To what extent did the music make you feel ,ASHAMED,30MonoWAV/30MonoS1.wav,1,1,3,9,,,,,0,4,4,8,0,10,10,4,,,,,,,,,1,2.069607134995749,088,001,2019_Aug_28_1625,MusicAffectPsychophysiology2019,3.0.5,59.64677348541479,
To what extent did the music make you feel ,HAPPY,30MonoWAV/30MonoS1.wav,1,1,3,9,,,,,0,4,4,8,0,11,11,6,,,,,,,,,1,0.6522778589860536,088,001,2019_Aug_28_1625,MusicAffectPsychophysiology2019,3.0.5,59.64677348541479,
,,30MonoWAV/30MonoS1.wav,1,1,3,9,,,,,0,4,4,8,,,,,,,,,,,,,,,088,001,2019_Aug_28_1625,MusicAffectPsychophysiology2019,3.0.5,59.64677348541479,
To what extent did the music make you feel ,ACTIVE,30MonoWAV/30MonoT1.wav,2,1,4,13,,,,,0,5,5,12,0,0,0,9,,,1,2.2500455459812656,1,5.251207675988553,1,2.170034704002319,1,0.9362097450066358,088,001,2019_Aug_28_1625,MusicAffectPsychophysiology2019,3.0.5,59.64677348541479,
To what extent did the music make you feel ,GUILTY,30MonoWAV/30MonoT1.wav,2,1,4,13,,,,,0,5,5,12,0,1,1,5,,,,,,,,,1,2.334322284004884,088,001,2019_Aug_28_1625,MusicAffectPsychophysiology2019,3.0.5,59.64677348541479,
To what extent did the music make you feel ,TENDER,30MonoWAV/30MonoT1.wav,2,1,4,13,,,,,0,5,5,12,0,2,2,10,,,,,,,,,1,0.8681793540017679,088,001,2019_Aug_28_1625,MusicAffectPsychophysiology2019,3.0.5,59.64677348541479,
To what extent did the music make you feel ,ANGRY,30MonoWAV/30MonoT1.wav,2,1,4,13,,,,,0,5,5,12,0,3,3,2,,,,,,,,,1,0.7017744199838489,088,001,2019_Aug_28_1625,MusicAffectPsychophysiology2019,3.0.5,59.64677348541479,
To what extent did the music make you feel ,EXCITED,30MonoWAV/30MonoT1.wav,2,1,4,13,,,,,0,5,5,12,0,4,4,7,,,,,,,,,1,5.818691560998559,088,001,2019_Aug_28_1625,MusicAffectPsychophysiology2019,3.0.5,59.64677348541479,
To what extent did the music make you feel ,ANXIOUS ,30MonoWAV/30MonoT1.wav,2,1,4,13,,,,,0,5,5,12,0,5,5,1,,,,,,,,,2,2.3996047989930958,088,001,2019_Aug_28_1625,MusicAffectPsychophysiology2019,3.0.5,59.64677348541479,
To what extent did the music make you feel ,ALERT,30MonoWAV/30MonoT1.wav,2,1,4,13,,,,,0,5,5,12,0,6,6,8,,,,,,,,,1,0.7205798169889022,088,001,2019_Aug_28_1625,MusicAffectPsychophysiology2019,3.0.5,59.64677348541479,
To what extent did the music make you feel ,HAPPY,30MonoWAV/30MonoT1.wav,2,1,4,13,,,,,0,5,5,12,0,7,7,6,,,,,,,,,1,0.6034774689760525,088,001,2019_Aug_28_1625,MusicAffectPsychophysiology2019,3.0.5,59.64677348541479,
To what extent did the music make you feel ,ASHAMED,30MonoWAV/30MonoT1.wav,2,1,4,13,,,,,0,5,5,12,0,8,8,4,,,,,,,,,1,1.1219753850018606,088,001,2019_Aug_28_1625,MusicAffectPsychophysiology2019,3.0.5,59.64677348541479,
To what extent did the music make you feel ,FRUSTRATED,30MonoWAV/30MonoT1.wav,2,1,4,13,,,,,0,5,5,12,0,9,9,3,,,,,,,,,2,0.9696805759740528,088,001,2019_Aug_28_1625,MusicAffectPsychophysiology2019,3.0.5,59.64677348541479,
To what extent did the music make you feel ,SCARED,30MonoWAV/30MonoT1.wav,2,1,4,13,,,,,0,5,5,12,0,10,10,11,,,,,,,,,1,0.768610273982631,088,001,2019_Aug_28_1625,MusicAffectPsychophysiology2019,3.0.5,59.64677348541479,
To what extent did the music make you feel ,SAD,30MonoWAV/30MonoT1.wav,2,1,4,13,,,,,0,5,5,12,0,11,11,0,,,,,,,,,1,1.502219468995463,088,001,2019_Aug_28_1625,MusicAffectPsychophysiology2019,3.0.5,59.64677348541479,
,,30MonoWAV/30MonoT1.wav,2,1,4,13,,,,,0,5,5,12,,,,,,,,,,,,,,,088,001,2019_Aug_28_1625,MusicAffectPsychophysiology2019,3.0.5,59.64677348541479,
To what extent did the music make you feel ,EXCITED,30MonoWAV/30MonoF1.wav,1,2,2,1,,,,,0,6,6,0,0,0,0,7,,,3,1.7356748029997107,1,1.0868238950206432,1,2.535498907993315,1,3.561882758018328,088,001,2019_Aug_28_1625,MusicAffectPsychophysiology2019,3.0.5,59.64677348541479,
To what extent did the music make you feel ,ANGRY,30MonoWAV/30MonoF1.wav,1,2,2,1,,,,,0,6,6,0,0,1,1,2,,,,,,,,,1,1.5370595529966522,088,001,2019_Aug_28_1625,MusicAffectPsychophysiology2019,3.0.5,59.64677348541479,
To what extent did the music make you feel ,ANXIOUS ,30MonoWAV/30MonoF1.wav,1,2,2,1,,,,,0,6,6,0,0,2,2,1,,,,,,,,,2,1.1878903289907612,088,001,2019_Aug_28_1625,MusicAffectPsychophysiology2019,3.0.5,59.64677348541479,
To what extent did the music make you feel ,ALERT,30MonoWAV/30MonoF1.wav,1,2,2,1,,,,,0,6,6,0,0,3,3,8,,,,,,,,,3,1.4276338210038375,088,001,2019_Aug_28_1625,MusicAffectPsychophysiology2019,3.0.5,59.64677348541479,
To what extent did the music make you feel ,SCARED,30MonoWAV/30MonoF1.wav,1,2,2,1,,,,,0,6,6,0,0,4,4,11,,,,,,,,,3,1.3515195310174022,088,001,2019_Aug_28_1625,MusicAffectPsychophysiology2019,3.0.5,59.64677348541479,
To what extent did the music make you feel ,ACTIVE,30MonoWAV/30MonoF1.wav,1,2,2,1,,,,,0,6,6,0,0,5,5,9,,,,,,,,,1,0.685322538978653,088,001,2019_Aug_28_1625,MusicAffectPsychophysiology2019,3.0.5,59.64677348541479,
To what extent did the music make you feel ,HAPPY,30MonoWAV/30MonoF1.wav,1,2,2,1,,,,,0,6,6,0,0,6,6,6,,,,,,,,,2,0.704318414995214,088,001,2019_Aug_28_1625,MusicAffectPsychophysiology2019,3.0.5,59.64677348541479,
To what extent did the music make you feel ,SAD,30MonoWAV/30MonoF1.wav,1,2,2,1,,,,,0,6,6,0,0,7,7,0,,,,,,,,,1,2.6442788779968396,088,001,2019_Aug_28_1625,MusicAffectPsychophysiology2019,3.0.5,59.64677348541479,
To what extent did the music make you feel ,GUILTY,30MonoWAV/30MonoF1.wav,1,2,2,1,,,,,0,6,6,0,0,8,8,5,,,,,,,,,1,2.0197588889859617,088,001,2019_Aug_28_1625,MusicAffectPsychophysiology2019,3.0.5,59.64677348541479,
To what extent did the music make you feel ,FRUSTRATED,30MonoWAV/30MonoF1.wav,1,2,2,1,,,,,0,6,6,0,0,9,9,3,,,,,,,,,2,1.21152310501202,088,001,2019_Aug_28_1625,MusicAffectPsychophysiology2019,3.0.5,59.64677348541479,
To what extent did the music make you feel ,ASHAMED,30MonoWAV/30MonoF1.wav,1,2,2,1,,,,,0,6,6,0,0,10,10,4,,,,,,,,,2,1.2528803409950342,088,001,2019_Aug_28_1625,MusicAffectPsychophysiology2019,3.0.5,59.64677348541479,
To what extent did the music make you feel ,TENDER,30MonoWAV/30MonoF1.wav,1,2,2,1,,,,,0,6,6,0,0,11,11,10,,,,,,,,,2,1.233998513984261,088,001,2019_Aug_28_1625,MusicAffectPsychophysiology2019,3.0.5,59.64677348541479,
,,30MonoWAV/30MonoF1.wav,1,2,2,1,,,,,0,6,6,0,,,,,,,,,,,,,,,088,001,2019_Aug_28_1625,MusicAffectPsychophysiology2019,3.0.5,59.64677348541479,
To what extent did the music make you feel ,FRUSTRATED,30MonoWAV/30MonoF3.wav,1,2,2,3,,,,,0,7,7,2,0,0,0,3,,,2,2.1703977159922943,1,0.5201738080068026,1,3.0690771990048233,2,1.3550876030058134,088,001,2019_Aug_28_1625,MusicAffectPsychophysiology2019,3.0.5,59.64677348541479,
To what extent did the music make you feel ,HAPPY,30MonoWAV/30MonoF3.wav,1,2,2,3,,,,,0,7,7,2,0,1,1,6,,,,,,,,,1,0.7369226959999651,088,001,2019_Aug_28_1625,MusicAffectPsychophysiology2019,3.0.5,59.64677348541479,
To what extent did the music make you feel ,EXCITED,30MonoWAV/30MonoF3.wav,1,2,2,3,,,,,0,7,7,2,0,2,2,7,,,,,,,,,1,1.201359111990314,088,001,2019_Aug_28_1625,MusicAffectPsychophysiology2019,3.0.5,59.64677348541479,
To what extent did the music make you feel ,SCARED,30MonoWAV/30MonoF3.wav,1,2,2,3,,,,,0,7,7,2,0,3,3,11,,,,,,,,,2,0.9038842479931191,088,001,2019_Aug_28_1625,MusicAffectPsychophysiology2019,3.0.5,59.64677348541479,
To what extent did the music make you feel ,GUILTY,30MonoWAV/30MonoF3.wav,1,2,2,3,,,,,0,7,7,2,0,4,4,5,,,,,,,,,1,1.1862193089909852,088,001,2019_Aug_28_1625,MusicAffectPsychophysiology2019,3.0.5,59.64677348541479,
To what extent did the music make you feel ,ALERT,30MonoWAV/30MonoF3.wav,1,2,2,3,,,,,0,7,7,2,0,5,5,8,,,,,,,,,3,1.0867602470098063,088,001,2019_Aug_28_1625,MusicAffectPsychophysiology2019,3.0.5,59.64677348541479,
To what extent did the music make you feel ,ANXIOUS ,30MonoWAV/30MonoF3.wav,1,2,2,3,,,,,0,7,7,2,0,6,6,1,,,,,,,,,4,1.334069061995251,088,001,2019_Aug_28_1625,MusicAffectPsychophysiology2019,3.0.5,59.64677348541479,
To what extent did the music make you feel ,ANGRY,30MonoWAV/30MonoF3.wav,1,2,2,3,,,,,0,7,7,2,0,7,7,2,,,,,,,,,1,1.0518102800124325,088,001,2019_Aug_28_1625,MusicAffectPsychophysiology2019,3.0.5,59.64677348541479,
To what extent did the music make you feel ,ASHAMED,30MonoWAV/30MonoF3.wav,1,2,2,3,,,,,0,7,7,2,0,8,8,4,,,,,,,,,1,1.2694348759832792,088,001,2019_Aug_28_1625,MusicAffectPsychophysiology2019,3.0.5,59.64677348541479,
To what extent did the music make you feel ,SAD,30MonoWAV/30MonoF3.wav,1,2,2,3,,,,,0,7,7,2,0,9,9,0,,,,,,,,,1,1.0702667419973295,088,001,2019_Aug_28_1625,MusicAffectPsychophysiology2019,3.0.5,59.64677348541479,
To what extent did the music make you feel ,ACTIVE,30MonoWAV/30MonoF3.wav,1,2,2,3,,,,,0,7,7,2,0,10,10,9,,,,,,,,,1,1.3873952910071239,088,001,2019_Aug_28_1625,MusicAffectPsychophysiology2019,3.0.5,59.64677348541479,
To what extent did the music make you feel ,TENDER,30MonoWAV/30MonoF3.wav,1,2,2,3,,,,,0,7,7,2,0,11,11,10,,,,,,,,,2,1.468781539995689,088,001,2019_Aug_28_1625,MusicAffectPsychophysiology2019,3.0.5,59.64677348541479,
,,30MonoWAV/30MonoF3.wav,1,2,2,3,,,,,0,7,7,2,,,,,,,,,,,,,,,088,001,2019_Aug_28_1625,MusicAffectPsychophysiology2019,3.0.5,59.64677348541479,
To what extent did the music make you feel ,ANGRY,30MonoWAV/30MonoF4.wav,1,2,2,4,,,,,0,8,8,3,0,0,0,2,,,2,4.6527419250051025,1,0.8027720829995815,1,1.2703234589716885,1,1.4518866300059017,088,001,2019_Aug_28_1625,MusicAffectPsychophysiology2019,3.0.5,59.64677348541479,
To what extent did the music make you feel ,ANXIOUS ,30MonoWAV/30MonoF4.wav,1,2,2,4,,,,,0,8,8,3,0,1,1,1,,,,,,,,,3,1.1191491429926828,088,001,2019_Aug_28_1625,MusicAffectPsychophysiology2019,3.0.5,59.64677348541479,
To what extent did the music make you feel ,EXCITED,30MonoWAV/30MonoF4.wav,1,2,2,4,,,,,0,8,8,3,0,2,2,7,,,,,,,,,1,0.8207623420166783,088,001,2019_Aug_28_1625,MusicAffectPsychophysiology2019,3.0.5,59.64677348541479,
To what extent did the music make you feel ,ACTIVE,30MonoWAV/30MonoF4.wav,1,2,2,4,,,,,0,8,8,3,0,3,3,9,,,,,,,,,1,1.4699270540149882,088,001,2019_Aug_28_1625,MusicAffectPsychophysiology2019,3.0.5,59.64677348541479,
To what extent did the music make you feel ,GUILTY,30MonoWAV/30MonoF4.wav,1,2,2,4,,,,,0,8,8,3,0,4,4,5,,,,,,,,,1,1.1190099719970021,088,001,2019_Aug_28_1625,MusicAffectPsychophysiology2019,3.0.5,59.64677348541479,
To what extent did the music make you feel ,SCARED,30MonoWAV/30MonoF4.wav,1,2,2,4,,,,,0,8,8,3,0,5,5,11,,,,,,,,,2,1.1166817159974016,088,001,2019_Aug_28_1625,MusicAffectPsychophysiology2019,3.0.5,59.64677348541479,
To what extent did the music make you feel ,HAPPY,30MonoWAV/30MonoF4.wav,1,2,2,4,,,,,0,8,8,3,0,6,6,6,,,,,,,,,1,0.702280768979108,088,001,2019_Aug_28_1625,MusicAffectPsychophysiology2019,3.0.5,59.64677348541479,
To what extent did the music make you feel ,SAD,30MonoWAV/30MonoF4.wav,1,2,2,4,,,,,0,8,8,3,0,7,7,0,,,,,,,,,1,0.9030042529921047,088,001,2019_Aug_28_1625,MusicAffectPsychophysiology2019,3.0.5,59.64677348541479,
To what extent did the music make you feel ,FRUSTRATED,30MonoWAV/30MonoF4.wav,1,2,2,4,,,,,0,8,8,3,0,8,8,3,,,,,,,,,3,1.4297411699953955,088,001,2019_Aug_28_1625,MusicAffectPsychophysiology2019,3.0.5,59.64677348541479,
To what extent did the music make you feel ,TENDER,30MonoWAV/30MonoF4.wav,1,2,2,4,,,,,0,8,8,3,0,9,9,10,,,,,,,,,2,4.385713249997934,088,001,2019_Aug_28_1625,MusicAffectPsychophysiology2019,3.0.5,59.64677348541479,
To what extent did the music make you feel ,ALERT,30MonoWAV/30MonoF4.wav,1,2,2,4,,,,,0,8,8,3,0,10,10,8,,,,,,,,,3,1.2867736110056285,088,001,2019_Aug_28_1625,MusicAffectPsychophysiology2019,3.0.5,59.64677348541479,
To what extent did the music make you feel ,ASHAMED,30MonoWAV/30MonoF4.wav,1,2,2,4,,,,,0,8,8,3,0,11,11,4,,,,,,,,,1,1.0850224170135334,088,001,2019_Aug_28_1625,MusicAffectPsychophysiology2019,3.0.5,59.64677348541479,
,,30MonoWAV/30MonoF4.wav,1,2,2,4,,,,,0,8,8,3,,,,,,,,,,,,,,,088,001,2019_Aug_28_1625,MusicAffectPsychophysiology2019,3.0.5,59.64677348541479,
To what extent did the music make you feel ,ACTIVE,30MonoWAV/30MonoH1.wav,2,2,1,5,,,,,0,9,9,4,0,0,0,9,,,2,2.385699256003136,3,1.0862270340148825,2,1.3700746209942736,2,1.59147870898596,088,001,2019_Aug_28_1625,MusicAffectPsychophysiology2019,3.0.5,59.64677348541479,
To what extent did the music make you feel ,HAPPY,30MonoWAV/30MonoH1.wav,2,2,1,5,,,,,0,9,9,4,0,1,1,6,,,,,,,,,3,0.9504760089912452,088,001,2019_Aug_28_1625,MusicAffectPsychophysiology2019,3.0.5,59.64677348541479,
To what extent did the music make you feel ,ANGRY,30MonoWAV/30MonoH1.wav,2,2,1,5,,,,,0,9,9,4,0,2,2,2,,,,,,,,,1,0.7021749709965661,088,001,2019_Aug_28_1625,MusicAffectPsychophysiology2019,3.0.5,59.64677348541479,
To what extent did the music make you feel ,SCARED,30MonoWAV/30MonoH1.wav,2,2,1,5,,,,,0,9,9,4,0,3,3,11,,,,,,,,,1,0.6338236549927387,088,001,2019_Aug_28_1625,MusicAffectPsychophysiology2019,3.0.5,59.64677348541479,
To what extent did the music make you feel ,TENDER,30MonoWAV/30MonoH1.wav,2,2,1,5,,,,,0,9,9,4,0,4,4,10,,,,,,,,,1,0.7701042699918617,088,001,2019_Aug_28_1625,MusicAffectPsychophysiology2019,3.0.5,59.64677348541479,
To what extent did the music make you feel ,EXCITED,30MonoWAV/30MonoH1.wav,2,2,1,5,,,,,0,9,9,4,0,5,5,7,,,,,,,,,4,1.2495603850111365,088,001,2019_Aug_28_1625,MusicAffectPsychophysiology2019,3.0.5,59.64677348541479,
To what extent did the music make you feel ,GUILTY,30MonoWAV/30MonoH1.wav,2,2,1,5,,,,,0,9,9,4,0,6,6,5,,,,,,,,,1,0.7872582229902036,088,001,2019_Aug_28_1625,MusicAffectPsychophysiology2019,3.0.5,59.64677348541479,
To what extent did the music make you feel ,ALERT,30MonoWAV/30MonoH1.wav,2,2,1,5,,,,,0,9,9,4,0,7,7,8,,,,,,,,,2,1.470757458009757,088,001,2019_Aug_28_1625,MusicAffectPsychophysiology2019,3.0.5,59.64677348541479,
To what extent did the music make you feel ,FRUSTRATED,30MonoWAV/30MonoH1.wav,2,2,1,5,,,,,0,9,9,4,0,8,8,3,,,,,,,,,1,0.707085233007092,088,001,2019_Aug_28_1625,MusicAffectPsychophysiology2019,3.0.5,59.64677348541479,
To what extent did the music make you feel ,ANXIOUS ,30MonoWAV/30MonoH1.wav,2,2,1,5,,,,,0,9,9,4,0,9,9,1,,,,,,,,,1,0.76651174199651,088,001,2019_Aug_28_1625,MusicAffectPsychophysiology2019,3.0.5,59.64677348541479,
To what extent did the music make you feel ,SAD,30MonoWAV/30MonoH1.wav,2,2,1,5,,,,,0,9,9,4,0,10,10,0,,,,,,,,,1,0.6003922919917386,088,001,2019_Aug_28_1625,MusicAffectPsychophysiology2019,3.0.5,59.64677348541479,
To what extent did the music make you feel ,ASHAMED,30MonoWAV/30MonoH1.wav,2,2,1,5,,,,,0,9,9,4,0,11,11,4,,,,,,,,,1,0.7029452249989845,088,001,2019_Aug_28_1625,MusicAffectPsychophysiology2019,3.0.5,59.64677348541479,
,,30MonoWAV/30MonoH1.wav,2,2,1,5,,,,,0,9,9,4,,,,,,,,,,,,,,,088,001,2019_Aug_28_1625,MusicAffectPsychophysiology2019,3.0.5,59.64677348541479,
To what extent did the music make you feel ,ALERT,30MonoWAV/30MonoH3.wav,2,2,1,7,,,,,0,10,10,6,0,0,0,8,,,3,2.753407834999962,3,1.4362784690165427,2,1.7851163989980705,4,1.300377376988763,088,001,2019_Aug_28_1625,MusicAffectPsychophysiology2019,3.0.5,59.64677348541479,
To what extent did the music make you feel ,ANGRY,30MonoWAV/30MonoH3.wav,2,2,1,7,,,,,0,10,10,6,0,1,1,2,,,,,,,,,1,0.7199616470024921,088,001,2019_Aug_28_1625,MusicAffectPsychophysiology2019,3.0.5,59.64677348541479,
To what extent did the music make you feel ,GUILTY,30MonoWAV/30MonoH3.wav,2,2,1,7,,,,,0,10,10,6,0,2,2,5,,,,,,,,,1,0.61979974899441,088,001,2019_Aug_28_1625,MusicAffectPsychophysiology2019,3.0.5,59.64677348541479,
To what extent did the music make you feel ,FRUSTRATED,30MonoWAV/30MonoH3.wav,2,2,1,7,,,,,0,10,10,6,0,3,3,3,,,,,,,,,1,0.701610388001427,088,001,2019_Aug_28_1625,MusicAffectPsychophysiology2019,3.0.5,59.64677348541479,
To what extent did the music make you feel ,ACTIVE,30MonoWAV/30MonoH3.wav,2,2,1,7,,,,,0,10,10,6,0,4,4,9,,,,,,,,,4,1.035912652994739,088,001,2019_Aug_28_1625,MusicAffectPsychophysiology2019,3.0.5,59.64677348541479,
To what extent did the music make you feel ,SCARED,30MonoWAV/30MonoH3.wav,2,2,1,7,,,,,0,10,10,6,0,5,5,11,,,,,,,,,1,1.5185893820016645,088,001,2019_Aug_28_1625,MusicAffectPsychophysiology2019,3.0.5,59.64677348541479,
To what extent did the music make you feel ,ASHAMED,30MonoWAV/30MonoH3.wav,2,2,1,7,,,,,0,10,10,6,0,6,6,4,,,,,,,,,1,0.8024974070140161,088,001,2019_Aug_28_1625,MusicAffectPsychophysiology2019,3.0.5,59.64677348541479,
To what extent did the music make you feel ,TENDER,30MonoWAV/30MonoH3.wav,2,2,1,7,,,,,0,10,10,6,0,7,7,10,,,,,,,,,1,0.7862075839948375,088,001,2019_Aug_28_1625,MusicAffectPsychophysiology2019,3.0.5,59.64677348541479,
To what extent did the music make you feel ,SAD,30MonoWAV/30MonoH3.wav,2,2,1,7,,,,,0,10,10,6,0,8,8,0,,,,,,,,,1,0.685853474016767,088,001,2019_Aug_28_1625,MusicAffectPsychophysiology2019,3.0.5,59.64677348541479,
To what extent did the music make you feel ,ANXIOUS ,30MonoWAV/30MonoH3.wav,2,2,1,7,,,,,0,10,10,6,0,9,9,1,,,,,,,,,1,0.7526966019941028,088,001,2019_Aug_28_1625,MusicAffectPsychophysiology2019,3.0.5,59.64677348541479,
To what extent did the music make you feel ,HAPPY,30MonoWAV/30MonoH3.wav,2,2,1,7,,,,,0,10,10,6,0,10,10,6,,,,,,,,,4,1.2857309420069214,088,001,2019_Aug_28_1625,MusicAffectPsychophysiology2019,3.0.5,59.64677348541479,
To what extent did the music make you feel ,EXCITED,30MonoWAV/30MonoH3.wav,2,2,1,7,,,,,0,10,10,6,0,11,11,7,,,,,,,,,5,1.018111356999725,088,001,2019_Aug_28_1625,MusicAffectPsychophysiology2019,3.0.5,59.64677348541479,
,,30MonoWAV/30MonoH3.wav,2,2,1,7,,,,,0,10,10,6,,,,,,,,,,,,,,,088,001,2019_Aug_28_1625,MusicAffectPsychophysiology2019,3.0.5,59.64677348541479,
To what extent did the music make you feel ,TENDER,30MonoWAV/30MonoS3.wav,1,1,3,11,,,,,0,11,11,10,0,0,0,10,,,2,2.1024533349846024,1,0.7844302190060262,1,1.1009349979867693,3,0.992962586984504,088,001,2019_Aug_28_1625,MusicAffectPsychophysiology2019,3.0.5,59.64677348541479,
To what extent did the music make you feel ,SCARED,30MonoWAV/30MonoS3.wav,1,1,3,11,,,,,0,11,11,10,0,1,1,11,,,,,,,,,2,0.9871493389946409,088,001,2019_Aug_28_1625,MusicAffectPsychophysiology2019,3.0.5,59.64677348541479,
To what extent did the music make you feel ,SAD,30MonoWAV/30MonoS3.wav,1,1,3,11,,,,,0,11,11,10,0,2,2,0,,,,,,,,,2,2.119396926020272,088,001,2019_Aug_28_1625,MusicAffectPsychophysiology2019,3.0.5,59.64677348541479,
To what extent did the music make you feel ,ACTIVE,30MonoWAV/30MonoS3.wav,1,1,3,11,,,,,0,11,11,10,0,3,3,9,,,,,,,,,1,0.8665939960046671,088,001,2019_Aug_28_1625,MusicAffectPsychophysiology2019,3.0.5,59.64677348541479,
To what extent did the music make you feel ,HAPPY,30MonoWAV/30MonoS3.wav,1,1,3,11,,,,,0,11,11,10,0,4,4,6,,,,,,,,,1,0.6036169349972624,088,001,2019_Aug_28_1625,MusicAffectPsychophysiology2019,3.0.5,59.64677348541479,
To what extent did the music make you feel ,ANGRY,30MonoWAV/30MonoS3.wav,1,1,3,11,,,,,0,11,11,10,0,5,5,2,,,,,,,,,1,1.1954012849892024,088,001,2019_Aug_28_1625,MusicAffectPsychophysiology2019,3.0.5,59.64677348541479,
To what extent did the music make you feel ,FRUSTRATED,30MonoWAV/30MonoS3.wav,1,1,3,11,,,,,0,11,11,10,0,6,6,3,,,,,,,,,3,0.8287975769781042,088,001,2019_Aug_28_1625,MusicAffectPsychophysiology2019,3.0.5,59.64677348541479,
To what extent did the music make you feel ,ALERT,30MonoWAV/30MonoS3.wav,1,1,3,11,,,,,0,11,11,10,0,7,7,8,,,,,,,,,1,1.5857848470041063,088,001,2019_Aug_28_1625,MusicAffectPsychophysiology2019,3.0.5,59.64677348541479,
To what extent did the music make you feel ,EXCITED,30MonoWAV/30MonoS3.wav,1,1,3,11,,,,,0,11,11,10,0,8,8,7,,,,,,,,,1,1.5859644750016741,088,001,2019_Aug_28_1625,MusicAffectPsychophysiology2019,3.0.5,59.64677348541479,
To what extent did the music make you feel ,ANXIOUS ,30MonoWAV/30MonoS3.wav,1,1,3,11,,,,,0,11,11,10,0,9,9,1,,,,,,,,,4,2.253109887999017,088,001,2019_Aug_28_1625,MusicAffectPsychophysiology2019,3.0.5,59.64677348541479,
To what extent did the music make you feel ,GUILTY,30MonoWAV/30MonoS3.wav,1,1,3,11,,,,,0,11,11,10,0,10,10,5,,,,,,,,,3,1.368436056014616,088,001,2019_Aug_28_1625,MusicAffectPsychophysiology2019,3.0.5,59.64677348541479,
To what extent did the music make you feel ,ASHAMED,30MonoWAV/30MonoS3.wav,1,1,3,11,,,,,0,11,11,10,0,11,11,4,,,,,,,,,2,1.2359521219914313,088,001,2019_Aug_28_1625,MusicAffectPsychophysiology2019,3.0.5,59.64677348541479,
,,30MonoWAV/30MonoS3.wav,1,1,3,11,,,,,0,11,11,10,,,,,,,,,,,,,,,088,001,2019_Aug_28_1625,MusicAffectPsychophysiology2019,3.0.5,59.64677348541479,
To what extent did the music make you feel ,FRUSTRATED,30MonoWAV/30MonoS4.wav,1,1,3,12,,,,,0,12,12,11,0,0,0,3,,,1,4.352001563995145,1,1.0193490429956,2,2.186048296978697,4,1.9384717400243971,088,001,2019_Aug_28_1625,MusicAffectPsychophysiology2019,3.0.5,59.64677348541479,
To what extent did the music make you feel ,ALERT,30MonoWAV/30MonoS4.wav,1,1,3,12,,,,,0,12,12,11,0,1,1,8,,,,,,,,,1,1.136166387994308,088,001,2019_Aug_28_1625,MusicAffectPsychophysiology2019,3.0.5,59.64677348541479,
To what extent did the music make you feel ,ANXIOUS ,30MonoWAV/30MonoS4.wav,1,1,3,12,,,,,0,12,12,11,0,2,2,1,,,,,,,,,3,0.9352527119917795,088,001,2019_Aug_28_1625,MusicAffectPsychophysiology2019,3.0.5,59.64677348541479,
To what extent did the music make you feel ,EXCITED,30MonoWAV/30MonoS4.wav,1,1,3,12,,,,,0,12,12,11,0,3,3,7,,,,,,,,,1,1.00283813700662,088,001,2019_Aug_28_1625,MusicAffectPsychophysiology2019,3.0.5,59.64677348541479,
To what extent did the music make you feel ,ACTIVE,30MonoWAV/30MonoS4.wav,1,1,3,12,,,,,0,12,12,11,0,4,4,9,,,,,,,,,1,0.8867337710107677,088,001,2019_Aug_28_1625,MusicAffectPsychophysiology2019,3.0.5,59.64677348541479,
To what extent did the music make you feel ,ANGRY,30MonoWAV/30MonoS4.wav,1,1,3,12,,,,,0,12,12,11,0,5,5,2,,,,,,,,,1,0.9207490629923996,088,001,2019_Aug_28_1625,MusicAffectPsychophysiology2019,3.0.5,59.64677348541479,
To what extent did the music make you feel ,SAD,30MonoWAV/30MonoS4.wav,1,1,3,12,,,,,0,12,12,11,0,6,6,0,,,,,,,,,5,2.171023829985643,088,001,2019_Aug_28_1625,MusicAffectPsychophysiology2019,3.0.5,59.64677348541479,
To what extent did the music make you feel ,ASHAMED,30MonoWAV/30MonoS4.wav,1,1,3,12,,,,,0,12,12,11,0,7,7,4,,,,,,,,,3,1.5697184150048997,088,001,2019_Aug_28_1625,MusicAffectPsychophysiology2019,3.0.5,59.64677348541479,
To what extent did the music make you feel ,HAPPY,30MonoWAV/30MonoS4.wav,1,1,3,12,,,,,0,12,12,11,0,8,8,6,,,,,,,,,1,1.082473567017587,088,001,2019_Aug_28_1625,MusicAffectPsychophysiology2019,3.0.5,59.64677348541479,
To what extent did the music make you feel ,GUILTY,30MonoWAV/30MonoS4.wav,1,1,3,12,,,,,0,12,12,11,0,9,9,5,,,,,,,,,2,1.2359272229950875,088,001,2019_Aug_28_1625,MusicAffectPsychophysiology2019,3.0.5,59.64677348541479,
To what extent did the music make you feel ,SCARED,30MonoWAV/30MonoS4.wav,1,1,3,12,,,,,0,12,12,11,0,10,10,11,,,,,,,,,1,1.2852633720031008,088,001,2019_Aug_28_1625,MusicAffectPsychophysiology2019,3.0.5,59.64677348541479,
To what extent did the music make you feel ,TENDER,30MonoWAV/30MonoS4.wav,1,1,3,12,,,,,0,12,12,11,0,11,11,10,,,,,,,,,3,1.1199973770126235,088,001,2019_Aug_28_1625,MusicAffectPsychophysiology2019,3.0.5,59.64677348541479,
,,30MonoWAV/30MonoS4.wav,1,1,3,12,,,,,0,12,12,11,,,,,,,,,,,,,,,088,001,2019_Aug_28_1625,MusicAffectPsychophysiology2019,3.0.5,59.64677348541479,
To what extent did the music make you feel ,SAD,30MonoWAV/30MonoF2.wav,1,2,2,2,,,,,0,13,13,1,0,0,0,0,,,1,4.735655627009692,1,0.45229786701384,1,0.9702953940141015,1,1.4647364309930708,088,001,2019_Aug_28_1625,MusicAffectPsychophysiology2019,3.0.5,59.64677348541479,
To what extent did the music make you feel ,EXCITED,30MonoWAV/30MonoF2.wav,1,2,2,2,,,,,0,13,13,1,0,1,1,7,,,,,,,,,1,0.718813396000769,088,001,2019_Aug_28_1625,MusicAffectPsychophysiology2019,3.0.5,59.64677348541479,
To what extent did the music make you feel ,ALERT,30MonoWAV/30MonoF2.wav,1,2,2,2,,,,,0,13,13,1,0,2,2,8,,,,,,,,,4,1.1205562760005705,088,001,2019_Aug_28_1625,MusicAffectPsychophysiology2019,3.0.5,59.64677348541479,
To what extent did the music make you feel ,TENDER,30MonoWAV/30MonoF2.wav,1,2,2,2,,,,,0,13,13,1,0,3,3,10,,,,,,,,,3,1.3350409680278972,088,001,2019_Aug_28_1625,MusicAffectPsychophysiology2019,3.0.5,59.64677348541479,
To what extent did the music make you feel ,FRUSTRATED,30MonoWAV/30MonoF2.wav,1,2,2,2,,,,,0,13,13,1,0,4,4,3,,,,,,,,,5,1.0287892110063694,088,001,2019_Aug_28_1625,MusicAffectPsychophysiology2019,3.0.5,59.64677348541479,
To what extent did the music make you feel ,ANXIOUS ,30MonoWAV/30MonoF2.wav,1,2,2,2,,,,,0,13,13,1,0,5,5,1,,,,,,,,,5,0.9360865179914981,088,001,2019_Aug_28_1625,MusicAffectPsychophysiology2019,3.0.5,59.64677348541479,
To what extent did the music make you feel ,ACTIVE,30MonoWAV/30MonoF2.wav,1,2,2,2,,,,,0,13,13,1,0,6,6,9,,,,,,,,,1,0.9522861299919896,088,001,2019_Aug_28_1625,MusicAffectPsychophysiology2019,3.0.5,59.64677348541479,
To what extent did the music make you feel ,ANGRY,30MonoWAV/30MonoF2.wav,1,2,2,2,,,,,0,13,13,1,0,7,7,2,,,,,,,,,3,1.4186351200041827,088,001,2019_Aug_28_1625,MusicAffectPsychophysiology2019,3.0.5,59.64677348541479,
To what extent did the music make you feel ,SCARED,30MonoWAV/30MonoF2.wav,1,2,2,2,,,,,0,13,13,1,0,8,8,11,,,,,,,,,4,1.1695293209922966,088,001,2019_Aug_28_1625,MusicAffectPsychophysiology2019,3.0.5,59.64677348541479,
To what extent did the music make you feel ,GUILTY,30MonoWAV/30MonoF2.wav,1,2,2,2,,,,,0,13,13,1,0,9,9,5,,,,,,,,,2,0.9528951190004591,088,001,2019_Aug_28_1625,MusicAffectPsychophysiology2019,3.0.5,59.64677348541479,
To what extent did the music make you feel ,ASHAMED,30MonoWAV/30MonoF2.wav,1,2,2,2,,,,,0,13,13,1,0,10,10,4,,,,,,,,,1,1.6198543719947338,088,001,2019_Aug_28_1625,MusicAffectPsychophysiology2019,3.0.5,59.64677348541479,
To what extent did the music make you feel ,HAPPY,30MonoWAV/30MonoF2.wav,1,2,2,2,,,,,0,13,13,1,0,11,11,6,,,,,,,,,1,0.6523673070187215,088,001,2019_Aug_28_1625,MusicAffectPsychophysiology2019,3.0.5,59.64677348541479,
,,30MonoWAV/30MonoF2.wav,1,2,2,2,,,,,0,13,13,1,,,,,,,,,,,,,,,088,001,2019_Aug_28_1625,MusicAffectPsychophysiology2019,3.0.5,59.64677348541479,
To what extent did the music make you feel ,GUILTY,30MonoWAV/30MonoT3.wav,2,1,4,15,,,,,0,14,14,14,0,0,0,5,,,2,6.000955850002356,1,1.7861766720016021,2,2.037089499994181,3,1.3747987959941383,088,001,2019_Aug_28_1625,MusicAffectPsychophysiology2019,3.0.5,59.64677348541479,
To what extent did the music make you feel ,ALERT,30MonoWAV/30MonoT3.wav,2,1,4,15,,,,,0,14,14,14,0,1,1,8,,,,,,,,,1,0.8697435819776729,088,001,2019_Aug_28_1625,MusicAffectPsychophysiology2019,3.0.5,59.64677348541479,
To what extent did the music make you feel ,HAPPY,30MonoWAV/30MonoT3.wav,2,1,4,15,,,,,0,14,14,14,0,2,2,6,,,,,,,,,1,0.8530481779889669,088,001,2019_Aug_28_1625,MusicAffectPsychophysiology2019,3.0.5,59.64677348541479,
To what extent did the music make you feel ,ANXIOUS ,30MonoWAV/30MonoT3.wav,2,1,4,15,,,,,0,14,14,14,0,3,3,1,,,,,,,,,2,0.8741808560153004,088,001,2019_Aug_28_1625,MusicAffectPsychophysiology2019,3.0.5,59.64677348541479,
To what extent did the music make you feel ,FRUSTRATED,30MonoWAV/30MonoT3.wav,2,1,4,15,,,,,0,14,14,14,0,4,4,3,,,,,,,,,4,1.8075461439730134,088,001,2019_Aug_28_1625,MusicAffectPsychophysiology2019,3.0.5,59.64677348541479,
To what extent did the music make you feel ,ANGRY,30MonoWAV/30MonoT3.wav,2,1,4,15,,,,,0,14,14,14,0,5,5,2,,,,,,,,,1,1.0201660490129143,088,001,2019_Aug_28_1625,MusicAffectPsychophysiology2019,3.0.5,59.64677348541479,
To what extent did the music make you feel ,EXCITED,30MonoWAV/30MonoT3.wav,2,1,4,15,,,,,0,14,14,14,0,6,6,7,,,,,,,,,1,0.8199556350009516,088,001,2019_Aug_28_1625,MusicAffectPsychophysiology2019,3.0.5,59.64677348541479,
To what extent did the music make you feel ,TENDER,30MonoWAV/30MonoT3.wav,2,1,4,15,,,,,0,14,14,14,0,7,7,10,,,,,,,,,2,1.2096113869920373,088,001,2019_Aug_28_1625,MusicAffectPsychophysiology2019,3.0.5,59.64677348541479,
To what extent did the music make you feel ,SAD,30MonoWAV/30MonoT3.wav,2,1,4,15,,,,,0,14,14,14,0,8,8,0,,,,,,,,,4,1.1850946199847385,088,001,2019_Aug_28_1625,MusicAffectPsychophysiology2019,3.0.5,59.64677348541479,
To what extent did the music make you feel ,ACTIVE,30MonoWAV/30MonoT3.wav,2,1,4,15,,,,,0,14,14,14,0,9,9,9,,,,,,,,,1,0.6696775580057874,088,001,2019_Aug_28_1625,MusicAffectPsychophysiology2019,3.0.5,59.64677348541479,
To what extent did the music make you feel ,ASHAMED,30MonoWAV/30MonoT3.wav,2,1,4,15,,,,,0,14,14,14,0,10,10,4,,,,,,,,,2,3.1862324079847895,088,001,2019_Aug_28_1625,MusicAffectPsychophysiology2019,3.0.5,59.64677348541479,
To what extent did the music make you feel ,SCARED,30MonoWAV/30MonoT3.wav,2,1,4,15,,,,,0,14,14,14,0,11,11,11,,,,,,,,,1,0.9686872120073531,088,001,2019_Aug_28_1625,MusicAffectPsychophysiology2019,3.0.5,59.64677348541479,
,,30MonoWAV/30MonoT3.wav,2,1,4,15,,,,,0,14,14,14,,,,,,,,,,,,,,,088,001,2019_Aug_28_1625,MusicAffectPsychophysiology2019,3.0.5,59.64677348541479,
To what extent did the music make you feel ,ASHAMED,30MonoWAV/30MonoH4.wav,2,2,1,8,,,,,0,15,15,7,0,0,0,4,,,3,3.6688941880129278,3,1.9027213910012506,1,1.3367787489842158,1,0.9694462629850022,088,001,2019_Aug_28_1625,MusicAffectPsychophysiology2019,3.0.5,59.64677348541479,
To what extent did the music make you feel ,EXCITED,30MonoWAV/30MonoH4.wav,2,2,1,8,,,,,0,15,15,7,0,1,1,7,,,,,,,,,4,1.1353450540045742,088,001,2019_Aug_28_1625,MusicAffectPsychophysiology2019,3.0.5,59.64677348541479,
To what extent did the music make you feel ,ALERT,30MonoWAV/30MonoH4.wav,2,2,1,8,,,,,0,15,15,7,0,2,2,8,,,,,,,,,3,1.0353768589848187,088,001,2019_Aug_28_1625,MusicAffectPsychophysiology2019,3.0.5,59.64677348541479,
To what extent did the music make you feel ,ANGRY,30MonoWAV/30MonoH4.wav,2,2,1,8,,,,,0,15,15,7,0,3,3,2,,,,,,,,,1,0.8682405060098972,088,001,2019_Aug_28_1625,MusicAffectPsychophysiology2019,3.0.5,59.64677348541479,
To what extent did the music make you feel ,SAD,30MonoWAV/30MonoH4.wav,2,2,1,8,,,,,0,15,15,7,0,4,4,0,,,,,,,,,1,0.7692406510177534,088,001,2019_Aug_28_1625,MusicAffectPsychophysiology2019,3.0.5,59.64677348541479,
To what extent did the music make you feel ,FRUSTRATED,30MonoWAV/30MonoH4.wav,2,2,1,8,,,,,0,15,15,7,0,5,5,3,,,,,,,,,1,0.968990789988311,088,001,2019_Aug_28_1625,MusicAffectPsychophysiology2019,3.0.5,59.64677348541479,
To what extent did the music make you feel ,ACTIVE,30MonoWAV/30MonoH4.wav,2,2,1,8,,,,,0,15,15,7,0,6,6,9,,,,,,,,,4,1.502404077007668,088,001,2019_Aug_28_1625,MusicAffectPsychophysiology2019,3.0.5,59.64677348541479,
To what extent did the music make you feel ,ANXIOUS ,30MonoWAV/30MonoH4.wav,2,2,1,8,,,,,0,15,15,7,0,7,7,1,,,,,,,,,1,0.7201268509961665,088,001,2019_Aug_28_1625,MusicAffectPsychophysiology2019,3.0.5,59.64677348541479,
To what extent did the music make you feel ,SCARED,30MonoWAV/30MonoH4.wav,2,2,1,8,,,,,0,15,15,7,0,8,8,11,,,,,,,,,1,0.7701124449959025,088,001,2019_Aug_28_1625,MusicAffectPsychophysiology2019,3.0.5,59.64677348541479,
To what extent did the music make you feel ,TENDER,30MonoWAV/30MonoH4.wav,2,2,1,8,,,,,0,15,15,7,0,9,9,10,,,,,,,,,1,0.7701140440185554,088,001,2019_Aug_28_1625,MusicAffectPsychophysiology2019,3.0.5,59.64677348541479,
To what extent did the music make you feel ,GUILTY,30MonoWAV/30MonoH4.wav,2,2,1,8,,,,,0,15,15,7,0,10,10,5,,,,,,,,,1,0.735398917022394,088,001,2019_Aug_28_1625,MusicAffectPsychophysiology2019,3.0.5,59.64677348541479,
To what extent did the music make you feel ,HAPPY,30MonoWAV/30MonoH4.wav,2,2,1,8,,,,,0,15,15,7,0,11,11,6,,,,,,,,,4,1.2521646509994753,088,001,2019_Aug_28_1625,MusicAffectPsychophysiology2019,3.0.5,59.64677348541479,
,,30MonoWAV/30MonoH4.wav,2,2,1,8,,,,,0,15,15,7,,,,,,,,,,,,,,,088,001,2019_Aug_28_1625,MusicAffectPsychophysiology2019,3.0.5,59.64677348541479,
To what extent did the music make you feel ,EXCITED,30MonoWAV/30MonoT3.wav,2,1,4,15,,,,,1,0,16,14,0,0,0,7,,,1,5.536770553997485,1,0.6030816049897112,2,1.985619205981493,1,1.074674994975794,088,001,2019_Aug_28_1625,MusicAffectPsychophysiology2019,3.0.5,59.64677348541479,
To what extent did the music make you feel ,ASHAMED,30MonoWAV/30MonoT3.wav,2,1,4,15,,,,,1,0,16,14,0,1,1,4,,,,,,,,,3,0.9862928009824827,088,001,2019_Aug_28_1625,MusicAffectPsychophysiology2019,3.0.5,59.64677348541479,
To what extent did the music make you feel ,ANGRY,30MonoWAV/30MonoT3.wav,2,1,4,15,,,,,1,0,16,14,0,2,2,2,,,,,,,,,1,0.9700245439889841,088,001,2019_Aug_28_1625,MusicAffectPsychophysiology2019,3.0.5,59.64677348541479,
To what extent did the music make you feel ,FRUSTRATED,30MonoWAV/30MonoT3.wav,2,1,4,15,,,,,1,0,16,14,0,3,3,3,,,,,,,,,3,1.2273073680116795,088,001,2019_Aug_28_1625,MusicAffectPsychophysiology2019,3.0.5,59.64677348541479,
To what extent did the music make you feel ,ANXIOUS ,30MonoWAV/30MonoT3.wav,2,1,4,15,,,,,1,0,16,14,0,4,4,1,,,,,,,,,4,1.052906682016328,088,001,2019_Aug_28_1625,MusicAffectPsychophysiology2019,3.0.5,59.64677348541479,
To what extent did the music make you feel ,ACTIVE,30MonoWAV/30MonoT3.wav,2,1,4,15,,,,,1,0,16,14,0,5,5,9,,,,,,,,,1,0.7689819149964023,088,001,2019_Aug_28_1625,MusicAffectPsychophysiology2019,3.0.5,59.64677348541479,
To what extent did the music make you feel ,ALERT,30MonoWAV/30MonoT3.wav,2,1,4,15,,,,,1,0,16,14,0,6,6,8,,,,,,,,,1,1.1869832570082508,088,001,2019_Aug_28_1625,MusicAffectPsychophysiology2019,3.0.5,59.64677348541479,
To what extent did the music make you feel ,GUILTY,30MonoWAV/30MonoT3.wav,2,1,4,15,,,,,1,0,16,14,0,7,7,5,,,,,,,,,3,1.135395190998679,088,001,2019_Aug_28_1625,MusicAffectPsychophysiology2019,3.0.5,59.64677348541479,
To what extent did the music make you feel ,SCARED,30MonoWAV/30MonoT3.wav,2,1,4,15,,,,,1,0,16,14,0,8,8,11,,,,,,,,,1,1.036486867989879,088,001,2019_Aug_28_1625,MusicAffectPsychophysiology2019,3.0.5,59.64677348541479,
To what extent did the music make you feel ,HAPPY,30MonoWAV/30MonoT3.wav,2,1,4,15,,,,,1,0,16,14,0,9,9,6,,,,,,,,,1,0.6859474040102214,088,001,2019_Aug_28_1625,MusicAffectPsychophysiology2019,3.0.5,59.64677348541479,
To what extent did the music make you feel ,TENDER,30MonoWAV/30MonoT3.wav,2,1,4,15,,,,,1,0,16,14,0,10,10,10,,,,,,,,,3,1.0170411620056257,088,001,2019_Aug_28_1625,MusicAffectPsychophysiology2019,3.0.5,59.64677348541479,
To what extent did the music make you feel ,SAD,30MonoWAV/30MonoT3.wav,2,1,4,15,,,,,1,0,16,14,0,11,11,0,,,,,,,,,2,1.1036481609917246,088,001,2019_Aug_28_1625,MusicAffectPsychophysiology2019,3.0.5,59.64677348541479,
,,30MonoWAV/30MonoT3.wav,2,1,4,15,,,,,1,0,16,14,,,,,,,,,,,,,,,088,001,2019_Aug_28_1625,MusicAffectPsychophysiology2019,3.0.5,59.64677348541479,
To what extent did the music make you feel ,GUILTY,30MonoWAV/30MonoT4.wav,2,1,4,16,,,,,1,1,17,15,0,0,0,5,,,2,5.035804820014164,1,1.019971761998022,1,1.3163588419847656,2,1.4868911349913105,088,001,2019_Aug_28_1625,MusicAffectPsychophysiology2019,3.0.5,59.64677348541479,
To what extent did the music make you feel ,FRUSTRATED,30MonoWAV/30MonoT4.wav,2,1,4,16,,,,,1,1,17,15,0,1,1,3,,,,,,,,,3,1.0025788249913603,088,001,2019_Aug_28_1625,MusicAffectPsychophysiology2019,3.0.5,59.64677348541479,
To what extent did the music make you feel ,ASHAMED,30MonoWAV/30MonoT4.wav,2,1,4,16,,,,,1,1,17,15,0,2,2,4,,,,,,,,,2,0.8669658660073765,088,001,2019_Aug_28_1625,MusicAffectPsychophysiology2019,3.0.5,59.64677348541479,
To what extent did the music make you feel ,EXCITED,30MonoWAV/30MonoT4.wav,2,1,4,16,,,,,1,1,17,15,0,3,3,7,,,,,,,,,1,0.834537167014787,088,001,2019_Aug_28_1625,MusicAffectPsychophysiology2019,3.0.5,59.64677348541479,
To what extent did the music make you feel ,ANXIOUS ,30MonoWAV/30MonoT4.wav,2,1,4,16,,,,,1,1,17,15,0,4,4,1,,,,,,,,,4,1.3830520159972366,088,001,2019_Aug_28_1625,MusicAffectPsychophysiology2019,3.0.5,59.64677348541479,
To what extent did the music make you feel ,ALERT,30MonoWAV/30MonoT4.wav,2,1,4,16,,,,,1,1,17,15,0,5,5,8,,,,,,,,,1,1.2854842380038463,088,001,2019_Aug_28_1625,MusicAffectPsychophysiology2019,3.0.5,59.64677348541479,
To what extent did the music make you feel ,ACTIVE,30MonoWAV/30MonoT4.wav,2,1,4,16,,,,,1,1,17,15,0,6,6,9,,,,,,,,,1,0.9529085450049024,088,001,2019_Aug_28_1625,MusicAffectPsychophysiology2019,3.0.5,59.64677348541479,
To what extent did the music make you feel ,SAD,30MonoWAV/30MonoT4.wav,2,1,4,16,,,,,1,1,17,15,0,7,7,0,,,,,,,,,2,1.0199123460042756,088,001,2019_Aug_28_1625,MusicAffectPsychophysiology2019,3.0.5,59.64677348541479,
To what extent did the music make you feel ,ANGRY,30MonoWAV/30MonoT4.wav,2,1,4,16,,,,,1,1,17,15,0,8,8,2,,,,,,,,,1,0.6352234079968184,088,001,2019_Aug_28_1625,MusicAffectPsychophysiology2019,3.0.5,59.64677348541479,
To what extent did the music make you feel ,SCARED,30MonoWAV/30MonoT4.wav,2,1,4,16,,,,,1,1,17,15,0,9,9,11,,,,,,,,,1,1.7872788249806035,088,001,2019_Aug_28_1625,MusicAffectPsychophysiology2019,3.0.5,59.64677348541479,
To what extent did the music make you feel ,TENDER,30MonoWAV/30MonoT4.wav,2,1,4,16,,,,,1,1,17,15,0,10,10,10,,,,,,,,,3,0.9359795230266172,088,001,2019_Aug_28_1625,MusicAffectPsychophysiology2019,3.0.5,59.64677348541479,
To what extent did the music make you feel ,HAPPY,30MonoWAV/30MonoT4.wav,2,1,4,16,,,,,1,1,17,15,0,11,11,6,,,,,,,,,1,0.58666754301521,088,001,2019_Aug_28_1625,MusicAffectPsychophysiology2019,3.0.5,59.64677348541479,
,,30MonoWAV/30MonoT4.wav,2,1,4,16,,,,,1,1,17,15,,,,,,,,,,,,,,,088,001,2019_Aug_28_1625,MusicAffectPsychophysiology2019,3.0.5,59.64677348541479,
To what extent did the music make you feel ,HAPPY,30MonoWAV/30MonoH1.wav,2,2,1,5,,,,,1,2,18,4,0,0,0,6,,,2,3.2858626149827614,2,1.5531211380148306,1,1.2697539139771834,3,1.1678353890019935,088,001,2019_Aug_28_1625,MusicAffectPsychophysiology2019,3.0.5,59.64677348541479,
To what extent did the music make you feel ,ASHAMED,30MonoWAV/30MonoH1.wav,2,2,1,5,,,,,1,2,18,4,0,1,1,4,,,,,,,,,1,0.7836499820114113,088,001,2019_Aug_28_1625,MusicAffectPsychophysiology2019,3.0.5,59.64677348541479,
To what extent did the music make you feel ,SAD,30MonoWAV/30MonoH1.wav,2,2,1,5,,,,,1,2,18,4,0,2,2,0,,,,,,,,,1,0.7359819159901235,088,001,2019_Aug_28_1625,MusicAffectPsychophysiology2019,3.0.5,59.64677348541479,
To what extent did the music make you feel ,TENDER,30MonoWAV/30MonoH1.wav,2,2,1,5,,,,,1,2,18,4,0,3,3,10,,,,,,,,,2,0.9192066270043142,088,001,2019_Aug_28_1625,MusicAffectPsychophysiology2019,3.0.5,59.64677348541479,
To what extent did the music make you feel ,SCARED,30MonoWAV/30MonoH1.wav,2,2,1,5,,,,,1,2,18,4,0,4,4,11,,,,,,,,,1,0.837181615002919,088,001,2019_Aug_28_1625,MusicAffectPsychophysiology2019,3.0.5,59.64677348541479,
To what extent did the music make you feel ,ACTIVE,30MonoWAV/30MonoH1.wav,2,2,1,5,,,,,1,2,18,4,0,5,5,9,,,,,,,,,4,0.701963920990238,088,001,2019_Aug_28_1625,MusicAffectPsychophysiology2019,3.0.5,59.64677348541479,
To what extent did the music make you feel ,EXCITED,30MonoWAV/30MonoH1.wav,2,2,1,5,,,,,1,2,18,4,0,6,6,7,,,,,,,,,3,1.018740894010989,088,001,2019_Aug_28_1625,MusicAffectPsychophysiology2019,3.0.5,59.64677348541479,
To what extent did the music make you feel ,GUILTY,30MonoWAV/30MonoH1.wav,2,2,1,5,,,,,1,2,18,4,0,7,7,5,,,,,,,,,1,0.8856783640221693,088,001,2019_Aug_28_1625,MusicAffectPsychophysiology2019,3.0.5,59.64677348541479,
To what extent did the music make you feel ,ANGRY,30MonoWAV/30MonoH1.wav,2,2,1,5,,,,,1,2,18,4,0,8,8,2,,,,,,,,,1,0.753373460000148,088,001,2019_Aug_28_1625,MusicAffectPsychophysiology2019,3.0.5,59.64677348541479,
To what extent did the music make you feel ,ALERT,30MonoWAV/30MonoH1.wav,2,2,1,5,,,,,1,2,18,4,0,9,9,8,,,,,,,,,3,0.919301499001449,088,001,2019_Aug_28_1625,MusicAffectPsychophysiology2019,3.0.5,59.64677348541479,
To what extent did the music make you feel ,ANXIOUS ,30MonoWAV/30MonoH1.wav,2,2,1,5,,,,,1,2,18,4,0,10,10,1,,,,,,,,,1,0.7519293969962746,088,001,2019_Aug_28_1625,MusicAffectPsychophysiology2019,3.0.5,59.64677348541479,
To what extent did the music make you feel ,FRUSTRATED,30MonoWAV/30MonoH1.wav,2,2,1,5,,,,,1,2,18,4,0,11,11,3,,,,,,,,,1,0.7838545410195366,088,001,2019_Aug_28_1625,MusicAffectPsychophysiology2019,3.0.5,59.64677348541479,
,,30MonoWAV/30MonoH1.wav,2,2,1,5,,,,,1,2,18,4,,,,,,,,,,,,,,,088,001,2019_Aug_28_1625,MusicAffectPsychophysiology2019,3.0.5,59.64677348541479,
To what extent did the music make you feel ,EXCITED,30MonoWAV/30MonoF4.wav,1,2,2,4,,,,,1,3,19,3,0,0,0,7,,,3,2.836404801986646,1,1.3029253470012918,1,0.7856514110171702,2,1.874941096000839,088,001,2019_Aug_28_1625,MusicAffectPsychophysiology2019,3.0.5,59.64677348541479,
To what extent did the music make you feel ,FRUSTRATED,30MonoWAV/30MonoF4.wav,1,2,2,4,,,,,1,3,19,3,0,1,1,3,,,,,,,,,3,1.0246933790040202,088,001,2019_Aug_28_1625,MusicAffectPsychophysiology2019,3.0.5,59.64677348541479,
To what extent did the music make you feel ,GUILTY,30MonoWAV/30MonoF4.wav,1,2,2,4,,,,,1,3,19,3,0,2,2,5,,,,,,,,,2,0.9510931940167211,088,001,2019_Aug_28_1625,MusicAffectPsychophysiology2019,3.0.5,59.64677348541479,
To what extent did the music make you feel ,TENDER,30MonoWAV/30MonoF4.wav,1,2,2,4,,,,,1,3,19,3,0,3,3,10,,,,,,,,,3,0.7027184219914488,088,001,2019_Aug_28_1625,MusicAffectPsychophysiology2019,3.0.5,59.64677348541479,
To what extent did the music make you feel ,ALERT,30MonoWAV/30MonoF4.wav,1,2,2,4,,,,,1,3,19,3,0,4,4,8,,,,,,,,,4,1.052790065004956,088,001,2019_Aug_28_1625,MusicAffectPsychophysiology2019,3.0.5,59.64677348541479,
To what extent did the music make you feel ,ANGRY,30MonoWAV/30MonoF4.wav,1,2,2,4,,,,,1,3,19,3,0,5,5,2,,,,,,,,,2,1.0547647109779064,088,001,2019_Aug_28_1625,MusicAffectPsychophysiology2019,3.0.5,59.64677348541479,
To what extent did the music make you feel ,SAD,30MonoWAV/30MonoF4.wav,1,2,2,4,,,,,1,3,19,3,0,6,6,0,,,,,,,,,1,1.0537476519821212,088,001,2019_Aug_28_1625,MusicAffectPsychophysiology2019,3.0.5,59.64677348541479,
To what extent did the music make you feel ,HAPPY,30MonoWAV/30MonoF4.wav,1,2,2,4,,,,,1,3,19,3,0,7,7,6,,,,,,,,,1,0.73640352502116,088,001,2019_Aug_28_1625,MusicAffectPsychophysiology2019,3.0.5,59.64677348541479,
To what extent did the music make you feel ,ASHAMED,30MonoWAV/30MonoF4.wav,1,2,2,4,,,,,1,3,19,3,0,8,8,4,,,,,,,,,2,0.9873048199806362,088,001,2019_Aug_28_1625,MusicAffectPsychophysiology2019,3.0.5,59.64677348541479,
To what extent did the music make you feel ,SCARED,30MonoWAV/30MonoF4.wav,1,2,2,4,,,,,1,3,19,3,0,9,9,11,,,,,,,,,1,1.0571044370008167,088,001,2019_Aug_28_1625,MusicAffectPsychophysiology2019,3.0.5,59.64677348541479,
To what extent did the music make you feel ,ANXIOUS ,30MonoWAV/30MonoF4.wav,1,2,2,4,,,,,1,3,19,3,0,10,10,1,,,,,,,,,4,0.9200460709980689,088,001,2019_Aug_28_1625,MusicAffectPsychophysiology2019,3.0.5,59.64677348541479,
To what extent did the music make you feel ,ACTIVE,30MonoWAV/30MonoF4.wav,1,2,2,4,,,,,1,3,19,3,0,11,11,9,,,,,,,,,1,1.9360630740120541,088,001,2019_Aug_28_1625,MusicAffectPsychophysiology2019,3.0.5,59.64677348541479,
,,30MonoWAV/30MonoF4.wav,1,2,2,4,,,,,1,3,19,3,,,,,,,,,,,,,,,088,001,2019_Aug_28_1625,MusicAffectPsychophysiology2019,3.0.5,59.64677348541479,
To what extent did the music make you feel ,HAPPY,30MonoWAV/30MonoF1.wav,1,2,2,1,,,,,1,4,20,0,0,0,0,6,,,2,3.4358397250180133,1,1.302953044010792,1,0.9358881519874558,1,1.0023822110088076,088,001,2019_Aug_28_1625,MusicAffectPsychophysiology2019,3.0.5,59.64677348541479,
To what extent did the music make you feel ,ANXIOUS ,30MonoWAV/30MonoF1.wav,1,2,2,1,,,,,1,4,20,0,0,1,1,1,,,,,,,,,3,1.4356813140038867,088,001,2019_Aug_28_1625,MusicAffectPsychophysiology2019,3.0.5,59.64677348541479,
To what extent did the music make you feel ,ALERT,30MonoWAV/30MonoF1.wav,1,2,2,1,,,,,1,4,20,0,0,2,2,8,,,,,,,,,4,0.9700460770109203,088,001,2019_Aug_28_1625,MusicAffectPsychophysiology2019,3.0.5,59.64677348541479,
To what extent did the music make you feel ,TENDER,30MonoWAV/30MonoF1.wav,1,2,2,1,,,,,1,4,20,0,0,3,3,10,,,,,,,,,2,1.1194660900218878,088,001,2019_Aug_28_1625,MusicAffectPsychophysiology2019,3.0.5,59.64677348541479,
To what extent did the music make you feel ,ASHAMED,30MonoWAV/30MonoF1.wav,1,2,2,1,,,,,1,4,20,0,0,4,4,4,,,,,,,,,2,1.0513555020152126,088,001,2019_Aug_28_1625,MusicAffectPsychophysiology2019,3.0.5,59.64677348541479,
To what extent did the music make you feel ,ACTIVE,30MonoWAV/30MonoF1.wav,1,2,2,1,,,,,1,4,20,0,0,5,5,9,,,,,,,,,1,0.8184617270017043,088,001,2019_Aug_28_1625,MusicAffectPsychophysiology2019,3.0.5,59.64677348541479,
To what extent did the music make you feel ,SCARED,30MonoWAV/30MonoF1.wav,1,2,2,1,,,,,1,4,20,0,0,6,6,11,,,,,,,,,2,1.8705005130032077,088,001,2019_Aug_28_1625,MusicAffectPsychophysiology2019,3.0.5,59.64677348541479,
To what extent did the music make you feel ,EXCITED,30MonoWAV/30MonoF1.wav,1,2,2,1,,,,,1,4,20,0,0,7,7,7,,,,,,,,,1,0.8359609260223806,088,001,2019_Aug_28_1625,MusicAffectPsychophysiology2019,3.0.5,59.64677348541479,
To what extent did the music make you feel ,FRUSTRATED,30MonoWAV/30MonoF1.wav,1,2,2,1,,,,,1,4,20,0,0,8,8,3,,,,,,,,,3,1.0029831420106348,088,001,2019_Aug_28_1625,MusicAffectPsychophysiology2019,3.0.5,59.64677348541479,
To what extent did the music make you feel ,GUILTY,30MonoWAV/30MonoF1.wav,1,2,2,1,,,,,1,4,20,0,0,9,9,5,,,,,,,,,2,0.8350111570034642,088,001,2019_Aug_28_1625,MusicAffectPsychophysiology2019,3.0.5,59.64677348541479,
To what extent did the music make you feel ,ANGRY,30MonoWAV/30MonoF1.wav,1,2,2,1,,,,,1,4,20,0,0,10,10,2,,,,,,,,,4,1.1523915349971503,088,001,2019_Aug_28_1625,MusicAffectPsychophysiology2019,3.0.5,59.64677348541479,
To what extent did the music make you feel ,SAD,30MonoWAV/30MonoF1.wav,1,2,2,1,,,,,1,4,20,0,0,11,11,0,,,,,,,,,1,0.8193012700066902,088,001,2019_Aug_28_1625,MusicAffectPsychophysiology2019,3.0.5,59.64677348541479,
,,30MonoWAV/30MonoF1.wav,1,2,2,1,,,,,1,4,20,0,,,,,,,,,,,,,,,088,001,2019_Aug_28_1625,MusicAffectPsychophysiology2019,3.0.5,59.64677348541479,
To what extent did the music make you feel ,ASHAMED,30MonoWAV/30MonoH3.wav,2,2,1,7,,,,,1,5,21,6,0,0,0,4,,,2,3.0043720999965444,3,1.4693975200061686,2,1.5862563209957443,1,1.1860446180216968,088,001,2019_Aug_28_1625,MusicAffectPsychophysiology2019,3.0.5,59.64677348541479,
To what extent did the music make you feel ,HAPPY,30MonoWAV/30MonoH3.wav,2,2,1,7,,,,,1,5,21,6,0,1,1,6,,,,,,,,,3,0.9359945509932004,088,001,2019_Aug_28_1625,MusicAffectPsychophysiology2019,3.0.5,59.64677348541479,
To what extent did the music make you feel ,SAD,30MonoWAV/30MonoH3.wav,2,2,1,7,,,,,1,5,21,6,0,2,2,0,,,,,,,,,1,0.7702890740183648,088,001,2019_Aug_28_1625,MusicAffectPsychophysiology2019,3.0.5,59.64677348541479,
To what extent did the music make you feel ,ANXIOUS ,30MonoWAV/30MonoH3.wav,2,2,1,7,,,,,1,5,21,6,0,3,3,1,,,,,,,,,1,0.8123665080056526,088,001,2019_Aug_28_1625,MusicAffectPsychophysiology2019,3.0.5,59.64677348541479,
To what extent did the music make you feel ,EXCITED,30MonoWAV/30MonoH3.wav,2,2,1,7,,,,,1,5,21,6,0,4,4,7,,,,,,,,,4,0.8708542370004579,088,001,2019_Aug_28_1625,MusicAffectPsychophysiology2019,3.0.5,59.64677348541479,
To what extent did the music make you feel ,ANGRY,30MonoWAV/30MonoH3.wav,2,2,1,7,,,,,1,5,21,6,0,5,5,2,,,,,,,,,1,0.6187091220053844,088,001,2019_Aug_28_1625,MusicAffectPsychophysiology2019,3.0.5,59.64677348541479,
To what extent did the music make you feel ,FRUSTRATED,30MonoWAV/30MonoH3.wav,2,2,1,7,,,,,1,5,21,6,0,6,6,3,,,,,,,,,1,0.7207238639821298,088,001,2019_Aug_28_1625,MusicAffectPsychophysiology2019,3.0.5,59.64677348541479,
To what extent did the music make you feel ,ALERT,30MonoWAV/30MonoH3.wav,2,2,1,7,,,,,1,5,21,6,0,7,7,8,,,,,,,,,4,1.0028226200083736,088,001,2019_Aug_28_1625,MusicAffectPsychophysiology2019,3.0.5,59.64677348541479,
To what extent did the music make you feel ,GUILTY,30MonoWAV/30MonoH3.wav,2,2,1,7,,,,,1,5,21,6,0,8,8,5,,,,,,,,,1,0.9524683519848622,088,001,2019_Aug_28_1625,MusicAffectPsychophysiology2019,3.0.5,59.64677348541479,
To what extent did the music make you feel ,TENDER,30MonoWAV/30MonoH3.wav,2,2,1,7,,,,,1,5,21,6,0,9,9,10,,,,,,,,,1,1.5031079969776329,088,001,2019_Aug_28_1625,MusicAffectPsychophysiology2019,3.0.5,59.64677348541479,
To what extent did the music make you feel ,ACTIVE,30MonoWAV/30MonoH3.wav,2,2,1,7,,,,,1,5,21,6,0,10,10,9,,,,,,,,,4,1.5834351850207895,088,001,2019_Aug_28_1625,MusicAffectPsychophysiology2019,3.0.5,59.64677348541479,
To what extent did the music make you feel ,SCARED,30MonoWAV/30MonoH3.wav,2,2,1,7,,,,,1,5,21,6,0,11,11,11,,,,,,,,,1,3.0537791539973114,088,001,2019_Aug_28_1625,MusicAffectPsychophysiology2019,3.0.5,59.64677348541479,
,,30MonoWAV/30MonoH3.wav,2,2,1,7,,,,,1,5,21,6,,,,,,,,,,,,,,,088,001,2019_Aug_28_1625,MusicAffectPsychophysiology2019,3.0.5,59.64677348541479,
To what extent did the music make you feel ,ANXIOUS ,30MonoWAV/30MonoH4.wav,2,2,1,8,,,,,1,6,22,7,0,0,0,1,,,2,1.9038794910011347,3,1.2359128080133814,1,1.502182117983466,1,1.1718436109949835,088,001,2019_Aug_28_1625,MusicAffectPsychophysiology2019,3.0.5,59.64677348541479,
To what extent did the music make you feel ,ACTIVE,30MonoWAV/30MonoH4.wav,2,2,1,8,,,,,1,6,22,7,0,1,1,9,,,,,,,,,3,1.5860291470016818,088,001,2019_Aug_28_1625,MusicAffectPsychophysiology2019,3.0.5,59.64677348541479,
To what extent did the music make you feel ,SAD,30MonoWAV/30MonoH4.wav,2,2,1,8,,,,,1,6,22,7,0,2,2,0,,,,,,,,,1,0.782989579020068,088,001,2019_Aug_28_1625,MusicAffectPsychophysiology2019,3.0.5,59.64677348541479,
To what extent did the music make you feel ,HAPPY,30MonoWAV/30MonoH4.wav,2,2,1,8,,,,,1,6,22,7,0,3,3,6,,,,,,,,,4,0.8862032299803104,088,001,2019_Aug_28_1625,MusicAffectPsychophysiology2019,3.0.5,59.64677348541479,
To what extent did the music make you feel ,EXCITED,30MonoWAV/30MonoH4.wav,2,2,1,8,,,,,1,6,22,7,0,4,4,7,,,,,,,,,4,0.8189080530137289,088,001,2019_Aug_28_1625,MusicAffectPsychophysiology2019,3.0.5,59.64677348541479,
To what extent did the music make you feel ,ALERT,30MonoWAV/30MonoH4.wav,2,2,1,8,,,,,1,6,22,7,0,5,5,8,,,,,,,,,3,1.2027943069988396,088,001,2019_Aug_28_1625,MusicAffectPsychophysiology2019,3.0.5,59.64677348541479,
To what extent did the music make you feel ,GUILTY,30MonoWAV/30MonoH4.wav,2,2,1,8,,,,,1,6,22,7,0,6,6,5,,,,,,,,,1,0.8351209069951437,088,001,2019_Aug_28_1625,MusicAffectPsychophysiology2019,3.0.5,59.64677348541479,
To what extent did the music make you feel ,ASHAMED,30MonoWAV/30MonoH4.wav,2,2,1,8,,,,,1,6,22,7,0,7,7,4,,,,,,,,,1,1.5992636230075732,088,001,2019_Aug_28_1625,MusicAffectPsychophysiology2019,3.0.5,59.64677348541479,
To what extent did the music make you feel ,ANGRY,30MonoWAV/30MonoH4.wav,2,2,1,8,,,,,1,6,22,7,0,8,8,2,,,,,,,,,1,0.6186766350001562,088,001,2019_Aug_28_1625,MusicAffectPsychophysiology2019,3.0.5,59.64677348541479,
To what extent did the music make you feel ,SCARED,30MonoWAV/30MonoH4.wav,2,2,1,8,,,,,1,6,22,7,0,9,9,11,,,,,,,,,1,0.5501558799878694,088,001,2019_Aug_28_1625,MusicAffectPsychophysiology2019,3.0.5,59.64677348541479,
To what extent did the music make you feel ,FRUSTRATED,30MonoWAV/30MonoH4.wav,2,2,1,8,,,,,1,6,22,7,0,10,10,3,,,,,,,,,1,0.6191629049717449,088,001,2019_Aug_28_1625,MusicAffectPsychophysiology2019,3.0.5,59.64677348541479,
To what extent did the music make you feel ,TENDER,30MonoWAV/30MonoH4.wav,2,2,1,8,,,,,1,6,22,7,0,11,11,10,,,,,,,,,1,0.6031363120127935,088,001,2019_Aug_28_1625,MusicAffectPsychophysiology2019,3.0.5,59.64677348541479,
,,30MonoWAV/30MonoH4.wav,2,2,1,8,,,,,1,6,22,7,,,,,,,,,,,,,,,088,001,2019_Aug_28_1625,MusicAffectPsychophysiology2019,3.0.5,59.64677348541479,
To what extent did the music make you feel ,ACTIVE,30MonoWAV/30MonoT2.wav,2,1,4,14,,,,,1,7,23,13,0,0,0,9,,,2,3.286794915009523,1,0.9538905920053367,3,1.3025541430106387,1,0.9027281859889627,088,001,2019_Aug_28_1625,MusicAffectPsychophysiology2019,3.0.5,59.64677348541479,
To what extent did the music make you feel ,SCARED,30MonoWAV/30MonoT2.wav,2,1,4,14,,,,,1,7,23,13,0,1,1,11,,,,,,,,,1,0.9346338729956187,088,001,2019_Aug_28_1625,MusicAffectPsychophysiology2019,3.0.5,59.64677348541479,
To what extent did the music make you feel ,ANXIOUS ,30MonoWAV/30MonoT2.wav,2,1,4,14,,,,,1,7,23,13,0,2,2,1,,,,,,,,,2,1.2365480870066676,088,001,2019_Aug_28_1625,MusicAffectPsychophysiology2019,3.0.5,59.64677348541479,
To what extent did the music make you feel ,EXCITED,30MonoWAV/30MonoT2.wav,2,1,4,14,,,,,1,7,23,13,0,3,3,7,,,,,,,,,1,0.7357398260210175,088,001,2019_Aug_28_1625,MusicAffectPsychophysiology2019,3.0.5,59.64677348541479,
To what extent did the music make you feel ,ALERT,30MonoWAV/30MonoT2.wav,2,1,4,14,,,,,1,7,23,13,0,4,4,8,,,,,,,,,2,1.4703903079789598,088,001,2019_Aug_28_1625,MusicAffectPsychophysiology2019,3.0.5,59.64677348541479,
To what extent did the music make you feel ,ASHAMED,30MonoWAV/30MonoT2.wav,2,1,4,14,,,,,1,7,23,13,0,5,5,4,,,,,,,,,3,1.2189029199944343,088,001,2019_Aug_28_1625,MusicAffectPsychophysiology2019,3.0.5,59.64677348541479,
To what extent did the music make you feel ,ANGRY,30MonoWAV/30MonoT2.wav,2,1,4,14,,,,,1,7,23,13,0,6,6,2,,,,,,,,,1,1.0023399610072374,088,001,2019_Aug_28_1625,MusicAffectPsychophysiology2019,3.0.5,59.64677348541479,
To what extent did the music make you feel ,FRUSTRATED,30MonoWAV/30MonoT2.wav,2,1,4,14,,,,,1,7,23,13,0,7,7,3,,,,,,,,,2,1.2137493519985583,088,001,2019_Aug_28_1625,MusicAffectPsychophysiology2019,3.0.5,59.64677348541479,
To what extent did the music make you feel ,HAPPY,30MonoWAV/30MonoT2.wav,2,1,4,14,,,,,1,7,23,13,0,8,8,6,,,,,,,,,3,1.369669353007339,088,001,2019_Aug_28_1625,MusicAffectPsychophysiology2019,3.0.5,59.64677348541479,
To what extent did the music make you feel ,SAD,30MonoWAV/30MonoT2.wav,2,1,4,14,,,,,1,7,23,13,0,9,9,0,,,,,,,,,2,2.134860613005003,088,001,2019_Aug_28_1625,MusicAffectPsychophysiology2019,3.0.5,59.64677348541479,
To what extent did the music make you feel ,GUILTY,30MonoWAV/30MonoT2.wav,2,1,4,14,,,,,1,7,23,13,0,10,10,5,,,,,,,,,2,1.3193035819858778,088,001,2019_Aug_28_1625,MusicAffectPsychophysiology2019,3.0.5,59.64677348541479,
To what extent did the music make you feel ,TENDER,30MonoWAV/30MonoT2.wav,2,1,4,14,,,,,1,7,23,13,0,11,11,10,,,,,,,,,2,1.2530851869960316,088,001,2019_Aug_28_1625,MusicAffectPsychophysiology2019,3.0.5,59.64677348541479,
,,30MonoWAV/30MonoT2.wav,2,1,4,14,,,,,1,7,23,13,,,,,,,,,,,,,,,088,001,2019_Aug_28_1625,MusicAffectPsychophysiology2019,3.0.5,59.64677348541479,
To what extent did the music make you feel ,FRUSTRATED,30MonoWAV/30MonoF3.wav,1,2,2,3,,,,,1,8,24,2,0,0,0,3,,,1,2.069936547020916,1,0.7026870519912336,1,0.8021133680013008,3,1.1754113399947528,088,001,2019_Aug_28_1625,MusicAffectPsychophysiology2019,3.0.5,59.64677348541479,
To what extent did the music make you feel ,ACTIVE,30MonoWAV/30MonoF3.wav,1,2,2,3,,,,,1,8,24,2,0,1,1,9,,,,,,,,,2,1.4530076329829171,088,001,2019_Aug_28_1625,MusicAffectPsychophysiology2019,3.0.5,59.64677348541479,
To what extent did the music make you feel ,TENDER,30MonoWAV/30MonoF3.wav,1,2,2,3,,,,,1,8,24,2,0,2,2,10,,,,,,,,,3,0.8367207410046831,088,001,2019_Aug_28_1625,MusicAffectPsychophysiology2019,3.0.5,59.64677348541479,
To what extent did the music make you feel ,EXCITED,30MonoWAV/30MonoF3.wav,1,2,2,3,,,,,1,8,24,2,0,3,3,7,,,,,,,,,4,1.0693710210034624,088,001,2019_Aug_28_1625,MusicAffectPsychophysiology2019,3.0.5,59.64677348541479,
To what extent did the music make you feel ,GUILTY,30MonoWAV/30MonoF3.wav,1,2,2,3,,,,,1,8,24,2,0,4,4,5,,,,,,,,,1,1.218798059009714,088,001,2019_Aug_28_1625,MusicAffectPsychophysiology2019,3.0.5,59.64677348541479,
To what extent did the music make you feel ,SCARED,30MonoWAV/30MonoF3.wav,1,2,2,3,,,,,1,8,24,2,0,5,5,11,,,,,,,,,1,0.8695025659981184,088,001,2019_Aug_28_1625,MusicAffectPsychophysiology2019,3.0.5,59.64677348541479,
To what extent did the music make you feel ,SAD,30MonoWAV/30MonoF3.wav,1,2,2,3,,,,,1,8,24,2,0,6,6,0,,,,,,,,,1,1.1191939850104973,088,001,2019_Aug_28_1625,MusicAffectPsychophysiology2019,3.0.5,59.64677348541479,
To what extent did the music make you feel ,ASHAMED,30MonoWAV/30MonoF3.wav,1,2,2,3,,,,,1,8,24,2,0,7,7,4,,,,,,,,,1,1.269923779007513,088,001,2019_Aug_28_1625,MusicAffectPsychophysiology2019,3.0.5,59.64677348541479,
To what extent did the music make you feel ,HAPPY,30MonoWAV/30MonoF3.wav,1,2,2,3,,,,,1,8,24,2,0,8,8,6,,,,,,,,,1,0.6694303020194639,088,001,2019_Aug_28_1625,MusicAffectPsychophysiology2019,3.0.5,59.64677348541479,
To what extent did the music make you feel ,ANGRY,30MonoWAV/30MonoF3.wav,1,2,2,3,,,,,1,8,24,2,0,9,9,2,,,,,,,,,1,0.7698051990009844,088,001,2019_Aug_28_1625,MusicAffectPsychophysiology2019,3.0.5,59.64677348541479,
To what extent did the music make you feel ,ALERT,30MonoWAV/30MonoF3.wav,1,2,2,3,,,,,1,8,24,2,0,10,10,8,,,,,,,,,4,0.9841015609854367,088,001,2019_Aug_28_1625,MusicAffectPsychophysiology2019,3.0.5,59.64677348541479,
To what extent did the music make you feel ,ANXIOUS ,30MonoWAV/30MonoF3.wav,1,2,2,3,,,,,1,8,24,2,0,11,11,1,,,,,,,,,3,0.8873583530075848,088,001,2019_Aug_28_1625,MusicAffectPsychophysiology2019,3.0.5,59.64677348541479,
,,30MonoWAV/30MonoF3.wav,1,2,2,3,,,,,1,8,24,2,,,,,,,,,,,,,,,088,001,2019_Aug_28_1625,MusicAffectPsychophysiology2019,3.0.5,59.64677348541479,
To what extent did the music make you feel ,SCARED,30MonoWAV/30MonoF2.wav,1,2,2,2,,,,,1,9,25,1,0,0,0,11,,,2,4.052626710996265,1,0.7698409229924437,1,0.9669084520137403,4,1.1699740100011695,088,001,2019_Aug_28_1625,MusicAffectPsychophysiology2019,3.0.5,59.64677348541479,
To what extent did the music make you feel ,ANGRY,30MonoWAV/30MonoF2.wav,1,2,2,2,,,,,1,9,25,1,0,1,1,2,,,,,,,,,2,1.1694150689872913,088,001,2019_Aug_28_1625,MusicAffectPsychophysiology2019,3.0.5,59.64677348541479,
To what extent did the music make you feel ,HAPPY,30MonoWAV/30MonoF2.wav,1,2,2,2,,,,,1,9,25,1,0,2,2,6,,,,,,,,,1,0.585990685998695,088,001,2019_Aug_28_1625,MusicAffectPsychophysiology2019,3.0.5,59.64677348541479,
To what extent did the music make you feel ,ANXIOUS ,30MonoWAV/30MonoF2.wav,1,2,2,2,,,,,1,9,25,1,0,3,3,1,,,,,,,,,4,1.15325905897771,088,001,2019_Aug_28_1625,MusicAffectPsychophysiology2019,3.0.5,59.64677348541479,
To what extent did the music make you feel ,ACTIVE,30MonoWAV/30MonoF2.wav,1,2,2,2,,,,,1,9,25,1,0,4,4,9,,,,,,,,,1,0.7662619900074787,088,001,2019_Aug_28_1625,MusicAffectPsychophysiology2019,3.0.5,59.64677348541479,
To what extent did the music make you feel ,ASHAMED,30MonoWAV/30MonoF2.wav,1,2,2,2,,,,,1,9,25,1,0,5,5,4,,,,,,,,,2,1.1203131339862011,088,001,2019_Aug_28_1625,MusicAffectPsychophysiology2019,3.0.5,59.64677348541479,
To what extent did the music make you feel ,FRUSTRATED,30MonoWAV/30MonoF2.wav,1,2,2,2,,,,,1,9,25,1,0,6,6,3,,,,,,,,,4,1.1857871529937256,088,001,2019_Aug_28_1625,MusicAffectPsychophysiology2019,3.0.5,59.64677348541479,
To what extent did the music make you feel ,ALERT,30MonoWAV/30MonoF2.wav,1,2,2,2,,,,,1,9,25,1,0,7,7,8,,,,,,,,,3,1.2168391910090577,088,001,2019_Aug_28_1625,MusicAffectPsychophysiology2019,3.0.5,59.64677348541479,
To what extent did the music make you feel ,GUILTY,30MonoWAV/30MonoF2.wav,1,2,2,2,,,,,1,9,25,1,0,8,8,5,,,,,,,,,1,1.169090256007621,088,001,2019_Aug_28_1625,MusicAffectPsychophysiology2019,3.0.5,59.64677348541479,
To what extent did the music make you feel ,SAD,30MonoWAV/30MonoF2.wav,1,2,2,2,,,,,1,9,25,1,0,9,9,0,,,,,,,,,1,1.016453421994811,088,001,2019_Aug_28_1625,MusicAffectPsychophysiology2019,3.0.5,59.64677348541479,
To what extent did the music make you feel ,EXCITED,30MonoWAV/30MonoF2.wav,1,2,2,2,,,,,1,9,25,1,0,10,10,7,,,,,,,,,1,0.7367947220045608,088,001,2019_Aug_28_1625,MusicAffectPsychophysiology2019,3.0.5,59.64677348541479,
To what extent did the music make you feel ,TENDER,30MonoWAV/30MonoF2.wav,1,2,2,2,,,,,1,9,25,1,0,11,11,10,,,,,,,,,3,1.1028241299791262,088,001,2019_Aug_28_1625,MusicAffectPsychophysiology2019,3.0.5,59.64677348541479,
,,30MonoWAV/30MonoF2.wav,1,2,2,2,,,,,1,9,25,1,,,,,,,,,,,,,,,088,001,2019_Aug_28_1625,MusicAffectPsychophysiology2019,3.0.5,59.64677348541479,
To what extent did the music make you feel ,ANGRY,30MonoWAV/30MonoS4.wav,1,1,3,12,,,,,1,10,26,11,0,0,0,2,,,2,4.016077804000815,1,0.7205028419848531,1,0.7368835090019275,1,0.754096167976968,088,001,2019_Aug_28_1625,MusicAffectPsychophysiology2019,3.0.5,59.64677348541479,
To what extent did the music make you feel ,SCARED,30MonoWAV/30MonoS4.wav,1,1,3,12,,,,,1,10,26,11,0,1,1,11,,,,,,,,,1,0.7461956939951051,088,001,2019_Aug_28_1625,MusicAffectPsychophysiology2019,3.0.5,59.64677348541479,
To what extent did the music make you feel ,GUILTY,30MonoWAV/30MonoS4.wav,1,1,3,12,,,,,1,10,26,11,0,2,2,5,,,,,,,,,2,0.886583943007281,088,001,2019_Aug_28_1625,MusicAffectPsychophysiology2019,3.0.5,59.64677348541479,
To what extent did the music make you feel ,EXCITED,30MonoWAV/30MonoS4.wav,1,1,3,12,,,,,1,10,26,11,0,3,3,7,,,,,,,,,1,0.6610286030045245,088,001,2019_Aug_28_1625,MusicAffectPsychophysiology2019,3.0.5,59.64677348541479,
To what extent did the music make you feel ,ANXIOUS ,30MonoWAV/30MonoS4.wav,1,1,3,12,,,,,1,10,26,11,0,4,4,1,,,,,,,,,3,0.8693159369868226,088,001,2019_Aug_28_1625,MusicAffectPsychophysiology2019,3.0.5,59.64677348541479,
To what extent did the music make you feel ,ALERT,30MonoWAV/30MonoS4.wav,1,1,3,12,,,,,1,10,26,11,0,5,5,8,,,,,,,,,1,1.0540909520059358,088,001,2019_Aug_28_1625,MusicAffectPsychophysiology2019,3.0.5,59.64677348541479,
To what extent did the music make you feel ,SAD,30MonoWAV/30MonoS4.wav,1,1,3,12,,,,,1,10,26,11,0,6,6,0,,,,,,,,,2,1.2688719089783262,088,001,2019_Aug_28_1625,MusicAffectPsychophysiology2019,3.0.5,59.64677348541479,
To what extent did the music make you feel ,ACTIVE,30MonoWAV/30MonoS4.wav,1,1,3,12,,,,,1,10,26,11,0,7,7,9,,,,,,,,,1,0.7198725159978494,088,001,2019_Aug_28_1625,MusicAffectPsychophysiology2019,3.0.5,59.64677348541479,
To what extent did the music make you feel ,TENDER,30MonoWAV/30MonoS4.wav,1,1,3,12,,,,,1,10,26,11,0,8,8,10,,,,,,,,,2,1.101799106982071,088,001,2019_Aug_28_1625,MusicAffectPsychophysiology2019,3.0.5,59.64677348541479,
To what extent did the music make you feel ,FRUSTRATED,30MonoWAV/30MonoS4.wav,1,1,3,12,,,,,1,10,26,11,0,9,9,3,,,,,,,,,4,1.1011814869998489,088,001,2019_Aug_28_1625,MusicAffectPsychophysiology2019,3.0.5,59.64677348541479,
To what extent did the music make you feel ,HAPPY,30MonoWAV/30MonoS4.wav,1,1,3,12,,,,,1,10,26,11,0,10,10,6,,,,,,,,,1,0.7863755550060887,088,001,2019_Aug_28_1625,MusicAffectPsychophysiology2019,3.0.5,59.64677348541479,
To what extent did the music make you feel ,ASHAMED,30MonoWAV/30MonoS4.wav,1,1,3,12,,,,,1,10,26,11,0,11,11,4,,,,,,,,,1,0.7673649409844074,088,001,2019_Aug_28_1625,MusicAffectPsychophysiology2019,3.0.5,59.64677348541479,
,,30MonoWAV/30MonoS4.wav,1,1,3,12,,,,,1,10,26,11,,,,,,,,,,,,,,,088,001,2019_Aug_28_1625,MusicAffectPsychophysiology2019,3.0.5,59.64677348541479,
To what extent did the music make you feel ,GUILTY,30MonoWAV/30MonoS1.wav,1,1,3,9,,,,,1,11,27,8,0,0,0,5,,,1,1.6529579710040707,1,0.6857684270071331,1,0.9205097630037926,2,1.0999746049928945,088,001,2019_Aug_28_1625,MusicAffectPsychophysiology2019,3.0.5,59.64677348541479,
To what extent did the music make you feel ,HAPPY,30MonoWAV/30MonoS1.wav,1,1,3,9,,,,,1,11,27,8,0,1,1,6,,,,,,,,,1,0.5523610789969098,088,001,2019_Aug_28_1625,MusicAffectPsychophysiology2019,3.0.5,59.64677348541479,
To what extent did the music make you feel ,ALERT,30MonoWAV/30MonoS1.wav,1,1,3,9,,,,,1,11,27,8,0,2,2,8,,,,,,,,,1,0.9080934750090819,088,001,2019_Aug_28_1625,MusicAffectPsychophysiology2019,3.0.5,59.64677348541479,
To what extent did the music make you feel ,EXCITED,30MonoWAV/30MonoS1.wav,1,1,3,9,,,,,1,11,27,8,0,3,3,7,,,,,,,,,2,0.9059899290150497,088,001,2019_Aug_28_1625,MusicAffectPsychophysiology2019,3.0.5,59.64677348541479,
To what extent did the music make you feel ,ANXIOUS ,30MonoWAV/30MonoS1.wav,1,1,3,9,,,,,1,11,27,8,0,4,4,1,,,,,,,,,3,1.434557856991887,088,001,2019_Aug_28_1625,MusicAffectPsychophysiology2019,3.0.5,59.64677348541479,
To what extent did the music make you feel ,ASHAMED,30MonoWAV/30MonoS1.wav,1,1,3,9,,,,,1,11,27,8,0,5,5,4,,,,,,,,,2,1.3357292699802201,088,001,2019_Aug_28_1625,MusicAffectPsychophysiology2019,3.0.5,59.64677348541479,
To what extent did the music make you feel ,ACTIVE,30MonoWAV/30MonoS1.wav,1,1,3,9,,,,,1,11,27,8,0,6,6,9,,,,,,,,,1,1.185843004990602,088,001,2019_Aug_28_1625,MusicAffectPsychophysiology2019,3.0.5,59.64677348541479,
To what extent did the music make you feel ,ANGRY,30MonoWAV/30MonoS1.wav,1,1,3,9,,,,,1,11,27,8,0,7,7,2,,,,,,,,,1,0.852514421014348,088,001,2019_Aug_28_1625,MusicAffectPsychophysiology2019,3.0.5,59.64677348541479,
To what extent did the music make you feel ,SAD,30MonoWAV/30MonoS1.wav,1,1,3,9,,,,,1,11,27,8,0,8,8,0,,,,,,,,,2,0.853358977008611,088,001,2019_Aug_28_1625,MusicAffectPsychophysiology2019,3.0.5,59.64677348541479,
To what extent did the music make you feel ,SCARED,30MonoWAV/30MonoS1.wav,1,1,3,9,,,,,1,11,27,8,0,9,9,11,,,,,,,,,1,2.8371538519859314,088,001,2019_Aug_28_1625,MusicAffectPsychophysiology2019,3.0.5,59.64677348541479,
To what extent did the music make you feel ,TENDER,30MonoWAV/30MonoS1.wav,1,1,3,9,,,,,1,11,27,8,0,10,10,10,,,,,,,,,3,1.119097328017233,088,001,2019_Aug_28_1625,MusicAffectPsychophysiology2019,3.0.5,59.64677348541479,
To what extent did the music make you feel ,FRUSTRATED,30MonoWAV/30MonoS1.wav,1,1,3,9,,,,,1,11,27,8,0,11,11,3,,,,,,,,,4,1.105215714982478,088,001,2019_Aug_28_1625,MusicAffectPsychophysiology2019,3.0.5,59.64677348541479,
,,30MonoWAV/30MonoS1.wav,1,1,3,9,,,,,1,11,27,8,,,,,,,,,,,,,,,088,001,2019_Aug_28_1625,MusicAffectPsychophysiology2019,3.0.5,59.64677348541479,
To what extent did the music make you feel ,FRUSTRATED,30MonoWAV/30MonoT1.wav,2,1,4,13,,,,,1,12,28,12,0,0,0,3,,,1,3.451467505976325,1,0.8853737149911467,1,1.453169312007958,3,1.103187081986107,088,001,2019_Aug_28_1625,MusicAffectPsychophysiology2019,3.0.5,59.64677348541479,
To what extent did the music make you feel ,ASHAMED,30MonoWAV/30MonoT1.wav,2,1,4,13,,,,,1,12,28,12,0,1,1,4,,,,,,,,,1,1.5533591269922908,088,001,2019_Aug_28_1625,MusicAffectPsychophysiology2019,3.0.5,59.64677348541479,
To what extent did the music make you feel ,ALERT,30MonoWAV/30MonoT1.wav,2,1,4,13,,,,,1,12,28,12,0,2,2,8,,,,,,,,,1,0.7524370960018132,088,001,2019_Aug_28_1625,MusicAffectPsychophysiology2019,3.0.5,59.64677348541479,
To what extent did the music make you feel ,ANGRY,30MonoWAV/30MonoT1.wav,2,1,4,13,,,,,1,12,28,12,0,3,3,2,,,,,,,,,1,0.7362089509842917,088,001,2019_Aug_28_1625,MusicAffectPsychophysiology2019,3.0.5,59.64677348541479,
To what extent did the music make you feel ,SCARED,30MonoWAV/30MonoT1.wav,2,1,4,13,,,,,1,12,28,12,0,4,4,11,,,,,,,,,1,0.9028931230132002,088,001,2019_Aug_28_1625,MusicAffectPsychophysiology2019,3.0.5,59.64677348541479,
To what extent did the music make you feel ,HAPPY,30MonoWAV/30MonoT1.wav,2,1,4,13,,,,,1,12,28,12,0,5,5,6,,,,,,,,,2,2.7854429579747375,088,001,2019_Aug_28_1625,MusicAffectPsychophysiology2019,3.0.5,59.64677348541479,
To what extent did the music make you feel ,TENDER,30MonoWAV/30MonoT1.wav,2,1,4,13,,,,,1,12,28,12,0,6,6,10,,,,,,,,,3,2.654223040997749,088,001,2019_Aug_28_1625,MusicAffectPsychophysiology2019,3.0.5,59.64677348541479,
To what extent did the music make you feel ,SAD,30MonoWAV/30MonoT1.wav,2,1,4,13,,,,,1,12,28,12,0,7,7,0,,,,,,,,,1,1.5517818450171035,088,001,2019_Aug_28_1625,MusicAffectPsychophysiology2019,3.0.5,59.64677348541479,
To what extent did the music make you feel ,ACTIVE,30MonoWAV/30MonoT1.wav,2,1,4,13,,,,,1,12,28,12,0,8,8,9,,,,,,,,,1,0.8178526520205196,088,001,2019_Aug_28_1625,MusicAffectPsychophysiology2019,3.0.5,59.64677348541479,
To what extent did the music make you feel ,EXCITED,30MonoWAV/30MonoT1.wav,2,1,4,13,,,,,1,12,28,12,0,9,9,7,,,,,,,,,1,0.7502180339943152,088,001,2019_Aug_28_1625,MusicAffectPsychophysiology2019,3.0.5,59.64677348541479,
To what extent did the music make you feel ,ANXIOUS ,30MonoWAV/30MonoT1.wav,2,1,4,13,,,,,1,12,28,12,0,10,10,1,,,,,,,,,1,1.0870220809883904,088,001,2019_Aug_28_1625,MusicAffectPsychophysiology2019,3.0.5,59.64677348541479,
To what extent did the music make you feel ,GUILTY,30MonoWAV/30MonoT1.wav,2,1,4,13,,,,,1,12,28,12,0,11,11,5,,,,,,,,,1,0.9880251990107354,088,001,2019_Aug_28_1625,MusicAffectPsychophysiology2019,3.0.5,59.64677348541479,
,,30MonoWAV/30MonoT1.wav,2,1,4,13,,,,,1,12,28,12,,,,,,,,,,,,,,,088,001,2019_Aug_28_1625,MusicAffectPsychophysiology2019,3.0.5,59.64677348541479,
To what extent did the music make you feel ,SCARED,30MonoWAV/30MonoS3.wav,1,1,3,11,,,,,1,13,29,10,0,0,0,11,,,1,2.0356581679952797,1,0.7013043049955741,1,3.8520952980034053,2,0.9579694599960931,088,001,2019_Aug_28_1625,MusicAffectPsychophysiology2019,3.0.5,59.64677348541479,
To what extent did the music make you feel ,SAD,30MonoWAV/30MonoS3.wav,1,1,3,11,,,,,1,13,29,10,0,1,1,0,,,,,,,,,3,0.9845384219952393,088,001,2019_Aug_28_1625,MusicAffectPsychophysiology2019,3.0.5,59.64677348541479,
To what extent did the music make you feel ,ALERT,30MonoWAV/30MonoS3.wav,1,1,3,11,,,,,1,13,29,10,0,2,2,8,,,,,,,,,3,0.9671575730026234,088,001,2019_Aug_28_1625,MusicAffectPsychophysiology2019,3.0.5,59.64677348541479,
To what extent did the music make you feel ,GUILTY,30MonoWAV/30MonoS3.wav,1,1,3,11,,,,,1,13,29,10,0,3,3,5,,,,,,,,,3,1.1994216160092037,088,001,2019_Aug_28_1625,MusicAffectPsychophysiology2019,3.0.5,59.64677348541479,
To what extent did the music make you feel ,HAPPY,30MonoWAV/30MonoS3.wav,1,1,3,11,,,,,1,13,29,10,0,4,4,6,,,,,,,,,1,1.3859974420047365,088,001,2019_Aug_28_1625,MusicAffectPsychophysiology2019,3.0.5,59.64677348541479,
To what extent did the music make you feel ,TENDER,30MonoWAV/30MonoS3.wav,1,1,3,11,,,,,1,13,29,10,0,5,5,10,,,,,,,,,3,0.7925195019925013,088,001,2019_Aug_28_1625,MusicAffectPsychophysiology2019,3.0.5,59.64677348541479,
To what extent did the music make you feel ,ANGRY,30MonoWAV/30MonoS3.wav,1,1,3,11,,,,,1,13,29,10,0,6,6,2,,,,,,,,,1,0.8360901009873487,088,001,2019_Aug_28_1625,MusicAffectPsychophysiology2019,3.0.5,59.64677348541479,
To what extent did the music make you feel ,ANXIOUS ,30MonoWAV/30MonoS3.wav,1,1,3,11,,,,,1,13,29,10,0,7,7,1,,,,,,,,,4,0.7030321600032039,088,001,2019_Aug_28_1625,MusicAffectPsychophysiology2019,3.0.5,59.64677348541479,
To what extent did the music make you feel ,FRUSTRATED,30MonoWAV/30MonoS3.wav,1,1,3,11,,,,,1,13,29,10,0,8,8,3,,,,,,,,,4,0.7426943789760116,088,001,2019_Aug_28_1625,MusicAffectPsychophysiology2019,3.0.5,59.64677348541479,
To what extent did the music make you feel ,ASHAMED,30MonoWAV/30MonoS3.wav,1,1,3,11,,,,,1,13,29,10,0,9,9,4,,,,,,,,,4,1.4498653179907706,088,001,2019_Aug_28_1625,MusicAffectPsychophysiology2019,3.0.5,59.64677348541479,
To what extent did the music make you feel ,ACTIVE,30MonoWAV/30MonoS3.wav,1,1,3,11,,,,,1,13,29,10,0,10,10,9,,,,,,,,,1,0.8025486810074653,088,001,2019_Aug_28_1625,MusicAffectPsychophysiology2019,3.0.5,59.64677348541479,
To what extent did the music make you feel ,EXCITED,30MonoWAV/30MonoS3.wav,1,1,3,11,,,,,1,13,29,10,0,11,11,7,,,,,,,,,1,0.635943353001494,088,001,2019_Aug_28_1625,MusicAffectPsychophysiology2019,3.0.5,59.64677348541479,
,,30MonoWAV/30MonoS3.wav,1,1,3,11,,,,,1,13,29,10,,,,,,,,,,,,,,,088,001,2019_Aug_28_1625,MusicAffectPsychophysiology2019,3.0.5,59.64677348541479,
To what extent did the music make you feel ,HAPPY,30MonoWAV/30MonoH2.wav,2,2,1,6,,,,,1,14,30,5,0,0,0,6,,,2,5.619687208993128,1,0.6863445570052136,1,1.9692497189971618,2,1.6191362399840727,088,001,2019_Aug_28_1625,MusicAffectPsychophysiology2019,3.0.5,59.64677348541479,
To what extent did the music make you feel ,ALERT,30MonoWAV/30MonoH2.wav,2,2,1,6,,,,,1,14,30,5,0,1,1,8,,,,,,,,,3,0.833655161986826,088,001,2019_Aug_28_1625,MusicAffectPsychophysiology2019,3.0.5,59.64677348541479,
To what extent did the music make you feel ,SCARED,30MonoWAV/30MonoH2.wav,2,2,1,6,,,,,1,14,30,5,0,2,2,11,,,,,,,,,1,1.1698748740018345,088,001,2019_Aug_28_1625,MusicAffectPsychophysiology2019,3.0.5,59.64677348541479,
To what extent did the music make you feel ,SAD,30MonoWAV/30MonoH2.wav,2,2,1,6,,,,,1,14,30,5,0,3,3,0,,,,,,,,,1,2.069943309004884,088,001,2019_Aug_28_1625,MusicAffectPsychophysiology2019,3.0.5,59.64677348541479,
To what extent did the music make you feel ,EXCITED,30MonoWAV/30MonoH2.wav,2,2,1,6,,,,,1,14,30,5,0,4,4,7,,,,,,,,,3,1.5334440649894532,088,001,2019_Aug_28_1625,MusicAffectPsychophysiology2019,3.0.5,59.64677348541479,
To what extent did the music make you feel ,TENDER,30MonoWAV/30MonoH2.wav,2,2,1,6,,,,,1,14,30,5,0,5,5,10,,,,,,,,,1,0.7203607579867821,088,001,2019_Aug_28_1625,MusicAffectPsychophysiology2019,3.0.5,59.64677348541479,
To what extent did the music make you feel ,ASHAMED,30MonoWAV/30MonoH2.wav,2,2,1,6,,,,,1,14,30,5,0,6,6,4,,,,,,,,,1,1.2021200550079811,088,001,2019_Aug_28_1625,MusicAffectPsychophysiology2019,3.0.5,59.64677348541479,
To what extent did the music make you feel ,GUILTY,30MonoWAV/30MonoH2.wav,2,2,1,6,,,,,1,14,30,5,0,7,7,5,,,,,,,,,1,0.8017213870189153,088,001,2019_Aug_28_1625,MusicAffectPsychophysiology2019,3.0.5,59.64677348541479,
To what extent did the music make you feel ,FRUSTRATED,30MonoWAV/30MonoH2.wav,2,2,1,6,,,,,1,14,30,5,0,8,8,3,,,,,,,,,1,0.6666603189951275,088,001,2019_Aug_28_1625,MusicAffectPsychophysiology2019,3.0.5,59.64677348541479,
To what extent did the music make you feel ,ANXIOUS ,30MonoWAV/30MonoH2.wav,2,2,1,6,,,,,1,14,30,5,0,9,9,1,,,,,,,,,2,1.2359811209898908,088,001,2019_Aug_28_1625,MusicAffectPsychophysiology2019,3.0.5,59.64677348541479,
To what extent did the music make you feel ,ACTIVE,30MonoWAV/30MonoH2.wav,2,2,1,6,,,,,1,14,30,5,0,10,10,9,,,,,,,,,4,1.5021631590207107,088,001,2019_Aug_28_1625,MusicAffectPsychophysiology2019,3.0.5,59.64677348541479,
To what extent did the music make you feel ,ANGRY,30MonoWAV/30MonoH2.wav,2,2,1,6,,,,,1,14,30,5,0,11,11,2,,,,,,,,,1,0.6200607109931298,088,001,2019_Aug_28_1625,MusicAffectPsychophysiology2019,3.0.5,59.64677348541479,
,,30MonoWAV/30MonoH2.wav,2,2,1,6,,,,,1,14,30,5,,,,,,,,,,,,,,,088,001,2019_Aug_28_1625,MusicAffectPsychophysiology2019,3.0.5,59.64677348541479,
To what extent did the music make you feel ,ALERT,30MonoWAV/30MonoS2.wav,1,1,3,10,,,,,1,15,31,9,0,0,0,8,,,1,1.4188938419974875,1,1.5526333969901316,1,1.9698113540071063,1,1.0019106969994027,088,001,2019_Aug_28_1625,MusicAffectPsychophysiology2019,3.0.5,59.64677348541479,
To what extent did the music make you feel ,HAPPY,30MonoWAV/30MonoS2.wav,1,1,3,10,,,,,1,15,31,9,0,1,1,6,,,,,,,,,1,0.8335016240016557,088,001,2019_Aug_28_1625,MusicAffectPsychophysiology2019,3.0.5,59.64677348541479,
To what extent did the music make you feel ,ACTIVE,30MonoWAV/30MonoS2.wav,1,1,3,10,,,,,1,15,31,9,0,2,2,9,,,,,,,,,1,0.7523113159986679,088,001,2019_Aug_28_1625,MusicAffectPsychophysiology2019,3.0.5,59.64677348541479,
To what extent did the music make you feel ,EXCITED,30MonoWAV/30MonoS2.wav,1,1,3,10,,,,,1,15,31,9,0,3,3,7,,,,,,,,,1,0.7529523509729188,088,001,2019_Aug_28_1625,MusicAffectPsychophysiology2019,3.0.5,59.64677348541479,
To what extent did the music make you feel ,SAD,30MonoWAV/30MonoS2.wav,1,1,3,10,,,,,1,15,31,9,0,4,4,0,,,,,,,,,3,1.353202696016524,088,001,2019_Aug_28_1625,MusicAffectPsychophysiology2019,3.0.5,59.64677348541479,
To what extent did the music make you feel ,TENDER,30MonoWAV/30MonoS2.wav,1,1,3,10,,,,,1,15,31,9,0,5,5,10,,,,,,,,,3,0.7370521440170705,088,001,2019_Aug_28_1625,MusicAffectPsychophysiology2019,3.0.5,59.64677348541479,
To what extent did the music make you feel ,ASHAMED,30MonoWAV/30MonoS2.wav,1,1,3,10,,,,,1,15,31,9,0,6,6,4,,,,,,,,,2,1.002281088003656,088,001,2019_Aug_28_1625,MusicAffectPsychophysiology2019,3.0.5,59.64677348541479,
To what extent did the music make you feel ,FRUSTRATED,30MonoWAV/30MonoS2.wav,1,1,3,10,,,,,1,15,31,9,0,7,7,3,,,,,,,,,4,0.7275358799961396,088,001,2019_Aug_28_1625,MusicAffectPsychophysiology2019,3.0.5,59.64677348541479,
To what extent did the music make you feel ,GUILTY,30MonoWAV/30MonoS2.wav,1,1,3,10,,,,,1,15,31,9,0,8,8,5,,,,,,,,,4,1.1855125880101696,088,001,2019_Aug_28_1625,MusicAffectPsychophysiology2019,3.0.5,59.64677348541479,
To what extent did the music make you feel ,SCARED,30MonoWAV/30MonoS2.wav,1,1,3,10,,,,,1,15,31,9,0,9,9,11,,,,,,,,,1,1.7840231620066334,088,001,2019_Aug_28_1625,MusicAffectPsychophysiology2019,3.0.5,59.64677348541479,
To what extent did the music make you feel ,ANGRY,30MonoWAV/30MonoS2.wav,1,1,3,10,,,,,1,15,31,9,0,10,10,2,,,,,,,,,1,1.318520154018188,088,001,2019_Aug_28_1625,MusicAffectPsychophysiology2019,3.0.5,59.64677348541479,
To what extent did the music make you feel ,ANXIOUS ,30MonoWAV/30MonoS2.wav,1,1,3,10,,,,,1,15,31,9,0,11,11,1,,,,,,,,,4,0.8704379379923921,088,001,2019_Aug_28_1625,MusicAffectPsychophysiology2019,3.0.5,59.64677348541479,
,,30MonoWAV/30MonoS2.wav,1,1,3,10,,,,,1,15,31,9,,,,,,,,,,,,,,,088,001,2019_Aug_28_1625,MusicAffectPsychophysiology2019,3.0.5,59.64677348541479,
