Instruction,Word,song,valence,arousal,affectcat,songmark,pracwords.thisRepN,pracwords.thisTrialN,pracwords.thisN,pracwords.thisIndex,songtrials.thisRepN,songtrials.thisTrialN,songtrials.thisN,songtrials.thisIndex,words.thisRepN,words.thisTrialN,words.thisN,words.thisIndex,begin.keys,begin.rt,arousalkey.keys,arousalkey.rt,valencekey.keys,valencekey.rt,likekey.keys,likekey.rt,WordResponse.keys,WordResponse.rt,participant,session,date,expName,psychopyVersion,frameRate,
,,,,,,,,,,,,,,,,,,,return,12.119210222008405,,,,,,,,,089,001,2019_Aug_29_0913,MusicAffectPsychophysiology2019,3.0.5,60.007318496595744,
,,,,,,,,,,,,,,,,,,,,,3,5.88931050201063,,,,,,,089,001,2019_Aug_29_0913,MusicAffectPsychophysiology2019,3.0.5,60.007318496595744,
,,,,,,,,,,,,,,,,,,,,,,,3,7.05267849098891,,,,,089,001,2019_Aug_29_0913,MusicAffectPsychophysiology2019,3.0.5,60.007318496595744,
,,,,,,,,,,,,,,,,,,,,,,,,,4,3.786291487980634,,,089,001,2019_Aug_29_0913,MusicAffectPsychophysiology2019,3.0.5,60.007318496595744,
To what extent did the music make you feel ,TENDER,,,,,,0,0,0,10,,,,,,,,,,,,,,,,,3,6.346047551982338,089,001,2019_Aug_29_0913,MusicAffectPsychophysiology2019,3.0.5,60.007318496595744,
To what extent did the music make you feel ,FRUSTRATED,,,,,,0,1,1,3,,,,,,,,,,,,,,,,,1,1.9601112290110905,089,001,2019_Aug_29_0913,MusicAffectPsychophysiology2019,3.0.5,60.007318496595744,
To what extent did the music make you feel ,GUILTY,,,,,,0,2,2,5,,,,,,,,,,,,,,,,,1,1.2529223930032458,089,001,2019_Aug_29_0913,MusicAffectPsychophysiology2019,3.0.5,60.007318496595744,
To what extent did the music make you feel ,ANXIOUS ,,,,,,0,3,3,1,,,,,,,,,,,,,,,,,1,1.8643267299921717,089,001,2019_Aug_29_0913,MusicAffectPsychophysiology2019,3.0.5,60.007318496595744,
To what extent did the music make you feel ,SAD,,,,,,0,4,4,0,,,,,,,,,,,,,,,,,4,1.6097631579905283,089,001,2019_Aug_29_0913,MusicAffectPsychophysiology2019,3.0.5,60.007318496595744,
To what extent did the music make you feel ,ANGRY,,,,,,0,5,5,2,,,,,,,,,,,,,,,,,1,1.2356598330079578,089,001,2019_Aug_29_0913,MusicAffectPsychophysiology2019,3.0.5,60.007318496595744,
To what extent did the music make you feel ,ACTIVE,,,,,,0,6,6,9,,,,,,,,,,,,,,,,,2,1.9832684269931633,089,001,2019_Aug_29_0913,MusicAffectPsychophysiology2019,3.0.5,60.007318496595744,
To what extent did the music make you feel ,HAPPY,,,,,,0,7,7,6,,,,,,,,,,,,,,,,,2,2.451838103006594,089,001,2019_Aug_29_0913,MusicAffectPsychophysiology2019,3.0.5,60.007318496595744,
To what extent did the music make you feel ,SCARED,,,,,,0,8,8,11,,,,,,,,,,,,,,,,,1,1.6017679350043181,089,001,2019_Aug_29_0913,MusicAffectPsychophysiology2019,3.0.5,60.007318496595744,
To what extent did the music make you feel ,ALERT,,,,,,0,9,9,8,,,,,,,,,,,,,,,,,2,3.4361591509950813,089,001,2019_Aug_29_0913,MusicAffectPsychophysiology2019,3.0.5,60.007318496595744,
To what extent did the music make you feel ,EXCITED,,,,,,0,10,10,7,,,,,,,,,,,,,,,,,2,3.0336713879951276,089,001,2019_Aug_29_0913,MusicAffectPsychophysiology2019,3.0.5,60.007318496595744,
To what extent did the music make you feel ,ASHAMED,,,,,,0,11,11,4,,,,,,,,,,,,,,,,,1,1.2190784020058345,089,001,2019_Aug_29_0913,MusicAffectPsychophysiology2019,3.0.5,60.007318496595744,
To what extent did the music make you feel ,ACTIVE,30MonoWAV/30MonoH1.wav,2,2,1,5,,,,,0,0,0,4,0,0,0,9,,,5,4.268301498988876,4,5.485676317010075,4,8.266222371021286,5,1.7550456530007068,089,001,2019_Aug_29_0913,MusicAffectPsychophysiology2019,3.0.5,60.007318496595744,
To what extent did the music make you feel ,ANXIOUS ,30MonoWAV/30MonoH1.wav,2,2,1,5,,,,,0,0,0,4,0,1,1,1,,,,,,,,,1,1.4513451359816827,089,001,2019_Aug_29_0913,MusicAffectPsychophysiology2019,3.0.5,60.007318496595744,
To what extent did the music make you feel ,HAPPY,30MonoWAV/30MonoH1.wav,2,2,1,5,,,,,0,0,0,4,0,2,2,6,,,,,,,,,4,1.653050560009433,089,001,2019_Aug_29_0913,MusicAffectPsychophysiology2019,3.0.5,60.007318496595744,
To what extent did the music make you feel ,ANGRY,30MonoWAV/30MonoH1.wav,2,2,1,5,,,,,0,0,0,4,0,3,3,2,,,,,,,,,1,0.9705472580099013,089,001,2019_Aug_29_0913,MusicAffectPsychophysiology2019,3.0.5,60.007318496595744,
To what extent did the music make you feel ,SAD,30MonoWAV/30MonoH1.wav,2,2,1,5,,,,,0,0,0,4,0,4,4,0,,,,,,,,,1,1.0505660329945385,089,001,2019_Aug_29_0913,MusicAffectPsychophysiology2019,3.0.5,60.007318496595744,
To what extent did the music make you feel ,EXCITED,30MonoWAV/30MonoH1.wav,2,2,1,5,,,,,0,0,0,4,0,5,5,7,,,,,,,,,5,1.919040035980288,089,001,2019_Aug_29_0913,MusicAffectPsychophysiology2019,3.0.5,60.007318496595744,
To what extent did the music make you feel ,SCARED,30MonoWAV/30MonoH1.wav,2,2,1,5,,,,,0,0,0,4,0,6,6,11,,,,,,,,,1,1.0194486679974943,089,001,2019_Aug_29_0913,MusicAffectPsychophysiology2019,3.0.5,60.007318496595744,
To what extent did the music make you feel ,FRUSTRATED,30MonoWAV/30MonoH1.wav,2,2,1,5,,,,,0,0,0,4,0,7,7,3,,,,,,,,,1,0.952581599005498,089,001,2019_Aug_29_0913,MusicAffectPsychophysiology2019,3.0.5,60.007318496595744,
To what extent did the music make you feel ,ALERT,30MonoWAV/30MonoH1.wav,2,2,1,5,,,,,0,0,0,4,0,8,8,8,,,,,,,,,5,1.6024249559850432,089,001,2019_Aug_29_0913,MusicAffectPsychophysiology2019,3.0.5,60.007318496595744,
To what extent did the music make you feel ,GUILTY,30MonoWAV/30MonoH1.wav,2,2,1,5,,,,,0,0,0,4,0,9,9,5,,,,,,,,,1,1.034583948989166,089,001,2019_Aug_29_0913,MusicAffectPsychophysiology2019,3.0.5,60.007318496595744,
To what extent did the music make you feel ,ASHAMED,30MonoWAV/30MonoH1.wav,2,2,1,5,,,,,0,0,0,4,0,10,10,4,,,,,,,,,1,0.8182893939956557,089,001,2019_Aug_29_0913,MusicAffectPsychophysiology2019,3.0.5,60.007318496595744,
To what extent did the music make you feel ,TENDER,30MonoWAV/30MonoH1.wav,2,2,1,5,,,,,0,0,0,4,0,11,11,10,,,,,,,,,1,1.869445973978145,089,001,2019_Aug_29_0913,MusicAffectPsychophysiology2019,3.0.5,60.007318496595744,
,,30MonoWAV/30MonoH1.wav,2,2,1,5,,,,,0,0,0,4,,,,,,,,,,,,,,,089,001,2019_Aug_29_0913,MusicAffectPsychophysiology2019,3.0.5,60.007318496595744,
To what extent did the music make you feel ,SAD,30MonoWAV/30MonoH2.wav,2,2,1,6,,,,,0,1,1,5,0,0,0,0,,,4,4.3692510969995055,4,3.185114263993455,4,1.5534426209924277,1,1.3649619279894978,089,001,2019_Aug_29_0913,MusicAffectPsychophysiology2019,3.0.5,60.007318496595744,
To what extent did the music make you feel ,TENDER,30MonoWAV/30MonoH2.wav,2,2,1,6,,,,,0,1,1,5,0,1,1,10,,,,,,,,,1,1.7000956989941187,089,001,2019_Aug_29_0913,MusicAffectPsychophysiology2019,3.0.5,60.007318496595744,
To what extent did the music make you feel ,GUILTY,30MonoWAV/30MonoH2.wav,2,2,1,6,,,,,0,1,1,5,0,2,2,5,,,,,,,,,1,1.7532952089968603,089,001,2019_Aug_29_0913,MusicAffectPsychophysiology2019,3.0.5,60.007318496595744,
To what extent did the music make you feel ,ACTIVE,30MonoWAV/30MonoH2.wav,2,2,1,6,,,,,0,1,1,5,0,3,3,9,,,,,,,,,5,1.5530897279968485,089,001,2019_Aug_29_0913,MusicAffectPsychophysiology2019,3.0.5,60.007318496595744,
To what extent did the music make you feel ,EXCITED,30MonoWAV/30MonoH2.wav,2,2,1,6,,,,,0,1,1,5,0,4,4,7,,,,,,,,,3,1.9188893489772454,089,001,2019_Aug_29_0913,MusicAffectPsychophysiology2019,3.0.5,60.007318496595744,
To what extent did the music make you feel ,ALERT,30MonoWAV/30MonoH2.wav,2,2,1,6,,,,,0,1,1,5,0,5,5,8,,,,,,,,,4,1.0016929720004555,089,001,2019_Aug_29_0913,MusicAffectPsychophysiology2019,3.0.5,60.007318496595744,
To what extent did the music make you feel ,HAPPY,30MonoWAV/30MonoH2.wav,2,2,1,6,,,,,0,1,1,5,0,6,6,6,,,,,,,,,3,1.6034152990032453,089,001,2019_Aug_29_0913,MusicAffectPsychophysiology2019,3.0.5,60.007318496595744,
To what extent did the music make you feel ,SCARED,30MonoWAV/30MonoH2.wav,2,2,1,6,,,,,0,1,1,5,0,7,7,11,,,,,,,,,1,1.1524388940015342,089,001,2019_Aug_29_0913,MusicAffectPsychophysiology2019,3.0.5,60.007318496595744,
To what extent did the music make you feel ,ANGRY,30MonoWAV/30MonoH2.wav,2,2,1,6,,,,,0,1,1,5,0,8,8,2,,,,,,,,,1,2.749701717024436,089,001,2019_Aug_29_0913,MusicAffectPsychophysiology2019,3.0.5,60.007318496595744,
To what extent did the music make you feel ,FRUSTRATED,30MonoWAV/30MonoH2.wav,2,2,1,6,,,,,0,1,1,5,0,9,9,3,,,,,,,,,1,1.3376876710099168,089,001,2019_Aug_29_0913,MusicAffectPsychophysiology2019,3.0.5,60.007318496595744,
To what extent did the music make you feel ,ASHAMED,30MonoWAV/30MonoH2.wav,2,2,1,6,,,,,0,1,1,5,0,10,10,4,,,,,,,,,1,0.9865560260077473,089,001,2019_Aug_29_0913,MusicAffectPsychophysiology2019,3.0.5,60.007318496595744,
To what extent did the music make you feel ,ANXIOUS ,30MonoWAV/30MonoH2.wav,2,2,1,6,,,,,0,1,1,5,0,11,11,1,,,,,,,,,1,2.086559382994892,089,001,2019_Aug_29_0913,MusicAffectPsychophysiology2019,3.0.5,60.007318496595744,
,,30MonoWAV/30MonoH2.wav,2,2,1,6,,,,,0,1,1,5,,,,,,,,,,,,,,,089,001,2019_Aug_29_0913,MusicAffectPsychophysiology2019,3.0.5,60.007318496595744,
To what extent did the music make you feel ,ALERT,30MonoWAV/30MonoT4.wav,2,1,4,16,,,,,0,2,2,15,0,0,0,8,,,4,4.0349546180223115,5,1.968656030978309,5,0.9528818069957197,2,1.874516968993703,089,001,2019_Aug_29_0913,MusicAffectPsychophysiology2019,3.0.5,60.007318496595744,
To what extent did the music make you feel ,FRUSTRATED,30MonoWAV/30MonoT4.wav,2,1,4,16,,,,,0,2,2,15,0,1,1,3,,,,,,,,,1,1.8067952449782752,089,001,2019_Aug_29_0913,MusicAffectPsychophysiology2019,3.0.5,60.007318496595744,
To what extent did the music make you feel ,SCARED,30MonoWAV/30MonoT4.wav,2,1,4,16,,,,,0,2,2,15,0,2,2,11,,,,,,,,,1,0.8863082629977725,089,001,2019_Aug_29_0913,MusicAffectPsychophysiology2019,3.0.5,60.007318496595744,
To what extent did the music make you feel ,ANXIOUS ,30MonoWAV/30MonoT4.wav,2,1,4,16,,,,,0,2,2,15,0,3,3,1,,,,,,,,,1,1.5697722729819361,089,001,2019_Aug_29_0913,MusicAffectPsychophysiology2019,3.0.5,60.007318496595744,
To what extent did the music make you feel ,SAD,30MonoWAV/30MonoT4.wav,2,1,4,16,,,,,0,2,2,15,0,4,4,0,,,,,,,,,1,0.7687869080109522,089,001,2019_Aug_29_0913,MusicAffectPsychophysiology2019,3.0.5,60.007318496595744,
To what extent did the music make you feel ,ANGRY,30MonoWAV/30MonoT4.wav,2,1,4,16,,,,,0,2,2,15,0,5,5,2,,,,,,,,,1,0.885616540996125,089,001,2019_Aug_29_0913,MusicAffectPsychophysiology2019,3.0.5,60.007318496595744,
To what extent did the music make you feel ,ASHAMED,30MonoWAV/30MonoT4.wav,2,1,4,16,,,,,0,2,2,15,0,6,6,4,,,,,,,,,1,0.9681787659937982,089,001,2019_Aug_29_0913,MusicAffectPsychophysiology2019,3.0.5,60.007318496595744,
To what extent did the music make you feel ,EXCITED,30MonoWAV/30MonoT4.wav,2,1,4,16,,,,,0,2,2,15,0,7,7,7,,,,,,,,,3,1.4525677429919597,089,001,2019_Aug_29_0913,MusicAffectPsychophysiology2019,3.0.5,60.007318496595744,
To what extent did the music make you feel ,ACTIVE,30MonoWAV/30MonoT4.wav,2,1,4,16,,,,,0,2,2,15,0,8,8,9,,,,,,,,,3,2.3498071789799724,089,001,2019_Aug_29_0913,MusicAffectPsychophysiology2019,3.0.5,60.007318496595744,
To what extent did the music make you feel ,HAPPY,30MonoWAV/30MonoT4.wav,2,1,4,16,,,,,0,2,2,15,0,9,9,6,,,,,,,,,5,1.0864919789892156,089,001,2019_Aug_29_0913,MusicAffectPsychophysiology2019,3.0.5,60.007318496595744,
To what extent did the music make you feel ,TENDER,30MonoWAV/30MonoT4.wav,2,1,4,16,,,,,0,2,2,15,0,10,10,10,,,,,,,,,5,1.2695717430033255,089,001,2019_Aug_29_0913,MusicAffectPsychophysiology2019,3.0.5,60.007318496595744,
To what extent did the music make you feel ,GUILTY,30MonoWAV/30MonoT4.wav,2,1,4,16,,,,,0,2,2,15,0,11,11,5,,,,,,,,,1,1.1521362740022596,089,001,2019_Aug_29_0913,MusicAffectPsychophysiology2019,3.0.5,60.007318496595744,
,,30MonoWAV/30MonoT4.wav,2,1,4,16,,,,,0,2,2,15,,,,,,,,,,,,,,,089,001,2019_Aug_29_0913,MusicAffectPsychophysiology2019,3.0.5,60.007318496595744,
To what extent did the music make you feel ,GUILTY,30MonoWAV/30MonoH4.wav,2,2,1,8,,,,,0,3,3,7,0,0,0,5,,,4,3.4689729269884992,4,2.0330645259818994,3,1.4191977939917706,1,1.4532580960076302,089,001,2019_Aug_29_0913,MusicAffectPsychophysiology2019,3.0.5,60.007318496595744,
To what extent did the music make you feel ,ANGRY,30MonoWAV/30MonoH4.wav,2,2,1,8,,,,,0,3,3,7,0,1,1,2,,,,,,,,,1,1.1355009069957305,089,001,2019_Aug_29_0913,MusicAffectPsychophysiology2019,3.0.5,60.007318496595744,
To what extent did the music make you feel ,SCARED,30MonoWAV/30MonoH4.wav,2,2,1,8,,,,,0,3,3,7,0,2,2,11,,,,,,,,,1,0.7860154579975642,089,001,2019_Aug_29_0913,MusicAffectPsychophysiology2019,3.0.5,60.007318496595744,
To what extent did the music make you feel ,HAPPY,30MonoWAV/30MonoH4.wav,2,2,1,8,,,,,0,3,3,7,0,3,3,6,,,,,,,,,4,2.0018876919930335,089,001,2019_Aug_29_0913,MusicAffectPsychophysiology2019,3.0.5,60.007318496595744,
To what extent did the music make you feel ,ASHAMED,30MonoWAV/30MonoH4.wav,2,2,1,8,,,,,0,3,3,7,0,4,4,4,,,,,,,,,1,1.3693658060219605,089,001,2019_Aug_29_0913,MusicAffectPsychophysiology2019,3.0.5,60.007318496595744,
To what extent did the music make you feel ,ACTIVE,30MonoWAV/30MonoH4.wav,2,2,1,8,,,,,0,3,3,7,0,5,5,9,,,,,,,,,5,1.5852312140050344,089,001,2019_Aug_29_0913,MusicAffectPsychophysiology2019,3.0.5,60.007318496595744,
To what extent did the music make you feel ,TENDER,30MonoWAV/30MonoH4.wav,2,2,1,8,,,,,0,3,3,7,0,6,6,10,,,,,,,,,2,1.6874617940047756,089,001,2019_Aug_29_0913,MusicAffectPsychophysiology2019,3.0.5,60.007318496595744,
To what extent did the music make you feel ,SAD,30MonoWAV/30MonoH4.wav,2,2,1,8,,,,,0,3,3,7,0,7,7,0,,,,,,,,,1,1.2028114529966842,089,001,2019_Aug_29_0913,MusicAffectPsychophysiology2019,3.0.5,60.007318496595744,
To what extent did the music make you feel ,ALERT,30MonoWAV/30MonoH4.wav,2,2,1,8,,,,,0,3,3,7,0,8,8,8,,,,,,,,,5,1.2871775999956299,089,001,2019_Aug_29_0913,MusicAffectPsychophysiology2019,3.0.5,60.007318496595744,
To what extent did the music make you feel ,EXCITED,30MonoWAV/30MonoH4.wav,2,2,1,8,,,,,0,3,3,7,0,9,9,7,,,,,,,,,5,1.1673618250060827,089,001,2019_Aug_29_0913,MusicAffectPsychophysiology2019,3.0.5,60.007318496595744,
To what extent did the music make you feel ,FRUSTRATED,30MonoWAV/30MonoH4.wav,2,2,1,8,,,,,0,3,3,7,0,10,10,3,,,,,,,,,1,1.1188356780039612,089,001,2019_Aug_29_0913,MusicAffectPsychophysiology2019,3.0.5,60.007318496595744,
To what extent did the music make you feel ,ANXIOUS ,30MonoWAV/30MonoH4.wav,2,2,1,8,,,,,0,3,3,7,0,11,11,1,,,,,,,,,3,1.0536838650004938,089,001,2019_Aug_29_0913,MusicAffectPsychophysiology2019,3.0.5,60.007318496595744,
,,30MonoWAV/30MonoH4.wav,2,2,1,8,,,,,0,3,3,7,,,,,,,,,,,,,,,089,001,2019_Aug_29_0913,MusicAffectPsychophysiology2019,3.0.5,60.007318496595744,
To what extent did the music make you feel ,ANXIOUS ,30MonoWAV/30MonoS1.wav,1,1,3,9,,,,,0,4,4,8,0,0,0,1,,,2,3.7020319449948147,1,1.336874708009418,4,2.6021658120153006,4,2.4028433740022592,089,001,2019_Aug_29_0913,MusicAffectPsychophysiology2019,3.0.5,60.007318496595744,
To what extent did the music make you feel ,ANGRY,30MonoWAV/30MonoS1.wav,1,1,3,9,,,,,0,4,4,8,0,1,1,2,,,,,,,,,1,1.6446354709914885,089,001,2019_Aug_29_0913,MusicAffectPsychophysiology2019,3.0.5,60.007318496595744,
To what extent did the music make you feel ,ASHAMED,30MonoWAV/30MonoS1.wav,1,1,3,9,,,,,0,4,4,8,0,2,2,4,,,,,,,,,1,1.201317741011735,089,001,2019_Aug_29_0913,MusicAffectPsychophysiology2019,3.0.5,60.007318496595744,
To what extent did the music make you feel ,FRUSTRATED,30MonoWAV/30MonoS1.wav,1,1,3,9,,,,,0,4,4,8,0,3,3,3,,,,,,,,,1,1.136727303994121,089,001,2019_Aug_29_0913,MusicAffectPsychophysiology2019,3.0.5,60.007318496595744,
To what extent did the music make you feel ,TENDER,30MonoWAV/30MonoS1.wav,1,1,3,9,,,,,0,4,4,8,0,4,4,10,,,,,,,,,2,1.702754747995641,089,001,2019_Aug_29_0913,MusicAffectPsychophysiology2019,3.0.5,60.007318496595744,
To what extent did the music make you feel ,EXCITED,30MonoWAV/30MonoS1.wav,1,1,3,9,,,,,0,4,4,8,0,5,5,7,,,,,,,,,1,1.203055445017526,089,001,2019_Aug_29_0913,MusicAffectPsychophysiology2019,3.0.5,60.007318496595744,
To what extent did the music make you feel ,SAD,30MonoWAV/30MonoS1.wav,1,1,3,9,,,,,0,4,4,8,0,6,6,0,,,,,,,,,4,1.4846743580128532,089,001,2019_Aug_29_0913,MusicAffectPsychophysiology2019,3.0.5,60.007318496595744,
To what extent did the music make you feel ,ACTIVE,30MonoWAV/30MonoS1.wav,1,1,3,9,,,,,0,4,4,8,0,7,7,9,,,,,,,,,1,1.668866568012163,089,001,2019_Aug_29_0913,MusicAffectPsychophysiology2019,3.0.5,60.007318496595744,
To what extent did the music make you feel ,HAPPY,30MonoWAV/30MonoS1.wav,1,1,3,9,,,,,0,4,4,8,0,8,8,6,,,,,,,,,1,1.3866818969836459,089,001,2019_Aug_29_0913,MusicAffectPsychophysiology2019,3.0.5,60.007318496595744,
To what extent did the music make you feel ,SCARED,30MonoWAV/30MonoS1.wav,1,1,3,9,,,,,0,4,4,8,0,9,9,11,,,,,,,,,5,1.2661023400141858,089,001,2019_Aug_29_0913,MusicAffectPsychophysiology2019,3.0.5,60.007318496595744,
To what extent did the music make you feel ,ALERT,30MonoWAV/30MonoS1.wav,1,1,3,9,,,,,0,4,4,8,0,10,10,8,,,,,,,,,3,1.8364856459957082,089,001,2019_Aug_29_0913,MusicAffectPsychophysiology2019,3.0.5,60.007318496595744,
To what extent did the music make you feel ,GUILTY,30MonoWAV/30MonoS1.wav,1,1,3,9,,,,,0,4,4,8,0,11,11,5,,,,,,,,,1,1.885177748015849,089,001,2019_Aug_29_0913,MusicAffectPsychophysiology2019,3.0.5,60.007318496595744,
,,30MonoWAV/30MonoS1.wav,1,1,3,9,,,,,0,4,4,8,,,,,,,,,,,,,,,089,001,2019_Aug_29_0913,MusicAffectPsychophysiology2019,3.0.5,60.007318496595744,
To what extent did the music make you feel ,SAD,30MonoWAV/30MonoF3.wav,1,2,2,3,,,,,0,5,5,2,0,0,0,0,,,1,3.3197487630241085,1,1.586022697010776,1,1.5856433589942753,2,2.3196328269841615,089,001,2019_Aug_29_0913,MusicAffectPsychophysiology2019,3.0.5,60.007318496595744,
To what extent did the music make you feel ,ALERT,30MonoWAV/30MonoF3.wav,1,2,2,3,,,,,0,5,5,2,0,1,1,8,,,,,,,,,4,1.8028414509899449,089,001,2019_Aug_29_0913,MusicAffectPsychophysiology2019,3.0.5,60.007318496595744,
To what extent did the music make you feel ,TENDER,30MonoWAV/30MonoF3.wav,1,2,2,3,,,,,0,5,5,2,0,2,2,10,,,,,,,,,1,1.10291595000308,089,001,2019_Aug_29_0913,MusicAffectPsychophysiology2019,3.0.5,60.007318496595744,
To what extent did the music make you feel ,HAPPY,30MonoWAV/30MonoF3.wav,1,2,2,3,,,,,0,5,5,2,0,3,3,6,,,,,,,,,1,0.6859140059968922,089,001,2019_Aug_29_0913,MusicAffectPsychophysiology2019,3.0.5,60.007318496595744,
To what extent did the music make you feel ,ANGRY,30MonoWAV/30MonoF3.wav,1,2,2,3,,,,,0,5,5,2,0,4,4,2,,,,,,,,,1,1.2361468260060064,089,001,2019_Aug_29_0913,MusicAffectPsychophysiology2019,3.0.5,60.007318496595744,
To what extent did the music make you feel ,ANXIOUS ,30MonoWAV/30MonoF3.wav,1,2,2,3,,,,,0,5,5,2,0,5,5,1,,,,,,,,,5,1.1189633820031304,089,001,2019_Aug_29_0913,MusicAffectPsychophysiology2019,3.0.5,60.007318496595744,
To what extent did the music make you feel ,GUILTY,30MonoWAV/30MonoF3.wav,1,2,2,3,,,,,0,5,5,2,0,6,6,5,,,,,,,,,1,1.1181752579868771,089,001,2019_Aug_29_0913,MusicAffectPsychophysiology2019,3.0.5,60.007318496595744,
To what extent did the music make you feel ,SCARED,30MonoWAV/30MonoF3.wav,1,2,2,3,,,,,0,5,5,2,0,7,7,11,,,,,,,,,5,0.9537244089879096,089,001,2019_Aug_29_0913,MusicAffectPsychophysiology2019,3.0.5,60.007318496595744,
To what extent did the music make you feel ,ACTIVE,30MonoWAV/30MonoF3.wav,1,2,2,3,,,,,0,5,5,2,0,8,8,9,,,,,,,,,1,1.5026560029946268,089,001,2019_Aug_29_0913,MusicAffectPsychophysiology2019,3.0.5,60.007318496595744,
To what extent did the music make you feel ,ASHAMED,30MonoWAV/30MonoF3.wav,1,2,2,3,,,,,0,5,5,2,0,9,9,4,,,,,,,,,1,1.3189978720038198,089,001,2019_Aug_29_0913,MusicAffectPsychophysiology2019,3.0.5,60.007318496595744,
To what extent did the music make you feel ,EXCITED,30MonoWAV/30MonoF3.wav,1,2,2,3,,,,,0,5,5,2,0,10,10,7,,,,,,,,,1,1.3026438019878697,089,001,2019_Aug_29_0913,MusicAffectPsychophysiology2019,3.0.5,60.007318496595744,
To what extent did the music make you feel ,FRUSTRATED,30MonoWAV/30MonoF3.wav,1,2,2,3,,,,,0,5,5,2,0,11,11,3,,,,,,,,,1,1.5530392679793295,089,001,2019_Aug_29_0913,MusicAffectPsychophysiology2019,3.0.5,60.007318496595744,
,,30MonoWAV/30MonoF3.wav,1,2,2,3,,,,,0,5,5,2,,,,,,,,,,,,,,,089,001,2019_Aug_29_0913,MusicAffectPsychophysiology2019,3.0.5,60.007318496595744,
To what extent did the music make you feel ,SAD,30MonoWAV/30MonoS4.wav,1,1,3,12,,,,,0,6,6,11,0,0,0,0,,,1,3.2024411899910774,1,0.9192252250213642,1,0.8859462190011982,5,1.6463426430127583,089,001,2019_Aug_29_0913,MusicAffectPsychophysiology2019,3.0.5,60.007318496595744,
To what extent did the music make you feel ,ACTIVE,30MonoWAV/30MonoS4.wav,1,1,3,12,,,,,0,6,6,11,0,1,1,9,,,,,,,,,1,1.266687267983798,089,001,2019_Aug_29_0913,MusicAffectPsychophysiology2019,3.0.5,60.007318496595744,
To what extent did the music make you feel ,GUILTY,30MonoWAV/30MonoS4.wav,1,1,3,12,,,,,0,6,6,11,0,2,2,5,,,,,,,,,4,1.619197855994571,089,001,2019_Aug_29_0913,MusicAffectPsychophysiology2019,3.0.5,60.007318496595744,
To what extent did the music make you feel ,HAPPY,30MonoWAV/30MonoS4.wav,1,1,3,12,,,,,0,6,6,11,0,3,3,6,,,,,,,,,1,1.0366498549992684,089,001,2019_Aug_29_0913,MusicAffectPsychophysiology2019,3.0.5,60.007318496595744,
To what extent did the music make you feel ,FRUSTRATED,30MonoWAV/30MonoS4.wav,1,1,3,12,,,,,0,6,6,11,0,4,4,3,,,,,,,,,1,1.3619973110035062,089,001,2019_Aug_29_0913,MusicAffectPsychophysiology2019,3.0.5,60.007318496595744,
To what extent did the music make you feel ,ANXIOUS ,30MonoWAV/30MonoS4.wav,1,1,3,12,,,,,0,6,6,11,0,5,5,1,,,,,,,,,2,2.335387361992616,089,001,2019_Aug_29_0913,MusicAffectPsychophysiology2019,3.0.5,60.007318496595744,
To what extent did the music make you feel ,ANGRY,30MonoWAV/30MonoS4.wav,1,1,3,12,,,,,0,6,6,11,0,6,6,2,,,,,,,,,1,1.336499029013794,089,001,2019_Aug_29_0913,MusicAffectPsychophysiology2019,3.0.5,60.007318496595744,
To what extent did the music make you feel ,ASHAMED,30MonoWAV/30MonoS4.wav,1,1,3,12,,,,,0,6,6,11,0,7,7,4,,,,,,,,,4,1.786644706997322,089,001,2019_Aug_29_0913,MusicAffectPsychophysiology2019,3.0.5,60.007318496595744,
To what extent did the music make you feel ,EXCITED,30MonoWAV/30MonoS4.wav,1,1,3,12,,,,,0,6,6,11,0,8,8,7,,,,,,,,,1,0.9861617909919005,089,001,2019_Aug_29_0913,MusicAffectPsychophysiology2019,3.0.5,60.007318496595744,
To what extent did the music make you feel ,TENDER,30MonoWAV/30MonoS4.wav,1,1,3,12,,,,,0,6,6,11,0,9,9,10,,,,,,,,,1,1.8871039630030282,089,001,2019_Aug_29_0913,MusicAffectPsychophysiology2019,3.0.5,60.007318496595744,
To what extent did the music make you feel ,SCARED,30MonoWAV/30MonoS4.wav,1,1,3,12,,,,,0,6,6,11,0,10,10,11,,,,,,,,,1,1.6698865620128345,089,001,2019_Aug_29_0913,MusicAffectPsychophysiology2019,3.0.5,60.007318496595744,
To what extent did the music make you feel ,ALERT,30MonoWAV/30MonoS4.wav,1,1,3,12,,,,,0,6,6,11,0,11,11,8,,,,,,,,,1,0.686229232000187,089,001,2019_Aug_29_0913,MusicAffectPsychophysiology2019,3.0.5,60.007318496595744,
,,30MonoWAV/30MonoS4.wav,1,1,3,12,,,,,0,6,6,11,,,,,,,,,,,,,,,089,001,2019_Aug_29_0913,MusicAffectPsychophysiology2019,3.0.5,60.007318496595744,
To what extent did the music make you feel ,ALERT,30MonoWAV/30MonoF1.wav,1,2,2,1,,,,,0,7,7,0,0,0,0,8,,,3,3.404127754009096,1,1.6680523639952298,2,0.751590291998582,5,1.8188710129761603,089,001,2019_Aug_29_0913,MusicAffectPsychophysiology2019,3.0.5,60.007318496595744,
To what extent did the music make you feel ,ACTIVE,30MonoWAV/30MonoF1.wav,1,2,2,1,,,,,0,7,7,0,0,1,1,9,,,,,,,,,4,1.352545600006124,089,001,2019_Aug_29_0913,MusicAffectPsychophysiology2019,3.0.5,60.007318496595744,
To what extent did the music make you feel ,FRUSTRATED,30MonoWAV/30MonoF1.wav,1,2,2,1,,,,,0,7,7,0,0,2,2,3,,,,,,,,,1,1.2561134090065025,089,001,2019_Aug_29_0913,MusicAffectPsychophysiology2019,3.0.5,60.007318496595744,
To what extent did the music make you feel ,ANGRY,30MonoWAV/30MonoF1.wav,1,2,2,1,,,,,0,7,7,0,0,3,3,2,,,,,,,,,1,1.1353152160008904,089,001,2019_Aug_29_0913,MusicAffectPsychophysiology2019,3.0.5,60.007318496595744,
To what extent did the music make you feel ,HAPPY,30MonoWAV/30MonoF1.wav,1,2,2,1,,,,,0,7,7,0,0,4,4,6,,,,,,,,,1,1.0026312780100852,089,001,2019_Aug_29_0913,MusicAffectPsychophysiology2019,3.0.5,60.007318496595744,
To what extent did the music make you feel ,SAD,30MonoWAV/30MonoF1.wav,1,2,2,1,,,,,0,7,7,0,0,5,5,0,,,,,,,,,1,1.0696334060048684,089,001,2019_Aug_29_0913,MusicAffectPsychophysiology2019,3.0.5,60.007318496595744,
To what extent did the music make you feel ,ANXIOUS ,30MonoWAV/30MonoF1.wav,1,2,2,1,,,,,0,7,7,0,0,6,6,1,,,,,,,,,5,1.049876088014571,089,001,2019_Aug_29_0913,MusicAffectPsychophysiology2019,3.0.5,60.007318496595744,
To what extent did the music make you feel ,EXCITED,30MonoWAV/30MonoF1.wav,1,2,2,1,,,,,0,7,7,0,0,7,7,7,,,,,,,,,1,1.0336152320087422,089,001,2019_Aug_29_0913,MusicAffectPsychophysiology2019,3.0.5,60.007318496595744,
To what extent did the music make you feel ,TENDER,30MonoWAV/30MonoF1.wav,1,2,2,1,,,,,0,7,7,0,0,8,8,10,,,,,,,,,1,1.036101849982515,089,001,2019_Aug_29_0913,MusicAffectPsychophysiology2019,3.0.5,60.007318496595744,
To what extent did the music make you feel ,SCARED,30MonoWAV/30MonoF1.wav,1,2,2,1,,,,,0,7,7,0,0,9,9,11,,,,,,,,,5,1.0682640229933895,089,001,2019_Aug_29_0913,MusicAffectPsychophysiology2019,3.0.5,60.007318496595744,
To what extent did the music make you feel ,GUILTY,30MonoWAV/30MonoF1.wav,1,2,2,1,,,,,0,7,7,0,0,10,10,5,,,,,,,,,1,1.253027225000551,089,001,2019_Aug_29_0913,MusicAffectPsychophysiology2019,3.0.5,60.007318496595744,
To what extent did the music make you feel ,ASHAMED,30MonoWAV/30MonoF1.wav,1,2,2,1,,,,,0,7,7,0,0,11,11,4,,,,,,,,,1,0.7869242610177025,089,001,2019_Aug_29_0913,MusicAffectPsychophysiology2019,3.0.5,60.007318496595744,
,,30MonoWAV/30MonoF1.wav,1,2,2,1,,,,,0,7,7,0,,,,,,,,,,,,,,,089,001,2019_Aug_29_0913,MusicAffectPsychophysiology2019,3.0.5,60.007318496595744,
To what extent did the music make you feel ,EXCITED,30MonoWAV/30MonoS2.wav,1,1,3,10,,,,,0,8,8,9,0,0,0,7,,,1,3.752164487988921,1,1.7001236389914993,1,0.7349057259852998,1,1.031512790999841,089,001,2019_Aug_29_0913,MusicAffectPsychophysiology2019,3.0.5,60.007318496595744,
To what extent did the music make you feel ,ASHAMED,30MonoWAV/30MonoS2.wav,1,1,3,10,,,,,0,8,8,9,0,1,1,4,,,,,,,,,4,1.7666188580042217,089,001,2019_Aug_29_0913,MusicAffectPsychophysiology2019,3.0.5,60.007318496595744,
To what extent did the music make you feel ,SAD,30MonoWAV/30MonoS2.wav,1,1,3,10,,,,,0,8,8,9,0,2,2,0,,,,,,,,,5,1.2198622429859824,089,001,2019_Aug_29_0913,MusicAffectPsychophysiology2019,3.0.5,60.007318496595744,
To what extent did the music make you feel ,GUILTY,30MonoWAV/30MonoS2.wav,1,1,3,10,,,,,0,8,8,9,0,3,3,5,,,,,,,,,4,2.1683963219984435,089,001,2019_Aug_29_0913,MusicAffectPsychophysiology2019,3.0.5,60.007318496595744,
To what extent did the music make you feel ,ANXIOUS ,30MonoWAV/30MonoS2.wav,1,1,3,10,,,,,0,8,8,9,0,4,4,1,,,,,,,,,2,2.0169144090032205,089,001,2019_Aug_29_0913,MusicAffectPsychophysiology2019,3.0.5,60.007318496595744,
To what extent did the music make you feel ,HAPPY,30MonoWAV/30MonoS2.wav,1,1,3,10,,,,,0,8,8,9,0,5,5,6,,,,,,,,,1,0.9861896490037907,089,001,2019_Aug_29_0913,MusicAffectPsychophysiology2019,3.0.5,60.007318496595744,
To what extent did the music make you feel ,SCARED,30MonoWAV/30MonoS2.wav,1,1,3,10,,,,,0,8,8,9,0,6,6,11,,,,,,,,,1,1.5660966979921795,089,001,2019_Aug_29_0913,MusicAffectPsychophysiology2019,3.0.5,60.007318496595744,
To what extent did the music make you feel ,ALERT,30MonoWAV/30MonoS2.wav,1,1,3,10,,,,,0,8,8,9,0,7,7,8,,,,,,,,,1,0.9199073429917917,089,001,2019_Aug_29_0913,MusicAffectPsychophysiology2019,3.0.5,60.007318496595744,
To what extent did the music make you feel ,FRUSTRATED,30MonoWAV/30MonoS2.wav,1,1,3,10,,,,,0,8,8,9,0,8,8,3,,,,,,,,,1,0.8363900810072664,089,001,2019_Aug_29_0913,MusicAffectPsychophysiology2019,3.0.5,60.007318496595744,
To what extent did the music make you feel ,ACTIVE,30MonoWAV/30MonoS2.wav,1,1,3,10,,,,,0,8,8,9,0,9,9,9,,,,,,,,,1,1.0499239499913529,089,001,2019_Aug_29_0913,MusicAffectPsychophysiology2019,3.0.5,60.007318496595744,
To what extent did the music make you feel ,TENDER,30MonoWAV/30MonoS2.wav,1,1,3,10,,,,,0,8,8,9,0,10,10,10,,,,,,,,,2,1.3880200199782848,089,001,2019_Aug_29_0913,MusicAffectPsychophysiology2019,3.0.5,60.007318496595744,
To what extent did the music make you feel ,ANGRY,30MonoWAV/30MonoS2.wav,1,1,3,10,,,,,0,8,8,9,0,11,11,2,,,,,,,,,1,0.6042214019980747,089,001,2019_Aug_29_0913,MusicAffectPsychophysiology2019,3.0.5,60.007318496595744,
,,30MonoWAV/30MonoS2.wav,1,1,3,10,,,,,0,8,8,9,,,,,,,,,,,,,,,089,001,2019_Aug_29_0913,MusicAffectPsychophysiology2019,3.0.5,60.007318496595744,
To what extent did the music make you feel ,ANGRY,30MonoWAV/30MonoH3.wav,2,2,1,7,,,,,0,9,9,6,0,0,0,2,,,4,3.3860534989798907,5,1.1026609230029862,4,1.569680952001363,1,1.2029311349906493,089,001,2019_Aug_29_0913,MusicAffectPsychophysiology2019,3.0.5,60.007318496595744,
To what extent did the music make you feel ,ACTIVE,30MonoWAV/30MonoH3.wav,2,2,1,7,,,,,0,9,9,6,0,1,1,9,,,,,,,,,3,1.8858813230181113,089,001,2019_Aug_29_0913,MusicAffectPsychophysiology2019,3.0.5,60.007318496595744,
To what extent did the music make you feel ,FRUSTRATED,30MonoWAV/30MonoH3.wav,2,2,1,7,,,,,0,9,9,6,0,2,2,3,,,,,,,,,1,0.9351231420005206,089,001,2019_Aug_29_0913,MusicAffectPsychophysiology2019,3.0.5,60.007318496595744,
To what extent did the music make you feel ,ASHAMED,30MonoWAV/30MonoH3.wav,2,2,1,7,,,,,0,9,9,6,0,3,3,4,,,,,,,,,1,0.8205877880100161,089,001,2019_Aug_29_0913,MusicAffectPsychophysiology2019,3.0.5,60.007318496595744,
To what extent did the music make you feel ,ALERT,30MonoWAV/30MonoH3.wav,2,2,1,7,,,,,0,9,9,6,0,4,4,8,,,,,,,,,3,1.2339427109982353,089,001,2019_Aug_29_0913,MusicAffectPsychophysiology2019,3.0.5,60.007318496595744,
To what extent did the music make you feel ,TENDER,30MonoWAV/30MonoH3.wav,2,2,1,7,,,,,0,9,9,6,0,5,5,10,,,,,,,,,1,0.8850997850240674,089,001,2019_Aug_29_0913,MusicAffectPsychophysiology2019,3.0.5,60.007318496595744,
To what extent did the music make you feel ,GUILTY,30MonoWAV/30MonoH3.wav,2,2,1,7,,,,,0,9,9,6,0,6,6,5,,,,,,,,,1,0.7854290200048126,089,001,2019_Aug_29_0913,MusicAffectPsychophysiology2019,3.0.5,60.007318496595744,
To what extent did the music make you feel ,SCARED,30MonoWAV/30MonoH3.wav,2,2,1,7,,,,,0,9,9,6,0,7,7,11,,,,,,,,,1,0.6202628200117033,089,001,2019_Aug_29_0913,MusicAffectPsychophysiology2019,3.0.5,60.007318496595744,
To what extent did the music make you feel ,EXCITED,30MonoWAV/30MonoH3.wav,2,2,1,7,,,,,0,9,9,6,0,8,8,7,,,,,,,,,4,1.3196289939805865,089,001,2019_Aug_29_0913,MusicAffectPsychophysiology2019,3.0.5,60.007318496595744,
To what extent did the music make you feel ,ANXIOUS ,30MonoWAV/30MonoH3.wav,2,2,1,7,,,,,0,9,9,6,0,9,9,1,,,,,,,,,1,1.1339176199981011,089,001,2019_Aug_29_0913,MusicAffectPsychophysiology2019,3.0.5,60.007318496595744,
To what extent did the music make you feel ,SAD,30MonoWAV/30MonoH3.wav,2,2,1,7,,,,,0,9,9,6,0,10,10,0,,,,,,,,,1,0.9865352170018014,089,001,2019_Aug_29_0913,MusicAffectPsychophysiology2019,3.0.5,60.007318496595744,
To what extent did the music make you feel ,HAPPY,30MonoWAV/30MonoH3.wav,2,2,1,7,,,,,0,9,9,6,0,11,11,6,,,,,,,,,5,0.801655485003721,089,001,2019_Aug_29_0913,MusicAffectPsychophysiology2019,3.0.5,60.007318496595744,
,,30MonoWAV/30MonoH3.wav,2,2,1,7,,,,,0,9,9,6,,,,,,,,,,,,,,,089,001,2019_Aug_29_0913,MusicAffectPsychophysiology2019,3.0.5,60.007318496595744,
To what extent did the music make you feel ,SAD,30MonoWAV/30MonoF2.wav,1,2,2,2,,,,,0,10,10,1,0,0,0,0,,,3,4.1523567929980345,1,0.8861110609723255,2,0.816089196014218,1,1.4703094919968862,089,001,2019_Aug_29_0913,MusicAffectPsychophysiology2019,3.0.5,60.007318496595744,
To what extent did the music make you feel ,ACTIVE,30MonoWAV/30MonoF2.wav,1,2,2,2,,,,,0,10,10,1,0,1,1,9,,,,,,,,,1,1.2196026080055162,089,001,2019_Aug_29_0913,MusicAffectPsychophysiology2019,3.0.5,60.007318496595744,
To what extent did the music make you feel ,GUILTY,30MonoWAV/30MonoF2.wav,1,2,2,2,,,,,0,10,10,1,0,2,2,5,,,,,,,,,1,2.0019736399990506,089,001,2019_Aug_29_0913,MusicAffectPsychophysiology2019,3.0.5,60.007318496595744,
To what extent did the music make you feel ,TENDER,30MonoWAV/30MonoF2.wav,1,2,2,2,,,,,0,10,10,1,0,3,3,10,,,,,,,,,1,1.5521659319929313,089,001,2019_Aug_29_0913,MusicAffectPsychophysiology2019,3.0.5,60.007318496595744,
To what extent did the music make you feel ,ANXIOUS ,30MonoWAV/30MonoF2.wav,1,2,2,2,,,,,0,10,10,1,0,4,4,1,,,,,,,,,5,1.2197229739977047,089,001,2019_Aug_29_0913,MusicAffectPsychophysiology2019,3.0.5,60.007318496595744,
To what extent did the music make you feel ,ALERT,30MonoWAV/30MonoF2.wav,1,2,2,2,,,,,0,10,10,1,0,5,5,8,,,,,,,,,1,1.5523827650176827,089,001,2019_Aug_29_0913,MusicAffectPsychophysiology2019,3.0.5,60.007318496595744,
To what extent did the music make you feel ,EXCITED,30MonoWAV/30MonoF2.wav,1,2,2,2,,,,,0,10,10,1,0,6,6,7,,,,,,,,,1,2.0343481640156824,089,001,2019_Aug_29_0913,MusicAffectPsychophysiology2019,3.0.5,60.007318496595744,
To what extent did the music make you feel ,ASHAMED,30MonoWAV/30MonoF2.wav,1,2,2,2,,,,,0,10,10,1,0,7,7,4,,,,,,,,,1,0.8025558380177245,089,001,2019_Aug_29_0913,MusicAffectPsychophysiology2019,3.0.5,60.007318496595744,
To what extent did the music make you feel ,SCARED,30MonoWAV/30MonoF2.wav,1,2,2,2,,,,,0,10,10,1,0,8,8,11,,,,,,,,,5,1.6866228639846668,089,001,2019_Aug_29_0913,MusicAffectPsychophysiology2019,3.0.5,60.007318496595744,
To what extent did the music make you feel ,FRUSTRATED,30MonoWAV/30MonoF2.wav,1,2,2,2,,,,,0,10,10,1,0,9,9,3,,,,,,,,,1,1.0846830910013523,089,001,2019_Aug_29_0913,MusicAffectPsychophysiology2019,3.0.5,60.007318496595744,
To what extent did the music make you feel ,ANGRY,30MonoWAV/30MonoF2.wav,1,2,2,2,,,,,0,10,10,1,0,10,10,2,,,,,,,,,1,0.7020671080099419,089,001,2019_Aug_29_0913,MusicAffectPsychophysiology2019,3.0.5,60.007318496595744,
To what extent did the music make you feel ,HAPPY,30MonoWAV/30MonoF2.wav,1,2,2,2,,,,,0,10,10,1,0,11,11,6,,,,,,,,,1,0.73385583399795,089,001,2019_Aug_29_0913,MusicAffectPsychophysiology2019,3.0.5,60.007318496595744,
,,30MonoWAV/30MonoF2.wav,1,2,2,2,,,,,0,10,10,1,,,,,,,,,,,,,,,089,001,2019_Aug_29_0913,MusicAffectPsychophysiology2019,3.0.5,60.007318496595744,
To what extent did the music make you feel ,ALERT,30MonoWAV/30MonoT2.wav,2,1,4,14,,,,,0,11,11,13,0,0,0,8,,,3,6.302858690993162,3,1.4694943299982697,4,2.185513764008647,1,2.9801906310021877,089,001,2019_Aug_29_0913,MusicAffectPsychophysiology2019,3.0.5,60.007318496595744,
To what extent did the music make you feel ,HAPPY,30MonoWAV/30MonoT2.wav,2,1,4,14,,,,,0,11,11,13,0,1,1,6,,,,,,,,,4,2.393340292997891,089,001,2019_Aug_29_0913,MusicAffectPsychophysiology2019,3.0.5,60.007318496595744,
To what extent did the music make you feel ,GUILTY,30MonoWAV/30MonoT2.wav,2,1,4,14,,,,,0,11,11,13,0,2,2,5,,,,,,,,,1,2.1857394670078065,089,001,2019_Aug_29_0913,MusicAffectPsychophysiology2019,3.0.5,60.007318496595744,
To what extent did the music make you feel ,ASHAMED,30MonoWAV/30MonoT2.wav,2,1,4,14,,,,,0,11,11,13,0,3,3,4,,,,,,,,,1,0.9526359420269728,089,001,2019_Aug_29_0913,MusicAffectPsychophysiology2019,3.0.5,60.007318496595744,
To what extent did the music make you feel ,SCARED,30MonoWAV/30MonoT2.wav,2,1,4,14,,,,,0,11,11,13,0,4,4,11,,,,,,,,,1,0.8031495519971941,089,001,2019_Aug_29_0913,MusicAffectPsychophysiology2019,3.0.5,60.007318496595744,
To what extent did the music make you feel ,EXCITED,30MonoWAV/30MonoT2.wav,2,1,4,14,,,,,0,11,11,13,0,5,5,7,,,,,,,,,2,2.2534429079969414,089,001,2019_Aug_29_0913,MusicAffectPsychophysiology2019,3.0.5,60.007318496595744,
To what extent did the music make you feel ,ACTIVE,30MonoWAV/30MonoT2.wav,2,1,4,14,,,,,0,11,11,13,0,6,6,9,,,,,,,,,1,3.4666382810100913,089,001,2019_Aug_29_0913,MusicAffectPsychophysiology2019,3.0.5,60.007318496595744,
To what extent did the music make you feel ,ANXIOUS ,30MonoWAV/30MonoT2.wav,2,1,4,14,,,,,0,11,11,13,0,7,7,1,,,,,,,,,1,1.0335306449851487,089,001,2019_Aug_29_0913,MusicAffectPsychophysiology2019,3.0.5,60.007318496595744,
To what extent did the music make you feel ,FRUSTRATED,30MonoWAV/30MonoT2.wav,2,1,4,14,,,,,0,11,11,13,0,8,8,3,,,,,,,,,1,1.0191400540061295,089,001,2019_Aug_29_0913,MusicAffectPsychophysiology2019,3.0.5,60.007318496595744,
To what extent did the music make you feel ,ANGRY,30MonoWAV/30MonoT2.wav,2,1,4,14,,,,,0,11,11,13,0,9,9,2,,,,,,,,,1,0.9030782589979935,089,001,2019_Aug_29_0913,MusicAffectPsychophysiology2019,3.0.5,60.007318496595744,
To what extent did the music make you feel ,SAD,30MonoWAV/30MonoT2.wav,2,1,4,14,,,,,0,11,11,13,0,10,10,0,,,,,,,,,2,1.6852818269981071,089,001,2019_Aug_29_0913,MusicAffectPsychophysiology2019,3.0.5,60.007318496595744,
To what extent did the music make you feel ,TENDER,30MonoWAV/30MonoT2.wav,2,1,4,14,,,,,0,11,11,13,0,11,11,10,,,,,,,,,4,1.3338554149959236,089,001,2019_Aug_29_0913,MusicAffectPsychophysiology2019,3.0.5,60.007318496595744,
,,30MonoWAV/30MonoT2.wav,2,1,4,14,,,,,0,11,11,13,,,,,,,,,,,,,,,089,001,2019_Aug_29_0913,MusicAffectPsychophysiology2019,3.0.5,60.007318496595744,
To what extent did the music make you feel ,FRUSTRATED,30MonoWAV/30MonoT3.wav,2,1,4,15,,,,,0,12,12,14,0,0,0,3,,,2,3.6370968369883485,1,0.9863647340098396,1,0.6328431309957523,2,2.0703147439926397,089,001,2019_Aug_29_0913,MusicAffectPsychophysiology2019,3.0.5,60.007318496595744,
To what extent did the music make you feel ,HAPPY,30MonoWAV/30MonoT3.wav,2,1,4,15,,,,,0,12,12,14,0,1,1,6,,,,,,,,,1,1.2196850100008305,089,001,2019_Aug_29_0913,MusicAffectPsychophysiology2019,3.0.5,60.007318496595744,
To what extent did the music make you feel ,ANGRY,30MonoWAV/30MonoT3.wav,2,1,4,15,,,,,0,12,12,14,0,2,2,2,,,,,,,,,2,1.9189402119955048,089,001,2019_Aug_29_0913,MusicAffectPsychophysiology2019,3.0.5,60.007318496595744,
To what extent did the music make you feel ,ANXIOUS ,30MonoWAV/30MonoT3.wav,2,1,4,15,,,,,0,12,12,14,0,3,3,1,,,,,,,,,5,1.7840174279990606,089,001,2019_Aug_29_0913,MusicAffectPsychophysiology2019,3.0.5,60.007318496595744,
To what extent did the music make you feel ,SAD,30MonoWAV/30MonoT3.wav,2,1,4,15,,,,,0,12,12,14,0,4,4,0,,,,,,,,,3,1.5359110299905296,089,001,2019_Aug_29_0913,MusicAffectPsychophysiology2019,3.0.5,60.007318496595744,
To what extent did the music make you feel ,TENDER,30MonoWAV/30MonoT3.wav,2,1,4,15,,,,,0,12,12,14,0,5,5,10,,,,,,,,,2,1.6028125319862738,089,001,2019_Aug_29_0913,MusicAffectPsychophysiology2019,3.0.5,60.007318496595744,
To what extent did the music make you feel ,ASHAMED,30MonoWAV/30MonoT3.wav,2,1,4,15,,,,,0,12,12,14,0,6,6,4,,,,,,,,,1,2.018860609008698,089,001,2019_Aug_29_0913,MusicAffectPsychophysiology2019,3.0.5,60.007318496595744,
To what extent did the music make you feel ,ALERT,30MonoWAV/30MonoT3.wav,2,1,4,15,,,,,0,12,12,14,0,7,7,8,,,,,,,,,2,2.952961695002159,089,001,2019_Aug_29_0913,MusicAffectPsychophysiology2019,3.0.5,60.007318496595744,
To what extent did the music make you feel ,ACTIVE,30MonoWAV/30MonoT3.wav,2,1,4,15,,,,,0,12,12,14,0,8,8,9,,,,,,,,,1,1.3859192240051925,089,001,2019_Aug_29_0913,MusicAffectPsychophysiology2019,3.0.5,60.007318496595744,
To what extent did the music make you feel ,EXCITED,30MonoWAV/30MonoT3.wav,2,1,4,15,,,,,0,12,12,14,0,9,9,7,,,,,,,,,1,1.7020114390179515,089,001,2019_Aug_29_0913,MusicAffectPsychophysiology2019,3.0.5,60.007318496595744,
To what extent did the music make you feel ,GUILTY,30MonoWAV/30MonoT3.wav,2,1,4,15,,,,,0,12,12,14,0,10,10,5,,,,,,,,,1,1.7524107229837682,089,001,2019_Aug_29_0913,MusicAffectPsychophysiology2019,3.0.5,60.007318496595744,
To what extent did the music make you feel ,SCARED,30MonoWAV/30MonoT3.wav,2,1,4,15,,,,,0,12,12,14,0,11,11,11,,,,,,,,,4,1.285875492991181,089,001,2019_Aug_29_0913,MusicAffectPsychophysiology2019,3.0.5,60.007318496595744,
,,30MonoWAV/30MonoT3.wav,2,1,4,15,,,,,0,12,12,14,,,,,,,,,,,,,,,089,001,2019_Aug_29_0913,MusicAffectPsychophysiology2019,3.0.5,60.007318496595744,
To what extent did the music make you feel ,ANXIOUS ,30MonoWAV/30MonoF4.wav,1,2,2,4,,,,,0,13,13,3,0,0,0,1,,,3,5.269552448007744,1,1.1194077219988685,1,0.7360577179933898,5,1.3306832200032659,089,001,2019_Aug_29_0913,MusicAffectPsychophysiology2019,3.0.5,60.007318496595744,
To what extent did the music make you feel ,EXCITED,30MonoWAV/30MonoF4.wav,1,2,2,4,,,,,0,13,13,3,0,1,1,7,,,,,,,,,1,1.3202982080110814,089,001,2019_Aug_29_0913,MusicAffectPsychophysiology2019,3.0.5,60.007318496595744,
To what extent did the music make you feel ,GUILTY,30MonoWAV/30MonoF4.wav,1,2,2,4,,,,,0,13,13,3,0,2,2,5,,,,,,,,,2,1.5640442189760506,089,001,2019_Aug_29_0913,MusicAffectPsychophysiology2019,3.0.5,60.007318496595744,
To what extent did the music make you feel ,HAPPY,30MonoWAV/30MonoF4.wav,1,2,2,4,,,,,0,13,13,3,0,3,3,6,,,,,,,,,1,1.0197896050231066,089,001,2019_Aug_29_0913,MusicAffectPsychophysiology2019,3.0.5,60.007318496595744,
To what extent did the music make you feel ,ACTIVE,30MonoWAV/30MonoF4.wav,1,2,2,4,,,,,0,13,13,3,0,4,4,9,,,,,,,,,4,1.3869323669932783,089,001,2019_Aug_29_0913,MusicAffectPsychophysiology2019,3.0.5,60.007318496595744,
To what extent did the music make you feel ,FRUSTRATED,30MonoWAV/30MonoF4.wav,1,2,2,4,,,,,0,13,13,3,0,5,5,3,,,,,,,,,1,1.4202153559890576,089,001,2019_Aug_29_0913,MusicAffectPsychophysiology2019,3.0.5,60.007318496595744,
To what extent did the music make you feel ,ASHAMED,30MonoWAV/30MonoF4.wav,1,2,2,4,,,,,0,13,13,3,0,6,6,4,,,,,,,,,2,1.5521848920034245,089,001,2019_Aug_29_0913,MusicAffectPsychophysiology2019,3.0.5,60.007318496595744,
To what extent did the music make you feel ,SCARED,30MonoWAV/30MonoF4.wav,1,2,2,4,,,,,0,13,13,3,0,7,7,11,,,,,,,,,5,1.3007845050015021,089,001,2019_Aug_29_0913,MusicAffectPsychophysiology2019,3.0.5,60.007318496595744,
To what extent did the music make you feel ,SAD,30MonoWAV/30MonoF4.wav,1,2,2,4,,,,,0,13,13,3,0,8,8,0,,,,,,,,,2,1.3690704710024875,089,001,2019_Aug_29_0913,MusicAffectPsychophysiology2019,3.0.5,60.007318496595744,
To what extent did the music make you feel ,ALERT,30MonoWAV/30MonoF4.wav,1,2,2,4,,,,,0,13,13,3,0,9,9,8,,,,,,,,,4,1.5526971259969287,089,001,2019_Aug_29_0913,MusicAffectPsychophysiology2019,3.0.5,60.007318496595744,
To what extent did the music make you feel ,ANGRY,30MonoWAV/30MonoF4.wav,1,2,2,4,,,,,0,13,13,3,0,10,10,2,,,,,,,,,1,1.4698084849806037,089,001,2019_Aug_29_0913,MusicAffectPsychophysiology2019,3.0.5,60.007318496595744,
To what extent did the music make you feel ,TENDER,30MonoWAV/30MonoF4.wav,1,2,2,4,,,,,0,13,13,3,0,11,11,10,,,,,,,,,1,0.9199295460130088,089,001,2019_Aug_29_0913,MusicAffectPsychophysiology2019,3.0.5,60.007318496595744,
,,30MonoWAV/30MonoF4.wav,1,2,2,4,,,,,0,13,13,3,,,,,,,,,,,,,,,089,001,2019_Aug_29_0913,MusicAffectPsychophysiology2019,3.0.5,60.007318496595744,
To what extent did the music make you feel ,ASHAMED,30MonoWAV/30MonoS3.wav,1,1,3,11,,,,,0,14,14,10,0,0,0,4,,,1,4.052591035986552,1,1.384461506997468,1,0.7859942990180571,2,2.2396806679898873,089,001,2019_Aug_29_0913,MusicAffectPsychophysiology2019,3.0.5,60.007318496595744,
To what extent did the music make you feel ,EXCITED,30MonoWAV/30MonoS3.wav,1,1,3,11,,,,,0,14,14,10,0,1,1,7,,,,,,,,,1,0.9687283109815326,089,001,2019_Aug_29_0913,MusicAffectPsychophysiology2019,3.0.5,60.007318496595744,
To what extent did the music make you feel ,ALERT,30MonoWAV/30MonoS3.wav,1,1,3,11,,,,,0,14,14,10,0,2,2,8,,,,,,,,,1,4.118726643995615,089,001,2019_Aug_29_0913,MusicAffectPsychophysiology2019,3.0.5,60.007318496595744,
To what extent did the music make you feel ,ACTIVE,30MonoWAV/30MonoS3.wav,1,1,3,11,,,,,0,14,14,10,0,3,3,9,,,,,,,,,1,1.9532409420062322,089,001,2019_Aug_29_0913,MusicAffectPsychophysiology2019,3.0.5,60.007318496595744,
To what extent did the music make you feel ,ANGRY,30MonoWAV/30MonoS3.wav,1,1,3,11,,,,,0,14,14,10,0,4,4,2,,,,,,,,,1,1.0690846070065163,089,001,2019_Aug_29_0913,MusicAffectPsychophysiology2019,3.0.5,60.007318496595744,
To what extent did the music make you feel ,ANXIOUS ,30MonoWAV/30MonoS3.wav,1,1,3,11,,,,,0,14,14,10,0,5,5,1,,,,,,,,,2,1.8659101020020898,089,001,2019_Aug_29_0913,MusicAffectPsychophysiology2019,3.0.5,60.007318496595744,
To what extent did the music make you feel ,TENDER,30MonoWAV/30MonoS3.wav,1,1,3,11,,,,,0,14,14,10,0,6,6,10,,,,,,,,,2,1.4697664809937123,089,001,2019_Aug_29_0913,MusicAffectPsychophysiology2019,3.0.5,60.007318496595744,
To what extent did the music make you feel ,HAPPY,30MonoWAV/30MonoS3.wav,1,1,3,11,,,,,0,14,14,10,0,7,7,6,,,,,,,,,1,0.7193232600111514,089,001,2019_Aug_29_0913,MusicAffectPsychophysiology2019,3.0.5,60.007318496595744,
To what extent did the music make you feel ,SAD,30MonoWAV/30MonoS3.wav,1,1,3,11,,,,,0,14,14,10,0,8,8,0,,,,,,,,,3,1.3188215040136129,089,001,2019_Aug_29_0913,MusicAffectPsychophysiology2019,3.0.5,60.007318496595744,
To what extent did the music make you feel ,SCARED,30MonoWAV/30MonoS3.wav,1,1,3,11,,,,,0,14,14,10,0,9,9,11,,,,,,,,,1,1.0692974640114699,089,001,2019_Aug_29_0913,MusicAffectPsychophysiology2019,3.0.5,60.007318496595744,
To what extent did the music make you feel ,GUILTY,30MonoWAV/30MonoS3.wav,1,1,3,11,,,,,0,14,14,10,0,10,10,5,,,,,,,,,1,1.7525428450026084,089,001,2019_Aug_29_0913,MusicAffectPsychophysiology2019,3.0.5,60.007318496595744,
To what extent did the music make you feel ,FRUSTRATED,30MonoWAV/30MonoS3.wav,1,1,3,11,,,,,0,14,14,10,0,11,11,3,,,,,,,,,4,1.805838888976723,089,001,2019_Aug_29_0913,MusicAffectPsychophysiology2019,3.0.5,60.007318496595744,
,,30MonoWAV/30MonoS3.wav,1,1,3,11,,,,,0,14,14,10,,,,,,,,,,,,,,,089,001,2019_Aug_29_0913,MusicAffectPsychophysiology2019,3.0.5,60.007318496595744,
To what extent did the music make you feel ,HAPPY,30MonoWAV/30MonoT1.wav,2,1,4,13,,,,,0,15,15,12,0,0,0,6,,,2,3.601975956989918,2,2.501883621007437,3,2.0519085789856035,1,1.4195605560089462,089,001,2019_Aug_29_0913,MusicAffectPsychophysiology2019,3.0.5,60.007318496595744,
To what extent did the music make you feel ,TENDER,30MonoWAV/30MonoT1.wav,2,1,4,13,,,,,0,15,15,12,0,1,1,10,,,,,,,,,4,1.7860229470243212,089,001,2019_Aug_29_0913,MusicAffectPsychophysiology2019,3.0.5,60.007318496595744,
To what extent did the music make you feel ,ASHAMED,30MonoWAV/30MonoT1.wav,2,1,4,13,,,,,0,15,15,12,0,2,2,4,,,,,,,,,1,1.0692559969902504,089,001,2019_Aug_29_0913,MusicAffectPsychophysiology2019,3.0.5,60.007318496595744,
To what extent did the music make you feel ,ANGRY,30MonoWAV/30MonoT1.wav,2,1,4,13,,,,,0,15,15,12,0,3,3,2,,,,,,,,,1,1.3363533229858149,089,001,2019_Aug_29_0913,MusicAffectPsychophysiology2019,3.0.5,60.007318496595744,
To what extent did the music make you feel ,FRUSTRATED,30MonoWAV/30MonoT1.wav,2,1,4,13,,,,,0,15,15,12,0,4,4,3,,,,,,,,,1,1.0867333869973663,089,001,2019_Aug_29_0913,MusicAffectPsychophysiology2019,3.0.5,60.007318496595744,
To what extent did the music make you feel ,EXCITED,30MonoWAV/30MonoT1.wav,2,1,4,13,,,,,0,15,15,12,0,5,5,7,,,,,,,,,1,0.8696221679856535,089,001,2019_Aug_29_0913,MusicAffectPsychophysiology2019,3.0.5,60.007318496595744,
To what extent did the music make you feel ,GUILTY,30MonoWAV/30MonoT1.wav,2,1,4,13,,,,,0,15,15,12,0,6,6,5,,,,,,,,,2,1.3840875620080624,089,001,2019_Aug_29_0913,MusicAffectPsychophysiology2019,3.0.5,60.007318496595744,
To what extent did the music make you feel ,ALERT,30MonoWAV/30MonoT1.wav,2,1,4,13,,,,,0,15,15,12,0,7,7,8,,,,,,,,,1,1.3838861040130723,089,001,2019_Aug_29_0913,MusicAffectPsychophysiology2019,3.0.5,60.007318496595744,
To what extent did the music make you feel ,SCARED,30MonoWAV/30MonoT1.wav,2,1,4,13,,,,,0,15,15,12,0,8,8,11,,,,,,,,,1,1.201374152005883,089,001,2019_Aug_29_0913,MusicAffectPsychophysiology2019,3.0.5,60.007318496595744,
To what extent did the music make you feel ,ANXIOUS ,30MonoWAV/30MonoT1.wav,2,1,4,13,,,,,0,15,15,12,0,9,9,1,,,,,,,,,1,0.9370918060012627,089,001,2019_Aug_29_0913,MusicAffectPsychophysiology2019,3.0.5,60.007318496595744,
To what extent did the music make you feel ,ACTIVE,30MonoWAV/30MonoT1.wav,2,1,4,13,,,,,0,15,15,12,0,10,10,9,,,,,,,,,1,0.9518727249815129,089,001,2019_Aug_29_0913,MusicAffectPsychophysiology2019,3.0.5,60.007318496595744,
To what extent did the music make you feel ,SAD,30MonoWAV/30MonoT1.wav,2,1,4,13,,,,,0,15,15,12,0,11,11,0,,,,,,,,,5,1.235679192992393,089,001,2019_Aug_29_0913,MusicAffectPsychophysiology2019,3.0.5,60.007318496595744,
,,30MonoWAV/30MonoT1.wav,2,1,4,13,,,,,0,15,15,12,,,,,,,,,,,,,,,089,001,2019_Aug_29_0913,MusicAffectPsychophysiology2019,3.0.5,60.007318496595744,
To what extent did the music make you feel ,SCARED,30MonoWAV/30MonoS1.wav,1,1,3,9,,,,,1,0,16,8,0,0,0,11,,,2,3.0858477450092323,1,1.00210757899913,3,1.250171154999407,3,2.1083770859986544,089,001,2019_Aug_29_0913,MusicAffectPsychophysiology2019,3.0.5,60.007318496595744,
To what extent did the music make you feel ,EXCITED,30MonoWAV/30MonoS1.wav,1,1,3,9,,,,,1,0,16,8,0,1,1,7,,,,,,,,,1,1.1013627049978822,089,001,2019_Aug_29_0913,MusicAffectPsychophysiology2019,3.0.5,60.007318496595744,
To what extent did the music make you feel ,FRUSTRATED,30MonoWAV/30MonoS1.wav,1,1,3,9,,,,,1,0,16,8,0,2,2,3,,,,,,,,,1,1.2022946910001338,089,001,2019_Aug_29_0913,MusicAffectPsychophysiology2019,3.0.5,60.007318496595744,
To what extent did the music make you feel ,ANGRY,30MonoWAV/30MonoS1.wav,1,1,3,9,,,,,1,0,16,8,0,3,3,2,,,,,,,,,1,0.8361523369967472,089,001,2019_Aug_29_0913,MusicAffectPsychophysiology2019,3.0.5,60.007318496595744,
To what extent did the music make you feel ,HAPPY,30MonoWAV/30MonoS1.wav,1,1,3,9,,,,,1,0,16,8,0,4,4,6,,,,,,,,,1,1.2695920100086369,089,001,2019_Aug_29_0913,MusicAffectPsychophysiology2019,3.0.5,60.007318496595744,
To what extent did the music make you feel ,ANXIOUS ,30MonoWAV/30MonoS1.wav,1,1,3,9,,,,,1,0,16,8,0,5,5,1,,,,,,,,,4,1.3189903140009847,089,001,2019_Aug_29_0913,MusicAffectPsychophysiology2019,3.0.5,60.007318496595744,
To what extent did the music make you feel ,ALERT,30MonoWAV/30MonoS1.wav,1,1,3,9,,,,,1,0,16,8,0,6,6,8,,,,,,,,,1,1.3190456200100016,089,001,2019_Aug_29_0913,MusicAffectPsychophysiology2019,3.0.5,60.007318496595744,
To what extent did the music make you feel ,ASHAMED,30MonoWAV/30MonoS1.wav,1,1,3,9,,,,,1,0,16,8,0,7,7,4,,,,,,,,,4,1.2530627520172857,089,001,2019_Aug_29_0913,MusicAffectPsychophysiology2019,3.0.5,60.007318496595744,
To what extent did the music make you feel ,ACTIVE,30MonoWAV/30MonoS1.wav,1,1,3,9,,,,,1,0,16,8,0,8,8,9,,,,,,,,,1,1.0029479099903256,089,001,2019_Aug_29_0913,MusicAffectPsychophysiology2019,3.0.5,60.007318496595744,
To what extent did the music make you feel ,GUILTY,30MonoWAV/30MonoS1.wav,1,1,3,9,,,,,1,0,16,8,0,9,9,5,,,,,,,,,4,0.9854757520079147,089,001,2019_Aug_29_0913,MusicAffectPsychophysiology2019,3.0.5,60.007318496595744,
To what extent did the music make you feel ,TENDER,30MonoWAV/30MonoS1.wav,1,1,3,9,,,,,1,0,16,8,0,10,10,10,,,,,,,,,2,1.4869672630156856,089,001,2019_Aug_29_0913,MusicAffectPsychophysiology2019,3.0.5,60.007318496595744,
To what extent did the music make you feel ,SAD,30MonoWAV/30MonoS1.wav,1,1,3,9,,,,,1,0,16,8,0,11,11,0,,,,,,,,,5,1.0589376259886194,089,001,2019_Aug_29_0913,MusicAffectPsychophysiology2019,3.0.5,60.007318496595744,
,,30MonoWAV/30MonoS1.wav,1,1,3,9,,,,,1,0,16,8,,,,,,,,,,,,,,,089,001,2019_Aug_29_0913,MusicAffectPsychophysiology2019,3.0.5,60.007318496595744,
To what extent did the music make you feel ,SCARED,30MonoWAV/30MonoH2.wav,2,2,1,6,,,,,1,1,17,5,0,0,0,11,,,4,3.3363881149853114,4,1.535158932005288,4,0.9186405719956383,1,1.40221302700229,089,001,2019_Aug_29_0913,MusicAffectPsychophysiology2019,3.0.5,60.007318496595744,
To what extent did the music make you feel ,ANXIOUS ,30MonoWAV/30MonoH2.wav,2,2,1,6,,,,,1,1,17,5,0,1,1,1,,,,,,,,,1,0.9521563190210145,089,001,2019_Aug_29_0913,MusicAffectPsychophysiology2019,3.0.5,60.007318496595744,
To what extent did the music make you feel ,FRUSTRATED,30MonoWAV/30MonoH2.wav,2,2,1,6,,,,,1,1,17,5,0,2,2,3,,,,,,,,,1,1.0200492459989619,089,001,2019_Aug_29_0913,MusicAffectPsychophysiology2019,3.0.5,60.007318496595744,
To what extent did the music make you feel ,TENDER,30MonoWAV/30MonoH2.wav,2,2,1,6,,,,,1,1,17,5,0,3,3,10,,,,,,,,,1,0.9525757669762243,089,001,2019_Aug_29_0913,MusicAffectPsychophysiology2019,3.0.5,60.007318496595744,
To what extent did the music make you feel ,ASHAMED,30MonoWAV/30MonoH2.wav,2,2,1,6,,,,,1,1,17,5,0,4,4,4,,,,,,,,,1,0.7361435949860606,089,001,2019_Aug_29_0913,MusicAffectPsychophysiology2019,3.0.5,60.007318496595744,
To what extent did the music make you feel ,ACTIVE,30MonoWAV/30MonoH2.wav,2,2,1,6,,,,,1,1,17,5,0,5,5,9,,,,,,,,,4,1.3032844309927896,089,001,2019_Aug_29_0913,MusicAffectPsychophysiology2019,3.0.5,60.007318496595744,
To what extent did the music make you feel ,GUILTY,30MonoWAV/30MonoH2.wav,2,2,1,6,,,,,1,1,17,5,0,6,6,5,,,,,,,,,1,0.9523166720173322,089,001,2019_Aug_29_0913,MusicAffectPsychophysiology2019,3.0.5,60.007318496595744,
To what extent did the music make you feel ,ALERT,30MonoWAV/30MonoH2.wav,2,2,1,6,,,,,1,1,17,5,0,7,7,8,,,,,,,,,4,0.9493089119787328,089,001,2019_Aug_29_0913,MusicAffectPsychophysiology2019,3.0.5,60.007318496595744,
To what extent did the music make you feel ,SAD,30MonoWAV/30MonoH2.wav,2,2,1,6,,,,,1,1,17,5,0,8,8,0,,,,,,,,,1,0.8362929700233508,089,001,2019_Aug_29_0913,MusicAffectPsychophysiology2019,3.0.5,60.007318496595744,
To what extent did the music make you feel ,HAPPY,30MonoWAV/30MonoH2.wav,2,2,1,6,,,,,1,1,17,5,0,9,9,6,,,,,,,,,5,0.7853541260119528,089,001,2019_Aug_29_0913,MusicAffectPsychophysiology2019,3.0.5,60.007318496595744,
To what extent did the music make you feel ,EXCITED,30MonoWAV/30MonoH2.wav,2,2,1,6,,,,,1,1,17,5,0,10,10,7,,,,,,,,,5,1.0361874619848095,089,001,2019_Aug_29_0913,MusicAffectPsychophysiology2019,3.0.5,60.007318496595744,
To what extent did the music make you feel ,ANGRY,30MonoWAV/30MonoH2.wav,2,2,1,6,,,,,1,1,17,5,0,11,11,2,,,,,,,,,1,0.9348007700173184,089,001,2019_Aug_29_0913,MusicAffectPsychophysiology2019,3.0.5,60.007318496595744,
,,30MonoWAV/30MonoH2.wav,2,2,1,6,,,,,1,1,17,5,,,,,,,,,,,,,,,089,001,2019_Aug_29_0913,MusicAffectPsychophysiology2019,3.0.5,60.007318496595744,
To what extent did the music make you feel ,TENDER,30MonoWAV/30MonoT3.wav,2,1,4,15,,,,,1,2,18,14,0,0,0,10,,,2,3.520969706005417,2,1.0870335859945044,3,1.0182315529964399,2,1.9598594249982852,089,001,2019_Aug_29_0913,MusicAffectPsychophysiology2019,3.0.5,60.007318496595744,
To what extent did the music make you feel ,ANGRY,30MonoWAV/30MonoT3.wav,2,1,4,15,,,,,1,2,18,14,0,1,1,2,,,,,,,,,1,1.3530442339833826,089,001,2019_Aug_29_0913,MusicAffectPsychophysiology2019,3.0.5,60.007318496595744,
To what extent did the music make you feel ,HAPPY,30MonoWAV/30MonoT3.wav,2,1,4,15,,,,,1,2,18,14,0,2,2,6,,,,,,,,,1,1.2169367689930368,089,001,2019_Aug_29_0913,MusicAffectPsychophysiology2019,3.0.5,60.007318496595744,
To what extent did the music make you feel ,ALERT,30MonoWAV/30MonoT3.wav,2,1,4,15,,,,,1,2,18,14,0,3,3,8,,,,,,,,,1,1.1362127169850282,089,001,2019_Aug_29_0913,MusicAffectPsychophysiology2019,3.0.5,60.007318496595744,
To what extent did the music make you feel ,GUILTY,30MonoWAV/30MonoT3.wav,2,1,4,15,,,,,1,2,18,14,0,4,4,5,,,,,,,,,1,1.6337605500011705,089,001,2019_Aug_29_0913,MusicAffectPsychophysiology2019,3.0.5,60.007318496595744,
To what extent did the music make you feel ,ANXIOUS ,30MonoWAV/30MonoT3.wav,2,1,4,15,,,,,1,2,18,14,0,5,5,1,,,,,,,,,3,1.4029713780037127,089,001,2019_Aug_29_0913,MusicAffectPsychophysiology2019,3.0.5,60.007318496595744,
To what extent did the music make you feel ,EXCITED,30MonoWAV/30MonoT3.wav,2,1,4,15,,,,,1,2,18,14,0,6,6,7,,,,,,,,,1,0.9187849130248651,089,001,2019_Aug_29_0913,MusicAffectPsychophysiology2019,3.0.5,60.007318496595744,
To what extent did the music make you feel ,SCARED,30MonoWAV/30MonoT3.wav,2,1,4,15,,,,,1,2,18,14,0,7,7,11,,,,,,,,,2,1.3192089799849782,089,001,2019_Aug_29_0913,MusicAffectPsychophysiology2019,3.0.5,60.007318496595744,
To what extent did the music make you feel ,FRUSTRATED,30MonoWAV/30MonoT3.wav,2,1,4,15,,,,,1,2,18,14,0,8,8,3,,,,,,,,,1,1.4199494890053757,089,001,2019_Aug_29_0913,MusicAffectPsychophysiology2019,3.0.5,60.007318496595744,
To what extent did the music make you feel ,ASHAMED,30MonoWAV/30MonoT3.wav,2,1,4,15,,,,,1,2,18,14,0,9,9,4,,,,,,,,,1,1.6859271690191235,089,001,2019_Aug_29_0913,MusicAffectPsychophysiology2019,3.0.5,60.007318496595744,
To what extent did the music make you feel ,SAD,30MonoWAV/30MonoT3.wav,2,1,4,15,,,,,1,2,18,14,0,10,10,0,,,,,,,,,4,1.9528865790052805,089,001,2019_Aug_29_0913,MusicAffectPsychophysiology2019,3.0.5,60.007318496595744,
To what extent did the music make you feel ,ACTIVE,30MonoWAV/30MonoT3.wav,2,1,4,15,,,,,1,2,18,14,0,11,11,9,,,,,,,,,1,0.9695687729981728,089,001,2019_Aug_29_0913,MusicAffectPsychophysiology2019,3.0.5,60.007318496595744,
,,30MonoWAV/30MonoT3.wav,2,1,4,15,,,,,1,2,18,14,,,,,,,,,,,,,,,089,001,2019_Aug_29_0913,MusicAffectPsychophysiology2019,3.0.5,60.007318496595744,
To what extent did the music make you feel ,TENDER,30MonoWAV/30MonoH1.wav,2,2,1,5,,,,,1,3,19,4,0,0,0,10,,,4,3.6353442179970443,4,3.0705801339936443,4,2.65136727198842,1,1.338321379997069,089,001,2019_Aug_29_0913,MusicAffectPsychophysiology2019,3.0.5,60.007318496595744,
To what extent did the music make you feel ,ASHAMED,30MonoWAV/30MonoH1.wav,2,2,1,5,,,,,1,3,19,4,0,1,1,4,,,,,,,,,1,0.7691926459956449,089,001,2019_Aug_29_0913,MusicAffectPsychophysiology2019,3.0.5,60.007318496595744,
To what extent did the music make you feel ,FRUSTRATED,30MonoWAV/30MonoH1.wav,2,2,1,5,,,,,1,3,19,4,0,2,2,3,,,,,,,,,1,0.5701793640037067,089,001,2019_Aug_29_0913,MusicAffectPsychophysiology2019,3.0.5,60.007318496595744,
To what extent did the music make you feel ,SAD,30MonoWAV/30MonoH1.wav,2,2,1,5,,,,,1,3,19,4,0,3,3,0,,,,,,,,,1,0.7532562749984208,089,001,2019_Aug_29_0913,MusicAffectPsychophysiology2019,3.0.5,60.007318496595744,
To what extent did the music make you feel ,HAPPY,30MonoWAV/30MonoH1.wav,2,2,1,5,,,,,1,3,19,4,0,4,4,6,,,,,,,,,4,1.1034721670148429,089,001,2019_Aug_29_0913,MusicAffectPsychophysiology2019,3.0.5,60.007318496595744,
To what extent did the music make you feel ,ALERT,30MonoWAV/30MonoH1.wav,2,2,1,5,,,,,1,3,19,4,0,5,5,8,,,,,,,,,4,1.3535724279936403,089,001,2019_Aug_29_0913,MusicAffectPsychophysiology2019,3.0.5,60.007318496595744,
To what extent did the music make you feel ,GUILTY,30MonoWAV/30MonoH1.wav,2,2,1,5,,,,,1,3,19,4,0,6,6,5,,,,,,,,,1,1.017311700998107,089,001,2019_Aug_29_0913,MusicAffectPsychophysiology2019,3.0.5,60.007318496595744,
To what extent did the music make you feel ,ANGRY,30MonoWAV/30MonoH1.wav,2,2,1,5,,,,,1,3,19,4,0,7,7,2,,,,,,,,,1,1.2030358490010258,089,001,2019_Aug_29_0913,MusicAffectPsychophysiology2019,3.0.5,60.007318496595744,
To what extent did the music make you feel ,SCARED,30MonoWAV/30MonoH1.wav,2,2,1,5,,,,,1,3,19,4,0,8,8,11,,,,,,,,,1,0.9698877670161892,089,001,2019_Aug_29_0913,MusicAffectPsychophysiology2019,3.0.5,60.007318496595744,
To what extent did the music make you feel ,ACTIVE,30MonoWAV/30MonoH1.wav,2,2,1,5,,,,,1,3,19,4,0,9,9,9,,,,,,,,,5,1.6691976150032133,089,001,2019_Aug_29_0913,MusicAffectPsychophysiology2019,3.0.5,60.007318496595744,
To what extent did the music make you feel ,EXCITED,30MonoWAV/30MonoH1.wav,2,2,1,5,,,,,1,3,19,4,0,10,10,7,,,,,,,,,5,1.2857389689888805,089,001,2019_Aug_29_0913,MusicAffectPsychophysiology2019,3.0.5,60.007318496595744,
To what extent did the music make you feel ,ANXIOUS ,30MonoWAV/30MonoH1.wav,2,2,1,5,,,,,1,3,19,4,0,11,11,1,,,,,,,,,1,1.0192359979846515,089,001,2019_Aug_29_0913,MusicAffectPsychophysiology2019,3.0.5,60.007318496595744,
,,30MonoWAV/30MonoH1.wav,2,2,1,5,,,,,1,3,19,4,,,,,,,,,,,,,,,089,001,2019_Aug_29_0913,MusicAffectPsychophysiology2019,3.0.5,60.007318496595744,
To what extent did the music make you feel ,SAD,30MonoWAV/30MonoF4.wav,1,2,2,4,,,,,1,4,20,3,0,0,0,0,,,4,4.7864442659774795,1,1.3857184350199532,2,1.0858346720051486,1,1.4028353100002278,089,001,2019_Aug_29_0913,MusicAffectPsychophysiology2019,3.0.5,60.007318496595744,
To what extent did the music make you feel ,ACTIVE,30MonoWAV/30MonoF4.wav,1,2,2,4,,,,,1,4,20,3,0,1,1,9,,,,,,,,,3,1.5864313060010318,089,001,2019_Aug_29_0913,MusicAffectPsychophysiology2019,3.0.5,60.007318496595744,
To what extent did the music make you feel ,ANXIOUS ,30MonoWAV/30MonoF4.wav,1,2,2,4,,,,,1,4,20,3,0,2,2,1,,,,,,,,,5,1.2021854869963136,089,001,2019_Aug_29_0913,MusicAffectPsychophysiology2019,3.0.5,60.007318496595744,
To what extent did the music make you feel ,GUILTY,30MonoWAV/30MonoF4.wav,1,2,2,4,,,,,1,4,20,3,0,3,3,5,,,,,,,,,2,2.350502287008567,089,001,2019_Aug_29_0913,MusicAffectPsychophysiology2019,3.0.5,60.007318496595744,
To what extent did the music make you feel ,FRUSTRATED,30MonoWAV/30MonoF4.wav,1,2,2,4,,,,,1,4,20,3,0,4,4,3,,,,,,,,,1,0.9683487800066359,089,001,2019_Aug_29_0913,MusicAffectPsychophysiology2019,3.0.5,60.007318496595744,
To what extent did the music make you feel ,HAPPY,30MonoWAV/30MonoF4.wav,1,2,2,4,,,,,1,4,20,3,0,5,5,6,,,,,,,,,1,1.2857365550007671,089,001,2019_Aug_29_0913,MusicAffectPsychophysiology2019,3.0.5,60.007318496595744,
To what extent did the music make you feel ,SCARED,30MonoWAV/30MonoF4.wav,1,2,2,4,,,,,1,4,20,3,0,6,6,11,,,,,,,,,5,1.1163645509805065,089,001,2019_Aug_29_0913,MusicAffectPsychophysiology2019,3.0.5,60.007318496595744,
To what extent did the music make you feel ,ALERT,30MonoWAV/30MonoF4.wav,1,2,2,4,,,,,1,4,20,3,0,7,7,8,,,,,,,,,4,1.0692793680063915,089,001,2019_Aug_29_0913,MusicAffectPsychophysiology2019,3.0.5,60.007318496595744,
To what extent did the music make you feel ,EXCITED,30MonoWAV/30MonoF4.wav,1,2,2,4,,,,,1,4,20,3,0,8,8,7,,,,,,,,,1,1.0196610649873037,089,001,2019_Aug_29_0913,MusicAffectPsychophysiology2019,3.0.5,60.007318496595744,
To what extent did the music make you feel ,ANGRY,30MonoWAV/30MonoF4.wav,1,2,2,4,,,,,1,4,20,3,0,9,9,2,,,,,,,,,1,2.7850287850014865,089,001,2019_Aug_29_0913,MusicAffectPsychophysiology2019,3.0.5,60.007318496595744,
To what extent did the music make you feel ,ASHAMED,30MonoWAV/30MonoF4.wav,1,2,2,4,,,,,1,4,20,3,0,10,10,4,,,,,,,,,1,0.986148523981683,089,001,2019_Aug_29_0913,MusicAffectPsychophysiology2019,3.0.5,60.007318496595744,
To what extent did the music make you feel ,TENDER,30MonoWAV/30MonoF4.wav,1,2,2,4,,,,,1,4,20,3,0,11,11,10,,,,,,,,,1,0.7180109049950261,089,001,2019_Aug_29_0913,MusicAffectPsychophysiology2019,3.0.5,60.007318496595744,
,,30MonoWAV/30MonoF4.wav,1,2,2,4,,,,,1,4,20,3,,,,,,,,,,,,,,,089,001,2019_Aug_29_0913,MusicAffectPsychophysiology2019,3.0.5,60.007318496595744,
To what extent did the music make you feel ,SCARED,30MonoWAV/30MonoF3.wav,1,2,2,3,,,,,1,5,21,2,0,0,0,11,,,2,4.586403704015538,1,0.8023775650071912,1,1.2353670390148181,4,1.6571451310010161,089,001,2019_Aug_29_0913,MusicAffectPsychophysiology2019,3.0.5,60.007318496595744,
To what extent did the music make you feel ,ANGRY,30MonoWAV/30MonoF3.wav,1,2,2,3,,,,,1,5,21,2,0,1,1,2,,,,,,,,,1,1.3688945449830499,089,001,2019_Aug_29_0913,MusicAffectPsychophysiology2019,3.0.5,60.007318496595744,
To what extent did the music make you feel ,ALERT,30MonoWAV/30MonoF3.wav,1,2,2,3,,,,,1,5,21,2,0,2,2,8,,,,,,,,,3,1.749881188996369,089,001,2019_Aug_29_0913,MusicAffectPsychophysiology2019,3.0.5,60.007318496595744,
To what extent did the music make you feel ,FRUSTRATED,30MonoWAV/30MonoF3.wav,1,2,2,3,,,,,1,5,21,2,0,3,3,3,,,,,,,,,1,1.216182452015346,089,001,2019_Aug_29_0913,MusicAffectPsychophysiology2019,3.0.5,60.007318496595744,
To what extent did the music make you feel ,EXCITED,30MonoWAV/30MonoF3.wav,1,2,2,3,,,,,1,5,21,2,0,4,4,7,,,,,,,,,1,1.3522940519906115,089,001,2019_Aug_29_0913,MusicAffectPsychophysiology2019,3.0.5,60.007318496595744,
To what extent did the music make you feel ,SAD,30MonoWAV/30MonoF3.wav,1,2,2,3,,,,,1,5,21,2,0,5,5,0,,,,,,,,,1,0.6353317589964718,089,001,2019_Aug_29_0913,MusicAffectPsychophysiology2019,3.0.5,60.007318496595744,
To what extent did the music make you feel ,TENDER,30MonoWAV/30MonoF3.wav,1,2,2,3,,,,,1,5,21,2,0,6,6,10,,,,,,,,,1,0.7200553970178589,089,001,2019_Aug_29_0913,MusicAffectPsychophysiology2019,3.0.5,60.007318496595744,
To what extent did the music make you feel ,GUILTY,30MonoWAV/30MonoF3.wav,1,2,2,3,,,,,1,5,21,2,0,7,7,5,,,,,,,,,2,1.135115337005118,089,001,2019_Aug_29_0913,MusicAffectPsychophysiology2019,3.0.5,60.007318496595744,
To what extent did the music make you feel ,ASHAMED,30MonoWAV/30MonoF3.wav,1,2,2,3,,,,,1,5,21,2,0,8,8,4,,,,,,,,,1,1.051826554001309,089,001,2019_Aug_29_0913,MusicAffectPsychophysiology2019,3.0.5,60.007318496595744,
To what extent did the music make you feel ,HAPPY,30MonoWAV/30MonoF3.wav,1,2,2,3,,,,,1,5,21,2,0,9,9,6,,,,,,,,,1,2.2684175949834753,089,001,2019_Aug_29_0913,MusicAffectPsychophysiology2019,3.0.5,60.007318496595744,
To what extent did the music make you feel ,ANXIOUS ,30MonoWAV/30MonoF3.wav,1,2,2,3,,,,,1,5,21,2,0,10,10,1,,,,,,,,,5,1.0026544439897407,089,001,2019_Aug_29_0913,MusicAffectPsychophysiology2019,3.0.5,60.007318496595744,
To what extent did the music make you feel ,ACTIVE,30MonoWAV/30MonoF3.wav,1,2,2,3,,,,,1,5,21,2,0,11,11,9,,,,,,,,,2,1.4355655249964911,089,001,2019_Aug_29_0913,MusicAffectPsychophysiology2019,3.0.5,60.007318496595744,
,,30MonoWAV/30MonoF3.wav,1,2,2,3,,,,,1,5,21,2,,,,,,,,,,,,,,,089,001,2019_Aug_29_0913,MusicAffectPsychophysiology2019,3.0.5,60.007318496595744,
To what extent did the music make you feel ,SAD,30MonoWAV/30MonoT2.wav,2,1,4,14,,,,,1,6,22,13,0,0,0,0,,,3,2.485687501990469,5,1.167723966005724,4,1.1855805450177286,2,1.8360244969953783,089,001,2019_Aug_29_0913,MusicAffectPsychophysiology2019,3.0.5,60.007318496595744,
To what extent did the music make you feel ,FRUSTRATED,30MonoWAV/30MonoT2.wav,2,1,4,14,,,,,1,6,22,13,0,1,1,3,,,,,,,,,1,1.3689938909956254,089,001,2019_Aug_29_0913,MusicAffectPsychophysiology2019,3.0.5,60.007318496595744,
To what extent did the music make you feel ,ANXIOUS ,30MonoWAV/30MonoT2.wav,2,1,4,14,,,,,1,6,22,13,0,2,2,1,,,,,,,,,1,1.4186823700147215,089,001,2019_Aug_29_0913,MusicAffectPsychophysiology2019,3.0.5,60.007318496595744,
To what extent did the music make you feel ,ASHAMED,30MonoWAV/30MonoT2.wav,2,1,4,14,,,,,1,6,22,13,0,3,3,4,,,,,,,,,1,0.7528755670064129,089,001,2019_Aug_29_0913,MusicAffectPsychophysiology2019,3.0.5,60.007318496595744,
To what extent did the music make you feel ,GUILTY,30MonoWAV/30MonoT2.wav,2,1,4,14,,,,,1,6,22,13,0,4,4,5,,,,,,,,,1,0.6521535859792493,089,001,2019_Aug_29_0913,MusicAffectPsychophysiology2019,3.0.5,60.007318496595744,
To what extent did the music make you feel ,ALERT,30MonoWAV/30MonoT2.wav,2,1,4,14,,,,,1,6,22,13,0,5,5,8,,,,,,,,,1,1.0529202239995357,089,001,2019_Aug_29_0913,MusicAffectPsychophysiology2019,3.0.5,60.007318496595744,
To what extent did the music make you feel ,TENDER,30MonoWAV/30MonoT2.wav,2,1,4,14,,,,,1,6,22,13,0,6,6,10,,,,,,,,,3,1.1335320539947134,089,001,2019_Aug_29_0913,MusicAffectPsychophysiology2019,3.0.5,60.007318496595744,
To what extent did the music make you feel ,EXCITED,30MonoWAV/30MonoT2.wav,2,1,4,14,,,,,1,6,22,13,0,7,7,7,,,,,,,,,2,1.4852898370008916,089,001,2019_Aug_29_0913,MusicAffectPsychophysiology2019,3.0.5,60.007318496595744,
To what extent did the music make you feel ,HAPPY,30MonoWAV/30MonoT2.wav,2,1,4,14,,,,,1,6,22,13,0,8,8,6,,,,,,,,,5,1.2362467640195973,089,001,2019_Aug_29_0913,MusicAffectPsychophysiology2019,3.0.5,60.007318496595744,
To what extent did the music make you feel ,ACTIVE,30MonoWAV/30MonoT2.wav,2,1,4,14,,,,,1,6,22,13,0,9,9,9,,,,,,,,,1,1.4180596669903025,089,001,2019_Aug_29_0913,MusicAffectPsychophysiology2019,3.0.5,60.007318496595744,
To what extent did the music make you feel ,ANGRY,30MonoWAV/30MonoT2.wav,2,1,4,14,,,,,1,6,22,13,0,10,10,2,,,,,,,,,1,0.8852928179840092,089,001,2019_Aug_29_0913,MusicAffectPsychophysiology2019,3.0.5,60.007318496595744,
To what extent did the music make you feel ,SCARED,30MonoWAV/30MonoT2.wav,2,1,4,14,,,,,1,6,22,13,0,11,11,11,,,,,,,,,1,0.8018259929958731,089,001,2019_Aug_29_0913,MusicAffectPsychophysiology2019,3.0.5,60.007318496595744,
,,30MonoWAV/30MonoT2.wav,2,1,4,14,,,,,1,6,22,13,,,,,,,,,,,,,,,089,001,2019_Aug_29_0913,MusicAffectPsychophysiology2019,3.0.5,60.007318496595744,
To what extent did the music make you feel ,HAPPY,30MonoWAV/30MonoS4.wav,1,1,3,12,,,,,1,7,23,11,0,0,0,6,,,1,2.9033234330127016,1,0.8029871059989091,2,1.086273902998073,1,1.211598370980937,089,001,2019_Aug_29_0913,MusicAffectPsychophysiology2019,3.0.5,60.007318496595744,
To what extent did the music make you feel ,FRUSTRATED,30MonoWAV/30MonoS4.wav,1,1,3,12,,,,,1,7,23,11,0,1,1,3,,,,,,,,,1,0.6612253019993659,089,001,2019_Aug_29_0913,MusicAffectPsychophysiology2019,3.0.5,60.007318496595744,
To what extent did the music make you feel ,GUILTY,30MonoWAV/30MonoS4.wav,1,1,3,12,,,,,1,7,23,11,0,2,2,5,,,,,,,,,4,1.768715213984251,089,001,2019_Aug_29_0913,MusicAffectPsychophysiology2019,3.0.5,60.007318496595744,
To what extent did the music make you feel ,TENDER,30MonoWAV/30MonoS4.wav,1,1,3,12,,,,,1,7,23,11,0,3,3,10,,,,,,,,,2,1.5191769569937605,089,001,2019_Aug_29_0913,MusicAffectPsychophysiology2019,3.0.5,60.007318496595744,
To what extent did the music make you feel ,EXCITED,30MonoWAV/30MonoS4.wav,1,1,3,12,,,,,1,7,23,11,0,4,4,7,,,,,,,,,1,1.0611913640168495,089,001,2019_Aug_29_0913,MusicAffectPsychophysiology2019,3.0.5,60.007318496595744,
To what extent did the music make you feel ,ALERT,30MonoWAV/30MonoS4.wav,1,1,3,12,,,,,1,7,23,11,0,5,5,8,,,,,,,,,1,0.8697938339901157,089,001,2019_Aug_29_0913,MusicAffectPsychophysiology2019,3.0.5,60.007318496595744,
To what extent did the music make you feel ,ANGRY,30MonoWAV/30MonoS4.wav,1,1,3,12,,,,,1,7,23,11,0,6,6,2,,,,,,,,,1,0.5199142660130747,089,001,2019_Aug_29_0913,MusicAffectPsychophysiology2019,3.0.5,60.007318496595744,
To what extent did the music make you feel ,ANXIOUS ,30MonoWAV/30MonoS4.wav,1,1,3,12,,,,,1,7,23,11,0,7,7,1,,,,,,,,,4,1.418977322988212,089,001,2019_Aug_29_0913,MusicAffectPsychophysiology2019,3.0.5,60.007318496595744,
To what extent did the music make you feel ,SCARED,30MonoWAV/30MonoS4.wav,1,1,3,12,,,,,1,7,23,11,0,8,8,11,,,,,,,,,1,0.7534737829992082,089,001,2019_Aug_29_0913,MusicAffectPsychophysiology2019,3.0.5,60.007318496595744,
To what extent did the music make you feel ,ACTIVE,30MonoWAV/30MonoS4.wav,1,1,3,12,,,,,1,7,23,11,0,9,9,9,,,,,,,,,1,1.0028956239984836,089,001,2019_Aug_29_0913,MusicAffectPsychophysiology2019,3.0.5,60.007318496595744,
To what extent did the music make you feel ,ASHAMED,30MonoWAV/30MonoS4.wav,1,1,3,12,,,,,1,7,23,11,0,10,10,4,,,,,,,,,5,1.7856723659788258,089,001,2019_Aug_29_0913,MusicAffectPsychophysiology2019,3.0.5,60.007318496595744,
To what extent did the music make you feel ,SAD,30MonoWAV/30MonoS4.wav,1,1,3,12,,,,,1,7,23,11,0,11,11,0,,,,,,,,,5,1.46958474200801,089,001,2019_Aug_29_0913,MusicAffectPsychophysiology2019,3.0.5,60.007318496595744,
,,30MonoWAV/30MonoS4.wav,1,1,3,12,,,,,1,7,23,11,,,,,,,,,,,,,,,089,001,2019_Aug_29_0913,MusicAffectPsychophysiology2019,3.0.5,60.007318496595744,
To what extent did the music make you feel ,ACTIVE,30MonoWAV/30MonoH4.wav,2,2,1,8,,,,,1,8,24,7,0,0,0,9,,,5,2.9867809569987003,5,0.8352605190011673,5,0.6335897370008752,5,1.5880039030162152,089,001,2019_Aug_29_0913,MusicAffectPsychophysiology2019,3.0.5,60.007318496595744,
To what extent did the music make you feel ,ANXIOUS ,30MonoWAV/30MonoH4.wav,2,2,1,8,,,,,1,8,24,7,0,1,1,1,,,,,,,,,1,0.9857597700029146,089,001,2019_Aug_29_0913,MusicAffectPsychophysiology2019,3.0.5,60.007318496595744,
To what extent did the music make you feel ,EXCITED,30MonoWAV/30MonoH4.wav,2,2,1,8,,,,,1,8,24,7,0,2,2,7,,,,,,,,,5,1.01691511599347,089,001,2019_Aug_29_0913,MusicAffectPsychophysiology2019,3.0.5,60.007318496595744,
To what extent did the music make you feel ,SCARED,30MonoWAV/30MonoH4.wav,2,2,1,8,,,,,1,8,24,7,0,3,3,11,,,,,,,,,1,1.1696056139771827,089,001,2019_Aug_29_0913,MusicAffectPsychophysiology2019,3.0.5,60.007318496595744,
To what extent did the music make you feel ,SAD,30MonoWAV/30MonoH4.wav,2,2,1,8,,,,,1,8,24,7,0,4,4,0,,,,,,,,,1,0.8024488519877195,089,001,2019_Aug_29_0913,MusicAffectPsychophysiology2019,3.0.5,60.007318496595744,
To what extent did the music make you feel ,FRUSTRATED,30MonoWAV/30MonoH4.wav,2,2,1,8,,,,,1,8,24,7,0,5,5,3,,,,,,,,,1,0.6215328400139697,089,001,2019_Aug_29_0913,MusicAffectPsychophysiology2019,3.0.5,60.007318496595744,
To what extent did the music make you feel ,ASHAMED,30MonoWAV/30MonoH4.wav,2,2,1,8,,,,,1,8,24,7,0,6,6,4,,,,,,,,,1,0.7374441309948452,089,001,2019_Aug_29_0913,MusicAffectPsychophysiology2019,3.0.5,60.007318496595744,
To what extent did the music make you feel ,TENDER,30MonoWAV/30MonoH4.wav,2,2,1,8,,,,,1,8,24,7,0,7,7,10,,,,,,,,,1,0.6715423759887926,089,001,2019_Aug_29_0913,MusicAffectPsychophysiology2019,3.0.5,60.007318496595744,
To what extent did the music make you feel ,GUILTY,30MonoWAV/30MonoH4.wav,2,2,1,8,,,,,1,8,24,7,0,8,8,5,,,,,,,,,1,0.7356247529969551,089,001,2019_Aug_29_0913,MusicAffectPsychophysiology2019,3.0.5,60.007318496595744,
To what extent did the music make you feel ,ANGRY,30MonoWAV/30MonoH4.wav,2,2,1,8,,,,,1,8,24,7,0,9,9,2,,,,,,,,,1,0.7036950569890905,089,001,2019_Aug_29_0913,MusicAffectPsychophysiology2019,3.0.5,60.007318496595744,
To what extent did the music make you feel ,HAPPY,30MonoWAV/30MonoH4.wav,2,2,1,8,,,,,1,8,24,7,0,10,10,6,,,,,,,,,5,0.9863172440091148,089,001,2019_Aug_29_0913,MusicAffectPsychophysiology2019,3.0.5,60.007318496595744,
To what extent did the music make you feel ,ALERT,30MonoWAV/30MonoH4.wav,2,2,1,8,,,,,1,8,24,7,0,11,11,8,,,,,,,,,4,1.3358393140078988,089,001,2019_Aug_29_0913,MusicAffectPsychophysiology2019,3.0.5,60.007318496595744,
,,30MonoWAV/30MonoH4.wav,2,2,1,8,,,,,1,8,24,7,,,,,,,,,,,,,,,089,001,2019_Aug_29_0913,MusicAffectPsychophysiology2019,3.0.5,60.007318496595744,
To what extent did the music make you feel ,SAD,30MonoWAV/30MonoT1.wav,2,1,4,13,,,,,1,9,25,12,0,0,0,0,,,2,3.2705006070027594,3,1.186553596984595,4,0.01750822301255539,3,7.151251488015987,089,001,2019_Aug_29_0913,MusicAffectPsychophysiology2019,3.0.5,60.007318496595744,
To what extent did the music make you feel ,ANGRY,30MonoWAV/30MonoT1.wav,2,1,4,13,,,,,1,9,25,12,0,1,1,2,,,,,,,,,1,2.021044315013569,089,001,2019_Aug_29_0913,MusicAffectPsychophysiology2019,3.0.5,60.007318496595744,
To what extent did the music make you feel ,GUILTY,30MonoWAV/30MonoT1.wav,2,1,4,13,,,,,1,9,25,12,0,2,2,5,,,,,,,,,2,1.6127479469869286,089,001,2019_Aug_29_0913,MusicAffectPsychophysiology2019,3.0.5,60.007318496595744,
To what extent did the music make you feel ,ASHAMED,30MonoWAV/30MonoT1.wav,2,1,4,13,,,,,1,9,25,12,0,3,3,4,,,,,,,,,2,1.0369305399945006,089,001,2019_Aug_29_0913,MusicAffectPsychophysiology2019,3.0.5,60.007318496595744,
To what extent did the music make you feel ,FRUSTRATED,30MonoWAV/30MonoT1.wav,2,1,4,13,,,,,1,9,25,12,0,4,4,3,,,,,,,,,1,0.8660756979952566,089,001,2019_Aug_29_0913,MusicAffectPsychophysiology2019,3.0.5,60.007318496595744,
To what extent did the music make you feel ,HAPPY,30MonoWAV/30MonoT1.wav,2,1,4,13,,,,,1,9,25,12,0,5,5,6,,,,,,,,,1,1.8029104600136634,089,001,2019_Aug_29_0913,MusicAffectPsychophysiology2019,3.0.5,60.007318496595744,
To what extent did the music make you feel ,TENDER,30MonoWAV/30MonoT1.wav,2,1,4,13,,,,,1,9,25,12,0,6,6,10,,,,,,,,,3,1.0290423659898806,089,001,2019_Aug_29_0913,MusicAffectPsychophysiology2019,3.0.5,60.007318496595744,
To what extent did the music make you feel ,EXCITED,30MonoWAV/30MonoT1.wav,2,1,4,13,,,,,1,9,25,12,0,7,7,7,,,,,,,,,1,0.8869184909854084,089,001,2019_Aug_29_0913,MusicAffectPsychophysiology2019,3.0.5,60.007318496595744,
To what extent did the music make you feel ,ANXIOUS ,30MonoWAV/30MonoT1.wav,2,1,4,13,,,,,1,9,25,12,0,8,8,1,,,,,,,,,2,1.5531602280098014,089,001,2019_Aug_29_0913,MusicAffectPsychophysiology2019,3.0.5,60.007318496595744,
To what extent did the music make you feel ,ACTIVE,30MonoWAV/30MonoT1.wav,2,1,4,13,,,,,1,9,25,12,0,9,9,9,,,,,,,,,1,0.9522427300107665,089,001,2019_Aug_29_0913,MusicAffectPsychophysiology2019,3.0.5,60.007318496595744,
To what extent did the music make you feel ,ALERT,30MonoWAV/30MonoT1.wav,2,1,4,13,,,,,1,9,25,12,0,10,10,8,,,,,,,,,1,0.9876749069953803,089,001,2019_Aug_29_0913,MusicAffectPsychophysiology2019,3.0.5,60.007318496595744,
To what extent did the music make you feel ,SCARED,30MonoWAV/30MonoT1.wav,2,1,4,13,,,,,1,9,25,12,0,11,11,11,,,,,,,,,1,0.6642296460049693,089,001,2019_Aug_29_0913,MusicAffectPsychophysiology2019,3.0.5,60.007318496595744,
,,30MonoWAV/30MonoT1.wav,2,1,4,13,,,,,1,9,25,12,,,,,,,,,,,,,,,089,001,2019_Aug_29_0913,MusicAffectPsychophysiology2019,3.0.5,60.007318496595744,
To what extent did the music make you feel ,EXCITED,30MonoWAV/30MonoH3.wav,2,2,1,7,,,,,1,10,26,6,0,0,0,7,,,4,2.702129003999289,4,1.869858491991181,4,1.2186072439944837,4,1.6255025290010963,089,001,2019_Aug_29_0913,MusicAffectPsychophysiology2019,3.0.5,60.007318496595744,
To what extent did the music make you feel ,ACTIVE,30MonoWAV/30MonoH3.wav,2,2,1,7,,,,,1,10,26,6,0,1,1,9,,,,,,,,,4,0.8362034790043253,089,001,2019_Aug_29_0913,MusicAffectPsychophysiology2019,3.0.5,60.007318496595744,
To what extent did the music make you feel ,ASHAMED,30MonoWAV/30MonoH3.wav,2,2,1,7,,,,,1,10,26,6,0,2,2,4,,,,,,,,,1,0.9519961869809777,089,001,2019_Aug_29_0913,MusicAffectPsychophysiology2019,3.0.5,60.007318496595744,
To what extent did the music make you feel ,HAPPY,30MonoWAV/30MonoH3.wav,2,2,1,7,,,,,1,10,26,6,0,3,3,6,,,,,,,,,4,1.083504587993957,089,001,2019_Aug_29_0913,MusicAffectPsychophysiology2019,3.0.5,60.007318496595744,
To what extent did the music make you feel ,TENDER,30MonoWAV/30MonoH3.wav,2,2,1,7,,,,,1,10,26,6,0,4,4,10,,,,,,,,,1,0.9501098819891922,089,001,2019_Aug_29_0913,MusicAffectPsychophysiology2019,3.0.5,60.007318496595744,
To what extent did the music make you feel ,FRUSTRATED,30MonoWAV/30MonoH3.wav,2,2,1,7,,,,,1,10,26,6,0,5,5,3,,,,,,,,,1,0.953302194015123,089,001,2019_Aug_29_0913,MusicAffectPsychophysiology2019,3.0.5,60.007318496595744,
To what extent did the music make you feel ,SCARED,30MonoWAV/30MonoH3.wav,2,2,1,7,,,,,1,10,26,6,0,6,6,11,,,,,,,,,1,0.9202429630095139,089,001,2019_Aug_29_0913,MusicAffectPsychophysiology2019,3.0.5,60.007318496595744,
To what extent did the music make you feel ,ANXIOUS ,30MonoWAV/30MonoH3.wav,2,2,1,7,,,,,1,10,26,6,0,7,7,1,,,,,,,,,1,0.8696774560085032,089,001,2019_Aug_29_0913,MusicAffectPsychophysiology2019,3.0.5,60.007318496595744,
To what extent did the music make you feel ,SAD,30MonoWAV/30MonoH3.wav,2,2,1,7,,,,,1,10,26,6,0,8,8,0,,,,,,,,,1,1.2497189220157452,089,001,2019_Aug_29_0913,MusicAffectPsychophysiology2019,3.0.5,60.007318496595744,
To what extent did the music make you feel ,GUILTY,30MonoWAV/30MonoH3.wav,2,2,1,7,,,,,1,10,26,6,0,9,9,5,,,,,,,,,1,0.6364333659876138,089,001,2019_Aug_29_0913,MusicAffectPsychophysiology2019,3.0.5,60.007318496595744,
To what extent did the music make you feel ,ALERT,30MonoWAV/30MonoH3.wav,2,2,1,7,,,,,1,10,26,6,0,10,10,8,,,,,,,,,4,1.4189641730044968,089,001,2019_Aug_29_0913,MusicAffectPsychophysiology2019,3.0.5,60.007318496595744,
To what extent did the music make you feel ,ANGRY,30MonoWAV/30MonoH3.wav,2,2,1,7,,,,,1,10,26,6,0,11,11,2,,,,,,,,,1,0.8531565719749779,089,001,2019_Aug_29_0913,MusicAffectPsychophysiology2019,3.0.5,60.007318496595744,
,,30MonoWAV/30MonoH3.wav,2,2,1,7,,,,,1,10,26,6,,,,,,,,,,,,,,,089,001,2019_Aug_29_0913,MusicAffectPsychophysiology2019,3.0.5,60.007318496595744,
To what extent did the music make you feel ,SAD,30MonoWAV/30MonoT4.wav,2,1,4,16,,,,,1,11,27,15,0,0,0,0,,,4,2.6030421189789195,3,1.2185211119940504,4,0.9692256310081575,2,1.4016827839950565,089,001,2019_Aug_29_0913,MusicAffectPsychophysiology2019,3.0.5,60.007318496595744,
To what extent did the music make you feel ,SCARED,30MonoWAV/30MonoT4.wav,2,1,4,16,,,,,1,11,27,15,0,1,1,11,,,,,,,,,1,1.2184630960109644,089,001,2019_Aug_29_0913,MusicAffectPsychophysiology2019,3.0.5,60.007318496595744,
To what extent did the music make you feel ,TENDER,30MonoWAV/30MonoT4.wav,2,1,4,16,,,,,1,11,27,15,0,2,2,10,,,,,,,,,3,1.4336720439896453,089,001,2019_Aug_29_0913,MusicAffectPsychophysiology2019,3.0.5,60.007318496595744,
To what extent did the music make you feel ,FRUSTRATED,30MonoWAV/30MonoT4.wav,2,1,4,16,,,,,1,11,27,15,0,3,3,3,,,,,,,,,1,1.4680598139821086,089,001,2019_Aug_29_0913,MusicAffectPsychophysiology2019,3.0.5,60.007318496595744,
To what extent did the music make you feel ,GUILTY,30MonoWAV/30MonoT4.wav,2,1,4,16,,,,,1,11,27,15,0,4,4,5,,,,,,,,,1,1.369614928989904,089,001,2019_Aug_29_0913,MusicAffectPsychophysiology2019,3.0.5,60.007318496595744,
To what extent did the music make you feel ,ANXIOUS ,30MonoWAV/30MonoT4.wav,2,1,4,16,,,,,1,11,27,15,0,5,5,1,,,,,,,,,2,1.037805088009918,089,001,2019_Aug_29_0913,MusicAffectPsychophysiology2019,3.0.5,60.007318496595744,
To what extent did the music make you feel ,ALERT,30MonoWAV/30MonoT4.wav,2,1,4,16,,,,,1,11,27,15,0,6,6,8,,,,,,,,,1,1.136576277000131,089,001,2019_Aug_29_0913,MusicAffectPsychophysiology2019,3.0.5,60.007318496595744,
To what extent did the music make you feel ,ASHAMED,30MonoWAV/30MonoT4.wav,2,1,4,16,,,,,1,11,27,15,0,7,7,4,,,,,,,,,2,2.1340013809967786,089,001,2019_Aug_29_0913,MusicAffectPsychophysiology2019,3.0.5,60.007318496595744,
To what extent did the music make you feel ,ACTIVE,30MonoWAV/30MonoT4.wav,2,1,4,16,,,,,1,11,27,15,0,8,8,9,,,,,,,,,1,1.0520350240112748,089,001,2019_Aug_29_0913,MusicAffectPsychophysiology2019,3.0.5,60.007318496595744,
To what extent did the music make you feel ,ANGRY,30MonoWAV/30MonoT4.wav,2,1,4,16,,,,,1,11,27,15,0,9,9,2,,,,,,,,,1,1.8188377609767485,089,001,2019_Aug_29_0913,MusicAffectPsychophysiology2019,3.0.5,60.007318496595744,
To what extent did the music make you feel ,EXCITED,30MonoWAV/30MonoT4.wav,2,1,4,16,,,,,1,11,27,15,0,10,10,7,,,,,,,,,3,1.435992938990239,089,001,2019_Aug_29_0913,MusicAffectPsychophysiology2019,3.0.5,60.007318496595744,
To what extent did the music make you feel ,HAPPY,30MonoWAV/30MonoT4.wav,2,1,4,16,,,,,1,11,27,15,0,11,11,6,,,,,,,,,4,0.9185077779984567,089,001,2019_Aug_29_0913,MusicAffectPsychophysiology2019,3.0.5,60.007318496595744,
,,30MonoWAV/30MonoT4.wav,2,1,4,16,,,,,1,11,27,15,,,,,,,,,,,,,,,089,001,2019_Aug_29_0913,MusicAffectPsychophysiology2019,3.0.5,60.007318496595744,
To what extent did the music make you feel ,ANXIOUS ,30MonoWAV/30MonoF1.wav,1,2,2,1,,,,,1,12,28,0,0,0,0,1,,,4,3.602822363987798,2,1.286286888003815,2,1.1358912510040682,4,1.2279516740236431,089,001,2019_Aug_29_0913,MusicAffectPsychophysiology2019,3.0.5,60.007318496595744,
To what extent did the music make you feel ,ANGRY,30MonoWAV/30MonoF1.wav,1,2,2,1,,,,,1,12,28,0,0,1,1,2,,,,,,,,,2,2.5511799009982497,089,001,2019_Aug_29_0913,MusicAffectPsychophysiology2019,3.0.5,60.007318496595744,
To what extent did the music make you feel ,SAD,30MonoWAV/30MonoF1.wav,1,2,2,1,,,,,1,12,28,0,0,2,2,0,,,,,,,,,1,1.1176536749990191,089,001,2019_Aug_29_0913,MusicAffectPsychophysiology2019,3.0.5,60.007318496595744,
To what extent did the music make you feel ,TENDER,30MonoWAV/30MonoF1.wav,1,2,2,1,,,,,1,12,28,0,0,3,3,10,,,,,,,,,1,0.9359314139874186,089,001,2019_Aug_29_0913,MusicAffectPsychophysiology2019,3.0.5,60.007318496595744,
To what extent did the music make you feel ,ALERT,30MonoWAV/30MonoF1.wav,1,2,2,1,,,,,1,12,28,0,0,4,4,8,,,,,,,,,4,1.103643426002236,089,001,2019_Aug_29_0913,MusicAffectPsychophysiology2019,3.0.5,60.007318496595744,
To what extent did the music make you feel ,ACTIVE,30MonoWAV/30MonoF1.wav,1,2,2,1,,,,,1,12,28,0,0,5,5,9,,,,,,,,,4,0.9665301920031197,089,001,2019_Aug_29_0913,MusicAffectPsychophysiology2019,3.0.5,60.007318496595744,
To what extent did the music make you feel ,FRUSTRATED,30MonoWAV/30MonoF1.wav,1,2,2,1,,,,,1,12,28,0,0,6,6,3,,,,,,,,,1,1.0857446840091143,089,001,2019_Aug_29_0913,MusicAffectPsychophysiology2019,3.0.5,60.007318496595744,
To what extent did the music make you feel ,SCARED,30MonoWAV/30MonoF1.wav,1,2,2,1,,,,,1,12,28,0,0,7,7,11,,,,,,,,,4,1.1519392959889956,089,001,2019_Aug_29_0913,MusicAffectPsychophysiology2019,3.0.5,60.007318496595744,
To what extent did the music make you feel ,EXCITED,30MonoWAV/30MonoF1.wav,1,2,2,1,,,,,1,12,28,0,0,8,8,7,,,,,,,,,1,1.2186166269821115,089,001,2019_Aug_29_0913,MusicAffectPsychophysiology2019,3.0.5,60.007318496595744,
To what extent did the music make you feel ,HAPPY,30MonoWAV/30MonoF1.wav,1,2,2,1,,,,,1,12,28,0,0,9,9,6,,,,,,,,,1,0.8518802470061928,089,001,2019_Aug_29_0913,MusicAffectPsychophysiology2019,3.0.5,60.007318496595744,
To what extent did the music make you feel ,GUILTY,30MonoWAV/30MonoF1.wav,1,2,2,1,,,,,1,12,28,0,0,10,10,5,,,,,,,,,1,0.6854202460090164,089,001,2019_Aug_29_0913,MusicAffectPsychophysiology2019,3.0.5,60.007318496595744,
To what extent did the music make you feel ,ASHAMED,30MonoWAV/30MonoF1.wav,1,2,2,1,,,,,1,12,28,0,0,11,11,4,,,,,,,,,1,0.768927662022179,089,001,2019_Aug_29_0913,MusicAffectPsychophysiology2019,3.0.5,60.007318496595744,
,,30MonoWAV/30MonoF1.wav,1,2,2,1,,,,,1,12,28,0,,,,,,,,,,,,,,,089,001,2019_Aug_29_0913,MusicAffectPsychophysiology2019,3.0.5,60.007318496595744,
To what extent did the music make you feel ,SCARED,30MonoWAV/30MonoS3.wav,1,1,3,11,,,,,1,13,29,10,0,0,0,11,,,2,3.11977325801854,2,2.2698852909961715,2,1.3195718320203014,2,2.1389260849973653,089,001,2019_Aug_29_0913,MusicAffectPsychophysiology2019,3.0.5,60.007318496595744,
To what extent did the music make you feel ,SAD,30MonoWAV/30MonoS3.wav,1,1,3,11,,,,,1,13,29,10,0,1,1,0,,,,,,,,,3,1.3699068390124012,089,001,2019_Aug_29_0913,MusicAffectPsychophysiology2019,3.0.5,60.007318496595744,
To what extent did the music make you feel ,ANXIOUS ,30MonoWAV/30MonoS3.wav,1,1,3,11,,,,,1,13,29,10,0,2,2,1,,,,,,,,,2,0.935647448990494,089,001,2019_Aug_29_0913,MusicAffectPsychophysiology2019,3.0.5,60.007318496595744,
To what extent did the music make you feel ,ACTIVE,30MonoWAV/30MonoS3.wav,1,1,3,11,,,,,1,13,29,10,0,3,3,9,,,,,,,,,1,1.7854834220197517,089,001,2019_Aug_29_0913,MusicAffectPsychophysiology2019,3.0.5,60.007318496595744,
To what extent did the music make you feel ,ASHAMED,30MonoWAV/30MonoS3.wav,1,1,3,11,,,,,1,13,29,10,0,4,4,4,,,,,,,,,2,1.770018784009153,089,001,2019_Aug_29_0913,MusicAffectPsychophysiology2019,3.0.5,60.007318496595744,
To what extent did the music make you feel ,FRUSTRATED,30MonoWAV/30MonoS3.wav,1,1,3,11,,,,,1,13,29,10,0,5,5,3,,,,,,,,,1,0.9041662399831694,089,001,2019_Aug_29_0913,MusicAffectPsychophysiology2019,3.0.5,60.007318496595744,
To what extent did the music make you feel ,HAPPY,30MonoWAV/30MonoS3.wav,1,1,3,11,,,,,1,13,29,10,0,6,6,6,,,,,,,,,2,1.2705232090083882,089,001,2019_Aug_29_0913,MusicAffectPsychophysiology2019,3.0.5,60.007318496595744,
To what extent did the music make you feel ,ANGRY,30MonoWAV/30MonoS3.wav,1,1,3,11,,,,,1,13,29,10,0,7,7,2,,,,,,,,,1,1.902480925025884,089,001,2019_Aug_29_0913,MusicAffectPsychophysiology2019,3.0.5,60.007318496595744,
To what extent did the music make you feel ,EXCITED,30MonoWAV/30MonoS3.wav,1,1,3,11,,,,,1,13,29,10,0,8,8,7,,,,,,,,,1,0.6856874279910699,089,001,2019_Aug_29_0913,MusicAffectPsychophysiology2019,3.0.5,60.007318496595744,
To what extent did the music make you feel ,TENDER,30MonoWAV/30MonoS3.wav,1,1,3,11,,,,,1,13,29,10,0,9,9,10,,,,,,,,,1,0.6183885339996777,089,001,2019_Aug_29_0913,MusicAffectPsychophysiology2019,3.0.5,60.007318496595744,
To what extent did the music make you feel ,ALERT,30MonoWAV/30MonoS3.wav,1,1,3,11,,,,,1,13,29,10,0,10,10,8,,,,,,,,,1,0.8345245599921327,089,001,2019_Aug_29_0913,MusicAffectPsychophysiology2019,3.0.5,60.007318496595744,
To what extent did the music make you feel ,GUILTY,30MonoWAV/30MonoS3.wav,1,1,3,11,,,,,1,13,29,10,0,11,11,5,,,,,,,,,3,1.869654830021318,089,001,2019_Aug_29_0913,MusicAffectPsychophysiology2019,3.0.5,60.007318496595744,
,,30MonoWAV/30MonoS3.wav,1,1,3,11,,,,,1,13,29,10,,,,,,,,,,,,,,,089,001,2019_Aug_29_0913,MusicAffectPsychophysiology2019,3.0.5,60.007318496595744,
To what extent did the music make you feel ,ANGRY,30MonoWAV/30MonoF2.wav,1,2,2,2,,,,,1,14,30,1,0,0,0,2,,,2,3.269457958987914,1,1.1027025899966247,1,0.8858026459929533,1,1.2486966789874714,089,001,2019_Aug_29_0913,MusicAffectPsychophysiology2019,3.0.5,60.007318496595744,
To what extent did the music make you feel ,SCARED,30MonoWAV/30MonoF2.wav,1,2,2,2,,,,,1,14,30,1,0,1,1,11,,,,,,,,,5,1.1851249629980884,089,001,2019_Aug_29_0913,MusicAffectPsychophysiology2019,3.0.5,60.007318496595744,
To what extent did the music make you feel ,HAPPY,30MonoWAV/30MonoF2.wav,1,2,2,2,,,,,1,14,30,1,0,2,2,6,,,,,,,,,1,0.9024324250058271,089,001,2019_Aug_29_0913,MusicAffectPsychophysiology2019,3.0.5,60.007318496595744,
To what extent did the music make you feel ,ASHAMED,30MonoWAV/30MonoF2.wav,1,2,2,2,,,,,1,14,30,1,0,3,3,4,,,,,,,,,1,1.1029623819922563,089,001,2019_Aug_29_0913,MusicAffectPsychophysiology2019,3.0.5,60.007318496595744,
To what extent did the music make you feel ,ANXIOUS ,30MonoWAV/30MonoF2.wav,1,2,2,2,,,,,1,14,30,1,0,4,4,1,,,,,,,,,5,1.3034017169848084,089,001,2019_Aug_29_0913,MusicAffectPsychophysiology2019,3.0.5,60.007318496595744,
To what extent did the music make you feel ,TENDER,30MonoWAV/30MonoF2.wav,1,2,2,2,,,,,1,14,30,1,0,5,5,10,,,,,,,,,1,0.9697253220074344,089,001,2019_Aug_29_0913,MusicAffectPsychophysiology2019,3.0.5,60.007318496595744,
To what extent did the music make you feel ,GUILTY,30MonoWAV/30MonoF2.wav,1,2,2,2,,,,,1,14,30,1,0,6,6,5,,,,,,,,,1,0.9191371670167428,089,001,2019_Aug_29_0913,MusicAffectPsychophysiology2019,3.0.5,60.007318496595744,
To what extent did the music make you feel ,ALERT,30MonoWAV/30MonoF2.wav,1,2,2,2,,,,,1,14,30,1,0,7,7,8,,,,,,,,,4,1.3364862299931701,089,001,2019_Aug_29_0913,MusicAffectPsychophysiology2019,3.0.5,60.007318496595744,
To what extent did the music make you feel ,ACTIVE,30MonoWAV/30MonoF2.wav,1,2,2,2,,,,,1,14,30,1,0,8,8,9,,,,,,,,,1,1.4523483760131057,089,001,2019_Aug_29_0913,MusicAffectPsychophysiology2019,3.0.5,60.007318496595744,
To what extent did the music make you feel ,SAD,30MonoWAV/30MonoF2.wav,1,2,2,2,,,,,1,14,30,1,0,9,9,0,,,,,,,,,2,1.4692564200086053,089,001,2019_Aug_29_0913,MusicAffectPsychophysiology2019,3.0.5,60.007318496595744,
To what extent did the music make you feel ,FRUSTRATED,30MonoWAV/30MonoF2.wav,1,2,2,2,,,,,1,14,30,1,0,10,10,3,,,,,,,,,1,0.9687953969987575,089,001,2019_Aug_29_0913,MusicAffectPsychophysiology2019,3.0.5,60.007318496595744,
To what extent did the music make you feel ,EXCITED,30MonoWAV/30MonoF2.wav,1,2,2,2,,,,,1,14,30,1,0,11,11,7,,,,,,,,,1,1.0508759079966694,089,001,2019_Aug_29_0913,MusicAffectPsychophysiology2019,3.0.5,60.007318496595744,
,,30MonoWAV/30MonoF2.wav,1,2,2,2,,,,,1,14,30,1,,,,,,,,,,,,,,,089,001,2019_Aug_29_0913,MusicAffectPsychophysiology2019,3.0.5,60.007318496595744,
To what extent did the music make you feel ,FRUSTRATED,30MonoWAV/30MonoS2.wav,1,1,3,10,,,,,1,15,31,9,0,0,0,3,,,2,4.068727495003259,2,1.6359036389912944,2,2.369564590015216,1,2.1086518410011195,089,001,2019_Aug_29_0913,MusicAffectPsychophysiology2019,3.0.5,60.007318496595744,
To what extent did the music make you feel ,GUILTY,30MonoWAV/30MonoS2.wav,1,1,3,10,,,,,1,15,31,9,0,1,1,5,,,,,,,,,2,1.6846523660060484,089,001,2019_Aug_29_0913,MusicAffectPsychophysiology2019,3.0.5,60.007318496595744,
To what extent did the music make you feel ,ACTIVE,30MonoWAV/30MonoS2.wav,1,1,3,10,,,,,1,15,31,9,0,2,2,9,,,,,,,,,1,1.9691671509935986,089,001,2019_Aug_29_0913,MusicAffectPsychophysiology2019,3.0.5,60.007318496595744,
To what extent did the music make you feel ,SCARED,30MonoWAV/30MonoS2.wav,1,1,3,10,,,,,1,15,31,9,0,3,3,11,,,,,,,,,1,2.0354354990122374,089,001,2019_Aug_29_0913,MusicAffectPsychophysiology2019,3.0.5,60.007318496595744,
To what extent did the music make you feel ,SAD,30MonoWAV/30MonoS2.wav,1,1,3,10,,,,,1,15,31,9,0,4,4,0,,,,,,,,,3,1.619274138007313,089,001,2019_Aug_29_0913,MusicAffectPsychophysiology2019,3.0.5,60.007318496595744,
To what extent did the music make you feel ,EXCITED,30MonoWAV/30MonoS2.wav,1,1,3,10,,,,,1,15,31,9,0,5,5,7,,,,,,,,,1,1.2850532020092942,089,001,2019_Aug_29_0913,MusicAffectPsychophysiology2019,3.0.5,60.007318496595744,
To what extent did the music make you feel ,ALERT,30MonoWAV/30MonoS2.wav,1,1,3,10,,,,,1,15,31,9,0,6,6,8,,,,,,,,,1,1.353353741025785,089,001,2019_Aug_29_0913,MusicAffectPsychophysiology2019,3.0.5,60.007318496595744,
To what extent did the music make you feel ,TENDER,30MonoWAV/30MonoS2.wav,1,1,3,10,,,,,1,15,31,9,0,7,7,10,,,,,,,,,1,1.6666166260256432,089,001,2019_Aug_29_0913,MusicAffectPsychophysiology2019,3.0.5,60.007318496595744,
To what extent did the music make you feel ,ASHAMED,30MonoWAV/30MonoS2.wav,1,1,3,10,,,,,1,15,31,9,0,8,8,4,,,,,,,,,1,0.7529342139896471,089,001,2019_Aug_29_0913,MusicAffectPsychophysiology2019,3.0.5,60.007318496595744,
To what extent did the music make you feel ,ANXIOUS ,30MonoWAV/30MonoS2.wav,1,1,3,10,,,,,1,15,31,9,0,9,9,1,,,,,,,,,2,1.419436691008741,089,001,2019_Aug_29_0913,MusicAffectPsychophysiology2019,3.0.5,60.007318496595744,
To what extent did the music make you feel ,HAPPY,30MonoWAV/30MonoS2.wav,1,1,3,10,,,,,1,15,31,9,0,10,10,6,,,,,,,,,1,0.7201844959927257,089,001,2019_Aug_29_0913,MusicAffectPsychophysiology2019,3.0.5,60.007318496595744,
To what extent did the music make you feel ,ANGRY,30MonoWAV/30MonoS2.wav,1,1,3,10,,,,,1,15,31,9,0,11,11,2,,,,,,,,,1,1.0340308400045615,089,001,2019_Aug_29_0913,MusicAffectPsychophysiology2019,3.0.5,60.007318496595744,
,,30MonoWAV/30MonoS2.wav,1,1,3,10,,,,,1,15,31,9,,,,,,,,,,,,,,,089,001,2019_Aug_29_0913,MusicAffectPsychophysiology2019,3.0.5,60.007318496595744,
