Instruction,Word,song,valence,arousal,affectcat,songmark,pracwords.thisRepN,pracwords.thisTrialN,pracwords.thisN,pracwords.thisIndex,songtrials.thisRepN,songtrials.thisTrialN,songtrials.thisN,songtrials.thisIndex,words.thisRepN,words.thisTrialN,words.thisN,words.thisIndex,begin.keys,begin.rt,arousalkey.keys,arousalkey.rt,valencekey.keys,valencekey.rt,likekey.keys,likekey.rt,WordResponse.keys,WordResponse.rt,key_resp_2.keys,key_resp_2.rt,participant,session,date,expName,psychopyVersion,frameRate,
,,,,,,,,,,,,,,,,,,,space,15.018778364988975,,,,,,,,,,,090,001,2019_Aug_29_1009,MusicAffectPsychophysiology2019,3.0.5,59.9264119301014,
,,,,,,,,,,,,,,,,,,,,,3,9.051801867986796,,,,,,,,,090,001,2019_Aug_29_1009,MusicAffectPsychophysiology2019,3.0.5,59.9264119301014,
,,,,,,,,,,,,,,,,,,,,,,,4,3.6362176910042763,,,,,,,090,001,2019_Aug_29_1009,MusicAffectPsychophysiology2019,3.0.5,59.9264119301014,
,,,,,,,,,,,,,,,,,,,,,,,,,3,2.218749025982106,,,,,090,001,2019_Aug_29_1009,MusicAffectPsychophysiology2019,3.0.5,59.9264119301014,
To what extent did the music make you feel ,ANXIOUS ,,,,,,0,0,0,1,,,,,,,,,,,,,,,,,1,4.912508939974941,,,090,001,2019_Aug_29_1009,MusicAffectPsychophysiology2019,3.0.5,59.9264119301014,
To what extent did the music make you feel ,SCARED,,,,,,0,1,1,11,,,,,,,,,,,,,,,,,1,0.9277496249997057,,,090,001,2019_Aug_29_1009,MusicAffectPsychophysiology2019,3.0.5,59.9264119301014,
To what extent did the music make you feel ,ANGRY,,,,,,0,2,2,2,,,,,,,,,,,,,,,,,1,0.7187068790080957,,,090,001,2019_Aug_29_1009,MusicAffectPsychophysiology2019,3.0.5,59.9264119301014,
To what extent did the music make you feel ,SAD,,,,,,0,3,3,0,,,,,,,,,,,,,,,,,1,0.5698648520046845,,,090,001,2019_Aug_29_1009,MusicAffectPsychophysiology2019,3.0.5,59.9264119301014,
To what extent did the music make you feel ,EXCITED,,,,,,0,4,4,7,,,,,,,,,,,,,,,,,2,1.419768675987143,,,090,001,2019_Aug_29_1009,MusicAffectPsychophysiology2019,3.0.5,59.9264119301014,
To what extent did the music make you feel ,HAPPY,,,,,,0,5,5,6,,,,,,,,,,,,,,,,,3,1.2352830309828278,,,090,001,2019_Aug_29_1009,MusicAffectPsychophysiology2019,3.0.5,59.9264119301014,
To what extent did the music make you feel ,ALERT,,,,,,0,6,6,8,,,,,,,,,,,,,,,,,1,1.3196749890048523,,,090,001,2019_Aug_29_1009,MusicAffectPsychophysiology2019,3.0.5,59.9264119301014,
To what extent did the music make you feel ,FRUSTRATED,,,,,,0,7,7,3,,,,,,,,,,,,,,,,,1,1.1284473089908715,,,090,001,2019_Aug_29_1009,MusicAffectPsychophysiology2019,3.0.5,59.9264119301014,
To what extent did the music make you feel ,TENDER,,,,,,0,8,8,10,,,,,,,,,,,,,,,,,1,1.7166465559857897,,,090,001,2019_Aug_29_1009,MusicAffectPsychophysiology2019,3.0.5,59.9264119301014,
To what extent did the music make you feel ,ACTIVE,,,,,,0,9,9,9,,,,,,,,,,,,,,,,,3,2.335068816988496,,,090,001,2019_Aug_29_1009,MusicAffectPsychophysiology2019,3.0.5,59.9264119301014,
To what extent did the music make you feel ,ASHAMED,,,,,,0,10,10,4,,,,,,,,,,,,,,,,,1,1.0674026409978978,,,090,001,2019_Aug_29_1009,MusicAffectPsychophysiology2019,3.0.5,59.9264119301014,
To what extent did the music make you feel ,GUILTY,,,,,,0,11,11,5,,,,,,,,,,,,,,,,,1,1.1855984120047651,,,090,001,2019_Aug_29_1009,MusicAffectPsychophysiology2019,3.0.5,59.9264119301014,
To what extent did the music make you feel ,ACTIVE,30MonoWAV/30MonoF3.wav,1,2,2,3,,,,,0,0,0,2,0,0,0,9,,,3,4.649984666990349,1,3.7361370520084165,2,1.88652239201474,2,1.8575754949997645,,,090,001,2019_Aug_29_1009,MusicAffectPsychophysiology2019,3.0.5,59.9264119301014,
To what extent did the music make you feel ,FRUSTRATED,30MonoWAV/30MonoF3.wav,1,2,2,3,,,,,0,0,0,2,0,1,1,3,,,,,,,,,2,3.1404825240024365,,,090,001,2019_Aug_29_1009,MusicAffectPsychophysiology2019,3.0.5,59.9264119301014,
To what extent did the music make you feel ,ALERT,30MonoWAV/30MonoF3.wav,1,2,2,3,,,,,0,0,0,2,0,2,2,8,,,,,,,,,2,1.0032351309782825,,,090,001,2019_Aug_29_1009,MusicAffectPsychophysiology2019,3.0.5,59.9264119301014,
To what extent did the music make you feel ,ANXIOUS ,30MonoWAV/30MonoF3.wav,1,2,2,3,,,,,0,0,0,2,0,3,3,1,,,,,,,,,3,1.0837381169840228,,,090,001,2019_Aug_29_1009,MusicAffectPsychophysiology2019,3.0.5,59.9264119301014,
To what extent did the music make you feel ,GUILTY,30MonoWAV/30MonoF3.wav,1,2,2,3,,,,,0,0,0,2,0,4,4,5,,,,,,,,,1,1.034972094988916,,,090,001,2019_Aug_29_1009,MusicAffectPsychophysiology2019,3.0.5,59.9264119301014,
To what extent did the music make you feel ,ASHAMED,30MonoWAV/30MonoF3.wav,1,2,2,3,,,,,0,0,0,2,0,5,5,4,,,,,,,,,1,0.9177318000001833,,,090,001,2019_Aug_29_1009,MusicAffectPsychophysiology2019,3.0.5,59.9264119301014,
To what extent did the music make you feel ,EXCITED,30MonoWAV/30MonoF3.wav,1,2,2,3,,,,,0,0,0,2,0,6,6,7,,,,,,,,,1,1.4357711579941679,,,090,001,2019_Aug_29_1009,MusicAffectPsychophysiology2019,3.0.5,59.9264119301014,
To what extent did the music make you feel ,ANGRY,30MonoWAV/30MonoF3.wav,1,2,2,3,,,,,0,0,0,2,0,7,7,2,,,,,,,,,3,2.3008843560237437,,,090,001,2019_Aug_29_1009,MusicAffectPsychophysiology2019,3.0.5,59.9264119301014,
To what extent did the music make you feel ,HAPPY,30MonoWAV/30MonoF3.wav,1,2,2,3,,,,,0,0,0,2,0,8,8,6,,,,,,,,,1,0.9699281069915742,,,090,001,2019_Aug_29_1009,MusicAffectPsychophysiology2019,3.0.5,59.9264119301014,
To what extent did the music make you feel ,SAD,30MonoWAV/30MonoF3.wav,1,2,2,3,,,,,0,0,0,2,0,9,9,0,,,,,,,,,1,1.5529008609883022,,,090,001,2019_Aug_29_1009,MusicAffectPsychophysiology2019,3.0.5,59.9264119301014,
To what extent did the music make you feel ,TENDER,30MonoWAV/30MonoF3.wav,1,2,2,3,,,,,0,0,0,2,0,10,10,10,,,,,,,,,1,1.7859664029965643,,,090,001,2019_Aug_29_1009,MusicAffectPsychophysiology2019,3.0.5,59.9264119301014,
To what extent did the music make you feel ,SCARED,30MonoWAV/30MonoF3.wav,1,2,2,3,,,,,0,0,0,2,0,11,11,11,,,,,,,,,2,1.7018528770131525,,,090,001,2019_Aug_29_1009,MusicAffectPsychophysiology2019,3.0.5,59.9264119301014,
,,30MonoWAV/30MonoF3.wav,1,2,2,3,,,,,0,0,0,2,,,,,,,,,,,,,,,,,090,001,2019_Aug_29_1009,MusicAffectPsychophysiology2019,3.0.5,59.9264119301014,
To what extent did the music make you feel ,ASHAMED,30MonoWAV/30MonoF2.wav,1,2,2,2,,,,,0,1,1,1,0,0,0,4,,,3,3.436370404990157,1,1.6692981109954417,1,1.9360325669986196,1,1.4689482829999179,,,090,001,2019_Aug_29_1009,MusicAffectPsychophysiology2019,3.0.5,59.9264119301014,
To what extent did the music make you feel ,SCARED,30MonoWAV/30MonoF2.wav,1,2,2,2,,,,,0,1,1,1,0,1,1,11,,,,,,,,,4,1.9346101710107177,,,090,001,2019_Aug_29_1009,MusicAffectPsychophysiology2019,3.0.5,59.9264119301014,
To what extent did the music make you feel ,ALERT,30MonoWAV/30MonoF2.wav,1,2,2,2,,,,,0,1,1,1,0,2,2,8,,,,,,,,,3,1.6690391330048442,,,090,001,2019_Aug_29_1009,MusicAffectPsychophysiology2019,3.0.5,59.9264119301014,
To what extent did the music make you feel ,SAD,30MonoWAV/30MonoF2.wav,1,2,2,2,,,,,0,1,1,1,0,3,3,0,,,,,,,,,1,1.352029418980237,,,090,001,2019_Aug_29_1009,MusicAffectPsychophysiology2019,3.0.5,59.9264119301014,
To what extent did the music make you feel ,HAPPY,30MonoWAV/30MonoF2.wav,1,2,2,2,,,,,0,1,1,1,0,4,4,6,,,,,,,,,1,0.752459469018504,,,090,001,2019_Aug_29_1009,MusicAffectPsychophysiology2019,3.0.5,59.9264119301014,
To what extent did the music make you feel ,ACTIVE,30MonoWAV/30MonoF2.wav,1,2,2,2,,,,,0,1,1,1,0,5,5,9,,,,,,,,,1,0.7024303959915414,,,090,001,2019_Aug_29_1009,MusicAffectPsychophysiology2019,3.0.5,59.9264119301014,
To what extent did the music make you feel ,EXCITED,30MonoWAV/30MonoF2.wav,1,2,2,2,,,,,0,1,1,1,0,6,6,7,,,,,,,,,1,0.6682366729946807,,,090,001,2019_Aug_29_1009,MusicAffectPsychophysiology2019,3.0.5,59.9264119301014,
To what extent did the music make you feel ,ANGRY,30MonoWAV/30MonoF2.wav,1,2,2,2,,,,,0,1,1,1,0,7,7,2,,,,,,,,,3,1.6860194749897346,,,090,001,2019_Aug_29_1009,MusicAffectPsychophysiology2019,3.0.5,59.9264119301014,
To what extent did the music make you feel ,FRUSTRATED,30MonoWAV/30MonoF2.wav,1,2,2,2,,,,,0,1,1,1,0,8,8,3,,,,,,,,,4,0.8820277159975376,,,090,001,2019_Aug_29_1009,MusicAffectPsychophysiology2019,3.0.5,59.9264119301014,
To what extent did the music make you feel ,GUILTY,30MonoWAV/30MonoF2.wav,1,2,2,2,,,,,0,1,1,1,0,9,9,5,,,,,,,,,1,0.7354763530020136,,,090,001,2019_Aug_29_1009,MusicAffectPsychophysiology2019,3.0.5,59.9264119301014,
To what extent did the music make you feel ,TENDER,30MonoWAV/30MonoF2.wav,1,2,2,2,,,,,0,1,1,1,0,10,10,10,,,,,,,,,2,1.5361063570016995,,,090,001,2019_Aug_29_1009,MusicAffectPsychophysiology2019,3.0.5,59.9264119301014,
To what extent did the music make you feel ,ANXIOUS ,30MonoWAV/30MonoF2.wav,1,2,2,2,,,,,0,1,1,1,0,11,11,1,,,,,,,,,4,1.9688140689977445,,,090,001,2019_Aug_29_1009,MusicAffectPsychophysiology2019,3.0.5,59.9264119301014,
,,30MonoWAV/30MonoF2.wav,1,2,2,2,,,,,0,1,1,1,,,,,,,,,,,,,,,,,090,001,2019_Aug_29_1009,MusicAffectPsychophysiology2019,3.0.5,59.9264119301014,
To what extent did the music make you feel ,HAPPY,30MonoWAV/30MonoS2.wav,1,1,3,10,,,,,0,2,2,9,0,0,0,6,,,2,2.186020938010188,2,3.3524199810053688,2,1.2525505119992886,1,1.2590344219934195,,,090,001,2019_Aug_29_1009,MusicAffectPsychophysiology2019,3.0.5,59.9264119301014,
To what extent did the music make you feel ,FRUSTRATED,30MonoWAV/30MonoS2.wav,1,1,3,10,,,,,0,2,2,9,0,1,1,3,,,,,,,,,2,1.386807636008598,,,090,001,2019_Aug_29_1009,MusicAffectPsychophysiology2019,3.0.5,59.9264119301014,
To what extent did the music make you feel ,EXCITED,30MonoWAV/30MonoS2.wav,1,1,3,10,,,,,0,2,2,9,0,2,2,7,,,,,,,,,1,0.8359714999969583,,,090,001,2019_Aug_29_1009,MusicAffectPsychophysiology2019,3.0.5,59.9264119301014,
To what extent did the music make you feel ,GUILTY,30MonoWAV/30MonoS2.wav,1,1,3,10,,,,,0,2,2,9,0,3,3,5,,,,,,,,,2,1.07060477999039,,,090,001,2019_Aug_29_1009,MusicAffectPsychophysiology2019,3.0.5,59.9264119301014,
To what extent did the music make you feel ,ANXIOUS ,30MonoWAV/30MonoS2.wav,1,1,3,10,,,,,0,2,2,9,0,4,4,1,,,,,,,,,1,1.568274252989795,,,090,001,2019_Aug_29_1009,MusicAffectPsychophysiology2019,3.0.5,59.9264119301014,
To what extent did the music make you feel ,SCARED,30MonoWAV/30MonoS2.wav,1,1,3,10,,,,,0,2,2,9,0,5,5,11,,,,,,,,,1,0.9526113820029423,,,090,001,2019_Aug_29_1009,MusicAffectPsychophysiology2019,3.0.5,59.9264119301014,
To what extent did the music make you feel ,ANGRY,30MonoWAV/30MonoS2.wav,1,1,3,10,,,,,0,2,2,9,0,6,6,2,,,,,,,,,1,0.6539853400026914,,,090,001,2019_Aug_29_1009,MusicAffectPsychophysiology2019,3.0.5,59.9264119301014,
To what extent did the music make you feel ,ALERT,30MonoWAV/30MonoS2.wav,1,1,3,10,,,,,0,2,2,9,0,7,7,8,,,,,,,,,2,0.9196432430180721,,,090,001,2019_Aug_29_1009,MusicAffectPsychophysiology2019,3.0.5,59.9264119301014,
To what extent did the music make you feel ,TENDER,30MonoWAV/30MonoS2.wav,1,1,3,10,,,,,0,2,2,9,0,8,8,10,,,,,,,,,3,1.9705070730124135,,,090,001,2019_Aug_29_1009,MusicAffectPsychophysiology2019,3.0.5,59.9264119301014,
To what extent did the music make you feel ,SAD,30MonoWAV/30MonoS2.wav,1,1,3,10,,,,,0,2,2,9,0,9,9,0,,,,,,,,,4,1.4864007759897504,,,090,001,2019_Aug_29_1009,MusicAffectPsychophysiology2019,3.0.5,59.9264119301014,
To what extent did the music make you feel ,ASHAMED,30MonoWAV/30MonoS2.wav,1,1,3,10,,,,,0,2,2,9,0,10,10,4,,,,,,,,,1,0.8867685259901918,,,090,001,2019_Aug_29_1009,MusicAffectPsychophysiology2019,3.0.5,59.9264119301014,
To what extent did the music make you feel ,ACTIVE,30MonoWAV/30MonoS2.wav,1,1,3,10,,,,,0,2,2,9,0,11,11,9,,,,,,,,,1,0.8857684090035036,,,090,001,2019_Aug_29_1009,MusicAffectPsychophysiology2019,3.0.5,59.9264119301014,
,,30MonoWAV/30MonoS2.wav,1,1,3,10,,,,,0,2,2,9,,,,,,,,,,,,,,,,,090,001,2019_Aug_29_1009,MusicAffectPsychophysiology2019,3.0.5,59.9264119301014,
To what extent did the music make you feel ,ACTIVE,30MonoWAV/30MonoF4.wav,1,2,2,4,,,,,0,3,3,3,0,0,0,9,,,3,2.5521390270150732,1,3.03528667500359,2,1.8038803290110081,3,1.519515260006301,,,090,001,2019_Aug_29_1009,MusicAffectPsychophysiology2019,3.0.5,59.9264119301014,
To what extent did the music make you feel ,HAPPY,30MonoWAV/30MonoF4.wav,1,2,2,4,,,,,0,3,3,3,0,1,1,6,,,,,,,,,1,0.7201520660019014,,,090,001,2019_Aug_29_1009,MusicAffectPsychophysiology2019,3.0.5,59.9264119301014,
To what extent did the music make you feel ,SAD,30MonoWAV/30MonoF4.wav,1,2,2,4,,,,,0,3,3,3,0,2,2,0,,,,,,,,,1,1.3700516480021179,,,090,001,2019_Aug_29_1009,MusicAffectPsychophysiology2019,3.0.5,59.9264119301014,
To what extent did the music make you feel ,ALERT,30MonoWAV/30MonoF4.wav,1,2,2,4,,,,,0,3,3,3,0,3,3,8,,,,,,,,,3,1.1861948599980678,,,090,001,2019_Aug_29_1009,MusicAffectPsychophysiology2019,3.0.5,59.9264119301014,
To what extent did the music make you feel ,EXCITED,30MonoWAV/30MonoF4.wav,1,2,2,4,,,,,0,3,3,3,0,4,4,7,,,,,,,,,1,1.1848559320205823,,,090,001,2019_Aug_29_1009,MusicAffectPsychophysiology2019,3.0.5,59.9264119301014,
To what extent did the music make you feel ,GUILTY,30MonoWAV/30MonoF4.wav,1,2,2,4,,,,,0,3,3,3,0,5,5,5,,,,,,,,,1,1.1037596270034555,,,090,001,2019_Aug_29_1009,MusicAffectPsychophysiology2019,3.0.5,59.9264119301014,
To what extent did the music make you feel ,ASHAMED,30MonoWAV/30MonoF4.wav,1,2,2,4,,,,,0,3,3,3,0,6,6,4,,,,,,,,,1,0.8525267610093579,,,090,001,2019_Aug_29_1009,MusicAffectPsychophysiology2019,3.0.5,59.9264119301014,
To what extent did the music make you feel ,TENDER,30MonoWAV/30MonoF4.wav,1,2,2,4,,,,,0,3,3,3,0,7,7,10,,,,,,,,,3,1.0526332209992688,,,090,001,2019_Aug_29_1009,MusicAffectPsychophysiology2019,3.0.5,59.9264119301014,
To what extent did the music make you feel ,SCARED,30MonoWAV/30MonoF4.wav,1,2,2,4,,,,,0,3,3,3,0,8,8,11,,,,,,,,,1,1.316577062010765,,,090,001,2019_Aug_29_1009,MusicAffectPsychophysiology2019,3.0.5,59.9264119301014,
To what extent did the music make you feel ,FRUSTRATED,30MonoWAV/30MonoF4.wav,1,2,2,4,,,,,0,3,3,3,0,9,9,3,,,,,,,,,4,1.1200724299997091,,,090,001,2019_Aug_29_1009,MusicAffectPsychophysiology2019,3.0.5,59.9264119301014,
To what extent did the music make you feel ,ANGRY,30MonoWAV/30MonoF4.wav,1,2,2,4,,,,,0,3,3,3,0,10,10,2,,,,,,,,,1,0.8187939540075604,,,090,001,2019_Aug_29_1009,MusicAffectPsychophysiology2019,3.0.5,59.9264119301014,
To what extent did the music make you feel ,ANXIOUS ,30MonoWAV/30MonoF4.wav,1,2,2,4,,,,,0,3,3,3,0,11,11,1,,,,,,,,,4,1.0187341200071387,,,090,001,2019_Aug_29_1009,MusicAffectPsychophysiology2019,3.0.5,59.9264119301014,
,,30MonoWAV/30MonoF4.wav,1,2,2,4,,,,,0,3,3,3,,,,,,,,,,,,,,,,,090,001,2019_Aug_29_1009,MusicAffectPsychophysiology2019,3.0.5,59.9264119301014,
To what extent did the music make you feel ,ANXIOUS ,30MonoWAV/30MonoH2.wav,2,2,1,6,,,,,0,4,4,5,0,0,0,1,,,3,2.2858582960034255,3,1.4206913539965171,2,1.6698043450014666,1,1.3797389169922099,,,090,001,2019_Aug_29_1009,MusicAffectPsychophysiology2019,3.0.5,59.9264119301014,
To what extent did the music make you feel ,ALERT,30MonoWAV/30MonoH2.wav,2,2,1,6,,,,,0,4,4,5,0,1,1,8,,,,,,,,,3,1.3547235399892088,,,090,001,2019_Aug_29_1009,MusicAffectPsychophysiology2019,3.0.5,59.9264119301014,
To what extent did the music make you feel ,ASHAMED,30MonoWAV/30MonoH2.wav,2,2,1,6,,,,,0,4,4,5,0,2,2,4,,,,,,,,,1,0.8190865439828485,,,090,001,2019_Aug_29_1009,MusicAffectPsychophysiology2019,3.0.5,59.9264119301014,
To what extent did the music make you feel ,HAPPY,30MonoWAV/30MonoH2.wav,2,2,1,6,,,,,0,4,4,5,0,3,3,6,,,,,,,,,2,2.2187870260095224,,,090,001,2019_Aug_29_1009,MusicAffectPsychophysiology2019,3.0.5,59.9264119301014,
To what extent did the music make you feel ,FRUSTRATED,30MonoWAV/30MonoH2.wav,2,2,1,6,,,,,0,4,4,5,0,4,4,3,,,,,,,,,1,0.9701844110095408,,,090,001,2019_Aug_29_1009,MusicAffectPsychophysiology2019,3.0.5,59.9264119301014,
To what extent did the music make you feel ,EXCITED,30MonoWAV/30MonoH2.wav,2,2,1,6,,,,,0,4,4,5,0,5,5,7,,,,,,,,,4,1.1198813859955408,,,090,001,2019_Aug_29_1009,MusicAffectPsychophysiology2019,3.0.5,59.9264119301014,
To what extent did the music make you feel ,TENDER,30MonoWAV/30MonoH2.wav,2,2,1,6,,,,,0,4,4,5,0,6,6,10,,,,,,,,,2,2.0046065380156506,,,090,001,2019_Aug_29_1009,MusicAffectPsychophysiology2019,3.0.5,59.9264119301014,
To what extent did the music make you feel ,ACTIVE,30MonoWAV/30MonoH2.wav,2,2,1,6,,,,,0,4,4,5,0,7,7,9,,,,,,,,,5,3.0358744809927884,,,090,001,2019_Aug_29_1009,MusicAffectPsychophysiology2019,3.0.5,59.9264119301014,
To what extent did the music make you feel ,GUILTY,30MonoWAV/30MonoH2.wav,2,2,1,6,,,,,0,4,4,5,0,8,8,5,,,,,,,,,1,0.6860970470006578,,,090,001,2019_Aug_29_1009,MusicAffectPsychophysiology2019,3.0.5,59.9264119301014,
To what extent did the music make you feel ,SCARED,30MonoWAV/30MonoH2.wav,2,2,1,6,,,,,0,4,4,5,0,9,9,11,,,,,,,,,1,0.9857511390000582,,,090,001,2019_Aug_29_1009,MusicAffectPsychophysiology2019,3.0.5,59.9264119301014,
To what extent did the music make you feel ,ANGRY,30MonoWAV/30MonoH2.wav,2,2,1,6,,,,,0,4,4,5,0,10,10,2,,,,,,,,,1,1.3368839149770793,,,090,001,2019_Aug_29_1009,MusicAffectPsychophysiology2019,3.0.5,59.9264119301014,
To what extent did the music make you feel ,SAD,30MonoWAV/30MonoH2.wav,2,2,1,6,,,,,0,4,4,5,0,11,11,0,,,,,,,,,1,0.6857931579870638,,,090,001,2019_Aug_29_1009,MusicAffectPsychophysiology2019,3.0.5,59.9264119301014,
,,30MonoWAV/30MonoH2.wav,2,2,1,6,,,,,0,4,4,5,,,,,,,,,,,,,,,,,090,001,2019_Aug_29_1009,MusicAffectPsychophysiology2019,3.0.5,59.9264119301014,
To what extent did the music make you feel ,FRUSTRATED,30MonoWAV/30MonoT2.wav,2,1,4,14,,,,,0,5,5,13,0,0,0,3,,,3,2.4207816459820606,3,1.5522074390028138,3,2.2675663420232013,1,2.5388893220224418,,,090,001,2019_Aug_29_1009,MusicAffectPsychophysiology2019,3.0.5,59.9264119301014,
To what extent did the music make you feel ,ANXIOUS ,30MonoWAV/30MonoT2.wav,2,1,4,14,,,,,0,5,5,13,0,1,1,1,,,,,,,,,1,0.8199289810145274,,,090,001,2019_Aug_29_1009,MusicAffectPsychophysiology2019,3.0.5,59.9264119301014,
To what extent did the music make you feel ,ASHAMED,30MonoWAV/30MonoT2.wav,2,1,4,14,,,,,0,5,5,13,0,2,2,4,,,,,,,,,1,0.6369815579964779,,,090,001,2019_Aug_29_1009,MusicAffectPsychophysiology2019,3.0.5,59.9264119301014,
To what extent did the music make you feel ,GUILTY,30MonoWAV/30MonoT2.wav,2,1,4,14,,,,,0,5,5,13,0,3,3,5,,,,,,,,,1,0.5865944359975401,,,090,001,2019_Aug_29_1009,MusicAffectPsychophysiology2019,3.0.5,59.9264119301014,
To what extent did the music make you feel ,ALERT,30MonoWAV/30MonoT2.wav,2,1,4,14,,,,,0,5,5,13,0,4,4,8,,,,,,,,,2,1.1696694330021273,,,090,001,2019_Aug_29_1009,MusicAffectPsychophysiology2019,3.0.5,59.9264119301014,
To what extent did the music make you feel ,HAPPY,30MonoWAV/30MonoT2.wav,2,1,4,14,,,,,0,5,5,13,0,5,5,6,,,,,,,,,3,1.3499100700137205,,,090,001,2019_Aug_29_1009,MusicAffectPsychophysiology2019,3.0.5,59.9264119301014,
To what extent did the music make you feel ,ANGRY,30MonoWAV/30MonoT2.wav,2,1,4,14,,,,,0,5,5,13,0,6,6,2,,,,,,,,,1,0.8364980309852399,,,090,001,2019_Aug_29_1009,MusicAffectPsychophysiology2019,3.0.5,59.9264119301014,
To what extent did the music make you feel ,ACTIVE,30MonoWAV/30MonoT2.wav,2,1,4,14,,,,,0,5,5,13,0,7,7,9,,,,,,,,,4,1.8526181820197962,,,090,001,2019_Aug_29_1009,MusicAffectPsychophysiology2019,3.0.5,59.9264119301014,
To what extent did the music make you feel ,SAD,30MonoWAV/30MonoT2.wav,2,1,4,14,,,,,0,5,5,13,0,8,8,0,,,,,,,,,1,1.3004268810036592,,,090,001,2019_Aug_29_1009,MusicAffectPsychophysiology2019,3.0.5,59.9264119301014,
To what extent did the music make you feel ,SCARED,30MonoWAV/30MonoT2.wav,2,1,4,14,,,,,0,5,5,13,0,9,9,11,,,,,,,,,1,0.782809955009725,,,090,001,2019_Aug_29_1009,MusicAffectPsychophysiology2019,3.0.5,59.9264119301014,
To what extent did the music make you feel ,TENDER,30MonoWAV/30MonoT2.wav,2,1,4,14,,,,,0,5,5,13,0,10,10,10,,,,,,,,,2,1.436275678977836,,,090,001,2019_Aug_29_1009,MusicAffectPsychophysiology2019,3.0.5,59.9264119301014,
To what extent did the music make you feel ,EXCITED,30MonoWAV/30MonoT2.wav,2,1,4,14,,,,,0,5,5,13,0,11,11,7,,,,,,,,,4,1.5664778900099918,,,090,001,2019_Aug_29_1009,MusicAffectPsychophysiology2019,3.0.5,59.9264119301014,
,,30MonoWAV/30MonoT2.wav,2,1,4,14,,,,,0,5,5,13,,,,,,,,,,,,,,,,,090,001,2019_Aug_29_1009,MusicAffectPsychophysiology2019,3.0.5,59.9264119301014,
To what extent did the music make you feel ,SAD,30MonoWAV/30MonoS3.wav,1,1,3,11,,,,,0,6,6,10,0,0,0,0,,,3,3.5180511730141006,1,1.9203375500219408,2,1.41932387300767,5,2.315094947000034,,,090,001,2019_Aug_29_1009,MusicAffectPsychophysiology2019,3.0.5,59.9264119301014,
To what extent did the music make you feel ,HAPPY,30MonoWAV/30MonoS3.wav,1,1,3,11,,,,,0,6,6,10,0,1,1,6,,,,,,,,,1,2.2525840969756246,,,090,001,2019_Aug_29_1009,MusicAffectPsychophysiology2019,3.0.5,59.9264119301014,
To what extent did the music make you feel ,FRUSTRATED,30MonoWAV/30MonoS3.wav,1,1,3,11,,,,,0,6,6,10,0,2,2,3,,,,,,,,,3,1.732294732995797,,,090,001,2019_Aug_29_1009,MusicAffectPsychophysiology2019,3.0.5,59.9264119301014,
To what extent did the music make you feel ,ALERT,30MonoWAV/30MonoS3.wav,1,1,3,11,,,,,0,6,6,10,0,3,3,8,,,,,,,,,3,1.1364602610119618,,,090,001,2019_Aug_29_1009,MusicAffectPsychophysiology2019,3.0.5,59.9264119301014,
To what extent did the music make you feel ,GUILTY,30MonoWAV/30MonoS3.wav,1,1,3,11,,,,,0,6,6,10,0,4,4,5,,,,,,,,,3,3.318956231989432,,,090,001,2019_Aug_29_1009,MusicAffectPsychophysiology2019,3.0.5,59.9264119301014,
To what extent did the music make you feel ,TENDER,30MonoWAV/30MonoS3.wav,1,1,3,11,,,,,0,6,6,10,0,5,5,10,,,,,,,,,2,1.2196586220234167,,,090,001,2019_Aug_29_1009,MusicAffectPsychophysiology2019,3.0.5,59.9264119301014,
To what extent did the music make you feel ,SCARED,30MonoWAV/30MonoS3.wav,1,1,3,11,,,,,0,6,6,10,0,6,6,11,,,,,,,,,3,2.4030391100095585,,,090,001,2019_Aug_29_1009,MusicAffectPsychophysiology2019,3.0.5,59.9264119301014,
To what extent did the music make you feel ,ANGRY,30MonoWAV/30MonoS3.wav,1,1,3,11,,,,,0,6,6,10,0,7,7,2,,,,,,,,,1,1.1197438479866832,,,090,001,2019_Aug_29_1009,MusicAffectPsychophysiology2019,3.0.5,59.9264119301014,
To what extent did the music make you feel ,ASHAMED,30MonoWAV/30MonoS3.wav,1,1,3,11,,,,,0,6,6,10,0,8,8,4,,,,,,,,,3,1.4368955779937096,,,090,001,2019_Aug_29_1009,MusicAffectPsychophysiology2019,3.0.5,59.9264119301014,
To what extent did the music make you feel ,EXCITED,30MonoWAV/30MonoS3.wav,1,1,3,11,,,,,0,6,6,10,0,9,9,7,,,,,,,,,1,1.1861818520119414,,,090,001,2019_Aug_29_1009,MusicAffectPsychophysiology2019,3.0.5,59.9264119301014,
To what extent did the music make you feel ,ACTIVE,30MonoWAV/30MonoS3.wav,1,1,3,11,,,,,0,6,6,10,0,10,10,9,,,,,,,,,1,0.9338368960015941,,,090,001,2019_Aug_29_1009,MusicAffectPsychophysiology2019,3.0.5,59.9264119301014,
To what extent did the music make you feel ,ANXIOUS ,30MonoWAV/30MonoS3.wav,1,1,3,11,,,,,0,6,6,10,0,11,11,1,,,,,,,,,4,1.419160199991893,,,090,001,2019_Aug_29_1009,MusicAffectPsychophysiology2019,3.0.5,59.9264119301014,
,,30MonoWAV/30MonoS3.wav,1,1,3,11,,,,,0,6,6,10,,,,,,,,,,,,,,,,,090,001,2019_Aug_29_1009,MusicAffectPsychophysiology2019,3.0.5,59.9264119301014,
To what extent did the music make you feel ,HAPPY,30MonoWAV/30MonoF1.wav,1,2,2,1,,,,,0,7,7,0,0,0,0,6,,,3,1.7034965280035976,2,1.6528224190114997,2,1.2526026259874925,1,1.69213059800677,,,090,001,2019_Aug_29_1009,MusicAffectPsychophysiology2019,3.0.5,59.9264119301014,
To what extent did the music make you feel ,TENDER,30MonoWAV/30MonoF1.wav,1,2,2,1,,,,,0,7,7,0,0,1,1,10,,,,,,,,,2,0.9355969430180266,,,090,001,2019_Aug_29_1009,MusicAffectPsychophysiology2019,3.0.5,59.9264119301014,
To what extent did the music make you feel ,ACTIVE,30MonoWAV/30MonoF1.wav,1,2,2,1,,,,,0,7,7,0,0,2,2,9,,,,,,,,,2,1.4369768800097518,,,090,001,2019_Aug_29_1009,MusicAffectPsychophysiology2019,3.0.5,59.9264119301014,
To what extent did the music make you feel ,ASHAMED,30MonoWAV/30MonoF1.wav,1,2,2,1,,,,,0,7,7,0,0,3,3,4,,,,,,,,,1,1.0017514060018584,,,090,001,2019_Aug_29_1009,MusicAffectPsychophysiology2019,3.0.5,59.9264119301014,
To what extent did the music make you feel ,ALERT,30MonoWAV/30MonoF1.wav,1,2,2,1,,,,,0,7,7,0,0,4,4,8,,,,,,,,,3,0.9693403030105401,,,090,001,2019_Aug_29_1009,MusicAffectPsychophysiology2019,3.0.5,59.9264119301014,
To what extent did the music make you feel ,SAD,30MonoWAV/30MonoF1.wav,1,2,2,1,,,,,0,7,7,0,0,5,5,0,,,,,,,,,1,0.7197009579977021,,,090,001,2019_Aug_29_1009,MusicAffectPsychophysiology2019,3.0.5,59.9264119301014,
To what extent did the music make you feel ,GUILTY,30MonoWAV/30MonoF1.wav,1,2,2,1,,,,,0,7,7,0,0,6,6,5,,,,,,,,,1,0.9368279569898732,,,090,001,2019_Aug_29_1009,MusicAffectPsychophysiology2019,3.0.5,59.9264119301014,
To what extent did the music make you feel ,SCARED,30MonoWAV/30MonoF1.wav,1,2,2,1,,,,,0,7,7,0,0,7,7,11,,,,,,,,,2,1.4858562159934081,,,090,001,2019_Aug_29_1009,MusicAffectPsychophysiology2019,3.0.5,59.9264119301014,
To what extent did the music make you feel ,EXCITED,30MonoWAV/30MonoF1.wav,1,2,2,1,,,,,0,7,7,0,0,8,8,7,,,,,,,,,1,0.9023465380014386,,,090,001,2019_Aug_29_1009,MusicAffectPsychophysiology2019,3.0.5,59.9264119301014,
To what extent did the music make you feel ,ANGRY,30MonoWAV/30MonoF1.wav,1,2,2,1,,,,,0,7,7,0,0,9,9,2,,,,,,,,,4,1.3861103640228976,,,090,001,2019_Aug_29_1009,MusicAffectPsychophysiology2019,3.0.5,59.9264119301014,
To what extent did the music make you feel ,ANXIOUS ,30MonoWAV/30MonoF1.wav,1,2,2,1,,,,,0,7,7,0,0,10,10,1,,,,,,,,,3,1.633115048025502,,,090,001,2019_Aug_29_1009,MusicAffectPsychophysiology2019,3.0.5,59.9264119301014,
To what extent did the music make you feel ,FRUSTRATED,30MonoWAV/30MonoF1.wav,1,2,2,1,,,,,0,7,7,0,0,11,11,3,,,,,,,,,3,1.402662501001032,,,090,001,2019_Aug_29_1009,MusicAffectPsychophysiology2019,3.0.5,59.9264119301014,
,,30MonoWAV/30MonoF1.wav,1,2,2,1,,,,,0,7,7,0,,,,,,,,,,,,,,,,,090,001,2019_Aug_29_1009,MusicAffectPsychophysiology2019,3.0.5,59.9264119301014,
To what extent did the music make you feel ,GUILTY,30MonoWAV/30MonoT3.wav,2,1,4,15,,,,,0,8,8,14,0,0,0,5,,,2,2.33574970101472,3,1.6696843980171252,3,2.417667256988352,1,1.452699102985207,,,090,001,2019_Aug_29_1009,MusicAffectPsychophysiology2019,3.0.5,59.9264119301014,
To what extent did the music make you feel ,ALERT,30MonoWAV/30MonoT3.wav,2,1,4,15,,,,,0,8,8,14,0,1,1,8,,,,,,,,,1,0.7674286589899566,,,090,001,2019_Aug_29_1009,MusicAffectPsychophysiology2019,3.0.5,59.9264119301014,
To what extent did the music make you feel ,EXCITED,30MonoWAV/30MonoT3.wav,2,1,4,15,,,,,0,8,8,14,0,2,2,7,,,,,,,,,1,0.835746967990417,,,090,001,2019_Aug_29_1009,MusicAffectPsychophysiology2019,3.0.5,59.9264119301014,
To what extent did the music make you feel ,SAD,30MonoWAV/30MonoT3.wav,2,1,4,15,,,,,0,8,8,14,0,3,3,0,,,,,,,,,1,0.7004462949989829,,,090,001,2019_Aug_29_1009,MusicAffectPsychophysiology2019,3.0.5,59.9264119301014,
To what extent did the music make you feel ,HAPPY,30MonoWAV/30MonoT3.wav,2,1,4,15,,,,,0,8,8,14,0,4,4,6,,,,,,,,,3,1.0854732420120854,,,090,001,2019_Aug_29_1009,MusicAffectPsychophysiology2019,3.0.5,59.9264119301014,
To what extent did the music make you feel ,TENDER,30MonoWAV/30MonoT3.wav,2,1,4,15,,,,,0,8,8,14,0,5,5,10,,,,,,,,,2,0.9856542320048902,,,090,001,2019_Aug_29_1009,MusicAffectPsychophysiology2019,3.0.5,59.9264119301014,
To what extent did the music make you feel ,ACTIVE,30MonoWAV/30MonoT3.wav,2,1,4,15,,,,,0,8,8,14,0,6,6,9,,,,,,,,,1,1.1187378210015595,,,090,001,2019_Aug_29_1009,MusicAffectPsychophysiology2019,3.0.5,59.9264119301014,
To what extent did the music make you feel ,SCARED,30MonoWAV/30MonoT3.wav,2,1,4,15,,,,,0,8,8,14,0,7,7,11,,,,,,,,,1,0.8359254600072745,,,090,001,2019_Aug_29_1009,MusicAffectPsychophysiology2019,3.0.5,59.9264119301014,
To what extent did the music make you feel ,ANGRY,30MonoWAV/30MonoT3.wav,2,1,4,15,,,,,0,8,8,14,0,8,8,2,,,,,,,,,1,0.6692858890164644,,,090,001,2019_Aug_29_1009,MusicAffectPsychophysiology2019,3.0.5,59.9264119301014,
To what extent did the music make you feel ,FRUSTRATED,30MonoWAV/30MonoT3.wav,2,1,4,15,,,,,0,8,8,14,0,9,9,3,,,,,,,,,1,0.5009066250058822,,,090,001,2019_Aug_29_1009,MusicAffectPsychophysiology2019,3.0.5,59.9264119301014,
To what extent did the music make you feel ,ASHAMED,30MonoWAV/30MonoT3.wav,2,1,4,15,,,,,0,8,8,14,0,10,10,4,,,,,,,,,1,0.8361253180191852,,,090,001,2019_Aug_29_1009,MusicAffectPsychophysiology2019,3.0.5,59.9264119301014,
To what extent did the music make you feel ,ANXIOUS ,30MonoWAV/30MonoT3.wav,2,1,4,15,,,,,0,8,8,14,0,11,11,1,,,,,,,,,1,0.5359050350089092,,,090,001,2019_Aug_29_1009,MusicAffectPsychophysiology2019,3.0.5,59.9264119301014,
,,30MonoWAV/30MonoT3.wav,2,1,4,15,,,,,0,8,8,14,,,,,,,,,,,,,,,,,090,001,2019_Aug_29_1009,MusicAffectPsychophysiology2019,3.0.5,59.9264119301014,
To what extent did the music make you feel ,SAD,30MonoWAV/30MonoH3.wav,2,2,1,7,,,,,0,9,9,6,0,0,0,0,,,4,2.8531045819981955,4,2.884727221011417,3,2.170293422008399,1,1.094708154007094,,,090,001,2019_Aug_29_1009,MusicAffectPsychophysiology2019,3.0.5,59.9264119301014,
To what extent did the music make you feel ,SCARED,30MonoWAV/30MonoH3.wav,2,2,1,7,,,,,0,9,9,6,0,1,1,11,,,,,,,,,1,0.8690705060143955,,,090,001,2019_Aug_29_1009,MusicAffectPsychophysiology2019,3.0.5,59.9264119301014,
To what extent did the music make you feel ,FRUSTRATED,30MonoWAV/30MonoH3.wav,2,2,1,7,,,,,0,9,9,6,0,2,2,3,,,,,,,,,1,0.6195873849792406,,,090,001,2019_Aug_29_1009,MusicAffectPsychophysiology2019,3.0.5,59.9264119301014,
To what extent did the music make you feel ,TENDER,30MonoWAV/30MonoH3.wav,2,2,1,7,,,,,0,9,9,6,0,3,3,10,,,,,,,,,2,1.019289154006401,,,090,001,2019_Aug_29_1009,MusicAffectPsychophysiology2019,3.0.5,59.9264119301014,
To what extent did the music make you feel ,HAPPY,30MonoWAV/30MonoH3.wav,2,2,1,7,,,,,0,9,9,6,0,4,4,6,,,,,,,,,3,1.2859702069836203,,,090,001,2019_Aug_29_1009,MusicAffectPsychophysiology2019,3.0.5,59.9264119301014,
To what extent did the music make you feel ,ALERT,30MonoWAV/30MonoH3.wav,2,2,1,7,,,,,0,9,9,6,0,5,5,8,,,,,,,,,1,1.251696665014606,,,090,001,2019_Aug_29_1009,MusicAffectPsychophysiology2019,3.0.5,59.9264119301014,
To what extent did the music make you feel ,ANXIOUS ,30MonoWAV/30MonoH3.wav,2,2,1,7,,,,,0,9,9,6,0,6,6,1,,,,,,,,,1,0.7701413629984017,,,090,001,2019_Aug_29_1009,MusicAffectPsychophysiology2019,3.0.5,59.9264119301014,
To what extent did the music make you feel ,ANGRY,30MonoWAV/30MonoH3.wav,2,2,1,7,,,,,0,9,9,6,0,7,7,2,,,,,,,,,1,0.46949957899050787,,,090,001,2019_Aug_29_1009,MusicAffectPsychophysiology2019,3.0.5,59.9264119301014,
To what extent did the music make you feel ,GUILTY,30MonoWAV/30MonoH3.wav,2,2,1,7,,,,,0,9,9,6,0,8,8,5,,,,,,,,,1,0.3190026159863919,,,090,001,2019_Aug_29_1009,MusicAffectPsychophysiology2019,3.0.5,59.9264119301014,
To what extent did the music make you feel ,EXCITED,30MonoWAV/30MonoH3.wav,2,2,1,7,,,,,0,9,9,6,0,9,9,7,,,,,,,,,4,1.7854140090057626,,,090,001,2019_Aug_29_1009,MusicAffectPsychophysiology2019,3.0.5,59.9264119301014,
To what extent did the music make you feel ,ASHAMED,30MonoWAV/30MonoH3.wav,2,2,1,7,,,,,0,9,9,6,0,10,10,4,,,,,,,,,1,0.7194836690032389,,,090,001,2019_Aug_29_1009,MusicAffectPsychophysiology2019,3.0.5,59.9264119301014,
To what extent did the music make you feel ,ACTIVE,30MonoWAV/30MonoH3.wav,2,2,1,7,,,,,0,9,9,6,0,11,11,9,,,,,,,,,4,2.1334836480091326,,,090,001,2019_Aug_29_1009,MusicAffectPsychophysiology2019,3.0.5,59.9264119301014,
,,30MonoWAV/30MonoH3.wav,2,2,1,7,,,,,0,9,9,6,,,,,,,,,,,,,,,,,090,001,2019_Aug_29_1009,MusicAffectPsychophysiology2019,3.0.5,59.9264119301014,
To what extent did the music make you feel ,EXCITED,30MonoWAV/30MonoT4.wav,2,1,4,16,,,,,0,10,10,15,0,0,0,7,,,4,2.4202126099844463,4,0.8685223710199352,2,2.2200904570054263,3,1.5535418009967543,,,090,001,2019_Aug_29_1009,MusicAffectPsychophysiology2019,3.0.5,59.9264119301014,
To what extent did the music make you feel ,ALERT,30MonoWAV/30MonoT4.wav,2,1,4,16,,,,,0,10,10,15,0,1,1,8,,,,,,,,,1,1.3352338839904405,,,090,001,2019_Aug_29_1009,MusicAffectPsychophysiology2019,3.0.5,59.9264119301014,
To what extent did the music make you feel ,SAD,30MonoWAV/30MonoT4.wav,2,1,4,16,,,,,0,10,10,15,0,2,2,0,,,,,,,,,1,0.6525608589872718,,,090,001,2019_Aug_29_1009,MusicAffectPsychophysiology2019,3.0.5,59.9264119301014,
To what extent did the music make you feel ,TENDER,30MonoWAV/30MonoT4.wav,2,1,4,16,,,,,0,10,10,15,0,3,3,10,,,,,,,,,2,1.0527205660182517,,,090,001,2019_Aug_29_1009,MusicAffectPsychophysiology2019,3.0.5,59.9264119301014,
To what extent did the music make you feel ,ANXIOUS ,30MonoWAV/30MonoT4.wav,2,1,4,16,,,,,0,10,10,15,0,4,4,1,,,,,,,,,1,0.6694537890143692,,,090,001,2019_Aug_29_1009,MusicAffectPsychophysiology2019,3.0.5,59.9264119301014,
To what extent did the music make you feel ,ASHAMED,30MonoWAV/30MonoT4.wav,2,1,4,16,,,,,0,10,10,15,0,5,5,4,,,,,,,,,1,0.5358663270017132,,,090,001,2019_Aug_29_1009,MusicAffectPsychophysiology2019,3.0.5,59.9264119301014,
To what extent did the music make you feel ,FRUSTRATED,30MonoWAV/30MonoT4.wav,2,1,4,16,,,,,0,10,10,15,0,6,6,3,,,,,,,,,1,0.6198814309900627,,,090,001,2019_Aug_29_1009,MusicAffectPsychophysiology2019,3.0.5,59.9264119301014,
To what extent did the music make you feel ,SCARED,30MonoWAV/30MonoT4.wav,2,1,4,16,,,,,0,10,10,15,0,7,7,11,,,,,,,,,1,0.751981245004572,,,090,001,2019_Aug_29_1009,MusicAffectPsychophysiology2019,3.0.5,59.9264119301014,
To what extent did the music make you feel ,HAPPY,30MonoWAV/30MonoT4.wav,2,1,4,16,,,,,0,10,10,15,0,8,8,6,,,,,,,,,3,1.4694553830195218,,,090,001,2019_Aug_29_1009,MusicAffectPsychophysiology2019,3.0.5,59.9264119301014,
To what extent did the music make you feel ,GUILTY,30MonoWAV/30MonoT4.wav,2,1,4,16,,,,,0,10,10,15,0,9,9,5,,,,,,,,,1,0.7034334279887844,,,090,001,2019_Aug_29_1009,MusicAffectPsychophysiology2019,3.0.5,59.9264119301014,
To what extent did the music make you feel ,ACTIVE,30MonoWAV/30MonoT4.wav,2,1,4,16,,,,,0,10,10,15,0,10,10,9,,,,,,,,,3,0.9035496420110576,,,090,001,2019_Aug_29_1009,MusicAffectPsychophysiology2019,3.0.5,59.9264119301014,
To what extent did the music make you feel ,ANGRY,30MonoWAV/30MonoT4.wav,2,1,4,16,,,,,0,10,10,15,0,11,11,2,,,,,,,,,1,0.8033372249919921,,,090,001,2019_Aug_29_1009,MusicAffectPsychophysiology2019,3.0.5,59.9264119301014,
,,30MonoWAV/30MonoT4.wav,2,1,4,16,,,,,0,10,10,15,,,,,,,,,,,,,,,,,090,001,2019_Aug_29_1009,MusicAffectPsychophysiology2019,3.0.5,59.9264119301014,
To what extent did the music make you feel ,TENDER,30MonoWAV/30MonoH1.wav,2,2,1,5,,,,,0,11,11,4,0,0,0,10,,,3,1.902500631986186,2,1.0857687149837147,3,1.7370734500000253,2,1.3700795620097779,,,090,001,2019_Aug_29_1009,MusicAffectPsychophysiology2019,3.0.5,59.9264119301014,
To what extent did the music make you feel ,EXCITED,30MonoWAV/30MonoH1.wav,2,2,1,5,,,,,0,11,11,4,0,1,1,7,,,,,,,,,3,1.0191479889908805,,,090,001,2019_Aug_29_1009,MusicAffectPsychophysiology2019,3.0.5,59.9264119301014,
To what extent did the music make you feel ,ANGRY,30MonoWAV/30MonoH1.wav,2,2,1,5,,,,,0,11,11,4,0,2,2,2,,,,,,,,,1,0.6692482380021829,,,090,001,2019_Aug_29_1009,MusicAffectPsychophysiology2019,3.0.5,59.9264119301014,
To what extent did the music make you feel ,ANXIOUS ,30MonoWAV/30MonoH1.wav,2,2,1,5,,,,,0,11,11,4,0,3,3,1,,,,,,,,,1,0.7501806849904824,,,090,001,2019_Aug_29_1009,MusicAffectPsychophysiology2019,3.0.5,59.9264119301014,
To what extent did the music make you feel ,HAPPY,30MonoWAV/30MonoH1.wav,2,2,1,5,,,,,0,11,11,4,0,4,4,6,,,,,,,,,3,0.6515948320156895,,,090,001,2019_Aug_29_1009,MusicAffectPsychophysiology2019,3.0.5,59.9264119301014,
To what extent did the music make you feel ,FRUSTRATED,30MonoWAV/30MonoH1.wav,2,2,1,5,,,,,0,11,11,4,0,5,5,3,,,,,,,,,1,0.6357794469804503,,,090,001,2019_Aug_29_1009,MusicAffectPsychophysiology2019,3.0.5,59.9264119301014,
To what extent did the music make you feel ,GUILTY,30MonoWAV/30MonoH1.wav,2,2,1,5,,,,,0,11,11,4,0,6,6,5,,,,,,,,,1,0.6327188699797262,,,090,001,2019_Aug_29_1009,MusicAffectPsychophysiology2019,3.0.5,59.9264119301014,
To what extent did the music make you feel ,SCARED,30MonoWAV/30MonoH1.wav,2,2,1,5,,,,,0,11,11,4,0,7,7,11,,,,,,,,,1,0.48507719801273197,,,090,001,2019_Aug_29_1009,MusicAffectPsychophysiology2019,3.0.5,59.9264119301014,
To what extent did the music make you feel ,SAD,30MonoWAV/30MonoH1.wav,2,2,1,5,,,,,0,11,11,4,0,8,8,0,,,,,,,,,1,0.5190176289761439,,,090,001,2019_Aug_29_1009,MusicAffectPsychophysiology2019,3.0.5,59.9264119301014,
To what extent did the music make you feel ,ACTIVE,30MonoWAV/30MonoH1.wav,2,2,1,5,,,,,0,11,11,4,0,9,9,9,,,,,,,,,3,0.9358702649769839,,,090,001,2019_Aug_29_1009,MusicAffectPsychophysiology2019,3.0.5,59.9264119301014,
To what extent did the music make you feel ,ASHAMED,30MonoWAV/30MonoH1.wav,2,2,1,5,,,,,0,11,11,4,0,10,10,4,,,,,,,,,1,0.5696304730081465,,,090,001,2019_Aug_29_1009,MusicAffectPsychophysiology2019,3.0.5,59.9264119301014,
To what extent did the music make you feel ,ALERT,30MonoWAV/30MonoH1.wav,2,2,1,5,,,,,0,11,11,4,0,11,11,8,,,,,,,,,1,0.3707399249833543,,,090,001,2019_Aug_29_1009,MusicAffectPsychophysiology2019,3.0.5,59.9264119301014,
,,30MonoWAV/30MonoH1.wav,2,2,1,5,,,,,0,11,11,4,,,,,,,,,,,,,,,,,090,001,2019_Aug_29_1009,MusicAffectPsychophysiology2019,3.0.5,59.9264119301014,
To what extent did the music make you feel ,TENDER,30MonoWAV/30MonoS4.wav,1,1,3,12,,,,,0,12,12,11,0,0,0,10,,,3,1.9037905930017587,1,1.6360976550204214,3,2.9526520439831074,2,1.6764507009938825,,,090,001,2019_Aug_29_1009,MusicAffectPsychophysiology2019,3.0.5,59.9264119301014,
To what extent did the music make you feel ,ALERT,30MonoWAV/30MonoS4.wav,1,1,3,12,,,,,0,12,12,11,0,1,1,8,,,,,,,,,2,1.2189285040076356,,,090,001,2019_Aug_29_1009,MusicAffectPsychophysiology2019,3.0.5,59.9264119301014,
To what extent did the music make you feel ,ACTIVE,30MonoWAV/30MonoS4.wav,1,1,3,12,,,,,0,12,12,11,0,2,2,9,,,,,,,,,1,1.118921410990879,,,090,001,2019_Aug_29_1009,MusicAffectPsychophysiology2019,3.0.5,59.9264119301014,
To what extent did the music make you feel ,ASHAMED,30MonoWAV/30MonoS4.wav,1,1,3,12,,,,,0,12,12,11,0,3,3,4,,,,,,,,,3,1.0188558340014424,,,090,001,2019_Aug_29_1009,MusicAffectPsychophysiology2019,3.0.5,59.9264119301014,
To what extent did the music make you feel ,ANGRY,30MonoWAV/30MonoS4.wav,1,1,3,12,,,,,0,12,12,11,0,4,4,2,,,,,,,,,1,0.9700022469914984,,,090,001,2019_Aug_29_1009,MusicAffectPsychophysiology2019,3.0.5,59.9264119301014,
To what extent did the music make you feel ,GUILTY,30MonoWAV/30MonoS4.wav,1,1,3,12,,,,,0,12,12,11,0,5,5,5,,,,,,,,,3,1.2852460120047908,,,090,001,2019_Aug_29_1009,MusicAffectPsychophysiology2019,3.0.5,59.9264119301014,
To what extent did the music make you feel ,EXCITED,30MonoWAV/30MonoS4.wav,1,1,3,12,,,,,0,12,12,11,0,6,6,7,,,,,,,,,1,0.7413645809865557,,,090,001,2019_Aug_29_1009,MusicAffectPsychophysiology2019,3.0.5,59.9264119301014,
To what extent did the music make you feel ,SAD,30MonoWAV/30MonoS4.wav,1,1,3,12,,,,,0,12,12,11,0,7,7,0,,,,,,,,,3,0.9701795739820227,,,090,001,2019_Aug_29_1009,MusicAffectPsychophysiology2019,3.0.5,59.9264119301014,
To what extent did the music make you feel ,ANXIOUS ,30MonoWAV/30MonoS4.wav,1,1,3,12,,,,,0,12,12,11,0,8,8,1,,,,,,,,,1,0.9358703769976273,,,090,001,2019_Aug_29_1009,MusicAffectPsychophysiology2019,3.0.5,59.9264119301014,
To what extent did the music make you feel ,SCARED,30MonoWAV/30MonoS4.wav,1,1,3,12,,,,,0,12,12,11,0,9,9,11,,,,,,,,,1,0.888214003003668,,,090,001,2019_Aug_29_1009,MusicAffectPsychophysiology2019,3.0.5,59.9264119301014,
To what extent did the music make you feel ,HAPPY,30MonoWAV/30MonoS4.wav,1,1,3,12,,,,,0,12,12,11,0,10,10,6,,,,,,,,,1,0.6694782040140126,,,090,001,2019_Aug_29_1009,MusicAffectPsychophysiology2019,3.0.5,59.9264119301014,
To what extent did the music make you feel ,FRUSTRATED,30MonoWAV/30MonoS4.wav,1,1,3,12,,,,,0,12,12,11,0,11,11,3,,,,,,,,,1,0.7423535199777689,,,090,001,2019_Aug_29_1009,MusicAffectPsychophysiology2019,3.0.5,59.9264119301014,
,,30MonoWAV/30MonoS4.wav,1,1,3,12,,,,,0,12,12,11,,,,,,,,,,,,,,,,,090,001,2019_Aug_29_1009,MusicAffectPsychophysiology2019,3.0.5,59.9264119301014,
To what extent did the music make you feel ,EXCITED,30MonoWAV/30MonoH4.wav,2,2,1,8,,,,,0,13,13,7,0,0,0,7,,,3,3.21909460099414,4,0.9023137989861425,4,1.6195544710208196,4,1.820379025011789,,,090,001,2019_Aug_29_1009,MusicAffectPsychophysiology2019,3.0.5,59.9264119301014,
To what extent did the music make you feel ,ANXIOUS ,30MonoWAV/30MonoH4.wav,2,2,1,8,,,,,0,13,13,7,0,1,1,1,,,,,,,,,1,0.9701960700040217,,,090,001,2019_Aug_29_1009,MusicAffectPsychophysiology2019,3.0.5,59.9264119301014,
To what extent did the music make you feel ,SAD,30MonoWAV/30MonoH4.wav,2,2,1,8,,,,,0,13,13,7,0,2,2,0,,,,,,,,,1,0.6687200089800172,,,090,001,2019_Aug_29_1009,MusicAffectPsychophysiology2019,3.0.5,59.9264119301014,
To what extent did the music make you feel ,ASHAMED,30MonoWAV/30MonoH4.wav,2,2,1,8,,,,,0,13,13,7,0,3,3,4,,,,,,,,,1,0.6196699499851093,,,090,001,2019_Aug_29_1009,MusicAffectPsychophysiology2019,3.0.5,59.9264119301014,
To what extent did the music make you feel ,ANGRY,30MonoWAV/30MonoH4.wav,2,2,1,8,,,,,0,13,13,7,0,4,4,2,,,,,,,,,1,0.5525711619993672,,,090,001,2019_Aug_29_1009,MusicAffectPsychophysiology2019,3.0.5,59.9264119301014,
To what extent did the music make you feel ,GUILTY,30MonoWAV/30MonoH4.wav,2,2,1,8,,,,,0,13,13,7,0,5,5,5,,,,,,,,,1,0.48623999499250203,,,090,001,2019_Aug_29_1009,MusicAffectPsychophysiology2019,3.0.5,59.9264119301014,
To what extent did the music make you feel ,ACTIVE,30MonoWAV/30MonoH4.wav,2,2,1,8,,,,,0,13,13,7,0,6,6,9,,,,,,,,,4,1.0864253400068264,,,090,001,2019_Aug_29_1009,MusicAffectPsychophysiology2019,3.0.5,59.9264119301014,
To what extent did the music make you feel ,TENDER,30MonoWAV/30MonoH4.wav,2,2,1,8,,,,,0,13,13,7,0,7,7,10,,,,,,,,,1,0.5363206779875327,,,090,001,2019_Aug_29_1009,MusicAffectPsychophysiology2019,3.0.5,59.9264119301014,
To what extent did the music make you feel ,FRUSTRATED,30MonoWAV/30MonoH4.wav,2,2,1,8,,,,,0,13,13,7,0,8,8,3,,,,,,,,,1,0.786938965000445,,,090,001,2019_Aug_29_1009,MusicAffectPsychophysiology2019,3.0.5,59.9264119301014,
To what extent did the music make you feel ,SCARED,30MonoWAV/30MonoH4.wav,2,2,1,8,,,,,0,13,13,7,0,9,9,11,,,,,,,,,1,0.8197399869968649,,,090,001,2019_Aug_29_1009,MusicAffectPsychophysiology2019,3.0.5,59.9264119301014,
To what extent did the music make you feel ,ALERT,30MonoWAV/30MonoH4.wav,2,2,1,8,,,,,0,13,13,7,0,10,10,8,,,,,,,,,1,0.6672724939999171,,,090,001,2019_Aug_29_1009,MusicAffectPsychophysiology2019,3.0.5,59.9264119301014,
To what extent did the music make you feel ,HAPPY,30MonoWAV/30MonoH4.wav,2,2,1,8,,,,,0,13,13,7,0,11,11,6,,,,,,,,,5,1.6859445279987995,,,090,001,2019_Aug_29_1009,MusicAffectPsychophysiology2019,3.0.5,59.9264119301014,
,,30MonoWAV/30MonoH4.wav,2,2,1,8,,,,,0,13,13,7,,,,,,,,,,,,,,,,,090,001,2019_Aug_29_1009,MusicAffectPsychophysiology2019,3.0.5,59.9264119301014,
To what extent did the music make you feel ,HAPPY,30MonoWAV/30MonoT1.wav,2,1,4,13,,,,,0,14,14,12,0,0,0,6,,,3,4.436190442997031,4,2.220052839984419,4,1.4024594800139312,4,1.6841984970087651,,,090,001,2019_Aug_29_1009,MusicAffectPsychophysiology2019,3.0.5,59.9264119301014,
To what extent did the music make you feel ,ANGRY,30MonoWAV/30MonoT1.wav,2,1,4,13,,,,,0,14,14,12,0,1,1,2,,,,,,,,,1,0.8529563120100647,,,090,001,2019_Aug_29_1009,MusicAffectPsychophysiology2019,3.0.5,59.9264119301014,
To what extent did the music make you feel ,ACTIVE,30MonoWAV/30MonoT1.wav,2,1,4,13,,,,,0,14,14,12,0,2,2,9,,,,,,,,,3,1.0028892219997942,,,090,001,2019_Aug_29_1009,MusicAffectPsychophysiology2019,3.0.5,59.9264119301014,
To what extent did the music make you feel ,SCARED,30MonoWAV/30MonoT1.wav,2,1,4,13,,,,,0,14,14,12,0,3,3,11,,,,,,,,,1,0.5631043440080248,,,090,001,2019_Aug_29_1009,MusicAffectPsychophysiology2019,3.0.5,59.9264119301014,
To what extent did the music make you feel ,GUILTY,30MonoWAV/30MonoT1.wav,2,1,4,13,,,,,0,14,14,12,0,4,4,5,,,,,,,,,1,0.5854132990061771,,,090,001,2019_Aug_29_1009,MusicAffectPsychophysiology2019,3.0.5,59.9264119301014,
To what extent did the music make you feel ,ANXIOUS ,30MonoWAV/30MonoT1.wav,2,1,4,13,,,,,0,14,14,12,0,5,5,1,,,,,,,,,1,0.5173122969863471,,,090,001,2019_Aug_29_1009,MusicAffectPsychophysiology2019,3.0.5,59.9264119301014,
To what extent did the music make you feel ,EXCITED,30MonoWAV/30MonoT1.wav,2,1,4,13,,,,,0,14,14,12,0,6,6,7,,,,,,,,,1,0.4362637370068114,,,090,001,2019_Aug_29_1009,MusicAffectPsychophysiology2019,3.0.5,59.9264119301014,
To what extent did the music make you feel ,ASHAMED,30MonoWAV/30MonoT1.wav,2,1,4,13,,,,,0,14,14,12,0,7,7,4,,,,,,,,,1,2.153478777006967,,,090,001,2019_Aug_29_1009,MusicAffectPsychophysiology2019,3.0.5,59.9264119301014,
To what extent did the music make you feel ,TENDER,30MonoWAV/30MonoT1.wav,2,1,4,13,,,,,0,14,14,12,0,8,8,10,,,,,,,,,2,0.8867025620129425,,,090,001,2019_Aug_29_1009,MusicAffectPsychophysiology2019,3.0.5,59.9264119301014,
To what extent did the music make you feel ,SAD,30MonoWAV/30MonoT1.wav,2,1,4,13,,,,,0,14,14,12,0,9,9,0,,,,,,,,,1,0.5355403730063699,,,090,001,2019_Aug_29_1009,MusicAffectPsychophysiology2019,3.0.5,59.9264119301014,
To what extent did the music make you feel ,FRUSTRATED,30MonoWAV/30MonoT1.wav,2,1,4,13,,,,,0,14,14,12,0,10,10,3,,,,,,,,,1,0.5101849650091026,,,090,001,2019_Aug_29_1009,MusicAffectPsychophysiology2019,3.0.5,59.9264119301014,
To what extent did the music make you feel ,ALERT,30MonoWAV/30MonoT1.wav,2,1,4,13,,,,,0,14,14,12,0,11,11,8,,,,,,,,,1,0.6200219620077405,,,090,001,2019_Aug_29_1009,MusicAffectPsychophysiology2019,3.0.5,59.9264119301014,
,,30MonoWAV/30MonoT1.wav,2,1,4,13,,,,,0,14,14,12,,,,,,,,,,,,,,,,,090,001,2019_Aug_29_1009,MusicAffectPsychophysiology2019,3.0.5,59.9264119301014,
To what extent did the music make you feel ,ANXIOUS ,30MonoWAV/30MonoS1.wav,1,1,3,9,,,,,0,15,15,8,0,0,0,1,,,3,2.0031756940006744,2,1.2859464440261945,3,1.6684251629922073,3,1.4918446329829749,,,090,001,2019_Aug_29_1009,MusicAffectPsychophysiology2019,3.0.5,59.9264119301014,
To what extent did the music make you feel ,ACTIVE,30MonoWAV/30MonoS1.wav,1,1,3,9,,,,,0,15,15,8,0,1,1,9,,,,,,,,,1,0.9671481040131766,,,090,001,2019_Aug_29_1009,MusicAffectPsychophysiology2019,3.0.5,59.9264119301014,
To what extent did the music make you feel ,SAD,30MonoWAV/30MonoS1.wav,1,1,3,9,,,,,0,15,15,8,0,2,2,0,,,,,,,,,4,1.0371719989925623,,,090,001,2019_Aug_29_1009,MusicAffectPsychophysiology2019,3.0.5,59.9264119301014,
To what extent did the music make you feel ,TENDER,30MonoWAV/30MonoS1.wav,1,1,3,9,,,,,0,15,15,8,0,3,3,10,,,,,,,,,2,1.006412229995476,,,090,001,2019_Aug_29_1009,MusicAffectPsychophysiology2019,3.0.5,59.9264119301014,
To what extent did the music make you feel ,GUILTY,30MonoWAV/30MonoS1.wav,1,1,3,9,,,,,0,15,15,8,0,4,4,5,,,,,,,,,1,1.6353231929824688,,,090,001,2019_Aug_29_1009,MusicAffectPsychophysiology2019,3.0.5,59.9264119301014,
To what extent did the music make you feel ,EXCITED,30MonoWAV/30MonoS1.wav,1,1,3,9,,,,,0,15,15,8,0,5,5,7,,,,,,,,,1,0.6670684310083743,,,090,001,2019_Aug_29_1009,MusicAffectPsychophysiology2019,3.0.5,59.9264119301014,
To what extent did the music make you feel ,HAPPY,30MonoWAV/30MonoS1.wav,1,1,3,9,,,,,0,15,15,8,0,6,6,6,,,,,,,,,1,0.5339306769892573,,,090,001,2019_Aug_29_1009,MusicAffectPsychophysiology2019,3.0.5,59.9264119301014,
To what extent did the music make you feel ,ANGRY,30MonoWAV/30MonoS1.wav,1,1,3,9,,,,,0,15,15,8,0,7,7,2,,,,,,,,,1,0.9362149230146315,,,090,001,2019_Aug_29_1009,MusicAffectPsychophysiology2019,3.0.5,59.9264119301014,
To what extent did the music make you feel ,ASHAMED,30MonoWAV/30MonoS1.wav,1,1,3,9,,,,,0,15,15,8,0,8,8,4,,,,,,,,,3,1.1524318979936652,,,090,001,2019_Aug_29_1009,MusicAffectPsychophysiology2019,3.0.5,59.9264119301014,
To what extent did the music make you feel ,ALERT,30MonoWAV/30MonoS1.wav,1,1,3,9,,,,,0,15,15,8,0,9,9,8,,,,,,,,,1,1.6698369420191739,,,090,001,2019_Aug_29_1009,MusicAffectPsychophysiology2019,3.0.5,59.9264119301014,
To what extent did the music make you feel ,FRUSTRATED,30MonoWAV/30MonoS1.wav,1,1,3,9,,,,,0,15,15,8,0,10,10,3,,,,,,,,,1,0.7735654249845538,,,090,001,2019_Aug_29_1009,MusicAffectPsychophysiology2019,3.0.5,59.9264119301014,
To what extent did the music make you feel ,SCARED,30MonoWAV/30MonoS1.wav,1,1,3,9,,,,,0,15,15,8,0,11,11,11,,,,,,,,,1,1.1035630580154248,,,090,001,2019_Aug_29_1009,MusicAffectPsychophysiology2019,3.0.5,59.9264119301014,
,,30MonoWAV/30MonoS1.wav,1,1,3,9,,,,,0,15,15,8,,,,,,,,,,,,,,,,,090,001,2019_Aug_29_1009,MusicAffectPsychophysiology2019,3.0.5,59.9264119301014,
To what extent did the music make you feel ,ANXIOUS ,30MonoWAV/30MonoH3.wav,2,2,1,7,,,,,1,0,16,6,0,0,0,1,,,4,2.1023164900252596,4,0.6523803230084013,3,1.6503082739945967,1,0.984076049993746,,,090,001,2019_Aug_29_1009,MusicAffectPsychophysiology2019,3.0.5,59.9264119301014,
To what extent did the music make you feel ,GUILTY,30MonoWAV/30MonoH3.wav,2,2,1,7,,,,,1,0,16,6,0,1,1,5,,,,,,,,,1,0.5861674329789821,,,090,001,2019_Aug_29_1009,MusicAffectPsychophysiology2019,3.0.5,59.9264119301014,
To what extent did the music make you feel ,ASHAMED,30MonoWAV/30MonoH3.wav,2,2,1,7,,,,,1,0,16,6,0,2,2,4,,,,,,,,,1,0.40196010199724697,,,090,001,2019_Aug_29_1009,MusicAffectPsychophysiology2019,3.0.5,59.9264119301014,
To what extent did the music make you feel ,HAPPY,30MonoWAV/30MonoH3.wav,2,2,1,7,,,,,1,0,16,6,0,3,3,6,,,,,,,,,4,1.1676588440022897,,,090,001,2019_Aug_29_1009,MusicAffectPsychophysiology2019,3.0.5,59.9264119301014,
To what extent did the music make you feel ,ANGRY,30MonoWAV/30MonoH3.wav,2,2,1,7,,,,,1,0,16,6,0,4,4,2,,,,,,,,,1,1.435641380987363,,,090,001,2019_Aug_29_1009,MusicAffectPsychophysiology2019,3.0.5,59.9264119301014,
To what extent did the music make you feel ,SAD,30MonoWAV/30MonoH3.wav,2,2,1,7,,,,,1,0,16,6,0,5,5,0,,,,,,,,,1,0.9005124919931404,,,090,001,2019_Aug_29_1009,MusicAffectPsychophysiology2019,3.0.5,59.9264119301014,
To what extent did the music make you feel ,ALERT,30MonoWAV/30MonoH3.wav,2,2,1,7,,,,,1,0,16,6,0,6,6,8,,,,,,,,,1,0.600449853023747,,,090,001,2019_Aug_29_1009,MusicAffectPsychophysiology2019,3.0.5,59.9264119301014,
To what extent did the music make you feel ,ACTIVE,30MonoWAV/30MonoH3.wav,2,2,1,7,,,,,1,0,16,6,0,7,7,9,,,,,,,,,5,1.2184416809759568,,,090,001,2019_Aug_29_1009,MusicAffectPsychophysiology2019,3.0.5,59.9264119301014,
To what extent did the music make you feel ,EXCITED,30MonoWAV/30MonoH3.wav,2,2,1,7,,,,,1,0,16,6,0,8,8,7,,,,,,,,,5,0.8189960769959725,,,090,001,2019_Aug_29_1009,MusicAffectPsychophysiology2019,3.0.5,59.9264119301014,
To what extent did the music make you feel ,TENDER,30MonoWAV/30MonoH3.wav,2,2,1,7,,,,,1,0,16,6,0,9,9,10,,,,,,,,,2,0.9692108249873854,,,090,001,2019_Aug_29_1009,MusicAffectPsychophysiology2019,3.0.5,59.9264119301014,
To what extent did the music make you feel ,FRUSTRATED,30MonoWAV/30MonoH3.wav,2,2,1,7,,,,,1,0,16,6,0,10,10,3,,,,,,,,,1,0.8371343440085184,,,090,001,2019_Aug_29_1009,MusicAffectPsychophysiology2019,3.0.5,59.9264119301014,
To what extent did the music make you feel ,SCARED,30MonoWAV/30MonoH3.wav,2,2,1,7,,,,,1,0,16,6,0,11,11,11,,,,,,,,,1,0.5538059949758463,,,090,001,2019_Aug_29_1009,MusicAffectPsychophysiology2019,3.0.5,59.9264119301014,
,,30MonoWAV/30MonoH3.wav,2,2,1,7,,,,,1,0,16,6,,,,,,,,,,,,,,,,,090,001,2019_Aug_29_1009,MusicAffectPsychophysiology2019,3.0.5,59.9264119301014,
To what extent did the music make you feel ,EXCITED,30MonoWAV/30MonoT4.wav,2,1,4,16,,,,,1,1,17,15,0,0,0,7,,,3,1.6351459540019277,3,1.6190616720123217,2,1.201904546993319,3,1.4123983899771702,,,090,001,2019_Aug_29_1009,MusicAffectPsychophysiology2019,3.0.5,59.9264119301014,
To what extent did the music make you feel ,TENDER,30MonoWAV/30MonoT4.wav,2,1,4,16,,,,,1,1,17,15,0,1,1,10,,,,,,,,,2,0.7512241119984537,,,090,001,2019_Aug_29_1009,MusicAffectPsychophysiology2019,3.0.5,59.9264119301014,
To what extent did the music make you feel ,ASHAMED,30MonoWAV/30MonoT4.wav,2,1,4,16,,,,,1,1,17,15,0,2,2,4,,,,,,,,,1,1.0855758520192467,,,090,001,2019_Aug_29_1009,MusicAffectPsychophysiology2019,3.0.5,59.9264119301014,
To what extent did the music make you feel ,HAPPY,30MonoWAV/30MonoT4.wav,2,1,4,16,,,,,1,1,17,15,0,3,3,6,,,,,,,,,4,0.8527964199893177,,,090,001,2019_Aug_29_1009,MusicAffectPsychophysiology2019,3.0.5,59.9264119301014,
To what extent did the music make you feel ,SAD,30MonoWAV/30MonoT4.wav,2,1,4,16,,,,,1,1,17,15,0,4,4,0,,,,,,,,,1,0.6362211350060534,,,090,001,2019_Aug_29_1009,MusicAffectPsychophysiology2019,3.0.5,59.9264119301014,
To what extent did the music make you feel ,ANXIOUS ,30MonoWAV/30MonoT4.wav,2,1,4,16,,,,,1,1,17,15,0,5,5,1,,,,,,,,,1,0.802172319003148,,,090,001,2019_Aug_29_1009,MusicAffectPsychophysiology2019,3.0.5,59.9264119301014,
To what extent did the music make you feel ,GUILTY,30MonoWAV/30MonoT4.wav,2,1,4,16,,,,,1,1,17,15,0,6,6,5,,,,,,,,,1,0.900174483016599,,,090,001,2019_Aug_29_1009,MusicAffectPsychophysiology2019,3.0.5,59.9264119301014,
To what extent did the music make you feel ,SCARED,30MonoWAV/30MonoT4.wav,2,1,4,16,,,,,1,1,17,15,0,7,7,11,,,,,,,,,1,0.5182399949990213,,,090,001,2019_Aug_29_1009,MusicAffectPsychophysiology2019,3.0.5,59.9264119301014,
To what extent did the music make you feel ,ACTIVE,30MonoWAV/30MonoT4.wav,2,1,4,16,,,,,1,1,17,15,0,8,8,9,,,,,,,,,4,0.8023535009997431,,,090,001,2019_Aug_29_1009,MusicAffectPsychophysiology2019,3.0.5,59.9264119301014,
To what extent did the music make you feel ,ALERT,30MonoWAV/30MonoT4.wav,2,1,4,16,,,,,1,1,17,15,0,9,9,8,,,,,,,,,1,0.6856871469935868,,,090,001,2019_Aug_29_1009,MusicAffectPsychophysiology2019,3.0.5,59.9264119301014,
To what extent did the music make you feel ,FRUSTRATED,30MonoWAV/30MonoT4.wav,2,1,4,16,,,,,1,1,17,15,0,10,10,3,,,,,,,,,1,1.0038850760029163,,,090,001,2019_Aug_29_1009,MusicAffectPsychophysiology2019,3.0.5,59.9264119301014,
To what extent did the music make you feel ,ANGRY,30MonoWAV/30MonoT4.wav,2,1,4,16,,,,,1,1,17,15,0,11,11,2,,,,,,,,,1,0.6524617210088763,,,090,001,2019_Aug_29_1009,MusicAffectPsychophysiology2019,3.0.5,59.9264119301014,
,,30MonoWAV/30MonoT4.wav,2,1,4,16,,,,,1,1,17,15,,,,,,,,,,,,,,,,,090,001,2019_Aug_29_1009,MusicAffectPsychophysiology2019,3.0.5,59.9264119301014,
To what extent did the music make you feel ,ACTIVE,30MonoWAV/30MonoS4.wav,1,1,3,12,,,,,1,2,18,11,0,0,0,9,,,3,2.737162517005345,2,1.9691225489950739,3,1.2862288490287028,1,1.054610647028312,,,090,001,2019_Aug_29_1009,MusicAffectPsychophysiology2019,3.0.5,59.9264119301014,
To what extent did the music make you feel ,GUILTY,30MonoWAV/30MonoS4.wav,1,1,3,12,,,,,1,2,18,11,0,1,1,5,,,,,,,,,3,1.2190096840204205,,,090,001,2019_Aug_29_1009,MusicAffectPsychophysiology2019,3.0.5,59.9264119301014,
To what extent did the music make you feel ,SAD,30MonoWAV/30MonoS4.wav,1,1,3,12,,,,,1,2,18,11,0,2,2,0,,,,,,,,,4,1.0701812030165456,,,090,001,2019_Aug_29_1009,MusicAffectPsychophysiology2019,3.0.5,59.9264119301014,
To what extent did the music make you feel ,HAPPY,30MonoWAV/30MonoS4.wav,1,1,3,12,,,,,1,2,18,11,0,3,3,6,,,,,,,,,1,0.6526098570029717,,,090,001,2019_Aug_29_1009,MusicAffectPsychophysiology2019,3.0.5,59.9264119301014,
To what extent did the music make you feel ,SCARED,30MonoWAV/30MonoS4.wav,1,1,3,12,,,,,1,2,18,11,0,4,4,11,,,,,,,,,1,0.9696493679948617,,,090,001,2019_Aug_29_1009,MusicAffectPsychophysiology2019,3.0.5,59.9264119301014,
To what extent did the music make you feel ,ALERT,30MonoWAV/30MonoS4.wav,1,1,3,12,,,,,1,2,18,11,0,5,5,8,,,,,,,,,1,0.919513591012219,,,090,001,2019_Aug_29_1009,MusicAffectPsychophysiology2019,3.0.5,59.9264119301014,
To what extent did the music make you feel ,ANXIOUS ,30MonoWAV/30MonoS4.wav,1,1,3,12,,,,,1,2,18,11,0,6,6,1,,,,,,,,,1,0.6164679590146989,,,090,001,2019_Aug_29_1009,MusicAffectPsychophysiology2019,3.0.5,59.9264119301014,
To what extent did the music make you feel ,ANGRY,30MonoWAV/30MonoS4.wav,1,1,3,12,,,,,1,2,18,11,0,7,7,2,,,,,,,,,1,0.6196803489874583,,,090,001,2019_Aug_29_1009,MusicAffectPsychophysiology2019,3.0.5,59.9264119301014,
To what extent did the music make you feel ,ASHAMED,30MonoWAV/30MonoS4.wav,1,1,3,12,,,,,1,2,18,11,0,8,8,4,,,,,,,,,3,0.9689803490182385,,,090,001,2019_Aug_29_1009,MusicAffectPsychophysiology2019,3.0.5,59.9264119301014,
To what extent did the music make you feel ,EXCITED,30MonoWAV/30MonoS4.wav,1,1,3,12,,,,,1,2,18,11,0,9,9,7,,,,,,,,,1,0.9189795679994859,,,090,001,2019_Aug_29_1009,MusicAffectPsychophysiology2019,3.0.5,59.9264119301014,
To what extent did the music make you feel ,FRUSTRATED,30MonoWAV/30MonoS4.wav,1,1,3,12,,,,,1,2,18,11,0,10,10,3,,,,,,,,,2,1.0543486350215971,,,090,001,2019_Aug_29_1009,MusicAffectPsychophysiology2019,3.0.5,59.9264119301014,
To what extent did the music make you feel ,TENDER,30MonoWAV/30MonoS4.wav,1,1,3,12,,,,,1,2,18,11,0,11,11,10,,,,,,,,,2,0.8350825200031977,,,090,001,2019_Aug_29_1009,MusicAffectPsychophysiology2019,3.0.5,59.9264119301014,
,,30MonoWAV/30MonoS4.wav,1,1,3,12,,,,,1,2,18,11,,,,,,,,,,,,,,,,,090,001,2019_Aug_29_1009,MusicAffectPsychophysiology2019,3.0.5,59.9264119301014,
To what extent did the music make you feel ,ANXIOUS ,30MonoWAV/30MonoS1.wav,1,1,3,9,,,,,1,3,19,8,0,0,0,1,,,2,1.7529503669939004,2,1.4855312879954,4,1.4190715980075765,2,1.6693625560146756,,,090,001,2019_Aug_29_1009,MusicAffectPsychophysiology2019,3.0.5,59.9264119301014,
To what extent did the music make you feel ,FRUSTRATED,30MonoWAV/30MonoS1.wav,1,1,3,9,,,,,1,3,19,8,0,1,1,3,,,,,,,,,2,0.8527076960017439,,,090,001,2019_Aug_29_1009,MusicAffectPsychophysiology2019,3.0.5,59.9264119301014,
To what extent did the music make you feel ,ALERT,30MonoWAV/30MonoS1.wav,1,1,3,9,,,,,1,3,19,8,0,2,2,8,,,,,,,,,1,1.3002472720108926,,,090,001,2019_Aug_29_1009,MusicAffectPsychophysiology2019,3.0.5,59.9264119301014,
To what extent did the music make you feel ,HAPPY,30MonoWAV/30MonoS1.wav,1,1,3,9,,,,,1,3,19,8,0,3,3,6,,,,,,,,,1,0.7518316769856028,,,090,001,2019_Aug_29_1009,MusicAffectPsychophysiology2019,3.0.5,59.9264119301014,
To what extent did the music make you feel ,SAD,30MonoWAV/30MonoS1.wav,1,1,3,9,,,,,1,3,19,8,0,4,4,0,,,,,,,,,5,1.2696792549977545,,,090,001,2019_Aug_29_1009,MusicAffectPsychophysiology2019,3.0.5,59.9264119301014,
To what extent did the music make you feel ,ASHAMED,30MonoWAV/30MonoS1.wav,1,1,3,9,,,,,1,3,19,8,0,5,5,4,,,,,,,,,2,1.869321675010724,,,090,001,2019_Aug_29_1009,MusicAffectPsychophysiology2019,3.0.5,59.9264119301014,
To what extent did the music make you feel ,TENDER,30MonoWAV/30MonoS1.wav,1,1,3,9,,,,,1,3,19,8,0,6,6,10,,,,,,,,,2,0.735513555991929,,,090,001,2019_Aug_29_1009,MusicAffectPsychophysiology2019,3.0.5,59.9264119301014,
To what extent did the music make you feel ,GUILTY,30MonoWAV/30MonoS1.wav,1,1,3,9,,,,,1,3,19,8,0,7,7,5,,,,,,,,,3,1.1859452220087405,,,090,001,2019_Aug_29_1009,MusicAffectPsychophysiology2019,3.0.5,59.9264119301014,
To what extent did the music make you feel ,ANGRY,30MonoWAV/30MonoS1.wav,1,1,3,9,,,,,1,3,19,8,0,8,8,2,,,,,,,,,1,1.2358490469923709,,,090,001,2019_Aug_29_1009,MusicAffectPsychophysiology2019,3.0.5,59.9264119301014,
To what extent did the music make you feel ,ACTIVE,30MonoWAV/30MonoS1.wav,1,1,3,9,,,,,1,3,19,8,0,9,9,9,,,,,,,,,1,0.7026581579993945,,,090,001,2019_Aug_29_1009,MusicAffectPsychophysiology2019,3.0.5,59.9264119301014,
To what extent did the music make you feel ,EXCITED,30MonoWAV/30MonoS1.wav,1,1,3,9,,,,,1,3,19,8,0,10,10,7,,,,,,,,,1,0.6196971999888774,,,090,001,2019_Aug_29_1009,MusicAffectPsychophysiology2019,3.0.5,59.9264119301014,
To what extent did the music make you feel ,SCARED,30MonoWAV/30MonoS1.wav,1,1,3,9,,,,,1,3,19,8,0,11,11,11,,,,,,,,,1,1.1538482010073494,,,090,001,2019_Aug_29_1009,MusicAffectPsychophysiology2019,3.0.5,59.9264119301014,
,,30MonoWAV/30MonoS1.wav,1,1,3,9,,,,,1,3,19,8,,,,,,,,,,,,,,,,,090,001,2019_Aug_29_1009,MusicAffectPsychophysiology2019,3.0.5,59.9264119301014,
To what extent did the music make you feel ,HAPPY,30MonoWAV/30MonoH2.wav,2,2,1,6,,,,,1,4,20,5,0,0,0,6,,,3,1.4667092630115803,4,1.4857734230172355,2,1.0031832170207053,3,1.5100353420129977,,,090,001,2019_Aug_29_1009,MusicAffectPsychophysiology2019,3.0.5,59.9264119301014,
To what extent did the music make you feel ,ALERT,30MonoWAV/30MonoH2.wav,2,2,1,6,,,,,1,4,20,5,0,1,1,8,,,,,,,,,2,1.7024587240011897,,,090,001,2019_Aug_29_1009,MusicAffectPsychophysiology2019,3.0.5,59.9264119301014,
To what extent did the music make you feel ,SAD,30MonoWAV/30MonoH2.wav,2,2,1,6,,,,,1,4,20,5,0,2,2,0,,,,,,,,,1,0.7198623889998998,,,090,001,2019_Aug_29_1009,MusicAffectPsychophysiology2019,3.0.5,59.9264119301014,
To what extent did the music make you feel ,ANXIOUS ,30MonoWAV/30MonoH2.wav,2,2,1,6,,,,,1,4,20,5,0,3,3,1,,,,,,,,,1,1.0367049039923586,,,090,001,2019_Aug_29_1009,MusicAffectPsychophysiology2019,3.0.5,59.9264119301014,
To what extent did the music make you feel ,ACTIVE,30MonoWAV/30MonoH2.wav,2,2,1,6,,,,,1,4,20,5,0,4,4,9,,,,,,,,,4,0.7932244800031185,,,090,001,2019_Aug_29_1009,MusicAffectPsychophysiology2019,3.0.5,59.9264119301014,
To what extent did the music make you feel ,ANGRY,30MonoWAV/30MonoH2.wav,2,2,1,6,,,,,1,4,20,5,0,5,5,2,,,,,,,,,1,0.535816440009512,,,090,001,2019_Aug_29_1009,MusicAffectPsychophysiology2019,3.0.5,59.9264119301014,
To what extent did the music make you feel ,FRUSTRATED,30MonoWAV/30MonoH2.wav,2,2,1,6,,,,,1,4,20,5,0,6,6,3,,,,,,,,,1,0.6257132580212783,,,090,001,2019_Aug_29_1009,MusicAffectPsychophysiology2019,3.0.5,59.9264119301014,
To what extent did the music make you feel ,TENDER,30MonoWAV/30MonoH2.wav,2,2,1,6,,,,,1,4,20,5,0,7,7,10,,,,,,,,,2,0.6661612780007999,,,090,001,2019_Aug_29_1009,MusicAffectPsychophysiology2019,3.0.5,59.9264119301014,
To what extent did the music make you feel ,EXCITED,30MonoWAV/30MonoH2.wav,2,2,1,6,,,,,1,4,20,5,0,8,8,7,,,,,,,,,5,1.0191821670159698,,,090,001,2019_Aug_29_1009,MusicAffectPsychophysiology2019,3.0.5,59.9264119301014,
To what extent did the music make you feel ,ASHAMED,30MonoWAV/30MonoH2.wav,2,2,1,6,,,,,1,4,20,5,0,9,9,4,,,,,,,,,1,0.42006497402326204,,,090,001,2019_Aug_29_1009,MusicAffectPsychophysiology2019,3.0.5,59.9264119301014,
To what extent did the music make you feel ,SCARED,30MonoWAV/30MonoH2.wav,2,2,1,6,,,,,1,4,20,5,0,10,10,11,,,,,,,,,1,0.7036043360130861,,,090,001,2019_Aug_29_1009,MusicAffectPsychophysiology2019,3.0.5,59.9264119301014,
To what extent did the music make you feel ,GUILTY,30MonoWAV/30MonoH2.wav,2,2,1,6,,,,,1,4,20,5,0,11,11,5,,,,,,,,,1,0.4522564910002984,,,090,001,2019_Aug_29_1009,MusicAffectPsychophysiology2019,3.0.5,59.9264119301014,
,,30MonoWAV/30MonoH2.wav,2,2,1,6,,,,,1,4,20,5,,,,,,,,,,,,,,,,,090,001,2019_Aug_29_1009,MusicAffectPsychophysiology2019,3.0.5,59.9264119301014,
To what extent did the music make you feel ,ANXIOUS ,30MonoWAV/30MonoF2.wav,1,2,2,2,,,,,1,5,21,1,0,0,0,1,,,3,2.119225414004177,2,1.0508161389734596,1,1.5357181510189548,3,1.3000968279957306,,,090,001,2019_Aug_29_1009,MusicAffectPsychophysiology2019,3.0.5,59.9264119301014,
To what extent did the music make you feel ,GUILTY,30MonoWAV/30MonoF2.wav,1,2,2,2,,,,,1,5,21,1,0,1,1,5,,,,,,,,,1,1.0684968740097247,,,090,001,2019_Aug_29_1009,MusicAffectPsychophysiology2019,3.0.5,59.9264119301014,
To what extent did the music make you feel ,ANGRY,30MonoWAV/30MonoF2.wav,1,2,2,2,,,,,1,5,21,1,0,2,2,2,,,,,,,,,2,1.7352824459958356,,,090,001,2019_Aug_29_1009,MusicAffectPsychophysiology2019,3.0.5,59.9264119301014,
To what extent did the music make you feel ,ALERT,30MonoWAV/30MonoF2.wav,1,2,2,2,,,,,1,5,21,1,0,3,3,8,,,,,,,,,4,1.085792911995668,,,090,001,2019_Aug_29_1009,MusicAffectPsychophysiology2019,3.0.5,59.9264119301014,
To what extent did the music make you feel ,FRUSTRATED,30MonoWAV/30MonoF2.wav,1,2,2,2,,,,,1,5,21,1,0,4,4,3,,,,,,,,,2,1.0874379910237622,,,090,001,2019_Aug_29_1009,MusicAffectPsychophysiology2019,3.0.5,59.9264119301014,
To what extent did the music make you feel ,ACTIVE,30MonoWAV/30MonoF2.wav,1,2,2,2,,,,,1,5,21,1,0,5,5,9,,,,,,,,,1,0.7691853549913503,,,090,001,2019_Aug_29_1009,MusicAffectPsychophysiology2019,3.0.5,59.9264119301014,
To what extent did the music make you feel ,ASHAMED,30MonoWAV/30MonoF2.wav,1,2,2,2,,,,,1,5,21,1,0,6,6,4,,,,,,,,,1,0.9354392779932823,,,090,001,2019_Aug_29_1009,MusicAffectPsychophysiology2019,3.0.5,59.9264119301014,
To what extent did the music make you feel ,SAD,30MonoWAV/30MonoF2.wav,1,2,2,2,,,,,1,5,21,1,0,7,7,0,,,,,,,,,1,0.5857324529788457,,,090,001,2019_Aug_29_1009,MusicAffectPsychophysiology2019,3.0.5,59.9264119301014,
To what extent did the music make you feel ,TENDER,30MonoWAV/30MonoF2.wav,1,2,2,2,,,,,1,5,21,1,0,8,8,10,,,,,,,,,1,1.200896891998127,,,090,001,2019_Aug_29_1009,MusicAffectPsychophysiology2019,3.0.5,59.9264119301014,
To what extent did the music make you feel ,EXCITED,30MonoWAV/30MonoF2.wav,1,2,2,2,,,,,1,5,21,1,0,9,9,7,,,,,,,,,1,0.7699272059835494,,,090,001,2019_Aug_29_1009,MusicAffectPsychophysiology2019,3.0.5,59.9264119301014,
To what extent did the music make you feel ,SCARED,30MonoWAV/30MonoF2.wav,1,2,2,2,,,,,1,5,21,1,0,10,10,11,,,,,,,,,5,1.835760104993824,,,090,001,2019_Aug_29_1009,MusicAffectPsychophysiology2019,3.0.5,59.9264119301014,
To what extent did the music make you feel ,HAPPY,30MonoWAV/30MonoF2.wav,1,2,2,2,,,,,1,5,21,1,0,11,11,6,,,,,,,,,1,1.3484542020014487,,,090,001,2019_Aug_29_1009,MusicAffectPsychophysiology2019,3.0.5,59.9264119301014,
,,30MonoWAV/30MonoF2.wav,1,2,2,2,,,,,1,5,21,1,,,,,,,,,,,,,,,,,090,001,2019_Aug_29_1009,MusicAffectPsychophysiology2019,3.0.5,59.9264119301014,
To what extent did the music make you feel ,ALERT,30MonoWAV/30MonoT1.wav,2,1,4,13,,,,,1,6,22,12,0,0,0,8,,,3,1.6189376359980088,3,1.1693839660147205,3,1.4698719920124859,2,1.6644943480205256,,,090,001,2019_Aug_29_1009,MusicAffectPsychophysiology2019,3.0.5,59.9264119301014,
To what extent did the music make you feel ,TENDER,30MonoWAV/30MonoT1.wav,2,1,4,13,,,,,1,6,22,12,0,1,1,10,,,,,,,,,2,0.9532116870104801,,,090,001,2019_Aug_29_1009,MusicAffectPsychophysiology2019,3.0.5,59.9264119301014,
To what extent did the music make you feel ,ANXIOUS ,30MonoWAV/30MonoT1.wav,2,1,4,13,,,,,1,6,22,12,0,2,2,1,,,,,,,,,1,1.0872786190011539,,,090,001,2019_Aug_29_1009,MusicAffectPsychophysiology2019,3.0.5,59.9264119301014,
To what extent did the music make you feel ,ANGRY,30MonoWAV/30MonoT1.wav,2,1,4,13,,,,,1,6,22,12,0,3,3,2,,,,,,,,,1,0.6533161120023578,,,090,001,2019_Aug_29_1009,MusicAffectPsychophysiology2019,3.0.5,59.9264119301014,
To what extent did the music make you feel ,ACTIVE,30MonoWAV/30MonoT1.wav,2,1,4,13,,,,,1,6,22,12,0,4,4,9,,,,,,,,,3,0.9508074850018602,,,090,001,2019_Aug_29_1009,MusicAffectPsychophysiology2019,3.0.5,59.9264119301014,
To what extent did the music make you feel ,SCARED,30MonoWAV/30MonoT1.wav,2,1,4,13,,,,,1,6,22,12,0,5,5,11,,,,,,,,,1,0.6857765169988852,,,090,001,2019_Aug_29_1009,MusicAffectPsychophysiology2019,3.0.5,59.9264119301014,
To what extent did the music make you feel ,SAD,30MonoWAV/30MonoT1.wav,2,1,4,13,,,,,1,6,22,12,0,6,6,0,,,,,,,,,1,0.5534894540032838,,,090,001,2019_Aug_29_1009,MusicAffectPsychophysiology2019,3.0.5,59.9264119301014,
To what extent did the music make you feel ,HAPPY,30MonoWAV/30MonoT1.wav,2,1,4,13,,,,,1,6,22,12,0,7,7,6,,,,,,,,,4,0.6848029649991076,,,090,001,2019_Aug_29_1009,MusicAffectPsychophysiology2019,3.0.5,59.9264119301014,
To what extent did the music make you feel ,EXCITED,30MonoWAV/30MonoT1.wav,2,1,4,13,,,,,1,6,22,12,0,8,8,7,,,,,,,,,1,0.6672680249903351,,,090,001,2019_Aug_29_1009,MusicAffectPsychophysiology2019,3.0.5,59.9264119301014,
To what extent did the music make you feel ,FRUSTRATED,30MonoWAV/30MonoT1.wav,2,1,4,13,,,,,1,6,22,12,0,9,9,3,,,,,,,,,1,1.337625692016445,,,090,001,2019_Aug_29_1009,MusicAffectPsychophysiology2019,3.0.5,59.9264119301014,
To what extent did the music make you feel ,GUILTY,30MonoWAV/30MonoT1.wav,2,1,4,13,,,,,1,6,22,12,0,10,10,5,,,,,,,,,1,0.48649381802533753,,,090,001,2019_Aug_29_1009,MusicAffectPsychophysiology2019,3.0.5,59.9264119301014,
To what extent did the music make you feel ,ASHAMED,30MonoWAV/30MonoT1.wav,2,1,4,13,,,,,1,6,22,12,0,11,11,4,,,,,,,,,1,0.5673079529951792,,,090,001,2019_Aug_29_1009,MusicAffectPsychophysiology2019,3.0.5,59.9264119301014,
,,30MonoWAV/30MonoT1.wav,2,1,4,13,,,,,1,6,22,12,,,,,,,,,,,,,,,,,090,001,2019_Aug_29_1009,MusicAffectPsychophysiology2019,3.0.5,59.9264119301014,
To what extent did the music make you feel ,SCARED,30MonoWAV/30MonoH1.wav,2,2,1,5,,,,,1,7,23,4,0,0,0,11,,,3,2.9532295060053,3,0.9351048889802769,3,1.0696382139867637,1,0.891437087993836,,,090,001,2019_Aug_29_1009,MusicAffectPsychophysiology2019,3.0.5,59.9264119301014,
To what extent did the music make you feel ,ALERT,30MonoWAV/30MonoH1.wav,2,2,1,5,,,,,1,7,23,4,0,1,1,8,,,,,,,,,1,0.8701690890011378,,,090,001,2019_Aug_29_1009,MusicAffectPsychophysiology2019,3.0.5,59.9264119301014,
To what extent did the music make you feel ,ANXIOUS ,30MonoWAV/30MonoH1.wav,2,2,1,5,,,,,1,7,23,4,0,2,2,1,,,,,,,,,1,0.5354978060058784,,,090,001,2019_Aug_29_1009,MusicAffectPsychophysiology2019,3.0.5,59.9264119301014,
To what extent did the music make you feel ,SAD,30MonoWAV/30MonoH1.wav,2,2,1,5,,,,,1,7,23,4,0,3,3,0,,,,,,,,,1,0.5360266429779585,,,090,001,2019_Aug_29_1009,MusicAffectPsychophysiology2019,3.0.5,59.9264119301014,
To what extent did the music make you feel ,ANGRY,30MonoWAV/30MonoH1.wav,2,2,1,5,,,,,1,7,23,4,0,4,4,2,,,,,,,,,1,0.5673881990078371,,,090,001,2019_Aug_29_1009,MusicAffectPsychophysiology2019,3.0.5,59.9264119301014,
To what extent did the music make you feel ,GUILTY,30MonoWAV/30MonoH1.wav,2,2,1,5,,,,,1,7,23,4,0,5,5,5,,,,,,,,,1,0.5363773939898238,,,090,001,2019_Aug_29_1009,MusicAffectPsychophysiology2019,3.0.5,59.9264119301014,
To what extent did the music make you feel ,FRUSTRATED,30MonoWAV/30MonoH1.wav,2,2,1,5,,,,,1,7,23,4,0,6,6,3,,,,,,,,,1,0.539819859986892,,,090,001,2019_Aug_29_1009,MusicAffectPsychophysiology2019,3.0.5,59.9264119301014,
To what extent did the music make you feel ,ACTIVE,30MonoWAV/30MonoH1.wav,2,2,1,5,,,,,1,7,23,4,0,7,7,9,,,,,,,,,3,1.0203597210056614,,,090,001,2019_Aug_29_1009,MusicAffectPsychophysiology2019,3.0.5,59.9264119301014,
To what extent did the music make you feel ,EXCITED,30MonoWAV/30MonoH1.wav,2,2,1,5,,,,,1,7,23,4,0,8,8,7,,,,,,,,,2,1.2197135179885663,,,090,001,2019_Aug_29_1009,MusicAffectPsychophysiology2019,3.0.5,59.9264119301014,
To what extent did the music make you feel ,ASHAMED,30MonoWAV/30MonoH1.wav,2,2,1,5,,,,,1,7,23,4,0,9,9,4,,,,,,,,,1,1.3026731629797723,,,090,001,2019_Aug_29_1009,MusicAffectPsychophysiology2019,3.0.5,59.9264119301014,
To what extent did the music make you feel ,TENDER,30MonoWAV/30MonoH1.wav,2,2,1,5,,,,,1,7,23,4,0,10,10,10,,,,,,,,,2,0.8375125890015624,,,090,001,2019_Aug_29_1009,MusicAffectPsychophysiology2019,3.0.5,59.9264119301014,
To what extent did the music make you feel ,HAPPY,30MonoWAV/30MonoH1.wav,2,2,1,5,,,,,1,7,23,4,0,11,11,6,,,,,,,,,4,1.2694450190174393,,,090,001,2019_Aug_29_1009,MusicAffectPsychophysiology2019,3.0.5,59.9264119301014,
,,30MonoWAV/30MonoH1.wav,2,2,1,5,,,,,1,7,23,4,,,,,,,,,,,,,,,,,090,001,2019_Aug_29_1009,MusicAffectPsychophysiology2019,3.0.5,59.9264119301014,
To what extent did the music make you feel ,GUILTY,30MonoWAV/30MonoT3.wav,2,1,4,15,,,,,1,8,24,14,0,0,0,5,,,3,1.554347626020899,3,1.4691859270096757,4,1.2352909949840978,1,1.71978803400998,,,090,001,2019_Aug_29_1009,MusicAffectPsychophysiology2019,3.0.5,59.9264119301014,
To what extent did the music make you feel ,TENDER,30MonoWAV/30MonoT3.wav,2,1,4,15,,,,,1,8,24,14,0,1,1,10,,,,,,,,,2,0.7368467460037209,,,090,001,2019_Aug_29_1009,MusicAffectPsychophysiology2019,3.0.5,59.9264119301014,
To what extent did the music make you feel ,ASHAMED,30MonoWAV/30MonoT3.wav,2,1,4,15,,,,,1,8,24,14,0,2,2,4,,,,,,,,,1,0.719519248988945,,,090,001,2019_Aug_29_1009,MusicAffectPsychophysiology2019,3.0.5,59.9264119301014,
To what extent did the music make you feel ,ANXIOUS ,30MonoWAV/30MonoT3.wav,2,1,4,15,,,,,1,8,24,14,0,3,3,1,,,,,,,,,1,0.6525462569843512,,,090,001,2019_Aug_29_1009,MusicAffectPsychophysiology2019,3.0.5,59.9264119301014,
To what extent did the music make you feel ,SCARED,30MonoWAV/30MonoT3.wav,2,1,4,15,,,,,1,8,24,14,0,4,4,11,,,,,,,,,1,1.2523760060139466,,,090,001,2019_Aug_29_1009,MusicAffectPsychophysiology2019,3.0.5,59.9264119301014,
To what extent did the music make you feel ,ACTIVE,30MonoWAV/30MonoT3.wav,2,1,4,15,,,,,1,8,24,14,0,5,5,9,,,,,,,,,3,0.9201576070045121,,,090,001,2019_Aug_29_1009,MusicAffectPsychophysiology2019,3.0.5,59.9264119301014,
To what extent did the music make you feel ,HAPPY,30MonoWAV/30MonoT3.wav,2,1,4,15,,,,,1,8,24,14,0,6,6,6,,,,,,,,,3,1.3025419769983273,,,090,001,2019_Aug_29_1009,MusicAffectPsychophysiology2019,3.0.5,59.9264119301014,
To what extent did the music make you feel ,FRUSTRATED,30MonoWAV/30MonoT3.wav,2,1,4,15,,,,,1,8,24,14,0,7,7,3,,,,,,,,,1,0.8168951249972451,,,090,001,2019_Aug_29_1009,MusicAffectPsychophysiology2019,3.0.5,59.9264119301014,
To what extent did the music make you feel ,ANGRY,30MonoWAV/30MonoT3.wav,2,1,4,15,,,,,1,8,24,14,0,8,8,2,,,,,,,,,1,0.7037475559918676,,,090,001,2019_Aug_29_1009,MusicAffectPsychophysiology2019,3.0.5,59.9264119301014,
To what extent did the music make you feel ,SAD,30MonoWAV/30MonoT3.wav,2,1,4,15,,,,,1,8,24,14,0,9,9,0,,,,,,,,,1,0.6508128249843139,,,090,001,2019_Aug_29_1009,MusicAffectPsychophysiology2019,3.0.5,59.9264119301014,
To what extent did the music make you feel ,EXCITED,30MonoWAV/30MonoT3.wav,2,1,4,15,,,,,1,8,24,14,0,10,10,7,,,,,,,,,3,0.91904606501339,,,090,001,2019_Aug_29_1009,MusicAffectPsychophysiology2019,3.0.5,59.9264119301014,
To what extent did the music make you feel ,ALERT,30MonoWAV/30MonoT3.wav,2,1,4,15,,,,,1,8,24,14,0,11,11,8,,,,,,,,,1,1.0018582539923955,,,090,001,2019_Aug_29_1009,MusicAffectPsychophysiology2019,3.0.5,59.9264119301014,
,,30MonoWAV/30MonoT3.wav,2,1,4,15,,,,,1,8,24,14,,,,,,,,,,,,,,,,,090,001,2019_Aug_29_1009,MusicAffectPsychophysiology2019,3.0.5,59.9264119301014,
To what extent did the music make you feel ,ANXIOUS ,30MonoWAV/30MonoH4.wav,2,2,1,8,,,,,1,9,25,7,0,0,0,1,,,3,1.5527825910248794,4,0.0027750750014092773,3,1.5691786829847842,1,1.5431234849966131,,,090,001,2019_Aug_29_1009,MusicAffectPsychophysiology2019,3.0.5,59.9264119301014,
To what extent did the music make you feel ,ALERT,30MonoWAV/30MonoH4.wav,2,2,1,8,,,,,1,9,25,7,0,1,1,8,,,,,,,,,1,0.7687808490009047,,,090,001,2019_Aug_29_1009,MusicAffectPsychophysiology2019,3.0.5,59.9264119301014,
To what extent did the music make you feel ,ANGRY,30MonoWAV/30MonoH4.wav,2,2,1,8,,,,,1,9,25,7,0,2,2,2,,,,,,,,,1,0.5026316809817217,,,090,001,2019_Aug_29_1009,MusicAffectPsychophysiology2019,3.0.5,59.9264119301014,
To what extent did the music make you feel ,HAPPY,30MonoWAV/30MonoH4.wav,2,2,1,8,,,,,1,9,25,7,0,3,3,6,,,,,,,,,1,0.4199771500134375,,,090,001,2019_Aug_29_1009,MusicAffectPsychophysiology2019,3.0.5,59.9264119301014,
To what extent did the music make you feel ,SAD,30MonoWAV/30MonoH4.wav,2,2,1,8,,,,,1,9,25,7,0,4,4,0,,,,,,,,,1,2.118640868982766,,,090,001,2019_Aug_29_1009,MusicAffectPsychophysiology2019,3.0.5,59.9264119301014,
To what extent did the music make you feel ,EXCITED,30MonoWAV/30MonoH4.wav,2,2,1,8,,,,,1,9,25,7,0,5,5,7,,,,,,,,,4,1.6693500399996992,,,090,001,2019_Aug_29_1009,MusicAffectPsychophysiology2019,3.0.5,59.9264119301014,
To what extent did the music make you feel ,ASHAMED,30MonoWAV/30MonoH4.wav,2,2,1,8,,,,,1,9,25,7,0,6,6,4,,,,,,,,,1,0.8021345759916585,,,090,001,2019_Aug_29_1009,MusicAffectPsychophysiology2019,3.0.5,59.9264119301014,
To what extent did the music make you feel ,SCARED,30MonoWAV/30MonoH4.wav,2,2,1,8,,,,,1,9,25,7,0,7,7,11,,,,,,,,,1,0.9024167440074962,,,090,001,2019_Aug_29_1009,MusicAffectPsychophysiology2019,3.0.5,59.9264119301014,
To what extent did the music make you feel ,TENDER,30MonoWAV/30MonoH4.wav,2,2,1,8,,,,,1,9,25,7,0,8,8,10,,,,,,,,,2,0.8519965110172052,,,090,001,2019_Aug_29_1009,MusicAffectPsychophysiology2019,3.0.5,59.9264119301014,
To what extent did the music make you feel ,ACTIVE,30MonoWAV/30MonoH4.wav,2,2,1,8,,,,,1,9,25,7,0,9,9,9,,,,,,,,,4,2.2186378139886074,,,090,001,2019_Aug_29_1009,MusicAffectPsychophysiology2019,3.0.5,59.9264119301014,
To what extent did the music make you feel ,FRUSTRATED,30MonoWAV/30MonoH4.wav,2,2,1,8,,,,,1,9,25,7,0,10,10,3,,,,,,,,,1,1.9617531800176948,,,090,001,2019_Aug_29_1009,MusicAffectPsychophysiology2019,3.0.5,59.9264119301014,
To what extent did the music make you feel ,GUILTY,30MonoWAV/30MonoH4.wav,2,2,1,8,,,,,1,9,25,7,0,11,11,5,,,,,,,,,1,0.9875758950074669,,,090,001,2019_Aug_29_1009,MusicAffectPsychophysiology2019,3.0.5,59.9264119301014,
,,30MonoWAV/30MonoH4.wav,2,2,1,8,,,,,1,9,25,7,,,,,,,,,,,,,,,,,090,001,2019_Aug_29_1009,MusicAffectPsychophysiology2019,3.0.5,59.9264119301014,
To what extent did the music make you feel ,HAPPY,30MonoWAV/30MonoF3.wav,1,2,2,3,,,,,1,10,26,2,0,0,0,6,,,3,2.5020008030114695,3,2.0692337599757593,2,0.11136800301028416,1,2.688470708002569,,,090,001,2019_Aug_29_1009,MusicAffectPsychophysiology2019,3.0.5,59.9264119301014,
To what extent did the music make you feel ,SCARED,30MonoWAV/30MonoF3.wav,1,2,2,3,,,,,1,10,26,2,0,1,1,11,,,,,,,,,3,1.100395547982771,,,090,001,2019_Aug_29_1009,MusicAffectPsychophysiology2019,3.0.5,59.9264119301014,
To what extent did the music make you feel ,ASHAMED,30MonoWAV/30MonoF3.wav,1,2,2,3,,,,,1,10,26,2,0,2,2,4,,,,,,,,,1,0.8692556509922724,,,090,001,2019_Aug_29_1009,MusicAffectPsychophysiology2019,3.0.5,59.9264119301014,
To what extent did the music make you feel ,ANGRY,30MonoWAV/30MonoF3.wav,1,2,2,3,,,,,1,10,26,2,0,3,3,2,,,,,,,,,4,1.0021310949814506,,,090,001,2019_Aug_29_1009,MusicAffectPsychophysiology2019,3.0.5,59.9264119301014,
To what extent did the music make you feel ,ANXIOUS ,30MonoWAV/30MonoF3.wav,1,2,2,3,,,,,1,10,26,2,0,4,4,1,,,,,,,,,4,0.918875183997443,,,090,001,2019_Aug_29_1009,MusicAffectPsychophysiology2019,3.0.5,59.9264119301014,
To what extent did the music make you feel ,ALERT,30MonoWAV/30MonoF3.wav,1,2,2,3,,,,,1,10,26,2,0,5,5,8,,,,,,,,,5,1.0197751719970256,,,090,001,2019_Aug_29_1009,MusicAffectPsychophysiology2019,3.0.5,59.9264119301014,
To what extent did the music make you feel ,EXCITED,30MonoWAV/30MonoF3.wav,1,2,2,3,,,,,1,10,26,2,0,6,6,7,,,,,,,,,1,0.8701047420036048,,,090,001,2019_Aug_29_1009,MusicAffectPsychophysiology2019,3.0.5,59.9264119301014,
To what extent did the music make you feel ,ACTIVE,30MonoWAV/30MonoF3.wav,1,2,2,3,,,,,1,10,26,2,0,7,7,9,,,,,,,,,3,1.719892755994806,,,090,001,2019_Aug_29_1009,MusicAffectPsychophysiology2019,3.0.5,59.9264119301014,
To what extent did the music make you feel ,GUILTY,30MonoWAV/30MonoF3.wav,1,2,2,3,,,,,1,10,26,2,0,8,8,5,,,,,,,,,1,1.418806287983898,,,090,001,2019_Aug_29_1009,MusicAffectPsychophysiology2019,3.0.5,59.9264119301014,
To what extent did the music make you feel ,FRUSTRATED,30MonoWAV/30MonoF3.wav,1,2,2,3,,,,,1,10,26,2,0,9,9,3,,,,,,,,,2,1.254208317026496,,,090,001,2019_Aug_29_1009,MusicAffectPsychophysiology2019,3.0.5,59.9264119301014,
To what extent did the music make you feel ,SAD,30MonoWAV/30MonoF3.wav,1,2,2,3,,,,,1,10,26,2,0,10,10,0,,,,,,,,,1,0.8030251470045187,,,090,001,2019_Aug_29_1009,MusicAffectPsychophysiology2019,3.0.5,59.9264119301014,
To what extent did the music make you feel ,TENDER,30MonoWAV/30MonoF3.wav,1,2,2,3,,,,,1,10,26,2,0,11,11,10,,,,,,,,,2,0.8850755929888692,,,090,001,2019_Aug_29_1009,MusicAffectPsychophysiology2019,3.0.5,59.9264119301014,
,,30MonoWAV/30MonoF3.wav,1,2,2,3,,,,,1,10,26,2,,,,,,,,,,,,,,,,,090,001,2019_Aug_29_1009,MusicAffectPsychophysiology2019,3.0.5,59.9264119301014,
To what extent did the music make you feel ,ACTIVE,30MonoWAV/30MonoF4.wav,1,2,2,4,,,,,1,11,27,3,0,0,0,9,,,3,2.317744728003163,3,1.5685837880009785,3,1.318616356991697,3,1.6320067750057206,,,090,001,2019_Aug_29_1009,MusicAffectPsychophysiology2019,3.0.5,59.9264119301014,
To what extent did the music make you feel ,FRUSTRATED,30MonoWAV/30MonoF4.wav,1,2,2,4,,,,,1,11,27,3,0,1,1,3,,,,,,,,,2,1.1195466950011905,,,090,001,2019_Aug_29_1009,MusicAffectPsychophysiology2019,3.0.5,59.9264119301014,
To what extent did the music make you feel ,EXCITED,30MonoWAV/30MonoF4.wav,1,2,2,4,,,,,1,11,27,3,0,2,2,7,,,,,,,,,3,2.1995515820162836,,,090,001,2019_Aug_29_1009,MusicAffectPsychophysiology2019,3.0.5,59.9264119301014,
To what extent did the music make you feel ,SAD,30MonoWAV/30MonoF4.wav,1,2,2,4,,,,,1,11,27,3,0,3,3,0,,,,,,,,,1,1.7183331690030172,,,090,001,2019_Aug_29_1009,MusicAffectPsychophysiology2019,3.0.5,59.9264119301014,
To what extent did the music make you feel ,ANXIOUS ,30MonoWAV/30MonoF4.wav,1,2,2,4,,,,,1,11,27,3,0,4,4,1,,,,,,,,,4,0.9356465710152406,,,090,001,2019_Aug_29_1009,MusicAffectPsychophysiology2019,3.0.5,59.9264119301014,
To what extent did the music make you feel ,ANGRY,30MonoWAV/30MonoF4.wav,1,2,2,4,,,,,1,11,27,3,0,5,5,2,,,,,,,,,4,1.252380407997407,,,090,001,2019_Aug_29_1009,MusicAffectPsychophysiology2019,3.0.5,59.9264119301014,
To what extent did the music make you feel ,SCARED,30MonoWAV/30MonoF4.wav,1,2,2,4,,,,,1,11,27,3,0,6,6,11,,,,,,,,,1,1.1191094130044803,,,090,001,2019_Aug_29_1009,MusicAffectPsychophysiology2019,3.0.5,59.9264119301014,
To what extent did the music make you feel ,HAPPY,30MonoWAV/30MonoF4.wav,1,2,2,4,,,,,1,11,27,3,0,7,7,6,,,,,,,,,1,0.9189281020080671,,,090,001,2019_Aug_29_1009,MusicAffectPsychophysiology2019,3.0.5,59.9264119301014,
To what extent did the music make you feel ,GUILTY,30MonoWAV/30MonoF4.wav,1,2,2,4,,,,,1,11,27,3,0,8,8,5,,,,,,,,,1,0.7649184599868022,,,090,001,2019_Aug_29_1009,MusicAffectPsychophysiology2019,3.0.5,59.9264119301014,
To what extent did the music make you feel ,TENDER,30MonoWAV/30MonoF4.wav,1,2,2,4,,,,,1,11,27,3,0,9,9,10,,,,,,,,,2,0.7874151860014535,,,090,001,2019_Aug_29_1009,MusicAffectPsychophysiology2019,3.0.5,59.9264119301014,
To what extent did the music make you feel ,ALERT,30MonoWAV/30MonoF4.wav,1,2,2,4,,,,,1,11,27,3,0,10,10,8,,,,,,,,,4,1.5361473569937516,,,090,001,2019_Aug_29_1009,MusicAffectPsychophysiology2019,3.0.5,59.9264119301014,
To what extent did the music make you feel ,ASHAMED,30MonoWAV/30MonoF4.wav,1,2,2,4,,,,,1,11,27,3,0,11,11,4,,,,,,,,,1,0.7355151879892219,,,090,001,2019_Aug_29_1009,MusicAffectPsychophysiology2019,3.0.5,59.9264119301014,
,,30MonoWAV/30MonoF4.wav,1,2,2,4,,,,,1,11,27,3,,,,,,,,,,,,,,,,,090,001,2019_Aug_29_1009,MusicAffectPsychophysiology2019,3.0.5,59.9264119301014,
To what extent did the music make you feel ,ANGRY,30MonoWAV/30MonoS2.wav,1,1,3,10,,,,,1,12,28,9,0,0,0,2,,,3,1.868996208999306,4,1.7852706240082625,4,1.5187634690082632,1,1.4746973569854163,,,090,001,2019_Aug_29_1009,MusicAffectPsychophysiology2019,3.0.5,59.9264119301014,
To what extent did the music make you feel ,ACTIVE,30MonoWAV/30MonoS2.wav,1,1,3,10,,,,,1,12,28,9,0,1,1,9,,,,,,,,,1,0.7363854240102228,,,090,001,2019_Aug_29_1009,MusicAffectPsychophysiology2019,3.0.5,59.9264119301014,
To what extent did the music make you feel ,GUILTY,30MonoWAV/30MonoS2.wav,1,1,3,10,,,,,1,12,28,9,0,2,2,5,,,,,,,,,2,1.2023519329959527,,,090,001,2019_Aug_29_1009,MusicAffectPsychophysiology2019,3.0.5,59.9264119301014,
To what extent did the music make you feel ,ASHAMED,30MonoWAV/30MonoS2.wav,1,1,3,10,,,,,1,12,28,9,0,3,3,4,,,,,,,,,2,1.1362432349997107,,,090,001,2019_Aug_29_1009,MusicAffectPsychophysiology2019,3.0.5,59.9264119301014,
To what extent did the music make you feel ,HAPPY,30MonoWAV/30MonoS2.wav,1,1,3,10,,,,,1,12,28,9,0,4,4,6,,,,,,,,,1,0.9678423239965923,,,090,001,2019_Aug_29_1009,MusicAffectPsychophysiology2019,3.0.5,59.9264119301014,
To what extent did the music make you feel ,ANXIOUS ,30MonoWAV/30MonoS2.wav,1,1,3,10,,,,,1,12,28,9,0,5,5,1,,,,,,,,,1,1.185414117993787,,,090,001,2019_Aug_29_1009,MusicAffectPsychophysiology2019,3.0.5,59.9264119301014,
To what extent did the music make you feel ,ALERT,30MonoWAV/30MonoS2.wav,1,1,3,10,,,,,1,12,28,9,0,6,6,8,,,,,,,,,2,1.0188181470148265,,,090,001,2019_Aug_29_1009,MusicAffectPsychophysiology2019,3.0.5,59.9264119301014,
To what extent did the music make you feel ,EXCITED,30MonoWAV/30MonoS2.wav,1,1,3,10,,,,,1,12,28,9,0,7,7,7,,,,,,,,,1,0.8690623090078589,,,090,001,2019_Aug_29_1009,MusicAffectPsychophysiology2019,3.0.5,59.9264119301014,
To what extent did the music make you feel ,SAD,30MonoWAV/30MonoS2.wav,1,1,3,10,,,,,1,12,28,9,0,8,8,0,,,,,,,,,5,1.6201288589800242,,,090,001,2019_Aug_29_1009,MusicAffectPsychophysiology2019,3.0.5,59.9264119301014,
To what extent did the music make you feel ,FRUSTRATED,30MonoWAV/30MonoS2.wav,1,1,3,10,,,,,1,12,28,9,0,9,9,3,,,,,,,,,2,1.4013045809988398,,,090,001,2019_Aug_29_1009,MusicAffectPsychophysiology2019,3.0.5,59.9264119301014,
To what extent did the music make you feel ,SCARED,30MonoWAV/30MonoS2.wav,1,1,3,10,,,,,1,12,28,9,0,10,10,11,,,,,,,,,1,0.9881616170168854,,,090,001,2019_Aug_29_1009,MusicAffectPsychophysiology2019,3.0.5,59.9264119301014,
To what extent did the music make you feel ,TENDER,30MonoWAV/30MonoS2.wav,1,1,3,10,,,,,1,12,28,9,0,11,11,10,,,,,,,,,2,0.7535944359842688,,,090,001,2019_Aug_29_1009,MusicAffectPsychophysiology2019,3.0.5,59.9264119301014,
,,30MonoWAV/30MonoS2.wav,1,1,3,10,,,,,1,12,28,9,,,,,,,,,,,,,,,,,090,001,2019_Aug_29_1009,MusicAffectPsychophysiology2019,3.0.5,59.9264119301014,
To what extent did the music make you feel ,FRUSTRATED,30MonoWAV/30MonoF1.wav,1,2,2,1,,,,,1,13,29,0,0,0,0,3,,,3,1.735458048991859,3,0.6693120019917842,2,1.1359340389899444,3,1.185354888002621,,,090,001,2019_Aug_29_1009,MusicAffectPsychophysiology2019,3.0.5,59.9264119301014,
To what extent did the music make you feel ,SAD,30MonoWAV/30MonoF1.wav,1,2,2,1,,,,,1,13,29,0,0,1,1,0,,,,,,,,,2,1.2177086559822783,,,090,001,2019_Aug_29_1009,MusicAffectPsychophysiology2019,3.0.5,59.9264119301014,
To what extent did the music make you feel ,ACTIVE,30MonoWAV/30MonoF1.wav,1,2,2,1,,,,,1,13,29,0,0,2,2,9,,,,,,,,,4,0.9521348150155973,,,090,001,2019_Aug_29_1009,MusicAffectPsychophysiology2019,3.0.5,59.9264119301014,
To what extent did the music make you feel ,ANGRY,30MonoWAV/30MonoF1.wav,1,2,2,1,,,,,1,13,29,0,0,3,3,2,,,,,,,,,4,1.5016543039819226,,,090,001,2019_Aug_29_1009,MusicAffectPsychophysiology2019,3.0.5,59.9264119301014,
To what extent did the music make you feel ,ALERT,30MonoWAV/30MonoF1.wav,1,2,2,1,,,,,1,13,29,0,0,4,4,8,,,,,,,,,5,1.152158237004187,,,090,001,2019_Aug_29_1009,MusicAffectPsychophysiology2019,3.0.5,59.9264119301014,
To what extent did the music make you feel ,EXCITED,30MonoWAV/30MonoF1.wav,1,2,2,1,,,,,1,13,29,0,0,5,5,7,,,,,,,,,1,1.1027088339906186,,,090,001,2019_Aug_29_1009,MusicAffectPsychophysiology2019,3.0.5,59.9264119301014,
To what extent did the music make you feel ,ANXIOUS ,30MonoWAV/30MonoF1.wav,1,2,2,1,,,,,1,13,29,0,0,6,6,1,,,,,,,,,3,1.085528219002299,,,090,001,2019_Aug_29_1009,MusicAffectPsychophysiology2019,3.0.5,59.9264119301014,
To what extent did the music make you feel ,HAPPY,30MonoWAV/30MonoF1.wav,1,2,2,1,,,,,1,13,29,0,0,7,7,6,,,,,,,,,1,0.7844274670060258,,,090,001,2019_Aug_29_1009,MusicAffectPsychophysiology2019,3.0.5,59.9264119301014,
To what extent did the music make you feel ,SCARED,30MonoWAV/30MonoF1.wav,1,2,2,1,,,,,1,13,29,0,0,8,8,11,,,,,,,,,1,1.203651654010173,,,090,001,2019_Aug_29_1009,MusicAffectPsychophysiology2019,3.0.5,59.9264119301014,
To what extent did the music make you feel ,GUILTY,30MonoWAV/30MonoF1.wav,1,2,2,1,,,,,1,13,29,0,0,9,9,5,,,,,,,,,1,0.7176409999956377,,,090,001,2019_Aug_29_1009,MusicAffectPsychophysiology2019,3.0.5,59.9264119301014,
To what extent did the music make you feel ,ASHAMED,30MonoWAV/30MonoF1.wav,1,2,2,1,,,,,1,13,29,0,0,10,10,4,,,,,,,,,1,0.48586888299905695,,,090,001,2019_Aug_29_1009,MusicAffectPsychophysiology2019,3.0.5,59.9264119301014,
To what extent did the music make you feel ,TENDER,30MonoWAV/30MonoF1.wav,1,2,2,1,,,,,1,13,29,0,0,11,11,10,,,,,,,,,2,0.7022662999806926,,,090,001,2019_Aug_29_1009,MusicAffectPsychophysiology2019,3.0.5,59.9264119301014,
,,30MonoWAV/30MonoF1.wav,1,2,2,1,,,,,1,13,29,0,,,,,,,,,,,,,,,,,090,001,2019_Aug_29_1009,MusicAffectPsychophysiology2019,3.0.5,59.9264119301014,
To what extent did the music make you feel ,SCARED,30MonoWAV/30MonoS3.wav,1,1,3,11,,,,,1,14,30,10,0,0,0,11,,,4,3.2188468550157268,3,2.935641459975159,4,2.0860422780096997,2,1.8957647480128799,,,090,001,2019_Aug_29_1009,MusicAffectPsychophysiology2019,3.0.5,59.9264119301014,
To what extent did the music make you feel ,EXCITED,30MonoWAV/30MonoS3.wav,1,1,3,11,,,,,1,14,30,10,0,1,1,7,,,,,,,,,1,0.919390378985554,,,090,001,2019_Aug_29_1009,MusicAffectPsychophysiology2019,3.0.5,59.9264119301014,
To what extent did the music make you feel ,ACTIVE,30MonoWAV/30MonoS3.wav,1,1,3,11,,,,,1,14,30,10,0,2,2,9,,,,,,,,,3,0.8187437339802273,,,090,001,2019_Aug_29_1009,MusicAffectPsychophysiology2019,3.0.5,59.9264119301014,
To what extent did the music make you feel ,ANGRY,30MonoWAV/30MonoS3.wav,1,1,3,11,,,,,1,14,30,10,0,3,3,2,,,,,,,,,2,1.8530091430002358,,,090,001,2019_Aug_29_1009,MusicAffectPsychophysiology2019,3.0.5,59.9264119301014,
To what extent did the music make you feel ,FRUSTRATED,30MonoWAV/30MonoS3.wav,1,1,3,11,,,,,1,14,30,10,0,4,4,3,,,,,,,,,3,1.3947475999884773,,,090,001,2019_Aug_29_1009,MusicAffectPsychophysiology2019,3.0.5,59.9264119301014,
To what extent did the music make you feel ,HAPPY,30MonoWAV/30MonoS3.wav,1,1,3,11,,,,,1,14,30,10,0,5,5,6,,,,,,,,,1,1.151977415982401,,,090,001,2019_Aug_29_1009,MusicAffectPsychophysiology2019,3.0.5,59.9264119301014,
To what extent did the music make you feel ,ALERT,30MonoWAV/30MonoS3.wav,1,1,3,11,,,,,1,14,30,10,0,6,6,8,,,,,,,,,3,1.1030886440130416,,,090,001,2019_Aug_29_1009,MusicAffectPsychophysiology2019,3.0.5,59.9264119301014,
To what extent did the music make you feel ,ANXIOUS ,30MonoWAV/30MonoS3.wav,1,1,3,11,,,,,1,14,30,10,0,7,7,1,,,,,,,,,3,0.9676334930118173,,,090,001,2019_Aug_29_1009,MusicAffectPsychophysiology2019,3.0.5,59.9264119301014,
To what extent did the music make you feel ,GUILTY,30MonoWAV/30MonoS3.wav,1,1,3,11,,,,,1,14,30,10,0,8,8,5,,,,,,,,,3,1.301871701987693,,,090,001,2019_Aug_29_1009,MusicAffectPsychophysiology2019,3.0.5,59.9264119301014,
To what extent did the music make you feel ,TENDER,30MonoWAV/30MonoS3.wav,1,1,3,11,,,,,1,14,30,10,0,9,9,10,,,,,,,,,2,0.9347798499802593,,,090,001,2019_Aug_29_1009,MusicAffectPsychophysiology2019,3.0.5,59.9264119301014,
To what extent did the music make you feel ,ASHAMED,30MonoWAV/30MonoS3.wav,1,1,3,11,,,,,1,14,30,10,0,10,10,4,,,,,,,,,3,1.0694070419995114,,,090,001,2019_Aug_29_1009,MusicAffectPsychophysiology2019,3.0.5,59.9264119301014,
To what extent did the music make you feel ,SAD,30MonoWAV/30MonoS3.wav,1,1,3,11,,,,,1,14,30,10,0,11,11,0,,,,,,,,,4,1.2688241400173865,,,090,001,2019_Aug_29_1009,MusicAffectPsychophysiology2019,3.0.5,59.9264119301014,
,,30MonoWAV/30MonoS3.wav,1,1,3,11,,,,,1,14,30,10,,,,,,,,,,,,,,,,,090,001,2019_Aug_29_1009,MusicAffectPsychophysiology2019,3.0.5,59.9264119301014,
To what extent did the music make you feel ,SCARED,30MonoWAV/30MonoT2.wav,2,1,4,14,,,,,1,15,31,13,0,0,0,11,,,4,1.6361546469852328,4,0.8845049920200836,4,1.1846944329736289,1,1.0892323249718174,,,090,001,2019_Aug_29_1009,MusicAffectPsychophysiology2019,3.0.5,59.9264119301014,
To what extent did the music make you feel ,SAD,30MonoWAV/30MonoT2.wav,2,1,4,14,,,,,1,15,31,13,0,1,1,0,,,,,,,,,1,0.6028020849917084,,,090,001,2019_Aug_29_1009,MusicAffectPsychophysiology2019,3.0.5,59.9264119301014,
To what extent did the music make you feel ,ALERT,30MonoWAV/30MonoT2.wav,2,1,4,14,,,,,1,15,31,13,0,2,2,8,,,,,,,,,1,0.8167705559753813,,,090,001,2019_Aug_29_1009,MusicAffectPsychophysiology2019,3.0.5,59.9264119301014,
To what extent did the music make you feel ,ACTIVE,30MonoWAV/30MonoT2.wav,2,1,4,14,,,,,1,15,31,13,0,3,3,9,,,,,,,,,2,0.8849396670120768,,,090,001,2019_Aug_29_1009,MusicAffectPsychophysiology2019,3.0.5,59.9264119301014,
To what extent did the music make you feel ,ANXIOUS ,30MonoWAV/30MonoT2.wav,2,1,4,14,,,,,1,15,31,13,0,4,4,1,,,,,,,,,1,0.8026693429856095,,,090,001,2019_Aug_29_1009,MusicAffectPsychophysiology2019,3.0.5,59.9264119301014,
To what extent did the music make you feel ,HAPPY,30MonoWAV/30MonoT2.wav,2,1,4,14,,,,,1,15,31,13,0,5,5,6,,,,,,,,,3,0.9181366919947322,,,090,001,2019_Aug_29_1009,MusicAffectPsychophysiology2019,3.0.5,59.9264119301014,
To what extent did the music make you feel ,FRUSTRATED,30MonoWAV/30MonoT2.wav,2,1,4,14,,,,,1,15,31,13,0,6,6,3,,,,,,,,,1,0.7397437159961555,,,090,001,2019_Aug_29_1009,MusicAffectPsychophysiology2019,3.0.5,59.9264119301014,
To what extent did the music make you feel ,GUILTY,30MonoWAV/30MonoT2.wav,2,1,4,14,,,,,1,15,31,13,0,7,7,5,,,,,,,,,1,0.7531334410014097,,,090,001,2019_Aug_29_1009,MusicAffectPsychophysiology2019,3.0.5,59.9264119301014,
To what extent did the music make you feel ,ASHAMED,30MonoWAV/30MonoT2.wav,2,1,4,14,,,,,1,15,31,13,0,8,8,4,,,,,,,,,1,0.6184857479820494,,,090,001,2019_Aug_29_1009,MusicAffectPsychophysiology2019,3.0.5,59.9264119301014,
To what extent did the music make you feel ,ANGRY,30MonoWAV/30MonoT2.wav,2,1,4,14,,,,,1,15,31,13,0,9,9,2,,,,,,,,,1,0.5861582880024798,,,090,001,2019_Aug_29_1009,MusicAffectPsychophysiology2019,3.0.5,59.9264119301014,
To what extent did the music make you feel ,EXCITED,30MonoWAV/30MonoT2.wav,2,1,4,14,,,,,1,15,31,13,0,10,10,7,,,,,,,,,2,1.4702264480001759,,,090,001,2019_Aug_29_1009,MusicAffectPsychophysiology2019,3.0.5,59.9264119301014,
To what extent did the music make you feel ,TENDER,30MonoWAV/30MonoT2.wav,2,1,4,14,,,,,1,15,31,13,0,11,11,10,,,,,,,,,2,0.851839392009424,,,090,001,2019_Aug_29_1009,MusicAffectPsychophysiology2019,3.0.5,59.9264119301014,
,,30MonoWAV/30MonoT2.wav,2,1,4,14,,,,,1,15,31,13,,,,,,,,,,,,,,,,,090,001,2019_Aug_29_1009,MusicAffectPsychophysiology2019,3.0.5,59.9264119301014,
,,,,,,,,,,,,,,,,,,,,,,,,,,,,,space,8.101847518992145,090,001,2019_Aug_29_1009,MusicAffectPsychophysiology2019,3.0.5,59.9264119301014,
