Instruction,Word,song,valence,arousal,affectcat,songmark,pracwords.thisRepN,pracwords.thisTrialN,pracwords.thisN,pracwords.thisIndex,songtrials.thisRepN,songtrials.thisTrialN,songtrials.thisN,songtrials.thisIndex,words.thisRepN,words.thisTrialN,words.thisN,words.thisIndex,begin.keys,begin.rt,arousalkey.keys,arousalkey.rt,valencekey.keys,valencekey.rt,likekey.keys,likekey.rt,WordResponse.keys,WordResponse.rt,participant,session,date,expName,psychopyVersion,frameRate,
,,,,,,,,,,,,,,,,,,,down,14.394462954020128,,,,,,,,,091,001,2019_Aug_29_1106,MusicAffectPsychophysiology2019,3.0.5,59.833412171796944,
,,,,,,,,,,,,,,,,,,,,,3,7.102502198016737,,,,,,,091,001,2019_Aug_29_1106,MusicAffectPsychophysiology2019,3.0.5,59.833412171796944,
,,,,,,,,,,,,,,,,,,,,,,,3,6.234673016995657,,,,,091,001,2019_Aug_29_1106,MusicAffectPsychophysiology2019,3.0.5,59.833412171796944,
,,,,,,,,,,,,,,,,,,,,,,,,,3,3.4028147749777418,,,091,001,2019_Aug_29_1106,MusicAffectPsychophysiology2019,3.0.5,59.833412171796944,
To what extent did the music make you feel ,TENDER,,,,,,0,0,0,10,,,,,,,,,,,,,,,,,3,6.989185390993953,091,001,2019_Aug_29_1106,MusicAffectPsychophysiology2019,3.0.5,59.833412171796944,
To what extent did the music make you feel ,ASHAMED,,,,,,0,1,1,4,,,,,,,,,,,,,,,,,1,5.399289285007399,091,001,2019_Aug_29_1106,MusicAffectPsychophysiology2019,3.0.5,59.833412171796944,
To what extent did the music make you feel ,FRUSTRATED,,,,,,0,2,2,3,,,,,,,,,,,,,,,,,1,1.3516881539835595,091,001,2019_Aug_29_1106,MusicAffectPsychophysiology2019,3.0.5,59.833412171796944,
To what extent did the music make you feel ,SAD,,,,,,0,3,3,0,,,,,,,,,,,,,,,,,2,2.217834145994857,091,001,2019_Aug_29_1106,MusicAffectPsychophysiology2019,3.0.5,59.833412171796944,
To what extent did the music make you feel ,ANXIOUS ,,,,,,0,4,4,1,,,,,,,,,,,,,,,,,1,1.31938396699843,091,001,2019_Aug_29_1106,MusicAffectPsychophysiology2019,3.0.5,59.833412171796944,
To what extent did the music make you feel ,ACTIVE,,,,,,0,5,5,9,,,,,,,,,,,,,,,,,2,4.686061085027177,091,001,2019_Aug_29_1106,MusicAffectPsychophysiology2019,3.0.5,59.833412171796944,
To what extent did the music make you feel ,ANGRY,,,,,,0,6,6,2,,,,,,,,,,,,,,,,,1,5.7037959579902235,091,001,2019_Aug_29_1106,MusicAffectPsychophysiology2019,3.0.5,59.833412171796944,
To what extent did the music make you feel ,ALERT,,,,,,0,7,7,8,,,,,,,,,,,,,,,,,3,3.702910972002428,091,001,2019_Aug_29_1106,MusicAffectPsychophysiology2019,3.0.5,59.833412171796944,
To what extent did the music make you feel ,SCARED,,,,,,0,8,8,11,,,,,,,,,,,,,,,,,1,4.120274327986408,091,001,2019_Aug_29_1106,MusicAffectPsychophysiology2019,3.0.5,59.833412171796944,
To what extent did the music make you feel ,EXCITED,,,,,,0,9,9,7,,,,,,,,,,,,,,,,,4,3.7697764960175846,091,001,2019_Aug_29_1106,MusicAffectPsychophysiology2019,3.0.5,59.833412171796944,
To what extent did the music make you feel ,HAPPY,,,,,,0,10,10,6,,,,,,,,,,,,,,,,,4,1.5710404280107468,091,001,2019_Aug_29_1106,MusicAffectPsychophysiology2019,3.0.5,59.833412171796944,
To what extent did the music make you feel ,GUILTY,,,,,,0,11,11,5,,,,,,,,,,,,,,,,,1,1.2677701890061144,091,001,2019_Aug_29_1106,MusicAffectPsychophysiology2019,3.0.5,59.833412171796944,
To what extent did the music make you feel ,HAPPY,30MonoWAV/30MonoT1.wav,2,1,4,13,,,,,0,0,0,12,0,0,0,6,,,1,3.8032990969950333,3,3.169581541995285,3,3.651109844009625,2,9.116615525999805,091,001,2019_Aug_29_1106,MusicAffectPsychophysiology2019,3.0.5,59.833412171796944,
To what extent did the music make you feel ,FRUSTRATED,30MonoWAV/30MonoT1.wav,2,1,4,13,,,,,0,0,0,12,0,1,1,3,,,,,,,,,1,1.5696131710137706,091,001,2019_Aug_29_1106,MusicAffectPsychophysiology2019,3.0.5,59.833412171796944,
To what extent did the music make you feel ,GUILTY,30MonoWAV/30MonoT1.wav,2,1,4,13,,,,,0,0,0,12,0,2,2,5,,,,,,,,,1,1.2375283000001218,091,001,2019_Aug_29_1106,MusicAffectPsychophysiology2019,3.0.5,59.833412171796944,
To what extent did the music make you feel ,SAD,30MonoWAV/30MonoT1.wav,2,1,4,13,,,,,0,0,0,12,0,3,3,0,,,,,,,,,1,1.1017876850091852,091,001,2019_Aug_29_1106,MusicAffectPsychophysiology2019,3.0.5,59.833412171796944,
To what extent did the music make you feel ,ANXIOUS ,30MonoWAV/30MonoT1.wav,2,1,4,13,,,,,0,0,0,12,0,4,4,1,,,,,,,,,1,1.2196824289858341,091,001,2019_Aug_29_1106,MusicAffectPsychophysiology2019,3.0.5,59.833412171796944,
To what extent did the music make you feel ,EXCITED,30MonoWAV/30MonoT1.wav,2,1,4,13,,,,,0,0,0,12,0,5,5,7,,,,,,,,,2,2.2691799720050767,091,001,2019_Aug_29_1106,MusicAffectPsychophysiology2019,3.0.5,59.833412171796944,
To what extent did the music make you feel ,ASHAMED,30MonoWAV/30MonoT1.wav,2,1,4,13,,,,,0,0,0,12,0,6,6,4,,,,,,,,,1,1.4865326489962172,091,001,2019_Aug_29_1106,MusicAffectPsychophysiology2019,3.0.5,59.833412171796944,
To what extent did the music make you feel ,ALERT,30MonoWAV/30MonoT1.wav,2,1,4,13,,,,,0,0,0,12,0,7,7,8,,,,,,,,,2,6.351202007994289,091,001,2019_Aug_29_1106,MusicAffectPsychophysiology2019,3.0.5,59.833412171796944,
To what extent did the music make you feel ,ANGRY,30MonoWAV/30MonoT1.wav,2,1,4,13,,,,,0,0,0,12,0,8,8,2,,,,,,,,,1,1.0373122119926848,091,001,2019_Aug_29_1106,MusicAffectPsychophysiology2019,3.0.5,59.833412171796944,
To what extent did the music make you feel ,ACTIVE,30MonoWAV/30MonoT1.wav,2,1,4,13,,,,,0,0,0,12,0,9,9,9,,,,,,,,,1,1.2672019900055602,091,001,2019_Aug_29_1106,MusicAffectPsychophysiology2019,3.0.5,59.833412171796944,
To what extent did the music make you feel ,TENDER,30MonoWAV/30MonoT1.wav,2,1,4,13,,,,,0,0,0,12,0,10,10,10,,,,,,,,,3,2.5997015539905988,091,001,2019_Aug_29_1106,MusicAffectPsychophysiology2019,3.0.5,59.833412171796944,
To what extent did the music make you feel ,SCARED,30MonoWAV/30MonoT1.wav,2,1,4,13,,,,,0,0,0,12,0,11,11,11,,,,,,,,,1,1.1865490739874076,091,001,2019_Aug_29_1106,MusicAffectPsychophysiology2019,3.0.5,59.833412171796944,
,,30MonoWAV/30MonoT1.wav,2,1,4,13,,,,,0,0,0,12,,,,,,,,,,,,,,,091,001,2019_Aug_29_1106,MusicAffectPsychophysiology2019,3.0.5,59.833412171796944,
To what extent did the music make you feel ,ANGRY,30MonoWAV/30MonoH3.wav,2,2,1,7,,,,,0,1,1,6,0,0,0,2,,,3,3.836813179019373,3,6.450331386004109,2,1.8199251469923183,1,1.0576910899835639,091,001,2019_Aug_29_1106,MusicAffectPsychophysiology2019,3.0.5,59.833412171796944,
To what extent did the music make you feel ,SAD,30MonoWAV/30MonoH3.wav,2,2,1,7,,,,,0,1,1,6,0,1,1,0,,,,,,,,,1,1.2342123349953908,091,001,2019_Aug_29_1106,MusicAffectPsychophysiology2019,3.0.5,59.833412171796944,
To what extent did the music make you feel ,FRUSTRATED,30MonoWAV/30MonoH3.wav,2,2,1,7,,,,,0,1,1,6,0,2,2,3,,,,,,,,,1,1.0358913960226346,091,001,2019_Aug_29_1106,MusicAffectPsychophysiology2019,3.0.5,59.833412171796944,
To what extent did the music make you feel ,HAPPY,30MonoWAV/30MonoH3.wav,2,2,1,7,,,,,0,1,1,6,0,3,3,6,,,,,,,,,2,3.0860173300025053,091,001,2019_Aug_29_1106,MusicAffectPsychophysiology2019,3.0.5,59.833412171796944,
To what extent did the music make you feel ,ALERT,30MonoWAV/30MonoH3.wav,2,2,1,7,,,,,0,1,1,6,0,4,4,8,,,,,,,,,3,1.4861928839818574,091,001,2019_Aug_29_1106,MusicAffectPsychophysiology2019,3.0.5,59.833412171796944,
To what extent did the music make you feel ,GUILTY,30MonoWAV/30MonoH3.wav,2,2,1,7,,,,,0,1,1,6,0,5,5,5,,,,,,,,,1,1.05197781699826,091,001,2019_Aug_29_1106,MusicAffectPsychophysiology2019,3.0.5,59.833412171796944,
To what extent did the music make you feel ,TENDER,30MonoWAV/30MonoH3.wav,2,2,1,7,,,,,0,1,1,6,0,6,6,10,,,,,,,,,1,1.453056351019768,091,001,2019_Aug_29_1106,MusicAffectPsychophysiology2019,3.0.5,59.833412171796944,
To what extent did the music make you feel ,ASHAMED,30MonoWAV/30MonoH3.wav,2,2,1,7,,,,,0,1,1,6,0,7,7,4,,,,,,,,,1,1.118038352986332,091,001,2019_Aug_29_1106,MusicAffectPsychophysiology2019,3.0.5,59.833412171796944,
To what extent did the music make you feel ,EXCITED,30MonoWAV/30MonoH3.wav,2,2,1,7,,,,,0,1,1,6,0,8,8,7,,,,,,,,,3,3.6525327849958558,091,001,2019_Aug_29_1106,MusicAffectPsychophysiology2019,3.0.5,59.833412171796944,
To what extent did the music make you feel ,ACTIVE,30MonoWAV/30MonoH3.wav,2,2,1,7,,,,,0,1,1,6,0,9,9,9,,,,,,,,,3,2.152042598987464,091,001,2019_Aug_29_1106,MusicAffectPsychophysiology2019,3.0.5,59.833412171796944,
To what extent did the music make you feel ,SCARED,30MonoWAV/30MonoH3.wav,2,2,1,7,,,,,0,1,1,6,0,10,10,11,,,,,,,,,1,1.1699125689920038,091,001,2019_Aug_29_1106,MusicAffectPsychophysiology2019,3.0.5,59.833412171796944,
To what extent did the music make you feel ,ANXIOUS ,30MonoWAV/30MonoH3.wav,2,2,1,7,,,,,0,1,1,6,0,11,11,1,,,,,,,,,1,3.5495356649917085,091,001,2019_Aug_29_1106,MusicAffectPsychophysiology2019,3.0.5,59.833412171796944,
,,30MonoWAV/30MonoH3.wav,2,2,1,7,,,,,0,1,1,6,,,,,,,,,,,,,,,091,001,2019_Aug_29_1106,MusicAffectPsychophysiology2019,3.0.5,59.833412171796944,
To what extent did the music make you feel ,TENDER,30MonoWAV/30MonoF3.wav,1,2,2,3,,,,,0,2,2,2,0,0,0,10,,,3,3.1692304439784493,1,5.784830342978239,1,1.6358625419961754,1,1.933514564007055,091,001,2019_Aug_29_1106,MusicAffectPsychophysiology2019,3.0.5,59.833412171796944,
To what extent did the music make you feel ,ASHAMED,30MonoWAV/30MonoF3.wav,1,2,2,3,,,,,0,2,2,2,0,1,1,4,,,,,,,,,1,1.619303442974342,091,001,2019_Aug_29_1106,MusicAffectPsychophysiology2019,3.0.5,59.833412171796944,
To what extent did the music make you feel ,GUILTY,30MonoWAV/30MonoF3.wav,1,2,2,3,,,,,0,2,2,2,0,2,2,5,,,,,,,,,1,1.135388091992354,091,001,2019_Aug_29_1106,MusicAffectPsychophysiology2019,3.0.5,59.833412171796944,
To what extent did the music make you feel ,ACTIVE,30MonoWAV/30MonoF3.wav,1,2,2,3,,,,,0,2,2,2,0,3,3,9,,,,,,,,,2,1.9697430529922713,091,001,2019_Aug_29_1106,MusicAffectPsychophysiology2019,3.0.5,59.833412171796944,
To what extent did the music make you feel ,ALERT,30MonoWAV/30MonoF3.wav,1,2,2,3,,,,,0,2,2,2,0,4,4,8,,,,,,,,,3,1.1684040100080892,091,001,2019_Aug_29_1106,MusicAffectPsychophysiology2019,3.0.5,59.833412171796944,
To what extent did the music make you feel ,ANXIOUS ,30MonoWAV/30MonoF3.wav,1,2,2,3,,,,,0,2,2,2,0,5,5,1,,,,,,,,,3,1.1190699610160664,091,001,2019_Aug_29_1106,MusicAffectPsychophysiology2019,3.0.5,59.833412171796944,
To what extent did the music make you feel ,SCARED,30MonoWAV/30MonoF3.wav,1,2,2,3,,,,,0,2,2,2,0,6,6,11,,,,,,,,,4,1.5521985199884512,091,001,2019_Aug_29_1106,MusicAffectPsychophysiology2019,3.0.5,59.833412171796944,
To what extent did the music make you feel ,ANGRY,30MonoWAV/30MonoF3.wav,1,2,2,3,,,,,0,2,2,2,0,7,7,2,,,,,,,,,1,1.4361369769903831,091,001,2019_Aug_29_1106,MusicAffectPsychophysiology2019,3.0.5,59.833412171796944,
To what extent did the music make you feel ,EXCITED,30MonoWAV/30MonoF3.wav,1,2,2,3,,,,,0,2,2,2,0,8,8,7,,,,,,,,,1,2.1157559450075496,091,001,2019_Aug_29_1106,MusicAffectPsychophysiology2019,3.0.5,59.833412171796944,
To what extent did the music make you feel ,SAD,30MonoWAV/30MonoF3.wav,1,2,2,3,,,,,0,2,2,2,0,9,9,0,,,,,,,,,1,0.9192007100209594,091,001,2019_Aug_29_1106,MusicAffectPsychophysiology2019,3.0.5,59.833412171796944,
To what extent did the music make you feel ,HAPPY,30MonoWAV/30MonoF3.wav,1,2,2,3,,,,,0,2,2,2,0,10,10,6,,,,,,,,,1,2.3523715889896266,091,001,2019_Aug_29_1106,MusicAffectPsychophysiology2019,3.0.5,59.833412171796944,
To what extent did the music make you feel ,FRUSTRATED,30MonoWAV/30MonoF3.wav,1,2,2,3,,,,,0,2,2,2,0,11,11,3,,,,,,,,,1,1.6198401969741099,091,001,2019_Aug_29_1106,MusicAffectPsychophysiology2019,3.0.5,59.833412171796944,
,,30MonoWAV/30MonoF3.wav,1,2,2,3,,,,,0,2,2,2,,,,,,,,,,,,,,,091,001,2019_Aug_29_1106,MusicAffectPsychophysiology2019,3.0.5,59.833412171796944,
To what extent did the music make you feel ,SAD,30MonoWAV/30MonoF4.wav,1,2,2,4,,,,,0,3,3,3,0,0,0,0,,,4,10.802966954011936,1,7.475615647010272,1,7.53443208700628,1,5.758243726013461,091,001,2019_Aug_29_1106,MusicAffectPsychophysiology2019,3.0.5,59.833412171796944,
To what extent did the music make you feel ,HAPPY,30MonoWAV/30MonoF4.wav,1,2,2,4,,,,,0,3,3,3,0,1,1,6,,,,,,,,,1,0.8860420960118063,091,001,2019_Aug_29_1106,MusicAffectPsychophysiology2019,3.0.5,59.833412171796944,
To what extent did the music make you feel ,ANGRY,30MonoWAV/30MonoF4.wav,1,2,2,4,,,,,0,3,3,3,0,2,2,2,,,,,,,,,2,1.7702556070289575,091,001,2019_Aug_29_1106,MusicAffectPsychophysiology2019,3.0.5,59.833412171796944,
To what extent did the music make you feel ,SCARED,30MonoWAV/30MonoF4.wav,1,2,2,4,,,,,0,3,3,3,0,3,3,11,,,,,,,,,3,1.12290711098467,091,001,2019_Aug_29_1106,MusicAffectPsychophysiology2019,3.0.5,59.833412171796944,
To what extent did the music make you feel ,GUILTY,30MonoWAV/30MonoF4.wav,1,2,2,4,,,,,0,3,3,3,0,4,4,5,,,,,,,,,1,0.9562353180081118,091,001,2019_Aug_29_1106,MusicAffectPsychophysiology2019,3.0.5,59.833412171796944,
To what extent did the music make you feel ,ASHAMED,30MonoWAV/30MonoF4.wav,1,2,2,4,,,,,0,3,3,3,0,5,5,4,,,,,,,,,1,1.035868892999133,091,001,2019_Aug_29_1106,MusicAffectPsychophysiology2019,3.0.5,59.833412171796944,
To what extent did the music make you feel ,FRUSTRATED,30MonoWAV/30MonoF4.wav,1,2,2,4,,,,,0,3,3,3,0,6,6,3,,,,,,,,,2,3.5873758470115718,091,001,2019_Aug_29_1106,MusicAffectPsychophysiology2019,3.0.5,59.833412171796944,
To what extent did the music make you feel ,TENDER,30MonoWAV/30MonoF4.wav,1,2,2,4,,,,,0,3,3,3,0,7,7,10,,,,,,,,,1,1.1024470099946484,091,001,2019_Aug_29_1106,MusicAffectPsychophysiology2019,3.0.5,59.833412171796944,
To what extent did the music make you feel ,EXCITED,30MonoWAV/30MonoF4.wav,1,2,2,4,,,,,0,3,3,3,0,8,8,7,,,,,,,,,2,1.5380133040016517,091,001,2019_Aug_29_1106,MusicAffectPsychophysiology2019,3.0.5,59.833412171796944,
To what extent did the music make you feel ,ALERT,30MonoWAV/30MonoF4.wav,1,2,2,4,,,,,0,3,3,3,0,9,9,8,,,,,,,,,3,1.8868500649987254,091,001,2019_Aug_29_1106,MusicAffectPsychophysiology2019,3.0.5,59.833412171796944,
To what extent did the music make you feel ,ACTIVE,30MonoWAV/30MonoF4.wav,1,2,2,4,,,,,0,3,3,3,0,10,10,9,,,,,,,,,3,1.5865140139940195,091,001,2019_Aug_29_1106,MusicAffectPsychophysiology2019,3.0.5,59.833412171796944,
To what extent did the music make you feel ,ANXIOUS ,30MonoWAV/30MonoF4.wav,1,2,2,4,,,,,0,3,3,3,0,11,11,1,,,,,,,,,4,1.3351756689953618,091,001,2019_Aug_29_1106,MusicAffectPsychophysiology2019,3.0.5,59.833412171796944,
,,30MonoWAV/30MonoF4.wav,1,2,2,4,,,,,0,3,3,3,,,,,,,,,,,,,,,091,001,2019_Aug_29_1106,MusicAffectPsychophysiology2019,3.0.5,59.833412171796944,
To what extent did the music make you feel ,SAD,30MonoWAV/30MonoS3.wav,1,1,3,11,,,,,0,4,4,10,0,0,0,0,,,2,3.8192388500028756,1,2.2193173890118487,2,3.186116900993511,3,3.886488542018924,091,001,2019_Aug_29_1106,MusicAffectPsychophysiology2019,3.0.5,59.833412171796944,
To what extent did the music make you feel ,EXCITED,30MonoWAV/30MonoS3.wav,1,1,3,11,,,,,0,4,4,10,0,1,1,7,,,,,,,,,1,2.602948932995787,091,001,2019_Aug_29_1106,MusicAffectPsychophysiology2019,3.0.5,59.833412171796944,
To what extent did the music make you feel ,HAPPY,30MonoWAV/30MonoS3.wav,1,1,3,11,,,,,0,4,4,10,0,2,2,6,,,,,,,,,1,1.702052831009496,091,001,2019_Aug_29_1106,MusicAffectPsychophysiology2019,3.0.5,59.833412171796944,
To what extent did the music make you feel ,FRUSTRATED,30MonoWAV/30MonoS3.wav,1,1,3,11,,,,,0,4,4,10,0,3,3,3,,,,,,,,,1,2.2369840480096173,091,001,2019_Aug_29_1106,MusicAffectPsychophysiology2019,3.0.5,59.833412171796944,
To what extent did the music make you feel ,ASHAMED,30MonoWAV/30MonoS3.wav,1,1,3,11,,,,,0,4,4,10,0,4,4,4,,,,,,,,,3,1.4520285710168537,091,001,2019_Aug_29_1106,MusicAffectPsychophysiology2019,3.0.5,59.833412171796944,
To what extent did the music make you feel ,TENDER,30MonoWAV/30MonoS3.wav,1,1,3,11,,,,,0,4,4,10,0,5,5,10,,,,,,,,,3,1.4535197689838242,091,001,2019_Aug_29_1106,MusicAffectPsychophysiology2019,3.0.5,59.833412171796944,
To what extent did the music make you feel ,SCARED,30MonoWAV/30MonoS3.wav,1,1,3,11,,,,,0,4,4,10,0,6,6,11,,,,,,,,,2,3.6361396349966526,091,001,2019_Aug_29_1106,MusicAffectPsychophysiology2019,3.0.5,59.833412171796944,
To what extent did the music make you feel ,GUILTY,30MonoWAV/30MonoS3.wav,1,1,3,11,,,,,0,4,4,10,0,7,7,5,,,,,,,,,3,1.0999756229866762,091,001,2019_Aug_29_1106,MusicAffectPsychophysiology2019,3.0.5,59.833412171796944,
To what extent did the music make you feel ,ACTIVE,30MonoWAV/30MonoS3.wav,1,1,3,11,,,,,0,4,4,10,0,8,8,9,,,,,,,,,1,1.084487029002048,091,001,2019_Aug_29_1106,MusicAffectPsychophysiology2019,3.0.5,59.833412171796944,
To what extent did the music make you feel ,ALERT,30MonoWAV/30MonoS3.wav,1,1,3,11,,,,,0,4,4,10,0,9,9,8,,,,,,,,,1,2.6354918330034707,091,001,2019_Aug_29_1106,MusicAffectPsychophysiology2019,3.0.5,59.833412171796944,
To what extent did the music make you feel ,ANXIOUS ,30MonoWAV/30MonoS3.wav,1,1,3,11,,,,,0,4,4,10,0,10,10,1,,,,,,,,,2,9.052439222024987,091,001,2019_Aug_29_1106,MusicAffectPsychophysiology2019,3.0.5,59.833412171796944,
To what extent did the music make you feel ,ANGRY,30MonoWAV/30MonoS3.wav,1,1,3,11,,,,,0,4,4,10,0,11,11,2,,,,,,,,,1,2.1861967830045614,091,001,2019_Aug_29_1106,MusicAffectPsychophysiology2019,3.0.5,59.833412171796944,
,,30MonoWAV/30MonoS3.wav,1,1,3,11,,,,,0,4,4,10,,,,,,,,,,,,,,,091,001,2019_Aug_29_1106,MusicAffectPsychophysiology2019,3.0.5,59.833412171796944,
To what extent did the music make you feel ,ACTIVE,30MonoWAV/30MonoS2.wav,1,1,3,10,,,,,0,5,5,9,0,0,0,9,,,1,2.786017742997501,1,1.5189694230211899,1,2.6203946069872472,1,1.5251211030117702,091,001,2019_Aug_29_1106,MusicAffectPsychophysiology2019,3.0.5,59.833412171796944,
To what extent did the music make you feel ,GUILTY,30MonoWAV/30MonoS2.wav,1,1,3,10,,,,,0,5,5,9,0,1,1,5,,,,,,,,,2,1.552114353980869,091,001,2019_Aug_29_1106,MusicAffectPsychophysiology2019,3.0.5,59.833412171796944,
To what extent did the music make you feel ,SCARED,30MonoWAV/30MonoS2.wav,1,1,3,10,,,,,0,5,5,9,0,2,2,11,,,,,,,,,1,1.0023224920150824,091,001,2019_Aug_29_1106,MusicAffectPsychophysiology2019,3.0.5,59.833412171796944,
To what extent did the music make you feel ,TENDER,30MonoWAV/30MonoS2.wav,1,1,3,10,,,,,0,5,5,9,0,3,3,10,,,,,,,,,3,1.4524381439841818,091,001,2019_Aug_29_1106,MusicAffectPsychophysiology2019,3.0.5,59.833412171796944,
To what extent did the music make you feel ,SAD,30MonoWAV/30MonoS2.wav,1,1,3,10,,,,,0,5,5,9,0,4,4,0,,,,,,,,,4,1.4352086409926414,091,001,2019_Aug_29_1106,MusicAffectPsychophysiology2019,3.0.5,59.833412171796944,
To what extent did the music make you feel ,ASHAMED,30MonoWAV/30MonoS2.wav,1,1,3,10,,,,,0,5,5,9,0,5,5,4,,,,,,,,,4,1.3330740469973534,091,001,2019_Aug_29_1106,MusicAffectPsychophysiology2019,3.0.5,59.833412171796944,
To what extent did the music make you feel ,ANGRY,30MonoWAV/30MonoS2.wav,1,1,3,10,,,,,0,5,5,9,0,6,6,2,,,,,,,,,1,1.1695408030063845,091,001,2019_Aug_29_1106,MusicAffectPsychophysiology2019,3.0.5,59.833412171796944,
To what extent did the music make you feel ,HAPPY,30MonoWAV/30MonoS2.wav,1,1,3,10,,,,,0,5,5,9,0,7,7,6,,,,,,,,,1,1.1197079500125255,091,001,2019_Aug_29_1106,MusicAffectPsychophysiology2019,3.0.5,59.833412171796944,
To what extent did the music make you feel ,EXCITED,30MonoWAV/30MonoS2.wav,1,1,3,10,,,,,0,5,5,9,0,8,8,7,,,,,,,,,1,1.102115737972781,091,001,2019_Aug_29_1106,MusicAffectPsychophysiology2019,3.0.5,59.833412171796944,
To what extent did the music make you feel ,ALERT,30MonoWAV/30MonoS2.wav,1,1,3,10,,,,,0,5,5,9,0,9,9,8,,,,,,,,,1,1.0864661400264595,091,001,2019_Aug_29_1106,MusicAffectPsychophysiology2019,3.0.5,59.833412171796944,
To what extent did the music make you feel ,ANXIOUS ,30MonoWAV/30MonoS2.wav,1,1,3,10,,,,,0,5,5,9,0,10,10,1,,,,,,,,,1,4.302005014003953,091,001,2019_Aug_29_1106,MusicAffectPsychophysiology2019,3.0.5,59.833412171796944,
To what extent did the music make you feel ,FRUSTRATED,30MonoWAV/30MonoS2.wav,1,1,3,10,,,,,0,5,5,9,0,11,11,3,,,,,,,,,1,2.32332340098219,091,001,2019_Aug_29_1106,MusicAffectPsychophysiology2019,3.0.5,59.833412171796944,
,,30MonoWAV/30MonoS2.wav,1,1,3,10,,,,,0,5,5,9,,,,,,,,,,,,,,,091,001,2019_Aug_29_1106,MusicAffectPsychophysiology2019,3.0.5,59.833412171796944,
To what extent did the music make you feel ,SCARED,30MonoWAV/30MonoS1.wav,1,1,3,9,,,,,0,6,6,8,0,0,0,11,,,1,7.617387642007088,1,2.385955824982375,1,1.752030884992564,2,2.18569955098792,091,001,2019_Aug_29_1106,MusicAffectPsychophysiology2019,3.0.5,59.833412171796944,
To what extent did the music make you feel ,SAD,30MonoWAV/30MonoS1.wav,1,1,3,9,,,,,0,6,6,8,0,1,1,0,,,,,,,,,4,3.052365098003065,091,001,2019_Aug_29_1106,MusicAffectPsychophysiology2019,3.0.5,59.833412171796944,
To what extent did the music make you feel ,TENDER,30MonoWAV/30MonoS1.wav,1,1,3,9,,,,,0,6,6,8,0,2,2,10,,,,,,,,,4,1.2514387839764822,091,001,2019_Aug_29_1106,MusicAffectPsychophysiology2019,3.0.5,59.833412171796944,
To what extent did the music make you feel ,ANGRY,30MonoWAV/30MonoS1.wav,1,1,3,9,,,,,0,6,6,8,0,3,3,2,,,,,,,,,1,1.019287102011731,091,001,2019_Aug_29_1106,MusicAffectPsychophysiology2019,3.0.5,59.833412171796944,
To what extent did the music make you feel ,HAPPY,30MonoWAV/30MonoS1.wav,1,1,3,9,,,,,0,6,6,8,0,4,4,6,,,,,,,,,1,0.9338291759777348,091,001,2019_Aug_29_1106,MusicAffectPsychophysiology2019,3.0.5,59.833412171796944,
To what extent did the music make you feel ,ANXIOUS ,30MonoWAV/30MonoS1.wav,1,1,3,9,,,,,0,6,6,8,0,5,5,1,,,,,,,,,1,1.2023434510047082,091,001,2019_Aug_29_1106,MusicAffectPsychophysiology2019,3.0.5,59.833412171796944,
To what extent did the music make you feel ,FRUSTRATED,30MonoWAV/30MonoS1.wav,1,1,3,9,,,,,0,6,6,8,0,6,6,3,,,,,,,,,1,1.5675958420033567,091,001,2019_Aug_29_1106,MusicAffectPsychophysiology2019,3.0.5,59.833412171796944,
To what extent did the music make you feel ,EXCITED,30MonoWAV/30MonoS1.wav,1,1,3,9,,,,,0,6,6,8,0,7,7,7,,,,,,,,,1,0.9356515659892466,091,001,2019_Aug_29_1106,MusicAffectPsychophysiology2019,3.0.5,59.833412171796944,
To what extent did the music make you feel ,GUILTY,30MonoWAV/30MonoS1.wav,1,1,3,9,,,,,0,6,6,8,0,8,8,5,,,,,,,,,2,1.9194971089891624,091,001,2019_Aug_29_1106,MusicAffectPsychophysiology2019,3.0.5,59.833412171796944,
To what extent did the music make you feel ,ASHAMED,30MonoWAV/30MonoS1.wav,1,1,3,9,,,,,0,6,6,8,0,9,9,4,,,,,,,,,2,1.2522060520132072,091,001,2019_Aug_29_1106,MusicAffectPsychophysiology2019,3.0.5,59.833412171796944,
To what extent did the music make you feel ,ALERT,30MonoWAV/30MonoS1.wav,1,1,3,9,,,,,0,6,6,8,0,10,10,8,,,,,,,,,1,0.8675652809906751,091,001,2019_Aug_29_1106,MusicAffectPsychophysiology2019,3.0.5,59.833412171796944,
To what extent did the music make you feel ,ACTIVE,30MonoWAV/30MonoS1.wav,1,1,3,9,,,,,0,6,6,8,0,11,11,9,,,,,,,,,1,1.0361995440034661,091,001,2019_Aug_29_1106,MusicAffectPsychophysiology2019,3.0.5,59.833412171796944,
,,30MonoWAV/30MonoS1.wav,1,1,3,9,,,,,0,6,6,8,,,,,,,,,,,,,,,091,001,2019_Aug_29_1106,MusicAffectPsychophysiology2019,3.0.5,59.833412171796944,
To what extent did the music make you feel ,EXCITED,30MonoWAV/30MonoS4.wav,1,1,3,12,,,,,0,7,7,11,0,0,0,7,,,1,2.8702058809867594,1,1.6013528190087527,1,2.102743314986583,1,0.9597090540046338,091,001,2019_Aug_29_1106,MusicAffectPsychophysiology2019,3.0.5,59.833412171796944,
To what extent did the music make you feel ,ANXIOUS ,30MonoWAV/30MonoS4.wav,1,1,3,12,,,,,0,7,7,11,0,1,1,1,,,,,,,,,1,1.1696176450059284,091,001,2019_Aug_29_1106,MusicAffectPsychophysiology2019,3.0.5,59.833412171796944,
To what extent did the music make you feel ,GUILTY,30MonoWAV/30MonoS4.wav,1,1,3,12,,,,,0,7,7,11,0,2,2,5,,,,,,,,,2,1.9533144409942906,091,001,2019_Aug_29_1106,MusicAffectPsychophysiology2019,3.0.5,59.833412171796944,
To what extent did the music make you feel ,FRUSTRATED,30MonoWAV/30MonoS4.wav,1,1,3,12,,,,,0,7,7,11,0,3,3,3,,,,,,,,,1,0.9921356809791178,091,001,2019_Aug_29_1106,MusicAffectPsychophysiology2019,3.0.5,59.833412171796944,
To what extent did the music make you feel ,ASHAMED,30MonoWAV/30MonoS4.wav,1,1,3,12,,,,,0,7,7,11,0,4,4,4,,,,,,,,,1,4.135856208973564,091,001,2019_Aug_29_1106,MusicAffectPsychophysiology2019,3.0.5,59.833412171796944,
To what extent did the music make you feel ,ACTIVE,30MonoWAV/30MonoS4.wav,1,1,3,12,,,,,0,7,7,11,0,5,5,9,,,,,,,,,1,1.3026647870137822,091,001,2019_Aug_29_1106,MusicAffectPsychophysiology2019,3.0.5,59.833412171796944,
To what extent did the music make you feel ,TENDER,30MonoWAV/30MonoS4.wav,1,1,3,12,,,,,0,7,7,11,0,6,6,10,,,,,,,,,5,2.6526400620059576,091,001,2019_Aug_29_1106,MusicAffectPsychophysiology2019,3.0.5,59.833412171796944,
To what extent did the music make you feel ,SAD,30MonoWAV/30MonoS4.wav,1,1,3,12,,,,,0,7,7,11,0,7,7,0,,,,,,,,,5,1.018744978995528,091,001,2019_Aug_29_1106,MusicAffectPsychophysiology2019,3.0.5,59.833412171796944,
To what extent did the music make you feel ,SCARED,30MonoWAV/30MonoS4.wav,1,1,3,12,,,,,0,7,7,11,0,8,8,11,,,,,,,,,1,1.2876620989991352,091,001,2019_Aug_29_1106,MusicAffectPsychophysiology2019,3.0.5,59.833412171796944,
To what extent did the music make you feel ,HAPPY,30MonoWAV/30MonoS4.wav,1,1,3,12,,,,,0,7,7,11,0,9,9,6,,,,,,,,,1,1.0347220200055744,091,001,2019_Aug_29_1106,MusicAffectPsychophysiology2019,3.0.5,59.833412171796944,
To what extent did the music make you feel ,ALERT,30MonoWAV/30MonoS4.wav,1,1,3,12,,,,,0,7,7,11,0,10,10,8,,,,,,,,,1,1.1360995880095288,091,001,2019_Aug_29_1106,MusicAffectPsychophysiology2019,3.0.5,59.833412171796944,
To what extent did the music make you feel ,ANGRY,30MonoWAV/30MonoS4.wav,1,1,3,12,,,,,0,7,7,11,0,11,11,2,,,,,,,,,1,1.0520810750022065,091,001,2019_Aug_29_1106,MusicAffectPsychophysiology2019,3.0.5,59.833412171796944,
,,30MonoWAV/30MonoS4.wav,1,1,3,12,,,,,0,7,7,11,,,,,,,,,,,,,,,091,001,2019_Aug_29_1106,MusicAffectPsychophysiology2019,3.0.5,59.833412171796944,
To what extent did the music make you feel ,ALERT,30MonoWAV/30MonoF1.wav,1,2,2,1,,,,,0,8,8,0,0,0,0,8,,,4,4.035648413992021,3,4.518605943012517,2,2.3339651899877936,4,2.2518934450054076,091,001,2019_Aug_29_1106,MusicAffectPsychophysiology2019,3.0.5,59.833412171796944,
To what extent did the music make you feel ,SAD,30MonoWAV/30MonoF1.wav,1,2,2,1,,,,,0,8,8,0,0,1,1,0,,,,,,,,,1,6.6690106710011605,091,001,2019_Aug_29_1106,MusicAffectPsychophysiology2019,3.0.5,59.833412171796944,
To what extent did the music make you feel ,TENDER,30MonoWAV/30MonoF1.wav,1,2,2,1,,,,,0,8,8,0,0,2,2,10,,,,,,,,,1,1.1683274699898902,091,001,2019_Aug_29_1106,MusicAffectPsychophysiology2019,3.0.5,59.833412171796944,
To what extent did the music make you feel ,ACTIVE,30MonoWAV/30MonoF1.wav,1,2,2,1,,,,,0,8,8,0,0,3,3,9,,,,,,,,,4,2.0859699719876517,091,001,2019_Aug_29_1106,MusicAffectPsychophysiology2019,3.0.5,59.833412171796944,
To what extent did the music make you feel ,ASHAMED,30MonoWAV/30MonoF1.wav,1,2,2,1,,,,,0,8,8,0,0,4,4,4,,,,,,,,,1,1.5354527719900943,091,001,2019_Aug_29_1106,MusicAffectPsychophysiology2019,3.0.5,59.833412171796944,
To what extent did the music make you feel ,SCARED,30MonoWAV/30MonoF1.wav,1,2,2,1,,,,,0,8,8,0,0,5,5,11,,,,,,,,,2,1.7031304460251704,091,001,2019_Aug_29_1106,MusicAffectPsychophysiology2019,3.0.5,59.833412171796944,
To what extent did the music make you feel ,ANGRY,30MonoWAV/30MonoF1.wav,1,2,2,1,,,,,0,8,8,0,0,6,6,2,,,,,,,,,1,1.6194922809954733,091,001,2019_Aug_29_1106,MusicAffectPsychophysiology2019,3.0.5,59.833412171796944,
To what extent did the music make you feel ,FRUSTRATED,30MonoWAV/30MonoF1.wav,1,2,2,1,,,,,0,8,8,0,0,7,7,3,,,,,,,,,1,1.1850898709963076,091,001,2019_Aug_29_1106,MusicAffectPsychophysiology2019,3.0.5,59.833412171796944,
To what extent did the music make you feel ,GUILTY,30MonoWAV/30MonoF1.wav,1,2,2,1,,,,,0,8,8,0,0,8,8,5,,,,,,,,,1,1.01915403699968,091,001,2019_Aug_29_1106,MusicAffectPsychophysiology2019,3.0.5,59.833412171796944,
To what extent did the music make you feel ,EXCITED,30MonoWAV/30MonoF1.wav,1,2,2,1,,,,,0,8,8,0,0,9,9,7,,,,,,,,,3,3.7014636039966717,091,001,2019_Aug_29_1106,MusicAffectPsychophysiology2019,3.0.5,59.833412171796944,
To what extent did the music make you feel ,ANXIOUS ,30MonoWAV/30MonoF1.wav,1,2,2,1,,,,,0,8,8,0,0,10,10,1,,,,,,,,,2,2.5859180209808983,091,001,2019_Aug_29_1106,MusicAffectPsychophysiology2019,3.0.5,59.833412171796944,
To what extent did the music make you feel ,HAPPY,30MonoWAV/30MonoF1.wav,1,2,2,1,,,,,0,8,8,0,0,11,11,6,,,,,,,,,2,2.218661252001766,091,001,2019_Aug_29_1106,MusicAffectPsychophysiology2019,3.0.5,59.833412171796944,
,,30MonoWAV/30MonoF1.wav,1,2,2,1,,,,,0,8,8,0,,,,,,,,,,,,,,,091,001,2019_Aug_29_1106,MusicAffectPsychophysiology2019,3.0.5,59.833412171796944,
To what extent did the music make you feel ,EXCITED,30MonoWAV/30MonoT4.wav,2,1,4,16,,,,,0,9,9,15,0,0,0,7,,,2,3.433775505021913,3,2.4686739489843603,3,1.8520760320243426,3,7.960517568018986,091,001,2019_Aug_29_1106,MusicAffectPsychophysiology2019,3.0.5,59.833412171796944,
To what extent did the music make you feel ,TENDER,30MonoWAV/30MonoT4.wav,2,1,4,16,,,,,0,9,9,15,0,1,1,10,,,,,,,,,2,5.652578321984038,091,001,2019_Aug_29_1106,MusicAffectPsychophysiology2019,3.0.5,59.833412171796944,
To what extent did the music make you feel ,GUILTY,30MonoWAV/30MonoT4.wav,2,1,4,16,,,,,0,9,9,15,0,2,2,5,,,,,,,,,1,0.8170001379912719,091,001,2019_Aug_29_1106,MusicAffectPsychophysiology2019,3.0.5,59.833412171796944,
To what extent did the music make you feel ,ALERT,30MonoWAV/30MonoT4.wav,2,1,4,16,,,,,0,9,9,15,0,3,3,8,,,,,,,,,2,1.1693444419943262,091,001,2019_Aug_29_1106,MusicAffectPsychophysiology2019,3.0.5,59.833412171796944,
To what extent did the music make you feel ,SAD,30MonoWAV/30MonoT4.wav,2,1,4,16,,,,,0,9,9,15,0,4,4,0,,,,,,,,,1,0.8023714160080999,091,001,2019_Aug_29_1106,MusicAffectPsychophysiology2019,3.0.5,59.833412171796944,
To what extent did the music make you feel ,ANXIOUS ,30MonoWAV/30MonoT4.wav,2,1,4,16,,,,,0,9,9,15,0,5,5,1,,,,,,,,,1,0.9848130579921417,091,001,2019_Aug_29_1106,MusicAffectPsychophysiology2019,3.0.5,59.833412171796944,
To what extent did the music make you feel ,ACTIVE,30MonoWAV/30MonoT4.wav,2,1,4,16,,,,,0,9,9,15,0,6,6,9,,,,,,,,,3,3.318633325980045,091,001,2019_Aug_29_1106,MusicAffectPsychophysiology2019,3.0.5,59.833412171796944,
To what extent did the music make you feel ,FRUSTRATED,30MonoWAV/30MonoT4.wav,2,1,4,16,,,,,0,9,9,15,0,7,7,3,,,,,,,,,1,3.283458970981883,091,001,2019_Aug_29_1106,MusicAffectPsychophysiology2019,3.0.5,59.833412171796944,
To what extent did the music make you feel ,ASHAMED,30MonoWAV/30MonoT4.wav,2,1,4,16,,,,,0,9,9,15,0,8,8,4,,,,,,,,,1,1.0019066279928666,091,001,2019_Aug_29_1106,MusicAffectPsychophysiology2019,3.0.5,59.833412171796944,
To what extent did the music make you feel ,SCARED,30MonoWAV/30MonoT4.wav,2,1,4,16,,,,,0,9,9,15,0,9,9,11,,,,,,,,,1,0.6692161239916459,091,001,2019_Aug_29_1106,MusicAffectPsychophysiology2019,3.0.5,59.833412171796944,
To what extent did the music make you feel ,ANGRY,30MonoWAV/30MonoT4.wav,2,1,4,16,,,,,0,9,9,15,0,10,10,2,,,,,,,,,1,0.7028980769973714,091,001,2019_Aug_29_1106,MusicAffectPsychophysiology2019,3.0.5,59.833412171796944,
To what extent did the music make you feel ,HAPPY,30MonoWAV/30MonoT4.wav,2,1,4,16,,,,,0,9,9,15,0,11,11,6,,,,,,,,,3,2.885595461993944,091,001,2019_Aug_29_1106,MusicAffectPsychophysiology2019,3.0.5,59.833412171796944,
,,30MonoWAV/30MonoT4.wav,2,1,4,16,,,,,0,9,9,15,,,,,,,,,,,,,,,091,001,2019_Aug_29_1106,MusicAffectPsychophysiology2019,3.0.5,59.833412171796944,
To what extent did the music make you feel ,SAD,30MonoWAV/30MonoH4.wav,2,2,1,8,,,,,0,10,10,7,0,0,0,0,,,4,4.9197868059854954,4,2.1348437019914854,3,2.2352754499879666,1,2.5199677319906186,091,001,2019_Aug_29_1106,MusicAffectPsychophysiology2019,3.0.5,59.833412171796944,
To what extent did the music make you feel ,ANGRY,30MonoWAV/30MonoH4.wav,2,2,1,8,,,,,0,10,10,7,0,1,1,2,,,,,,,,,1,0.8858845310169272,091,001,2019_Aug_29_1106,MusicAffectPsychophysiology2019,3.0.5,59.833412171796944,
To what extent did the music make you feel ,EXCITED,30MonoWAV/30MonoH4.wav,2,2,1,8,,,,,0,10,10,7,0,2,2,7,,,,,,,,,4,0.9193032000039238,091,001,2019_Aug_29_1106,MusicAffectPsychophysiology2019,3.0.5,59.833412171796944,
To what extent did the music make you feel ,HAPPY,30MonoWAV/30MonoH4.wav,2,2,1,8,,,,,0,10,10,7,0,3,3,6,,,,,,,,,4,1.3520165289810393,091,001,2019_Aug_29_1106,MusicAffectPsychophysiology2019,3.0.5,59.833412171796944,
To what extent did the music make you feel ,ACTIVE,30MonoWAV/30MonoH4.wav,2,2,1,8,,,,,0,10,10,7,0,4,4,9,,,,,,,,,5,1.519764477998251,091,001,2019_Aug_29_1106,MusicAffectPsychophysiology2019,3.0.5,59.833412171796944,
To what extent did the music make you feel ,ANXIOUS ,30MonoWAV/30MonoH4.wav,2,2,1,8,,,,,0,10,10,7,0,5,5,1,,,,,,,,,1,1.7190176220028661,091,001,2019_Aug_29_1106,MusicAffectPsychophysiology2019,3.0.5,59.833412171796944,
To what extent did the music make you feel ,TENDER,30MonoWAV/30MonoH4.wav,2,2,1,8,,,,,0,10,10,7,0,6,6,10,,,,,,,,,1,0.7694617469969671,091,001,2019_Aug_29_1106,MusicAffectPsychophysiology2019,3.0.5,59.833412171796944,
To what extent did the music make you feel ,SCARED,30MonoWAV/30MonoH4.wav,2,2,1,8,,,,,0,10,10,7,0,7,7,11,,,,,,,,,1,0.6833393090055324,091,001,2019_Aug_29_1106,MusicAffectPsychophysiology2019,3.0.5,59.833412171796944,
To what extent did the music make you feel ,ALERT,30MonoWAV/30MonoH4.wav,2,2,1,8,,,,,0,10,10,7,0,8,8,8,,,,,,,,,3,2.6000183139985893,091,001,2019_Aug_29_1106,MusicAffectPsychophysiology2019,3.0.5,59.833412171796944,
To what extent did the music make you feel ,FRUSTRATED,30MonoWAV/30MonoH4.wav,2,2,1,8,,,,,0,10,10,7,0,9,9,3,,,,,,,,,1,0.7200832449889276,091,001,2019_Aug_29_1106,MusicAffectPsychophysiology2019,3.0.5,59.833412171796944,
To what extent did the music make you feel ,GUILTY,30MonoWAV/30MonoH4.wav,2,2,1,8,,,,,0,10,10,7,0,10,10,5,,,,,,,,,1,0.8360195330169518,091,001,2019_Aug_29_1106,MusicAffectPsychophysiology2019,3.0.5,59.833412171796944,
To what extent did the music make you feel ,ASHAMED,30MonoWAV/30MonoH4.wav,2,2,1,8,,,,,0,10,10,7,0,11,11,4,,,,,,,,,1,4.13618332601618,091,001,2019_Aug_29_1106,MusicAffectPsychophysiology2019,3.0.5,59.833412171796944,
,,30MonoWAV/30MonoH4.wav,2,2,1,8,,,,,0,10,10,7,,,,,,,,,,,,,,,091,001,2019_Aug_29_1106,MusicAffectPsychophysiology2019,3.0.5,59.833412171796944,
To what extent did the music make you feel ,ACTIVE,30MonoWAV/30MonoF2.wav,1,2,2,2,,,,,0,11,11,1,0,0,0,9,,,2,10.050077640014933,1,1.335680081974715,1,1.1690145790053066,1,1.6442034149949905,091,001,2019_Aug_29_1106,MusicAffectPsychophysiology2019,3.0.5,59.833412171796944,
To what extent did the music make you feel ,EXCITED,30MonoWAV/30MonoF2.wav,1,2,2,2,,,,,0,11,11,1,0,1,1,7,,,,,,,,,1,1.175902947987197,091,001,2019_Aug_29_1106,MusicAffectPsychophysiology2019,3.0.5,59.833412171796944,
To what extent did the music make you feel ,TENDER,30MonoWAV/30MonoF2.wav,1,2,2,2,,,,,0,11,11,1,0,2,2,10,,,,,,,,,1,0.9863327459897846,091,001,2019_Aug_29_1106,MusicAffectPsychophysiology2019,3.0.5,59.833412171796944,
To what extent did the music make you feel ,ANGRY,30MonoWAV/30MonoF2.wav,1,2,2,2,,,,,0,11,11,1,0,3,3,2,,,,,,,,,1,1.152195420989301,091,001,2019_Aug_29_1106,MusicAffectPsychophysiology2019,3.0.5,59.833412171796944,
To what extent did the music make you feel ,SAD,30MonoWAV/30MonoF2.wav,1,2,2,2,,,,,0,11,11,1,0,4,4,0,,,,,,,,,1,1.3865067650040146,091,001,2019_Aug_29_1106,MusicAffectPsychophysiology2019,3.0.5,59.833412171796944,
To what extent did the music make you feel ,GUILTY,30MonoWAV/30MonoF2.wav,1,2,2,2,,,,,0,11,11,1,0,5,5,5,,,,,,,,,1,1.2699824949959293,091,001,2019_Aug_29_1106,MusicAffectPsychophysiology2019,3.0.5,59.833412171796944,
To what extent did the music make you feel ,ALERT,30MonoWAV/30MonoF2.wav,1,2,2,2,,,,,0,11,11,1,0,6,6,8,,,,,,,,,3,1.6534880610124674,091,001,2019_Aug_29_1106,MusicAffectPsychophysiology2019,3.0.5,59.833412171796944,
To what extent did the music make you feel ,ANXIOUS ,30MonoWAV/30MonoF2.wav,1,2,2,2,,,,,0,11,11,1,0,7,7,1,,,,,,,,,4,1.6004247700038832,091,001,2019_Aug_29_1106,MusicAffectPsychophysiology2019,3.0.5,59.833412171796944,
To what extent did the music make you feel ,FRUSTRATED,30MonoWAV/30MonoF2.wav,1,2,2,2,,,,,0,11,11,1,0,8,8,3,,,,,,,,,1,1.068665967992274,091,001,2019_Aug_29_1106,MusicAffectPsychophysiology2019,3.0.5,59.833412171796944,
To what extent did the music make you feel ,HAPPY,30MonoWAV/30MonoF2.wav,1,2,2,2,,,,,0,11,11,1,0,9,9,6,,,,,,,,,1,0.9194249479915015,091,001,2019_Aug_29_1106,MusicAffectPsychophysiology2019,3.0.5,59.833412171796944,
To what extent did the music make you feel ,ASHAMED,30MonoWAV/30MonoF2.wav,1,2,2,2,,,,,0,11,11,1,0,10,10,4,,,,,,,,,1,1.169709277979564,091,001,2019_Aug_29_1106,MusicAffectPsychophysiology2019,3.0.5,59.833412171796944,
To what extent did the music make you feel ,SCARED,30MonoWAV/30MonoF2.wav,1,2,2,2,,,,,0,11,11,1,0,11,11,11,,,,,,,,,4,1.1994331249734387,091,001,2019_Aug_29_1106,MusicAffectPsychophysiology2019,3.0.5,59.833412171796944,
,,30MonoWAV/30MonoF2.wav,1,2,2,2,,,,,0,11,11,1,,,,,,,,,,,,,,,091,001,2019_Aug_29_1106,MusicAffectPsychophysiology2019,3.0.5,59.833412171796944,
To what extent did the music make you feel ,ANGRY,30MonoWAV/30MonoH2.wav,2,2,1,6,,,,,0,12,12,5,0,0,0,2,,,3,9.114956668985542,2,2.3186360520194285,2,1.3025423159997445,1,1.3174142170173582,091,001,2019_Aug_29_1106,MusicAffectPsychophysiology2019,3.0.5,59.833412171796944,
To what extent did the music make you feel ,EXCITED,30MonoWAV/30MonoH2.wav,2,2,1,6,,,,,0,12,12,5,0,1,1,7,,,,,,,,,3,1.086087817006046,091,001,2019_Aug_29_1106,MusicAffectPsychophysiology2019,3.0.5,59.833412171796944,
To what extent did the music make you feel ,FRUSTRATED,30MonoWAV/30MonoH2.wav,2,2,1,6,,,,,0,12,12,5,0,2,2,3,,,,,,,,,1,0.7350850419898052,091,001,2019_Aug_29_1106,MusicAffectPsychophysiology2019,3.0.5,59.833412171796944,
To what extent did the music make you feel ,ACTIVE,30MonoWAV/30MonoH2.wav,2,2,1,6,,,,,0,12,12,5,0,3,3,9,,,,,,,,,3,1.169730912981322,091,001,2019_Aug_29_1106,MusicAffectPsychophysiology2019,3.0.5,59.833412171796944,
To what extent did the music make you feel ,ALERT,30MonoWAV/30MonoH2.wav,2,2,1,6,,,,,0,12,12,5,0,4,4,8,,,,,,,,,3,1.086303460993804,091,001,2019_Aug_29_1106,MusicAffectPsychophysiology2019,3.0.5,59.833412171796944,
To what extent did the music make you feel ,HAPPY,30MonoWAV/30MonoH2.wav,2,2,1,6,,,,,0,12,12,5,0,5,5,6,,,,,,,,,3,1.3360194439883344,091,001,2019_Aug_29_1106,MusicAffectPsychophysiology2019,3.0.5,59.833412171796944,
To what extent did the music make you feel ,SCARED,30MonoWAV/30MonoH2.wav,2,2,1,6,,,,,0,12,12,5,0,6,6,11,,,,,,,,,1,1.3540343130007386,091,001,2019_Aug_29_1106,MusicAffectPsychophysiology2019,3.0.5,59.833412171796944,
To what extent did the music make you feel ,TENDER,30MonoWAV/30MonoH2.wav,2,2,1,6,,,,,0,12,12,5,0,7,7,10,,,,,,,,,1,2.3663033999910112,091,001,2019_Aug_29_1106,MusicAffectPsychophysiology2019,3.0.5,59.833412171796944,
To what extent did the music make you feel ,ANXIOUS ,30MonoWAV/30MonoH2.wav,2,2,1,6,,,,,0,12,12,5,0,8,8,1,,,,,,,,,1,0.9524891550245229,091,001,2019_Aug_29_1106,MusicAffectPsychophysiology2019,3.0.5,59.833412171796944,
To what extent did the music make you feel ,ASHAMED,30MonoWAV/30MonoH2.wav,2,2,1,6,,,,,0,12,12,5,0,9,9,4,,,,,,,,,1,1.0176603010040708,091,001,2019_Aug_29_1106,MusicAffectPsychophysiology2019,3.0.5,59.833412171796944,
To what extent did the music make you feel ,GUILTY,30MonoWAV/30MonoH2.wav,2,2,1,6,,,,,0,12,12,5,0,10,10,5,,,,,,,,,1,0.9692386850074399,091,001,2019_Aug_29_1106,MusicAffectPsychophysiology2019,3.0.5,59.833412171796944,
To what extent did the music make you feel ,SAD,30MonoWAV/30MonoH2.wav,2,2,1,6,,,,,0,12,12,5,0,11,11,0,,,,,,,,,1,1.368775437003933,091,001,2019_Aug_29_1106,MusicAffectPsychophysiology2019,3.0.5,59.833412171796944,
,,30MonoWAV/30MonoH2.wav,2,2,1,6,,,,,0,12,12,5,,,,,,,,,,,,,,,091,001,2019_Aug_29_1106,MusicAffectPsychophysiology2019,3.0.5,59.833412171796944,
To what extent did the music make you feel ,ACTIVE,30MonoWAV/30MonoH1.wav,2,2,1,5,,,,,0,13,13,4,0,0,0,9,,,3,5.301915410993388,3,2.536437301983824,3,1.5360725990030915,3,1.19623412299552,091,001,2019_Aug_29_1106,MusicAffectPsychophysiology2019,3.0.5,59.833412171796944,
To what extent did the music make you feel ,SAD,30MonoWAV/30MonoH1.wav,2,2,1,5,,,,,0,13,13,4,0,1,1,0,,,,,,,,,1,0.9018915740016382,091,001,2019_Aug_29_1106,MusicAffectPsychophysiology2019,3.0.5,59.833412171796944,
To what extent did the music make you feel ,HAPPY,30MonoWAV/30MonoH1.wav,2,2,1,5,,,,,0,13,13,4,0,2,2,6,,,,,,,,,3,0.9359483830048703,091,001,2019_Aug_29_1106,MusicAffectPsychophysiology2019,3.0.5,59.833412171796944,
To what extent did the music make you feel ,FRUSTRATED,30MonoWAV/30MonoH1.wav,2,2,1,5,,,,,0,13,13,4,0,3,3,3,,,,,,,,,1,0.7836179609876126,091,001,2019_Aug_29_1106,MusicAffectPsychophysiology2019,3.0.5,59.833412171796944,
To what extent did the music make you feel ,SCARED,30MonoWAV/30MonoH1.wav,2,2,1,5,,,,,0,13,13,4,0,4,4,11,,,,,,,,,1,0.9189598869998008,091,001,2019_Aug_29_1106,MusicAffectPsychophysiology2019,3.0.5,59.833412171796944,
To what extent did the music make you feel ,ANGRY,30MonoWAV/30MonoH1.wav,2,2,1,5,,,,,0,13,13,4,0,5,5,2,,,,,,,,,1,1.01881381199928,091,001,2019_Aug_29_1106,MusicAffectPsychophysiology2019,3.0.5,59.833412171796944,
To what extent did the music make you feel ,ALERT,30MonoWAV/30MonoH1.wav,2,2,1,5,,,,,0,13,13,4,0,6,6,8,,,,,,,,,3,1.0510009349964093,091,001,2019_Aug_29_1106,MusicAffectPsychophysiology2019,3.0.5,59.833412171796944,
To what extent did the music make you feel ,GUILTY,30MonoWAV/30MonoH1.wav,2,2,1,5,,,,,0,13,13,4,0,7,7,5,,,,,,,,,1,0.8866374319768511,091,001,2019_Aug_29_1106,MusicAffectPsychophysiology2019,3.0.5,59.833412171796944,
To what extent did the music make you feel ,ASHAMED,30MonoWAV/30MonoH1.wav,2,2,1,5,,,,,0,13,13,4,0,8,8,4,,,,,,,,,1,0.8533607429999392,091,001,2019_Aug_29_1106,MusicAffectPsychophysiology2019,3.0.5,59.833412171796944,
To what extent did the music make you feel ,TENDER,30MonoWAV/30MonoH1.wav,2,2,1,5,,,,,0,13,13,4,0,9,9,10,,,,,,,,,1,1.051818298001308,091,001,2019_Aug_29_1106,MusicAffectPsychophysiology2019,3.0.5,59.833412171796944,
To what extent did the music make you feel ,ANXIOUS ,30MonoWAV/30MonoH1.wav,2,2,1,5,,,,,0,13,13,4,0,10,10,1,,,,,,,,,1,1.152634522994049,091,001,2019_Aug_29_1106,MusicAffectPsychophysiology2019,3.0.5,59.833412171796944,
To what extent did the music make you feel ,EXCITED,30MonoWAV/30MonoH1.wav,2,2,1,5,,,,,0,13,13,4,0,11,11,7,,,,,,,,,3,1.2522157130006235,091,001,2019_Aug_29_1106,MusicAffectPsychophysiology2019,3.0.5,59.833412171796944,
,,30MonoWAV/30MonoH1.wav,2,2,1,5,,,,,0,13,13,4,,,,,,,,,,,,,,,091,001,2019_Aug_29_1106,MusicAffectPsychophysiology2019,3.0.5,59.833412171796944,
To what extent did the music make you feel ,ACTIVE,30MonoWAV/30MonoT2.wav,2,1,4,14,,,,,0,14,14,13,0,0,0,9,,,3,4.768889844010118,3,2.586083920992678,4,1.9357220189995132,2,1.938898774998961,091,001,2019_Aug_29_1106,MusicAffectPsychophysiology2019,3.0.5,59.833412171796944,
To what extent did the music make you feel ,HAPPY,30MonoWAV/30MonoT2.wav,2,1,4,14,,,,,0,14,14,13,0,1,1,6,,,,,,,,,2,1.5348751429992262,091,001,2019_Aug_29_1106,MusicAffectPsychophysiology2019,3.0.5,59.833412171796944,
To what extent did the music make you feel ,GUILTY,30MonoWAV/30MonoT2.wav,2,1,4,14,,,,,0,14,14,13,0,2,2,5,,,,,,,,,2,2.2849606290110387,091,001,2019_Aug_29_1106,MusicAffectPsychophysiology2019,3.0.5,59.833412171796944,
To what extent did the music make you feel ,FRUSTRATED,30MonoWAV/30MonoT2.wav,2,1,4,14,,,,,0,14,14,13,0,3,3,3,,,,,,,,,1,0.9353953789977822,091,001,2019_Aug_29_1106,MusicAffectPsychophysiology2019,3.0.5,59.833412171796944,
To what extent did the music make you feel ,TENDER,30MonoWAV/30MonoT2.wav,2,1,4,14,,,,,0,14,14,13,0,4,4,10,,,,,,,,,4,1.8195343599945772,091,001,2019_Aug_29_1106,MusicAffectPsychophysiology2019,3.0.5,59.833412171796944,
To what extent did the music make you feel ,SAD,30MonoWAV/30MonoT2.wav,2,1,4,14,,,,,0,14,14,13,0,5,5,0,,,,,,,,,2,1.3858488849946298,091,001,2019_Aug_29_1106,MusicAffectPsychophysiology2019,3.0.5,59.833412171796944,
To what extent did the music make you feel ,ANGRY,30MonoWAV/30MonoT2.wav,2,1,4,14,,,,,0,14,14,13,0,6,6,2,,,,,,,,,1,1.5503177450154908,091,001,2019_Aug_29_1106,MusicAffectPsychophysiology2019,3.0.5,59.833412171796944,
To what extent did the music make you feel ,ASHAMED,30MonoWAV/30MonoT2.wav,2,1,4,14,,,,,0,14,14,13,0,7,7,4,,,,,,,,,1,1.1024936249887105,091,001,2019_Aug_29_1106,MusicAffectPsychophysiology2019,3.0.5,59.833412171796944,
To what extent did the music make you feel ,SCARED,30MonoWAV/30MonoT2.wav,2,1,4,14,,,,,0,14,14,13,0,8,8,11,,,,,,,,,1,0.835430017003091,091,001,2019_Aug_29_1106,MusicAffectPsychophysiology2019,3.0.5,59.833412171796944,
To what extent did the music make you feel ,ANXIOUS ,30MonoWAV/30MonoT2.wav,2,1,4,14,,,,,0,14,14,13,0,9,9,1,,,,,,,,,1,0.8023006920120679,091,001,2019_Aug_29_1106,MusicAffectPsychophysiology2019,3.0.5,59.833412171796944,
To what extent did the music make you feel ,EXCITED,30MonoWAV/30MonoT2.wav,2,1,4,14,,,,,0,14,14,13,0,10,10,7,,,,,,,,,3,3.2339336379955057,091,001,2019_Aug_29_1106,MusicAffectPsychophysiology2019,3.0.5,59.833412171796944,
To what extent did the music make you feel ,ALERT,30MonoWAV/30MonoT2.wav,2,1,4,14,,,,,0,14,14,13,0,11,11,8,,,,,,,,,2,2.150563414004864,091,001,2019_Aug_29_1106,MusicAffectPsychophysiology2019,3.0.5,59.833412171796944,
,,30MonoWAV/30MonoT2.wav,2,1,4,14,,,,,0,14,14,13,,,,,,,,,,,,,,,091,001,2019_Aug_29_1106,MusicAffectPsychophysiology2019,3.0.5,59.833412171796944,
To what extent did the music make you feel ,HAPPY,30MonoWAV/30MonoT3.wav,2,1,4,15,,,,,0,15,15,14,0,0,0,6,,,2,2.78564347900101,2,2.734934328997042,3,1.5521141859935597,2,1.5494068690168206,091,001,2019_Aug_29_1106,MusicAffectPsychophysiology2019,3.0.5,59.833412171796944,
To what extent did the music make you feel ,GUILTY,30MonoWAV/30MonoT3.wav,2,1,4,15,,,,,0,15,15,14,0,1,1,5,,,,,,,,,1,0.7197474190033972,091,001,2019_Aug_29_1106,MusicAffectPsychophysiology2019,3.0.5,59.833412171796944,
To what extent did the music make you feel ,ACTIVE,30MonoWAV/30MonoT3.wav,2,1,4,15,,,,,0,15,15,14,0,2,2,9,,,,,,,,,1,1.3028696789988317,091,001,2019_Aug_29_1106,MusicAffectPsychophysiology2019,3.0.5,59.833412171796944,
To what extent did the music make you feel ,SAD,30MonoWAV/30MonoT3.wav,2,1,4,15,,,,,0,15,15,14,0,3,3,0,,,,,,,,,1,1.1364457470190246,091,001,2019_Aug_29_1106,MusicAffectPsychophysiology2019,3.0.5,59.833412171796944,
To what extent did the music make you feel ,FRUSTRATED,30MonoWAV/30MonoT3.wav,2,1,4,15,,,,,0,15,15,14,0,4,4,3,,,,,,,,,1,1.1147517249919474,091,001,2019_Aug_29_1106,MusicAffectPsychophysiology2019,3.0.5,59.833412171796944,
To what extent did the music make you feel ,ALERT,30MonoWAV/30MonoT3.wav,2,1,4,15,,,,,0,15,15,14,0,5,5,8,,,,,,,,,1,1.2022624170058407,091,001,2019_Aug_29_1106,MusicAffectPsychophysiology2019,3.0.5,59.833412171796944,
To what extent did the music make you feel ,TENDER,30MonoWAV/30MonoT3.wav,2,1,4,15,,,,,0,15,15,14,0,6,6,10,,,,,,,,,2,1.386139970010845,091,001,2019_Aug_29_1106,MusicAffectPsychophysiology2019,3.0.5,59.833412171796944,
To what extent did the music make you feel ,ANXIOUS ,30MonoWAV/30MonoT3.wav,2,1,4,15,,,,,0,15,15,14,0,7,7,1,,,,,,,,,1,0.7195210909994785,091,001,2019_Aug_29_1106,MusicAffectPsychophysiology2019,3.0.5,59.833412171796944,
To what extent did the music make you feel ,ASHAMED,30MonoWAV/30MonoT3.wav,2,1,4,15,,,,,0,15,15,14,0,8,8,4,,,,,,,,,1,1.7528088009858038,091,001,2019_Aug_29_1106,MusicAffectPsychophysiology2019,3.0.5,59.833412171796944,
To what extent did the music make you feel ,SCARED,30MonoWAV/30MonoT3.wav,2,1,4,15,,,,,0,15,15,14,0,9,9,11,,,,,,,,,1,1.052880795992678,091,001,2019_Aug_29_1106,MusicAffectPsychophysiology2019,3.0.5,59.833412171796944,
To what extent did the music make you feel ,ANGRY,30MonoWAV/30MonoT3.wav,2,1,4,15,,,,,0,15,15,14,0,10,10,2,,,,,,,,,1,0.8698104539944325,091,001,2019_Aug_29_1106,MusicAffectPsychophysiology2019,3.0.5,59.833412171796944,
To what extent did the music make you feel ,EXCITED,30MonoWAV/30MonoT3.wav,2,1,4,15,,,,,0,15,15,14,0,11,11,7,,,,,,,,,1,2.217141454020748,091,001,2019_Aug_29_1106,MusicAffectPsychophysiology2019,3.0.5,59.833412171796944,
,,30MonoWAV/30MonoT3.wav,2,1,4,15,,,,,0,15,15,14,,,,,,,,,,,,,,,091,001,2019_Aug_29_1106,MusicAffectPsychophysiology2019,3.0.5,59.833412171796944,
To what extent did the music make you feel ,ALERT,30MonoWAV/30MonoT1.wav,2,1,4,13,,,,,1,0,16,12,0,0,0,8,,,2,2.685518893005792,3,1.8518667420139536,2,1.3695523880014662,2,1.6745143709995318,091,001,2019_Aug_29_1106,MusicAffectPsychophysiology2019,3.0.5,59.833412171796944,
To what extent did the music make you feel ,HAPPY,30MonoWAV/30MonoT1.wav,2,1,4,13,,,,,1,0,16,12,0,1,1,6,,,,,,,,,2,1.483312238007784,091,001,2019_Aug_29_1106,MusicAffectPsychophysiology2019,3.0.5,59.833412171796944,
To what extent did the music make you feel ,GUILTY,30MonoWAV/30MonoT1.wav,2,1,4,13,,,,,1,0,16,12,0,2,2,5,,,,,,,,,1,0.6512219239957631,091,001,2019_Aug_29_1106,MusicAffectPsychophysiology2019,3.0.5,59.833412171796944,
To what extent did the music make you feel ,SCARED,30MonoWAV/30MonoT1.wav,2,1,4,13,,,,,1,0,16,12,0,3,3,11,,,,,,,,,1,0.7192281989846379,091,001,2019_Aug_29_1106,MusicAffectPsychophysiology2019,3.0.5,59.833412171796944,
To what extent did the music make you feel ,ANGRY,30MonoWAV/30MonoT1.wav,2,1,4,13,,,,,1,0,16,12,0,4,4,2,,,,,,,,,1,0.8035738110193051,091,001,2019_Aug_29_1106,MusicAffectPsychophysiology2019,3.0.5,59.833412171796944,
To what extent did the music make you feel ,TENDER,30MonoWAV/30MonoT1.wav,2,1,4,13,,,,,1,0,16,12,0,5,5,10,,,,,,,,,1,0.8696381170011591,091,001,2019_Aug_29_1106,MusicAffectPsychophysiology2019,3.0.5,59.833412171796944,
To what extent did the music make you feel ,ASHAMED,30MonoWAV/30MonoT1.wav,2,1,4,13,,,,,1,0,16,12,0,6,6,4,,,,,,,,,1,1.3688635859871283,091,001,2019_Aug_29_1106,MusicAffectPsychophysiology2019,3.0.5,59.833412171796944,
To what extent did the music make you feel ,ANXIOUS ,30MonoWAV/30MonoT1.wav,2,1,4,13,,,,,1,0,16,12,0,7,7,1,,,,,,,,,1,0.9000817129854113,091,001,2019_Aug_29_1106,MusicAffectPsychophysiology2019,3.0.5,59.833412171796944,
To what extent did the music make you feel ,FRUSTRATED,30MonoWAV/30MonoT1.wav,2,1,4,13,,,,,1,0,16,12,0,8,8,3,,,,,,,,,1,0.9669132290000562,091,001,2019_Aug_29_1106,MusicAffectPsychophysiology2019,3.0.5,59.833412171796944,
To what extent did the music make you feel ,SAD,30MonoWAV/30MonoT1.wav,2,1,4,13,,,,,1,0,16,12,0,9,9,0,,,,,,,,,1,3.1025251550017856,091,001,2019_Aug_29_1106,MusicAffectPsychophysiology2019,3.0.5,59.833412171796944,
To what extent did the music make you feel ,ACTIVE,30MonoWAV/30MonoT1.wav,2,1,4,13,,,,,1,0,16,12,0,10,10,9,,,,,,,,,2,1.1687068910105154,091,001,2019_Aug_29_1106,MusicAffectPsychophysiology2019,3.0.5,59.833412171796944,
To what extent did the music make you feel ,EXCITED,30MonoWAV/30MonoT1.wav,2,1,4,13,,,,,1,0,16,12,0,11,11,7,,,,,,,,,2,3.217824929015478,091,001,2019_Aug_29_1106,MusicAffectPsychophysiology2019,3.0.5,59.833412171796944,
,,30MonoWAV/30MonoT1.wav,2,1,4,13,,,,,1,0,16,12,,,,,,,,,,,,,,,091,001,2019_Aug_29_1106,MusicAffectPsychophysiology2019,3.0.5,59.833412171796944,
To what extent did the music make you feel ,GUILTY,30MonoWAV/30MonoH2.wav,2,2,1,6,,,,,1,1,17,5,0,0,0,5,,,2,3.4033140249957796,3,5.417980102007277,3,1.3361621990043204,1,1.0185120710229967,091,001,2019_Aug_29_1106,MusicAffectPsychophysiology2019,3.0.5,59.833412171796944,
To what extent did the music make you feel ,EXCITED,30MonoWAV/30MonoH2.wav,2,2,1,6,,,,,1,1,17,5,0,1,1,7,,,,,,,,,3,0.869726086006267,091,001,2019_Aug_29_1106,MusicAffectPsychophysiology2019,3.0.5,59.833412171796944,
To what extent did the music make you feel ,ASHAMED,30MonoWAV/30MonoH2.wav,2,2,1,6,,,,,1,1,17,5,0,2,2,4,,,,,,,,,1,0.8185229630034883,091,001,2019_Aug_29_1106,MusicAffectPsychophysiology2019,3.0.5,59.833412171796944,
To what extent did the music make you feel ,SCARED,30MonoWAV/30MonoH2.wav,2,2,1,6,,,,,1,1,17,5,0,3,3,11,,,,,,,,,1,0.8666876659845002,091,001,2019_Aug_29_1106,MusicAffectPsychophysiology2019,3.0.5,59.833412171796944,
To what extent did the music make you feel ,TENDER,30MonoWAV/30MonoH2.wav,2,2,1,6,,,,,1,1,17,5,0,4,4,10,,,,,,,,,1,1.3186763760168105,091,001,2019_Aug_29_1106,MusicAffectPsychophysiology2019,3.0.5,59.833412171796944,
To what extent did the music make you feel ,HAPPY,30MonoWAV/30MonoH2.wav,2,2,1,6,,,,,1,1,17,5,0,5,5,6,,,,,,,,,3,1.5183142159949057,091,001,2019_Aug_29_1106,MusicAffectPsychophysiology2019,3.0.5,59.833412171796944,
To what extent did the music make you feel ,ALERT,30MonoWAV/30MonoH2.wav,2,2,1,6,,,,,1,1,17,5,0,6,6,8,,,,,,,,,3,1.2028000800055452,091,001,2019_Aug_29_1106,MusicAffectPsychophysiology2019,3.0.5,59.833412171796944,
To what extent did the music make you feel ,ANXIOUS ,30MonoWAV/30MonoH2.wav,2,2,1,6,,,,,1,1,17,5,0,7,7,1,,,,,,,,,1,0.7354854659934063,091,001,2019_Aug_29_1106,MusicAffectPsychophysiology2019,3.0.5,59.833412171796944,
To what extent did the music make you feel ,SAD,30MonoWAV/30MonoH2.wav,2,2,1,6,,,,,1,1,17,5,0,8,8,0,,,,,,,,,1,0.8523451410001144,091,001,2019_Aug_29_1106,MusicAffectPsychophysiology2019,3.0.5,59.833412171796944,
To what extent did the music make you feel ,ACTIVE,30MonoWAV/30MonoH2.wav,2,2,1,6,,,,,1,1,17,5,0,9,9,9,,,,,,,,,3,1.2187399700051174,091,001,2019_Aug_29_1106,MusicAffectPsychophysiology2019,3.0.5,59.833412171796944,
To what extent did the music make you feel ,FRUSTRATED,30MonoWAV/30MonoH2.wav,2,2,1,6,,,,,1,1,17,5,0,10,10,3,,,,,,,,,1,2.6700356350047514,091,001,2019_Aug_29_1106,MusicAffectPsychophysiology2019,3.0.5,59.833412171796944,
To what extent did the music make you feel ,ANGRY,30MonoWAV/30MonoH2.wav,2,2,1,6,,,,,1,1,17,5,0,11,11,2,,,,,,,,,1,1.0191306699998677,091,001,2019_Aug_29_1106,MusicAffectPsychophysiology2019,3.0.5,59.833412171796944,
,,30MonoWAV/30MonoH2.wav,2,2,1,6,,,,,1,1,17,5,,,,,,,,,,,,,,,091,001,2019_Aug_29_1106,MusicAffectPsychophysiology2019,3.0.5,59.833412171796944,
To what extent did the music make you feel ,FRUSTRATED,30MonoWAV/30MonoT2.wav,2,1,4,14,,,,,1,2,18,13,0,0,0,3,,,3,5.65166153901373,3,2.11887498802389,3,1.2529054710175842,1,3.2103487769782078,091,001,2019_Aug_29_1106,MusicAffectPsychophysiology2019,3.0.5,59.833412171796944,
To what extent did the music make you feel ,ANXIOUS ,30MonoWAV/30MonoT2.wav,2,1,4,14,,,,,1,2,18,13,0,1,1,1,,,,,,,,,1,0.8356542469991837,091,001,2019_Aug_29_1106,MusicAffectPsychophysiology2019,3.0.5,59.833412171796944,
To what extent did the music make you feel ,ALERT,30MonoWAV/30MonoT2.wav,2,1,4,14,,,,,1,2,18,13,0,2,2,8,,,,,,,,,2,1.352903821010841,091,001,2019_Aug_29_1106,MusicAffectPsychophysiology2019,3.0.5,59.833412171796944,
To what extent did the music make you feel ,HAPPY,30MonoWAV/30MonoT2.wav,2,1,4,14,,,,,1,2,18,13,0,3,3,6,,,,,,,,,3,0.8697743780212477,091,001,2019_Aug_29_1106,MusicAffectPsychophysiology2019,3.0.5,59.833412171796944,
To what extent did the music make you feel ,ASHAMED,30MonoWAV/30MonoT2.wav,2,1,4,14,,,,,1,2,18,13,0,4,4,4,,,,,,,,,1,0.8191384880046826,091,001,2019_Aug_29_1106,MusicAffectPsychophysiology2019,3.0.5,59.833412171796944,
To what extent did the music make you feel ,TENDER,30MonoWAV/30MonoT2.wav,2,1,4,14,,,,,1,2,18,13,0,5,5,10,,,,,,,,,2,1.0022423140180763,091,001,2019_Aug_29_1106,MusicAffectPsychophysiology2019,3.0.5,59.833412171796944,
To what extent did the music make you feel ,ANGRY,30MonoWAV/30MonoT2.wav,2,1,4,14,,,,,1,2,18,13,0,6,6,2,,,,,,,,,1,0.8020076309912838,091,001,2019_Aug_29_1106,MusicAffectPsychophysiology2019,3.0.5,59.833412171796944,
To what extent did the music make you feel ,SCARED,30MonoWAV/30MonoT2.wav,2,1,4,14,,,,,1,2,18,13,0,7,7,11,,,,,,,,,1,1.369678474002285,091,001,2019_Aug_29_1106,MusicAffectPsychophysiology2019,3.0.5,59.833412171796944,
To what extent did the music make you feel ,EXCITED,30MonoWAV/30MonoT2.wav,2,1,4,14,,,,,1,2,18,13,0,8,8,7,,,,,,,,,3,1.6025314340076875,091,001,2019_Aug_29_1106,MusicAffectPsychophysiology2019,3.0.5,59.833412171796944,
To what extent did the music make you feel ,GUILTY,30MonoWAV/30MonoT2.wav,2,1,4,14,,,,,1,2,18,13,0,9,9,5,,,,,,,,,1,0.6026896629773546,091,001,2019_Aug_29_1106,MusicAffectPsychophysiology2019,3.0.5,59.833412171796944,
To what extent did the music make you feel ,ACTIVE,30MonoWAV/30MonoT2.wav,2,1,4,14,,,,,1,2,18,13,0,10,10,9,,,,,,,,,3,1.0354800620116293,091,001,2019_Aug_29_1106,MusicAffectPsychophysiology2019,3.0.5,59.833412171796944,
To what extent did the music make you feel ,SAD,30MonoWAV/30MonoT2.wav,2,1,4,14,,,,,1,2,18,13,0,11,11,0,,,,,,,,,2,2.7338627190038096,091,001,2019_Aug_29_1106,MusicAffectPsychophysiology2019,3.0.5,59.833412171796944,
,,30MonoWAV/30MonoT2.wav,2,1,4,14,,,,,1,2,18,13,,,,,,,,,,,,,,,091,001,2019_Aug_29_1106,MusicAffectPsychophysiology2019,3.0.5,59.833412171796944,
To what extent did the music make you feel ,GUILTY,30MonoWAV/30MonoH3.wav,2,2,1,7,,,,,1,3,19,6,0,0,0,5,,,4,4.618305268988479,3,4.020462938991841,3,1.767759553011274,1,0.9524468210001942,091,001,2019_Aug_29_1106,MusicAffectPsychophysiology2019,3.0.5,59.833412171796944,
To what extent did the music make you feel ,ACTIVE,30MonoWAV/30MonoH3.wav,2,2,1,7,,,,,1,3,19,6,0,1,1,9,,,,,,,,,3,1.0027277529879939,091,001,2019_Aug_29_1106,MusicAffectPsychophysiology2019,3.0.5,59.833412171796944,
To what extent did the music make you feel ,SAD,30MonoWAV/30MonoH3.wav,2,2,1,7,,,,,1,3,19,6,0,2,2,0,,,,,,,,,1,2.0353673929930665,091,001,2019_Aug_29_1106,MusicAffectPsychophysiology2019,3.0.5,59.833412171796944,
To what extent did the music make you feel ,HAPPY,30MonoWAV/30MonoH3.wav,2,2,1,7,,,,,1,3,19,6,0,3,3,6,,,,,,,,,4,2.402545632998226,091,001,2019_Aug_29_1106,MusicAffectPsychophysiology2019,3.0.5,59.833412171796944,
To what extent did the music make you feel ,ASHAMED,30MonoWAV/30MonoH3.wav,2,2,1,7,,,,,1,3,19,6,0,4,4,4,,,,,,,,,1,0.6023378339887131,091,001,2019_Aug_29_1106,MusicAffectPsychophysiology2019,3.0.5,59.833412171796944,
To what extent did the music make you feel ,ALERT,30MonoWAV/30MonoH3.wav,2,2,1,7,,,,,1,3,19,6,0,5,5,8,,,,,,,,,4,2.3021620550134685,091,001,2019_Aug_29_1106,MusicAffectPsychophysiology2019,3.0.5,59.833412171796944,
To what extent did the music make you feel ,EXCITED,30MonoWAV/30MonoH3.wav,2,2,1,7,,,,,1,3,19,6,0,6,6,7,,,,,,,,,5,1.1527607610041741,091,001,2019_Aug_29_1106,MusicAffectPsychophysiology2019,3.0.5,59.833412171796944,
To what extent did the music make you feel ,ANXIOUS ,30MonoWAV/30MonoH3.wav,2,2,1,7,,,,,1,3,19,6,0,7,7,1,,,,,,,,,1,1.565948875999311,091,001,2019_Aug_29_1106,MusicAffectPsychophysiology2019,3.0.5,59.833412171796944,
To what extent did the music make you feel ,SCARED,30MonoWAV/30MonoH3.wav,2,2,1,7,,,,,1,3,19,6,0,8,8,11,,,,,,,,,1,0.8180038069840521,091,001,2019_Aug_29_1106,MusicAffectPsychophysiology2019,3.0.5,59.833412171796944,
To what extent did the music make you feel ,ANGRY,30MonoWAV/30MonoH3.wav,2,2,1,7,,,,,1,3,19,6,0,9,9,2,,,,,,,,,1,0.7664860310032964,091,001,2019_Aug_29_1106,MusicAffectPsychophysiology2019,3.0.5,59.833412171796944,
To what extent did the music make you feel ,FRUSTRATED,30MonoWAV/30MonoH3.wav,2,2,1,7,,,,,1,3,19,6,0,10,10,3,,,,,,,,,1,0.8000898470054381,091,001,2019_Aug_29_1106,MusicAffectPsychophysiology2019,3.0.5,59.833412171796944,
To what extent did the music make you feel ,TENDER,30MonoWAV/30MonoH3.wav,2,2,1,7,,,,,1,3,19,6,0,11,11,10,,,,,,,,,1,1.1030507709947415,091,001,2019_Aug_29_1106,MusicAffectPsychophysiology2019,3.0.5,59.833412171796944,
,,30MonoWAV/30MonoH3.wav,2,2,1,7,,,,,1,3,19,6,,,,,,,,,,,,,,,091,001,2019_Aug_29_1106,MusicAffectPsychophysiology2019,3.0.5,59.833412171796944,
To what extent did the music make you feel ,TENDER,30MonoWAV/30MonoF3.wav,1,2,2,3,,,,,1,4,20,2,0,0,0,10,,,3,4.733122537989402,3,2.535663843009388,2,2.568147340003634,1,2.1200785820255987,091,001,2019_Aug_29_1106,MusicAffectPsychophysiology2019,3.0.5,59.833412171796944,
To what extent did the music make you feel ,FRUSTRATED,30MonoWAV/30MonoF3.wav,1,2,2,3,,,,,1,4,20,2,0,1,1,3,,,,,,,,,1,1.019793193001533,091,001,2019_Aug_29_1106,MusicAffectPsychophysiology2019,3.0.5,59.833412171796944,
To what extent did the music make you feel ,GUILTY,30MonoWAV/30MonoF3.wav,1,2,2,3,,,,,1,4,20,2,0,2,2,5,,,,,,,,,1,1.3860606099769939,091,001,2019_Aug_29_1106,MusicAffectPsychophysiology2019,3.0.5,59.833412171796944,
To what extent did the music make you feel ,SCARED,30MonoWAV/30MonoF3.wav,1,2,2,3,,,,,1,4,20,2,0,3,3,11,,,,,,,,,3,1.2191668660088908,091,001,2019_Aug_29_1106,MusicAffectPsychophysiology2019,3.0.5,59.833412171796944,
To what extent did the music make you feel ,EXCITED,30MonoWAV/30MonoF3.wav,1,2,2,3,,,,,1,4,20,2,0,4,4,7,,,,,,,,,1,1.5698395300132688,091,001,2019_Aug_29_1106,MusicAffectPsychophysiology2019,3.0.5,59.833412171796944,
To what extent did the music make you feel ,HAPPY,30MonoWAV/30MonoF3.wav,1,2,2,3,,,,,1,4,20,2,0,5,5,6,,,,,,,,,1,1.5524866259947885,091,001,2019_Aug_29_1106,MusicAffectPsychophysiology2019,3.0.5,59.833412171796944,
To what extent did the music make you feel ,ALERT,30MonoWAV/30MonoF3.wav,1,2,2,3,,,,,1,4,20,2,0,6,6,8,,,,,,,,,4,1.4694590419821907,091,001,2019_Aug_29_1106,MusicAffectPsychophysiology2019,3.0.5,59.833412171796944,
To what extent did the music make you feel ,ASHAMED,30MonoWAV/30MonoF3.wav,1,2,2,3,,,,,1,4,20,2,0,7,7,4,,,,,,,,,1,0.9525581159978174,091,001,2019_Aug_29_1106,MusicAffectPsychophysiology2019,3.0.5,59.833412171796944,
To what extent did the music make you feel ,ACTIVE,30MonoWAV/30MonoF3.wav,1,2,2,3,,,,,1,4,20,2,0,8,8,9,,,,,,,,,1,1.3529700479994062,091,001,2019_Aug_29_1106,MusicAffectPsychophysiology2019,3.0.5,59.833412171796944,
To what extent did the music make you feel ,SAD,30MonoWAV/30MonoF3.wav,1,2,2,3,,,,,1,4,20,2,0,9,9,0,,,,,,,,,1,0.901780417014379,091,001,2019_Aug_29_1106,MusicAffectPsychophysiology2019,3.0.5,59.833412171796944,
To what extent did the music make you feel ,ANXIOUS ,30MonoWAV/30MonoF3.wav,1,2,2,3,,,,,1,4,20,2,0,10,10,1,,,,,,,,,3,1.4520280519791413,091,001,2019_Aug_29_1106,MusicAffectPsychophysiology2019,3.0.5,59.833412171796944,
To what extent did the music make you feel ,ANGRY,30MonoWAV/30MonoF3.wav,1,2,2,3,,,,,1,4,20,2,0,11,11,2,,,,,,,,,1,1.0527309099852573,091,001,2019_Aug_29_1106,MusicAffectPsychophysiology2019,3.0.5,59.833412171796944,
,,30MonoWAV/30MonoF3.wav,1,2,2,3,,,,,1,4,20,2,,,,,,,,,,,,,,,091,001,2019_Aug_29_1106,MusicAffectPsychophysiology2019,3.0.5,59.833412171796944,
To what extent did the music make you feel ,EXCITED,30MonoWAV/30MonoS4.wav,1,1,3,12,,,,,1,5,21,11,0,0,0,7,,,1,3.8356689999927767,1,1.9533199339930434,2,1.2344641360105015,1,6.455535561020952,091,001,2019_Aug_29_1106,MusicAffectPsychophysiology2019,3.0.5,59.833412171796944,
To what extent did the music make you feel ,FRUSTRATED,30MonoWAV/30MonoS4.wav,1,1,3,12,,,,,1,5,21,11,0,1,1,3,,,,,,,,,1,0.789214901975356,091,001,2019_Aug_29_1106,MusicAffectPsychophysiology2019,3.0.5,59.833412171796944,
To what extent did the music make you feel ,HAPPY,30MonoWAV/30MonoS4.wav,1,1,3,12,,,,,1,5,21,11,0,2,2,6,,,,,,,,,1,1.2504402659833431,091,001,2019_Aug_29_1106,MusicAffectPsychophysiology2019,3.0.5,59.833412171796944,
To what extent did the music make you feel ,ANXIOUS ,30MonoWAV/30MonoS4.wav,1,1,3,12,,,,,1,5,21,11,0,3,3,1,,,,,,,,,1,0.9027679889986757,091,001,2019_Aug_29_1106,MusicAffectPsychophysiology2019,3.0.5,59.833412171796944,
To what extent did the music make you feel ,GUILTY,30MonoWAV/30MonoS4.wav,1,1,3,12,,,,,1,5,21,11,0,4,4,5,,,,,,,,,2,2.4353231139830314,091,001,2019_Aug_29_1106,MusicAffectPsychophysiology2019,3.0.5,59.833412171796944,
To what extent did the music make you feel ,SAD,30MonoWAV/30MonoS4.wav,1,1,3,12,,,,,1,5,21,11,0,5,5,0,,,,,,,,,4,1.3694902639836073,091,001,2019_Aug_29_1106,MusicAffectPsychophysiology2019,3.0.5,59.833412171796944,
To what extent did the music make you feel ,ANGRY,30MonoWAV/30MonoS4.wav,1,1,3,12,,,,,1,5,21,11,0,6,6,2,,,,,,,,,1,1.1013859609956853,091,001,2019_Aug_29_1106,MusicAffectPsychophysiology2019,3.0.5,59.833412171796944,
To what extent did the music make you feel ,ASHAMED,30MonoWAV/30MonoS4.wav,1,1,3,12,,,,,1,5,21,11,0,7,7,4,,,,,,,,,2,0.8677526430110447,091,001,2019_Aug_29_1106,MusicAffectPsychophysiology2019,3.0.5,59.833412171796944,
To what extent did the music make you feel ,ACTIVE,30MonoWAV/30MonoS4.wav,1,1,3,12,,,,,1,5,21,11,0,8,8,9,,,,,,,,,1,0.8687370950065088,091,001,2019_Aug_29_1106,MusicAffectPsychophysiology2019,3.0.5,59.833412171796944,
To what extent did the music make you feel ,ALERT,30MonoWAV/30MonoS4.wav,1,1,3,12,,,,,1,5,21,11,0,9,9,8,,,,,,,,,1,1.0533763739804272,091,001,2019_Aug_29_1106,MusicAffectPsychophysiology2019,3.0.5,59.833412171796944,
To what extent did the music make you feel ,SCARED,30MonoWAV/30MonoS4.wav,1,1,3,12,,,,,1,5,21,11,0,10,10,11,,,,,,,,,1,1.169359210995026,091,001,2019_Aug_29_1106,MusicAffectPsychophysiology2019,3.0.5,59.833412171796944,
To what extent did the music make you feel ,TENDER,30MonoWAV/30MonoS4.wav,1,1,3,12,,,,,1,5,21,11,0,11,11,10,,,,,,,,,4,1.117155490006553,091,001,2019_Aug_29_1106,MusicAffectPsychophysiology2019,3.0.5,59.833412171796944,
,,30MonoWAV/30MonoS4.wav,1,1,3,12,,,,,1,5,21,11,,,,,,,,,,,,,,,091,001,2019_Aug_29_1106,MusicAffectPsychophysiology2019,3.0.5,59.833412171796944,
To what extent did the music make you feel ,EXCITED,30MonoWAV/30MonoT3.wav,2,1,4,15,,,,,1,6,22,14,0,0,0,7,,,1,2.584639148990391,2,2.4190947269962635,2,1.2194150860013906,1,3.58244698800263,091,001,2019_Aug_29_1106,MusicAffectPsychophysiology2019,3.0.5,59.833412171796944,
To what extent did the music make you feel ,ANXIOUS ,30MonoWAV/30MonoT3.wav,2,1,4,15,,,,,1,6,22,14,0,1,1,1,,,,,,,,,1,1.2017624549916945,091,001,2019_Aug_29_1106,MusicAffectPsychophysiology2019,3.0.5,59.833412171796944,
To what extent did the music make you feel ,GUILTY,30MonoWAV/30MonoT3.wav,2,1,4,15,,,,,1,6,22,14,0,2,2,5,,,,,,,,,1,1.2535906409902964,091,001,2019_Aug_29_1106,MusicAffectPsychophysiology2019,3.0.5,59.833412171796944,
To what extent did the music make you feel ,ALERT,30MonoWAV/30MonoT3.wav,2,1,4,15,,,,,1,6,22,14,0,3,3,8,,,,,,,,,2,1.636427310993895,091,001,2019_Aug_29_1106,MusicAffectPsychophysiology2019,3.0.5,59.833412171796944,
To what extent did the music make you feel ,SAD,30MonoWAV/30MonoT3.wav,2,1,4,15,,,,,1,6,22,14,0,4,4,0,,,,,,,,,2,1.533388306008419,091,001,2019_Aug_29_1106,MusicAffectPsychophysiology2019,3.0.5,59.833412171796944,
To what extent did the music make you feel ,SCARED,30MonoWAV/30MonoT3.wav,2,1,4,15,,,,,1,6,22,14,0,5,5,11,,,,,,,,,1,1.6015415589790791,091,001,2019_Aug_29_1106,MusicAffectPsychophysiology2019,3.0.5,59.833412171796944,
To what extent did the music make you feel ,ANGRY,30MonoWAV/30MonoT3.wav,2,1,4,15,,,,,1,6,22,14,0,6,6,2,,,,,,,,,1,0.8857510410016403,091,001,2019_Aug_29_1106,MusicAffectPsychophysiology2019,3.0.5,59.833412171796944,
To what extent did the music make you feel ,FRUSTRATED,30MonoWAV/30MonoT3.wav,2,1,4,15,,,,,1,6,22,14,0,7,7,3,,,,,,,,,1,0.04579231998650357,091,001,2019_Aug_29_1106,MusicAffectPsychophysiology2019,3.0.5,59.833412171796944,
To what extent did the music make you feel ,HAPPY,30MonoWAV/30MonoT3.wav,2,1,4,15,,,,,1,6,22,14,0,8,8,6,,,,,,,,,2,6.535958675987786,091,001,2019_Aug_29_1106,MusicAffectPsychophysiology2019,3.0.5,59.833412171796944,
To what extent did the music make you feel ,ASHAMED,30MonoWAV/30MonoT3.wav,2,1,4,15,,,,,1,6,22,14,0,9,9,4,,,,,,,,,1,1.2681517990131397,091,001,2019_Aug_29_1106,MusicAffectPsychophysiology2019,3.0.5,59.833412171796944,
To what extent did the music make you feel ,ACTIVE,30MonoWAV/30MonoT3.wav,2,1,4,15,,,,,1,6,22,14,0,10,10,9,,,,,,,,,2,1.4698466850095429,091,001,2019_Aug_29_1106,MusicAffectPsychophysiology2019,3.0.5,59.833412171796944,
To what extent did the music make you feel ,TENDER,30MonoWAV/30MonoT3.wav,2,1,4,15,,,,,1,6,22,14,0,11,11,10,,,,,,,,,2,2.88493365701288,091,001,2019_Aug_29_1106,MusicAffectPsychophysiology2019,3.0.5,59.833412171796944,
,,30MonoWAV/30MonoT3.wav,2,1,4,15,,,,,1,6,22,14,,,,,,,,,,,,,,,091,001,2019_Aug_29_1106,MusicAffectPsychophysiology2019,3.0.5,59.833412171796944,
To what extent did the music make you feel ,TENDER,30MonoWAV/30MonoF4.wav,1,2,2,4,,,,,1,7,23,3,0,0,0,10,,,3,5.752896054997109,2,2.6525159839948174,1,3.46864519797964,1,1.337097042996902,091,001,2019_Aug_29_1106,MusicAffectPsychophysiology2019,3.0.5,59.833412171796944,
To what extent did the music make you feel ,FRUSTRATED,30MonoWAV/30MonoF4.wav,1,2,2,4,,,,,1,7,23,3,0,1,1,3,,,,,,,,,1,1.4030782909831032,091,001,2019_Aug_29_1106,MusicAffectPsychophysiology2019,3.0.5,59.833412171796944,
To what extent did the music make you feel ,ANXIOUS ,30MonoWAV/30MonoF4.wav,1,2,2,4,,,,,1,7,23,3,0,2,2,1,,,,,,,,,3,1.1727569859940559,091,001,2019_Aug_29_1106,MusicAffectPsychophysiology2019,3.0.5,59.833412171796944,
To what extent did the music make you feel ,SAD,30MonoWAV/30MonoF4.wav,1,2,2,4,,,,,1,7,23,3,0,3,3,0,,,,,,,,,1,1.0533124229987152,091,001,2019_Aug_29_1106,MusicAffectPsychophysiology2019,3.0.5,59.833412171796944,
To what extent did the music make you feel ,ALERT,30MonoWAV/30MonoF4.wav,1,2,2,4,,,,,1,7,23,3,0,4,4,8,,,,,,,,,4,1.420697404013481,091,001,2019_Aug_29_1106,MusicAffectPsychophysiology2019,3.0.5,59.833412171796944,
To what extent did the music make you feel ,ACTIVE,30MonoWAV/30MonoF4.wav,1,2,2,4,,,,,1,7,23,3,0,5,5,9,,,,,,,,,2,1.7346942189906258,091,001,2019_Aug_29_1106,MusicAffectPsychophysiology2019,3.0.5,59.833412171796944,
To what extent did the music make you feel ,EXCITED,30MonoWAV/30MonoF4.wav,1,2,2,4,,,,,1,7,23,3,0,6,6,7,,,,,,,,,2,3.2011103149852715,091,001,2019_Aug_29_1106,MusicAffectPsychophysiology2019,3.0.5,59.833412171796944,
To what extent did the music make you feel ,ASHAMED,30MonoWAV/30MonoF4.wav,1,2,2,4,,,,,1,7,23,3,0,7,7,4,,,,,,,,,1,0.8848612750007305,091,001,2019_Aug_29_1106,MusicAffectPsychophysiology2019,3.0.5,59.833412171796944,
To what extent did the music make you feel ,HAPPY,30MonoWAV/30MonoF4.wav,1,2,2,4,,,,,1,7,23,3,0,8,8,6,,,,,,,,,1,1.085963174002245,091,001,2019_Aug_29_1106,MusicAffectPsychophysiology2019,3.0.5,59.833412171796944,
To what extent did the music make you feel ,SCARED,30MonoWAV/30MonoF4.wav,1,2,2,4,,,,,1,7,23,3,0,9,9,11,,,,,,,,,3,1.2561960780003574,091,001,2019_Aug_29_1106,MusicAffectPsychophysiology2019,3.0.5,59.833412171796944,
To what extent did the music make you feel ,GUILTY,30MonoWAV/30MonoF4.wav,1,2,2,4,,,,,1,7,23,3,0,10,10,5,,,,,,,,,1,1.0532198770088144,091,001,2019_Aug_29_1106,MusicAffectPsychophysiology2019,3.0.5,59.833412171796944,
To what extent did the music make you feel ,ANGRY,30MonoWAV/30MonoF4.wav,1,2,2,4,,,,,1,7,23,3,0,11,11,2,,,,,,,,,1,1.21996195599786,091,001,2019_Aug_29_1106,MusicAffectPsychophysiology2019,3.0.5,59.833412171796944,
,,30MonoWAV/30MonoF4.wav,1,2,2,4,,,,,1,7,23,3,,,,,,,,,,,,,,,091,001,2019_Aug_29_1106,MusicAffectPsychophysiology2019,3.0.5,59.833412171796944,
To what extent did the music make you feel ,ANXIOUS ,30MonoWAV/30MonoT4.wav,2,1,4,16,,,,,1,8,24,15,0,0,0,1,,,3,3.436593816993991,3,3.0694037709909026,2,1.1687222579785157,1,0.9694963610090781,091,001,2019_Aug_29_1106,MusicAffectPsychophysiology2019,3.0.5,59.833412171796944,
To what extent did the music make you feel ,SCARED,30MonoWAV/30MonoT4.wav,2,1,4,16,,,,,1,8,24,15,0,1,1,11,,,,,,,,,1,0.7194126340036746,091,001,2019_Aug_29_1106,MusicAffectPsychophysiology2019,3.0.5,59.833412171796944,
To what extent did the music make you feel ,FRUSTRATED,30MonoWAV/30MonoT4.wav,2,1,4,16,,,,,1,8,24,15,0,2,2,3,,,,,,,,,1,0.7334813589986879,091,001,2019_Aug_29_1106,MusicAffectPsychophysiology2019,3.0.5,59.833412171796944,
To what extent did the music make you feel ,ANGRY,30MonoWAV/30MonoT4.wav,2,1,4,16,,,,,1,8,24,15,0,3,3,2,,,,,,,,,1,0.7368421930004843,091,001,2019_Aug_29_1106,MusicAffectPsychophysiology2019,3.0.5,59.833412171796944,
To what extent did the music make you feel ,ALERT,30MonoWAV/30MonoT4.wav,2,1,4,16,,,,,1,8,24,15,0,4,4,8,,,,,,,,,2,1.0700115399959031,091,001,2019_Aug_29_1106,MusicAffectPsychophysiology2019,3.0.5,59.833412171796944,
To what extent did the music make you feel ,SAD,30MonoWAV/30MonoT4.wav,2,1,4,16,,,,,1,8,24,15,0,5,5,0,,,,,,,,,2,1.252932894974947,091,001,2019_Aug_29_1106,MusicAffectPsychophysiology2019,3.0.5,59.833412171796944,
To what extent did the music make you feel ,HAPPY,30MonoWAV/30MonoT4.wav,2,1,4,16,,,,,1,8,24,15,0,6,6,6,,,,,,,,,4,2.1029168299864978,091,001,2019_Aug_29_1106,MusicAffectPsychophysiology2019,3.0.5,59.833412171796944,
To what extent did the music make you feel ,ASHAMED,30MonoWAV/30MonoT4.wav,2,1,4,16,,,,,1,8,24,15,0,7,7,4,,,,,,,,,1,1.4861710729892366,091,001,2019_Aug_29_1106,MusicAffectPsychophysiology2019,3.0.5,59.833412171796944,
To what extent did the music make you feel ,GUILTY,30MonoWAV/30MonoT4.wav,2,1,4,16,,,,,1,8,24,15,0,8,8,5,,,,,,,,,1,0.9200637350149918,091,001,2019_Aug_29_1106,MusicAffectPsychophysiology2019,3.0.5,59.833412171796944,
To what extent did the music make you feel ,ACTIVE,30MonoWAV/30MonoT4.wav,2,1,4,16,,,,,1,8,24,15,0,9,9,9,,,,,,,,,2,0.8188234889821615,091,001,2019_Aug_29_1106,MusicAffectPsychophysiology2019,3.0.5,59.833412171796944,
To what extent did the music make you feel ,TENDER,30MonoWAV/30MonoT4.wav,2,1,4,16,,,,,1,8,24,15,0,10,10,10,,,,,,,,,3,0.9690198229800444,091,001,2019_Aug_29_1106,MusicAffectPsychophysiology2019,3.0.5,59.833412171796944,
To what extent did the music make you feel ,EXCITED,30MonoWAV/30MonoT4.wav,2,1,4,16,,,,,1,8,24,15,0,11,11,7,,,,,,,,,1,1.1000002119981218,091,001,2019_Aug_29_1106,MusicAffectPsychophysiology2019,3.0.5,59.833412171796944,
,,30MonoWAV/30MonoT4.wav,2,1,4,16,,,,,1,8,24,15,,,,,,,,,,,,,,,091,001,2019_Aug_29_1106,MusicAffectPsychophysiology2019,3.0.5,59.833412171796944,
To what extent did the music make you feel ,GUILTY,30MonoWAV/30MonoS2.wav,1,1,3,10,,,,,1,9,25,9,0,0,0,5,,,1,2.3693242789886426,1,2.45295024101506,1,1.6663325330009684,1,1.6768287529994268,091,001,2019_Aug_29_1106,MusicAffectPsychophysiology2019,3.0.5,59.833412171796944,
To what extent did the music make you feel ,SAD,30MonoWAV/30MonoS2.wav,1,1,3,10,,,,,1,9,25,9,0,1,1,0,,,,,,,,,2,1.036373103997903,091,001,2019_Aug_29_1106,MusicAffectPsychophysiology2019,3.0.5,59.833412171796944,
To what extent did the music make you feel ,ANXIOUS ,30MonoWAV/30MonoS2.wav,1,1,3,10,,,,,1,9,25,9,0,2,2,1,,,,,,,,,1,1.119644167018123,091,001,2019_Aug_29_1106,MusicAffectPsychophysiology2019,3.0.5,59.833412171796944,
To what extent did the music make you feel ,ASHAMED,30MonoWAV/30MonoS2.wav,1,1,3,10,,,,,1,9,25,9,0,3,3,4,,,,,,,,,4,1.2524844869913068,091,001,2019_Aug_29_1106,MusicAffectPsychophysiology2019,3.0.5,59.833412171796944,
To what extent did the music make you feel ,TENDER,30MonoWAV/30MonoS2.wav,1,1,3,10,,,,,1,9,25,9,0,4,4,10,,,,,,,,,3,2.453262957977131,091,001,2019_Aug_29_1106,MusicAffectPsychophysiology2019,3.0.5,59.833412171796944,
To what extent did the music make you feel ,SCARED,30MonoWAV/30MonoS2.wav,1,1,3,10,,,,,1,9,25,9,0,5,5,11,,,,,,,,,1,1.156822060002014,091,001,2019_Aug_29_1106,MusicAffectPsychophysiology2019,3.0.5,59.833412171796944,
To what extent did the music make you feel ,FRUSTRATED,30MonoWAV/30MonoS2.wav,1,1,3,10,,,,,1,9,25,9,0,6,6,3,,,,,,,,,1,0.791713887010701,091,001,2019_Aug_29_1106,MusicAffectPsychophysiology2019,3.0.5,59.833412171796944,
To what extent did the music make you feel ,ANGRY,30MonoWAV/30MonoS2.wav,1,1,3,10,,,,,1,9,25,9,0,7,7,2,,,,,,,,,1,0.9357823530153837,091,001,2019_Aug_29_1106,MusicAffectPsychophysiology2019,3.0.5,59.833412171796944,
To what extent did the music make you feel ,ALERT,30MonoWAV/30MonoS2.wav,1,1,3,10,,,,,1,9,25,9,0,8,8,8,,,,,,,,,1,1.0692824430007022,091,001,2019_Aug_29_1106,MusicAffectPsychophysiology2019,3.0.5,59.833412171796944,
To what extent did the music make you feel ,HAPPY,30MonoWAV/30MonoS2.wav,1,1,3,10,,,,,1,9,25,9,0,9,9,6,,,,,,,,,1,1.2034104080230463,091,001,2019_Aug_29_1106,MusicAffectPsychophysiology2019,3.0.5,59.833412171796944,
To what extent did the music make you feel ,EXCITED,30MonoWAV/30MonoS2.wav,1,1,3,10,,,,,1,9,25,9,0,10,10,7,,,,,,,,,1,0.8021666659915354,091,001,2019_Aug_29_1106,MusicAffectPsychophysiology2019,3.0.5,59.833412171796944,
To what extent did the music make you feel ,ACTIVE,30MonoWAV/30MonoS2.wav,1,1,3,10,,,,,1,9,25,9,0,11,11,9,,,,,,,,,1,1.1695265299931634,091,001,2019_Aug_29_1106,MusicAffectPsychophysiology2019,3.0.5,59.833412171796944,
,,30MonoWAV/30MonoS2.wav,1,1,3,10,,,,,1,9,25,9,,,,,,,,,,,,,,,091,001,2019_Aug_29_1106,MusicAffectPsychophysiology2019,3.0.5,59.833412171796944,
To what extent did the music make you feel ,ALERT,30MonoWAV/30MonoH1.wav,2,2,1,5,,,,,1,10,26,4,0,0,0,8,,,3,3.169591195008252,3,2.152471245994093,3,1.619632473011734,3,2.152967036003247,091,001,2019_Aug_29_1106,MusicAffectPsychophysiology2019,3.0.5,59.833412171796944,
To what extent did the music make you feel ,ANGRY,30MonoWAV/30MonoH1.wav,2,2,1,5,,,,,1,10,26,4,0,1,1,2,,,,,,,,,1,0.8187889090040699,091,001,2019_Aug_29_1106,MusicAffectPsychophysiology2019,3.0.5,59.833412171796944,
To what extent did the music make you feel ,ACTIVE,30MonoWAV/30MonoH1.wav,2,2,1,5,,,,,1,10,26,4,0,2,2,9,,,,,,,,,3,2.919804932025727,091,001,2019_Aug_29_1106,MusicAffectPsychophysiology2019,3.0.5,59.833412171796944,
To what extent did the music make you feel ,EXCITED,30MonoWAV/30MonoH1.wav,2,2,1,5,,,,,1,10,26,4,0,3,3,7,,,,,,,,,4,1.269981680001365,091,001,2019_Aug_29_1106,MusicAffectPsychophysiology2019,3.0.5,59.833412171796944,
To what extent did the music make you feel ,SAD,30MonoWAV/30MonoH1.wav,2,2,1,5,,,,,1,10,26,4,0,4,4,0,,,,,,,,,1,0.9680061289982405,091,001,2019_Aug_29_1106,MusicAffectPsychophysiology2019,3.0.5,59.833412171796944,
To what extent did the music make you feel ,TENDER,30MonoWAV/30MonoH1.wav,2,2,1,5,,,,,1,10,26,4,0,5,5,10,,,,,,,,,1,0.9024803359934594,091,001,2019_Aug_29_1106,MusicAffectPsychophysiology2019,3.0.5,59.833412171796944,
To what extent did the music make you feel ,SCARED,30MonoWAV/30MonoH1.wav,2,2,1,5,,,,,1,10,26,4,0,6,6,11,,,,,,,,,1,0.903159213019535,091,001,2019_Aug_29_1106,MusicAffectPsychophysiology2019,3.0.5,59.833412171796944,
To what extent did the music make you feel ,FRUSTRATED,30MonoWAV/30MonoH1.wav,2,2,1,5,,,,,1,10,26,4,0,7,7,3,,,,,,,,,1,0.8697507060132921,091,001,2019_Aug_29_1106,MusicAffectPsychophysiology2019,3.0.5,59.833412171796944,
To what extent did the music make you feel ,ANXIOUS ,30MonoWAV/30MonoH1.wav,2,2,1,5,,,,,1,10,26,4,0,8,8,1,,,,,,,,,1,0.9356966619961895,091,001,2019_Aug_29_1106,MusicAffectPsychophysiology2019,3.0.5,59.833412171796944,
To what extent did the music make you feel ,HAPPY,30MonoWAV/30MonoH1.wav,2,2,1,5,,,,,1,10,26,4,0,9,9,6,,,,,,,,,3,1.0173546010046266,091,001,2019_Aug_29_1106,MusicAffectPsychophysiology2019,3.0.5,59.833412171796944,
To what extent did the music make you feel ,GUILTY,30MonoWAV/30MonoH1.wav,2,2,1,5,,,,,1,10,26,4,0,10,10,5,,,,,,,,,1,0.9858511410129722,091,001,2019_Aug_29_1106,MusicAffectPsychophysiology2019,3.0.5,59.833412171796944,
To what extent did the music make you feel ,ASHAMED,30MonoWAV/30MonoH1.wav,2,2,1,5,,,,,1,10,26,4,0,11,11,4,,,,,,,,,1,1.7039743339992128,091,001,2019_Aug_29_1106,MusicAffectPsychophysiology2019,3.0.5,59.833412171796944,
,,30MonoWAV/30MonoH1.wav,2,2,1,5,,,,,1,10,26,4,,,,,,,,,,,,,,,091,001,2019_Aug_29_1106,MusicAffectPsychophysiology2019,3.0.5,59.833412171796944,
To what extent did the music make you feel ,ANXIOUS ,30MonoWAV/30MonoF1.wav,1,2,2,1,,,,,1,11,27,0,0,0,0,1,,,3,2.8538940839935094,2,4.299617636977928,2,2.3028248000191525,3,4.046866043005139,091,001,2019_Aug_29_1106,MusicAffectPsychophysiology2019,3.0.5,59.833412171796944,
To what extent did the music make you feel ,ACTIVE,30MonoWAV/30MonoF1.wav,1,2,2,1,,,,,1,11,27,0,0,1,1,9,,,,,,,,,4,0.962200893991394,091,001,2019_Aug_29_1106,MusicAffectPsychophysiology2019,3.0.5,59.833412171796944,
To what extent did the music make you feel ,GUILTY,30MonoWAV/30MonoF1.wav,1,2,2,1,,,,,1,11,27,0,0,2,2,5,,,,,,,,,1,0.6696648059878498,091,001,2019_Aug_29_1106,MusicAffectPsychophysiology2019,3.0.5,59.833412171796944,
To what extent did the music make you feel ,ANGRY,30MonoWAV/30MonoF1.wav,1,2,2,1,,,,,1,11,27,0,0,3,3,2,,,,,,,,,1,0.9697089710098226,091,001,2019_Aug_29_1106,MusicAffectPsychophysiology2019,3.0.5,59.833412171796944,
To what extent did the music make you feel ,ALERT,30MonoWAV/30MonoF1.wav,1,2,2,1,,,,,1,11,27,0,0,4,4,8,,,,,,,,,4,1.002649031986948,091,001,2019_Aug_29_1106,MusicAffectPsychophysiology2019,3.0.5,59.833412171796944,
To what extent did the music make you feel ,EXCITED,30MonoWAV/30MonoF1.wav,1,2,2,1,,,,,1,11,27,0,0,5,5,7,,,,,,,,,3,1.5193766400043387,091,001,2019_Aug_29_1106,MusicAffectPsychophysiology2019,3.0.5,59.833412171796944,
To what extent did the music make you feel ,ASHAMED,30MonoWAV/30MonoF1.wav,1,2,2,1,,,,,1,11,27,0,0,6,6,4,,,,,,,,,1,1.3364156809984706,091,001,2019_Aug_29_1106,MusicAffectPsychophysiology2019,3.0.5,59.833412171796944,
To what extent did the music make you feel ,FRUSTRATED,30MonoWAV/30MonoF1.wav,1,2,2,1,,,,,1,11,27,0,0,7,7,3,,,,,,,,,1,0.8785826230014209,091,001,2019_Aug_29_1106,MusicAffectPsychophysiology2019,3.0.5,59.833412171796944,
To what extent did the music make you feel ,TENDER,30MonoWAV/30MonoF1.wav,1,2,2,1,,,,,1,11,27,0,0,8,8,10,,,,,,,,,1,0.8176402479875833,091,001,2019_Aug_29_1106,MusicAffectPsychophysiology2019,3.0.5,59.833412171796944,
To what extent did the music make you feel ,HAPPY,30MonoWAV/30MonoF1.wav,1,2,2,1,,,,,1,11,27,0,0,9,9,6,,,,,,,,,1,0.8357468700269237,091,001,2019_Aug_29_1106,MusicAffectPsychophysiology2019,3.0.5,59.833412171796944,
To what extent did the music make you feel ,SAD,30MonoWAV/30MonoF1.wav,1,2,2,1,,,,,1,11,27,0,0,10,10,0,,,,,,,,,1,0.969443495006999,091,001,2019_Aug_29_1106,MusicAffectPsychophysiology2019,3.0.5,59.833412171796944,
To what extent did the music make you feel ,SCARED,30MonoWAV/30MonoF1.wav,1,2,2,1,,,,,1,11,27,0,0,11,11,11,,,,,,,,,2,1.253307129984023,091,001,2019_Aug_29_1106,MusicAffectPsychophysiology2019,3.0.5,59.833412171796944,
,,30MonoWAV/30MonoF1.wav,1,2,2,1,,,,,1,11,27,0,,,,,,,,,,,,,,,091,001,2019_Aug_29_1106,MusicAffectPsychophysiology2019,3.0.5,59.833412171796944,
To what extent did the music make you feel ,ASHAMED,30MonoWAV/30MonoS3.wav,1,1,3,11,,,,,1,12,28,10,0,0,0,4,,,1,10.36772184399888,1,8.81831720599439,1,1.4357710969925392,2,1.8538065410102718,091,001,2019_Aug_29_1106,MusicAffectPsychophysiology2019,3.0.5,59.833412171796944,
To what extent did the music make you feel ,ANGRY,30MonoWAV/30MonoS3.wav,1,1,3,11,,,,,1,12,28,10,0,1,1,2,,,,,,,,,1,1.153207608993398,091,001,2019_Aug_29_1106,MusicAffectPsychophysiology2019,3.0.5,59.833412171796944,
To what extent did the music make you feel ,ACTIVE,30MonoWAV/30MonoS3.wav,1,1,3,11,,,,,1,12,28,10,0,2,2,9,,,,,,,,,1,0.9866674359946046,091,001,2019_Aug_29_1106,MusicAffectPsychophysiology2019,3.0.5,59.833412171796944,
To what extent did the music make you feel ,ANXIOUS ,30MonoWAV/30MonoS3.wav,1,1,3,11,,,,,1,12,28,10,0,3,3,1,,,,,,,,,3,0.8695370230125263,091,001,2019_Aug_29_1106,MusicAffectPsychophysiology2019,3.0.5,59.833412171796944,
To what extent did the music make you feel ,EXCITED,30MonoWAV/30MonoS3.wav,1,1,3,11,,,,,1,12,28,10,0,4,4,7,,,,,,,,,1,0.7697871389973443,091,001,2019_Aug_29_1106,MusicAffectPsychophysiology2019,3.0.5,59.833412171796944,
To what extent did the music make you feel ,TENDER,30MonoWAV/30MonoS3.wav,1,1,3,11,,,,,1,12,28,10,0,5,5,10,,,,,,,,,2,1.5860071310016792,091,001,2019_Aug_29_1106,MusicAffectPsychophysiology2019,3.0.5,59.833412171796944,
To what extent did the music make you feel ,GUILTY,30MonoWAV/30MonoS3.wav,1,1,3,11,,,,,1,12,28,10,0,6,6,5,,,,,,,,,3,1.2340540520090144,091,001,2019_Aug_29_1106,MusicAffectPsychophysiology2019,3.0.5,59.833412171796944,
To what extent did the music make you feel ,ALERT,30MonoWAV/30MonoS3.wav,1,1,3,11,,,,,1,12,28,10,0,7,7,8,,,,,,,,,1,0.7513614780036733,091,001,2019_Aug_29_1106,MusicAffectPsychophysiology2019,3.0.5,59.833412171796944,
To what extent did the music make you feel ,FRUSTRATED,30MonoWAV/30MonoS3.wav,1,1,3,11,,,,,1,12,28,10,0,8,8,3,,,,,,,,,1,0.8866597879969049,091,001,2019_Aug_29_1106,MusicAffectPsychophysiology2019,3.0.5,59.833412171796944,
To what extent did the music make you feel ,HAPPY,30MonoWAV/30MonoS3.wav,1,1,3,11,,,,,1,12,28,10,0,9,9,6,,,,,,,,,1,1.335829632007517,091,001,2019_Aug_29_1106,MusicAffectPsychophysiology2019,3.0.5,59.833412171796944,
To what extent did the music make you feel ,SCARED,30MonoWAV/30MonoS3.wav,1,1,3,11,,,,,1,12,28,10,0,10,10,11,,,,,,,,,1,1.8525191770168021,091,001,2019_Aug_29_1106,MusicAffectPsychophysiology2019,3.0.5,59.833412171796944,
To what extent did the music make you feel ,SAD,30MonoWAV/30MonoS3.wav,1,1,3,11,,,,,1,12,28,10,0,11,11,0,,,,,,,,,3,1.0855187730048783,091,001,2019_Aug_29_1106,MusicAffectPsychophysiology2019,3.0.5,59.833412171796944,
,,30MonoWAV/30MonoS3.wav,1,1,3,11,,,,,1,12,28,10,,,,,,,,,,,,,,,091,001,2019_Aug_29_1106,MusicAffectPsychophysiology2019,3.0.5,59.833412171796944,
To what extent did the music make you feel ,FRUSTRATED,30MonoWAV/30MonoF2.wav,1,2,2,2,,,,,1,13,29,1,0,0,0,3,,,2,11.267480941023678,1,2.1522554559924174,1,1.1363127939985134,1,1.7321410459990148,091,001,2019_Aug_29_1106,MusicAffectPsychophysiology2019,3.0.5,59.833412171796944,
To what extent did the music make you feel ,ANGRY,30MonoWAV/30MonoF2.wav,1,2,2,2,,,,,1,13,29,1,0,1,1,2,,,,,,,,,1,3.2522562480007764,091,001,2019_Aug_29_1106,MusicAffectPsychophysiology2019,3.0.5,59.833412171796944,
To what extent did the music make you feel ,GUILTY,30MonoWAV/30MonoF2.wav,1,2,2,2,,,,,1,13,29,1,0,2,2,5,,,,,,,,,1,1.0350250150077045,091,001,2019_Aug_29_1106,MusicAffectPsychophysiology2019,3.0.5,59.833412171796944,
To what extent did the music make you feel ,SCARED,30MonoWAV/30MonoF2.wav,1,2,2,2,,,,,1,13,29,1,0,3,3,11,,,,,,,,,3,0.7530453910003416,091,001,2019_Aug_29_1106,MusicAffectPsychophysiology2019,3.0.5,59.833412171796944,
To what extent did the music make you feel ,EXCITED,30MonoWAV/30MonoF2.wav,1,2,2,2,,,,,1,13,29,1,0,4,4,7,,,,,,,,,1,0.6535044459742494,091,001,2019_Aug_29_1106,MusicAffectPsychophysiology2019,3.0.5,59.833412171796944,
To what extent did the music make you feel ,ALERT,30MonoWAV/30MonoF2.wav,1,2,2,2,,,,,1,13,29,1,0,5,5,8,,,,,,,,,3,1.1350676440051757,091,001,2019_Aug_29_1106,MusicAffectPsychophysiology2019,3.0.5,59.833412171796944,
To what extent did the music make you feel ,TENDER,30MonoWAV/30MonoF2.wav,1,2,2,2,,,,,1,13,29,1,0,6,6,10,,,,,,,,,1,0.5700606100144796,091,001,2019_Aug_29_1106,MusicAffectPsychophysiology2019,3.0.5,59.833412171796944,
To what extent did the music make you feel ,ASHAMED,30MonoWAV/30MonoF2.wav,1,2,2,2,,,,,1,13,29,1,0,7,7,4,,,,,,,,,1,0.8692467609944288,091,001,2019_Aug_29_1106,MusicAffectPsychophysiology2019,3.0.5,59.833412171796944,
To what extent did the music make you feel ,SAD,30MonoWAV/30MonoF2.wav,1,2,2,2,,,,,1,13,29,1,0,8,8,0,,,,,,,,,1,0.8040269400225952,091,001,2019_Aug_29_1106,MusicAffectPsychophysiology2019,3.0.5,59.833412171796944,
To what extent did the music make you feel ,HAPPY,30MonoWAV/30MonoF2.wav,1,2,2,2,,,,,1,13,29,1,0,9,9,6,,,,,,,,,1,0.9856739730166737,091,001,2019_Aug_29_1106,MusicAffectPsychophysiology2019,3.0.5,59.833412171796944,
To what extent did the music make you feel ,ACTIVE,30MonoWAV/30MonoF2.wav,1,2,2,2,,,,,1,13,29,1,0,10,10,9,,,,,,,,,1,0.9353011420171242,091,001,2019_Aug_29_1106,MusicAffectPsychophysiology2019,3.0.5,59.833412171796944,
To what extent did the music make you feel ,ANXIOUS ,30MonoWAV/30MonoF2.wav,1,2,2,2,,,,,1,13,29,1,0,11,11,1,,,,,,,,,4,2.068740495975362,091,001,2019_Aug_29_1106,MusicAffectPsychophysiology2019,3.0.5,59.833412171796944,
,,30MonoWAV/30MonoF2.wav,1,2,2,2,,,,,1,13,29,1,,,,,,,,,,,,,,,091,001,2019_Aug_29_1106,MusicAffectPsychophysiology2019,3.0.5,59.833412171796944,
To what extent did the music make you feel ,ASHAMED,30MonoWAV/30MonoS1.wav,1,1,3,9,,,,,1,14,30,8,0,0,0,4,,,2,3.735578978987178,1,2.1695958630007226,1,1.1202612510242034,2,1.2235051470051985,091,001,2019_Aug_29_1106,MusicAffectPsychophysiology2019,3.0.5,59.833412171796944,
To what extent did the music make you feel ,TENDER,30MonoWAV/30MonoS1.wav,1,1,3,9,,,,,1,14,30,8,0,1,1,10,,,,,,,,,2,1.4351614330080338,091,001,2019_Aug_29_1106,MusicAffectPsychophysiology2019,3.0.5,59.833412171796944,
To what extent did the music make you feel ,SCARED,30MonoWAV/30MonoS1.wav,1,1,3,9,,,,,1,14,30,8,0,2,2,11,,,,,,,,,1,1.236351511994144,091,001,2019_Aug_29_1106,MusicAffectPsychophysiology2019,3.0.5,59.833412171796944,
To what extent did the music make you feel ,HAPPY,30MonoWAV/30MonoS1.wav,1,1,3,9,,,,,1,14,30,8,0,3,3,6,,,,,,,,,1,0.7027695180149749,091,001,2019_Aug_29_1106,MusicAffectPsychophysiology2019,3.0.5,59.833412171796944,
To what extent did the music make you feel ,ALERT,30MonoWAV/30MonoS1.wav,1,1,3,9,,,,,1,14,30,8,0,4,4,8,,,,,,,,,1,1.102460748021258,091,001,2019_Aug_29_1106,MusicAffectPsychophysiology2019,3.0.5,59.833412171796944,
To what extent did the music make you feel ,FRUSTRATED,30MonoWAV/30MonoS1.wav,1,1,3,9,,,,,1,14,30,8,0,5,5,3,,,,,,,,,1,0.8363099370035343,091,001,2019_Aug_29_1106,MusicAffectPsychophysiology2019,3.0.5,59.833412171796944,
To what extent did the music make you feel ,ANGRY,30MonoWAV/30MonoS1.wav,1,1,3,9,,,,,1,14,30,8,0,6,6,2,,,,,,,,,1,2.1021829950041138,091,001,2019_Aug_29_1106,MusicAffectPsychophysiology2019,3.0.5,59.833412171796944,
To what extent did the music make you feel ,ANXIOUS ,30MonoWAV/30MonoS1.wav,1,1,3,9,,,,,1,14,30,8,0,7,7,1,,,,,,,,,1,1.287028480990557,091,001,2019_Aug_29_1106,MusicAffectPsychophysiology2019,3.0.5,59.833412171796944,
To what extent did the music make you feel ,GUILTY,30MonoWAV/30MonoS1.wav,1,1,3,9,,,,,1,14,30,8,0,8,8,5,,,,,,,,,2,0.9696717000042554,091,001,2019_Aug_29_1106,MusicAffectPsychophysiology2019,3.0.5,59.833412171796944,
To what extent did the music make you feel ,ACTIVE,30MonoWAV/30MonoS1.wav,1,1,3,9,,,,,1,14,30,8,0,9,9,9,,,,,,,,,1,0.9358857980114408,091,001,2019_Aug_29_1106,MusicAffectPsychophysiology2019,3.0.5,59.833412171796944,
To what extent did the music make you feel ,SAD,30MonoWAV/30MonoS1.wav,1,1,3,9,,,,,1,14,30,8,0,10,10,0,,,,,,,,,3,1.0193386350001674,091,001,2019_Aug_29_1106,MusicAffectPsychophysiology2019,3.0.5,59.833412171796944,
To what extent did the music make you feel ,EXCITED,30MonoWAV/30MonoS1.wav,1,1,3,9,,,,,1,14,30,8,0,11,11,7,,,,,,,,,1,1.1376747369940858,091,001,2019_Aug_29_1106,MusicAffectPsychophysiology2019,3.0.5,59.833412171796944,
,,30MonoWAV/30MonoS1.wav,1,1,3,9,,,,,1,14,30,8,,,,,,,,,,,,,,,091,001,2019_Aug_29_1106,MusicAffectPsychophysiology2019,3.0.5,59.833412171796944,
To what extent did the music make you feel ,ALERT,30MonoWAV/30MonoH4.wav,2,2,1,8,,,,,1,15,31,7,0,0,0,8,,,4,6.069231923989719,4,1.5665368939808104,3,1.2530865360167809,3,4.2310449549986515,091,001,2019_Aug_29_1106,MusicAffectPsychophysiology2019,3.0.5,59.833412171796944,
To what extent did the music make you feel ,ANXIOUS ,30MonoWAV/30MonoH4.wav,2,2,1,8,,,,,1,15,31,7,0,1,1,1,,,,,,,,,1,1.1020961370086297,091,001,2019_Aug_29_1106,MusicAffectPsychophysiology2019,3.0.5,59.833412171796944,
To what extent did the music make you feel ,FRUSTRATED,30MonoWAV/30MonoH4.wav,2,2,1,8,,,,,1,15,31,7,0,2,2,3,,,,,,,,,1,0.8040866109950002,091,001,2019_Aug_29_1106,MusicAffectPsychophysiology2019,3.0.5,59.833412171796944,
To what extent did the music make you feel ,ANGRY,30MonoWAV/30MonoH4.wav,2,2,1,8,,,,,1,15,31,7,0,3,3,2,,,,,,,,,1,0.7339292730030138,091,001,2019_Aug_29_1106,MusicAffectPsychophysiology2019,3.0.5,59.833412171796944,
To what extent did the music make you feel ,ASHAMED,30MonoWAV/30MonoH4.wav,2,2,1,8,,,,,1,15,31,7,0,4,4,4,,,,,,,,,1,0.6694384250149596,091,001,2019_Aug_29_1106,MusicAffectPsychophysiology2019,3.0.5,59.833412171796944,
To what extent did the music make you feel ,SCARED,30MonoWAV/30MonoH4.wav,2,2,1,8,,,,,1,15,31,7,0,5,5,11,,,,,,,,,1,0.7694664779992308,091,001,2019_Aug_29_1106,MusicAffectPsychophysiology2019,3.0.5,59.833412171796944,
To what extent did the music make you feel ,HAPPY,30MonoWAV/30MonoH4.wav,2,2,1,8,,,,,1,15,31,7,0,6,6,6,,,,,,,,,4,1.0858820239955094,091,001,2019_Aug_29_1106,MusicAffectPsychophysiology2019,3.0.5,59.833412171796944,
To what extent did the music make you feel ,SAD,30MonoWAV/30MonoH4.wav,2,2,1,8,,,,,1,15,31,7,0,7,7,0,,,,,,,,,1,0.5879822110000532,091,001,2019_Aug_29_1106,MusicAffectPsychophysiology2019,3.0.5,59.833412171796944,
To what extent did the music make you feel ,ACTIVE,30MonoWAV/30MonoH4.wav,2,2,1,8,,,,,1,15,31,7,0,8,8,9,,,,,,,,,4,0.9824085959990043,091,001,2019_Aug_29_1106,MusicAffectPsychophysiology2019,3.0.5,59.833412171796944,
To what extent did the music make you feel ,EXCITED,30MonoWAV/30MonoH4.wav,2,2,1,8,,,,,1,15,31,7,0,9,9,7,,,,,,,,,5,1.2521527369972318,091,001,2019_Aug_29_1106,MusicAffectPsychophysiology2019,3.0.5,59.833412171796944,
To what extent did the music make you feel ,GUILTY,30MonoWAV/30MonoH4.wav,2,2,1,8,,,,,1,15,31,7,0,10,10,5,,,,,,,,,1,1.1524104260024615,091,001,2019_Aug_29_1106,MusicAffectPsychophysiology2019,3.0.5,59.833412171796944,
To what extent did the music make you feel ,TENDER,30MonoWAV/30MonoH4.wav,2,2,1,8,,,,,1,15,31,7,0,11,11,10,,,,,,,,,1,1.0699570460128598,091,001,2019_Aug_29_1106,MusicAffectPsychophysiology2019,3.0.5,59.833412171796944,
,,30MonoWAV/30MonoH4.wav,2,2,1,8,,,,,1,15,31,7,,,,,,,,,,,,,,,091,001,2019_Aug_29_1106,MusicAffectPsychophysiology2019,3.0.5,59.833412171796944,
