Instruction,Word,song,valence,arousal,affectcat,songmark,pracwords.thisRepN,pracwords.thisTrialN,pracwords.thisN,pracwords.thisIndex,songtrials.thisRepN,songtrials.thisTrialN,songtrials.thisN,songtrials.thisIndex,words.thisRepN,words.thisTrialN,words.thisN,words.thisIndex,begin.keys,begin.rt,arousalkey.keys,arousalkey.rt,valencekey.keys,valencekey.rt,likekey.keys,likekey.rt,WordResponse.keys,WordResponse.rt,participant,session,date,expName,psychopyVersion,frameRate,
,,,,,,,,,,,,,,,,,,,space,34.769903545005945,,,,,,,,,092,001,2019_Aug_29_1308,MusicAffectPsychophysiology2019,3.0.5,60.03105658378838,
,,,,,,,,,,,,,,,,,,,,,2,4.569167011999525,,,,,,,092,001,2019_Aug_29_1308,MusicAffectPsychophysiology2019,3.0.5,60.03105658378838,
,,,,,,,,,,,,,,,,,,,,,,,2,5.335791188001167,,,,,092,001,2019_Aug_29_1308,MusicAffectPsychophysiology2019,3.0.5,60.03105658378838,
,,,,,,,,,,,,,,,,,,,,,,,,,2,3.186359404004179,,,092,001,2019_Aug_29_1308,MusicAffectPsychophysiology2019,3.0.5,60.03105658378838,
To what extent did the music make you feel ,FRUSTRATED,,,,,,0,0,0,3,,,,,,,,,,,,,,,,,1,2.0697837810148485,092,001,2019_Aug_29_1308,MusicAffectPsychophysiology2019,3.0.5,60.03105658378838,
To what extent did the music make you feel ,ACTIVE,,,,,,0,1,1,9,,,,,,,,,,,,,,,,,3,3.163845286995638,092,001,2019_Aug_29_1308,MusicAffectPsychophysiology2019,3.0.5,60.03105658378838,
To what extent did the music make you feel ,ANXIOUS ,,,,,,0,2,2,1,,,,,,,,,,,,,,,,,3,4.229010321985697,092,001,2019_Aug_29_1308,MusicAffectPsychophysiology2019,3.0.5,60.03105658378838,
To what extent did the music make you feel ,SCARED,,,,,,0,3,3,11,,,,,,,,,,,,,,,,,1,1.4862200640200172,092,001,2019_Aug_29_1308,MusicAffectPsychophysiology2019,3.0.5,60.03105658378838,
To what extent did the music make you feel ,HAPPY,,,,,,0,4,4,6,,,,,,,,,,,,,,,,,1,3.201819958019769,092,001,2019_Aug_29_1308,MusicAffectPsychophysiology2019,3.0.5,60.03105658378838,
To what extent did the music make you feel ,SAD,,,,,,0,5,5,0,,,,,,,,,,,,,,,,,2,2.185378628986655,092,001,2019_Aug_29_1308,MusicAffectPsychophysiology2019,3.0.5,60.03105658378838,
To what extent did the music make you feel ,GUILTY,,,,,,0,6,6,5,,,,,,,,,,,,,,,,,1,1.2276608599931933,092,001,2019_Aug_29_1308,MusicAffectPsychophysiology2019,3.0.5,60.03105658378838,
To what extent did the music make you feel ,TENDER,,,,,,0,7,7,10,,,,,,,,,,,,,,,,,1,0.9695299989834893,092,001,2019_Aug_29_1308,MusicAffectPsychophysiology2019,3.0.5,60.03105658378838,
To what extent did the music make you feel ,EXCITED,,,,,,0,8,8,7,,,,,,,,,,,,,,,,,2,1.6193819910113234,092,001,2019_Aug_29_1308,MusicAffectPsychophysiology2019,3.0.5,60.03105658378838,
To what extent did the music make you feel ,ANGRY,,,,,,0,9,9,2,,,,,,,,,,,,,,,,,1,0.8365488760173321,092,001,2019_Aug_29_1308,MusicAffectPsychophysiology2019,3.0.5,60.03105658378838,
To what extent did the music make you feel ,ALERT,,,,,,0,10,10,8,,,,,,,,,,,,,,,,,1,1.1206444829877,092,001,2019_Aug_29_1308,MusicAffectPsychophysiology2019,3.0.5,60.03105658378838,
To what extent did the music make you feel ,ASHAMED,,,,,,0,11,11,4,,,,,,,,,,,,,,,,,1,0.8030653760069981,092,001,2019_Aug_29_1308,MusicAffectPsychophysiology2019,3.0.5,60.03105658378838,
To what extent did the music make you feel ,SAD,30MonoWAV/30MonoF2.wav,1,2,2,2,,,,,0,0,0,1,0,0,0,0,,,1,3.1677148260059766,1,3.8366185140039306,1,1.367689768987475,2,2.2237027649825905,092,001,2019_Aug_29_1308,MusicAffectPsychophysiology2019,3.0.5,60.03105658378838,
To what extent did the music make you feel ,FRUSTRATED,30MonoWAV/30MonoF2.wav,1,2,2,2,,,,,0,0,0,1,0,1,1,3,,,,,,,,,1,1.0232990460062865,092,001,2019_Aug_29_1308,MusicAffectPsychophysiology2019,3.0.5,60.03105658378838,
To what extent did the music make you feel ,ANXIOUS ,30MonoWAV/30MonoF2.wav,1,2,2,2,,,,,0,0,0,1,0,2,2,1,,,,,,,,,2,1.8527530459978152,092,001,2019_Aug_29_1308,MusicAffectPsychophysiology2019,3.0.5,60.03105658378838,
To what extent did the music make you feel ,SCARED,30MonoWAV/30MonoF2.wav,1,2,2,2,,,,,0,0,0,1,0,3,3,11,,,,,,,,,2,0.8186517700087279,092,001,2019_Aug_29_1308,MusicAffectPsychophysiology2019,3.0.5,60.03105658378838,
To what extent did the music make you feel ,ALERT,30MonoWAV/30MonoF2.wav,1,2,2,2,,,,,0,0,0,1,0,4,4,8,,,,,,,,,4,4.9689302560000215,092,001,2019_Aug_29_1308,MusicAffectPsychophysiology2019,3.0.5,60.03105658378838,
To what extent did the music make you feel ,EXCITED,30MonoWAV/30MonoF2.wav,1,2,2,2,,,,,0,0,0,1,0,5,5,7,,,,,,,,,1,1.1675787109998055,092,001,2019_Aug_29_1308,MusicAffectPsychophysiology2019,3.0.5,60.03105658378838,
To what extent did the music make you feel ,ACTIVE,30MonoWAV/30MonoF2.wav,1,2,2,2,,,,,0,0,0,1,0,6,6,9,,,,,,,,,3,1.9361227320041507,092,001,2019_Aug_29_1308,MusicAffectPsychophysiology2019,3.0.5,60.03105658378838,
To what extent did the music make you feel ,ASHAMED,30MonoWAV/30MonoF2.wav,1,2,2,2,,,,,0,0,0,1,0,7,7,4,,,,,,,,,1,1.069015914981719,092,001,2019_Aug_29_1308,MusicAffectPsychophysiology2019,3.0.5,60.03105658378838,
To what extent did the music make you feel ,TENDER,30MonoWAV/30MonoF2.wav,1,2,2,2,,,,,0,0,0,1,0,8,8,10,,,,,,,,,1,0.7360675469972193,092,001,2019_Aug_29_1308,MusicAffectPsychophysiology2019,3.0.5,60.03105658378838,
To what extent did the music make you feel ,GUILTY,30MonoWAV/30MonoF2.wav,1,2,2,2,,,,,0,0,0,1,0,9,9,5,,,,,,,,,1,0.769450993015198,092,001,2019_Aug_29_1308,MusicAffectPsychophysiology2019,3.0.5,60.03105658378838,
To what extent did the music make you feel ,ANGRY,30MonoWAV/30MonoF2.wav,1,2,2,2,,,,,0,0,0,1,0,10,10,2,,,,,,,,,1,1.2193817980005406,092,001,2019_Aug_29_1308,MusicAffectPsychophysiology2019,3.0.5,60.03105658378838,
To what extent did the music make you feel ,HAPPY,30MonoWAV/30MonoF2.wav,1,2,2,2,,,,,0,0,0,1,0,11,11,6,,,,,,,,,1,0.8682585319911595,092,001,2019_Aug_29_1308,MusicAffectPsychophysiology2019,3.0.5,60.03105658378838,
,,30MonoWAV/30MonoF2.wav,1,2,2,2,,,,,0,0,0,1,,,,,,,,,,,,,,,092,001,2019_Aug_29_1308,MusicAffectPsychophysiology2019,3.0.5,60.03105658378838,
To what extent did the music make you feel ,ASHAMED,30MonoWAV/30MonoS3.wav,1,1,3,11,,,,,0,1,1,10,0,0,0,4,,,1,3.5870783900027163,1,4.00290908999159,1,3.9018994289799593,1,1.2506835820095148,092,001,2019_Aug_29_1308,MusicAffectPsychophysiology2019,3.0.5,60.03105658378838,
To what extent did the music make you feel ,TENDER,30MonoWAV/30MonoS3.wav,1,1,3,11,,,,,0,1,1,10,0,1,1,10,,,,,,,,,1,0.7036130980122834,092,001,2019_Aug_29_1308,MusicAffectPsychophysiology2019,3.0.5,60.03105658378838,
To what extent did the music make you feel ,EXCITED,30MonoWAV/30MonoS3.wav,1,1,3,11,,,,,0,1,1,10,0,2,2,7,,,,,,,,,2,1.4998433770088013,092,001,2019_Aug_29_1308,MusicAffectPsychophysiology2019,3.0.5,60.03105658378838,
To what extent did the music make you feel ,ALERT,30MonoWAV/30MonoS3.wav,1,1,3,11,,,,,0,1,1,10,0,3,3,8,,,,,,,,,4,2.3839786570169963,092,001,2019_Aug_29_1308,MusicAffectPsychophysiology2019,3.0.5,60.03105658378838,
To what extent did the music make you feel ,GUILTY,30MonoWAV/30MonoS3.wav,1,1,3,11,,,,,0,1,1,10,0,4,4,5,,,,,,,,,1,1.0527126480010338,092,001,2019_Aug_29_1308,MusicAffectPsychophysiology2019,3.0.5,60.03105658378838,
To what extent did the music make you feel ,SAD,30MonoWAV/30MonoS3.wav,1,1,3,11,,,,,0,1,1,10,0,5,5,0,,,,,,,,,1,2.0350174650084227,092,001,2019_Aug_29_1308,MusicAffectPsychophysiology2019,3.0.5,60.03105658378838,
To what extent did the music make you feel ,ACTIVE,30MonoWAV/30MonoS3.wav,1,1,3,11,,,,,0,1,1,10,0,6,6,9,,,,,,,,,1,2.369427600991912,092,001,2019_Aug_29_1308,MusicAffectPsychophysiology2019,3.0.5,60.03105658378838,
To what extent did the music make you feel ,HAPPY,30MonoWAV/30MonoS3.wav,1,1,3,11,,,,,0,1,1,10,0,7,7,6,,,,,,,,,1,1.0533933720143978,092,001,2019_Aug_29_1308,MusicAffectPsychophysiology2019,3.0.5,60.03105658378838,
To what extent did the music make you feel ,FRUSTRATED,30MonoWAV/30MonoS3.wav,1,1,3,11,,,,,0,1,1,10,0,8,8,3,,,,,,,,,1,1.5813534219923895,092,001,2019_Aug_29_1308,MusicAffectPsychophysiology2019,3.0.5,60.03105658378838,
To what extent did the music make you feel ,ANXIOUS ,30MonoWAV/30MonoS3.wav,1,1,3,11,,,,,0,1,1,10,0,9,9,1,,,,,,,,,3,2.8703555100073572,092,001,2019_Aug_29_1308,MusicAffectPsychophysiology2019,3.0.5,60.03105658378838,
To what extent did the music make you feel ,SCARED,30MonoWAV/30MonoS3.wav,1,1,3,11,,,,,0,1,1,10,0,10,10,11,,,,,,,,,1,0.9024030140135437,092,001,2019_Aug_29_1308,MusicAffectPsychophysiology2019,3.0.5,60.03105658378838,
To what extent did the music make you feel ,ANGRY,30MonoWAV/30MonoS3.wav,1,1,3,11,,,,,0,1,1,10,0,11,11,2,,,,,,,,,1,1.4668004649865907,092,001,2019_Aug_29_1308,MusicAffectPsychophysiology2019,3.0.5,60.03105658378838,
,,30MonoWAV/30MonoS3.wav,1,1,3,11,,,,,0,1,1,10,,,,,,,,,,,,,,,092,001,2019_Aug_29_1308,MusicAffectPsychophysiology2019,3.0.5,60.03105658378838,
To what extent did the music make you feel ,ANGRY,30MonoWAV/30MonoT4.wav,2,1,4,16,,,,,0,2,2,15,0,0,0,2,,,3,3.1538823370065074,3,2.2355371229932643,3,1.9697245879797265,1,1.336111864016857,092,001,2019_Aug_29_1308,MusicAffectPsychophysiology2019,3.0.5,60.03105658378838,
To what extent did the music make you feel ,GUILTY,30MonoWAV/30MonoT4.wav,2,1,4,16,,,,,0,2,2,15,0,1,1,5,,,,,,,,,1,0.7686952340009157,092,001,2019_Aug_29_1308,MusicAffectPsychophysiology2019,3.0.5,60.03105658378838,
To what extent did the music make you feel ,EXCITED,30MonoWAV/30MonoT4.wav,2,1,4,16,,,,,0,2,2,15,0,2,2,7,,,,,,,,,3,1.302346400974784,092,001,2019_Aug_29_1308,MusicAffectPsychophysiology2019,3.0.5,60.03105658378838,
To what extent did the music make you feel ,ANXIOUS ,30MonoWAV/30MonoT4.wav,2,1,4,16,,,,,0,2,2,15,0,3,3,1,,,,,,,,,1,1.3536520399793517,092,001,2019_Aug_29_1308,MusicAffectPsychophysiology2019,3.0.5,60.03105658378838,
To what extent did the music make you feel ,HAPPY,30MonoWAV/30MonoT4.wav,2,1,4,16,,,,,0,2,2,15,0,4,4,6,,,,,,,,,3,3.998195123014739,092,001,2019_Aug_29_1308,MusicAffectPsychophysiology2019,3.0.5,60.03105658378838,
To what extent did the music make you feel ,ALERT,30MonoWAV/30MonoT4.wav,2,1,4,16,,,,,0,2,2,15,0,5,5,8,,,,,,,,,1,4.31882305900217,092,001,2019_Aug_29_1308,MusicAffectPsychophysiology2019,3.0.5,60.03105658378838,
To what extent did the music make you feel ,ACTIVE,30MonoWAV/30MonoT4.wav,2,1,4,16,,,,,0,2,2,15,0,6,6,9,,,,,,,,,3,2.4188927490031347,092,001,2019_Aug_29_1308,MusicAffectPsychophysiology2019,3.0.5,60.03105658378838,
To what extent did the music make you feel ,TENDER,30MonoWAV/30MonoT4.wav,2,1,4,16,,,,,0,2,2,15,0,7,7,10,,,,,,,,,1,1.219362418021774,092,001,2019_Aug_29_1308,MusicAffectPsychophysiology2019,3.0.5,60.03105658378838,
To what extent did the music make you feel ,SCARED,30MonoWAV/30MonoT4.wav,2,1,4,16,,,,,0,2,2,15,0,8,8,11,,,,,,,,,1,1.1506601699802559,092,001,2019_Aug_29_1308,MusicAffectPsychophysiology2019,3.0.5,60.03105658378838,
To what extent did the music make you feel ,ASHAMED,30MonoWAV/30MonoT4.wav,2,1,4,16,,,,,0,2,2,15,0,9,9,4,,,,,,,,,1,1.0528683259908576,092,001,2019_Aug_29_1308,MusicAffectPsychophysiology2019,3.0.5,60.03105658378838,
To what extent did the music make you feel ,FRUSTRATED,30MonoWAV/30MonoT4.wav,2,1,4,16,,,,,0,2,2,15,0,10,10,3,,,,,,,,,1,1.0208427390025463,092,001,2019_Aug_29_1308,MusicAffectPsychophysiology2019,3.0.5,60.03105658378838,
To what extent did the music make you feel ,SAD,30MonoWAV/30MonoT4.wav,2,1,4,16,,,,,0,2,2,15,0,11,11,0,,,,,,,,,1,0.9692612500221003,092,001,2019_Aug_29_1308,MusicAffectPsychophysiology2019,3.0.5,60.03105658378838,
,,30MonoWAV/30MonoT4.wav,2,1,4,16,,,,,0,2,2,15,,,,,,,,,,,,,,,092,001,2019_Aug_29_1308,MusicAffectPsychophysiology2019,3.0.5,60.03105658378838,
To what extent did the music make you feel ,ANXIOUS ,30MonoWAV/30MonoS2.wav,1,1,3,10,,,,,0,3,3,9,0,0,0,1,,,1,2.8024449110089336,1,2.5530554080032744,1,0.9503108710050583,3,2.967350129998522,092,001,2019_Aug_29_1308,MusicAffectPsychophysiology2019,3.0.5,60.03105658378838,
To what extent did the music make you feel ,TENDER,30MonoWAV/30MonoS2.wav,1,1,3,10,,,,,0,3,3,9,0,1,1,10,,,,,,,,,1,1.2022263040125836,092,001,2019_Aug_29_1308,MusicAffectPsychophysiology2019,3.0.5,60.03105658378838,
To what extent did the music make you feel ,HAPPY,30MonoWAV/30MonoS2.wav,1,1,3,10,,,,,0,3,3,9,0,2,2,6,,,,,,,,,1,1.285698378982488,092,001,2019_Aug_29_1308,MusicAffectPsychophysiology2019,3.0.5,60.03105658378838,
To what extent did the music make you feel ,GUILTY,30MonoWAV/30MonoS2.wav,1,1,3,10,,,,,0,3,3,9,0,3,3,5,,,,,,,,,1,0.7683691660058685,092,001,2019_Aug_29_1308,MusicAffectPsychophysiology2019,3.0.5,60.03105658378838,
To what extent did the music make you feel ,ASHAMED,30MonoWAV/30MonoS2.wav,1,1,3,10,,,,,0,3,3,9,0,4,4,4,,,,,,,,,1,1.0028113330190536,092,001,2019_Aug_29_1308,MusicAffectPsychophysiology2019,3.0.5,60.03105658378838,
To what extent did the music make you feel ,ALERT,30MonoWAV/30MonoS2.wav,1,1,3,10,,,,,0,3,3,9,0,5,5,8,,,,,,,,,1,2.2502539190172683,092,001,2019_Aug_29_1308,MusicAffectPsychophysiology2019,3.0.5,60.03105658378838,
To what extent did the music make you feel ,SCARED,30MonoWAV/30MonoS2.wav,1,1,3,10,,,,,0,3,3,9,0,6,6,11,,,,,,,,,1,2.63606915899436,092,001,2019_Aug_29_1308,MusicAffectPsychophysiology2019,3.0.5,60.03105658378838,
To what extent did the music make you feel ,FRUSTRATED,30MonoWAV/30MonoS2.wav,1,1,3,10,,,,,0,3,3,9,0,7,7,3,,,,,,,,,1,0.9858735989837442,092,001,2019_Aug_29_1308,MusicAffectPsychophysiology2019,3.0.5,60.03105658378838,
To what extent did the music make you feel ,SAD,30MonoWAV/30MonoS2.wav,1,1,3,10,,,,,0,3,3,9,0,8,8,0,,,,,,,,,4,2.166955362976296,092,001,2019_Aug_29_1308,MusicAffectPsychophysiology2019,3.0.5,60.03105658378838,
To what extent did the music make you feel ,ANGRY,30MonoWAV/30MonoS2.wav,1,1,3,10,,,,,0,3,3,9,0,9,9,2,,,,,,,,,1,1.103188773005968,092,001,2019_Aug_29_1308,MusicAffectPsychophysiology2019,3.0.5,60.03105658378838,
To what extent did the music make you feel ,EXCITED,30MonoWAV/30MonoS2.wav,1,1,3,10,,,,,0,3,3,9,0,10,10,7,,,,,,,,,1,3.019134693982778,092,001,2019_Aug_29_1308,MusicAffectPsychophysiology2019,3.0.5,60.03105658378838,
To what extent did the music make you feel ,ACTIVE,30MonoWAV/30MonoS2.wav,1,1,3,10,,,,,0,3,3,9,0,11,11,9,,,,,,,,,1,1.9690273239975795,092,001,2019_Aug_29_1308,MusicAffectPsychophysiology2019,3.0.5,60.03105658378838,
,,30MonoWAV/30MonoS2.wav,1,1,3,10,,,,,0,3,3,9,,,,,,,,,,,,,,,092,001,2019_Aug_29_1308,MusicAffectPsychophysiology2019,3.0.5,60.03105658378838,
To what extent did the music make you feel ,EXCITED,30MonoWAV/30MonoS4.wav,1,1,3,12,,,,,0,4,4,11,0,0,0,7,,,1,3.319426736998139,1,1.4704040309879929,1,0.9508298319997266,1,1.21123436500784,092,001,2019_Aug_29_1308,MusicAffectPsychophysiology2019,3.0.5,60.03105658378838,
To what extent did the music make you feel ,ASHAMED,30MonoWAV/30MonoS4.wav,1,1,3,12,,,,,0,4,4,11,0,1,1,4,,,,,,,,,1,0.836298998008715,092,001,2019_Aug_29_1308,MusicAffectPsychophysiology2019,3.0.5,60.03105658378838,
To what extent did the music make you feel ,GUILTY,30MonoWAV/30MonoS4.wav,1,1,3,12,,,,,0,4,4,11,0,2,2,5,,,,,,,,,1,0.8855689780029934,092,001,2019_Aug_29_1308,MusicAffectPsychophysiology2019,3.0.5,60.03105658378838,
To what extent did the music make you feel ,TENDER,30MonoWAV/30MonoS4.wav,1,1,3,12,,,,,0,4,4,11,0,3,3,10,,,,,,,,,1,0.7527942789893132,092,001,2019_Aug_29_1308,MusicAffectPsychophysiology2019,3.0.5,60.03105658378838,
To what extent did the music make you feel ,FRUSTRATED,30MonoWAV/30MonoS4.wav,1,1,3,12,,,,,0,4,4,11,0,4,4,3,,,,,,,,,1,0.9930603510001674,092,001,2019_Aug_29_1308,MusicAffectPsychophysiology2019,3.0.5,60.03105658378838,
To what extent did the music make you feel ,SCARED,30MonoWAV/30MonoS4.wav,1,1,3,12,,,,,0,4,4,11,0,5,5,11,,,,,,,,,1,3.5190915100101847,092,001,2019_Aug_29_1308,MusicAffectPsychophysiology2019,3.0.5,60.03105658378838,
To what extent did the music make you feel ,ACTIVE,30MonoWAV/30MonoS4.wav,1,1,3,12,,,,,0,4,4,11,0,6,6,9,,,,,,,,,1,1.2534961280180141,092,001,2019_Aug_29_1308,MusicAffectPsychophysiology2019,3.0.5,60.03105658378838,
To what extent did the music make you feel ,SAD,30MonoWAV/30MonoS4.wav,1,1,3,12,,,,,0,4,4,11,0,7,7,0,,,,,,,,,5,2.0666090349841397,092,001,2019_Aug_29_1308,MusicAffectPsychophysiology2019,3.0.5,60.03105658378838,
To what extent did the music make you feel ,HAPPY,30MonoWAV/30MonoS4.wav,1,1,3,12,,,,,0,4,4,11,0,8,8,6,,,,,,,,,1,1.1863566800020635,092,001,2019_Aug_29_1308,MusicAffectPsychophysiology2019,3.0.5,60.03105658378838,
To what extent did the music make you feel ,ANXIOUS ,30MonoWAV/30MonoS4.wav,1,1,3,12,,,,,0,4,4,11,0,9,9,1,,,,,,,,,3,1.2352459570101928,092,001,2019_Aug_29_1308,MusicAffectPsychophysiology2019,3.0.5,60.03105658378838,
To what extent did the music make you feel ,ALERT,30MonoWAV/30MonoS4.wav,1,1,3,12,,,,,0,4,4,11,0,10,10,8,,,,,,,,,1,1.0368052150006406,092,001,2019_Aug_29_1308,MusicAffectPsychophysiology2019,3.0.5,60.03105658378838,
To what extent did the music make you feel ,ANGRY,30MonoWAV/30MonoS4.wav,1,1,3,12,,,,,0,4,4,11,0,11,11,2,,,,,,,,,1,1.083693009975832,092,001,2019_Aug_29_1308,MusicAffectPsychophysiology2019,3.0.5,60.03105658378838,
,,30MonoWAV/30MonoS4.wav,1,1,3,12,,,,,0,4,4,11,,,,,,,,,,,,,,,092,001,2019_Aug_29_1308,MusicAffectPsychophysiology2019,3.0.5,60.03105658378838,
To what extent did the music make you feel ,GUILTY,30MonoWAV/30MonoF3.wav,1,2,2,3,,,,,0,5,5,2,0,0,0,5,,,2,5.218354437005473,2,1.6520876610011328,1,1.7358349470014218,1,2.3863294889742974,092,001,2019_Aug_29_1308,MusicAffectPsychophysiology2019,3.0.5,60.03105658378838,
To what extent did the music make you feel ,ANGRY,30MonoWAV/30MonoF3.wav,1,2,2,3,,,,,0,5,5,2,0,1,1,2,,,,,,,,,1,1.0531948379939422,092,001,2019_Aug_29_1308,MusicAffectPsychophysiology2019,3.0.5,60.03105658378838,
To what extent did the music make you feel ,SAD,30MonoWAV/30MonoF3.wav,1,2,2,3,,,,,0,5,5,2,0,2,2,0,,,,,,,,,2,2.604141825984698,092,001,2019_Aug_29_1308,MusicAffectPsychophysiology2019,3.0.5,60.03105658378838,
To what extent did the music make you feel ,ALERT,30MonoWAV/30MonoF3.wav,1,2,2,3,,,,,0,5,5,2,0,3,3,8,,,,,,,,,3,1.0870024309842847,092,001,2019_Aug_29_1308,MusicAffectPsychophysiology2019,3.0.5,60.03105658378838,
To what extent did the music make you feel ,ACTIVE,30MonoWAV/30MonoF3.wav,1,2,2,3,,,,,0,5,5,2,0,4,4,9,,,,,,,,,3,1.4695132900087629,092,001,2019_Aug_29_1308,MusicAffectPsychophysiology2019,3.0.5,60.03105658378838,
To what extent did the music make you feel ,HAPPY,30MonoWAV/30MonoF3.wav,1,2,2,3,,,,,0,5,5,2,0,5,5,6,,,,,,,,,1,0.9361517379875295,092,001,2019_Aug_29_1308,MusicAffectPsychophysiology2019,3.0.5,60.03105658378838,
To what extent did the music make you feel ,ANXIOUS ,30MonoWAV/30MonoF3.wav,1,2,2,3,,,,,0,5,5,2,0,6,6,1,,,,,,,,,3,1.0523735670140013,092,001,2019_Aug_29_1308,MusicAffectPsychophysiology2019,3.0.5,60.03105658378838,
To what extent did the music make you feel ,FRUSTRATED,30MonoWAV/30MonoF3.wav,1,2,2,3,,,,,0,5,5,2,0,7,7,3,,,,,,,,,1,0.8190891100093722,092,001,2019_Aug_29_1308,MusicAffectPsychophysiology2019,3.0.5,60.03105658378838,
To what extent did the music make you feel ,EXCITED,30MonoWAV/30MonoF3.wav,1,2,2,3,,,,,0,5,5,2,0,8,8,7,,,,,,,,,1,1.7184252070146613,092,001,2019_Aug_29_1308,MusicAffectPsychophysiology2019,3.0.5,60.03105658378838,
To what extent did the music make you feel ,ASHAMED,30MonoWAV/30MonoF3.wav,1,2,2,3,,,,,0,5,5,2,0,9,9,4,,,,,,,,,1,0.9191062449826859,092,001,2019_Aug_29_1308,MusicAffectPsychophysiology2019,3.0.5,60.03105658378838,
To what extent did the music make you feel ,SCARED,30MonoWAV/30MonoF3.wav,1,2,2,3,,,,,0,5,5,2,0,10,10,11,,,,,,,,,1,0.8023535230022389,092,001,2019_Aug_29_1308,MusicAffectPsychophysiology2019,3.0.5,60.03105658378838,
To what extent did the music make you feel ,TENDER,30MonoWAV/30MonoF3.wav,1,2,2,3,,,,,0,5,5,2,0,11,11,10,,,,,,,,,1,0.7195871560252272,092,001,2019_Aug_29_1308,MusicAffectPsychophysiology2019,3.0.5,60.03105658378838,
,,30MonoWAV/30MonoF3.wav,1,2,2,3,,,,,0,5,5,2,,,,,,,,,,,,,,,092,001,2019_Aug_29_1308,MusicAffectPsychophysiology2019,3.0.5,60.03105658378838,
To what extent did the music make you feel ,ANGRY,30MonoWAV/30MonoF1.wav,1,2,2,1,,,,,0,6,6,0,0,0,0,2,,,4,4.002175962988986,1,1.3365933189925272,1,1.7856671570043545,1,1.5463952959980816,092,001,2019_Aug_29_1308,MusicAffectPsychophysiology2019,3.0.5,60.03105658378838,
To what extent did the music make you feel ,ANXIOUS ,30MonoWAV/30MonoF1.wav,1,2,2,1,,,,,0,6,6,0,0,1,1,1,,,,,,,,,5,2.1530345609935466,092,001,2019_Aug_29_1308,MusicAffectPsychophysiology2019,3.0.5,60.03105658378838,
To what extent did the music make you feel ,FRUSTRATED,30MonoWAV/30MonoF1.wav,1,2,2,1,,,,,0,6,6,0,0,2,2,3,,,,,,,,,2,3.0283519289805554,092,001,2019_Aug_29_1308,MusicAffectPsychophysiology2019,3.0.5,60.03105658378838,
To what extent did the music make you feel ,SAD,30MonoWAV/30MonoF1.wav,1,2,2,1,,,,,0,6,6,0,0,3,3,0,,,,,,,,,4,1.2527061739820056,092,001,2019_Aug_29_1308,MusicAffectPsychophysiology2019,3.0.5,60.03105658378838,
To what extent did the music make you feel ,ACTIVE,30MonoWAV/30MonoF1.wav,1,2,2,1,,,,,0,6,6,0,0,4,4,9,,,,,,,,,4,2.0189073249930516,092,001,2019_Aug_29_1308,MusicAffectPsychophysiology2019,3.0.5,60.03105658378838,
To what extent did the music make you feel ,SCARED,30MonoWAV/30MonoF1.wav,1,2,2,1,,,,,0,6,6,0,0,5,5,11,,,,,,,,,4,1.584094866993837,092,001,2019_Aug_29_1308,MusicAffectPsychophysiology2019,3.0.5,60.03105658378838,
To what extent did the music make you feel ,ASHAMED,30MonoWAV/30MonoF1.wav,1,2,2,1,,,,,0,6,6,0,0,6,6,4,,,,,,,,,1,0.9689995220105629,092,001,2019_Aug_29_1308,MusicAffectPsychophysiology2019,3.0.5,60.03105658378838,
To what extent did the music make you feel ,HAPPY,30MonoWAV/30MonoF1.wav,1,2,2,1,,,,,0,6,6,0,0,7,7,6,,,,,,,,,1,2.599850451981183,092,001,2019_Aug_29_1308,MusicAffectPsychophysiology2019,3.0.5,60.03105658378838,
To what extent did the music make you feel ,GUILTY,30MonoWAV/30MonoF1.wav,1,2,2,1,,,,,0,6,6,0,0,8,8,5,,,,,,,,,1,1.8166215690143872,092,001,2019_Aug_29_1308,MusicAffectPsychophysiology2019,3.0.5,60.03105658378838,
To what extent did the music make you feel ,EXCITED,30MonoWAV/30MonoF1.wav,1,2,2,1,,,,,0,6,6,0,0,9,9,7,,,,,,,,,1,1.2367317530151922,092,001,2019_Aug_29_1308,MusicAffectPsychophysiology2019,3.0.5,60.03105658378838,
To what extent did the music make you feel ,TENDER,30MonoWAV/30MonoF1.wav,1,2,2,1,,,,,0,6,6,0,0,10,10,10,,,,,,,,,1,1.8941663009754848,092,001,2019_Aug_29_1308,MusicAffectPsychophysiology2019,3.0.5,60.03105658378838,
To what extent did the music make you feel ,ALERT,30MonoWAV/30MonoF1.wav,1,2,2,1,,,,,0,6,6,0,0,11,11,8,,,,,,,,,4,2.2529641469882336,092,001,2019_Aug_29_1308,MusicAffectPsychophysiology2019,3.0.5,60.03105658378838,
,,30MonoWAV/30MonoF1.wav,1,2,2,1,,,,,0,6,6,0,,,,,,,,,,,,,,,092,001,2019_Aug_29_1308,MusicAffectPsychophysiology2019,3.0.5,60.03105658378838,
To what extent did the music make you feel ,TENDER,30MonoWAV/30MonoT1.wav,2,1,4,13,,,,,0,7,7,12,0,0,0,10,,,2,3.9699295070022345,3,2.870138006983325,2,2.536384122999152,2,5.485004257003311,092,001,2019_Aug_29_1308,MusicAffectPsychophysiology2019,3.0.5,60.03105658378838,
To what extent did the music make you feel ,ASHAMED,30MonoWAV/30MonoT1.wav,2,1,4,13,,,,,0,7,7,12,0,1,1,4,,,,,,,,,1,1.0019169540028088,092,001,2019_Aug_29_1308,MusicAffectPsychophysiology2019,3.0.5,60.03105658378838,
To what extent did the music make you feel ,FRUSTRATED,30MonoWAV/30MonoT1.wav,2,1,4,13,,,,,0,7,7,12,0,2,2,3,,,,,,,,,1,1.3861877140006982,092,001,2019_Aug_29_1308,MusicAffectPsychophysiology2019,3.0.5,60.03105658378838,
To what extent did the music make you feel ,EXCITED,30MonoWAV/30MonoT1.wav,2,1,4,13,,,,,0,7,7,12,0,3,3,7,,,,,,,,,3,1.8859355589956976,092,001,2019_Aug_29_1308,MusicAffectPsychophysiology2019,3.0.5,60.03105658378838,
To what extent did the music make you feel ,ALERT,30MonoWAV/30MonoT1.wav,2,1,4,13,,,,,0,7,7,12,0,4,4,8,,,,,,,,,1,1.0684285259922035,092,001,2019_Aug_29_1308,MusicAffectPsychophysiology2019,3.0.5,60.03105658378838,
To what extent did the music make you feel ,SCARED,30MonoWAV/30MonoT1.wav,2,1,4,13,,,,,0,7,7,12,0,5,5,11,,,,,,,,,1,1.0039932380022947,092,001,2019_Aug_29_1308,MusicAffectPsychophysiology2019,3.0.5,60.03105658378838,
To what extent did the music make you feel ,SAD,30MonoWAV/30MonoT1.wav,2,1,4,13,,,,,0,7,7,12,0,6,6,0,,,,,,,,,3,2.803219925990561,092,001,2019_Aug_29_1308,MusicAffectPsychophysiology2019,3.0.5,60.03105658378838,
To what extent did the music make you feel ,ANXIOUS ,30MonoWAV/30MonoT1.wav,2,1,4,13,,,,,0,7,7,12,0,7,7,1,,,,,,,,,3,1.1706534179975279,092,001,2019_Aug_29_1308,MusicAffectPsychophysiology2019,3.0.5,60.03105658378838,
To what extent did the music make you feel ,ANGRY,30MonoWAV/30MonoT1.wav,2,1,4,13,,,,,0,7,7,12,0,8,8,2,,,,,,,,,1,2.15131011599442,092,001,2019_Aug_29_1308,MusicAffectPsychophysiology2019,3.0.5,60.03105658378838,
To what extent did the music make you feel ,ACTIVE,30MonoWAV/30MonoT1.wav,2,1,4,13,,,,,0,7,7,12,0,9,9,9,,,,,,,,,2,1.7035235200019088,092,001,2019_Aug_29_1308,MusicAffectPsychophysiology2019,3.0.5,60.03105658378838,
To what extent did the music make you feel ,GUILTY,30MonoWAV/30MonoT1.wav,2,1,4,13,,,,,0,7,7,12,0,10,10,5,,,,,,,,,1,1.2359539740136825,092,001,2019_Aug_29_1308,MusicAffectPsychophysiology2019,3.0.5,60.03105658378838,
To what extent did the music make you feel ,HAPPY,30MonoWAV/30MonoT1.wav,2,1,4,13,,,,,0,7,7,12,0,11,11,6,,,,,,,,,2,5.101312026003143,092,001,2019_Aug_29_1308,MusicAffectPsychophysiology2019,3.0.5,60.03105658378838,
,,30MonoWAV/30MonoT1.wav,2,1,4,13,,,,,0,7,7,12,,,,,,,,,,,,,,,092,001,2019_Aug_29_1308,MusicAffectPsychophysiology2019,3.0.5,60.03105658378838,
To what extent did the music make you feel ,ANXIOUS ,30MonoWAV/30MonoH2.wav,2,2,1,6,,,,,0,8,8,5,0,0,0,1,,,2,4.601627386000473,1,1.7865288729954045,1,1.1856175999855623,3,1.0628363830037415,092,001,2019_Aug_29_1308,MusicAffectPsychophysiology2019,3.0.5,60.03105658378838,
To what extent did the music make you feel ,HAPPY,30MonoWAV/30MonoH2.wav,2,2,1,6,,,,,0,8,8,5,0,1,1,6,,,,,,,,,3,2.552805860002991,092,001,2019_Aug_29_1308,MusicAffectPsychophysiology2019,3.0.5,60.03105658378838,
To what extent did the music make you feel ,SAD,30MonoWAV/30MonoH2.wav,2,2,1,6,,,,,0,8,8,5,0,2,2,0,,,,,,,,,1,1.3184280860004947,092,001,2019_Aug_29_1308,MusicAffectPsychophysiology2019,3.0.5,60.03105658378838,
To what extent did the music make you feel ,GUILTY,30MonoWAV/30MonoH2.wav,2,2,1,6,,,,,0,8,8,5,0,3,3,5,,,,,,,,,1,0.7868539270129986,092,001,2019_Aug_29_1308,MusicAffectPsychophysiology2019,3.0.5,60.03105658378838,
To what extent did the music make you feel ,ASHAMED,30MonoWAV/30MonoH2.wav,2,2,1,6,,,,,0,8,8,5,0,4,4,4,,,,,,,,,1,0.9860105879779439,092,001,2019_Aug_29_1308,MusicAffectPsychophysiology2019,3.0.5,60.03105658378838,
To what extent did the music make you feel ,FRUSTRATED,30MonoWAV/30MonoH2.wav,2,2,1,6,,,,,0,8,8,5,0,5,5,3,,,,,,,,,1,0.745289304992184,092,001,2019_Aug_29_1308,MusicAffectPsychophysiology2019,3.0.5,60.03105658378838,
To what extent did the music make you feel ,ALERT,30MonoWAV/30MonoH2.wav,2,2,1,6,,,,,0,8,8,5,0,6,6,8,,,,,,,,,1,0.8035992449731566,092,001,2019_Aug_29_1308,MusicAffectPsychophysiology2019,3.0.5,60.03105658378838,
To what extent did the music make you feel ,ANGRY,30MonoWAV/30MonoH2.wav,2,2,1,6,,,,,0,8,8,5,0,7,7,2,,,,,,,,,1,0.7700276940013282,092,001,2019_Aug_29_1308,MusicAffectPsychophysiology2019,3.0.5,60.03105658378838,
To what extent did the music make you feel ,ACTIVE,30MonoWAV/30MonoH2.wav,2,2,1,6,,,,,0,8,8,5,0,8,8,9,,,,,,,,,1,0.8019538270018529,092,001,2019_Aug_29_1308,MusicAffectPsychophysiology2019,3.0.5,60.03105658378838,
To what extent did the music make you feel ,EXCITED,30MonoWAV/30MonoH2.wav,2,2,1,6,,,,,0,8,8,5,0,9,9,7,,,,,,,,,2,1.4685002360201906,092,001,2019_Aug_29_1308,MusicAffectPsychophysiology2019,3.0.5,60.03105658378838,
To what extent did the music make you feel ,TENDER,30MonoWAV/30MonoH2.wav,2,2,1,6,,,,,0,8,8,5,0,10,10,10,,,,,,,,,1,0.8026462410052773,092,001,2019_Aug_29_1308,MusicAffectPsychophysiology2019,3.0.5,60.03105658378838,
To what extent did the music make you feel ,SCARED,30MonoWAV/30MonoH2.wav,2,2,1,6,,,,,0,8,8,5,0,11,11,11,,,,,,,,,1,1.5360582910070661,092,001,2019_Aug_29_1308,MusicAffectPsychophysiology2019,3.0.5,60.03105658378838,
,,30MonoWAV/30MonoH2.wav,2,2,1,6,,,,,0,8,8,5,,,,,,,,,,,,,,,092,001,2019_Aug_29_1308,MusicAffectPsychophysiology2019,3.0.5,60.03105658378838,
To what extent did the music make you feel ,GUILTY,30MonoWAV/30MonoH1.wav,2,2,1,5,,,,,0,9,9,4,0,0,0,5,,,3,5.169238333008252,3,3.152043952984968,3,1.6694846269965637,1,1.3728398680104874,092,001,2019_Aug_29_1308,MusicAffectPsychophysiology2019,3.0.5,60.03105658378838,
To what extent did the music make you feel ,ACTIVE,30MonoWAV/30MonoH1.wav,2,2,1,5,,,,,0,9,9,4,0,1,1,9,,,,,,,,,1,0.7358345749962609,092,001,2019_Aug_29_1308,MusicAffectPsychophysiology2019,3.0.5,60.03105658378838,
To what extent did the music make you feel ,SAD,30MonoWAV/30MonoH1.wav,2,2,1,5,,,,,0,9,9,4,0,2,2,0,,,,,,,,,1,1.0866069040203001,092,001,2019_Aug_29_1308,MusicAffectPsychophysiology2019,3.0.5,60.03105658378838,
To what extent did the music make you feel ,SCARED,30MonoWAV/30MonoH1.wav,2,2,1,5,,,,,0,9,9,4,0,3,3,11,,,,,,,,,1,0.790588136005681,092,001,2019_Aug_29_1308,MusicAffectPsychophysiology2019,3.0.5,60.03105658378838,
To what extent did the music make you feel ,ANXIOUS ,30MonoWAV/30MonoH1.wav,2,2,1,5,,,,,0,9,9,4,0,4,4,1,,,,,,,,,1,0.902303690003464,092,001,2019_Aug_29_1308,MusicAffectPsychophysiology2019,3.0.5,60.03105658378838,
To what extent did the music make you feel ,FRUSTRATED,30MonoWAV/30MonoH1.wav,2,2,1,5,,,,,0,9,9,4,0,5,5,3,,,,,,,,,1,0.8389930980047211,092,001,2019_Aug_29_1308,MusicAffectPsychophysiology2019,3.0.5,60.03105658378838,
To what extent did the music make you feel ,ALERT,30MonoWAV/30MonoH1.wav,2,2,1,5,,,,,0,9,9,4,0,6,6,8,,,,,,,,,3,1.968372171977535,092,001,2019_Aug_29_1308,MusicAffectPsychophysiology2019,3.0.5,60.03105658378838,
To what extent did the music make you feel ,HAPPY,30MonoWAV/30MonoH1.wav,2,2,1,5,,,,,0,9,9,4,0,7,7,6,,,,,,,,,4,0.9189159139932599,092,001,2019_Aug_29_1308,MusicAffectPsychophysiology2019,3.0.5,60.03105658378838,
To what extent did the music make you feel ,TENDER,30MonoWAV/30MonoH1.wav,2,2,1,5,,,,,0,9,9,4,0,8,8,10,,,,,,,,,1,1.0687266699969769,092,001,2019_Aug_29_1308,MusicAffectPsychophysiology2019,3.0.5,60.03105658378838,
To what extent did the music make you feel ,ANGRY,30MonoWAV/30MonoH1.wav,2,2,1,5,,,,,0,9,9,4,0,9,9,2,,,,,,,,,1,1.2855180439946707,092,001,2019_Aug_29_1308,MusicAffectPsychophysiology2019,3.0.5,60.03105658378838,
To what extent did the music make you feel ,ASHAMED,30MonoWAV/30MonoH1.wav,2,2,1,5,,,,,0,9,9,4,0,10,10,4,,,,,,,,,1,0.8202532739960589,092,001,2019_Aug_29_1308,MusicAffectPsychophysiology2019,3.0.5,60.03105658378838,
To what extent did the music make you feel ,EXCITED,30MonoWAV/30MonoH1.wav,2,2,1,5,,,,,0,9,9,4,0,11,11,7,,,,,,,,,3,1.1858593880024273,092,001,2019_Aug_29_1308,MusicAffectPsychophysiology2019,3.0.5,60.03105658378838,
,,30MonoWAV/30MonoH1.wav,2,2,1,5,,,,,0,9,9,4,,,,,,,,,,,,,,,092,001,2019_Aug_29_1308,MusicAffectPsychophysiology2019,3.0.5,60.03105658378838,
To what extent did the music make you feel ,ANXIOUS ,30MonoWAV/30MonoT2.wav,2,1,4,14,,,,,0,10,10,13,0,0,0,1,,,1,3.102386487997137,2,2.68675694099511,1,0.8852900580095593,1,1.6832586969831027,092,001,2019_Aug_29_1308,MusicAffectPsychophysiology2019,3.0.5,60.03105658378838,
To what extent did the music make you feel ,EXCITED,30MonoWAV/30MonoT2.wav,2,1,4,14,,,,,0,10,10,13,0,1,1,7,,,,,,,,,2,0.9185520600003656,092,001,2019_Aug_29_1308,MusicAffectPsychophysiology2019,3.0.5,60.03105658378838,
To what extent did the music make you feel ,ANGRY,30MonoWAV/30MonoT2.wav,2,1,4,14,,,,,0,10,10,13,0,2,2,2,,,,,,,,,1,0.7533215919975191,092,001,2019_Aug_29_1308,MusicAffectPsychophysiology2019,3.0.5,60.03105658378838,
To what extent did the music make you feel ,ACTIVE,30MonoWAV/30MonoT2.wav,2,1,4,14,,,,,0,10,10,13,0,3,3,9,,,,,,,,,2,1.3693576689984184,092,001,2019_Aug_29_1308,MusicAffectPsychophysiology2019,3.0.5,60.03105658378838,
To what extent did the music make you feel ,HAPPY,30MonoWAV/30MonoT2.wav,2,1,4,14,,,,,0,10,10,13,0,4,4,6,,,,,,,,,3,1.304301652009599,092,001,2019_Aug_29_1308,MusicAffectPsychophysiology2019,3.0.5,60.03105658378838,
To what extent did the music make you feel ,SAD,30MonoWAV/30MonoT2.wav,2,1,4,14,,,,,0,10,10,13,0,5,5,0,,,,,,,,,1,0.8333091850217897,092,001,2019_Aug_29_1308,MusicAffectPsychophysiology2019,3.0.5,60.03105658378838,
To what extent did the music make you feel ,SCARED,30MonoWAV/30MonoT2.wav,2,1,4,14,,,,,0,10,10,13,0,6,6,11,,,,,,,,,1,0.9837091150111519,092,001,2019_Aug_29_1308,MusicAffectPsychophysiology2019,3.0.5,60.03105658378838,
To what extent did the music make you feel ,ASHAMED,30MonoWAV/30MonoT2.wav,2,1,4,14,,,,,0,10,10,13,0,7,7,4,,,,,,,,,1,0.903534123004647,092,001,2019_Aug_29_1308,MusicAffectPsychophysiology2019,3.0.5,60.03105658378838,
To what extent did the music make you feel ,ALERT,30MonoWAV/30MonoT2.wav,2,1,4,14,,,,,0,10,10,13,0,8,8,8,,,,,,,,,1,2.385526675992878,092,001,2019_Aug_29_1308,MusicAffectPsychophysiology2019,3.0.5,60.03105658378838,
To what extent did the music make you feel ,GUILTY,30MonoWAV/30MonoT2.wav,2,1,4,14,,,,,0,10,10,13,0,9,9,5,,,,,,,,,1,0.8193405110214371,092,001,2019_Aug_29_1308,MusicAffectPsychophysiology2019,3.0.5,60.03105658378838,
To what extent did the music make you feel ,TENDER,30MonoWAV/30MonoT2.wav,2,1,4,14,,,,,0,10,10,13,0,10,10,10,,,,,,,,,1,0.7002013720048126,092,001,2019_Aug_29_1308,MusicAffectPsychophysiology2019,3.0.5,60.03105658378838,
To what extent did the music make you feel ,FRUSTRATED,30MonoWAV/30MonoT2.wav,2,1,4,14,,,,,0,10,10,13,0,11,11,3,,,,,,,,,1,0.8875577660219278,092,001,2019_Aug_29_1308,MusicAffectPsychophysiology2019,3.0.5,60.03105658378838,
,,30MonoWAV/30MonoT2.wav,2,1,4,14,,,,,0,10,10,13,,,,,,,,,,,,,,,092,001,2019_Aug_29_1308,MusicAffectPsychophysiology2019,3.0.5,60.03105658378838,
To what extent did the music make you feel ,ACTIVE,30MonoWAV/30MonoF4.wav,1,2,2,4,,,,,0,11,11,3,0,0,0,9,,,4,2.8861797970021144,1,4.302668491989607,2,1.368526275997283,4,1.4768232849892229,092,001,2019_Aug_29_1308,MusicAffectPsychophysiology2019,3.0.5,60.03105658378838,
To what extent did the music make you feel ,ASHAMED,30MonoWAV/30MonoF4.wav,1,2,2,4,,,,,0,11,11,3,0,1,1,4,,,,,,,,,1,0.9862037659913767,092,001,2019_Aug_29_1308,MusicAffectPsychophysiology2019,3.0.5,60.03105658378838,
To what extent did the music make you feel ,ANGRY,30MonoWAV/30MonoF4.wav,1,2,2,4,,,,,0,11,11,3,0,2,2,2,,,,,,,,,1,1.0188693040108774,092,001,2019_Aug_29_1308,MusicAffectPsychophysiology2019,3.0.5,60.03105658378838,
To what extent did the music make you feel ,TENDER,30MonoWAV/30MonoF4.wav,1,2,2,4,,,,,0,11,11,3,0,3,3,10,,,,,,,,,1,4.050400068023009,092,001,2019_Aug_29_1308,MusicAffectPsychophysiology2019,3.0.5,60.03105658378838,
To what extent did the music make you feel ,FRUSTRATED,30MonoWAV/30MonoF4.wav,1,2,2,4,,,,,0,11,11,3,0,4,4,3,,,,,,,,,2,2.441815090016462,092,001,2019_Aug_29_1308,MusicAffectPsychophysiology2019,3.0.5,60.03105658378838,
To what extent did the music make you feel ,GUILTY,30MonoWAV/30MonoF4.wav,1,2,2,4,,,,,0,11,11,3,0,5,5,5,,,,,,,,,1,0.7363489919807762,092,001,2019_Aug_29_1308,MusicAffectPsychophysiology2019,3.0.5,60.03105658378838,
To what extent did the music make you feel ,ALERT,30MonoWAV/30MonoF4.wav,1,2,2,4,,,,,0,11,11,3,0,6,6,8,,,,,,,,,5,5.301422922988422,092,001,2019_Aug_29_1308,MusicAffectPsychophysiology2019,3.0.5,60.03105658378838,
To what extent did the music make you feel ,ANXIOUS ,30MonoWAV/30MonoF4.wav,1,2,2,4,,,,,0,11,11,3,0,7,7,1,,,,,,,,,4,1.536108536995016,092,001,2019_Aug_29_1308,MusicAffectPsychophysiology2019,3.0.5,60.03105658378838,
To what extent did the music make you feel ,SCARED,30MonoWAV/30MonoF4.wav,1,2,2,4,,,,,0,11,11,3,0,8,8,11,,,,,,,,,1,2.219038109993562,092,001,2019_Aug_29_1308,MusicAffectPsychophysiology2019,3.0.5,60.03105658378838,
To what extent did the music make you feel ,EXCITED,30MonoWAV/30MonoF4.wav,1,2,2,4,,,,,0,11,11,3,0,9,9,7,,,,,,,,,2,1.4026517400052398,092,001,2019_Aug_29_1308,MusicAffectPsychophysiology2019,3.0.5,60.03105658378838,
To what extent did the music make you feel ,HAPPY,30MonoWAV/30MonoF4.wav,1,2,2,4,,,,,0,11,11,3,0,10,10,6,,,,,,,,,1,0.7863580520206597,092,001,2019_Aug_29_1308,MusicAffectPsychophysiology2019,3.0.5,60.03105658378838,
To what extent did the music make you feel ,SAD,30MonoWAV/30MonoF4.wav,1,2,2,4,,,,,0,11,11,3,0,11,11,0,,,,,,,,,3,1.3029597059939988,092,001,2019_Aug_29_1308,MusicAffectPsychophysiology2019,3.0.5,60.03105658378838,
,,30MonoWAV/30MonoF4.wav,1,2,2,4,,,,,0,11,11,3,,,,,,,,,,,,,,,092,001,2019_Aug_29_1308,MusicAffectPsychophysiology2019,3.0.5,60.03105658378838,
To what extent did the music make you feel ,ANXIOUS ,30MonoWAV/30MonoT3.wav,2,1,4,15,,,,,0,12,12,14,0,0,0,1,,,2,3.486394826992182,3,1.3191735410073306,2,2.466222942020977,1,1.1868796510098036,092,001,2019_Aug_29_1308,MusicAffectPsychophysiology2019,3.0.5,60.03105658378838,
To what extent did the music make you feel ,SCARED,30MonoWAV/30MonoT3.wav,2,1,4,15,,,,,0,12,12,14,0,1,1,11,,,,,,,,,1,0.7698521619895473,092,001,2019_Aug_29_1308,MusicAffectPsychophysiology2019,3.0.5,60.03105658378838,
To what extent did the music make you feel ,ANGRY,30MonoWAV/30MonoT3.wav,2,1,4,15,,,,,0,12,12,14,0,2,2,2,,,,,,,,,1,0.6355339490110055,092,001,2019_Aug_29_1308,MusicAffectPsychophysiology2019,3.0.5,60.03105658378838,
To what extent did the music make you feel ,TENDER,30MonoWAV/30MonoT3.wav,2,1,4,15,,,,,0,12,12,14,0,3,3,10,,,,,,,,,1,0.6866515000001527,092,001,2019_Aug_29_1308,MusicAffectPsychophysiology2019,3.0.5,60.03105658378838,
To what extent did the music make you feel ,GUILTY,30MonoWAV/30MonoT3.wav,2,1,4,15,,,,,0,12,12,14,0,4,4,5,,,,,,,,,1,0.7692036480002571,092,001,2019_Aug_29_1308,MusicAffectPsychophysiology2019,3.0.5,60.03105658378838,
To what extent did the music make you feel ,ALERT,30MonoWAV/30MonoT3.wav,2,1,4,15,,,,,0,12,12,14,0,5,5,8,,,,,,,,,1,1.4338229880086146,092,001,2019_Aug_29_1308,MusicAffectPsychophysiology2019,3.0.5,60.03105658378838,
To what extent did the music make you feel ,SAD,30MonoWAV/30MonoT3.wav,2,1,4,15,,,,,0,12,12,14,0,6,6,0,,,,,,,,,1,0.8862444180122111,092,001,2019_Aug_29_1308,MusicAffectPsychophysiology2019,3.0.5,60.03105658378838,
To what extent did the music make you feel ,EXCITED,30MonoWAV/30MonoT3.wav,2,1,4,15,,,,,0,12,12,14,0,7,7,7,,,,,,,,,3,1.1529735119838733,092,001,2019_Aug_29_1308,MusicAffectPsychophysiology2019,3.0.5,60.03105658378838,
To what extent did the music make you feel ,ACTIVE,30MonoWAV/30MonoT3.wav,2,1,4,15,,,,,0,12,12,14,0,8,8,9,,,,,,,,,2,1.3854417119873688,092,001,2019_Aug_29_1308,MusicAffectPsychophysiology2019,3.0.5,60.03105658378838,
To what extent did the music make you feel ,FRUSTRATED,30MonoWAV/30MonoT3.wav,2,1,4,15,,,,,0,12,12,14,0,9,9,3,,,,,,,,,1,0.8536872090189718,092,001,2019_Aug_29_1308,MusicAffectPsychophysiology2019,3.0.5,60.03105658378838,
To what extent did the music make you feel ,ASHAMED,30MonoWAV/30MonoT3.wav,2,1,4,15,,,,,0,12,12,14,0,10,10,4,,,,,,,,,1,1.2018395720224362,092,001,2019_Aug_29_1308,MusicAffectPsychophysiology2019,3.0.5,60.03105658378838,
To what extent did the music make you feel ,HAPPY,30MonoWAV/30MonoT3.wav,2,1,4,15,,,,,0,12,12,14,0,11,11,6,,,,,,,,,3,1.4705868719902355,092,001,2019_Aug_29_1308,MusicAffectPsychophysiology2019,3.0.5,60.03105658378838,
,,30MonoWAV/30MonoT3.wav,2,1,4,15,,,,,0,12,12,14,,,,,,,,,,,,,,,092,001,2019_Aug_29_1308,MusicAffectPsychophysiology2019,3.0.5,60.03105658378838,
To what extent did the music make you feel ,FRUSTRATED,30MonoWAV/30MonoH4.wav,2,2,1,8,,,,,0,13,13,7,0,0,0,3,,,2,2.768731904012384,2,1.2693521670007613,1,1.152570222999202,2,1.2791790409828536,092,001,2019_Aug_29_1308,MusicAffectPsychophysiology2019,3.0.5,60.03105658378838,
To what extent did the music make you feel ,ANGRY,30MonoWAV/30MonoH4.wav,2,2,1,8,,,,,0,13,13,7,0,1,1,2,,,,,,,,,1,1.0357921580143739,092,001,2019_Aug_29_1308,MusicAffectPsychophysiology2019,3.0.5,60.03105658378838,
To what extent did the music make you feel ,ANXIOUS ,30MonoWAV/30MonoH4.wav,2,2,1,8,,,,,0,13,13,7,0,2,2,1,,,,,,,,,3,1.3527999490033835,092,001,2019_Aug_29_1308,MusicAffectPsychophysiology2019,3.0.5,60.03105658378838,
To what extent did the music make you feel ,HAPPY,30MonoWAV/30MonoH4.wav,2,2,1,8,,,,,0,13,13,7,0,3,3,6,,,,,,,,,3,2.9195146780111827,092,001,2019_Aug_29_1308,MusicAffectPsychophysiology2019,3.0.5,60.03105658378838,
To what extent did the music make you feel ,ALERT,30MonoWAV/30MonoH4.wav,2,2,1,8,,,,,0,13,13,7,0,4,4,8,,,,,,,,,1,1.0357744290085975,092,001,2019_Aug_29_1308,MusicAffectPsychophysiology2019,3.0.5,60.03105658378838,
To what extent did the music make you feel ,TENDER,30MonoWAV/30MonoH4.wav,2,2,1,8,,,,,0,13,13,7,0,5,5,10,,,,,,,,,1,0.6853371530014556,092,001,2019_Aug_29_1308,MusicAffectPsychophysiology2019,3.0.5,60.03105658378838,
To what extent did the music make you feel ,ASHAMED,30MonoWAV/30MonoH4.wav,2,2,1,8,,,,,0,13,13,7,0,6,6,4,,,,,,,,,1,0.5359729260089807,092,001,2019_Aug_29_1308,MusicAffectPsychophysiology2019,3.0.5,60.03105658378838,
To what extent did the music make you feel ,SCARED,30MonoWAV/30MonoH4.wav,2,2,1,8,,,,,0,13,13,7,0,7,7,11,,,,,,,,,1,0.6542920700157993,092,001,2019_Aug_29_1308,MusicAffectPsychophysiology2019,3.0.5,60.03105658378838,
To what extent did the music make you feel ,EXCITED,30MonoWAV/30MonoH4.wav,2,2,1,8,,,,,0,13,13,7,0,8,8,7,,,,,,,,,3,1.2853317330009304,092,001,2019_Aug_29_1308,MusicAffectPsychophysiology2019,3.0.5,60.03105658378838,
To what extent did the music make you feel ,SAD,30MonoWAV/30MonoH4.wav,2,2,1,8,,,,,0,13,13,7,0,9,9,0,,,,,,,,,1,0.8861076369939838,092,001,2019_Aug_29_1308,MusicAffectPsychophysiology2019,3.0.5,60.03105658378838,
To what extent did the music make you feel ,GUILTY,30MonoWAV/30MonoH4.wav,2,2,1,8,,,,,0,13,13,7,0,10,10,5,,,,,,,,,1,0.8028011029819027,092,001,2019_Aug_29_1308,MusicAffectPsychophysiology2019,3.0.5,60.03105658378838,
To what extent did the music make you feel ,ACTIVE,30MonoWAV/30MonoH4.wav,2,2,1,8,,,,,0,13,13,7,0,11,11,9,,,,,,,,,1,1.0703874369792175,092,001,2019_Aug_29_1308,MusicAffectPsychophysiology2019,3.0.5,60.03105658378838,
,,30MonoWAV/30MonoH4.wav,2,2,1,8,,,,,0,13,13,7,,,,,,,,,,,,,,,092,001,2019_Aug_29_1308,MusicAffectPsychophysiology2019,3.0.5,60.03105658378838,
To what extent did the music make you feel ,ALERT,30MonoWAV/30MonoH3.wav,2,2,1,7,,,,,0,14,14,6,0,0,0,8,,,3,3.7373457069916185,3,1.3525482759869192,2,1.385126038978342,1,1.3558117500215303,092,001,2019_Aug_29_1308,MusicAffectPsychophysiology2019,3.0.5,60.03105658378838,
To what extent did the music make you feel ,GUILTY,30MonoWAV/30MonoH3.wav,2,2,1,7,,,,,0,14,14,6,0,1,1,5,,,,,,,,,1,1.6027391239767894,092,001,2019_Aug_29_1308,MusicAffectPsychophysiology2019,3.0.5,60.03105658378838,
To what extent did the music make you feel ,SCARED,30MonoWAV/30MonoH3.wav,2,2,1,7,,,,,0,14,14,6,0,2,2,11,,,,,,,,,1,0.6358204070129432,092,001,2019_Aug_29_1308,MusicAffectPsychophysiology2019,3.0.5,60.03105658378838,
To what extent did the music make you feel ,TENDER,30MonoWAV/30MonoH3.wav,2,2,1,7,,,,,0,14,14,6,0,3,3,10,,,,,,,,,1,0.6360759059898555,092,001,2019_Aug_29_1308,MusicAffectPsychophysiology2019,3.0.5,60.03105658378838,
To what extent did the music make you feel ,ANGRY,30MonoWAV/30MonoH3.wav,2,2,1,7,,,,,0,14,14,6,0,4,4,2,,,,,,,,,1,0.6360059560101945,092,001,2019_Aug_29_1308,MusicAffectPsychophysiology2019,3.0.5,60.03105658378838,
To what extent did the music make you feel ,FRUSTRATED,30MonoWAV/30MonoH3.wav,2,2,1,7,,,,,0,14,14,6,0,5,5,3,,,,,,,,,1,0.6555142939905636,092,001,2019_Aug_29_1308,MusicAffectPsychophysiology2019,3.0.5,60.03105658378838,
To what extent did the music make you feel ,ASHAMED,30MonoWAV/30MonoH3.wav,2,2,1,7,,,,,0,14,14,6,0,6,6,4,,,,,,,,,1,1.2355915760272183,092,001,2019_Aug_29_1308,MusicAffectPsychophysiology2019,3.0.5,60.03105658378838,
To what extent did the music make you feel ,HAPPY,30MonoWAV/30MonoH3.wav,2,2,1,7,,,,,0,14,14,6,0,7,7,6,,,,,,,,,4,0.9858324840024579,092,001,2019_Aug_29_1308,MusicAffectPsychophysiology2019,3.0.5,60.03105658378838,
To what extent did the music make you feel ,EXCITED,30MonoWAV/30MonoH3.wav,2,2,1,7,,,,,0,14,14,6,0,8,8,7,,,,,,,,,3,1.6197252860001754,092,001,2019_Aug_29_1308,MusicAffectPsychophysiology2019,3.0.5,60.03105658378838,
To what extent did the music make you feel ,SAD,30MonoWAV/30MonoH3.wav,2,2,1,7,,,,,0,14,14,6,0,9,9,0,,,,,,,,,1,1.50281294999877,092,001,2019_Aug_29_1308,MusicAffectPsychophysiology2019,3.0.5,60.03105658378838,
To what extent did the music make you feel ,ACTIVE,30MonoWAV/30MonoH3.wav,2,2,1,7,,,,,0,14,14,6,0,10,10,9,,,,,,,,,3,1.102931030007312,092,001,2019_Aug_29_1308,MusicAffectPsychophysiology2019,3.0.5,60.03105658378838,
To what extent did the music make you feel ,ANXIOUS ,30MonoWAV/30MonoH3.wav,2,2,1,7,,,,,0,14,14,6,0,11,11,1,,,,,,,,,1,1.4176480360038113,092,001,2019_Aug_29_1308,MusicAffectPsychophysiology2019,3.0.5,60.03105658378838,
,,30MonoWAV/30MonoH3.wav,2,2,1,7,,,,,0,14,14,6,,,,,,,,,,,,,,,092,001,2019_Aug_29_1308,MusicAffectPsychophysiology2019,3.0.5,60.03105658378838,
To what extent did the music make you feel ,EXCITED,30MonoWAV/30MonoS1.wav,1,1,3,9,,,,,0,15,15,8,0,0,0,7,,,1,3.16930154999136,1,0.803063640021719,1,1.4671150539943483,1,1.6822832349862438,092,001,2019_Aug_29_1308,MusicAffectPsychophysiology2019,3.0.5,60.03105658378838,
To what extent did the music make you feel ,ACTIVE,30MonoWAV/30MonoS1.wav,1,1,3,9,,,,,0,15,15,8,0,1,1,9,,,,,,,,,1,1.035824243008392,092,001,2019_Aug_29_1308,MusicAffectPsychophysiology2019,3.0.5,60.03105658378838,
To what extent did the music make you feel ,ASHAMED,30MonoWAV/30MonoS1.wav,1,1,3,9,,,,,0,15,15,8,0,2,2,4,,,,,,,,,1,0.9695328350062482,092,001,2019_Aug_29_1308,MusicAffectPsychophysiology2019,3.0.5,60.03105658378838,
To what extent did the music make you feel ,GUILTY,30MonoWAV/30MonoS1.wav,1,1,3,9,,,,,0,15,15,8,0,3,3,5,,,,,,,,,1,0.1521232399973087,092,001,2019_Aug_29_1308,MusicAffectPsychophysiology2019,3.0.5,60.03105658378838,
To what extent did the music make you feel ,SCARED,30MonoWAV/30MonoS1.wav,1,1,3,9,,,,,0,15,15,8,0,4,4,11,,,,,,,,,1,0.9197289780131541,092,001,2019_Aug_29_1308,MusicAffectPsychophysiology2019,3.0.5,60.03105658378838,
To what extent did the music make you feel ,SAD,30MonoWAV/30MonoS1.wav,1,1,3,9,,,,,0,15,15,8,0,5,5,0,,,,,,,,,5,2.136371608998161,092,001,2019_Aug_29_1308,MusicAffectPsychophysiology2019,3.0.5,60.03105658378838,
To what extent did the music make you feel ,ANGRY,30MonoWAV/30MonoS1.wav,1,1,3,9,,,,,0,15,15,8,0,6,6,2,,,,,,,,,1,2.353131810988998,092,001,2019_Aug_29_1308,MusicAffectPsychophysiology2019,3.0.5,60.03105658378838,
To what extent did the music make you feel ,HAPPY,30MonoWAV/30MonoS1.wav,1,1,3,9,,,,,0,15,15,8,0,7,7,6,,,,,,,,,1,0.9196208369976375,092,001,2019_Aug_29_1308,MusicAffectPsychophysiology2019,3.0.5,60.03105658378838,
To what extent did the music make you feel ,ALERT,30MonoWAV/30MonoS1.wav,1,1,3,9,,,,,0,15,15,8,0,8,8,8,,,,,,,,,3,1.2202648060047068,092,001,2019_Aug_29_1308,MusicAffectPsychophysiology2019,3.0.5,60.03105658378838,
To what extent did the music make you feel ,FRUSTRATED,30MonoWAV/30MonoS1.wav,1,1,3,9,,,,,0,15,15,8,0,9,9,3,,,,,,,,,1,1.279048636002699,092,001,2019_Aug_29_1308,MusicAffectPsychophysiology2019,3.0.5,60.03105658378838,
To what extent did the music make you feel ,ANXIOUS ,30MonoWAV/30MonoS1.wav,1,1,3,9,,,,,0,15,15,8,0,10,10,1,,,,,,,,,4,1.2188174499897286,092,001,2019_Aug_29_1308,MusicAffectPsychophysiology2019,3.0.5,60.03105658378838,
To what extent did the music make you feel ,TENDER,30MonoWAV/30MonoS1.wav,1,1,3,9,,,,,0,15,15,8,0,11,11,10,,,,,,,,,1,0.9022441729903221,092,001,2019_Aug_29_1308,MusicAffectPsychophysiology2019,3.0.5,60.03105658378838,
,,30MonoWAV/30MonoS1.wav,1,1,3,9,,,,,0,15,15,8,,,,,,,,,,,,,,,092,001,2019_Aug_29_1308,MusicAffectPsychophysiology2019,3.0.5,60.03105658378838,
To what extent did the music make you feel ,ANGRY,30MonoWAV/30MonoT2.wav,2,1,4,14,,,,,1,0,16,13,0,0,0,2,,,1,2.6012427609821316,1,1.102205685019726,1,1.1195809850178193,1,0.14211308400263079,092,001,2019_Aug_29_1308,MusicAffectPsychophysiology2019,3.0.5,60.03105658378838,
To what extent did the music make you feel ,ALERT,30MonoWAV/30MonoT2.wav,2,1,4,14,,,,,1,0,16,13,0,1,1,8,,,,,,,,,1,1.3195415480004158,092,001,2019_Aug_29_1308,MusicAffectPsychophysiology2019,3.0.5,60.03105658378838,
To what extent did the music make you feel ,TENDER,30MonoWAV/30MonoT2.wav,2,1,4,14,,,,,1,0,16,13,0,2,2,10,,,,,,,,,1,0.8517423259909265,092,001,2019_Aug_29_1308,MusicAffectPsychophysiology2019,3.0.5,60.03105658378838,
To what extent did the music make you feel ,EXCITED,30MonoWAV/30MonoT2.wav,2,1,4,14,,,,,1,0,16,13,0,3,3,7,,,,,,,,,1,1.0697926149878185,092,001,2019_Aug_29_1308,MusicAffectPsychophysiology2019,3.0.5,60.03105658378838,
To what extent did the music make you feel ,GUILTY,30MonoWAV/30MonoT2.wav,2,1,4,14,,,,,1,0,16,13,0,4,4,5,,,,,,,,,1,1.5857193599804305,092,001,2019_Aug_29_1308,MusicAffectPsychophysiology2019,3.0.5,60.03105658378838,
To what extent did the music make you feel ,HAPPY,30MonoWAV/30MonoT2.wav,2,1,4,14,,,,,1,0,16,13,0,5,5,6,,,,,,,,,1,1.08569441200234,092,001,2019_Aug_29_1308,MusicAffectPsychophysiology2019,3.0.5,60.03105658378838,
To what extent did the music make you feel ,SAD,30MonoWAV/30MonoT2.wav,2,1,4,14,,,,,1,0,16,13,0,6,6,0,,,,,,,,,5,1.4689310060057323,092,001,2019_Aug_29_1308,MusicAffectPsychophysiology2019,3.0.5,60.03105658378838,
To what extent did the music make you feel ,SCARED,30MonoWAV/30MonoT2.wav,2,1,4,14,,,,,1,0,16,13,0,7,7,11,,,,,,,,,1,1.1697137560113333,092,001,2019_Aug_29_1308,MusicAffectPsychophysiology2019,3.0.5,60.03105658378838,
To what extent did the music make you feel ,FRUSTRATED,30MonoWAV/30MonoT2.wav,2,1,4,14,,,,,1,0,16,13,0,8,8,3,,,,,,,,,2,1.152090841991594,092,001,2019_Aug_29_1308,MusicAffectPsychophysiology2019,3.0.5,60.03105658378838,
To what extent did the music make you feel ,ANXIOUS ,30MonoWAV/30MonoT2.wav,2,1,4,14,,,,,1,0,16,13,0,9,9,1,,,,,,,,,3,1.1844575970026199,092,001,2019_Aug_29_1308,MusicAffectPsychophysiology2019,3.0.5,60.03105658378838,
To what extent did the music make you feel ,ASHAMED,30MonoWAV/30MonoT2.wav,2,1,4,14,,,,,1,0,16,13,0,10,10,4,,,,,,,,,1,1.9172831379983108,092,001,2019_Aug_29_1308,MusicAffectPsychophysiology2019,3.0.5,60.03105658378838,
To what extent did the music make you feel ,ACTIVE,30MonoWAV/30MonoT2.wav,2,1,4,14,,,,,1,0,16,13,0,11,11,9,,,,,,,,,1,1.0355379480170086,092,001,2019_Aug_29_1308,MusicAffectPsychophysiology2019,3.0.5,60.03105658378838,
,,30MonoWAV/30MonoT2.wav,2,1,4,14,,,,,1,0,16,13,,,,,,,,,,,,,,,092,001,2019_Aug_29_1308,MusicAffectPsychophysiology2019,3.0.5,60.03105658378838,
To what extent did the music make you feel ,FRUSTRATED,30MonoWAV/30MonoH3.wav,2,2,1,7,,,,,1,1,17,6,0,0,0,3,,,4,2.7699053770047612,4,4.303187369019724,2,1.6362181279982906,1,1.0516683970054146,092,001,2019_Aug_29_1308,MusicAffectPsychophysiology2019,3.0.5,60.03105658378838,
To what extent did the music make you feel ,GUILTY,30MonoWAV/30MonoH3.wav,2,2,1,7,,,,,1,1,17,6,0,1,1,5,,,,,,,,,1,0.652576193009736,092,001,2019_Aug_29_1308,MusicAffectPsychophysiology2019,3.0.5,60.03105658378838,
To what extent did the music make you feel ,ALERT,30MonoWAV/30MonoH3.wav,2,2,1,7,,,,,1,1,17,6,0,2,2,8,,,,,,,,,1,0.6036461159819737,092,001,2019_Aug_29_1308,MusicAffectPsychophysiology2019,3.0.5,60.03105658378838,
To what extent did the music make you feel ,ACTIVE,30MonoWAV/30MonoH3.wav,2,2,1,7,,,,,1,1,17,6,0,3,3,9,,,,,,,,,4,1.9026865529885981,092,001,2019_Aug_29_1308,MusicAffectPsychophysiology2019,3.0.5,60.03105658378838,
To what extent did the music make you feel ,ASHAMED,30MonoWAV/30MonoH3.wav,2,2,1,7,,,,,1,1,17,6,0,4,4,4,,,,,,,,,1,1.1188426360022277,092,001,2019_Aug_29_1308,MusicAffectPsychophysiology2019,3.0.5,60.03105658378838,
To what extent did the music make you feel ,HAPPY,30MonoWAV/30MonoH3.wav,2,2,1,7,,,,,1,1,17,6,0,5,5,6,,,,,,,,,4,1.3524722820147872,092,001,2019_Aug_29_1308,MusicAffectPsychophysiology2019,3.0.5,60.03105658378838,
To what extent did the music make you feel ,ANGRY,30MonoWAV/30MonoH3.wav,2,2,1,7,,,,,1,1,17,6,0,6,6,2,,,,,,,,,1,1.2029966170084663,092,001,2019_Aug_29_1308,MusicAffectPsychophysiology2019,3.0.5,60.03105658378838,
To what extent did the music make you feel ,SCARED,30MonoWAV/30MonoH3.wav,2,2,1,7,,,,,1,1,17,6,0,7,7,11,,,,,,,,,1,0.870882449002238,092,001,2019_Aug_29_1308,MusicAffectPsychophysiology2019,3.0.5,60.03105658378838,
To what extent did the music make you feel ,TENDER,30MonoWAV/30MonoH3.wav,2,2,1,7,,,,,1,1,17,6,0,8,8,10,,,,,,,,,1,0.6852261410094798,092,001,2019_Aug_29_1308,MusicAffectPsychophysiology2019,3.0.5,60.03105658378838,
To what extent did the music make you feel ,ANXIOUS ,30MonoWAV/30MonoH3.wav,2,2,1,7,,,,,1,1,17,6,0,9,9,1,,,,,,,,,1,1.401940518990159,092,001,2019_Aug_29_1308,MusicAffectPsychophysiology2019,3.0.5,60.03105658378838,
To what extent did the music make you feel ,SAD,30MonoWAV/30MonoH3.wav,2,2,1,7,,,,,1,1,17,6,0,10,10,0,,,,,,,,,1,0.933647332014516,092,001,2019_Aug_29_1308,MusicAffectPsychophysiology2019,3.0.5,60.03105658378838,
To what extent did the music make you feel ,EXCITED,30MonoWAV/30MonoH3.wav,2,2,1,7,,,,,1,1,17,6,0,11,11,7,,,,,,,,,4,1.8858881369815208,092,001,2019_Aug_29_1308,MusicAffectPsychophysiology2019,3.0.5,60.03105658378838,
,,30MonoWAV/30MonoH3.wav,2,2,1,7,,,,,1,1,17,6,,,,,,,,,,,,,,,092,001,2019_Aug_29_1308,MusicAffectPsychophysiology2019,3.0.5,60.03105658378838,
To what extent did the music make you feel ,TENDER,30MonoWAV/30MonoT4.wav,2,1,4,16,,,,,1,2,18,15,0,0,0,10,,,2,6.366162502003135,3,2.63564637498348,1,1.1359004999976605,1,1.8950812809925992,092,001,2019_Aug_29_1308,MusicAffectPsychophysiology2019,3.0.5,60.03105658378838,
To what extent did the music make you feel ,FRUSTRATED,30MonoWAV/30MonoT4.wav,2,1,4,16,,,,,1,2,18,15,0,1,1,3,,,,,,,,,1,1.5016272850043606,092,001,2019_Aug_29_1308,MusicAffectPsychophysiology2019,3.0.5,60.03105658378838,
To what extent did the music make you feel ,ANGRY,30MonoWAV/30MonoT4.wav,2,1,4,16,,,,,1,2,18,15,0,2,2,2,,,,,,,,,1,0.7362098630110268,092,001,2019_Aug_29_1308,MusicAffectPsychophysiology2019,3.0.5,60.03105658378838,
To what extent did the music make you feel ,ANXIOUS ,30MonoWAV/30MonoT4.wav,2,1,4,16,,,,,1,2,18,15,0,3,3,1,,,,,,,,,2,1.1703429149929434,092,001,2019_Aug_29_1308,MusicAffectPsychophysiology2019,3.0.5,60.03105658378838,
To what extent did the music make you feel ,SCARED,30MonoWAV/30MonoT4.wav,2,1,4,16,,,,,1,2,18,15,0,4,4,11,,,,,,,,,1,1.285834161011735,092,001,2019_Aug_29_1308,MusicAffectPsychophysiology2019,3.0.5,60.03105658378838,
To what extent did the music make you feel ,ACTIVE,30MonoWAV/30MonoT4.wav,2,1,4,16,,,,,1,2,18,15,0,5,5,9,,,,,,,,,2,4.234743603999959,092,001,2019_Aug_29_1308,MusicAffectPsychophysiology2019,3.0.5,60.03105658378838,
To what extent did the music make you feel ,ASHAMED,30MonoWAV/30MonoT4.wav,2,1,4,16,,,,,1,2,18,15,0,6,6,4,,,,,,,,,1,0.7690216860210057,092,001,2019_Aug_29_1308,MusicAffectPsychophysiology2019,3.0.5,60.03105658378838,
To what extent did the music make you feel ,SAD,30MonoWAV/30MonoT4.wav,2,1,4,16,,,,,1,2,18,15,0,7,7,0,,,,,,,,,1,1.169369529990945,092,001,2019_Aug_29_1308,MusicAffectPsychophysiology2019,3.0.5,60.03105658378838,
To what extent did the music make you feel ,GUILTY,30MonoWAV/30MonoT4.wav,2,1,4,16,,,,,1,2,18,15,0,8,8,5,,,,,,,,,1,1.5862898740160745,092,001,2019_Aug_29_1308,MusicAffectPsychophysiology2019,3.0.5,60.03105658378838,
To what extent did the music make you feel ,EXCITED,30MonoWAV/30MonoT4.wav,2,1,4,16,,,,,1,2,18,15,0,9,9,7,,,,,,,,,3,1.137202397978399,092,001,2019_Aug_29_1308,MusicAffectPsychophysiology2019,3.0.5,60.03105658378838,
To what extent did the music make you feel ,ALERT,30MonoWAV/30MonoT4.wav,2,1,4,16,,,,,1,2,18,15,0,10,10,8,,,,,,,,,1,0.9857002109929454,092,001,2019_Aug_29_1308,MusicAffectPsychophysiology2019,3.0.5,60.03105658378838,
To what extent did the music make you feel ,HAPPY,30MonoWAV/30MonoT4.wav,2,1,4,16,,,,,1,2,18,15,0,11,11,6,,,,,,,,,2,1.6876494819880463,092,001,2019_Aug_29_1308,MusicAffectPsychophysiology2019,3.0.5,60.03105658378838,
,,30MonoWAV/30MonoT4.wav,2,1,4,16,,,,,1,2,18,15,,,,,,,,,,,,,,,092,001,2019_Aug_29_1308,MusicAffectPsychophysiology2019,3.0.5,60.03105658378838,
To what extent did the music make you feel ,SCARED,30MonoWAV/30MonoF2.wav,1,2,2,2,,,,,1,3,19,1,0,0,0,11,,,2,2.5858936579898,1,1.0517519300046843,1,1.268818803015165,4,1.2357581090182066,092,001,2019_Aug_29_1308,MusicAffectPsychophysiology2019,3.0.5,60.03105658378838,
To what extent did the music make you feel ,ALERT,30MonoWAV/30MonoF2.wav,1,2,2,2,,,,,1,3,19,1,0,1,1,8,,,,,,,,,4,1.018662510003196,092,001,2019_Aug_29_1308,MusicAffectPsychophysiology2019,3.0.5,60.03105658378838,
To what extent did the music make you feel ,ANXIOUS ,30MonoWAV/30MonoF2.wav,1,2,2,2,,,,,1,3,19,1,0,2,2,1,,,,,,,,,5,1.7525743290025275,092,001,2019_Aug_29_1308,MusicAffectPsychophysiology2019,3.0.5,60.03105658378838,
To what extent did the music make you feel ,TENDER,30MonoWAV/30MonoF2.wav,1,2,2,2,,,,,1,3,19,1,0,3,3,10,,,,,,,,,1,0.9693867730093189,092,001,2019_Aug_29_1308,MusicAffectPsychophysiology2019,3.0.5,60.03105658378838,
To what extent did the music make you feel ,HAPPY,30MonoWAV/30MonoF2.wav,1,2,2,2,,,,,1,3,19,1,0,4,4,6,,,,,,,,,1,0.9858620390004944,092,001,2019_Aug_29_1308,MusicAffectPsychophysiology2019,3.0.5,60.03105658378838,
To what extent did the music make you feel ,ANGRY,30MonoWAV/30MonoF2.wav,1,2,2,2,,,,,1,3,19,1,0,5,5,2,,,,,,,,,1,1.101963543012971,092,001,2019_Aug_29_1308,MusicAffectPsychophysiology2019,3.0.5,60.03105658378838,
To what extent did the music make you feel ,ASHAMED,30MonoWAV/30MonoF2.wav,1,2,2,2,,,,,1,3,19,1,0,6,6,4,,,,,,,,,1,0.8513591309892945,092,001,2019_Aug_29_1308,MusicAffectPsychophysiology2019,3.0.5,60.03105658378838,
To what extent did the music make you feel ,ACTIVE,30MonoWAV/30MonoF2.wav,1,2,2,2,,,,,1,3,19,1,0,7,7,9,,,,,,,,,3,1.1536905539978761,092,001,2019_Aug_29_1308,MusicAffectPsychophysiology2019,3.0.5,60.03105658378838,
To what extent did the music make you feel ,SAD,30MonoWAV/30MonoF2.wav,1,2,2,2,,,,,1,3,19,1,0,8,8,0,,,,,,,,,3,2.2360512260056566,092,001,2019_Aug_29_1308,MusicAffectPsychophysiology2019,3.0.5,60.03105658378838,
To what extent did the music make you feel ,GUILTY,30MonoWAV/30MonoF2.wav,1,2,2,2,,,,,1,3,19,1,0,9,9,5,,,,,,,,,1,1.0516136710066348,092,001,2019_Aug_29_1308,MusicAffectPsychophysiology2019,3.0.5,60.03105658378838,
To what extent did the music make you feel ,FRUSTRATED,30MonoWAV/30MonoF2.wav,1,2,2,2,,,,,1,3,19,1,0,10,10,3,,,,,,,,,2,1.1542727990017738,092,001,2019_Aug_29_1308,MusicAffectPsychophysiology2019,3.0.5,60.03105658378838,
To what extent did the music make you feel ,EXCITED,30MonoWAV/30MonoF2.wav,1,2,2,2,,,,,1,3,19,1,0,11,11,7,,,,,,,,,2,2.6523512860003393,092,001,2019_Aug_29_1308,MusicAffectPsychophysiology2019,3.0.5,60.03105658378838,
,,30MonoWAV/30MonoF2.wav,1,2,2,2,,,,,1,3,19,1,,,,,,,,,,,,,,,092,001,2019_Aug_29_1308,MusicAffectPsychophysiology2019,3.0.5,60.03105658378838,
To what extent did the music make you feel ,EXCITED,30MonoWAV/30MonoF4.wav,1,2,2,4,,,,,1,4,20,3,0,0,0,7,,,2,2.587025523011107,2,1.0193454520194791,1,0.8854674300237093,4,1.3536546340037603,092,001,2019_Aug_29_1308,MusicAffectPsychophysiology2019,3.0.5,60.03105658378838,
To what extent did the music make you feel ,ACTIVE,30MonoWAV/30MonoF4.wav,1,2,2,4,,,,,1,4,20,3,0,1,1,9,,,,,,,,,4,1.002002250024816,092,001,2019_Aug_29_1308,MusicAffectPsychophysiology2019,3.0.5,60.03105658378838,
To what extent did the music make you feel ,SCARED,30MonoWAV/30MonoF4.wav,1,2,2,4,,,,,1,4,20,3,0,2,2,11,,,,,,,,,1,0.9535014859866351,092,001,2019_Aug_29_1308,MusicAffectPsychophysiology2019,3.0.5,60.03105658378838,
To what extent did the music make you feel ,SAD,30MonoWAV/30MonoF4.wav,1,2,2,4,,,,,1,4,20,3,0,3,3,0,,,,,,,,,3,0.9533484460262116,092,001,2019_Aug_29_1308,MusicAffectPsychophysiology2019,3.0.5,60.03105658378838,
To what extent did the music make you feel ,GUILTY,30MonoWAV/30MonoF4.wav,1,2,2,4,,,,,1,4,20,3,0,4,4,5,,,,,,,,,1,1.0353549949941225,092,001,2019_Aug_29_1308,MusicAffectPsychophysiology2019,3.0.5,60.03105658378838,
To what extent did the music make you feel ,ALERT,30MonoWAV/30MonoF4.wav,1,2,2,4,,,,,1,4,20,3,0,5,5,8,,,,,,,,,1,0.6029653969744686,092,001,2019_Aug_29_1308,MusicAffectPsychophysiology2019,3.0.5,60.03105658378838,
To what extent did the music make you feel ,ANXIOUS ,30MonoWAV/30MonoF4.wav,1,2,2,4,,,,,1,4,20,3,0,6,6,1,,,,,,,,,1,0.6369269610149786,092,001,2019_Aug_29_1308,MusicAffectPsychophysiology2019,3.0.5,60.03105658378838,
To what extent did the music make you feel ,ASHAMED,30MonoWAV/30MonoF4.wav,1,2,2,4,,,,,1,4,20,3,0,7,7,4,,,,,,,,,1,1.0515107089886442,092,001,2019_Aug_29_1308,MusicAffectPsychophysiology2019,3.0.5,60.03105658378838,
To what extent did the music make you feel ,FRUSTRATED,30MonoWAV/30MonoF4.wav,1,2,2,4,,,,,1,4,20,3,0,8,8,3,,,,,,,,,1,0.731997032999061,092,001,2019_Aug_29_1308,MusicAffectPsychophysiology2019,3.0.5,60.03105658378838,
To what extent did the music make you feel ,TENDER,30MonoWAV/30MonoF4.wav,1,2,2,4,,,,,1,4,20,3,0,9,9,10,,,,,,,,,1,0.8191760960035026,092,001,2019_Aug_29_1308,MusicAffectPsychophysiology2019,3.0.5,60.03105658378838,
To what extent did the music make you feel ,ANGRY,30MonoWAV/30MonoF4.wav,1,2,2,4,,,,,1,4,20,3,0,10,10,2,,,,,,,,,2,1.2705802389828023,092,001,2019_Aug_29_1308,MusicAffectPsychophysiology2019,3.0.5,60.03105658378838,
To what extent did the music make you feel ,HAPPY,30MonoWAV/30MonoF4.wav,1,2,2,4,,,,,1,4,20,3,0,11,11,6,,,,,,,,,1,0.9374481739941984,092,001,2019_Aug_29_1308,MusicAffectPsychophysiology2019,3.0.5,60.03105658378838,
,,30MonoWAV/30MonoF4.wav,1,2,2,4,,,,,1,4,20,3,,,,,,,,,,,,,,,092,001,2019_Aug_29_1308,MusicAffectPsychophysiology2019,3.0.5,60.03105658378838,
To what extent did the music make you feel ,ANXIOUS ,30MonoWAV/30MonoS2.wav,1,1,3,10,,,,,1,5,21,9,0,0,0,1,,,1,2.0999886869976763,1,0.8691595359996427,1,0.9002998320211191,4,1.458851630013669,092,001,2019_Aug_29_1308,MusicAffectPsychophysiology2019,3.0.5,60.03105658378838,
To what extent did the music make you feel ,ANGRY,30MonoWAV/30MonoS2.wav,1,1,3,10,,,,,1,5,21,9,0,1,1,2,,,,,,,,,1,3.5196735020144843,092,001,2019_Aug_29_1308,MusicAffectPsychophysiology2019,3.0.5,60.03105658378838,
To what extent did the music make you feel ,HAPPY,30MonoWAV/30MonoS2.wav,1,1,3,10,,,,,1,5,21,9,0,2,2,6,,,,,,,,,2,1.0860224129864946,092,001,2019_Aug_29_1308,MusicAffectPsychophysiology2019,3.0.5,60.03105658378838,
To what extent did the music make you feel ,SAD,30MonoWAV/30MonoS2.wav,1,1,3,10,,,,,1,5,21,9,0,3,3,0,,,,,,,,,4,1.151464013993973,092,001,2019_Aug_29_1308,MusicAffectPsychophysiology2019,3.0.5,60.03105658378838,
To what extent did the music make you feel ,GUILTY,30MonoWAV/30MonoS2.wav,1,1,3,10,,,,,1,5,21,9,0,4,4,5,,,,,,,,,1,1.1028923129779287,092,001,2019_Aug_29_1308,MusicAffectPsychophysiology2019,3.0.5,60.03105658378838,
To what extent did the music make you feel ,ALERT,30MonoWAV/30MonoS2.wav,1,1,3,10,,,,,1,5,21,9,0,5,5,8,,,,,,,,,3,1.0192874360072892,092,001,2019_Aug_29_1308,MusicAffectPsychophysiology2019,3.0.5,60.03105658378838,
To what extent did the music make you feel ,TENDER,30MonoWAV/30MonoS2.wav,1,1,3,10,,,,,1,5,21,9,0,6,6,10,,,,,,,,,1,1.052355293999426,092,001,2019_Aug_29_1308,MusicAffectPsychophysiology2019,3.0.5,60.03105658378838,
To what extent did the music make you feel ,SCARED,30MonoWAV/30MonoS2.wav,1,1,3,10,,,,,1,5,21,9,0,7,7,11,,,,,,,,,4,1.085492164012976,092,001,2019_Aug_29_1308,MusicAffectPsychophysiology2019,3.0.5,60.03105658378838,
To what extent did the music make you feel ,EXCITED,30MonoWAV/30MonoS2.wav,1,1,3,10,,,,,1,5,21,9,0,8,8,7,,,,,,,,,1,1.036469460988883,092,001,2019_Aug_29_1308,MusicAffectPsychophysiology2019,3.0.5,60.03105658378838,
To what extent did the music make you feel ,ASHAMED,30MonoWAV/30MonoS2.wav,1,1,3,10,,,,,1,5,21,9,0,9,9,4,,,,,,,,,1,0.6194862829870544,092,001,2019_Aug_29_1308,MusicAffectPsychophysiology2019,3.0.5,60.03105658378838,
To what extent did the music make you feel ,FRUSTRATED,30MonoWAV/30MonoS2.wav,1,1,3,10,,,,,1,5,21,9,0,10,10,3,,,,,,,,,3,1.2570272190205287,092,001,2019_Aug_29_1308,MusicAffectPsychophysiology2019,3.0.5,60.03105658378838,
To what extent did the music make you feel ,ACTIVE,30MonoWAV/30MonoS2.wav,1,1,3,10,,,,,1,5,21,9,0,11,11,9,,,,,,,,,1,1.2865441089961678,092,001,2019_Aug_29_1308,MusicAffectPsychophysiology2019,3.0.5,60.03105658378838,
,,30MonoWAV/30MonoS2.wav,1,1,3,10,,,,,1,5,21,9,,,,,,,,,,,,,,,092,001,2019_Aug_29_1308,MusicAffectPsychophysiology2019,3.0.5,60.03105658378838,
To what extent did the music make you feel ,ANGRY,30MonoWAV/30MonoT3.wav,2,1,4,15,,,,,1,6,22,14,0,0,0,2,,,1,2.669682562001981,1,2.4186788060178515,1,1.2017447980178986,1,1.5022743430163246,092,001,2019_Aug_29_1308,MusicAffectPsychophysiology2019,3.0.5,60.03105658378838,
To what extent did the music make you feel ,SAD,30MonoWAV/30MonoT3.wav,2,1,4,15,,,,,1,6,22,14,0,1,1,0,,,,,,,,,2,1.0699803629831877,092,001,2019_Aug_29_1308,MusicAffectPsychophysiology2019,3.0.5,60.03105658378838,
To what extent did the music make you feel ,HAPPY,30MonoWAV/30MonoT3.wav,2,1,4,15,,,,,1,6,22,14,0,2,2,6,,,,,,,,,1,1.3847973860101774,092,001,2019_Aug_29_1308,MusicAffectPsychophysiology2019,3.0.5,60.03105658378838,
To what extent did the music make you feel ,EXCITED,30MonoWAV/30MonoT3.wav,2,1,4,15,,,,,1,6,22,14,0,3,3,7,,,,,,,,,1,0.6361150239827111,092,001,2019_Aug_29_1308,MusicAffectPsychophysiology2019,3.0.5,60.03105658378838,
To what extent did the music make you feel ,ALERT,30MonoWAV/30MonoT3.wav,2,1,4,15,,,,,1,6,22,14,0,4,4,8,,,,,,,,,1,0.7034670089778956,092,001,2019_Aug_29_1308,MusicAffectPsychophysiology2019,3.0.5,60.03105658378838,
To what extent did the music make you feel ,FRUSTRATED,30MonoWAV/30MonoT3.wav,2,1,4,15,,,,,1,6,22,14,0,5,5,3,,,,,,,,,3,2.583595479023643,092,001,2019_Aug_29_1308,MusicAffectPsychophysiology2019,3.0.5,60.03105658378838,
To what extent did the music make you feel ,TENDER,30MonoWAV/30MonoT3.wav,2,1,4,15,,,,,1,6,22,14,0,6,6,10,,,,,,,,,1,0.9354406220081728,092,001,2019_Aug_29_1308,MusicAffectPsychophysiology2019,3.0.5,60.03105658378838,
To what extent did the music make you feel ,ANXIOUS ,30MonoWAV/30MonoT3.wav,2,1,4,15,,,,,1,6,22,14,0,7,7,1,,,,,,,,,2,1.0015211690042634,092,001,2019_Aug_29_1308,MusicAffectPsychophysiology2019,3.0.5,60.03105658378838,
To what extent did the music make you feel ,GUILTY,30MonoWAV/30MonoT3.wav,2,1,4,15,,,,,1,6,22,14,0,8,8,5,,,,,,,,,1,1.1357589660037775,092,001,2019_Aug_29_1308,MusicAffectPsychophysiology2019,3.0.5,60.03105658378838,
To what extent did the music make you feel ,ACTIVE,30MonoWAV/30MonoT3.wav,2,1,4,15,,,,,1,6,22,14,0,9,9,9,,,,,,,,,2,0.9864407519926317,092,001,2019_Aug_29_1308,MusicAffectPsychophysiology2019,3.0.5,60.03105658378838,
To what extent did the music make you feel ,ASHAMED,30MonoWAV/30MonoT3.wav,2,1,4,15,,,,,1,6,22,14,0,10,10,4,,,,,,,,,1,1.1030030119873118,092,001,2019_Aug_29_1308,MusicAffectPsychophysiology2019,3.0.5,60.03105658378838,
To what extent did the music make you feel ,SCARED,30MonoWAV/30MonoT3.wav,2,1,4,15,,,,,1,6,22,14,0,11,11,11,,,,,,,,,1,1.102626950974809,092,001,2019_Aug_29_1308,MusicAffectPsychophysiology2019,3.0.5,60.03105658378838,
,,30MonoWAV/30MonoT3.wav,2,1,4,15,,,,,1,6,22,14,,,,,,,,,,,,,,,092,001,2019_Aug_29_1308,MusicAffectPsychophysiology2019,3.0.5,60.03105658378838,
To what extent did the music make you feel ,HAPPY,30MonoWAV/30MonoH4.wav,2,2,1,8,,,,,1,7,23,7,0,0,0,6,,,1,3.835017722012708,2,1.282960340991849,1,1.219080449984176,4,1.3794294880062807,092,001,2019_Aug_29_1308,MusicAffectPsychophysiology2019,3.0.5,60.03105658378838,
To what extent did the music make you feel ,ANXIOUS ,30MonoWAV/30MonoH4.wav,2,2,1,8,,,,,1,7,23,7,0,1,1,1,,,,,,,,,2,1.1036915399890859,092,001,2019_Aug_29_1308,MusicAffectPsychophysiology2019,3.0.5,60.03105658378838,
To what extent did the music make you feel ,GUILTY,30MonoWAV/30MonoH4.wav,2,2,1,8,,,,,1,7,23,7,0,2,2,5,,,,,,,,,1,0.6854930040135514,092,001,2019_Aug_29_1308,MusicAffectPsychophysiology2019,3.0.5,60.03105658378838,
To what extent did the music make you feel ,SCARED,30MonoWAV/30MonoH4.wav,2,2,1,8,,,,,1,7,23,7,0,3,3,11,,,,,,,,,1,0.9848673249944113,092,001,2019_Aug_29_1308,MusicAffectPsychophysiology2019,3.0.5,60.03105658378838,
To what extent did the music make you feel ,FRUSTRATED,30MonoWAV/30MonoH4.wav,2,2,1,8,,,,,1,7,23,7,0,4,4,3,,,,,,,,,1,0.9938437250093557,092,001,2019_Aug_29_1308,MusicAffectPsychophysiology2019,3.0.5,60.03105658378838,
To what extent did the music make you feel ,ACTIVE,30MonoWAV/30MonoH4.wav,2,2,1,8,,,,,1,7,23,7,0,5,5,9,,,,,,,,,3,1.1341115559916943,092,001,2019_Aug_29_1308,MusicAffectPsychophysiology2019,3.0.5,60.03105658378838,
To what extent did the music make you feel ,ANGRY,30MonoWAV/30MonoH4.wav,2,2,1,8,,,,,1,7,23,7,0,6,6,2,,,,,,,,,1,0.8522424839902669,092,001,2019_Aug_29_1308,MusicAffectPsychophysiology2019,3.0.5,60.03105658378838,
To what extent did the music make you feel ,ALERT,30MonoWAV/30MonoH4.wav,2,2,1,8,,,,,1,7,23,7,0,7,7,8,,,,,,,,,2,1.3039232059963979,092,001,2019_Aug_29_1308,MusicAffectPsychophysiology2019,3.0.5,60.03105658378838,
To what extent did the music make you feel ,TENDER,30MonoWAV/30MonoH4.wav,2,2,1,8,,,,,1,7,23,7,0,8,8,10,,,,,,,,,1,0.8518585150013678,092,001,2019_Aug_29_1308,MusicAffectPsychophysiology2019,3.0.5,60.03105658378838,
To what extent did the music make you feel ,ASHAMED,30MonoWAV/30MonoH4.wav,2,2,1,8,,,,,1,7,23,7,0,9,9,4,,,,,,,,,1,1.0701805130229332,092,001,2019_Aug_29_1308,MusicAffectPsychophysiology2019,3.0.5,60.03105658378838,
To what extent did the music make you feel ,EXCITED,30MonoWAV/30MonoH4.wav,2,2,1,8,,,,,1,7,23,7,0,10,10,7,,,,,,,,,4,0.9941484540177044,092,001,2019_Aug_29_1308,MusicAffectPsychophysiology2019,3.0.5,60.03105658378838,
To what extent did the music make you feel ,SAD,30MonoWAV/30MonoH4.wav,2,2,1,8,,,,,1,7,23,7,0,11,11,0,,,,,,,,,1,0.8690775840077549,092,001,2019_Aug_29_1308,MusicAffectPsychophysiology2019,3.0.5,60.03105658378838,
,,30MonoWAV/30MonoH4.wav,2,2,1,8,,,,,1,7,23,7,,,,,,,,,,,,,,,092,001,2019_Aug_29_1308,MusicAffectPsychophysiology2019,3.0.5,60.03105658378838,
To what extent did the music make you feel ,GUILTY,30MonoWAV/30MonoS3.wav,1,1,3,11,,,,,1,8,24,10,0,0,0,5,,,1,2.3180250840086956,1,0.8864534040039871,1,1.2354272970114835,1,2.154508033010643,092,001,2019_Aug_29_1308,MusicAffectPsychophysiology2019,3.0.5,60.03105658378838,
To what extent did the music make you feel ,ALERT,30MonoWAV/30MonoS3.wav,1,1,3,11,,,,,1,8,24,10,0,1,1,8,,,,,,,,,3,1.1692375120182987,092,001,2019_Aug_29_1308,MusicAffectPsychophysiology2019,3.0.5,60.03105658378838,
To what extent did the music make you feel ,ASHAMED,30MonoWAV/30MonoS3.wav,1,1,3,11,,,,,1,8,24,10,0,2,2,4,,,,,,,,,1,0.8683295460068621,092,001,2019_Aug_29_1308,MusicAffectPsychophysiology2019,3.0.5,60.03105658378838,
To what extent did the music make you feel ,ACTIVE,30MonoWAV/30MonoS3.wav,1,1,3,11,,,,,1,8,24,10,0,3,3,9,,,,,,,,,1,1.2697264269809239,092,001,2019_Aug_29_1308,MusicAffectPsychophysiology2019,3.0.5,60.03105658378838,
To what extent did the music make you feel ,HAPPY,30MonoWAV/30MonoS3.wav,1,1,3,11,,,,,1,8,24,10,0,4,4,6,,,,,,,,,1,1.017284859000938,092,001,2019_Aug_29_1308,MusicAffectPsychophysiology2019,3.0.5,60.03105658378838,
To what extent did the music make you feel ,SAD,30MonoWAV/30MonoS3.wav,1,1,3,11,,,,,1,8,24,10,0,5,5,0,,,,,,,,,5,0.9522612150176428,092,001,2019_Aug_29_1308,MusicAffectPsychophysiology2019,3.0.5,60.03105658378838,
To what extent did the music make you feel ,TENDER,30MonoWAV/30MonoS3.wav,1,1,3,11,,,,,1,8,24,10,0,6,6,10,,,,,,,,,1,0.902010390011128,092,001,2019_Aug_29_1308,MusicAffectPsychophysiology2019,3.0.5,60.03105658378838,
To what extent did the music make you feel ,ANGRY,30MonoWAV/30MonoS3.wav,1,1,3,11,,,,,1,8,24,10,0,7,7,2,,,,,,,,,2,1.4196194559917785,092,001,2019_Aug_29_1308,MusicAffectPsychophysiology2019,3.0.5,60.03105658378838,
To what extent did the music make you feel ,SCARED,30MonoWAV/30MonoS3.wav,1,1,3,11,,,,,1,8,24,10,0,8,8,11,,,,,,,,,1,1.1367110099818092,092,001,2019_Aug_29_1308,MusicAffectPsychophysiology2019,3.0.5,60.03105658378838,
To what extent did the music make you feel ,EXCITED,30MonoWAV/30MonoS3.wav,1,1,3,11,,,,,1,8,24,10,0,9,9,7,,,,,,,,,1,1.0509438239969313,092,001,2019_Aug_29_1308,MusicAffectPsychophysiology2019,3.0.5,60.03105658378838,
To what extent did the music make you feel ,ANXIOUS ,30MonoWAV/30MonoS3.wav,1,1,3,11,,,,,1,8,24,10,0,10,10,1,,,,,,,,,4,1.218194270011736,092,001,2019_Aug_29_1308,MusicAffectPsychophysiology2019,3.0.5,60.03105658378838,
To what extent did the music make you feel ,FRUSTRATED,30MonoWAV/30MonoS3.wav,1,1,3,11,,,,,1,8,24,10,0,11,11,3,,,,,,,,,1,1.0514557579881512,092,001,2019_Aug_29_1308,MusicAffectPsychophysiology2019,3.0.5,60.03105658378838,
,,30MonoWAV/30MonoS3.wav,1,1,3,11,,,,,1,8,24,10,,,,,,,,,,,,,,,092,001,2019_Aug_29_1308,MusicAffectPsychophysiology2019,3.0.5,60.03105658378838,
To what extent did the music make you feel ,GUILTY,30MonoWAV/30MonoF3.wav,1,2,2,3,,,,,1,9,25,2,0,0,0,5,,,4,4.065401839005062,1,3.153442333015846,1,1.585422487987671,2,1.1990445950068533,092,001,2019_Aug_29_1308,MusicAffectPsychophysiology2019,3.0.5,60.03105658378838,
To what extent did the music make you feel ,SAD,30MonoWAV/30MonoF3.wav,1,2,2,3,,,,,1,9,25,2,0,1,1,0,,,,,,,,,5,1.3529259490023833,092,001,2019_Aug_29_1308,MusicAffectPsychophysiology2019,3.0.5,60.03105658378838,
To what extent did the music make you feel ,ACTIVE,30MonoWAV/30MonoF3.wav,1,2,2,3,,,,,1,9,25,2,0,2,2,9,,,,,,,,,4,1.2534880169841927,092,001,2019_Aug_29_1308,MusicAffectPsychophysiology2019,3.0.5,60.03105658378838,
To what extent did the music make you feel ,ANXIOUS ,30MonoWAV/30MonoF3.wav,1,2,2,3,,,,,1,9,25,2,0,3,3,1,,,,,,,,,4,1.0350064340163954,092,001,2019_Aug_29_1308,MusicAffectPsychophysiology2019,3.0.5,60.03105658378838,
To what extent did the music make you feel ,EXCITED,30MonoWAV/30MonoF3.wav,1,2,2,3,,,,,1,9,25,2,0,4,4,7,,,,,,,,,1,1.435954203014262,092,001,2019_Aug_29_1308,MusicAffectPsychophysiology2019,3.0.5,60.03105658378838,
To what extent did the music make you feel ,ALERT,30MonoWAV/30MonoF3.wav,1,2,2,3,,,,,1,9,25,2,0,5,5,8,,,,,,,,,3,1.0026123380230274,092,001,2019_Aug_29_1308,MusicAffectPsychophysiology2019,3.0.5,60.03105658378838,
To what extent did the music make you feel ,HAPPY,30MonoWAV/30MonoF3.wav,1,2,2,3,,,,,1,9,25,2,0,6,6,6,,,,,,,,,1,1.00262029300211,092,001,2019_Aug_29_1308,MusicAffectPsychophysiology2019,3.0.5,60.03105658378838,
To what extent did the music make you feel ,SCARED,30MonoWAV/30MonoF3.wav,1,2,2,3,,,,,1,9,25,2,0,7,7,11,,,,,,,,,1,1.0640062339953147,092,001,2019_Aug_29_1308,MusicAffectPsychophysiology2019,3.0.5,60.03105658378838,
To what extent did the music make you feel ,ASHAMED,30MonoWAV/30MonoF3.wav,1,2,2,3,,,,,1,9,25,2,0,8,8,4,,,,,,,,,1,0.8866287290002219,092,001,2019_Aug_29_1308,MusicAffectPsychophysiology2019,3.0.5,60.03105658378838,
To what extent did the music make you feel ,FRUSTRATED,30MonoWAV/30MonoF3.wav,1,2,2,3,,,,,1,9,25,2,0,9,9,3,,,,,,,,,1,1.0952008190215565,092,001,2019_Aug_29_1308,MusicAffectPsychophysiology2019,3.0.5,60.03105658378838,
To what extent did the music make you feel ,TENDER,30MonoWAV/30MonoF3.wav,1,2,2,3,,,,,1,9,25,2,0,10,10,10,,,,,,,,,1,0.6355659199762158,092,001,2019_Aug_29_1308,MusicAffectPsychophysiology2019,3.0.5,60.03105658378838,
To what extent did the music make you feel ,ANGRY,30MonoWAV/30MonoF3.wav,1,2,2,3,,,,,1,9,25,2,0,11,11,2,,,,,,,,,1,0.6193584449938498,092,001,2019_Aug_29_1308,MusicAffectPsychophysiology2019,3.0.5,60.03105658378838,
,,30MonoWAV/30MonoF3.wav,1,2,2,3,,,,,1,9,25,2,,,,,,,,,,,,,,,092,001,2019_Aug_29_1308,MusicAffectPsychophysiology2019,3.0.5,60.03105658378838,
To what extent did the music make you feel ,ASHAMED,30MonoWAV/30MonoH1.wav,2,2,1,5,,,,,1,10,26,4,0,0,0,4,,,3,3.1713244809943717,3,1.8525840359798167,2,2.0850706579803955,1,1.1072956679854542,092,001,2019_Aug_29_1308,MusicAffectPsychophysiology2019,3.0.5,60.03105658378838,
To what extent did the music make you feel ,SAD,30MonoWAV/30MonoH1.wav,2,2,1,5,,,,,1,10,26,4,0,1,1,0,,,,,,,,,1,1.3882977739849593,092,001,2019_Aug_29_1308,MusicAffectPsychophysiology2019,3.0.5,60.03105658378838,
To what extent did the music make you feel ,ALERT,30MonoWAV/30MonoH1.wav,2,2,1,5,,,,,1,10,26,4,0,2,2,8,,,,,,,,,4,1.4090777589881327,092,001,2019_Aug_29_1308,MusicAffectPsychophysiology2019,3.0.5,60.03105658378838,
To what extent did the music make you feel ,FRUSTRATED,30MonoWAV/30MonoH1.wav,2,2,1,5,,,,,1,10,26,4,0,3,3,3,,,,,,,,,1,1.207312569982605,092,001,2019_Aug_29_1308,MusicAffectPsychophysiology2019,3.0.5,60.03105658378838,
To what extent did the music make you feel ,ANXIOUS ,30MonoWAV/30MonoH1.wav,2,2,1,5,,,,,1,10,26,4,0,4,4,1,,,,,,,,,1,1.3163421589997597,092,001,2019_Aug_29_1308,MusicAffectPsychophysiology2019,3.0.5,60.03105658378838,
To what extent did the music make you feel ,SCARED,30MonoWAV/30MonoH1.wav,2,2,1,5,,,,,1,10,26,4,0,5,5,11,,,,,,,,,1,1.0353371640085243,092,001,2019_Aug_29_1308,MusicAffectPsychophysiology2019,3.0.5,60.03105658378838,
To what extent did the music make you feel ,EXCITED,30MonoWAV/30MonoH1.wav,2,2,1,5,,,,,1,10,26,4,0,6,6,7,,,,,,,,,3,1.003094913001405,092,001,2019_Aug_29_1308,MusicAffectPsychophysiology2019,3.0.5,60.03105658378838,
To what extent did the music make you feel ,ACTIVE,30MonoWAV/30MonoH1.wav,2,2,1,5,,,,,1,10,26,4,0,7,7,9,,,,,,,,,1,1.0190040880115703,092,001,2019_Aug_29_1308,MusicAffectPsychophysiology2019,3.0.5,60.03105658378838,
To what extent did the music make you feel ,GUILTY,30MonoWAV/30MonoH1.wav,2,2,1,5,,,,,1,10,26,4,0,8,8,5,,,,,,,,,1,0.9362505739845801,092,001,2019_Aug_29_1308,MusicAffectPsychophysiology2019,3.0.5,60.03105658378838,
To what extent did the music make you feel ,ANGRY,30MonoWAV/30MonoH1.wav,2,2,1,5,,,,,1,10,26,4,0,9,9,2,,,,,,,,,1,0.885929757001577,092,001,2019_Aug_29_1308,MusicAffectPsychophysiology2019,3.0.5,60.03105658378838,
To what extent did the music make you feel ,TENDER,30MonoWAV/30MonoH1.wav,2,2,1,5,,,,,1,10,26,4,0,10,10,10,,,,,,,,,1,0.669382294989191,092,001,2019_Aug_29_1308,MusicAffectPsychophysiology2019,3.0.5,60.03105658378838,
To what extent did the music make you feel ,HAPPY,30MonoWAV/30MonoH1.wav,2,2,1,5,,,,,1,10,26,4,0,11,11,6,,,,,,,,,1,1.1009413629944902,092,001,2019_Aug_29_1308,MusicAffectPsychophysiology2019,3.0.5,60.03105658378838,
,,30MonoWAV/30MonoH1.wav,2,2,1,5,,,,,1,10,26,4,,,,,,,,,,,,,,,092,001,2019_Aug_29_1308,MusicAffectPsychophysiology2019,3.0.5,60.03105658378838,
To what extent did the music make you feel ,ASHAMED,30MonoWAV/30MonoT1.wav,2,1,4,13,,,,,1,11,27,12,0,0,0,4,,,1,2.185746492992621,1,2.2867619869939517,1,0.9358752859989181,1,1.051350043999264,092,001,2019_Aug_29_1308,MusicAffectPsychophysiology2019,3.0.5,60.03105658378838,
To what extent did the music make you feel ,ANGRY,30MonoWAV/30MonoT1.wav,2,1,4,13,,,,,1,11,27,12,0,1,1,2,,,,,,,,,1,0.7360408230160829,092,001,2019_Aug_29_1308,MusicAffectPsychophysiology2019,3.0.5,60.03105658378838,
To what extent did the music make you feel ,GUILTY,30MonoWAV/30MonoT1.wav,2,1,4,13,,,,,1,11,27,12,0,2,2,5,,,,,,,,,1,1.2530541229934897,092,001,2019_Aug_29_1308,MusicAffectPsychophysiology2019,3.0.5,60.03105658378838,
To what extent did the music make you feel ,TENDER,30MonoWAV/30MonoT1.wav,2,1,4,13,,,,,1,11,27,12,0,3,3,10,,,,,,,,,1,0.8180004009918775,092,001,2019_Aug_29_1308,MusicAffectPsychophysiology2019,3.0.5,60.03105658378838,
To what extent did the music make you feel ,HAPPY,30MonoWAV/30MonoT1.wav,2,1,4,13,,,,,1,11,27,12,0,4,4,6,,,,,,,,,3,1.0526350060245022,092,001,2019_Aug_29_1308,MusicAffectPsychophysiology2019,3.0.5,60.03105658378838,
To what extent did the music make you feel ,EXCITED,30MonoWAV/30MonoT1.wav,2,1,4,13,,,,,1,11,27,12,0,5,5,7,,,,,,,,,3,0.9026727129821666,092,001,2019_Aug_29_1308,MusicAffectPsychophysiology2019,3.0.5,60.03105658378838,
To what extent did the music make you feel ,SCARED,30MonoWAV/30MonoT1.wav,2,1,4,13,,,,,1,11,27,12,0,6,6,11,,,,,,,,,1,1.0520830080204178,092,001,2019_Aug_29_1308,MusicAffectPsychophysiology2019,3.0.5,60.03105658378838,
To what extent did the music make you feel ,SAD,30MonoWAV/30MonoT1.wav,2,1,4,13,,,,,1,11,27,12,0,7,7,0,,,,,,,,,1,1.0016611239989288,092,001,2019_Aug_29_1308,MusicAffectPsychophysiology2019,3.0.5,60.03105658378838,
To what extent did the music make you feel ,ALERT,30MonoWAV/30MonoT1.wav,2,1,4,13,,,,,1,11,27,12,0,8,8,8,,,,,,,,,3,1.0859754289849661,092,001,2019_Aug_29_1308,MusicAffectPsychophysiology2019,3.0.5,60.03105658378838,
To what extent did the music make you feel ,ACTIVE,30MonoWAV/30MonoT1.wav,2,1,4,13,,,,,1,11,27,12,0,9,9,9,,,,,,,,,4,2.084815466980217,092,001,2019_Aug_29_1308,MusicAffectPsychophysiology2019,3.0.5,60.03105658378838,
To what extent did the music make you feel ,ANXIOUS ,30MonoWAV/30MonoT1.wav,2,1,4,13,,,,,1,11,27,12,0,10,10,1,,,,,,,,,1,1.0193458309804555,092,001,2019_Aug_29_1308,MusicAffectPsychophysiology2019,3.0.5,60.03105658378838,
To what extent did the music make you feel ,FRUSTRATED,30MonoWAV/30MonoT1.wav,2,1,4,13,,,,,1,11,27,12,0,11,11,3,,,,,,,,,1,1.052650869009085,092,001,2019_Aug_29_1308,MusicAffectPsychophysiology2019,3.0.5,60.03105658378838,
,,30MonoWAV/30MonoT1.wav,2,1,4,13,,,,,1,11,27,12,,,,,,,,,,,,,,,092,001,2019_Aug_29_1308,MusicAffectPsychophysiology2019,3.0.5,60.03105658378838,
To what extent did the music make you feel ,ALERT,30MonoWAV/30MonoS1.wav,1,1,3,9,,,,,1,12,28,8,0,0,0,8,,,2,7.600424219010165,1,1.4024673259991687,1,1.1855134030047338,1,1.8613211219781078,092,001,2019_Aug_29_1308,MusicAffectPsychophysiology2019,3.0.5,60.03105658378838,
To what extent did the music make you feel ,EXCITED,30MonoWAV/30MonoS1.wav,1,1,3,9,,,,,1,12,28,8,0,1,1,7,,,,,,,,,3,0.9527386499976274,092,001,2019_Aug_29_1308,MusicAffectPsychophysiology2019,3.0.5,60.03105658378838,
To what extent did the music make you feel ,ACTIVE,30MonoWAV/30MonoS1.wav,1,1,3,9,,,,,1,12,28,8,0,2,2,9,,,,,,,,,3,1.2178718500072137,092,001,2019_Aug_29_1308,MusicAffectPsychophysiology2019,3.0.5,60.03105658378838,
To what extent did the music make you feel ,SCARED,30MonoWAV/30MonoS1.wav,1,1,3,9,,,,,1,12,28,8,0,3,3,11,,,,,,,,,1,0.8035603179887403,092,001,2019_Aug_29_1308,MusicAffectPsychophysiology2019,3.0.5,60.03105658378838,
To what extent did the music make you feel ,GUILTY,30MonoWAV/30MonoS1.wav,1,1,3,9,,,,,1,12,28,8,0,4,4,5,,,,,,,,,1,0.9027389500115532,092,001,2019_Aug_29_1308,MusicAffectPsychophysiology2019,3.0.5,60.03105658378838,
To what extent did the music make you feel ,ANGRY,30MonoWAV/30MonoS1.wav,1,1,3,9,,,,,1,12,28,8,0,5,5,2,,,,,,,,,1,0.5861813140218146,092,001,2019_Aug_29_1308,MusicAffectPsychophysiology2019,3.0.5,60.03105658378838,
To what extent did the music make you feel ,HAPPY,30MonoWAV/30MonoS1.wav,1,1,3,9,,,,,1,12,28,8,0,6,6,6,,,,,,,,,3,1.036004839988891,092,001,2019_Aug_29_1308,MusicAffectPsychophysiology2019,3.0.5,60.03105658378838,
To what extent did the music make you feel ,TENDER,30MonoWAV/30MonoS1.wav,1,1,3,9,,,,,1,12,28,8,0,7,7,10,,,,,,,,,1,0.4341906600166112,092,001,2019_Aug_29_1308,MusicAffectPsychophysiology2019,3.0.5,60.03105658378838,
To what extent did the music make you feel ,ANXIOUS ,30MonoWAV/30MonoS1.wav,1,1,3,9,,,,,1,12,28,8,0,8,8,1,,,,,,,,,4,1.0358742809912656,092,001,2019_Aug_29_1308,MusicAffectPsychophysiology2019,3.0.5,60.03105658378838,
To what extent did the music make you feel ,FRUSTRATED,30MonoWAV/30MonoS1.wav,1,1,3,9,,,,,1,12,28,8,0,9,9,3,,,,,,,,,1,0.4267837369989138,092,001,2019_Aug_29_1308,MusicAffectPsychophysiology2019,3.0.5,60.03105658378838,
To what extent did the music make you feel ,SAD,30MonoWAV/30MonoS1.wav,1,1,3,9,,,,,1,12,28,8,0,10,10,0,,,,,,,,,1,1.5031604429823346,092,001,2019_Aug_29_1308,MusicAffectPsychophysiology2019,3.0.5,60.03105658378838,
To what extent did the music make you feel ,ASHAMED,30MonoWAV/30MonoS1.wav,1,1,3,9,,,,,1,12,28,8,0,11,11,4,,,,,,,,,1,0.9698255250114016,092,001,2019_Aug_29_1308,MusicAffectPsychophysiology2019,3.0.5,60.03105658378838,
,,30MonoWAV/30MonoS1.wav,1,1,3,9,,,,,1,12,28,8,,,,,,,,,,,,,,,092,001,2019_Aug_29_1308,MusicAffectPsychophysiology2019,3.0.5,60.03105658378838,
To what extent did the music make you feel ,ACTIVE,30MonoWAV/30MonoS4.wav,1,1,3,12,,,,,1,13,29,11,0,0,0,9,,,1,3.0349340890243184,1,1.0362953000003472,1,1.1531800390221179,1,1.6384787520219106,092,001,2019_Aug_29_1308,MusicAffectPsychophysiology2019,3.0.5,60.03105658378838,
To what extent did the music make you feel ,SAD,30MonoWAV/30MonoS4.wav,1,1,3,12,,,,,1,13,29,11,0,1,1,0,,,,,,,,,5,1.219300699973246,092,001,2019_Aug_29_1308,MusicAffectPsychophysiology2019,3.0.5,60.03105658378838,
To what extent did the music make you feel ,ASHAMED,30MonoWAV/30MonoS4.wav,1,1,3,12,,,,,1,13,29,11,0,2,2,4,,,,,,,,,2,1.703342711989535,092,001,2019_Aug_29_1308,MusicAffectPsychophysiology2019,3.0.5,60.03105658378838,
To what extent did the music make you feel ,ANGRY,30MonoWAV/30MonoS4.wav,1,1,3,12,,,,,1,13,29,11,0,3,3,2,,,,,,,,,1,2.2325562199985143,092,001,2019_Aug_29_1308,MusicAffectPsychophysiology2019,3.0.5,60.03105658378838,
To what extent did the music make you feel ,TENDER,30MonoWAV/30MonoS4.wav,1,1,3,12,,,,,1,13,29,11,0,4,4,10,,,,,,,,,1,1.0861573700094596,092,001,2019_Aug_29_1308,MusicAffectPsychophysiology2019,3.0.5,60.03105658378838,
To what extent did the music make you feel ,FRUSTRATED,30MonoWAV/30MonoS4.wav,1,1,3,12,,,,,1,13,29,11,0,5,5,3,,,,,,,,,3,1.1350710229889955,092,001,2019_Aug_29_1308,MusicAffectPsychophysiology2019,3.0.5,60.03105658378838,
To what extent did the music make you feel ,ALERT,30MonoWAV/30MonoS4.wav,1,1,3,12,,,,,1,13,29,11,0,6,6,8,,,,,,,,,2,1.236716692976188,092,001,2019_Aug_29_1308,MusicAffectPsychophysiology2019,3.0.5,60.03105658378838,
To what extent did the music make you feel ,GUILTY,30MonoWAV/30MonoS4.wav,1,1,3,12,,,,,1,13,29,11,0,7,7,5,,,,,,,,,1,0.9197985230130143,092,001,2019_Aug_29_1308,MusicAffectPsychophysiology2019,3.0.5,60.03105658378838,
To what extent did the music make you feel ,EXCITED,30MonoWAV/30MonoS4.wav,1,1,3,12,,,,,1,13,29,11,0,8,8,7,,,,,,,,,1,1.9864417010103352,092,001,2019_Aug_29_1308,MusicAffectPsychophysiology2019,3.0.5,60.03105658378838,
To what extent did the music make you feel ,SCARED,30MonoWAV/30MonoS4.wav,1,1,3,12,,,,,1,13,29,11,0,9,9,11,,,,,,,,,3,1.3870001750183292,092,001,2019_Aug_29_1308,MusicAffectPsychophysiology2019,3.0.5,60.03105658378838,
To what extent did the music make you feel ,HAPPY,30MonoWAV/30MonoS4.wav,1,1,3,12,,,,,1,13,29,11,0,10,10,6,,,,,,,,,1,0.9867432909959462,092,001,2019_Aug_29_1308,MusicAffectPsychophysiology2019,3.0.5,60.03105658378838,
To what extent did the music make you feel ,ANXIOUS ,30MonoWAV/30MonoS4.wav,1,1,3,12,,,,,1,13,29,11,0,11,11,1,,,,,,,,,5,1.1023211809806526,092,001,2019_Aug_29_1308,MusicAffectPsychophysiology2019,3.0.5,60.03105658378838,
,,30MonoWAV/30MonoS4.wav,1,1,3,12,,,,,1,13,29,11,,,,,,,,,,,,,,,092,001,2019_Aug_29_1308,MusicAffectPsychophysiology2019,3.0.5,60.03105658378838,
To what extent did the music make you feel ,TENDER,30MonoWAV/30MonoF1.wav,1,2,2,1,,,,,1,14,30,0,0,0,0,10,,,4,2.286483069008682,1,2.6519259020278696,1,1.485814946994651,3,1.5192809730069712,092,001,2019_Aug_29_1308,MusicAffectPsychophysiology2019,3.0.5,60.03105658378838,
To what extent did the music make you feel ,ANGRY,30MonoWAV/30MonoF1.wav,1,2,2,1,,,,,1,14,30,0,0,1,1,2,,,,,,,,,1,0.852398014976643,092,001,2019_Aug_29_1308,MusicAffectPsychophysiology2019,3.0.5,60.03105658378838,
To what extent did the music make you feel ,FRUSTRATED,30MonoWAV/30MonoF1.wav,1,2,2,1,,,,,1,14,30,0,0,2,2,3,,,,,,,,,4,1.3306406029732898,092,001,2019_Aug_29_1308,MusicAffectPsychophysiology2019,3.0.5,60.03105658378838,
To what extent did the music make you feel ,SCARED,30MonoWAV/30MonoF1.wav,1,2,2,1,,,,,1,14,30,0,0,3,3,11,,,,,,,,,3,2.4203058739949483,092,001,2019_Aug_29_1308,MusicAffectPsychophysiology2019,3.0.5,60.03105658378838,
To what extent did the music make you feel ,GUILTY,30MonoWAV/30MonoF1.wav,1,2,2,1,,,,,1,14,30,0,0,4,4,5,,,,,,,,,1,1.887166780012194,092,001,2019_Aug_29_1308,MusicAffectPsychophysiology2019,3.0.5,60.03105658378838,
To what extent did the music make you feel ,ASHAMED,30MonoWAV/30MonoF1.wav,1,2,2,1,,,,,1,14,30,0,0,5,5,4,,,,,,,,,1,2.5666204569861293,092,001,2019_Aug_29_1308,MusicAffectPsychophysiology2019,3.0.5,60.03105658378838,
To what extent did the music make you feel ,ACTIVE,30MonoWAV/30MonoF1.wav,1,2,2,1,,,,,1,14,30,0,0,6,6,9,,,,,,,,,4,1.1838664830138441,092,001,2019_Aug_29_1308,MusicAffectPsychophysiology2019,3.0.5,60.03105658378838,
To what extent did the music make you feel ,SAD,30MonoWAV/30MonoF1.wav,1,2,2,1,,,,,1,14,30,0,0,7,7,0,,,,,,,,,5,1.052703744993778,092,001,2019_Aug_29_1308,MusicAffectPsychophysiology2019,3.0.5,60.03105658378838,
To what extent did the music make you feel ,ALERT,30MonoWAV/30MonoF1.wav,1,2,2,1,,,,,1,14,30,0,0,8,8,8,,,,,,,,,4,1.1363568560045678,092,001,2019_Aug_29_1308,MusicAffectPsychophysiology2019,3.0.5,60.03105658378838,
To what extent did the music make you feel ,EXCITED,30MonoWAV/30MonoF1.wav,1,2,2,1,,,,,1,14,30,0,0,9,9,7,,,,,,,,,1,1.0869619059958495,092,001,2019_Aug_29_1308,MusicAffectPsychophysiology2019,3.0.5,60.03105658378838,
To what extent did the music make you feel ,ANXIOUS ,30MonoWAV/30MonoF1.wav,1,2,2,1,,,,,1,14,30,0,0,10,10,1,,,,,,,,,4,1.1855745749780908,092,001,2019_Aug_29_1308,MusicAffectPsychophysiology2019,3.0.5,60.03105658378838,
To what extent did the music make you feel ,HAPPY,30MonoWAV/30MonoF1.wav,1,2,2,1,,,,,1,14,30,0,0,11,11,6,,,,,,,,,1,1.3531560039846227,092,001,2019_Aug_29_1308,MusicAffectPsychophysiology2019,3.0.5,60.03105658378838,
,,30MonoWAV/30MonoF1.wav,1,2,2,1,,,,,1,14,30,0,,,,,,,,,,,,,,,092,001,2019_Aug_29_1308,MusicAffectPsychophysiology2019,3.0.5,60.03105658378838,
To what extent did the music make you feel ,FRUSTRATED,30MonoWAV/30MonoH2.wav,2,2,1,6,,,,,1,15,31,5,0,0,0,3,,,4,3.049673418980092,3,1.6185974219988566,3,1.069183179992251,1,1.6548203620186541,092,001,2019_Aug_29_1308,MusicAffectPsychophysiology2019,3.0.5,60.03105658378838,
To what extent did the music make you feel ,SAD,30MonoWAV/30MonoH2.wav,2,2,1,6,,,,,1,15,31,5,0,1,1,0,,,,,,,,,1,0.5191260380088352,092,001,2019_Aug_29_1308,MusicAffectPsychophysiology2019,3.0.5,60.03105658378838,
To what extent did the music make you feel ,ALERT,30MonoWAV/30MonoH2.wav,2,2,1,6,,,,,1,15,31,5,0,2,2,8,,,,,,,,,1,0.46849985100561753,092,001,2019_Aug_29_1308,MusicAffectPsychophysiology2019,3.0.5,60.03105658378838,
To what extent did the music make you feel ,TENDER,30MonoWAV/30MonoH2.wav,2,2,1,6,,,,,1,15,31,5,0,3,3,10,,,,,,,,,1,1.3351060499844607,092,001,2019_Aug_29_1308,MusicAffectPsychophysiology2019,3.0.5,60.03105658378838,
To what extent did the music make you feel ,EXCITED,30MonoWAV/30MonoH2.wav,2,2,1,6,,,,,1,15,31,5,0,4,4,7,,,,,,,,,4,0.9529800979944412,092,001,2019_Aug_29_1308,MusicAffectPsychophysiology2019,3.0.5,60.03105658378838,
To what extent did the music make you feel ,SCARED,30MonoWAV/30MonoH2.wav,2,2,1,6,,,,,1,15,31,5,0,5,5,11,,,,,,,,,2,0.9682991110021248,092,001,2019_Aug_29_1308,MusicAffectPsychophysiology2019,3.0.5,60.03105658378838,
To what extent did the music make you feel ,HAPPY,30MonoWAV/30MonoH2.wav,2,2,1,6,,,,,1,15,31,5,0,6,6,6,,,,,,,,,5,1.752713935013162,092,001,2019_Aug_29_1308,MusicAffectPsychophysiology2019,3.0.5,60.03105658378838,
To what extent did the music make you feel ,GUILTY,30MonoWAV/30MonoH2.wav,2,2,1,6,,,,,1,15,31,5,0,7,7,5,,,,,,,,,1,1.7847478430194315,092,001,2019_Aug_29_1308,MusicAffectPsychophysiology2019,3.0.5,60.03105658378838,
To what extent did the music make you feel ,ACTIVE,30MonoWAV/30MonoH2.wav,2,2,1,6,,,,,1,15,31,5,0,8,8,9,,,,,,,,,3,2.6028820389765315,092,001,2019_Aug_29_1308,MusicAffectPsychophysiology2019,3.0.5,60.03105658378838,
To what extent did the music make you feel ,ANXIOUS ,30MonoWAV/30MonoH2.wav,2,2,1,6,,,,,1,15,31,5,0,9,9,1,,,,,,,,,1,1.2529323790222406,092,001,2019_Aug_29_1308,MusicAffectPsychophysiology2019,3.0.5,60.03105658378838,
To what extent did the music make you feel ,ANGRY,30MonoWAV/30MonoH2.wav,2,2,1,6,,,,,1,15,31,5,0,10,10,2,,,,,,,,,1,1.3348590020032134,092,001,2019_Aug_29_1308,MusicAffectPsychophysiology2019,3.0.5,60.03105658378838,
To what extent did the music make you feel ,ASHAMED,30MonoWAV/30MonoH2.wav,2,2,1,6,,,,,1,15,31,5,0,11,11,4,,,,,,,,,1,0.6669382810068782,092,001,2019_Aug_29_1308,MusicAffectPsychophysiology2019,3.0.5,60.03105658378838,
,,30MonoWAV/30MonoH2.wav,2,2,1,6,,,,,1,15,31,5,,,,,,,,,,,,,,,092,001,2019_Aug_29_1308,MusicAffectPsychophysiology2019,3.0.5,60.03105658378838,
