Instruction,Word,song,valence,arousal,affectcat,songmark,pracwords.thisRepN,pracwords.thisTrialN,pracwords.thisN,pracwords.thisIndex,songtrials.thisRepN,songtrials.thisTrialN,songtrials.thisN,songtrials.thisIndex,words.thisRepN,words.thisTrialN,words.thisN,words.thisIndex,begin.keys,begin.rt,arousalkey.keys,arousalkey.rt,valencekey.keys,valencekey.rt,likekey.keys,likekey.rt,WordResponse.keys,WordResponse.rt,key_resp_2.keys,key_resp_2.rt,participant,session,date,expName,psychopyVersion,frameRate,
,,,,,,,,,,,,,,,,,,,space,13.517317721998552,,,,,,,,,,,093,001,2019_Aug_29_1408,MusicAffectPsychophysiology2019,3.0.5,59.9351189129323,
,,,,,,,,,,,,,,,,,,,,,4,9.10282464697957,,,,,,,,,093,001,2019_Aug_29_1408,MusicAffectPsychophysiology2019,3.0.5,59.9351189129323,
,,,,,,,,,,,,,,,,,,,,,,,3,3.3359483540116344,,,,,,,093,001,2019_Aug_29_1408,MusicAffectPsychophysiology2019,3.0.5,59.9351189129323,
,,,,,,,,,,,,,,,,,,,,,,,,,3,3.0698296040063724,,,,,093,001,2019_Aug_29_1408,MusicAffectPsychophysiology2019,3.0.5,59.9351189129323,
To what extent did the music make you feel ,ACTIVE,,,,,,0,0,0,9,,,,,,,,,,,,,,,,,3,6.236225745000411,,,093,001,2019_Aug_29_1408,MusicAffectPsychophysiology2019,3.0.5,59.9351189129323,
To what extent did the music make you feel ,SAD,,,,,,0,1,1,0,,,,,,,,,,,,,,,,,1,3.234144321002532,,,093,001,2019_Aug_29_1408,MusicAffectPsychophysiology2019,3.0.5,59.9351189129323,
To what extent did the music make you feel ,FRUSTRATED,,,,,,0,2,2,3,,,,,,,,,,,,,,,,,1,2.060935342015,,,093,001,2019_Aug_29_1408,MusicAffectPsychophysiology2019,3.0.5,59.9351189129323,
To what extent did the music make you feel ,HAPPY,,,,,,0,3,3,6,,,,,,,,,,,,,,,,,3,2.0521337969985325,,,093,001,2019_Aug_29_1408,MusicAffectPsychophysiology2019,3.0.5,59.9351189129323,
To what extent did the music make you feel ,GUILTY,,,,,,0,4,4,5,,,,,,,,,,,,,,,,,1,2.31906719901599,,,093,001,2019_Aug_29_1408,MusicAffectPsychophysiology2019,3.0.5,59.9351189129323,
To what extent did the music make you feel ,ALERT,,,,,,0,5,5,8,,,,,,,,,,,,,,,,,4,2.3356904329848476,,,093,001,2019_Aug_29_1408,MusicAffectPsychophysiology2019,3.0.5,59.9351189129323,
To what extent did the music make you feel ,EXCITED,,,,,,0,6,6,7,,,,,,,,,,,,,,,,,4,2.0425908470060676,,,093,001,2019_Aug_29_1408,MusicAffectPsychophysiology2019,3.0.5,59.9351189129323,
To what extent did the music make you feel ,TENDER,,,,,,0,7,7,10,,,,,,,,,,,,,,,,,3,3.8853379969950765,,,093,001,2019_Aug_29_1408,MusicAffectPsychophysiology2019,3.0.5,59.9351189129323,
To what extent did the music make you feel ,SCARED,,,,,,0,8,8,11,,,,,,,,,,,,,,,,,2,2.767215428990312,,,093,001,2019_Aug_29_1408,MusicAffectPsychophysiology2019,3.0.5,59.9351189129323,
To what extent did the music make you feel ,ASHAMED,,,,,,0,9,9,4,,,,,,,,,,,,,,,,,1,1.9524498349928763,,,093,001,2019_Aug_29_1408,MusicAffectPsychophysiology2019,3.0.5,59.9351189129323,
To what extent did the music make you feel ,ANGRY,,,,,,0,10,10,2,,,,,,,,,,,,,,,,,1,1.4520561689860187,,,093,001,2019_Aug_29_1408,MusicAffectPsychophysiology2019,3.0.5,59.9351189129323,
To what extent did the music make you feel ,ANXIOUS ,,,,,,0,11,11,1,,,,,,,,,,,,,,,,,3,3.3361849439970683,,,093,001,2019_Aug_29_1408,MusicAffectPsychophysiology2019,3.0.5,59.9351189129323,
To what extent did the music make you feel ,ALERT,30MonoWAV/30MonoT2.wav,2,1,4,14,,,,,0,0,0,13,0,0,0,8,,,3,4.3522912729822565,4,2.9666019569849595,3,3.487053001008462,2,2.684111648995895,,,093,001,2019_Aug_29_1408,MusicAffectPsychophysiology2019,3.0.5,59.9351189129323,
To what extent did the music make you feel ,SAD,30MonoWAV/30MonoT2.wav,2,1,4,14,,,,,0,0,0,13,0,1,1,0,,,,,,,,,2,1.885601977002807,,,093,001,2019_Aug_29_1408,MusicAffectPsychophysiology2019,3.0.5,59.9351189129323,
To what extent did the music make you feel ,ASHAMED,30MonoWAV/30MonoT2.wav,2,1,4,14,,,,,0,0,0,13,0,2,2,4,,,,,,,,,1,1.568648253014544,,,093,001,2019_Aug_29_1408,MusicAffectPsychophysiology2019,3.0.5,59.9351189129323,
To what extent did the music make you feel ,TENDER,30MonoWAV/30MonoT2.wav,2,1,4,14,,,,,0,0,0,13,0,3,3,10,,,,,,,,,3,1.8365766069910023,,,093,001,2019_Aug_29_1408,MusicAffectPsychophysiology2019,3.0.5,59.9351189129323,
To what extent did the music make you feel ,ANGRY,30MonoWAV/30MonoT2.wav,2,1,4,14,,,,,0,0,0,13,0,4,4,2,,,,,,,,,1,1.3865490739990491,,,093,001,2019_Aug_29_1408,MusicAffectPsychophysiology2019,3.0.5,59.9351189129323,
To what extent did the music make you feel ,GUILTY,30MonoWAV/30MonoT2.wav,2,1,4,14,,,,,0,0,0,13,0,5,5,5,,,,,,,,,1,3.002816249994794,,,093,001,2019_Aug_29_1408,MusicAffectPsychophysiology2019,3.0.5,59.9351189129323,
To what extent did the music make you feel ,ANXIOUS ,30MonoWAV/30MonoT2.wav,2,1,4,14,,,,,0,0,0,13,0,6,6,1,,,,,,,,,2,2.819103797985008,,,093,001,2019_Aug_29_1408,MusicAffectPsychophysiology2019,3.0.5,59.9351189129323,
To what extent did the music make you feel ,SCARED,30MonoWAV/30MonoT2.wav,2,1,4,14,,,,,0,0,0,13,0,7,7,11,,,,,,,,,1,3.219565481005702,,,093,001,2019_Aug_29_1408,MusicAffectPsychophysiology2019,3.0.5,59.9351189129323,
To what extent did the music make you feel ,FRUSTRATED,30MonoWAV/30MonoT2.wav,2,1,4,14,,,,,0,0,0,13,0,8,8,3,,,,,,,,,1,1.1863497240119614,,,093,001,2019_Aug_29_1408,MusicAffectPsychophysiology2019,3.0.5,59.9351189129323,
To what extent did the music make you feel ,EXCITED,30MonoWAV/30MonoT2.wav,2,1,4,14,,,,,0,0,0,13,0,9,9,7,,,,,,,,,3,1.952453523001168,,,093,001,2019_Aug_29_1408,MusicAffectPsychophysiology2019,3.0.5,59.9351189129323,
To what extent did the music make you feel ,HAPPY,30MonoWAV/30MonoT2.wav,2,1,4,14,,,,,0,0,0,13,0,10,10,6,,,,,,,,,3,2.3192353999766055,,,093,001,2019_Aug_29_1408,MusicAffectPsychophysiology2019,3.0.5,59.9351189129323,
To what extent did the music make you feel ,ACTIVE,30MonoWAV/30MonoT2.wav,2,1,4,14,,,,,0,0,0,13,0,11,11,9,,,,,,,,,2,3.1523701490077656,,,093,001,2019_Aug_29_1408,MusicAffectPsychophysiology2019,3.0.5,59.9351189129323,
,,30MonoWAV/30MonoT2.wav,2,1,4,14,,,,,0,0,0,13,,,,,,,,,,,,,,,,,093,001,2019_Aug_29_1408,MusicAffectPsychophysiology2019,3.0.5,59.9351189129323,
To what extent did the music make you feel ,GUILTY,30MonoWAV/30MonoS2.wav,1,1,3,10,,,,,0,1,1,9,0,0,0,5,,,1,5.934671675000573,1,2.800948126008734,2,2.299840890977066,2,3.5755392219871283,,,093,001,2019_Aug_29_1408,MusicAffectPsychophysiology2019,3.0.5,59.9351189129323,
To what extent did the music make you feel ,HAPPY,30MonoWAV/30MonoS2.wav,1,1,3,10,,,,,0,1,1,9,0,1,1,6,,,,,,,,,1,1.5521205569966696,,,093,001,2019_Aug_29_1408,MusicAffectPsychophysiology2019,3.0.5,59.9351189129323,
To what extent did the music make you feel ,EXCITED,30MonoWAV/30MonoS2.wav,1,1,3,10,,,,,0,1,1,9,0,2,2,7,,,,,,,,,1,2.7867425409785938,,,093,001,2019_Aug_29_1408,MusicAffectPsychophysiology2019,3.0.5,59.9351189129323,
To what extent did the music make you feel ,SCARED,30MonoWAV/30MonoS2.wav,1,1,3,10,,,,,0,1,1,9,0,3,3,11,,,,,,,,,3,1.5786049470189027,,,093,001,2019_Aug_29_1408,MusicAffectPsychophysiology2019,3.0.5,59.9351189129323,
To what extent did the music make you feel ,ACTIVE,30MonoWAV/30MonoS2.wav,1,1,3,10,,,,,0,1,1,9,0,4,4,9,,,,,,,,,2,1.7703369309892878,,,093,001,2019_Aug_29_1408,MusicAffectPsychophysiology2019,3.0.5,59.9351189129323,
To what extent did the music make you feel ,TENDER,30MonoWAV/30MonoS2.wav,1,1,3,10,,,,,0,1,1,9,0,5,5,10,,,,,,,,,3,1.7268701829889324,,,093,001,2019_Aug_29_1408,MusicAffectPsychophysiology2019,3.0.5,59.9351189129323,
To what extent did the music make you feel ,ALERT,30MonoWAV/30MonoS2.wav,1,1,3,10,,,,,0,1,1,9,0,6,6,8,,,,,,,,,2,2.103373919002479,,,093,001,2019_Aug_29_1408,MusicAffectPsychophysiology2019,3.0.5,59.9351189129323,
To what extent did the music make you feel ,ANXIOUS ,30MonoWAV/30MonoS2.wav,1,1,3,10,,,,,0,1,1,9,0,7,7,1,,,,,,,,,4,1.5858876959828194,,,093,001,2019_Aug_29_1408,MusicAffectPsychophysiology2019,3.0.5,59.9351189129323,
To what extent did the music make you feel ,ANGRY,30MonoWAV/30MonoS2.wav,1,1,3,10,,,,,0,1,1,9,0,8,8,2,,,,,,,,,3,3.9857275710091926,,,093,001,2019_Aug_29_1408,MusicAffectPsychophysiology2019,3.0.5,59.9351189129323,
To what extent did the music make you feel ,ASHAMED,30MonoWAV/30MonoS2.wav,1,1,3,10,,,,,0,1,1,9,0,9,9,4,,,,,,,,,2,2.851281783019658,,,093,001,2019_Aug_29_1408,MusicAffectPsychophysiology2019,3.0.5,59.9351189129323,
To what extent did the music make you feel ,SAD,30MonoWAV/30MonoS2.wav,1,1,3,10,,,,,0,1,1,9,0,10,10,0,,,,,,,,,3,1.6190833959844895,,,093,001,2019_Aug_29_1408,MusicAffectPsychophysiology2019,3.0.5,59.9351189129323,
To what extent did the music make you feel ,FRUSTRATED,30MonoWAV/30MonoS2.wav,1,1,3,10,,,,,0,1,1,9,0,11,11,3,,,,,,,,,3,2.7857860020012595,,,093,001,2019_Aug_29_1408,MusicAffectPsychophysiology2019,3.0.5,59.9351189129323,
,,30MonoWAV/30MonoS2.wav,1,1,3,10,,,,,0,1,1,9,,,,,,,,,,,,,,,,,093,001,2019_Aug_29_1408,MusicAffectPsychophysiology2019,3.0.5,59.9351189129323,
To what extent did the music make you feel ,FRUSTRATED,30MonoWAV/30MonoF1.wav,1,2,2,1,,,,,0,2,2,0,0,0,0,3,,,4,4.6523542029899545,2,3.6699951240152586,3,2.552704909001477,1,2.2199185019999277,,,093,001,2019_Aug_29_1408,MusicAffectPsychophysiology2019,3.0.5,59.9351189129323,
To what extent did the music make you feel ,TENDER,30MonoWAV/30MonoF1.wav,1,2,2,1,,,,,0,2,2,0,0,1,1,10,,,,,,,,,1,1.3696611560008023,,,093,001,2019_Aug_29_1408,MusicAffectPsychophysiology2019,3.0.5,59.9351189129323,
To what extent did the music make you feel ,ALERT,30MonoWAV/30MonoF1.wav,1,2,2,1,,,,,0,2,2,0,0,2,2,8,,,,,,,,,5,2.08581247300026,,,093,001,2019_Aug_29_1408,MusicAffectPsychophysiology2019,3.0.5,59.9351189129323,
To what extent did the music make you feel ,ASHAMED,30MonoWAV/30MonoF1.wav,1,2,2,1,,,,,0,2,2,0,0,3,3,4,,,,,,,,,1,1.385236126021482,,,093,001,2019_Aug_29_1408,MusicAffectPsychophysiology2019,3.0.5,59.9351189129323,
To what extent did the music make you feel ,HAPPY,30MonoWAV/30MonoF1.wav,1,2,2,1,,,,,0,2,2,0,0,4,4,6,,,,,,,,,3,1.7019271590106655,,,093,001,2019_Aug_29_1408,MusicAffectPsychophysiology2019,3.0.5,59.9351189129323,
To what extent did the music make you feel ,SAD,30MonoWAV/30MonoF1.wav,1,2,2,1,,,,,0,2,2,0,0,5,5,0,,,,,,,,,2,1.9502205349854194,,,093,001,2019_Aug_29_1408,MusicAffectPsychophysiology2019,3.0.5,59.9351189129323,
To what extent did the music make you feel ,ANGRY,30MonoWAV/30MonoF1.wav,1,2,2,1,,,,,0,2,2,0,0,6,6,2,,,,,,,,,1,1.8358216079941485,,,093,001,2019_Aug_29_1408,MusicAffectPsychophysiology2019,3.0.5,59.9351189129323,
To what extent did the music make you feel ,GUILTY,30MonoWAV/30MonoF1.wav,1,2,2,1,,,,,0,2,2,0,0,7,7,5,,,,,,,,,1,2.520274567999877,,,093,001,2019_Aug_29_1408,MusicAffectPsychophysiology2019,3.0.5,59.9351189129323,
To what extent did the music make you feel ,SCARED,30MonoWAV/30MonoF1.wav,1,2,2,1,,,,,0,2,2,0,0,8,8,11,,,,,,,,,3,1.9347343099943828,,,093,001,2019_Aug_29_1408,MusicAffectPsychophysiology2019,3.0.5,59.9351189129323,
To what extent did the music make you feel ,ACTIVE,30MonoWAV/30MonoF1.wav,1,2,2,1,,,,,0,2,2,0,0,9,9,9,,,,,,,,,4,1.4999400369997602,,,093,001,2019_Aug_29_1408,MusicAffectPsychophysiology2019,3.0.5,59.9351189129323,
To what extent did the music make you feel ,EXCITED,30MonoWAV/30MonoF1.wav,1,2,2,1,,,,,0,2,2,0,0,10,10,7,,,,,,,,,2,1.4190865130221937,,,093,001,2019_Aug_29_1408,MusicAffectPsychophysiology2019,3.0.5,59.9351189129323,
To what extent did the music make you feel ,ANXIOUS ,30MonoWAV/30MonoF1.wav,1,2,2,1,,,,,0,2,2,0,0,11,11,1,,,,,,,,,3,1.7508875010244083,,,093,001,2019_Aug_29_1408,MusicAffectPsychophysiology2019,3.0.5,59.9351189129323,
,,30MonoWAV/30MonoF1.wav,1,2,2,1,,,,,0,2,2,0,,,,,,,,,,,,,,,,,093,001,2019_Aug_29_1408,MusicAffectPsychophysiology2019,3.0.5,59.9351189129323,
To what extent did the music make you feel ,ANGRY,30MonoWAV/30MonoH3.wav,2,2,1,7,,,,,0,3,3,6,0,0,0,2,,,4,2.919011439982569,4,2.585959374002414,3,2.1182471020147204,1,3.486404991999734,,,093,001,2019_Aug_29_1408,MusicAffectPsychophysiology2019,3.0.5,59.9351189129323,
To what extent did the music make you feel ,ACTIVE,30MonoWAV/30MonoH3.wav,2,2,1,7,,,,,0,3,3,6,0,1,1,9,,,,,,,,,4,1.335571774019627,,,093,001,2019_Aug_29_1408,MusicAffectPsychophysiology2019,3.0.5,59.9351189129323,
To what extent did the music make you feel ,SAD,30MonoWAV/30MonoH3.wav,2,2,1,7,,,,,0,3,3,6,0,2,2,0,,,,,,,,,1,4.268682433990762,,,093,001,2019_Aug_29_1408,MusicAffectPsychophysiology2019,3.0.5,59.9351189129323,
To what extent did the music make you feel ,SCARED,30MonoWAV/30MonoH3.wav,2,2,1,7,,,,,0,3,3,6,0,3,3,11,,,,,,,,,1,1.403914171998622,,,093,001,2019_Aug_29_1408,MusicAffectPsychophysiology2019,3.0.5,59.9351189129323,
To what extent did the music make you feel ,ANXIOUS ,30MonoWAV/30MonoH3.wav,2,2,1,7,,,,,0,3,3,6,0,4,4,1,,,,,,,,,1,2.4858290789998136,,,093,001,2019_Aug_29_1408,MusicAffectPsychophysiology2019,3.0.5,59.9351189129323,
To what extent did the music make you feel ,FRUSTRATED,30MonoWAV/30MonoH3.wav,2,2,1,7,,,,,0,3,3,6,0,5,5,3,,,,,,,,,1,3.110466826998163,,,093,001,2019_Aug_29_1408,MusicAffectPsychophysiology2019,3.0.5,59.9351189129323,
To what extent did the music make you feel ,GUILTY,30MonoWAV/30MonoH3.wav,2,2,1,7,,,,,0,3,3,6,0,6,6,5,,,,,,,,,1,1.7693741679831874,,,093,001,2019_Aug_29_1408,MusicAffectPsychophysiology2019,3.0.5,59.9351189129323,
To what extent did the music make you feel ,EXCITED,30MonoWAV/30MonoH3.wav,2,2,1,7,,,,,0,3,3,6,0,7,7,7,,,,,,,,,4,4.135587565979222,,,093,001,2019_Aug_29_1408,MusicAffectPsychophysiology2019,3.0.5,59.9351189129323,
To what extent did the music make you feel ,TENDER,30MonoWAV/30MonoH3.wav,2,2,1,7,,,,,0,3,3,6,0,8,8,10,,,,,,,,,2,1.886589292989811,,,093,001,2019_Aug_29_1408,MusicAffectPsychophysiology2019,3.0.5,59.9351189129323,
To what extent did the music make you feel ,ALERT,30MonoWAV/30MonoH3.wav,2,2,1,7,,,,,0,3,3,6,0,9,9,8,,,,,,,,,4,1.736288300016895,,,093,001,2019_Aug_29_1408,MusicAffectPsychophysiology2019,3.0.5,59.9351189129323,
To what extent did the music make you feel ,ASHAMED,30MonoWAV/30MonoH3.wav,2,2,1,7,,,,,0,3,3,6,0,10,10,4,,,,,,,,,1,3.2527009540062863,,,093,001,2019_Aug_29_1408,MusicAffectPsychophysiology2019,3.0.5,59.9351189129323,
To what extent did the music make you feel ,HAPPY,30MonoWAV/30MonoH3.wav,2,2,1,7,,,,,0,3,3,6,0,11,11,6,,,,,,,,,4,2.9858609329967294,,,093,001,2019_Aug_29_1408,MusicAffectPsychophysiology2019,3.0.5,59.9351189129323,
,,30MonoWAV/30MonoH3.wav,2,2,1,7,,,,,0,3,3,6,,,,,,,,,,,,,,,,,093,001,2019_Aug_29_1408,MusicAffectPsychophysiology2019,3.0.5,59.9351189129323,
To what extent did the music make you feel ,FRUSTRATED,30MonoWAV/30MonoF2.wav,1,2,2,2,,,,,0,4,4,1,0,0,0,3,,,4,5.436046582995914,1,2.5693646329746116,2,2.9201691299967933,1,1.802631010999903,,,093,001,2019_Aug_29_1408,MusicAffectPsychophysiology2019,3.0.5,59.9351189129323,
To what extent did the music make you feel ,SCARED,30MonoWAV/30MonoF2.wav,1,2,2,2,,,,,0,4,4,1,0,1,1,11,,,,,,,,,4,1.420033018977847,,,093,001,2019_Aug_29_1408,MusicAffectPsychophysiology2019,3.0.5,59.9351189129323,
To what extent did the music make you feel ,ACTIVE,30MonoWAV/30MonoF2.wav,1,2,2,2,,,,,0,4,4,1,0,2,2,9,,,,,,,,,3,3.136596109980019,,,093,001,2019_Aug_29_1408,MusicAffectPsychophysiology2019,3.0.5,59.9351189129323,
To what extent did the music make you feel ,EXCITED,30MonoWAV/30MonoF2.wav,1,2,2,2,,,,,0,4,4,1,0,3,3,7,,,,,,,,,2,2.3188069189782254,,,093,001,2019_Aug_29_1408,MusicAffectPsychophysiology2019,3.0.5,59.9351189129323,
To what extent did the music make you feel ,TENDER,30MonoWAV/30MonoF2.wav,1,2,2,2,,,,,0,4,4,1,0,4,4,10,,,,,,,,,1,1.3524156179919373,,,093,001,2019_Aug_29_1408,MusicAffectPsychophysiology2019,3.0.5,59.9351189129323,
To what extent did the music make you feel ,SAD,30MonoWAV/30MonoF2.wav,1,2,2,2,,,,,0,4,4,1,0,5,5,0,,,,,,,,,1,2.684944078006083,,,093,001,2019_Aug_29_1408,MusicAffectPsychophysiology2019,3.0.5,59.9351189129323,
To what extent did the music make you feel ,ASHAMED,30MonoWAV/30MonoF2.wav,1,2,2,2,,,,,0,4,4,1,0,6,6,4,,,,,,,,,1,1.2862869880045764,,,093,001,2019_Aug_29_1408,MusicAffectPsychophysiology2019,3.0.5,59.9351189129323,
To what extent did the music make you feel ,ALERT,30MonoWAV/30MonoF2.wav,1,2,2,2,,,,,0,4,4,1,0,7,7,8,,,,,,,,,5,1.8357139079889748,,,093,001,2019_Aug_29_1408,MusicAffectPsychophysiology2019,3.0.5,59.9351189129323,
To what extent did the music make you feel ,ANXIOUS ,30MonoWAV/30MonoF2.wav,1,2,2,2,,,,,0,4,4,1,0,8,8,1,,,,,,,,,4,1.6016832609893754,,,093,001,2019_Aug_29_1408,MusicAffectPsychophysiology2019,3.0.5,59.9351189129323,
To what extent did the music make you feel ,HAPPY,30MonoWAV/30MonoF2.wav,1,2,2,2,,,,,0,4,4,1,0,9,9,6,,,,,,,,,2,2.0672529700095765,,,093,001,2019_Aug_29_1408,MusicAffectPsychophysiology2019,3.0.5,59.9351189129323,
To what extent did the music make you feel ,GUILTY,30MonoWAV/30MonoF2.wav,1,2,2,2,,,,,0,4,4,1,0,10,10,5,,,,,,,,,1,1.3165961370104924,,,093,001,2019_Aug_29_1408,MusicAffectPsychophysiology2019,3.0.5,59.9351189129323,
To what extent did the music make you feel ,ANGRY,30MonoWAV/30MonoF2.wav,1,2,2,2,,,,,0,4,4,1,0,11,11,2,,,,,,,,,1,1.801671184017323,,,093,001,2019_Aug_29_1408,MusicAffectPsychophysiology2019,3.0.5,59.9351189129323,
,,30MonoWAV/30MonoF2.wav,1,2,2,2,,,,,0,4,4,1,,,,,,,,,,,,,,,,,093,001,2019_Aug_29_1408,MusicAffectPsychophysiology2019,3.0.5,59.9351189129323,
To what extent did the music make you feel ,ACTIVE,30MonoWAV/30MonoT3.wav,2,1,4,15,,,,,0,5,5,14,0,0,0,9,,,3,3.7357921449874993,4,1.869639582990203,3,2.819433819007827,3,2.2952360950002912,,,093,001,2019_Aug_29_1408,MusicAffectPsychophysiology2019,3.0.5,59.9351189129323,
To what extent did the music make you feel ,HAPPY,30MonoWAV/30MonoT3.wav,2,1,4,15,,,,,0,5,5,14,0,1,1,6,,,,,,,,,3,1.5337933569971938,,,093,001,2019_Aug_29_1408,MusicAffectPsychophysiology2019,3.0.5,59.9351189129323,
To what extent did the music make you feel ,SCARED,30MonoWAV/30MonoT3.wav,2,1,4,15,,,,,0,5,5,14,0,2,2,11,,,,,,,,,1,1.4353769769950304,,,093,001,2019_Aug_29_1408,MusicAffectPsychophysiology2019,3.0.5,59.9351189129323,
To what extent did the music make you feel ,ALERT,30MonoWAV/30MonoT3.wav,2,1,4,15,,,,,0,5,5,14,0,3,3,8,,,,,,,,,3,1.9355966800067108,,,093,001,2019_Aug_29_1408,MusicAffectPsychophysiology2019,3.0.5,59.9351189129323,
To what extent did the music make you feel ,GUILTY,30MonoWAV/30MonoT3.wav,2,1,4,15,,,,,0,5,5,14,0,4,4,5,,,,,,,,,1,1.6527682410087436,,,093,001,2019_Aug_29_1408,MusicAffectPsychophysiology2019,3.0.5,59.9351189129323,
To what extent did the music make you feel ,ASHAMED,30MonoWAV/30MonoT3.wav,2,1,4,15,,,,,0,5,5,14,0,5,5,4,,,,,,,,,1,2.133316533989273,,,093,001,2019_Aug_29_1408,MusicAffectPsychophysiology2019,3.0.5,59.9351189129323,
To what extent did the music make you feel ,FRUSTRATED,30MonoWAV/30MonoT3.wav,2,1,4,15,,,,,0,5,5,14,0,6,6,3,,,,,,,,,1,2.1374044789990876,,,093,001,2019_Aug_29_1408,MusicAffectPsychophysiology2019,3.0.5,59.9351189129323,
To what extent did the music make you feel ,TENDER,30MonoWAV/30MonoT3.wav,2,1,4,15,,,,,0,5,5,14,0,7,7,10,,,,,,,,,4,1.6778718499990646,,,093,001,2019_Aug_29_1408,MusicAffectPsychophysiology2019,3.0.5,59.9351189129323,
To what extent did the music make you feel ,SAD,30MonoWAV/30MonoT3.wav,2,1,4,15,,,,,0,5,5,14,0,8,8,0,,,,,,,,,2,1.602067461994011,,,093,001,2019_Aug_29_1408,MusicAffectPsychophysiology2019,3.0.5,59.9351189129323,
To what extent did the music make you feel ,ANXIOUS ,30MonoWAV/30MonoT3.wav,2,1,4,15,,,,,0,5,5,14,0,9,9,1,,,,,,,,,2,2.086176434997469,,,093,001,2019_Aug_29_1408,MusicAffectPsychophysiology2019,3.0.5,59.9351189129323,
To what extent did the music make you feel ,ANGRY,30MonoWAV/30MonoT3.wav,2,1,4,15,,,,,0,5,5,14,0,10,10,2,,,,,,,,,1,1.3185806990077253,,,093,001,2019_Aug_29_1408,MusicAffectPsychophysiology2019,3.0.5,59.9351189129323,
To what extent did the music make you feel ,EXCITED,30MonoWAV/30MonoT3.wav,2,1,4,15,,,,,0,5,5,14,0,11,11,7,,,,,,,,,3,1.518658051994862,,,093,001,2019_Aug_29_1408,MusicAffectPsychophysiology2019,3.0.5,59.9351189129323,
,,30MonoWAV/30MonoT3.wav,2,1,4,15,,,,,0,5,5,14,,,,,,,,,,,,,,,,,093,001,2019_Aug_29_1408,MusicAffectPsychophysiology2019,3.0.5,59.9351189129323,
To what extent did the music make you feel ,ALERT,30MonoWAV/30MonoH2.wav,2,2,1,6,,,,,0,6,6,5,0,0,0,8,,,3,3.63619464499061,3,2.334891125006834,2,2.3372179539874196,3,1.6708854330063332,,,093,001,2019_Aug_29_1408,MusicAffectPsychophysiology2019,3.0.5,59.9351189129323,
To what extent did the music make you feel ,FRUSTRATED,30MonoWAV/30MonoH2.wav,2,2,1,6,,,,,0,6,6,5,0,1,1,3,,,,,,,,,2,1.8522821140068118,,,093,001,2019_Aug_29_1408,MusicAffectPsychophysiology2019,3.0.5,59.9351189129323,
To what extent did the music make you feel ,ANXIOUS ,30MonoWAV/30MonoH2.wav,2,2,1,6,,,,,0,6,6,5,0,2,2,1,,,,,,,,,1,1.616890159988543,,,093,001,2019_Aug_29_1408,MusicAffectPsychophysiology2019,3.0.5,59.9351189129323,
To what extent did the music make you feel ,HAPPY,30MonoWAV/30MonoH2.wav,2,2,1,6,,,,,0,6,6,5,0,3,3,6,,,,,,,,,2,1.5514075369865168,,,093,001,2019_Aug_29_1408,MusicAffectPsychophysiology2019,3.0.5,59.9351189129323,
To what extent did the music make you feel ,SAD,30MonoWAV/30MonoH2.wav,2,2,1,6,,,,,0,6,6,5,0,4,4,0,,,,,,,,,1,3.6342503459891304,,,093,001,2019_Aug_29_1408,MusicAffectPsychophysiology2019,3.0.5,59.9351189129323,
To what extent did the music make you feel ,TENDER,30MonoWAV/30MonoH2.wav,2,2,1,6,,,,,0,6,6,5,0,5,5,10,,,,,,,,,1,1.1028607420157641,,,093,001,2019_Aug_29_1408,MusicAffectPsychophysiology2019,3.0.5,59.9351189129323,
To what extent did the music make you feel ,ACTIVE,30MonoWAV/30MonoH2.wav,2,2,1,6,,,,,0,6,6,5,0,6,6,9,,,,,,,,,2,1.4528655589965638,,,093,001,2019_Aug_29_1408,MusicAffectPsychophysiology2019,3.0.5,59.9351189129323,
To what extent did the music make you feel ,GUILTY,30MonoWAV/30MonoH2.wav,2,2,1,6,,,,,0,6,6,5,0,7,7,5,,,,,,,,,1,6.952594890986802,,,093,001,2019_Aug_29_1408,MusicAffectPsychophysiology2019,3.0.5,59.9351189129323,
To what extent did the music make you feel ,ANGRY,30MonoWAV/30MonoH2.wav,2,2,1,6,,,,,0,6,6,5,0,8,8,2,,,,,,,,,2,2.1197007869777735,,,093,001,2019_Aug_29_1408,MusicAffectPsychophysiology2019,3.0.5,59.9351189129323,
To what extent did the music make you feel ,ASHAMED,30MonoWAV/30MonoH2.wav,2,2,1,6,,,,,0,6,6,5,0,9,9,4,,,,,,,,,1,1.7201510989980306,,,093,001,2019_Aug_29_1408,MusicAffectPsychophysiology2019,3.0.5,59.9351189129323,
To what extent did the music make you feel ,EXCITED,30MonoWAV/30MonoH2.wav,2,2,1,6,,,,,0,6,6,5,0,10,10,7,,,,,,,,,1,1.5367581349855755,,,093,001,2019_Aug_29_1408,MusicAffectPsychophysiology2019,3.0.5,59.9351189129323,
To what extent did the music make you feel ,SCARED,30MonoWAV/30MonoH2.wav,2,2,1,6,,,,,0,6,6,5,0,11,11,11,,,,,,,,,1,1.4348078169859946,,,093,001,2019_Aug_29_1408,MusicAffectPsychophysiology2019,3.0.5,59.9351189129323,
,,30MonoWAV/30MonoH2.wav,2,2,1,6,,,,,0,6,6,5,,,,,,,,,,,,,,,,,093,001,2019_Aug_29_1408,MusicAffectPsychophysiology2019,3.0.5,59.9351189129323,
To what extent did the music make you feel ,ANXIOUS ,30MonoWAV/30MonoF3.wav,1,2,2,3,,,,,0,7,7,2,0,0,0,1,,,5,4.435682203009492,3,2.0187547690002248,4,1.8520083879993763,4,1.7287024139950518,,,093,001,2019_Aug_29_1408,MusicAffectPsychophysiology2019,3.0.5,59.9351189129323,
To what extent did the music make you feel ,SCARED,30MonoWAV/30MonoF3.wav,1,2,2,3,,,,,0,7,7,2,0,1,1,11,,,,,,,,,5,1.67076228899532,,,093,001,2019_Aug_29_1408,MusicAffectPsychophysiology2019,3.0.5,59.9351189129323,
To what extent did the music make you feel ,EXCITED,30MonoWAV/30MonoF3.wav,1,2,2,3,,,,,0,7,7,2,0,2,2,7,,,,,,,,,4,2.36933776200749,,,093,001,2019_Aug_29_1408,MusicAffectPsychophysiology2019,3.0.5,59.9351189129323,
To what extent did the music make you feel ,FRUSTRATED,30MonoWAV/30MonoF3.wav,1,2,2,3,,,,,0,7,7,2,0,3,3,3,,,,,,,,,1,1.5285200749931391,,,093,001,2019_Aug_29_1408,MusicAffectPsychophysiology2019,3.0.5,59.9351189129323,
To what extent did the music make you feel ,TENDER,30MonoWAV/30MonoF3.wav,1,2,2,3,,,,,0,7,7,2,0,4,4,10,,,,,,,,,1,1.3883782750053797,,,093,001,2019_Aug_29_1408,MusicAffectPsychophysiology2019,3.0.5,59.9351189129323,
To what extent did the music make you feel ,ALERT,30MonoWAV/30MonoF3.wav,1,2,2,3,,,,,0,7,7,2,0,5,5,8,,,,,,,,,5,1.6198048040096182,,,093,001,2019_Aug_29_1408,MusicAffectPsychophysiology2019,3.0.5,59.9351189129323,
To what extent did the music make you feel ,HAPPY,30MonoWAV/30MonoF3.wav,1,2,2,3,,,,,0,7,7,2,0,6,6,6,,,,,,,,,4,2.3023947469773702,,,093,001,2019_Aug_29_1408,MusicAffectPsychophysiology2019,3.0.5,59.9351189129323,
To what extent did the music make you feel ,SAD,30MonoWAV/30MonoF3.wav,1,2,2,3,,,,,0,7,7,2,0,7,7,0,,,,,,,,,1,3.1026211740099825,,,093,001,2019_Aug_29_1408,MusicAffectPsychophysiology2019,3.0.5,59.9351189129323,
To what extent did the music make you feel ,ANGRY,30MonoWAV/30MonoF3.wav,1,2,2,3,,,,,0,7,7,2,0,8,8,2,,,,,,,,,2,1.5696245919971261,,,093,001,2019_Aug_29_1408,MusicAffectPsychophysiology2019,3.0.5,59.9351189129323,
To what extent did the music make you feel ,ASHAMED,30MonoWAV/30MonoF3.wav,1,2,2,3,,,,,0,7,7,2,0,9,9,4,,,,,,,,,1,1.53419590802514,,,093,001,2019_Aug_29_1408,MusicAffectPsychophysiology2019,3.0.5,59.9351189129323,
To what extent did the music make you feel ,ACTIVE,30MonoWAV/30MonoF3.wav,1,2,2,3,,,,,0,7,7,2,0,10,10,9,,,,,,,,,5,1.5525009540142491,,,093,001,2019_Aug_29_1408,MusicAffectPsychophysiology2019,3.0.5,59.9351189129323,
To what extent did the music make you feel ,GUILTY,30MonoWAV/30MonoF3.wav,1,2,2,3,,,,,0,7,7,2,0,11,11,5,,,,,,,,,2,3.3353143600106705,,,093,001,2019_Aug_29_1408,MusicAffectPsychophysiology2019,3.0.5,59.9351189129323,
,,30MonoWAV/30MonoF3.wav,1,2,2,3,,,,,0,7,7,2,,,,,,,,,,,,,,,,,093,001,2019_Aug_29_1408,MusicAffectPsychophysiology2019,3.0.5,59.9351189129323,
To what extent did the music make you feel ,SAD,30MonoWAV/30MonoH4.wav,2,2,1,8,,,,,0,8,8,7,0,0,0,0,,,2,3.8158502570004202,2,1.8864261870039627,1,1.6521131520275958,1,3.1385803789889906,,,093,001,2019_Aug_29_1408,MusicAffectPsychophysiology2019,3.0.5,59.9351189129323,
To what extent did the music make you feel ,ACTIVE,30MonoWAV/30MonoH4.wav,2,2,1,8,,,,,0,8,8,7,0,1,1,9,,,,,,,,,2,1.402654289995553,,,093,001,2019_Aug_29_1408,MusicAffectPsychophysiology2019,3.0.5,59.9351189129323,
To what extent did the music make you feel ,FRUSTRATED,30MonoWAV/30MonoH4.wav,2,2,1,8,,,,,0,8,8,7,0,2,2,3,,,,,,,,,3,1.6872245690028649,,,093,001,2019_Aug_29_1408,MusicAffectPsychophysiology2019,3.0.5,59.9351189129323,
To what extent did the music make you feel ,TENDER,30MonoWAV/30MonoH4.wav,2,2,1,8,,,,,0,8,8,7,0,3,3,10,,,,,,,,,1,1.4533492340124212,,,093,001,2019_Aug_29_1408,MusicAffectPsychophysiology2019,3.0.5,59.9351189129323,
To what extent did the music make you feel ,EXCITED,30MonoWAV/30MonoH4.wav,2,2,1,8,,,,,0,8,8,7,0,4,4,7,,,,,,,,,1,1.58640123900841,,,093,001,2019_Aug_29_1408,MusicAffectPsychophysiology2019,3.0.5,59.9351189129323,
To what extent did the music make you feel ,ALERT,30MonoWAV/30MonoH4.wav,2,2,1,8,,,,,0,8,8,7,0,5,5,8,,,,,,,,,2,1.2839871929900255,,,093,001,2019_Aug_29_1408,MusicAffectPsychophysiology2019,3.0.5,59.9351189129323,
To what extent did the music make you feel ,SCARED,30MonoWAV/30MonoH4.wav,2,2,1,8,,,,,0,8,8,7,0,6,6,11,,,,,,,,,1,1.2706508859992027,,,093,001,2019_Aug_29_1408,MusicAffectPsychophysiology2019,3.0.5,59.9351189129323,
To what extent did the music make you feel ,ANXIOUS ,30MonoWAV/30MonoH4.wav,2,2,1,8,,,,,0,8,8,7,0,7,7,1,,,,,,,,,1,1.0187970109982416,,,093,001,2019_Aug_29_1408,MusicAffectPsychophysiology2019,3.0.5,59.9351189129323,
To what extent did the music make you feel ,ANGRY,30MonoWAV/30MonoH4.wav,2,2,1,8,,,,,0,8,8,7,0,8,8,2,,,,,,,,,1,8.468251598998904,,,093,001,2019_Aug_29_1408,MusicAffectPsychophysiology2019,3.0.5,59.9351189129323,
To what extent did the music make you feel ,HAPPY,30MonoWAV/30MonoH4.wav,2,2,1,8,,,,,0,8,8,7,0,9,9,6,,,,,,,,,2,2.402802772994619,,,093,001,2019_Aug_29_1408,MusicAffectPsychophysiology2019,3.0.5,59.9351189129323,
To what extent did the music make you feel ,GUILTY,30MonoWAV/30MonoH4.wav,2,2,1,8,,,,,0,8,8,7,0,10,10,5,,,,,,,,,1,5.01882420401671,,,093,001,2019_Aug_29_1408,MusicAffectPsychophysiology2019,3.0.5,59.9351189129323,
To what extent did the music make you feel ,ASHAMED,30MonoWAV/30MonoH4.wav,2,2,1,8,,,,,0,8,8,7,0,11,11,4,,,,,,,,,2,1.8681835799943656,,,093,001,2019_Aug_29_1408,MusicAffectPsychophysiology2019,3.0.5,59.9351189129323,
,,30MonoWAV/30MonoH4.wav,2,2,1,8,,,,,0,8,8,7,,,,,,,,,,,,,,,,,093,001,2019_Aug_29_1408,MusicAffectPsychophysiology2019,3.0.5,59.9351189129323,
To what extent did the music make you feel ,ANXIOUS ,30MonoWAV/30MonoS3.wav,1,1,3,11,,,,,0,9,9,10,0,0,0,1,,,1,3.020357831992442,1,2.3518955440085847,1,1.8188874580082484,3,2.197022720996756,,,093,001,2019_Aug_29_1408,MusicAffectPsychophysiology2019,3.0.5,59.9351189129323,
To what extent did the music make you feel ,FRUSTRATED,30MonoWAV/30MonoS3.wav,1,1,3,11,,,,,0,9,9,10,0,1,1,3,,,,,,,,,3,1.7464711249922402,,,093,001,2019_Aug_29_1408,MusicAffectPsychophysiology2019,3.0.5,59.9351189129323,
To what extent did the music make you feel ,GUILTY,30MonoWAV/30MonoS3.wav,1,1,3,11,,,,,0,9,9,10,0,2,2,5,,,,,,,,,2,1.9354945719824173,,,093,001,2019_Aug_29_1408,MusicAffectPsychophysiology2019,3.0.5,59.9351189129323,
To what extent did the music make you feel ,EXCITED,30MonoWAV/30MonoS3.wav,1,1,3,11,,,,,0,9,9,10,0,3,3,7,,,,,,,,,1,1.1856423139979597,,,093,001,2019_Aug_29_1408,MusicAffectPsychophysiology2019,3.0.5,59.9351189129323,
To what extent did the music make you feel ,HAPPY,30MonoWAV/30MonoS3.wav,1,1,3,11,,,,,0,9,9,10,0,4,4,6,,,,,,,,,1,2.135394264012575,,,093,001,2019_Aug_29_1408,MusicAffectPsychophysiology2019,3.0.5,59.9351189129323,
To what extent did the music make you feel ,ACTIVE,30MonoWAV/30MonoS3.wav,1,1,3,11,,,,,0,9,9,10,0,5,5,9,,,,,,,,,2,1.40375993802445,,,093,001,2019_Aug_29_1408,MusicAffectPsychophysiology2019,3.0.5,59.9351189129323,
To what extent did the music make you feel ,SCARED,30MonoWAV/30MonoS3.wav,1,1,3,11,,,,,0,9,9,10,0,6,6,11,,,,,,,,,1,1.7028002029983327,,,093,001,2019_Aug_29_1408,MusicAffectPsychophysiology2019,3.0.5,59.9351189129323,
To what extent did the music make you feel ,ANGRY,30MonoWAV/30MonoS3.wav,1,1,3,11,,,,,0,9,9,10,0,7,7,2,,,,,,,,,2,2.036136634997092,,,093,001,2019_Aug_29_1408,MusicAffectPsychophysiology2019,3.0.5,59.9351189129323,
To what extent did the music make you feel ,ASHAMED,30MonoWAV/30MonoS3.wav,1,1,3,11,,,,,0,9,9,10,0,8,8,4,,,,,,,,,1,1.186057663988322,,,093,001,2019_Aug_29_1408,MusicAffectPsychophysiology2019,3.0.5,59.9351189129323,
To what extent did the music make you feel ,ALERT,30MonoWAV/30MonoS3.wav,1,1,3,11,,,,,0,9,9,10,0,9,9,8,,,,,,,,,1,1.7671564719930757,,,093,001,2019_Aug_29_1408,MusicAffectPsychophysiology2019,3.0.5,59.9351189129323,
To what extent did the music make you feel ,SAD,30MonoWAV/30MonoS3.wav,1,1,3,11,,,,,0,9,9,10,0,10,10,0,,,,,,,,,2,2.836500461999094,,,093,001,2019_Aug_29_1408,MusicAffectPsychophysiology2019,3.0.5,59.9351189129323,
To what extent did the music make you feel ,TENDER,30MonoWAV/30MonoS3.wav,1,1,3,11,,,,,0,9,9,10,0,11,11,10,,,,,,,,,2,2.0870888130157255,,,093,001,2019_Aug_29_1408,MusicAffectPsychophysiology2019,3.0.5,59.9351189129323,
,,30MonoWAV/30MonoS3.wav,1,1,3,11,,,,,0,9,9,10,,,,,,,,,,,,,,,,,093,001,2019_Aug_29_1408,MusicAffectPsychophysiology2019,3.0.5,59.9351189129323,
To what extent did the music make you feel ,TENDER,30MonoWAV/30MonoT1.wav,2,1,4,13,,,,,0,10,10,12,0,0,0,10,,,1,2.936112286988646,2,2.5357187440095004,1,2.2697377479926217,3,1.7840444179892074,,,093,001,2019_Aug_29_1408,MusicAffectPsychophysiology2019,3.0.5,59.9351189129323,
To what extent did the music make you feel ,SCARED,30MonoWAV/30MonoT1.wav,2,1,4,13,,,,,0,10,10,12,0,1,1,11,,,,,,,,,1,1.8690023839881178,,,093,001,2019_Aug_29_1408,MusicAffectPsychophysiology2019,3.0.5,59.9351189129323,
To what extent did the music make you feel ,HAPPY,30MonoWAV/30MonoT1.wav,2,1,4,13,,,,,0,10,10,12,0,2,2,6,,,,,,,,,2,1.3699017059989274,,,093,001,2019_Aug_29_1408,MusicAffectPsychophysiology2019,3.0.5,59.9351189129323,
To what extent did the music make you feel ,ANGRY,30MonoWAV/30MonoT1.wav,2,1,4,13,,,,,0,10,10,12,0,3,3,2,,,,,,,,,1,1.5201524700096343,,,093,001,2019_Aug_29_1408,MusicAffectPsychophysiology2019,3.0.5,59.9351189129323,
To what extent did the music make you feel ,ALERT,30MonoWAV/30MonoT1.wav,2,1,4,13,,,,,0,10,10,12,0,4,4,8,,,,,,,,,2,1.6193393229914363,,,093,001,2019_Aug_29_1408,MusicAffectPsychophysiology2019,3.0.5,59.9351189129323,
To what extent did the music make you feel ,SAD,30MonoWAV/30MonoT1.wav,2,1,4,13,,,,,0,10,10,12,0,5,5,0,,,,,,,,,2,1.7161615620134398,,,093,001,2019_Aug_29_1408,MusicAffectPsychophysiology2019,3.0.5,59.9351189129323,
To what extent did the music make you feel ,ACTIVE,30MonoWAV/30MonoT1.wav,2,1,4,13,,,,,0,10,10,12,0,6,6,9,,,,,,,,,1,1.5540369559894316,,,093,001,2019_Aug_29_1408,MusicAffectPsychophysiology2019,3.0.5,59.9351189129323,
To what extent did the music make you feel ,FRUSTRATED,30MonoWAV/30MonoT1.wav,2,1,4,13,,,,,0,10,10,12,0,7,7,3,,,,,,,,,1,2.7207381739863195,,,093,001,2019_Aug_29_1408,MusicAffectPsychophysiology2019,3.0.5,59.9351189129323,
To what extent did the music make you feel ,ASHAMED,30MonoWAV/30MonoT1.wav,2,1,4,13,,,,,0,10,10,12,0,8,8,4,,,,,,,,,1,1.1523760970158037,,,093,001,2019_Aug_29_1408,MusicAffectPsychophysiology2019,3.0.5,59.9351189129323,
To what extent did the music make you feel ,ANXIOUS ,30MonoWAV/30MonoT1.wav,2,1,4,13,,,,,0,10,10,12,0,9,9,1,,,,,,,,,2,1.13728910300415,,,093,001,2019_Aug_29_1408,MusicAffectPsychophysiology2019,3.0.5,59.9351189129323,
To what extent did the music make you feel ,GUILTY,30MonoWAV/30MonoT1.wav,2,1,4,13,,,,,0,10,10,12,0,10,10,5,,,,,,,,,1,1.5841417109768372,,,093,001,2019_Aug_29_1408,MusicAffectPsychophysiology2019,3.0.5,59.9351189129323,
To what extent did the music make you feel ,EXCITED,30MonoWAV/30MonoT1.wav,2,1,4,13,,,,,0,10,10,12,0,11,11,7,,,,,,,,,2,3.134874907002086,,,093,001,2019_Aug_29_1408,MusicAffectPsychophysiology2019,3.0.5,59.9351189129323,
,,30MonoWAV/30MonoT1.wav,2,1,4,13,,,,,0,10,10,12,,,,,,,,,,,,,,,,,093,001,2019_Aug_29_1408,MusicAffectPsychophysiology2019,3.0.5,59.9351189129323,
To what extent did the music make you feel ,SAD,30MonoWAV/30MonoS4.wav,1,1,3,12,,,,,0,11,11,11,0,0,0,0,,,2,2.9701576909865253,1,2.7664323140052147,3,2.735643469990464,4,2.9306456900085323,,,093,001,2019_Aug_29_1408,MusicAffectPsychophysiology2019,3.0.5,59.9351189129323,
To what extent did the music make you feel ,EXCITED,30MonoWAV/30MonoS4.wav,1,1,3,12,,,,,0,11,11,11,0,1,1,7,,,,,,,,,2,1.886495056009153,,,093,001,2019_Aug_29_1408,MusicAffectPsychophysiology2019,3.0.5,59.9351189129323,
To what extent did the music make you feel ,ASHAMED,30MonoWAV/30MonoS4.wav,1,1,3,12,,,,,0,11,11,11,0,2,2,4,,,,,,,,,1,2.536507577984594,,,093,001,2019_Aug_29_1408,MusicAffectPsychophysiology2019,3.0.5,59.9351189129323,
To what extent did the music make you feel ,ALERT,30MonoWAV/30MonoS4.wav,1,1,3,12,,,,,0,11,11,11,0,3,3,8,,,,,,,,,2,1.4535687229945324,,,093,001,2019_Aug_29_1408,MusicAffectPsychophysiology2019,3.0.5,59.9351189129323,
To what extent did the music make you feel ,FRUSTRATED,30MonoWAV/30MonoS4.wav,1,1,3,12,,,,,0,11,11,11,0,4,4,3,,,,,,,,,1,1.3135300590074621,,,093,001,2019_Aug_29_1408,MusicAffectPsychophysiology2019,3.0.5,59.9351189129323,
To what extent did the music make you feel ,ANGRY,30MonoWAV/30MonoS4.wav,1,1,3,12,,,,,0,11,11,11,0,5,5,2,,,,,,,,,1,0.9691046189982444,,,093,001,2019_Aug_29_1408,MusicAffectPsychophysiology2019,3.0.5,59.9351189129323,
To what extent did the music make you feel ,GUILTY,30MonoWAV/30MonoS4.wav,1,1,3,12,,,,,0,11,11,11,0,6,6,5,,,,,,,,,1,0.9679933909792453,,,093,001,2019_Aug_29_1408,MusicAffectPsychophysiology2019,3.0.5,59.9351189129323,
To what extent did the music make you feel ,SCARED,30MonoWAV/30MonoS4.wav,1,1,3,12,,,,,0,11,11,11,0,7,7,11,,,,,,,,,1,1.6029179359902628,,,093,001,2019_Aug_29_1408,MusicAffectPsychophysiology2019,3.0.5,59.9351189129323,
To what extent did the music make you feel ,TENDER,30MonoWAV/30MonoS4.wav,1,1,3,12,,,,,0,11,11,11,0,8,8,10,,,,,,,,,4,2.334681385982549,,,093,001,2019_Aug_29_1408,MusicAffectPsychophysiology2019,3.0.5,59.9351189129323,
To what extent did the music make you feel ,ANXIOUS ,30MonoWAV/30MonoS4.wav,1,1,3,12,,,,,0,11,11,11,0,9,9,1,,,,,,,,,2,3.0688404829998035,,,093,001,2019_Aug_29_1408,MusicAffectPsychophysiology2019,3.0.5,59.9351189129323,
To what extent did the music make you feel ,HAPPY,30MonoWAV/30MonoS4.wav,1,1,3,12,,,,,0,11,11,11,0,10,10,6,,,,,,,,,2,1.9030242360022385,,,093,001,2019_Aug_29_1408,MusicAffectPsychophysiology2019,3.0.5,59.9351189129323,
To what extent did the music make you feel ,ACTIVE,30MonoWAV/30MonoS4.wav,1,1,3,12,,,,,0,11,11,11,0,11,11,9,,,,,,,,,1,1.4354536210012157,,,093,001,2019_Aug_29_1408,MusicAffectPsychophysiology2019,3.0.5,59.9351189129323,
,,30MonoWAV/30MonoS4.wav,1,1,3,12,,,,,0,11,11,11,,,,,,,,,,,,,,,,,093,001,2019_Aug_29_1408,MusicAffectPsychophysiology2019,3.0.5,59.9351189129323,
To what extent did the music make you feel ,FRUSTRATED,30MonoWAV/30MonoS1.wav,1,1,3,9,,,,,0,12,12,8,0,0,0,3,,,2,3.037947766977595,2,1.8535581190080848,1,1.7002356309967581,3,1.9520144490234088,,,093,001,2019_Aug_29_1408,MusicAffectPsychophysiology2019,3.0.5,59.9351189129323,
To what extent did the music make you feel ,ACTIVE,30MonoWAV/30MonoS1.wav,1,1,3,9,,,,,0,12,12,8,0,1,1,9,,,,,,,,,1,1.4573202939936891,,,093,001,2019_Aug_29_1408,MusicAffectPsychophysiology2019,3.0.5,59.9351189129323,
To what extent did the music make you feel ,SAD,30MonoWAV/30MonoS1.wav,1,1,3,9,,,,,0,12,12,8,0,2,2,0,,,,,,,,,2,1.2191119380004238,,,093,001,2019_Aug_29_1408,MusicAffectPsychophysiology2019,3.0.5,59.9351189129323,
To what extent did the music make you feel ,ALERT,30MonoWAV/30MonoS1.wav,1,1,3,9,,,,,0,12,12,8,0,3,3,8,,,,,,,,,2,1.5502255930041429,,,093,001,2019_Aug_29_1408,MusicAffectPsychophysiology2019,3.0.5,59.9351189129323,
To what extent did the music make you feel ,ANXIOUS ,30MonoWAV/30MonoS1.wav,1,1,3,9,,,,,0,12,12,8,0,4,4,1,,,,,,,,,3,1.6854770320060197,,,093,001,2019_Aug_29_1408,MusicAffectPsychophysiology2019,3.0.5,59.9351189129323,
To what extent did the music make you feel ,ASHAMED,30MonoWAV/30MonoS1.wav,1,1,3,9,,,,,0,12,12,8,0,5,5,4,,,,,,,,,1,1.852045724983327,,,093,001,2019_Aug_29_1408,MusicAffectPsychophysiology2019,3.0.5,59.9351189129323,
To what extent did the music make you feel ,EXCITED,30MonoWAV/30MonoS1.wav,1,1,3,9,,,,,0,12,12,8,0,6,6,7,,,,,,,,,1,1.669482238998171,,,093,001,2019_Aug_29_1408,MusicAffectPsychophysiology2019,3.0.5,59.9351189129323,
To what extent did the music make you feel ,ANGRY,30MonoWAV/30MonoS1.wav,1,1,3,9,,,,,0,12,12,8,0,7,7,2,,,,,,,,,1,1.7540854499966372,,,093,001,2019_Aug_29_1408,MusicAffectPsychophysiology2019,3.0.5,59.9351189129323,
To what extent did the music make you feel ,SCARED,30MonoWAV/30MonoS1.wav,1,1,3,9,,,,,0,12,12,8,0,8,8,11,,,,,,,,,2,2.4856221079826355,,,093,001,2019_Aug_29_1408,MusicAffectPsychophysiology2019,3.0.5,59.9351189129323,
To what extent did the music make you feel ,GUILTY,30MonoWAV/30MonoS1.wav,1,1,3,9,,,,,0,12,12,8,0,9,9,5,,,,,,,,,2,11.001190451992443,,,093,001,2019_Aug_29_1408,MusicAffectPsychophysiology2019,3.0.5,59.9351189129323,
To what extent did the music make you feel ,TENDER,30MonoWAV/30MonoS1.wav,1,1,3,9,,,,,0,12,12,8,0,10,10,10,,,,,,,,,3,4.003126893017907,,,093,001,2019_Aug_29_1408,MusicAffectPsychophysiology2019,3.0.5,59.9351189129323,
To what extent did the music make you feel ,HAPPY,30MonoWAV/30MonoS1.wav,1,1,3,9,,,,,0,12,12,8,0,11,11,6,,,,,,,,,1,2.2191610420122743,,,093,001,2019_Aug_29_1408,MusicAffectPsychophysiology2019,3.0.5,59.9351189129323,
,,30MonoWAV/30MonoS1.wav,1,1,3,9,,,,,0,12,12,8,,,,,,,,,,,,,,,,,093,001,2019_Aug_29_1408,MusicAffectPsychophysiology2019,3.0.5,59.9351189129323,
To what extent did the music make you feel ,TENDER,30MonoWAV/30MonoT4.wav,2,1,4,16,,,,,0,13,13,15,0,0,0,10,,,3,3.386795599013567,3,2.1529114629956894,4,1.7693884699838236,4,1.5485174049972557,,,093,001,2019_Aug_29_1408,MusicAffectPsychophysiology2019,3.0.5,59.9351189129323,
To what extent did the music make you feel ,ACTIVE,30MonoWAV/30MonoT4.wav,2,1,4,16,,,,,0,13,13,15,0,1,1,9,,,,,,,,,2,1.3693243809975684,,,093,001,2019_Aug_29_1408,MusicAffectPsychophysiology2019,3.0.5,59.9351189129323,
To what extent did the music make you feel ,ANGRY,30MonoWAV/30MonoT4.wav,2,1,4,16,,,,,0,13,13,15,0,2,2,2,,,,,,,,,1,1.7697990899905562,,,093,001,2019_Aug_29_1408,MusicAffectPsychophysiology2019,3.0.5,59.9351189129323,
To what extent did the music make you feel ,SCARED,30MonoWAV/30MonoT4.wav,2,1,4,16,,,,,0,13,13,15,0,3,3,11,,,,,,,,,1,1.4706032290123403,,,093,001,2019_Aug_29_1408,MusicAffectPsychophysiology2019,3.0.5,59.9351189129323,
To what extent did the music make you feel ,FRUSTRATED,30MonoWAV/30MonoT4.wav,2,1,4,16,,,,,0,13,13,15,0,4,4,3,,,,,,,,,1,1.2479234939964954,,,093,001,2019_Aug_29_1408,MusicAffectPsychophysiology2019,3.0.5,59.9351189129323,
To what extent did the music make you feel ,GUILTY,30MonoWAV/30MonoT4.wav,2,1,4,16,,,,,0,13,13,15,0,5,5,5,,,,,,,,,2,1.4828646829992067,,,093,001,2019_Aug_29_1408,MusicAffectPsychophysiology2019,3.0.5,59.9351189129323,
To what extent did the music make you feel ,SAD,30MonoWAV/30MonoT4.wav,2,1,4,16,,,,,0,13,13,15,0,6,6,0,,,,,,,,,4,2.2335856269928627,,,093,001,2019_Aug_29_1408,MusicAffectPsychophysiology2019,3.0.5,59.9351189129323,
To what extent did the music make you feel ,HAPPY,30MonoWAV/30MonoT4.wav,2,1,4,16,,,,,0,13,13,15,0,7,7,6,,,,,,,,,2,2.086295412009349,,,093,001,2019_Aug_29_1408,MusicAffectPsychophysiology2019,3.0.5,59.9351189129323,
To what extent did the music make you feel ,ASHAMED,30MonoWAV/30MonoT4.wav,2,1,4,16,,,,,0,13,13,15,0,8,8,4,,,,,,,,,1,4.152288848999888,,,093,001,2019_Aug_29_1408,MusicAffectPsychophysiology2019,3.0.5,59.9351189129323,
To what extent did the music make you feel ,EXCITED,30MonoWAV/30MonoT4.wav,2,1,4,16,,,,,0,13,13,15,0,9,9,7,,,,,,,,,3,1.535285202000523,,,093,001,2019_Aug_29_1408,MusicAffectPsychophysiology2019,3.0.5,59.9351189129323,
To what extent did the music make you feel ,ALERT,30MonoWAV/30MonoT4.wav,2,1,4,16,,,,,0,13,13,15,0,10,10,8,,,,,,,,,3,1.9836778540047817,,,093,001,2019_Aug_29_1408,MusicAffectPsychophysiology2019,3.0.5,59.9351189129323,
To what extent did the music make you feel ,ANXIOUS ,30MonoWAV/30MonoT4.wav,2,1,4,16,,,,,0,13,13,15,0,11,11,1,,,,,,,,,2,2.0849076860176865,,,093,001,2019_Aug_29_1408,MusicAffectPsychophysiology2019,3.0.5,59.9351189129323,
,,30MonoWAV/30MonoT4.wav,2,1,4,16,,,,,0,13,13,15,,,,,,,,,,,,,,,,,093,001,2019_Aug_29_1408,MusicAffectPsychophysiology2019,3.0.5,59.9351189129323,
To what extent did the music make you feel ,EXCITED,30MonoWAV/30MonoF4.wav,1,2,2,4,,,,,0,14,14,3,0,0,0,7,,,5,2.7833351559820585,3,2.5358400139957666,3,1.5356722320138942,3,1.6910205500025768,,,093,001,2019_Aug_29_1408,MusicAffectPsychophysiology2019,3.0.5,59.9351189129323,
To what extent did the music make you feel ,SCARED,30MonoWAV/30MonoF4.wav,1,2,2,4,,,,,0,14,14,3,0,1,1,11,,,,,,,,,3,1.618541097996058,,,093,001,2019_Aug_29_1408,MusicAffectPsychophysiology2019,3.0.5,59.9351189129323,
To what extent did the music make you feel ,ANGRY,30MonoWAV/30MonoF4.wav,1,2,2,4,,,,,0,14,14,3,0,2,2,2,,,,,,,,,2,2.7690927399962675,,,093,001,2019_Aug_29_1408,MusicAffectPsychophysiology2019,3.0.5,59.9351189129323,
To what extent did the music make you feel ,FRUSTRATED,30MonoWAV/30MonoF4.wav,1,2,2,4,,,,,0,14,14,3,0,3,3,3,,,,,,,,,1,1.1536712680244818,,,093,001,2019_Aug_29_1408,MusicAffectPsychophysiology2019,3.0.5,59.9351189129323,
To what extent did the music make you feel ,ANXIOUS ,30MonoWAV/30MonoF4.wav,1,2,2,4,,,,,0,14,14,3,0,4,4,1,,,,,,,,,3,1.1861401579808444,,,093,001,2019_Aug_29_1408,MusicAffectPsychophysiology2019,3.0.5,59.9351189129323,
To what extent did the music make you feel ,TENDER,30MonoWAV/30MonoF4.wav,1,2,2,4,,,,,0,14,14,3,0,5,5,10,,,,,,,,,1,1.2363335659902077,,,093,001,2019_Aug_29_1408,MusicAffectPsychophysiology2019,3.0.5,59.9351189129323,
To what extent did the music make you feel ,SAD,30MonoWAV/30MonoF4.wav,1,2,2,4,,,,,0,14,14,3,0,6,6,0,,,,,,,,,1,2.5195780679932795,,,093,001,2019_Aug_29_1408,MusicAffectPsychophysiology2019,3.0.5,59.9351189129323,
To what extent did the music make you feel ,GUILTY,30MonoWAV/30MonoF4.wav,1,2,2,4,,,,,0,14,14,3,0,7,7,5,,,,,,,,,1,1.302774972980842,,,093,001,2019_Aug_29_1408,MusicAffectPsychophysiology2019,3.0.5,59.9351189129323,
To what extent did the music make you feel ,HAPPY,30MonoWAV/30MonoF4.wav,1,2,2,4,,,,,0,14,14,3,0,8,8,6,,,,,,,,,2,1.5861121999914758,,,093,001,2019_Aug_29_1408,MusicAffectPsychophysiology2019,3.0.5,59.9351189129323,
To what extent did the music make you feel ,ACTIVE,30MonoWAV/30MonoF4.wav,1,2,2,4,,,,,0,14,14,3,0,9,9,9,,,,,,,,,4,1.4184575570106972,,,093,001,2019_Aug_29_1408,MusicAffectPsychophysiology2019,3.0.5,59.9351189129323,
To what extent did the music make you feel ,ASHAMED,30MonoWAV/30MonoF4.wav,1,2,2,4,,,,,0,14,14,3,0,10,10,4,,,,,,,,,2,2.385608284996124,,,093,001,2019_Aug_29_1408,MusicAffectPsychophysiology2019,3.0.5,59.9351189129323,
To what extent did the music make you feel ,ALERT,30MonoWAV/30MonoF4.wav,1,2,2,4,,,,,0,14,14,3,0,11,11,8,,,,,,,,,5,1.569483127008425,,,093,001,2019_Aug_29_1408,MusicAffectPsychophysiology2019,3.0.5,59.9351189129323,
,,30MonoWAV/30MonoF4.wav,1,2,2,4,,,,,0,14,14,3,,,,,,,,,,,,,,,,,093,001,2019_Aug_29_1408,MusicAffectPsychophysiology2019,3.0.5,59.9351189129323,
To what extent did the music make you feel ,FRUSTRATED,30MonoWAV/30MonoH1.wav,2,2,1,5,,,,,0,15,15,4,0,0,0,3,,,4,2.435704871022608,4,1.8696427129907534,4,1.4840665769879706,2,2.035896245011827,,,093,001,2019_Aug_29_1408,MusicAffectPsychophysiology2019,3.0.5,59.9351189129323,
To what extent did the music make you feel ,SAD,30MonoWAV/30MonoH1.wav,2,2,1,5,,,,,0,15,15,4,0,1,1,0,,,,,,,,,2,4.053074066003319,,,093,001,2019_Aug_29_1408,MusicAffectPsychophysiology2019,3.0.5,59.9351189129323,
To what extent did the music make you feel ,HAPPY,30MonoWAV/30MonoH1.wav,2,2,1,5,,,,,0,15,15,4,0,2,2,6,,,,,,,,,3,1.4520966999989469,,,093,001,2019_Aug_29_1408,MusicAffectPsychophysiology2019,3.0.5,59.9351189129323,
To what extent did the music make you feel ,ANGRY,30MonoWAV/30MonoH1.wav,2,2,1,5,,,,,0,15,15,4,0,3,3,2,,,,,,,,,2,1.4189494340098463,,,093,001,2019_Aug_29_1408,MusicAffectPsychophysiology2019,3.0.5,59.9351189129323,
To what extent did the music make you feel ,TENDER,30MonoWAV/30MonoH1.wav,2,2,1,5,,,,,0,15,15,4,0,4,4,10,,,,,,,,,2,1.4865053269895725,,,093,001,2019_Aug_29_1408,MusicAffectPsychophysiology2019,3.0.5,59.9351189129323,
To what extent did the music make you feel ,ASHAMED,30MonoWAV/30MonoH1.wav,2,2,1,5,,,,,0,15,15,4,0,5,5,4,,,,,,,,,1,1.702014433016302,,,093,001,2019_Aug_29_1408,MusicAffectPsychophysiology2019,3.0.5,59.9351189129323,
To what extent did the music make you feel ,ACTIVE,30MonoWAV/30MonoH1.wav,2,2,1,5,,,,,0,15,15,4,0,6,6,9,,,,,,,,,4,1.586308216006728,,,093,001,2019_Aug_29_1408,MusicAffectPsychophysiology2019,3.0.5,59.9351189129323,
To what extent did the music make you feel ,GUILTY,30MonoWAV/30MonoH1.wav,2,2,1,5,,,,,0,15,15,4,0,7,7,5,,,,,,,,,1,1.5703307900112122,,,093,001,2019_Aug_29_1408,MusicAffectPsychophysiology2019,3.0.5,59.9351189129323,
To what extent did the music make you feel ,ALERT,30MonoWAV/30MonoH1.wav,2,2,1,5,,,,,0,15,15,4,0,8,8,8,,,,,,,,,3,1.719188147020759,,,093,001,2019_Aug_29_1408,MusicAffectPsychophysiology2019,3.0.5,59.9351189129323,
To what extent did the music make you feel ,SCARED,30MonoWAV/30MonoH1.wav,2,2,1,5,,,,,0,15,15,4,0,9,9,11,,,,,,,,,1,1.8039000089920592,,,093,001,2019_Aug_29_1408,MusicAffectPsychophysiology2019,3.0.5,59.9351189129323,
To what extent did the music make you feel ,ANXIOUS ,30MonoWAV/30MonoH1.wav,2,2,1,5,,,,,0,15,15,4,0,10,10,1,,,,,,,,,1,2.119383207987994,,,093,001,2019_Aug_29_1408,MusicAffectPsychophysiology2019,3.0.5,59.9351189129323,
To what extent did the music make you feel ,EXCITED,30MonoWAV/30MonoH1.wav,2,2,1,5,,,,,0,15,15,4,0,11,11,7,,,,,,,,,3,1.6026993849955034,,,093,001,2019_Aug_29_1408,MusicAffectPsychophysiology2019,3.0.5,59.9351189129323,
,,30MonoWAV/30MonoH1.wav,2,2,1,5,,,,,0,15,15,4,,,,,,,,,,,,,,,,,093,001,2019_Aug_29_1408,MusicAffectPsychophysiology2019,3.0.5,59.9351189129323,
To what extent did the music make you feel ,ALERT,30MonoWAV/30MonoF4.wav,1,2,2,4,,,,,1,0,16,3,0,0,0,8,,,4,3.3526491970114876,2,3.05226029001642,2,1.9361576329974923,4,1.3425116679864004,,,093,001,2019_Aug_29_1408,MusicAffectPsychophysiology2019,3.0.5,59.9351189129323,
To what extent did the music make you feel ,ANXIOUS ,30MonoWAV/30MonoF4.wav,1,2,2,4,,,,,1,0,16,3,0,1,1,1,,,,,,,,,4,1.502070061978884,,,093,001,2019_Aug_29_1408,MusicAffectPsychophysiology2019,3.0.5,59.9351189129323,
To what extent did the music make you feel ,FRUSTRATED,30MonoWAV/30MonoF4.wav,1,2,2,4,,,,,1,0,16,3,0,2,2,3,,,,,,,,,2,1.7394906489935238,,,093,001,2019_Aug_29_1408,MusicAffectPsychophysiology2019,3.0.5,59.9351189129323,
To what extent did the music make you feel ,GUILTY,30MonoWAV/30MonoF4.wav,1,2,2,4,,,,,1,0,16,3,0,3,3,5,,,,,,,,,1,2.0695013079966884,,,093,001,2019_Aug_29_1408,MusicAffectPsychophysiology2019,3.0.5,59.9351189129323,
To what extent did the music make you feel ,SAD,30MonoWAV/30MonoF4.wav,1,2,2,4,,,,,1,0,16,3,0,4,4,0,,,,,,,,,1,1.036141216987744,,,093,001,2019_Aug_29_1408,MusicAffectPsychophysiology2019,3.0.5,59.9351189129323,
To what extent did the music make you feel ,ANGRY,30MonoWAV/30MonoF4.wav,1,2,2,4,,,,,1,0,16,3,0,5,5,2,,,,,,,,,2,1.3699858819891233,,,093,001,2019_Aug_29_1408,MusicAffectPsychophysiology2019,3.0.5,59.9351189129323,
To what extent did the music make you feel ,TENDER,30MonoWAV/30MonoF4.wav,1,2,2,4,,,,,1,0,16,3,0,6,6,10,,,,,,,,,1,1.018529099994339,,,093,001,2019_Aug_29_1408,MusicAffectPsychophysiology2019,3.0.5,59.9351189129323,
To what extent did the music make you feel ,EXCITED,30MonoWAV/30MonoF4.wav,1,2,2,4,,,,,1,0,16,3,0,7,7,7,,,,,,,,,3,1.4862904699984938,,,093,001,2019_Aug_29_1408,MusicAffectPsychophysiology2019,3.0.5,59.9351189129323,
To what extent did the music make you feel ,ACTIVE,30MonoWAV/30MonoF4.wav,1,2,2,4,,,,,1,0,16,3,0,8,8,9,,,,,,,,,4,1.0530654629983474,,,093,001,2019_Aug_29_1408,MusicAffectPsychophysiology2019,3.0.5,59.9351189129323,
To what extent did the music make you feel ,HAPPY,30MonoWAV/30MonoF4.wav,1,2,2,4,,,,,1,0,16,3,0,9,9,6,,,,,,,,,2,1.3028257180121727,,,093,001,2019_Aug_29_1408,MusicAffectPsychophysiology2019,3.0.5,59.9351189129323,
To what extent did the music make you feel ,SCARED,30MonoWAV/30MonoF4.wav,1,2,2,4,,,,,1,0,16,3,0,10,10,11,,,,,,,,,3,1.8413954529969487,,,093,001,2019_Aug_29_1408,MusicAffectPsychophysiology2019,3.0.5,59.9351189129323,
To what extent did the music make you feel ,ASHAMED,30MonoWAV/30MonoF4.wav,1,2,2,4,,,,,1,0,16,3,0,11,11,4,,,,,,,,,1,10.301523756992538,,,093,001,2019_Aug_29_1408,MusicAffectPsychophysiology2019,3.0.5,59.9351189129323,
,,30MonoWAV/30MonoF4.wav,1,2,2,4,,,,,1,0,16,3,,,,,,,,,,,,,,,,,093,001,2019_Aug_29_1408,MusicAffectPsychophysiology2019,3.0.5,59.9351189129323,
To what extent did the music make you feel ,ACTIVE,30MonoWAV/30MonoS1.wav,1,1,3,9,,,,,1,1,17,8,0,0,0,9,,,2,3.1168609620071948,2,1.8689681100076996,3,1.6349682300060522,2,2.751673673017649,,,093,001,2019_Aug_29_1408,MusicAffectPsychophysiology2019,3.0.5,59.9351189129323,
To what extent did the music make you feel ,ASHAMED,30MonoWAV/30MonoS1.wav,1,1,3,9,,,,,1,1,17,8,0,1,1,4,,,,,,,,,1,2.6017829199845437,,,093,001,2019_Aug_29_1408,MusicAffectPsychophysiology2019,3.0.5,59.9351189129323,
To what extent did the music make you feel ,GUILTY,30MonoWAV/30MonoS1.wav,1,1,3,9,,,,,1,1,17,8,0,2,2,5,,,,,,,,,1,1.069362429989269,,,093,001,2019_Aug_29_1408,MusicAffectPsychophysiology2019,3.0.5,59.9351189129323,
To what extent did the music make you feel ,ANXIOUS ,30MonoWAV/30MonoS1.wav,1,1,3,9,,,,,1,1,17,8,0,3,3,1,,,,,,,,,2,2.400595938990591,,,093,001,2019_Aug_29_1408,MusicAffectPsychophysiology2019,3.0.5,59.9351189129323,
To what extent did the music make you feel ,SAD,30MonoWAV/30MonoS1.wav,1,1,3,9,,,,,1,1,17,8,0,4,4,0,,,,,,,,,3,1.8857283469988033,,,093,001,2019_Aug_29_1408,MusicAffectPsychophysiology2019,3.0.5,59.9351189129323,
To what extent did the music make you feel ,ANGRY,30MonoWAV/30MonoS1.wav,1,1,3,9,,,,,1,1,17,8,0,5,5,2,,,,,,,,,2,1.3863292630121578,,,093,001,2019_Aug_29_1408,MusicAffectPsychophysiology2019,3.0.5,59.9351189129323,
To what extent did the music make you feel ,EXCITED,30MonoWAV/30MonoS1.wav,1,1,3,9,,,,,1,1,17,8,0,6,6,7,,,,,,,,,2,1.369580494996626,,,093,001,2019_Aug_29_1408,MusicAffectPsychophysiology2019,3.0.5,59.9351189129323,
To what extent did the music make you feel ,SCARED,30MonoWAV/30MonoS1.wav,1,1,3,9,,,,,1,1,17,8,0,7,7,11,,,,,,,,,2,4.1366106960049365,,,093,001,2019_Aug_29_1408,MusicAffectPsychophysiology2019,3.0.5,59.9351189129323,
To what extent did the music make you feel ,HAPPY,30MonoWAV/30MonoS1.wav,1,1,3,9,,,,,1,1,17,8,0,8,8,6,,,,,,,,,1,1.4851952460012399,,,093,001,2019_Aug_29_1408,MusicAffectPsychophysiology2019,3.0.5,59.9351189129323,
To what extent did the music make you feel ,TENDER,30MonoWAV/30MonoS1.wav,1,1,3,9,,,,,1,1,17,8,0,9,9,10,,,,,,,,,3,1.3686186620034277,,,093,001,2019_Aug_29_1408,MusicAffectPsychophysiology2019,3.0.5,59.9351189129323,
To what extent did the music make you feel ,FRUSTRATED,30MonoWAV/30MonoS1.wav,1,1,3,9,,,,,1,1,17,8,0,10,10,3,,,,,,,,,2,1.520031794992974,,,093,001,2019_Aug_29_1408,MusicAffectPsychophysiology2019,3.0.5,59.9351189129323,
To what extent did the music make you feel ,ALERT,30MonoWAV/30MonoS1.wav,1,1,3,9,,,,,1,1,17,8,0,11,11,8,,,,,,,,,2,1.4506539159920067,,,093,001,2019_Aug_29_1408,MusicAffectPsychophysiology2019,3.0.5,59.9351189129323,
,,30MonoWAV/30MonoS1.wav,1,1,3,9,,,,,1,1,17,8,,,,,,,,,,,,,,,,,093,001,2019_Aug_29_1408,MusicAffectPsychophysiology2019,3.0.5,59.9351189129323,
To what extent did the music make you feel ,ACTIVE,30MonoWAV/30MonoF1.wav,1,2,2,1,,,,,1,2,18,0,0,0,0,9,,,4,4.383882146998076,2,2.2197073479765095,2,2.635432679002406,4,1.908998619997874,,,093,001,2019_Aug_29_1408,MusicAffectPsychophysiology2019,3.0.5,59.9351189129323,
To what extent did the music make you feel ,ASHAMED,30MonoWAV/30MonoF1.wav,1,2,2,1,,,,,1,2,18,0,0,1,1,4,,,,,,,,,2,1.50279963601497,,,093,001,2019_Aug_29_1408,MusicAffectPsychophysiology2019,3.0.5,59.9351189129323,
To what extent did the music make you feel ,HAPPY,30MonoWAV/30MonoF1.wav,1,2,2,1,,,,,1,2,18,0,0,2,2,6,,,,,,,,,2,3.235414219991071,,,093,001,2019_Aug_29_1408,MusicAffectPsychophysiology2019,3.0.5,59.9351189129323,
To what extent did the music make you feel ,ANXIOUS ,30MonoWAV/30MonoF1.wav,1,2,2,1,,,,,1,2,18,0,0,3,3,1,,,,,,,,,3,1.2195502610120457,,,093,001,2019_Aug_29_1408,MusicAffectPsychophysiology2019,3.0.5,59.9351189129323,
To what extent did the music make you feel ,SAD,30MonoWAV/30MonoF1.wav,1,2,2,1,,,,,1,2,18,0,0,4,4,0,,,,,,,,,2,1.353542273020139,,,093,001,2019_Aug_29_1408,MusicAffectPsychophysiology2019,3.0.5,59.9351189129323,
To what extent did the music make you feel ,FRUSTRATED,30MonoWAV/30MonoF1.wav,1,2,2,1,,,,,1,2,18,0,0,5,5,3,,,,,,,,,3,1.9083578260033391,,,093,001,2019_Aug_29_1408,MusicAffectPsychophysiology2019,3.0.5,59.9351189129323,
To what extent did the music make you feel ,ANGRY,30MonoWAV/30MonoF1.wav,1,2,2,1,,,,,1,2,18,0,0,6,6,2,,,,,,,,,3,1.2352579589933157,,,093,001,2019_Aug_29_1408,MusicAffectPsychophysiology2019,3.0.5,59.9351189129323,
To what extent did the music make you feel ,TENDER,30MonoWAV/30MonoF1.wav,1,2,2,1,,,,,1,2,18,0,0,7,7,10,,,,,,,,,2,1.5525872720172629,,,093,001,2019_Aug_29_1408,MusicAffectPsychophysiology2019,3.0.5,59.9351189129323,
To what extent did the music make you feel ,EXCITED,30MonoWAV/30MonoF1.wav,1,2,2,1,,,,,1,2,18,0,0,8,8,7,,,,,,,,,2,1.9535587620048318,,,093,001,2019_Aug_29_1408,MusicAffectPsychophysiology2019,3.0.5,59.9351189129323,
To what extent did the music make you feel ,ALERT,30MonoWAV/30MonoF1.wav,1,2,2,1,,,,,1,2,18,0,0,9,9,8,,,,,,,,,4,1.4692418070044369,,,093,001,2019_Aug_29_1408,MusicAffectPsychophysiology2019,3.0.5,59.9351189129323,
To what extent did the music make you feel ,SCARED,30MonoWAV/30MonoF1.wav,1,2,2,1,,,,,1,2,18,0,0,10,10,11,,,,,,,,,4,1.8361967710079625,,,093,001,2019_Aug_29_1408,MusicAffectPsychophysiology2019,3.0.5,59.9351189129323,
To what extent did the music make you feel ,GUILTY,30MonoWAV/30MonoF1.wav,1,2,2,1,,,,,1,2,18,0,0,11,11,5,,,,,,,,,2,2.53524229399045,,,093,001,2019_Aug_29_1408,MusicAffectPsychophysiology2019,3.0.5,59.9351189129323,
,,30MonoWAV/30MonoF1.wav,1,2,2,1,,,,,1,2,18,0,,,,,,,,,,,,,,,,,093,001,2019_Aug_29_1408,MusicAffectPsychophysiology2019,3.0.5,59.9351189129323,
To what extent did the music make you feel ,TENDER,30MonoWAV/30MonoS3.wav,1,1,3,11,,,,,1,3,19,10,0,0,0,10,,,2,2.6522312139859423,1,2.351678165985504,2,2.0033843560086098,3,1.500991034990875,,,093,001,2019_Aug_29_1408,MusicAffectPsychophysiology2019,3.0.5,59.9351189129323,
To what extent did the music make you feel ,ANXIOUS ,30MonoWAV/30MonoS3.wav,1,1,3,11,,,,,1,3,19,10,0,1,1,1,,,,,,,,,3,1.5862689370114822,,,093,001,2019_Aug_29_1408,MusicAffectPsychophysiology2019,3.0.5,59.9351189129323,
To what extent did the music make you feel ,ACTIVE,30MonoWAV/30MonoS3.wav,1,1,3,11,,,,,1,3,19,10,0,2,2,9,,,,,,,,,2,2.6199284269823693,,,093,001,2019_Aug_29_1408,MusicAffectPsychophysiology2019,3.0.5,59.9351189129323,
To what extent did the music make you feel ,GUILTY,30MonoWAV/30MonoS3.wav,1,1,3,11,,,,,1,3,19,10,0,3,3,5,,,,,,,,,1,1.6036503789946437,,,093,001,2019_Aug_29_1408,MusicAffectPsychophysiology2019,3.0.5,59.9351189129323,
To what extent did the music make you feel ,ASHAMED,30MonoWAV/30MonoS3.wav,1,1,3,11,,,,,1,3,19,10,0,4,4,4,,,,,,,,,1,1.1190073959878646,,,093,001,2019_Aug_29_1408,MusicAffectPsychophysiology2019,3.0.5,59.9351189129323,
To what extent did the music make you feel ,HAPPY,30MonoWAV/30MonoS3.wav,1,1,3,11,,,,,1,3,19,10,0,5,5,6,,,,,,,,,1,1.403170854988275,,,093,001,2019_Aug_29_1408,MusicAffectPsychophysiology2019,3.0.5,59.9351189129323,
To what extent did the music make you feel ,SAD,30MonoWAV/30MonoS3.wav,1,1,3,11,,,,,1,3,19,10,0,6,6,0,,,,,,,,,3,2.302639740984887,,,093,001,2019_Aug_29_1408,MusicAffectPsychophysiology2019,3.0.5,59.9351189129323,
To what extent did the music make you feel ,EXCITED,30MonoWAV/30MonoS3.wav,1,1,3,11,,,,,1,3,19,10,0,7,7,7,,,,,,,,,1,3.9337122960132547,,,093,001,2019_Aug_29_1408,MusicAffectPsychophysiology2019,3.0.5,59.9351189129323,
To what extent did the music make you feel ,SCARED,30MonoWAV/30MonoS3.wav,1,1,3,11,,,,,1,3,19,10,0,8,8,11,,,,,,,,,2,1.4189507720002439,,,093,001,2019_Aug_29_1408,MusicAffectPsychophysiology2019,3.0.5,59.9351189129323,
To what extent did the music make you feel ,ANGRY,30MonoWAV/30MonoS3.wav,1,1,3,11,,,,,1,3,19,10,0,9,9,2,,,,,,,,,3,1.420219981984701,,,093,001,2019_Aug_29_1408,MusicAffectPsychophysiology2019,3.0.5,59.9351189129323,
To what extent did the music make you feel ,ALERT,30MonoWAV/30MonoS3.wav,1,1,3,11,,,,,1,3,19,10,0,10,10,8,,,,,,,,,2,2.0038587060116697,,,093,001,2019_Aug_29_1408,MusicAffectPsychophysiology2019,3.0.5,59.9351189129323,
To what extent did the music make you feel ,FRUSTRATED,30MonoWAV/30MonoS3.wav,1,1,3,11,,,,,1,3,19,10,0,11,11,3,,,,,,,,,2,1.5528249549970496,,,093,001,2019_Aug_29_1408,MusicAffectPsychophysiology2019,3.0.5,59.9351189129323,
,,30MonoWAV/30MonoS3.wav,1,1,3,11,,,,,1,3,19,10,,,,,,,,,,,,,,,,,093,001,2019_Aug_29_1408,MusicAffectPsychophysiology2019,3.0.5,59.9351189129323,
To what extent did the music make you feel ,ANGRY,30MonoWAV/30MonoT4.wav,2,1,4,16,,,,,1,4,20,15,0,0,0,2,,,4,2.718948473018827,4,1.6828091999923345,4,2.9364831330021843,1,1.9771841640176717,,,093,001,2019_Aug_29_1408,MusicAffectPsychophysiology2019,3.0.5,59.9351189129323,
To what extent did the music make you feel ,FRUSTRATED,30MonoWAV/30MonoT4.wav,2,1,4,16,,,,,1,4,20,15,0,1,1,3,,,,,,,,,2,1.4834379460080527,,,093,001,2019_Aug_29_1408,MusicAffectPsychophysiology2019,3.0.5,59.9351189129323,
To what extent did the music make you feel ,ASHAMED,30MonoWAV/30MonoT4.wav,2,1,4,16,,,,,1,4,20,15,0,2,2,4,,,,,,,,,1,1.4684496679983567,,,093,001,2019_Aug_29_1408,MusicAffectPsychophysiology2019,3.0.5,59.9351189129323,
To what extent did the music make you feel ,ANXIOUS ,30MonoWAV/30MonoT4.wav,2,1,4,16,,,,,1,4,20,15,0,3,3,1,,,,,,,,,2,1.669510857987916,,,093,001,2019_Aug_29_1408,MusicAffectPsychophysiology2019,3.0.5,59.9351189129323,
To what extent did the music make you feel ,SCARED,30MonoWAV/30MonoT4.wav,2,1,4,16,,,,,1,4,20,15,0,4,4,11,,,,,,,,,1,1.2191331110079773,,,093,001,2019_Aug_29_1408,MusicAffectPsychophysiology2019,3.0.5,59.9351189129323,
To what extent did the music make you feel ,HAPPY,30MonoWAV/30MonoT4.wav,2,1,4,16,,,,,1,4,20,15,0,5,5,6,,,,,,,,,4,1.402848900994286,,,093,001,2019_Aug_29_1408,MusicAffectPsychophysiology2019,3.0.5,59.9351189129323,
To what extent did the music make you feel ,ALERT,30MonoWAV/30MonoT4.wav,2,1,4,16,,,,,1,4,20,15,0,6,6,8,,,,,,,,,3,1.3186225880053826,,,093,001,2019_Aug_29_1408,MusicAffectPsychophysiology2019,3.0.5,59.9351189129323,
To what extent did the music make you feel ,ACTIVE,30MonoWAV/30MonoT4.wav,2,1,4,16,,,,,1,4,20,15,0,7,7,9,,,,,,,,,3,1.3851735969947185,,,093,001,2019_Aug_29_1408,MusicAffectPsychophysiology2019,3.0.5,59.9351189129323,
To what extent did the music make you feel ,TENDER,30MonoWAV/30MonoT4.wav,2,1,4,16,,,,,1,4,20,15,0,8,8,10,,,,,,,,,4,1.6519895319943316,,,093,001,2019_Aug_29_1408,MusicAffectPsychophysiology2019,3.0.5,59.9351189129323,
To what extent did the music make you feel ,EXCITED,30MonoWAV/30MonoT4.wav,2,1,4,16,,,,,1,4,20,15,0,9,9,7,,,,,,,,,4,1.535624562005978,,,093,001,2019_Aug_29_1408,MusicAffectPsychophysiology2019,3.0.5,59.9351189129323,
To what extent did the music make you feel ,SAD,30MonoWAV/30MonoT4.wav,2,1,4,16,,,,,1,4,20,15,0,10,10,0,,,,,,,,,2,1.702150793018518,,,093,001,2019_Aug_29_1408,MusicAffectPsychophysiology2019,3.0.5,59.9351189129323,
To what extent did the music make you feel ,GUILTY,30MonoWAV/30MonoT4.wav,2,1,4,16,,,,,1,4,20,15,0,11,11,5,,,,,,,,,1,1.4860573080077302,,,093,001,2019_Aug_29_1408,MusicAffectPsychophysiology2019,3.0.5,59.9351189129323,
,,30MonoWAV/30MonoT4.wav,2,1,4,16,,,,,1,4,20,15,,,,,,,,,,,,,,,,,093,001,2019_Aug_29_1408,MusicAffectPsychophysiology2019,3.0.5,59.9351189129323,
To what extent did the music make you feel ,ALERT,30MonoWAV/30MonoT2.wav,2,1,4,14,,,,,1,5,21,13,0,0,0,8,,,3,2.8190153509785887,3,2.0344290420180187,4,2.0524619089846965,3,1.7030479309905786,,,093,001,2019_Aug_29_1408,MusicAffectPsychophysiology2019,3.0.5,59.9351189129323,
To what extent did the music make you feel ,FRUSTRATED,30MonoWAV/30MonoT2.wav,2,1,4,14,,,,,1,5,21,13,0,1,1,3,,,,,,,,,2,1.4668487399758305,,,093,001,2019_Aug_29_1408,MusicAffectPsychophysiology2019,3.0.5,59.9351189129323,
To what extent did the music make you feel ,ASHAMED,30MonoWAV/30MonoT2.wav,2,1,4,14,,,,,1,5,21,13,0,2,2,4,,,,,,,,,1,1.0190681940002833,,,093,001,2019_Aug_29_1408,MusicAffectPsychophysiology2019,3.0.5,59.9351189129323,
To what extent did the music make you feel ,SAD,30MonoWAV/30MonoT2.wav,2,1,4,14,,,,,1,5,21,13,0,3,3,0,,,,,,,,,2,1.333890612993855,,,093,001,2019_Aug_29_1408,MusicAffectPsychophysiology2019,3.0.5,59.9351189129323,
To what extent did the music make you feel ,SCARED,30MonoWAV/30MonoT2.wav,2,1,4,14,,,,,1,5,21,13,0,4,4,11,,,,,,,,,1,1.0521458940056618,,,093,001,2019_Aug_29_1408,MusicAffectPsychophysiology2019,3.0.5,59.9351189129323,
To what extent did the music make you feel ,TENDER,30MonoWAV/30MonoT2.wav,2,1,4,14,,,,,1,5,21,13,0,5,5,10,,,,,,,,,4,1.2690057150030043,,,093,001,2019_Aug_29_1408,MusicAffectPsychophysiology2019,3.0.5,59.9351189129323,
To what extent did the music make you feel ,HAPPY,30MonoWAV/30MonoT2.wav,2,1,4,14,,,,,1,5,21,13,0,6,6,6,,,,,,,,,3,1.1016136560065206,,,093,001,2019_Aug_29_1408,MusicAffectPsychophysiology2019,3.0.5,59.9351189129323,
To what extent did the music make you feel ,ANXIOUS ,30MonoWAV/30MonoT2.wav,2,1,4,14,,,,,1,5,21,13,0,7,7,1,,,,,,,,,2,1.686508845014032,,,093,001,2019_Aug_29_1408,MusicAffectPsychophysiology2019,3.0.5,59.9351189129323,
To what extent did the music make you feel ,ACTIVE,30MonoWAV/30MonoT2.wav,2,1,4,14,,,,,1,5,21,13,0,8,8,9,,,,,,,,,2,2.852912028989522,,,093,001,2019_Aug_29_1408,MusicAffectPsychophysiology2019,3.0.5,59.9351189129323,
To what extent did the music make you feel ,ANGRY,30MonoWAV/30MonoT2.wav,2,1,4,14,,,,,1,5,21,13,0,9,9,2,,,,,,,,,1,1.1856666620005853,,,093,001,2019_Aug_29_1408,MusicAffectPsychophysiology2019,3.0.5,59.9351189129323,
To what extent did the music make you feel ,EXCITED,30MonoWAV/30MonoT2.wav,2,1,4,14,,,,,1,5,21,13,0,10,10,7,,,,,,,,,3,1.4855284630029928,,,093,001,2019_Aug_29_1408,MusicAffectPsychophysiology2019,3.0.5,59.9351189129323,
To what extent did the music make you feel ,GUILTY,30MonoWAV/30MonoT2.wav,2,1,4,14,,,,,1,5,21,13,0,11,11,5,,,,,,,,,1,3.90181813298841,,,093,001,2019_Aug_29_1408,MusicAffectPsychophysiology2019,3.0.5,59.9351189129323,
,,30MonoWAV/30MonoT2.wav,2,1,4,14,,,,,1,5,21,13,,,,,,,,,,,,,,,,,093,001,2019_Aug_29_1408,MusicAffectPsychophysiology2019,3.0.5,59.9351189129323,
To what extent did the music make you feel ,HAPPY,30MonoWAV/30MonoF2.wav,1,2,2,2,,,,,1,6,22,1,0,0,0,6,,,4,3.4023176280024927,2,4.002586123009678,3,1.8702617039962206,1,2.193064817984123,,,093,001,2019_Aug_29_1408,MusicAffectPsychophysiology2019,3.0.5,59.9351189129323,
To what extent did the music make you feel ,SCARED,30MonoWAV/30MonoF2.wav,1,2,2,2,,,,,1,6,22,1,0,1,1,11,,,,,,,,,4,1.4190370650030673,,,093,001,2019_Aug_29_1408,MusicAffectPsychophysiology2019,3.0.5,59.9351189129323,
To what extent did the music make you feel ,TENDER,30MonoWAV/30MonoF2.wav,1,2,2,2,,,,,1,6,22,1,0,2,2,10,,,,,,,,,1,1.620319023000775,,,093,001,2019_Aug_29_1408,MusicAffectPsychophysiology2019,3.0.5,59.9351189129323,
To what extent did the music make you feel ,GUILTY,30MonoWAV/30MonoF2.wav,1,2,2,2,,,,,1,6,22,1,0,3,3,5,,,,,,,,,1,1.3875530420045834,,,093,001,2019_Aug_29_1408,MusicAffectPsychophysiology2019,3.0.5,59.9351189129323,
To what extent did the music make you feel ,EXCITED,30MonoWAV/30MonoF2.wav,1,2,2,2,,,,,1,6,22,1,0,4,4,7,,,,,,,,,2,1.3860968279768713,,,093,001,2019_Aug_29_1408,MusicAffectPsychophysiology2019,3.0.5,59.9351189129323,
To what extent did the music make you feel ,ASHAMED,30MonoWAV/30MonoF2.wav,1,2,2,2,,,,,1,6,22,1,0,5,5,4,,,,,,,,,1,1.900127443979727,,,093,001,2019_Aug_29_1408,MusicAffectPsychophysiology2019,3.0.5,59.9351189129323,
To what extent did the music make you feel ,ALERT,30MonoWAV/30MonoF2.wav,1,2,2,2,,,,,1,6,22,1,0,6,6,8,,,,,,,,,5,1.6031273659900762,,,093,001,2019_Aug_29_1408,MusicAffectPsychophysiology2019,3.0.5,59.9351189129323,
To what extent did the music make you feel ,ACTIVE,30MonoWAV/30MonoF2.wav,1,2,2,2,,,,,1,6,22,1,0,7,7,9,,,,,,,,,3,2.3520359579997603,,,093,001,2019_Aug_29_1408,MusicAffectPsychophysiology2019,3.0.5,59.9351189129323,
To what extent did the music make you feel ,FRUSTRATED,30MonoWAV/30MonoF2.wav,1,2,2,2,,,,,1,6,22,1,0,8,8,3,,,,,,,,,1,1.6612327890179586,,,093,001,2019_Aug_29_1408,MusicAffectPsychophysiology2019,3.0.5,59.9351189129323,
To what extent did the music make you feel ,ANGRY,30MonoWAV/30MonoF2.wav,1,2,2,2,,,,,1,6,22,1,0,9,9,2,,,,,,,,,1,1.252221807022579,,,093,001,2019_Aug_29_1408,MusicAffectPsychophysiology2019,3.0.5,59.9351189129323,
To what extent did the music make you feel ,ANXIOUS ,30MonoWAV/30MonoF2.wav,1,2,2,2,,,,,1,6,22,1,0,10,10,1,,,,,,,,,4,1.3533963139925618,,,093,001,2019_Aug_29_1408,MusicAffectPsychophysiology2019,3.0.5,59.9351189129323,
To what extent did the music make you feel ,SAD,30MonoWAV/30MonoF2.wav,1,2,2,2,,,,,1,6,22,1,0,11,11,0,,,,,,,,,1,5.301906578999478,,,093,001,2019_Aug_29_1408,MusicAffectPsychophysiology2019,3.0.5,59.9351189129323,
,,30MonoWAV/30MonoF2.wav,1,2,2,2,,,,,1,6,22,1,,,,,,,,,,,,,,,,,093,001,2019_Aug_29_1408,MusicAffectPsychophysiology2019,3.0.5,59.9351189129323,
To what extent did the music make you feel ,GUILTY,30MonoWAV/30MonoH2.wav,2,2,1,6,,,,,1,7,23,5,0,0,0,5,,,3,2.8023642750049476,3,1.7696152279968373,2,1.9208690199884586,1,1.6551038439793047,,,093,001,2019_Aug_29_1408,MusicAffectPsychophysiology2019,3.0.5,59.9351189129323,
To what extent did the music make you feel ,SAD,30MonoWAV/30MonoH2.wav,2,2,1,6,,,,,1,7,23,5,0,1,1,0,,,,,,,,,1,1.1186198450159281,,,093,001,2019_Aug_29_1408,MusicAffectPsychophysiology2019,3.0.5,59.9351189129323,
To what extent did the music make you feel ,ANGRY,30MonoWAV/30MonoH2.wav,2,2,1,6,,,,,1,7,23,5,0,2,2,2,,,,,,,,,1,1.702672915009316,,,093,001,2019_Aug_29_1408,MusicAffectPsychophysiology2019,3.0.5,59.9351189129323,
To what extent did the music make you feel ,SCARED,30MonoWAV/30MonoH2.wav,2,2,1,6,,,,,1,7,23,5,0,3,3,11,,,,,,,,,1,1.1359590679930989,,,093,001,2019_Aug_29_1408,MusicAffectPsychophysiology2019,3.0.5,59.9351189129323,
To what extent did the music make you feel ,ACTIVE,30MonoWAV/30MonoH2.wav,2,2,1,6,,,,,1,7,23,5,0,4,4,9,,,,,,,,,2,1.7530265430104919,,,093,001,2019_Aug_29_1408,MusicAffectPsychophysiology2019,3.0.5,59.9351189129323,
To what extent did the music make you feel ,ASHAMED,30MonoWAV/30MonoH2.wav,2,2,1,6,,,,,1,7,23,5,0,5,5,4,,,,,,,,,1,1.2697192509949673,,,093,001,2019_Aug_29_1408,MusicAffectPsychophysiology2019,3.0.5,59.9351189129323,
To what extent did the music make you feel ,HAPPY,30MonoWAV/30MonoH2.wav,2,2,1,6,,,,,1,7,23,5,0,6,6,6,,,,,,,,,3,1.5860633679840248,,,093,001,2019_Aug_29_1408,MusicAffectPsychophysiology2019,3.0.5,59.9351189129323,
To what extent did the music make you feel ,FRUSTRATED,30MonoWAV/30MonoH2.wav,2,2,1,6,,,,,1,7,23,5,0,7,7,3,,,,,,,,,1,1.1711105710128322,,,093,001,2019_Aug_29_1408,MusicAffectPsychophysiology2019,3.0.5,59.9351189129323,
To what extent did the music make you feel ,TENDER,30MonoWAV/30MonoH2.wav,2,2,1,6,,,,,1,7,23,5,0,8,8,10,,,,,,,,,2,1.2339188769983593,,,093,001,2019_Aug_29_1408,MusicAffectPsychophysiology2019,3.0.5,59.9351189129323,
To what extent did the music make you feel ,ALERT,30MonoWAV/30MonoH2.wav,2,2,1,6,,,,,1,7,23,5,0,9,9,8,,,,,,,,,3,1.4181983309972566,,,093,001,2019_Aug_29_1408,MusicAffectPsychophysiology2019,3.0.5,59.9351189129323,
To what extent did the music make you feel ,ANXIOUS ,30MonoWAV/30MonoH2.wav,2,2,1,6,,,,,1,7,23,5,0,10,10,1,,,,,,,,,2,1.5037540949997492,,,093,001,2019_Aug_29_1408,MusicAffectPsychophysiology2019,3.0.5,59.9351189129323,
To what extent did the music make you feel ,EXCITED,30MonoWAV/30MonoH2.wav,2,2,1,6,,,,,1,7,23,5,0,11,11,7,,,,,,,,,3,5.818190820020391,,,093,001,2019_Aug_29_1408,MusicAffectPsychophysiology2019,3.0.5,59.9351189129323,
,,30MonoWAV/30MonoH2.wav,2,2,1,6,,,,,1,7,23,5,,,,,,,,,,,,,,,,,093,001,2019_Aug_29_1408,MusicAffectPsychophysiology2019,3.0.5,59.9351189129323,
To what extent did the music make you feel ,SCARED,30MonoWAV/30MonoH1.wav,2,2,1,5,,,,,1,8,24,4,0,0,0,11,,,5,2.902810355008114,4,4.235197164991405,5,3.13621810200857,1,1.8819604919990525,,,093,001,2019_Aug_29_1408,MusicAffectPsychophysiology2019,3.0.5,59.9351189129323,
To what extent did the music make you feel ,TENDER,30MonoWAV/30MonoH1.wav,2,2,1,5,,,,,1,8,24,4,0,1,1,10,,,,,,,,,2,1.2358086360036395,,,093,001,2019_Aug_29_1408,MusicAffectPsychophysiology2019,3.0.5,59.9351189129323,
To what extent did the music make you feel ,ASHAMED,30MonoWAV/30MonoH1.wav,2,2,1,5,,,,,1,8,24,4,0,2,2,4,,,,,,,,,1,0.9532591449969914,,,093,001,2019_Aug_29_1408,MusicAffectPsychophysiology2019,3.0.5,59.9351189129323,
To what extent did the music make you feel ,HAPPY,30MonoWAV/30MonoH1.wav,2,2,1,5,,,,,1,8,24,4,0,3,3,6,,,,,,,,,4,1.468344071006868,,,093,001,2019_Aug_29_1408,MusicAffectPsychophysiology2019,3.0.5,59.9351189129323,
To what extent did the music make you feel ,FRUSTRATED,30MonoWAV/30MonoH1.wav,2,2,1,5,,,,,1,8,24,4,0,4,4,3,,,,,,,,,1,1.070358153025154,,,093,001,2019_Aug_29_1408,MusicAffectPsychophysiology2019,3.0.5,59.9351189129323,
To what extent did the music make you feel ,ACTIVE,30MonoWAV/30MonoH1.wav,2,2,1,5,,,,,1,8,24,4,0,5,5,9,,,,,,,,,3,1.1864005109819118,,,093,001,2019_Aug_29_1408,MusicAffectPsychophysiology2019,3.0.5,59.9351189129323,
To what extent did the music make you feel ,ANGRY,30MonoWAV/30MonoH1.wav,2,2,1,5,,,,,1,8,24,4,0,6,6,2,,,,,,,,,1,2.370469312008936,,,093,001,2019_Aug_29_1408,MusicAffectPsychophysiology2019,3.0.5,59.9351189129323,
To what extent did the music make you feel ,ALERT,30MonoWAV/30MonoH1.wav,2,2,1,5,,,,,1,8,24,4,0,7,7,8,,,,,,,,,3,3.2854376749892253,,,093,001,2019_Aug_29_1408,MusicAffectPsychophysiology2019,3.0.5,59.9351189129323,
To what extent did the music make you feel ,GUILTY,30MonoWAV/30MonoH1.wav,2,2,1,5,,,,,1,8,24,4,0,8,8,5,,,,,,,,,1,1.1354335140204057,,,093,001,2019_Aug_29_1408,MusicAffectPsychophysiology2019,3.0.5,59.9351189129323,
To what extent did the music make you feel ,SAD,30MonoWAV/30MonoH1.wav,2,2,1,5,,,,,1,8,24,4,0,9,9,0,,,,,,,,,1,1.0863943510048557,,,093,001,2019_Aug_29_1408,MusicAffectPsychophysiology2019,3.0.5,59.9351189129323,
To what extent did the music make you feel ,ANXIOUS ,30MonoWAV/30MonoH1.wav,2,2,1,5,,,,,1,8,24,4,0,10,10,1,,,,,,,,,2,1.5192822300014086,,,093,001,2019_Aug_29_1408,MusicAffectPsychophysiology2019,3.0.5,59.9351189129323,
To what extent did the music make you feel ,EXCITED,30MonoWAV/30MonoH1.wav,2,2,1,5,,,,,1,8,24,4,0,11,11,7,,,,,,,,,3,1.4200894650130067,,,093,001,2019_Aug_29_1408,MusicAffectPsychophysiology2019,3.0.5,59.9351189129323,
,,30MonoWAV/30MonoH1.wav,2,2,1,5,,,,,1,8,24,4,,,,,,,,,,,,,,,,,093,001,2019_Aug_29_1408,MusicAffectPsychophysiology2019,3.0.5,59.9351189129323,
To what extent did the music make you feel ,GUILTY,30MonoWAV/30MonoH4.wav,2,2,1,8,,,,,1,9,25,7,0,0,0,5,,,2,4.68602624500636,2,2.402307190990541,1,1.4193028139998205,2,2.7405458299908787,,,093,001,2019_Aug_29_1408,MusicAffectPsychophysiology2019,3.0.5,59.9351189129323,
To what extent did the music make you feel ,ANXIOUS ,30MonoWAV/30MonoH4.wav,2,2,1,8,,,,,1,9,25,7,0,1,1,1,,,,,,,,,2,2.624214187002508,,,093,001,2019_Aug_29_1408,MusicAffectPsychophysiology2019,3.0.5,59.9351189129323,
To what extent did the music make you feel ,ASHAMED,30MonoWAV/30MonoH4.wav,2,2,1,8,,,,,1,9,25,7,0,2,2,4,,,,,,,,,1,1.4675738270161673,,,093,001,2019_Aug_29_1408,MusicAffectPsychophysiology2019,3.0.5,59.9351189129323,
To what extent did the music make you feel ,ACTIVE,30MonoWAV/30MonoH4.wav,2,2,1,8,,,,,1,9,25,7,0,3,3,9,,,,,,,,,2,1.3522706629883032,,,093,001,2019_Aug_29_1408,MusicAffectPsychophysiology2019,3.0.5,59.9351189129323,
To what extent did the music make you feel ,ANGRY,30MonoWAV/30MonoH4.wav,2,2,1,8,,,,,1,9,25,7,0,4,4,2,,,,,,,,,3,1.568151287996443,,,093,001,2019_Aug_29_1408,MusicAffectPsychophysiology2019,3.0.5,59.9351189129323,
To what extent did the music make you feel ,EXCITED,30MonoWAV/30MonoH4.wav,2,2,1,8,,,,,1,9,25,7,0,5,5,7,,,,,,,,,1,1.486276898009237,,,093,001,2019_Aug_29_1408,MusicAffectPsychophysiology2019,3.0.5,59.9351189129323,
To what extent did the music make you feel ,SCARED,30MonoWAV/30MonoH4.wav,2,2,1,8,,,,,1,9,25,7,0,6,6,11,,,,,,,,,1,2.369998807000229,,,093,001,2019_Aug_29_1408,MusicAffectPsychophysiology2019,3.0.5,59.9351189129323,
To what extent did the music make you feel ,HAPPY,30MonoWAV/30MonoH4.wav,2,2,1,8,,,,,1,9,25,7,0,7,7,6,,,,,,,,,2,1.3691216180159245,,,093,001,2019_Aug_29_1408,MusicAffectPsychophysiology2019,3.0.5,59.9351189129323,
To what extent did the music make you feel ,FRUSTRATED,30MonoWAV/30MonoH4.wav,2,2,1,8,,,,,1,9,25,7,0,8,8,3,,,,,,,,,2,2.839358211000217,,,093,001,2019_Aug_29_1408,MusicAffectPsychophysiology2019,3.0.5,59.9351189129323,
To what extent did the music make you feel ,ALERT,30MonoWAV/30MonoH4.wav,2,2,1,8,,,,,1,9,25,7,0,9,9,8,,,,,,,,,2,2.020479166007135,,,093,001,2019_Aug_29_1408,MusicAffectPsychophysiology2019,3.0.5,59.9351189129323,
To what extent did the music make you feel ,SAD,30MonoWAV/30MonoH4.wav,2,2,1,8,,,,,1,9,25,7,0,10,10,0,,,,,,,,,1,1.2364602210000157,,,093,001,2019_Aug_29_1408,MusicAffectPsychophysiology2019,3.0.5,59.9351189129323,
To what extent did the music make you feel ,TENDER,30MonoWAV/30MonoH4.wav,2,2,1,8,,,,,1,9,25,7,0,11,11,10,,,,,,,,,1,1.269384592975257,,,093,001,2019_Aug_29_1408,MusicAffectPsychophysiology2019,3.0.5,59.9351189129323,
,,30MonoWAV/30MonoH4.wav,2,2,1,8,,,,,1,9,25,7,,,,,,,,,,,,,,,,,093,001,2019_Aug_29_1408,MusicAffectPsychophysiology2019,3.0.5,59.9351189129323,
To what extent did the music make you feel ,SAD,30MonoWAV/30MonoS2.wav,1,1,3,10,,,,,1,10,26,9,0,0,0,0,,,1,2.666521857987391,1,1.851751800015336,1,2.001614137989236,1,1.8526498969877139,,,093,001,2019_Aug_29_1408,MusicAffectPsychophysiology2019,3.0.5,59.9351189129323,
To what extent did the music make you feel ,GUILTY,30MonoWAV/30MonoS2.wav,1,1,3,10,,,,,1,10,26,9,0,1,1,5,,,,,,,,,1,1.4528385500016157,,,093,001,2019_Aug_29_1408,MusicAffectPsychophysiology2019,3.0.5,59.9351189129323,
To what extent did the music make you feel ,FRUSTRATED,30MonoWAV/30MonoS2.wav,1,1,3,10,,,,,1,10,26,9,0,2,2,3,,,,,,,,,4,1.6307044300192501,,,093,001,2019_Aug_29_1408,MusicAffectPsychophysiology2019,3.0.5,59.9351189129323,
To what extent did the music make you feel ,EXCITED,30MonoWAV/30MonoS2.wav,1,1,3,10,,,,,1,10,26,9,0,3,3,7,,,,,,,,,1,1.5369652869994752,,,093,001,2019_Aug_29_1408,MusicAffectPsychophysiology2019,3.0.5,59.9351189129323,
To what extent did the music make you feel ,SCARED,30MonoWAV/30MonoS2.wav,1,1,3,10,,,,,1,10,26,9,0,4,4,11,,,,,,,,,1,1.052435741003137,,,093,001,2019_Aug_29_1408,MusicAffectPsychophysiology2019,3.0.5,59.9351189129323,
To what extent did the music make you feel ,ALERT,30MonoWAV/30MonoS2.wav,1,1,3,10,,,,,1,10,26,9,0,5,5,8,,,,,,,,,1,1.3031778069853317,,,093,001,2019_Aug_29_1408,MusicAffectPsychophysiology2019,3.0.5,59.9351189129323,
To what extent did the music make you feel ,HAPPY,30MonoWAV/30MonoS2.wav,1,1,3,10,,,,,1,10,26,9,0,6,6,6,,,,,,,,,1,1.0693921759957448,,,093,001,2019_Aug_29_1408,MusicAffectPsychophysiology2019,3.0.5,59.9351189129323,
To what extent did the music make you feel ,ANGRY,30MonoWAV/30MonoS2.wav,1,1,3,10,,,,,1,10,26,9,0,7,7,2,,,,,,,,,2,1.486362541996641,,,093,001,2019_Aug_29_1408,MusicAffectPsychophysiology2019,3.0.5,59.9351189129323,
To what extent did the music make you feel ,ANXIOUS ,30MonoWAV/30MonoS2.wav,1,1,3,10,,,,,1,10,26,9,0,8,8,1,,,,,,,,,1,2.2861471259966493,,,093,001,2019_Aug_29_1408,MusicAffectPsychophysiology2019,3.0.5,59.9351189129323,
To what extent did the music make you feel ,TENDER,30MonoWAV/30MonoS2.wav,1,1,3,10,,,,,1,10,26,9,0,9,9,10,,,,,,,,,2,2.713587723003002,,,093,001,2019_Aug_29_1408,MusicAffectPsychophysiology2019,3.0.5,59.9351189129323,
To what extent did the music make you feel ,ASHAMED,30MonoWAV/30MonoS2.wav,1,1,3,10,,,,,1,10,26,9,0,10,10,4,,,,,,,,,1,1.6682234079926275,,,093,001,2019_Aug_29_1408,MusicAffectPsychophysiology2019,3.0.5,59.9351189129323,
To what extent did the music make you feel ,ACTIVE,30MonoWAV/30MonoS2.wav,1,1,3,10,,,,,1,10,26,9,0,11,11,9,,,,,,,,,1,8.55224860101589,,,093,001,2019_Aug_29_1408,MusicAffectPsychophysiology2019,3.0.5,59.9351189129323,
,,30MonoWAV/30MonoS2.wav,1,1,3,10,,,,,1,10,26,9,,,,,,,,,,,,,,,,,093,001,2019_Aug_29_1408,MusicAffectPsychophysiology2019,3.0.5,59.9351189129323,
To what extent did the music make you feel ,ASHAMED,30MonoWAV/30MonoH3.wav,2,2,1,7,,,,,1,11,27,6,0,0,0,4,,,4,8.018046106008114,3,2.083615227980772,3,3.2853010459803045,1,2.0069737829908263,,,093,001,2019_Aug_29_1408,MusicAffectPsychophysiology2019,3.0.5,59.9351189129323,
To what extent did the music make you feel ,TENDER,30MonoWAV/30MonoH3.wav,2,2,1,7,,,,,1,11,27,6,0,1,1,10,,,,,,,,,2,1.2351246719772462,,,093,001,2019_Aug_29_1408,MusicAffectPsychophysiology2019,3.0.5,59.9351189129323,
To what extent did the music make you feel ,ACTIVE,30MonoWAV/30MonoH3.wav,2,2,1,7,,,,,1,11,27,6,0,2,2,9,,,,,,,,,2,1.6186417410208378,,,093,001,2019_Aug_29_1408,MusicAffectPsychophysiology2019,3.0.5,59.9351189129323,
To what extent did the music make you feel ,SCARED,30MonoWAV/30MonoH3.wav,2,2,1,7,,,,,1,11,27,6,0,3,3,11,,,,,,,,,1,1.7499468729947694,,,093,001,2019_Aug_29_1408,MusicAffectPsychophysiology2019,3.0.5,59.9351189129323,
To what extent did the music make you feel ,SAD,30MonoWAV/30MonoH3.wav,2,2,1,7,,,,,1,11,27,6,0,4,4,0,,,,,,,,,2,2.4691356670227833,,,093,001,2019_Aug_29_1408,MusicAffectPsychophysiology2019,3.0.5,59.9351189129323,
To what extent did the music make you feel ,ANXIOUS ,30MonoWAV/30MonoH3.wav,2,2,1,7,,,,,1,11,27,6,0,5,5,1,,,,,,,,,2,2.585015529009979,,,093,001,2019_Aug_29_1408,MusicAffectPsychophysiology2019,3.0.5,59.9351189129323,
To what extent did the music make you feel ,EXCITED,30MonoWAV/30MonoH3.wav,2,2,1,7,,,,,1,11,27,6,0,6,6,7,,,,,,,,,3,1.618762545986101,,,093,001,2019_Aug_29_1408,MusicAffectPsychophysiology2019,3.0.5,59.9351189129323,
To what extent did the music make you feel ,FRUSTRATED,30MonoWAV/30MonoH3.wav,2,2,1,7,,,,,1,11,27,6,0,7,7,3,,,,,,,,,2,2.136095235007815,,,093,001,2019_Aug_29_1408,MusicAffectPsychophysiology2019,3.0.5,59.9351189129323,
To what extent did the music make you feel ,ALERT,30MonoWAV/30MonoH3.wav,2,2,1,7,,,,,1,11,27,6,0,8,8,8,,,,,,,,,3,1.6357300959934946,,,093,001,2019_Aug_29_1408,MusicAffectPsychophysiology2019,3.0.5,59.9351189129323,
To what extent did the music make you feel ,HAPPY,30MonoWAV/30MonoH3.wav,2,2,1,7,,,,,1,11,27,6,0,9,9,6,,,,,,,,,3,2.4692229150095955,,,093,001,2019_Aug_29_1408,MusicAffectPsychophysiology2019,3.0.5,59.9351189129323,
To what extent did the music make you feel ,ANGRY,30MonoWAV/30MonoH3.wav,2,2,1,7,,,,,1,11,27,6,0,10,10,2,,,,,,,,,2,1.8019120680110063,,,093,001,2019_Aug_29_1408,MusicAffectPsychophysiology2019,3.0.5,59.9351189129323,
To what extent did the music make you feel ,GUILTY,30MonoWAV/30MonoH3.wav,2,2,1,7,,,,,1,11,27,6,0,11,11,5,,,,,,,,,1,4.520065364020411,,,093,001,2019_Aug_29_1408,MusicAffectPsychophysiology2019,3.0.5,59.9351189129323,
,,30MonoWAV/30MonoH3.wav,2,2,1,7,,,,,1,11,27,6,,,,,,,,,,,,,,,,,093,001,2019_Aug_29_1408,MusicAffectPsychophysiology2019,3.0.5,59.9351189129323,
To what extent did the music make you feel ,HAPPY,30MonoWAV/30MonoF3.wav,1,2,2,3,,,,,1,12,28,2,0,0,0,6,,,4,3.169145875988761,3,2.06852641000296,3,2.0874950230063405,2,1.5831494159938302,,,093,001,2019_Aug_29_1408,MusicAffectPsychophysiology2019,3.0.5,59.9351189129323,
To what extent did the music make you feel ,ASHAMED,30MonoWAV/30MonoF3.wav,1,2,2,3,,,,,1,12,28,2,0,1,1,4,,,,,,,,,1,1.80254517798312,,,093,001,2019_Aug_29_1408,MusicAffectPsychophysiology2019,3.0.5,59.9351189129323,
To what extent did the music make you feel ,FRUSTRATED,30MonoWAV/30MonoF3.wav,1,2,2,3,,,,,1,12,28,2,0,2,2,3,,,,,,,,,1,1.4176234049955383,,,093,001,2019_Aug_29_1408,MusicAffectPsychophysiology2019,3.0.5,59.9351189129323,
To what extent did the music make you feel ,ACTIVE,30MonoWAV/30MonoF3.wav,1,2,2,3,,,,,1,12,28,2,0,3,3,9,,,,,,,,,3,1.3015654899936635,,,093,001,2019_Aug_29_1408,MusicAffectPsychophysiology2019,3.0.5,59.9351189129323,
To what extent did the music make you feel ,GUILTY,30MonoWAV/30MonoF3.wav,1,2,2,3,,,,,1,12,28,2,0,4,4,5,,,,,,,,,1,2.819832974986639,,,093,001,2019_Aug_29_1408,MusicAffectPsychophysiology2019,3.0.5,59.9351189129323,
To what extent did the music make you feel ,ANXIOUS ,30MonoWAV/30MonoF3.wav,1,2,2,3,,,,,1,12,28,2,0,5,5,1,,,,,,,,,2,3.3686274490028154,,,093,001,2019_Aug_29_1408,MusicAffectPsychophysiology2019,3.0.5,59.9351189129323,
To what extent did the music make you feel ,ALERT,30MonoWAV/30MonoF3.wav,1,2,2,3,,,,,1,12,28,2,0,6,6,8,,,,,,,,,4,1.387435046985047,,,093,001,2019_Aug_29_1408,MusicAffectPsychophysiology2019,3.0.5,59.9351189129323,
To what extent did the music make you feel ,ANGRY,30MonoWAV/30MonoF3.wav,1,2,2,3,,,,,1,12,28,2,0,7,7,2,,,,,,,,,2,4.231141748983646,,,093,001,2019_Aug_29_1408,MusicAffectPsychophysiology2019,3.0.5,59.9351189129323,
To what extent did the music make you feel ,SCARED,30MonoWAV/30MonoF3.wav,1,2,2,3,,,,,1,12,28,2,0,8,8,11,,,,,,,,,3,1.6039341200084891,,,093,001,2019_Aug_29_1408,MusicAffectPsychophysiology2019,3.0.5,59.9351189129323,
To what extent did the music make you feel ,EXCITED,30MonoWAV/30MonoF3.wav,1,2,2,3,,,,,1,12,28,2,0,9,9,7,,,,,,,,,4,2.14655206198222,,,093,001,2019_Aug_29_1408,MusicAffectPsychophysiology2019,3.0.5,59.9351189129323,
To what extent did the music make you feel ,SAD,30MonoWAV/30MonoF3.wav,1,2,2,3,,,,,1,12,28,2,0,10,10,0,,,,,,,,,2,4.368879300978733,,,093,001,2019_Aug_29_1408,MusicAffectPsychophysiology2019,3.0.5,59.9351189129323,
To what extent did the music make you feel ,TENDER,30MonoWAV/30MonoF3.wav,1,2,2,3,,,,,1,12,28,2,0,11,11,10,,,,,,,,,1,1.236096471984638,,,093,001,2019_Aug_29_1408,MusicAffectPsychophysiology2019,3.0.5,59.9351189129323,
,,30MonoWAV/30MonoF3.wav,1,2,2,3,,,,,1,12,28,2,,,,,,,,,,,,,,,,,093,001,2019_Aug_29_1408,MusicAffectPsychophysiology2019,3.0.5,59.9351189129323,
To what extent did the music make you feel ,ALERT,30MonoWAV/30MonoT1.wav,2,1,4,13,,,,,1,13,29,12,0,0,0,8,,,2,2.533691265998641,2,3.4699387260188814,2,2.6206265079963487,3,3.0241542590083554,,,093,001,2019_Aug_29_1408,MusicAffectPsychophysiology2019,3.0.5,59.9351189129323,
To what extent did the music make you feel ,TENDER,30MonoWAV/30MonoT1.wav,2,1,4,13,,,,,1,13,29,12,0,1,1,10,,,,,,,,,3,2.019937981007388,,,093,001,2019_Aug_29_1408,MusicAffectPsychophysiology2019,3.0.5,59.9351189129323,
To what extent did the music make you feel ,ACTIVE,30MonoWAV/30MonoT1.wav,2,1,4,13,,,,,1,13,29,12,0,2,2,9,,,,,,,,,2,1.5019576249760576,,,093,001,2019_Aug_29_1408,MusicAffectPsychophysiology2019,3.0.5,59.9351189129323,
To what extent did the music make you feel ,SAD,30MonoWAV/30MonoT1.wav,2,1,4,13,,,,,1,13,29,12,0,3,3,0,,,,,,,,,3,1.8028187729942147,,,093,001,2019_Aug_29_1408,MusicAffectPsychophysiology2019,3.0.5,59.9351189129323,
To what extent did the music make you feel ,SCARED,30MonoWAV/30MonoT1.wav,2,1,4,13,,,,,1,13,29,12,0,4,4,11,,,,,,,,,1,1.968841430003522,,,093,001,2019_Aug_29_1408,MusicAffectPsychophysiology2019,3.0.5,59.9351189129323,
To what extent did the music make you feel ,FRUSTRATED,30MonoWAV/30MonoT1.wav,2,1,4,13,,,,,1,13,29,12,0,5,5,3,,,,,,,,,1,1.6057461099990178,,,093,001,2019_Aug_29_1408,MusicAffectPsychophysiology2019,3.0.5,59.9351189129323,
To what extent did the music make you feel ,EXCITED,30MonoWAV/30MonoT1.wav,2,1,4,13,,,,,1,13,29,12,0,6,6,7,,,,,,,,,2,2.3207959569990635,,,093,001,2019_Aug_29_1408,MusicAffectPsychophysiology2019,3.0.5,59.9351189129323,
To what extent did the music make you feel ,HAPPY,30MonoWAV/30MonoT1.wav,2,1,4,13,,,,,1,13,29,12,0,7,7,6,,,,,,,,,2,1.5667094200034626,,,093,001,2019_Aug_29_1408,MusicAffectPsychophysiology2019,3.0.5,59.9351189129323,
To what extent did the music make you feel ,ANGRY,30MonoWAV/30MonoT1.wav,2,1,4,13,,,,,1,13,29,12,0,8,8,2,,,,,,,,,1,1.5693466110096779,,,093,001,2019_Aug_29_1408,MusicAffectPsychophysiology2019,3.0.5,59.9351189129323,
To what extent did the music make you feel ,ASHAMED,30MonoWAV/30MonoT1.wav,2,1,4,13,,,,,1,13,29,12,0,9,9,4,,,,,,,,,1,2.570111740002176,,,093,001,2019_Aug_29_1408,MusicAffectPsychophysiology2019,3.0.5,59.9351189129323,
To what extent did the music make you feel ,GUILTY,30MonoWAV/30MonoT1.wav,2,1,4,13,,,,,1,13,29,12,0,10,10,5,,,,,,,,,2,1.8498313860036433,,,093,001,2019_Aug_29_1408,MusicAffectPsychophysiology2019,3.0.5,59.9351189129323,
To what extent did the music make you feel ,ANXIOUS ,30MonoWAV/30MonoT1.wav,2,1,4,13,,,,,1,13,29,12,0,11,11,1,,,,,,,,,3,1.2026347380015068,,,093,001,2019_Aug_29_1408,MusicAffectPsychophysiology2019,3.0.5,59.9351189129323,
,,30MonoWAV/30MonoT1.wav,2,1,4,13,,,,,1,13,29,12,,,,,,,,,,,,,,,,,093,001,2019_Aug_29_1408,MusicAffectPsychophysiology2019,3.0.5,59.9351189129323,
To what extent did the music make you feel ,ANXIOUS ,30MonoWAV/30MonoT3.wav,2,1,4,15,,,,,1,14,30,14,0,0,0,1,,,2,3.3193985690013506,3,3.1863535009906627,1,2.2187982620089315,1,1.5866650169773493,,,093,001,2019_Aug_29_1408,MusicAffectPsychophysiology2019,3.0.5,59.9351189129323,
To what extent did the music make you feel ,GUILTY,30MonoWAV/30MonoT3.wav,2,1,4,15,,,,,1,14,30,14,0,1,1,5,,,,,,,,,1,1.018695471022511,,,093,001,2019_Aug_29_1408,MusicAffectPsychophysiology2019,3.0.5,59.9351189129323,
To what extent did the music make you feel ,SCARED,30MonoWAV/30MonoT3.wav,2,1,4,15,,,,,1,14,30,14,0,2,2,11,,,,,,,,,1,1.385496258008061,,,093,001,2019_Aug_29_1408,MusicAffectPsychophysiology2019,3.0.5,59.9351189129323,
To what extent did the music make you feel ,ALERT,30MonoWAV/30MonoT3.wav,2,1,4,15,,,,,1,14,30,14,0,3,3,8,,,,,,,,,1,5.235724241007119,,,093,001,2019_Aug_29_1408,MusicAffectPsychophysiology2019,3.0.5,59.9351189129323,
To what extent did the music make you feel ,ACTIVE,30MonoWAV/30MonoT3.wav,2,1,4,15,,,,,1,14,30,14,0,4,4,9,,,,,,,,,2,1.5522983050032053,,,093,001,2019_Aug_29_1408,MusicAffectPsychophysiology2019,3.0.5,59.9351189129323,
To what extent did the music make you feel ,ASHAMED,30MonoWAV/30MonoT3.wav,2,1,4,15,,,,,1,14,30,14,0,5,5,4,,,,,,,,,1,3.6356967969913967,,,093,001,2019_Aug_29_1408,MusicAffectPsychophysiology2019,3.0.5,59.9351189129323,
To what extent did the music make you feel ,SAD,30MonoWAV/30MonoT3.wav,2,1,4,15,,,,,1,14,30,14,0,6,6,0,,,,,,,,,2,1.8525083099957556,,,093,001,2019_Aug_29_1408,MusicAffectPsychophysiology2019,3.0.5,59.9351189129323,
To what extent did the music make you feel ,EXCITED,30MonoWAV/30MonoT3.wav,2,1,4,15,,,,,1,14,30,14,0,7,7,7,,,,,,,,,2,6.603888440004084,,,093,001,2019_Aug_29_1408,MusicAffectPsychophysiology2019,3.0.5,59.9351189129323,
To what extent did the music make you feel ,TENDER,30MonoWAV/30MonoT3.wav,2,1,4,15,,,,,1,14,30,14,0,8,8,10,,,,,,,,,3,1.5018260650103912,,,093,001,2019_Aug_29_1408,MusicAffectPsychophysiology2019,3.0.5,59.9351189129323,
To what extent did the music make you feel ,HAPPY,30MonoWAV/30MonoT3.wav,2,1,4,15,,,,,1,14,30,14,0,9,9,6,,,,,,,,,2,3.236084434989607,,,093,001,2019_Aug_29_1408,MusicAffectPsychophysiology2019,3.0.5,59.9351189129323,
To what extent did the music make you feel ,FRUSTRATED,30MonoWAV/30MonoT3.wav,2,1,4,15,,,,,1,14,30,14,0,10,10,3,,,,,,,,,3,1.8805024939938448,,,093,001,2019_Aug_29_1408,MusicAffectPsychophysiology2019,3.0.5,59.9351189129323,
To what extent did the music make you feel ,ANGRY,30MonoWAV/30MonoT3.wav,2,1,4,15,,,,,1,14,30,14,0,11,11,2,,,,,,,,,3,3.3876193079922814,,,093,001,2019_Aug_29_1408,MusicAffectPsychophysiology2019,3.0.5,59.9351189129323,
,,30MonoWAV/30MonoT3.wav,2,1,4,15,,,,,1,14,30,14,,,,,,,,,,,,,,,,,093,001,2019_Aug_29_1408,MusicAffectPsychophysiology2019,3.0.5,59.9351189129323,
To what extent did the music make you feel ,ACTIVE,30MonoWAV/30MonoS4.wav,1,1,3,12,,,,,1,15,31,11,0,0,0,9,,,1,2.701736163988244,2,1.785884884011466,1,1.7184290490113199,1,1.624003979988629,,,093,001,2019_Aug_29_1408,MusicAffectPsychophysiology2019,3.0.5,59.9351189129323,
To what extent did the music make you feel ,FRUSTRATED,30MonoWAV/30MonoS4.wav,1,1,3,12,,,,,1,15,31,11,0,1,1,3,,,,,,,,,3,1.6412913290259894,,,093,001,2019_Aug_29_1408,MusicAffectPsychophysiology2019,3.0.5,59.9351189129323,
To what extent did the music make you feel ,HAPPY,30MonoWAV/30MonoS4.wav,1,1,3,12,,,,,1,15,31,11,0,2,2,6,,,,,,,,,1,3.6689481339999475,,,093,001,2019_Aug_29_1408,MusicAffectPsychophysiology2019,3.0.5,59.9351189129323,
To what extent did the music make you feel ,GUILTY,30MonoWAV/30MonoS4.wav,1,1,3,12,,,,,1,15,31,11,0,3,3,5,,,,,,,,,2,1.6191034959920216,,,093,001,2019_Aug_29_1408,MusicAffectPsychophysiology2019,3.0.5,59.9351189129323,
To what extent did the music make you feel ,EXCITED,30MonoWAV/30MonoS4.wav,1,1,3,12,,,,,1,15,31,11,0,4,4,7,,,,,,,,,1,1.3856919019890483,,,093,001,2019_Aug_29_1408,MusicAffectPsychophysiology2019,3.0.5,59.9351189129323,
To what extent did the music make you feel ,ALERT,30MonoWAV/30MonoS4.wav,1,1,3,12,,,,,1,15,31,11,0,5,5,8,,,,,,,,,1,1.669413269002689,,,093,001,2019_Aug_29_1408,MusicAffectPsychophysiology2019,3.0.5,59.9351189129323,
To what extent did the music make you feel ,ANGRY,30MonoWAV/30MonoS4.wav,1,1,3,12,,,,,1,15,31,11,0,6,6,2,,,,,,,,,1,4.06824277099804,,,093,001,2019_Aug_29_1408,MusicAffectPsychophysiology2019,3.0.5,59.9351189129323,
To what extent did the music make you feel ,SCARED,30MonoWAV/30MonoS4.wav,1,1,3,12,,,,,1,15,31,11,0,7,7,11,,,,,,,,,1,1.435740896005882,,,093,001,2019_Aug_29_1408,MusicAffectPsychophysiology2019,3.0.5,59.9351189129323,
To what extent did the music make you feel ,TENDER,30MonoWAV/30MonoS4.wav,1,1,3,12,,,,,1,15,31,11,0,8,8,10,,,,,,,,,3,1.6367622949765064,,,093,001,2019_Aug_29_1408,MusicAffectPsychophysiology2019,3.0.5,59.9351189129323,
To what extent did the music make you feel ,ASHAMED,30MonoWAV/30MonoS4.wav,1,1,3,12,,,,,1,15,31,11,0,9,9,4,,,,,,,,,2,2.4353016460081562,,,093,001,2019_Aug_29_1408,MusicAffectPsychophysiology2019,3.0.5,59.9351189129323,
To what extent did the music make you feel ,ANXIOUS ,30MonoWAV/30MonoS4.wav,1,1,3,12,,,,,1,15,31,11,0,10,10,1,,,,,,,,,2,1.8839424549951218,,,093,001,2019_Aug_29_1408,MusicAffectPsychophysiology2019,3.0.5,59.9351189129323,
To what extent did the music make you feel ,SAD,30MonoWAV/30MonoS4.wav,1,1,3,12,,,,,1,15,31,11,0,11,11,0,,,,,,,,,3,2.3686019289889373,,,093,001,2019_Aug_29_1408,MusicAffectPsychophysiology2019,3.0.5,59.9351189129323,
,,30MonoWAV/30MonoS4.wav,1,1,3,12,,,,,1,15,31,11,,,,,,,,,,,,,,,,,093,001,2019_Aug_29_1408,MusicAffectPsychophysiology2019,3.0.5,59.9351189129323,
,,,,,,,,,,,,,,,,,,,,,,,,,,,,,space,6.503132145007839,093,001,2019_Aug_29_1408,MusicAffectPsychophysiology2019,3.0.5,59.9351189129323,
