Instruction,Word,song,valence,arousal,affectcat,songmark,pracwords.thisRepN,pracwords.thisTrialN,pracwords.thisN,pracwords.thisIndex,songtrials.thisRepN,songtrials.thisTrialN,songtrials.thisN,songtrials.thisIndex,words.thisRepN,words.thisTrialN,words.thisN,words.thisIndex,begin.keys,begin.rt,arousalkey.keys,arousalkey.rt,valencekey.keys,valencekey.rt,likekey.keys,likekey.rt,WordResponse.keys,WordResponse.rt,key_resp_2.keys,key_resp_2.rt,participant,session,date,expName,psychopyVersion,frameRate,
,,,,,,,,,,,,,,,,,,,space,8.042456947994651,,,,,,,,,,,094,001,2019_Sep_02_0912,MusicAffectPsychophysiology2019,3.0.5,60.142527557721195,
,,,,,,,,,,,,,,,,,,,,,2,4.454311288980534,,,,,,,,,094,001,2019_Sep_02_0912,MusicAffectPsychophysiology2019,3.0.5,60.142527557721195,
,,,,,,,,,,,,,,,,,,,,,,,3,2.71924862000742,,,,,,,094,001,2019_Sep_02_0912,MusicAffectPsychophysiology2019,3.0.5,60.142527557721195,
,,,,,,,,,,,,,,,,,,,,,,,,,2,2.285430211981293,,,,,094,001,2019_Sep_02_0912,MusicAffectPsychophysiology2019,3.0.5,60.142527557721195,
To what extent did the music make you feel ,SCARED,,,,,,0,0,0,11,,,,,,,,,,,,,,,,,1,2.418889983004192,,,094,001,2019_Sep_02_0912,MusicAffectPsychophysiology2019,3.0.5,60.142527557721195,
To what extent did the music make you feel ,SAD,,,,,,0,1,1,0,,,,,,,,,,,,,,,,,1,1.567831883992767,,,094,001,2019_Sep_02_0912,MusicAffectPsychophysiology2019,3.0.5,60.142527557721195,
To what extent did the music make you feel ,EXCITED,,,,,,0,2,2,7,,,,,,,,,,,,,,,,,2,1.6687122019939125,,,094,001,2019_Sep_02_0912,MusicAffectPsychophysiology2019,3.0.5,60.142527557721195,
To what extent did the music make you feel ,HAPPY,,,,,,0,3,3,6,,,,,,,,,,,,,,,,,2,2.0518029970116913,,,094,001,2019_Sep_02_0912,MusicAffectPsychophysiology2019,3.0.5,60.142527557721195,
To what extent did the music make you feel ,FRUSTRATED,,,,,,0,4,4,3,,,,,,,,,,,,,,,,,1,1.4310343220131472,,,094,001,2019_Sep_02_0912,MusicAffectPsychophysiology2019,3.0.5,60.142527557721195,
To what extent did the music make you feel ,ANXIOUS ,,,,,,0,5,5,1,,,,,,,,,,,,,,,,,1,1.2131903929985128,,,094,001,2019_Sep_02_0912,MusicAffectPsychophysiology2019,3.0.5,60.142527557721195,
To what extent did the music make you feel ,ASHAMED,,,,,,0,6,6,4,,,,,,,,,,,,,,,,,1,0.7351152350020129,,,094,001,2019_Sep_02_0912,MusicAffectPsychophysiology2019,3.0.5,60.142527557721195,
To what extent did the music make you feel ,ANGRY,,,,,,0,7,7,2,,,,,,,,,,,,,,,,,1,0.8334776200063061,,,094,001,2019_Sep_02_0912,MusicAffectPsychophysiology2019,3.0.5,60.142527557721195,
To what extent did the music make you feel ,GUILTY,,,,,,0,8,8,5,,,,,,,,,,,,,,,,,1,0.8701232270104811,,,094,001,2019_Sep_02_0912,MusicAffectPsychophysiology2019,3.0.5,60.142527557721195,
To what extent did the music make you feel ,ALERT,,,,,,0,9,9,8,,,,,,,,,,,,,,,,,3,2.453283807990374,,,094,001,2019_Sep_02_0912,MusicAffectPsychophysiology2019,3.0.5,60.142527557721195,
To what extent did the music make you feel ,TENDER,,,,,,0,10,10,10,,,,,,,,,,,,,,,,,3,1.2872518799849786,,,094,001,2019_Sep_02_0912,MusicAffectPsychophysiology2019,3.0.5,60.142527557721195,
To what extent did the music make you feel ,ACTIVE,,,,,,0,11,11,9,,,,,,,,,,,,,,,,,1,3.03576310002245,,,094,001,2019_Sep_02_0912,MusicAffectPsychophysiology2019,3.0.5,60.142527557721195,
To what extent did the music make you feel ,SAD,30MonoWAV/30MonoH1.wav,2,2,1,5,,,,,0,0,0,4,0,0,0,0,,,3,4.716721397999208,2,1.7364492250198964,2,4.600020098994719,1,1.5901010220113676,,,094,001,2019_Sep_02_0912,MusicAffectPsychophysiology2019,3.0.5,60.142527557721195,
To what extent did the music make you feel ,HAPPY,30MonoWAV/30MonoH1.wav,2,2,1,5,,,,,0,0,0,4,0,1,1,6,,,,,,,,,1,1.553058481978951,,,094,001,2019_Sep_02_0912,MusicAffectPsychophysiology2019,3.0.5,60.142527557721195,
To what extent did the music make you feel ,TENDER,30MonoWAV/30MonoH1.wav,2,2,1,5,,,,,0,0,0,4,0,2,2,10,,,,,,,,,1,0.8532740660011768,,,094,001,2019_Sep_02_0912,MusicAffectPsychophysiology2019,3.0.5,60.142527557721195,
To what extent did the music make you feel ,SCARED,30MonoWAV/30MonoH1.wav,2,2,1,5,,,,,0,0,0,4,0,3,3,11,,,,,,,,,1,1.5868255789973773,,,094,001,2019_Sep_02_0912,MusicAffectPsychophysiology2019,3.0.5,60.142527557721195,
To what extent did the music make you feel ,GUILTY,30MonoWAV/30MonoH1.wav,2,2,1,5,,,,,0,0,0,4,0,4,4,5,,,,,,,,,1,1.1190743210026994,,,094,001,2019_Sep_02_0912,MusicAffectPsychophysiology2019,3.0.5,60.142527557721195,
To what extent did the music make you feel ,ANGRY,30MonoWAV/30MonoH1.wav,2,2,1,5,,,,,0,0,0,4,0,5,5,2,,,,,,,,,1,1.0689815130026545,,,094,001,2019_Sep_02_0912,MusicAffectPsychophysiology2019,3.0.5,60.142527557721195,
To what extent did the music make you feel ,ANXIOUS ,30MonoWAV/30MonoH1.wav,2,2,1,5,,,,,0,0,0,4,0,6,6,1,,,,,,,,,3,1.5700145720038563,,,094,001,2019_Sep_02_0912,MusicAffectPsychophysiology2019,3.0.5,60.142527557721195,
To what extent did the music make you feel ,ASHAMED,30MonoWAV/30MonoH1.wav,2,2,1,5,,,,,0,0,0,4,0,7,7,4,,,,,,,,,1,2.252640129008796,,,094,001,2019_Sep_02_0912,MusicAffectPsychophysiology2019,3.0.5,60.142527557721195,
To what extent did the music make you feel ,FRUSTRATED,30MonoWAV/30MonoH1.wav,2,2,1,5,,,,,0,0,0,4,0,8,8,3,,,,,,,,,1,0.9196642379974946,,,094,001,2019_Sep_02_0912,MusicAffectPsychophysiology2019,3.0.5,60.142527557721195,
To what extent did the music make you feel ,ACTIVE,30MonoWAV/30MonoH1.wav,2,2,1,5,,,,,0,0,0,4,0,9,9,9,,,,,,,,,1,1.0366018209897447,,,094,001,2019_Sep_02_0912,MusicAffectPsychophysiology2019,3.0.5,60.142527557721195,
To what extent did the music make you feel ,EXCITED,30MonoWAV/30MonoH1.wav,2,2,1,5,,,,,0,0,0,4,0,10,10,7,,,,,,,,,2,1.9871753009792883,,,094,001,2019_Sep_02_0912,MusicAffectPsychophysiology2019,3.0.5,60.142527557721195,
To what extent did the music make you feel ,ALERT,30MonoWAV/30MonoH1.wav,2,2,1,5,,,,,0,0,0,4,0,11,11,8,,,,,,,,,3,2.1014072250109166,,,094,001,2019_Sep_02_0912,MusicAffectPsychophysiology2019,3.0.5,60.142527557721195,
,,30MonoWAV/30MonoH1.wav,2,2,1,5,,,,,0,0,0,4,,,,,,,,,,,,,,,,,094,001,2019_Sep_02_0912,MusicAffectPsychophysiology2019,3.0.5,60.142527557721195,
To what extent did the music make you feel ,GUILTY,30MonoWAV/30MonoF3.wav,1,2,2,3,,,,,0,1,1,2,0,0,0,5,,,3,4.651678572990932,1,1.6178959569951985,3,3.966285047994461,1,1.9832936029997654,,,094,001,2019_Sep_02_0912,MusicAffectPsychophysiology2019,3.0.5,60.142527557721195,
To what extent did the music make you feel ,ASHAMED,30MonoWAV/30MonoF3.wav,1,2,2,3,,,,,0,1,1,2,0,1,1,4,,,,,,,,,1,2.1348113830026705,,,094,001,2019_Sep_02_0912,MusicAffectPsychophysiology2019,3.0.5,60.142527557721195,
To what extent did the music make you feel ,FRUSTRATED,30MonoWAV/30MonoF3.wav,1,2,2,3,,,,,0,1,1,2,0,2,2,3,,,,,,,,,2,2.6212813870224636,,,094,001,2019_Sep_02_0912,MusicAffectPsychophysiology2019,3.0.5,60.142527557721195,
To what extent did the music make you feel ,TENDER,30MonoWAV/30MonoF3.wav,1,2,2,3,,,,,0,1,1,2,0,3,3,10,,,,,,,,,1,1.103027706994908,,,094,001,2019_Sep_02_0912,MusicAffectPsychophysiology2019,3.0.5,60.142527557721195,
To what extent did the music make you feel ,EXCITED,30MonoWAV/30MonoF3.wav,1,2,2,3,,,,,0,1,1,2,0,4,4,7,,,,,,,,,1,0.818684083991684,,,094,001,2019_Sep_02_0912,MusicAffectPsychophysiology2019,3.0.5,60.142527557721195,
To what extent did the music make you feel ,SAD,30MonoWAV/30MonoF3.wav,1,2,2,3,,,,,0,1,1,2,0,5,5,0,,,,,,,,,1,1.8191649089858402,,,094,001,2019_Sep_02_0912,MusicAffectPsychophysiology2019,3.0.5,60.142527557721195,
To what extent did the music make you feel ,SCARED,30MonoWAV/30MonoF3.wav,1,2,2,3,,,,,0,1,1,2,0,6,6,11,,,,,,,,,3,2.0684805439959746,,,094,001,2019_Sep_02_0912,MusicAffectPsychophysiology2019,3.0.5,60.142527557721195,
To what extent did the music make you feel ,ALERT,30MonoWAV/30MonoF3.wav,1,2,2,3,,,,,0,1,1,2,0,7,7,8,,,,,,,,,4,1.8352341150166467,,,094,001,2019_Sep_02_0912,MusicAffectPsychophysiology2019,3.0.5,60.142527557721195,
To what extent did the music make you feel ,ANXIOUS ,30MonoWAV/30MonoF3.wav,1,2,2,3,,,,,0,1,1,2,0,8,8,1,,,,,,,,,3,1.9539398640044965,,,094,001,2019_Sep_02_0912,MusicAffectPsychophysiology2019,3.0.5,60.142527557721195,
To what extent did the music make you feel ,HAPPY,30MonoWAV/30MonoF3.wav,1,2,2,3,,,,,0,1,1,2,0,9,9,6,,,,,,,,,1,1.502135607006494,,,094,001,2019_Sep_02_0912,MusicAffectPsychophysiology2019,3.0.5,60.142527557721195,
To what extent did the music make you feel ,ACTIVE,30MonoWAV/30MonoF3.wav,1,2,2,3,,,,,0,1,1,2,0,10,10,9,,,,,,,,,2,1.3364419660065323,,,094,001,2019_Sep_02_0912,MusicAffectPsychophysiology2019,3.0.5,60.142527557721195,
To what extent did the music make you feel ,ANGRY,30MonoWAV/30MonoF3.wav,1,2,2,3,,,,,0,1,1,2,0,11,11,2,,,,,,,,,1,1.7876155939884484,,,094,001,2019_Sep_02_0912,MusicAffectPsychophysiology2019,3.0.5,60.142527557721195,
,,30MonoWAV/30MonoF3.wav,1,2,2,3,,,,,0,1,1,2,,,,,,,,,,,,,,,,,094,001,2019_Sep_02_0912,MusicAffectPsychophysiology2019,3.0.5,60.142527557721195,
To what extent did the music make you feel ,TENDER,30MonoWAV/30MonoF4.wav,1,2,2,4,,,,,0,2,2,3,0,0,0,10,,,4,3.086667227995349,1,1.4199951049813535,2,2.186583877017256,1,1.4423228729865514,,,094,001,2019_Sep_02_0912,MusicAffectPsychophysiology2019,3.0.5,60.142527557721195,
To what extent did the music make you feel ,ASHAMED,30MonoWAV/30MonoF4.wav,1,2,2,4,,,,,0,2,2,3,0,1,1,4,,,,,,,,,1,1.0543340490257833,,,094,001,2019_Sep_02_0912,MusicAffectPsychophysiology2019,3.0.5,60.142527557721195,
To what extent did the music make you feel ,SAD,30MonoWAV/30MonoF4.wav,1,2,2,4,,,,,0,2,2,3,0,2,2,0,,,,,,,,,1,1.0194066539988853,,,094,001,2019_Sep_02_0912,MusicAffectPsychophysiology2019,3.0.5,60.142527557721195,
To what extent did the music make you feel ,ANGRY,30MonoWAV/30MonoF4.wav,1,2,2,4,,,,,0,2,2,3,0,3,3,2,,,,,,,,,2,1.6531584069889504,,,094,001,2019_Sep_02_0912,MusicAffectPsychophysiology2019,3.0.5,60.142527557721195,
To what extent did the music make you feel ,ALERT,30MonoWAV/30MonoF4.wav,1,2,2,4,,,,,0,2,2,3,0,4,4,8,,,,,,,,,5,2.118535323999822,,,094,001,2019_Sep_02_0912,MusicAffectPsychophysiology2019,3.0.5,60.142527557721195,
To what extent did the music make you feel ,GUILTY,30MonoWAV/30MonoF4.wav,1,2,2,4,,,,,0,2,2,3,0,5,5,5,,,,,,,,,1,2.3856333310250193,,,094,001,2019_Sep_02_0912,MusicAffectPsychophysiology2019,3.0.5,60.142527557721195,
To what extent did the music make you feel ,FRUSTRATED,30MonoWAV/30MonoF4.wav,1,2,2,4,,,,,0,2,2,3,0,6,6,3,,,,,,,,,2,1.6921081299951766,,,094,001,2019_Sep_02_0912,MusicAffectPsychophysiology2019,3.0.5,60.142527557721195,
To what extent did the music make you feel ,ACTIVE,30MonoWAV/30MonoF4.wav,1,2,2,4,,,,,0,2,2,3,0,7,7,9,,,,,,,,,5,1.3418789129937068,,,094,001,2019_Sep_02_0912,MusicAffectPsychophysiology2019,3.0.5,60.142527557721195,
To what extent did the music make you feel ,EXCITED,30MonoWAV/30MonoF4.wav,1,2,2,4,,,,,0,2,2,3,0,8,8,7,,,,,,,,,2,1.4751264069927856,,,094,001,2019_Sep_02_0912,MusicAffectPsychophysiology2019,3.0.5,60.142527557721195,
To what extent did the music make you feel ,HAPPY,30MonoWAV/30MonoF4.wav,1,2,2,4,,,,,0,2,2,3,0,9,9,6,,,,,,,,,1,0.9865697739878669,,,094,001,2019_Sep_02_0912,MusicAffectPsychophysiology2019,3.0.5,60.142527557721195,
To what extent did the music make you feel ,ANXIOUS ,30MonoWAV/30MonoF4.wav,1,2,2,4,,,,,0,2,2,3,0,10,10,1,,,,,,,,,4,1.5832256750145461,,,094,001,2019_Sep_02_0912,MusicAffectPsychophysiology2019,3.0.5,60.142527557721195,
To what extent did the music make you feel ,SCARED,30MonoWAV/30MonoF4.wav,1,2,2,4,,,,,0,2,2,3,0,11,11,11,,,,,,,,,2,1.4858297769969795,,,094,001,2019_Sep_02_0912,MusicAffectPsychophysiology2019,3.0.5,60.142527557721195,
,,30MonoWAV/30MonoF4.wav,1,2,2,4,,,,,0,2,2,3,,,,,,,,,,,,,,,,,094,001,2019_Sep_02_0912,MusicAffectPsychophysiology2019,3.0.5,60.142527557721195,
To what extent did the music make you feel ,GUILTY,30MonoWAV/30MonoH3.wav,2,2,1,7,,,,,0,3,3,6,0,0,0,5,,,4,2.816687771002762,4,1.634988595993491,3,1.936703387007583,1,1.4023791270155925,,,094,001,2019_Sep_02_0912,MusicAffectPsychophysiology2019,3.0.5,60.142527557721195,
To what extent did the music make you feel ,SCARED,30MonoWAV/30MonoH3.wav,2,2,1,7,,,,,0,3,3,6,0,1,1,11,,,,,,,,,1,0.7689389850129373,,,094,001,2019_Sep_02_0912,MusicAffectPsychophysiology2019,3.0.5,60.142527557721195,
To what extent did the music make you feel ,FRUSTRATED,30MonoWAV/30MonoH3.wav,2,2,1,7,,,,,0,3,3,6,0,2,2,3,,,,,,,,,1,0.7168532359937672,,,094,001,2019_Sep_02_0912,MusicAffectPsychophysiology2019,3.0.5,60.142527557721195,
To what extent did the music make you feel ,HAPPY,30MonoWAV/30MonoH3.wav,2,2,1,7,,,,,0,3,3,6,0,3,3,6,,,,,,,,,3,2.019543071015505,,,094,001,2019_Sep_02_0912,MusicAffectPsychophysiology2019,3.0.5,60.142527557721195,
To what extent did the music make you feel ,TENDER,30MonoWAV/30MonoH3.wav,2,2,1,7,,,,,0,3,3,6,0,4,4,10,,,,,,,,,2,2.1833292649826035,,,094,001,2019_Sep_02_0912,MusicAffectPsychophysiology2019,3.0.5,60.142527557721195,
To what extent did the music make you feel ,SAD,30MonoWAV/30MonoH3.wav,2,2,1,7,,,,,0,3,3,6,0,5,5,0,,,,,,,,,1,1.2198344969947357,,,094,001,2019_Sep_02_0912,MusicAffectPsychophysiology2019,3.0.5,60.142527557721195,
To what extent did the music make you feel ,ANXIOUS ,30MonoWAV/30MonoH3.wav,2,2,1,7,,,,,0,3,3,6,0,6,6,1,,,,,,,,,1,0.8203914549958427,,,094,001,2019_Sep_02_0912,MusicAffectPsychophysiology2019,3.0.5,60.142527557721195,
To what extent did the music make you feel ,ACTIVE,30MonoWAV/30MonoH3.wav,2,2,1,7,,,,,0,3,3,6,0,7,7,9,,,,,,,,,3,1.3172505520051345,,,094,001,2019_Sep_02_0912,MusicAffectPsychophysiology2019,3.0.5,60.142527557721195,
To what extent did the music make you feel ,ASHAMED,30MonoWAV/30MonoH3.wav,2,2,1,7,,,,,0,3,3,6,0,8,8,4,,,,,,,,,1,0.868760152021423,,,094,001,2019_Sep_02_0912,MusicAffectPsychophysiology2019,3.0.5,60.142527557721195,
To what extent did the music make you feel ,ANGRY,30MonoWAV/30MonoH3.wav,2,2,1,7,,,,,0,3,3,6,0,9,9,2,,,,,,,,,1,0.8364877040148713,,,094,001,2019_Sep_02_0912,MusicAffectPsychophysiology2019,3.0.5,60.142527557721195,
To what extent did the music make you feel ,EXCITED,30MonoWAV/30MonoH3.wav,2,2,1,7,,,,,0,3,3,6,0,10,10,7,,,,,,,,,4,1.8537762069900054,,,094,001,2019_Sep_02_0912,MusicAffectPsychophysiology2019,3.0.5,60.142527557721195,
To what extent did the music make you feel ,ALERT,30MonoWAV/30MonoH3.wav,2,2,1,7,,,,,0,3,3,6,0,11,11,8,,,,,,,,,3,1.3194263180193957,,,094,001,2019_Sep_02_0912,MusicAffectPsychophysiology2019,3.0.5,60.142527557721195,
,,30MonoWAV/30MonoH3.wav,2,2,1,7,,,,,0,3,3,6,,,,,,,,,,,,,,,,,094,001,2019_Sep_02_0912,MusicAffectPsychophysiology2019,3.0.5,60.142527557721195,
To what extent did the music make you feel ,ANXIOUS ,30MonoWAV/30MonoS3.wav,1,1,3,11,,,,,0,4,4,10,0,0,0,1,,,1,2.9515570309886243,1,0.8169731570233125,3,2.369234960002359,4,2.5928515670238994,,,094,001,2019_Sep_02_0912,MusicAffectPsychophysiology2019,3.0.5,60.142527557721195,
To what extent did the music make you feel ,GUILTY,30MonoWAV/30MonoS3.wav,1,1,3,11,,,,,0,4,4,10,0,1,1,5,,,,,,,,,2,1.5507605299935676,,,094,001,2019_Sep_02_0912,MusicAffectPsychophysiology2019,3.0.5,60.142527557721195,
To what extent did the music make you feel ,ANGRY,30MonoWAV/30MonoS3.wav,1,1,3,11,,,,,0,4,4,10,0,2,2,2,,,,,,,,,1,1.2176244479778688,,,094,001,2019_Sep_02_0912,MusicAffectPsychophysiology2019,3.0.5,60.142527557721195,
To what extent did the music make you feel ,SAD,30MonoWAV/30MonoS3.wav,1,1,3,11,,,,,0,4,4,10,0,3,3,0,,,,,,,,,4,1.6353403480025008,,,094,001,2019_Sep_02_0912,MusicAffectPsychophysiology2019,3.0.5,60.142527557721195,
To what extent did the music make you feel ,ACTIVE,30MonoWAV/30MonoS3.wav,1,1,3,11,,,,,0,4,4,10,0,4,4,9,,,,,,,,,1,1.2697051480063237,,,094,001,2019_Sep_02_0912,MusicAffectPsychophysiology2019,3.0.5,60.142527557721195,
To what extent did the music make you feel ,EXCITED,30MonoWAV/30MonoS3.wav,1,1,3,11,,,,,0,4,4,10,0,5,5,7,,,,,,,,,1,0.8665244459989481,,,094,001,2019_Sep_02_0912,MusicAffectPsychophysiology2019,3.0.5,60.142527557721195,
To what extent did the music make you feel ,TENDER,30MonoWAV/30MonoS3.wav,1,1,3,11,,,,,0,4,4,10,0,6,6,10,,,,,,,,,1,0.7183928140148055,,,094,001,2019_Sep_02_0912,MusicAffectPsychophysiology2019,3.0.5,60.142527557721195,
To what extent did the music make you feel ,ALERT,30MonoWAV/30MonoS3.wav,1,1,3,11,,,,,0,4,4,10,0,7,7,8,,,,,,,,,2,1.5523378010257147,,,094,001,2019_Sep_02_0912,MusicAffectPsychophysiology2019,3.0.5,60.142527557721195,
To what extent did the music make you feel ,SCARED,30MonoWAV/30MonoS3.wav,1,1,3,11,,,,,0,4,4,10,0,8,8,11,,,,,,,,,3,1.2530129490187392,,,094,001,2019_Sep_02_0912,MusicAffectPsychophysiology2019,3.0.5,60.142527557721195,
To what extent did the music make you feel ,FRUSTRATED,30MonoWAV/30MonoS3.wav,1,1,3,11,,,,,0,4,4,10,0,9,9,3,,,,,,,,,1,1.0441569340182468,,,094,001,2019_Sep_02_0912,MusicAffectPsychophysiology2019,3.0.5,60.142527557721195,
To what extent did the music make you feel ,HAPPY,30MonoWAV/30MonoS3.wav,1,1,3,11,,,,,0,4,4,10,0,10,10,6,,,,,,,,,1,0.9187036550138146,,,094,001,2019_Sep_02_0912,MusicAffectPsychophysiology2019,3.0.5,60.142527557721195,
To what extent did the music make you feel ,ASHAMED,30MonoWAV/30MonoS3.wav,1,1,3,11,,,,,0,4,4,10,0,11,11,4,,,,,,,,,2,1.2033556120004505,,,094,001,2019_Sep_02_0912,MusicAffectPsychophysiology2019,3.0.5,60.142527557721195,
,,30MonoWAV/30MonoS3.wav,1,1,3,11,,,,,0,4,4,10,,,,,,,,,,,,,,,,,094,001,2019_Sep_02_0912,MusicAffectPsychophysiology2019,3.0.5,60.142527557721195,
To what extent did the music make you feel ,HAPPY,30MonoWAV/30MonoH4.wav,2,2,1,8,,,,,0,5,5,7,0,0,0,6,,,4,2.470029132993659,4,1.3526906390034128,2,1.518855458998587,3,1.8379785460128915,,,094,001,2019_Sep_02_0912,MusicAffectPsychophysiology2019,3.0.5,60.142527557721195,
To what extent did the music make you feel ,ANGRY,30MonoWAV/30MonoH4.wav,2,2,1,8,,,,,0,5,5,7,0,1,1,2,,,,,,,,,1,0.98701826800243,,,094,001,2019_Sep_02_0912,MusicAffectPsychophysiology2019,3.0.5,60.142527557721195,
To what extent did the music make you feel ,ASHAMED,30MonoWAV/30MonoH4.wav,2,2,1,8,,,,,0,5,5,7,0,2,2,4,,,,,,,,,1,0.9027992830087896,,,094,001,2019_Sep_02_0912,MusicAffectPsychophysiology2019,3.0.5,60.142527557721195,
To what extent did the music make you feel ,FRUSTRATED,30MonoWAV/30MonoH4.wav,2,2,1,8,,,,,0,5,5,7,0,3,3,3,,,,,,,,,1,0.6381652319978457,,,094,001,2019_Sep_02_0912,MusicAffectPsychophysiology2019,3.0.5,60.142527557721195,
To what extent did the music make you feel ,ALERT,30MonoWAV/30MonoH4.wav,2,2,1,8,,,,,0,5,5,7,0,4,4,8,,,,,,,,,2,1.486460565996822,,,094,001,2019_Sep_02_0912,MusicAffectPsychophysiology2019,3.0.5,60.142527557721195,
To what extent did the music make you feel ,ACTIVE,30MonoWAV/30MonoH4.wav,2,2,1,8,,,,,0,5,5,7,0,5,5,9,,,,,,,,,4,1.4867466690193396,,,094,001,2019_Sep_02_0912,MusicAffectPsychophysiology2019,3.0.5,60.142527557721195,
To what extent did the music make you feel ,EXCITED,30MonoWAV/30MonoH4.wav,2,2,1,8,,,,,0,5,5,7,0,6,6,7,,,,,,,,,3,0.9688991839939263,,,094,001,2019_Sep_02_0912,MusicAffectPsychophysiology2019,3.0.5,60.142527557721195,
To what extent did the music make you feel ,SAD,30MonoWAV/30MonoH4.wav,2,2,1,8,,,,,0,5,5,7,0,7,7,0,,,,,,,,,1,0.8874280090094544,,,094,001,2019_Sep_02_0912,MusicAffectPsychophysiology2019,3.0.5,60.142527557721195,
To what extent did the music make you feel ,SCARED,30MonoWAV/30MonoH4.wav,2,2,1,8,,,,,0,5,5,7,0,8,8,11,,,,,,,,,1,0.8683110169949941,,,094,001,2019_Sep_02_0912,MusicAffectPsychophysiology2019,3.0.5,60.142527557721195,
To what extent did the music make you feel ,TENDER,30MonoWAV/30MonoH4.wav,2,2,1,8,,,,,0,5,5,7,0,9,9,10,,,,,,,,,2,1.0202812899951823,,,094,001,2019_Sep_02_0912,MusicAffectPsychophysiology2019,3.0.5,60.142527557721195,
To what extent did the music make you feel ,GUILTY,30MonoWAV/30MonoH4.wav,2,2,1,8,,,,,0,5,5,7,0,10,10,5,,,,,,,,,1,0.818728995975107,,,094,001,2019_Sep_02_0912,MusicAffectPsychophysiology2019,3.0.5,60.142527557721195,
To what extent did the music make you feel ,ANXIOUS ,30MonoWAV/30MonoH4.wav,2,2,1,8,,,,,0,5,5,7,0,11,11,1,,,,,,,,,1,0.7368227099941578,,,094,001,2019_Sep_02_0912,MusicAffectPsychophysiology2019,3.0.5,60.142527557721195,
,,30MonoWAV/30MonoH4.wav,2,2,1,8,,,,,0,5,5,7,,,,,,,,,,,,,,,,,094,001,2019_Sep_02_0912,MusicAffectPsychophysiology2019,3.0.5,60.142527557721195,
To what extent did the music make you feel ,ACTIVE,30MonoWAV/30MonoH2.wav,2,2,1,6,,,,,0,6,6,5,0,0,0,9,,,5,4.702526968991151,5,1.052172019990394,4,1.6867126149882097,4,1.9702978520072065,,,094,001,2019_Sep_02_0912,MusicAffectPsychophysiology2019,3.0.5,60.142527557721195,
To what extent did the music make you feel ,FRUSTRATED,30MonoWAV/30MonoH2.wav,2,2,1,6,,,,,0,6,6,5,0,1,1,3,,,,,,,,,1,1.0316820199950598,,,094,001,2019_Sep_02_0912,MusicAffectPsychophysiology2019,3.0.5,60.142527557721195,
To what extent did the music make you feel ,GUILTY,30MonoWAV/30MonoH2.wav,2,2,1,6,,,,,0,6,6,5,0,2,2,5,,,,,,,,,1,0.6857974820013624,,,094,001,2019_Sep_02_0912,MusicAffectPsychophysiology2019,3.0.5,60.142527557721195,
To what extent did the music make you feel ,HAPPY,30MonoWAV/30MonoH2.wav,2,2,1,6,,,,,0,6,6,5,0,3,3,6,,,,,,,,,3,1.1365794290031772,,,094,001,2019_Sep_02_0912,MusicAffectPsychophysiology2019,3.0.5,60.142527557721195,
To what extent did the music make you feel ,EXCITED,30MonoWAV/30MonoH2.wav,2,2,1,6,,,,,0,6,6,5,0,4,4,7,,,,,,,,,5,1.4855554999958258,,,094,001,2019_Sep_02_0912,MusicAffectPsychophysiology2019,3.0.5,60.142527557721195,
To what extent did the music make you feel ,TENDER,30MonoWAV/30MonoH2.wav,2,2,1,6,,,,,0,6,6,5,0,5,5,10,,,,,,,,,2,1.2359373510116711,,,094,001,2019_Sep_02_0912,MusicAffectPsychophysiology2019,3.0.5,60.142527557721195,
To what extent did the music make you feel ,ANGRY,30MonoWAV/30MonoH2.wav,2,2,1,6,,,,,0,6,6,5,0,6,6,2,,,,,,,,,1,0.8689102930075023,,,094,001,2019_Sep_02_0912,MusicAffectPsychophysiology2019,3.0.5,60.142527557721195,
To what extent did the music make you feel ,SCARED,30MonoWAV/30MonoH2.wav,2,2,1,6,,,,,0,6,6,5,0,7,7,11,,,,,,,,,1,0.6705963630229235,,,094,001,2019_Sep_02_0912,MusicAffectPsychophysiology2019,3.0.5,60.142527557721195,
To what extent did the music make you feel ,ALERT,30MonoWAV/30MonoH2.wav,2,2,1,6,,,,,0,6,6,5,0,8,8,8,,,,,,,,,5,1.2476074250007514,,,094,001,2019_Sep_02_0912,MusicAffectPsychophysiology2019,3.0.5,60.142527557721195,
To what extent did the music make you feel ,ASHAMED,30MonoWAV/30MonoH2.wav,2,2,1,6,,,,,0,6,6,5,0,9,9,4,,,,,,,,,1,0.786190497019561,,,094,001,2019_Sep_02_0912,MusicAffectPsychophysiology2019,3.0.5,60.142527557721195,
To what extent did the music make you feel ,SAD,30MonoWAV/30MonoH2.wav,2,2,1,6,,,,,0,6,6,5,0,10,10,0,,,,,,,,,1,1.1205363269837108,,,094,001,2019_Sep_02_0912,MusicAffectPsychophysiology2019,3.0.5,60.142527557721195,
To what extent did the music make you feel ,ANXIOUS ,30MonoWAV/30MonoH2.wav,2,2,1,6,,,,,0,6,6,5,0,11,11,1,,,,,,,,,1,0.8517532039841171,,,094,001,2019_Sep_02_0912,MusicAffectPsychophysiology2019,3.0.5,60.142527557721195,
,,30MonoWAV/30MonoH2.wav,2,2,1,6,,,,,0,6,6,5,,,,,,,,,,,,,,,,,094,001,2019_Sep_02_0912,MusicAffectPsychophysiology2019,3.0.5,60.142527557721195,
To what extent did the music make you feel ,ALERT,30MonoWAV/30MonoT4.wav,2,1,4,16,,,,,0,7,7,15,0,0,0,8,,,4,2.851679134008009,5,1.6868865700089373,4,1.5019217299995944,4,1.5580058629857376,,,094,001,2019_Sep_02_0912,MusicAffectPsychophysiology2019,3.0.5,60.142527557721195,
To what extent did the music make you feel ,SCARED,30MonoWAV/30MonoT4.wav,2,1,4,16,,,,,0,7,7,15,0,1,1,11,,,,,,,,,1,1.0256096619996242,,,094,001,2019_Sep_02_0912,MusicAffectPsychophysiology2019,3.0.5,60.142527557721195,
To what extent did the music make you feel ,ASHAMED,30MonoWAV/30MonoT4.wav,2,1,4,16,,,,,0,7,7,15,0,2,2,4,,,,,,,,,1,0.6689301230071578,,,094,001,2019_Sep_02_0912,MusicAffectPsychophysiology2019,3.0.5,60.142527557721195,
To what extent did the music make you feel ,HAPPY,30MonoWAV/30MonoT4.wav,2,1,4,16,,,,,0,7,7,15,0,3,3,6,,,,,,,,,4,1.3181834860006347,,,094,001,2019_Sep_02_0912,MusicAffectPsychophysiology2019,3.0.5,60.142527557721195,
To what extent did the music make you feel ,FRUSTRATED,30MonoWAV/30MonoT4.wav,2,1,4,16,,,,,0,7,7,15,0,4,4,3,,,,,,,,,1,0.7915184650046285,,,094,001,2019_Sep_02_0912,MusicAffectPsychophysiology2019,3.0.5,60.142527557721195,
To what extent did the music make you feel ,GUILTY,30MonoWAV/30MonoT4.wav,2,1,4,16,,,,,0,7,7,15,0,5,5,5,,,,,,,,,1,1.0531453500152566,,,094,001,2019_Sep_02_0912,MusicAffectPsychophysiology2019,3.0.5,60.142527557721195,
To what extent did the music make you feel ,ANGRY,30MonoWAV/30MonoT4.wav,2,1,4,16,,,,,0,7,7,15,0,6,6,2,,,,,,,,,1,0.5501625280012377,,,094,001,2019_Sep_02_0912,MusicAffectPsychophysiology2019,3.0.5,60.142527557721195,
To what extent did the music make you feel ,ANXIOUS ,30MonoWAV/30MonoT4.wav,2,1,4,16,,,,,0,7,7,15,0,7,7,1,,,,,,,,,1,0.6371948620071635,,,094,001,2019_Sep_02_0912,MusicAffectPsychophysiology2019,3.0.5,60.142527557721195,
To what extent did the music make you feel ,EXCITED,30MonoWAV/30MonoT4.wav,2,1,4,16,,,,,0,7,7,15,0,8,8,7,,,,,,,,,3,1.285254800983239,,,094,001,2019_Sep_02_0912,MusicAffectPsychophysiology2019,3.0.5,60.142527557721195,
To what extent did the music make you feel ,ACTIVE,30MonoWAV/30MonoT4.wav,2,1,4,16,,,,,0,7,7,15,0,9,9,9,,,,,,,,,3,1.25262142700376,,,094,001,2019_Sep_02_0912,MusicAffectPsychophysiology2019,3.0.5,60.142527557721195,
To what extent did the music make you feel ,TENDER,30MonoWAV/30MonoT4.wav,2,1,4,16,,,,,0,7,7,15,0,10,10,10,,,,,,,,,5,1.016986787028145,,,094,001,2019_Sep_02_0912,MusicAffectPsychophysiology2019,3.0.5,60.142527557721195,
To what extent did the music make you feel ,SAD,30MonoWAV/30MonoT4.wav,2,1,4,16,,,,,0,7,7,15,0,11,11,0,,,,,,,,,1,0.8687732499965932,,,094,001,2019_Sep_02_0912,MusicAffectPsychophysiology2019,3.0.5,60.142527557721195,
,,30MonoWAV/30MonoT4.wav,2,1,4,16,,,,,0,7,7,15,,,,,,,,,,,,,,,,,094,001,2019_Sep_02_0912,MusicAffectPsychophysiology2019,3.0.5,60.142527557721195,
To what extent did the music make you feel ,GUILTY,30MonoWAV/30MonoS2.wav,1,1,3,10,,,,,0,8,8,9,0,0,0,5,,,2,3.037019063020125,3,2.118543126009172,3,1.6691008569905534,1,1.4517796419968363,,,094,001,2019_Sep_02_0912,MusicAffectPsychophysiology2019,3.0.5,60.142527557721195,
To what extent did the music make you feel ,TENDER,30MonoWAV/30MonoS2.wav,1,1,3,10,,,,,0,8,8,9,0,1,1,10,,,,,,,,,2,1.3867546719848178,,,094,001,2019_Sep_02_0912,MusicAffectPsychophysiology2019,3.0.5,60.142527557721195,
To what extent did the music make you feel ,ANXIOUS ,30MonoWAV/30MonoS2.wav,1,1,3,10,,,,,0,8,8,9,0,2,2,1,,,,,,,,,3,1.8187789070070721,,,094,001,2019_Sep_02_0912,MusicAffectPsychophysiology2019,3.0.5,60.142527557721195,
To what extent did the music make you feel ,ASHAMED,30MonoWAV/30MonoS2.wav,1,1,3,10,,,,,0,8,8,9,0,3,3,4,,,,,,,,,1,1.0160338429850526,,,094,001,2019_Sep_02_0912,MusicAffectPsychophysiology2019,3.0.5,60.142527557721195,
To what extent did the music make you feel ,EXCITED,30MonoWAV/30MonoS2.wav,1,1,3,10,,,,,0,8,8,9,0,4,4,7,,,,,,,,,1,1.2031131100084167,,,094,001,2019_Sep_02_0912,MusicAffectPsychophysiology2019,3.0.5,60.142527557721195,
To what extent did the music make you feel ,SAD,30MonoWAV/30MonoS2.wav,1,1,3,10,,,,,0,8,8,9,0,5,5,0,,,,,,,,,2,1.4527722519997042,,,094,001,2019_Sep_02_0912,MusicAffectPsychophysiology2019,3.0.5,60.142527557721195,
To what extent did the music make you feel ,ACTIVE,30MonoWAV/30MonoS2.wav,1,1,3,10,,,,,0,8,8,9,0,6,6,9,,,,,,,,,1,0.836064967996208,,,094,001,2019_Sep_02_0912,MusicAffectPsychophysiology2019,3.0.5,60.142527557721195,
To what extent did the music make you feel ,FRUSTRATED,30MonoWAV/30MonoS2.wav,1,1,3,10,,,,,0,8,8,9,0,7,7,3,,,,,,,,,1,0.9515012229967397,,,094,001,2019_Sep_02_0912,MusicAffectPsychophysiology2019,3.0.5,60.142527557721195,
To what extent did the music make you feel ,HAPPY,30MonoWAV/30MonoS2.wav,1,1,3,10,,,,,0,8,8,9,0,8,8,6,,,,,,,,,1,0.8185430650191847,,,094,001,2019_Sep_02_0912,MusicAffectPsychophysiology2019,3.0.5,60.142527557721195,
To what extent did the music make you feel ,ALERT,30MonoWAV/30MonoS2.wav,1,1,3,10,,,,,0,8,8,9,0,9,9,8,,,,,,,,,1,1.402990373026114,,,094,001,2019_Sep_02_0912,MusicAffectPsychophysiology2019,3.0.5,60.142527557721195,
To what extent did the music make you feel ,SCARED,30MonoWAV/30MonoS2.wav,1,1,3,10,,,,,0,8,8,9,0,10,10,11,,,,,,,,,1,1.0671020949957892,,,094,001,2019_Sep_02_0912,MusicAffectPsychophysiology2019,3.0.5,60.142527557721195,
To what extent did the music make you feel ,ANGRY,30MonoWAV/30MonoS2.wav,1,1,3,10,,,,,0,8,8,9,0,11,11,2,,,,,,,,,1,0.8521858460153453,,,094,001,2019_Sep_02_0912,MusicAffectPsychophysiology2019,3.0.5,60.142527557721195,
,,30MonoWAV/30MonoS2.wav,1,1,3,10,,,,,0,8,8,9,,,,,,,,,,,,,,,,,094,001,2019_Sep_02_0912,MusicAffectPsychophysiology2019,3.0.5,60.142527557721195,
To what extent did the music make you feel ,TENDER,30MonoWAV/30MonoF1.wav,1,2,2,1,,,,,0,9,9,0,0,0,0,10,,,4,2.6180322869913653,1,1.136052453017328,4,1.7695361679943744,1,1.0947984709928278,,,094,001,2019_Sep_02_0912,MusicAffectPsychophysiology2019,3.0.5,60.142527557721195,
To what extent did the music make you feel ,ANGRY,30MonoWAV/30MonoF1.wav,1,2,2,1,,,,,0,9,9,0,0,1,1,2,,,,,,,,,3,1.3687229580245912,,,094,001,2019_Sep_02_0912,MusicAffectPsychophysiology2019,3.0.5,60.142527557721195,
To what extent did the music make you feel ,ANXIOUS ,30MonoWAV/30MonoF1.wav,1,2,2,1,,,,,0,9,9,0,0,2,2,1,,,,,,,,,5,1.3187941049982328,,,094,001,2019_Sep_02_0912,MusicAffectPsychophysiology2019,3.0.5,60.142527557721195,
To what extent did the music make you feel ,ASHAMED,30MonoWAV/30MonoF1.wav,1,2,2,1,,,,,0,9,9,0,0,3,3,4,,,,,,,,,1,1.1667439570010174,,,094,001,2019_Sep_02_0912,MusicAffectPsychophysiology2019,3.0.5,60.142527557721195,
To what extent did the music make you feel ,HAPPY,30MonoWAV/30MonoF1.wav,1,2,2,1,,,,,0,9,9,0,0,4,4,6,,,,,,,,,1,0.834030719997827,,,094,001,2019_Sep_02_0912,MusicAffectPsychophysiology2019,3.0.5,60.142527557721195,
To what extent did the music make you feel ,FRUSTRATED,30MonoWAV/30MonoF1.wav,1,2,2,1,,,,,0,9,9,0,0,5,5,3,,,,,,,,,3,1.3689098180038854,,,094,001,2019_Sep_02_0912,MusicAffectPsychophysiology2019,3.0.5,60.142527557721195,
To what extent did the music make you feel ,SCARED,30MonoWAV/30MonoF1.wav,1,2,2,1,,,,,0,9,9,0,0,6,6,11,,,,,,,,,5,1.1365659250004683,,,094,001,2019_Sep_02_0912,MusicAffectPsychophysiology2019,3.0.5,60.142527557721195,
To what extent did the music make you feel ,SAD,30MonoWAV/30MonoF1.wav,1,2,2,1,,,,,0,9,9,0,0,7,7,0,,,,,,,,,1,1.1185408880119212,,,094,001,2019_Sep_02_0912,MusicAffectPsychophysiology2019,3.0.5,60.142527557721195,
To what extent did the music make you feel ,EXCITED,30MonoWAV/30MonoF1.wav,1,2,2,1,,,,,0,9,9,0,0,8,8,7,,,,,,,,,3,3.1017967010266148,,,094,001,2019_Sep_02_0912,MusicAffectPsychophysiology2019,3.0.5,60.142527557721195,
To what extent did the music make you feel ,ACTIVE,30MonoWAV/30MonoF1.wav,1,2,2,1,,,,,0,9,9,0,0,9,9,9,,,,,,,,,4,1.5023092780029401,,,094,001,2019_Sep_02_0912,MusicAffectPsychophysiology2019,3.0.5,60.142527557721195,
To what extent did the music make you feel ,GUILTY,30MonoWAV/30MonoF1.wav,1,2,2,1,,,,,0,9,9,0,0,10,10,5,,,,,,,,,2,1.602927636995446,,,094,001,2019_Sep_02_0912,MusicAffectPsychophysiology2019,3.0.5,60.142527557721195,
To what extent did the music make you feel ,ALERT,30MonoWAV/30MonoF1.wav,1,2,2,1,,,,,0,9,9,0,0,11,11,8,,,,,,,,,5,1.1009657990070991,,,094,001,2019_Sep_02_0912,MusicAffectPsychophysiology2019,3.0.5,60.142527557721195,
,,30MonoWAV/30MonoF1.wav,1,2,2,1,,,,,0,9,9,0,,,,,,,,,,,,,,,,,094,001,2019_Sep_02_0912,MusicAffectPsychophysiology2019,3.0.5,60.142527557721195,
To what extent did the music make you feel ,ANXIOUS ,30MonoWAV/30MonoT3.wav,2,1,4,15,,,,,0,10,10,14,0,0,0,1,,,2,2.7371802589914296,4,1.9824499649985228,4,1.5883370599767659,1,1.7393890589883085,,,094,001,2019_Sep_02_0912,MusicAffectPsychophysiology2019,3.0.5,60.142527557721195,
To what extent did the music make you feel ,ASHAMED,30MonoWAV/30MonoT3.wav,2,1,4,15,,,,,0,10,10,14,0,1,1,4,,,,,,,,,1,0.8537759069877211,,,094,001,2019_Sep_02_0912,MusicAffectPsychophysiology2019,3.0.5,60.142527557721195,
To what extent did the music make you feel ,SAD,30MonoWAV/30MonoT3.wav,2,1,4,15,,,,,0,10,10,14,0,2,2,0,,,,,,,,,3,1.3364032600075006,,,094,001,2019_Sep_02_0912,MusicAffectPsychophysiology2019,3.0.5,60.142527557721195,
To what extent did the music make you feel ,HAPPY,30MonoWAV/30MonoT3.wav,2,1,4,15,,,,,0,10,10,14,0,3,3,6,,,,,,,,,4,1.3038844450202305,,,094,001,2019_Sep_02_0912,MusicAffectPsychophysiology2019,3.0.5,60.142527557721195,
To what extent did the music make you feel ,ACTIVE,30MonoWAV/30MonoT3.wav,2,1,4,15,,,,,0,10,10,14,0,4,4,9,,,,,,,,,1,1.9528930769884028,,,094,001,2019_Sep_02_0912,MusicAffectPsychophysiology2019,3.0.5,60.142527557721195,
To what extent did the music make you feel ,TENDER,30MonoWAV/30MonoT3.wav,2,1,4,15,,,,,0,10,10,14,0,5,5,10,,,,,,,,,5,1.1539504500105977,,,094,001,2019_Sep_02_0912,MusicAffectPsychophysiology2019,3.0.5,60.142527557721195,
To what extent did the music make you feel ,ANGRY,30MonoWAV/30MonoT3.wav,2,1,4,15,,,,,0,10,10,14,0,6,6,2,,,,,,,,,1,0.936363570013782,,,094,001,2019_Sep_02_0912,MusicAffectPsychophysiology2019,3.0.5,60.142527557721195,
To what extent did the music make you feel ,GUILTY,30MonoWAV/30MonoT3.wav,2,1,4,15,,,,,0,10,10,14,0,7,7,5,,,,,,,,,1,1.2215043989999685,,,094,001,2019_Sep_02_0912,MusicAffectPsychophysiology2019,3.0.5,60.142527557721195,
To what extent did the music make you feel ,SCARED,30MonoWAV/30MonoT3.wav,2,1,4,15,,,,,0,10,10,14,0,8,8,11,,,,,,,,,1,0.9541755710088182,,,094,001,2019_Sep_02_0912,MusicAffectPsychophysiology2019,3.0.5,60.142527557721195,
To what extent did the music make you feel ,ALERT,30MonoWAV/30MonoT3.wav,2,1,4,15,,,,,0,10,10,14,0,9,9,8,,,,,,,,,2,2.3368955990008544,,,094,001,2019_Sep_02_0912,MusicAffectPsychophysiology2019,3.0.5,60.142527557721195,
To what extent did the music make you feel ,FRUSTRATED,30MonoWAV/30MonoT3.wav,2,1,4,15,,,,,0,10,10,14,0,10,10,3,,,,,,,,,1,1.2037612860149238,,,094,001,2019_Sep_02_0912,MusicAffectPsychophysiology2019,3.0.5,60.142527557721195,
To what extent did the music make you feel ,EXCITED,30MonoWAV/30MonoT3.wav,2,1,4,15,,,,,0,10,10,14,0,11,11,7,,,,,,,,,2,1.4696461049898062,,,094,001,2019_Sep_02_0912,MusicAffectPsychophysiology2019,3.0.5,60.142527557721195,
,,30MonoWAV/30MonoT3.wav,2,1,4,15,,,,,0,10,10,14,,,,,,,,,,,,,,,,,094,001,2019_Sep_02_0912,MusicAffectPsychophysiology2019,3.0.5,60.142527557721195,
To what extent did the music make you feel ,FRUSTRATED,30MonoWAV/30MonoT2.wav,2,1,4,14,,,,,0,11,11,13,0,0,0,3,,,3,2.8022672010120004,4,3.502673548005987,4,1.7691214449878316,1,1.3372865619894583,,,094,001,2019_Sep_02_0912,MusicAffectPsychophysiology2019,3.0.5,60.142527557721195,
To what extent did the music make you feel ,GUILTY,30MonoWAV/30MonoT2.wav,2,1,4,14,,,,,0,11,11,13,0,1,1,5,,,,,,,,,1,0.7360385280044284,,,094,001,2019_Sep_02_0912,MusicAffectPsychophysiology2019,3.0.5,60.142527557721195,
To what extent did the music make you feel ,HAPPY,30MonoWAV/30MonoT2.wav,2,1,4,14,,,,,0,11,11,13,0,2,2,6,,,,,,,,,5,2.600224296009401,,,094,001,2019_Sep_02_0912,MusicAffectPsychophysiology2019,3.0.5,60.142527557721195,
To what extent did the music make you feel ,SAD,30MonoWAV/30MonoT2.wav,2,1,4,14,,,,,0,11,11,13,0,3,3,0,,,,,,,,,1,1.103065470000729,,,094,001,2019_Sep_02_0912,MusicAffectPsychophysiology2019,3.0.5,60.142527557721195,
To what extent did the music make you feel ,EXCITED,30MonoWAV/30MonoT2.wav,2,1,4,14,,,,,0,11,11,13,0,4,4,7,,,,,,,,,4,1.236050831998,,,094,001,2019_Sep_02_0912,MusicAffectPsychophysiology2019,3.0.5,60.142527557721195,
To what extent did the music make you feel ,TENDER,30MonoWAV/30MonoT2.wav,2,1,4,14,,,,,0,11,11,13,0,5,5,10,,,,,,,,,5,0.9301203989889473,,,094,001,2019_Sep_02_0912,MusicAffectPsychophysiology2019,3.0.5,60.142527557721195,
To what extent did the music make you feel ,ACTIVE,30MonoWAV/30MonoT2.wav,2,1,4,14,,,,,0,11,11,13,0,6,6,9,,,,,,,,,3,1.9022941539878957,,,094,001,2019_Sep_02_0912,MusicAffectPsychophysiology2019,3.0.5,60.142527557721195,
To what extent did the music make you feel ,ANXIOUS ,30MonoWAV/30MonoT2.wav,2,1,4,14,,,,,0,11,11,13,0,7,7,1,,,,,,,,,1,1.1372441409912426,,,094,001,2019_Sep_02_0912,MusicAffectPsychophysiology2019,3.0.5,60.142527557721195,
To what extent did the music make you feel ,ASHAMED,30MonoWAV/30MonoT2.wav,2,1,4,14,,,,,0,11,11,13,0,8,8,4,,,,,,,,,1,0.9031270019768272,,,094,001,2019_Sep_02_0912,MusicAffectPsychophysiology2019,3.0.5,60.142527557721195,
To what extent did the music make you feel ,ALERT,30MonoWAV/30MonoT2.wav,2,1,4,14,,,,,0,11,11,13,0,9,9,8,,,,,,,,,3,2.4017699450196233,,,094,001,2019_Sep_02_0912,MusicAffectPsychophysiology2019,3.0.5,60.142527557721195,
To what extent did the music make you feel ,SCARED,30MonoWAV/30MonoT2.wav,2,1,4,14,,,,,0,11,11,13,0,10,10,11,,,,,,,,,1,1.486417275009444,,,094,001,2019_Sep_02_0912,MusicAffectPsychophysiology2019,3.0.5,60.142527557721195,
To what extent did the music make you feel ,ANGRY,30MonoWAV/30MonoT2.wav,2,1,4,14,,,,,0,11,11,13,0,11,11,2,,,,,,,,,1,1.367914047994418,,,094,001,2019_Sep_02_0912,MusicAffectPsychophysiology2019,3.0.5,60.142527557721195,
,,30MonoWAV/30MonoT2.wav,2,1,4,14,,,,,0,11,11,13,,,,,,,,,,,,,,,,,094,001,2019_Sep_02_0912,MusicAffectPsychophysiology2019,3.0.5,60.142527557721195,
To what extent did the music make you feel ,SAD,30MonoWAV/30MonoS4.wav,1,1,3,12,,,,,0,12,12,11,0,0,0,0,,,1,2.6041636539739557,1,2.3196998150087893,4,2.0535724649962503,4,2.2577792129886802,,,094,001,2019_Sep_02_0912,MusicAffectPsychophysiology2019,3.0.5,60.142527557721195,
To what extent did the music make you feel ,ALERT,30MonoWAV/30MonoS4.wav,1,1,3,12,,,,,0,12,12,11,0,1,1,8,,,,,,,,,2,1.2691098790091928,,,094,001,2019_Sep_02_0912,MusicAffectPsychophysiology2019,3.0.5,60.142527557721195,
To what extent did the music make you feel ,HAPPY,30MonoWAV/30MonoS4.wav,1,1,3,12,,,,,0,12,12,11,0,2,2,6,,,,,,,,,1,1.25300360302208,,,094,001,2019_Sep_02_0912,MusicAffectPsychophysiology2019,3.0.5,60.142527557721195,
To what extent did the music make you feel ,TENDER,30MonoWAV/30MonoS4.wav,1,1,3,12,,,,,0,12,12,11,0,3,3,10,,,,,,,,,3,1.9863807860238012,,,094,001,2019_Sep_02_0912,MusicAffectPsychophysiology2019,3.0.5,60.142527557721195,
To what extent did the music make you feel ,ASHAMED,30MonoWAV/30MonoS4.wav,1,1,3,12,,,,,0,12,12,11,0,4,4,4,,,,,,,,,1,1.336451571987709,,,094,001,2019_Sep_02_0912,MusicAffectPsychophysiology2019,3.0.5,60.142527557721195,
To what extent did the music make you feel ,ANGRY,30MonoWAV/30MonoS4.wav,1,1,3,12,,,,,0,12,12,11,0,5,5,2,,,,,,,,,1,0.8854209470155183,,,094,001,2019_Sep_02_0912,MusicAffectPsychophysiology2019,3.0.5,60.142527557721195,
To what extent did the music make you feel ,ACTIVE,30MonoWAV/30MonoS4.wav,1,1,3,12,,,,,0,12,12,11,0,6,6,9,,,,,,,,,2,1.435830791015178,,,094,001,2019_Sep_02_0912,MusicAffectPsychophysiology2019,3.0.5,60.142527557721195,
To what extent did the music make you feel ,EXCITED,30MonoWAV/30MonoS4.wav,1,1,3,12,,,,,0,12,12,11,0,7,7,7,,,,,,,,,1,1.0861207460111473,,,094,001,2019_Sep_02_0912,MusicAffectPsychophysiology2019,3.0.5,60.142527557721195,
To what extent did the music make you feel ,SCARED,30MonoWAV/30MonoS4.wav,1,1,3,12,,,,,0,12,12,11,0,8,8,11,,,,,,,,,2,1.5534578910155687,,,094,001,2019_Sep_02_0912,MusicAffectPsychophysiology2019,3.0.5,60.142527557721195,
To what extent did the music make you feel ,GUILTY,30MonoWAV/30MonoS4.wav,1,1,3,12,,,,,0,12,12,11,0,9,9,5,,,,,,,,,3,1.436131441994803,,,094,001,2019_Sep_02_0912,MusicAffectPsychophysiology2019,3.0.5,60.142527557721195,
To what extent did the music make you feel ,FRUSTRATED,30MonoWAV/30MonoS4.wav,1,1,3,12,,,,,0,12,12,11,0,10,10,3,,,,,,,,,1,3.3549675160029437,,,094,001,2019_Sep_02_0912,MusicAffectPsychophysiology2019,3.0.5,60.142527557721195,
To what extent did the music make you feel ,ANXIOUS ,30MonoWAV/30MonoS4.wav,1,1,3,12,,,,,0,12,12,11,0,11,11,1,,,,,,,,,3,1.4855967059847899,,,094,001,2019_Sep_02_0912,MusicAffectPsychophysiology2019,3.0.5,60.142527557721195,
,,30MonoWAV/30MonoS4.wav,1,1,3,12,,,,,0,12,12,11,,,,,,,,,,,,,,,,,094,001,2019_Sep_02_0912,MusicAffectPsychophysiology2019,3.0.5,60.142527557721195,
To what extent did the music make you feel ,SCARED,30MonoWAV/30MonoF2.wav,1,2,2,2,,,,,0,13,13,1,0,0,0,11,,,1,2.5863697890017647,1,0.919461843004683,3,2.469399308989523,5,1.8168853709939867,,,094,001,2019_Sep_02_0912,MusicAffectPsychophysiology2019,3.0.5,60.142527557721195,
To what extent did the music make you feel ,GUILTY,30MonoWAV/30MonoF2.wav,1,2,2,2,,,,,0,13,13,1,0,1,1,5,,,,,,,,,3,1.536505288007902,,,094,001,2019_Sep_02_0912,MusicAffectPsychophysiology2019,3.0.5,60.142527557721195,
To what extent did the music make you feel ,FRUSTRATED,30MonoWAV/30MonoF2.wav,1,2,2,2,,,,,0,13,13,1,0,2,2,3,,,,,,,,,1,1.684683194005629,,,094,001,2019_Sep_02_0912,MusicAffectPsychophysiology2019,3.0.5,60.142527557721195,
To what extent did the music make you feel ,SAD,30MonoWAV/30MonoF2.wav,1,2,2,2,,,,,0,13,13,1,0,3,3,0,,,,,,,,,1,0.9852370840089861,,,094,001,2019_Sep_02_0912,MusicAffectPsychophysiology2019,3.0.5,60.142527557721195,
To what extent did the music make you feel ,ACTIVE,30MonoWAV/30MonoF2.wav,1,2,2,2,,,,,0,13,13,1,0,4,4,9,,,,,,,,,4,2.717892409011256,,,094,001,2019_Sep_02_0912,MusicAffectPsychophysiology2019,3.0.5,60.142527557721195,
To what extent did the music make you feel ,ANGRY,30MonoWAV/30MonoF2.wav,1,2,2,2,,,,,0,13,13,1,0,5,5,2,,,,,,,,,1,1.3197431279986631,,,094,001,2019_Sep_02_0912,MusicAffectPsychophysiology2019,3.0.5,60.142527557721195,
To what extent did the music make you feel ,ALERT,30MonoWAV/30MonoF2.wav,1,2,2,2,,,,,0,13,13,1,0,6,6,8,,,,,,,,,5,1.2524077989801299,,,094,001,2019_Sep_02_0912,MusicAffectPsychophysiology2019,3.0.5,60.142527557721195,
To what extent did the music make you feel ,HAPPY,30MonoWAV/30MonoF2.wav,1,2,2,2,,,,,0,13,13,1,0,7,7,6,,,,,,,,,1,1.068977179005742,,,094,001,2019_Sep_02_0912,MusicAffectPsychophysiology2019,3.0.5,60.142527557721195,
To what extent did the music make you feel ,ANXIOUS ,30MonoWAV/30MonoF2.wav,1,2,2,2,,,,,0,13,13,1,0,8,8,1,,,,,,,,,5,1.269583801011322,,,094,001,2019_Sep_02_0912,MusicAffectPsychophysiology2019,3.0.5,60.142527557721195,
To what extent did the music make you feel ,TENDER,30MonoWAV/30MonoF2.wav,1,2,2,2,,,,,0,13,13,1,0,9,9,10,,,,,,,,,1,0.9526601930265315,,,094,001,2019_Sep_02_0912,MusicAffectPsychophysiology2019,3.0.5,60.142527557721195,
To what extent did the music make you feel ,EXCITED,30MonoWAV/30MonoF2.wav,1,2,2,2,,,,,0,13,13,1,0,10,10,7,,,,,,,,,1,1.5362078289908823,,,094,001,2019_Sep_02_0912,MusicAffectPsychophysiology2019,3.0.5,60.142527557721195,
To what extent did the music make you feel ,ASHAMED,30MonoWAV/30MonoF2.wav,1,2,2,2,,,,,0,13,13,1,0,11,11,4,,,,,,,,,2,1.0189531359937973,,,094,001,2019_Sep_02_0912,MusicAffectPsychophysiology2019,3.0.5,60.142527557721195,
,,30MonoWAV/30MonoF2.wav,1,2,2,2,,,,,0,13,13,1,,,,,,,,,,,,,,,,,094,001,2019_Sep_02_0912,MusicAffectPsychophysiology2019,3.0.5,60.142527557721195,
To what extent did the music make you feel ,ASHAMED,30MonoWAV/30MonoT1.wav,2,1,4,13,,,,,0,14,14,12,0,0,0,4,,,1,2.2701753590081353,1,2.2858011750213336,2,1.4520776699937414,1,1.7207546559802722,,,094,001,2019_Sep_02_0912,MusicAffectPsychophysiology2019,3.0.5,60.142527557721195,
To what extent did the music make you feel ,SCARED,30MonoWAV/30MonoT1.wav,2,1,4,13,,,,,0,14,14,12,0,1,1,11,,,,,,,,,1,1.08365127799334,,,094,001,2019_Sep_02_0912,MusicAffectPsychophysiology2019,3.0.5,60.142527557721195,
To what extent did the music make you feel ,SAD,30MonoWAV/30MonoT1.wav,2,1,4,13,,,,,0,14,14,12,0,2,2,0,,,,,,,,,5,1.2189976439985912,,,094,001,2019_Sep_02_0912,MusicAffectPsychophysiology2019,3.0.5,60.142527557721195,
To what extent did the music make you feel ,ALERT,30MonoWAV/30MonoT1.wav,2,1,4,13,,,,,0,14,14,12,0,3,3,8,,,,,,,,,3,1.2352753229788505,,,094,001,2019_Sep_02_0912,MusicAffectPsychophysiology2019,3.0.5,60.142527557721195,
To what extent did the music make you feel ,TENDER,30MonoWAV/30MonoT1.wav,2,1,4,13,,,,,0,14,14,12,0,4,4,10,,,,,,,,,5,1.1691329519962892,,,094,001,2019_Sep_02_0912,MusicAffectPsychophysiology2019,3.0.5,60.142527557721195,
To what extent did the music make you feel ,FRUSTRATED,30MonoWAV/30MonoT1.wav,2,1,4,13,,,,,0,14,14,12,0,5,5,3,,,,,,,,,1,1.0763732840132434,,,094,001,2019_Sep_02_0912,MusicAffectPsychophysiology2019,3.0.5,60.142527557721195,
To what extent did the music make you feel ,EXCITED,30MonoWAV/30MonoT1.wav,2,1,4,13,,,,,0,14,14,12,0,6,6,7,,,,,,,,,1,0.9525273230101448,,,094,001,2019_Sep_02_0912,MusicAffectPsychophysiology2019,3.0.5,60.142527557721195,
To what extent did the music make you feel ,GUILTY,30MonoWAV/30MonoT1.wav,2,1,4,13,,,,,0,14,14,12,0,7,7,5,,,,,,,,,2,1.071141735999845,,,094,001,2019_Sep_02_0912,MusicAffectPsychophysiology2019,3.0.5,60.142527557721195,
To what extent did the music make you feel ,ACTIVE,30MonoWAV/30MonoT1.wav,2,1,4,13,,,,,0,14,14,12,0,8,8,9,,,,,,,,,1,1.0027637039893307,,,094,001,2019_Sep_02_0912,MusicAffectPsychophysiology2019,3.0.5,60.142527557721195,
To what extent did the music make you feel ,ANXIOUS ,30MonoWAV/30MonoT1.wav,2,1,4,13,,,,,0,14,14,12,0,9,9,1,,,,,,,,,2,1.3698643789975904,,,094,001,2019_Sep_02_0912,MusicAffectPsychophysiology2019,3.0.5,60.142527557721195,
To what extent did the music make you feel ,HAPPY,30MonoWAV/30MonoT1.wav,2,1,4,13,,,,,0,14,14,12,0,10,10,6,,,,,,,,,1,0.8362681699800305,,,094,001,2019_Sep_02_0912,MusicAffectPsychophysiology2019,3.0.5,60.142527557721195,
To what extent did the music make you feel ,ANGRY,30MonoWAV/30MonoT1.wav,2,1,4,13,,,,,0,14,14,12,0,11,11,2,,,,,,,,,1,0.8193012489937246,,,094,001,2019_Sep_02_0912,MusicAffectPsychophysiology2019,3.0.5,60.142527557721195,
,,30MonoWAV/30MonoT1.wav,2,1,4,13,,,,,0,14,14,12,,,,,,,,,,,,,,,,,094,001,2019_Sep_02_0912,MusicAffectPsychophysiology2019,3.0.5,60.142527557721195,
To what extent did the music make you feel ,ANGRY,30MonoWAV/30MonoS1.wav,1,1,3,9,,,,,0,15,15,8,0,0,0,2,,,1,2.153684686985798,1,1.186835216009058,2,1.5370539450086653,1,3.13631988002453,,,094,001,2019_Sep_02_0912,MusicAffectPsychophysiology2019,3.0.5,60.142527557721195,
To what extent did the music make you feel ,ACTIVE,30MonoWAV/30MonoS1.wav,1,1,3,9,,,,,0,15,15,8,0,1,1,9,,,,,,,,,2,2.903259971004445,,,094,001,2019_Sep_02_0912,MusicAffectPsychophysiology2019,3.0.5,60.142527557721195,
To what extent did the music make you feel ,FRUSTRATED,30MonoWAV/30MonoS1.wav,1,1,3,9,,,,,0,15,15,8,0,2,2,3,,,,,,,,,4,3.1362616080150474,,,094,001,2019_Sep_02_0912,MusicAffectPsychophysiology2019,3.0.5,60.142527557721195,
To what extent did the music make you feel ,ANXIOUS ,30MonoWAV/30MonoS1.wav,1,1,3,9,,,,,0,15,15,8,0,3,3,1,,,,,,,,,3,1.668480919994181,,,094,001,2019_Sep_02_0912,MusicAffectPsychophysiology2019,3.0.5,60.142527557721195,
To what extent did the music make you feel ,TENDER,30MonoWAV/30MonoS1.wav,1,1,3,9,,,,,0,15,15,8,0,4,4,10,,,,,,,,,1,1.2188396379933693,,,094,001,2019_Sep_02_0912,MusicAffectPsychophysiology2019,3.0.5,60.142527557721195,
To what extent did the music make you feel ,GUILTY,30MonoWAV/30MonoS1.wav,1,1,3,9,,,,,0,15,15,8,0,5,5,5,,,,,,,,,3,1.7030419420043472,,,094,001,2019_Sep_02_0912,MusicAffectPsychophysiology2019,3.0.5,60.142527557721195,
To what extent did the music make you feel ,EXCITED,30MonoWAV/30MonoS1.wav,1,1,3,9,,,,,0,15,15,8,0,6,6,7,,,,,,,,,1,1.0190673420147505,,,094,001,2019_Sep_02_0912,MusicAffectPsychophysiology2019,3.0.5,60.142527557721195,
To what extent did the music make you feel ,ALERT,30MonoWAV/30MonoS1.wav,1,1,3,9,,,,,0,15,15,8,0,7,7,8,,,,,,,,,5,1.1366166259977035,,,094,001,2019_Sep_02_0912,MusicAffectPsychophysiology2019,3.0.5,60.142527557721195,
To what extent did the music make you feel ,ASHAMED,30MonoWAV/30MonoS1.wav,1,1,3,9,,,,,0,15,15,8,0,8,8,4,,,,,,,,,3,1.2862390920054168,,,094,001,2019_Sep_02_0912,MusicAffectPsychophysiology2019,3.0.5,60.142527557721195,
To what extent did the music make you feel ,SCARED,30MonoWAV/30MonoS1.wav,1,1,3,9,,,,,0,15,15,8,0,9,9,11,,,,,,,,,2,1.3480383239802904,,,094,001,2019_Sep_02_0912,MusicAffectPsychophysiology2019,3.0.5,60.142527557721195,
To what extent did the music make you feel ,HAPPY,30MonoWAV/30MonoS1.wav,1,1,3,9,,,,,0,15,15,8,0,10,10,6,,,,,,,,,1,1.0193051539827138,,,094,001,2019_Sep_02_0912,MusicAffectPsychophysiology2019,3.0.5,60.142527557721195,
To what extent did the music make you feel ,SAD,30MonoWAV/30MonoS1.wav,1,1,3,9,,,,,0,15,15,8,0,11,11,0,,,,,,,,,1,1.2032607719884254,,,094,001,2019_Sep_02_0912,MusicAffectPsychophysiology2019,3.0.5,60.142527557721195,
,,30MonoWAV/30MonoS1.wav,1,1,3,9,,,,,0,15,15,8,,,,,,,,,,,,,,,,,094,001,2019_Sep_02_0912,MusicAffectPsychophysiology2019,3.0.5,60.142527557721195,
To what extent did the music make you feel ,ANGRY,30MonoWAV/30MonoS1.wav,1,1,3,9,,,,,1,0,16,8,0,0,0,2,,,1,2.770709275995614,1,0.6188947329937946,2,1.3196265349979512,3,2.396183597011259,,,094,001,2019_Sep_02_0912,MusicAffectPsychophysiology2019,3.0.5,60.142527557721195,
To what extent did the music make you feel ,ANXIOUS ,30MonoWAV/30MonoS1.wav,1,1,3,9,,,,,1,0,16,8,0,1,1,1,,,,,,,,,5,1.883457133983029,,,094,001,2019_Sep_02_0912,MusicAffectPsychophysiology2019,3.0.5,60.142527557721195,
To what extent did the music make you feel ,SCARED,30MonoWAV/30MonoS1.wav,1,1,3,9,,,,,1,0,16,8,0,2,2,11,,,,,,,,,4,1.0860691939888056,,,094,001,2019_Sep_02_0912,MusicAffectPsychophysiology2019,3.0.5,60.142527557721195,
To what extent did the music make you feel ,EXCITED,30MonoWAV/30MonoS1.wav,1,1,3,9,,,,,1,0,16,8,0,3,3,7,,,,,,,,,1,1.1187710980011616,,,094,001,2019_Sep_02_0912,MusicAffectPsychophysiology2019,3.0.5,60.142527557721195,
To what extent did the music make you feel ,SAD,30MonoWAV/30MonoS1.wav,1,1,3,9,,,,,1,0,16,8,0,4,4,0,,,,,,,,,3,2.153524544002721,,,094,001,2019_Sep_02_0912,MusicAffectPsychophysiology2019,3.0.5,60.142527557721195,
To what extent did the music make you feel ,FRUSTRATED,30MonoWAV/30MonoS1.wav,1,1,3,9,,,,,1,0,16,8,0,5,5,3,,,,,,,,,5,1.5112447639985476,,,094,001,2019_Sep_02_0912,MusicAffectPsychophysiology2019,3.0.5,60.142527557721195,
To what extent did the music make you feel ,ACTIVE,30MonoWAV/30MonoS1.wav,1,1,3,9,,,,,1,0,16,8,0,6,6,9,,,,,,,,,2,1.1526740179979242,,,094,001,2019_Sep_02_0912,MusicAffectPsychophysiology2019,3.0.5,60.142527557721195,
To what extent did the music make you feel ,TENDER,30MonoWAV/30MonoS1.wav,1,1,3,9,,,,,1,0,16,8,0,7,7,10,,,,,,,,,1,0.9444428199785762,,,094,001,2019_Sep_02_0912,MusicAffectPsychophysiology2019,3.0.5,60.142527557721195,
To what extent did the music make you feel ,HAPPY,30MonoWAV/30MonoS1.wav,1,1,3,9,,,,,1,0,16,8,0,8,8,6,,,,,,,,,1,0.7034294200129807,,,094,001,2019_Sep_02_0912,MusicAffectPsychophysiology2019,3.0.5,60.142527557721195,
To what extent did the music make you feel ,GUILTY,30MonoWAV/30MonoS1.wav,1,1,3,9,,,,,1,0,16,8,0,9,9,5,,,,,,,,,3,1.3038388139975723,,,094,001,2019_Sep_02_0912,MusicAffectPsychophysiology2019,3.0.5,60.142527557721195,
To what extent did the music make you feel ,ASHAMED,30MonoWAV/30MonoS1.wav,1,1,3,9,,,,,1,0,16,8,0,10,10,4,,,,,,,,,2,1.0025662500120234,,,094,001,2019_Sep_02_0912,MusicAffectPsychophysiology2019,3.0.5,60.142527557721195,
To what extent did the music make you feel ,ALERT,30MonoWAV/30MonoS1.wav,1,1,3,9,,,,,1,0,16,8,0,11,11,8,,,,,,,,,4,1.8018036530120298,,,094,001,2019_Sep_02_0912,MusicAffectPsychophysiology2019,3.0.5,60.142527557721195,
,,30MonoWAV/30MonoS1.wav,1,1,3,9,,,,,1,0,16,8,,,,,,,,,,,,,,,,,094,001,2019_Sep_02_0912,MusicAffectPsychophysiology2019,3.0.5,60.142527557721195,
To what extent did the music make you feel ,ASHAMED,30MonoWAV/30MonoF3.wav,1,2,2,3,,,,,1,1,17,2,0,0,0,4,,,2,3.0172662819968536,1,1.3855356610147282,2,1.3865486830181908,4,2.0382389549922664,,,094,001,2019_Sep_02_0912,MusicAffectPsychophysiology2019,3.0.5,60.142527557721195,
To what extent did the music make you feel ,EXCITED,30MonoWAV/30MonoF3.wav,1,2,2,3,,,,,1,1,17,2,0,1,1,7,,,,,,,,,2,1.536144184996374,,,094,001,2019_Sep_02_0912,MusicAffectPsychophysiology2019,3.0.5,60.142527557721195,
To what extent did the music make you feel ,ACTIVE,30MonoWAV/30MonoF3.wav,1,2,2,3,,,,,1,1,17,2,0,2,2,9,,,,,,,,,5,1.4365481520071626,,,094,001,2019_Sep_02_0912,MusicAffectPsychophysiology2019,3.0.5,60.142527557721195,
To what extent did the music make you feel ,HAPPY,30MonoWAV/30MonoF3.wav,1,2,2,3,,,,,1,1,17,2,0,3,3,6,,,,,,,,,1,0.9857415939914063,,,094,001,2019_Sep_02_0912,MusicAffectPsychophysiology2019,3.0.5,60.142527557721195,
To what extent did the music make you feel ,ALERT,30MonoWAV/30MonoF3.wav,1,2,2,3,,,,,1,1,17,2,0,4,4,8,,,,,,,,,5,1.0361392879858613,,,094,001,2019_Sep_02_0912,MusicAffectPsychophysiology2019,3.0.5,60.142527557721195,
To what extent did the music make you feel ,SAD,30MonoWAV/30MonoF3.wav,1,2,2,3,,,,,1,1,17,2,0,5,5,0,,,,,,,,,1,1.3851064030022826,,,094,001,2019_Sep_02_0912,MusicAffectPsychophysiology2019,3.0.5,60.142527557721195,
To what extent did the music make you feel ,FRUSTRATED,30MonoWAV/30MonoF3.wav,1,2,2,3,,,,,1,1,17,2,0,6,6,3,,,,,,,,,4,1.1536178170063067,,,094,001,2019_Sep_02_0912,MusicAffectPsychophysiology2019,3.0.5,60.142527557721195,
To what extent did the music make you feel ,TENDER,30MonoWAV/30MonoF3.wav,1,2,2,3,,,,,1,1,17,2,0,7,7,10,,,,,,,,,1,0.8684187860053498,,,094,001,2019_Sep_02_0912,MusicAffectPsychophysiology2019,3.0.5,60.142527557721195,
To what extent did the music make you feel ,ANXIOUS ,30MonoWAV/30MonoF3.wav,1,2,2,3,,,,,1,1,17,2,0,8,8,1,,,,,,,,,5,1.036227525997674,,,094,001,2019_Sep_02_0912,MusicAffectPsychophysiology2019,3.0.5,60.142527557721195,
To what extent did the music make you feel ,GUILTY,30MonoWAV/30MonoF3.wav,1,2,2,3,,,,,1,1,17,2,0,9,9,5,,,,,,,,,5,2.101173867005855,,,094,001,2019_Sep_02_0912,MusicAffectPsychophysiology2019,3.0.5,60.142527557721195,
To what extent did the music make you feel ,ANGRY,30MonoWAV/30MonoF3.wav,1,2,2,3,,,,,1,1,17,2,0,10,10,2,,,,,,,,,3,3.7366756949923,,,094,001,2019_Sep_02_0912,MusicAffectPsychophysiology2019,3.0.5,60.142527557721195,
To what extent did the music make you feel ,SCARED,30MonoWAV/30MonoF3.wav,1,2,2,3,,,,,1,1,17,2,0,11,11,11,,,,,,,,,2,1.17042411598959,,,094,001,2019_Sep_02_0912,MusicAffectPsychophysiology2019,3.0.5,60.142527557721195,
,,30MonoWAV/30MonoF3.wav,1,2,2,3,,,,,1,1,17,2,,,,,,,,,,,,,,,,,094,001,2019_Sep_02_0912,MusicAffectPsychophysiology2019,3.0.5,60.142527557721195,
To what extent did the music make you feel ,FRUSTRATED,30MonoWAV/30MonoF2.wav,1,2,2,2,,,,,1,2,18,1,0,0,0,3,,,2,3.6697735210182145,1,0.9688700329861604,2,1.369631807989208,4,2.203267828008393,,,094,001,2019_Sep_02_0912,MusicAffectPsychophysiology2019,3.0.5,60.142527557721195,
To what extent did the music make you feel ,ALERT,30MonoWAV/30MonoF2.wav,1,2,2,2,,,,,1,2,18,1,0,1,1,8,,,,,,,,,5,1.16616173699731,,,094,001,2019_Sep_02_0912,MusicAffectPsychophysiology2019,3.0.5,60.142527557721195,
To what extent did the music make you feel ,ANGRY,30MonoWAV/30MonoF2.wav,1,2,2,2,,,,,1,2,18,1,0,2,2,2,,,,,,,,,1,2.135324914997909,,,094,001,2019_Sep_02_0912,MusicAffectPsychophysiology2019,3.0.5,60.142527557721195,
To what extent did the music make you feel ,EXCITED,30MonoWAV/30MonoF2.wav,1,2,2,2,,,,,1,2,18,1,0,3,3,7,,,,,,,,,1,1.5844785870285705,,,094,001,2019_Sep_02_0912,MusicAffectPsychophysiology2019,3.0.5,60.142527557721195,
To what extent did the music make you feel ,ASHAMED,30MonoWAV/30MonoF2.wav,1,2,2,2,,,,,1,2,18,1,0,4,4,4,,,,,,,,,4,2.0365392209787387,,,094,001,2019_Sep_02_0912,MusicAffectPsychophysiology2019,3.0.5,60.142527557721195,
To what extent did the music make you feel ,HAPPY,30MonoWAV/30MonoF2.wav,1,2,2,2,,,,,1,2,18,1,0,5,5,6,,,,,,,,,1,1.0187525959918275,,,094,001,2019_Sep_02_0912,MusicAffectPsychophysiology2019,3.0.5,60.142527557721195,
To what extent did the music make you feel ,SAD,30MonoWAV/30MonoF2.wav,1,2,2,2,,,,,1,2,18,1,0,6,6,0,,,,,,,,,3,1.2186526519944891,,,094,001,2019_Sep_02_0912,MusicAffectPsychophysiology2019,3.0.5,60.142527557721195,
To what extent did the music make you feel ,ANXIOUS ,30MonoWAV/30MonoF2.wav,1,2,2,2,,,,,1,2,18,1,0,7,7,1,,,,,,,,,5,1.0026342289929744,,,094,001,2019_Sep_02_0912,MusicAffectPsychophysiology2019,3.0.5,60.142527557721195,
To what extent did the music make you feel ,ACTIVE,30MonoWAV/30MonoF2.wav,1,2,2,2,,,,,1,2,18,1,0,8,8,9,,,,,,,,,5,1.9866093930031639,,,094,001,2019_Sep_02_0912,MusicAffectPsychophysiology2019,3.0.5,60.142527557721195,
To what extent did the music make you feel ,TENDER,30MonoWAV/30MonoF2.wav,1,2,2,2,,,,,1,2,18,1,0,9,9,10,,,,,,,,,1,1.1045014199917205,,,094,001,2019_Sep_02_0912,MusicAffectPsychophysiology2019,3.0.5,60.142527557721195,
To what extent did the music make you feel ,GUILTY,30MonoWAV/30MonoF2.wav,1,2,2,2,,,,,1,2,18,1,0,10,10,5,,,,,,,,,5,0.9844293830101378,,,094,001,2019_Sep_02_0912,MusicAffectPsychophysiology2019,3.0.5,60.142527557721195,
To what extent did the music make you feel ,SCARED,30MonoWAV/30MonoF2.wav,1,2,2,2,,,,,1,2,18,1,0,11,11,11,,,,,,,,,4,1.2035870809922926,,,094,001,2019_Sep_02_0912,MusicAffectPsychophysiology2019,3.0.5,60.142527557721195,
,,30MonoWAV/30MonoF2.wav,1,2,2,2,,,,,1,2,18,1,,,,,,,,,,,,,,,,,094,001,2019_Sep_02_0912,MusicAffectPsychophysiology2019,3.0.5,60.142527557721195,
To what extent did the music make you feel ,HAPPY,30MonoWAV/30MonoS2.wav,1,1,3,10,,,,,1,3,19,9,0,0,0,6,,,1,2.1697058489953633,1,2.036085102998186,3,2.8028248850023374,1,1.3582767999905627,,,094,001,2019_Sep_02_0912,MusicAffectPsychophysiology2019,3.0.5,60.142527557721195,
To what extent did the music make you feel ,SCARED,30MonoWAV/30MonoS2.wav,1,1,3,10,,,,,1,3,19,9,0,1,1,11,,,,,,,,,2,2.7739346919988748,,,094,001,2019_Sep_02_0912,MusicAffectPsychophysiology2019,3.0.5,60.142527557721195,
To what extent did the music make you feel ,SAD,30MonoWAV/30MonoS2.wav,1,1,3,10,,,,,1,3,19,9,0,2,2,0,,,,,,,,,5,1.4354350850044284,,,094,001,2019_Sep_02_0912,MusicAffectPsychophysiology2019,3.0.5,60.142527557721195,
To what extent did the music make you feel ,FRUSTRATED,30MonoWAV/30MonoS2.wav,1,1,3,10,,,,,1,3,19,9,0,3,3,3,,,,,,,,,4,1.2569046189892106,,,094,001,2019_Sep_02_0912,MusicAffectPsychophysiology2019,3.0.5,60.142527557721195,
To what extent did the music make you feel ,ACTIVE,30MonoWAV/30MonoS2.wav,1,1,3,10,,,,,1,3,19,9,0,4,4,9,,,,,,,,,1,1.05318342501414,,,094,001,2019_Sep_02_0912,MusicAffectPsychophysiology2019,3.0.5,60.142527557721195,
To what extent did the music make you feel ,TENDER,30MonoWAV/30MonoS2.wav,1,1,3,10,,,,,1,3,19,9,0,5,5,10,,,,,,,,,2,1.7680281389912125,,,094,001,2019_Sep_02_0912,MusicAffectPsychophysiology2019,3.0.5,60.142527557721195,
To what extent did the music make you feel ,ANXIOUS ,30MonoWAV/30MonoS2.wav,1,1,3,10,,,,,1,3,19,9,0,6,6,1,,,,,,,,,3,1.4023877609870397,,,094,001,2019_Sep_02_0912,MusicAffectPsychophysiology2019,3.0.5,60.142527557721195,
To what extent did the music make you feel ,ASHAMED,30MonoWAV/30MonoS2.wav,1,1,3,10,,,,,1,3,19,9,0,7,7,4,,,,,,,,,4,1.7527768470172305,,,094,001,2019_Sep_02_0912,MusicAffectPsychophysiology2019,3.0.5,60.142527557721195,
To what extent did the music make you feel ,GUILTY,30MonoWAV/30MonoS2.wav,1,1,3,10,,,,,1,3,19,9,0,8,8,5,,,,,,,,,4,1.9327964060066734,,,094,001,2019_Sep_02_0912,MusicAffectPsychophysiology2019,3.0.5,60.142527557721195,
To what extent did the music make you feel ,ALERT,30MonoWAV/30MonoS2.wav,1,1,3,10,,,,,1,3,19,9,0,9,9,8,,,,,,,,,2,2.369422730000224,,,094,001,2019_Sep_02_0912,MusicAffectPsychophysiology2019,3.0.5,60.142527557721195,
To what extent did the music make you feel ,EXCITED,30MonoWAV/30MonoS2.wav,1,1,3,10,,,,,1,3,19,9,0,10,10,7,,,,,,,,,1,1.0035576770023908,,,094,001,2019_Sep_02_0912,MusicAffectPsychophysiology2019,3.0.5,60.142527557721195,
To what extent did the music make you feel ,ANGRY,30MonoWAV/30MonoS2.wav,1,1,3,10,,,,,1,3,19,9,0,11,11,2,,,,,,,,,1,1.7835023929947056,,,094,001,2019_Sep_02_0912,MusicAffectPsychophysiology2019,3.0.5,60.142527557721195,
,,30MonoWAV/30MonoS2.wav,1,1,3,10,,,,,1,3,19,9,,,,,,,,,,,,,,,,,094,001,2019_Sep_02_0912,MusicAffectPsychophysiology2019,3.0.5,60.142527557721195,
To what extent did the music make you feel ,HAPPY,30MonoWAV/30MonoT3.wav,2,1,4,15,,,,,1,4,20,14,0,0,0,6,,,1,2.850528499984648,2,1.783204425999429,4,2.0849272450141143,1,2.502364049985772,,,094,001,2019_Sep_02_0912,MusicAffectPsychophysiology2019,3.0.5,60.142527557721195,
To what extent did the music make you feel ,FRUSTRATED,30MonoWAV/30MonoT3.wav,2,1,4,15,,,,,1,4,20,14,0,1,1,3,,,,,,,,,1,1.467588875995716,,,094,001,2019_Sep_02_0912,MusicAffectPsychophysiology2019,3.0.5,60.142527557721195,
To what extent did the music make you feel ,SAD,30MonoWAV/30MonoT3.wav,2,1,4,15,,,,,1,4,20,14,0,2,2,0,,,,,,,,,5,1.3027551650011446,,,094,001,2019_Sep_02_0912,MusicAffectPsychophysiology2019,3.0.5,60.142527557721195,
To what extent did the music make you feel ,TENDER,30MonoWAV/30MonoT3.wav,2,1,4,15,,,,,1,4,20,14,0,3,3,10,,,,,,,,,5,1.003084331023274,,,094,001,2019_Sep_02_0912,MusicAffectPsychophysiology2019,3.0.5,60.142527557721195,
To what extent did the music make you feel ,ALERT,30MonoWAV/30MonoT3.wav,2,1,4,15,,,,,1,4,20,14,0,4,4,8,,,,,,,,,2,2.0189825669804122,,,094,001,2019_Sep_02_0912,MusicAffectPsychophysiology2019,3.0.5,60.142527557721195,
To what extent did the music make you feel ,ANXIOUS ,30MonoWAV/30MonoT3.wav,2,1,4,15,,,,,1,4,20,14,0,5,5,1,,,,,,,,,4,1.5020778629987035,,,094,001,2019_Sep_02_0912,MusicAffectPsychophysiology2019,3.0.5,60.142527557721195,
To what extent did the music make you feel ,SCARED,30MonoWAV/30MonoT3.wav,2,1,4,15,,,,,1,4,20,14,0,6,6,11,,,,,,,,,2,1.6696170770155732,,,094,001,2019_Sep_02_0912,MusicAffectPsychophysiology2019,3.0.5,60.142527557721195,
To what extent did the music make you feel ,ASHAMED,30MonoWAV/30MonoT3.wav,2,1,4,15,,,,,1,4,20,14,0,7,7,4,,,,,,,,,2,1.7851582299917936,,,094,001,2019_Sep_02_0912,MusicAffectPsychophysiology2019,3.0.5,60.142527557721195,
To what extent did the music make you feel ,EXCITED,30MonoWAV/30MonoT3.wav,2,1,4,15,,,,,1,4,20,14,0,8,8,7,,,,,,,,,1,1.3193617530050687,,,094,001,2019_Sep_02_0912,MusicAffectPsychophysiology2019,3.0.5,60.142527557721195,
To what extent did the music make you feel ,ACTIVE,30MonoWAV/30MonoT3.wav,2,1,4,15,,,,,1,4,20,14,0,9,9,9,,,,,,,,,2,1.3534789539990015,,,094,001,2019_Sep_02_0912,MusicAffectPsychophysiology2019,3.0.5,60.142527557721195,
To what extent did the music make you feel ,GUILTY,30MonoWAV/30MonoT3.wav,2,1,4,15,,,,,1,4,20,14,0,10,10,5,,,,,,,,,1,3.249271979002515,,,094,001,2019_Sep_02_0912,MusicAffectPsychophysiology2019,3.0.5,60.142527557721195,
To what extent did the music make you feel ,ANGRY,30MonoWAV/30MonoT3.wav,2,1,4,15,,,,,1,4,20,14,0,11,11,2,,,,,,,,,1,0.8361691609898116,,,094,001,2019_Sep_02_0912,MusicAffectPsychophysiology2019,3.0.5,60.142527557721195,
,,30MonoWAV/30MonoT3.wav,2,1,4,15,,,,,1,4,20,14,,,,,,,,,,,,,,,,,094,001,2019_Sep_02_0912,MusicAffectPsychophysiology2019,3.0.5,60.142527557721195,
To what extent did the music make you feel ,SCARED,30MonoWAV/30MonoS4.wav,1,1,3,12,,,,,1,5,21,11,0,0,0,11,,,1,2.1854559339990374,1,0.8335224680195097,4,2.836768695997307,2,2.626149100018665,,,094,001,2019_Sep_02_0912,MusicAffectPsychophysiology2019,3.0.5,60.142527557721195,
To what extent did the music make you feel ,SAD,30MonoWAV/30MonoS4.wav,1,1,3,12,,,,,1,5,21,11,0,1,1,0,,,,,,,,,5,1.0360493340122048,,,094,001,2019_Sep_02_0912,MusicAffectPsychophysiology2019,3.0.5,60.142527557721195,
To what extent did the music make you feel ,ASHAMED,30MonoWAV/30MonoS4.wav,1,1,3,12,,,,,1,5,21,11,0,2,2,4,,,,,,,,,4,1.050010025006486,,,094,001,2019_Sep_02_0912,MusicAffectPsychophysiology2019,3.0.5,60.142527557721195,
To what extent did the music make you feel ,TENDER,30MonoWAV/30MonoS4.wav,1,1,3,12,,,,,1,5,21,11,0,3,3,10,,,,,,,,,1,1.2693822290166281,,,094,001,2019_Sep_02_0912,MusicAffectPsychophysiology2019,3.0.5,60.142527557721195,
To what extent did the music make you feel ,GUILTY,30MonoWAV/30MonoS4.wav,1,1,3,12,,,,,1,5,21,11,0,4,4,5,,,,,,,,,3,1.1173039670102298,,,094,001,2019_Sep_02_0912,MusicAffectPsychophysiology2019,3.0.5,60.142527557721195,
To what extent did the music make you feel ,FRUSTRATED,30MonoWAV/30MonoS4.wav,1,1,3,12,,,,,1,5,21,11,0,5,5,3,,,,,,,,,2,1.6521088389854413,,,094,001,2019_Sep_02_0912,MusicAffectPsychophysiology2019,3.0.5,60.142527557721195,
To what extent did the music make you feel ,ANXIOUS ,30MonoWAV/30MonoS4.wav,1,1,3,12,,,,,1,5,21,11,0,6,6,1,,,,,,,,,5,1.0362328499904834,,,094,001,2019_Sep_02_0912,MusicAffectPsychophysiology2019,3.0.5,60.142527557721195,
To what extent did the music make you feel ,ALERT,30MonoWAV/30MonoS4.wav,1,1,3,12,,,,,1,5,21,11,0,7,7,8,,,,,,,,,2,1.0682153959933203,,,094,001,2019_Sep_02_0912,MusicAffectPsychophysiology2019,3.0.5,60.142527557721195,
To what extent did the music make you feel ,HAPPY,30MonoWAV/30MonoS4.wav,1,1,3,12,,,,,1,5,21,11,0,8,8,6,,,,,,,,,1,1.0029077600047458,,,094,001,2019_Sep_02_0912,MusicAffectPsychophysiology2019,3.0.5,60.142527557721195,
To what extent did the music make you feel ,ACTIVE,30MonoWAV/30MonoS4.wav,1,1,3,12,,,,,1,5,21,11,0,9,9,9,,,,,,,,,1,2.902633218007395,,,094,001,2019_Sep_02_0912,MusicAffectPsychophysiology2019,3.0.5,60.142527557721195,
To what extent did the music make you feel ,EXCITED,30MonoWAV/30MonoS4.wav,1,1,3,12,,,,,1,5,21,11,0,10,10,7,,,,,,,,,1,0.9189653029898182,,,094,001,2019_Sep_02_0912,MusicAffectPsychophysiology2019,3.0.5,60.142527557721195,
To what extent did the music make you feel ,ANGRY,30MonoWAV/30MonoS4.wav,1,1,3,12,,,,,1,5,21,11,0,11,11,2,,,,,,,,,1,0.7691099719959311,,,094,001,2019_Sep_02_0912,MusicAffectPsychophysiology2019,3.0.5,60.142527557721195,
,,30MonoWAV/30MonoS4.wav,1,1,3,12,,,,,1,5,21,11,,,,,,,,,,,,,,,,,094,001,2019_Sep_02_0912,MusicAffectPsychophysiology2019,3.0.5,60.142527557721195,
To what extent did the music make you feel ,ACTIVE,30MonoWAV/30MonoS3.wav,1,1,3,11,,,,,1,6,22,10,0,0,0,9,,,1,2.002060610015178,1,0.5861165940004867,3,1.370033015991794,1,1.2192549770115875,,,094,001,2019_Sep_02_0912,MusicAffectPsychophysiology2019,3.0.5,60.142527557721195,
To what extent did the music make you feel ,ANGRY,30MonoWAV/30MonoS3.wav,1,1,3,11,,,,,1,6,22,10,0,1,1,2,,,,,,,,,1,1.086254761001328,,,094,001,2019_Sep_02_0912,MusicAffectPsychophysiology2019,3.0.5,60.142527557721195,
To what extent did the music make you feel ,SAD,30MonoWAV/30MonoS3.wav,1,1,3,11,,,,,1,6,22,10,0,2,2,0,,,,,,,,,5,1.1695816440042108,,,094,001,2019_Sep_02_0912,MusicAffectPsychophysiology2019,3.0.5,60.142527557721195,
To what extent did the music make you feel ,ASHAMED,30MonoWAV/30MonoS3.wav,1,1,3,11,,,,,1,6,22,10,0,3,3,4,,,,,,,,,5,0.6359834269969724,,,094,001,2019_Sep_02_0912,MusicAffectPsychophysiology2019,3.0.5,60.142527557721195,
To what extent did the music make you feel ,SCARED,30MonoWAV/30MonoS3.wav,1,1,3,11,,,,,1,6,22,10,0,4,4,11,,,,,,,,,3,1.7865457870066166,,,094,001,2019_Sep_02_0912,MusicAffectPsychophysiology2019,3.0.5,60.142527557721195,
To what extent did the music make you feel ,FRUSTRATED,30MonoWAV/30MonoS3.wav,1,1,3,11,,,,,1,6,22,10,0,5,5,3,,,,,,,,,1,1.0362572540179826,,,094,001,2019_Sep_02_0912,MusicAffectPsychophysiology2019,3.0.5,60.142527557721195,
To what extent did the music make you feel ,EXCITED,30MonoWAV/30MonoS3.wav,1,1,3,11,,,,,1,6,22,10,0,6,6,7,,,,,,,,,1,0.9526494679739699,,,094,001,2019_Sep_02_0912,MusicAffectPsychophysiology2019,3.0.5,60.142527557721195,
To what extent did the music make you feel ,HAPPY,30MonoWAV/30MonoS3.wav,1,1,3,11,,,,,1,6,22,10,0,7,7,6,,,,,,,,,1,0.8864690310147125,,,094,001,2019_Sep_02_0912,MusicAffectPsychophysiology2019,3.0.5,60.142527557721195,
To what extent did the music make you feel ,ALERT,30MonoWAV/30MonoS3.wav,1,1,3,11,,,,,1,6,22,10,0,8,8,8,,,,,,,,,2,1.5044315590057522,,,094,001,2019_Sep_02_0912,MusicAffectPsychophysiology2019,3.0.5,60.142527557721195,
To what extent did the music make you feel ,GUILTY,30MonoWAV/30MonoS3.wav,1,1,3,11,,,,,1,6,22,10,0,9,9,5,,,,,,,,,4,1.0860697340103798,,,094,001,2019_Sep_02_0912,MusicAffectPsychophysiology2019,3.0.5,60.142527557721195,
To what extent did the music make you feel ,TENDER,30MonoWAV/30MonoS3.wav,1,1,3,11,,,,,1,6,22,10,0,10,10,10,,,,,,,,,1,0.9196365929965395,,,094,001,2019_Sep_02_0912,MusicAffectPsychophysiology2019,3.0.5,60.142527557721195,
To what extent did the music make you feel ,ANXIOUS ,30MonoWAV/30MonoS3.wav,1,1,3,11,,,,,1,6,22,10,0,11,11,1,,,,,,,,,5,1.1701454560097773,,,094,001,2019_Sep_02_0912,MusicAffectPsychophysiology2019,3.0.5,60.142527557721195,
,,30MonoWAV/30MonoS3.wav,1,1,3,11,,,,,1,6,22,10,,,,,,,,,,,,,,,,,094,001,2019_Sep_02_0912,MusicAffectPsychophysiology2019,3.0.5,60.142527557721195,
To what extent did the music make you feel ,SAD,30MonoWAV/30MonoH4.wav,2,2,1,8,,,,,1,7,23,7,0,0,0,0,,,4,3.2527554020052776,4,1.4671667430084199,2,1.600424745993223,1,0.9963961979956366,,,094,001,2019_Sep_02_0912,MusicAffectPsychophysiology2019,3.0.5,60.142527557721195,
To what extent did the music make you feel ,ASHAMED,30MonoWAV/30MonoH4.wav,2,2,1,8,,,,,1,7,23,7,0,1,1,4,,,,,,,,,1,0.6871673779969569,,,094,001,2019_Sep_02_0912,MusicAffectPsychophysiology2019,3.0.5,60.142527557721195,
To what extent did the music make you feel ,GUILTY,30MonoWAV/30MonoH4.wav,2,2,1,8,,,,,1,7,23,7,0,2,2,5,,,,,,,,,1,0.6506224879994988,,,094,001,2019_Sep_02_0912,MusicAffectPsychophysiology2019,3.0.5,60.142527557721195,
To what extent did the music make you feel ,HAPPY,30MonoWAV/30MonoH4.wav,2,2,1,8,,,,,1,7,23,7,0,3,3,6,,,,,,,,,4,1.2192372680001426,,,094,001,2019_Sep_02_0912,MusicAffectPsychophysiology2019,3.0.5,60.142527557721195,
To what extent did the music make you feel ,ALERT,30MonoWAV/30MonoH4.wav,2,2,1,8,,,,,1,7,23,7,0,4,4,8,,,,,,,,,5,1.1032039600249846,,,094,001,2019_Sep_02_0912,MusicAffectPsychophysiology2019,3.0.5,60.142527557721195,
To what extent did the music make you feel ,ANXIOUS ,30MonoWAV/30MonoH4.wav,2,2,1,8,,,,,1,7,23,7,0,5,5,1,,,,,,,,,1,1.0190190889989026,,,094,001,2019_Sep_02_0912,MusicAffectPsychophysiology2019,3.0.5,60.142527557721195,
To what extent did the music make you feel ,ANGRY,30MonoWAV/30MonoH4.wav,2,2,1,8,,,,,1,7,23,7,0,6,6,2,,,,,,,,,1,0.7700052089930978,,,094,001,2019_Sep_02_0912,MusicAffectPsychophysiology2019,3.0.5,60.142527557721195,
To what extent did the music make you feel ,TENDER,30MonoWAV/30MonoH4.wav,2,2,1,8,,,,,1,7,23,7,0,7,7,10,,,,,,,,,1,1.137899221997941,,,094,001,2019_Sep_02_0912,MusicAffectPsychophysiology2019,3.0.5,60.142527557721195,
To what extent did the music make you feel ,SCARED,30MonoWAV/30MonoH4.wav,2,2,1,8,,,,,1,7,23,7,0,8,8,11,,,,,,,,,1,0.712624830979621,,,094,001,2019_Sep_02_0912,MusicAffectPsychophysiology2019,3.0.5,60.142527557721195,
To what extent did the music make you feel ,FRUSTRATED,30MonoWAV/30MonoH4.wav,2,2,1,8,,,,,1,7,23,7,0,9,9,3,,,,,,,,,1,0.6287051659892313,,,094,001,2019_Sep_02_0912,MusicAffectPsychophysiology2019,3.0.5,60.142527557721195,
To what extent did the music make you feel ,EXCITED,30MonoWAV/30MonoH4.wav,2,2,1,8,,,,,1,7,23,7,0,10,10,7,,,,,,,,,3,1.6521212160005234,,,094,001,2019_Sep_02_0912,MusicAffectPsychophysiology2019,3.0.5,60.142527557721195,
To what extent did the music make you feel ,ACTIVE,30MonoWAV/30MonoH4.wav,2,2,1,8,,,,,1,7,23,7,0,11,11,9,,,,,,,,,5,1.2035753230156843,,,094,001,2019_Sep_02_0912,MusicAffectPsychophysiology2019,3.0.5,60.142527557721195,
,,30MonoWAV/30MonoH4.wav,2,2,1,8,,,,,1,7,23,7,,,,,,,,,,,,,,,,,094,001,2019_Sep_02_0912,MusicAffectPsychophysiology2019,3.0.5,60.142527557721195,
To what extent did the music make you feel ,ALERT,30MonoWAV/30MonoH3.wav,2,2,1,7,,,,,1,8,24,6,0,0,0,8,,,5,2.4706599399796687,5,0.9866318230051547,4,1.3211610970029142,5,1.2082219849980902,,,094,001,2019_Sep_02_0912,MusicAffectPsychophysiology2019,3.0.5,60.142527557721195,
To what extent did the music make you feel ,FRUSTRATED,30MonoWAV/30MonoH3.wav,2,2,1,7,,,,,1,8,24,6,0,1,1,3,,,,,,,,,1,0.9876178129925393,,,094,001,2019_Sep_02_0912,MusicAffectPsychophysiology2019,3.0.5,60.142527557721195,
To what extent did the music make you feel ,EXCITED,30MonoWAV/30MonoH3.wav,2,2,1,7,,,,,1,8,24,6,0,2,2,7,,,,,,,,,5,0.9900730010122061,,,094,001,2019_Sep_02_0912,MusicAffectPsychophysiology2019,3.0.5,60.142527557721195,
To what extent did the music make you feel ,TENDER,30MonoWAV/30MonoH3.wav,2,2,1,7,,,,,1,8,24,6,0,3,3,10,,,,,,,,,2,1.1345616340113338,,,094,001,2019_Sep_02_0912,MusicAffectPsychophysiology2019,3.0.5,60.142527557721195,
To what extent did the music make you feel ,ACTIVE,30MonoWAV/30MonoH3.wav,2,2,1,7,,,,,1,8,24,6,0,4,4,9,,,,,,,,,5,1.2694768760120496,,,094,001,2019_Sep_02_0912,MusicAffectPsychophysiology2019,3.0.5,60.142527557721195,
To what extent did the music make you feel ,SAD,30MonoWAV/30MonoH3.wav,2,2,1,7,,,,,1,8,24,6,0,5,5,0,,,,,,,,,1,0.9020341770083178,,,094,001,2019_Sep_02_0912,MusicAffectPsychophysiology2019,3.0.5,60.142527557721195,
To what extent did the music make you feel ,ANXIOUS ,30MonoWAV/30MonoH3.wav,2,2,1,7,,,,,1,8,24,6,0,6,6,1,,,,,,,,,2,1.3529612559941597,,,094,001,2019_Sep_02_0912,MusicAffectPsychophysiology2019,3.0.5,60.142527557721195,
To what extent did the music make you feel ,SCARED,30MonoWAV/30MonoH3.wav,2,2,1,7,,,,,1,8,24,6,0,7,7,11,,,,,,,,,1,0.9194341750117019,,,094,001,2019_Sep_02_0912,MusicAffectPsychophysiology2019,3.0.5,60.142527557721195,
To what extent did the music make you feel ,GUILTY,30MonoWAV/30MonoH3.wav,2,2,1,7,,,,,1,8,24,6,0,8,8,5,,,,,,,,,1,0.9354598940117285,,,094,001,2019_Sep_02_0912,MusicAffectPsychophysiology2019,3.0.5,60.142527557721195,
To what extent did the music make you feel ,HAPPY,30MonoWAV/30MonoH3.wav,2,2,1,7,,,,,1,8,24,6,0,9,9,6,,,,,,,,,4,1.2531474269926548,,,094,001,2019_Sep_02_0912,MusicAffectPsychophysiology2019,3.0.5,60.142527557721195,
To what extent did the music make you feel ,ASHAMED,30MonoWAV/30MonoH3.wav,2,2,1,7,,,,,1,8,24,6,0,10,10,4,,,,,,,,,1,0.8026186210045125,,,094,001,2019_Sep_02_0912,MusicAffectPsychophysiology2019,3.0.5,60.142527557721195,
To what extent did the music make you feel ,ANGRY,30MonoWAV/30MonoH3.wav,2,2,1,7,,,,,1,8,24,6,0,11,11,2,,,,,,,,,1,0.868870436999714,,,094,001,2019_Sep_02_0912,MusicAffectPsychophysiology2019,3.0.5,60.142527557721195,
,,30MonoWAV/30MonoH3.wav,2,2,1,7,,,,,1,8,24,6,,,,,,,,,,,,,,,,,094,001,2019_Sep_02_0912,MusicAffectPsychophysiology2019,3.0.5,60.142527557721195,
To what extent did the music make you feel ,ANXIOUS ,30MonoWAV/30MonoH2.wav,2,2,1,6,,,,,1,9,25,5,0,0,0,1,,,5,2.0545863950101193,5,0.7697858409956098,5,1.5202027959749103,1,1.7692276379966643,,,094,001,2019_Sep_02_0912,MusicAffectPsychophysiology2019,3.0.5,60.142527557721195,
To what extent did the music make you feel ,ASHAMED,30MonoWAV/30MonoH2.wav,2,2,1,6,,,,,1,9,25,5,0,1,1,4,,,,,,,,,1,0.6493330340017565,,,094,001,2019_Sep_02_0912,MusicAffectPsychophysiology2019,3.0.5,60.142527557721195,
To what extent did the music make you feel ,EXCITED,30MonoWAV/30MonoH2.wav,2,2,1,6,,,,,1,9,25,5,0,2,2,7,,,,,,,,,5,1.1860400050063618,,,094,001,2019_Sep_02_0912,MusicAffectPsychophysiology2019,3.0.5,60.142527557721195,
To what extent did the music make you feel ,ALERT,30MonoWAV/30MonoH2.wav,2,2,1,6,,,,,1,9,25,5,0,3,3,8,,,,,,,,,5,1.4363102439965587,,,094,001,2019_Sep_02_0912,MusicAffectPsychophysiology2019,3.0.5,60.142527557721195,
To what extent did the music make you feel ,HAPPY,30MonoWAV/30MonoH2.wav,2,2,1,6,,,,,1,9,25,5,0,4,4,6,,,,,,,,,4,1.0030491469951812,,,094,001,2019_Sep_02_0912,MusicAffectPsychophysiology2019,3.0.5,60.142527557721195,
To what extent did the music make you feel ,TENDER,30MonoWAV/30MonoH2.wav,2,2,1,6,,,,,1,9,25,5,0,5,5,10,,,,,,,,,2,1.3690874769818038,,,094,001,2019_Sep_02_0912,MusicAffectPsychophysiology2019,3.0.5,60.142527557721195,
To what extent did the music make you feel ,ACTIVE,30MonoWAV/30MonoH2.wav,2,2,1,6,,,,,1,9,25,5,0,6,6,9,,,,,,,,,5,1.2023384969797917,,,094,001,2019_Sep_02_0912,MusicAffectPsychophysiology2019,3.0.5,60.142527557721195,
To what extent did the music make you feel ,GUILTY,30MonoWAV/30MonoH2.wav,2,2,1,6,,,,,1,9,25,5,0,7,7,5,,,,,,,,,1,0.8704536689911038,,,094,001,2019_Sep_02_0912,MusicAffectPsychophysiology2019,3.0.5,60.142527557721195,
To what extent did the music make you feel ,FRUSTRATED,30MonoWAV/30MonoH2.wav,2,2,1,6,,,,,1,9,25,5,0,8,8,3,,,,,,,,,1,0.7672560719947796,,,094,001,2019_Sep_02_0912,MusicAffectPsychophysiology2019,3.0.5,60.142527557721195,
To what extent did the music make you feel ,SAD,30MonoWAV/30MonoH2.wav,2,2,1,6,,,,,1,9,25,5,0,9,9,0,,,,,,,,,1,0.6022687020013109,,,094,001,2019_Sep_02_0912,MusicAffectPsychophysiology2019,3.0.5,60.142527557721195,
To what extent did the music make you feel ,ANGRY,30MonoWAV/30MonoH2.wav,2,2,1,6,,,,,1,9,25,5,0,10,10,2,,,,,,,,,1,0.6197358740027994,,,094,001,2019_Sep_02_0912,MusicAffectPsychophysiology2019,3.0.5,60.142527557721195,
To what extent did the music make you feel ,SCARED,30MonoWAV/30MonoH2.wav,2,2,1,6,,,,,1,9,25,5,0,11,11,11,,,,,,,,,1,0.6856795479834545,,,094,001,2019_Sep_02_0912,MusicAffectPsychophysiology2019,3.0.5,60.142527557721195,
,,30MonoWAV/30MonoH2.wav,2,2,1,6,,,,,1,9,25,5,,,,,,,,,,,,,,,,,094,001,2019_Sep_02_0912,MusicAffectPsychophysiology2019,3.0.5,60.142527557721195,
To what extent did the music make you feel ,ANXIOUS ,30MonoWAV/30MonoT1.wav,2,1,4,13,,,,,1,10,26,12,0,0,0,1,,,1,2.1689850210095756,1,1.002542316011386,3,1.5517918820260093,4,3.127441007993184,,,094,001,2019_Sep_02_0912,MusicAffectPsychophysiology2019,3.0.5,60.142527557721195,
To what extent did the music make you feel ,EXCITED,30MonoWAV/30MonoT1.wav,2,1,4,13,,,,,1,10,26,12,0,1,1,7,,,,,,,,,1,0.9184323420049623,,,094,001,2019_Sep_02_0912,MusicAffectPsychophysiology2019,3.0.5,60.142527557721195,
To what extent did the music make you feel ,TENDER,30MonoWAV/30MonoT1.wav,2,1,4,13,,,,,1,10,26,12,0,2,2,10,,,,,,,,,1,1.0692541459866334,,,094,001,2019_Sep_02_0912,MusicAffectPsychophysiology2019,3.0.5,60.142527557721195,
To what extent did the music make you feel ,ASHAMED,30MonoWAV/30MonoT1.wav,2,1,4,13,,,,,1,10,26,12,0,3,3,4,,,,,,,,,2,1.5692581970070023,,,094,001,2019_Sep_02_0912,MusicAffectPsychophysiology2019,3.0.5,60.142527557721195,
To what extent did the music make you feel ,SAD,30MonoWAV/30MonoT1.wav,2,1,4,13,,,,,1,10,26,12,0,4,4,0,,,,,,,,,5,1.036705501988763,,,094,001,2019_Sep_02_0912,MusicAffectPsychophysiology2019,3.0.5,60.142527557721195,
To what extent did the music make you feel ,SCARED,30MonoWAV/30MonoT1.wav,2,1,4,13,,,,,1,10,26,12,0,5,5,11,,,,,,,,,2,1.0414004180056509,,,094,001,2019_Sep_02_0912,MusicAffectPsychophysiology2019,3.0.5,60.142527557721195,
To what extent did the music make you feel ,ANGRY,30MonoWAV/30MonoT1.wav,2,1,4,13,,,,,1,10,26,12,0,6,6,2,,,,,,,,,1,0.7860294250131119,,,094,001,2019_Sep_02_0912,MusicAffectPsychophysiology2019,3.0.5,60.142527557721195,
To what extent did the music make you feel ,ALERT,30MonoWAV/30MonoT1.wav,2,1,4,13,,,,,1,10,26,12,0,7,7,8,,,,,,,,,1,1.1360895530087873,,,094,001,2019_Sep_02_0912,MusicAffectPsychophysiology2019,3.0.5,60.142527557721195,
To what extent did the music make you feel ,FRUSTRATED,30MonoWAV/30MonoT1.wav,2,1,4,13,,,,,1,10,26,12,0,8,8,3,,,,,,,,,1,0.7595853839884512,,,094,001,2019_Sep_02_0912,MusicAffectPsychophysiology2019,3.0.5,60.142527557721195,
To what extent did the music make you feel ,GUILTY,30MonoWAV/30MonoT1.wav,2,1,4,13,,,,,1,10,26,12,0,9,9,5,,,,,,,,,3,2.703535603999626,,,094,001,2019_Sep_02_0912,MusicAffectPsychophysiology2019,3.0.5,60.142527557721195,
To what extent did the music make you feel ,ACTIVE,30MonoWAV/30MonoT1.wav,2,1,4,13,,,,,1,10,26,12,0,10,10,9,,,,,,,,,1,0.7851864389958791,,,094,001,2019_Sep_02_0912,MusicAffectPsychophysiology2019,3.0.5,60.142527557721195,
To what extent did the music make you feel ,HAPPY,30MonoWAV/30MonoT1.wav,2,1,4,13,,,,,1,10,26,12,0,11,11,6,,,,,,,,,1,0.7507914759917185,,,094,001,2019_Sep_02_0912,MusicAffectPsychophysiology2019,3.0.5,60.142527557721195,
,,30MonoWAV/30MonoT1.wav,2,1,4,13,,,,,1,10,26,12,,,,,,,,,,,,,,,,,094,001,2019_Sep_02_0912,MusicAffectPsychophysiology2019,3.0.5,60.142527557721195,
To what extent did the music make you feel ,GUILTY,30MonoWAV/30MonoH1.wav,2,2,1,5,,,,,1,11,27,4,0,0,0,5,,,3,2.7696820919809397,4,1.685020703007467,2,1.2196229249821045,1,1.0208487730124034,,,094,001,2019_Sep_02_0912,MusicAffectPsychophysiology2019,3.0.5,60.142527557721195,
To what extent did the music make you feel ,ANGRY,30MonoWAV/30MonoH1.wav,2,2,1,5,,,,,1,11,27,4,0,1,1,2,,,,,,,,,1,0.8866569510137197,,,094,001,2019_Sep_02_0912,MusicAffectPsychophysiology2019,3.0.5,60.142527557721195,
To what extent did the music make you feel ,TENDER,30MonoWAV/30MonoH1.wav,2,2,1,5,,,,,1,11,27,4,0,2,2,10,,,,,,,,,1,0.8859171759977471,,,094,001,2019_Sep_02_0912,MusicAffectPsychophysiology2019,3.0.5,60.142527557721195,
To what extent did the music make you feel ,EXCITED,30MonoWAV/30MonoH1.wav,2,2,1,5,,,,,1,11,27,4,0,3,3,7,,,,,,,,,4,1.534064771985868,,,094,001,2019_Sep_02_0912,MusicAffectPsychophysiology2019,3.0.5,60.142527557721195,
To what extent did the music make you feel ,HAPPY,30MonoWAV/30MonoH1.wav,2,2,1,5,,,,,1,11,27,4,0,4,4,6,,,,,,,,,4,1.2708219350024592,,,094,001,2019_Sep_02_0912,MusicAffectPsychophysiology2019,3.0.5,60.142527557721195,
To what extent did the music make you feel ,ALERT,30MonoWAV/30MonoH1.wav,2,2,1,5,,,,,1,11,27,4,0,5,5,8,,,,,,,,,5,1.8037966009869706,,,094,001,2019_Sep_02_0912,MusicAffectPsychophysiology2019,3.0.5,60.142527557721195,
To what extent did the music make you feel ,SCARED,30MonoWAV/30MonoH1.wav,2,2,1,5,,,,,1,11,27,4,0,6,6,11,,,,,,,,,1,1.1030349569919053,,,094,001,2019_Sep_02_0912,MusicAffectPsychophysiology2019,3.0.5,60.142527557721195,
To what extent did the music make you feel ,ANXIOUS ,30MonoWAV/30MonoH1.wav,2,2,1,5,,,,,1,11,27,4,0,7,7,1,,,,,,,,,1,0.8853690269752406,,,094,001,2019_Sep_02_0912,MusicAffectPsychophysiology2019,3.0.5,60.142527557721195,
To what extent did the music make you feel ,SAD,30MonoWAV/30MonoH1.wav,2,2,1,5,,,,,1,11,27,4,0,8,8,0,,,,,,,,,1,0.6524229779897723,,,094,001,2019_Sep_02_0912,MusicAffectPsychophysiology2019,3.0.5,60.142527557721195,
To what extent did the music make you feel ,FRUSTRATED,30MonoWAV/30MonoH1.wav,2,2,1,5,,,,,1,11,27,4,0,9,9,3,,,,,,,,,1,0.5844929109734949,,,094,001,2019_Sep_02_0912,MusicAffectPsychophysiology2019,3.0.5,60.142527557721195,
To what extent did the music make you feel ,ACTIVE,30MonoWAV/30MonoH1.wav,2,2,1,5,,,,,1,11,27,4,0,10,10,9,,,,,,,,,4,3.285496038995916,,,094,001,2019_Sep_02_0912,MusicAffectPsychophysiology2019,3.0.5,60.142527557721195,
To what extent did the music make you feel ,ASHAMED,30MonoWAV/30MonoH1.wav,2,2,1,5,,,,,1,11,27,4,0,11,11,4,,,,,,,,,1,1.3006404830084648,,,094,001,2019_Sep_02_0912,MusicAffectPsychophysiology2019,3.0.5,60.142527557721195,
,,30MonoWAV/30MonoH1.wav,2,2,1,5,,,,,1,11,27,4,,,,,,,,,,,,,,,,,094,001,2019_Sep_02_0912,MusicAffectPsychophysiology2019,3.0.5,60.142527557721195,
To what extent did the music make you feel ,HAPPY,30MonoWAV/30MonoF4.wav,1,2,2,4,,,,,1,12,28,3,0,0,0,6,,,2,2.484033376997104,1,0.9030936780036427,4,1.7524097920104396,1,0.8836641079979017,,,094,001,2019_Sep_02_0912,MusicAffectPsychophysiology2019,3.0.5,60.142527557721195,
To what extent did the music make you feel ,TENDER,30MonoWAV/30MonoF4.wav,1,2,2,4,,,,,1,12,28,3,0,1,1,10,,,,,,,,,1,0.6701672579802107,,,094,001,2019_Sep_02_0912,MusicAffectPsychophysiology2019,3.0.5,60.142527557721195,
To what extent did the music make you feel ,ANGRY,30MonoWAV/30MonoF4.wav,1,2,2,4,,,,,1,12,28,3,0,2,2,2,,,,,,,,,2,1.286542237008689,,,094,001,2019_Sep_02_0912,MusicAffectPsychophysiology2019,3.0.5,60.142527557721195,
To what extent did the music make you feel ,SAD,30MonoWAV/30MonoF4.wav,1,2,2,4,,,,,1,12,28,3,0,3,3,0,,,,,,,,,1,2.0192820919910446,,,094,001,2019_Sep_02_0912,MusicAffectPsychophysiology2019,3.0.5,60.142527557721195,
To what extent did the music make you feel ,GUILTY,30MonoWAV/30MonoF4.wav,1,2,2,4,,,,,1,12,28,3,0,4,4,5,,,,,,,,,3,1.6012794940033928,,,094,001,2019_Sep_02_0912,MusicAffectPsychophysiology2019,3.0.5,60.142527557721195,
To what extent did the music make you feel ,ANXIOUS ,30MonoWAV/30MonoF4.wav,1,2,2,4,,,,,1,12,28,3,0,5,5,1,,,,,,,,,5,1.0866961290012114,,,094,001,2019_Sep_02_0912,MusicAffectPsychophysiology2019,3.0.5,60.142527557721195,
To what extent did the music make you feel ,EXCITED,30MonoWAV/30MonoF4.wav,1,2,2,4,,,,,1,12,28,3,0,6,6,7,,,,,,,,,4,2.066288634989178,,,094,001,2019_Sep_02_0912,MusicAffectPsychophysiology2019,3.0.5,60.142527557721195,
To what extent did the music make you feel ,FRUSTRATED,30MonoWAV/30MonoF4.wav,1,2,2,4,,,,,1,12,28,3,0,7,7,3,,,,,,,,,3,1.2114500119932927,,,094,001,2019_Sep_02_0912,MusicAffectPsychophysiology2019,3.0.5,60.142527557721195,
To what extent did the music make you feel ,ASHAMED,30MonoWAV/30MonoF4.wav,1,2,2,4,,,,,1,12,28,3,0,8,8,4,,,,,,,,,2,0.9692316289874725,,,094,001,2019_Sep_02_0912,MusicAffectPsychophysiology2019,3.0.5,60.142527557721195,
To what extent did the music make you feel ,ACTIVE,30MonoWAV/30MonoF4.wav,1,2,2,4,,,,,1,12,28,3,0,9,9,9,,,,,,,,,5,1.0167769599938765,,,094,001,2019_Sep_02_0912,MusicAffectPsychophysiology2019,3.0.5,60.142527557721195,
To what extent did the music make you feel ,SCARED,30MonoWAV/30MonoF4.wav,1,2,2,4,,,,,1,12,28,3,0,10,10,11,,,,,,,,,4,1.269443606986897,,,094,001,2019_Sep_02_0912,MusicAffectPsychophysiology2019,3.0.5,60.142527557721195,
To what extent did the music make you feel ,ALERT,30MonoWAV/30MonoF4.wav,1,2,2,4,,,,,1,12,28,3,0,11,11,8,,,,,,,,,5,0.9214429610001389,,,094,001,2019_Sep_02_0912,MusicAffectPsychophysiology2019,3.0.5,60.142527557721195,
,,30MonoWAV/30MonoF4.wav,1,2,2,4,,,,,1,12,28,3,,,,,,,,,,,,,,,,,094,001,2019_Sep_02_0912,MusicAffectPsychophysiology2019,3.0.5,60.142527557721195,
To what extent did the music make you feel ,ANXIOUS ,30MonoWAV/30MonoF1.wav,1,2,2,1,,,,,1,13,29,0,0,0,0,1,,,3,3.936592487996677,1,1.0033625869837124,4,1.5362570289871655,5,1.2070109549968038,,,094,001,2019_Sep_02_0912,MusicAffectPsychophysiology2019,3.0.5,60.142527557721195,
To what extent did the music make you feel ,ASHAMED,30MonoWAV/30MonoF1.wav,1,2,2,1,,,,,1,13,29,0,0,1,1,4,,,,,,,,,3,2.001836354000261,,,094,001,2019_Sep_02_0912,MusicAffectPsychophysiology2019,3.0.5,60.142527557721195,
To what extent did the music make you feel ,EXCITED,30MonoWAV/30MonoF1.wav,1,2,2,1,,,,,1,13,29,0,0,2,2,7,,,,,,,,,4,1.1029860170092434,,,094,001,2019_Sep_02_0912,MusicAffectPsychophysiology2019,3.0.5,60.142527557721195,
To what extent did the music make you feel ,ALERT,30MonoWAV/30MonoF1.wav,1,2,2,1,,,,,1,13,29,0,0,3,3,8,,,,,,,,,5,3.1994673399894964,,,094,001,2019_Sep_02_0912,MusicAffectPsychophysiology2019,3.0.5,60.142527557721195,
To what extent did the music make you feel ,TENDER,30MonoWAV/30MonoF1.wav,1,2,2,1,,,,,1,13,29,0,0,4,4,10,,,,,,,,,1,1.1523396219999995,,,094,001,2019_Sep_02_0912,MusicAffectPsychophysiology2019,3.0.5,60.142527557721195,
To what extent did the music make you feel ,GUILTY,30MonoWAV/30MonoF1.wav,1,2,2,1,,,,,1,13,29,0,0,5,5,5,,,,,,,,,4,1.2024176749982871,,,094,001,2019_Sep_02_0912,MusicAffectPsychophysiology2019,3.0.5,60.142527557721195,
To what extent did the music make you feel ,HAPPY,30MonoWAV/30MonoF1.wav,1,2,2,1,,,,,1,13,29,0,0,6,6,6,,,,,,,,,1,0.9686305719951633,,,094,001,2019_Sep_02_0912,MusicAffectPsychophysiology2019,3.0.5,60.142527557721195,
To what extent did the music make you feel ,SCARED,30MonoWAV/30MonoF1.wav,1,2,2,1,,,,,1,13,29,0,0,7,7,11,,,,,,,,,3,1.0696559129864909,,,094,001,2019_Sep_02_0912,MusicAffectPsychophysiology2019,3.0.5,60.142527557721195,
To what extent did the music make you feel ,ACTIVE,30MonoWAV/30MonoF1.wav,1,2,2,1,,,,,1,13,29,0,0,8,8,9,,,,,,,,,4,1.1861077520006802,,,094,001,2019_Sep_02_0912,MusicAffectPsychophysiology2019,3.0.5,60.142527557721195,
To what extent did the music make you feel ,SAD,30MonoWAV/30MonoF1.wav,1,2,2,1,,,,,1,13,29,0,0,9,9,0,,,,,,,,,1,1.5179800589976367,,,094,001,2019_Sep_02_0912,MusicAffectPsychophysiology2019,3.0.5,60.142527557721195,
To what extent did the music make you feel ,FRUSTRATED,30MonoWAV/30MonoF1.wav,1,2,2,1,,,,,1,13,29,0,0,10,10,3,,,,,,,,,3,1.187124959018547,,,094,001,2019_Sep_02_0912,MusicAffectPsychophysiology2019,3.0.5,60.142527557721195,
To what extent did the music make you feel ,ANGRY,30MonoWAV/30MonoF1.wav,1,2,2,1,,,,,1,13,29,0,0,11,11,2,,,,,,,,,4,1.2016431549855042,,,094,001,2019_Sep_02_0912,MusicAffectPsychophysiology2019,3.0.5,60.142527557721195,
,,30MonoWAV/30MonoF1.wav,1,2,2,1,,,,,1,13,29,0,,,,,,,,,,,,,,,,,094,001,2019_Sep_02_0912,MusicAffectPsychophysiology2019,3.0.5,60.142527557721195,
To what extent did the music make you feel ,FRUSTRATED,30MonoWAV/30MonoT2.wav,2,1,4,14,,,,,1,14,30,13,0,0,0,3,,,3,5.71846036799252,4,1.119789969001431,4,1.4864777119946666,1,1.0854304599924944,,,094,001,2019_Sep_02_0912,MusicAffectPsychophysiology2019,3.0.5,60.142527557721195,
To what extent did the music make you feel ,TENDER,30MonoWAV/30MonoT2.wav,2,1,4,14,,,,,1,14,30,13,0,1,1,10,,,,,,,,,5,1.8028519130020868,,,094,001,2019_Sep_02_0912,MusicAffectPsychophysiology2019,3.0.5,60.142527557721195,
To what extent did the music make you feel ,ASHAMED,30MonoWAV/30MonoT2.wav,2,1,4,14,,,,,1,14,30,13,0,2,2,4,,,,,,,,,1,1.1864644999732263,,,094,001,2019_Sep_02_0912,MusicAffectPsychophysiology2019,3.0.5,60.142527557721195,
To what extent did the music make you feel ,EXCITED,30MonoWAV/30MonoT2.wav,2,1,4,14,,,,,1,14,30,13,0,3,3,7,,,,,,,,,2,1.4352949490130413,,,094,001,2019_Sep_02_0912,MusicAffectPsychophysiology2019,3.0.5,60.142527557721195,
To what extent did the music make you feel ,SAD,30MonoWAV/30MonoT2.wav,2,1,4,14,,,,,1,14,30,13,0,4,4,0,,,,,,,,,1,0.9532594199990854,,,094,001,2019_Sep_02_0912,MusicAffectPsychophysiology2019,3.0.5,60.142527557721195,
To what extent did the music make you feel ,GUILTY,30MonoWAV/30MonoT2.wav,2,1,4,14,,,,,1,14,30,13,0,5,5,5,,,,,,,,,1,1.7696715540078003,,,094,001,2019_Sep_02_0912,MusicAffectPsychophysiology2019,3.0.5,60.142527557721195,
To what extent did the music make you feel ,ANGRY,30MonoWAV/30MonoT2.wav,2,1,4,14,,,,,1,14,30,13,0,6,6,2,,,,,,,,,1,0.7025386309833266,,,094,001,2019_Sep_02_0912,MusicAffectPsychophysiology2019,3.0.5,60.142527557721195,
To what extent did the music make you feel ,ALERT,30MonoWAV/30MonoT2.wav,2,1,4,14,,,,,1,14,30,13,0,7,7,8,,,,,,,,,2,1.6365539509861264,,,094,001,2019_Sep_02_0912,MusicAffectPsychophysiology2019,3.0.5,60.142527557721195,
To what extent did the music make you feel ,ANXIOUS ,30MonoWAV/30MonoT2.wav,2,1,4,14,,,,,1,14,30,13,0,8,8,1,,,,,,,,,2,1.3684833250008523,,,094,001,2019_Sep_02_0912,MusicAffectPsychophysiology2019,3.0.5,60.142527557721195,
To what extent did the music make you feel ,ACTIVE,30MonoWAV/30MonoT2.wav,2,1,4,14,,,,,1,14,30,13,0,9,9,9,,,,,,,,,1,1.1025427769927774,,,094,001,2019_Sep_02_0912,MusicAffectPsychophysiology2019,3.0.5,60.142527557721195,
To what extent did the music make you feel ,HAPPY,30MonoWAV/30MonoT2.wav,2,1,4,14,,,,,1,14,30,13,0,10,10,6,,,,,,,,,4,1.2193046699976549,,,094,001,2019_Sep_02_0912,MusicAffectPsychophysiology2019,3.0.5,60.142527557721195,
To what extent did the music make you feel ,SCARED,30MonoWAV/30MonoT2.wav,2,1,4,14,,,,,1,14,30,13,0,11,11,11,,,,,,,,,1,1.3872609369864222,,,094,001,2019_Sep_02_0912,MusicAffectPsychophysiology2019,3.0.5,60.142527557721195,
,,30MonoWAV/30MonoT2.wav,2,1,4,14,,,,,1,14,30,13,,,,,,,,,,,,,,,,,094,001,2019_Sep_02_0912,MusicAffectPsychophysiology2019,3.0.5,60.142527557721195,
To what extent did the music make you feel ,EXCITED,30MonoWAV/30MonoT4.wav,2,1,4,16,,,,,1,15,31,15,0,0,0,7,,,3,3.5531187480082735,4,2.316507327981526,4,2.352159706992097,5,1.326420802011853,,,094,001,2019_Sep_02_0912,MusicAffectPsychophysiology2019,3.0.5,60.142527557721195,
To what extent did the music make you feel ,ANGRY,30MonoWAV/30MonoT4.wav,2,1,4,16,,,,,1,15,31,15,0,1,1,2,,,,,,,,,1,0.9024071939929854,,,094,001,2019_Sep_02_0912,MusicAffectPsychophysiology2019,3.0.5,60.142527557721195,
To what extent did the music make you feel ,ASHAMED,30MonoWAV/30MonoT4.wav,2,1,4,16,,,,,1,15,31,15,0,2,2,4,,,,,,,,,1,0.8517667260020971,,,094,001,2019_Sep_02_0912,MusicAffectPsychophysiology2019,3.0.5,60.142527557721195,
To what extent did the music make you feel ,SCARED,30MonoWAV/30MonoT4.wav,2,1,4,16,,,,,1,15,31,15,0,3,3,11,,,,,,,,,1,0.6191688110120595,,,094,001,2019_Sep_02_0912,MusicAffectPsychophysiology2019,3.0.5,60.142527557721195,
To what extent did the music make you feel ,GUILTY,30MonoWAV/30MonoT4.wav,2,1,4,16,,,,,1,15,31,15,0,4,4,5,,,,,,,,,1,0.5847890749864746,,,094,001,2019_Sep_02_0912,MusicAffectPsychophysiology2019,3.0.5,60.142527557721195,
To what extent did the music make you feel ,ANXIOUS ,30MonoWAV/30MonoT4.wav,2,1,4,16,,,,,1,15,31,15,0,5,5,1,,,,,,,,,1,0.6195141130010597,,,094,001,2019_Sep_02_0912,MusicAffectPsychophysiology2019,3.0.5,60.142527557721195,
To what extent did the music make you feel ,ALERT,30MonoWAV/30MonoT4.wav,2,1,4,16,,,,,1,15,31,15,0,6,6,8,,,,,,,,,4,1.6532137499889359,,,094,001,2019_Sep_02_0912,MusicAffectPsychophysiology2019,3.0.5,60.142527557721195,
To what extent did the music make you feel ,HAPPY,30MonoWAV/30MonoT4.wav,2,1,4,16,,,,,1,15,31,15,0,7,7,6,,,,,,,,,4,1.3850173800019547,,,094,001,2019_Sep_02_0912,MusicAffectPsychophysiology2019,3.0.5,60.142527557721195,
To what extent did the music make you feel ,SAD,30MonoWAV/30MonoT4.wav,2,1,4,16,,,,,1,15,31,15,0,8,8,0,,,,,,,,,1,0.8359302479948383,,,094,001,2019_Sep_02_0912,MusicAffectPsychophysiology2019,3.0.5,60.142527557721195,
To what extent did the music make you feel ,FRUSTRATED,30MonoWAV/30MonoT4.wav,2,1,4,16,,,,,1,15,31,15,0,9,9,3,,,,,,,,,1,0.6015123400138691,,,094,001,2019_Sep_02_0912,MusicAffectPsychophysiology2019,3.0.5,60.142527557721195,
To what extent did the music make you feel ,TENDER,30MonoWAV/30MonoT4.wav,2,1,4,16,,,,,1,15,31,15,0,10,10,10,,,,,,,,,5,1.4526948939892463,,,094,001,2019_Sep_02_0912,MusicAffectPsychophysiology2019,3.0.5,60.142527557721195,
To what extent did the music make you feel ,ACTIVE,30MonoWAV/30MonoT4.wav,2,1,4,16,,,,,1,15,31,15,0,11,11,9,,,,,,,,,2,1.602247891976731,,,094,001,2019_Sep_02_0912,MusicAffectPsychophysiology2019,3.0.5,60.142527557721195,
,,30MonoWAV/30MonoT4.wav,2,1,4,16,,,,,1,15,31,15,,,,,,,,,,,,,,,,,094,001,2019_Sep_02_0912,MusicAffectPsychophysiology2019,3.0.5,60.142527557721195,
,,,,,,,,,,,,,,,,,,,,,,,,,,,,,space,4.838194221985759,094,001,2019_Sep_02_0912,MusicAffectPsychophysiology2019,3.0.5,60.142527557721195,
