Instruction,Word,song,valence,arousal,affectcat,songmark,pracwords.thisRepN,pracwords.thisTrialN,pracwords.thisN,pracwords.thisIndex,songtrials.thisRepN,songtrials.thisTrialN,songtrials.thisN,songtrials.thisIndex,words.thisRepN,words.thisTrialN,words.thisN,words.thisIndex,begin.keys,begin.rt,arousalkey.keys,arousalkey.rt,valencekey.keys,valencekey.rt,likekey.keys,likekey.rt,WordResponse.keys,WordResponse.rt,participant,session,date,expName,psychopyVersion,frameRate,
,,,,,,,,,,,,,,,,,,,space,15.220340756990481,,,,,,,,,095,001,2019_Sep_02_1006,MusicAffectPsychophysiology2019,3.0.5,59.927474928082994,
,,,,,,,,,,,,,,,,,,,,,3,4.849974367010873,,,,,,,095,001,2019_Sep_02_1006,MusicAffectPsychophysiology2019,3.0.5,59.927474928082994,
,,,,,,,,,,,,,,,,,,,,,,,4,4.304072658997029,,,,,095,001,2019_Sep_02_1006,MusicAffectPsychophysiology2019,3.0.5,59.927474928082994,
,,,,,,,,,,,,,,,,,,,,,,,,,3,3.0521355620003305,,,095,001,2019_Sep_02_1006,MusicAffectPsychophysiology2019,3.0.5,59.927474928082994,
To what extent did the music make you feel ,ACTIVE,,,,,,0,0,0,9,,,,,,,,,,,,,,,,,2,5.569374427985167,095,001,2019_Sep_02_1006,MusicAffectPsychophysiology2019,3.0.5,59.927474928082994,
To what extent did the music make you feel ,TENDER,,,,,,0,1,1,10,,,,,,,,,,,,,,,,,2,2.391228438995313,095,001,2019_Sep_02_1006,MusicAffectPsychophysiology2019,3.0.5,59.927474928082994,
To what extent did the music make you feel ,SAD,,,,,,0,2,2,0,,,,,,,,,,,,,,,,,1,1.8363112859951798,095,001,2019_Sep_02_1006,MusicAffectPsychophysiology2019,3.0.5,59.927474928082994,
To what extent did the music make you feel ,ALERT,,,,,,0,3,3,8,,,,,,,,,,,,,,,,,1,2.0021924329921603,095,001,2019_Sep_02_1006,MusicAffectPsychophysiology2019,3.0.5,59.927474928082994,
To what extent did the music make you feel ,EXCITED,,,,,,0,4,4,7,,,,,,,,,,,,,,,,,2,1.7568099469935987,095,001,2019_Sep_02_1006,MusicAffectPsychophysiology2019,3.0.5,59.927474928082994,
To what extent did the music make you feel ,HAPPY,,,,,,0,5,5,6,,,,,,,,,,,,,,,,,4,2.3526993219857104,095,001,2019_Sep_02_1006,MusicAffectPsychophysiology2019,3.0.5,59.927474928082994,
To what extent did the music make you feel ,GUILTY,,,,,,0,6,6,5,,,,,,,,,,,,,,,,,1,1.8172537469945382,095,001,2019_Sep_02_1006,MusicAffectPsychophysiology2019,3.0.5,59.927474928082994,
To what extent did the music make you feel ,ANGRY,,,,,,0,7,7,2,,,,,,,,,,,,,,,,,1,1.503126286988845,095,001,2019_Sep_02_1006,MusicAffectPsychophysiology2019,3.0.5,59.927474928082994,
To what extent did the music make you feel ,ASHAMED,,,,,,0,8,8,4,,,,,,,,,,,,,,,,,1,0.6692880339978728,095,001,2019_Sep_02_1006,MusicAffectPsychophysiology2019,3.0.5,59.927474928082994,
To what extent did the music make you feel ,FRUSTRATED,,,,,,0,9,9,3,,,,,,,,,,,,,,,,,1,0.8914965449948795,095,001,2019_Sep_02_1006,MusicAffectPsychophysiology2019,3.0.5,59.927474928082994,
To what extent did the music make you feel ,ANXIOUS ,,,,,,0,10,10,1,,,,,,,,,,,,,,,,,1,2.2742563910142053,095,001,2019_Sep_02_1006,MusicAffectPsychophysiology2019,3.0.5,59.927474928082994,
To what extent did the music make you feel ,SCARED,,,,,,0,11,11,11,,,,,,,,,,,,,,,,,1,0.9568027789937332,095,001,2019_Sep_02_1006,MusicAffectPsychophysiology2019,3.0.5,59.927474928082994,
To what extent did the music make you feel ,EXCITED,30MonoWAV/30MonoF3.wav,1,2,2,3,,,,,0,0,0,2,0,0,0,7,,,3,3.767095827002777,2,4.368829378014198,1,5.13473036600044,2,3.035900260001654,095,001,2019_Sep_02_1006,MusicAffectPsychophysiology2019,3.0.5,59.927474928082994,
To what extent did the music make you feel ,ANGRY,30MonoWAV/30MonoF3.wav,1,2,2,3,,,,,0,0,0,2,0,1,1,2,,,,,,,,,1,2.10154816499562,095,001,2019_Sep_02_1006,MusicAffectPsychophysiology2019,3.0.5,59.927474928082994,
To what extent did the music make you feel ,TENDER,30MonoWAV/30MonoF3.wav,1,2,2,3,,,,,0,0,0,2,0,2,2,10,,,,,,,,,1,1.386184199975105,095,001,2019_Sep_02_1006,MusicAffectPsychophysiology2019,3.0.5,59.927474928082994,
To what extent did the music make you feel ,ANXIOUS ,30MonoWAV/30MonoF3.wav,1,2,2,3,,,,,0,0,0,2,0,3,3,1,,,,,,,,,3,2.319728178990772,095,001,2019_Sep_02_1006,MusicAffectPsychophysiology2019,3.0.5,59.927474928082994,
To what extent did the music make you feel ,ALERT,30MonoWAV/30MonoF3.wav,1,2,2,3,,,,,0,0,0,2,0,4,4,8,,,,,,,,,3,1.5676476819789968,095,001,2019_Sep_02_1006,MusicAffectPsychophysiology2019,3.0.5,59.927474928082994,
To what extent did the music make you feel ,SAD,30MonoWAV/30MonoF3.wav,1,2,2,3,,,,,0,0,0,2,0,5,5,0,,,,,,,,,1,1.5698063609888777,095,001,2019_Sep_02_1006,MusicAffectPsychophysiology2019,3.0.5,59.927474928082994,
To what extent did the music make you feel ,SCARED,30MonoWAV/30MonoF3.wav,1,2,2,3,,,,,0,0,0,2,0,6,6,11,,,,,,,,,1,1.7701899679959752,095,001,2019_Sep_02_1006,MusicAffectPsychophysiology2019,3.0.5,59.927474928082994,
To what extent did the music make you feel ,FRUSTRATED,30MonoWAV/30MonoF3.wav,1,2,2,3,,,,,0,0,0,2,0,7,7,3,,,,,,,,,1,0.8529886939795688,095,001,2019_Sep_02_1006,MusicAffectPsychophysiology2019,3.0.5,59.927474928082994,
To what extent did the music make you feel ,ACTIVE,30MonoWAV/30MonoF3.wav,1,2,2,3,,,,,0,0,0,2,0,8,8,9,,,,,,,,,1,2.652674078999553,095,001,2019_Sep_02_1006,MusicAffectPsychophysiology2019,3.0.5,59.927474928082994,
To what extent did the music make you feel ,ASHAMED,30MonoWAV/30MonoF3.wav,1,2,2,3,,,,,0,0,0,2,0,9,9,4,,,,,,,,,1,4.335391622997122,095,001,2019_Sep_02_1006,MusicAffectPsychophysiology2019,3.0.5,59.927474928082994,
To what extent did the music make you feel ,GUILTY,30MonoWAV/30MonoF3.wav,1,2,2,3,,,,,0,0,0,2,0,10,10,5,,,,,,,,,1,1.1532322470156942,095,001,2019_Sep_02_1006,MusicAffectPsychophysiology2019,3.0.5,59.927474928082994,
To what extent did the music make you feel ,HAPPY,30MonoWAV/30MonoF3.wav,1,2,2,3,,,,,0,0,0,2,0,11,11,6,,,,,,,,,1,1.000330391980242,095,001,2019_Sep_02_1006,MusicAffectPsychophysiology2019,3.0.5,59.927474928082994,
,,30MonoWAV/30MonoF3.wav,1,2,2,3,,,,,0,0,0,2,,,,,,,,,,,,,,,095,001,2019_Sep_02_1006,MusicAffectPsychophysiology2019,3.0.5,59.927474928082994,
To what extent did the music make you feel ,ANXIOUS ,30MonoWAV/30MonoS1.wav,1,1,3,9,,,,,0,1,1,8,0,0,0,1,,,2,3.186503842996899,3,2.9947186849894933,3,4.95211852400098,1,2.410013041982893,095,001,2019_Sep_02_1006,MusicAffectPsychophysiology2019,3.0.5,59.927474928082994,
To what extent did the music make you feel ,HAPPY,30MonoWAV/30MonoS1.wav,1,1,3,9,,,,,0,1,1,8,0,1,1,6,,,,,,,,,3,3.4188877870037686,095,001,2019_Sep_02_1006,MusicAffectPsychophysiology2019,3.0.5,59.927474928082994,
To what extent did the music make you feel ,ACTIVE,30MonoWAV/30MonoS1.wav,1,1,3,9,,,,,0,1,1,8,0,2,2,9,,,,,,,,,1,1.3359511799935717,095,001,2019_Sep_02_1006,MusicAffectPsychophysiology2019,3.0.5,59.927474928082994,
To what extent did the music make you feel ,GUILTY,30MonoWAV/30MonoS1.wav,1,1,3,9,,,,,0,1,1,8,0,3,3,5,,,,,,,,,1,1.7045426969998516,095,001,2019_Sep_02_1006,MusicAffectPsychophysiology2019,3.0.5,59.927474928082994,
To what extent did the music make you feel ,ANGRY,30MonoWAV/30MonoS1.wav,1,1,3,9,,,,,0,1,1,8,0,4,4,2,,,,,,,,,1,0.6703567419899628,095,001,2019_Sep_02_1006,MusicAffectPsychophysiology2019,3.0.5,59.927474928082994,
To what extent did the music make you feel ,ASHAMED,30MonoWAV/30MonoS1.wav,1,1,3,9,,,,,0,1,1,8,0,5,5,4,,,,,,,,,1,1.3525125040032435,095,001,2019_Sep_02_1006,MusicAffectPsychophysiology2019,3.0.5,59.927474928082994,
To what extent did the music make you feel ,SCARED,30MonoWAV/30MonoS1.wav,1,1,3,9,,,,,0,1,1,8,0,6,6,11,,,,,,,,,1,1.385618442989653,095,001,2019_Sep_02_1006,MusicAffectPsychophysiology2019,3.0.5,59.927474928082994,
To what extent did the music make you feel ,EXCITED,30MonoWAV/30MonoS1.wav,1,1,3,9,,,,,0,1,1,8,0,7,7,7,,,,,,,,,1,2.202171807992272,095,001,2019_Sep_02_1006,MusicAffectPsychophysiology2019,3.0.5,59.927474928082994,
To what extent did the music make you feel ,TENDER,30MonoWAV/30MonoS1.wav,1,1,3,9,,,,,0,1,1,8,0,8,8,10,,,,,,,,,4,2.085333241993794,095,001,2019_Sep_02_1006,MusicAffectPsychophysiology2019,3.0.5,59.927474928082994,
To what extent did the music make you feel ,FRUSTRATED,30MonoWAV/30MonoS1.wav,1,1,3,9,,,,,0,1,1,8,0,9,9,3,,,,,,,,,1,1.0583561399835162,095,001,2019_Sep_02_1006,MusicAffectPsychophysiology2019,3.0.5,59.927474928082994,
To what extent did the music make you feel ,SAD,30MonoWAV/30MonoS1.wav,1,1,3,9,,,,,0,1,1,8,0,10,10,0,,,,,,,,,2,1.5829706139920745,095,001,2019_Sep_02_1006,MusicAffectPsychophysiology2019,3.0.5,59.927474928082994,
To what extent did the music make you feel ,ALERT,30MonoWAV/30MonoS1.wav,1,1,3,9,,,,,0,1,1,8,0,11,11,8,,,,,,,,,1,0.8178924050007481,095,001,2019_Sep_02_1006,MusicAffectPsychophysiology2019,3.0.5,59.927474928082994,
,,30MonoWAV/30MonoS1.wav,1,1,3,9,,,,,0,1,1,8,,,,,,,,,,,,,,,095,001,2019_Sep_02_1006,MusicAffectPsychophysiology2019,3.0.5,59.927474928082994,
To what extent did the music make you feel ,ANXIOUS ,30MonoWAV/30MonoH4.wav,2,2,1,8,,,,,0,2,2,7,0,0,0,1,,,4,2.9531362389971036,4,2.6833389770181384,3,5.251398232008796,1,2.486181629996281,095,001,2019_Sep_02_1006,MusicAffectPsychophysiology2019,3.0.5,59.927474928082994,
To what extent did the music make you feel ,EXCITED,30MonoWAV/30MonoH4.wav,2,2,1,8,,,,,0,2,2,7,0,1,1,7,,,,,,,,,4,1.6855393559962977,095,001,2019_Sep_02_1006,MusicAffectPsychophysiology2019,3.0.5,59.927474928082994,
To what extent did the music make you feel ,TENDER,30MonoWAV/30MonoH4.wav,2,2,1,8,,,,,0,2,2,7,0,2,2,10,,,,,,,,,1,0.93510427698493,095,001,2019_Sep_02_1006,MusicAffectPsychophysiology2019,3.0.5,59.927474928082994,
To what extent did the music make you feel ,ALERT,30MonoWAV/30MonoH4.wav,2,2,1,8,,,,,0,2,2,7,0,3,3,8,,,,,,,,,2,2.5667447969899513,095,001,2019_Sep_02_1006,MusicAffectPsychophysiology2019,3.0.5,59.927474928082994,
To what extent did the music make you feel ,ACTIVE,30MonoWAV/30MonoH4.wav,2,2,1,8,,,,,0,2,2,7,0,4,4,9,,,,,,,,,4,2.252242614980787,095,001,2019_Sep_02_1006,MusicAffectPsychophysiology2019,3.0.5,59.927474928082994,
To what extent did the music make you feel ,SAD,30MonoWAV/30MonoH4.wav,2,2,1,8,,,,,0,2,2,7,0,5,5,0,,,,,,,,,1,1.4030013099836651,095,001,2019_Sep_02_1006,MusicAffectPsychophysiology2019,3.0.5,59.927474928082994,
To what extent did the music make you feel ,FRUSTRATED,30MonoWAV/30MonoH4.wav,2,2,1,8,,,,,0,2,2,7,0,6,6,3,,,,,,,,,1,0.6190329800010659,095,001,2019_Sep_02_1006,MusicAffectPsychophysiology2019,3.0.5,59.927474928082994,
To what extent did the music make you feel ,ANGRY,30MonoWAV/30MonoH4.wav,2,2,1,8,,,,,0,2,2,7,0,7,7,2,,,,,,,,,1,0.8354137639980763,095,001,2019_Sep_02_1006,MusicAffectPsychophysiology2019,3.0.5,59.927474928082994,
To what extent did the music make you feel ,SCARED,30MonoWAV/30MonoH4.wav,2,2,1,8,,,,,0,2,2,7,0,8,8,11,,,,,,,,,1,0.7704231039970182,095,001,2019_Sep_02_1006,MusicAffectPsychophysiology2019,3.0.5,59.927474928082994,
To what extent did the music make you feel ,ASHAMED,30MonoWAV/30MonoH4.wav,2,2,1,8,,,,,0,2,2,7,0,9,9,4,,,,,,,,,1,0.685429806006141,095,001,2019_Sep_02_1006,MusicAffectPsychophysiology2019,3.0.5,59.927474928082994,
To what extent did the music make you feel ,GUILTY,30MonoWAV/30MonoH4.wav,2,2,1,8,,,,,0,2,2,7,0,10,10,5,,,,,,,,,1,0.9193096469971351,095,001,2019_Sep_02_1006,MusicAffectPsychophysiology2019,3.0.5,59.927474928082994,
To what extent did the music make you feel ,HAPPY,30MonoWAV/30MonoH4.wav,2,2,1,8,,,,,0,2,2,7,0,11,11,6,,,,,,,,,5,3.938321302004624,095,001,2019_Sep_02_1006,MusicAffectPsychophysiology2019,3.0.5,59.927474928082994,
,,30MonoWAV/30MonoH4.wav,2,2,1,8,,,,,0,2,2,7,,,,,,,,,,,,,,,095,001,2019_Sep_02_1006,MusicAffectPsychophysiology2019,3.0.5,59.927474928082994,
To what extent did the music make you feel ,ANGRY,30MonoWAV/30MonoF4.wav,1,2,2,4,,,,,0,3,3,3,0,0,0,2,,,1,3.586055212013889,1,1.5518922180053778,1,3.035573070985265,3,3.144266877003247,095,001,2019_Sep_02_1006,MusicAffectPsychophysiology2019,3.0.5,59.927474928082994,
To what extent did the music make you feel ,SAD,30MonoWAV/30MonoF4.wav,1,2,2,4,,,,,0,3,3,3,0,1,1,0,,,,,,,,,3,2.0357401320070494,095,001,2019_Sep_02_1006,MusicAffectPsychophysiology2019,3.0.5,59.927474928082994,
To what extent did the music make you feel ,ANXIOUS ,30MonoWAV/30MonoF4.wav,1,2,2,4,,,,,0,3,3,3,0,2,2,1,,,,,,,,,4,1.9333080340002198,095,001,2019_Sep_02_1006,MusicAffectPsychophysiology2019,3.0.5,59.927474928082994,
To what extent did the music make you feel ,GUILTY,30MonoWAV/30MonoF4.wav,1,2,2,4,,,,,0,3,3,3,0,3,3,5,,,,,,,,,1,1.416382210998563,095,001,2019_Sep_02_1006,MusicAffectPsychophysiology2019,3.0.5,59.927474928082994,
To what extent did the music make you feel ,SCARED,30MonoWAV/30MonoF4.wav,1,2,2,4,,,,,0,3,3,3,0,4,4,11,,,,,,,,,3,2.0696336980035994,095,001,2019_Sep_02_1006,MusicAffectPsychophysiology2019,3.0.5,59.927474928082994,
To what extent did the music make you feel ,HAPPY,30MonoWAV/30MonoF4.wav,1,2,2,4,,,,,0,3,3,3,0,5,5,6,,,,,,,,,1,1.3347113839990925,095,001,2019_Sep_02_1006,MusicAffectPsychophysiology2019,3.0.5,59.927474928082994,
To what extent did the music make you feel ,ASHAMED,30MonoWAV/30MonoF4.wav,1,2,2,4,,,,,0,3,3,3,0,6,6,4,,,,,,,,,1,1.2356899319856893,095,001,2019_Sep_02_1006,MusicAffectPsychophysiology2019,3.0.5,59.927474928082994,
To what extent did the music make you feel ,TENDER,30MonoWAV/30MonoF4.wav,1,2,2,4,,,,,0,3,3,3,0,7,7,10,,,,,,,,,1,0.7428667490021326,095,001,2019_Sep_02_1006,MusicAffectPsychophysiology2019,3.0.5,59.927474928082994,
To what extent did the music make you feel ,ALERT,30MonoWAV/30MonoF4.wav,1,2,2,4,,,,,0,3,3,3,0,8,8,8,,,,,,,,,2,1.2529597999819089,095,001,2019_Sep_02_1006,MusicAffectPsychophysiology2019,3.0.5,59.927474928082994,
To what extent did the music make you feel ,FRUSTRATED,30MonoWAV/30MonoF4.wav,1,2,2,4,,,,,0,3,3,3,0,9,9,3,,,,,,,,,1,1.9074399639794137,095,001,2019_Sep_02_1006,MusicAffectPsychophysiology2019,3.0.5,59.927474928082994,
To what extent did the music make you feel ,EXCITED,30MonoWAV/30MonoF4.wav,1,2,2,4,,,,,0,3,3,3,0,10,10,7,,,,,,,,,1,1.1190196870011277,095,001,2019_Sep_02_1006,MusicAffectPsychophysiology2019,3.0.5,59.927474928082994,
To what extent did the music make you feel ,ACTIVE,30MonoWAV/30MonoF4.wav,1,2,2,4,,,,,0,3,3,3,0,11,11,9,,,,,,,,,3,3.31904519800446,095,001,2019_Sep_02_1006,MusicAffectPsychophysiology2019,3.0.5,59.927474928082994,
,,30MonoWAV/30MonoF4.wav,1,2,2,4,,,,,0,3,3,3,,,,,,,,,,,,,,,095,001,2019_Sep_02_1006,MusicAffectPsychophysiology2019,3.0.5,59.927474928082994,
To what extent did the music make you feel ,TENDER,30MonoWAV/30MonoH2.wav,2,2,1,6,,,,,0,4,4,5,0,0,0,10,,,2,11.687793215009151,3,5.351730540016433,2,2.1029127509973478,1,2.701271469995845,095,001,2019_Sep_02_1006,MusicAffectPsychophysiology2019,3.0.5,59.927474928082994,
To what extent did the music make you feel ,ANGRY,30MonoWAV/30MonoH2.wav,2,2,1,6,,,,,0,4,4,5,0,1,1,2,,,,,,,,,1,0.6033571450097952,095,001,2019_Sep_02_1006,MusicAffectPsychophysiology2019,3.0.5,59.927474928082994,
To what extent did the music make you feel ,FRUSTRATED,30MonoWAV/30MonoH2.wav,2,2,1,6,,,,,0,4,4,5,0,2,2,3,,,,,,,,,1,0.7030751740094274,095,001,2019_Sep_02_1006,MusicAffectPsychophysiology2019,3.0.5,59.927474928082994,
To what extent did the music make you feel ,SCARED,30MonoWAV/30MonoH2.wav,2,2,1,6,,,,,0,4,4,5,0,3,3,11,,,,,,,,,1,0.7190217399911489,095,001,2019_Sep_02_1006,MusicAffectPsychophysiology2019,3.0.5,59.927474928082994,
To what extent did the music make you feel ,GUILTY,30MonoWAV/30MonoH2.wav,2,2,1,6,,,,,0,4,4,5,0,4,4,5,,,,,,,,,1,0.5189278489851858,095,001,2019_Sep_02_1006,MusicAffectPsychophysiology2019,3.0.5,59.927474928082994,
To what extent did the music make you feel ,ACTIVE,30MonoWAV/30MonoH2.wav,2,2,1,6,,,,,0,4,4,5,0,5,5,9,,,,,,,,,2,1.933473914017668,095,001,2019_Sep_02_1006,MusicAffectPsychophysiology2019,3.0.5,59.927474928082994,
To what extent did the music make you feel ,ASHAMED,30MonoWAV/30MonoH2.wav,2,2,1,6,,,,,0,4,4,5,0,6,6,4,,,,,,,,,1,2.1523258430243004,095,001,2019_Sep_02_1006,MusicAffectPsychophysiology2019,3.0.5,59.927474928082994,
To what extent did the music make you feel ,EXCITED,30MonoWAV/30MonoH2.wav,2,2,1,6,,,,,0,4,4,5,0,7,7,7,,,,,,,,,2,1.9021161340060644,095,001,2019_Sep_02_1006,MusicAffectPsychophysiology2019,3.0.5,59.927474928082994,
To what extent did the music make you feel ,ANXIOUS ,30MonoWAV/30MonoH2.wav,2,2,1,6,,,,,0,4,4,5,0,8,8,1,,,,,,,,,1,4.835412471002201,095,001,2019_Sep_02_1006,MusicAffectPsychophysiology2019,3.0.5,59.927474928082994,
To what extent did the music make you feel ,SAD,30MonoWAV/30MonoH2.wav,2,2,1,6,,,,,0,4,4,5,0,9,9,0,,,,,,,,,1,2.6696551670029294,095,001,2019_Sep_02_1006,MusicAffectPsychophysiology2019,3.0.5,59.927474928082994,
To what extent did the music make you feel ,HAPPY,30MonoWAV/30MonoH2.wav,2,2,1,6,,,,,0,4,4,5,0,10,10,6,,,,,,,,,3,3.201810752012534,095,001,2019_Sep_02_1006,MusicAffectPsychophysiology2019,3.0.5,59.927474928082994,
To what extent did the music make you feel ,ALERT,30MonoWAV/30MonoH2.wav,2,2,1,6,,,,,0,4,4,5,0,11,11,8,,,,,,,,,2,2.400782637007069,095,001,2019_Sep_02_1006,MusicAffectPsychophysiology2019,3.0.5,59.927474928082994,
,,30MonoWAV/30MonoH2.wav,2,2,1,6,,,,,0,4,4,5,,,,,,,,,,,,,,,095,001,2019_Sep_02_1006,MusicAffectPsychophysiology2019,3.0.5,59.927474928082994,
To what extent did the music make you feel ,GUILTY,30MonoWAV/30MonoF2.wav,1,2,2,2,,,,,0,5,5,1,0,0,0,5,,,1,4.851966761983931,1,5.334823465003865,1,1.518516329000704,1,1.8945576119876932,095,001,2019_Sep_02_1006,MusicAffectPsychophysiology2019,3.0.5,59.927474928082994,
To what extent did the music make you feel ,ALERT,30MonoWAV/30MonoF2.wav,1,2,2,2,,,,,0,5,5,1,0,1,1,8,,,,,,,,,3,1.6269198980007786,095,001,2019_Sep_02_1006,MusicAffectPsychophysiology2019,3.0.5,59.927474928082994,
To what extent did the music make you feel ,SCARED,30MonoWAV/30MonoF2.wav,1,2,2,2,,,,,0,5,5,1,0,2,2,11,,,,,,,,,2,1.5186685869994108,095,001,2019_Sep_02_1006,MusicAffectPsychophysiology2019,3.0.5,59.927474928082994,
To what extent did the music make you feel ,ACTIVE,30MonoWAV/30MonoF2.wav,1,2,2,2,,,,,0,5,5,1,0,3,3,9,,,,,,,,,2,1.4576743969810195,095,001,2019_Sep_02_1006,MusicAffectPsychophysiology2019,3.0.5,59.927474928082994,
To what extent did the music make you feel ,ANGRY,30MonoWAV/30MonoF2.wav,1,2,2,2,,,,,0,5,5,1,0,4,4,2,,,,,,,,,1,1.3365307140047662,095,001,2019_Sep_02_1006,MusicAffectPsychophysiology2019,3.0.5,59.927474928082994,
To what extent did the music make you feel ,EXCITED,30MonoWAV/30MonoF2.wav,1,2,2,2,,,,,0,5,5,1,0,5,5,7,,,,,,,,,1,1.033423855988076,095,001,2019_Sep_02_1006,MusicAffectPsychophysiology2019,3.0.5,59.927474928082994,
To what extent did the music make you feel ,HAPPY,30MonoWAV/30MonoF2.wav,1,2,2,2,,,,,0,5,5,1,0,6,6,6,,,,,,,,,1,0.5034512359998189,095,001,2019_Sep_02_1006,MusicAffectPsychophysiology2019,3.0.5,59.927474928082994,
To what extent did the music make you feel ,ANXIOUS ,30MonoWAV/30MonoF2.wav,1,2,2,2,,,,,0,5,5,1,0,7,7,1,,,,,,,,,3,1.5528944580000825,095,001,2019_Sep_02_1006,MusicAffectPsychophysiology2019,3.0.5,59.927474928082994,
To what extent did the music make you feel ,SAD,30MonoWAV/30MonoF2.wav,1,2,2,2,,,,,0,5,5,1,0,8,8,0,,,,,,,,,1,0.9861020969983656,095,001,2019_Sep_02_1006,MusicAffectPsychophysiology2019,3.0.5,59.927474928082994,
To what extent did the music make you feel ,TENDER,30MonoWAV/30MonoF2.wav,1,2,2,2,,,,,0,5,5,1,0,9,9,10,,,,,,,,,1,0.8713609040132724,095,001,2019_Sep_02_1006,MusicAffectPsychophysiology2019,3.0.5,59.927474928082994,
To what extent did the music make you feel ,ASHAMED,30MonoWAV/30MonoF2.wav,1,2,2,2,,,,,0,5,5,1,0,10,10,4,,,,,,,,,1,0.6510413509968203,095,001,2019_Sep_02_1006,MusicAffectPsychophysiology2019,3.0.5,59.927474928082994,
To what extent did the music make you feel ,FRUSTRATED,30MonoWAV/30MonoF2.wav,1,2,2,2,,,,,0,5,5,1,0,11,11,3,,,,,,,,,1,0.853478050994454,095,001,2019_Sep_02_1006,MusicAffectPsychophysiology2019,3.0.5,59.927474928082994,
,,30MonoWAV/30MonoF2.wav,1,2,2,2,,,,,0,5,5,1,,,,,,,,,,,,,,,095,001,2019_Sep_02_1006,MusicAffectPsychophysiology2019,3.0.5,59.927474928082994,
To what extent did the music make you feel ,SCARED,30MonoWAV/30MonoS4.wav,1,1,3,12,,,,,0,6,6,11,0,0,0,11,,,1,3.4687803990091197,1,2.7345943130203523,3,2.1361310580105055,1,2.5531653730140533,095,001,2019_Sep_02_1006,MusicAffectPsychophysiology2019,3.0.5,59.927474928082994,
To what extent did the music make you feel ,TENDER,30MonoWAV/30MonoS4.wav,1,1,3,12,,,,,0,6,6,11,0,1,1,10,,,,,,,,,3,1.6189803080051206,095,001,2019_Sep_02_1006,MusicAffectPsychophysiology2019,3.0.5,59.927474928082994,
To what extent did the music make you feel ,ANXIOUS ,30MonoWAV/30MonoS4.wav,1,1,3,12,,,,,0,6,6,11,0,2,2,1,,,,,,,,,1,1.0519520720117725,095,001,2019_Sep_02_1006,MusicAffectPsychophysiology2019,3.0.5,59.927474928082994,
To what extent did the music make you feel ,HAPPY,30MonoWAV/30MonoS4.wav,1,1,3,12,,,,,0,6,6,11,0,3,3,6,,,,,,,,,1,1.1853606239892542,095,001,2019_Sep_02_1006,MusicAffectPsychophysiology2019,3.0.5,59.927474928082994,
To what extent did the music make you feel ,ACTIVE,30MonoWAV/30MonoS4.wav,1,1,3,12,,,,,0,6,6,11,0,4,4,9,,,,,,,,,1,4.151971807004884,095,001,2019_Sep_02_1006,MusicAffectPsychophysiology2019,3.0.5,59.927474928082994,
To what extent did the music make you feel ,GUILTY,30MonoWAV/30MonoS4.wav,1,1,3,12,,,,,0,6,6,11,0,5,5,5,,,,,,,,,1,0.7193851319898386,095,001,2019_Sep_02_1006,MusicAffectPsychophysiology2019,3.0.5,59.927474928082994,
To what extent did the music make you feel ,EXCITED,30MonoWAV/30MonoS4.wav,1,1,3,12,,,,,0,6,6,11,0,6,6,7,,,,,,,,,1,1.8194906559947412,095,001,2019_Sep_02_1006,MusicAffectPsychophysiology2019,3.0.5,59.927474928082994,
To what extent did the music make you feel ,ALERT,30MonoWAV/30MonoS4.wav,1,1,3,12,,,,,0,6,6,11,0,7,7,8,,,,,,,,,2,1.5040796720131766,095,001,2019_Sep_02_1006,MusicAffectPsychophysiology2019,3.0.5,59.927474928082994,
To what extent did the music make you feel ,FRUSTRATED,30MonoWAV/30MonoS4.wav,1,1,3,12,,,,,0,6,6,11,0,8,8,3,,,,,,,,,1,1.4029330769844819,095,001,2019_Sep_02_1006,MusicAffectPsychophysiology2019,3.0.5,59.927474928082994,
To what extent did the music make you feel ,ASHAMED,30MonoWAV/30MonoS4.wav,1,1,3,12,,,,,0,6,6,11,0,9,9,4,,,,,,,,,1,1.1517385600018315,095,001,2019_Sep_02_1006,MusicAffectPsychophysiology2019,3.0.5,59.927474928082994,
To what extent did the music make you feel ,ANGRY,30MonoWAV/30MonoS4.wav,1,1,3,12,,,,,0,6,6,11,0,10,10,2,,,,,,,,,1,1.350412783009233,095,001,2019_Sep_02_1006,MusicAffectPsychophysiology2019,3.0.5,59.927474928082994,
To what extent did the music make you feel ,SAD,30MonoWAV/30MonoS4.wav,1,1,3,12,,,,,0,6,6,11,0,11,11,0,,,,,,,,,4,1.8870665800059214,095,001,2019_Sep_02_1006,MusicAffectPsychophysiology2019,3.0.5,59.927474928082994,
,,30MonoWAV/30MonoS4.wav,1,1,3,12,,,,,0,6,6,11,,,,,,,,,,,,,,,095,001,2019_Sep_02_1006,MusicAffectPsychophysiology2019,3.0.5,59.927474928082994,
To what extent did the music make you feel ,EXCITED,30MonoWAV/30MonoT4.wav,2,1,4,16,,,,,0,7,7,15,0,0,0,7,,,3,3.2046942519955337,4,2.0032708380022086,3,1.5372351089899894,2,2.3672016310156323,095,001,2019_Sep_02_1006,MusicAffectPsychophysiology2019,3.0.5,59.927474928082994,
To what extent did the music make you feel ,ANGRY,30MonoWAV/30MonoT4.wav,2,1,4,16,,,,,0,7,7,15,0,1,1,2,,,,,,,,,1,1.4336803939950187,095,001,2019_Sep_02_1006,MusicAffectPsychophysiology2019,3.0.5,59.927474928082994,
To what extent did the music make you feel ,ASHAMED,30MonoWAV/30MonoT4.wav,2,1,4,16,,,,,0,7,7,15,0,2,2,4,,,,,,,,,1,0.6191715190070681,095,001,2019_Sep_02_1006,MusicAffectPsychophysiology2019,3.0.5,59.927474928082994,
To what extent did the music make you feel ,GUILTY,30MonoWAV/30MonoT4.wav,2,1,4,16,,,,,0,7,7,15,0,3,3,5,,,,,,,,,1,0.6521692620008253,095,001,2019_Sep_02_1006,MusicAffectPsychophysiology2019,3.0.5,59.927474928082994,
To what extent did the music make you feel ,ANXIOUS ,30MonoWAV/30MonoT4.wav,2,1,4,16,,,,,0,7,7,15,0,4,4,1,,,,,,,,,1,1.0363653589738533,095,001,2019_Sep_02_1006,MusicAffectPsychophysiology2019,3.0.5,59.927474928082994,
To what extent did the music make you feel ,FRUSTRATED,30MonoWAV/30MonoT4.wav,2,1,4,16,,,,,0,7,7,15,0,5,5,3,,,,,,,,,1,0.7291284720122349,095,001,2019_Sep_02_1006,MusicAffectPsychophysiology2019,3.0.5,59.927474928082994,
To what extent did the music make you feel ,ACTIVE,30MonoWAV/30MonoT4.wav,2,1,4,16,,,,,0,7,7,15,0,6,6,9,,,,,,,,,2,4.385652981989551,095,001,2019_Sep_02_1006,MusicAffectPsychophysiology2019,3.0.5,59.927474928082994,
To what extent did the music make you feel ,TENDER,30MonoWAV/30MonoT4.wav,2,1,4,16,,,,,0,7,7,15,0,7,7,10,,,,,,,,,3,2.1201069820090197,095,001,2019_Sep_02_1006,MusicAffectPsychophysiology2019,3.0.5,59.927474928082994,
To what extent did the music make you feel ,SCARED,30MonoWAV/30MonoT4.wav,2,1,4,16,,,,,0,7,7,15,0,8,8,11,,,,,,,,,1,1.053113789006602,095,001,2019_Sep_02_1006,MusicAffectPsychophysiology2019,3.0.5,59.927474928082994,
To what extent did the music make you feel ,ALERT,30MonoWAV/30MonoT4.wav,2,1,4,16,,,,,0,7,7,15,0,9,9,8,,,,,,,,,2,1.3179749999835622,095,001,2019_Sep_02_1006,MusicAffectPsychophysiology2019,3.0.5,59.927474928082994,
To what extent did the music make you feel ,HAPPY,30MonoWAV/30MonoT4.wav,2,1,4,16,,,,,0,7,7,15,0,10,10,6,,,,,,,,,4,2.836808017018484,095,001,2019_Sep_02_1006,MusicAffectPsychophysiology2019,3.0.5,59.927474928082994,
To what extent did the music make you feel ,SAD,30MonoWAV/30MonoT4.wav,2,1,4,16,,,,,0,7,7,15,0,11,11,0,,,,,,,,,1,1.0028889950190205,095,001,2019_Sep_02_1006,MusicAffectPsychophysiology2019,3.0.5,59.927474928082994,
,,30MonoWAV/30MonoT4.wav,2,1,4,16,,,,,0,7,7,15,,,,,,,,,,,,,,,095,001,2019_Sep_02_1006,MusicAffectPsychophysiology2019,3.0.5,59.927474928082994,
To what extent did the music make you feel ,TENDER,30MonoWAV/30MonoS2.wav,1,1,3,10,,,,,0,8,8,9,0,0,0,10,,,1,4.851789300009841,2,1.7028678220231086,2,1.9697679170058109,3,2.7892636689939536,095,001,2019_Sep_02_1006,MusicAffectPsychophysiology2019,3.0.5,59.927474928082994,
To what extent did the music make you feel ,SCARED,30MonoWAV/30MonoS2.wav,1,1,3,10,,,,,0,8,8,9,0,1,1,11,,,,,,,,,1,1.2729583760083187,095,001,2019_Sep_02_1006,MusicAffectPsychophysiology2019,3.0.5,59.927474928082994,
To what extent did the music make you feel ,ANXIOUS ,30MonoWAV/30MonoS2.wav,1,1,3,10,,,,,0,8,8,9,0,2,2,1,,,,,,,,,1,0.7052524000173435,095,001,2019_Sep_02_1006,MusicAffectPsychophysiology2019,3.0.5,59.927474928082994,
To what extent did the music make you feel ,ASHAMED,30MonoWAV/30MonoS2.wav,1,1,3,10,,,,,0,8,8,9,0,3,3,4,,,,,,,,,2,1.7547328149958048,095,001,2019_Sep_02_1006,MusicAffectPsychophysiology2019,3.0.5,59.927474928082994,
To what extent did the music make you feel ,FRUSTRATED,30MonoWAV/30MonoS2.wav,1,1,3,10,,,,,0,8,8,9,0,4,4,3,,,,,,,,,1,0.9547359939897433,095,001,2019_Sep_02_1006,MusicAffectPsychophysiology2019,3.0.5,59.927474928082994,
To what extent did the music make you feel ,ACTIVE,30MonoWAV/30MonoS2.wav,1,1,3,10,,,,,0,8,8,9,0,5,5,9,,,,,,,,,1,2.686893666977994,095,001,2019_Sep_02_1006,MusicAffectPsychophysiology2019,3.0.5,59.927474928082994,
To what extent did the music make you feel ,HAPPY,30MonoWAV/30MonoS2.wav,1,1,3,10,,,,,0,8,8,9,0,6,6,6,,,,,,,,,1,0.6200118290144019,095,001,2019_Sep_02_1006,MusicAffectPsychophysiology2019,3.0.5,59.927474928082994,
To what extent did the music make you feel ,EXCITED,30MonoWAV/30MonoS2.wav,1,1,3,10,,,,,0,8,8,9,0,7,7,7,,,,,,,,,1,0.769224285002565,095,001,2019_Sep_02_1006,MusicAffectPsychophysiology2019,3.0.5,59.927474928082994,
To what extent did the music make you feel ,ALERT,30MonoWAV/30MonoS2.wav,1,1,3,10,,,,,0,8,8,9,0,8,8,8,,,,,,,,,1,0.8869642459903844,095,001,2019_Sep_02_1006,MusicAffectPsychophysiology2019,3.0.5,59.927474928082994,
To what extent did the music make you feel ,ANGRY,30MonoWAV/30MonoS2.wav,1,1,3,10,,,,,0,8,8,9,0,9,9,2,,,,,,,,,1,1.153052469016984,095,001,2019_Sep_02_1006,MusicAffectPsychophysiology2019,3.0.5,59.927474928082994,
To what extent did the music make you feel ,GUILTY,30MonoWAV/30MonoS2.wav,1,1,3,10,,,,,0,8,8,9,0,10,10,5,,,,,,,,,1,3.1534446220030077,095,001,2019_Sep_02_1006,MusicAffectPsychophysiology2019,3.0.5,59.927474928082994,
To what extent did the music make you feel ,SAD,30MonoWAV/30MonoS2.wav,1,1,3,10,,,,,0,8,8,9,0,11,11,0,,,,,,,,,3,3.053145547019085,095,001,2019_Sep_02_1006,MusicAffectPsychophysiology2019,3.0.5,59.927474928082994,
,,30MonoWAV/30MonoS2.wav,1,1,3,10,,,,,0,8,8,9,,,,,,,,,,,,,,,095,001,2019_Sep_02_1006,MusicAffectPsychophysiology2019,3.0.5,59.927474928082994,
To what extent did the music make you feel ,ANXIOUS ,30MonoWAV/30MonoT3.wav,2,1,4,15,,,,,0,9,9,14,0,0,0,1,,,1,4.469322649994865,2,3.469386693992419,1,2.0357675490085967,1,3.2645704110036604,095,001,2019_Sep_02_1006,MusicAffectPsychophysiology2019,3.0.5,59.927474928082994,
To what extent did the music make you feel ,GUILTY,30MonoWAV/30MonoT3.wav,2,1,4,15,,,,,0,9,9,14,0,1,1,5,,,,,,,,,1,1.1366650740092155,095,001,2019_Sep_02_1006,MusicAffectPsychophysiology2019,3.0.5,59.927474928082994,
To what extent did the music make you feel ,HAPPY,30MonoWAV/30MonoT3.wav,2,1,4,15,,,,,0,9,9,14,0,2,2,6,,,,,,,,,2,3.0865885420062114,095,001,2019_Sep_02_1006,MusicAffectPsychophysiology2019,3.0.5,59.927474928082994,
To what extent did the music make you feel ,ACTIVE,30MonoWAV/30MonoT3.wav,2,1,4,15,,,,,0,9,9,14,0,3,3,9,,,,,,,,,1,0.8871816270111594,095,001,2019_Sep_02_1006,MusicAffectPsychophysiology2019,3.0.5,59.927474928082994,
To what extent did the music make you feel ,ASHAMED,30MonoWAV/30MonoT3.wav,2,1,4,15,,,,,0,9,9,14,0,4,4,4,,,,,,,,,1,0.69969180499902,095,001,2019_Sep_02_1006,MusicAffectPsychophysiology2019,3.0.5,59.927474928082994,
To what extent did the music make you feel ,SCARED,30MonoWAV/30MonoT3.wav,2,1,4,15,,,,,0,9,9,14,0,5,5,11,,,,,,,,,1,0.7357377760054078,095,001,2019_Sep_02_1006,MusicAffectPsychophysiology2019,3.0.5,59.927474928082994,
To what extent did the music make you feel ,SAD,30MonoWAV/30MonoT3.wav,2,1,4,15,,,,,0,9,9,14,0,6,6,0,,,,,,,,,1,3.118478592019528,095,001,2019_Sep_02_1006,MusicAffectPsychophysiology2019,3.0.5,59.927474928082994,
To what extent did the music make you feel ,TENDER,30MonoWAV/30MonoT3.wav,2,1,4,15,,,,,0,9,9,14,0,7,7,10,,,,,,,,,2,3.0693657800147776,095,001,2019_Sep_02_1006,MusicAffectPsychophysiology2019,3.0.5,59.927474928082994,
To what extent did the music make you feel ,FRUSTRATED,30MonoWAV/30MonoT3.wav,2,1,4,15,,,,,0,9,9,14,0,8,8,3,,,,,,,,,3,4.56313250499079,095,001,2019_Sep_02_1006,MusicAffectPsychophysiology2019,3.0.5,59.927474928082994,
To what extent did the music make you feel ,EXCITED,30MonoWAV/30MonoT3.wav,2,1,4,15,,,,,0,9,9,14,0,9,9,7,,,,,,,,,1,6.4190134270174894,095,001,2019_Sep_02_1006,MusicAffectPsychophysiology2019,3.0.5,59.927474928082994,
To what extent did the music make you feel ,ANGRY,30MonoWAV/30MonoT3.wav,2,1,4,15,,,,,0,9,9,14,0,10,10,2,,,,,,,,,1,0.6191553209791891,095,001,2019_Sep_02_1006,MusicAffectPsychophysiology2019,3.0.5,59.927474928082994,
To what extent did the music make you feel ,ALERT,30MonoWAV/30MonoT3.wav,2,1,4,15,,,,,0,9,9,14,0,11,11,8,,,,,,,,,1,0.737748701008968,095,001,2019_Sep_02_1006,MusicAffectPsychophysiology2019,3.0.5,59.927474928082994,
,,30MonoWAV/30MonoT3.wav,2,1,4,15,,,,,0,9,9,14,,,,,,,,,,,,,,,095,001,2019_Sep_02_1006,MusicAffectPsychophysiology2019,3.0.5,59.927474928082994,
To what extent did the music make you feel ,EXCITED,30MonoWAV/30MonoH3.wav,2,2,1,7,,,,,0,10,10,6,0,0,0,7,,,3,9.768370069010416,3,1.5366032690217253,2,1.4352297400182579,3,1.9731066419917624,095,001,2019_Sep_02_1006,MusicAffectPsychophysiology2019,3.0.5,59.927474928082994,
To what extent did the music make you feel ,ALERT,30MonoWAV/30MonoH3.wav,2,2,1,7,,,,,0,10,10,6,0,1,1,8,,,,,,,,,2,2.4700101179769263,095,001,2019_Sep_02_1006,MusicAffectPsychophysiology2019,3.0.5,59.927474928082994,
To what extent did the music make you feel ,FRUSTRATED,30MonoWAV/30MonoH3.wav,2,2,1,7,,,,,0,10,10,6,0,2,2,3,,,,,,,,,1,0.9210599490033928,095,001,2019_Sep_02_1006,MusicAffectPsychophysiology2019,3.0.5,59.927474928082994,
To what extent did the music make you feel ,HAPPY,30MonoWAV/30MonoH3.wav,2,2,1,7,,,,,0,10,10,6,0,3,3,6,,,,,,,,,3,2.0677308490267023,095,001,2019_Sep_02_1006,MusicAffectPsychophysiology2019,3.0.5,59.927474928082994,
To what extent did the music make you feel ,SCARED,30MonoWAV/30MonoH3.wav,2,2,1,7,,,,,0,10,10,6,0,4,4,11,,,,,,,,,1,3.385120228980668,095,001,2019_Sep_02_1006,MusicAffectPsychophysiology2019,3.0.5,59.927474928082994,
To what extent did the music make you feel ,ANXIOUS ,30MonoWAV/30MonoH3.wav,2,2,1,7,,,,,0,10,10,6,0,5,5,1,,,,,,,,,1,2.169859832007205,095,001,2019_Sep_02_1006,MusicAffectPsychophysiology2019,3.0.5,59.927474928082994,
To what extent did the music make you feel ,GUILTY,30MonoWAV/30MonoH3.wav,2,2,1,7,,,,,0,10,10,6,0,6,6,5,,,,,,,,,1,0.5864647470007185,095,001,2019_Sep_02_1006,MusicAffectPsychophysiology2019,3.0.5,59.927474928082994,
To what extent did the music make you feel ,ANGRY,30MonoWAV/30MonoH3.wav,2,2,1,7,,,,,0,10,10,6,0,7,7,2,,,,,,,,,1,0.6032885089807678,095,001,2019_Sep_02_1006,MusicAffectPsychophysiology2019,3.0.5,59.927474928082994,
To what extent did the music make you feel ,ACTIVE,30MonoWAV/30MonoH3.wav,2,2,1,7,,,,,0,10,10,6,0,8,8,9,,,,,,,,,2,1.7176650559995323,095,001,2019_Sep_02_1006,MusicAffectPsychophysiology2019,3.0.5,59.927474928082994,
To what extent did the music make you feel ,TENDER,30MonoWAV/30MonoH3.wav,2,2,1,7,,,,,0,10,10,6,0,9,9,10,,,,,,,,,1,1.6008788050094154,095,001,2019_Sep_02_1006,MusicAffectPsychophysiology2019,3.0.5,59.927474928082994,
To what extent did the music make you feel ,SAD,30MonoWAV/30MonoH3.wav,2,2,1,7,,,,,0,10,10,6,0,10,10,0,,,,,,,,,1,1.1688811279891524,095,001,2019_Sep_02_1006,MusicAffectPsychophysiology2019,3.0.5,59.927474928082994,
To what extent did the music make you feel ,ASHAMED,30MonoWAV/30MonoH3.wav,2,2,1,7,,,,,0,10,10,6,0,11,11,4,,,,,,,,,1,1.0024117739812937,095,001,2019_Sep_02_1006,MusicAffectPsychophysiology2019,3.0.5,59.927474928082994,
,,30MonoWAV/30MonoH3.wav,2,2,1,7,,,,,0,10,10,6,,,,,,,,,,,,,,,095,001,2019_Sep_02_1006,MusicAffectPsychophysiology2019,3.0.5,59.927474928082994,
To what extent did the music make you feel ,HAPPY,30MonoWAV/30MonoT2.wav,2,1,4,14,,,,,0,11,11,13,0,0,0,6,,,1,5.335563555010594,4,3.0349889359786175,3,2.7346487250179052,3,2.915140044002328,095,001,2019_Sep_02_1006,MusicAffectPsychophysiology2019,3.0.5,59.927474928082994,
To what extent did the music make you feel ,SAD,30MonoWAV/30MonoT2.wav,2,1,4,14,,,,,0,11,11,13,0,1,1,0,,,,,,,,,1,1.352747441997053,095,001,2019_Sep_02_1006,MusicAffectPsychophysiology2019,3.0.5,59.927474928082994,
To what extent did the music make you feel ,TENDER,30MonoWAV/30MonoT2.wav,2,1,4,14,,,,,0,11,11,13,0,2,2,10,,,,,,,,,3,1.8362167839950416,095,001,2019_Sep_02_1006,MusicAffectPsychophysiology2019,3.0.5,59.927474928082994,
To what extent did the music make you feel ,ALERT,30MonoWAV/30MonoT2.wav,2,1,4,14,,,,,0,11,11,13,0,3,3,8,,,,,,,,,1,1.1038796439825092,095,001,2019_Sep_02_1006,MusicAffectPsychophysiology2019,3.0.5,59.927474928082994,
To what extent did the music make you feel ,ACTIVE,30MonoWAV/30MonoT2.wav,2,1,4,14,,,,,0,11,11,13,0,4,4,9,,,,,,,,,1,0.8862975919910241,095,001,2019_Sep_02_1006,MusicAffectPsychophysiology2019,3.0.5,59.927474928082994,
To what extent did the music make you feel ,ANXIOUS ,30MonoWAV/30MonoT2.wav,2,1,4,14,,,,,0,11,11,13,0,5,5,1,,,,,,,,,1,0.86943498000619,095,001,2019_Sep_02_1006,MusicAffectPsychophysiology2019,3.0.5,59.927474928082994,
To what extent did the music make you feel ,SCARED,30MonoWAV/30MonoT2.wav,2,1,4,14,,,,,0,11,11,13,0,6,6,11,,,,,,,,,1,0.5198585019970778,095,001,2019_Sep_02_1006,MusicAffectPsychophysiology2019,3.0.5,59.927474928082994,
To what extent did the music make you feel ,ASHAMED,30MonoWAV/30MonoT2.wav,2,1,4,14,,,,,0,11,11,13,0,7,7,4,,,,,,,,,1,0.4688920599874109,095,001,2019_Sep_02_1006,MusicAffectPsychophysiology2019,3.0.5,59.927474928082994,
To what extent did the music make you feel ,GUILTY,30MonoWAV/30MonoT2.wav,2,1,4,14,,,,,0,11,11,13,0,8,8,5,,,,,,,,,1,0.5870965110079851,095,001,2019_Sep_02_1006,MusicAffectPsychophysiology2019,3.0.5,59.927474928082994,
To what extent did the music make you feel ,ANGRY,30MonoWAV/30MonoT2.wav,2,1,4,14,,,,,0,11,11,13,0,9,9,2,,,,,,,,,1,0.6195796259853523,095,001,2019_Sep_02_1006,MusicAffectPsychophysiology2019,3.0.5,59.927474928082994,
To what extent did the music make you feel ,EXCITED,30MonoWAV/30MonoT2.wav,2,1,4,14,,,,,0,11,11,13,0,10,10,7,,,,,,,,,1,3.1853015719971154,095,001,2019_Sep_02_1006,MusicAffectPsychophysiology2019,3.0.5,59.927474928082994,
To what extent did the music make you feel ,FRUSTRATED,30MonoWAV/30MonoT2.wav,2,1,4,14,,,,,0,11,11,13,0,11,11,3,,,,,,,,,1,0.746624157007318,095,001,2019_Sep_02_1006,MusicAffectPsychophysiology2019,3.0.5,59.927474928082994,
,,30MonoWAV/30MonoT2.wav,2,1,4,14,,,,,0,11,11,13,,,,,,,,,,,,,,,095,001,2019_Sep_02_1006,MusicAffectPsychophysiology2019,3.0.5,59.927474928082994,
To what extent did the music make you feel ,FRUSTRATED,30MonoWAV/30MonoF1.wav,1,2,2,1,,,,,0,12,12,0,0,0,0,3,,,3,5.069224819977535,1,1.8529313239851035,1,2.4879125950101297,2,2.804742858017562,095,001,2019_Sep_02_1006,MusicAffectPsychophysiology2019,3.0.5,59.927474928082994,
To what extent did the music make you feel ,ALERT,30MonoWAV/30MonoF1.wav,1,2,2,1,,,,,0,12,12,0,0,1,1,8,,,,,,,,,4,2.1860106530075427,095,001,2019_Sep_02_1006,MusicAffectPsychophysiology2019,3.0.5,59.927474928082994,
To what extent did the music make you feel ,ACTIVE,30MonoWAV/30MonoF1.wav,1,2,2,1,,,,,0,12,12,0,0,2,2,9,,,,,,,,,2,1.3997181899903808,095,001,2019_Sep_02_1006,MusicAffectPsychophysiology2019,3.0.5,59.927474928082994,
To what extent did the music make you feel ,ANXIOUS ,30MonoWAV/30MonoF1.wav,1,2,2,1,,,,,0,12,12,0,0,3,3,1,,,,,,,,,2,1.2854477029759437,095,001,2019_Sep_02_1006,MusicAffectPsychophysiology2019,3.0.5,59.927474928082994,
To what extent did the music make you feel ,ANGRY,30MonoWAV/30MonoF1.wav,1,2,2,1,,,,,0,12,12,0,0,4,4,2,,,,,,,,,1,1.1854448989906814,095,001,2019_Sep_02_1006,MusicAffectPsychophysiology2019,3.0.5,59.927474928082994,
To what extent did the music make you feel ,SCARED,30MonoWAV/30MonoF1.wav,1,2,2,1,,,,,0,12,12,0,0,5,5,11,,,,,,,,,2,2.784869680996053,095,001,2019_Sep_02_1006,MusicAffectPsychophysiology2019,3.0.5,59.927474928082994,
To what extent did the music make you feel ,EXCITED,30MonoWAV/30MonoF1.wav,1,2,2,1,,,,,0,12,12,0,0,6,6,7,,,,,,,,,2,2.086004413984483,095,001,2019_Sep_02_1006,MusicAffectPsychophysiology2019,3.0.5,59.927474928082994,
To what extent did the music make you feel ,ASHAMED,30MonoWAV/30MonoF1.wav,1,2,2,1,,,,,0,12,12,0,0,7,7,4,,,,,,,,,1,1.070587530004559,095,001,2019_Sep_02_1006,MusicAffectPsychophysiology2019,3.0.5,59.927474928082994,
To what extent did the music make you feel ,TENDER,30MonoWAV/30MonoF1.wav,1,2,2,1,,,,,0,12,12,0,0,8,8,10,,,,,,,,,1,0.9026065739744809,095,001,2019_Sep_02_1006,MusicAffectPsychophysiology2019,3.0.5,59.927474928082994,
To what extent did the music make you feel ,SAD,30MonoWAV/30MonoF1.wav,1,2,2,1,,,,,0,12,12,0,0,9,9,0,,,,,,,,,1,1.3191701229952741,095,001,2019_Sep_02_1006,MusicAffectPsychophysiology2019,3.0.5,59.927474928082994,
To what extent did the music make you feel ,GUILTY,30MonoWAV/30MonoF1.wav,1,2,2,1,,,,,0,12,12,0,0,10,10,5,,,,,,,,,1,0.5531829730025493,095,001,2019_Sep_02_1006,MusicAffectPsychophysiology2019,3.0.5,59.927474928082994,
To what extent did the music make you feel ,HAPPY,30MonoWAV/30MonoF1.wav,1,2,2,1,,,,,0,12,12,0,0,11,11,6,,,,,,,,,1,0.700141999986954,095,001,2019_Sep_02_1006,MusicAffectPsychophysiology2019,3.0.5,59.927474928082994,
,,30MonoWAV/30MonoF1.wav,1,2,2,1,,,,,0,12,12,0,,,,,,,,,,,,,,,095,001,2019_Sep_02_1006,MusicAffectPsychophysiology2019,3.0.5,59.927474928082994,
To what extent did the music make you feel ,HAPPY,30MonoWAV/30MonoS3.wav,1,1,3,11,,,,,0,13,13,10,0,0,0,6,,,1,4.38494464798714,1,2.869116574001964,2,2.6035437470127363,1,3.015947702981066,095,001,2019_Sep_02_1006,MusicAffectPsychophysiology2019,3.0.5,59.927474928082994,
To what extent did the music make you feel ,SCARED,30MonoWAV/30MonoS3.wav,1,1,3,11,,,,,0,13,13,10,0,1,1,11,,,,,,,,,1,1.3027010580117349,095,001,2019_Sep_02_1006,MusicAffectPsychophysiology2019,3.0.5,59.927474928082994,
To what extent did the music make you feel ,ANXIOUS ,30MonoWAV/30MonoS3.wav,1,1,3,11,,,,,0,13,13,10,0,2,2,1,,,,,,,,,1,1.5518784190062433,095,001,2019_Sep_02_1006,MusicAffectPsychophysiology2019,3.0.5,59.927474928082994,
To what extent did the music make you feel ,ASHAMED,30MonoWAV/30MonoS3.wav,1,1,3,11,,,,,0,13,13,10,0,3,3,4,,,,,,,,,2,2.869803093984956,095,001,2019_Sep_02_1006,MusicAffectPsychophysiology2019,3.0.5,59.927474928082994,
To what extent did the music make you feel ,SAD,30MonoWAV/30MonoS3.wav,1,1,3,11,,,,,0,13,13,10,0,4,4,0,,,,,,,,,2,1.1191406049765646,095,001,2019_Sep_02_1006,MusicAffectPsychophysiology2019,3.0.5,59.927474928082994,
To what extent did the music make you feel ,ALERT,30MonoWAV/30MonoS3.wav,1,1,3,11,,,,,0,13,13,10,0,5,5,8,,,,,,,,,1,0.8360631539835595,095,001,2019_Sep_02_1006,MusicAffectPsychophysiology2019,3.0.5,59.927474928082994,
To what extent did the music make you feel ,FRUSTRATED,30MonoWAV/30MonoS3.wav,1,1,3,11,,,,,0,13,13,10,0,6,6,3,,,,,,,,,1,1.5184932120027952,095,001,2019_Sep_02_1006,MusicAffectPsychophysiology2019,3.0.5,59.927474928082994,
To what extent did the music make you feel ,EXCITED,30MonoWAV/30MonoS3.wav,1,1,3,11,,,,,0,13,13,10,0,7,7,7,,,,,,,,,1,0.8696058799978346,095,001,2019_Sep_02_1006,MusicAffectPsychophysiology2019,3.0.5,59.927474928082994,
To what extent did the music make you feel ,ANGRY,30MonoWAV/30MonoS3.wav,1,1,3,11,,,,,0,13,13,10,0,8,8,2,,,,,,,,,1,0.7696888149948791,095,001,2019_Sep_02_1006,MusicAffectPsychophysiology2019,3.0.5,59.927474928082994,
To what extent did the music make you feel ,TENDER,30MonoWAV/30MonoS3.wav,1,1,3,11,,,,,0,13,13,10,0,9,9,10,,,,,,,,,1,0.7351152449846268,095,001,2019_Sep_02_1006,MusicAffectPsychophysiology2019,3.0.5,59.927474928082994,
To what extent did the music make you feel ,ACTIVE,30MonoWAV/30MonoS3.wav,1,1,3,11,,,,,0,13,13,10,0,10,10,9,,,,,,,,,1,2.2366315279796254,095,001,2019_Sep_02_1006,MusicAffectPsychophysiology2019,3.0.5,59.927474928082994,
To what extent did the music make you feel ,GUILTY,30MonoWAV/30MonoS3.wav,1,1,3,11,,,,,0,13,13,10,0,11,11,5,,,,,,,,,1,1.3190736639953684,095,001,2019_Sep_02_1006,MusicAffectPsychophysiology2019,3.0.5,59.927474928082994,
,,30MonoWAV/30MonoS3.wav,1,1,3,11,,,,,0,13,13,10,,,,,,,,,,,,,,,095,001,2019_Sep_02_1006,MusicAffectPsychophysiology2019,3.0.5,59.927474928082994,
To what extent did the music make you feel ,SAD,30MonoWAV/30MonoT1.wav,2,1,4,13,,,,,0,14,14,12,0,0,0,0,,,1,9.084849823993864,2,1.3541246610111557,2,1.2864415679941885,2,2.5590612799860537,095,001,2019_Sep_02_1006,MusicAffectPsychophysiology2019,3.0.5,59.927474928082994,
To what extent did the music make you feel ,HAPPY,30MonoWAV/30MonoT1.wav,2,1,4,13,,,,,0,14,14,12,0,1,1,6,,,,,,,,,2,14.868354315985925,095,001,2019_Sep_02_1006,MusicAffectPsychophysiology2019,3.0.5,59.927474928082994,
To what extent did the music make you feel ,EXCITED,30MonoWAV/30MonoT1.wav,2,1,4,13,,,,,0,14,14,12,0,2,2,7,,,,,,,,,1,2.820904469001107,095,001,2019_Sep_02_1006,MusicAffectPsychophysiology2019,3.0.5,59.927474928082994,
To what extent did the music make you feel ,ANXIOUS ,30MonoWAV/30MonoT1.wav,2,1,4,13,,,,,0,14,14,12,0,3,3,1,,,,,,,,,1,54.01374817601754,095,001,2019_Sep_02_1006,MusicAffectPsychophysiology2019,3.0.5,59.927474928082994,
To what extent did the music make you feel ,FRUSTRATED,30MonoWAV/30MonoT1.wav,2,1,4,13,,,,,0,14,14,12,0,4,4,3,,,,,,,,,1,2.868618175998563,095,001,2019_Sep_02_1006,MusicAffectPsychophysiology2019,3.0.5,59.927474928082994,
To what extent did the music make you feel ,SCARED,30MonoWAV/30MonoT1.wav,2,1,4,13,,,,,0,14,14,12,0,5,5,11,,,,,,,,,1,1.0182821429916658,095,001,2019_Sep_02_1006,MusicAffectPsychophysiology2019,3.0.5,59.927474928082994,
To what extent did the music make you feel ,TENDER,30MonoWAV/30MonoT1.wav,2,1,4,13,,,,,0,14,14,12,0,6,6,10,,,,,,,,,4,1.8869751930178609,095,001,2019_Sep_02_1006,MusicAffectPsychophysiology2019,3.0.5,59.927474928082994,
To what extent did the music make you feel ,ACTIVE,30MonoWAV/30MonoT1.wav,2,1,4,13,,,,,0,14,14,12,0,7,7,9,,,,,,,,,1,1.5374462679901626,095,001,2019_Sep_02_1006,MusicAffectPsychophysiology2019,3.0.5,59.927474928082994,
To what extent did the music make you feel ,ASHAMED,30MonoWAV/30MonoT1.wav,2,1,4,13,,,,,0,14,14,12,0,8,8,4,,,,,,,,,1,0.8029882880218793,095,001,2019_Sep_02_1006,MusicAffectPsychophysiology2019,3.0.5,59.927474928082994,
To what extent did the music make you feel ,GUILTY,30MonoWAV/30MonoT1.wav,2,1,4,13,,,,,0,14,14,12,0,9,9,5,,,,,,,,,1,1.135799670999404,095,001,2019_Sep_02_1006,MusicAffectPsychophysiology2019,3.0.5,59.927474928082994,
To what extent did the music make you feel ,ALERT,30MonoWAV/30MonoT1.wav,2,1,4,13,,,,,0,14,14,12,0,10,10,8,,,,,,,,,1,1.3180973769922275,095,001,2019_Sep_02_1006,MusicAffectPsychophysiology2019,3.0.5,59.927474928082994,
To what extent did the music make you feel ,ANGRY,30MonoWAV/30MonoT1.wav,2,1,4,13,,,,,0,14,14,12,0,11,11,2,,,,,,,,,1,0.6685541489860043,095,001,2019_Sep_02_1006,MusicAffectPsychophysiology2019,3.0.5,59.927474928082994,
,,30MonoWAV/30MonoT1.wav,2,1,4,13,,,,,0,14,14,12,,,,,,,,,,,,,,,095,001,2019_Sep_02_1006,MusicAffectPsychophysiology2019,3.0.5,59.927474928082994,
To what extent did the music make you feel ,ASHAMED,30MonoWAV/30MonoH1.wav,2,2,1,5,,,,,0,15,15,4,0,0,0,4,,,4,4.436558999994304,4,1.3531168310146313,3,2.152267838973785,1,1.8774494050012436,095,001,2019_Sep_02_1006,MusicAffectPsychophysiology2019,3.0.5,59.927474928082994,
To what extent did the music make you feel ,HAPPY,30MonoWAV/30MonoH1.wav,2,2,1,5,,,,,0,15,15,4,0,1,1,6,,,,,,,,,4,1.485763852018863,095,001,2019_Sep_02_1006,MusicAffectPsychophysiology2019,3.0.5,59.927474928082994,
To what extent did the music make you feel ,ACTIVE,30MonoWAV/30MonoH1.wav,2,2,1,5,,,,,0,15,15,4,0,2,2,9,,,,,,,,,3,1.2181423849833664,095,001,2019_Sep_02_1006,MusicAffectPsychophysiology2019,3.0.5,59.927474928082994,
To what extent did the music make you feel ,FRUSTRATED,30MonoWAV/30MonoH1.wav,2,2,1,5,,,,,0,15,15,4,0,3,3,3,,,,,,,,,1,0.870393466000678,095,001,2019_Sep_02_1006,MusicAffectPsychophysiology2019,3.0.5,59.927474928082994,
To what extent did the music make you feel ,SCARED,30MonoWAV/30MonoH1.wav,2,2,1,5,,,,,0,15,15,4,0,4,4,11,,,,,,,,,1,0.6505758510029409,095,001,2019_Sep_02_1006,MusicAffectPsychophysiology2019,3.0.5,59.927474928082994,
To what extent did the music make you feel ,EXCITED,30MonoWAV/30MonoH1.wav,2,2,1,5,,,,,0,15,15,4,0,5,5,7,,,,,,,,,2,1.1692051550198812,095,001,2019_Sep_02_1006,MusicAffectPsychophysiology2019,3.0.5,59.927474928082994,
To what extent did the music make you feel ,ANXIOUS ,30MonoWAV/30MonoH1.wav,2,2,1,5,,,,,0,15,15,4,0,6,6,1,,,,,,,,,1,0.8515835719881579,095,001,2019_Sep_02_1006,MusicAffectPsychophysiology2019,3.0.5,59.927474928082994,
To what extent did the music make you feel ,SAD,30MonoWAV/30MonoH1.wav,2,2,1,5,,,,,0,15,15,4,0,7,7,0,,,,,,,,,1,2.019845342001645,095,001,2019_Sep_02_1006,MusicAffectPsychophysiology2019,3.0.5,59.927474928082994,
To what extent did the music make you feel ,TENDER,30MonoWAV/30MonoH1.wav,2,2,1,5,,,,,0,15,15,4,0,8,8,10,,,,,,,,,1,0.9869852359988727,095,001,2019_Sep_02_1006,MusicAffectPsychophysiology2019,3.0.5,59.927474928082994,
To what extent did the music make you feel ,ANGRY,30MonoWAV/30MonoH1.wav,2,2,1,5,,,,,0,15,15,4,0,9,9,2,,,,,,,,,1,0.5694449180155061,095,001,2019_Sep_02_1006,MusicAffectPsychophysiology2019,3.0.5,59.927474928082994,
To what extent did the music make you feel ,GUILTY,30MonoWAV/30MonoH1.wav,2,2,1,5,,,,,0,15,15,4,0,10,10,5,,,,,,,,,1,0.5194713959936053,095,001,2019_Sep_02_1006,MusicAffectPsychophysiology2019,3.0.5,59.927474928082994,
To what extent did the music make you feel ,ALERT,30MonoWAV/30MonoH1.wav,2,2,1,5,,,,,0,15,15,4,0,11,11,8,,,,,,,,,3,1.5031827570055611,095,001,2019_Sep_02_1006,MusicAffectPsychophysiology2019,3.0.5,59.927474928082994,
,,30MonoWAV/30MonoH1.wav,2,2,1,5,,,,,0,15,15,4,,,,,,,,,,,,,,,095,001,2019_Sep_02_1006,MusicAffectPsychophysiology2019,3.0.5,59.927474928082994,
To what extent did the music make you feel ,ALERT,30MonoWAV/30MonoT4.wav,2,1,4,16,,,,,1,0,16,15,0,0,0,8,,,1,3.0355872710060794,4,2.1361685379815754,3,1.702460279018851,1,2.0678130479936954,095,001,2019_Sep_02_1006,MusicAffectPsychophysiology2019,3.0.5,59.927474928082994,
To what extent did the music make you feel ,EXCITED,30MonoWAV/30MonoT4.wav,2,1,4,16,,,,,1,0,16,15,0,1,1,7,,,,,,,,,2,2.4684558100125287,095,001,2019_Sep_02_1006,MusicAffectPsychophysiology2019,3.0.5,59.927474928082994,
To what extent did the music make you feel ,SAD,30MonoWAV/30MonoT4.wav,2,1,4,16,,,,,1,0,16,15,0,2,2,0,,,,,,,,,1,0.6039509510155767,095,001,2019_Sep_02_1006,MusicAffectPsychophysiology2019,3.0.5,59.927474928082994,
To what extent did the music make you feel ,ANXIOUS ,30MonoWAV/30MonoT4.wav,2,1,4,16,,,,,1,0,16,15,0,3,3,1,,,,,,,,,1,0.9538142769888509,095,001,2019_Sep_02_1006,MusicAffectPsychophysiology2019,3.0.5,59.927474928082994,
To what extent did the music make you feel ,ACTIVE,30MonoWAV/30MonoT4.wav,2,1,4,16,,,,,1,0,16,15,0,4,4,9,,,,,,,,,2,1.2024247930094134,095,001,2019_Sep_02_1006,MusicAffectPsychophysiology2019,3.0.5,59.927474928082994,
To what extent did the music make you feel ,ASHAMED,30MonoWAV/30MonoT4.wav,2,1,4,16,,,,,1,0,16,15,0,5,5,4,,,,,,,,,1,0.5865548420115374,095,001,2019_Sep_02_1006,MusicAffectPsychophysiology2019,3.0.5,59.927474928082994,
To what extent did the music make you feel ,HAPPY,30MonoWAV/30MonoT4.wav,2,1,4,16,,,,,1,0,16,15,0,6,6,6,,,,,,,,,4,1.4988696560030803,095,001,2019_Sep_02_1006,MusicAffectPsychophysiology2019,3.0.5,59.927474928082994,
To what extent did the music make you feel ,GUILTY,30MonoWAV/30MonoT4.wav,2,1,4,16,,,,,1,0,16,15,0,7,7,5,,,,,,,,,1,0.9530847049900331,095,001,2019_Sep_02_1006,MusicAffectPsychophysiology2019,3.0.5,59.927474928082994,
To what extent did the music make you feel ,TENDER,30MonoWAV/30MonoT4.wav,2,1,4,16,,,,,1,0,16,15,0,8,8,10,,,,,,,,,4,1.0197456030000467,095,001,2019_Sep_02_1006,MusicAffectPsychophysiology2019,3.0.5,59.927474928082994,
To what extent did the music make you feel ,ANGRY,30MonoWAV/30MonoT4.wav,2,1,4,16,,,,,1,0,16,15,0,9,9,2,,,,,,,,,1,0.8026086649915669,095,001,2019_Sep_02_1006,MusicAffectPsychophysiology2019,3.0.5,59.927474928082994,
To what extent did the music make you feel ,FRUSTRATED,30MonoWAV/30MonoT4.wav,2,1,4,16,,,,,1,0,16,15,0,10,10,3,,,,,,,,,1,0.7861198089958634,095,001,2019_Sep_02_1006,MusicAffectPsychophysiology2019,3.0.5,59.927474928082994,
To what extent did the music make you feel ,SCARED,30MonoWAV/30MonoT4.wav,2,1,4,16,,,,,1,0,16,15,0,11,11,11,,,,,,,,,1,0.6689172289916314,095,001,2019_Sep_02_1006,MusicAffectPsychophysiology2019,3.0.5,59.927474928082994,
,,30MonoWAV/30MonoT4.wav,2,1,4,16,,,,,1,0,16,15,,,,,,,,,,,,,,,095,001,2019_Sep_02_1006,MusicAffectPsychophysiology2019,3.0.5,59.927474928082994,
To what extent did the music make you feel ,EXCITED,30MonoWAV/30MonoT3.wav,2,1,4,15,,,,,1,1,17,14,0,0,0,7,,,1,2.637013135012239,1,0.7523057970101945,1,1.4205197250121273,1,1.6029251989966724,095,001,2019_Sep_02_1006,MusicAffectPsychophysiology2019,3.0.5,59.927474928082994,
To what extent did the music make you feel ,ASHAMED,30MonoWAV/30MonoT3.wav,2,1,4,15,,,,,1,1,17,14,0,1,1,4,,,,,,,,,1,0.7854763389914297,095,001,2019_Sep_02_1006,MusicAffectPsychophysiology2019,3.0.5,59.927474928082994,
To what extent did the music make you feel ,TENDER,30MonoWAV/30MonoT3.wav,2,1,4,15,,,,,1,1,17,14,0,2,2,10,,,,,,,,,1,1.821407271985663,095,001,2019_Sep_02_1006,MusicAffectPsychophysiology2019,3.0.5,59.927474928082994,
To what extent did the music make you feel ,GUILTY,30MonoWAV/30MonoT3.wav,2,1,4,15,,,,,1,1,17,14,0,3,3,5,,,,,,,,,1,0.9854043360101059,095,001,2019_Sep_02_1006,MusicAffectPsychophysiology2019,3.0.5,59.927474928082994,
To what extent did the music make you feel ,HAPPY,30MonoWAV/30MonoT3.wav,2,1,4,15,,,,,1,1,17,14,0,4,4,6,,,,,,,,,1,1.1368603000009898,095,001,2019_Sep_02_1006,MusicAffectPsychophysiology2019,3.0.5,59.927474928082994,
To what extent did the music make you feel ,SAD,30MonoWAV/30MonoT3.wav,2,1,4,15,,,,,1,1,17,14,0,5,5,0,,,,,,,,,1,0.8361391150101554,095,001,2019_Sep_02_1006,MusicAffectPsychophysiology2019,3.0.5,59.927474928082994,
To what extent did the music make you feel ,ANXIOUS ,30MonoWAV/30MonoT3.wav,2,1,4,15,,,,,1,1,17,14,0,6,6,1,,,,,,,,,1,1.5170674129913095,095,001,2019_Sep_02_1006,MusicAffectPsychophysiology2019,3.0.5,59.927474928082994,
To what extent did the music make you feel ,SCARED,30MonoWAV/30MonoT3.wav,2,1,4,15,,,,,1,1,17,14,0,7,7,11,,,,,,,,,1,2.269201357004931,095,001,2019_Sep_02_1006,MusicAffectPsychophysiology2019,3.0.5,59.927474928082994,
To what extent did the music make you feel ,ANGRY,30MonoWAV/30MonoT3.wav,2,1,4,15,,,,,1,1,17,14,0,8,8,2,,,,,,,,,2,2.1870216749957763,095,001,2019_Sep_02_1006,MusicAffectPsychophysiology2019,3.0.5,59.927474928082994,
To what extent did the music make you feel ,ALERT,30MonoWAV/30MonoT3.wav,2,1,4,15,,,,,1,1,17,14,0,9,9,8,,,,,,,,,1,2.652737512020394,095,001,2019_Sep_02_1006,MusicAffectPsychophysiology2019,3.0.5,59.927474928082994,
To what extent did the music make you feel ,FRUSTRATED,30MonoWAV/30MonoT3.wav,2,1,4,15,,,,,1,1,17,14,0,10,10,3,,,,,,,,,3,1.4975418240064755,095,001,2019_Sep_02_1006,MusicAffectPsychophysiology2019,3.0.5,59.927474928082994,
To what extent did the music make you feel ,ACTIVE,30MonoWAV/30MonoT3.wav,2,1,4,15,,,,,1,1,17,14,0,11,11,9,,,,,,,,,1,1.4132065679877996,095,001,2019_Sep_02_1006,MusicAffectPsychophysiology2019,3.0.5,59.927474928082994,
,,30MonoWAV/30MonoT3.wav,2,1,4,15,,,,,1,1,17,14,,,,,,,,,,,,,,,095,001,2019_Sep_02_1006,MusicAffectPsychophysiology2019,3.0.5,59.927474928082994,
To what extent did the music make you feel ,ASHAMED,30MonoWAV/30MonoS4.wav,1,1,3,12,,,,,1,2,18,11,0,0,0,4,,,1,3.1680728930223268,1,1.5027375979989301,3,2.2519118240161333,1,1.6077942260017153,095,001,2019_Sep_02_1006,MusicAffectPsychophysiology2019,3.0.5,59.927474928082994,
To what extent did the music make you feel ,ANXIOUS ,30MonoWAV/30MonoS4.wav,1,1,3,12,,,,,1,2,18,11,0,1,1,1,,,,,,,,,1,0.9666368789912667,095,001,2019_Sep_02_1006,MusicAffectPsychophysiology2019,3.0.5,59.927474928082994,
To what extent did the music make you feel ,FRUSTRATED,30MonoWAV/30MonoS4.wav,1,1,3,12,,,,,1,2,18,11,0,2,2,3,,,,,,,,,1,0.6868393469776493,095,001,2019_Sep_02_1006,MusicAffectPsychophysiology2019,3.0.5,59.927474928082994,
To what extent did the music make you feel ,SCARED,30MonoWAV/30MonoS4.wav,1,1,3,12,,,,,1,2,18,11,0,3,3,11,,,,,,,,,1,0.8835194970015436,095,001,2019_Sep_02_1006,MusicAffectPsychophysiology2019,3.0.5,59.927474928082994,
To what extent did the music make you feel ,ACTIVE,30MonoWAV/30MonoS4.wav,1,1,3,12,,,,,1,2,18,11,0,4,4,9,,,,,,,,,1,1.169444711995311,095,001,2019_Sep_02_1006,MusicAffectPsychophysiology2019,3.0.5,59.927474928082994,
To what extent did the music make you feel ,HAPPY,30MonoWAV/30MonoS4.wav,1,1,3,12,,,,,1,2,18,11,0,5,5,6,,,,,,,,,2,1.7193405150028411,095,001,2019_Sep_02_1006,MusicAffectPsychophysiology2019,3.0.5,59.927474928082994,
To what extent did the music make you feel ,SAD,30MonoWAV/30MonoS4.wav,1,1,3,12,,,,,1,2,18,11,0,6,6,0,,,,,,,,,3,2.3662007359962445,095,001,2019_Sep_02_1006,MusicAffectPsychophysiology2019,3.0.5,59.927474928082994,
To what extent did the music make you feel ,ANGRY,30MonoWAV/30MonoS4.wav,1,1,3,12,,,,,1,2,18,11,0,7,7,2,,,,,,,,,1,1.1203314380254596,095,001,2019_Sep_02_1006,MusicAffectPsychophysiology2019,3.0.5,59.927474928082994,
To what extent did the music make you feel ,GUILTY,30MonoWAV/30MonoS4.wav,1,1,3,12,,,,,1,2,18,11,0,8,8,5,,,,,,,,,1,1.2857973969948944,095,001,2019_Sep_02_1006,MusicAffectPsychophysiology2019,3.0.5,59.927474928082994,
To what extent did the music make you feel ,ALERT,30MonoWAV/30MonoS4.wav,1,1,3,12,,,,,1,2,18,11,0,9,9,8,,,,,,,,,1,1.0842029430205002,095,001,2019_Sep_02_1006,MusicAffectPsychophysiology2019,3.0.5,59.927474928082994,
To what extent did the music make you feel ,TENDER,30MonoWAV/30MonoS4.wav,1,1,3,12,,,,,1,2,18,11,0,10,10,10,,,,,,,,,4,1.5351142459840048,095,001,2019_Sep_02_1006,MusicAffectPsychophysiology2019,3.0.5,59.927474928082994,
To what extent did the music make you feel ,EXCITED,30MonoWAV/30MonoS4.wav,1,1,3,12,,,,,1,2,18,11,0,11,11,7,,,,,,,,,1,0.8669078490056563,095,001,2019_Sep_02_1006,MusicAffectPsychophysiology2019,3.0.5,59.927474928082994,
,,30MonoWAV/30MonoS4.wav,1,1,3,12,,,,,1,2,18,11,,,,,,,,,,,,,,,095,001,2019_Sep_02_1006,MusicAffectPsychophysiology2019,3.0.5,59.927474928082994,
To what extent did the music make you feel ,GUILTY,30MonoWAV/30MonoH1.wav,2,2,1,5,,,,,1,3,19,4,0,0,0,5,,,3,4.186036439001327,4,2.419992903014645,3,2.103083883994259,1,2.1530294510012027,095,001,2019_Sep_02_1006,MusicAffectPsychophysiology2019,3.0.5,59.927474928082994,
To what extent did the music make you feel ,ANXIOUS ,30MonoWAV/30MonoH1.wav,2,2,1,5,,,,,1,3,19,4,0,1,1,1,,,,,,,,,1,0.7690179219935089,095,001,2019_Sep_02_1006,MusicAffectPsychophysiology2019,3.0.5,59.927474928082994,
To what extent did the music make you feel ,ASHAMED,30MonoWAV/30MonoH1.wav,2,2,1,5,,,,,1,3,19,4,0,2,2,4,,,,,,,,,1,0.6861837730102707,095,001,2019_Sep_02_1006,MusicAffectPsychophysiology2019,3.0.5,59.927474928082994,
To what extent did the music make you feel ,ANGRY,30MonoWAV/30MonoH1.wav,2,2,1,5,,,,,1,3,19,4,0,3,3,2,,,,,,,,,1,0.7373797120235395,095,001,2019_Sep_02_1006,MusicAffectPsychophysiology2019,3.0.5,59.927474928082994,
To what extent did the music make you feel ,TENDER,30MonoWAV/30MonoH1.wav,2,2,1,5,,,,,1,3,19,4,0,4,4,10,,,,,,,,,1,1.6185285350074992,095,001,2019_Sep_02_1006,MusicAffectPsychophysiology2019,3.0.5,59.927474928082994,
To what extent did the music make you feel ,ALERT,30MonoWAV/30MonoH1.wav,2,2,1,5,,,,,1,3,19,4,0,5,5,8,,,,,,,,,3,1.4001681089866906,095,001,2019_Sep_02_1006,MusicAffectPsychophysiology2019,3.0.5,59.927474928082994,
To what extent did the music make you feel ,ACTIVE,30MonoWAV/30MonoH1.wav,2,2,1,5,,,,,1,3,19,4,0,6,6,9,,,,,,,,,3,1.1195331240014639,095,001,2019_Sep_02_1006,MusicAffectPsychophysiology2019,3.0.5,59.927474928082994,
To what extent did the music make you feel ,FRUSTRATED,30MonoWAV/30MonoH1.wav,2,2,1,5,,,,,1,3,19,4,0,7,7,3,,,,,,,,,1,0.7665335240017157,095,001,2019_Sep_02_1006,MusicAffectPsychophysiology2019,3.0.5,59.927474928082994,
To what extent did the music make you feel ,SCARED,30MonoWAV/30MonoH1.wav,2,2,1,5,,,,,1,3,19,4,0,8,8,11,,,,,,,,,1,0.6361783919855952,095,001,2019_Sep_02_1006,MusicAffectPsychophysiology2019,3.0.5,59.927474928082994,
To what extent did the music make you feel ,SAD,30MonoWAV/30MonoH1.wav,2,2,1,5,,,,,1,3,19,4,0,9,9,0,,,,,,,,,1,0.5823639669979457,095,001,2019_Sep_02_1006,MusicAffectPsychophysiology2019,3.0.5,59.927474928082994,
To what extent did the music make you feel ,EXCITED,30MonoWAV/30MonoH1.wav,2,2,1,5,,,,,1,3,19,4,0,10,10,7,,,,,,,,,2,1.7020378070010338,095,001,2019_Sep_02_1006,MusicAffectPsychophysiology2019,3.0.5,59.927474928082994,
To what extent did the music make you feel ,HAPPY,30MonoWAV/30MonoH1.wav,2,2,1,5,,,,,1,3,19,4,0,11,11,6,,,,,,,,,4,1.2856031930132303,095,001,2019_Sep_02_1006,MusicAffectPsychophysiology2019,3.0.5,59.927474928082994,
,,30MonoWAV/30MonoH1.wav,2,2,1,5,,,,,1,3,19,4,,,,,,,,,,,,,,,095,001,2019_Sep_02_1006,MusicAffectPsychophysiology2019,3.0.5,59.927474928082994,
To what extent did the music make you feel ,SAD,30MonoWAV/30MonoT2.wav,2,1,4,14,,,,,1,4,20,13,0,0,0,0,,,1,5.352539390005404,3,1.752397664997261,3,1.516811512003187,3,3.960350868990645,095,001,2019_Sep_02_1006,MusicAffectPsychophysiology2019,3.0.5,59.927474928082994,
To what extent did the music make you feel ,GUILTY,30MonoWAV/30MonoT2.wav,2,1,4,14,,,,,1,4,20,13,0,1,1,5,,,,,,,,,1,0.8688545899931341,095,001,2019_Sep_02_1006,MusicAffectPsychophysiology2019,3.0.5,59.927474928082994,
To what extent did the music make you feel ,ANGRY,30MonoWAV/30MonoT2.wav,2,1,4,14,,,,,1,4,20,13,0,2,2,2,,,,,,,,,1,0.7534182129893452,095,001,2019_Sep_02_1006,MusicAffectPsychophysiology2019,3.0.5,59.927474928082994,
To what extent did the music make you feel ,ANXIOUS ,30MonoWAV/30MonoT2.wav,2,1,4,14,,,,,1,4,20,13,0,3,3,1,,,,,,,,,1,0.6203435609932058,095,001,2019_Sep_02_1006,MusicAffectPsychophysiology2019,3.0.5,59.927474928082994,
To what extent did the music make you feel ,EXCITED,30MonoWAV/30MonoT2.wav,2,1,4,14,,,,,1,4,20,13,0,4,4,7,,,,,,,,,1,1.4188833549851552,095,001,2019_Sep_02_1006,MusicAffectPsychophysiology2019,3.0.5,59.927474928082994,
To what extent did the music make you feel ,SCARED,30MonoWAV/30MonoT2.wav,2,1,4,14,,,,,1,4,20,13,0,5,5,11,,,,,,,,,1,0.935862284997711,095,001,2019_Sep_02_1006,MusicAffectPsychophysiology2019,3.0.5,59.927474928082994,
To what extent did the music make you feel ,ACTIVE,30MonoWAV/30MonoT2.wav,2,1,4,14,,,,,1,4,20,13,0,6,6,9,,,,,,,,,1,1.0692853090004064,095,001,2019_Sep_02_1006,MusicAffectPsychophysiology2019,3.0.5,59.927474928082994,
To what extent did the music make you feel ,ASHAMED,30MonoWAV/30MonoT2.wav,2,1,4,14,,,,,1,4,20,13,0,7,7,4,,,,,,,,,1,1.3172679409908596,095,001,2019_Sep_02_1006,MusicAffectPsychophysiology2019,3.0.5,59.927474928082994,
To what extent did the music make you feel ,ALERT,30MonoWAV/30MonoT2.wav,2,1,4,14,,,,,1,4,20,13,0,8,8,8,,,,,,,,,1,1.1694536090071779,095,001,2019_Sep_02_1006,MusicAffectPsychophysiology2019,3.0.5,59.927474928082994,
To what extent did the music make you feel ,TENDER,30MonoWAV/30MonoT2.wav,2,1,4,14,,,,,1,4,20,13,0,9,9,10,,,,,,,,,4,1.3858740369905718,095,001,2019_Sep_02_1006,MusicAffectPsychophysiology2019,3.0.5,59.927474928082994,
To what extent did the music make you feel ,HAPPY,30MonoWAV/30MonoT2.wav,2,1,4,14,,,,,1,4,20,13,0,10,10,6,,,,,,,,,2,1.5030811869946774,095,001,2019_Sep_02_1006,MusicAffectPsychophysiology2019,3.0.5,59.927474928082994,
To what extent did the music make you feel ,FRUSTRATED,30MonoWAV/30MonoT2.wav,2,1,4,14,,,,,1,4,20,13,0,11,11,3,,,,,,,,,1,0.8082237800117582,095,001,2019_Sep_02_1006,MusicAffectPsychophysiology2019,3.0.5,59.927474928082994,
,,30MonoWAV/30MonoT2.wav,2,1,4,14,,,,,1,4,20,13,,,,,,,,,,,,,,,095,001,2019_Sep_02_1006,MusicAffectPsychophysiology2019,3.0.5,59.927474928082994,
To what extent did the music make you feel ,TENDER,30MonoWAV/30MonoH3.wav,2,2,1,7,,,,,1,5,21,6,0,0,0,10,,,2,5.0014929480094,3,2.8860369629983325,2,1.3218263610033318,1,1.5853888299898244,095,001,2019_Sep_02_1006,MusicAffectPsychophysiology2019,3.0.5,59.927474928082994,
To what extent did the music make you feel ,GUILTY,30MonoWAV/30MonoH3.wav,2,2,1,7,,,,,1,5,21,6,0,1,1,5,,,,,,,,,1,0.5030445640149992,095,001,2019_Sep_02_1006,MusicAffectPsychophysiology2019,3.0.5,59.927474928082994,
To what extent did the music make you feel ,ANXIOUS ,30MonoWAV/30MonoH3.wav,2,2,1,7,,,,,1,5,21,6,0,2,2,1,,,,,,,,,1,0.43494438100606203,095,001,2019_Sep_02_1006,MusicAffectPsychophysiology2019,3.0.5,59.927474928082994,
To what extent did the music make you feel ,ASHAMED,30MonoWAV/30MonoH3.wav,2,2,1,7,,,,,1,5,21,6,0,3,3,4,,,,,,,,,1,0.6537955969979521,095,001,2019_Sep_02_1006,MusicAffectPsychophysiology2019,3.0.5,59.927474928082994,
To what extent did the music make you feel ,ALERT,30MonoWAV/30MonoH3.wav,2,2,1,7,,,,,1,5,21,6,0,4,4,8,,,,,,,,,2,1.1526554120064247,095,001,2019_Sep_02_1006,MusicAffectPsychophysiology2019,3.0.5,59.927474928082994,
To what extent did the music make you feel ,ACTIVE,30MonoWAV/30MonoH3.wav,2,2,1,7,,,,,1,5,21,6,0,5,5,9,,,,,,,,,3,1.168494773999555,095,001,2019_Sep_02_1006,MusicAffectPsychophysiology2019,3.0.5,59.927474928082994,
To what extent did the music make you feel ,SCARED,30MonoWAV/30MonoH3.wav,2,2,1,7,,,,,1,5,21,6,0,6,6,11,,,,,,,,,1,0.8862471290049143,095,001,2019_Sep_02_1006,MusicAffectPsychophysiology2019,3.0.5,59.927474928082994,
To what extent did the music make you feel ,FRUSTRATED,30MonoWAV/30MonoH3.wav,2,2,1,7,,,,,1,5,21,6,0,7,7,3,,,,,,,,,1,0.6335707700054627,095,001,2019_Sep_02_1006,MusicAffectPsychophysiology2019,3.0.5,59.927474928082994,
To what extent did the music make you feel ,EXCITED,30MonoWAV/30MonoH3.wav,2,2,1,7,,,,,1,5,21,6,0,8,8,7,,,,,,,,,2,1.6854634350165725,095,001,2019_Sep_02_1006,MusicAffectPsychophysiology2019,3.0.5,59.927474928082994,
To what extent did the music make you feel ,ANGRY,30MonoWAV/30MonoH3.wav,2,2,1,7,,,,,1,5,21,6,0,9,9,2,,,,,,,,,1,0.7696414940000977,095,001,2019_Sep_02_1006,MusicAffectPsychophysiology2019,3.0.5,59.927474928082994,
To what extent did the music make you feel ,HAPPY,30MonoWAV/30MonoH3.wav,2,2,1,7,,,,,1,5,21,6,0,10,10,6,,,,,,,,,3,1.4527225240017287,095,001,2019_Sep_02_1006,MusicAffectPsychophysiology2019,3.0.5,59.927474928082994,
To what extent did the music make you feel ,SAD,30MonoWAV/30MonoH3.wav,2,2,1,7,,,,,1,5,21,6,0,11,11,0,,,,,,,,,1,0.6866722209961154,095,001,2019_Sep_02_1006,MusicAffectPsychophysiology2019,3.0.5,59.927474928082994,
,,30MonoWAV/30MonoH3.wav,2,2,1,7,,,,,1,5,21,6,,,,,,,,,,,,,,,095,001,2019_Sep_02_1006,MusicAffectPsychophysiology2019,3.0.5,59.927474928082994,
To what extent did the music make you feel ,SCARED,30MonoWAV/30MonoF3.wav,1,2,2,3,,,,,1,6,22,2,0,0,0,11,,,2,3.7518413130019326,1,1.2021166839986108,1,1.6371289409871679,2,1.6966454340144992,095,001,2019_Sep_02_1006,MusicAffectPsychophysiology2019,3.0.5,59.927474928082994,
To what extent did the music make you feel ,GUILTY,30MonoWAV/30MonoF3.wav,1,2,2,3,,,,,1,6,22,2,0,1,1,5,,,,,,,,,1,0.9538697590178344,095,001,2019_Sep_02_1006,MusicAffectPsychophysiology2019,3.0.5,59.927474928082994,
To what extent did the music make you feel ,TENDER,30MonoWAV/30MonoF3.wav,1,2,2,3,,,,,1,6,22,2,0,2,2,10,,,,,,,,,1,0.6681481740088202,095,001,2019_Sep_02_1006,MusicAffectPsychophysiology2019,3.0.5,59.927474928082994,
To what extent did the music make you feel ,HAPPY,30MonoWAV/30MonoF3.wav,1,2,2,3,,,,,1,6,22,2,0,3,3,6,,,,,,,,,1,0.8192473000090104,095,001,2019_Sep_02_1006,MusicAffectPsychophysiology2019,3.0.5,59.927474928082994,
To what extent did the music make you feel ,ANXIOUS ,30MonoWAV/30MonoF3.wav,1,2,2,3,,,,,1,6,22,2,0,4,4,1,,,,,,,,,3,1.5524034749832936,095,001,2019_Sep_02_1006,MusicAffectPsychophysiology2019,3.0.5,59.927474928082994,
To what extent did the music make you feel ,ASHAMED,30MonoWAV/30MonoF3.wav,1,2,2,3,,,,,1,6,22,2,0,5,5,4,,,,,,,,,1,0.6853057630069088,095,001,2019_Sep_02_1006,MusicAffectPsychophysiology2019,3.0.5,59.927474928082994,
To what extent did the music make you feel ,ANGRY,30MonoWAV/30MonoF3.wav,1,2,2,3,,,,,1,6,22,2,0,6,6,2,,,,,,,,,1,0.9506844079878647,095,001,2019_Sep_02_1006,MusicAffectPsychophysiology2019,3.0.5,59.927474928082994,
To what extent did the music make you feel ,FRUSTRATED,30MonoWAV/30MonoF3.wav,1,2,2,3,,,,,1,6,22,2,0,7,7,3,,,,,,,,,1,0.6029279450012837,095,001,2019_Sep_02_1006,MusicAffectPsychophysiology2019,3.0.5,59.927474928082994,
To what extent did the music make you feel ,ACTIVE,30MonoWAV/30MonoF3.wav,1,2,2,3,,,,,1,6,22,2,0,8,8,9,,,,,,,,,2,10.966463060001843,095,001,2019_Sep_02_1006,MusicAffectPsychophysiology2019,3.0.5,59.927474928082994,
To what extent did the music make you feel ,SAD,30MonoWAV/30MonoF3.wav,1,2,2,3,,,,,1,6,22,2,0,9,9,0,,,,,,,,,1,0.9184149020002224,095,001,2019_Sep_02_1006,MusicAffectPsychophysiology2019,3.0.5,59.927474928082994,
To what extent did the music make you feel ,EXCITED,30MonoWAV/30MonoF3.wav,1,2,2,3,,,,,1,6,22,2,0,10,10,7,,,,,,,,,1,0.9522339630057104,095,001,2019_Sep_02_1006,MusicAffectPsychophysiology2019,3.0.5,59.927474928082994,
To what extent did the music make you feel ,ALERT,30MonoWAV/30MonoF3.wav,1,2,2,3,,,,,1,6,22,2,0,11,11,8,,,,,,,,,3,1.5695354329945985,095,001,2019_Sep_02_1006,MusicAffectPsychophysiology2019,3.0.5,59.927474928082994,
,,30MonoWAV/30MonoF3.wav,1,2,2,3,,,,,1,6,22,2,,,,,,,,,,,,,,,095,001,2019_Sep_02_1006,MusicAffectPsychophysiology2019,3.0.5,59.927474928082994,
To what extent did the music make you feel ,TENDER,30MonoWAV/30MonoF2.wav,1,2,2,2,,,,,1,7,23,1,0,0,0,10,,,1,16.285753529984504,1,0.7039654510153923,1,1.335027977998834,1,1.5054024390119594,095,001,2019_Sep_02_1006,MusicAffectPsychophysiology2019,3.0.5,59.927474928082994,
To what extent did the music make you feel ,ASHAMED,30MonoWAV/30MonoF2.wav,1,2,2,2,,,,,1,7,23,1,0,1,1,4,,,,,,,,,1,0.7704100999981165,095,001,2019_Sep_02_1006,MusicAffectPsychophysiology2019,3.0.5,59.927474928082994,
To what extent did the music make you feel ,ANXIOUS ,30MonoWAV/30MonoF2.wav,1,2,2,2,,,,,1,7,23,1,0,2,2,1,,,,,,,,,2,1.4704128059966024,095,001,2019_Sep_02_1006,MusicAffectPsychophysiology2019,3.0.5,59.927474928082994,
To what extent did the music make you feel ,ALERT,30MonoWAV/30MonoF2.wav,1,2,2,2,,,,,1,7,23,1,0,3,3,8,,,,,,,,,2,2.0524858200224116,095,001,2019_Sep_02_1006,MusicAffectPsychophysiology2019,3.0.5,59.927474928082994,
To what extent did the music make you feel ,ACTIVE,30MonoWAV/30MonoF2.wav,1,2,2,2,,,,,1,7,23,1,0,4,4,9,,,,,,,,,1,2.169818053022027,095,001,2019_Sep_02_1006,MusicAffectPsychophysiology2019,3.0.5,59.927474928082994,
To what extent did the music make you feel ,GUILTY,30MonoWAV/30MonoF2.wav,1,2,2,2,,,,,1,7,23,1,0,5,5,5,,,,,,,,,1,0.7857406380062457,095,001,2019_Sep_02_1006,MusicAffectPsychophysiology2019,3.0.5,59.927474928082994,
To what extent did the music make you feel ,HAPPY,30MonoWAV/30MonoF2.wav,1,2,2,2,,,,,1,7,23,1,0,6,6,6,,,,,,,,,1,0.6185363389959093,095,001,2019_Sep_02_1006,MusicAffectPsychophysiology2019,3.0.5,59.927474928082994,
To what extent did the music make you feel ,ANGRY,30MonoWAV/30MonoF2.wav,1,2,2,2,,,,,1,7,23,1,0,7,7,2,,,,,,,,,1,0.5704779909865465,095,001,2019_Sep_02_1006,MusicAffectPsychophysiology2019,3.0.5,59.927474928082994,
To what extent did the music make you feel ,FRUSTRATED,30MonoWAV/30MonoF2.wav,1,2,2,2,,,,,1,7,23,1,0,8,8,3,,,,,,,,,1,0.5356306880130433,095,001,2019_Sep_02_1006,MusicAffectPsychophysiology2019,3.0.5,59.927474928082994,
To what extent did the music make you feel ,SCARED,30MonoWAV/30MonoF2.wav,1,2,2,2,,,,,1,7,23,1,0,9,9,11,,,,,,,,,2,1.119529223011341,095,001,2019_Sep_02_1006,MusicAffectPsychophysiology2019,3.0.5,59.927474928082994,
To what extent did the music make you feel ,SAD,30MonoWAV/30MonoF2.wav,1,2,2,2,,,,,1,7,23,1,0,10,10,0,,,,,,,,,1,2.5353852619882673,095,001,2019_Sep_02_1006,MusicAffectPsychophysiology2019,3.0.5,59.927474928082994,
To what extent did the music make you feel ,EXCITED,30MonoWAV/30MonoF2.wav,1,2,2,2,,,,,1,7,23,1,0,11,11,7,,,,,,,,,1,1.1363612870045472,095,001,2019_Sep_02_1006,MusicAffectPsychophysiology2019,3.0.5,59.927474928082994,
,,30MonoWAV/30MonoF2.wav,1,2,2,2,,,,,1,7,23,1,,,,,,,,,,,,,,,095,001,2019_Sep_02_1006,MusicAffectPsychophysiology2019,3.0.5,59.927474928082994,
To what extent did the music make you feel ,SCARED,30MonoWAV/30MonoS1.wav,1,1,3,9,,,,,1,8,24,8,0,0,0,11,,,1,8.202489534014603,2,1.8190156639902852,2,1.5361446399765555,1,0.9164943929936271,095,001,2019_Sep_02_1006,MusicAffectPsychophysiology2019,3.0.5,59.927474928082994,
To what extent did the music make you feel ,TENDER,30MonoWAV/30MonoS1.wav,1,1,3,9,,,,,1,8,24,8,0,1,1,10,,,,,,,,,3,1.5020767170062754,095,001,2019_Sep_02_1006,MusicAffectPsychophysiology2019,3.0.5,59.927474928082994,
To what extent did the music make you feel ,ACTIVE,30MonoWAV/30MonoS1.wav,1,1,3,9,,,,,1,8,24,8,0,2,2,9,,,,,,,,,1,1.0030293440213427,095,001,2019_Sep_02_1006,MusicAffectPsychophysiology2019,3.0.5,59.927474928082994,
To what extent did the music make you feel ,ANXIOUS ,30MonoWAV/30MonoS1.wav,1,1,3,9,,,,,1,8,24,8,0,3,3,1,,,,,,,,,1,0.7683027030143421,095,001,2019_Sep_02_1006,MusicAffectPsychophysiology2019,3.0.5,59.927474928082994,
To what extent did the music make you feel ,HAPPY,30MonoWAV/30MonoS1.wav,1,1,3,9,,,,,1,8,24,8,0,4,4,6,,,,,,,,,2,0.952478199993493,095,001,2019_Sep_02_1006,MusicAffectPsychophysiology2019,3.0.5,59.927474928082994,
To what extent did the music make you feel ,ANGRY,30MonoWAV/30MonoS1.wav,1,1,3,9,,,,,1,8,24,8,0,5,5,2,,,,,,,,,1,0.8855285579920746,095,001,2019_Sep_02_1006,MusicAffectPsychophysiology2019,3.0.5,59.927474928082994,
To what extent did the music make you feel ,SAD,30MonoWAV/30MonoS1.wav,1,1,3,9,,,,,1,8,24,8,0,6,6,0,,,,,,,,,2,1.6335078999982215,095,001,2019_Sep_02_1006,MusicAffectPsychophysiology2019,3.0.5,59.927474928082994,
To what extent did the music make you feel ,EXCITED,30MonoWAV/30MonoS1.wav,1,1,3,9,,,,,1,8,24,8,0,7,7,7,,,,,,,,,1,0.9034836329810787,095,001,2019_Sep_02_1006,MusicAffectPsychophysiology2019,3.0.5,59.927474928082994,
To what extent did the music make you feel ,ALERT,30MonoWAV/30MonoS1.wav,1,1,3,9,,,,,1,8,24,8,0,8,8,8,,,,,,,,,1,0.8866675889876205,095,001,2019_Sep_02_1006,MusicAffectPsychophysiology2019,3.0.5,59.927474928082994,
To what extent did the music make you feel ,GUILTY,30MonoWAV/30MonoS1.wav,1,1,3,9,,,,,1,8,24,8,0,9,9,5,,,,,,,,,1,0.6358026459929533,095,001,2019_Sep_02_1006,MusicAffectPsychophysiology2019,3.0.5,59.927474928082994,
To what extent did the music make you feel ,ASHAMED,30MonoWAV/30MonoS1.wav,1,1,3,9,,,,,1,8,24,8,0,10,10,4,,,,,,,,,1,0.5671626350085717,095,001,2019_Sep_02_1006,MusicAffectPsychophysiology2019,3.0.5,59.927474928082994,
To what extent did the music make you feel ,FRUSTRATED,30MonoWAV/30MonoS1.wav,1,1,3,9,,,,,1,8,24,8,0,11,11,3,,,,,,,,,1,0.5362655310018454,095,001,2019_Sep_02_1006,MusicAffectPsychophysiology2019,3.0.5,59.927474928082994,
,,30MonoWAV/30MonoS1.wav,1,1,3,9,,,,,1,8,24,8,,,,,,,,,,,,,,,095,001,2019_Sep_02_1006,MusicAffectPsychophysiology2019,3.0.5,59.927474928082994,
To what extent did the music make you feel ,ANXIOUS ,30MonoWAV/30MonoH4.wav,2,2,1,8,,,,,1,9,25,7,0,0,0,1,,,3,2.7851004900003318,3,2.369859370024642,3,1.4023653650074266,1,1.2398852859914768,095,001,2019_Sep_02_1006,MusicAffectPsychophysiology2019,3.0.5,59.927474928082994,
To what extent did the music make you feel ,FRUSTRATED,30MonoWAV/30MonoH4.wav,2,2,1,8,,,,,1,9,25,7,0,1,1,3,,,,,,,,,1,0.8341108100139536,095,001,2019_Sep_02_1006,MusicAffectPsychophysiology2019,3.0.5,59.927474928082994,
To what extent did the music make you feel ,ACTIVE,30MonoWAV/30MonoH4.wav,2,2,1,8,,,,,1,9,25,7,0,2,2,9,,,,,,,,,3,1.2032604200066999,095,001,2019_Sep_02_1006,MusicAffectPsychophysiology2019,3.0.5,59.927474928082994,
To what extent did the music make you feel ,GUILTY,30MonoWAV/30MonoH4.wav,2,2,1,8,,,,,1,9,25,7,0,3,3,5,,,,,,,,,1,1.0683908589999191,095,001,2019_Sep_02_1006,MusicAffectPsychophysiology2019,3.0.5,59.927474928082994,
To what extent did the music make you feel ,ANGRY,30MonoWAV/30MonoH4.wav,2,2,1,8,,,,,1,9,25,7,0,4,4,2,,,,,,,,,1,1.3524631459731609,095,001,2019_Sep_02_1006,MusicAffectPsychophysiology2019,3.0.5,59.927474928082994,
To what extent did the music make you feel ,ASHAMED,30MonoWAV/30MonoH4.wav,2,2,1,8,,,,,1,9,25,7,0,5,5,4,,,,,,,,,1,0.786653335992014,095,001,2019_Sep_02_1006,MusicAffectPsychophysiology2019,3.0.5,59.927474928082994,
To what extent did the music make you feel ,TENDER,30MonoWAV/30MonoH4.wav,2,2,1,8,,,,,1,9,25,7,0,6,6,10,,,,,,,,,1,3.4229736870038323,095,001,2019_Sep_02_1006,MusicAffectPsychophysiology2019,3.0.5,59.927474928082994,
To what extent did the music make you feel ,HAPPY,30MonoWAV/30MonoH4.wav,2,2,1,8,,,,,1,9,25,7,0,7,7,6,,,,,,,,,3,1.152774665999459,095,001,2019_Sep_02_1006,MusicAffectPsychophysiology2019,3.0.5,59.927474928082994,
To what extent did the music make you feel ,ALERT,30MonoWAV/30MonoH4.wav,2,2,1,8,,,,,1,9,25,7,0,8,8,8,,,,,,,,,3,1.317882497998653,095,001,2019_Sep_02_1006,MusicAffectPsychophysiology2019,3.0.5,59.927474928082994,
To what extent did the music make you feel ,SCARED,30MonoWAV/30MonoH4.wav,2,2,1,8,,,,,1,9,25,7,0,9,9,11,,,,,,,,,1,0.6692387939838227,095,001,2019_Sep_02_1006,MusicAffectPsychophysiology2019,3.0.5,59.927474928082994,
To what extent did the music make you feel ,EXCITED,30MonoWAV/30MonoH4.wav,2,2,1,8,,,,,1,9,25,7,0,10,10,7,,,,,,,,,4,1.3020501369901467,095,001,2019_Sep_02_1006,MusicAffectPsychophysiology2019,3.0.5,59.927474928082994,
To what extent did the music make you feel ,SAD,30MonoWAV/30MonoH4.wav,2,2,1,8,,,,,1,9,25,7,0,11,11,0,,,,,,,,,1,0.8363167610077653,095,001,2019_Sep_02_1006,MusicAffectPsychophysiology2019,3.0.5,59.927474928082994,
,,30MonoWAV/30MonoH4.wav,2,2,1,8,,,,,1,9,25,7,,,,,,,,,,,,,,,095,001,2019_Sep_02_1006,MusicAffectPsychophysiology2019,3.0.5,59.927474928082994,
To what extent did the music make you feel ,ALERT,30MonoWAV/30MonoS2.wav,1,1,3,10,,,,,1,10,26,9,0,0,0,8,,,1,4.119473446975462,2,1.7174290920083877,2,1.5027835539949592,1,1.4872386530041695,095,001,2019_Sep_02_1006,MusicAffectPsychophysiology2019,3.0.5,59.927474928082994,
To what extent did the music make you feel ,FRUSTRATED,30MonoWAV/30MonoS2.wav,1,1,3,10,,,,,1,10,26,9,0,1,1,3,,,,,,,,,1,0.7673908010183368,095,001,2019_Sep_02_1006,MusicAffectPsychophysiology2019,3.0.5,59.927474928082994,
To what extent did the music make you feel ,SCARED,30MonoWAV/30MonoS2.wav,1,1,3,10,,,,,1,10,26,9,0,2,2,11,,,,,,,,,1,0.8852289849892259,095,001,2019_Sep_02_1006,MusicAffectPsychophysiology2019,3.0.5,59.927474928082994,
To what extent did the music make you feel ,ASHAMED,30MonoWAV/30MonoS2.wav,1,1,3,10,,,,,1,10,26,9,0,3,3,4,,,,,,,,,1,2.3534435400215443,095,001,2019_Sep_02_1006,MusicAffectPsychophysiology2019,3.0.5,59.927474928082994,
To what extent did the music make you feel ,HAPPY,30MonoWAV/30MonoS2.wav,1,1,3,10,,,,,1,10,26,9,0,4,4,6,,,,,,,,,1,2.0357983039866667,095,001,2019_Sep_02_1006,MusicAffectPsychophysiology2019,3.0.5,59.927474928082994,
To what extent did the music make you feel ,TENDER,30MonoWAV/30MonoS2.wav,1,1,3,10,,,,,1,10,26,9,0,5,5,10,,,,,,,,,3,1.3189417569956277,095,001,2019_Sep_02_1006,MusicAffectPsychophysiology2019,3.0.5,59.927474928082994,
To what extent did the music make you feel ,GUILTY,30MonoWAV/30MonoS2.wav,1,1,3,10,,,,,1,10,26,9,0,6,6,5,,,,,,,,,1,0.8532211050041951,095,001,2019_Sep_02_1006,MusicAffectPsychophysiology2019,3.0.5,59.927474928082994,
To what extent did the music make you feel ,ANGRY,30MonoWAV/30MonoS2.wav,1,1,3,10,,,,,1,10,26,9,0,7,7,2,,,,,,,,,1,0.9863444569928106,095,001,2019_Sep_02_1006,MusicAffectPsychophysiology2019,3.0.5,59.927474928082994,
To what extent did the music make you feel ,EXCITED,30MonoWAV/30MonoS2.wav,1,1,3,10,,,,,1,10,26,9,0,8,8,7,,,,,,,,,1,1.202618112001801,095,001,2019_Sep_02_1006,MusicAffectPsychophysiology2019,3.0.5,59.927474928082994,
To what extent did the music make you feel ,ACTIVE,30MonoWAV/30MonoS2.wav,1,1,3,10,,,,,1,10,26,9,0,9,9,9,,,,,,,,,1,0.9868183879880235,095,001,2019_Sep_02_1006,MusicAffectPsychophysiology2019,3.0.5,59.927474928082994,
To what extent did the music make you feel ,SAD,30MonoWAV/30MonoS2.wav,1,1,3,10,,,,,1,10,26,9,0,10,10,0,,,,,,,,,2,0.9869844579952769,095,001,2019_Sep_02_1006,MusicAffectPsychophysiology2019,3.0.5,59.927474928082994,
To what extent did the music make you feel ,ANXIOUS ,30MonoWAV/30MonoS2.wav,1,1,3,10,,,,,1,10,26,9,0,11,11,1,,,,,,,,,1,1.2027674359851517,095,001,2019_Sep_02_1006,MusicAffectPsychophysiology2019,3.0.5,59.927474928082994,
,,30MonoWAV/30MonoS2.wav,1,1,3,10,,,,,1,10,26,9,,,,,,,,,,,,,,,095,001,2019_Sep_02_1006,MusicAffectPsychophysiology2019,3.0.5,59.927474928082994,
To what extent did the music make you feel ,SAD,30MonoWAV/30MonoF1.wav,1,2,2,1,,,,,1,11,27,0,0,0,0,0,,,3,3.719286000006832,1,1.1358983569953125,1,1.1362500050163362,1,2.0263350940076634,095,001,2019_Sep_02_1006,MusicAffectPsychophysiology2019,3.0.5,59.927474928082994,
To what extent did the music make you feel ,ALERT,30MonoWAV/30MonoF1.wav,1,2,2,1,,,,,1,11,27,0,0,1,1,8,,,,,,,,,4,1.1535137759929057,095,001,2019_Sep_02_1006,MusicAffectPsychophysiology2019,3.0.5,59.927474928082994,
To what extent did the music make you feel ,TENDER,30MonoWAV/30MonoF1.wav,1,2,2,1,,,,,1,11,27,0,0,2,2,10,,,,,,,,,1,0.8860582640045322,095,001,2019_Sep_02_1006,MusicAffectPsychophysiology2019,3.0.5,59.927474928082994,
To what extent did the music make you feel ,GUILTY,30MonoWAV/30MonoF1.wav,1,2,2,1,,,,,1,11,27,0,0,3,3,5,,,,,,,,,1,0.8856392519955989,095,001,2019_Sep_02_1006,MusicAffectPsychophysiology2019,3.0.5,59.927474928082994,
To what extent did the music make you feel ,ANXIOUS ,30MonoWAV/30MonoF1.wav,1,2,2,1,,,,,1,11,27,0,0,4,4,1,,,,,,,,,3,2.235144799022237,095,001,2019_Sep_02_1006,MusicAffectPsychophysiology2019,3.0.5,59.927474928082994,
To what extent did the music make you feel ,HAPPY,30MonoWAV/30MonoF1.wav,1,2,2,1,,,,,1,11,27,0,0,5,5,6,,,,,,,,,1,0.7366348290233873,095,001,2019_Sep_02_1006,MusicAffectPsychophysiology2019,3.0.5,59.927474928082994,
To what extent did the music make you feel ,ASHAMED,30MonoWAV/30MonoF1.wav,1,2,2,1,,,,,1,11,27,0,0,6,6,4,,,,,,,,,1,0.8352988219994586,095,001,2019_Sep_02_1006,MusicAffectPsychophysiology2019,3.0.5,59.927474928082994,
To what extent did the music make you feel ,FRUSTRATED,30MonoWAV/30MonoF1.wav,1,2,2,1,,,,,1,11,27,0,0,7,7,3,,,,,,,,,1,0.7099379760038573,095,001,2019_Sep_02_1006,MusicAffectPsychophysiology2019,3.0.5,59.927474928082994,
To what extent did the music make you feel ,ACTIVE,30MonoWAV/30MonoF1.wav,1,2,2,1,,,,,1,11,27,0,0,8,8,9,,,,,,,,,2,0.9999336549954023,095,001,2019_Sep_02_1006,MusicAffectPsychophysiology2019,3.0.5,59.927474928082994,
To what extent did the music make you feel ,ANGRY,30MonoWAV/30MonoF1.wav,1,2,2,1,,,,,1,11,27,0,0,9,9,2,,,,,,,,,1,1.135875998006668,095,001,2019_Sep_02_1006,MusicAffectPsychophysiology2019,3.0.5,59.927474928082994,
To what extent did the music make you feel ,EXCITED,30MonoWAV/30MonoF1.wav,1,2,2,1,,,,,1,11,27,0,0,10,10,7,,,,,,,,,1,1.737036700011231,095,001,2019_Sep_02_1006,MusicAffectPsychophysiology2019,3.0.5,59.927474928082994,
To what extent did the music make you feel ,SCARED,30MonoWAV/30MonoF1.wav,1,2,2,1,,,,,1,11,27,0,0,11,11,11,,,,,,,,,2,1.0999661390087567,095,001,2019_Sep_02_1006,MusicAffectPsychophysiology2019,3.0.5,59.927474928082994,
,,30MonoWAV/30MonoF1.wav,1,2,2,1,,,,,1,11,27,0,,,,,,,,,,,,,,,095,001,2019_Sep_02_1006,MusicAffectPsychophysiology2019,3.0.5,59.927474928082994,
To what extent did the music make you feel ,ANXIOUS ,30MonoWAV/30MonoT1.wav,2,1,4,13,,,,,1,12,28,12,0,0,0,1,,,1,20.49787675999687,2,1.5355396179948002,2,7.085757499997271,1,1.4017662309925072,095,001,2019_Sep_02_1006,MusicAffectPsychophysiology2019,3.0.5,59.927474928082994,
To what extent did the music make you feel ,TENDER,30MonoWAV/30MonoT1.wav,2,1,4,13,,,,,1,12,28,12,0,1,1,10,,,,,,,,,3,1.3683448630035855,095,001,2019_Sep_02_1006,MusicAffectPsychophysiology2019,3.0.5,59.927474928082994,
To what extent did the music make you feel ,SAD,30MonoWAV/30MonoT1.wav,2,1,4,13,,,,,1,12,28,12,0,2,2,0,,,,,,,,,1,1.1686887700052466,095,001,2019_Sep_02_1006,MusicAffectPsychophysiology2019,3.0.5,59.927474928082994,
To what extent did the music make you feel ,HAPPY,30MonoWAV/30MonoT1.wav,2,1,4,13,,,,,1,12,28,12,0,3,3,6,,,,,,,,,2,2.469529182999395,095,001,2019_Sep_02_1006,MusicAffectPsychophysiology2019,3.0.5,59.927474928082994,
To what extent did the music make you feel ,FRUSTRATED,30MonoWAV/30MonoT1.wav,2,1,4,13,,,,,1,12,28,12,0,4,4,3,,,,,,,,,1,1.1341429600142874,095,001,2019_Sep_02_1006,MusicAffectPsychophysiology2019,3.0.5,59.927474928082994,
To what extent did the music make you feel ,SCARED,30MonoWAV/30MonoT1.wav,2,1,4,13,,,,,1,12,28,12,0,5,5,11,,,,,,,,,1,0.6187089059967548,095,001,2019_Sep_02_1006,MusicAffectPsychophysiology2019,3.0.5,59.927474928082994,
To what extent did the music make you feel ,ASHAMED,30MonoWAV/30MonoT1.wav,2,1,4,13,,,,,1,12,28,12,0,6,6,4,,,,,,,,,1,0.5189223340130411,095,001,2019_Sep_02_1006,MusicAffectPsychophysiology2019,3.0.5,59.927474928082994,
To what extent did the music make you feel ,ACTIVE,30MonoWAV/30MonoT1.wav,2,1,4,13,,,,,1,12,28,12,0,7,7,9,,,,,,,,,1,1.169662216998404,095,001,2019_Sep_02_1006,MusicAffectPsychophysiology2019,3.0.5,59.927474928082994,
To what extent did the music make you feel ,GUILTY,30MonoWAV/30MonoT1.wav,2,1,4,13,,,,,1,12,28,12,0,8,8,5,,,,,,,,,1,1.5359453790006228,095,001,2019_Sep_02_1006,MusicAffectPsychophysiology2019,3.0.5,59.927474928082994,
To what extent did the music make you feel ,ALERT,30MonoWAV/30MonoT1.wav,2,1,4,13,,,,,1,12,28,12,0,9,9,8,,,,,,,,,1,1.5863594719849061,095,001,2019_Sep_02_1006,MusicAffectPsychophysiology2019,3.0.5,59.927474928082994,
To what extent did the music make you feel ,EXCITED,30MonoWAV/30MonoT1.wav,2,1,4,13,,,,,1,12,28,12,0,10,10,7,,,,,,,,,1,1.068989766004961,095,001,2019_Sep_02_1006,MusicAffectPsychophysiology2019,3.0.5,59.927474928082994,
To what extent did the music make you feel ,ANGRY,30MonoWAV/30MonoT1.wav,2,1,4,13,,,,,1,12,28,12,0,11,11,2,,,,,,,,,1,1.4697854540136177,095,001,2019_Sep_02_1006,MusicAffectPsychophysiology2019,3.0.5,59.927474928082994,
,,30MonoWAV/30MonoT1.wav,2,1,4,13,,,,,1,12,28,12,,,,,,,,,,,,,,,095,001,2019_Sep_02_1006,MusicAffectPsychophysiology2019,3.0.5,59.927474928082994,
To what extent did the music make you feel ,SCARED,30MonoWAV/30MonoH2.wav,2,2,1,6,,,,,1,13,29,5,0,0,0,11,,,3,3.1695509479905013,3,1.0022244499996305,2,1.2525226830039173,1,1.1771652329771314,095,001,2019_Sep_02_1006,MusicAffectPsychophysiology2019,3.0.5,59.927474928082994,
To what extent did the music make you feel ,HAPPY,30MonoWAV/30MonoH2.wav,2,2,1,6,,,,,1,13,29,5,0,1,1,6,,,,,,,,,2,1.986720985994907,095,001,2019_Sep_02_1006,MusicAffectPsychophysiology2019,3.0.5,59.927474928082994,
To what extent did the music make you feel ,SAD,30MonoWAV/30MonoH2.wav,2,2,1,6,,,,,1,13,29,5,0,2,2,0,,,,,,,,,1,0.6524689240031876,095,001,2019_Sep_02_1006,MusicAffectPsychophysiology2019,3.0.5,59.927474928082994,
To what extent did the music make you feel ,ACTIVE,30MonoWAV/30MonoH2.wav,2,2,1,6,,,,,1,13,29,5,0,3,3,9,,,,,,,,,3,1.0671687969879713,095,001,2019_Sep_02_1006,MusicAffectPsychophysiology2019,3.0.5,59.927474928082994,
To what extent did the music make you feel ,FRUSTRATED,30MonoWAV/30MonoH2.wav,2,2,1,6,,,,,1,13,29,5,0,4,4,3,,,,,,,,,1,0.7526447730197106,095,001,2019_Sep_02_1006,MusicAffectPsychophysiology2019,3.0.5,59.927474928082994,
To what extent did the music make you feel ,TENDER,30MonoWAV/30MonoH2.wav,2,2,1,6,,,,,1,13,29,5,0,5,5,10,,,,,,,,,1,1.035966247000033,095,001,2019_Sep_02_1006,MusicAffectPsychophysiology2019,3.0.5,59.927474928082994,
To what extent did the music make you feel ,ANGRY,30MonoWAV/30MonoH2.wav,2,2,1,6,,,,,1,13,29,5,0,6,6,2,,,,,,,,,1,0.9188608090043999,095,001,2019_Sep_02_1006,MusicAffectPsychophysiology2019,3.0.5,59.927474928082994,
To what extent did the music make you feel ,ASHAMED,30MonoWAV/30MonoH2.wav,2,2,1,6,,,,,1,13,29,5,0,7,7,4,,,,,,,,,1,0.870867610006826,095,001,2019_Sep_02_1006,MusicAffectPsychophysiology2019,3.0.5,59.927474928082994,
To what extent did the music make you feel ,GUILTY,30MonoWAV/30MonoH2.wav,2,2,1,6,,,,,1,13,29,5,0,8,8,5,,,,,,,,,1,0.6527575129875913,095,001,2019_Sep_02_1006,MusicAffectPsychophysiology2019,3.0.5,59.927474928082994,
To what extent did the music make you feel ,ALERT,30MonoWAV/30MonoH2.wav,2,2,1,6,,,,,1,13,29,5,0,9,9,8,,,,,,,,,2,1.0707263350195717,095,001,2019_Sep_02_1006,MusicAffectPsychophysiology2019,3.0.5,59.927474928082994,
To what extent did the music make you feel ,ANXIOUS ,30MonoWAV/30MonoH2.wav,2,2,1,6,,,,,1,13,29,5,0,10,10,1,,,,,,,,,1,0.502797738998197,095,001,2019_Sep_02_1006,MusicAffectPsychophysiology2019,3.0.5,59.927474928082994,
To what extent did the music make you feel ,EXCITED,30MonoWAV/30MonoH2.wav,2,2,1,6,,,,,1,13,29,5,0,11,11,7,,,,,,,,,3,1.2203037630242761,095,001,2019_Sep_02_1006,MusicAffectPsychophysiology2019,3.0.5,59.927474928082994,
,,30MonoWAV/30MonoH2.wav,2,2,1,6,,,,,1,13,29,5,,,,,,,,,,,,,,,095,001,2019_Sep_02_1006,MusicAffectPsychophysiology2019,3.0.5,59.927474928082994,
To what extent did the music make you feel ,HAPPY,30MonoWAV/30MonoF4.wav,1,2,2,4,,,,,1,14,30,3,0,0,0,6,,,2,3.519777588022407,1,3.202783818007447,1,1.0029609329940286,1,1.2033094170037657,095,001,2019_Sep_02_1006,MusicAffectPsychophysiology2019,3.0.5,59.927474928082994,
To what extent did the music make you feel ,ANGRY,30MonoWAV/30MonoF4.wav,1,2,2,4,,,,,1,14,30,3,0,1,1,2,,,,,,,,,1,1.0507693630061112,095,001,2019_Sep_02_1006,MusicAffectPsychophysiology2019,3.0.5,59.927474928082994,
To what extent did the music make you feel ,SAD,30MonoWAV/30MonoF4.wav,1,2,2,4,,,,,1,14,30,3,0,2,2,0,,,,,,,,,1,6.2359523350023665,095,001,2019_Sep_02_1006,MusicAffectPsychophysiology2019,3.0.5,59.927474928082994,
To what extent did the music make you feel ,GUILTY,30MonoWAV/30MonoF4.wav,1,2,2,4,,,,,1,14,30,3,0,3,3,5,,,,,,,,,1,0.883771949011134,095,001,2019_Sep_02_1006,MusicAffectPsychophysiology2019,3.0.5,59.927474928082994,
To what extent did the music make you feel ,TENDER,30MonoWAV/30MonoF4.wav,1,2,2,4,,,,,1,14,30,3,0,4,4,10,,,,,,,,,1,0.6035663440125063,095,001,2019_Sep_02_1006,MusicAffectPsychophysiology2019,3.0.5,59.927474928082994,
To what extent did the music make you feel ,FRUSTRATED,30MonoWAV/30MonoF4.wav,1,2,2,4,,,,,1,14,30,3,0,5,5,3,,,,,,,,,1,0.6860566139803268,095,001,2019_Sep_02_1006,MusicAffectPsychophysiology2019,3.0.5,59.927474928082994,
To what extent did the music make you feel ,ASHAMED,30MonoWAV/30MonoF4.wav,1,2,2,4,,,,,1,14,30,3,0,6,6,4,,,,,,,,,1,0.5517461279814597,095,001,2019_Sep_02_1006,MusicAffectPsychophysiology2019,3.0.5,59.927474928082994,
To what extent did the music make you feel ,ANXIOUS ,30MonoWAV/30MonoF4.wav,1,2,2,4,,,,,1,14,30,3,0,7,7,1,,,,,,,,,3,1.1874950650089886,095,001,2019_Sep_02_1006,MusicAffectPsychophysiology2019,3.0.5,59.927474928082994,
To what extent did the music make you feel ,ALERT,30MonoWAV/30MonoF4.wav,1,2,2,4,,,,,1,14,30,3,0,8,8,8,,,,,,,,,3,1.0356483959767502,095,001,2019_Sep_02_1006,MusicAffectPsychophysiology2019,3.0.5,59.927474928082994,
To what extent did the music make you feel ,SCARED,30MonoWAV/30MonoF4.wav,1,2,2,4,,,,,1,14,30,3,0,9,9,11,,,,,,,,,2,1.0675636480154935,095,001,2019_Sep_02_1006,MusicAffectPsychophysiology2019,3.0.5,59.927474928082994,
To what extent did the music make you feel ,EXCITED,30MonoWAV/30MonoF4.wav,1,2,2,4,,,,,1,14,30,3,0,10,10,7,,,,,,,,,1,0.9671606740157586,095,001,2019_Sep_02_1006,MusicAffectPsychophysiology2019,3.0.5,59.927474928082994,
To what extent did the music make you feel ,ACTIVE,30MonoWAV/30MonoF4.wav,1,2,2,4,,,,,1,14,30,3,0,11,11,9,,,,,,,,,2,1.069483033992583,095,001,2019_Sep_02_1006,MusicAffectPsychophysiology2019,3.0.5,59.927474928082994,
,,30MonoWAV/30MonoF4.wav,1,2,2,4,,,,,1,14,30,3,,,,,,,,,,,,,,,095,001,2019_Sep_02_1006,MusicAffectPsychophysiology2019,3.0.5,59.927474928082994,
To what extent did the music make you feel ,TENDER,30MonoWAV/30MonoS3.wav,1,1,3,11,,,,,1,15,31,10,0,0,0,10,,,1,3.920137495995732,1,1.6202097150089685,1,1.619033541996032,2,1.6322400500066578,095,001,2019_Sep_02_1006,MusicAffectPsychophysiology2019,3.0.5,59.927474928082994,
To what extent did the music make you feel ,ALERT,30MonoWAV/30MonoS3.wav,1,1,3,11,,,,,1,15,31,10,0,1,1,8,,,,,,,,,1,1.4181697919848375,095,001,2019_Sep_02_1006,MusicAffectPsychophysiology2019,3.0.5,59.927474928082994,
To what extent did the music make you feel ,FRUSTRATED,30MonoWAV/30MonoS3.wav,1,1,3,11,,,,,1,15,31,10,0,2,2,3,,,,,,,,,1,0.936003285984043,095,001,2019_Sep_02_1006,MusicAffectPsychophysiology2019,3.0.5,59.927474928082994,
To what extent did the music make you feel ,ANGRY,30MonoWAV/30MonoS3.wav,1,1,3,11,,,,,1,15,31,10,0,3,3,2,,,,,,,,,1,0.8874357730092015,095,001,2019_Sep_02_1006,MusicAffectPsychophysiology2019,3.0.5,59.927474928082994,
To what extent did the music make you feel ,SAD,30MonoWAV/30MonoS3.wav,1,1,3,11,,,,,1,15,31,10,0,4,4,0,,,,,,,,,3,1.2030894529889338,095,001,2019_Sep_02_1006,MusicAffectPsychophysiology2019,3.0.5,59.927474928082994,
To what extent did the music make you feel ,GUILTY,30MonoWAV/30MonoS3.wav,1,1,3,11,,,,,1,15,31,10,0,5,5,5,,,,,,,,,1,0.8844403020048048,095,001,2019_Sep_02_1006,MusicAffectPsychophysiology2019,3.0.5,59.927474928082994,
To what extent did the music make you feel ,SCARED,30MonoWAV/30MonoS3.wav,1,1,3,11,,,,,1,15,31,10,0,6,6,11,,,,,,,,,1,2.852004331012722,095,001,2019_Sep_02_1006,MusicAffectPsychophysiology2019,3.0.5,59.927474928082994,
To what extent did the music make you feel ,EXCITED,30MonoWAV/30MonoS3.wav,1,1,3,11,,,,,1,15,31,10,0,7,7,7,,,,,,,,,1,0.9525306849973276,095,001,2019_Sep_02_1006,MusicAffectPsychophysiology2019,3.0.5,59.927474928082994,
To what extent did the music make you feel ,ACTIVE,30MonoWAV/30MonoS3.wav,1,1,3,11,,,,,1,15,31,10,0,8,8,9,,,,,,,,,1,1.8518678969994653,095,001,2019_Sep_02_1006,MusicAffectPsychophysiology2019,3.0.5,59.927474928082994,
To what extent did the music make you feel ,ANXIOUS ,30MonoWAV/30MonoS3.wav,1,1,3,11,,,,,1,15,31,10,0,9,9,1,,,,,,,,,2,1.31704461100162,095,001,2019_Sep_02_1006,MusicAffectPsychophysiology2019,3.0.5,59.927474928082994,
To what extent did the music make you feel ,ASHAMED,30MonoWAV/30MonoS3.wav,1,1,3,11,,,,,1,15,31,10,0,10,10,4,,,,,,,,,1,0.8861399879970122,095,001,2019_Sep_02_1006,MusicAffectPsychophysiology2019,3.0.5,59.927474928082994,
To what extent did the music make you feel ,HAPPY,30MonoWAV/30MonoS3.wav,1,1,3,11,,,,,1,15,31,10,0,11,11,6,,,,,,,,,1,0.9857408440147992,095,001,2019_Sep_02_1006,MusicAffectPsychophysiology2019,3.0.5,59.927474928082994,
,,30MonoWAV/30MonoS3.wav,1,1,3,11,,,,,1,15,31,10,,,,,,,,,,,,,,,095,001,2019_Sep_02_1006,MusicAffectPsychophysiology2019,3.0.5,59.927474928082994,
