Instruction,Word,song,valence,arousal,affectcat,songmark,pracwords.thisRepN,pracwords.thisTrialN,pracwords.thisN,pracwords.thisIndex,songtrials.thisRepN,songtrials.thisTrialN,songtrials.thisN,songtrials.thisIndex,words.thisRepN,words.thisTrialN,words.thisN,words.thisIndex,begin.keys,begin.rt,arousalkey.keys,arousalkey.rt,valencekey.keys,valencekey.rt,likekey.keys,likekey.rt,WordResponse.keys,WordResponse.rt,participant,session,date,expName,psychopyVersion,frameRate,
,,,,,,,,,,,,,,,,,,,space,13.086263241013512,,,,,,,,,096,001,2019_Sep_02_1108,MusicAffectPsychophysiology2019,3.0.5,59.80498086717834,
,,,,,,,,,,,,,,,,,,,,,3,5.071267769992119,,,,,,,096,001,2019_Sep_02_1108,MusicAffectPsychophysiology2019,3.0.5,59.80498086717834,
,,,,,,,,,,,,,,,,,,,,,,,4,6.486158357991371,,,,,096,001,2019_Sep_02_1108,MusicAffectPsychophysiology2019,3.0.5,59.80498086717834,
,,,,,,,,,,,,,,,,,,,,,,,,,3,2.737682076985948,,,096,001,2019_Sep_02_1108,MusicAffectPsychophysiology2019,3.0.5,59.80498086717834,
To what extent did the music make you feel ,ALERT,,,,,,0,0,0,8,,,,,,,,,,,,,,,,,3,5.9864076919911895,096,001,2019_Sep_02_1108,MusicAffectPsychophysiology2019,3.0.5,59.80498086717834,
To what extent did the music make you feel ,TENDER,,,,,,0,1,1,10,,,,,,,,,,,,,,,,,2,3.2748765950091183,096,001,2019_Sep_02_1108,MusicAffectPsychophysiology2019,3.0.5,59.80498086717834,
To what extent did the music make you feel ,EXCITED,,,,,,0,2,2,7,,,,,,,,,,,,,,,,,1,3.841678583994508,096,001,2019_Sep_02_1108,MusicAffectPsychophysiology2019,3.0.5,59.80498086717834,
To what extent did the music make you feel ,ASHAMED,,,,,,0,3,3,4,,,,,,,,,,,,,,,,,1,1.7204232290096115,096,001,2019_Sep_02_1108,MusicAffectPsychophysiology2019,3.0.5,59.80498086717834,
To what extent did the music make you feel ,GUILTY,,,,,,0,4,4,5,,,,,,,,,,,,,,,,,1,1.0753973089740612,096,001,2019_Sep_02_1108,MusicAffectPsychophysiology2019,3.0.5,59.80498086717834,
To what extent did the music make you feel ,ACTIVE,,,,,,0,5,5,9,,,,,,,,,,,,,,,,,3,2.135118734993739,096,001,2019_Sep_02_1108,MusicAffectPsychophysiology2019,3.0.5,59.80498086717834,
To what extent did the music make you feel ,ANGRY,,,,,,0,6,6,2,,,,,,,,,,,,,,,,,1,1.15260451901122,096,001,2019_Sep_02_1108,MusicAffectPsychophysiology2019,3.0.5,59.80498086717834,
To what extent did the music make you feel ,HAPPY,,,,,,0,7,7,6,,,,,,,,,,,,,,,,,1,5.402340770990122,096,001,2019_Sep_02_1108,MusicAffectPsychophysiology2019,3.0.5,59.80498086717834,
To what extent did the music make you feel ,SAD,,,,,,0,8,8,0,,,,,,,,,,,,,,,,,1,1.2843452770030126,096,001,2019_Sep_02_1108,MusicAffectPsychophysiology2019,3.0.5,59.80498086717834,
To what extent did the music make you feel ,SCARED,,,,,,0,9,9,11,,,,,,,,,,,,,,,,,1,0.7671132610121276,096,001,2019_Sep_02_1108,MusicAffectPsychophysiology2019,3.0.5,59.80498086717834,
To what extent did the music make you feel ,ANXIOUS ,,,,,,0,10,10,1,,,,,,,,,,,,,,,,,1,0.7855303519754671,096,001,2019_Sep_02_1108,MusicAffectPsychophysiology2019,3.0.5,59.80498086717834,
To what extent did the music make you feel ,FRUSTRATED,,,,,,0,11,11,3,,,,,,,,,,,,,,,,,1,0.8550716760219075,096,001,2019_Sep_02_1108,MusicAffectPsychophysiology2019,3.0.5,59.80498086717834,
To what extent did the music make you feel ,SAD,30MonoWAV/30MonoF1.wav,1,2,2,1,,,,,0,0,0,0,0,0,0,0,,,4,10.368397904006997,1,4.13569099700544,1,2.5029920780216344,1,2.319085046998225,096,001,2019_Sep_02_1108,MusicAffectPsychophysiology2019,3.0.5,59.80498086717834,
To what extent did the music make you feel ,SCARED,30MonoWAV/30MonoF1.wav,1,2,2,1,,,,,0,0,0,0,0,1,1,11,,,,,,,,,1,0.6539426449744496,096,001,2019_Sep_02_1108,MusicAffectPsychophysiology2019,3.0.5,59.80498086717834,
To what extent did the music make you feel ,ACTIVE,30MonoWAV/30MonoF1.wav,1,2,2,1,,,,,0,0,0,0,0,2,2,9,,,,,,,,,3,2.165989447006723,096,001,2019_Sep_02_1108,MusicAffectPsychophysiology2019,3.0.5,59.80498086717834,
To what extent did the music make you feel ,ANGRY,30MonoWAV/30MonoF1.wav,1,2,2,1,,,,,0,0,0,0,0,3,3,2,,,,,,,,,1,0.8687588949978817,096,001,2019_Sep_02_1108,MusicAffectPsychophysiology2019,3.0.5,59.80498086717834,
To what extent did the music make you feel ,ALERT,30MonoWAV/30MonoF1.wav,1,2,2,1,,,,,0,0,0,0,0,4,4,8,,,,,,,,,4,3.602187315991614,096,001,2019_Sep_02_1108,MusicAffectPsychophysiology2019,3.0.5,59.80498086717834,
To what extent did the music make you feel ,ASHAMED,30MonoWAV/30MonoF1.wav,1,2,2,1,,,,,0,0,0,0,0,5,5,4,,,,,,,,,1,1.1195568310213275,096,001,2019_Sep_02_1108,MusicAffectPsychophysiology2019,3.0.5,59.80498086717834,
To what extent did the music make you feel ,GUILTY,30MonoWAV/30MonoF1.wav,1,2,2,1,,,,,0,0,0,0,0,6,6,5,,,,,,,,,1,0.8189819429826457,096,001,2019_Sep_02_1108,MusicAffectPsychophysiology2019,3.0.5,59.80498086717834,
To what extent did the music make you feel ,TENDER,30MonoWAV/30MonoF1.wav,1,2,2,1,,,,,0,0,0,0,0,7,7,10,,,,,,,,,1,1.6185822100087535,096,001,2019_Sep_02_1108,MusicAffectPsychophysiology2019,3.0.5,59.80498086717834,
To what extent did the music make you feel ,ANXIOUS ,30MonoWAV/30MonoF1.wav,1,2,2,1,,,,,0,0,0,0,0,8,8,1,,,,,,,,,1,1.019224341987865,096,001,2019_Sep_02_1108,MusicAffectPsychophysiology2019,3.0.5,59.80498086717834,
To what extent did the music make you feel ,EXCITED,30MonoWAV/30MonoF1.wav,1,2,2,1,,,,,0,0,0,0,0,9,9,7,,,,,,,,,1,1.3527643689885736,096,001,2019_Sep_02_1108,MusicAffectPsychophysiology2019,3.0.5,59.80498086717834,
To what extent did the music make you feel ,HAPPY,30MonoWAV/30MonoF1.wav,1,2,2,1,,,,,0,0,0,0,0,10,10,6,,,,,,,,,1,0.8521941119979601,096,001,2019_Sep_02_1108,MusicAffectPsychophysiology2019,3.0.5,59.80498086717834,
To what extent did the music make you feel ,FRUSTRATED,30MonoWAV/30MonoF1.wav,1,2,2,1,,,,,0,0,0,0,0,11,11,3,,,,,,,,,1,1.00420441001188,096,001,2019_Sep_02_1108,MusicAffectPsychophysiology2019,3.0.5,59.80498086717834,
,,30MonoWAV/30MonoF1.wav,1,2,2,1,,,,,0,0,0,0,,,,,,,,,,,,,,,096,001,2019_Sep_02_1108,MusicAffectPsychophysiology2019,3.0.5,59.80498086717834,
To what extent did the music make you feel ,FRUSTRATED,30MonoWAV/30MonoT4.wav,2,1,4,16,,,,,0,1,1,15,0,0,0,3,,,4,4.35298995001358,5,1.9024301110184751,5,2.4197599370090757,1,1.5858814239909407,096,001,2019_Sep_02_1108,MusicAffectPsychophysiology2019,3.0.5,59.80498086717834,
To what extent did the music make you feel ,TENDER,30MonoWAV/30MonoT4.wav,2,1,4,16,,,,,0,1,1,15,0,1,1,10,,,,,,,,,4,2.032743826013757,096,001,2019_Sep_02_1108,MusicAffectPsychophysiology2019,3.0.5,59.80498086717834,
To what extent did the music make you feel ,ALERT,30MonoWAV/30MonoT4.wav,2,1,4,16,,,,,0,1,1,15,0,2,2,8,,,,,,,,,4,2.0196638280176558,096,001,2019_Sep_02_1108,MusicAffectPsychophysiology2019,3.0.5,59.80498086717834,
To what extent did the music make you feel ,GUILTY,30MonoWAV/30MonoT4.wav,2,1,4,16,,,,,0,1,1,15,0,3,3,5,,,,,,,,,1,0.9200316100032069,096,001,2019_Sep_02_1108,MusicAffectPsychophysiology2019,3.0.5,59.80498086717834,
To what extent did the music make you feel ,ANGRY,30MonoWAV/30MonoT4.wav,2,1,4,16,,,,,0,1,1,15,0,4,4,2,,,,,,,,,1,0.6599228380073328,096,001,2019_Sep_02_1108,MusicAffectPsychophysiology2019,3.0.5,59.80498086717834,
To what extent did the music make you feel ,ANXIOUS ,30MonoWAV/30MonoT4.wav,2,1,4,16,,,,,0,1,1,15,0,5,5,1,,,,,,,,,1,0.593077462981455,096,001,2019_Sep_02_1108,MusicAffectPsychophysiology2019,3.0.5,59.80498086717834,
To what extent did the music make you feel ,SAD,30MonoWAV/30MonoT4.wav,2,1,4,16,,,,,0,1,1,15,0,6,6,0,,,,,,,,,1,0.6190919090004172,096,001,2019_Sep_02_1108,MusicAffectPsychophysiology2019,3.0.5,59.80498086717834,
To what extent did the music make you feel ,ACTIVE,30MonoWAV/30MonoT4.wav,2,1,4,16,,,,,0,1,1,15,0,7,7,9,,,,,,,,,4,1.6695454739965498,096,001,2019_Sep_02_1108,MusicAffectPsychophysiology2019,3.0.5,59.80498086717834,
To what extent did the music make you feel ,HAPPY,30MonoWAV/30MonoT4.wav,2,1,4,16,,,,,0,1,1,15,0,8,8,6,,,,,,,,,4,1.268595016998006,096,001,2019_Sep_02_1108,MusicAffectPsychophysiology2019,3.0.5,59.80498086717834,
To what extent did the music make you feel ,EXCITED,30MonoWAV/30MonoT4.wav,2,1,4,16,,,,,0,1,1,15,0,9,9,7,,,,,,,,,3,2.2514485959836747,096,001,2019_Sep_02_1108,MusicAffectPsychophysiology2019,3.0.5,59.80498086717834,
To what extent did the music make you feel ,SCARED,30MonoWAV/30MonoT4.wav,2,1,4,16,,,,,0,1,1,15,0,10,10,11,,,,,,,,,1,0.8666405219992157,096,001,2019_Sep_02_1108,MusicAffectPsychophysiology2019,3.0.5,59.80498086717834,
To what extent did the music make you feel ,ASHAMED,30MonoWAV/30MonoT4.wav,2,1,4,16,,,,,0,1,1,15,0,11,11,4,,,,,,,,,1,0.7028298189979978,096,001,2019_Sep_02_1108,MusicAffectPsychophysiology2019,3.0.5,59.80498086717834,
,,30MonoWAV/30MonoT4.wav,2,1,4,16,,,,,0,1,1,15,,,,,,,,,,,,,,,096,001,2019_Sep_02_1108,MusicAffectPsychophysiology2019,3.0.5,59.80498086717834,
To what extent did the music make you feel ,ALERT,30MonoWAV/30MonoF4.wav,1,2,2,4,,,,,0,2,2,3,0,0,0,8,,,4,5.5351365969982,1,3.9855721030035056,2,2.551817862986354,5,2.3028153390041552,096,001,2019_Sep_02_1108,MusicAffectPsychophysiology2019,3.0.5,59.80498086717834,
To what extent did the music make you feel ,SAD,30MonoWAV/30MonoF4.wav,1,2,2,4,,,,,0,2,2,3,0,1,1,0,,,,,,,,,1,0.9344316560018342,096,001,2019_Sep_02_1108,MusicAffectPsychophysiology2019,3.0.5,59.80498086717834,
To what extent did the music make you feel ,FRUSTRATED,30MonoWAV/30MonoF4.wav,1,2,2,4,,,,,0,2,2,3,0,2,2,3,,,,,,,,,1,0.8692880460002925,096,001,2019_Sep_02_1108,MusicAffectPsychophysiology2019,3.0.5,59.80498086717834,
To what extent did the music make you feel ,ACTIVE,30MonoWAV/30MonoF4.wav,1,2,2,4,,,,,0,2,2,3,0,3,3,9,,,,,,,,,1,1.7335466500080656,096,001,2019_Sep_02_1108,MusicAffectPsychophysiology2019,3.0.5,59.80498086717834,
To what extent did the music make you feel ,ANXIOUS ,30MonoWAV/30MonoF4.wav,1,2,2,4,,,,,0,2,2,3,0,4,4,1,,,,,,,,,1,1.1866352470242418,096,001,2019_Sep_02_1108,MusicAffectPsychophysiology2019,3.0.5,59.80498086717834,
To what extent did the music make you feel ,ASHAMED,30MonoWAV/30MonoF4.wav,1,2,2,4,,,,,0,2,2,3,0,5,5,4,,,,,,,,,1,0.7357949900033418,096,001,2019_Sep_02_1108,MusicAffectPsychophysiology2019,3.0.5,59.80498086717834,
To what extent did the music make you feel ,ANGRY,30MonoWAV/30MonoF4.wav,1,2,2,4,,,,,0,2,2,3,0,6,6,2,,,,,,,,,1,0.6176192619896028,096,001,2019_Sep_02_1108,MusicAffectPsychophysiology2019,3.0.5,59.80498086717834,
To what extent did the music make you feel ,SCARED,30MonoWAV/30MonoF4.wav,1,2,2,4,,,,,0,2,2,3,0,7,7,11,,,,,,,,,1,0.9191954270063434,096,001,2019_Sep_02_1108,MusicAffectPsychophysiology2019,3.0.5,59.80498086717834,
To what extent did the music make you feel ,EXCITED,30MonoWAV/30MonoF4.wav,1,2,2,4,,,,,0,2,2,3,0,8,8,7,,,,,,,,,1,2.48520223601372,096,001,2019_Sep_02_1108,MusicAffectPsychophysiology2019,3.0.5,59.80498086717834,
To what extent did the music make you feel ,GUILTY,30MonoWAV/30MonoF4.wav,1,2,2,4,,,,,0,2,2,3,0,9,9,5,,,,,,,,,1,0.6188893619982991,096,001,2019_Sep_02_1108,MusicAffectPsychophysiology2019,3.0.5,59.80498086717834,
To what extent did the music make you feel ,HAPPY,30MonoWAV/30MonoF4.wav,1,2,2,4,,,,,0,2,2,3,0,10,10,6,,,,,,,,,1,1.1030511740245856,096,001,2019_Sep_02_1108,MusicAffectPsychophysiology2019,3.0.5,59.80498086717834,
To what extent did the music make you feel ,TENDER,30MonoWAV/30MonoF4.wav,1,2,2,4,,,,,0,2,2,3,0,11,11,10,,,,,,,,,1,1.734653752995655,096,001,2019_Sep_02_1108,MusicAffectPsychophysiology2019,3.0.5,59.80498086717834,
,,30MonoWAV/30MonoF4.wav,1,2,2,4,,,,,0,2,2,3,,,,,,,,,,,,,,,096,001,2019_Sep_02_1108,MusicAffectPsychophysiology2019,3.0.5,59.80498086717834,
To what extent did the music make you feel ,SCARED,30MonoWAV/30MonoS1.wav,1,1,3,9,,,,,0,3,3,8,0,0,0,11,,,1,3.803073666000273,1,2.085753018996911,2,2.2353658670035657,1,1.712735089007765,096,001,2019_Sep_02_1108,MusicAffectPsychophysiology2019,3.0.5,59.80498086717834,
To what extent did the music make you feel ,ANXIOUS ,30MonoWAV/30MonoS1.wav,1,1,3,9,,,,,0,3,3,8,0,1,1,1,,,,,,,,,1,1.4038587770191953,096,001,2019_Sep_02_1108,MusicAffectPsychophysiology2019,3.0.5,59.80498086717834,
To what extent did the music make you feel ,ANGRY,30MonoWAV/30MonoS1.wav,1,1,3,9,,,,,0,3,3,8,0,2,2,2,,,,,,,,,1,0.752739609015407,096,001,2019_Sep_02_1108,MusicAffectPsychophysiology2019,3.0.5,59.80498086717834,
To what extent did the music make you feel ,SAD,30MonoWAV/30MonoS1.wav,1,1,3,9,,,,,0,3,3,8,0,3,3,0,,,,,,,,,3,3.736164537986042,096,001,2019_Sep_02_1108,MusicAffectPsychophysiology2019,3.0.5,59.80498086717834,
To what extent did the music make you feel ,ALERT,30MonoWAV/30MonoS1.wav,1,1,3,9,,,,,0,3,3,8,0,4,4,8,,,,,,,,,1,1.7873172310064547,096,001,2019_Sep_02_1108,MusicAffectPsychophysiology2019,3.0.5,59.80498086717834,
To what extent did the music make you feel ,ASHAMED,30MonoWAV/30MonoS1.wav,1,1,3,9,,,,,0,3,3,8,0,5,5,4,,,,,,,,,1,0.836277593014529,096,001,2019_Sep_02_1108,MusicAffectPsychophysiology2019,3.0.5,59.80498086717834,
To what extent did the music make you feel ,ACTIVE,30MonoWAV/30MonoS1.wav,1,1,3,9,,,,,0,3,3,8,0,6,6,9,,,,,,,,,1,0.8359513079922181,096,001,2019_Sep_02_1108,MusicAffectPsychophysiology2019,3.0.5,59.80498086717834,
To what extent did the music make you feel ,HAPPY,30MonoWAV/30MonoS1.wav,1,1,3,9,,,,,0,3,3,8,0,7,7,6,,,,,,,,,1,0.7857983309950214,096,001,2019_Sep_02_1108,MusicAffectPsychophysiology2019,3.0.5,59.80498086717834,
To what extent did the music make you feel ,EXCITED,30MonoWAV/30MonoS1.wav,1,1,3,9,,,,,0,3,3,8,0,8,8,7,,,,,,,,,1,0.8025716570264194,096,001,2019_Sep_02_1108,MusicAffectPsychophysiology2019,3.0.5,59.80498086717834,
To what extent did the music make you feel ,GUILTY,30MonoWAV/30MonoS1.wav,1,1,3,9,,,,,0,3,3,8,0,9,9,5,,,,,,,,,1,0.835732055013068,096,001,2019_Sep_02_1108,MusicAffectPsychophysiology2019,3.0.5,59.80498086717834,
To what extent did the music make you feel ,TENDER,30MonoWAV/30MonoS1.wav,1,1,3,9,,,,,0,3,3,8,0,10,10,10,,,,,,,,,3,2.201470280997455,096,001,2019_Sep_02_1108,MusicAffectPsychophysiology2019,3.0.5,59.80498086717834,
To what extent did the music make you feel ,FRUSTRATED,30MonoWAV/30MonoS1.wav,1,1,3,9,,,,,0,3,3,8,0,11,11,3,,,,,,,,,1,1.1855462840176187,096,001,2019_Sep_02_1108,MusicAffectPsychophysiology2019,3.0.5,59.80498086717834,
,,30MonoWAV/30MonoS1.wav,1,1,3,9,,,,,0,3,3,8,,,,,,,,,,,,,,,096,001,2019_Sep_02_1108,MusicAffectPsychophysiology2019,3.0.5,59.80498086717834,
To what extent did the music make you feel ,SCARED,30MonoWAV/30MonoS2.wav,1,1,3,10,,,,,0,4,4,9,0,0,0,11,,,1,5.052459010999883,1,1.7026364190096501,2,1.8862036789942067,1,2.403171082987683,096,001,2019_Sep_02_1108,MusicAffectPsychophysiology2019,3.0.5,59.80498086717834,
To what extent did the music make you feel ,ANXIOUS ,30MonoWAV/30MonoS2.wav,1,1,3,10,,,,,0,4,4,9,0,1,1,1,,,,,,,,,1,0.9033681899891235,096,001,2019_Sep_02_1108,MusicAffectPsychophysiology2019,3.0.5,59.80498086717834,
To what extent did the music make you feel ,SAD,30MonoWAV/30MonoS2.wav,1,1,3,10,,,,,0,4,4,9,0,2,2,0,,,,,,,,,2,2.169095693010604,096,001,2019_Sep_02_1108,MusicAffectPsychophysiology2019,3.0.5,59.80498086717834,
To what extent did the music make you feel ,HAPPY,30MonoWAV/30MonoS2.wav,1,1,3,10,,,,,0,4,4,9,0,3,3,6,,,,,,,,,1,0.852277714991942,096,001,2019_Sep_02_1108,MusicAffectPsychophysiology2019,3.0.5,59.80498086717834,
To what extent did the music make you feel ,ACTIVE,30MonoWAV/30MonoS2.wav,1,1,3,10,,,,,0,4,4,9,0,4,4,9,,,,,,,,,1,0.802777403005166,096,001,2019_Sep_02_1108,MusicAffectPsychophysiology2019,3.0.5,59.80498086717834,
To what extent did the music make you feel ,EXCITED,30MonoWAV/30MonoS2.wav,1,1,3,10,,,,,0,4,4,9,0,5,5,7,,,,,,,,,1,0.9021401970239822,096,001,2019_Sep_02_1108,MusicAffectPsychophysiology2019,3.0.5,59.80498086717834,
To what extent did the music make you feel ,GUILTY,30MonoWAV/30MonoS2.wav,1,1,3,10,,,,,0,4,4,9,0,6,6,5,,,,,,,,,1,0.7524554490228184,096,001,2019_Sep_02_1108,MusicAffectPsychophysiology2019,3.0.5,59.80498086717834,
To what extent did the music make you feel ,ANGRY,30MonoWAV/30MonoS2.wav,1,1,3,10,,,,,0,4,4,9,0,7,7,2,,,,,,,,,1,0.7856074660085142,096,001,2019_Sep_02_1108,MusicAffectPsychophysiology2019,3.0.5,59.80498086717834,
To what extent did the music make you feel ,FRUSTRATED,30MonoWAV/30MonoS2.wav,1,1,3,10,,,,,0,4,4,9,0,8,8,3,,,,,,,,,1,0.6383287360076793,096,001,2019_Sep_02_1108,MusicAffectPsychophysiology2019,3.0.5,59.80498086717834,
To what extent did the music make you feel ,ASHAMED,30MonoWAV/30MonoS2.wav,1,1,3,10,,,,,0,4,4,9,0,9,9,4,,,,,,,,,1,0.6519143269979395,096,001,2019_Sep_02_1108,MusicAffectPsychophysiology2019,3.0.5,59.80498086717834,
To what extent did the music make you feel ,TENDER,30MonoWAV/30MonoS2.wav,1,1,3,10,,,,,0,4,4,9,0,10,10,10,,,,,,,,,2,1.0360103890125174,096,001,2019_Sep_02_1108,MusicAffectPsychophysiology2019,3.0.5,59.80498086717834,
To what extent did the music make you feel ,ALERT,30MonoWAV/30MonoS2.wav,1,1,3,10,,,,,0,4,4,9,0,11,11,8,,,,,,,,,1,0.7193873120122589,096,001,2019_Sep_02_1108,MusicAffectPsychophysiology2019,3.0.5,59.80498086717834,
,,30MonoWAV/30MonoS2.wav,1,1,3,10,,,,,0,4,4,9,,,,,,,,,,,,,,,096,001,2019_Sep_02_1108,MusicAffectPsychophysiology2019,3.0.5,59.80498086717834,
To what extent did the music make you feel ,GUILTY,30MonoWAV/30MonoT3.wav,2,1,4,15,,,,,0,5,5,14,0,0,0,5,,,3,6.200158174004173,3,3.6687552350049373,3,1.8192197520111222,1,1.206541970022954,096,001,2019_Sep_02_1108,MusicAffectPsychophysiology2019,3.0.5,59.80498086717834,
To what extent did the music make you feel ,ASHAMED,30MonoWAV/30MonoT3.wav,2,1,4,15,,,,,0,5,5,14,0,1,1,4,,,,,,,,,1,0.6360251829901244,096,001,2019_Sep_02_1108,MusicAffectPsychophysiology2019,3.0.5,59.80498086717834,
To what extent did the music make you feel ,EXCITED,30MonoWAV/30MonoT3.wav,2,1,4,15,,,,,0,5,5,14,0,2,2,7,,,,,,,,,1,0.7701509009930305,096,001,2019_Sep_02_1108,MusicAffectPsychophysiology2019,3.0.5,59.80498086717834,
To what extent did the music make you feel ,ALERT,30MonoWAV/30MonoT3.wav,2,1,4,15,,,,,0,5,5,14,0,3,3,8,,,,,,,,,3,3.1027378700091504,096,001,2019_Sep_02_1108,MusicAffectPsychophysiology2019,3.0.5,59.80498086717834,
To what extent did the music make you feel ,ANXIOUS ,30MonoWAV/30MonoT3.wav,2,1,4,15,,,,,0,5,5,14,0,4,4,1,,,,,,,,,1,0.9002185000281315,096,001,2019_Sep_02_1108,MusicAffectPsychophysiology2019,3.0.5,59.80498086717834,
To what extent did the music make you feel ,TENDER,30MonoWAV/30MonoT3.wav,2,1,4,15,,,,,0,5,5,14,0,5,5,10,,,,,,,,,2,2.233123413985595,096,001,2019_Sep_02_1108,MusicAffectPsychophysiology2019,3.0.5,59.80498086717834,
To what extent did the music make you feel ,FRUSTRATED,30MonoWAV/30MonoT3.wav,2,1,4,15,,,,,0,5,5,14,0,6,6,3,,,,,,,,,1,0.5358359919919167,096,001,2019_Sep_02_1108,MusicAffectPsychophysiology2019,3.0.5,59.80498086717834,
To what extent did the music make you feel ,HAPPY,30MonoWAV/30MonoT3.wav,2,1,4,15,,,,,0,5,5,14,0,7,7,6,,,,,,,,,1,1.7858983289916068,096,001,2019_Sep_02_1108,MusicAffectPsychophysiology2019,3.0.5,59.80498086717834,
To what extent did the music make you feel ,SAD,30MonoWAV/30MonoT3.wav,2,1,4,15,,,,,0,5,5,14,0,8,8,0,,,,,,,,,1,0.6352216180239338,096,001,2019_Sep_02_1108,MusicAffectPsychophysiology2019,3.0.5,59.80498086717834,
To what extent did the music make you feel ,SCARED,30MonoWAV/30MonoT3.wav,2,1,4,15,,,,,0,5,5,14,0,9,9,11,,,,,,,,,1,0.7008019420027267,096,001,2019_Sep_02_1108,MusicAffectPsychophysiology2019,3.0.5,59.80498086717834,
To what extent did the music make you feel ,ANGRY,30MonoWAV/30MonoT3.wav,2,1,4,15,,,,,0,5,5,14,0,10,10,2,,,,,,,,,1,0.5198133020021487,096,001,2019_Sep_02_1108,MusicAffectPsychophysiology2019,3.0.5,59.80498086717834,
To what extent did the music make you feel ,ACTIVE,30MonoWAV/30MonoT3.wav,2,1,4,15,,,,,0,5,5,14,0,11,11,9,,,,,,,,,1,0.6204138900211547,096,001,2019_Sep_02_1108,MusicAffectPsychophysiology2019,3.0.5,59.80498086717834,
,,30MonoWAV/30MonoT3.wav,2,1,4,15,,,,,0,5,5,14,,,,,,,,,,,,,,,096,001,2019_Sep_02_1108,MusicAffectPsychophysiology2019,3.0.5,59.80498086717834,
To what extent did the music make you feel ,ACTIVE,30MonoWAV/30MonoS4.wav,1,1,3,12,,,,,0,6,6,11,0,0,0,9,,,1,4.435942546988372,1,1.4503086620243266,1,1.8188045600254554,1,1.0850019979989156,096,001,2019_Sep_02_1108,MusicAffectPsychophysiology2019,3.0.5,59.80498086717834,
To what extent did the music make you feel ,EXCITED,30MonoWAV/30MonoS4.wav,1,1,3,12,,,,,0,6,6,11,0,1,1,7,,,,,,,,,1,0.7515668349806219,096,001,2019_Sep_02_1108,MusicAffectPsychophysiology2019,3.0.5,59.80498086717834,
To what extent did the music make you feel ,HAPPY,30MonoWAV/30MonoS4.wav,1,1,3,12,,,,,0,6,6,11,0,2,2,6,,,,,,,,,1,0.5860758909839205,096,001,2019_Sep_02_1108,MusicAffectPsychophysiology2019,3.0.5,59.80498086717834,
To what extent did the music make you feel ,SCARED,30MonoWAV/30MonoS4.wav,1,1,3,12,,,,,0,6,6,11,0,3,3,11,,,,,,,,,1,0.757133843988413,096,001,2019_Sep_02_1108,MusicAffectPsychophysiology2019,3.0.5,59.80498086717834,
To what extent did the music make you feel ,ANXIOUS ,30MonoWAV/30MonoS4.wav,1,1,3,12,,,,,0,6,6,11,0,4,4,1,,,,,,,,,1,0.868630568991648,096,001,2019_Sep_02_1108,MusicAffectPsychophysiology2019,3.0.5,59.80498086717834,
To what extent did the music make you feel ,GUILTY,30MonoWAV/30MonoS4.wav,1,1,3,12,,,,,0,6,6,11,0,5,5,5,,,,,,,,,1,0.8337129360006656,096,001,2019_Sep_02_1108,MusicAffectPsychophysiology2019,3.0.5,59.80498086717834,
To what extent did the music make you feel ,ANGRY,30MonoWAV/30MonoS4.wav,1,1,3,12,,,,,0,6,6,11,0,6,6,2,,,,,,,,,1,0.736361446994124,096,001,2019_Sep_02_1108,MusicAffectPsychophysiology2019,3.0.5,59.80498086717834,
To what extent did the music make you feel ,ALERT,30MonoWAV/30MonoS4.wav,1,1,3,12,,,,,0,6,6,11,0,7,7,8,,,,,,,,,1,1.4698327310034074,096,001,2019_Sep_02_1108,MusicAffectPsychophysiology2019,3.0.5,59.80498086717834,
To what extent did the music make you feel ,TENDER,30MonoWAV/30MonoS4.wav,1,1,3,12,,,,,0,6,6,11,0,8,8,10,,,,,,,,,2,1.5701505250181071,096,001,2019_Sep_02_1108,MusicAffectPsychophysiology2019,3.0.5,59.80498086717834,
To what extent did the music make you feel ,FRUSTRATED,30MonoWAV/30MonoS4.wav,1,1,3,12,,,,,0,6,6,11,0,9,9,3,,,,,,,,,1,0.7892926360073034,096,001,2019_Sep_02_1108,MusicAffectPsychophysiology2019,3.0.5,59.80498086717834,
To what extent did the music make you feel ,SAD,30MonoWAV/30MonoS4.wav,1,1,3,12,,,,,0,6,6,11,0,10,10,0,,,,,,,,,3,1.8348880560079124,096,001,2019_Sep_02_1108,MusicAffectPsychophysiology2019,3.0.5,59.80498086717834,
To what extent did the music make you feel ,ASHAMED,30MonoWAV/30MonoS4.wav,1,1,3,12,,,,,0,6,6,11,0,11,11,4,,,,,,,,,1,0.9668428000004496,096,001,2019_Sep_02_1108,MusicAffectPsychophysiology2019,3.0.5,59.80498086717834,
,,30MonoWAV/30MonoS4.wav,1,1,3,12,,,,,0,6,6,11,,,,,,,,,,,,,,,096,001,2019_Sep_02_1108,MusicAffectPsychophysiology2019,3.0.5,59.80498086717834,
To what extent did the music make you feel ,GUILTY,30MonoWAV/30MonoS3.wav,1,1,3,11,,,,,0,7,7,10,0,0,0,5,,,1,3.3034143460099585,1,1.5162887749902438,1,1.1999667880008928,1,1.3024941559997387,096,001,2019_Sep_02_1108,MusicAffectPsychophysiology2019,3.0.5,59.80498086717834,
To what extent did the music make you feel ,ANGRY,30MonoWAV/30MonoS3.wav,1,1,3,11,,,,,0,7,7,10,0,1,1,2,,,,,,,,,1,1.3685579820012208,096,001,2019_Sep_02_1108,MusicAffectPsychophysiology2019,3.0.5,59.80498086717834,
To what extent did the music make you feel ,TENDER,30MonoWAV/30MonoS3.wav,1,1,3,11,,,,,0,7,7,10,0,2,2,10,,,,,,,,,1,1.586200979014393,096,001,2019_Sep_02_1108,MusicAffectPsychophysiology2019,3.0.5,59.80498086717834,
To what extent did the music make you feel ,ACTIVE,30MonoWAV/30MonoS3.wav,1,1,3,11,,,,,0,7,7,10,0,3,3,9,,,,,,,,,1,0.8840381960035302,096,001,2019_Sep_02_1108,MusicAffectPsychophysiology2019,3.0.5,59.80498086717834,
To what extent did the music make you feel ,EXCITED,30MonoWAV/30MonoS3.wav,1,1,3,11,,,,,0,7,7,10,0,4,4,7,,,,,,,,,1,0.7370263820048422,096,001,2019_Sep_02_1108,MusicAffectPsychophysiology2019,3.0.5,59.80498086717834,
To what extent did the music make you feel ,SCARED,30MonoWAV/30MonoS3.wav,1,1,3,11,,,,,0,7,7,10,0,5,5,11,,,,,,,,,1,6.084643377980683,096,001,2019_Sep_02_1108,MusicAffectPsychophysiology2019,3.0.5,59.80498086717834,
To what extent did the music make you feel ,ASHAMED,30MonoWAV/30MonoS3.wav,1,1,3,11,,,,,0,7,7,10,0,6,6,4,,,,,,,,,1,0.8690449059940875,096,001,2019_Sep_02_1108,MusicAffectPsychophysiology2019,3.0.5,59.80498086717834,
To what extent did the music make you feel ,SAD,30MonoWAV/30MonoS3.wav,1,1,3,11,,,,,0,7,7,10,0,7,7,0,,,,,,,,,2,1.4210149330028798,096,001,2019_Sep_02_1108,MusicAffectPsychophysiology2019,3.0.5,59.80498086717834,
To what extent did the music make you feel ,FRUSTRATED,30MonoWAV/30MonoS3.wav,1,1,3,11,,,,,0,7,7,10,0,8,8,3,,,,,,,,,1,0.8524120649963152,096,001,2019_Sep_02_1108,MusicAffectPsychophysiology2019,3.0.5,59.80498086717834,
To what extent did the music make you feel ,HAPPY,30MonoWAV/30MonoS3.wav,1,1,3,11,,,,,0,7,7,10,0,9,9,6,,,,,,,,,1,0.7347944820066914,096,001,2019_Sep_02_1108,MusicAffectPsychophysiology2019,3.0.5,59.80498086717834,
To what extent did the music make you feel ,ALERT,30MonoWAV/30MonoS3.wav,1,1,3,11,,,,,0,7,7,10,0,10,10,8,,,,,,,,,1,1.0354487650038209,096,001,2019_Sep_02_1108,MusicAffectPsychophysiology2019,3.0.5,59.80498086717834,
To what extent did the music make you feel ,ANXIOUS ,30MonoWAV/30MonoS3.wav,1,1,3,11,,,,,0,7,7,10,0,11,11,1,,,,,,,,,3,1.9841129840060603,096,001,2019_Sep_02_1108,MusicAffectPsychophysiology2019,3.0.5,59.80498086717834,
,,30MonoWAV/30MonoS3.wav,1,1,3,11,,,,,0,7,7,10,,,,,,,,,,,,,,,096,001,2019_Sep_02_1108,MusicAffectPsychophysiology2019,3.0.5,59.80498086717834,
To what extent did the music make you feel ,HAPPY,30MonoWAV/30MonoF2.wav,1,2,2,2,,,,,0,8,8,1,0,0,0,6,,,1,5.868066692986758,1,0.9690780619857833,1,1.4696301170042716,1,1.1114874750201125,096,001,2019_Sep_02_1108,MusicAffectPsychophysiology2019,3.0.5,59.80498086717834,
To what extent did the music make you feel ,FRUSTRATED,30MonoWAV/30MonoF2.wav,1,2,2,2,,,,,0,8,8,1,0,1,1,3,,,,,,,,,1,1.0440309040131979,096,001,2019_Sep_02_1108,MusicAffectPsychophysiology2019,3.0.5,59.80498086717834,
To what extent did the music make you feel ,ASHAMED,30MonoWAV/30MonoF2.wav,1,2,2,2,,,,,0,8,8,1,0,2,2,4,,,,,,,,,1,0.6692114380130079,096,001,2019_Sep_02_1108,MusicAffectPsychophysiology2019,3.0.5,59.80498086717834,
To what extent did the music make you feel ,TENDER,30MonoWAV/30MonoF2.wav,1,2,2,2,,,,,0,8,8,1,0,3,3,10,,,,,,,,,1,0.9437196209910326,096,001,2019_Sep_02_1108,MusicAffectPsychophysiology2019,3.0.5,59.80498086717834,
To what extent did the music make you feel ,EXCITED,30MonoWAV/30MonoF2.wav,1,2,2,2,,,,,0,8,8,1,0,4,4,7,,,,,,,,,1,0.837328000983689,096,001,2019_Sep_02_1108,MusicAffectPsychophysiology2019,3.0.5,59.80498086717834,
To what extent did the music make you feel ,ANXIOUS ,30MonoWAV/30MonoF2.wav,1,2,2,2,,,,,0,8,8,1,0,5,5,1,,,,,,,,,3,4.420009200985078,096,001,2019_Sep_02_1108,MusicAffectPsychophysiology2019,3.0.5,59.80498086717834,
To what extent did the music make you feel ,ALERT,30MonoWAV/30MonoF2.wav,1,2,2,2,,,,,0,8,8,1,0,6,6,8,,,,,,,,,3,1.2596957609930541,096,001,2019_Sep_02_1108,MusicAffectPsychophysiology2019,3.0.5,59.80498086717834,
To what extent did the music make you feel ,ANGRY,30MonoWAV/30MonoF2.wav,1,2,2,2,,,,,0,8,8,1,0,7,7,2,,,,,,,,,1,1.236340066010598,096,001,2019_Sep_02_1108,MusicAffectPsychophysiology2019,3.0.5,59.80498086717834,
To what extent did the music make you feel ,SCARED,30MonoWAV/30MonoF2.wav,1,2,2,2,,,,,0,8,8,1,0,8,8,11,,,,,,,,,4,1.93633472698275,096,001,2019_Sep_02_1108,MusicAffectPsychophysiology2019,3.0.5,59.80498086717834,
To what extent did the music make you feel ,SAD,30MonoWAV/30MonoF2.wav,1,2,2,2,,,,,0,8,8,1,0,9,9,0,,,,,,,,,1,1.3525255279964767,096,001,2019_Sep_02_1108,MusicAffectPsychophysiology2019,3.0.5,59.80498086717834,
To what extent did the music make you feel ,ACTIVE,30MonoWAV/30MonoF2.wav,1,2,2,2,,,,,0,8,8,1,0,10,10,9,,,,,,,,,1,1.251259430020582,096,001,2019_Sep_02_1108,MusicAffectPsychophysiology2019,3.0.5,59.80498086717834,
To what extent did the music make you feel ,GUILTY,30MonoWAV/30MonoF2.wav,1,2,2,2,,,,,0,8,8,1,0,11,11,5,,,,,,,,,1,0.9186744029866531,096,001,2019_Sep_02_1108,MusicAffectPsychophysiology2019,3.0.5,59.80498086717834,
,,30MonoWAV/30MonoF2.wav,1,2,2,2,,,,,0,8,8,1,,,,,,,,,,,,,,,096,001,2019_Sep_02_1108,MusicAffectPsychophysiology2019,3.0.5,59.80498086717834,
To what extent did the music make you feel ,ACTIVE,30MonoWAV/30MonoH4.wav,2,2,1,8,,,,,0,9,9,7,0,0,0,9,,,4,3.4690836950030643,4,1.3847349249990657,4,1.2677738959901035,4,1.9374502419959754,096,001,2019_Sep_02_1108,MusicAffectPsychophysiology2019,3.0.5,59.80498086717834,
To what extent did the music make you feel ,ALERT,30MonoWAV/30MonoH4.wav,2,2,1,8,,,,,0,9,9,7,0,1,1,8,,,,,,,,,4,1.0702915580186527,096,001,2019_Sep_02_1108,MusicAffectPsychophysiology2019,3.0.5,59.80498086717834,
To what extent did the music make you feel ,ASHAMED,30MonoWAV/30MonoH4.wav,2,2,1,8,,,,,0,9,9,7,0,2,2,4,,,,,,,,,1,1.100595911993878,096,001,2019_Sep_02_1108,MusicAffectPsychophysiology2019,3.0.5,59.80498086717834,
To what extent did the music make you feel ,TENDER,30MonoWAV/30MonoH4.wav,2,2,1,8,,,,,0,9,9,7,0,3,3,10,,,,,,,,,1,0.8530951809952967,096,001,2019_Sep_02_1108,MusicAffectPsychophysiology2019,3.0.5,59.80498086717834,
To what extent did the music make you feel ,FRUSTRATED,30MonoWAV/30MonoH4.wav,2,2,1,8,,,,,0,9,9,7,0,4,4,3,,,,,,,,,1,0.6369424560107291,096,001,2019_Sep_02_1108,MusicAffectPsychophysiology2019,3.0.5,59.80498086717834,
To what extent did the music make you feel ,ANXIOUS ,30MonoWAV/30MonoH4.wav,2,2,1,8,,,,,0,9,9,7,0,5,5,1,,,,,,,,,1,0.7026283680170309,096,001,2019_Sep_02_1108,MusicAffectPsychophysiology2019,3.0.5,59.80498086717834,
To what extent did the music make you feel ,SCARED,30MonoWAV/30MonoH4.wav,2,2,1,8,,,,,0,9,9,7,0,6,6,11,,,,,,,,,1,0.6030170499871019,096,001,2019_Sep_02_1108,MusicAffectPsychophysiology2019,3.0.5,59.80498086717834,
To what extent did the music make you feel ,SAD,30MonoWAV/30MonoH4.wav,2,2,1,8,,,,,0,9,9,7,0,7,7,0,,,,,,,,,1,0.5857271699933335,096,001,2019_Sep_02_1108,MusicAffectPsychophysiology2019,3.0.5,59.80498086717834,
To what extent did the music make you feel ,ANGRY,30MonoWAV/30MonoH4.wav,2,2,1,8,,,,,0,9,9,7,0,8,8,2,,,,,,,,,1,0.6189725700241979,096,001,2019_Sep_02_1108,MusicAffectPsychophysiology2019,3.0.5,59.80498086717834,
To what extent did the music make you feel ,GUILTY,30MonoWAV/30MonoH4.wav,2,2,1,8,,,,,0,9,9,7,0,9,9,5,,,,,,,,,1,0.6539899240015075,096,001,2019_Sep_02_1108,MusicAffectPsychophysiology2019,3.0.5,59.80498086717834,
To what extent did the music make you feel ,EXCITED,30MonoWAV/30MonoH4.wav,2,2,1,8,,,,,0,9,9,7,0,10,10,7,,,,,,,,,4,1.5009609990229364,096,001,2019_Sep_02_1108,MusicAffectPsychophysiology2019,3.0.5,59.80498086717834,
To what extent did the music make you feel ,HAPPY,30MonoWAV/30MonoH4.wav,2,2,1,8,,,,,0,9,9,7,0,11,11,6,,,,,,,,,4,1.1192327959870454,096,001,2019_Sep_02_1108,MusicAffectPsychophysiology2019,3.0.5,59.80498086717834,
,,30MonoWAV/30MonoH4.wav,2,2,1,8,,,,,0,9,9,7,,,,,,,,,,,,,,,096,001,2019_Sep_02_1108,MusicAffectPsychophysiology2019,3.0.5,59.80498086717834,
To what extent did the music make you feel ,SCARED,30MonoWAV/30MonoT2.wav,2,1,4,14,,,,,0,10,10,13,0,0,0,11,,,1,6.169489381019957,2,3.5680407870095223,1,3.2193364450067747,1,0.9533635170082562,096,001,2019_Sep_02_1108,MusicAffectPsychophysiology2019,3.0.5,59.80498086717834,
To what extent did the music make you feel ,EXCITED,30MonoWAV/30MonoT2.wav,2,1,4,14,,,,,0,10,10,13,0,1,1,7,,,,,,,,,1,0.8201766870042775,096,001,2019_Sep_02_1108,MusicAffectPsychophysiology2019,3.0.5,59.80498086717834,
To what extent did the music make you feel ,GUILTY,30MonoWAV/30MonoT2.wav,2,1,4,14,,,,,0,10,10,13,0,2,2,5,,,,,,,,,1,0.9178065400046762,096,001,2019_Sep_02_1108,MusicAffectPsychophysiology2019,3.0.5,59.80498086717834,
To what extent did the music make you feel ,TENDER,30MonoWAV/30MonoT2.wav,2,1,4,14,,,,,0,10,10,13,0,3,3,10,,,,,,,,,2,1.1865676680172328,096,001,2019_Sep_02_1108,MusicAffectPsychophysiology2019,3.0.5,59.80498086717834,
To what extent did the music make you feel ,SAD,30MonoWAV/30MonoT2.wav,2,1,4,14,,,,,0,10,10,13,0,4,4,0,,,,,,,,,1,0.7859152859891765,096,001,2019_Sep_02_1108,MusicAffectPsychophysiology2019,3.0.5,59.80498086717834,
To what extent did the music make you feel ,ANGRY,30MonoWAV/30MonoT2.wav,2,1,4,14,,,,,0,10,10,13,0,5,5,2,,,,,,,,,1,0.7357170689792838,096,001,2019_Sep_02_1108,MusicAffectPsychophysiology2019,3.0.5,59.80498086717834,
To what extent did the music make you feel ,FRUSTRATED,30MonoWAV/30MonoT2.wav,2,1,4,14,,,,,0,10,10,13,0,6,6,3,,,,,,,,,1,0.6459884209907614,096,001,2019_Sep_02_1108,MusicAffectPsychophysiology2019,3.0.5,59.80498086717834,
To what extent did the music make you feel ,ALERT,30MonoWAV/30MonoT2.wav,2,1,4,14,,,,,0,10,10,13,0,7,7,8,,,,,,,,,1,2.0852790320059285,096,001,2019_Sep_02_1108,MusicAffectPsychophysiology2019,3.0.5,59.80498086717834,
To what extent did the music make you feel ,ANXIOUS ,30MonoWAV/30MonoT2.wav,2,1,4,14,,,,,0,10,10,13,0,8,8,1,,,,,,,,,1,1.2375873390119523,096,001,2019_Sep_02_1108,MusicAffectPsychophysiology2019,3.0.5,59.80498086717834,
To what extent did the music make you feel ,ASHAMED,30MonoWAV/30MonoT2.wav,2,1,4,14,,,,,0,10,10,13,0,9,9,4,,,,,,,,,1,0.6354829250194598,096,001,2019_Sep_02_1108,MusicAffectPsychophysiology2019,3.0.5,59.80498086717834,
To what extent did the music make you feel ,ACTIVE,30MonoWAV/30MonoT2.wav,2,1,4,14,,,,,0,10,10,13,0,10,10,9,,,,,,,,,1,1.1540643839980476,096,001,2019_Sep_02_1108,MusicAffectPsychophysiology2019,3.0.5,59.80498086717834,
To what extent did the music make you feel ,HAPPY,30MonoWAV/30MonoT2.wav,2,1,4,14,,,,,0,10,10,13,0,11,11,6,,,,,,,,,1,1.1507159709872212,096,001,2019_Sep_02_1108,MusicAffectPsychophysiology2019,3.0.5,59.80498086717834,
,,30MonoWAV/30MonoT2.wav,2,1,4,14,,,,,0,10,10,13,,,,,,,,,,,,,,,096,001,2019_Sep_02_1108,MusicAffectPsychophysiology2019,3.0.5,59.80498086717834,
To what extent did the music make you feel ,ANGRY,30MonoWAV/30MonoT1.wav,2,1,4,13,,,,,0,11,11,12,0,0,0,2,,,2,4.086466067994479,1,3.0200424040085636,2,1.6858283420151565,1,1.322908264992293,096,001,2019_Sep_02_1108,MusicAffectPsychophysiology2019,3.0.5,59.80498086717834,
To what extent did the music make you feel ,FRUSTRATED,30MonoWAV/30MonoT1.wav,2,1,4,13,,,,,0,11,11,12,0,1,1,3,,,,,,,,,1,1.155742000992177,096,001,2019_Sep_02_1108,MusicAffectPsychophysiology2019,3.0.5,59.80498086717834,
To what extent did the music make you feel ,EXCITED,30MonoWAV/30MonoT1.wav,2,1,4,13,,,,,0,11,11,12,0,2,2,7,,,,,,,,,1,1.0694597040128428,096,001,2019_Sep_02_1108,MusicAffectPsychophysiology2019,3.0.5,59.80498086717834,
To what extent did the music make you feel ,ANXIOUS ,30MonoWAV/30MonoT1.wav,2,1,4,13,,,,,0,11,11,12,0,3,3,1,,,,,,,,,1,0.9866719949932303,096,001,2019_Sep_02_1108,MusicAffectPsychophysiology2019,3.0.5,59.80498086717834,
To what extent did the music make you feel ,TENDER,30MonoWAV/30MonoT1.wav,2,1,4,13,,,,,0,11,11,12,0,4,4,10,,,,,,,,,4,2.6693292999989353,096,001,2019_Sep_02_1108,MusicAffectPsychophysiology2019,3.0.5,59.80498086717834,
To what extent did the music make you feel ,ACTIVE,30MonoWAV/30MonoT1.wav,2,1,4,13,,,,,0,11,11,12,0,5,5,9,,,,,,,,,1,1.9043603150057606,096,001,2019_Sep_02_1108,MusicAffectPsychophysiology2019,3.0.5,59.80498086717834,
To what extent did the music make you feel ,ALERT,30MonoWAV/30MonoT1.wav,2,1,4,13,,,,,0,11,11,12,0,6,6,8,,,,,,,,,1,0.7855999190069269,096,001,2019_Sep_02_1108,MusicAffectPsychophysiology2019,3.0.5,59.80498086717834,
To what extent did the music make you feel ,SAD,30MonoWAV/30MonoT1.wav,2,1,4,13,,,,,0,11,11,12,0,7,7,0,,,,,,,,,2,1.9007830930058844,096,001,2019_Sep_02_1108,MusicAffectPsychophysiology2019,3.0.5,59.80498086717834,
To what extent did the music make you feel ,SCARED,30MonoWAV/30MonoT1.wav,2,1,4,13,,,,,0,11,11,12,0,8,8,11,,,,,,,,,1,0.9856183860101737,096,001,2019_Sep_02_1108,MusicAffectPsychophysiology2019,3.0.5,59.80498086717834,
To what extent did the music make you feel ,ASHAMED,30MonoWAV/30MonoT1.wav,2,1,4,13,,,,,0,11,11,12,0,9,9,4,,,,,,,,,1,1.1366645199886989,096,001,2019_Sep_02_1108,MusicAffectPsychophysiology2019,3.0.5,59.80498086717834,
To what extent did the music make you feel ,HAPPY,30MonoWAV/30MonoT1.wav,2,1,4,13,,,,,0,11,11,12,0,10,10,6,,,,,,,,,2,1.3684087359870318,096,001,2019_Sep_02_1108,MusicAffectPsychophysiology2019,3.0.5,59.80498086717834,
To what extent did the music make you feel ,GUILTY,30MonoWAV/30MonoT1.wav,2,1,4,13,,,,,0,11,11,12,0,11,11,5,,,,,,,,,1,1.503389627992874,096,001,2019_Sep_02_1108,MusicAffectPsychophysiology2019,3.0.5,59.80498086717834,
,,30MonoWAV/30MonoT1.wav,2,1,4,13,,,,,0,11,11,12,,,,,,,,,,,,,,,096,001,2019_Sep_02_1108,MusicAffectPsychophysiology2019,3.0.5,59.80498086717834,
To what extent did the music make you feel ,SCARED,30MonoWAV/30MonoH2.wav,2,2,1,6,,,,,0,12,12,5,0,0,0,11,,,4,3.2528312339854892,3,1.5498061259859242,3,1.4196223889885005,1,1.1527269780053757,096,001,2019_Sep_02_1108,MusicAffectPsychophysiology2019,3.0.5,59.80498086717834,
To what extent did the music make you feel ,ALERT,30MonoWAV/30MonoH2.wav,2,2,1,6,,,,,0,12,12,5,0,1,1,8,,,,,,,,,3,1.7471947110025212,096,001,2019_Sep_02_1108,MusicAffectPsychophysiology2019,3.0.5,59.80498086717834,
To what extent did the music make you feel ,ANGRY,30MonoWAV/30MonoH2.wav,2,2,1,6,,,,,0,12,12,5,0,2,2,2,,,,,,,,,1,0.9527623430185486,096,001,2019_Sep_02_1108,MusicAffectPsychophysiology2019,3.0.5,59.80498086717834,
To what extent did the music make you feel ,ANXIOUS ,30MonoWAV/30MonoH2.wav,2,2,1,6,,,,,0,12,12,5,0,3,3,1,,,,,,,,,1,1.0697607870097272,096,001,2019_Sep_02_1108,MusicAffectPsychophysiology2019,3.0.5,59.80498086717834,
To what extent did the music make you feel ,ASHAMED,30MonoWAV/30MonoH2.wav,2,2,1,6,,,,,0,12,12,5,0,4,4,4,,,,,,,,,1,0.7192380409978796,096,001,2019_Sep_02_1108,MusicAffectPsychophysiology2019,3.0.5,59.80498086717834,
To what extent did the music make you feel ,GUILTY,30MonoWAV/30MonoH2.wav,2,2,1,6,,,,,0,12,12,5,0,5,5,5,,,,,,,,,1,0.6193723430042155,096,001,2019_Sep_02_1108,MusicAffectPsychophysiology2019,3.0.5,59.80498086717834,
To what extent did the music make you feel ,HAPPY,30MonoWAV/30MonoH2.wav,2,2,1,6,,,,,0,12,12,5,0,6,6,6,,,,,,,,,2,2.518085907009663,096,001,2019_Sep_02_1108,MusicAffectPsychophysiology2019,3.0.5,59.80498086717834,
To what extent did the music make you feel ,EXCITED,30MonoWAV/30MonoH2.wav,2,2,1,6,,,,,0,12,12,5,0,7,7,7,,,,,,,,,4,1.7690338770044036,096,001,2019_Sep_02_1108,MusicAffectPsychophysiology2019,3.0.5,59.80498086717834,
To what extent did the music make you feel ,TENDER,30MonoWAV/30MonoH2.wav,2,2,1,6,,,,,0,12,12,5,0,8,8,10,,,,,,,,,1,1.7364712609851267,096,001,2019_Sep_02_1108,MusicAffectPsychophysiology2019,3.0.5,59.80498086717834,
To what extent did the music make you feel ,FRUSTRATED,30MonoWAV/30MonoH2.wav,2,2,1,6,,,,,0,12,12,5,0,9,9,3,,,,,,,,,1,0.5626356010034215,096,001,2019_Sep_02_1108,MusicAffectPsychophysiology2019,3.0.5,59.80498086717834,
To what extent did the music make you feel ,ACTIVE,30MonoWAV/30MonoH2.wav,2,2,1,6,,,,,0,12,12,5,0,10,10,9,,,,,,,,,1,0.8691858499951195,096,001,2019_Sep_02_1108,MusicAffectPsychophysiology2019,3.0.5,59.80498086717834,
To what extent did the music make you feel ,SAD,30MonoWAV/30MonoH2.wav,2,2,1,6,,,,,0,12,12,5,0,11,11,0,,,,,,,,,1,0.6858721769822296,096,001,2019_Sep_02_1108,MusicAffectPsychophysiology2019,3.0.5,59.80498086717834,
,,30MonoWAV/30MonoH2.wav,2,2,1,6,,,,,0,12,12,5,,,,,,,,,,,,,,,096,001,2019_Sep_02_1108,MusicAffectPsychophysiology2019,3.0.5,59.80498086717834,
To what extent did the music make you feel ,FRUSTRATED,30MonoWAV/30MonoF3.wav,1,2,2,3,,,,,0,13,13,2,0,0,0,3,,,2,3.536355224001454,1,3.86862404900603,2,1.7688690600043628,1,1.2092162809858564,096,001,2019_Sep_02_1108,MusicAffectPsychophysiology2019,3.0.5,59.80498086717834,
To what extent did the music make you feel ,HAPPY,30MonoWAV/30MonoF3.wav,1,2,2,3,,,,,0,13,13,2,0,1,1,6,,,,,,,,,1,0.8998411869979464,096,001,2019_Sep_02_1108,MusicAffectPsychophysiology2019,3.0.5,59.80498086717834,
To what extent did the music make you feel ,ACTIVE,30MonoWAV/30MonoF3.wav,1,2,2,3,,,,,0,13,13,2,0,2,2,9,,,,,,,,,1,0.7667217419948429,096,001,2019_Sep_02_1108,MusicAffectPsychophysiology2019,3.0.5,59.80498086717834,
To what extent did the music make you feel ,ASHAMED,30MonoWAV/30MonoF3.wav,1,2,2,3,,,,,0,13,13,2,0,3,3,4,,,,,,,,,1,1.5032609369955026,096,001,2019_Sep_02_1108,MusicAffectPsychophysiology2019,3.0.5,59.80498086717834,
To what extent did the music make you feel ,TENDER,30MonoWAV/30MonoF3.wav,1,2,2,3,,,,,0,13,13,2,0,4,4,10,,,,,,,,,1,0.8376567260129377,096,001,2019_Sep_02_1108,MusicAffectPsychophysiology2019,3.0.5,59.80498086717834,
To what extent did the music make you feel ,ANXIOUS ,30MonoWAV/30MonoF3.wav,1,2,2,3,,,,,0,13,13,2,0,5,5,1,,,,,,,,,1,0.6855366409872659,096,001,2019_Sep_02_1108,MusicAffectPsychophysiology2019,3.0.5,59.80498086717834,
To what extent did the music make you feel ,ALERT,30MonoWAV/30MonoF3.wav,1,2,2,3,,,,,0,13,13,2,0,6,6,8,,,,,,,,,2,2.135561161005171,096,001,2019_Sep_02_1108,MusicAffectPsychophysiology2019,3.0.5,59.80498086717834,
To what extent did the music make you feel ,GUILTY,30MonoWAV/30MonoF3.wav,1,2,2,3,,,,,0,13,13,2,0,7,7,5,,,,,,,,,1,1.2203454039990902,096,001,2019_Sep_02_1108,MusicAffectPsychophysiology2019,3.0.5,59.80498086717834,
To what extent did the music make you feel ,SAD,30MonoWAV/30MonoF3.wav,1,2,2,3,,,,,0,13,13,2,0,8,8,0,,,,,,,,,1,0.7707114530203398,096,001,2019_Sep_02_1108,MusicAffectPsychophysiology2019,3.0.5,59.80498086717834,
To what extent did the music make you feel ,ANGRY,30MonoWAV/30MonoF3.wav,1,2,2,3,,,,,0,13,13,2,0,9,9,2,,,,,,,,,1,0.7360876359743997,096,001,2019_Sep_02_1108,MusicAffectPsychophysiology2019,3.0.5,59.80498086717834,
To what extent did the music make you feel ,EXCITED,30MonoWAV/30MonoF3.wav,1,2,2,3,,,,,0,13,13,2,0,10,10,7,,,,,,,,,2,1.28520816998207,096,001,2019_Sep_02_1108,MusicAffectPsychophysiology2019,3.0.5,59.80498086717834,
To what extent did the music make you feel ,SCARED,30MonoWAV/30MonoF3.wav,1,2,2,3,,,,,0,13,13,2,0,11,11,11,,,,,,,,,1,0.6203832679893821,096,001,2019_Sep_02_1108,MusicAffectPsychophysiology2019,3.0.5,59.80498086717834,
,,30MonoWAV/30MonoF3.wav,1,2,2,3,,,,,0,13,13,2,,,,,,,,,,,,,,,096,001,2019_Sep_02_1108,MusicAffectPsychophysiology2019,3.0.5,59.80498086717834,
To what extent did the music make you feel ,SCARED,30MonoWAV/30MonoH3.wav,2,2,1,7,,,,,0,14,14,6,0,0,0,11,,,4,3.8356217439868487,4,2.501718023995636,4,10.350768164993497,1,1.9862946890061721,096,001,2019_Sep_02_1108,MusicAffectPsychophysiology2019,3.0.5,59.80498086717834,
To what extent did the music make you feel ,FRUSTRATED,30MonoWAV/30MonoH3.wav,2,2,1,7,,,,,0,14,14,6,0,1,1,3,,,,,,,,,1,0.5674561710038688,096,001,2019_Sep_02_1108,MusicAffectPsychophysiology2019,3.0.5,59.80498086717834,
To what extent did the music make you feel ,ALERT,30MonoWAV/30MonoH3.wav,2,2,1,7,,,,,0,14,14,6,0,2,2,8,,,,,,,,,4,1.5870303290139418,096,001,2019_Sep_02_1108,MusicAffectPsychophysiology2019,3.0.5,59.80498086717834,
To what extent did the music make you feel ,HAPPY,30MonoWAV/30MonoH3.wav,2,2,1,7,,,,,0,14,14,6,0,3,3,6,,,,,,,,,4,1.2354748010111507,096,001,2019_Sep_02_1108,MusicAffectPsychophysiology2019,3.0.5,59.80498086717834,
To what extent did the music make you feel ,GUILTY,30MonoWAV/30MonoH3.wav,2,2,1,7,,,,,0,14,14,6,0,4,4,5,,,,,,,,,1,0.9362172610126436,096,001,2019_Sep_02_1108,MusicAffectPsychophysiology2019,3.0.5,59.80498086717834,
To what extent did the music make you feel ,ASHAMED,30MonoWAV/30MonoH3.wav,2,2,1,7,,,,,0,14,14,6,0,5,5,4,,,,,,,,,1,1.0516878690104932,096,001,2019_Sep_02_1108,MusicAffectPsychophysiology2019,3.0.5,59.80498086717834,
To what extent did the music make you feel ,TENDER,30MonoWAV/30MonoH3.wav,2,2,1,7,,,,,0,14,14,6,0,6,6,10,,,,,,,,,1,1.3192377400118858,096,001,2019_Sep_02_1108,MusicAffectPsychophysiology2019,3.0.5,59.80498086717834,
To what extent did the music make you feel ,EXCITED,30MonoWAV/30MonoH3.wav,2,2,1,7,,,,,0,14,14,6,0,7,7,7,,,,,,,,,4,1.135633213998517,096,001,2019_Sep_02_1108,MusicAffectPsychophysiology2019,3.0.5,59.80498086717834,
To what extent did the music make you feel ,SAD,30MonoWAV/30MonoH3.wav,2,2,1,7,,,,,0,14,14,6,0,8,8,0,,,,,,,,,1,0.8364774960209616,096,001,2019_Sep_02_1108,MusicAffectPsychophysiology2019,3.0.5,59.80498086717834,
To what extent did the music make you feel ,ANXIOUS ,30MonoWAV/30MonoH3.wav,2,2,1,7,,,,,0,14,14,6,0,9,9,1,,,,,,,,,1,0.8357590459927451,096,001,2019_Sep_02_1108,MusicAffectPsychophysiology2019,3.0.5,59.80498086717834,
To what extent did the music make you feel ,ANGRY,30MonoWAV/30MonoH3.wav,2,2,1,7,,,,,0,14,14,6,0,10,10,2,,,,,,,,,1,0.6688591749989428,096,001,2019_Sep_02_1108,MusicAffectPsychophysiology2019,3.0.5,59.80498086717834,
To what extent did the music make you feel ,ACTIVE,30MonoWAV/30MonoH3.wav,2,2,1,7,,,,,0,14,14,6,0,11,11,9,,,,,,,,,4,1.3026845490094274,096,001,2019_Sep_02_1108,MusicAffectPsychophysiology2019,3.0.5,59.80498086717834,
,,30MonoWAV/30MonoH3.wav,2,2,1,7,,,,,0,14,14,6,,,,,,,,,,,,,,,096,001,2019_Sep_02_1108,MusicAffectPsychophysiology2019,3.0.5,59.80498086717834,
To what extent did the music make you feel ,FRUSTRATED,30MonoWAV/30MonoH1.wav,2,2,1,5,,,,,0,15,15,4,0,0,0,3,,,4,3.6358926980174147,3,2.2529960179817863,4,1.9695862559892703,1,0.9289715279883239,096,001,2019_Sep_02_1108,MusicAffectPsychophysiology2019,3.0.5,59.80498086717834,
To what extent did the music make you feel ,SCARED,30MonoWAV/30MonoH1.wav,2,2,1,5,,,,,0,15,15,4,0,1,1,11,,,,,,,,,1,0.5008950429910328,096,001,2019_Sep_02_1108,MusicAffectPsychophysiology2019,3.0.5,59.80498086717834,
To what extent did the music make you feel ,ALERT,30MonoWAV/30MonoH1.wav,2,2,1,5,,,,,0,15,15,4,0,2,2,8,,,,,,,,,4,3.1858002520166337,096,001,2019_Sep_02_1108,MusicAffectPsychophysiology2019,3.0.5,59.80498086717834,
To what extent did the music make you feel ,ASHAMED,30MonoWAV/30MonoH1.wav,2,2,1,5,,,,,0,15,15,4,0,3,3,4,,,,,,,,,1,0.9695810240227729,096,001,2019_Sep_02_1108,MusicAffectPsychophysiology2019,3.0.5,59.80498086717834,
To what extent did the music make you feel ,SAD,30MonoWAV/30MonoH1.wav,2,2,1,5,,,,,0,15,15,4,0,4,4,0,,,,,,,,,1,0.6861974070197903,096,001,2019_Sep_02_1108,MusicAffectPsychophysiology2019,3.0.5,59.80498086717834,
To what extent did the music make you feel ,ANXIOUS ,30MonoWAV/30MonoH1.wav,2,2,1,5,,,,,0,15,15,4,0,5,5,1,,,,,,,,,1,0.5531250509957317,096,001,2019_Sep_02_1108,MusicAffectPsychophysiology2019,3.0.5,59.80498086717834,
To what extent did the music make you feel ,EXCITED,30MonoWAV/30MonoH1.wav,2,2,1,5,,,,,0,15,15,4,0,6,6,7,,,,,,,,,3,2.370482180005638,096,001,2019_Sep_02_1108,MusicAffectPsychophysiology2019,3.0.5,59.80498086717834,
To what extent did the music make you feel ,HAPPY,30MonoWAV/30MonoH1.wav,2,2,1,5,,,,,0,15,15,4,0,7,7,6,,,,,,,,,3,1.1701509850099683,096,001,2019_Sep_02_1108,MusicAffectPsychophysiology2019,3.0.5,59.80498086717834,
To what extent did the music make you feel ,ACTIVE,30MonoWAV/30MonoH1.wav,2,2,1,5,,,,,0,15,15,4,0,8,8,9,,,,,,,,,3,1.1026336329814512,096,001,2019_Sep_02_1108,MusicAffectPsychophysiology2019,3.0.5,59.80498086717834,
To what extent did the music make you feel ,ANGRY,30MonoWAV/30MonoH1.wav,2,2,1,5,,,,,0,15,15,4,0,9,9,2,,,,,,,,,1,0.8847190059896093,096,001,2019_Sep_02_1108,MusicAffectPsychophysiology2019,3.0.5,59.80498086717834,
To what extent did the music make you feel ,GUILTY,30MonoWAV/30MonoH1.wav,2,2,1,5,,,,,0,15,15,4,0,10,10,5,,,,,,,,,1,0.6165385890053585,096,001,2019_Sep_02_1108,MusicAffectPsychophysiology2019,3.0.5,59.80498086717834,
To what extent did the music make you feel ,TENDER,30MonoWAV/30MonoH1.wav,2,2,1,5,,,,,0,15,15,4,0,11,11,10,,,,,,,,,1,1.50232183598564,096,001,2019_Sep_02_1108,MusicAffectPsychophysiology2019,3.0.5,59.80498086717834,
,,30MonoWAV/30MonoH1.wav,2,2,1,5,,,,,0,15,15,4,,,,,,,,,,,,,,,096,001,2019_Sep_02_1108,MusicAffectPsychophysiology2019,3.0.5,59.80498086717834,
To what extent did the music make you feel ,GUILTY,30MonoWAV/30MonoS1.wav,1,1,3,9,,,,,1,0,16,8,0,0,0,5,,,1,11.335139102011453,1,7.600336693983991,1,2.419961572973989,1,2.235741894983221,096,001,2019_Sep_02_1108,MusicAffectPsychophysiology2019,3.0.5,59.80498086717834,
To what extent did the music make you feel ,FRUSTRATED,30MonoWAV/30MonoS1.wav,1,1,3,9,,,,,1,0,16,8,0,1,1,3,,,,,,,,,1,0.7208449409808964,096,001,2019_Sep_02_1108,MusicAffectPsychophysiology2019,3.0.5,59.80498086717834,
To what extent did the music make you feel ,ASHAMED,30MonoWAV/30MonoS1.wav,1,1,3,9,,,,,1,0,16,8,0,2,2,4,,,,,,,,,1,0.9022083849995397,096,001,2019_Sep_02_1108,MusicAffectPsychophysiology2019,3.0.5,59.80498086717834,
To what extent did the music make you feel ,HAPPY,30MonoWAV/30MonoS1.wav,1,1,3,9,,,,,1,0,16,8,0,3,3,6,,,,,,,,,1,0.619207652984187,096,001,2019_Sep_02_1108,MusicAffectPsychophysiology2019,3.0.5,59.80498086717834,
To what extent did the music make you feel ,ANGRY,30MonoWAV/30MonoS1.wav,1,1,3,9,,,,,1,0,16,8,0,4,4,2,,,,,,,,,1,0.6859076149994507,096,001,2019_Sep_02_1108,MusicAffectPsychophysiology2019,3.0.5,59.80498086717834,
To what extent did the music make you feel ,ACTIVE,30MonoWAV/30MonoS1.wav,1,1,3,9,,,,,1,0,16,8,0,5,5,9,,,,,,,,,1,0.7030053689959459,096,001,2019_Sep_02_1108,MusicAffectPsychophysiology2019,3.0.5,59.80498086717834,
To what extent did the music make you feel ,SAD,30MonoWAV/30MonoS1.wav,1,1,3,9,,,,,1,0,16,8,0,6,6,0,,,,,,,,,2,2.736048926017247,096,001,2019_Sep_02_1108,MusicAffectPsychophysiology2019,3.0.5,59.80498086717834,
To what extent did the music make you feel ,EXCITED,30MonoWAV/30MonoS1.wav,1,1,3,9,,,,,1,0,16,8,0,7,7,7,,,,,,,,,1,2.153043833997799,096,001,2019_Sep_02_1108,MusicAffectPsychophysiology2019,3.0.5,59.80498086717834,
To what extent did the music make you feel ,ANXIOUS ,30MonoWAV/30MonoS1.wav,1,1,3,9,,,,,1,0,16,8,0,8,8,1,,,,,,,,,1,0.8692190170113463,096,001,2019_Sep_02_1108,MusicAffectPsychophysiology2019,3.0.5,59.80498086717834,
To what extent did the music make you feel ,SCARED,30MonoWAV/30MonoS1.wav,1,1,3,9,,,,,1,0,16,8,0,9,9,11,,,,,,,,,1,1.1685250000155065,096,001,2019_Sep_02_1108,MusicAffectPsychophysiology2019,3.0.5,59.80498086717834,
To what extent did the music make you feel ,ALERT,30MonoWAV/30MonoS1.wav,1,1,3,9,,,,,1,0,16,8,0,10,10,8,,,,,,,,,1,0.9517996200011112,096,001,2019_Sep_02_1108,MusicAffectPsychophysiology2019,3.0.5,59.80498086717834,
To what extent did the music make you feel ,TENDER,30MonoWAV/30MonoS1.wav,1,1,3,9,,,,,1,0,16,8,0,11,11,10,,,,,,,,,1,0.7860076809884049,096,001,2019_Sep_02_1108,MusicAffectPsychophysiology2019,3.0.5,59.80498086717834,
,,30MonoWAV/30MonoS1.wav,1,1,3,9,,,,,1,0,16,8,,,,,,,,,,,,,,,096,001,2019_Sep_02_1108,MusicAffectPsychophysiology2019,3.0.5,59.80498086717834,
To what extent did the music make you feel ,ACTIVE,30MonoWAV/30MonoS2.wav,1,1,3,10,,,,,1,1,17,9,0,0,0,9,,,1,4.385885452997172,1,2.170839062979212,2,1.3862285999930464,1,1.1635776349867228,096,001,2019_Sep_02_1108,MusicAffectPsychophysiology2019,3.0.5,59.80498086717834,
To what extent did the music make you feel ,FRUSTRATED,30MonoWAV/30MonoS2.wav,1,1,3,10,,,,,1,1,17,9,0,1,1,3,,,,,,,,,1,0.7135978139995132,096,001,2019_Sep_02_1108,MusicAffectPsychophysiology2019,3.0.5,59.80498086717834,
To what extent did the music make you feel ,ASHAMED,30MonoWAV/30MonoS2.wav,1,1,3,10,,,,,1,1,17,9,0,2,2,4,,,,,,,,,1,0.7855150809918996,096,001,2019_Sep_02_1108,MusicAffectPsychophysiology2019,3.0.5,59.80498086717834,
To what extent did the music make you feel ,SAD,30MonoWAV/30MonoS2.wav,1,1,3,10,,,,,1,1,17,9,0,3,3,0,,,,,,,,,2,2.252859536005417,096,001,2019_Sep_02_1108,MusicAffectPsychophysiology2019,3.0.5,59.80498086717834,
To what extent did the music make you feel ,ANGRY,30MonoWAV/30MonoS2.wav,1,1,3,10,,,,,1,1,17,9,0,4,4,2,,,,,,,,,1,1.0853228689811658,096,001,2019_Sep_02_1108,MusicAffectPsychophysiology2019,3.0.5,59.80498086717834,
To what extent did the music make you feel ,SCARED,30MonoWAV/30MonoS2.wav,1,1,3,10,,,,,1,1,17,9,0,5,5,11,,,,,,,,,1,0.986778830003459,096,001,2019_Sep_02_1108,MusicAffectPsychophysiology2019,3.0.5,59.80498086717834,
To what extent did the music make you feel ,ALERT,30MonoWAV/30MonoS2.wav,1,1,3,10,,,,,1,1,17,9,0,6,6,8,,,,,,,,,2,1.4856274670164566,096,001,2019_Sep_02_1108,MusicAffectPsychophysiology2019,3.0.5,59.80498086717834,
To what extent did the music make you feel ,EXCITED,30MonoWAV/30MonoS2.wav,1,1,3,10,,,,,1,1,17,9,0,7,7,7,,,,,,,,,1,0.968439735006541,096,001,2019_Sep_02_1108,MusicAffectPsychophysiology2019,3.0.5,59.80498086717834,
To what extent did the music make you feel ,ANXIOUS ,30MonoWAV/30MonoS2.wav,1,1,3,10,,,,,1,1,17,9,0,8,8,1,,,,,,,,,1,0.6670401149895042,096,001,2019_Sep_02_1108,MusicAffectPsychophysiology2019,3.0.5,59.80498086717834,
To what extent did the music make you feel ,GUILTY,30MonoWAV/30MonoS2.wav,1,1,3,10,,,,,1,1,17,9,0,9,9,5,,,,,,,,,1,0.7197452870022971,096,001,2019_Sep_02_1108,MusicAffectPsychophysiology2019,3.0.5,59.80498086717834,
To what extent did the music make you feel ,TENDER,30MonoWAV/30MonoS2.wav,1,1,3,10,,,,,1,1,17,9,0,10,10,10,,,,,,,,,2,1.9529412899864838,096,001,2019_Sep_02_1108,MusicAffectPsychophysiology2019,3.0.5,59.80498086717834,
To what extent did the music make you feel ,HAPPY,30MonoWAV/30MonoS2.wav,1,1,3,10,,,,,1,1,17,9,0,11,11,6,,,,,,,,,1,0.6200372689927462,096,001,2019_Sep_02_1108,MusicAffectPsychophysiology2019,3.0.5,59.80498086717834,
,,30MonoWAV/30MonoS2.wav,1,1,3,10,,,,,1,1,17,9,,,,,,,,,,,,,,,096,001,2019_Sep_02_1108,MusicAffectPsychophysiology2019,3.0.5,59.80498086717834,
To what extent did the music make you feel ,ASHAMED,30MonoWAV/30MonoT2.wav,2,1,4,14,,,,,1,2,18,13,0,0,0,4,,,3,4.335327296983451,3,1.6704476780141704,3,1.135395839024568,1,3.089205801981734,096,001,2019_Sep_02_1108,MusicAffectPsychophysiology2019,3.0.5,59.80498086717834,
To what extent did the music make you feel ,TENDER,30MonoWAV/30MonoT2.wav,2,1,4,14,,,,,1,2,18,13,0,1,1,10,,,,,,,,,3,2.0040309399773832,096,001,2019_Sep_02_1108,MusicAffectPsychophysiology2019,3.0.5,59.80498086717834,
To what extent did the music make you feel ,ALERT,30MonoWAV/30MonoT2.wav,2,1,4,14,,,,,1,2,18,13,0,2,2,8,,,,,,,,,3,1.0895794770040084,096,001,2019_Sep_02_1108,MusicAffectPsychophysiology2019,3.0.5,59.80498086717834,
To what extent did the music make you feel ,SAD,30MonoWAV/30MonoT2.wav,2,1,4,14,,,,,1,2,18,13,0,3,3,0,,,,,,,,,1,1.0360202560259495,096,001,2019_Sep_02_1108,MusicAffectPsychophysiology2019,3.0.5,59.80498086717834,
To what extent did the music make you feel ,FRUSTRATED,30MonoWAV/30MonoT2.wav,2,1,4,14,,,,,1,2,18,13,0,4,4,3,,,,,,,,,1,0.7226316779851913,096,001,2019_Sep_02_1108,MusicAffectPsychophysiology2019,3.0.5,59.80498086717834,
To what extent did the music make you feel ,ANGRY,30MonoWAV/30MonoT2.wav,2,1,4,14,,,,,1,2,18,13,0,5,5,2,,,,,,,,,1,0.7709991250012536,096,001,2019_Sep_02_1108,MusicAffectPsychophysiology2019,3.0.5,59.80498086717834,
To what extent did the music make you feel ,ANXIOUS ,30MonoWAV/30MonoT2.wav,2,1,4,14,,,,,1,2,18,13,0,6,6,1,,,,,,,,,1,2.4055152279906906,096,001,2019_Sep_02_1108,MusicAffectPsychophysiology2019,3.0.5,59.80498086717834,
To what extent did the music make you feel ,ACTIVE,30MonoWAV/30MonoT2.wav,2,1,4,14,,,,,1,2,18,13,0,7,7,9,,,,,,,,,2,2.3502639519865625,096,001,2019_Sep_02_1108,MusicAffectPsychophysiology2019,3.0.5,59.80498086717834,
To what extent did the music make you feel ,SCARED,30MonoWAV/30MonoT2.wav,2,1,4,14,,,,,1,2,18,13,0,8,8,11,,,,,,,,,1,0.8352060100005474,096,001,2019_Sep_02_1108,MusicAffectPsychophysiology2019,3.0.5,59.80498086717834,
To what extent did the music make you feel ,GUILTY,30MonoWAV/30MonoT2.wav,2,1,4,14,,,,,1,2,18,13,0,9,9,5,,,,,,,,,1,0.6687246600049548,096,001,2019_Sep_02_1108,MusicAffectPsychophysiology2019,3.0.5,59.80498086717834,
To what extent did the music make you feel ,EXCITED,30MonoWAV/30MonoT2.wav,2,1,4,14,,,,,1,2,18,13,0,10,10,7,,,,,,,,,2,1.7203488509985618,096,001,2019_Sep_02_1108,MusicAffectPsychophysiology2019,3.0.5,59.80498086717834,
To what extent did the music make you feel ,HAPPY,30MonoWAV/30MonoT2.wav,2,1,4,14,,,,,1,2,18,13,0,11,11,6,,,,,,,,,3,1.5530187420081347,096,001,2019_Sep_02_1108,MusicAffectPsychophysiology2019,3.0.5,59.80498086717834,
,,30MonoWAV/30MonoT2.wav,2,1,4,14,,,,,1,2,18,13,,,,,,,,,,,,,,,096,001,2019_Sep_02_1108,MusicAffectPsychophysiology2019,3.0.5,59.80498086717834,
To what extent did the music make you feel ,HAPPY,30MonoWAV/30MonoH3.wav,2,2,1,7,,,,,1,3,19,6,0,0,0,6,,,4,6.0352803300193045,4,1.4179295509820804,4,1.8015961310011335,4,1.6654625780065544,096,001,2019_Sep_02_1108,MusicAffectPsychophysiology2019,3.0.5,59.80498086717834,
To what extent did the music make you feel ,FRUSTRATED,30MonoWAV/30MonoH3.wav,2,2,1,7,,,,,1,3,19,6,0,1,1,3,,,,,,,,,1,1.669867451011669,096,001,2019_Sep_02_1108,MusicAffectPsychophysiology2019,3.0.5,59.80498086717834,
To what extent did the music make you feel ,ASHAMED,30MonoWAV/30MonoH3.wav,2,2,1,7,,,,,1,3,19,6,0,2,2,4,,,,,,,,,1,1.6353656059945934,096,001,2019_Sep_02_1108,MusicAffectPsychophysiology2019,3.0.5,59.80498086717834,
To what extent did the music make you feel ,SCARED,30MonoWAV/30MonoH3.wav,2,2,1,7,,,,,1,3,19,6,0,3,3,11,,,,,,,,,1,1.5517124570033047,096,001,2019_Sep_02_1108,MusicAffectPsychophysiology2019,3.0.5,59.80498086717834,
To what extent did the music make you feel ,ANXIOUS ,30MonoWAV/30MonoH3.wav,2,2,1,7,,,,,1,3,19,6,0,4,4,1,,,,,,,,,1,2.253244874998927,096,001,2019_Sep_02_1108,MusicAffectPsychophysiology2019,3.0.5,59.80498086717834,
To what extent did the music make you feel ,ALERT,30MonoWAV/30MonoH3.wav,2,2,1,7,,,,,1,3,19,6,0,5,5,8,,,,,,,,,4,1.9199164789752103,096,001,2019_Sep_02_1108,MusicAffectPsychophysiology2019,3.0.5,59.80498086717834,
To what extent did the music make you feel ,ANGRY,30MonoWAV/30MonoH3.wav,2,2,1,7,,,,,1,3,19,6,0,6,6,2,,,,,,,,,1,2.0027095680125058,096,001,2019_Sep_02_1108,MusicAffectPsychophysiology2019,3.0.5,59.80498086717834,
To what extent did the music make you feel ,GUILTY,30MonoWAV/30MonoH3.wav,2,2,1,7,,,,,1,3,19,6,0,7,7,5,,,,,,,,,1,1.553692128014518,096,001,2019_Sep_02_1108,MusicAffectPsychophysiology2019,3.0.5,59.80498086717834,
To what extent did the music make you feel ,SAD,30MonoWAV/30MonoH3.wav,2,2,1,7,,,,,1,3,19,6,0,8,8,0,,,,,,,,,1,1.4874047499906737,096,001,2019_Sep_02_1108,MusicAffectPsychophysiology2019,3.0.5,59.80498086717834,
To what extent did the music make you feel ,TENDER,30MonoWAV/30MonoH3.wav,2,2,1,7,,,,,1,3,19,6,0,9,9,10,,,,,,,,,1,1.4528532160038594,096,001,2019_Sep_02_1108,MusicAffectPsychophysiology2019,3.0.5,59.80498086717834,
To what extent did the music make you feel ,ACTIVE,30MonoWAV/30MonoH3.wav,2,2,1,7,,,,,1,3,19,6,0,10,10,9,,,,,,,,,4,2.803378167998744,096,001,2019_Sep_02_1108,MusicAffectPsychophysiology2019,3.0.5,59.80498086717834,
To what extent did the music make you feel ,EXCITED,30MonoWAV/30MonoH3.wav,2,2,1,7,,,,,1,3,19,6,0,11,11,7,,,,,,,,,4,1.7192851319850888,096,001,2019_Sep_02_1108,MusicAffectPsychophysiology2019,3.0.5,59.80498086717834,
,,30MonoWAV/30MonoH3.wav,2,2,1,7,,,,,1,3,19,6,,,,,,,,,,,,,,,096,001,2019_Sep_02_1108,MusicAffectPsychophysiology2019,3.0.5,59.80498086717834,
To what extent did the music make you feel ,FRUSTRATED,30MonoWAV/30MonoS4.wav,1,1,3,12,,,,,1,4,20,11,0,0,0,3,,,1,2.919559425994521,1,1.002930546994321,1,1.7362335590005387,1,1.1526383070158772,096,001,2019_Sep_02_1108,MusicAffectPsychophysiology2019,3.0.5,59.80498086717834,
To what extent did the music make you feel ,ANXIOUS ,30MonoWAV/30MonoS4.wav,1,1,3,12,,,,,1,4,20,11,0,1,1,1,,,,,,,,,1,1.036083235987462,096,001,2019_Sep_02_1108,MusicAffectPsychophysiology2019,3.0.5,59.80498086717834,
To what extent did the music make you feel ,ANGRY,30MonoWAV/30MonoS4.wav,1,1,3,12,,,,,1,4,20,11,0,2,2,2,,,,,,,,,1,0.8695371590147261,096,001,2019_Sep_02_1108,MusicAffectPsychophysiology2019,3.0.5,59.80498086717834,
To what extent did the music make you feel ,GUILTY,30MonoWAV/30MonoS4.wav,1,1,3,12,,,,,1,4,20,11,0,3,3,5,,,,,,,,,1,0.9531602999777533,096,001,2019_Sep_02_1108,MusicAffectPsychophysiology2019,3.0.5,59.80498086717834,
To what extent did the music make you feel ,ACTIVE,30MonoWAV/30MonoS4.wav,1,1,3,12,,,,,1,4,20,11,0,4,4,9,,,,,,,,,1,0.8193242010020185,096,001,2019_Sep_02_1108,MusicAffectPsychophysiology2019,3.0.5,59.80498086717834,
To what extent did the music make you feel ,ALERT,30MonoWAV/30MonoS4.wav,1,1,3,12,,,,,1,4,20,11,0,5,5,8,,,,,,,,,1,0.9198112399899401,096,001,2019_Sep_02_1108,MusicAffectPsychophysiology2019,3.0.5,59.80498086717834,
To what extent did the music make you feel ,EXCITED,30MonoWAV/30MonoS4.wav,1,1,3,12,,,,,1,4,20,11,0,6,6,7,,,,,,,,,1,0.9362547920027282,096,001,2019_Sep_02_1108,MusicAffectPsychophysiology2019,3.0.5,59.80498086717834,
To what extent did the music make you feel ,HAPPY,30MonoWAV/30MonoS4.wav,1,1,3,12,,,,,1,4,20,11,0,7,7,6,,,,,,,,,1,0.9359451509953942,096,001,2019_Sep_02_1108,MusicAffectPsychophysiology2019,3.0.5,59.80498086717834,
To what extent did the music make you feel ,SCARED,30MonoWAV/30MonoS4.wav,1,1,3,12,,,,,1,4,20,11,0,8,8,11,,,,,,,,,1,0.9365209669922478,096,001,2019_Sep_02_1108,MusicAffectPsychophysiology2019,3.0.5,59.80498086717834,
To what extent did the music make you feel ,TENDER,30MonoWAV/30MonoS4.wav,1,1,3,12,,,,,1,4,20,11,0,9,9,10,,,,,,,,,3,2.5352638530021068,096,001,2019_Sep_02_1108,MusicAffectPsychophysiology2019,3.0.5,59.80498086717834,
To what extent did the music make you feel ,ASHAMED,30MonoWAV/30MonoS4.wav,1,1,3,12,,,,,1,4,20,11,0,10,10,4,,,,,,,,,1,1.3339653320144862,096,001,2019_Sep_02_1108,MusicAffectPsychophysiology2019,3.0.5,59.80498086717834,
To what extent did the music make you feel ,SAD,30MonoWAV/30MonoS4.wav,1,1,3,12,,,,,1,4,20,11,0,11,11,0,,,,,,,,,4,1.765762539987918,096,001,2019_Sep_02_1108,MusicAffectPsychophysiology2019,3.0.5,59.80498086717834,
,,30MonoWAV/30MonoS4.wav,1,1,3,12,,,,,1,4,20,11,,,,,,,,,,,,,,,096,001,2019_Sep_02_1108,MusicAffectPsychophysiology2019,3.0.5,59.80498086717834,
To what extent did the music make you feel ,SCARED,30MonoWAV/30MonoH1.wav,2,2,1,5,,,,,1,5,21,4,0,0,0,11,,,4,3.301998521987116,4,0.786441067000851,4,0.7693881699815392,1,1.102093261986738,096,001,2019_Sep_02_1108,MusicAffectPsychophysiology2019,3.0.5,59.80498086717834,
To what extent did the music make you feel ,EXCITED,30MonoWAV/30MonoH1.wav,2,2,1,5,,,,,1,5,21,4,0,1,1,7,,,,,,,,,4,1.6872204300016165,096,001,2019_Sep_02_1108,MusicAffectPsychophysiology2019,3.0.5,59.80498086717834,
To what extent did the music make you feel ,ACTIVE,30MonoWAV/30MonoH1.wav,2,2,1,5,,,,,1,5,21,4,0,2,2,9,,,,,,,,,4,1.5686240929935593,096,001,2019_Sep_02_1108,MusicAffectPsychophysiology2019,3.0.5,59.80498086717834,
To what extent did the music make you feel ,SAD,30MonoWAV/30MonoH1.wav,2,2,1,5,,,,,1,5,21,4,0,3,3,0,,,,,,,,,1,1.0852904339844827,096,001,2019_Sep_02_1108,MusicAffectPsychophysiology2019,3.0.5,59.80498086717834,
To what extent did the music make you feel ,GUILTY,30MonoWAV/30MonoH1.wav,2,2,1,5,,,,,1,5,21,4,0,4,4,5,,,,,,,,,1,0.652665261994116,096,001,2019_Sep_02_1108,MusicAffectPsychophysiology2019,3.0.5,59.80498086717834,
To what extent did the music make you feel ,ASHAMED,30MonoWAV/30MonoH1.wav,2,2,1,5,,,,,1,5,21,4,0,5,5,4,,,,,,,,,1,0.7857810980058275,096,001,2019_Sep_02_1108,MusicAffectPsychophysiology2019,3.0.5,59.80498086717834,
To what extent did the music make you feel ,TENDER,30MonoWAV/30MonoH1.wav,2,2,1,5,,,,,1,5,21,4,0,6,6,10,,,,,,,,,1,1.7684979079931509,096,001,2019_Sep_02_1108,MusicAffectPsychophysiology2019,3.0.5,59.80498086717834,
To what extent did the music make you feel ,HAPPY,30MonoWAV/30MonoH1.wav,2,2,1,5,,,,,1,5,21,4,0,7,7,6,,,,,,,,,4,1.5850978690141346,096,001,2019_Sep_02_1108,MusicAffectPsychophysiology2019,3.0.5,59.80498086717834,
To what extent did the music make you feel ,FRUSTRATED,30MonoWAV/30MonoH1.wav,2,2,1,5,,,,,1,5,21,4,0,8,8,3,,,,,,,,,1,1.3196909310063347,096,001,2019_Sep_02_1108,MusicAffectPsychophysiology2019,3.0.5,59.80498086717834,
To what extent did the music make you feel ,ANXIOUS ,30MonoWAV/30MonoH1.wav,2,2,1,5,,,,,1,5,21,4,0,9,9,1,,,,,,,,,1,0.768703496985836,096,001,2019_Sep_02_1108,MusicAffectPsychophysiology2019,3.0.5,59.80498086717834,
To what extent did the music make you feel ,ALERT,30MonoWAV/30MonoH1.wav,2,2,1,5,,,,,1,5,21,4,0,10,10,8,,,,,,,,,4,2.0203342409804463,096,001,2019_Sep_02_1108,MusicAffectPsychophysiology2019,3.0.5,59.80498086717834,
To what extent did the music make you feel ,ANGRY,30MonoWAV/30MonoH1.wav,2,2,1,5,,,,,1,5,21,4,0,11,11,2,,,,,,,,,1,3.869808841991471,096,001,2019_Sep_02_1108,MusicAffectPsychophysiology2019,3.0.5,59.80498086717834,
,,30MonoWAV/30MonoH1.wav,2,2,1,5,,,,,1,5,21,4,,,,,,,,,,,,,,,096,001,2019_Sep_02_1108,MusicAffectPsychophysiology2019,3.0.5,59.80498086717834,
To what extent did the music make you feel ,ASHAMED,30MonoWAV/30MonoT4.wav,2,1,4,16,,,,,1,6,22,15,0,0,0,4,,,2,7.401494935009396,2,1.8030014249961823,3,2.2369549550057855,1,1.6427051769860554,096,001,2019_Sep_02_1108,MusicAffectPsychophysiology2019,3.0.5,59.80498086717834,
To what extent did the music make you feel ,FRUSTRATED,30MonoWAV/30MonoT4.wav,2,1,4,16,,,,,1,6,22,15,0,1,1,3,,,,,,,,,1,0.8185466529976111,096,001,2019_Sep_02_1108,MusicAffectPsychophysiology2019,3.0.5,59.80498086717834,
To what extent did the music make you feel ,EXCITED,30MonoWAV/30MonoT4.wav,2,1,4,16,,,,,1,6,22,15,0,2,2,7,,,,,,,,,1,1.6526130030106287,096,001,2019_Sep_02_1108,MusicAffectPsychophysiology2019,3.0.5,59.80498086717834,
To what extent did the music make you feel ,SAD,30MonoWAV/30MonoT4.wav,2,1,4,16,,,,,1,6,22,15,0,3,3,0,,,,,,,,,2,2.2496000699757133,096,001,2019_Sep_02_1108,MusicAffectPsychophysiology2019,3.0.5,59.80498086717834,
To what extent did the music make you feel ,SCARED,30MonoWAV/30MonoT4.wav,2,1,4,16,,,,,1,6,22,15,0,4,4,11,,,,,,,,,1,1.085629973007599,096,001,2019_Sep_02_1108,MusicAffectPsychophysiology2019,3.0.5,59.80498086717834,
To what extent did the music make you feel ,ALERT,30MonoWAV/30MonoT4.wav,2,1,4,16,,,,,1,6,22,15,0,5,5,8,,,,,,,,,2,1.7196877560054418,096,001,2019_Sep_02_1108,MusicAffectPsychophysiology2019,3.0.5,59.80498086717834,
To what extent did the music make you feel ,ACTIVE,30MonoWAV/30MonoT4.wav,2,1,4,16,,,,,1,6,22,15,0,6,6,9,,,,,,,,,1,1.5353110300202388,096,001,2019_Sep_02_1108,MusicAffectPsychophysiology2019,3.0.5,59.80498086717834,
To what extent did the music make you feel ,GUILTY,30MonoWAV/30MonoT4.wav,2,1,4,16,,,,,1,6,22,15,0,7,7,5,,,,,,,,,1,1.9186188539897557,096,001,2019_Sep_02_1108,MusicAffectPsychophysiology2019,3.0.5,59.80498086717834,
To what extent did the music make you feel ,ANGRY,30MonoWAV/30MonoT4.wav,2,1,4,16,,,,,1,6,22,15,0,8,8,2,,,,,,,,,1,0.7361464950081427,096,001,2019_Sep_02_1108,MusicAffectPsychophysiology2019,3.0.5,59.80498086717834,
To what extent did the music make you feel ,ANXIOUS ,30MonoWAV/30MonoT4.wav,2,1,4,16,,,,,1,6,22,15,0,9,9,1,,,,,,,,,1,0.9527384290122427,096,001,2019_Sep_02_1108,MusicAffectPsychophysiology2019,3.0.5,59.80498086717834,
To what extent did the music make you feel ,HAPPY,30MonoWAV/30MonoT4.wav,2,1,4,16,,,,,1,6,22,15,0,10,10,6,,,,,,,,,1,0.6870821630000137,096,001,2019_Sep_02_1108,MusicAffectPsychophysiology2019,3.0.5,59.80498086717834,
To what extent did the music make you feel ,TENDER,30MonoWAV/30MonoT4.wav,2,1,4,16,,,,,1,6,22,15,0,11,11,10,,,,,,,,,2,1.3846658940019552,096,001,2019_Sep_02_1108,MusicAffectPsychophysiology2019,3.0.5,59.80498086717834,
,,30MonoWAV/30MonoT4.wav,2,1,4,16,,,,,1,6,22,15,,,,,,,,,,,,,,,096,001,2019_Sep_02_1108,MusicAffectPsychophysiology2019,3.0.5,59.80498086717834,
To what extent did the music make you feel ,EXCITED,30MonoWAV/30MonoS3.wav,1,1,3,11,,,,,1,7,23,10,0,0,0,7,,,1,4.91693387797568,1,1.1869455440028105,1,2.4367238970007747,1,0.8360616229765583,096,001,2019_Sep_02_1108,MusicAffectPsychophysiology2019,3.0.5,59.80498086717834,
To what extent did the music make you feel ,GUILTY,30MonoWAV/30MonoS3.wav,1,1,3,11,,,,,1,7,23,10,0,1,1,5,,,,,,,,,1,0.9183329989900813,096,001,2019_Sep_02_1108,MusicAffectPsychophysiology2019,3.0.5,59.80498086717834,
To what extent did the music make you feel ,SAD,30MonoWAV/30MonoS3.wav,1,1,3,11,,,,,1,7,23,10,0,2,2,0,,,,,,,,,2,2.0369711499952246,096,001,2019_Sep_02_1108,MusicAffectPsychophysiology2019,3.0.5,59.80498086717834,
To what extent did the music make you feel ,ACTIVE,30MonoWAV/30MonoS3.wav,1,1,3,11,,,,,1,7,23,10,0,3,3,9,,,,,,,,,1,1.1028031379973982,096,001,2019_Sep_02_1108,MusicAffectPsychophysiology2019,3.0.5,59.80498086717834,
To what extent did the music make you feel ,ANGRY,30MonoWAV/30MonoS3.wav,1,1,3,11,,,,,1,7,23,10,0,4,4,2,,,,,,,,,1,0.8701094879943412,096,001,2019_Sep_02_1108,MusicAffectPsychophysiology2019,3.0.5,59.80498086717834,
To what extent did the music make you feel ,ASHAMED,30MonoWAV/30MonoS3.wav,1,1,3,11,,,,,1,7,23,10,0,5,5,4,,,,,,,,,1,1.1185187569935806,096,001,2019_Sep_02_1108,MusicAffectPsychophysiology2019,3.0.5,59.80498086717834,
To what extent did the music make you feel ,HAPPY,30MonoWAV/30MonoS3.wav,1,1,3,11,,,,,1,7,23,10,0,6,6,6,,,,,,,,,1,0.836245376005536,096,001,2019_Sep_02_1108,MusicAffectPsychophysiology2019,3.0.5,59.80498086717834,
To what extent did the music make you feel ,TENDER,30MonoWAV/30MonoS3.wav,1,1,3,11,,,,,1,7,23,10,0,7,7,10,,,,,,,,,2,1.4528212799923494,096,001,2019_Sep_02_1108,MusicAffectPsychophysiology2019,3.0.5,59.80498086717834,
To what extent did the music make you feel ,ALERT,30MonoWAV/30MonoS3.wav,1,1,3,11,,,,,1,7,23,10,0,8,8,8,,,,,,,,,2,1.351660187006928,096,001,2019_Sep_02_1108,MusicAffectPsychophysiology2019,3.0.5,59.80498086717834,
To what extent did the music make you feel ,ANXIOUS ,30MonoWAV/30MonoS3.wav,1,1,3,11,,,,,1,7,23,10,0,9,9,1,,,,,,,,,1,3.6018998750078026,096,001,2019_Sep_02_1108,MusicAffectPsychophysiology2019,3.0.5,59.80498086717834,
To what extent did the music make you feel ,SCARED,30MonoWAV/30MonoS3.wav,1,1,3,11,,,,,1,7,23,10,0,10,10,11,,,,,,,,,1,1.1195655160117894,096,001,2019_Sep_02_1108,MusicAffectPsychophysiology2019,3.0.5,59.80498086717834,
To what extent did the music make you feel ,FRUSTRATED,30MonoWAV/30MonoS3.wav,1,1,3,11,,,,,1,7,23,10,0,11,11,3,,,,,,,,,1,1.4031155859993305,096,001,2019_Sep_02_1108,MusicAffectPsychophysiology2019,3.0.5,59.80498086717834,
,,30MonoWAV/30MonoS3.wav,1,1,3,11,,,,,1,7,23,10,,,,,,,,,,,,,,,096,001,2019_Sep_02_1108,MusicAffectPsychophysiology2019,3.0.5,59.80498086717834,
To what extent did the music make you feel ,GUILTY,30MonoWAV/30MonoH2.wav,2,2,1,6,,,,,1,8,24,5,0,0,0,5,,,3,14.584056929015787,3,1.7856311919749714,3,1.2522414569975808,1,1.5280672369990498,096,001,2019_Sep_02_1108,MusicAffectPsychophysiology2019,3.0.5,59.80498086717834,
To what extent did the music make you feel ,FRUSTRATED,30MonoWAV/30MonoH2.wav,2,2,1,6,,,,,1,8,24,5,0,1,1,3,,,,,,,,,1,0.6625542269903235,096,001,2019_Sep_02_1108,MusicAffectPsychophysiology2019,3.0.5,59.80498086717834,
To what extent did the music make you feel ,SAD,30MonoWAV/30MonoH2.wav,2,2,1,6,,,,,1,8,24,5,0,2,2,0,,,,,,,,,1,0.5868174089991953,096,001,2019_Sep_02_1108,MusicAffectPsychophysiology2019,3.0.5,59.80498086717834,
To what extent did the music make you feel ,TENDER,30MonoWAV/30MonoH2.wav,2,2,1,6,,,,,1,8,24,5,0,3,3,10,,,,,,,,,1,0.9687689670245163,096,001,2019_Sep_02_1108,MusicAffectPsychophysiology2019,3.0.5,59.80498086717834,
To what extent did the music make you feel ,EXCITED,30MonoWAV/30MonoH2.wav,2,2,1,6,,,,,1,8,24,5,0,4,4,7,,,,,,,,,3,2.2532591850031167,096,001,2019_Sep_02_1108,MusicAffectPsychophysiology2019,3.0.5,59.80498086717834,
To what extent did the music make you feel ,ACTIVE,30MonoWAV/30MonoH2.wav,2,2,1,6,,,,,1,8,24,5,0,5,5,9,,,,,,,,,3,1.270197691017529,096,001,2019_Sep_02_1108,MusicAffectPsychophysiology2019,3.0.5,59.80498086717834,
To what extent did the music make you feel ,ANXIOUS ,30MonoWAV/30MonoH2.wav,2,2,1,6,,,,,1,8,24,5,0,6,6,1,,,,,,,,,1,1.3701948869857006,096,001,2019_Sep_02_1108,MusicAffectPsychophysiology2019,3.0.5,59.80498086717834,
To what extent did the music make you feel ,SCARED,30MonoWAV/30MonoH2.wav,2,2,1,6,,,,,1,8,24,5,0,7,7,11,,,,,,,,,1,0.5943785720155574,096,001,2019_Sep_02_1108,MusicAffectPsychophysiology2019,3.0.5,59.80498086717834,
To what extent did the music make you feel ,ASHAMED,30MonoWAV/30MonoH2.wav,2,2,1,6,,,,,1,8,24,5,0,8,8,4,,,,,,,,,1,0.6025778879993595,096,001,2019_Sep_02_1108,MusicAffectPsychophysiology2019,3.0.5,59.80498086717834,
To what extent did the music make you feel ,ANGRY,30MonoWAV/30MonoH2.wav,2,2,1,6,,,,,1,8,24,5,0,9,9,2,,,,,,,,,1,0.6366776000068057,096,001,2019_Sep_02_1108,MusicAffectPsychophysiology2019,3.0.5,59.80498086717834,
To what extent did the music make you feel ,ALERT,30MonoWAV/30MonoH2.wav,2,2,1,6,,,,,1,8,24,5,0,10,10,8,,,,,,,,,3,1.8017078730044886,096,001,2019_Sep_02_1108,MusicAffectPsychophysiology2019,3.0.5,59.80498086717834,
To what extent did the music make you feel ,HAPPY,30MonoWAV/30MonoH2.wav,2,2,1,6,,,,,1,8,24,5,0,11,11,6,,,,,,,,,3,1.2523093929921743,096,001,2019_Sep_02_1108,MusicAffectPsychophysiology2019,3.0.5,59.80498086717834,
,,30MonoWAV/30MonoH2.wav,2,2,1,6,,,,,1,8,24,5,,,,,,,,,,,,,,,096,001,2019_Sep_02_1108,MusicAffectPsychophysiology2019,3.0.5,59.80498086717834,
To what extent did the music make you feel ,SAD,30MonoWAV/30MonoF2.wav,1,2,2,2,,,,,1,9,25,1,0,0,0,0,,,2,6.436167674983153,1,1.0693304370215628,1,1.9189995759807061,1,2.2219072290172335,096,001,2019_Sep_02_1108,MusicAffectPsychophysiology2019,3.0.5,59.80498086717834,
To what extent did the music make you feel ,ANGRY,30MonoWAV/30MonoF2.wav,1,2,2,2,,,,,1,9,25,1,0,1,1,2,,,,,,,,,1,0.7694869619735982,096,001,2019_Sep_02_1108,MusicAffectPsychophysiology2019,3.0.5,59.80498086717834,
To what extent did the music make you feel ,TENDER,30MonoWAV/30MonoF2.wav,1,2,2,2,,,,,1,9,25,1,0,2,2,10,,,,,,,,,1,1.169948024005862,096,001,2019_Sep_02_1108,MusicAffectPsychophysiology2019,3.0.5,59.80498086717834,
To what extent did the music make you feel ,HAPPY,30MonoWAV/30MonoF2.wav,1,2,2,2,,,,,1,9,25,1,0,3,3,6,,,,,,,,,1,0.6530533939949237,096,001,2019_Sep_02_1108,MusicAffectPsychophysiology2019,3.0.5,59.80498086717834,
To what extent did the music make you feel ,ASHAMED,30MonoWAV/30MonoF2.wav,1,2,2,2,,,,,1,9,25,1,0,4,4,4,,,,,,,,,1,0.652095930010546,096,001,2019_Sep_02_1108,MusicAffectPsychophysiology2019,3.0.5,59.80498086717834,
To what extent did the music make you feel ,ANXIOUS ,30MonoWAV/30MonoF2.wav,1,2,2,2,,,,,1,9,25,1,0,5,5,1,,,,,,,,,4,5.219138867978472,096,001,2019_Sep_02_1108,MusicAffectPsychophysiology2019,3.0.5,59.80498086717834,
To what extent did the music make you feel ,ACTIVE,30MonoWAV/30MonoF2.wav,1,2,2,2,,,,,1,9,25,1,0,6,6,9,,,,,,,,,1,1.520540658995742,096,001,2019_Sep_02_1108,MusicAffectPsychophysiology2019,3.0.5,59.80498086717834,
To what extent did the music make you feel ,SCARED,30MonoWAV/30MonoF2.wav,1,2,2,2,,,,,1,9,25,1,0,7,7,11,,,,,,,,,4,1.5511105589976069,096,001,2019_Sep_02_1108,MusicAffectPsychophysiology2019,3.0.5,59.80498086717834,
To what extent did the music make you feel ,GUILTY,30MonoWAV/30MonoF2.wav,1,2,2,2,,,,,1,9,25,1,0,8,8,5,,,,,,,,,1,1.2684296299994458,096,001,2019_Sep_02_1108,MusicAffectPsychophysiology2019,3.0.5,59.80498086717834,
To what extent did the music make you feel ,ALERT,30MonoWAV/30MonoF2.wav,1,2,2,2,,,,,1,9,25,1,0,9,9,8,,,,,,,,,4,1.0865893269947264,096,001,2019_Sep_02_1108,MusicAffectPsychophysiology2019,3.0.5,59.80498086717834,
To what extent did the music make you feel ,FRUSTRATED,30MonoWAV/30MonoF2.wav,1,2,2,2,,,,,1,9,25,1,0,10,10,3,,,,,,,,,1,0.9870592399965972,096,001,2019_Sep_02_1108,MusicAffectPsychophysiology2019,3.0.5,59.80498086717834,
To what extent did the music make you feel ,EXCITED,30MonoWAV/30MonoF2.wav,1,2,2,2,,,,,1,9,25,1,0,11,11,7,,,,,,,,,1,1.035792054986814,096,001,2019_Sep_02_1108,MusicAffectPsychophysiology2019,3.0.5,59.80498086717834,
,,30MonoWAV/30MonoF2.wav,1,2,2,2,,,,,1,9,25,1,,,,,,,,,,,,,,,096,001,2019_Sep_02_1108,MusicAffectPsychophysiology2019,3.0.5,59.80498086717834,
To what extent did the music make you feel ,TENDER,30MonoWAV/30MonoF1.wav,1,2,2,1,,,,,1,10,26,0,0,0,0,10,,,1,5.485597057995619,1,0.9204638959781732,1,2.3188859619840514,1,2.4821581219730433,096,001,2019_Sep_02_1108,MusicAffectPsychophysiology2019,3.0.5,59.80498086717834,
To what extent did the music make you feel ,EXCITED,30MonoWAV/30MonoF1.wav,1,2,2,1,,,,,1,10,26,0,0,1,1,7,,,,,,,,,1,0.5860416719806381,096,001,2019_Sep_02_1108,MusicAffectPsychophysiology2019,3.0.5,59.80498086717834,
To what extent did the music make you feel ,GUILTY,30MonoWAV/30MonoF1.wav,1,2,2,1,,,,,1,10,26,0,0,2,2,5,,,,,,,,,1,0.7362668330024462,096,001,2019_Sep_02_1108,MusicAffectPsychophysiology2019,3.0.5,59.80498086717834,
To what extent did the music make you feel ,HAPPY,30MonoWAV/30MonoF1.wav,1,2,2,1,,,,,1,10,26,0,0,3,3,6,,,,,,,,,1,0.703319358988665,096,001,2019_Sep_02_1108,MusicAffectPsychophysiology2019,3.0.5,59.80498086717834,
To what extent did the music make you feel ,ASHAMED,30MonoWAV/30MonoF1.wav,1,2,2,1,,,,,1,10,26,0,0,4,4,4,,,,,,,,,1,0.8195168480160646,096,001,2019_Sep_02_1108,MusicAffectPsychophysiology2019,3.0.5,59.80498086717834,
To what extent did the music make you feel ,ALERT,30MonoWAV/30MonoF1.wav,1,2,2,1,,,,,1,10,26,0,0,5,5,8,,,,,,,,,4,3.3863650760031305,096,001,2019_Sep_02_1108,MusicAffectPsychophysiology2019,3.0.5,59.80498086717834,
To what extent did the music make you feel ,ANXIOUS ,30MonoWAV/30MonoF1.wav,1,2,2,1,,,,,1,10,26,0,0,6,6,1,,,,,,,,,4,1.1216703770041931,096,001,2019_Sep_02_1108,MusicAffectPsychophysiology2019,3.0.5,59.80498086717834,
To what extent did the music make you feel ,FRUSTRATED,30MonoWAV/30MonoF1.wav,1,2,2,1,,,,,1,10,26,0,0,7,7,3,,,,,,,,,1,1.4801944609789643,096,001,2019_Sep_02_1108,MusicAffectPsychophysiology2019,3.0.5,59.80498086717834,
To what extent did the music make you feel ,SCARED,30MonoWAV/30MonoF1.wav,1,2,2,1,,,,,1,10,26,0,0,8,8,11,,,,,,,,,3,3.0669368139933795,096,001,2019_Sep_02_1108,MusicAffectPsychophysiology2019,3.0.5,59.80498086717834,
To what extent did the music make you feel ,ANGRY,30MonoWAV/30MonoF1.wav,1,2,2,1,,,,,1,10,26,0,0,9,9,2,,,,,,,,,1,1.052550471998984,096,001,2019_Sep_02_1108,MusicAffectPsychophysiology2019,3.0.5,59.80498086717834,
To what extent did the music make you feel ,SAD,30MonoWAV/30MonoF1.wav,1,2,2,1,,,,,1,10,26,0,0,10,10,0,,,,,,,,,1,0.919186281011207,096,001,2019_Sep_02_1108,MusicAffectPsychophysiology2019,3.0.5,59.80498086717834,
To what extent did the music make you feel ,ACTIVE,30MonoWAV/30MonoF1.wav,1,2,2,1,,,,,1,10,26,0,0,11,11,9,,,,,,,,,1,2.6035112180106808,096,001,2019_Sep_02_1108,MusicAffectPsychophysiology2019,3.0.5,59.80498086717834,
,,30MonoWAV/30MonoF1.wav,1,2,2,1,,,,,1,10,26,0,,,,,,,,,,,,,,,096,001,2019_Sep_02_1108,MusicAffectPsychophysiology2019,3.0.5,59.80498086717834,
To what extent did the music make you feel ,EXCITED,30MonoWAV/30MonoH4.wav,2,2,1,8,,,,,1,11,27,7,0,0,0,7,,,4,4.50187018600991,4,1.069397327984916,4,1.0522240760037675,4,1.2900637960119639,096,001,2019_Sep_02_1108,MusicAffectPsychophysiology2019,3.0.5,59.80498086717834,
To what extent did the music make you feel ,ALERT,30MonoWAV/30MonoH4.wav,2,2,1,8,,,,,1,11,27,7,0,1,1,8,,,,,,,,,4,1.452462421002565,096,001,2019_Sep_02_1108,MusicAffectPsychophysiology2019,3.0.5,59.80498086717834,
To what extent did the music make you feel ,ANXIOUS ,30MonoWAV/30MonoH4.wav,2,2,1,8,,,,,1,11,27,7,0,2,2,1,,,,,,,,,1,1.2343497640104033,096,001,2019_Sep_02_1108,MusicAffectPsychophysiology2019,3.0.5,59.80498086717834,
To what extent did the music make you feel ,ASHAMED,30MonoWAV/30MonoH4.wav,2,2,1,8,,,,,1,11,27,7,0,3,3,4,,,,,,,,,1,0.5999519579927437,096,001,2019_Sep_02_1108,MusicAffectPsychophysiology2019,3.0.5,59.80498086717834,
To what extent did the music make you feel ,TENDER,30MonoWAV/30MonoH4.wav,2,2,1,8,,,,,1,11,27,7,0,4,4,10,,,,,,,,,1,1.1852605839958414,096,001,2019_Sep_02_1108,MusicAffectPsychophysiology2019,3.0.5,59.80498086717834,
To what extent did the music make you feel ,ACTIVE,30MonoWAV/30MonoH4.wav,2,2,1,8,,,,,1,11,27,7,0,5,5,9,,,,,,,,,4,1.3842485199857038,096,001,2019_Sep_02_1108,MusicAffectPsychophysiology2019,3.0.5,59.80498086717834,
To what extent did the music make you feel ,SAD,30MonoWAV/30MonoH4.wav,2,2,1,8,,,,,1,11,27,7,0,6,6,0,,,,,,,,,1,1.0192494759976398,096,001,2019_Sep_02_1108,MusicAffectPsychophysiology2019,3.0.5,59.80498086717834,
To what extent did the music make you feel ,GUILTY,30MonoWAV/30MonoH4.wav,2,2,1,8,,,,,1,11,27,7,0,7,7,5,,,,,,,,,1,0.5532092610083055,096,001,2019_Sep_02_1108,MusicAffectPsychophysiology2019,3.0.5,59.80498086717834,
To what extent did the music make you feel ,ANGRY,30MonoWAV/30MonoH4.wav,2,2,1,8,,,,,1,11,27,7,0,8,8,2,,,,,,,,,1,0.5025525119854137,096,001,2019_Sep_02_1108,MusicAffectPsychophysiology2019,3.0.5,59.80498086717834,
To what extent did the music make you feel ,FRUSTRATED,30MonoWAV/30MonoH4.wav,2,2,1,8,,,,,1,11,27,7,0,9,9,3,,,,,,,,,1,0.539787948015146,096,001,2019_Sep_02_1108,MusicAffectPsychophysiology2019,3.0.5,59.80498086717834,
To what extent did the music make you feel ,HAPPY,30MonoWAV/30MonoH4.wav,2,2,1,8,,,,,1,11,27,7,0,10,10,6,,,,,,,,,4,1.3175104109977838,096,001,2019_Sep_02_1108,MusicAffectPsychophysiology2019,3.0.5,59.80498086717834,
To what extent did the music make you feel ,SCARED,30MonoWAV/30MonoH4.wav,2,2,1,8,,,,,1,11,27,7,0,11,11,11,,,,,,,,,1,1.0356124299869407,096,001,2019_Sep_02_1108,MusicAffectPsychophysiology2019,3.0.5,59.80498086717834,
,,30MonoWAV/30MonoH4.wav,2,2,1,8,,,,,1,11,27,7,,,,,,,,,,,,,,,096,001,2019_Sep_02_1108,MusicAffectPsychophysiology2019,3.0.5,59.80498086717834,
To what extent did the music make you feel ,FRUSTRATED,30MonoWAV/30MonoT1.wav,2,1,4,13,,,,,1,12,28,12,0,0,0,3,,,1,7.051331941009266,2,2.019136905000778,2,2.7526347050152253,1,1.2197108350228518,096,001,2019_Sep_02_1108,MusicAffectPsychophysiology2019,3.0.5,59.80498086717834,
To what extent did the music make you feel ,EXCITED,30MonoWAV/30MonoT1.wav,2,1,4,13,,,,,1,12,28,12,0,1,1,7,,,,,,,,,1,0.8996059469936881,096,001,2019_Sep_02_1108,MusicAffectPsychophysiology2019,3.0.5,59.80498086717834,
To what extent did the music make you feel ,ALERT,30MonoWAV/30MonoT1.wav,2,1,4,13,,,,,1,12,28,12,0,2,2,8,,,,,,,,,2,2.086580094008241,096,001,2019_Sep_02_1108,MusicAffectPsychophysiology2019,3.0.5,59.80498086717834,
To what extent did the music make you feel ,HAPPY,30MonoWAV/30MonoT1.wav,2,1,4,13,,,,,1,12,28,12,0,3,3,6,,,,,,,,,2,1.887319914996624,096,001,2019_Sep_02_1108,MusicAffectPsychophysiology2019,3.0.5,59.80498086717834,
To what extent did the music make you feel ,TENDER,30MonoWAV/30MonoT1.wav,2,1,4,13,,,,,1,12,28,12,0,4,4,10,,,,,,,,,2,1.1363457200059202,096,001,2019_Sep_02_1108,MusicAffectPsychophysiology2019,3.0.5,59.80498086717834,
To what extent did the music make you feel ,SCARED,30MonoWAV/30MonoT1.wav,2,1,4,13,,,,,1,12,28,12,0,5,5,11,,,,,,,,,1,0.846583546983311,096,001,2019_Sep_02_1108,MusicAffectPsychophysiology2019,3.0.5,59.80498086717834,
To what extent did the music make you feel ,ANXIOUS ,30MonoWAV/30MonoT1.wav,2,1,4,13,,,,,1,12,28,12,0,6,6,1,,,,,,,,,1,1.585704111988889,096,001,2019_Sep_02_1108,MusicAffectPsychophysiology2019,3.0.5,59.80498086717834,
To what extent did the music make you feel ,SAD,30MonoWAV/30MonoT1.wav,2,1,4,13,,,,,1,12,28,12,0,7,7,0,,,,,,,,,1,1.0351330349803902,096,001,2019_Sep_02_1108,MusicAffectPsychophysiology2019,3.0.5,59.80498086717834,
To what extent did the music make you feel ,ACTIVE,30MonoWAV/30MonoT1.wav,2,1,4,13,,,,,1,12,28,12,0,8,8,9,,,,,,,,,2,1.4027913309982978,096,001,2019_Sep_02_1108,MusicAffectPsychophysiology2019,3.0.5,59.80498086717834,
To what extent did the music make you feel ,GUILTY,30MonoWAV/30MonoT1.wav,2,1,4,13,,,,,1,12,28,12,0,9,9,5,,,,,,,,,1,0.6864322799956426,096,001,2019_Sep_02_1108,MusicAffectPsychophysiology2019,3.0.5,59.80498086717834,
To what extent did the music make you feel ,ANGRY,30MonoWAV/30MonoT1.wav,2,1,4,13,,,,,1,12,28,12,0,10,10,2,,,,,,,,,1,0.9870563930016942,096,001,2019_Sep_02_1108,MusicAffectPsychophysiology2019,3.0.5,59.80498086717834,
To what extent did the music make you feel ,ASHAMED,30MonoWAV/30MonoT1.wav,2,1,4,13,,,,,1,12,28,12,0,11,11,4,,,,,,,,,1,0.7335384399921168,096,001,2019_Sep_02_1108,MusicAffectPsychophysiology2019,3.0.5,59.80498086717834,
,,30MonoWAV/30MonoT1.wav,2,1,4,13,,,,,1,12,28,12,,,,,,,,,,,,,,,096,001,2019_Sep_02_1108,MusicAffectPsychophysiology2019,3.0.5,59.80498086717834,
To what extent did the music make you feel ,ACTIVE,30MonoWAV/30MonoT3.wav,2,1,4,15,,,,,1,13,29,14,0,0,0,9,,,2,4.720595719001722,4,2.31843445400591,3,2.386835067998618,1,2.1262908470234834,096,001,2019_Sep_02_1108,MusicAffectPsychophysiology2019,3.0.5,59.80498086717834,
To what extent did the music make you feel ,ASHAMED,30MonoWAV/30MonoT3.wav,2,1,4,15,,,,,1,13,29,14,0,1,1,4,,,,,,,,,1,0.6354951609973796,096,001,2019_Sep_02_1108,MusicAffectPsychophysiology2019,3.0.5,59.80498086717834,
To what extent did the music make you feel ,GUILTY,30MonoWAV/30MonoT3.wav,2,1,4,15,,,,,1,13,29,14,0,2,2,5,,,,,,,,,1,0.5032629470224492,096,001,2019_Sep_02_1108,MusicAffectPsychophysiology2019,3.0.5,59.80498086717834,
To what extent did the music make you feel ,ANXIOUS ,30MonoWAV/30MonoT3.wav,2,1,4,15,,,,,1,13,29,14,0,3,3,1,,,,,,,,,1,0.4696493170049507,096,001,2019_Sep_02_1108,MusicAffectPsychophysiology2019,3.0.5,59.80498086717834,
To what extent did the music make you feel ,FRUSTRATED,30MonoWAV/30MonoT3.wav,2,1,4,15,,,,,1,13,29,14,0,4,4,3,,,,,,,,,1,0.45958656701259315,096,001,2019_Sep_02_1108,MusicAffectPsychophysiology2019,3.0.5,59.80498086717834,
To what extent did the music make you feel ,HAPPY,30MonoWAV/30MonoT3.wav,2,1,4,15,,,,,1,13,29,14,0,5,5,6,,,,,,,,,2,2.1031203389866278,096,001,2019_Sep_02_1108,MusicAffectPsychophysiology2019,3.0.5,59.80498086717834,
To what extent did the music make you feel ,SCARED,30MonoWAV/30MonoT3.wav,2,1,4,15,,,,,1,13,29,14,0,6,6,11,,,,,,,,,1,0.5424172189959791,096,001,2019_Sep_02_1108,MusicAffectPsychophysiology2019,3.0.5,59.80498086717834,
To what extent did the music make you feel ,ANGRY,30MonoWAV/30MonoT3.wav,2,1,4,15,,,,,1,13,29,14,0,7,7,2,,,,,,,,,1,0.5495775279996451,096,001,2019_Sep_02_1108,MusicAffectPsychophysiology2019,3.0.5,59.80498086717834,
To what extent did the music make you feel ,TENDER,30MonoWAV/30MonoT3.wav,2,1,4,15,,,,,1,13,29,14,0,8,8,10,,,,,,,,,3,1.63366979197599,096,001,2019_Sep_02_1108,MusicAffectPsychophysiology2019,3.0.5,59.80498086717834,
To what extent did the music make you feel ,EXCITED,30MonoWAV/30MonoT3.wav,2,1,4,15,,,,,1,13,29,14,0,9,9,7,,,,,,,,,2,3.75016195900389,096,001,2019_Sep_02_1108,MusicAffectPsychophysiology2019,3.0.5,59.80498086717834,
To what extent did the music make you feel ,SAD,30MonoWAV/30MonoT3.wav,2,1,4,15,,,,,1,13,29,14,0,10,10,0,,,,,,,,,1,1.2689992009836715,096,001,2019_Sep_02_1108,MusicAffectPsychophysiology2019,3.0.5,59.80498086717834,
To what extent did the music make you feel ,ALERT,30MonoWAV/30MonoT3.wav,2,1,4,15,,,,,1,13,29,14,0,11,11,8,,,,,,,,,1,1.0031745239975862,096,001,2019_Sep_02_1108,MusicAffectPsychophysiology2019,3.0.5,59.80498086717834,
,,30MonoWAV/30MonoT3.wav,2,1,4,15,,,,,1,13,29,14,,,,,,,,,,,,,,,096,001,2019_Sep_02_1108,MusicAffectPsychophysiology2019,3.0.5,59.80498086717834,
To what extent did the music make you feel ,GUILTY,30MonoWAV/30MonoF3.wav,1,2,2,3,,,,,1,14,30,2,0,0,0,5,,,1,14.883871086,1,2.0201581430155784,1,3.03532269000425,1,0.969139016000554,096,001,2019_Sep_02_1108,MusicAffectPsychophysiology2019,3.0.5,59.80498086717834,
To what extent did the music make you feel ,SCARED,30MonoWAV/30MonoF3.wav,1,2,2,3,,,,,1,14,30,2,0,1,1,11,,,,,,,,,1,1.3030737990047783,096,001,2019_Sep_02_1108,MusicAffectPsychophysiology2019,3.0.5,59.80498086717834,
To what extent did the music make you feel ,EXCITED,30MonoWAV/30MonoF3.wav,1,2,2,3,,,,,1,14,30,2,0,2,2,7,,,,,,,,,1,2.8526677129848395,096,001,2019_Sep_02_1108,MusicAffectPsychophysiology2019,3.0.5,59.80498086717834,
To what extent did the music make you feel ,SAD,30MonoWAV/30MonoF3.wav,1,2,2,3,,,,,1,14,30,2,0,3,3,0,,,,,,,,,1,1.4192865139921196,096,001,2019_Sep_02_1108,MusicAffectPsychophysiology2019,3.0.5,59.80498086717834,
To what extent did the music make you feel ,TENDER,30MonoWAV/30MonoF3.wav,1,2,2,3,,,,,1,14,30,2,0,4,4,10,,,,,,,,,1,0.8855252700159326,096,001,2019_Sep_02_1108,MusicAffectPsychophysiology2019,3.0.5,59.80498086717834,
To what extent did the music make you feel ,ALERT,30MonoWAV/30MonoF3.wav,1,2,2,3,,,,,1,14,30,2,0,5,5,8,,,,,,,,,4,2.319313615997089,096,001,2019_Sep_02_1108,MusicAffectPsychophysiology2019,3.0.5,59.80498086717834,
To what extent did the music make you feel ,ASHAMED,30MonoWAV/30MonoF3.wav,1,2,2,3,,,,,1,14,30,2,0,6,6,4,,,,,,,,,1,1.067353810009081,096,001,2019_Sep_02_1108,MusicAffectPsychophysiology2019,3.0.5,59.80498086717834,
To what extent did the music make you feel ,ANGRY,30MonoWAV/30MonoF3.wav,1,2,2,3,,,,,1,14,30,2,0,7,7,2,,,,,,,,,1,0.6192956650047563,096,001,2019_Sep_02_1108,MusicAffectPsychophysiology2019,3.0.5,59.80498086717834,
To what extent did the music make you feel ,ACTIVE,30MonoWAV/30MonoF3.wav,1,2,2,3,,,,,1,14,30,2,0,8,8,9,,,,,,,,,4,1.5670848790032323,096,001,2019_Sep_02_1108,MusicAffectPsychophysiology2019,3.0.5,59.80498086717834,
To what extent did the music make you feel ,ANXIOUS ,30MonoWAV/30MonoF3.wav,1,2,2,3,,,,,1,14,30,2,0,9,9,1,,,,,,,,,1,1.0530671879823785,096,001,2019_Sep_02_1108,MusicAffectPsychophysiology2019,3.0.5,59.80498086717834,
To what extent did the music make you feel ,FRUSTRATED,30MonoWAV/30MonoF3.wav,1,2,2,3,,,,,1,14,30,2,0,10,10,3,,,,,,,,,1,1.1164813280047383,096,001,2019_Sep_02_1108,MusicAffectPsychophysiology2019,3.0.5,59.80498086717834,
To what extent did the music make you feel ,HAPPY,30MonoWAV/30MonoF3.wav,1,2,2,3,,,,,1,14,30,2,0,11,11,6,,,,,,,,,1,0.8031452909926884,096,001,2019_Sep_02_1108,MusicAffectPsychophysiology2019,3.0.5,59.80498086717834,
,,30MonoWAV/30MonoF3.wav,1,2,2,3,,,,,1,14,30,2,,,,,,,,,,,,,,,096,001,2019_Sep_02_1108,MusicAffectPsychophysiology2019,3.0.5,59.80498086717834,
To what extent did the music make you feel ,ALERT,30MonoWAV/30MonoF4.wav,1,2,2,4,,,,,1,15,31,3,0,0,0,8,,,4,4.784962772013387,2,3.2351982069958467,2,1.820101491000969,4,1.7776946790108923,096,001,2019_Sep_02_1108,MusicAffectPsychophysiology2019,3.0.5,59.80498086717834,
To what extent did the music make you feel ,ASHAMED,30MonoWAV/30MonoF4.wav,1,2,2,4,,,,,1,15,31,3,0,1,1,4,,,,,,,,,1,1.2030883740226272,096,001,2019_Sep_02_1108,MusicAffectPsychophysiology2019,3.0.5,59.80498086717834,
To what extent did the music make you feel ,ANGRY,30MonoWAV/30MonoF4.wav,1,2,2,4,,,,,1,15,31,3,0,2,2,2,,,,,,,,,1,0.6025828130077571,096,001,2019_Sep_02_1108,MusicAffectPsychophysiology2019,3.0.5,59.80498086717834,
To what extent did the music make you feel ,SAD,30MonoWAV/30MonoF4.wav,1,2,2,4,,,,,1,15,31,3,0,3,3,0,,,,,,,,,1,0.6021688779874239,096,001,2019_Sep_02_1108,MusicAffectPsychophysiology2019,3.0.5,59.80498086717834,
To what extent did the music make you feel ,SCARED,30MonoWAV/30MonoF4.wav,1,2,2,4,,,,,1,15,31,3,0,4,4,11,,,,,,,,,1,0.6527535280038137,096,001,2019_Sep_02_1108,MusicAffectPsychophysiology2019,3.0.5,59.80498086717834,
To what extent did the music make you feel ,TENDER,30MonoWAV/30MonoF4.wav,1,2,2,4,,,,,1,15,31,3,0,5,5,10,,,,,,,,,1,0.885697955993237,096,001,2019_Sep_02_1108,MusicAffectPsychophysiology2019,3.0.5,59.80498086717834,
To what extent did the music make you feel ,HAPPY,30MonoWAV/30MonoF4.wav,1,2,2,4,,,,,1,15,31,3,0,6,6,6,,,,,,,,,1,1.2852714539912995,096,001,2019_Sep_02_1108,MusicAffectPsychophysiology2019,3.0.5,59.80498086717834,
To what extent did the music make you feel ,GUILTY,30MonoWAV/30MonoF4.wav,1,2,2,4,,,,,1,15,31,3,0,7,7,5,,,,,,,,,1,0.6528290020069107,096,001,2019_Sep_02_1108,MusicAffectPsychophysiology2019,3.0.5,59.80498086717834,
To what extent did the music make you feel ,ANXIOUS ,30MonoWAV/30MonoF4.wav,1,2,2,4,,,,,1,15,31,3,0,8,8,1,,,,,,,,,1,0.7863514919881709,096,001,2019_Sep_02_1108,MusicAffectPsychophysiology2019,3.0.5,59.80498086717834,
To what extent did the music make you feel ,ACTIVE,30MonoWAV/30MonoF4.wav,1,2,2,4,,,,,1,15,31,3,0,9,9,9,,,,,,,,,4,2.053721725998912,096,001,2019_Sep_02_1108,MusicAffectPsychophysiology2019,3.0.5,59.80498086717834,
To what extent did the music make you feel ,FRUSTRATED,30MonoWAV/30MonoF4.wav,1,2,2,4,,,,,1,15,31,3,0,10,10,3,,,,,,,,,1,1.3603833180095535,096,001,2019_Sep_02_1108,MusicAffectPsychophysiology2019,3.0.5,59.80498086717834,
To what extent did the music make you feel ,EXCITED,30MonoWAV/30MonoF4.wav,1,2,2,4,,,,,1,15,31,3,0,11,11,7,,,,,,,,,1,3.199704341008328,096,001,2019_Sep_02_1108,MusicAffectPsychophysiology2019,3.0.5,59.80498086717834,
,,30MonoWAV/30MonoF4.wav,1,2,2,4,,,,,1,15,31,3,,,,,,,,,,,,,,,096,001,2019_Sep_02_1108,MusicAffectPsychophysiology2019,3.0.5,59.80498086717834,
