Instruction,Word,song,valence,arousal,affectcat,songmark,pracwords.thisRepN,pracwords.thisTrialN,pracwords.thisN,pracwords.thisIndex,songtrials.thisRepN,songtrials.thisTrialN,songtrials.thisN,songtrials.thisIndex,words.thisRepN,words.thisTrialN,words.thisN,words.thisIndex,begin.keys,begin.rt,arousalkey.keys,arousalkey.rt,valencekey.keys,valencekey.rt,likekey.keys,likekey.rt,WordResponse.keys,WordResponse.rt,key_resp_2.keys,key_resp_2.rt,participant,session,date,expName,psychopyVersion,frameRate,
,,,,,,,,,,,,,,,,,,,space,7.322738368995488,,,,,,,,,,,097,001,2019_Sep_02_1404,MusicAffectPsychophysiology2019,3.0.5,59.87564236257988,
,,,,,,,,,,,,,,,,,,,,,3,6.518806234002113,,,,,,,,,097,001,2019_Sep_02_1404,MusicAffectPsychophysiology2019,3.0.5,59.87564236257988,
,,,,,,,,,,,,,,,,,,,,,,,4,3.085330265981611,,,,,,,097,001,2019_Sep_02_1404,MusicAffectPsychophysiology2019,3.0.5,59.87564236257988,
,,,,,,,,,,,,,,,,,,,,,,,,,3,1.8016055570042226,,,,,097,001,2019_Sep_02_1404,MusicAffectPsychophysiology2019,3.0.5,59.87564236257988,
To what extent did the music make you feel ,SAD,,,,,,0,0,0,0,,,,,,,,,,,,,,,,,2,4.287847421976039,,,097,001,2019_Sep_02_1404,MusicAffectPsychophysiology2019,3.0.5,59.87564236257988,
To what extent did the music make you feel ,HAPPY,,,,,,0,1,1,6,,,,,,,,,,,,,,,,,3,1.9193509129981976,,,097,001,2019_Sep_02_1404,MusicAffectPsychophysiology2019,3.0.5,59.87564236257988,
To what extent did the music make you feel ,GUILTY,,,,,,0,2,2,5,,,,,,,,,,,,,,,,,3,2.6099598410073668,,,097,001,2019_Sep_02_1404,MusicAffectPsychophysiology2019,3.0.5,59.87564236257988,
To what extent did the music make you feel ,SCARED,,,,,,0,3,3,11,,,,,,,,,,,,,,,,,1,1.58681096098735,,,097,001,2019_Sep_02_1404,MusicAffectPsychophysiology2019,3.0.5,59.87564236257988,
To what extent did the music make you feel ,ANXIOUS ,,,,,,0,4,4,1,,,,,,,,,,,,,,,,,1,1.0362767490150873,,,097,001,2019_Sep_02_1404,MusicAffectPsychophysiology2019,3.0.5,59.87564236257988,
To what extent did the music make you feel ,FRUSTRATED,,,,,,0,5,5,3,,,,,,,,,,,,,,,,,1,1.9258071660005953,,,097,001,2019_Sep_02_1404,MusicAffectPsychophysiology2019,3.0.5,59.87564236257988,
To what extent did the music make you feel ,TENDER,,,,,,0,6,6,10,,,,,,,,,,,,,,,,,3,2.270509764988674,,,097,001,2019_Sep_02_1404,MusicAffectPsychophysiology2019,3.0.5,59.87564236257988,
To what extent did the music make you feel ,EXCITED,,,,,,0,7,7,7,,,,,,,,,,,,,,,,,2,2.4201895059959497,,,097,001,2019_Sep_02_1404,MusicAffectPsychophysiology2019,3.0.5,59.87564236257988,
To what extent did the music make you feel ,ALERT,,,,,,0,8,8,8,,,,,,,,,,,,,,,,,2,1.2915109029854648,,,097,001,2019_Sep_02_1404,MusicAffectPsychophysiology2019,3.0.5,59.87564236257988,
To what extent did the music make you feel ,ACTIVE,,,,,,0,9,9,9,,,,,,,,,,,,,,,,,2,0.9027296399872284,,,097,001,2019_Sep_02_1404,MusicAffectPsychophysiology2019,3.0.5,59.87564236257988,
To what extent did the music make you feel ,ASHAMED,,,,,,0,10,10,4,,,,,,,,,,,,,,,,,1,1.1354496869898867,,,097,001,2019_Sep_02_1404,MusicAffectPsychophysiology2019,3.0.5,59.87564236257988,
To what extent did the music make you feel ,ANGRY,,,,,,0,11,11,2,,,,,,,,,,,,,,,,,1,1.4358587469905615,,,097,001,2019_Sep_02_1404,MusicAffectPsychophysiology2019,3.0.5,59.87564236257988,
To what extent did the music make you feel ,ANGRY,30MonoWAV/30MonoS1.wav,1,1,3,9,,,,,0,0,0,8,0,0,0,2,,,2,3.086969402007526,2,2.9363927800150122,2,1.353912753984332,2,2.072862273984356,,,097,001,2019_Sep_02_1404,MusicAffectPsychophysiology2019,3.0.5,59.87564236257988,
To what extent did the music make you feel ,HAPPY,30MonoWAV/30MonoS1.wav,1,1,3,9,,,,,0,0,0,8,0,1,1,6,,,,,,,,,2,1.0345624219917227,,,097,001,2019_Sep_02_1404,MusicAffectPsychophysiology2019,3.0.5,59.87564236257988,
To what extent did the music make you feel ,ACTIVE,30MonoWAV/30MonoS1.wav,1,1,3,9,,,,,0,0,0,8,0,2,2,9,,,,,,,,,1,1.353254786983598,,,097,001,2019_Sep_02_1404,MusicAffectPsychophysiology2019,3.0.5,59.87564236257988,
To what extent did the music make you feel ,FRUSTRATED,30MonoWAV/30MonoS1.wav,1,1,3,9,,,,,0,0,0,8,0,3,3,3,,,,,,,,,2,1.9558517670084257,,,097,001,2019_Sep_02_1404,MusicAffectPsychophysiology2019,3.0.5,59.87564236257988,
To what extent did the music make you feel ,ASHAMED,30MonoWAV/30MonoS1.wav,1,1,3,9,,,,,0,0,0,8,0,4,4,4,,,,,,,,,2,1.4521720850025304,,,097,001,2019_Sep_02_1404,MusicAffectPsychophysiology2019,3.0.5,59.87564236257988,
To what extent did the music make you feel ,SCARED,30MonoWAV/30MonoS1.wav,1,1,3,9,,,,,0,0,0,8,0,5,5,11,,,,,,,,,3,1.7694708879862446,,,097,001,2019_Sep_02_1404,MusicAffectPsychophysiology2019,3.0.5,59.87564236257988,
To what extent did the music make you feel ,EXCITED,30MonoWAV/30MonoS1.wav,1,1,3,9,,,,,0,0,0,8,0,6,6,7,,,,,,,,,2,1.2028275320190005,,,097,001,2019_Sep_02_1404,MusicAffectPsychophysiology2019,3.0.5,59.87564236257988,
To what extent did the music make you feel ,ANXIOUS ,30MonoWAV/30MonoS1.wav,1,1,3,9,,,,,0,0,0,8,0,7,7,1,,,,,,,,,2,1.935666764009511,,,097,001,2019_Sep_02_1404,MusicAffectPsychophysiology2019,3.0.5,59.87564236257988,
To what extent did the music make you feel ,TENDER,30MonoWAV/30MonoS1.wav,1,1,3,9,,,,,0,0,0,8,0,8,8,10,,,,,,,,,1,0.7852442869916558,,,097,001,2019_Sep_02_1404,MusicAffectPsychophysiology2019,3.0.5,59.87564236257988,
To what extent did the music make you feel ,SAD,30MonoWAV/30MonoS1.wav,1,1,3,9,,,,,0,0,0,8,0,9,9,0,,,,,,,,,3,1.9197545560018625,,,097,001,2019_Sep_02_1404,MusicAffectPsychophysiology2019,3.0.5,59.87564236257988,
To what extent did the music make you feel ,GUILTY,30MonoWAV/30MonoS1.wav,1,1,3,9,,,,,0,0,0,8,0,10,10,5,,,,,,,,,3,0.835192682017805,,,097,001,2019_Sep_02_1404,MusicAffectPsychophysiology2019,3.0.5,59.87564236257988,
To what extent did the music make you feel ,ALERT,30MonoWAV/30MonoS1.wav,1,1,3,9,,,,,0,0,0,8,0,11,11,8,,,,,,,,,2,1.3670927420025691,,,097,001,2019_Sep_02_1404,MusicAffectPsychophysiology2019,3.0.5,59.87564236257988,
,,30MonoWAV/30MonoS1.wav,1,1,3,9,,,,,0,0,0,8,,,,,,,,,,,,,,,,,097,001,2019_Sep_02_1404,MusicAffectPsychophysiology2019,3.0.5,59.87564236257988,
To what extent did the music make you feel ,ACTIVE,30MonoWAV/30MonoH3.wav,2,2,1,7,,,,,0,1,1,6,0,0,0,9,,,4,2.9033394349971786,4,1.9022669559926726,3,1.4030570829927456,4,1.3029786859988235,,,097,001,2019_Sep_02_1404,MusicAffectPsychophysiology2019,3.0.5,59.87564236257988,
To what extent did the music make you feel ,ANGRY,30MonoWAV/30MonoH3.wav,2,2,1,7,,,,,0,1,1,6,0,1,1,2,,,,,,,,,1,2.0507906769926194,,,097,001,2019_Sep_02_1404,MusicAffectPsychophysiology2019,3.0.5,59.87564236257988,
To what extent did the music make you feel ,SCARED,30MonoWAV/30MonoH3.wav,2,2,1,7,,,,,0,1,1,6,0,2,2,11,,,,,,,,,2,1.3702609780011699,,,097,001,2019_Sep_02_1404,MusicAffectPsychophysiology2019,3.0.5,59.87564236257988,
To what extent did the music make you feel ,HAPPY,30MonoWAV/30MonoH3.wav,2,2,1,7,,,,,0,1,1,6,0,3,3,6,,,,,,,,,3,1.4532590360031463,,,097,001,2019_Sep_02_1404,MusicAffectPsychophysiology2019,3.0.5,59.87564236257988,
To what extent did the music make you feel ,TENDER,30MonoWAV/30MonoH3.wav,2,2,1,7,,,,,0,1,1,6,0,4,4,10,,,,,,,,,3,1.037807476008311,,,097,001,2019_Sep_02_1404,MusicAffectPsychophysiology2019,3.0.5,59.87564236257988,
To what extent did the music make you feel ,ASHAMED,30MonoWAV/30MonoH3.wav,2,2,1,7,,,,,0,1,1,6,0,5,5,4,,,,,,,,,2,1.0839384619903285,,,097,001,2019_Sep_02_1404,MusicAffectPsychophysiology2019,3.0.5,59.87564236257988,
To what extent did the music make you feel ,FRUSTRATED,30MonoWAV/30MonoH3.wav,2,2,1,7,,,,,0,1,1,6,0,6,6,3,,,,,,,,,3,1.8856260409811512,,,097,001,2019_Sep_02_1404,MusicAffectPsychophysiology2019,3.0.5,59.87564236257988,
To what extent did the music make you feel ,SAD,30MonoWAV/30MonoH3.wav,2,2,1,7,,,,,0,1,1,6,0,7,7,0,,,,,,,,,1,2.3366888300224673,,,097,001,2019_Sep_02_1404,MusicAffectPsychophysiology2019,3.0.5,59.87564236257988,
To what extent did the music make you feel ,ALERT,30MonoWAV/30MonoH3.wav,2,2,1,7,,,,,0,1,1,6,0,8,8,8,,,,,,,,,4,1.1187391459825449,,,097,001,2019_Sep_02_1404,MusicAffectPsychophysiology2019,3.0.5,59.87564236257988,
To what extent did the music make you feel ,EXCITED,30MonoWAV/30MonoH3.wav,2,2,1,7,,,,,0,1,1,6,0,9,9,7,,,,,,,,,4,1.618230161984684,,,097,001,2019_Sep_02_1404,MusicAffectPsychophysiology2019,3.0.5,59.87564236257988,
To what extent did the music make you feel ,ANXIOUS ,30MonoWAV/30MonoH3.wav,2,2,1,7,,,,,0,1,1,6,0,10,10,1,,,,,,,,,2,1.1697106909996364,,,097,001,2019_Sep_02_1404,MusicAffectPsychophysiology2019,3.0.5,59.87564236257988,
To what extent did the music make you feel ,GUILTY,30MonoWAV/30MonoH3.wav,2,2,1,7,,,,,0,1,1,6,0,11,11,5,,,,,,,,,2,3.1192899430170655,,,097,001,2019_Sep_02_1404,MusicAffectPsychophysiology2019,3.0.5,59.87564236257988,
,,30MonoWAV/30MonoH3.wav,2,2,1,7,,,,,0,1,1,6,,,,,,,,,,,,,,,,,097,001,2019_Sep_02_1404,MusicAffectPsychophysiology2019,3.0.5,59.87564236257988,
To what extent did the music make you feel ,GUILTY,30MonoWAV/30MonoF4.wav,1,2,2,4,,,,,0,2,2,3,0,0,0,5,,,4,2.836563786986517,2,1.4193618060089648,3,1.6194245069928002,3,1.6583003370033111,,,097,001,2019_Sep_02_1404,MusicAffectPsychophysiology2019,3.0.5,59.87564236257988,
To what extent did the music make you feel ,HAPPY,30MonoWAV/30MonoF4.wav,1,2,2,4,,,,,0,2,2,3,0,1,1,6,,,,,,,,,1,1.5831525689864065,,,097,001,2019_Sep_02_1404,MusicAffectPsychophysiology2019,3.0.5,59.87564236257988,
To what extent did the music make you feel ,SAD,30MonoWAV/30MonoF4.wav,1,2,2,4,,,,,0,2,2,3,0,2,2,0,,,,,,,,,2,1.136278838996077,,,097,001,2019_Sep_02_1404,MusicAffectPsychophysiology2019,3.0.5,59.87564236257988,
To what extent did the music make you feel ,ANXIOUS ,30MonoWAV/30MonoF4.wav,1,2,2,4,,,,,0,2,2,3,0,3,3,1,,,,,,,,,4,1.6701195419882424,,,097,001,2019_Sep_02_1404,MusicAffectPsychophysiology2019,3.0.5,59.87564236257988,
To what extent did the music make you feel ,TENDER,30MonoWAV/30MonoF4.wav,1,2,2,4,,,,,0,2,2,3,0,4,4,10,,,,,,,,,2,1.1685185089881998,,,097,001,2019_Sep_02_1404,MusicAffectPsychophysiology2019,3.0.5,59.87564236257988,
To what extent did the music make you feel ,EXCITED,30MonoWAV/30MonoF4.wav,1,2,2,4,,,,,0,2,2,3,0,5,5,7,,,,,,,,,2,0.8688587840006221,,,097,001,2019_Sep_02_1404,MusicAffectPsychophysiology2019,3.0.5,59.87564236257988,
To what extent did the music make you feel ,FRUSTRATED,30MonoWAV/30MonoF4.wav,1,2,2,4,,,,,0,2,2,3,0,6,6,3,,,,,,,,,2,0.869775250001112,,,097,001,2019_Sep_02_1404,MusicAffectPsychophysiology2019,3.0.5,59.87564236257988,
To what extent did the music make you feel ,SCARED,30MonoWAV/30MonoF4.wav,1,2,2,4,,,,,0,2,2,3,0,7,7,11,,,,,,,,,2,1.0861745500005782,,,097,001,2019_Sep_02_1404,MusicAffectPsychophysiology2019,3.0.5,59.87564236257988,
To what extent did the music make you feel ,ASHAMED,30MonoWAV/30MonoF4.wav,1,2,2,4,,,,,0,2,2,3,0,8,8,4,,,,,,,,,2,0.9191705480043311,,,097,001,2019_Sep_02_1404,MusicAffectPsychophysiology2019,3.0.5,59.87564236257988,
To what extent did the music make you feel ,ALERT,30MonoWAV/30MonoF4.wav,1,2,2,4,,,,,0,2,2,3,0,9,9,8,,,,,,,,,5,3.234989582997514,,,097,001,2019_Sep_02_1404,MusicAffectPsychophysiology2019,3.0.5,59.87564236257988,
To what extent did the music make you feel ,ACTIVE,30MonoWAV/30MonoF4.wav,1,2,2,4,,,,,0,2,2,3,0,10,10,9,,,,,,,,,5,0.8356952120084316,,,097,001,2019_Sep_02_1404,MusicAffectPsychophysiology2019,3.0.5,59.87564236257988,
To what extent did the music make you feel ,ANGRY,30MonoWAV/30MonoF4.wav,1,2,2,4,,,,,0,2,2,3,0,11,11,2,,,,,,,,,3,1.520511656999588,,,097,001,2019_Sep_02_1404,MusicAffectPsychophysiology2019,3.0.5,59.87564236257988,
,,30MonoWAV/30MonoF4.wav,1,2,2,4,,,,,0,2,2,3,,,,,,,,,,,,,,,,,097,001,2019_Sep_02_1404,MusicAffectPsychophysiology2019,3.0.5,59.87564236257988,
To what extent did the music make you feel ,ALERT,30MonoWAV/30MonoS4.wav,1,1,3,12,,,,,0,3,3,11,0,0,0,8,,,1,2.7519437659939285,1,1.119335265015252,1,1.5499846449820325,1,0.9693791370082181,,,097,001,2019_Sep_02_1404,MusicAffectPsychophysiology2019,3.0.5,59.87564236257988,
To what extent did the music make you feel ,SAD,30MonoWAV/30MonoS4.wav,1,1,3,12,,,,,0,3,3,11,0,1,1,0,,,,,,,,,4,1.7861265900137369,,,097,001,2019_Sep_02_1404,MusicAffectPsychophysiology2019,3.0.5,59.87564236257988,
To what extent did the music make you feel ,SCARED,30MonoWAV/30MonoS4.wav,1,1,3,12,,,,,0,3,3,11,0,2,2,11,,,,,,,,,2,4.019853231002344,,,097,001,2019_Sep_02_1404,MusicAffectPsychophysiology2019,3.0.5,59.87564236257988,
To what extent did the music make you feel ,TENDER,30MonoWAV/30MonoS4.wav,1,1,3,12,,,,,0,3,3,11,0,3,3,10,,,,,,,,,2,0.6357016020047013,,,097,001,2019_Sep_02_1404,MusicAffectPsychophysiology2019,3.0.5,59.87564236257988,
To what extent did the music make you feel ,ANXIOUS ,30MonoWAV/30MonoS4.wav,1,1,3,12,,,,,0,3,3,11,0,4,4,1,,,,,,,,,3,1.385338757012505,,,097,001,2019_Sep_02_1404,MusicAffectPsychophysiology2019,3.0.5,59.87564236257988,
To what extent did the music make you feel ,ASHAMED,30MonoWAV/30MonoS4.wav,1,1,3,12,,,,,0,3,3,11,0,5,5,4,,,,,,,,,2,0.9695830539858434,,,097,001,2019_Sep_02_1404,MusicAffectPsychophysiology2019,3.0.5,59.87564236257988,
To what extent did the music make you feel ,FRUSTRATED,30MonoWAV/30MonoS4.wav,1,1,3,12,,,,,0,3,3,11,0,6,6,3,,,,,,,,,2,0.9996872050105594,,,097,001,2019_Sep_02_1404,MusicAffectPsychophysiology2019,3.0.5,59.87564236257988,
To what extent did the music make you feel ,EXCITED,30MonoWAV/30MonoS4.wav,1,1,3,12,,,,,0,3,3,11,0,7,7,7,,,,,,,,,1,1.0358780130045488,,,097,001,2019_Sep_02_1404,MusicAffectPsychophysiology2019,3.0.5,59.87564236257988,
To what extent did the music make you feel ,GUILTY,30MonoWAV/30MonoS4.wav,1,1,3,12,,,,,0,3,3,11,0,8,8,5,,,,,,,,,3,1.4674711560073774,,,097,001,2019_Sep_02_1404,MusicAffectPsychophysiology2019,3.0.5,59.87564236257988,
To what extent did the music make you feel ,ACTIVE,30MonoWAV/30MonoS4.wav,1,1,3,12,,,,,0,3,3,11,0,9,9,9,,,,,,,,,1,1.2692577939887997,,,097,001,2019_Sep_02_1404,MusicAffectPsychophysiology2019,3.0.5,59.87564236257988,
To what extent did the music make you feel ,ANGRY,30MonoWAV/30MonoS4.wav,1,1,3,12,,,,,0,3,3,11,0,10,10,2,,,,,,,,,2,1.535824679012876,,,097,001,2019_Sep_02_1404,MusicAffectPsychophysiology2019,3.0.5,59.87564236257988,
To what extent did the music make you feel ,HAPPY,30MonoWAV/30MonoS4.wav,1,1,3,12,,,,,0,3,3,11,0,11,11,6,,,,,,,,,1,1.0860894520010334,,,097,001,2019_Sep_02_1404,MusicAffectPsychophysiology2019,3.0.5,59.87564236257988,
,,30MonoWAV/30MonoS4.wav,1,1,3,12,,,,,0,3,3,11,,,,,,,,,,,,,,,,,097,001,2019_Sep_02_1404,MusicAffectPsychophysiology2019,3.0.5,59.87564236257988,
To what extent did the music make you feel ,HAPPY,30MonoWAV/30MonoT1.wav,2,1,4,13,,,,,0,4,4,12,0,0,0,6,,,2,2.7367395159963053,2,3.101734126015799,2,1.4871376880037133,2,1.0947179189824965,,,097,001,2019_Sep_02_1404,MusicAffectPsychophysiology2019,3.0.5,59.87564236257988,
To what extent did the music make you feel ,GUILTY,30MonoWAV/30MonoT1.wav,2,1,4,13,,,,,0,4,4,12,0,1,1,5,,,,,,,,,3,1.203419579018373,,,097,001,2019_Sep_02_1404,MusicAffectPsychophysiology2019,3.0.5,59.87564236257988,
To what extent did the music make you feel ,ANXIOUS ,30MonoWAV/30MonoT1.wav,2,1,4,13,,,,,0,4,4,12,0,2,2,1,,,,,,,,,4,1.4670179079985246,,,097,001,2019_Sep_02_1404,MusicAffectPsychophysiology2019,3.0.5,59.87564236257988,
To what extent did the music make you feel ,ACTIVE,30MonoWAV/30MonoT1.wav,2,1,4,13,,,,,0,4,4,12,0,3,3,9,,,,,,,,,2,1.4336467369867023,,,097,001,2019_Sep_02_1404,MusicAffectPsychophysiology2019,3.0.5,59.87564236257988,
To what extent did the music make you feel ,ASHAMED,30MonoWAV/30MonoT1.wav,2,1,4,13,,,,,0,4,4,12,0,4,4,4,,,,,,,,,3,1.4186750170192681,,,097,001,2019_Sep_02_1404,MusicAffectPsychophysiology2019,3.0.5,59.87564236257988,
To what extent did the music make you feel ,SAD,30MonoWAV/30MonoT1.wav,2,1,4,13,,,,,0,4,4,12,0,5,5,0,,,,,,,,,2,1.5191118030052166,,,097,001,2019_Sep_02_1404,MusicAffectPsychophysiology2019,3.0.5,59.87564236257988,
To what extent did the music make you feel ,EXCITED,30MonoWAV/30MonoT1.wav,2,1,4,13,,,,,0,4,4,12,0,6,6,7,,,,,,,,,2,1.1188607679796405,,,097,001,2019_Sep_02_1404,MusicAffectPsychophysiology2019,3.0.5,59.87564236257988,
To what extent did the music make you feel ,SCARED,30MonoWAV/30MonoT1.wav,2,1,4,13,,,,,0,4,4,12,0,7,7,11,,,,,,,,,2,0.952467120019719,,,097,001,2019_Sep_02_1404,MusicAffectPsychophysiology2019,3.0.5,59.87564236257988,
To what extent did the music make you feel ,FRUSTRATED,30MonoWAV/30MonoT1.wav,2,1,4,13,,,,,0,4,4,12,0,8,8,3,,,,,,,,,3,1.0932165390113369,,,097,001,2019_Sep_02_1404,MusicAffectPsychophysiology2019,3.0.5,59.87564236257988,
To what extent did the music make you feel ,TENDER,30MonoWAV/30MonoT1.wav,2,1,4,13,,,,,0,4,4,12,0,9,9,10,,,,,,,,,3,1.0863307949912269,,,097,001,2019_Sep_02_1404,MusicAffectPsychophysiology2019,3.0.5,59.87564236257988,
To what extent did the music make you feel ,ALERT,30MonoWAV/30MonoT1.wav,2,1,4,13,,,,,0,4,4,12,0,10,10,8,,,,,,,,,2,1.2601284970005509,,,097,001,2019_Sep_02_1404,MusicAffectPsychophysiology2019,3.0.5,59.87564236257988,
To what extent did the music make you feel ,ANGRY,30MonoWAV/30MonoT1.wav,2,1,4,13,,,,,0,4,4,12,0,11,11,2,,,,,,,,,1,1.7028188349795528,,,097,001,2019_Sep_02_1404,MusicAffectPsychophysiology2019,3.0.5,59.87564236257988,
,,30MonoWAV/30MonoT1.wav,2,1,4,13,,,,,0,4,4,12,,,,,,,,,,,,,,,,,097,001,2019_Sep_02_1404,MusicAffectPsychophysiology2019,3.0.5,59.87564236257988,
To what extent did the music make you feel ,SCARED,30MonoWAV/30MonoF2.wav,1,2,2,2,,,,,0,5,5,1,0,0,0,11,,,2,3.4513399789866526,1,2.5520779130165465,1,1.852945187012665,4,3.252651603979757,,,097,001,2019_Sep_02_1404,MusicAffectPsychophysiology2019,3.0.5,59.87564236257988,
To what extent did the music make you feel ,HAPPY,30MonoWAV/30MonoF2.wav,1,2,2,2,,,,,0,5,5,1,0,1,1,6,,,,,,,,,1,1.7030489220051095,,,097,001,2019_Sep_02_1404,MusicAffectPsychophysiology2019,3.0.5,59.87564236257988,
To what extent did the music make you feel ,ANGRY,30MonoWAV/30MonoF2.wav,1,2,2,2,,,,,0,5,5,1,0,2,2,2,,,,,,,,,3,1.4535307309997734,,,097,001,2019_Sep_02_1404,MusicAffectPsychophysiology2019,3.0.5,59.87564236257988,
To what extent did the music make you feel ,ALERT,30MonoWAV/30MonoF2.wav,1,2,2,2,,,,,0,5,5,1,0,3,3,8,,,,,,,,,5,2.402310397999827,,,097,001,2019_Sep_02_1404,MusicAffectPsychophysiology2019,3.0.5,59.87564236257988,
To what extent did the music make you feel ,ANXIOUS ,30MonoWAV/30MonoF2.wav,1,2,2,2,,,,,0,5,5,1,0,4,4,1,,,,,,,,,4,1.3523569680110086,,,097,001,2019_Sep_02_1404,MusicAffectPsychophysiology2019,3.0.5,59.87564236257988,
To what extent did the music make you feel ,ASHAMED,30MonoWAV/30MonoF2.wav,1,2,2,2,,,,,0,5,5,1,0,5,5,4,,,,,,,,,2,1.2839177230198402,,,097,001,2019_Sep_02_1404,MusicAffectPsychophysiology2019,3.0.5,59.87564236257988,
To what extent did the music make you feel ,FRUSTRATED,30MonoWAV/30MonoF2.wav,1,2,2,2,,,,,0,5,5,1,0,6,6,3,,,,,,,,,3,1.9354899640020449,,,097,001,2019_Sep_02_1404,MusicAffectPsychophysiology2019,3.0.5,59.87564236257988,
To what extent did the music make you feel ,ACTIVE,30MonoWAV/30MonoF2.wav,1,2,2,2,,,,,0,5,5,1,0,7,7,9,,,,,,,,,1,1.4366435589909088,,,097,001,2019_Sep_02_1404,MusicAffectPsychophysiology2019,3.0.5,59.87564236257988,
To what extent did the music make you feel ,TENDER,30MonoWAV/30MonoF2.wav,1,2,2,2,,,,,0,5,5,1,0,8,8,10,,,,,,,,,2,1.2194063420174643,,,097,001,2019_Sep_02_1404,MusicAffectPsychophysiology2019,3.0.5,59.87564236257988,
To what extent did the music make you feel ,EXCITED,30MonoWAV/30MonoF2.wav,1,2,2,2,,,,,0,5,5,1,0,9,9,7,,,,,,,,,1,1.402756120020058,,,097,001,2019_Sep_02_1404,MusicAffectPsychophysiology2019,3.0.5,59.87564236257988,
To what extent did the music make you feel ,SAD,30MonoWAV/30MonoF2.wav,1,2,2,2,,,,,0,5,5,1,0,10,10,0,,,,,,,,,2,1.3853820079821162,,,097,001,2019_Sep_02_1404,MusicAffectPsychophysiology2019,3.0.5,59.87564236257988,
To what extent did the music make you feel ,GUILTY,30MonoWAV/30MonoF2.wav,1,2,2,2,,,,,0,5,5,1,0,11,11,5,,,,,,,,,3,1.7358559900021646,,,097,001,2019_Sep_02_1404,MusicAffectPsychophysiology2019,3.0.5,59.87564236257988,
,,30MonoWAV/30MonoF2.wav,1,2,2,2,,,,,0,5,5,1,,,,,,,,,,,,,,,,,097,001,2019_Sep_02_1404,MusicAffectPsychophysiology2019,3.0.5,59.87564236257988,
To what extent did the music make you feel ,ANGRY,30MonoWAV/30MonoT4.wav,2,1,4,16,,,,,0,6,6,15,0,0,0,2,,,2,2.7360251490026712,4,1.6859629009850323,3,1.438742964004632,1,1.3191089339961763,,,097,001,2019_Sep_02_1404,MusicAffectPsychophysiology2019,3.0.5,59.87564236257988,
To what extent did the music make you feel ,FRUSTRATED,30MonoWAV/30MonoT4.wav,2,1,4,16,,,,,0,6,6,15,0,1,1,3,,,,,,,,,2,0.9800204000202939,,,097,001,2019_Sep_02_1404,MusicAffectPsychophysiology2019,3.0.5,59.87564236257988,
To what extent did the music make you feel ,HAPPY,30MonoWAV/30MonoT4.wav,2,1,4,16,,,,,0,6,6,15,0,2,2,6,,,,,,,,,4,1.303074163995916,,,097,001,2019_Sep_02_1404,MusicAffectPsychophysiology2019,3.0.5,59.87564236257988,
To what extent did the music make you feel ,TENDER,30MonoWAV/30MonoT4.wav,2,1,4,16,,,,,0,6,6,15,0,3,3,10,,,,,,,,,3,0.913138326985063,,,097,001,2019_Sep_02_1404,MusicAffectPsychophysiology2019,3.0.5,59.87564236257988,
To what extent did the music make you feel ,ASHAMED,30MonoWAV/30MonoT4.wav,2,1,4,16,,,,,0,6,6,15,0,4,4,4,,,,,,,,,1,1.5026182330038864,,,097,001,2019_Sep_02_1404,MusicAffectPsychophysiology2019,3.0.5,59.87564236257988,
To what extent did the music make you feel ,ALERT,30MonoWAV/30MonoT4.wav,2,1,4,16,,,,,0,6,6,15,0,5,5,8,,,,,,,,,2,1.8854500929883216,,,097,001,2019_Sep_02_1404,MusicAffectPsychophysiology2019,3.0.5,59.87564236257988,
To what extent did the music make you feel ,ANXIOUS ,30MonoWAV/30MonoT4.wav,2,1,4,16,,,,,0,6,6,15,0,6,6,1,,,,,,,,,2,0.8529958939761855,,,097,001,2019_Sep_02_1404,MusicAffectPsychophysiology2019,3.0.5,59.87564236257988,
To what extent did the music make you feel ,SCARED,30MonoWAV/30MonoT4.wav,2,1,4,16,,,,,0,6,6,15,0,7,7,11,,,,,,,,,1,1.0135713080235291,,,097,001,2019_Sep_02_1404,MusicAffectPsychophysiology2019,3.0.5,59.87564236257988,
To what extent did the music make you feel ,ACTIVE,30MonoWAV/30MonoT4.wav,2,1,4,16,,,,,0,6,6,15,0,8,8,9,,,,,,,,,3,0.9862291769823059,,,097,001,2019_Sep_02_1404,MusicAffectPsychophysiology2019,3.0.5,59.87564236257988,
To what extent did the music make you feel ,GUILTY,30MonoWAV/30MonoT4.wav,2,1,4,16,,,,,0,6,6,15,0,9,9,5,,,,,,,,,1,1.2830856209911872,,,097,001,2019_Sep_02_1404,MusicAffectPsychophysiology2019,3.0.5,59.87564236257988,
To what extent did the music make you feel ,EXCITED,30MonoWAV/30MonoT4.wav,2,1,4,16,,,,,0,6,6,15,0,10,10,7,,,,,,,,,3,1.5026282809849363,,,097,001,2019_Sep_02_1404,MusicAffectPsychophysiology2019,3.0.5,59.87564236257988,
To what extent did the music make you feel ,SAD,30MonoWAV/30MonoT4.wav,2,1,4,16,,,,,0,6,6,15,0,11,11,0,,,,,,,,,2,1.6675070579804014,,,097,001,2019_Sep_02_1404,MusicAffectPsychophysiology2019,3.0.5,59.87564236257988,
,,30MonoWAV/30MonoT4.wav,2,1,4,16,,,,,0,6,6,15,,,,,,,,,,,,,,,,,097,001,2019_Sep_02_1404,MusicAffectPsychophysiology2019,3.0.5,59.87564236257988,
To what extent did the music make you feel ,SAD,30MonoWAV/30MonoH4.wav,2,2,1,8,,,,,0,7,7,7,0,0,0,0,,,4,4.133829817990772,4,1.036037796002347,3,1.516985157999443,1,4.086620877002133,,,097,001,2019_Sep_02_1404,MusicAffectPsychophysiology2019,3.0.5,59.87564236257988,
To what extent did the music make you feel ,ANXIOUS ,30MonoWAV/30MonoH4.wav,2,2,1,8,,,,,0,7,7,7,0,1,1,1,,,,,,,,,1,0.7346254069998395,,,097,001,2019_Sep_02_1404,MusicAffectPsychophysiology2019,3.0.5,59.87564236257988,
To what extent did the music make you feel ,GUILTY,30MonoWAV/30MonoH4.wav,2,2,1,8,,,,,0,7,7,7,0,2,2,5,,,,,,,,,1,0.8703657029836904,,,097,001,2019_Sep_02_1404,MusicAffectPsychophysiology2019,3.0.5,59.87564236257988,
To what extent did the music make you feel ,EXCITED,30MonoWAV/30MonoH4.wav,2,2,1,8,,,,,0,7,7,7,0,3,3,7,,,,,,,,,5,1.6389835680020042,,,097,001,2019_Sep_02_1404,MusicAffectPsychophysiology2019,3.0.5,59.87564236257988,
To what extent did the music make you feel ,FRUSTRATED,30MonoWAV/30MonoH4.wav,2,2,1,8,,,,,0,7,7,7,0,4,4,3,,,,,,,,,1,1.2895636000030208,,,097,001,2019_Sep_02_1404,MusicAffectPsychophysiology2019,3.0.5,59.87564236257988,
To what extent did the music make you feel ,HAPPY,30MonoWAV/30MonoH4.wav,2,2,1,8,,,,,0,7,7,7,0,5,5,6,,,,,,,,,4,1.2511559250124265,,,097,001,2019_Sep_02_1404,MusicAffectPsychophysiology2019,3.0.5,59.87564236257988,
To what extent did the music make you feel ,ANGRY,30MonoWAV/30MonoH4.wav,2,2,1,8,,,,,0,7,7,7,0,6,6,2,,,,,,,,,1,1.253920396004105,,,097,001,2019_Sep_02_1404,MusicAffectPsychophysiology2019,3.0.5,59.87564236257988,
To what extent did the music make you feel ,ASHAMED,30MonoWAV/30MonoH4.wav,2,2,1,8,,,,,0,7,7,7,0,7,7,4,,,,,,,,,1,1.0352981080068275,,,097,001,2019_Sep_02_1404,MusicAffectPsychophysiology2019,3.0.5,59.87564236257988,
To what extent did the music make you feel ,ALERT,30MonoWAV/30MonoH4.wav,2,2,1,8,,,,,0,7,7,7,0,8,8,8,,,,,,,,,5,1.3862405419931747,,,097,001,2019_Sep_02_1404,MusicAffectPsychophysiology2019,3.0.5,59.87564236257988,
To what extent did the music make you feel ,TENDER,30MonoWAV/30MonoH4.wav,2,2,1,8,,,,,0,7,7,7,0,9,9,10,,,,,,,,,3,0.9840206069929991,,,097,001,2019_Sep_02_1404,MusicAffectPsychophysiology2019,3.0.5,59.87564236257988,
To what extent did the music make you feel ,SCARED,30MonoWAV/30MonoH4.wav,2,2,1,8,,,,,0,7,7,7,0,10,10,11,,,,,,,,,1,1.0862627289898228,,,097,001,2019_Sep_02_1404,MusicAffectPsychophysiology2019,3.0.5,59.87564236257988,
To what extent did the music make you feel ,ACTIVE,30MonoWAV/30MonoH4.wav,2,2,1,8,,,,,0,7,7,7,0,11,11,9,,,,,,,,,4,1.1695938670018222,,,097,001,2019_Sep_02_1404,MusicAffectPsychophysiology2019,3.0.5,59.87564236257988,
,,30MonoWAV/30MonoH4.wav,2,2,1,8,,,,,0,7,7,7,,,,,,,,,,,,,,,,,097,001,2019_Sep_02_1404,MusicAffectPsychophysiology2019,3.0.5,59.87564236257988,
To what extent did the music make you feel ,SAD,30MonoWAV/30MonoF1.wav,1,2,2,1,,,,,0,8,8,0,0,0,0,0,,,2,2.8015783200098667,1,1.7372408339870162,2,1.485562410991406,1,1.4002369530207943,,,097,001,2019_Sep_02_1404,MusicAffectPsychophysiology2019,3.0.5,59.87564236257988,
To what extent did the music make you feel ,ANXIOUS ,30MonoWAV/30MonoF1.wav,1,2,2,1,,,,,0,8,8,0,0,1,1,1,,,,,,,,,5,1.9863615059875883,,,097,001,2019_Sep_02_1404,MusicAffectPsychophysiology2019,3.0.5,59.87564236257988,
To what extent did the music make you feel ,EXCITED,30MonoWAV/30MonoF1.wav,1,2,2,1,,,,,0,8,8,0,0,2,2,7,,,,,,,,,2,1.6865978309942875,,,097,001,2019_Sep_02_1404,MusicAffectPsychophysiology2019,3.0.5,59.87564236257988,
To what extent did the music make you feel ,HAPPY,30MonoWAV/30MonoF1.wav,1,2,2,1,,,,,0,8,8,0,0,3,3,6,,,,,,,,,1,1.0198609399958514,,,097,001,2019_Sep_02_1404,MusicAffectPsychophysiology2019,3.0.5,59.87564236257988,
To what extent did the music make you feel ,GUILTY,30MonoWAV/30MonoF1.wav,1,2,2,1,,,,,0,8,8,0,0,4,4,5,,,,,,,,,2,1.03597649699077,,,097,001,2019_Sep_02_1404,MusicAffectPsychophysiology2019,3.0.5,59.87564236257988,
To what extent did the music make you feel ,ASHAMED,30MonoWAV/30MonoF1.wav,1,2,2,1,,,,,0,8,8,0,0,5,5,4,,,,,,,,,2,1.169417978002457,,,097,001,2019_Sep_02_1404,MusicAffectPsychophysiology2019,3.0.5,59.87564236257988,
To what extent did the music make you feel ,FRUSTRATED,30MonoWAV/30MonoF1.wav,1,2,2,1,,,,,0,8,8,0,0,6,6,3,,,,,,,,,3,1.0843646739958785,,,097,001,2019_Sep_02_1404,MusicAffectPsychophysiology2019,3.0.5,59.87564236257988,
To what extent did the music make you feel ,ACTIVE,30MonoWAV/30MonoF1.wav,1,2,2,1,,,,,0,8,8,0,0,7,7,9,,,,,,,,,2,2.0009926059865393,,,097,001,2019_Sep_02_1404,MusicAffectPsychophysiology2019,3.0.5,59.87564236257988,
To what extent did the music make you feel ,ALERT,30MonoWAV/30MonoF1.wav,1,2,2,1,,,,,0,8,8,0,0,8,8,8,,,,,,,,,3,1.0195386440027505,,,097,001,2019_Sep_02_1404,MusicAffectPsychophysiology2019,3.0.5,59.87564236257988,
To what extent did the music make you feel ,TENDER,30MonoWAV/30MonoF1.wav,1,2,2,1,,,,,0,8,8,0,0,9,9,10,,,,,,,,,2,1.1001879860123154,,,097,001,2019_Sep_02_1404,MusicAffectPsychophysiology2019,3.0.5,59.87564236257988,
To what extent did the music make you feel ,SCARED,30MonoWAV/30MonoF1.wav,1,2,2,1,,,,,0,8,8,0,0,10,10,11,,,,,,,,,3,1.6704804349865299,,,097,001,2019_Sep_02_1404,MusicAffectPsychophysiology2019,3.0.5,59.87564236257988,
To what extent did the music make you feel ,ANGRY,30MonoWAV/30MonoF1.wav,1,2,2,1,,,,,0,8,8,0,0,11,11,2,,,,,,,,,4,1.070776816981379,,,097,001,2019_Sep_02_1404,MusicAffectPsychophysiology2019,3.0.5,59.87564236257988,
,,30MonoWAV/30MonoF1.wav,1,2,2,1,,,,,0,8,8,0,,,,,,,,,,,,,,,,,097,001,2019_Sep_02_1404,MusicAffectPsychophysiology2019,3.0.5,59.87564236257988,
To what extent did the music make you feel ,HAPPY,30MonoWAV/30MonoF3.wav,1,2,2,3,,,,,0,9,9,2,0,0,0,6,,,1,2.0868039450142533,2,0.7353745969885495,1,1.0993986559915356,1,1.0021040359861217,,,097,001,2019_Sep_02_1404,MusicAffectPsychophysiology2019,3.0.5,59.87564236257988,
To what extent did the music make you feel ,SAD,30MonoWAV/30MonoF3.wav,1,2,2,3,,,,,0,9,9,2,0,1,1,0,,,,,,,,,2,0.9354496299929451,,,097,001,2019_Sep_02_1404,MusicAffectPsychophysiology2019,3.0.5,59.87564236257988,
To what extent did the music make you feel ,ANGRY,30MonoWAV/30MonoF3.wav,1,2,2,3,,,,,0,9,9,2,0,2,2,2,,,,,,,,,4,1.7539527429908048,,,097,001,2019_Sep_02_1404,MusicAffectPsychophysiology2019,3.0.5,59.87564236257988,
To what extent did the music make you feel ,TENDER,30MonoWAV/30MonoF3.wav,1,2,2,3,,,,,0,9,9,2,0,3,3,10,,,,,,,,,1,1.0251815850206185,,,097,001,2019_Sep_02_1404,MusicAffectPsychophysiology2019,3.0.5,59.87564236257988,
To what extent did the music make you feel ,ANXIOUS ,30MonoWAV/30MonoF3.wav,1,2,2,3,,,,,0,9,9,2,0,4,4,1,,,,,,,,,4,1.1027063180226833,,,097,001,2019_Sep_02_1404,MusicAffectPsychophysiology2019,3.0.5,59.87564236257988,
To what extent did the music make you feel ,GUILTY,30MonoWAV/30MonoF3.wav,1,2,2,3,,,,,0,9,9,2,0,5,5,5,,,,,,,,,3,1.09965448800358,,,097,001,2019_Sep_02_1404,MusicAffectPsychophysiology2019,3.0.5,59.87564236257988,
To what extent did the music make you feel ,ACTIVE,30MonoWAV/30MonoF3.wav,1,2,2,3,,,,,0,9,9,2,0,6,6,9,,,,,,,,,3,1.3701152629801072,,,097,001,2019_Sep_02_1404,MusicAffectPsychophysiology2019,3.0.5,59.87564236257988,
To what extent did the music make you feel ,SCARED,30MonoWAV/30MonoF3.wav,1,2,2,3,,,,,0,9,9,2,0,7,7,11,,,,,,,,,2,0.8522320929914713,,,097,001,2019_Sep_02_1404,MusicAffectPsychophysiology2019,3.0.5,59.87564236257988,
To what extent did the music make you feel ,ALERT,30MonoWAV/30MonoF3.wav,1,2,2,3,,,,,0,9,9,2,0,8,8,8,,,,,,,,,3,1.120311204023892,,,097,001,2019_Sep_02_1404,MusicAffectPsychophysiology2019,3.0.5,59.87564236257988,
To what extent did the music make you feel ,ASHAMED,30MonoWAV/30MonoF3.wav,1,2,2,3,,,,,0,9,9,2,0,9,9,4,,,,,,,,,1,1.2516219049866777,,,097,001,2019_Sep_02_1404,MusicAffectPsychophysiology2019,3.0.5,59.87564236257988,
To what extent did the music make you feel ,FRUSTRATED,30MonoWAV/30MonoF3.wav,1,2,2,3,,,,,0,9,9,2,0,10,10,3,,,,,,,,,4,1.708334078983171,,,097,001,2019_Sep_02_1404,MusicAffectPsychophysiology2019,3.0.5,59.87564236257988,
To what extent did the music make you feel ,EXCITED,30MonoWAV/30MonoF3.wav,1,2,2,3,,,,,0,9,9,2,0,11,11,7,,,,,,,,,1,1.9033957829815336,,,097,001,2019_Sep_02_1404,MusicAffectPsychophysiology2019,3.0.5,59.87564236257988,
,,30MonoWAV/30MonoF3.wav,1,2,2,3,,,,,0,9,9,2,,,,,,,,,,,,,,,,,097,001,2019_Sep_02_1404,MusicAffectPsychophysiology2019,3.0.5,59.87564236257988,
To what extent did the music make you feel ,EXCITED,30MonoWAV/30MonoS3.wav,1,1,3,11,,,,,0,10,10,10,0,0,0,7,,,1,2.5535123519948684,1,1.0022593890025746,1,1.385397985985037,1,0.9351626739953645,,,097,001,2019_Sep_02_1404,MusicAffectPsychophysiology2019,3.0.5,59.87564236257988,
To what extent did the music make you feel ,ACTIVE,30MonoWAV/30MonoS3.wav,1,1,3,11,,,,,0,10,10,10,0,1,1,9,,,,,,,,,1,0.6860040350002237,,,097,001,2019_Sep_02_1404,MusicAffectPsychophysiology2019,3.0.5,59.87564236257988,
To what extent did the music make you feel ,ANXIOUS ,30MonoWAV/30MonoS3.wav,1,1,3,11,,,,,0,10,10,10,0,2,2,1,,,,,,,,,2,1.0021800489921588,,,097,001,2019_Sep_02_1404,MusicAffectPsychophysiology2019,3.0.5,59.87564236257988,
To what extent did the music make you feel ,GUILTY,30MonoWAV/30MonoS3.wav,1,1,3,11,,,,,0,10,10,10,0,3,3,5,,,,,,,,,3,1.167630312993424,,,097,001,2019_Sep_02_1404,MusicAffectPsychophysiology2019,3.0.5,59.87564236257988,
To what extent did the music make you feel ,FRUSTRATED,30MonoWAV/30MonoS3.wav,1,1,3,11,,,,,0,10,10,10,0,4,4,3,,,,,,,,,3,1.0024294089816976,,,097,001,2019_Sep_02_1404,MusicAffectPsychophysiology2019,3.0.5,59.87564236257988,
To what extent did the music make you feel ,ANGRY,30MonoWAV/30MonoS3.wav,1,1,3,11,,,,,0,10,10,10,0,5,5,2,,,,,,,,,2,1.4521398179931566,,,097,001,2019_Sep_02_1404,MusicAffectPsychophysiology2019,3.0.5,59.87564236257988,
To what extent did the music make you feel ,SAD,30MonoWAV/30MonoS3.wav,1,1,3,11,,,,,0,10,10,10,0,6,6,0,,,,,,,,,2,1.7693606769898906,,,097,001,2019_Sep_02_1404,MusicAffectPsychophysiology2019,3.0.5,59.87564236257988,
To what extent did the music make you feel ,SCARED,30MonoWAV/30MonoS3.wav,1,1,3,11,,,,,0,10,10,10,0,7,7,11,,,,,,,,,2,0.8523928259965032,,,097,001,2019_Sep_02_1404,MusicAffectPsychophysiology2019,3.0.5,59.87564236257988,
To what extent did the music make you feel ,HAPPY,30MonoWAV/30MonoS3.wav,1,1,3,11,,,,,0,10,10,10,0,8,8,6,,,,,,,,,1,0.9180756279965863,,,097,001,2019_Sep_02_1404,MusicAffectPsychophysiology2019,3.0.5,59.87564236257988,
To what extent did the music make you feel ,TENDER,30MonoWAV/30MonoS3.wav,1,1,3,11,,,,,0,10,10,10,0,9,9,10,,,,,,,,,1,0.801501381007256,,,097,001,2019_Sep_02_1404,MusicAffectPsychophysiology2019,3.0.5,59.87564236257988,
To what extent did the music make you feel ,ASHAMED,30MonoWAV/30MonoS3.wav,1,1,3,11,,,,,0,10,10,10,0,10,10,4,,,,,,,,,2,0.9528846699977294,,,097,001,2019_Sep_02_1404,MusicAffectPsychophysiology2019,3.0.5,59.87564236257988,
To what extent did the music make you feel ,ALERT,30MonoWAV/30MonoS3.wav,1,1,3,11,,,,,0,10,10,10,0,11,11,8,,,,,,,,,1,1.2019943690102082,,,097,001,2019_Sep_02_1404,MusicAffectPsychophysiology2019,3.0.5,59.87564236257988,
,,30MonoWAV/30MonoS3.wav,1,1,3,11,,,,,0,10,10,10,,,,,,,,,,,,,,,,,097,001,2019_Sep_02_1404,MusicAffectPsychophysiology2019,3.0.5,59.87564236257988,
To what extent did the music make you feel ,ASHAMED,30MonoWAV/30MonoH2.wav,2,2,1,6,,,,,0,11,11,5,0,0,0,4,,,3,2.6506904090056196,4,1.2698059369868133,3,1.503617567999754,1,1.580711952992715,,,097,001,2019_Sep_02_1404,MusicAffectPsychophysiology2019,3.0.5,59.87564236257988,
To what extent did the music make you feel ,ACTIVE,30MonoWAV/30MonoH2.wav,2,2,1,6,,,,,0,11,11,5,0,1,1,9,,,,,,,,,4,1.4687883460137527,,,097,001,2019_Sep_02_1404,MusicAffectPsychophysiology2019,3.0.5,59.87564236257988,
To what extent did the music make you feel ,ANXIOUS ,30MonoWAV/30MonoH2.wav,2,2,1,6,,,,,0,11,11,5,0,2,2,1,,,,,,,,,1,1.3196321580035146,,,097,001,2019_Sep_02_1404,MusicAffectPsychophysiology2019,3.0.5,59.87564236257988,
To what extent did the music make you feel ,GUILTY,30MonoWAV/30MonoH2.wav,2,2,1,6,,,,,0,11,11,5,0,3,3,5,,,,,,,,,2,1.9864748020190746,,,097,001,2019_Sep_02_1404,MusicAffectPsychophysiology2019,3.0.5,59.87564236257988,
To what extent did the music make you feel ,EXCITED,30MonoWAV/30MonoH2.wav,2,2,1,6,,,,,0,11,11,5,0,4,4,7,,,,,,,,,4,1.121260689018527,,,097,001,2019_Sep_02_1404,MusicAffectPsychophysiology2019,3.0.5,59.87564236257988,
To what extent did the music make you feel ,ALERT,30MonoWAV/30MonoH2.wav,2,2,1,6,,,,,0,11,11,5,0,5,5,8,,,,,,,,,4,0.735838396998588,,,097,001,2019_Sep_02_1404,MusicAffectPsychophysiology2019,3.0.5,59.87564236257988,
To what extent did the music make you feel ,SCARED,30MonoWAV/30MonoH2.wav,2,2,1,6,,,,,0,11,11,5,0,6,6,11,,,,,,,,,1,1.0373931280046236,,,097,001,2019_Sep_02_1404,MusicAffectPsychophysiology2019,3.0.5,59.87564236257988,
To what extent did the music make you feel ,HAPPY,30MonoWAV/30MonoH2.wav,2,2,1,6,,,,,0,11,11,5,0,7,7,6,,,,,,,,,4,1.3869215110025834,,,097,001,2019_Sep_02_1404,MusicAffectPsychophysiology2019,3.0.5,59.87564236257988,
To what extent did the music make you feel ,ANGRY,30MonoWAV/30MonoH2.wav,2,2,1,6,,,,,0,11,11,5,0,8,8,2,,,,,,,,,1,0.9291758549807128,,,097,001,2019_Sep_02_1404,MusicAffectPsychophysiology2019,3.0.5,59.87564236257988,
To what extent did the music make you feel ,FRUSTRATED,30MonoWAV/30MonoH2.wav,2,2,1,6,,,,,0,11,11,5,0,9,9,3,,,,,,,,,1,1.4109536119794939,,,097,001,2019_Sep_02_1404,MusicAffectPsychophysiology2019,3.0.5,59.87564236257988,
To what extent did the music make you feel ,TENDER,30MonoWAV/30MonoH2.wav,2,2,1,6,,,,,0,11,11,5,0,10,10,10,,,,,,,,,3,0.8866067630006,,,097,001,2019_Sep_02_1404,MusicAffectPsychophysiology2019,3.0.5,59.87564236257988,
To what extent did the music make you feel ,SAD,30MonoWAV/30MonoH2.wav,2,2,1,6,,,,,0,11,11,5,0,11,11,0,,,,,,,,,1,0.8692509279935621,,,097,001,2019_Sep_02_1404,MusicAffectPsychophysiology2019,3.0.5,59.87564236257988,
,,30MonoWAV/30MonoH2.wav,2,2,1,6,,,,,0,11,11,5,,,,,,,,,,,,,,,,,097,001,2019_Sep_02_1404,MusicAffectPsychophysiology2019,3.0.5,59.87564236257988,
To what extent did the music make you feel ,ALERT,30MonoWAV/30MonoS2.wav,1,1,3,10,,,,,0,12,12,9,0,0,0,8,,,1,2.536688533000415,2,1.402363792003598,1,1.5693259949912317,1,0.9056492370145861,,,097,001,2019_Sep_02_1404,MusicAffectPsychophysiology2019,3.0.5,59.87564236257988,
To what extent did the music make you feel ,SCARED,30MonoWAV/30MonoS2.wav,1,1,3,10,,,,,0,12,12,9,0,1,1,11,,,,,,,,,2,0.9198970870056655,,,097,001,2019_Sep_02_1404,MusicAffectPsychophysiology2019,3.0.5,59.87564236257988,
To what extent did the music make you feel ,ACTIVE,30MonoWAV/30MonoS2.wav,1,1,3,10,,,,,0,12,12,9,0,2,2,9,,,,,,,,,1,0.801987414015457,,,097,001,2019_Sep_02_1404,MusicAffectPsychophysiology2019,3.0.5,59.87564236257988,
To what extent did the music make you feel ,EXCITED,30MonoWAV/30MonoS2.wav,1,1,3,10,,,,,0,12,12,9,0,3,3,7,,,,,,,,,1,1.3498342570092063,,,097,001,2019_Sep_02_1404,MusicAffectPsychophysiology2019,3.0.5,59.87564236257988,
To what extent did the music make you feel ,FRUSTRATED,30MonoWAV/30MonoS2.wav,1,1,3,10,,,,,0,12,12,9,0,4,4,3,,,,,,,,,2,0.8533533189911395,,,097,001,2019_Sep_02_1404,MusicAffectPsychophysiology2019,3.0.5,59.87564236257988,
To what extent did the music make you feel ,GUILTY,30MonoWAV/30MonoS2.wav,1,1,3,10,,,,,0,12,12,9,0,5,5,5,,,,,,,,,3,1.503200529026799,,,097,001,2019_Sep_02_1404,MusicAffectPsychophysiology2019,3.0.5,59.87564236257988,
To what extent did the music make you feel ,ANXIOUS ,30MonoWAV/30MonoS2.wav,1,1,3,10,,,,,0,12,12,9,0,6,6,1,,,,,,,,,3,1.5349898889835458,,,097,001,2019_Sep_02_1404,MusicAffectPsychophysiology2019,3.0.5,59.87564236257988,
To what extent did the music make you feel ,ANGRY,30MonoWAV/30MonoS2.wav,1,1,3,10,,,,,0,12,12,9,0,7,7,2,,,,,,,,,2,2.235659210011363,,,097,001,2019_Sep_02_1404,MusicAffectPsychophysiology2019,3.0.5,59.87564236257988,
To what extent did the music make you feel ,TENDER,30MonoWAV/30MonoS2.wav,1,1,3,10,,,,,0,12,12,9,0,8,8,10,,,,,,,,,1,0.8360612939868588,,,097,001,2019_Sep_02_1404,MusicAffectPsychophysiology2019,3.0.5,59.87564236257988,
To what extent did the music make you feel ,SAD,30MonoWAV/30MonoS2.wav,1,1,3,10,,,,,0,12,12,9,0,9,9,0,,,,,,,,,2,1.053057015989907,,,097,001,2019_Sep_02_1404,MusicAffectPsychophysiology2019,3.0.5,59.87564236257988,
To what extent did the music make you feel ,ASHAMED,30MonoWAV/30MonoS2.wav,1,1,3,10,,,,,0,12,12,9,0,10,10,4,,,,,,,,,2,0.8680774469976313,,,097,001,2019_Sep_02_1404,MusicAffectPsychophysiology2019,3.0.5,59.87564236257988,
To what extent did the music make you feel ,HAPPY,30MonoWAV/30MonoS2.wav,1,1,3,10,,,,,0,12,12,9,0,11,11,6,,,,,,,,,1,1.1191511359938886,,,097,001,2019_Sep_02_1404,MusicAffectPsychophysiology2019,3.0.5,59.87564236257988,
,,30MonoWAV/30MonoS2.wav,1,1,3,10,,,,,0,12,12,9,,,,,,,,,,,,,,,,,097,001,2019_Sep_02_1404,MusicAffectPsychophysiology2019,3.0.5,59.87564236257988,
To what extent did the music make you feel ,FRUSTRATED,30MonoWAV/30MonoH1.wav,2,2,1,5,,,,,0,13,13,4,0,0,0,3,,,2,3.1693137510155793,3,2.168515926983673,2,0.7020930759899784,1,1.3863570599933155,,,097,001,2019_Sep_02_1404,MusicAffectPsychophysiology2019,3.0.5,59.87564236257988,
To what extent did the music make you feel ,ANGRY,30MonoWAV/30MonoH1.wav,2,2,1,5,,,,,0,13,13,4,0,1,1,2,,,,,,,,,1,0.5865548129950184,,,097,001,2019_Sep_02_1404,MusicAffectPsychophysiology2019,3.0.5,59.87564236257988,
To what extent did the music make you feel ,SAD,30MonoWAV/30MonoH1.wav,2,2,1,5,,,,,0,13,13,4,0,2,2,0,,,,,,,,,1,0.6694943589973263,,,097,001,2019_Sep_02_1404,MusicAffectPsychophysiology2019,3.0.5,59.87564236257988,
To what extent did the music make you feel ,SCARED,30MonoWAV/30MonoH1.wav,2,2,1,5,,,,,0,13,13,4,0,3,3,11,,,,,,,,,1,0.6198754810029641,,,097,001,2019_Sep_02_1404,MusicAffectPsychophysiology2019,3.0.5,59.87564236257988,
To what extent did the music make you feel ,ANXIOUS ,30MonoWAV/30MonoH1.wav,2,2,1,5,,,,,0,13,13,4,0,4,4,1,,,,,,,,,2,1.0867797060054727,,,097,001,2019_Sep_02_1404,MusicAffectPsychophysiology2019,3.0.5,59.87564236257988,
To what extent did the music make you feel ,ASHAMED,30MonoWAV/30MonoH1.wav,2,2,1,5,,,,,0,13,13,4,0,5,5,4,,,,,,,,,1,0.9362458910036366,,,097,001,2019_Sep_02_1404,MusicAffectPsychophysiology2019,3.0.5,59.87564236257988,
To what extent did the music make you feel ,TENDER,30MonoWAV/30MonoH1.wav,2,2,1,5,,,,,0,13,13,4,0,6,6,10,,,,,,,,,3,1.2201275150000583,,,097,001,2019_Sep_02_1404,MusicAffectPsychophysiology2019,3.0.5,59.87564236257988,
To what extent did the music make you feel ,ACTIVE,30MonoWAV/30MonoH1.wav,2,2,1,5,,,,,0,13,13,4,0,7,7,9,,,,,,,,,4,1.0858186359982938,,,097,001,2019_Sep_02_1404,MusicAffectPsychophysiology2019,3.0.5,59.87564236257988,
To what extent did the music make you feel ,EXCITED,30MonoWAV/30MonoH1.wav,2,2,1,5,,,,,0,13,13,4,0,8,8,7,,,,,,,,,3,1.002679634024389,,,097,001,2019_Sep_02_1404,MusicAffectPsychophysiology2019,3.0.5,59.87564236257988,
To what extent did the music make you feel ,ALERT,30MonoWAV/30MonoH1.wav,2,2,1,5,,,,,0,13,13,4,0,9,9,8,,,,,,,,,4,1.3531620580179151,,,097,001,2019_Sep_02_1404,MusicAffectPsychophysiology2019,3.0.5,59.87564236257988,
To what extent did the music make you feel ,HAPPY,30MonoWAV/30MonoH1.wav,2,2,1,5,,,,,0,13,13,4,0,10,10,6,,,,,,,,,3,1.6521027460112236,,,097,001,2019_Sep_02_1404,MusicAffectPsychophysiology2019,3.0.5,59.87564236257988,
To what extent did the music make you feel ,GUILTY,30MonoWAV/30MonoH1.wav,2,2,1,5,,,,,0,13,13,4,0,11,11,5,,,,,,,,,2,1.1356822029920295,,,097,001,2019_Sep_02_1404,MusicAffectPsychophysiology2019,3.0.5,59.87564236257988,
,,30MonoWAV/30MonoH1.wav,2,2,1,5,,,,,0,13,13,4,,,,,,,,,,,,,,,,,097,001,2019_Sep_02_1404,MusicAffectPsychophysiology2019,3.0.5,59.87564236257988,
To what extent did the music make you feel ,SAD,30MonoWAV/30MonoT2.wav,2,1,4,14,,,,,0,14,14,13,0,0,0,0,,,2,4.052724679000676,2,1.2682693719980307,1,0.8192550989915617,2,1.3260422679886688,,,097,001,2019_Sep_02_1404,MusicAffectPsychophysiology2019,3.0.5,59.87564236257988,
To what extent did the music make you feel ,EXCITED,30MonoWAV/30MonoT2.wav,2,1,4,14,,,,,0,14,14,13,0,1,1,7,,,,,,,,,3,1.1858640660066158,,,097,001,2019_Sep_02_1404,MusicAffectPsychophysiology2019,3.0.5,59.87564236257988,
To what extent did the music make you feel ,ANXIOUS ,30MonoWAV/30MonoT2.wav,2,1,4,14,,,,,0,14,14,13,0,2,2,1,,,,,,,,,2,1.0360913089825772,,,097,001,2019_Sep_02_1404,MusicAffectPsychophysiology2019,3.0.5,59.87564236257988,
To what extent did the music make you feel ,ACTIVE,30MonoWAV/30MonoT2.wav,2,1,4,14,,,,,0,14,14,13,0,3,3,9,,,,,,,,,2,0.8694929909834173,,,097,001,2019_Sep_02_1404,MusicAffectPsychophysiology2019,3.0.5,59.87564236257988,
To what extent did the music make you feel ,ANGRY,30MonoWAV/30MonoT2.wav,2,1,4,14,,,,,0,14,14,13,0,4,4,2,,,,,,,,,2,1.1694955069979187,,,097,001,2019_Sep_02_1404,MusicAffectPsychophysiology2019,3.0.5,59.87564236257988,
To what extent did the music make you feel ,ALERT,30MonoWAV/30MonoT2.wav,2,1,4,14,,,,,0,14,14,13,0,5,5,8,,,,,,,,,2,0.6364800830197055,,,097,001,2019_Sep_02_1404,MusicAffectPsychophysiology2019,3.0.5,59.87564236257988,
To what extent did the music make you feel ,GUILTY,30MonoWAV/30MonoT2.wav,2,1,4,14,,,,,0,14,14,13,0,6,6,5,,,,,,,,,1,0.8026520410203375,,,097,001,2019_Sep_02_1404,MusicAffectPsychophysiology2019,3.0.5,59.87564236257988,
To what extent did the music make you feel ,FRUSTRATED,30MonoWAV/30MonoT2.wav,2,1,4,14,,,,,0,14,14,13,0,7,7,3,,,,,,,,,2,0.9256560530047864,,,097,001,2019_Sep_02_1404,MusicAffectPsychophysiology2019,3.0.5,59.87564236257988,
To what extent did the music make you feel ,ASHAMED,30MonoWAV/30MonoT2.wav,2,1,4,14,,,,,0,14,14,13,0,8,8,4,,,,,,,,,1,0.9167955760203768,,,097,001,2019_Sep_02_1404,MusicAffectPsychophysiology2019,3.0.5,59.87564236257988,
To what extent did the music make you feel ,HAPPY,30MonoWAV/30MonoT2.wav,2,1,4,14,,,,,0,14,14,13,0,9,9,6,,,,,,,,,1,1.0693370919907466,,,097,001,2019_Sep_02_1404,MusicAffectPsychophysiology2019,3.0.5,59.87564236257988,
To what extent did the music make you feel ,SCARED,30MonoWAV/30MonoT2.wav,2,1,4,14,,,,,0,14,14,13,0,10,10,11,,,,,,,,,2,1.0205927019997034,,,097,001,2019_Sep_02_1404,MusicAffectPsychophysiology2019,3.0.5,59.87564236257988,
To what extent did the music make you feel ,TENDER,30MonoWAV/30MonoT2.wav,2,1,4,14,,,,,0,14,14,13,0,11,11,10,,,,,,,,,3,1.7520706669893116,,,097,001,2019_Sep_02_1404,MusicAffectPsychophysiology2019,3.0.5,59.87564236257988,
,,30MonoWAV/30MonoT2.wav,2,1,4,14,,,,,0,14,14,13,,,,,,,,,,,,,,,,,097,001,2019_Sep_02_1404,MusicAffectPsychophysiology2019,3.0.5,59.87564236257988,
To what extent did the music make you feel ,FRUSTRATED,30MonoWAV/30MonoT3.wav,2,1,4,15,,,,,0,15,15,14,0,0,0,3,,,1,2.486383867013501,4,1.418971514009172,3,1.0696705729933456,1,1.1341027360176668,,,097,001,2019_Sep_02_1404,MusicAffectPsychophysiology2019,3.0.5,59.87564236257988,
To what extent did the music make you feel ,ACTIVE,30MonoWAV/30MonoT3.wav,2,1,4,15,,,,,0,15,15,14,0,1,1,9,,,,,,,,,2,1.2193612330011092,,,097,001,2019_Sep_02_1404,MusicAffectPsychophysiology2019,3.0.5,59.87564236257988,
To what extent did the music make you feel ,EXCITED,30MonoWAV/30MonoT3.wav,2,1,4,15,,,,,0,15,15,14,0,2,2,7,,,,,,,,,3,0.9521563849993981,,,097,001,2019_Sep_02_1404,MusicAffectPsychophysiology2019,3.0.5,59.87564236257988,
To what extent did the music make you feel ,SAD,30MonoWAV/30MonoT3.wav,2,1,4,15,,,,,0,15,15,14,0,3,3,0,,,,,,,,,1,1.2358286740200128,,,097,001,2019_Sep_02_1404,MusicAffectPsychophysiology2019,3.0.5,59.87564236257988,
To what extent did the music make you feel ,ASHAMED,30MonoWAV/30MonoT3.wav,2,1,4,15,,,,,0,15,15,14,0,4,4,4,,,,,,,,,1,0.7862984690000303,,,097,001,2019_Sep_02_1404,MusicAffectPsychophysiology2019,3.0.5,59.87564236257988,
To what extent did the music make you feel ,ALERT,30MonoWAV/30MonoT3.wav,2,1,4,15,,,,,0,15,15,14,0,5,5,8,,,,,,,,,2,1.350450591999106,,,097,001,2019_Sep_02_1404,MusicAffectPsychophysiology2019,3.0.5,59.87564236257988,
To what extent did the music make you feel ,HAPPY,30MonoWAV/30MonoT3.wav,2,1,4,15,,,,,0,15,15,14,0,6,6,6,,,,,,,,,4,1.0192806359846145,,,097,001,2019_Sep_02_1404,MusicAffectPsychophysiology2019,3.0.5,59.87564236257988,
To what extent did the music make you feel ,GUILTY,30MonoWAV/30MonoT3.wav,2,1,4,15,,,,,0,15,15,14,0,7,7,5,,,,,,,,,2,1.9687383819837123,,,097,001,2019_Sep_02_1404,MusicAffectPsychophysiology2019,3.0.5,59.87564236257988,
To what extent did the music make you feel ,ANXIOUS ,30MonoWAV/30MonoT3.wav,2,1,4,15,,,,,0,15,15,14,0,8,8,1,,,,,,,,,2,0.8365156049840152,,,097,001,2019_Sep_02_1404,MusicAffectPsychophysiology2019,3.0.5,59.87564236257988,
To what extent did the music make you feel ,SCARED,30MonoWAV/30MonoT3.wav,2,1,4,15,,,,,0,15,15,14,0,9,9,11,,,,,,,,,1,0.7699693079921417,,,097,001,2019_Sep_02_1404,MusicAffectPsychophysiology2019,3.0.5,59.87564236257988,
To what extent did the music make you feel ,ANGRY,30MonoWAV/30MonoT3.wav,2,1,4,15,,,,,0,15,15,14,0,10,10,2,,,,,,,,,1,0.9860929930000566,,,097,001,2019_Sep_02_1404,MusicAffectPsychophysiology2019,3.0.5,59.87564236257988,
To what extent did the music make you feel ,TENDER,30MonoWAV/30MonoT3.wav,2,1,4,15,,,,,0,15,15,14,0,11,11,10,,,,,,,,,4,1.9675740030070301,,,097,001,2019_Sep_02_1404,MusicAffectPsychophysiology2019,3.0.5,59.87564236257988,
,,30MonoWAV/30MonoT3.wav,2,1,4,15,,,,,0,15,15,14,,,,,,,,,,,,,,,,,097,001,2019_Sep_02_1404,MusicAffectPsychophysiology2019,3.0.5,59.87564236257988,
To what extent did the music make you feel ,SCARED,30MonoWAV/30MonoS3.wav,1,1,3,11,,,,,1,0,16,10,0,0,0,11,,,1,2.3526479309948627,1,0.8711589089944027,1,0.8361961870105006,1,1.536885319976136,,,097,001,2019_Sep_02_1404,MusicAffectPsychophysiology2019,3.0.5,59.87564236257988,
To what extent did the music make you feel ,ALERT,30MonoWAV/30MonoS3.wav,1,1,3,11,,,,,1,0,16,10,0,1,1,8,,,,,,,,,2,0.8517863149754703,,,097,001,2019_Sep_02_1404,MusicAffectPsychophysiology2019,3.0.5,59.87564236257988,
To what extent did the music make you feel ,HAPPY,30MonoWAV/30MonoS3.wav,1,1,3,11,,,,,1,0,16,10,0,2,2,6,,,,,,,,,1,1.2191242070111912,,,097,001,2019_Sep_02_1404,MusicAffectPsychophysiology2019,3.0.5,59.87564236257988,
To what extent did the music make you feel ,ANXIOUS ,30MonoWAV/30MonoS3.wav,1,1,3,11,,,,,1,0,16,10,0,3,3,1,,,,,,,,,3,1.153667762002442,,,097,001,2019_Sep_02_1404,MusicAffectPsychophysiology2019,3.0.5,59.87564236257988,
To what extent did the music make you feel ,FRUSTRATED,30MonoWAV/30MonoS3.wav,1,1,3,11,,,,,1,0,16,10,0,4,4,3,,,,,,,,,3,1.0295210659969598,,,097,001,2019_Sep_02_1404,MusicAffectPsychophysiology2019,3.0.5,59.87564236257988,
To what extent did the music make you feel ,GUILTY,30MonoWAV/30MonoS3.wav,1,1,3,11,,,,,1,0,16,10,0,5,5,5,,,,,,,,,2,1.0854797769861761,,,097,001,2019_Sep_02_1404,MusicAffectPsychophysiology2019,3.0.5,59.87564236257988,
To what extent did the music make you feel ,TENDER,30MonoWAV/30MonoS3.wav,1,1,3,11,,,,,1,0,16,10,0,6,6,10,,,,,,,,,2,1.217439857980935,,,097,001,2019_Sep_02_1404,MusicAffectPsychophysiology2019,3.0.5,59.87564236257988,
To what extent did the music make you feel ,ACTIVE,30MonoWAV/30MonoS3.wav,1,1,3,11,,,,,1,0,16,10,0,7,7,9,,,,,,,,,2,0.7861990769742988,,,097,001,2019_Sep_02_1404,MusicAffectPsychophysiology2019,3.0.5,59.87564236257988,
To what extent did the music make you feel ,SAD,30MonoWAV/30MonoS3.wav,1,1,3,11,,,,,1,0,16,10,0,8,8,0,,,,,,,,,3,1.0530651389854029,,,097,001,2019_Sep_02_1404,MusicAffectPsychophysiology2019,3.0.5,59.87564236257988,
To what extent did the music make you feel ,ASHAMED,30MonoWAV/30MonoS3.wav,1,1,3,11,,,,,1,0,16,10,0,9,9,4,,,,,,,,,4,1.1873733329994138,,,097,001,2019_Sep_02_1404,MusicAffectPsychophysiology2019,3.0.5,59.87564236257988,
To what extent did the music make you feel ,EXCITED,30MonoWAV/30MonoS3.wav,1,1,3,11,,,,,1,0,16,10,0,10,10,7,,,,,,,,,1,2.186170597997261,,,097,001,2019_Sep_02_1404,MusicAffectPsychophysiology2019,3.0.5,59.87564236257988,
To what extent did the music make you feel ,ANGRY,30MonoWAV/30MonoS3.wav,1,1,3,11,,,,,1,0,16,10,0,11,11,2,,,,,,,,,2,1.0525617149833124,,,097,001,2019_Sep_02_1404,MusicAffectPsychophysiology2019,3.0.5,59.87564236257988,
,,30MonoWAV/30MonoS3.wav,1,1,3,11,,,,,1,0,16,10,,,,,,,,,,,,,,,,,097,001,2019_Sep_02_1404,MusicAffectPsychophysiology2019,3.0.5,59.87564236257988,
To what extent did the music make you feel ,EXCITED,30MonoWAV/30MonoH2.wav,2,2,1,6,,,,,1,1,17,5,0,0,0,7,,,4,4.069240594020812,4,0.9032495940045919,4,1.0364680150232743,4,0.969213869975647,,,097,001,2019_Sep_02_1404,MusicAffectPsychophysiology2019,3.0.5,59.87564236257988,
To what extent did the music make you feel ,ASHAMED,30MonoWAV/30MonoH2.wav,2,2,1,6,,,,,1,1,17,5,0,1,1,4,,,,,,,,,1,1.1204930100066122,,,097,001,2019_Sep_02_1404,MusicAffectPsychophysiology2019,3.0.5,59.87564236257988,
To what extent did the music make you feel ,ACTIVE,30MonoWAV/30MonoH2.wav,2,2,1,6,,,,,1,1,17,5,0,2,2,9,,,,,,,,,5,1.0525598289968912,,,097,001,2019_Sep_02_1404,MusicAffectPsychophysiology2019,3.0.5,59.87564236257988,
To what extent did the music make you feel ,ALERT,30MonoWAV/30MonoH2.wav,2,2,1,6,,,,,1,1,17,5,0,3,3,8,,,,,,,,,4,0.9856560199987143,,,097,001,2019_Sep_02_1404,MusicAffectPsychophysiology2019,3.0.5,59.87564236257988,
To what extent did the music make you feel ,TENDER,30MonoWAV/30MonoH2.wav,2,2,1,6,,,,,1,1,17,5,0,4,4,10,,,,,,,,,3,1.0028114460001234,,,097,001,2019_Sep_02_1404,MusicAffectPsychophysiology2019,3.0.5,59.87564236257988,
To what extent did the music make you feel ,ANGRY,30MonoWAV/30MonoH2.wav,2,2,1,6,,,,,1,1,17,5,0,5,5,2,,,,,,,,,1,1.418834630982019,,,097,001,2019_Sep_02_1404,MusicAffectPsychophysiology2019,3.0.5,59.87564236257988,
To what extent did the music make you feel ,SAD,30MonoWAV/30MonoH2.wav,2,2,1,6,,,,,1,1,17,5,0,6,6,0,,,,,,,,,1,0.7857226839987561,,,097,001,2019_Sep_02_1404,MusicAffectPsychophysiology2019,3.0.5,59.87564236257988,
To what extent did the music make you feel ,ANXIOUS ,30MonoWAV/30MonoH2.wav,2,2,1,6,,,,,1,1,17,5,0,7,7,1,,,,,,,,,1,0.7361817680066451,,,097,001,2019_Sep_02_1404,MusicAffectPsychophysiology2019,3.0.5,59.87564236257988,
To what extent did the music make you feel ,GUILTY,30MonoWAV/30MonoH2.wav,2,2,1,6,,,,,1,1,17,5,0,8,8,5,,,,,,,,,1,0.6352587749715894,,,097,001,2019_Sep_02_1404,MusicAffectPsychophysiology2019,3.0.5,59.87564236257988,
To what extent did the music make you feel ,SCARED,30MonoWAV/30MonoH2.wav,2,2,1,6,,,,,1,1,17,5,0,9,9,11,,,,,,,,,1,0.6836806510109454,,,097,001,2019_Sep_02_1404,MusicAffectPsychophysiology2019,3.0.5,59.87564236257988,
To what extent did the music make you feel ,HAPPY,30MonoWAV/30MonoH2.wav,2,2,1,6,,,,,1,1,17,5,0,10,10,6,,,,,,,,,3,1.3023890590120573,,,097,001,2019_Sep_02_1404,MusicAffectPsychophysiology2019,3.0.5,59.87564236257988,
To what extent did the music make you feel ,FRUSTRATED,30MonoWAV/30MonoH2.wav,2,2,1,6,,,,,1,1,17,5,0,11,11,3,,,,,,,,,1,1.0571457799815107,,,097,001,2019_Sep_02_1404,MusicAffectPsychophysiology2019,3.0.5,59.87564236257988,
,,30MonoWAV/30MonoH2.wav,2,2,1,6,,,,,1,1,17,5,,,,,,,,,,,,,,,,,097,001,2019_Sep_02_1404,MusicAffectPsychophysiology2019,3.0.5,59.87564236257988,
To what extent did the music make you feel ,FRUSTRATED,30MonoWAV/30MonoT2.wav,2,1,4,14,,,,,1,2,18,13,0,0,0,3,,,3,2.218435527989641,3,0.8859866069979034,3,1.0031493330025114,1,1.1852278370060958,,,097,001,2019_Sep_02_1404,MusicAffectPsychophysiology2019,3.0.5,59.87564236257988,
To what extent did the music make you feel ,SCARED,30MonoWAV/30MonoT2.wav,2,1,4,14,,,,,1,2,18,13,0,1,1,11,,,,,,,,,1,0.5350972189917229,,,097,001,2019_Sep_02_1404,MusicAffectPsychophysiology2019,3.0.5,59.87564236257988,
To what extent did the music make you feel ,SAD,30MonoWAV/30MonoT2.wav,2,1,4,14,,,,,1,2,18,13,0,2,2,0,,,,,,,,,1,0.6183041019830853,,,097,001,2019_Sep_02_1404,MusicAffectPsychophysiology2019,3.0.5,59.87564236257988,
To what extent did the music make you feel ,HAPPY,30MonoWAV/30MonoT2.wav,2,1,4,14,,,,,1,2,18,13,0,3,3,6,,,,,,,,,3,0.9698592190106865,,,097,001,2019_Sep_02_1404,MusicAffectPsychophysiology2019,3.0.5,59.87564236257988,
To what extent did the music make you feel ,EXCITED,30MonoWAV/30MonoT2.wav,2,1,4,14,,,,,1,2,18,13,0,4,4,7,,,,,,,,,4,1.1207662899978459,,,097,001,2019_Sep_02_1404,MusicAffectPsychophysiology2019,3.0.5,59.87564236257988,
To what extent did the music make you feel ,GUILTY,30MonoWAV/30MonoT2.wav,2,1,4,14,,,,,1,2,18,13,0,5,5,5,,,,,,,,,2,1.2164029760169797,,,097,001,2019_Sep_02_1404,MusicAffectPsychophysiology2019,3.0.5,59.87564236257988,
To what extent did the music make you feel ,ALERT,30MonoWAV/30MonoT2.wav,2,1,4,14,,,,,1,2,18,13,0,6,6,8,,,,,,,,,4,1.0689645849925,,,097,001,2019_Sep_02_1404,MusicAffectPsychophysiology2019,3.0.5,59.87564236257988,
To what extent did the music make you feel ,ACTIVE,30MonoWAV/30MonoT2.wav,2,1,4,14,,,,,1,2,18,13,0,7,7,9,,,,,,,,,4,1.2522440349857789,,,097,001,2019_Sep_02_1404,MusicAffectPsychophysiology2019,3.0.5,59.87564236257988,
To what extent did the music make you feel ,ASHAMED,30MonoWAV/30MonoT2.wav,2,1,4,14,,,,,1,2,18,13,0,8,8,4,,,,,,,,,1,0.9022810999886133,,,097,001,2019_Sep_02_1404,MusicAffectPsychophysiology2019,3.0.5,59.87564236257988,
To what extent did the music make you feel ,ANXIOUS ,30MonoWAV/30MonoT2.wav,2,1,4,14,,,,,1,2,18,13,0,9,9,1,,,,,,,,,2,1.552490649977699,,,097,001,2019_Sep_02_1404,MusicAffectPsychophysiology2019,3.0.5,59.87564236257988,
To what extent did the music make you feel ,ANGRY,30MonoWAV/30MonoT2.wav,2,1,4,14,,,,,1,2,18,13,0,10,10,2,,,,,,,,,1,1.0514491960057057,,,097,001,2019_Sep_02_1404,MusicAffectPsychophysiology2019,3.0.5,59.87564236257988,
To what extent did the music make you feel ,TENDER,30MonoWAV/30MonoT2.wav,2,1,4,14,,,,,1,2,18,13,0,11,11,10,,,,,,,,,3,1.21922397200251,,,097,001,2019_Sep_02_1404,MusicAffectPsychophysiology2019,3.0.5,59.87564236257988,
,,30MonoWAV/30MonoT2.wav,2,1,4,14,,,,,1,2,18,13,,,,,,,,,,,,,,,,,097,001,2019_Sep_02_1404,MusicAffectPsychophysiology2019,3.0.5,59.87564236257988,
To what extent did the music make you feel ,ANXIOUS ,30MonoWAV/30MonoS1.wav,1,1,3,9,,,,,1,3,19,8,0,0,0,1,,,1,2.603468087007059,2,0.40307111002039164,2,1.885257752990583,3,3.474919589003548,,,097,001,2019_Sep_02_1404,MusicAffectPsychophysiology2019,3.0.5,59.87564236257988,
To what extent did the music make you feel ,GUILTY,30MonoWAV/30MonoS1.wav,1,1,3,9,,,,,1,3,19,8,0,1,1,5,,,,,,,,,2,0.8690151670016348,,,097,001,2019_Sep_02_1404,MusicAffectPsychophysiology2019,3.0.5,59.87564236257988,
To what extent did the music make you feel ,EXCITED,30MonoWAV/30MonoS1.wav,1,1,3,9,,,,,1,3,19,8,0,2,2,7,,,,,,,,,2,1.086448529997142,,,097,001,2019_Sep_02_1404,MusicAffectPsychophysiology2019,3.0.5,59.87564236257988,
To what extent did the music make you feel ,ACTIVE,30MonoWAV/30MonoS1.wav,1,1,3,9,,,,,1,3,19,8,0,3,3,9,,,,,,,,,2,1.6870568129816093,,,097,001,2019_Sep_02_1404,MusicAffectPsychophysiology2019,3.0.5,59.87564236257988,
To what extent did the music make you feel ,ANGRY,30MonoWAV/30MonoS1.wav,1,1,3,9,,,,,1,3,19,8,0,4,4,2,,,,,,,,,1,1.9022661710041575,,,097,001,2019_Sep_02_1404,MusicAffectPsychophysiology2019,3.0.5,59.87564236257988,
To what extent did the music make you feel ,SCARED,30MonoWAV/30MonoS1.wav,1,1,3,9,,,,,1,3,19,8,0,5,5,11,,,,,,,,,2,0.8924984220066108,,,097,001,2019_Sep_02_1404,MusicAffectPsychophysiology2019,3.0.5,59.87564236257988,
To what extent did the music make you feel ,ASHAMED,30MonoWAV/30MonoS1.wav,1,1,3,9,,,,,1,3,19,8,0,6,6,4,,,,,,,,,3,1.2372789390210528,,,097,001,2019_Sep_02_1404,MusicAffectPsychophysiology2019,3.0.5,59.87564236257988,
To what extent did the music make you feel ,ALERT,30MonoWAV/30MonoS1.wav,1,1,3,9,,,,,1,3,19,8,0,7,7,8,,,,,,,,,2,1.45314662301098,,,097,001,2019_Sep_02_1404,MusicAffectPsychophysiology2019,3.0.5,59.87564236257988,
To what extent did the music make you feel ,FRUSTRATED,30MonoWAV/30MonoS1.wav,1,1,3,9,,,,,1,3,19,8,0,8,8,3,,,,,,,,,3,1.3928641710081138,,,097,001,2019_Sep_02_1404,MusicAffectPsychophysiology2019,3.0.5,59.87564236257988,
To what extent did the music make you feel ,TENDER,30MonoWAV/30MonoS1.wav,1,1,3,9,,,,,1,3,19,8,0,9,9,10,,,,,,,,,2,1.1264076869993005,,,097,001,2019_Sep_02_1404,MusicAffectPsychophysiology2019,3.0.5,59.87564236257988,
To what extent did the music make you feel ,SAD,30MonoWAV/30MonoS1.wav,1,1,3,9,,,,,1,3,19,8,0,10,10,0,,,,,,,,,1,1.4005816340213642,,,097,001,2019_Sep_02_1404,MusicAffectPsychophysiology2019,3.0.5,59.87564236257988,
To what extent did the music make you feel ,HAPPY,30MonoWAV/30MonoS1.wav,1,1,3,9,,,,,1,3,19,8,0,11,11,6,,,,,,,,,1,1.0855558790208306,,,097,001,2019_Sep_02_1404,MusicAffectPsychophysiology2019,3.0.5,59.87564236257988,
,,30MonoWAV/30MonoS1.wav,1,1,3,9,,,,,1,3,19,8,,,,,,,,,,,,,,,,,097,001,2019_Sep_02_1404,MusicAffectPsychophysiology2019,3.0.5,59.87564236257988,
To what extent did the music make you feel ,ANGRY,30MonoWAV/30MonoF3.wav,1,2,2,3,,,,,1,4,20,2,0,0,0,2,,,2,2.436033447011141,1,1.5700952960178256,3,1.2364003870170563,3,1.7205621739849448,,,097,001,2019_Sep_02_1404,MusicAffectPsychophysiology2019,3.0.5,59.87564236257988,
To what extent did the music make you feel ,FRUSTRATED,30MonoWAV/30MonoF3.wav,1,2,2,3,,,,,1,4,20,2,0,1,1,3,,,,,,,,,3,0.9529755100084003,,,097,001,2019_Sep_02_1404,MusicAffectPsychophysiology2019,3.0.5,59.87564236257988,
To what extent did the music make you feel ,ANXIOUS ,30MonoWAV/30MonoF3.wav,1,2,2,3,,,,,1,4,20,2,0,2,2,1,,,,,,,,,3,0.8374436870217323,,,097,001,2019_Sep_02_1404,MusicAffectPsychophysiology2019,3.0.5,59.87564236257988,
To what extent did the music make you feel ,TENDER,30MonoWAV/30MonoF3.wav,1,2,2,3,,,,,1,4,20,2,0,3,3,10,,,,,,,,,2,0.9359557400166523,,,097,001,2019_Sep_02_1404,MusicAffectPsychophysiology2019,3.0.5,59.87564236257988,
To what extent did the music make you feel ,SCARED,30MonoWAV/30MonoF3.wav,1,2,2,3,,,,,1,4,20,2,0,4,4,11,,,,,,,,,3,2.2518921720038634,,,097,001,2019_Sep_02_1404,MusicAffectPsychophysiology2019,3.0.5,59.87564236257988,
To what extent did the music make you feel ,SAD,30MonoWAV/30MonoF3.wav,1,2,2,3,,,,,1,4,20,2,0,5,5,0,,,,,,,,,1,1.7346854849893134,,,097,001,2019_Sep_02_1404,MusicAffectPsychophysiology2019,3.0.5,59.87564236257988,
To what extent did the music make you feel ,ASHAMED,30MonoWAV/30MonoF3.wav,1,2,2,3,,,,,1,4,20,2,0,6,6,4,,,,,,,,,2,1.1869921089964919,,,097,001,2019_Sep_02_1404,MusicAffectPsychophysiology2019,3.0.5,59.87564236257988,
To what extent did the music make you feel ,EXCITED,30MonoWAV/30MonoF3.wav,1,2,2,3,,,,,1,4,20,2,0,7,7,7,,,,,,,,,3,1.0851803890254814,,,097,001,2019_Sep_02_1404,MusicAffectPsychophysiology2019,3.0.5,59.87564236257988,
To what extent did the music make you feel ,HAPPY,30MonoWAV/30MonoF3.wav,1,2,2,3,,,,,1,4,20,2,0,8,8,6,,,,,,,,,2,1.0527559309848584,,,097,001,2019_Sep_02_1404,MusicAffectPsychophysiology2019,3.0.5,59.87564236257988,
To what extent did the music make you feel ,ACTIVE,30MonoWAV/30MonoF3.wav,1,2,2,3,,,,,1,4,20,2,0,9,9,9,,,,,,,,,4,1.1022266990039498,,,097,001,2019_Sep_02_1404,MusicAffectPsychophysiology2019,3.0.5,59.87564236257988,
To what extent did the music make you feel ,GUILTY,30MonoWAV/30MonoF3.wav,1,2,2,3,,,,,1,4,20,2,0,10,10,5,,,,,,,,,4,1.1529524310026318,,,097,001,2019_Sep_02_1404,MusicAffectPsychophysiology2019,3.0.5,59.87564236257988,
To what extent did the music make you feel ,ALERT,30MonoWAV/30MonoF3.wav,1,2,2,3,,,,,1,4,20,2,0,11,11,8,,,,,,,,,3,1.2196840589749627,,,097,001,2019_Sep_02_1404,MusicAffectPsychophysiology2019,3.0.5,59.87564236257988,
,,30MonoWAV/30MonoF3.wav,1,2,2,3,,,,,1,4,20,2,,,,,,,,,,,,,,,,,097,001,2019_Sep_02_1404,MusicAffectPsychophysiology2019,3.0.5,59.87564236257988,
To what extent did the music make you feel ,GUILTY,30MonoWAV/30MonoS2.wav,1,1,3,10,,,,,1,5,21,9,0,0,0,5,,,2,2.4536828300042544,1,0.5188976550125517,1,2.0692410440242384,2,1.5304690649791155,,,097,001,2019_Sep_02_1404,MusicAffectPsychophysiology2019,3.0.5,59.87564236257988,
To what extent did the music make you feel ,HAPPY,30MonoWAV/30MonoS2.wav,1,1,3,10,,,,,1,5,21,9,0,1,1,6,,,,,,,,,1,0.6864702949824277,,,097,001,2019_Sep_02_1404,MusicAffectPsychophysiology2019,3.0.5,59.87564236257988,
To what extent did the music make you feel ,FRUSTRATED,30MonoWAV/30MonoS2.wav,1,1,3,10,,,,,1,5,21,9,0,2,2,3,,,,,,,,,2,0.7641811800131109,,,097,001,2019_Sep_02_1404,MusicAffectPsychophysiology2019,3.0.5,59.87564236257988,
To what extent did the music make you feel ,TENDER,30MonoWAV/30MonoS2.wav,1,1,3,10,,,,,1,5,21,9,0,3,3,10,,,,,,,,,3,0.7482422160101123,,,097,001,2019_Sep_02_1404,MusicAffectPsychophysiology2019,3.0.5,59.87564236257988,
To what extent did the music make you feel ,ACTIVE,30MonoWAV/30MonoS2.wav,1,1,3,10,,,,,1,5,21,9,0,4,4,9,,,,,,,,,1,0.8196962439978961,,,097,001,2019_Sep_02_1404,MusicAffectPsychophysiology2019,3.0.5,59.87564236257988,
To what extent did the music make you feel ,SAD,30MonoWAV/30MonoS2.wav,1,1,3,10,,,,,1,5,21,9,0,5,5,0,,,,,,,,,4,1.719904666999355,,,097,001,2019_Sep_02_1404,MusicAffectPsychophysiology2019,3.0.5,59.87564236257988,
To what extent did the music make you feel ,EXCITED,30MonoWAV/30MonoS2.wav,1,1,3,10,,,,,1,5,21,9,0,6,6,7,,,,,,,,,1,0.9336900429916568,,,097,001,2019_Sep_02_1404,MusicAffectPsychophysiology2019,3.0.5,59.87564236257988,
To what extent did the music make you feel ,ANGRY,30MonoWAV/30MonoS2.wav,1,1,3,10,,,,,1,5,21,9,0,7,7,2,,,,,,,,,2,2.136195833008969,,,097,001,2019_Sep_02_1404,MusicAffectPsychophysiology2019,3.0.5,59.87564236257988,
To what extent did the music make you feel ,ASHAMED,30MonoWAV/30MonoS2.wav,1,1,3,10,,,,,1,5,21,9,0,8,8,4,,,,,,,,,2,5.084134931006702,,,097,001,2019_Sep_02_1404,MusicAffectPsychophysiology2019,3.0.5,59.87564236257988,
To what extent did the music make you feel ,ALERT,30MonoWAV/30MonoS2.wav,1,1,3,10,,,,,1,5,21,9,0,9,9,8,,,,,,,,,2,1.102474032988539,,,097,001,2019_Sep_02_1404,MusicAffectPsychophysiology2019,3.0.5,59.87564236257988,
To what extent did the music make you feel ,ANXIOUS ,30MonoWAV/30MonoS2.wav,1,1,3,10,,,,,1,5,21,9,0,10,10,1,,,,,,,,,2,2.483971161011141,,,097,001,2019_Sep_02_1404,MusicAffectPsychophysiology2019,3.0.5,59.87564236257988,
To what extent did the music make you feel ,SCARED,30MonoWAV/30MonoS2.wav,1,1,3,10,,,,,1,5,21,9,0,11,11,11,,,,,,,,,3,1.5347955760080367,,,097,001,2019_Sep_02_1404,MusicAffectPsychophysiology2019,3.0.5,59.87564236257988,
,,30MonoWAV/30MonoS2.wav,1,1,3,10,,,,,1,5,21,9,,,,,,,,,,,,,,,,,097,001,2019_Sep_02_1404,MusicAffectPsychophysiology2019,3.0.5,59.87564236257988,
To what extent did the music make you feel ,ALERT,30MonoWAV/30MonoF4.wav,1,2,2,4,,,,,1,6,22,3,0,0,0,8,,,3,3.1189692789921537,2,1.7354534379846882,4,1.1193553149932995,4,1.2070986309845466,,,097,001,2019_Sep_02_1404,MusicAffectPsychophysiology2019,3.0.5,59.87564236257988,
To what extent did the music make you feel ,EXCITED,30MonoWAV/30MonoF4.wav,1,2,2,4,,,,,1,6,22,3,0,1,1,7,,,,,,,,,4,0.6191892950155307,,,097,001,2019_Sep_02_1404,MusicAffectPsychophysiology2019,3.0.5,59.87564236257988,
To what extent did the music make you feel ,ANGRY,30MonoWAV/30MonoF4.wav,1,2,2,4,,,,,1,6,22,3,0,2,2,2,,,,,,,,,2,1.2029032629798166,,,097,001,2019_Sep_02_1404,MusicAffectPsychophysiology2019,3.0.5,59.87564236257988,
To what extent did the music make you feel ,SCARED,30MonoWAV/30MonoF4.wav,1,2,2,4,,,,,1,6,22,3,0,3,3,11,,,,,,,,,3,1.415869902994018,,,097,001,2019_Sep_02_1404,MusicAffectPsychophysiology2019,3.0.5,59.87564236257988,
To what extent did the music make you feel ,ACTIVE,30MonoWAV/30MonoF4.wav,1,2,2,4,,,,,1,6,22,3,0,4,4,9,,,,,,,,,5,1.2684477949806023,,,097,001,2019_Sep_02_1404,MusicAffectPsychophysiology2019,3.0.5,59.87564236257988,
To what extent did the music make you feel ,ANXIOUS ,30MonoWAV/30MonoF4.wav,1,2,2,4,,,,,1,6,22,3,0,5,5,1,,,,,,,,,4,1.123159170994768,,,097,001,2019_Sep_02_1404,MusicAffectPsychophysiology2019,3.0.5,59.87564236257988,
To what extent did the music make you feel ,FRUSTRATED,30MonoWAV/30MonoF4.wav,1,2,2,4,,,,,1,6,22,3,0,6,6,3,,,,,,,,,2,1.387595948006492,,,097,001,2019_Sep_02_1404,MusicAffectPsychophysiology2019,3.0.5,59.87564236257988,
To what extent did the music make you feel ,GUILTY,30MonoWAV/30MonoF4.wav,1,2,2,4,,,,,1,6,22,3,0,7,7,5,,,,,,,,,2,1.135201002995018,,,097,001,2019_Sep_02_1404,MusicAffectPsychophysiology2019,3.0.5,59.87564236257988,
To what extent did the music make you feel ,HAPPY,30MonoWAV/30MonoF4.wav,1,2,2,4,,,,,1,6,22,3,0,8,8,6,,,,,,,,,1,0.7994726290053222,,,097,001,2019_Sep_02_1404,MusicAffectPsychophysiology2019,3.0.5,59.87564236257988,
To what extent did the music make you feel ,TENDER,30MonoWAV/30MonoF4.wav,1,2,2,4,,,,,1,6,22,3,0,9,9,10,,,,,,,,,3,1.2023421410121955,,,097,001,2019_Sep_02_1404,MusicAffectPsychophysiology2019,3.0.5,59.87564236257988,
To what extent did the music make you feel ,ASHAMED,30MonoWAV/30MonoF4.wav,1,2,2,4,,,,,1,6,22,3,0,10,10,4,,,,,,,,,1,1.1364998600038234,,,097,001,2019_Sep_02_1404,MusicAffectPsychophysiology2019,3.0.5,59.87564236257988,
To what extent did the music make you feel ,SAD,30MonoWAV/30MonoF4.wav,1,2,2,4,,,,,1,6,22,3,0,11,11,0,,,,,,,,,2,0.6522729680000339,,,097,001,2019_Sep_02_1404,MusicAffectPsychophysiology2019,3.0.5,59.87564236257988,
,,30MonoWAV/30MonoF4.wav,1,2,2,4,,,,,1,6,22,3,,,,,,,,,,,,,,,,,097,001,2019_Sep_02_1404,MusicAffectPsychophysiology2019,3.0.5,59.87564236257988,
To what extent did the music make you feel ,EXCITED,30MonoWAV/30MonoF2.wav,1,2,2,2,,,,,1,7,23,1,0,0,0,7,,,2,3.286342475999845,1,3.601726434979355,2,1.1672479779808782,3,2.2524994749983307,,,097,001,2019_Sep_02_1404,MusicAffectPsychophysiology2019,3.0.5,59.87564236257988,
To what extent did the music make you feel ,SCARED,30MonoWAV/30MonoF2.wav,1,2,2,2,,,,,1,7,23,1,0,1,1,11,,,,,,,,,3,1.0333616520219948,,,097,001,2019_Sep_02_1404,MusicAffectPsychophysiology2019,3.0.5,59.87564236257988,
To what extent did the music make you feel ,HAPPY,30MonoWAV/30MonoF2.wav,1,2,2,2,,,,,1,7,23,1,0,2,2,6,,,,,,,,,1,1.0530651199806016,,,097,001,2019_Sep_02_1404,MusicAffectPsychophysiology2019,3.0.5,59.87564236257988,
To what extent did the music make you feel ,FRUSTRATED,30MonoWAV/30MonoF2.wav,1,2,2,2,,,,,1,7,23,1,0,3,3,3,,,,,,,,,2,1.0828634369827341,,,097,001,2019_Sep_02_1404,MusicAffectPsychophysiology2019,3.0.5,59.87564236257988,
To what extent did the music make you feel ,TENDER,30MonoWAV/30MonoF2.wav,1,2,2,2,,,,,1,7,23,1,0,4,4,10,,,,,,,,,1,1.0379490480117965,,,097,001,2019_Sep_02_1404,MusicAffectPsychophysiology2019,3.0.5,59.87564236257988,
To what extent did the music make you feel ,ASHAMED,30MonoWAV/30MonoF2.wav,1,2,2,2,,,,,1,7,23,1,0,5,5,4,,,,,,,,,1,1.5027860900154337,,,097,001,2019_Sep_02_1404,MusicAffectPsychophysiology2019,3.0.5,59.87564236257988,
To what extent did the music make you feel ,SAD,30MonoWAV/30MonoF2.wav,1,2,2,2,,,,,1,7,23,1,0,6,6,0,,,,,,,,,1,1.1354669159918558,,,097,001,2019_Sep_02_1404,MusicAffectPsychophysiology2019,3.0.5,59.87564236257988,
To what extent did the music make you feel ,GUILTY,30MonoWAV/30MonoF2.wav,1,2,2,2,,,,,1,7,23,1,0,7,7,5,,,,,,,,,2,1.0368921629851684,,,097,001,2019_Sep_02_1404,MusicAffectPsychophysiology2019,3.0.5,59.87564236257988,
To what extent did the music make you feel ,ACTIVE,30MonoWAV/30MonoF2.wav,1,2,2,2,,,,,1,7,23,1,0,8,8,9,,,,,,,,,3,0.900203352997778,,,097,001,2019_Sep_02_1404,MusicAffectPsychophysiology2019,3.0.5,59.87564236257988,
To what extent did the music make you feel ,ANGRY,30MonoWAV/30MonoF2.wav,1,2,2,2,,,,,1,7,23,1,0,9,9,2,,,,,,,,,2,1.6358829690143466,,,097,001,2019_Sep_02_1404,MusicAffectPsychophysiology2019,3.0.5,59.87564236257988,
To what extent did the music make you feel ,ANXIOUS ,30MonoWAV/30MonoF2.wav,1,2,2,2,,,,,1,7,23,1,0,10,10,1,,,,,,,,,5,1.7859589630097616,,,097,001,2019_Sep_02_1404,MusicAffectPsychophysiology2019,3.0.5,59.87564236257988,
To what extent did the music make you feel ,ALERT,30MonoWAV/30MonoF2.wav,1,2,2,2,,,,,1,7,23,1,0,11,11,8,,,,,,,,,4,1.7693612959992606,,,097,001,2019_Sep_02_1404,MusicAffectPsychophysiology2019,3.0.5,59.87564236257988,
,,30MonoWAV/30MonoF2.wav,1,2,2,2,,,,,1,7,23,1,,,,,,,,,,,,,,,,,097,001,2019_Sep_02_1404,MusicAffectPsychophysiology2019,3.0.5,59.87564236257988,
To what extent did the music make you feel ,SAD,30MonoWAV/30MonoH4.wav,2,2,1,8,,,,,1,8,24,7,0,0,0,0,,,5,2.569046663993504,4,0.9683370400161948,4,2.6855477249773685,1,1.2766263690136839,,,097,001,2019_Sep_02_1404,MusicAffectPsychophysiology2019,3.0.5,59.87564236257988,
To what extent did the music make you feel ,FRUSTRATED,30MonoWAV/30MonoH4.wav,2,2,1,8,,,,,1,8,24,7,0,1,1,3,,,,,,,,,1,0.7091850069991779,,,097,001,2019_Sep_02_1404,MusicAffectPsychophysiology2019,3.0.5,59.87564236257988,
To what extent did the music make you feel ,GUILTY,30MonoWAV/30MonoH4.wav,2,2,1,8,,,,,1,8,24,7,0,2,2,5,,,,,,,,,1,0.7201417180185672,,,097,001,2019_Sep_02_1404,MusicAffectPsychophysiology2019,3.0.5,59.87564236257988,
To what extent did the music make you feel ,EXCITED,30MonoWAV/30MonoH4.wav,2,2,1,8,,,,,1,8,24,7,0,3,3,7,,,,,,,,,5,0.9690519210125785,,,097,001,2019_Sep_02_1404,MusicAffectPsychophysiology2019,3.0.5,59.87564236257988,
To what extent did the music make you feel ,HAPPY,30MonoWAV/30MonoH4.wav,2,2,1,8,,,,,1,8,24,7,0,4,4,6,,,,,,,,,5,0.9682098630000837,,,097,001,2019_Sep_02_1404,MusicAffectPsychophysiology2019,3.0.5,59.87564236257988,
To what extent did the music make you feel ,ALERT,30MonoWAV/30MonoH4.wav,2,2,1,8,,,,,1,8,24,7,0,5,5,8,,,,,,,,,4,1.069274740992114,,,097,001,2019_Sep_02_1404,MusicAffectPsychophysiology2019,3.0.5,59.87564236257988,
To what extent did the music make you feel ,SCARED,30MonoWAV/30MonoH4.wav,2,2,1,8,,,,,1,8,24,7,0,6,6,11,,,,,,,,,1,0.8343682080158032,,,097,001,2019_Sep_02_1404,MusicAffectPsychophysiology2019,3.0.5,59.87564236257988,
To what extent did the music make you feel ,ACTIVE,30MonoWAV/30MonoH4.wav,2,2,1,8,,,,,1,8,24,7,0,7,7,9,,,,,,,,,4,0.9675524400081486,,,097,001,2019_Sep_02_1404,MusicAffectPsychophysiology2019,3.0.5,59.87564236257988,
To what extent did the music make you feel ,ANXIOUS ,30MonoWAV/30MonoH4.wav,2,2,1,8,,,,,1,8,24,7,0,8,8,1,,,,,,,,,1,0.8171817799739074,,,097,001,2019_Sep_02_1404,MusicAffectPsychophysiology2019,3.0.5,59.87564236257988,
To what extent did the music make you feel ,ASHAMED,30MonoWAV/30MonoH4.wav,2,2,1,8,,,,,1,8,24,7,0,9,9,4,,,,,,,,,1,0.8852467719989363,,,097,001,2019_Sep_02_1404,MusicAffectPsychophysiology2019,3.0.5,59.87564236257988,
To what extent did the music make you feel ,ANGRY,30MonoWAV/30MonoH4.wav,2,2,1,8,,,,,1,8,24,7,0,10,10,2,,,,,,,,,1,0.820422297983896,,,097,001,2019_Sep_02_1404,MusicAffectPsychophysiology2019,3.0.5,59.87564236257988,
To what extent did the music make you feel ,TENDER,30MonoWAV/30MonoH4.wav,2,2,1,8,,,,,1,8,24,7,0,11,11,10,,,,,,,,,3,0.9855109679920133,,,097,001,2019_Sep_02_1404,MusicAffectPsychophysiology2019,3.0.5,59.87564236257988,
,,30MonoWAV/30MonoH4.wav,2,2,1,8,,,,,1,8,24,7,,,,,,,,,,,,,,,,,097,001,2019_Sep_02_1404,MusicAffectPsychophysiology2019,3.0.5,59.87564236257988,
To what extent did the music make you feel ,TENDER,30MonoWAV/30MonoF1.wav,1,2,2,1,,,,,1,9,25,0,0,0,0,10,,,3,5.069331492995843,2,1.6530192529899068,3,0.9528146650118288,1,1.4539717540028505,,,097,001,2019_Sep_02_1404,MusicAffectPsychophysiology2019,3.0.5,59.87564236257988,
To what extent did the music make you feel ,ALERT,30MonoWAV/30MonoF1.wav,1,2,2,1,,,,,1,9,25,0,0,1,1,8,,,,,,,,,4,1.2189741049951408,,,097,001,2019_Sep_02_1404,MusicAffectPsychophysiology2019,3.0.5,59.87564236257988,
To what extent did the music make you feel ,ANXIOUS ,30MonoWAV/30MonoF1.wav,1,2,2,1,,,,,1,9,25,0,0,2,2,1,,,,,,,,,4,0.6364749889762606,,,097,001,2019_Sep_02_1404,MusicAffectPsychophysiology2019,3.0.5,59.87564236257988,
To what extent did the music make you feel ,ACTIVE,30MonoWAV/30MonoF1.wav,1,2,2,1,,,,,1,9,25,0,0,3,3,9,,,,,,,,,4,0.869607778993668,,,097,001,2019_Sep_02_1404,MusicAffectPsychophysiology2019,3.0.5,59.87564236257988,
To what extent did the music make you feel ,SAD,30MonoWAV/30MonoF1.wav,1,2,2,1,,,,,1,9,25,0,0,4,4,0,,,,,,,,,2,1.1358026630186941,,,097,001,2019_Sep_02_1404,MusicAffectPsychophysiology2019,3.0.5,59.87564236257988,
To what extent did the music make you feel ,ASHAMED,30MonoWAV/30MonoF1.wav,1,2,2,1,,,,,1,9,25,0,0,5,5,4,,,,,,,,,2,0.9699407590087503,,,097,001,2019_Sep_02_1404,MusicAffectPsychophysiology2019,3.0.5,59.87564236257988,
To what extent did the music make you feel ,EXCITED,30MonoWAV/30MonoF1.wav,1,2,2,1,,,,,1,9,25,0,0,6,6,7,,,,,,,,,3,1.1525579199951608,,,097,001,2019_Sep_02_1404,MusicAffectPsychophysiology2019,3.0.5,59.87564236257988,
To what extent did the music make you feel ,GUILTY,30MonoWAV/30MonoF1.wav,1,2,2,1,,,,,1,9,25,0,0,7,7,5,,,,,,,,,1,0.9008835910062771,,,097,001,2019_Sep_02_1404,MusicAffectPsychophysiology2019,3.0.5,59.87564236257988,
To what extent did the music make you feel ,FRUSTRATED,30MonoWAV/30MonoF1.wav,1,2,2,1,,,,,1,9,25,0,0,8,8,3,,,,,,,,,2,1.5368022010079585,,,097,001,2019_Sep_02_1404,MusicAffectPsychophysiology2019,3.0.5,59.87564236257988,
To what extent did the music make you feel ,HAPPY,30MonoWAV/30MonoF1.wav,1,2,2,1,,,,,1,9,25,0,0,9,9,6,,,,,,,,,1,2.7689759760105517,,,097,001,2019_Sep_02_1404,MusicAffectPsychophysiology2019,3.0.5,59.87564236257988,
To what extent did the music make you feel ,ANGRY,30MonoWAV/30MonoF1.wav,1,2,2,1,,,,,1,9,25,0,0,10,10,2,,,,,,,,,3,1.4195357880089432,,,097,001,2019_Sep_02_1404,MusicAffectPsychophysiology2019,3.0.5,59.87564236257988,
To what extent did the music make you feel ,SCARED,30MonoWAV/30MonoF1.wav,1,2,2,1,,,,,1,9,25,0,0,11,11,11,,,,,,,,,2,1.4330999400117435,,,097,001,2019_Sep_02_1404,MusicAffectPsychophysiology2019,3.0.5,59.87564236257988,
,,30MonoWAV/30MonoF1.wav,1,2,2,1,,,,,1,9,25,0,,,,,,,,,,,,,,,,,097,001,2019_Sep_02_1404,MusicAffectPsychophysiology2019,3.0.5,59.87564236257988,
To what extent did the music make you feel ,ASHAMED,30MonoWAV/30MonoT4.wav,2,1,4,16,,,,,1,10,26,15,0,0,0,4,,,2,3.2503232460003346,3,2.3684973630006425,3,1.08476488199085,2,1.4041261770180427,,,097,001,2019_Sep_02_1404,MusicAffectPsychophysiology2019,3.0.5,59.87564236257988,
To what extent did the music make you feel ,ACTIVE,30MonoWAV/30MonoT4.wav,2,1,4,16,,,,,1,10,26,15,0,1,1,9,,,,,,,,,2,1.5800619009824004,,,097,001,2019_Sep_02_1404,MusicAffectPsychophysiology2019,3.0.5,59.87564236257988,
To what extent did the music make you feel ,SAD,30MonoWAV/30MonoT4.wav,2,1,4,16,,,,,1,10,26,15,0,2,2,0,,,,,,,,,2,0.9197523409966379,,,097,001,2019_Sep_02_1404,MusicAffectPsychophysiology2019,3.0.5,59.87564236257988,
To what extent did the music make you feel ,EXCITED,30MonoWAV/30MonoT4.wav,2,1,4,16,,,,,1,10,26,15,0,3,3,7,,,,,,,,,2,1.4017566310067195,,,097,001,2019_Sep_02_1404,MusicAffectPsychophysiology2019,3.0.5,59.87564236257988,
To what extent did the music make you feel ,ANGRY,30MonoWAV/30MonoT4.wav,2,1,4,16,,,,,1,10,26,15,0,4,4,2,,,,,,,,,1,1.3861450490076095,,,097,001,2019_Sep_02_1404,MusicAffectPsychophysiology2019,3.0.5,59.87564236257988,
To what extent did the music make you feel ,TENDER,30MonoWAV/30MonoT4.wav,2,1,4,16,,,,,1,10,26,15,0,5,5,10,,,,,,,,,1,0.8703821699891705,,,097,001,2019_Sep_02_1404,MusicAffectPsychophysiology2019,3.0.5,59.87564236257988,
To what extent did the music make you feel ,GUILTY,30MonoWAV/30MonoT4.wav,2,1,4,16,,,,,1,10,26,15,0,6,6,5,,,,,,,,,1,0.8517977459996473,,,097,001,2019_Sep_02_1404,MusicAffectPsychophysiology2019,3.0.5,59.87564236257988,
To what extent did the music make you feel ,HAPPY,30MonoWAV/30MonoT4.wav,2,1,4,16,,,,,1,10,26,15,0,7,7,6,,,,,,,,,3,1.1692519159987569,,,097,001,2019_Sep_02_1404,MusicAffectPsychophysiology2019,3.0.5,59.87564236257988,
To what extent did the music make you feel ,SCARED,30MonoWAV/30MonoT4.wav,2,1,4,16,,,,,1,10,26,15,0,8,8,11,,,,,,,,,1,1.0788432639965322,,,097,001,2019_Sep_02_1404,MusicAffectPsychophysiology2019,3.0.5,59.87564236257988,
To what extent did the music make you feel ,ALERT,30MonoWAV/30MonoT4.wav,2,1,4,16,,,,,1,10,26,15,0,9,9,8,,,,,,,,,3,1.054949804005446,,,097,001,2019_Sep_02_1404,MusicAffectPsychophysiology2019,3.0.5,59.87564236257988,
To what extent did the music make you feel ,ANXIOUS ,30MonoWAV/30MonoT4.wav,2,1,4,16,,,,,1,10,26,15,0,10,10,1,,,,,,,,,2,1.1004977720149327,,,097,001,2019_Sep_02_1404,MusicAffectPsychophysiology2019,3.0.5,59.87564236257988,
To what extent did the music make you feel ,FRUSTRATED,30MonoWAV/30MonoT4.wav,2,1,4,16,,,,,1,10,26,15,0,11,11,3,,,,,,,,,1,2.768644925003173,,,097,001,2019_Sep_02_1404,MusicAffectPsychophysiology2019,3.0.5,59.87564236257988,
,,30MonoWAV/30MonoT4.wav,2,1,4,16,,,,,1,10,26,15,,,,,,,,,,,,,,,,,097,001,2019_Sep_02_1404,MusicAffectPsychophysiology2019,3.0.5,59.87564236257988,
To what extent did the music make you feel ,TENDER,30MonoWAV/30MonoT1.wav,2,1,4,13,,,,,1,11,27,12,0,0,0,10,,,1,2.636468179000076,2,1.2691247870097868,2,1.3172445799864363,3,1.8903756559884641,,,097,001,2019_Sep_02_1404,MusicAffectPsychophysiology2019,3.0.5,59.87564236257988,
To what extent did the music make you feel ,GUILTY,30MonoWAV/30MonoT1.wav,2,1,4,13,,,,,1,11,27,12,0,1,1,5,,,,,,,,,1,1.2025424400053453,,,097,001,2019_Sep_02_1404,MusicAffectPsychophysiology2019,3.0.5,59.87564236257988,
To what extent did the music make you feel ,SCARED,30MonoWAV/30MonoT1.wav,2,1,4,13,,,,,1,11,27,12,0,2,2,11,,,,,,,,,1,0.6027230960025918,,,097,001,2019_Sep_02_1404,MusicAffectPsychophysiology2019,3.0.5,59.87564236257988,
To what extent did the music make you feel ,EXCITED,30MonoWAV/30MonoT1.wav,2,1,4,13,,,,,1,11,27,12,0,3,3,7,,,,,,,,,1,0.9352911089954432,,,097,001,2019_Sep_02_1404,MusicAffectPsychophysiology2019,3.0.5,59.87564236257988,
To what extent did the music make you feel ,ASHAMED,30MonoWAV/30MonoT1.wav,2,1,4,13,,,,,1,11,27,12,0,4,4,4,,,,,,,,,2,2.6021937710174825,,,097,001,2019_Sep_02_1404,MusicAffectPsychophysiology2019,3.0.5,59.87564236257988,
To what extent did the music make you feel ,ALERT,30MonoWAV/30MonoT1.wav,2,1,4,13,,,,,1,11,27,12,0,5,5,8,,,,,,,,,2,1.71924019799917,,,097,001,2019_Sep_02_1404,MusicAffectPsychophysiology2019,3.0.5,59.87564236257988,
To what extent did the music make you feel ,SAD,30MonoWAV/30MonoT1.wav,2,1,4,13,,,,,1,11,27,12,0,6,6,0,,,,,,,,,2,1.2530064120073803,,,097,001,2019_Sep_02_1404,MusicAffectPsychophysiology2019,3.0.5,59.87564236257988,
To what extent did the music make you feel ,HAPPY,30MonoWAV/30MonoT1.wav,2,1,4,13,,,,,1,11,27,12,0,7,7,6,,,,,,,,,3,1.0024267109984066,,,097,001,2019_Sep_02_1404,MusicAffectPsychophysiology2019,3.0.5,59.87564236257988,
To what extent did the music make you feel ,ANGRY,30MonoWAV/30MonoT1.wav,2,1,4,13,,,,,1,11,27,12,0,8,8,2,,,,,,,,,1,1.7200422000023536,,,097,001,2019_Sep_02_1404,MusicAffectPsychophysiology2019,3.0.5,59.87564236257988,
To what extent did the music make you feel ,ANXIOUS ,30MonoWAV/30MonoT1.wav,2,1,4,13,,,,,1,11,27,12,0,9,9,1,,,,,,,,,2,0.9685892160050571,,,097,001,2019_Sep_02_1404,MusicAffectPsychophysiology2019,3.0.5,59.87564236257988,
To what extent did the music make you feel ,ACTIVE,30MonoWAV/30MonoT1.wav,2,1,4,13,,,,,1,11,27,12,0,10,10,9,,,,,,,,,3,1.070534050988499,,,097,001,2019_Sep_02_1404,MusicAffectPsychophysiology2019,3.0.5,59.87564236257988,
To what extent did the music make you feel ,FRUSTRATED,30MonoWAV/30MonoT1.wav,2,1,4,13,,,,,1,11,27,12,0,11,11,3,,,,,,,,,2,1.2717659949848894,,,097,001,2019_Sep_02_1404,MusicAffectPsychophysiology2019,3.0.5,59.87564236257988,
,,30MonoWAV/30MonoT1.wav,2,1,4,13,,,,,1,11,27,12,,,,,,,,,,,,,,,,,097,001,2019_Sep_02_1404,MusicAffectPsychophysiology2019,3.0.5,59.87564236257988,
To what extent did the music make you feel ,GUILTY,30MonoWAV/30MonoS4.wav,1,1,3,12,,,,,1,12,28,11,0,0,0,5,,,1,2.4025179549935274,1,1.303415442991536,2,0.8860073520045262,3,2.04951821200666,,,097,001,2019_Sep_02_1404,MusicAffectPsychophysiology2019,3.0.5,59.87564236257988,
To what extent did the music make you feel ,ASHAMED,30MonoWAV/30MonoS4.wav,1,1,3,12,,,,,1,12,28,11,0,1,1,4,,,,,,,,,3,0.8364144359948114,,,097,001,2019_Sep_02_1404,MusicAffectPsychophysiology2019,3.0.5,59.87564236257988,
To what extent did the music make you feel ,ANXIOUS ,30MonoWAV/30MonoS4.wav,1,1,3,12,,,,,1,12,28,11,0,2,2,1,,,,,,,,,1,1.8871248989889864,,,097,001,2019_Sep_02_1404,MusicAffectPsychophysiology2019,3.0.5,59.87564236257988,
To what extent did the music make you feel ,EXCITED,30MonoWAV/30MonoS4.wav,1,1,3,12,,,,,1,12,28,11,0,3,3,7,,,,,,,,,1,1.0535510400077328,,,097,001,2019_Sep_02_1404,MusicAffectPsychophysiology2019,3.0.5,59.87564236257988,
To what extent did the music make you feel ,SCARED,30MonoWAV/30MonoS4.wav,1,1,3,12,,,,,1,12,28,11,0,4,4,11,,,,,,,,,2,1.3034672270005103,,,097,001,2019_Sep_02_1404,MusicAffectPsychophysiology2019,3.0.5,59.87564236257988,
To what extent did the music make you feel ,TENDER,30MonoWAV/30MonoS4.wav,1,1,3,12,,,,,1,12,28,11,0,5,5,10,,,,,,,,,2,1.035267699015094,,,097,001,2019_Sep_02_1404,MusicAffectPsychophysiology2019,3.0.5,59.87564236257988,
To what extent did the music make you feel ,ACTIVE,30MonoWAV/30MonoS4.wav,1,1,3,12,,,,,1,12,28,11,0,6,6,9,,,,,,,,,1,1.0522615500085521,,,097,001,2019_Sep_02_1404,MusicAffectPsychophysiology2019,3.0.5,59.87564236257988,
To what extent did the music make you feel ,ALERT,30MonoWAV/30MonoS4.wav,1,1,3,12,,,,,1,12,28,11,0,7,7,8,,,,,,,,,1,1.169636837003054,,,097,001,2019_Sep_02_1404,MusicAffectPsychophysiology2019,3.0.5,59.87564236257988,
To what extent did the music make you feel ,ANGRY,30MonoWAV/30MonoS4.wav,1,1,3,12,,,,,1,12,28,11,0,8,8,2,,,,,,,,,1,0.852634582988685,,,097,001,2019_Sep_02_1404,MusicAffectPsychophysiology2019,3.0.5,59.87564236257988,
To what extent did the music make you feel ,SAD,30MonoWAV/30MonoS4.wav,1,1,3,12,,,,,1,12,28,11,0,9,9,0,,,,,,,,,4,1.3854014500102494,,,097,001,2019_Sep_02_1404,MusicAffectPsychophysiology2019,3.0.5,59.87564236257988,
To what extent did the music make you feel ,FRUSTRATED,30MonoWAV/30MonoS4.wav,1,1,3,12,,,,,1,12,28,11,0,10,10,3,,,,,,,,,3,1.4157029509951826,,,097,001,2019_Sep_02_1404,MusicAffectPsychophysiology2019,3.0.5,59.87564236257988,
To what extent did the music make you feel ,HAPPY,30MonoWAV/30MonoS4.wav,1,1,3,12,,,,,1,12,28,11,0,11,11,6,,,,,,,,,1,1.0196427589980885,,,097,001,2019_Sep_02_1404,MusicAffectPsychophysiology2019,3.0.5,59.87564236257988,
,,30MonoWAV/30MonoS4.wav,1,1,3,12,,,,,1,12,28,11,,,,,,,,,,,,,,,,,097,001,2019_Sep_02_1404,MusicAffectPsychophysiology2019,3.0.5,59.87564236257988,
To what extent did the music make you feel ,ALERT,30MonoWAV/30MonoH1.wav,2,2,1,5,,,,,1,13,29,4,0,0,0,8,,,4,2.519809304008959,3,1.7199865140137263,2,1.0021817249944434,2,1.8104526039969642,,,097,001,2019_Sep_02_1404,MusicAffectPsychophysiology2019,3.0.5,59.87564236257988,
To what extent did the music make you feel ,ANGRY,30MonoWAV/30MonoH1.wav,2,2,1,5,,,,,1,13,29,4,0,1,1,2,,,,,,,,,1,1.2700367660145275,,,097,001,2019_Sep_02_1404,MusicAffectPsychophysiology2019,3.0.5,59.87564236257988,
To what extent did the music make you feel ,TENDER,30MonoWAV/30MonoH1.wav,2,2,1,5,,,,,1,13,29,4,0,2,2,10,,,,,,,,,3,1.1357089040102437,,,097,001,2019_Sep_02_1404,MusicAffectPsychophysiology2019,3.0.5,59.87564236257988,
To what extent did the music make you feel ,ANXIOUS ,30MonoWAV/30MonoH1.wav,2,2,1,5,,,,,1,13,29,4,0,3,3,1,,,,,,,,,2,1.0685239879821893,,,097,001,2019_Sep_02_1404,MusicAffectPsychophysiology2019,3.0.5,59.87564236257988,
To what extent did the music make you feel ,ACTIVE,30MonoWAV/30MonoH1.wav,2,2,1,5,,,,,1,13,29,4,0,4,4,9,,,,,,,,,4,1.4356287569971755,,,097,001,2019_Sep_02_1404,MusicAffectPsychophysiology2019,3.0.5,59.87564236257988,
To what extent did the music make you feel ,ASHAMED,30MonoWAV/30MonoH1.wav,2,2,1,5,,,,,1,13,29,4,0,5,5,4,,,,,,,,,1,1.9355370110133663,,,097,001,2019_Sep_02_1404,MusicAffectPsychophysiology2019,3.0.5,59.87564236257988,
To what extent did the music make you feel ,SCARED,30MonoWAV/30MonoH1.wav,2,2,1,5,,,,,1,13,29,4,0,6,6,11,,,,,,,,,1,0.9497246019891463,,,097,001,2019_Sep_02_1404,MusicAffectPsychophysiology2019,3.0.5,59.87564236257988,
To what extent did the music make you feel ,HAPPY,30MonoWAV/30MonoH1.wav,2,2,1,5,,,,,1,13,29,4,0,7,7,6,,,,,,,,,3,1.3190109379938804,,,097,001,2019_Sep_02_1404,MusicAffectPsychophysiology2019,3.0.5,59.87564236257988,
To what extent did the music make you feel ,SAD,30MonoWAV/30MonoH1.wav,2,2,1,5,,,,,1,13,29,4,0,8,8,0,,,,,,,,,1,1.4856202070077416,,,097,001,2019_Sep_02_1404,MusicAffectPsychophysiology2019,3.0.5,59.87564236257988,
To what extent did the music make you feel ,EXCITED,30MonoWAV/30MonoH1.wav,2,2,1,5,,,,,1,13,29,4,0,9,9,7,,,,,,,,,3,1.403350912994938,,,097,001,2019_Sep_02_1404,MusicAffectPsychophysiology2019,3.0.5,59.87564236257988,
To what extent did the music make you feel ,GUILTY,30MonoWAV/30MonoH1.wav,2,2,1,5,,,,,1,13,29,4,0,10,10,5,,,,,,,,,2,1.3035075340012554,,,097,001,2019_Sep_02_1404,MusicAffectPsychophysiology2019,3.0.5,59.87564236257988,
To what extent did the music make you feel ,FRUSTRATED,30MonoWAV/30MonoH1.wav,2,2,1,5,,,,,1,13,29,4,0,11,11,3,,,,,,,,,1,1.00906549001229,,,097,001,2019_Sep_02_1404,MusicAffectPsychophysiology2019,3.0.5,59.87564236257988,
,,30MonoWAV/30MonoH1.wav,2,2,1,5,,,,,1,13,29,4,,,,,,,,,,,,,,,,,097,001,2019_Sep_02_1404,MusicAffectPsychophysiology2019,3.0.5,59.87564236257988,
To what extent did the music make you feel ,FRUSTRATED,30MonoWAV/30MonoH3.wav,2,2,1,7,,,,,1,14,30,6,0,0,0,3,,,4,3.9032880180166103,3,1.3685452399950009,2,1.4184609460062347,2,2.020513794006547,,,097,001,2019_Sep_02_1404,MusicAffectPsychophysiology2019,3.0.5,59.87564236257988,
To what extent did the music make you feel ,TENDER,30MonoWAV/30MonoH3.wav,2,2,1,7,,,,,1,14,30,6,0,1,1,10,,,,,,,,,2,1.7027781479991972,,,097,001,2019_Sep_02_1404,MusicAffectPsychophysiology2019,3.0.5,59.87564236257988,
To what extent did the music make you feel ,HAPPY,30MonoWAV/30MonoH3.wav,2,2,1,7,,,,,1,14,30,6,0,2,2,6,,,,,,,,,3,1.0358603800123092,,,097,001,2019_Sep_02_1404,MusicAffectPsychophysiology2019,3.0.5,59.87564236257988,
To what extent did the music make you feel ,EXCITED,30MonoWAV/30MonoH3.wav,2,2,1,7,,,,,1,14,30,6,0,3,3,7,,,,,,,,,4,0.9862431279907469,,,097,001,2019_Sep_02_1404,MusicAffectPsychophysiology2019,3.0.5,59.87564236257988,
To what extent did the music make you feel ,SAD,30MonoWAV/30MonoH3.wav,2,2,1,7,,,,,1,14,30,6,0,4,4,0,,,,,,,,,1,1.0693623200058937,,,097,001,2019_Sep_02_1404,MusicAffectPsychophysiology2019,3.0.5,59.87564236257988,
To what extent did the music make you feel ,SCARED,30MonoWAV/30MonoH3.wav,2,2,1,7,,,,,1,14,30,6,0,5,5,11,,,,,,,,,2,1.0188979269878473,,,097,001,2019_Sep_02_1404,MusicAffectPsychophysiology2019,3.0.5,59.87564236257988,
To what extent did the music make you feel ,ANGRY,30MonoWAV/30MonoH3.wav,2,2,1,7,,,,,1,14,30,6,0,6,6,2,,,,,,,,,3,1.6856579440063797,,,097,001,2019_Sep_02_1404,MusicAffectPsychophysiology2019,3.0.5,59.87564236257988,
To what extent did the music make you feel ,ASHAMED,30MonoWAV/30MonoH3.wav,2,2,1,7,,,,,1,14,30,6,0,7,7,4,,,,,,,,,2,1.2526512929762248,,,097,001,2019_Sep_02_1404,MusicAffectPsychophysiology2019,3.0.5,59.87564236257988,
To what extent did the music make you feel ,ACTIVE,30MonoWAV/30MonoH3.wav,2,2,1,7,,,,,1,14,30,6,0,8,8,9,,,,,,,,,4,1.501929897989612,,,097,001,2019_Sep_02_1404,MusicAffectPsychophysiology2019,3.0.5,59.87564236257988,
To what extent did the music make you feel ,ALERT,30MonoWAV/30MonoH3.wav,2,2,1,7,,,,,1,14,30,6,0,9,9,8,,,,,,,,,4,0.9696424109861255,,,097,001,2019_Sep_02_1404,MusicAffectPsychophysiology2019,3.0.5,59.87564236257988,
To what extent did the music make you feel ,ANXIOUS ,30MonoWAV/30MonoH3.wav,2,2,1,7,,,,,1,14,30,6,0,10,10,1,,,,,,,,,2,2.052199922996806,,,097,001,2019_Sep_02_1404,MusicAffectPsychophysiology2019,3.0.5,59.87564236257988,
To what extent did the music make you feel ,GUILTY,30MonoWAV/30MonoH3.wav,2,2,1,7,,,,,1,14,30,6,0,11,11,5,,,,,,,,,1,0.9025956029945519,,,097,001,2019_Sep_02_1404,MusicAffectPsychophysiology2019,3.0.5,59.87564236257988,
,,30MonoWAV/30MonoH3.wav,2,2,1,7,,,,,1,14,30,6,,,,,,,,,,,,,,,,,097,001,2019_Sep_02_1404,MusicAffectPsychophysiology2019,3.0.5,59.87564236257988,
To what extent did the music make you feel ,ANGRY,30MonoWAV/30MonoT3.wav,2,1,4,15,,,,,1,15,31,14,0,0,0,2,,,1,2.904749309003819,2,0.7190049139899202,2,0.9863178210216574,1,1.5186866500007454,,,097,001,2019_Sep_02_1404,MusicAffectPsychophysiology2019,3.0.5,59.87564236257988,
To what extent did the music make you feel ,SAD,30MonoWAV/30MonoT3.wav,2,1,4,15,,,,,1,15,31,14,0,1,1,0,,,,,,,,,2,0.9357206579879858,,,097,001,2019_Sep_02_1404,MusicAffectPsychophysiology2019,3.0.5,59.87564236257988,
To what extent did the music make you feel ,ACTIVE,30MonoWAV/30MonoT3.wav,2,1,4,15,,,,,1,15,31,14,0,2,2,9,,,,,,,,,2,1.0533106900111306,,,097,001,2019_Sep_02_1404,MusicAffectPsychophysiology2019,3.0.5,59.87564236257988,
To what extent did the music make you feel ,EXCITED,30MonoWAV/30MonoT3.wav,2,1,4,15,,,,,1,15,31,14,0,3,3,7,,,,,,,,,2,1.5851554880209733,,,097,001,2019_Sep_02_1404,MusicAffectPsychophysiology2019,3.0.5,59.87564236257988,
To what extent did the music make you feel ,SCARED,30MonoWAV/30MonoT3.wav,2,1,4,15,,,,,1,15,31,14,0,4,4,11,,,,,,,,,3,0.9687185329967178,,,097,001,2019_Sep_02_1404,MusicAffectPsychophysiology2019,3.0.5,59.87564236257988,
To what extent did the music make you feel ,ANXIOUS ,30MonoWAV/30MonoT3.wav,2,1,4,15,,,,,1,15,31,14,0,5,5,1,,,,,,,,,3,1.0019354200048838,,,097,001,2019_Sep_02_1404,MusicAffectPsychophysiology2019,3.0.5,59.87564236257988,
To what extent did the music make you feel ,ASHAMED,30MonoWAV/30MonoT3.wav,2,1,4,15,,,,,1,15,31,14,0,6,6,4,,,,,,,,,3,1.3700353499734774,,,097,001,2019_Sep_02_1404,MusicAffectPsychophysiology2019,3.0.5,59.87564236257988,
To what extent did the music make you feel ,TENDER,30MonoWAV/30MonoT3.wav,2,1,4,15,,,,,1,15,31,14,0,7,7,10,,,,,,,,,2,1.578024871996604,,,097,001,2019_Sep_02_1404,MusicAffectPsychophysiology2019,3.0.5,59.87564236257988,
To what extent did the music make you feel ,GUILTY,30MonoWAV/30MonoT3.wav,2,1,4,15,,,,,1,15,31,14,0,8,8,5,,,,,,,,,2,1.1037771440169308,,,097,001,2019_Sep_02_1404,MusicAffectPsychophysiology2019,3.0.5,59.87564236257988,
To what extent did the music make you feel ,ALERT,30MonoWAV/30MonoT3.wav,2,1,4,15,,,,,1,15,31,14,0,9,9,8,,,,,,,,,1,1.3526968560181558,,,097,001,2019_Sep_02_1404,MusicAffectPsychophysiology2019,3.0.5,59.87564236257988,
To what extent did the music make you feel ,HAPPY,30MonoWAV/30MonoT3.wav,2,1,4,15,,,,,1,15,31,14,0,10,10,6,,,,,,,,,1,1.1863197670027148,,,097,001,2019_Sep_02_1404,MusicAffectPsychophysiology2019,3.0.5,59.87564236257988,
To what extent did the music make you feel ,FRUSTRATED,30MonoWAV/30MonoT3.wav,2,1,4,15,,,,,1,15,31,14,0,11,11,3,,,,,,,,,2,1.5777472530025989,,,097,001,2019_Sep_02_1404,MusicAffectPsychophysiology2019,3.0.5,59.87564236257988,
,,30MonoWAV/30MonoT3.wav,2,1,4,15,,,,,1,15,31,14,,,,,,,,,,,,,,,,,097,001,2019_Sep_02_1404,MusicAffectPsychophysiology2019,3.0.5,59.87564236257988,
,,,,,,,,,,,,,,,,,,,,,,,,,,,,,space,6.176425103010843,097,001,2019_Sep_02_1404,MusicAffectPsychophysiology2019,3.0.5,59.87564236257988,
