Instruction,Word,song,valence,arousal,affectcat,songmark,pracwords.thisRepN,pracwords.thisTrialN,pracwords.thisN,pracwords.thisIndex,songtrials.thisRepN,songtrials.thisTrialN,songtrials.thisN,songtrials.thisIndex,words.thisRepN,words.thisTrialN,words.thisN,words.thisIndex,begin.keys,begin.rt,arousalkey.keys,arousalkey.rt,valencekey.keys,valencekey.rt,likekey.keys,likekey.rt,WordResponse.keys,WordResponse.rt,key_resp_2.keys,key_resp_2.rt,participant,session,date,expName,psychopyVersion,frameRate,
,,,,,,,,,,,,,,,,,,,space,11.723982013994828,,,,,,,,,,,098,001,2019_Sep_03_1106,MusicAffectPsychophysiology2019,3.0.5,59.95606958110226,
,,,,,,,,,,,,,,,,,,,,,3,9.118580691021634,,,,,,,,,098,001,2019_Sep_03_1106,MusicAffectPsychophysiology2019,3.0.5,59.95606958110226,
,,,,,,,,,,,,,,,,,,,,,,,4,7.368888432014501,,,,,,,098,001,2019_Sep_03_1106,MusicAffectPsychophysiology2019,3.0.5,59.95606958110226,
,,,,,,,,,,,,,,,,,,,,,,,,,4,3.4858861380198505,,,,,098,001,2019_Sep_03_1106,MusicAffectPsychophysiology2019,3.0.5,59.95606958110226,
To what extent did the music make you feel ,ANXIOUS ,,,,,,0,0,0,1,,,,,,,,,,,,,,,,,1,5.809973074006848,,,098,001,2019_Sep_03_1106,MusicAffectPsychophysiology2019,3.0.5,59.95606958110226,
To what extent did the music make you feel ,ACTIVE,,,,,,0,1,1,9,,,,,,,,,,,,,,,,,3,5.577805574983358,,,098,001,2019_Sep_03_1106,MusicAffectPsychophysiology2019,3.0.5,59.95606958110226,
To what extent did the music make you feel ,FRUSTRATED,,,,,,0,2,2,3,,,,,,,,,,,,,,,,,1,2.2903329569962807,,,098,001,2019_Sep_03_1106,MusicAffectPsychophysiology2019,3.0.5,59.95606958110226,
To what extent did the music make you feel ,TENDER,,,,,,0,3,3,10,,,,,,,,,,,,,,,,,2,2.683491578005487,,,098,001,2019_Sep_03_1106,MusicAffectPsychophysiology2019,3.0.5,59.95606958110226,
To what extent did the music make you feel ,GUILTY,,,,,,0,4,4,5,,,,,,,,,,,,,,,,,1,2.3689651430177037,,,098,001,2019_Sep_03_1106,MusicAffectPsychophysiology2019,3.0.5,59.95606958110226,
To what extent did the music make you feel ,SAD,,,,,,0,5,5,0,,,,,,,,,,,,,,,,,1,1.2189721909817308,,,098,001,2019_Sep_03_1106,MusicAffectPsychophysiology2019,3.0.5,59.95606958110226,
To what extent did the music make you feel ,ASHAMED,,,,,,0,6,6,4,,,,,,,,,,,,,,,,,1,0.9691557610058226,,,098,001,2019_Sep_03_1106,MusicAffectPsychophysiology2019,3.0.5,59.95606958110226,
To what extent did the music make you feel ,ALERT,,,,,,0,7,7,8,,,,,,,,,,,,,,,,,4,3.351496375980787,,,098,001,2019_Sep_03_1106,MusicAffectPsychophysiology2019,3.0.5,59.95606958110226,
To what extent did the music make you feel ,ANGRY,,,,,,0,8,8,2,,,,,,,,,,,,,,,,,1,2.0199657840130385,,,098,001,2019_Sep_03_1106,MusicAffectPsychophysiology2019,3.0.5,59.95606958110226,
To what extent did the music make you feel ,SCARED,,,,,,0,9,9,11,,,,,,,,,,,,,,,,,1,0.9746859850129113,,,098,001,2019_Sep_03_1106,MusicAffectPsychophysiology2019,3.0.5,59.95606958110226,
To what extent did the music make you feel ,HAPPY,,,,,,0,10,10,6,,,,,,,,,,,,,,,,,3,2.868235941976309,,,098,001,2019_Sep_03_1106,MusicAffectPsychophysiology2019,3.0.5,59.95606958110226,
To what extent did the music make you feel ,EXCITED,,,,,,0,11,11,7,,,,,,,,,,,,,,,,,4,1.7529122229898348,,,098,001,2019_Sep_03_1106,MusicAffectPsychophysiology2019,3.0.5,59.95606958110226,
To what extent did the music make you feel ,GUILTY,30MonoWAV/30MonoS4.wav,1,1,3,12,,,,,0,0,0,11,0,0,0,5,,,1,4.36817216797499,2,4.436300529021537,2,2.9534497790155,2,4.417764784011524,,,098,001,2019_Sep_03_1106,MusicAffectPsychophysiology2019,3.0.5,59.95606958110226,
To what extent did the music make you feel ,SAD,30MonoWAV/30MonoS4.wav,1,1,3,12,,,,,0,0,0,11,0,1,1,0,,,,,,,,,2,0.9509544860047754,,,098,001,2019_Sep_03_1106,MusicAffectPsychophysiology2019,3.0.5,59.95606958110226,
To what extent did the music make you feel ,ANXIOUS ,30MonoWAV/30MonoS4.wav,1,1,3,12,,,,,0,0,0,11,0,2,2,1,,,,,,,,,1,1.2198845790117048,,,098,001,2019_Sep_03_1106,MusicAffectPsychophysiology2019,3.0.5,59.95606958110226,
To what extent did the music make you feel ,ANGRY,30MonoWAV/30MonoS4.wav,1,1,3,12,,,,,0,0,0,11,0,3,3,2,,,,,,,,,1,1.1852897389908321,,,098,001,2019_Sep_03_1106,MusicAffectPsychophysiology2019,3.0.5,59.95606958110226,
To what extent did the music make you feel ,SCARED,30MonoWAV/30MonoS4.wav,1,1,3,12,,,,,0,0,0,11,0,4,4,11,,,,,,,,,1,1.3029881159891374,,,098,001,2019_Sep_03_1106,MusicAffectPsychophysiology2019,3.0.5,59.95606958110226,
To what extent did the music make you feel ,TENDER,30MonoWAV/30MonoS4.wav,1,1,3,12,,,,,0,0,0,11,0,5,5,10,,,,,,,,,3,2.2358819670043886,,,098,001,2019_Sep_03_1106,MusicAffectPsychophysiology2019,3.0.5,59.95606958110226,
To what extent did the music make you feel ,HAPPY,30MonoWAV/30MonoS4.wav,1,1,3,12,,,,,0,0,0,11,0,6,6,6,,,,,,,,,2,1.4521838020009454,,,098,001,2019_Sep_03_1106,MusicAffectPsychophysiology2019,3.0.5,59.95606958110226,
To what extent did the music make you feel ,ACTIVE,30MonoWAV/30MonoS4.wav,1,1,3,12,,,,,0,0,0,11,0,7,7,9,,,,,,,,,1,4.752481217001332,,,098,001,2019_Sep_03_1106,MusicAffectPsychophysiology2019,3.0.5,59.95606958110226,
To what extent did the music make you feel ,EXCITED,30MonoWAV/30MonoS4.wav,1,1,3,12,,,,,0,0,0,11,0,8,8,7,,,,,,,,,1,1.3693168720055837,,,098,001,2019_Sep_03_1106,MusicAffectPsychophysiology2019,3.0.5,59.95606958110226,
To what extent did the music make you feel ,FRUSTRATED,30MonoWAV/30MonoS4.wav,1,1,3,12,,,,,0,0,0,11,0,9,9,3,,,,,,,,,1,1.5868002679781057,,,098,001,2019_Sep_03_1106,MusicAffectPsychophysiology2019,3.0.5,59.95606958110226,
To what extent did the music make you feel ,ASHAMED,30MonoWAV/30MonoS4.wav,1,1,3,12,,,,,0,0,0,11,0,10,10,4,,,,,,,,,1,1.6358676719828509,,,098,001,2019_Sep_03_1106,MusicAffectPsychophysiology2019,3.0.5,59.95606958110226,
To what extent did the music make you feel ,ALERT,30MonoWAV/30MonoS4.wav,1,1,3,12,,,,,0,0,0,11,0,11,11,8,,,,,,,,,1,2.0363282899779733,,,098,001,2019_Sep_03_1106,MusicAffectPsychophysiology2019,3.0.5,59.95606958110226,
,,30MonoWAV/30MonoS4.wav,1,1,3,12,,,,,0,0,0,11,,,,,,,,,,,,,,,,,098,001,2019_Sep_03_1106,MusicAffectPsychophysiology2019,3.0.5,59.95606958110226,
To what extent did the music make you feel ,TENDER,30MonoWAV/30MonoH3.wav,2,2,1,7,,,,,0,1,1,6,0,0,0,10,,,4,5.868409785005497,4,2.0364243449876085,4,2.8503476319892798,1,2.510542202013312,,,098,001,2019_Sep_03_1106,MusicAffectPsychophysiology2019,3.0.5,59.95606958110226,
To what extent did the music make you feel ,ANXIOUS ,30MonoWAV/30MonoH3.wav,2,2,1,7,,,,,0,1,1,6,0,1,1,1,,,,,,,,,1,1.1520552080182824,,,098,001,2019_Sep_03_1106,MusicAffectPsychophysiology2019,3.0.5,59.95606958110226,
To what extent did the music make you feel ,ALERT,30MonoWAV/30MonoH3.wav,2,2,1,7,,,,,0,1,1,6,0,2,2,8,,,,,,,,,4,2.498867046000669,,,098,001,2019_Sep_03_1106,MusicAffectPsychophysiology2019,3.0.5,59.95606958110226,
To what extent did the music make you feel ,GUILTY,30MonoWAV/30MonoH3.wav,2,2,1,7,,,,,0,1,1,6,0,3,3,5,,,,,,,,,1,1.152662369015161,,,098,001,2019_Sep_03_1106,MusicAffectPsychophysiology2019,3.0.5,59.95606958110226,
To what extent did the music make you feel ,ANGRY,30MonoWAV/30MonoH3.wav,2,2,1,7,,,,,0,1,1,6,0,4,4,2,,,,,,,,,1,1.169348383002216,,,098,001,2019_Sep_03_1106,MusicAffectPsychophysiology2019,3.0.5,59.95606958110226,
To what extent did the music make you feel ,HAPPY,30MonoWAV/30MonoH3.wav,2,2,1,7,,,,,0,1,1,6,0,5,5,6,,,,,,,,,4,1.935992327023996,,,098,001,2019_Sep_03_1106,MusicAffectPsychophysiology2019,3.0.5,59.95606958110226,
To what extent did the music make you feel ,SCARED,30MonoWAV/30MonoH3.wav,2,2,1,7,,,,,0,1,1,6,0,6,6,11,,,,,,,,,1,2.1691865080210846,,,098,001,2019_Sep_03_1106,MusicAffectPsychophysiology2019,3.0.5,59.95606958110226,
To what extent did the music make you feel ,ASHAMED,30MonoWAV/30MonoH3.wav,2,2,1,7,,,,,0,1,1,6,0,7,7,4,,,,,,,,,1,2.9659383870020974,,,098,001,2019_Sep_03_1106,MusicAffectPsychophysiology2019,3.0.5,59.95606958110226,
To what extent did the music make you feel ,EXCITED,30MonoWAV/30MonoH3.wav,2,2,1,7,,,,,0,1,1,6,0,8,8,7,,,,,,,,,4,2.1867319620214403,,,098,001,2019_Sep_03_1106,MusicAffectPsychophysiology2019,3.0.5,59.95606958110226,
To what extent did the music make you feel ,SAD,30MonoWAV/30MonoH3.wav,2,2,1,7,,,,,0,1,1,6,0,9,9,0,,,,,,,,,1,1.6524882650119253,,,098,001,2019_Sep_03_1106,MusicAffectPsychophysiology2019,3.0.5,59.95606958110226,
To what extent did the music make you feel ,FRUSTRATED,30MonoWAV/30MonoH3.wav,2,2,1,7,,,,,0,1,1,6,0,10,10,3,,,,,,,,,1,1.04257353398134,,,098,001,2019_Sep_03_1106,MusicAffectPsychophysiology2019,3.0.5,59.95606958110226,
To what extent did the music make you feel ,ACTIVE,30MonoWAV/30MonoH3.wav,2,2,1,7,,,,,0,1,1,6,0,11,11,9,,,,,,,,,5,2.569587898993632,,,098,001,2019_Sep_03_1106,MusicAffectPsychophysiology2019,3.0.5,59.95606958110226,
,,30MonoWAV/30MonoH3.wav,2,2,1,7,,,,,0,1,1,6,,,,,,,,,,,,,,,,,098,001,2019_Sep_03_1106,MusicAffectPsychophysiology2019,3.0.5,59.95606958110226,
To what extent did the music make you feel ,EXCITED,30MonoWAV/30MonoS1.wav,1,1,3,9,,,,,0,2,2,8,0,0,0,7,,,1,3.268989459000295,1,2.4195843680063263,3,2.454132311977446,1,2.8517819750122726,,,098,001,2019_Sep_03_1106,MusicAffectPsychophysiology2019,3.0.5,59.95606958110226,
To what extent did the music make you feel ,ANGRY,30MonoWAV/30MonoS1.wav,1,1,3,9,,,,,0,2,2,8,0,1,1,2,,,,,,,,,1,1.485411011002725,,,098,001,2019_Sep_03_1106,MusicAffectPsychophysiology2019,3.0.5,59.95606958110226,
To what extent did the music make you feel ,TENDER,30MonoWAV/30MonoS1.wav,1,1,3,9,,,,,0,2,2,8,0,2,2,10,,,,,,,,,3,1.7193518690182827,,,098,001,2019_Sep_03_1106,MusicAffectPsychophysiology2019,3.0.5,59.95606958110226,
To what extent did the music make you feel ,ACTIVE,30MonoWAV/30MonoS1.wav,1,1,3,9,,,,,0,2,2,8,0,3,3,9,,,,,,,,,1,1.5023388529953081,,,098,001,2019_Sep_03_1106,MusicAffectPsychophysiology2019,3.0.5,59.95606958110226,
To what extent did the music make you feel ,HAPPY,30MonoWAV/30MonoS1.wav,1,1,3,9,,,,,0,2,2,8,0,4,4,6,,,,,,,,,2,2.5683282609970775,,,098,001,2019_Sep_03_1106,MusicAffectPsychophysiology2019,3.0.5,59.95606958110226,
To what extent did the music make you feel ,SCARED,30MonoWAV/30MonoS1.wav,1,1,3,9,,,,,0,2,2,8,0,5,5,11,,,,,,,,,1,1.2355273090070114,,,098,001,2019_Sep_03_1106,MusicAffectPsychophysiology2019,3.0.5,59.95606958110226,
To what extent did the music make you feel ,ASHAMED,30MonoWAV/30MonoS1.wav,1,1,3,9,,,,,0,2,2,8,0,6,6,4,,,,,,,,,1,1.0857280470081605,,,098,001,2019_Sep_03_1106,MusicAffectPsychophysiology2019,3.0.5,59.95606958110226,
To what extent did the music make you feel ,SAD,30MonoWAV/30MonoS1.wav,1,1,3,9,,,,,0,2,2,8,0,7,7,0,,,,,,,,,3,3.284589335002238,,,098,001,2019_Sep_03_1106,MusicAffectPsychophysiology2019,3.0.5,59.95606958110226,
To what extent did the music make you feel ,FRUSTRATED,30MonoWAV/30MonoS1.wav,1,1,3,9,,,,,0,2,2,8,0,8,8,3,,,,,,,,,1,2.2694491430011112,,,098,001,2019_Sep_03_1106,MusicAffectPsychophysiology2019,3.0.5,59.95606958110226,
To what extent did the music make you feel ,GUILTY,30MonoWAV/30MonoS1.wav,1,1,3,9,,,,,0,2,2,8,0,9,9,5,,,,,,,,,1,1.2025911569944583,,,098,001,2019_Sep_03_1106,MusicAffectPsychophysiology2019,3.0.5,59.95606958110226,
To what extent did the music make you feel ,ANXIOUS ,30MonoWAV/30MonoS1.wav,1,1,3,9,,,,,0,2,2,8,0,10,10,1,,,,,,,,,1,3.4833940980024636,,,098,001,2019_Sep_03_1106,MusicAffectPsychophysiology2019,3.0.5,59.95606958110226,
To what extent did the music make you feel ,ALERT,30MonoWAV/30MonoS1.wav,1,1,3,9,,,,,0,2,2,8,0,11,11,8,,,,,,,,,1,1.552346483018482,,,098,001,2019_Sep_03_1106,MusicAffectPsychophysiology2019,3.0.5,59.95606958110226,
,,30MonoWAV/30MonoS1.wav,1,1,3,9,,,,,0,2,2,8,,,,,,,,,,,,,,,,,098,001,2019_Sep_03_1106,MusicAffectPsychophysiology2019,3.0.5,59.95606958110226,
To what extent did the music make you feel ,ACTIVE,30MonoWAV/30MonoH2.wav,2,2,1,6,,,,,0,3,3,5,0,0,0,9,,,3,3.500620740989689,3,2.1191810960008297,3,1.7692386860144325,4,3.3442951510078274,,,098,001,2019_Sep_03_1106,MusicAffectPsychophysiology2019,3.0.5,59.95606958110226,
To what extent did the music make you feel ,GUILTY,30MonoWAV/30MonoH2.wav,2,2,1,6,,,,,0,3,3,5,0,1,1,5,,,,,,,,,1,1.3214177379850298,,,098,001,2019_Sep_03_1106,MusicAffectPsychophysiology2019,3.0.5,59.95606958110226,
To what extent did the music make you feel ,EXCITED,30MonoWAV/30MonoH2.wav,2,2,1,6,,,,,0,3,3,5,0,2,2,7,,,,,,,,,3,1.4787593010114506,,,098,001,2019_Sep_03_1106,MusicAffectPsychophysiology2019,3.0.5,59.95606958110226,
To what extent did the music make you feel ,ANXIOUS ,30MonoWAV/30MonoH2.wav,2,2,1,6,,,,,0,3,3,5,0,3,3,1,,,,,,,,,1,1.4112716279923916,,,098,001,2019_Sep_03_1106,MusicAffectPsychophysiology2019,3.0.5,59.95606958110226,
To what extent did the music make you feel ,ANGRY,30MonoWAV/30MonoH2.wav,2,2,1,6,,,,,0,3,3,5,0,4,4,2,,,,,,,,,1,0.6023347210139036,,,098,001,2019_Sep_03_1106,MusicAffectPsychophysiology2019,3.0.5,59.95606958110226,
To what extent did the music make you feel ,SCARED,30MonoWAV/30MonoH2.wav,2,2,1,6,,,,,0,3,3,5,0,5,5,11,,,,,,,,,1,0.6359041449904907,,,098,001,2019_Sep_03_1106,MusicAffectPsychophysiology2019,3.0.5,59.95606958110226,
To what extent did the music make you feel ,HAPPY,30MonoWAV/30MonoH2.wav,2,2,1,6,,,,,0,3,3,5,0,6,6,6,,,,,,,,,4,2.0849507930106483,,,098,001,2019_Sep_03_1106,MusicAffectPsychophysiology2019,3.0.5,59.95606958110226,
To what extent did the music make you feel ,FRUSTRATED,30MonoWAV/30MonoH2.wav,2,2,1,6,,,,,0,3,3,5,0,7,7,3,,,,,,,,,1,1.8852272249932867,,,098,001,2019_Sep_03_1106,MusicAffectPsychophysiology2019,3.0.5,59.95606958110226,
To what extent did the music make you feel ,TENDER,30MonoWAV/30MonoH2.wav,2,2,1,6,,,,,0,3,3,5,0,8,8,10,,,,,,,,,2,1.3028493910096586,,,098,001,2019_Sep_03_1106,MusicAffectPsychophysiology2019,3.0.5,59.95606958110226,
To what extent did the music make you feel ,ASHAMED,30MonoWAV/30MonoH2.wav,2,2,1,6,,,,,0,3,3,5,0,9,9,4,,,,,,,,,1,0.8276860879850574,,,098,001,2019_Sep_03_1106,MusicAffectPsychophysiology2019,3.0.5,59.95606958110226,
To what extent did the music make you feel ,ALERT,30MonoWAV/30MonoH2.wav,2,2,1,6,,,,,0,3,3,5,0,10,10,8,,,,,,,,,4,1.9685547219996806,,,098,001,2019_Sep_03_1106,MusicAffectPsychophysiology2019,3.0.5,59.95606958110226,
To what extent did the music make you feel ,SAD,30MonoWAV/30MonoH2.wav,2,2,1,6,,,,,0,3,3,5,0,11,11,0,,,,,,,,,1,1.6524830480047967,,,098,001,2019_Sep_03_1106,MusicAffectPsychophysiology2019,3.0.5,59.95606958110226,
,,30MonoWAV/30MonoH2.wav,2,2,1,6,,,,,0,3,3,5,,,,,,,,,,,,,,,,,098,001,2019_Sep_03_1106,MusicAffectPsychophysiology2019,3.0.5,59.95606958110226,
To what extent did the music make you feel ,ACTIVE,30MonoWAV/30MonoS3.wav,1,1,3,11,,,,,0,4,4,10,0,0,0,9,,,2,2.9527949370094575,2,2.2178971839894075,2,1.3018966329982504,1,3.2540797289984766,,,098,001,2019_Sep_03_1106,MusicAffectPsychophysiology2019,3.0.5,59.95606958110226,
To what extent did the music make you feel ,SCARED,30MonoWAV/30MonoS3.wav,1,1,3,11,,,,,0,4,4,10,0,1,1,11,,,,,,,,,1,0.9691175929910969,,,098,001,2019_Sep_03_1106,MusicAffectPsychophysiology2019,3.0.5,59.95606958110226,
To what extent did the music make you feel ,ANGRY,30MonoWAV/30MonoS3.wav,1,1,3,11,,,,,0,4,4,10,0,2,2,2,,,,,,,,,1,0.618132062983932,,,098,001,2019_Sep_03_1106,MusicAffectPsychophysiology2019,3.0.5,59.95606958110226,
To what extent did the music make you feel ,ANXIOUS ,30MonoWAV/30MonoS3.wav,1,1,3,11,,,,,0,4,4,10,0,3,3,1,,,,,,,,,1,2.4683063350094017,,,098,001,2019_Sep_03_1106,MusicAffectPsychophysiology2019,3.0.5,59.95606958110226,
To what extent did the music make you feel ,EXCITED,30MonoWAV/30MonoS3.wav,1,1,3,11,,,,,0,4,4,10,0,4,4,7,,,,,,,,,1,1.5521169060084503,,,098,001,2019_Sep_03_1106,MusicAffectPsychophysiology2019,3.0.5,59.95606958110226,
To what extent did the music make you feel ,HAPPY,30MonoWAV/30MonoS3.wav,1,1,3,11,,,,,0,4,4,10,0,5,5,6,,,,,,,,,1,3.502794354018988,,,098,001,2019_Sep_03_1106,MusicAffectPsychophysiology2019,3.0.5,59.95606958110226,
To what extent did the music make you feel ,TENDER,30MonoWAV/30MonoS3.wav,1,1,3,11,,,,,0,4,4,10,0,6,6,10,,,,,,,,,2,1.219077936024405,,,098,001,2019_Sep_03_1106,MusicAffectPsychophysiology2019,3.0.5,59.95606958110226,
To what extent did the music make you feel ,ASHAMED,30MonoWAV/30MonoS3.wav,1,1,3,11,,,,,0,4,4,10,0,7,7,4,,,,,,,,,1,0.9013814060017467,,,098,001,2019_Sep_03_1106,MusicAffectPsychophysiology2019,3.0.5,59.95606958110226,
To what extent did the music make you feel ,SAD,30MonoWAV/30MonoS3.wav,1,1,3,11,,,,,0,4,4,10,0,8,8,0,,,,,,,,,3,1.466263656009687,,,098,001,2019_Sep_03_1106,MusicAffectPsychophysiology2019,3.0.5,59.95606958110226,
To what extent did the music make you feel ,GUILTY,30MonoWAV/30MonoS3.wav,1,1,3,11,,,,,0,4,4,10,0,9,9,5,,,,,,,,,1,1.2686143910104875,,,098,001,2019_Sep_03_1106,MusicAffectPsychophysiology2019,3.0.5,59.95606958110226,
To what extent did the music make you feel ,FRUSTRATED,30MonoWAV/30MonoS3.wav,1,1,3,11,,,,,0,4,4,10,0,10,10,3,,,,,,,,,1,1.0351164460007567,,,098,001,2019_Sep_03_1106,MusicAffectPsychophysiology2019,3.0.5,59.95606958110226,
To what extent did the music make you feel ,ALERT,30MonoWAV/30MonoS3.wav,1,1,3,11,,,,,0,4,4,10,0,11,11,8,,,,,,,,,1,1.36922147902078,,,098,001,2019_Sep_03_1106,MusicAffectPsychophysiology2019,3.0.5,59.95606958110226,
,,30MonoWAV/30MonoS3.wav,1,1,3,11,,,,,0,4,4,10,,,,,,,,,,,,,,,,,098,001,2019_Sep_03_1106,MusicAffectPsychophysiology2019,3.0.5,59.95606958110226,
To what extent did the music make you feel ,ANXIOUS ,30MonoWAV/30MonoT2.wav,2,1,4,14,,,,,0,5,5,13,0,0,0,1,,,3,2.5861656820052303,3,1.8521588440053165,4,2.2030214500264265,1,1.8515714139794,,,098,001,2019_Sep_03_1106,MusicAffectPsychophysiology2019,3.0.5,59.95606958110226,
To what extent did the music make you feel ,TENDER,30MonoWAV/30MonoT2.wav,2,1,4,14,,,,,0,5,5,13,0,1,1,10,,,,,,,,,3,1.4692933609767351,,,098,001,2019_Sep_03_1106,MusicAffectPsychophysiology2019,3.0.5,59.95606958110226,
To what extent did the music make you feel ,SAD,30MonoWAV/30MonoT2.wav,2,1,4,14,,,,,0,5,5,13,0,2,2,0,,,,,,,,,2,1.4693782289978117,,,098,001,2019_Sep_03_1106,MusicAffectPsychophysiology2019,3.0.5,59.95606958110226,
To what extent did the music make you feel ,FRUSTRATED,30MonoWAV/30MonoT2.wav,2,1,4,14,,,,,0,5,5,13,0,3,3,3,,,,,,,,,1,0.9019928599882405,,,098,001,2019_Sep_03_1106,MusicAffectPsychophysiology2019,3.0.5,59.95606958110226,
To what extent did the music make you feel ,ALERT,30MonoWAV/30MonoT2.wav,2,1,4,14,,,,,0,5,5,13,0,4,4,8,,,,,,,,,1,1.3361265769926831,,,098,001,2019_Sep_03_1106,MusicAffectPsychophysiology2019,3.0.5,59.95606958110226,
To what extent did the music make you feel ,HAPPY,30MonoWAV/30MonoT2.wav,2,1,4,14,,,,,0,5,5,13,0,5,5,6,,,,,,,,,2,1.6692141109961085,,,098,001,2019_Sep_03_1106,MusicAffectPsychophysiology2019,3.0.5,59.95606958110226,
To what extent did the music make you feel ,SCARED,30MonoWAV/30MonoT2.wav,2,1,4,14,,,,,0,5,5,13,0,6,6,11,,,,,,,,,1,0.7866969959868584,,,098,001,2019_Sep_03_1106,MusicAffectPsychophysiology2019,3.0.5,59.95606958110226,
To what extent did the music make you feel ,ASHAMED,30MonoWAV/30MonoT2.wav,2,1,4,14,,,,,0,5,5,13,0,7,7,4,,,,,,,,,1,1.1849875210027676,,,098,001,2019_Sep_03_1106,MusicAffectPsychophysiology2019,3.0.5,59.95606958110226,
To what extent did the music make you feel ,ANGRY,30MonoWAV/30MonoT2.wav,2,1,4,14,,,,,0,5,5,13,0,8,8,2,,,,,,,,,1,1.8028841729974374,,,098,001,2019_Sep_03_1106,MusicAffectPsychophysiology2019,3.0.5,59.95606958110226,
To what extent did the music make you feel ,ACTIVE,30MonoWAV/30MonoT2.wav,2,1,4,14,,,,,0,5,5,13,0,9,9,9,,,,,,,,,2,1.3200088900048286,,,098,001,2019_Sep_03_1106,MusicAffectPsychophysiology2019,3.0.5,59.95606958110226,
To what extent did the music make you feel ,EXCITED,30MonoWAV/30MonoT2.wav,2,1,4,14,,,,,0,5,5,13,0,10,10,7,,,,,,,,,2,1.3798788400017656,,,098,001,2019_Sep_03_1106,MusicAffectPsychophysiology2019,3.0.5,59.95606958110226,
To what extent did the music make you feel ,GUILTY,30MonoWAV/30MonoT2.wav,2,1,4,14,,,,,0,5,5,13,0,11,11,5,,,,,,,,,1,0.669334803998936,,,098,001,2019_Sep_03_1106,MusicAffectPsychophysiology2019,3.0.5,59.95606958110226,
,,30MonoWAV/30MonoT2.wav,2,1,4,14,,,,,0,5,5,13,,,,,,,,,,,,,,,,,098,001,2019_Sep_03_1106,MusicAffectPsychophysiology2019,3.0.5,59.95606958110226,
To what extent did the music make you feel ,ANXIOUS ,30MonoWAV/30MonoT1.wav,2,1,4,13,,,,,0,6,6,12,0,0,0,1,,,2,2.420485581009416,3,2.0026512859913055,2,2.2860326590016484,1,1.0739111900038552,,,098,001,2019_Sep_03_1106,MusicAffectPsychophysiology2019,3.0.5,59.95606958110226,
To what extent did the music make you feel ,ACTIVE,30MonoWAV/30MonoT1.wav,2,1,4,13,,,,,0,6,6,12,0,1,1,9,,,,,,,,,1,1.434987248008838,,,098,001,2019_Sep_03_1106,MusicAffectPsychophysiology2019,3.0.5,59.95606958110226,
To what extent did the music make you feel ,TENDER,30MonoWAV/30MonoT1.wav,2,1,4,13,,,,,0,6,6,12,0,2,2,10,,,,,,,,,3,1.3851295540225692,,,098,001,2019_Sep_03_1106,MusicAffectPsychophysiology2019,3.0.5,59.95606958110226,
To what extent did the music make you feel ,EXCITED,30MonoWAV/30MonoT1.wav,2,1,4,13,,,,,0,6,6,12,0,3,3,7,,,,,,,,,2,2.0669789949897677,,,098,001,2019_Sep_03_1106,MusicAffectPsychophysiology2019,3.0.5,59.95606958110226,
To what extent did the music make you feel ,GUILTY,30MonoWAV/30MonoT1.wav,2,1,4,13,,,,,0,6,6,12,0,4,4,5,,,,,,,,,1,0.8535077290143818,,,098,001,2019_Sep_03_1106,MusicAffectPsychophysiology2019,3.0.5,59.95606958110226,
To what extent did the music make you feel ,ANGRY,30MonoWAV/30MonoT1.wav,2,1,4,13,,,,,0,6,6,12,0,5,5,2,,,,,,,,,1,0.6371669619984459,,,098,001,2019_Sep_03_1106,MusicAffectPsychophysiology2019,3.0.5,59.95606958110226,
To what extent did the music make you feel ,SAD,30MonoWAV/30MonoT1.wav,2,1,4,13,,,,,0,6,6,12,0,6,6,0,,,,,,,,,2,1.1018772640090901,,,098,001,2019_Sep_03_1106,MusicAffectPsychophysiology2019,3.0.5,59.95606958110226,
To what extent did the music make you feel ,ALERT,30MonoWAV/30MonoT1.wav,2,1,4,13,,,,,0,6,6,12,0,7,7,8,,,,,,,,,1,4.502216849010438,,,098,001,2019_Sep_03_1106,MusicAffectPsychophysiology2019,3.0.5,59.95606958110226,
To what extent did the music make you feel ,SCARED,30MonoWAV/30MonoT1.wav,2,1,4,13,,,,,0,6,6,12,0,8,8,11,,,,,,,,,1,0.6529305340081919,,,098,001,2019_Sep_03_1106,MusicAffectPsychophysiology2019,3.0.5,59.95606958110226,
To what extent did the music make you feel ,HAPPY,30MonoWAV/30MonoT1.wav,2,1,4,13,,,,,0,6,6,12,0,9,9,6,,,,,,,,,2,1.2160730930045247,,,098,001,2019_Sep_03_1106,MusicAffectPsychophysiology2019,3.0.5,59.95606958110226,
To what extent did the music make you feel ,ASHAMED,30MonoWAV/30MonoT1.wav,2,1,4,13,,,,,0,6,6,12,0,10,10,4,,,,,,,,,1,0.6180531630234327,,,098,001,2019_Sep_03_1106,MusicAffectPsychophysiology2019,3.0.5,59.95606958110226,
To what extent did the music make you feel ,FRUSTRATED,30MonoWAV/30MonoT1.wav,2,1,4,13,,,,,0,6,6,12,0,11,11,3,,,,,,,,,1,0.7377719560172409,,,098,001,2019_Sep_03_1106,MusicAffectPsychophysiology2019,3.0.5,59.95606958110226,
,,30MonoWAV/30MonoT1.wav,2,1,4,13,,,,,0,6,6,12,,,,,,,,,,,,,,,,,098,001,2019_Sep_03_1106,MusicAffectPsychophysiology2019,3.0.5,59.95606958110226,
To what extent did the music make you feel ,ACTIVE,30MonoWAV/30MonoH1.wav,2,2,1,5,,,,,0,7,7,4,0,0,0,9,,,5,3.435320636985125,4,2.6860869779775385,4,1.3185295709990896,4,2.468416490999516,,,098,001,2019_Sep_03_1106,MusicAffectPsychophysiology2019,3.0.5,59.95606958110226,
To what extent did the music make you feel ,ANGRY,30MonoWAV/30MonoH1.wav,2,2,1,5,,,,,0,7,7,4,0,1,1,2,,,,,,,,,1,1.3490739990083966,,,098,001,2019_Sep_03_1106,MusicAffectPsychophysiology2019,3.0.5,59.95606958110226,
To what extent did the music make you feel ,TENDER,30MonoWAV/30MonoH1.wav,2,2,1,5,,,,,0,7,7,4,0,2,2,10,,,,,,,,,2,1.4860292809898965,,,098,001,2019_Sep_03_1106,MusicAffectPsychophysiology2019,3.0.5,59.95606958110226,
To what extent did the music make you feel ,HAPPY,30MonoWAV/30MonoH1.wav,2,2,1,5,,,,,0,7,7,4,0,3,3,6,,,,,,,,,4,2.000144026009366,,,098,001,2019_Sep_03_1106,MusicAffectPsychophysiology2019,3.0.5,59.95606958110226,
To what extent did the music make you feel ,SCARED,30MonoWAV/30MonoH1.wav,2,2,1,5,,,,,0,7,7,4,0,4,4,11,,,,,,,,,1,1.1190031029982492,,,098,001,2019_Sep_03_1106,MusicAffectPsychophysiology2019,3.0.5,59.95606958110226,
To what extent did the music make you feel ,GUILTY,30MonoWAV/30MonoH1.wav,2,2,1,5,,,,,0,7,7,4,0,5,5,5,,,,,,,,,1,0.8355996979807969,,,098,001,2019_Sep_03_1106,MusicAffectPsychophysiology2019,3.0.5,59.95606958110226,
To what extent did the music make you feel ,ASHAMED,30MonoWAV/30MonoH1.wav,2,2,1,5,,,,,0,7,7,4,0,6,6,4,,,,,,,,,1,0.6000256479892414,,,098,001,2019_Sep_03_1106,MusicAffectPsychophysiology2019,3.0.5,59.95606958110226,
To what extent did the music make you feel ,ANXIOUS ,30MonoWAV/30MonoH1.wav,2,2,1,5,,,,,0,7,7,4,0,7,7,1,,,,,,,,,1,0.6341716010065284,,,098,001,2019_Sep_03_1106,MusicAffectPsychophysiology2019,3.0.5,59.95606958110226,
To what extent did the music make you feel ,ALERT,30MonoWAV/30MonoH1.wav,2,2,1,5,,,,,0,7,7,4,0,8,8,8,,,,,,,,,5,1.652057847008109,,,098,001,2019_Sep_03_1106,MusicAffectPsychophysiology2019,3.0.5,59.95606958110226,
To what extent did the music make you feel ,FRUSTRATED,30MonoWAV/30MonoH1.wav,2,2,1,5,,,,,0,7,7,4,0,9,9,3,,,,,,,,,1,1.0694389620039146,,,098,001,2019_Sep_03_1106,MusicAffectPsychophysiology2019,3.0.5,59.95606958110226,
To what extent did the music make you feel ,SAD,30MonoWAV/30MonoH1.wav,2,2,1,5,,,,,0,7,7,4,0,10,10,0,,,,,,,,,1,1.8693953129986767,,,098,001,2019_Sep_03_1106,MusicAffectPsychophysiology2019,3.0.5,59.95606958110226,
To what extent did the music make you feel ,EXCITED,30MonoWAV/30MonoH1.wav,2,2,1,5,,,,,0,7,7,4,0,11,11,7,,,,,,,,,5,1.453372933989158,,,098,001,2019_Sep_03_1106,MusicAffectPsychophysiology2019,3.0.5,59.95606958110226,
,,30MonoWAV/30MonoH1.wav,2,2,1,5,,,,,0,7,7,4,,,,,,,,,,,,,,,,,098,001,2019_Sep_03_1106,MusicAffectPsychophysiology2019,3.0.5,59.95606958110226,
To what extent did the music make you feel ,ANXIOUS ,30MonoWAV/30MonoT3.wav,2,1,4,15,,,,,0,8,8,14,0,0,0,1,,,2,3.8681287610088475,3,3.085304845997598,4,1.2354019900085405,1,1.824906903988449,,,098,001,2019_Sep_03_1106,MusicAffectPsychophysiology2019,3.0.5,59.95606958110226,
To what extent did the music make you feel ,EXCITED,30MonoWAV/30MonoT3.wav,2,1,4,15,,,,,0,8,8,14,0,1,1,7,,,,,,,,,1,1.3697424279816914,,,098,001,2019_Sep_03_1106,MusicAffectPsychophysiology2019,3.0.5,59.95606958110226,
To what extent did the music make you feel ,ACTIVE,30MonoWAV/30MonoT3.wav,2,1,4,15,,,,,0,8,8,14,0,2,2,9,,,,,,,,,1,0.9850391570071224,,,098,001,2019_Sep_03_1106,MusicAffectPsychophysiology2019,3.0.5,59.95606958110226,
To what extent did the music make you feel ,SAD,30MonoWAV/30MonoT3.wav,2,1,4,15,,,,,0,8,8,14,0,3,3,0,,,,,,,,,2,1.2208090409985743,,,098,001,2019_Sep_03_1106,MusicAffectPsychophysiology2019,3.0.5,59.95606958110226,
To what extent did the music make you feel ,ASHAMED,30MonoWAV/30MonoT3.wav,2,1,4,15,,,,,0,8,8,14,0,4,4,4,,,,,,,,,1,0.7689715079905,,,098,001,2019_Sep_03_1106,MusicAffectPsychophysiology2019,3.0.5,59.95606958110226,
To what extent did the music make you feel ,ANGRY,30MonoWAV/30MonoT3.wav,2,1,4,15,,,,,0,8,8,14,0,5,5,2,,,,,,,,,1,1.0195289789990056,,,098,001,2019_Sep_03_1106,MusicAffectPsychophysiology2019,3.0.5,59.95606958110226,
To what extent did the music make you feel ,FRUSTRATED,30MonoWAV/30MonoT3.wav,2,1,4,15,,,,,0,8,8,14,0,6,6,3,,,,,,,,,1,0.6421026890166104,,,098,001,2019_Sep_03_1106,MusicAffectPsychophysiology2019,3.0.5,59.95606958110226,
To what extent did the music make you feel ,TENDER,30MonoWAV/30MonoT3.wav,2,1,4,15,,,,,0,8,8,14,0,7,7,10,,,,,,,,,4,1.8677512930007651,,,098,001,2019_Sep_03_1106,MusicAffectPsychophysiology2019,3.0.5,59.95606958110226,
To what extent did the music make you feel ,SCARED,30MonoWAV/30MonoT3.wav,2,1,4,15,,,,,0,8,8,14,0,8,8,11,,,,,,,,,1,2.286701204982819,,,098,001,2019_Sep_03_1106,MusicAffectPsychophysiology2019,3.0.5,59.95606958110226,
To what extent did the music make you feel ,GUILTY,30MonoWAV/30MonoT3.wav,2,1,4,15,,,,,0,8,8,14,0,9,9,5,,,,,,,,,1,0.585117023991188,,,098,001,2019_Sep_03_1106,MusicAffectPsychophysiology2019,3.0.5,59.95606958110226,
To what extent did the music make you feel ,HAPPY,30MonoWAV/30MonoT3.wav,2,1,4,15,,,,,0,8,8,14,0,10,10,6,,,,,,,,,3,1.3862741779885255,,,098,001,2019_Sep_03_1106,MusicAffectPsychophysiology2019,3.0.5,59.95606958110226,
To what extent did the music make you feel ,ALERT,30MonoWAV/30MonoT3.wav,2,1,4,15,,,,,0,8,8,14,0,11,11,8,,,,,,,,,2,1.8840932179882657,,,098,001,2019_Sep_03_1106,MusicAffectPsychophysiology2019,3.0.5,59.95606958110226,
,,30MonoWAV/30MonoT3.wav,2,1,4,15,,,,,0,8,8,14,,,,,,,,,,,,,,,,,098,001,2019_Sep_03_1106,MusicAffectPsychophysiology2019,3.0.5,59.95606958110226,
To what extent did the music make you feel ,ASHAMED,30MonoWAV/30MonoF3.wav,1,2,2,3,,,,,0,9,9,2,0,0,0,4,,,3,3.3867911889974494,1,3.5187793690129183,1,2.2682583979913034,1,1.7532354909926653,,,098,001,2019_Sep_03_1106,MusicAffectPsychophysiology2019,3.0.5,59.95606958110226,
To what extent did the music make you feel ,ACTIVE,30MonoWAV/30MonoF3.wav,1,2,2,3,,,,,0,9,9,2,0,1,1,9,,,,,,,,,2,1.1862880140251946,,,098,001,2019_Sep_03_1106,MusicAffectPsychophysiology2019,3.0.5,59.95606958110226,
To what extent did the music make you feel ,FRUSTRATED,30MonoWAV/30MonoF3.wav,1,2,2,3,,,,,0,9,9,2,0,2,2,3,,,,,,,,,2,1.2698548620101064,,,098,001,2019_Sep_03_1106,MusicAffectPsychophysiology2019,3.0.5,59.95606958110226,
To what extent did the music make you feel ,HAPPY,30MonoWAV/30MonoF3.wav,1,2,2,3,,,,,0,9,9,2,0,3,3,6,,,,,,,,,1,0.9858900749823079,,,098,001,2019_Sep_03_1106,MusicAffectPsychophysiology2019,3.0.5,59.95606958110226,
To what extent did the music make you feel ,SAD,30MonoWAV/30MonoF3.wav,1,2,2,3,,,,,0,9,9,2,0,4,4,0,,,,,,,,,1,1.119234995014267,,,098,001,2019_Sep_03_1106,MusicAffectPsychophysiology2019,3.0.5,59.95606958110226,
To what extent did the music make you feel ,ALERT,30MonoWAV/30MonoF3.wav,1,2,2,3,,,,,0,9,9,2,0,5,5,8,,,,,,,,,2,1.1359672209946439,,,098,001,2019_Sep_03_1106,MusicAffectPsychophysiology2019,3.0.5,59.95606958110226,
To what extent did the music make you feel ,ANGRY,30MonoWAV/30MonoF3.wav,1,2,2,3,,,,,0,9,9,2,0,6,6,2,,,,,,,,,1,1.9526886559906416,,,098,001,2019_Sep_03_1106,MusicAffectPsychophysiology2019,3.0.5,59.95606958110226,
To what extent did the music make you feel ,TENDER,30MonoWAV/30MonoF3.wav,1,2,2,3,,,,,0,9,9,2,0,7,7,10,,,,,,,,,1,1.2040212430001702,,,098,001,2019_Sep_03_1106,MusicAffectPsychophysiology2019,3.0.5,59.95606958110226,
To what extent did the music make you feel ,ANXIOUS ,30MonoWAV/30MonoF3.wav,1,2,2,3,,,,,0,9,9,2,0,8,8,1,,,,,,,,,4,2.035531640984118,,,098,001,2019_Sep_03_1106,MusicAffectPsychophysiology2019,3.0.5,59.95606958110226,
To what extent did the music make you feel ,SCARED,30MonoWAV/30MonoF3.wav,1,2,2,3,,,,,0,9,9,2,0,9,9,11,,,,,,,,,3,1.9014534300076775,,,098,001,2019_Sep_03_1106,MusicAffectPsychophysiology2019,3.0.5,59.95606958110226,
To what extent did the music make you feel ,EXCITED,30MonoWAV/30MonoF3.wav,1,2,2,3,,,,,0,9,9,2,0,10,10,7,,,,,,,,,2,2.251942472998053,,,098,001,2019_Sep_03_1106,MusicAffectPsychophysiology2019,3.0.5,59.95606958110226,
To what extent did the music make you feel ,GUILTY,30MonoWAV/30MonoF3.wav,1,2,2,3,,,,,0,9,9,2,0,11,11,5,,,,,,,,,1,0.8869515259866603,,,098,001,2019_Sep_03_1106,MusicAffectPsychophysiology2019,3.0.5,59.95606958110226,
,,30MonoWAV/30MonoF3.wav,1,2,2,3,,,,,0,9,9,2,,,,,,,,,,,,,,,,,098,001,2019_Sep_03_1106,MusicAffectPsychophysiology2019,3.0.5,59.95606958110226,
To what extent did the music make you feel ,TENDER,30MonoWAV/30MonoS2.wav,1,1,3,10,,,,,0,10,10,9,0,0,0,10,,,1,2.569190937996609,1,1.703715623007156,2,1.6854556900216267,3,1.9277910460077692,,,098,001,2019_Sep_03_1106,MusicAffectPsychophysiology2019,3.0.5,59.95606958110226,
To what extent did the music make you feel ,FRUSTRATED,30MonoWAV/30MonoS2.wav,1,1,3,10,,,,,0,10,10,9,0,1,1,3,,,,,,,,,1,1.0519858009938616,,,098,001,2019_Sep_03_1106,MusicAffectPsychophysiology2019,3.0.5,59.95606958110226,
To what extent did the music make you feel ,EXCITED,30MonoWAV/30MonoS2.wav,1,1,3,10,,,,,0,10,10,9,0,2,2,7,,,,,,,,,1,1.1168380659946706,,,098,001,2019_Sep_03_1106,MusicAffectPsychophysiology2019,3.0.5,59.95606958110226,
To what extent did the music make you feel ,ACTIVE,30MonoWAV/30MonoS2.wav,1,1,3,10,,,,,0,10,10,9,0,3,3,9,,,,,,,,,1,0.8695598150079604,,,098,001,2019_Sep_03_1106,MusicAffectPsychophysiology2019,3.0.5,59.95606958110226,
To what extent did the music make you feel ,SAD,30MonoWAV/30MonoS2.wav,1,1,3,10,,,,,0,10,10,9,0,4,4,0,,,,,,,,,4,1.5168379459937569,,,098,001,2019_Sep_03_1106,MusicAffectPsychophysiology2019,3.0.5,59.95606958110226,
To what extent did the music make you feel ,SCARED,30MonoWAV/30MonoS2.wav,1,1,3,10,,,,,0,10,10,9,0,5,5,11,,,,,,,,,1,2.4022020509873983,,,098,001,2019_Sep_03_1106,MusicAffectPsychophysiology2019,3.0.5,59.95606958110226,
To what extent did the music make you feel ,ANXIOUS ,30MonoWAV/30MonoS2.wav,1,1,3,10,,,,,0,10,10,9,0,6,6,1,,,,,,,,,2,1.2861307540151756,,,098,001,2019_Sep_03_1106,MusicAffectPsychophysiology2019,3.0.5,59.95606958110226,
To what extent did the music make you feel ,ANGRY,30MonoWAV/30MonoS2.wav,1,1,3,10,,,,,0,10,10,9,0,7,7,2,,,,,,,,,1,0.98555386197404,,,098,001,2019_Sep_03_1106,MusicAffectPsychophysiology2019,3.0.5,59.95606958110226,
To what extent did the music make you feel ,HAPPY,30MonoWAV/30MonoS2.wav,1,1,3,10,,,,,0,10,10,9,0,8,8,6,,,,,,,,,1,1.102677996008424,,,098,001,2019_Sep_03_1106,MusicAffectPsychophysiology2019,3.0.5,59.95606958110226,
To what extent did the music make you feel ,ALERT,30MonoWAV/30MonoS2.wav,1,1,3,10,,,,,0,10,10,9,0,9,9,8,,,,,,,,,1,1.1667208219878376,,,098,001,2019_Sep_03_1106,MusicAffectPsychophysiology2019,3.0.5,59.95606958110226,
To what extent did the music make you feel ,ASHAMED,30MonoWAV/30MonoS2.wav,1,1,3,10,,,,,0,10,10,9,0,10,10,4,,,,,,,,,2,1.5035099480010103,,,098,001,2019_Sep_03_1106,MusicAffectPsychophysiology2019,3.0.5,59.95606958110226,
To what extent did the music make you feel ,GUILTY,30MonoWAV/30MonoS2.wav,1,1,3,10,,,,,0,10,10,9,0,11,11,5,,,,,,,,,2,1.6830512099841144,,,098,001,2019_Sep_03_1106,MusicAffectPsychophysiology2019,3.0.5,59.95606958110226,
,,30MonoWAV/30MonoS2.wav,1,1,3,10,,,,,0,10,10,9,,,,,,,,,,,,,,,,,098,001,2019_Sep_03_1106,MusicAffectPsychophysiology2019,3.0.5,59.95606958110226,
To what extent did the music make you feel ,ANGRY,30MonoWAV/30MonoF2.wav,1,2,2,2,,,,,0,11,11,1,0,0,0,2,,,3,4.419138363999082,1,1.2532797390013002,1,1.202126172982389,1,1.4389010449813213,,,098,001,2019_Sep_03_1106,MusicAffectPsychophysiology2019,3.0.5,59.95606958110226,
To what extent did the music make you feel ,GUILTY,30MonoWAV/30MonoF2.wav,1,2,2,2,,,,,0,11,11,1,0,1,1,5,,,,,,,,,2,1.020677253982285,,,098,001,2019_Sep_03_1106,MusicAffectPsychophysiology2019,3.0.5,59.95606958110226,
To what extent did the music make you feel ,EXCITED,30MonoWAV/30MonoF2.wav,1,2,2,2,,,,,0,11,11,1,0,2,2,7,,,,,,,,,2,1.7863046980055515,,,098,001,2019_Sep_03_1106,MusicAffectPsychophysiology2019,3.0.5,59.95606958110226,
To what extent did the music make you feel ,HAPPY,30MonoWAV/30MonoF2.wav,1,2,2,2,,,,,0,11,11,1,0,3,3,6,,,,,,,,,1,0.8701421720033977,,,098,001,2019_Sep_03_1106,MusicAffectPsychophysiology2019,3.0.5,59.95606958110226,
To what extent did the music make you feel ,FRUSTRATED,30MonoWAV/30MonoF2.wav,1,2,2,2,,,,,0,11,11,1,0,4,4,3,,,,,,,,,3,1.2548855979985092,,,098,001,2019_Sep_03_1106,MusicAffectPsychophysiology2019,3.0.5,59.95606958110226,
To what extent did the music make you feel ,ALERT,30MonoWAV/30MonoF2.wav,1,2,2,2,,,,,0,11,11,1,0,5,5,8,,,,,,,,,3,1.1688306049909443,,,098,001,2019_Sep_03_1106,MusicAffectPsychophysiology2019,3.0.5,59.95606958110226,
To what extent did the music make you feel ,SAD,30MonoWAV/30MonoF2.wav,1,2,2,2,,,,,0,11,11,1,0,6,6,0,,,,,,,,,1,1.8193518120096996,,,098,001,2019_Sep_03_1106,MusicAffectPsychophysiology2019,3.0.5,59.95606958110226,
To what extent did the music make you feel ,TENDER,30MonoWAV/30MonoF2.wav,1,2,2,2,,,,,0,11,11,1,0,7,7,10,,,,,,,,,1,0.985909946000902,,,098,001,2019_Sep_03_1106,MusicAffectPsychophysiology2019,3.0.5,59.95606958110226,
To what extent did the music make you feel ,ASHAMED,30MonoWAV/30MonoF2.wav,1,2,2,2,,,,,0,11,11,1,0,8,8,4,,,,,,,,,1,0.9366080469917506,,,098,001,2019_Sep_03_1106,MusicAffectPsychophysiology2019,3.0.5,59.95606958110226,
To what extent did the music make you feel ,ANXIOUS ,30MonoWAV/30MonoF2.wav,1,2,2,2,,,,,0,11,11,1,0,9,9,1,,,,,,,,,5,1.4545704510237556,,,098,001,2019_Sep_03_1106,MusicAffectPsychophysiology2019,3.0.5,59.95606958110226,
To what extent did the music make you feel ,SCARED,30MonoWAV/30MonoF2.wav,1,2,2,2,,,,,0,11,11,1,0,10,10,11,,,,,,,,,5,1.369967190985335,,,098,001,2019_Sep_03_1106,MusicAffectPsychophysiology2019,3.0.5,59.95606958110226,
To what extent did the music make you feel ,ACTIVE,30MonoWAV/30MonoF2.wav,1,2,2,2,,,,,0,11,11,1,0,11,11,9,,,,,,,,,2,2.169005477015162,,,098,001,2019_Sep_03_1106,MusicAffectPsychophysiology2019,3.0.5,59.95606958110226,
,,30MonoWAV/30MonoF2.wav,1,2,2,2,,,,,0,11,11,1,,,,,,,,,,,,,,,,,098,001,2019_Sep_03_1106,MusicAffectPsychophysiology2019,3.0.5,59.95606958110226,
To what extent did the music make you feel ,ALERT,30MonoWAV/30MonoF1.wav,1,2,2,1,,,,,0,12,12,0,0,0,0,8,,,4,2.4855872449988965,1,1.235520046990132,1,1.1528111410152633,4,2.182778607995715,,,098,001,2019_Sep_03_1106,MusicAffectPsychophysiology2019,3.0.5,59.95606958110226,
To what extent did the music make you feel ,ANGRY,30MonoWAV/30MonoF1.wav,1,2,2,1,,,,,0,12,12,0,0,1,1,2,,,,,,,,,1,1.535649375000503,,,098,001,2019_Sep_03_1106,MusicAffectPsychophysiology2019,3.0.5,59.95606958110226,
To what extent did the music make you feel ,SAD,30MonoWAV/30MonoF1.wav,1,2,2,1,,,,,0,12,12,0,0,2,2,0,,,,,,,,,2,1.0355125720088836,,,098,001,2019_Sep_03_1106,MusicAffectPsychophysiology2019,3.0.5,59.95606958110226,
To what extent did the music make you feel ,GUILTY,30MonoWAV/30MonoF1.wav,1,2,2,1,,,,,0,12,12,0,0,3,3,5,,,,,,,,,2,1.1004363580141217,,,098,001,2019_Sep_03_1106,MusicAffectPsychophysiology2019,3.0.5,59.95606958110226,
To what extent did the music make you feel ,ACTIVE,30MonoWAV/30MonoF1.wav,1,2,2,1,,,,,0,12,12,0,0,4,4,9,,,,,,,,,3,1.2188042499765288,,,098,001,2019_Sep_03_1106,MusicAffectPsychophysiology2019,3.0.5,59.95606958110226,
To what extent did the music make you feel ,TENDER,30MonoWAV/30MonoF1.wav,1,2,2,1,,,,,0,12,12,0,0,5,5,10,,,,,,,,,1,1.1508305949973874,,,098,001,2019_Sep_03_1106,MusicAffectPsychophysiology2019,3.0.5,59.95606958110226,
To what extent did the music make you feel ,SCARED,30MonoWAV/30MonoF1.wav,1,2,2,1,,,,,0,12,12,0,0,6,6,11,,,,,,,,,5,2.635560770984739,,,098,001,2019_Sep_03_1106,MusicAffectPsychophysiology2019,3.0.5,59.95606958110226,
To what extent did the music make you feel ,EXCITED,30MonoWAV/30MonoF1.wav,1,2,2,1,,,,,0,12,12,0,0,7,7,7,,,,,,,,,3,1.4305607700080145,,,098,001,2019_Sep_03_1106,MusicAffectPsychophysiology2019,3.0.5,59.95606958110226,
To what extent did the music make you feel ,FRUSTRATED,30MonoWAV/30MonoF1.wav,1,2,2,1,,,,,0,12,12,0,0,8,8,3,,,,,,,,,1,1.0861879299918655,,,098,001,2019_Sep_03_1106,MusicAffectPsychophysiology2019,3.0.5,59.95606958110226,
To what extent did the music make you feel ,ASHAMED,30MonoWAV/30MonoF1.wav,1,2,2,1,,,,,0,12,12,0,0,9,9,4,,,,,,,,,1,0.6696735230216291,,,098,001,2019_Sep_03_1106,MusicAffectPsychophysiology2019,3.0.5,59.95606958110226,
To what extent did the music make you feel ,HAPPY,30MonoWAV/30MonoF1.wav,1,2,2,1,,,,,0,12,12,0,0,10,10,6,,,,,,,,,1,0.936943093984155,,,098,001,2019_Sep_03_1106,MusicAffectPsychophysiology2019,3.0.5,59.95606958110226,
To what extent did the music make you feel ,ANXIOUS ,30MonoWAV/30MonoF1.wav,1,2,2,1,,,,,0,12,12,0,0,11,11,1,,,,,,,,,5,1.3669152650109027,,,098,001,2019_Sep_03_1106,MusicAffectPsychophysiology2019,3.0.5,59.95606958110226,
,,30MonoWAV/30MonoF1.wav,1,2,2,1,,,,,0,12,12,0,,,,,,,,,,,,,,,,,098,001,2019_Sep_03_1106,MusicAffectPsychophysiology2019,3.0.5,59.95606958110226,
To what extent did the music make you feel ,ANXIOUS ,30MonoWAV/30MonoT4.wav,2,1,4,16,,,,,0,13,13,15,0,0,0,1,,,3,2.369854493997991,2,2.5032950849854387,3,1.235131244000513,1,1.2532235419785138,,,098,001,2019_Sep_03_1106,MusicAffectPsychophysiology2019,3.0.5,59.95606958110226,
To what extent did the music make you feel ,ALERT,30MonoWAV/30MonoT4.wav,2,1,4,16,,,,,0,13,13,15,0,1,1,8,,,,,,,,,1,1.3860952589893714,,,098,001,2019_Sep_03_1106,MusicAffectPsychophysiology2019,3.0.5,59.95606958110226,
To what extent did the music make you feel ,ASHAMED,30MonoWAV/30MonoT4.wav,2,1,4,16,,,,,0,13,13,15,0,2,2,4,,,,,,,,,1,0.8186543789925054,,,098,001,2019_Sep_03_1106,MusicAffectPsychophysiology2019,3.0.5,59.95606958110226,
To what extent did the music make you feel ,GUILTY,30MonoWAV/30MonoT4.wav,2,1,4,16,,,,,0,13,13,15,0,3,3,5,,,,,,,,,1,0.7030039310047869,,,098,001,2019_Sep_03_1106,MusicAffectPsychophysiology2019,3.0.5,59.95606958110226,
To what extent did the music make you feel ,HAPPY,30MonoWAV/30MonoT4.wav,2,1,4,16,,,,,0,13,13,15,0,4,4,6,,,,,,,,,2,1.3499708919844124,,,098,001,2019_Sep_03_1106,MusicAffectPsychophysiology2019,3.0.5,59.95606958110226,
To what extent did the music make you feel ,EXCITED,30MonoWAV/30MonoT4.wav,2,1,4,16,,,,,0,13,13,15,0,5,5,7,,,,,,,,,3,1.18571893000626,,,098,001,2019_Sep_03_1106,MusicAffectPsychophysiology2019,3.0.5,59.95606958110226,
To what extent did the music make you feel ,SAD,30MonoWAV/30MonoT4.wav,2,1,4,16,,,,,0,13,13,15,0,6,6,0,,,,,,,,,3,1.5661230539844837,,,098,001,2019_Sep_03_1106,MusicAffectPsychophysiology2019,3.0.5,59.95606958110226,
To what extent did the music make you feel ,SCARED,30MonoWAV/30MonoT4.wav,2,1,4,16,,,,,0,13,13,15,0,7,7,11,,,,,,,,,1,1.5691578749974724,,,098,001,2019_Sep_03_1106,MusicAffectPsychophysiology2019,3.0.5,59.95606958110226,
To what extent did the music make you feel ,TENDER,30MonoWAV/30MonoT4.wav,2,1,4,16,,,,,0,13,13,15,0,8,8,10,,,,,,,,,4,1.6690284420037642,,,098,001,2019_Sep_03_1106,MusicAffectPsychophysiology2019,3.0.5,59.95606958110226,
To what extent did the music make you feel ,ACTIVE,30MonoWAV/30MonoT4.wav,2,1,4,16,,,,,0,13,13,15,0,9,9,9,,,,,,,,,2,1.5017002540116664,,,098,001,2019_Sep_03_1106,MusicAffectPsychophysiology2019,3.0.5,59.95606958110226,
To what extent did the music make you feel ,ANGRY,30MonoWAV/30MonoT4.wav,2,1,4,16,,,,,0,13,13,15,0,10,10,2,,,,,,,,,1,1.169633821991738,,,098,001,2019_Sep_03_1106,MusicAffectPsychophysiology2019,3.0.5,59.95606958110226,
To what extent did the music make you feel ,FRUSTRATED,30MonoWAV/30MonoT4.wav,2,1,4,16,,,,,0,13,13,15,0,11,11,3,,,,,,,,,1,0.8744712960033212,,,098,001,2019_Sep_03_1106,MusicAffectPsychophysiology2019,3.0.5,59.95606958110226,
,,30MonoWAV/30MonoT4.wav,2,1,4,16,,,,,0,13,13,15,,,,,,,,,,,,,,,,,098,001,2019_Sep_03_1106,MusicAffectPsychophysiology2019,3.0.5,59.95606958110226,
To what extent did the music make you feel ,TENDER,30MonoWAV/30MonoH4.wav,2,2,1,8,,,,,0,14,14,7,0,0,0,10,,,5,4.752501979004592,5,1.2527794500056189,4,1.3701625959947705,2,2.3186011530051474,,,098,001,2019_Sep_03_1106,MusicAffectPsychophysiology2019,3.0.5,59.95606958110226,
To what extent did the music make you feel ,FRUSTRATED,30MonoWAV/30MonoH4.wav,2,2,1,8,,,,,0,14,14,7,0,1,1,3,,,,,,,,,1,0.9006955410004593,,,098,001,2019_Sep_03_1106,MusicAffectPsychophysiology2019,3.0.5,59.95606958110226,
To what extent did the music make you feel ,ANGRY,30MonoWAV/30MonoH4.wav,2,2,1,8,,,,,0,14,14,7,0,2,2,2,,,,,,,,,1,0.5860156839771662,,,098,001,2019_Sep_03_1106,MusicAffectPsychophysiology2019,3.0.5,59.95606958110226,
To what extent did the music make you feel ,ASHAMED,30MonoWAV/30MonoH4.wav,2,2,1,8,,,,,0,14,14,7,0,3,3,4,,,,,,,,,1,0.7197567580151372,,,098,001,2019_Sep_03_1106,MusicAffectPsychophysiology2019,3.0.5,59.95606958110226,
To what extent did the music make you feel ,SCARED,30MonoWAV/30MonoH4.wav,2,2,1,8,,,,,0,14,14,7,0,4,4,11,,,,,,,,,1,1.015990953979781,,,098,001,2019_Sep_03_1106,MusicAffectPsychophysiology2019,3.0.5,59.95606958110226,
To what extent did the music make you feel ,ANXIOUS ,30MonoWAV/30MonoH4.wav,2,2,1,8,,,,,0,14,14,7,0,5,5,1,,,,,,,,,1,0.8021977499884088,,,098,001,2019_Sep_03_1106,MusicAffectPsychophysiology2019,3.0.5,59.95606958110226,
To what extent did the music make you feel ,HAPPY,30MonoWAV/30MonoH4.wav,2,2,1,8,,,,,0,14,14,7,0,6,6,6,,,,,,,,,4,1.4693622760241851,,,098,001,2019_Sep_03_1106,MusicAffectPsychophysiology2019,3.0.5,59.95606958110226,
To what extent did the music make you feel ,ACTIVE,30MonoWAV/30MonoH4.wav,2,2,1,8,,,,,0,14,14,7,0,7,7,9,,,,,,,,,4,0.9186298010172322,,,098,001,2019_Sep_03_1106,MusicAffectPsychophysiology2019,3.0.5,59.95606958110226,
To what extent did the music make you feel ,EXCITED,30MonoWAV/30MonoH4.wav,2,2,1,8,,,,,0,14,14,7,0,8,8,7,,,,,,,,,4,0.8523617699975148,,,098,001,2019_Sep_03_1106,MusicAffectPsychophysiology2019,3.0.5,59.95606958110226,
To what extent did the music make you feel ,ALERT,30MonoWAV/30MonoH4.wav,2,2,1,8,,,,,0,14,14,7,0,9,9,8,,,,,,,,,4,0.9350605020008516,,,098,001,2019_Sep_03_1106,MusicAffectPsychophysiology2019,3.0.5,59.95606958110226,
To what extent did the music make you feel ,SAD,30MonoWAV/30MonoH4.wav,2,2,1,8,,,,,0,14,14,7,0,10,10,0,,,,,,,,,1,1.0868404940119945,,,098,001,2019_Sep_03_1106,MusicAffectPsychophysiology2019,3.0.5,59.95606958110226,
To what extent did the music make you feel ,GUILTY,30MonoWAV/30MonoH4.wav,2,2,1,8,,,,,0,14,14,7,0,11,11,5,,,,,,,,,1,0.7357201449922286,,,098,001,2019_Sep_03_1106,MusicAffectPsychophysiology2019,3.0.5,59.95606958110226,
,,30MonoWAV/30MonoH4.wav,2,2,1,8,,,,,0,14,14,7,,,,,,,,,,,,,,,,,098,001,2019_Sep_03_1106,MusicAffectPsychophysiology2019,3.0.5,59.95606958110226,
To what extent did the music make you feel ,FRUSTRATED,30MonoWAV/30MonoF4.wav,1,2,2,4,,,,,0,15,15,3,0,0,0,3,,,5,3.5998658030002844,4,1.651976023975294,2,1.7363972990133334,1,1.6117205409973394,,,098,001,2019_Sep_03_1106,MusicAffectPsychophysiology2019,3.0.5,59.95606958110226,
To what extent did the music make you feel ,ALERT,30MonoWAV/30MonoF4.wav,1,2,2,4,,,,,0,15,15,3,0,1,1,8,,,,,,,,,3,1.4022699140186887,,,098,001,2019_Sep_03_1106,MusicAffectPsychophysiology2019,3.0.5,59.95606958110226,
To what extent did the music make you feel ,HAPPY,30MonoWAV/30MonoF4.wav,1,2,2,4,,,,,0,15,15,3,0,2,2,6,,,,,,,,,2,2.4549825789872557,,,098,001,2019_Sep_03_1106,MusicAffectPsychophysiology2019,3.0.5,59.95606958110226,
To what extent did the music make you feel ,EXCITED,30MonoWAV/30MonoF4.wav,1,2,2,4,,,,,0,15,15,3,0,3,3,7,,,,,,,,,4,1.293968957994366,,,098,001,2019_Sep_03_1106,MusicAffectPsychophysiology2019,3.0.5,59.95606958110226,
To what extent did the music make you feel ,SAD,30MonoWAV/30MonoF4.wav,1,2,2,4,,,,,0,15,15,3,0,4,4,0,,,,,,,,,1,1.1042337519756984,,,098,001,2019_Sep_03_1106,MusicAffectPsychophysiology2019,3.0.5,59.95606958110226,
To what extent did the music make you feel ,ANXIOUS ,30MonoWAV/30MonoF4.wav,1,2,2,4,,,,,0,15,15,3,0,5,5,1,,,,,,,,,4,1.468299599015154,,,098,001,2019_Sep_03_1106,MusicAffectPsychophysiology2019,3.0.5,59.95606958110226,
To what extent did the music make you feel ,ANGRY,30MonoWAV/30MonoF4.wav,1,2,2,4,,,,,0,15,15,3,0,6,6,2,,,,,,,,,1,0.9358460809744429,,,098,001,2019_Sep_03_1106,MusicAffectPsychophysiology2019,3.0.5,59.95606958110226,
To what extent did the music make you feel ,SCARED,30MonoWAV/30MonoF4.wav,1,2,2,4,,,,,0,15,15,3,0,7,7,11,,,,,,,,,1,2.3372581849980634,,,098,001,2019_Sep_03_1106,MusicAffectPsychophysiology2019,3.0.5,59.95606958110226,
To what extent did the music make you feel ,ASHAMED,30MonoWAV/30MonoF4.wav,1,2,2,4,,,,,0,15,15,3,0,8,8,4,,,,,,,,,1,0.7030473449849524,,,098,001,2019_Sep_03_1106,MusicAffectPsychophysiology2019,3.0.5,59.95606958110226,
To what extent did the music make you feel ,ACTIVE,30MonoWAV/30MonoF4.wav,1,2,2,4,,,,,0,15,15,3,0,9,9,9,,,,,,,,,4,1.3199046670051757,,,098,001,2019_Sep_03_1106,MusicAffectPsychophysiology2019,3.0.5,59.95606958110226,
To what extent did the music make you feel ,GUILTY,30MonoWAV/30MonoF4.wav,1,2,2,4,,,,,0,15,15,3,0,10,10,5,,,,,,,,,1,0.9363565569801722,,,098,001,2019_Sep_03_1106,MusicAffectPsychophysiology2019,3.0.5,59.95606958110226,
To what extent did the music make you feel ,TENDER,30MonoWAV/30MonoF4.wav,1,2,2,4,,,,,0,15,15,3,0,11,11,10,,,,,,,,,2,1.3184202370175626,,,098,001,2019_Sep_03_1106,MusicAffectPsychophysiology2019,3.0.5,59.95606958110226,
,,30MonoWAV/30MonoF4.wav,1,2,2,4,,,,,0,15,15,3,,,,,,,,,,,,,,,,,098,001,2019_Sep_03_1106,MusicAffectPsychophysiology2019,3.0.5,59.95606958110226,
To what extent did the music make you feel ,EXCITED,30MonoWAV/30MonoF3.wav,1,2,2,3,,,,,1,0,16,2,0,0,0,7,,,4,2.3529554330161773,1,1.737004586000694,1,1.5493399080005474,3,1.7372554930043407,,,098,001,2019_Sep_03_1106,MusicAffectPsychophysiology2019,3.0.5,59.95606958110226,
To what extent did the music make you feel ,TENDER,30MonoWAV/30MonoF3.wav,1,2,2,3,,,,,1,0,16,2,0,1,1,10,,,,,,,,,1,1.1358723940211348,,,098,001,2019_Sep_03_1106,MusicAffectPsychophysiology2019,3.0.5,59.95606958110226,
To what extent did the music make you feel ,GUILTY,30MonoWAV/30MonoF3.wav,1,2,2,3,,,,,1,0,16,2,0,2,2,5,,,,,,,,,1,0.6353557829861529,,,098,001,2019_Sep_03_1106,MusicAffectPsychophysiology2019,3.0.5,59.95606958110226,
To what extent did the music make you feel ,SAD,30MonoWAV/30MonoF3.wav,1,2,2,3,,,,,1,0,16,2,0,3,3,0,,,,,,,,,1,1.1514216820069123,,,098,001,2019_Sep_03_1106,MusicAffectPsychophysiology2019,3.0.5,59.95606958110226,
To what extent did the music make you feel ,ASHAMED,30MonoWAV/30MonoF3.wav,1,2,2,3,,,,,1,0,16,2,0,4,4,4,,,,,,,,,1,0.7358951200149022,,,098,001,2019_Sep_03_1106,MusicAffectPsychophysiology2019,3.0.5,59.95606958110226,
To what extent did the music make you feel ,FRUSTRATED,30MonoWAV/30MonoF3.wav,1,2,2,3,,,,,1,0,16,2,0,5,5,3,,,,,,,,,1,1.2025997299933806,,,098,001,2019_Sep_03_1106,MusicAffectPsychophysiology2019,3.0.5,59.95606958110226,
To what extent did the music make you feel ,HAPPY,30MonoWAV/30MonoF3.wav,1,2,2,3,,,,,1,0,16,2,0,6,6,6,,,,,,,,,1,1.0864274649939034,,,098,001,2019_Sep_03_1106,MusicAffectPsychophysiology2019,3.0.5,59.95606958110226,
To what extent did the music make you feel ,ACTIVE,30MonoWAV/30MonoF3.wav,1,2,2,3,,,,,1,0,16,2,0,7,7,9,,,,,,,,,3,1.5854796250059735,,,098,001,2019_Sep_03_1106,MusicAffectPsychophysiology2019,3.0.5,59.95606958110226,
To what extent did the music make you feel ,ALERT,30MonoWAV/30MonoF3.wav,1,2,2,3,,,,,1,0,16,2,0,8,8,8,,,,,,,,,3,0.7694376590079628,,,098,001,2019_Sep_03_1106,MusicAffectPsychophysiology2019,3.0.5,59.95606958110226,
To what extent did the music make you feel ,ANXIOUS ,30MonoWAV/30MonoF3.wav,1,2,2,3,,,,,1,0,16,2,0,9,9,1,,,,,,,,,3,1.2683904900040943,,,098,001,2019_Sep_03_1106,MusicAffectPsychophysiology2019,3.0.5,59.95606958110226,
To what extent did the music make you feel ,SCARED,30MonoWAV/30MonoF3.wav,1,2,2,3,,,,,1,0,16,2,0,10,10,11,,,,,,,,,3,2.06897189602023,,,098,001,2019_Sep_03_1106,MusicAffectPsychophysiology2019,3.0.5,59.95606958110226,
To what extent did the music make you feel ,ANGRY,30MonoWAV/30MonoF3.wav,1,2,2,3,,,,,1,0,16,2,0,11,11,2,,,,,,,,,1,2.4858054670039564,,,098,001,2019_Sep_03_1106,MusicAffectPsychophysiology2019,3.0.5,59.95606958110226,
,,30MonoWAV/30MonoF3.wav,1,2,2,3,,,,,1,0,16,2,,,,,,,,,,,,,,,,,098,001,2019_Sep_03_1106,MusicAffectPsychophysiology2019,3.0.5,59.95606958110226,
To what extent did the music make you feel ,ASHAMED,30MonoWAV/30MonoS4.wav,1,1,3,12,,,,,1,1,17,11,0,0,0,4,,,1,2.152716752985725,1,1.53445630898932,2,1.8699178539973218,2,3.9634661150048487,,,098,001,2019_Sep_03_1106,MusicAffectPsychophysiology2019,3.0.5,59.95606958110226,
To what extent did the music make you feel ,EXCITED,30MonoWAV/30MonoS4.wav,1,1,3,12,,,,,1,1,17,11,0,1,1,7,,,,,,,,,1,0.903123775991844,,,098,001,2019_Sep_03_1106,MusicAffectPsychophysiology2019,3.0.5,59.95606958110226,
To what extent did the music make you feel ,ALERT,30MonoWAV/30MonoS4.wav,1,1,3,12,,,,,1,1,17,11,0,2,2,8,,,,,,,,,1,0.9039600270043593,,,098,001,2019_Sep_03_1106,MusicAffectPsychophysiology2019,3.0.5,59.95606958110226,
To what extent did the music make you feel ,ACTIVE,30MonoWAV/30MonoS4.wav,1,1,3,12,,,,,1,1,17,11,0,3,3,9,,,,,,,,,1,0.8336522210156545,,,098,001,2019_Sep_03_1106,MusicAffectPsychophysiology2019,3.0.5,59.95606958110226,
To what extent did the music make you feel ,SCARED,30MonoWAV/30MonoS4.wav,1,1,3,12,,,,,1,1,17,11,0,4,4,11,,,,,,,,,1,1.1026411649945658,,,098,001,2019_Sep_03_1106,MusicAffectPsychophysiology2019,3.0.5,59.95606958110226,
To what extent did the music make you feel ,ANXIOUS ,30MonoWAV/30MonoS4.wav,1,1,3,12,,,,,1,1,17,11,0,5,5,1,,,,,,,,,2,1.3697793020110112,,,098,001,2019_Sep_03_1106,MusicAffectPsychophysiology2019,3.0.5,59.95606958110226,
To what extent did the music make you feel ,SAD,30MonoWAV/30MonoS4.wav,1,1,3,12,,,,,1,1,17,11,0,6,6,0,,,,,,,,,3,0.9197467119956855,,,098,001,2019_Sep_03_1106,MusicAffectPsychophysiology2019,3.0.5,59.95606958110226,
To what extent did the music make you feel ,FRUSTRATED,30MonoWAV/30MonoS4.wav,1,1,3,12,,,,,1,1,17,11,0,7,7,3,,,,,,,,,1,1.3784879290033132,,,098,001,2019_Sep_03_1106,MusicAffectPsychophysiology2019,3.0.5,59.95606958110226,
To what extent did the music make you feel ,HAPPY,30MonoWAV/30MonoS4.wav,1,1,3,12,,,,,1,1,17,11,0,8,8,6,,,,,,,,,1,1.1526510060066357,,,098,001,2019_Sep_03_1106,MusicAffectPsychophysiology2019,3.0.5,59.95606958110226,
To what extent did the music make you feel ,ANGRY,30MonoWAV/30MonoS4.wav,1,1,3,12,,,,,1,1,17,11,0,9,9,2,,,,,,,,,1,1.1698235670046415,,,098,001,2019_Sep_03_1106,MusicAffectPsychophysiology2019,3.0.5,59.95606958110226,
To what extent did the music make you feel ,TENDER,30MonoWAV/30MonoS4.wav,1,1,3,12,,,,,1,1,17,11,0,10,10,10,,,,,,,,,3,1.753997303021606,,,098,001,2019_Sep_03_1106,MusicAffectPsychophysiology2019,3.0.5,59.95606958110226,
To what extent did the music make you feel ,GUILTY,30MonoWAV/30MonoS4.wav,1,1,3,12,,,,,1,1,17,11,0,11,11,5,,,,,,,,,2,1.3192636250169016,,,098,001,2019_Sep_03_1106,MusicAffectPsychophysiology2019,3.0.5,59.95606958110226,
,,30MonoWAV/30MonoS4.wav,1,1,3,12,,,,,1,1,17,11,,,,,,,,,,,,,,,,,098,001,2019_Sep_03_1106,MusicAffectPsychophysiology2019,3.0.5,59.95606958110226,
To what extent did the music make you feel ,SCARED,30MonoWAV/30MonoS2.wav,1,1,3,10,,,,,1,2,18,9,0,0,0,11,,,1,2.6659527079900727,1,2.035951110010501,2,1.201182756019989,1,1.3054343759722542,,,098,001,2019_Sep_03_1106,MusicAffectPsychophysiology2019,3.0.5,59.95606958110226,
To what extent did the music make you feel ,HAPPY,30MonoWAV/30MonoS2.wav,1,1,3,10,,,,,1,2,18,9,0,1,1,6,,,,,,,,,2,1.302612190018408,,,098,001,2019_Sep_03_1106,MusicAffectPsychophysiology2019,3.0.5,59.95606958110226,
To what extent did the music make you feel ,SAD,30MonoWAV/30MonoS2.wav,1,1,3,10,,,,,1,2,18,9,0,2,2,0,,,,,,,,,4,1.969133354985388,,,098,001,2019_Sep_03_1106,MusicAffectPsychophysiology2019,3.0.5,59.95606958110226,
To what extent did the music make you feel ,FRUSTRATED,30MonoWAV/30MonoS2.wav,1,1,3,10,,,,,1,2,18,9,0,3,3,3,,,,,,,,,1,1.7689699589973316,,,098,001,2019_Sep_03_1106,MusicAffectPsychophysiology2019,3.0.5,59.95606958110226,
To what extent did the music make you feel ,ACTIVE,30MonoWAV/30MonoS2.wav,1,1,3,10,,,,,1,2,18,9,0,4,4,9,,,,,,,,,1,1.2690683910041116,,,098,001,2019_Sep_03_1106,MusicAffectPsychophysiology2019,3.0.5,59.95606958110226,
To what extent did the music make you feel ,EXCITED,30MonoWAV/30MonoS2.wav,1,1,3,10,,,,,1,2,18,9,0,5,5,7,,,,,,,,,1,1.120445276988903,,,098,001,2019_Sep_03_1106,MusicAffectPsychophysiology2019,3.0.5,59.95606958110226,
To what extent did the music make you feel ,ANGRY,30MonoWAV/30MonoS2.wav,1,1,3,10,,,,,1,2,18,9,0,6,6,2,,,,,,,,,1,0.8720230589970015,,,098,001,2019_Sep_03_1106,MusicAffectPsychophysiology2019,3.0.5,59.95606958110226,
To what extent did the music make you feel ,TENDER,30MonoWAV/30MonoS2.wav,1,1,3,10,,,,,1,2,18,9,0,7,7,10,,,,,,,,,4,1.5020540940167848,,,098,001,2019_Sep_03_1106,MusicAffectPsychophysiology2019,3.0.5,59.95606958110226,
To what extent did the music make you feel ,GUILTY,30MonoWAV/30MonoS2.wav,1,1,3,10,,,,,1,2,18,9,0,8,8,5,,,,,,,,,1,1.319101872999454,,,098,001,2019_Sep_03_1106,MusicAffectPsychophysiology2019,3.0.5,59.95606958110226,
To what extent did the music make you feel ,ANXIOUS ,30MonoWAV/30MonoS2.wav,1,1,3,10,,,,,1,2,18,9,0,9,9,1,,,,,,,,,2,1.403524584020488,,,098,001,2019_Sep_03_1106,MusicAffectPsychophysiology2019,3.0.5,59.95606958110226,
To what extent did the music make you feel ,ASHAMED,30MonoWAV/30MonoS2.wav,1,1,3,10,,,,,1,2,18,9,0,10,10,4,,,,,,,,,1,0.7851049269957002,,,098,001,2019_Sep_03_1106,MusicAffectPsychophysiology2019,3.0.5,59.95606958110226,
To what extent did the music make you feel ,ALERT,30MonoWAV/30MonoS2.wav,1,1,3,10,,,,,1,2,18,9,0,11,11,8,,,,,,,,,1,1.4863098720088601,,,098,001,2019_Sep_03_1106,MusicAffectPsychophysiology2019,3.0.5,59.95606958110226,
,,30MonoWAV/30MonoS2.wav,1,1,3,10,,,,,1,2,18,9,,,,,,,,,,,,,,,,,098,001,2019_Sep_03_1106,MusicAffectPsychophysiology2019,3.0.5,59.95606958110226,
To what extent did the music make you feel ,ASHAMED,30MonoWAV/30MonoS1.wav,1,1,3,9,,,,,1,3,19,8,0,0,0,4,,,1,4.203212769993115,2,0.968905140995048,2,1.235342739004409,2,1.9174110270105302,,,098,001,2019_Sep_03_1106,MusicAffectPsychophysiology2019,3.0.5,59.95606958110226,
To what extent did the music make you feel ,FRUSTRATED,30MonoWAV/30MonoS1.wav,1,1,3,9,,,,,1,3,19,8,0,1,1,3,,,,,,,,,1,1.0193942920013797,,,098,001,2019_Sep_03_1106,MusicAffectPsychophysiology2019,3.0.5,59.95606958110226,
To what extent did the music make you feel ,ANXIOUS ,30MonoWAV/30MonoS1.wav,1,1,3,9,,,,,1,3,19,8,0,2,2,1,,,,,,,,,3,1.503214378026314,,,098,001,2019_Sep_03_1106,MusicAffectPsychophysiology2019,3.0.5,59.95606958110226,
To what extent did the music make you feel ,ALERT,30MonoWAV/30MonoS1.wav,1,1,3,9,,,,,1,3,19,8,0,3,3,8,,,,,,,,,2,1.3515680679993238,,,098,001,2019_Sep_03_1106,MusicAffectPsychophysiology2019,3.0.5,59.95606958110226,
To what extent did the music make you feel ,ACTIVE,30MonoWAV/30MonoS1.wav,1,1,3,9,,,,,1,3,19,8,0,4,4,9,,,,,,,,,1,1.188103392982157,,,098,001,2019_Sep_03_1106,MusicAffectPsychophysiology2019,3.0.5,59.95606958110226,
To what extent did the music make you feel ,SAD,30MonoWAV/30MonoS1.wav,1,1,3,9,,,,,1,3,19,8,0,5,5,0,,,,,,,,,4,1.6666225270018913,,,098,001,2019_Sep_03_1106,MusicAffectPsychophysiology2019,3.0.5,59.95606958110226,
To what extent did the music make you feel ,SCARED,30MonoWAV/30MonoS1.wav,1,1,3,9,,,,,1,3,19,8,0,6,6,11,,,,,,,,,2,1.483033999975305,,,098,001,2019_Sep_03_1106,MusicAffectPsychophysiology2019,3.0.5,59.95606958110226,
To what extent did the music make you feel ,HAPPY,30MonoWAV/30MonoS1.wav,1,1,3,9,,,,,1,3,19,8,0,7,7,6,,,,,,,,,1,0.9355246479972266,,,098,001,2019_Sep_03_1106,MusicAffectPsychophysiology2019,3.0.5,59.95606958110226,
To what extent did the music make you feel ,GUILTY,30MonoWAV/30MonoS1.wav,1,1,3,9,,,,,1,3,19,8,0,8,8,5,,,,,,,,,2,1.2183061410032678,,,098,001,2019_Sep_03_1106,MusicAffectPsychophysiology2019,3.0.5,59.95606958110226,
To what extent did the music make you feel ,TENDER,30MonoWAV/30MonoS1.wav,1,1,3,9,,,,,1,3,19,8,0,9,9,10,,,,,,,,,1,0.836741239996627,,,098,001,2019_Sep_03_1106,MusicAffectPsychophysiology2019,3.0.5,59.95606958110226,
To what extent did the music make you feel ,ANGRY,30MonoWAV/30MonoS1.wav,1,1,3,9,,,,,1,3,19,8,0,10,10,2,,,,,,,,,1,1.3513219029991888,,,098,001,2019_Sep_03_1106,MusicAffectPsychophysiology2019,3.0.5,59.95606958110226,
To what extent did the music make you feel ,EXCITED,30MonoWAV/30MonoS1.wav,1,1,3,9,,,,,1,3,19,8,0,11,11,7,,,,,,,,,1,1.0351349159900565,,,098,001,2019_Sep_03_1106,MusicAffectPsychophysiology2019,3.0.5,59.95606958110226,
,,30MonoWAV/30MonoS1.wav,1,1,3,9,,,,,1,3,19,8,,,,,,,,,,,,,,,,,098,001,2019_Sep_03_1106,MusicAffectPsychophysiology2019,3.0.5,59.95606958110226,
To what extent did the music make you feel ,TENDER,30MonoWAV/30MonoF1.wav,1,2,2,1,,,,,1,4,20,0,0,0,0,10,,,5,2.0184432359819766,4,1.2360337889986113,2,3.9022836750082206,1,1.2518239940109197,,,098,001,2019_Sep_03_1106,MusicAffectPsychophysiology2019,3.0.5,59.95606958110226,
To what extent did the music make you feel ,ALERT,30MonoWAV/30MonoF1.wav,1,2,2,1,,,,,1,4,20,0,0,1,1,8,,,,,,,,,5,2.202934570988873,,,098,001,2019_Sep_03_1106,MusicAffectPsychophysiology2019,3.0.5,59.95606958110226,
To what extent did the music make you feel ,HAPPY,30MonoWAV/30MonoF1.wav,1,2,2,1,,,,,1,4,20,0,0,2,2,6,,,,,,,,,2,1.3850590770016424,,,098,001,2019_Sep_03_1106,MusicAffectPsychophysiology2019,3.0.5,59.95606958110226,
To what extent did the music make you feel ,GUILTY,30MonoWAV/30MonoF1.wav,1,2,2,1,,,,,1,4,20,0,0,3,3,5,,,,,,,,,1,1.1353713250136934,,,098,001,2019_Sep_03_1106,MusicAffectPsychophysiology2019,3.0.5,59.95606958110226,
To what extent did the music make you feel ,FRUSTRATED,30MonoWAV/30MonoF1.wav,1,2,2,1,,,,,1,4,20,0,0,4,4,3,,,,,,,,,1,1.0368430819944479,,,098,001,2019_Sep_03_1106,MusicAffectPsychophysiology2019,3.0.5,59.95606958110226,
To what extent did the music make you feel ,ANXIOUS ,30MonoWAV/30MonoF1.wav,1,2,2,1,,,,,1,4,20,0,0,5,5,1,,,,,,,,,5,2.0027037950058,,,098,001,2019_Sep_03_1106,MusicAffectPsychophysiology2019,3.0.5,59.95606958110226,
To what extent did the music make you feel ,ASHAMED,30MonoWAV/30MonoF1.wav,1,2,2,1,,,,,1,4,20,0,0,6,6,4,,,,,,,,,1,1.085739211004693,,,098,001,2019_Sep_03_1106,MusicAffectPsychophysiology2019,3.0.5,59.95606958110226,
To what extent did the music make you feel ,ANGRY,30MonoWAV/30MonoF1.wav,1,2,2,1,,,,,1,4,20,0,0,7,7,2,,,,,,,,,1,1.1672893769864459,,,098,001,2019_Sep_03_1106,MusicAffectPsychophysiology2019,3.0.5,59.95606958110226,
To what extent did the music make you feel ,SAD,30MonoWAV/30MonoF1.wav,1,2,2,1,,,,,1,4,20,0,0,8,8,0,,,,,,,,,1,1.3686030120006762,,,098,001,2019_Sep_03_1106,MusicAffectPsychophysiology2019,3.0.5,59.95606958110226,
To what extent did the music make you feel ,SCARED,30MonoWAV/30MonoF1.wav,1,2,2,1,,,,,1,4,20,0,0,9,9,11,,,,,,,,,4,1.5516509099979885,,,098,001,2019_Sep_03_1106,MusicAffectPsychophysiology2019,3.0.5,59.95606958110226,
To what extent did the music make you feel ,ACTIVE,30MonoWAV/30MonoF1.wav,1,2,2,1,,,,,1,4,20,0,0,10,10,9,,,,,,,,,1,1.436080875020707,,,098,001,2019_Sep_03_1106,MusicAffectPsychophysiology2019,3.0.5,59.95606958110226,
To what extent did the music make you feel ,EXCITED,30MonoWAV/30MonoF1.wav,1,2,2,1,,,,,1,4,20,0,0,11,11,7,,,,,,,,,4,2.119900947000133,,,098,001,2019_Sep_03_1106,MusicAffectPsychophysiology2019,3.0.5,59.95606958110226,
,,30MonoWAV/30MonoF1.wav,1,2,2,1,,,,,1,4,20,0,,,,,,,,,,,,,,,,,098,001,2019_Sep_03_1106,MusicAffectPsychophysiology2019,3.0.5,59.95606958110226,
To what extent did the music make you feel ,ANGRY,30MonoWAV/30MonoS3.wav,1,1,3,11,,,,,1,5,21,10,0,0,0,2,,,1,1.8350353149871808,1,1.6704629349987954,2,0.9687562669860199,1,1.0162199389887974,,,098,001,2019_Sep_03_1106,MusicAffectPsychophysiology2019,3.0.5,59.95606958110226,
To what extent did the music make you feel ,ANXIOUS ,30MonoWAV/30MonoS3.wav,1,1,3,11,,,,,1,5,21,10,0,1,1,1,,,,,,,,,2,1.5183482750144321,,,098,001,2019_Sep_03_1106,MusicAffectPsychophysiology2019,3.0.5,59.95606958110226,
To what extent did the music make you feel ,GUILTY,30MonoWAV/30MonoS3.wav,1,1,3,11,,,,,1,5,21,10,0,2,2,5,,,,,,,,,2,1.136005380016286,,,098,001,2019_Sep_03_1106,MusicAffectPsychophysiology2019,3.0.5,59.95606958110226,
To what extent did the music make you feel ,EXCITED,30MonoWAV/30MonoS3.wav,1,1,3,11,,,,,1,5,21,10,0,3,3,7,,,,,,,,,1,1.0197730899963062,,,098,001,2019_Sep_03_1106,MusicAffectPsychophysiology2019,3.0.5,59.95606958110226,
To what extent did the music make you feel ,ACTIVE,30MonoWAV/30MonoS3.wav,1,1,3,11,,,,,1,5,21,10,0,4,4,9,,,,,,,,,1,0.7190682140062563,,,098,001,2019_Sep_03_1106,MusicAffectPsychophysiology2019,3.0.5,59.95606958110226,
To what extent did the music make you feel ,ASHAMED,30MonoWAV/30MonoS3.wav,1,1,3,11,,,,,1,5,21,10,0,5,5,4,,,,,,,,,2,1.086159651982598,,,098,001,2019_Sep_03_1106,MusicAffectPsychophysiology2019,3.0.5,59.95606958110226,
To what extent did the music make you feel ,HAPPY,30MonoWAV/30MonoS3.wav,1,1,3,11,,,,,1,5,21,10,0,6,6,6,,,,,,,,,1,1.668871964997379,,,098,001,2019_Sep_03_1106,MusicAffectPsychophysiology2019,3.0.5,59.95606958110226,
To what extent did the music make you feel ,ALERT,30MonoWAV/30MonoS3.wav,1,1,3,11,,,,,1,5,21,10,0,7,7,8,,,,,,,,,1,1.252666070999112,,,098,001,2019_Sep_03_1106,MusicAffectPsychophysiology2019,3.0.5,59.95606958110226,
To what extent did the music make you feel ,SAD,30MonoWAV/30MonoS3.wav,1,1,3,11,,,,,1,5,21,10,0,8,8,0,,,,,,,,,5,2.7167148849985097,,,098,001,2019_Sep_03_1106,MusicAffectPsychophysiology2019,3.0.5,59.95606958110226,
To what extent did the music make you feel ,SCARED,30MonoWAV/30MonoS3.wav,1,1,3,11,,,,,1,5,21,10,0,9,9,11,,,,,,,,,1,1.4182926149806008,,,098,001,2019_Sep_03_1106,MusicAffectPsychophysiology2019,3.0.5,59.95606958110226,
To what extent did the music make you feel ,FRUSTRATED,30MonoWAV/30MonoS3.wav,1,1,3,11,,,,,1,5,21,10,0,10,10,3,,,,,,,,,1,0.9507414750114549,,,098,001,2019_Sep_03_1106,MusicAffectPsychophysiology2019,3.0.5,59.95606958110226,
To what extent did the music make you feel ,TENDER,30MonoWAV/30MonoS3.wav,1,1,3,11,,,,,1,5,21,10,0,11,11,10,,,,,,,,,3,1.4193440999952145,,,098,001,2019_Sep_03_1106,MusicAffectPsychophysiology2019,3.0.5,59.95606958110226,
,,30MonoWAV/30MonoS3.wav,1,1,3,11,,,,,1,5,21,10,,,,,,,,,,,,,,,,,098,001,2019_Sep_03_1106,MusicAffectPsychophysiology2019,3.0.5,59.95606958110226,
To what extent did the music make you feel ,ANXIOUS ,30MonoWAV/30MonoH4.wav,2,2,1,8,,,,,1,6,22,7,0,0,0,1,,,5,2.518984092021128,5,3.8351855690125376,3,1.2837396230024751,1,1.3302553910179995,,,098,001,2019_Sep_03_1106,MusicAffectPsychophysiology2019,3.0.5,59.95606958110226,
To what extent did the music make you feel ,TENDER,30MonoWAV/30MonoH4.wav,2,2,1,8,,,,,1,6,22,7,0,1,1,10,,,,,,,,,2,1.3850637410068884,,,098,001,2019_Sep_03_1106,MusicAffectPsychophysiology2019,3.0.5,59.95606958110226,
To what extent did the music make you feel ,ALERT,30MonoWAV/30MonoH4.wav,2,2,1,8,,,,,1,6,22,7,0,2,2,8,,,,,,,,,5,2.336093477992108,,,098,001,2019_Sep_03_1106,MusicAffectPsychophysiology2019,3.0.5,59.95606958110226,
To what extent did the music make you feel ,EXCITED,30MonoWAV/30MonoH4.wav,2,2,1,8,,,,,1,6,22,7,0,3,3,7,,,,,,,,,5,0.7337420530093368,,,098,001,2019_Sep_03_1106,MusicAffectPsychophysiology2019,3.0.5,59.95606958110226,
To what extent did the music make you feel ,SAD,30MonoWAV/30MonoH4.wav,2,2,1,8,,,,,1,6,22,7,0,4,4,0,,,,,,,,,1,1.0686587609816343,,,098,001,2019_Sep_03_1106,MusicAffectPsychophysiology2019,3.0.5,59.95606958110226,
To what extent did the music make you feel ,ANGRY,30MonoWAV/30MonoH4.wav,2,2,1,8,,,,,1,6,22,7,0,5,5,2,,,,,,,,,1,0.9016516720002983,,,098,001,2019_Sep_03_1106,MusicAffectPsychophysiology2019,3.0.5,59.95606958110226,
To what extent did the music make you feel ,HAPPY,30MonoWAV/30MonoH4.wav,2,2,1,8,,,,,1,6,22,7,0,6,6,6,,,,,,,,,4,1.401545952016022,,,098,001,2019_Sep_03_1106,MusicAffectPsychophysiology2019,3.0.5,59.95606958110226,
To what extent did the music make you feel ,ASHAMED,30MonoWAV/30MonoH4.wav,2,2,1,8,,,,,1,6,22,7,0,7,7,4,,,,,,,,,1,1.0361604119825643,,,098,001,2019_Sep_03_1106,MusicAffectPsychophysiology2019,3.0.5,59.95606958110226,
To what extent did the music make you feel ,GUILTY,30MonoWAV/30MonoH4.wav,2,2,1,8,,,,,1,6,22,7,0,8,8,5,,,,,,,,,1,0.8190980299841613,,,098,001,2019_Sep_03_1106,MusicAffectPsychophysiology2019,3.0.5,59.95606958110226,
To what extent did the music make you feel ,FRUSTRATED,30MonoWAV/30MonoH4.wav,2,2,1,8,,,,,1,6,22,7,0,9,9,3,,,,,,,,,1,0.7034025070024654,,,098,001,2019_Sep_03_1106,MusicAffectPsychophysiology2019,3.0.5,59.95606958110226,
To what extent did the music make you feel ,ACTIVE,30MonoWAV/30MonoH4.wav,2,2,1,8,,,,,1,6,22,7,0,10,10,9,,,,,,,,,4,1.4690367649891414,,,098,001,2019_Sep_03_1106,MusicAffectPsychophysiology2019,3.0.5,59.95606958110226,
To what extent did the music make you feel ,SCARED,30MonoWAV/30MonoH4.wav,2,2,1,8,,,,,1,6,22,7,0,11,11,11,,,,,,,,,1,0.8670346599828918,,,098,001,2019_Sep_03_1106,MusicAffectPsychophysiology2019,3.0.5,59.95606958110226,
,,30MonoWAV/30MonoH4.wav,2,2,1,8,,,,,1,6,22,7,,,,,,,,,,,,,,,,,098,001,2019_Sep_03_1106,MusicAffectPsychophysiology2019,3.0.5,59.95606958110226,
To what extent did the music make you feel ,TENDER,30MonoWAV/30MonoF2.wav,1,2,2,2,,,,,1,7,23,1,0,0,0,10,,,1,2.5532769930141512,1,0.8720939809863921,1,0.5856803380011115,1,1.1055121989920735,,,098,001,2019_Sep_03_1106,MusicAffectPsychophysiology2019,3.0.5,59.95606958110226,
To what extent did the music make you feel ,SCARED,30MonoWAV/30MonoF2.wav,1,2,2,2,,,,,1,7,23,1,0,1,1,11,,,,,,,,,4,1.5180812500184402,,,098,001,2019_Sep_03_1106,MusicAffectPsychophysiology2019,3.0.5,59.95606958110226,
To what extent did the music make you feel ,EXCITED,30MonoWAV/30MonoF2.wav,1,2,2,2,,,,,1,7,23,1,0,2,2,7,,,,,,,,,2,1.4355678020219784,,,098,001,2019_Sep_03_1106,MusicAffectPsychophysiology2019,3.0.5,59.95606958110226,
To what extent did the music make you feel ,GUILTY,30MonoWAV/30MonoF2.wav,1,2,2,2,,,,,1,7,23,1,0,3,3,5,,,,,,,,,1,1.7338677649968304,,,098,001,2019_Sep_03_1106,MusicAffectPsychophysiology2019,3.0.5,59.95606958110226,
To what extent did the music make you feel ,ANGRY,30MonoWAV/30MonoF2.wav,1,2,2,2,,,,,1,7,23,1,0,4,4,2,,,,,,,,,1,0.9022580449818633,,,098,001,2019_Sep_03_1106,MusicAffectPsychophysiology2019,3.0.5,59.95606958110226,
To what extent did the music make you feel ,ALERT,30MonoWAV/30MonoF2.wav,1,2,2,2,,,,,1,7,23,1,0,5,5,8,,,,,,,,,4,1.4354103679943364,,,098,001,2019_Sep_03_1106,MusicAffectPsychophysiology2019,3.0.5,59.95606958110226,
To what extent did the music make you feel ,ACTIVE,30MonoWAV/30MonoF2.wav,1,2,2,2,,,,,1,7,23,1,0,6,6,9,,,,,,,,,3,1.1532245879934635,,,098,001,2019_Sep_03_1106,MusicAffectPsychophysiology2019,3.0.5,59.95606958110226,
To what extent did the music make you feel ,HAPPY,30MonoWAV/30MonoF2.wav,1,2,2,2,,,,,1,7,23,1,0,7,7,6,,,,,,,,,1,1.0017939890094567,,,098,001,2019_Sep_03_1106,MusicAffectPsychophysiology2019,3.0.5,59.95606958110226,
To what extent did the music make you feel ,ANXIOUS ,30MonoWAV/30MonoF2.wav,1,2,2,2,,,,,1,7,23,1,0,8,8,1,,,,,,,,,5,1.3186041790177114,,,098,001,2019_Sep_03_1106,MusicAffectPsychophysiology2019,3.0.5,59.95606958110226,
To what extent did the music make you feel ,ASHAMED,30MonoWAV/30MonoF2.wav,1,2,2,2,,,,,1,7,23,1,0,9,9,4,,,,,,,,,1,1.1692170549940784,,,098,001,2019_Sep_03_1106,MusicAffectPsychophysiology2019,3.0.5,59.95606958110226,
To what extent did the music make you feel ,FRUSTRATED,30MonoWAV/30MonoF2.wav,1,2,2,2,,,,,1,7,23,1,0,10,10,3,,,,,,,,,1,0.9874994049896486,,,098,001,2019_Sep_03_1106,MusicAffectPsychophysiology2019,3.0.5,59.95606958110226,
To what extent did the music make you feel ,SAD,30MonoWAV/30MonoF2.wav,1,2,2,2,,,,,1,7,23,1,0,11,11,0,,,,,,,,,2,1.167757293995237,,,098,001,2019_Sep_03_1106,MusicAffectPsychophysiology2019,3.0.5,59.95606958110226,
,,30MonoWAV/30MonoF2.wav,1,2,2,2,,,,,1,7,23,1,,,,,,,,,,,,,,,,,098,001,2019_Sep_03_1106,MusicAffectPsychophysiology2019,3.0.5,59.95606958110226,
To what extent did the music make you feel ,HAPPY,30MonoWAV/30MonoH3.wav,2,2,1,7,,,,,1,8,24,6,0,0,0,6,,,5,1.8505853800161276,5,1.0696775070100557,4,1.16911018799874,4,1.4827161809953395,,,098,001,2019_Sep_03_1106,MusicAffectPsychophysiology2019,3.0.5,59.95606958110226,
To what extent did the music make you feel ,SCARED,30MonoWAV/30MonoH3.wav,2,2,1,7,,,,,1,8,24,6,0,1,1,11,,,,,,,,,1,0.9862718090007547,,,098,001,2019_Sep_03_1106,MusicAffectPsychophysiology2019,3.0.5,59.95606958110226,
To what extent did the music make you feel ,TENDER,30MonoWAV/30MonoH3.wav,2,2,1,7,,,,,1,8,24,6,0,2,2,10,,,,,,,,,3,1.469934295018902,,,098,001,2019_Sep_03_1106,MusicAffectPsychophysiology2019,3.0.5,59.95606958110226,
To what extent did the music make you feel ,SAD,30MonoWAV/30MonoH3.wav,2,2,1,7,,,,,1,8,24,6,0,3,3,0,,,,,,,,,1,1.051877001998946,,,098,001,2019_Sep_03_1106,MusicAffectPsychophysiology2019,3.0.5,59.95606958110226,
To what extent did the music make you feel ,ANXIOUS ,30MonoWAV/30MonoH3.wav,2,2,1,7,,,,,1,8,24,6,0,4,4,1,,,,,,,,,1,1.0848699529888108,,,098,001,2019_Sep_03_1106,MusicAffectPsychophysiology2019,3.0.5,59.95606958110226,
To what extent did the music make you feel ,GUILTY,30MonoWAV/30MonoH3.wav,2,2,1,7,,,,,1,8,24,6,0,5,5,5,,,,,,,,,1,0.7027557629917283,,,098,001,2019_Sep_03_1106,MusicAffectPsychophysiology2019,3.0.5,59.95606958110226,
To what extent did the music make you feel ,ACTIVE,30MonoWAV/30MonoH3.wav,2,2,1,7,,,,,1,8,24,6,0,6,6,9,,,,,,,,,4,1.7035488429828547,,,098,001,2019_Sep_03_1106,MusicAffectPsychophysiology2019,3.0.5,59.95606958110226,
To what extent did the music make you feel ,EXCITED,30MonoWAV/30MonoH3.wav,2,2,1,7,,,,,1,8,24,6,0,7,7,7,,,,,,,,,4,2.068842926004436,,,098,001,2019_Sep_03_1106,MusicAffectPsychophysiology2019,3.0.5,59.95606958110226,
To what extent did the music make you feel ,ASHAMED,30MonoWAV/30MonoH3.wav,2,2,1,7,,,,,1,8,24,6,0,8,8,4,,,,,,,,,1,1.3854951960092876,,,098,001,2019_Sep_03_1106,MusicAffectPsychophysiology2019,3.0.5,59.95606958110226,
To what extent did the music make you feel ,ALERT,30MonoWAV/30MonoH3.wav,2,2,1,7,,,,,1,8,24,6,0,9,9,8,,,,,,,,,5,1.3694513779773843,,,098,001,2019_Sep_03_1106,MusicAffectPsychophysiology2019,3.0.5,59.95606958110226,
To what extent did the music make you feel ,ANGRY,30MonoWAV/30MonoH3.wav,2,2,1,7,,,,,1,8,24,6,0,10,10,2,,,,,,,,,1,1.1699464110133704,,,098,001,2019_Sep_03_1106,MusicAffectPsychophysiology2019,3.0.5,59.95606958110226,
To what extent did the music make you feel ,FRUSTRATED,30MonoWAV/30MonoH3.wav,2,2,1,7,,,,,1,8,24,6,0,11,11,3,,,,,,,,,1,1.2026643800199963,,,098,001,2019_Sep_03_1106,MusicAffectPsychophysiology2019,3.0.5,59.95606958110226,
,,30MonoWAV/30MonoH3.wav,2,2,1,7,,,,,1,8,24,6,,,,,,,,,,,,,,,,,098,001,2019_Sep_03_1106,MusicAffectPsychophysiology2019,3.0.5,59.95606958110226,
To what extent did the music make you feel ,EXCITED,30MonoWAV/30MonoH2.wav,2,2,1,6,,,,,1,9,25,5,0,0,0,7,,,4,2.7999190220143646,4,1.3192624009971041,3,1.2661407419946045,4,1.1258993619994726,,,098,001,2019_Sep_03_1106,MusicAffectPsychophysiology2019,3.0.5,59.95606958110226,
To what extent did the music make you feel ,SAD,30MonoWAV/30MonoH2.wav,2,2,1,6,,,,,1,9,25,5,0,1,1,0,,,,,,,,,1,0.9199775409942959,,,098,001,2019_Sep_03_1106,MusicAffectPsychophysiology2019,3.0.5,59.95606958110226,
To what extent did the music make you feel ,ANXIOUS ,30MonoWAV/30MonoH2.wav,2,2,1,6,,,,,1,9,25,5,0,2,2,1,,,,,,,,,1,0.6839687729952857,,,098,001,2019_Sep_03_1106,MusicAffectPsychophysiology2019,3.0.5,59.95606958110226,
To what extent did the music make you feel ,GUILTY,30MonoWAV/30MonoH2.wav,2,2,1,6,,,,,1,9,25,5,0,3,3,5,,,,,,,,,1,0.6006366919900756,,,098,001,2019_Sep_03_1106,MusicAffectPsychophysiology2019,3.0.5,59.95606958110226,
To what extent did the music make you feel ,SCARED,30MonoWAV/30MonoH2.wav,2,2,1,6,,,,,1,9,25,5,0,4,4,11,,,,,,,,,1,0.7359333730128128,,,098,001,2019_Sep_03_1106,MusicAffectPsychophysiology2019,3.0.5,59.95606958110226,
To what extent did the music make you feel ,HAPPY,30MonoWAV/30MonoH2.wav,2,2,1,6,,,,,1,9,25,5,0,5,5,6,,,,,,,,,4,1.6360286569979507,,,098,001,2019_Sep_03_1106,MusicAffectPsychophysiology2019,3.0.5,59.95606958110226,
To what extent did the music make you feel ,ALERT,30MonoWAV/30MonoH2.wav,2,2,1,6,,,,,1,9,25,5,0,6,6,8,,,,,,,,,4,1.1532112229906488,,,098,001,2019_Sep_03_1106,MusicAffectPsychophysiology2019,3.0.5,59.95606958110226,
To what extent did the music make you feel ,TENDER,30MonoWAV/30MonoH2.wav,2,2,1,6,,,,,1,9,25,5,0,7,7,10,,,,,,,,,1,1.2523712739930488,,,098,001,2019_Sep_03_1106,MusicAffectPsychophysiology2019,3.0.5,59.95606958110226,
To what extent did the music make you feel ,ASHAMED,30MonoWAV/30MonoH2.wav,2,2,1,6,,,,,1,9,25,5,0,8,8,4,,,,,,,,,1,0.869511277996935,,,098,001,2019_Sep_03_1106,MusicAffectPsychophysiology2019,3.0.5,59.95606958110226,
To what extent did the music make you feel ,ACTIVE,30MonoWAV/30MonoH2.wav,2,2,1,6,,,,,1,9,25,5,0,9,9,9,,,,,,,,,4,1.5188838689937256,,,098,001,2019_Sep_03_1106,MusicAffectPsychophysiology2019,3.0.5,59.95606958110226,
To what extent did the music make you feel ,ANGRY,30MonoWAV/30MonoH2.wav,2,2,1,6,,,,,1,9,25,5,0,10,10,2,,,,,,,,,1,3.4196984879963566,,,098,001,2019_Sep_03_1106,MusicAffectPsychophysiology2019,3.0.5,59.95606958110226,
To what extent did the music make you feel ,FRUSTRATED,30MonoWAV/30MonoH2.wav,2,2,1,6,,,,,1,9,25,5,0,11,11,3,,,,,,,,,1,1.6582922919769771,,,098,001,2019_Sep_03_1106,MusicAffectPsychophysiology2019,3.0.5,59.95606958110226,
,,30MonoWAV/30MonoH2.wav,2,2,1,6,,,,,1,9,25,5,,,,,,,,,,,,,,,,,098,001,2019_Sep_03_1106,MusicAffectPsychophysiology2019,3.0.5,59.95606958110226,
To what extent did the music make you feel ,TENDER,30MonoWAV/30MonoT1.wav,2,1,4,13,,,,,1,10,26,12,0,0,0,10,,,2,2.019436650996795,2,1.7525510169798508,3,1.1017963440099265,4,1.6354802139976528,,,098,001,2019_Sep_03_1106,MusicAffectPsychophysiology2019,3.0.5,59.95606958110226,
To what extent did the music make you feel ,ASHAMED,30MonoWAV/30MonoT1.wav,2,1,4,13,,,,,1,10,26,12,0,1,1,4,,,,,,,,,1,1.018804180988809,,,098,001,2019_Sep_03_1106,MusicAffectPsychophysiology2019,3.0.5,59.95606958110226,
To what extent did the music make you feel ,GUILTY,30MonoWAV/30MonoT1.wav,2,1,4,13,,,,,1,10,26,12,0,2,2,5,,,,,,,,,1,0.8687568870082032,,,098,001,2019_Sep_03_1106,MusicAffectPsychophysiology2019,3.0.5,59.95606958110226,
To what extent did the music make you feel ,HAPPY,30MonoWAV/30MonoT1.wav,2,1,4,13,,,,,1,10,26,12,0,3,3,6,,,,,,,,,2,1.6854803519963752,,,098,001,2019_Sep_03_1106,MusicAffectPsychophysiology2019,3.0.5,59.95606958110226,
To what extent did the music make you feel ,SAD,30MonoWAV/30MonoT1.wav,2,1,4,13,,,,,1,10,26,12,0,4,4,0,,,,,,,,,4,1.6858495629858226,,,098,001,2019_Sep_03_1106,MusicAffectPsychophysiology2019,3.0.5,59.95606958110226,
To what extent did the music make you feel ,ACTIVE,30MonoWAV/30MonoT1.wav,2,1,4,13,,,,,1,10,26,12,0,5,5,9,,,,,,,,,1,1.268718352977885,,,098,001,2019_Sep_03_1106,MusicAffectPsychophysiology2019,3.0.5,59.95606958110226,
To what extent did the music make you feel ,SCARED,30MonoWAV/30MonoT1.wav,2,1,4,13,,,,,1,10,26,12,0,6,6,11,,,,,,,,,1,1.2345641399733722,,,098,001,2019_Sep_03_1106,MusicAffectPsychophysiology2019,3.0.5,59.95606958110226,
To what extent did the music make you feel ,EXCITED,30MonoWAV/30MonoT1.wav,2,1,4,13,,,,,1,10,26,12,0,7,7,7,,,,,,,,,1,1.1526085029763635,,,098,001,2019_Sep_03_1106,MusicAffectPsychophysiology2019,3.0.5,59.95606958110226,
To what extent did the music make you feel ,ALERT,30MonoWAV/30MonoT1.wav,2,1,4,13,,,,,1,10,26,12,0,8,8,8,,,,,,,,,1,1.1184459440119099,,,098,001,2019_Sep_03_1106,MusicAffectPsychophysiology2019,3.0.5,59.95606958110226,
To what extent did the music make you feel ,ANXIOUS ,30MonoWAV/30MonoT1.wav,2,1,4,13,,,,,1,10,26,12,0,9,9,1,,,,,,,,,1,1.6706568039953709,,,098,001,2019_Sep_03_1106,MusicAffectPsychophysiology2019,3.0.5,59.95606958110226,
To what extent did the music make you feel ,ANGRY,30MonoWAV/30MonoT1.wav,2,1,4,13,,,,,1,10,26,12,0,10,10,2,,,,,,,,,1,1.8354225789953489,,,098,001,2019_Sep_03_1106,MusicAffectPsychophysiology2019,3.0.5,59.95606958110226,
To what extent did the music make you feel ,FRUSTRATED,30MonoWAV/30MonoT1.wav,2,1,4,13,,,,,1,10,26,12,0,11,11,3,,,,,,,,,1,3.7037772680050693,,,098,001,2019_Sep_03_1106,MusicAffectPsychophysiology2019,3.0.5,59.95606958110226,
,,30MonoWAV/30MonoT1.wav,2,1,4,13,,,,,1,10,26,12,,,,,,,,,,,,,,,,,098,001,2019_Sep_03_1106,MusicAffectPsychophysiology2019,3.0.5,59.95606958110226,
To what extent did the music make you feel ,ANXIOUS ,30MonoWAV/30MonoT2.wav,2,1,4,14,,,,,1,11,27,13,0,0,0,1,,,3,3.5848953730019275,3,1.8013034799951129,4,1.6530122449912596,1,1.4955523629905656,,,098,001,2019_Sep_03_1106,MusicAffectPsychophysiology2019,3.0.5,59.95606958110226,
To what extent did the music make you feel ,FRUSTRATED,30MonoWAV/30MonoT2.wav,2,1,4,14,,,,,1,11,27,13,0,1,1,3,,,,,,,,,1,0.919303539005341,,,098,001,2019_Sep_03_1106,MusicAffectPsychophysiology2019,3.0.5,59.95606958110226,
To what extent did the music make you feel ,ALERT,30MonoWAV/30MonoT2.wav,2,1,4,14,,,,,1,11,27,13,0,2,2,8,,,,,,,,,3,1.5190409790084232,,,098,001,2019_Sep_03_1106,MusicAffectPsychophysiology2019,3.0.5,59.95606958110226,
To what extent did the music make you feel ,HAPPY,30MonoWAV/30MonoT2.wav,2,1,4,14,,,,,1,11,27,13,0,3,3,6,,,,,,,,,4,1.71904417098267,,,098,001,2019_Sep_03_1106,MusicAffectPsychophysiology2019,3.0.5,59.95606958110226,
To what extent did the music make you feel ,ANGRY,30MonoWAV/30MonoT2.wav,2,1,4,14,,,,,1,11,27,13,0,4,4,2,,,,,,,,,1,1.6523904640052933,,,098,001,2019_Sep_03_1106,MusicAffectPsychophysiology2019,3.0.5,59.95606958110226,
To what extent did the music make you feel ,SAD,30MonoWAV/30MonoT2.wav,2,1,4,14,,,,,1,11,27,13,0,5,5,0,,,,,,,,,3,1.3038638019934297,,,098,001,2019_Sep_03_1106,MusicAffectPsychophysiology2019,3.0.5,59.95606958110226,
To what extent did the music make you feel ,ACTIVE,30MonoWAV/30MonoT2.wav,2,1,4,14,,,,,1,11,27,13,0,6,6,9,,,,,,,,,1,2.551382158009801,,,098,001,2019_Sep_03_1106,MusicAffectPsychophysiology2019,3.0.5,59.95606958110226,
To what extent did the music make you feel ,GUILTY,30MonoWAV/30MonoT2.wav,2,1,4,14,,,,,1,11,27,13,0,7,7,5,,,,,,,,,1,0.9541923789947759,,,098,001,2019_Sep_03_1106,MusicAffectPsychophysiology2019,3.0.5,59.95606958110226,
To what extent did the music make you feel ,EXCITED,30MonoWAV/30MonoT2.wav,2,1,4,14,,,,,1,11,27,13,0,8,8,7,,,,,,,,,2,1.1774478400184307,,,098,001,2019_Sep_03_1106,MusicAffectPsychophysiology2019,3.0.5,59.95606958110226,
To what extent did the music make you feel ,SCARED,30MonoWAV/30MonoT2.wav,2,1,4,14,,,,,1,11,27,13,0,9,9,11,,,,,,,,,1,1.2519055099983234,,,098,001,2019_Sep_03_1106,MusicAffectPsychophysiology2019,3.0.5,59.95606958110226,
To what extent did the music make you feel ,ASHAMED,30MonoWAV/30MonoT2.wav,2,1,4,14,,,,,1,11,27,13,0,10,10,4,,,,,,,,,1,2.3536123119993135,,,098,001,2019_Sep_03_1106,MusicAffectPsychophysiology2019,3.0.5,59.95606958110226,
To what extent did the music make you feel ,TENDER,30MonoWAV/30MonoT2.wav,2,1,4,14,,,,,1,11,27,13,0,11,11,10,,,,,,,,,3,2.3183874159876723,,,098,001,2019_Sep_03_1106,MusicAffectPsychophysiology2019,3.0.5,59.95606958110226,
,,30MonoWAV/30MonoT2.wav,2,1,4,14,,,,,1,11,27,13,,,,,,,,,,,,,,,,,098,001,2019_Sep_03_1106,MusicAffectPsychophysiology2019,3.0.5,59.95606958110226,
To what extent did the music make you feel ,SAD,30MonoWAV/30MonoT3.wav,2,1,4,15,,,,,1,12,28,14,0,0,0,0,,,1,2.136390311992727,3,2.1184021639928687,4,1.2691202299902216,3,1.5052995370060671,,,098,001,2019_Sep_03_1106,MusicAffectPsychophysiology2019,3.0.5,59.95606958110226,
To what extent did the music make you feel ,ACTIVE,30MonoWAV/30MonoT3.wav,2,1,4,15,,,,,1,12,28,14,0,1,1,9,,,,,,,,,1,1.0527341419947334,,,098,001,2019_Sep_03_1106,MusicAffectPsychophysiology2019,3.0.5,59.95606958110226,
To what extent did the music make you feel ,EXCITED,30MonoWAV/30MonoT3.wav,2,1,4,15,,,,,1,12,28,14,0,2,2,7,,,,,,,,,1,1.1189362689910922,,,098,001,2019_Sep_03_1106,MusicAffectPsychophysiology2019,3.0.5,59.95606958110226,
To what extent did the music make you feel ,GUILTY,30MonoWAV/30MonoT3.wav,2,1,4,15,,,,,1,12,28,14,0,3,3,5,,,,,,,,,1,0.7528342570003588,,,098,001,2019_Sep_03_1106,MusicAffectPsychophysiology2019,3.0.5,59.95606958110226,
To what extent did the music make you feel ,HAPPY,30MonoWAV/30MonoT3.wav,2,1,4,15,,,,,1,12,28,14,0,4,4,6,,,,,,,,,2,2.202660973998718,,,098,001,2019_Sep_03_1106,MusicAffectPsychophysiology2019,3.0.5,59.95606958110226,
To what extent did the music make you feel ,ANGRY,30MonoWAV/30MonoT3.wav,2,1,4,15,,,,,1,12,28,14,0,5,5,2,,,,,,,,,1,0.9706819919811096,,,098,001,2019_Sep_03_1106,MusicAffectPsychophysiology2019,3.0.5,59.95606958110226,
To what extent did the music make you feel ,FRUSTRATED,30MonoWAV/30MonoT3.wav,2,1,4,15,,,,,1,12,28,14,0,6,6,3,,,,,,,,,1,0.900636994978413,,,098,001,2019_Sep_03_1106,MusicAffectPsychophysiology2019,3.0.5,59.95606958110226,
To what extent did the music make you feel ,ASHAMED,30MonoWAV/30MonoT3.wav,2,1,4,15,,,,,1,12,28,14,0,7,7,4,,,,,,,,,1,0.9192653509962838,,,098,001,2019_Sep_03_1106,MusicAffectPsychophysiology2019,3.0.5,59.95606958110226,
To what extent did the music make you feel ,ALERT,30MonoWAV/30MonoT3.wav,2,1,4,15,,,,,1,12,28,14,0,8,8,8,,,,,,,,,1,1.501893303997349,,,098,001,2019_Sep_03_1106,MusicAffectPsychophysiology2019,3.0.5,59.95606958110226,
To what extent did the music make you feel ,SCARED,30MonoWAV/30MonoT3.wav,2,1,4,15,,,,,1,12,28,14,0,9,9,11,,,,,,,,,1,1.0018873870139942,,,098,001,2019_Sep_03_1106,MusicAffectPsychophysiology2019,3.0.5,59.95606958110226,
To what extent did the music make you feel ,TENDER,30MonoWAV/30MonoT3.wav,2,1,4,15,,,,,1,12,28,14,0,10,10,10,,,,,,,,,5,2.3688697629841045,,,098,001,2019_Sep_03_1106,MusicAffectPsychophysiology2019,3.0.5,59.95606958110226,
To what extent did the music make you feel ,ANXIOUS ,30MonoWAV/30MonoT3.wav,2,1,4,15,,,,,1,12,28,14,0,11,11,1,,,,,,,,,1,1.2204548209847417,,,098,001,2019_Sep_03_1106,MusicAffectPsychophysiology2019,3.0.5,59.95606958110226,
,,30MonoWAV/30MonoT3.wav,2,1,4,15,,,,,1,12,28,14,,,,,,,,,,,,,,,,,098,001,2019_Sep_03_1106,MusicAffectPsychophysiology2019,3.0.5,59.95606958110226,
To what extent did the music make you feel ,HAPPY,30MonoWAV/30MonoH1.wav,2,2,1,5,,,,,1,13,29,4,0,0,0,6,,,4,2.4187855899799615,4,1.1348395280074328,4,1.5523579400032759,4,1.3150221749965567,,,098,001,2019_Sep_03_1106,MusicAffectPsychophysiology2019,3.0.5,59.95606958110226,
To what extent did the music make you feel ,ANGRY,30MonoWAV/30MonoH1.wav,2,2,1,5,,,,,1,13,29,4,0,1,1,2,,,,,,,,,1,1.002348765003262,,,098,001,2019_Sep_03_1106,MusicAffectPsychophysiology2019,3.0.5,59.95606958110226,
To what extent did the music make you feel ,ANXIOUS ,30MonoWAV/30MonoH1.wav,2,2,1,5,,,,,1,13,29,4,0,2,2,1,,,,,,,,,2,1.6016597929992713,,,098,001,2019_Sep_03_1106,MusicAffectPsychophysiology2019,3.0.5,59.95606958110226,
To what extent did the music make you feel ,GUILTY,30MonoWAV/30MonoH1.wav,2,2,1,5,,,,,1,13,29,4,0,3,3,5,,,,,,,,,1,0.8356216729735024,,,098,001,2019_Sep_03_1106,MusicAffectPsychophysiology2019,3.0.5,59.95606958110226,
To what extent did the music make you feel ,ASHAMED,30MonoWAV/30MonoH1.wav,2,2,1,5,,,,,1,13,29,4,0,4,4,4,,,,,,,,,1,0.8669084590219427,,,098,001,2019_Sep_03_1106,MusicAffectPsychophysiology2019,3.0.5,59.95606958110226,
To what extent did the music make you feel ,EXCITED,30MonoWAV/30MonoH1.wav,2,2,1,5,,,,,1,13,29,4,0,5,5,7,,,,,,,,,4,1.5027918580162805,,,098,001,2019_Sep_03_1106,MusicAffectPsychophysiology2019,3.0.5,59.95606958110226,
To what extent did the music make you feel ,SAD,30MonoWAV/30MonoH1.wav,2,2,1,5,,,,,1,13,29,4,0,6,6,0,,,,,,,,,1,0.9187487569870427,,,098,001,2019_Sep_03_1106,MusicAffectPsychophysiology2019,3.0.5,59.95606958110226,
To what extent did the music make you feel ,SCARED,30MonoWAV/30MonoH1.wav,2,2,1,5,,,,,1,13,29,4,0,7,7,11,,,,,,,,,1,0.933859983982984,,,098,001,2019_Sep_03_1106,MusicAffectPsychophysiology2019,3.0.5,59.95606958110226,
To what extent did the music make you feel ,TENDER,30MonoWAV/30MonoH1.wav,2,2,1,5,,,,,1,13,29,4,0,8,8,10,,,,,,,,,3,1.4529338629799895,,,098,001,2019_Sep_03_1106,MusicAffectPsychophysiology2019,3.0.5,59.95606958110226,
To what extent did the music make you feel ,FRUSTRATED,30MonoWAV/30MonoH1.wav,2,2,1,5,,,,,1,13,29,4,0,9,9,3,,,,,,,,,1,0.9284377449948806,,,098,001,2019_Sep_03_1106,MusicAffectPsychophysiology2019,3.0.5,59.95606958110226,
To what extent did the music make you feel ,ACTIVE,30MonoWAV/30MonoH1.wav,2,2,1,5,,,,,1,13,29,4,0,10,10,9,,,,,,,,,4,1.7526304560014978,,,098,001,2019_Sep_03_1106,MusicAffectPsychophysiology2019,3.0.5,59.95606958110226,
To what extent did the music make you feel ,ALERT,30MonoWAV/30MonoH1.wav,2,2,1,5,,,,,1,13,29,4,0,11,11,8,,,,,,,,,5,1.4856023409811314,,,098,001,2019_Sep_03_1106,MusicAffectPsychophysiology2019,3.0.5,59.95606958110226,
,,30MonoWAV/30MonoH1.wav,2,2,1,5,,,,,1,13,29,4,,,,,,,,,,,,,,,,,098,001,2019_Sep_03_1106,MusicAffectPsychophysiology2019,3.0.5,59.95606958110226,
To what extent did the music make you feel ,ASHAMED,30MonoWAV/30MonoF4.wav,1,2,2,4,,,,,1,14,30,3,0,0,0,4,,,5,5.836695804988267,2,2.7191324009909295,2,1.0683434329985175,1,1.040239814989036,,,098,001,2019_Sep_03_1106,MusicAffectPsychophysiology2019,3.0.5,59.95606958110226,
To what extent did the music make you feel ,TENDER,30MonoWAV/30MonoF4.wav,1,2,2,4,,,,,1,14,30,3,0,1,1,10,,,,,,,,,1,1.0532721729832701,,,098,001,2019_Sep_03_1106,MusicAffectPsychophysiology2019,3.0.5,59.95606958110226,
To what extent did the music make you feel ,HAPPY,30MonoWAV/30MonoF4.wav,1,2,2,4,,,,,1,14,30,3,0,2,2,6,,,,,,,,,1,0.9370578649977688,,,098,001,2019_Sep_03_1106,MusicAffectPsychophysiology2019,3.0.5,59.95606958110226,
To what extent did the music make you feel ,GUILTY,30MonoWAV/30MonoF4.wav,1,2,2,4,,,,,1,14,30,3,0,3,3,5,,,,,,,,,1,0.8681200960127171,,,098,001,2019_Sep_03_1106,MusicAffectPsychophysiology2019,3.0.5,59.95606958110226,
To what extent did the music make you feel ,SCARED,30MonoWAV/30MonoF4.wav,1,2,2,4,,,,,1,14,30,3,0,4,4,11,,,,,,,,,4,1.9688922919740435,,,098,001,2019_Sep_03_1106,MusicAffectPsychophysiology2019,3.0.5,59.95606958110226,
To what extent did the music make you feel ,ALERT,30MonoWAV/30MonoF4.wav,1,2,2,4,,,,,1,14,30,3,0,5,5,8,,,,,,,,,4,0.835622982995119,,,098,001,2019_Sep_03_1106,MusicAffectPsychophysiology2019,3.0.5,59.95606958110226,
To what extent did the music make you feel ,ANXIOUS ,30MonoWAV/30MonoF4.wav,1,2,2,4,,,,,1,14,30,3,0,6,6,1,,,,,,,,,5,1.1839966840052512,,,098,001,2019_Sep_03_1106,MusicAffectPsychophysiology2019,3.0.5,59.95606958110226,
To what extent did the music make you feel ,ANGRY,30MonoWAV/30MonoF4.wav,1,2,2,4,,,,,1,14,30,3,0,7,7,2,,,,,,,,,1,1.3690872650186066,,,098,001,2019_Sep_03_1106,MusicAffectPsychophysiology2019,3.0.5,59.95606958110226,
To what extent did the music make you feel ,FRUSTRATED,30MonoWAV/30MonoF4.wav,1,2,2,4,,,,,1,14,30,3,0,8,8,3,,,,,,,,,1,0.6839956379844807,,,098,001,2019_Sep_03_1106,MusicAffectPsychophysiology2019,3.0.5,59.95606958110226,
To what extent did the music make you feel ,SAD,30MonoWAV/30MonoF4.wav,1,2,2,4,,,,,1,14,30,3,0,9,9,0,,,,,,,,,2,1.62363213498611,,,098,001,2019_Sep_03_1106,MusicAffectPsychophysiology2019,3.0.5,59.95606958110226,
To what extent did the music make you feel ,ACTIVE,30MonoWAV/30MonoF4.wav,1,2,2,4,,,,,1,14,30,3,0,10,10,9,,,,,,,,,4,1.7035686470044311,,,098,001,2019_Sep_03_1106,MusicAffectPsychophysiology2019,3.0.5,59.95606958110226,
To what extent did the music make you feel ,EXCITED,30MonoWAV/30MonoF4.wav,1,2,2,4,,,,,1,14,30,3,0,11,11,7,,,,,,,,,4,1.1544332559860777,,,098,001,2019_Sep_03_1106,MusicAffectPsychophysiology2019,3.0.5,59.95606958110226,
,,30MonoWAV/30MonoF4.wav,1,2,2,4,,,,,1,14,30,3,,,,,,,,,,,,,,,,,098,001,2019_Sep_03_1106,MusicAffectPsychophysiology2019,3.0.5,59.95606958110226,
To what extent did the music make you feel ,SAD,30MonoWAV/30MonoT4.wav,2,1,4,16,,,,,1,15,31,15,0,0,0,0,,,2,2.4836244769976474,2,1.3024454429978505,3,1.018472727999324,4,1.701550286001293,,,098,001,2019_Sep_03_1106,MusicAffectPsychophysiology2019,3.0.5,59.95606958110226,
To what extent did the music make you feel ,FRUSTRATED,30MonoWAV/30MonoT4.wav,2,1,4,16,,,,,1,15,31,15,0,1,1,3,,,,,,,,,1,1.1362846400006674,,,098,001,2019_Sep_03_1106,MusicAffectPsychophysiology2019,3.0.5,59.95606958110226,
To what extent did the music make you feel ,ACTIVE,30MonoWAV/30MonoT4.wav,2,1,4,16,,,,,1,15,31,15,0,2,2,9,,,,,,,,,1,1.1360956110002007,,,098,001,2019_Sep_03_1106,MusicAffectPsychophysiology2019,3.0.5,59.95606958110226,
To what extent did the music make you feel ,ASHAMED,30MonoWAV/30MonoT4.wav,2,1,4,16,,,,,1,15,31,15,0,3,3,4,,,,,,,,,1,0.6017240970104467,,,098,001,2019_Sep_03_1106,MusicAffectPsychophysiology2019,3.0.5,59.95606958110226,
To what extent did the music make you feel ,ALERT,30MonoWAV/30MonoT4.wav,2,1,4,16,,,,,1,15,31,15,0,4,4,8,,,,,,,,,1,0.9355843510129489,,,098,001,2019_Sep_03_1106,MusicAffectPsychophysiology2019,3.0.5,59.95606958110226,
To what extent did the music make you feel ,TENDER,30MonoWAV/30MonoT4.wav,2,1,4,16,,,,,1,15,31,15,0,5,5,10,,,,,,,,,5,2.002614166995045,,,098,001,2019_Sep_03_1106,MusicAffectPsychophysiology2019,3.0.5,59.95606958110226,
To what extent did the music make you feel ,GUILTY,30MonoWAV/30MonoT4.wav,2,1,4,16,,,,,1,15,31,15,0,6,6,5,,,,,,,,,1,1.0194591880135704,,,098,001,2019_Sep_03_1106,MusicAffectPsychophysiology2019,3.0.5,59.95606958110226,
To what extent did the music make you feel ,HAPPY,30MonoWAV/30MonoT4.wav,2,1,4,16,,,,,1,15,31,15,0,7,7,6,,,,,,,,,2,1.0362047840026207,,,098,001,2019_Sep_03_1106,MusicAffectPsychophysiology2019,3.0.5,59.95606958110226,
To what extent did the music make you feel ,ANGRY,30MonoWAV/30MonoT4.wav,2,1,4,16,,,,,1,15,31,15,0,8,8,2,,,,,,,,,1,0.719264806015417,,,098,001,2019_Sep_03_1106,MusicAffectPsychophysiology2019,3.0.5,59.95606958110226,
To what extent did the music make you feel ,ANXIOUS ,30MonoWAV/30MonoT4.wav,2,1,4,16,,,,,1,15,31,15,0,9,9,1,,,,,,,,,1,1.2700127410062123,,,098,001,2019_Sep_03_1106,MusicAffectPsychophysiology2019,3.0.5,59.95606958110226,
To what extent did the music make you feel ,SCARED,30MonoWAV/30MonoT4.wav,2,1,4,16,,,,,1,15,31,15,0,10,10,11,,,,,,,,,1,0.8354798739892431,,,098,001,2019_Sep_03_1106,MusicAffectPsychophysiology2019,3.0.5,59.95606958110226,
To what extent did the music make you feel ,EXCITED,30MonoWAV/30MonoT4.wav,2,1,4,16,,,,,1,15,31,15,0,11,11,7,,,,,,,,,1,0.9009289079986047,,,098,001,2019_Sep_03_1106,MusicAffectPsychophysiology2019,3.0.5,59.95606958110226,
,,30MonoWAV/30MonoT4.wav,2,1,4,16,,,,,1,15,31,15,,,,,,,,,,,,,,,,,098,001,2019_Sep_03_1106,MusicAffectPsychophysiology2019,3.0.5,59.95606958110226,
,,,,,,,,,,,,,,,,,,,,,,,,,,,,,space,4.450847502012039,098,001,2019_Sep_03_1106,MusicAffectPsychophysiology2019,3.0.5,59.95606958110226,
