Instruction,Word,song,valence,arousal,affectcat,songmark,pracwords.thisRepN,pracwords.thisTrialN,pracwords.thisN,pracwords.thisIndex,songtrials.thisRepN,songtrials.thisTrialN,songtrials.thisN,songtrials.thisIndex,words.thisRepN,words.thisTrialN,words.thisN,words.thisIndex,begin.keys,begin.rt,arousalkey.keys,arousalkey.rt,valencekey.keys,valencekey.rt,likekey.keys,likekey.rt,WordResponse.keys,WordResponse.rt,key_resp_2.keys,key_resp_2.rt,participant,session,date,expName,psychopyVersion,frameRate,
,,,,,,,,,,,,,,,,,,,space,13.794408382003894,,,,,,,,,,,099,001,2019_Sep_03_1307,MusicAffectPsychophysiology2019,3.0.5,59.875223628518455,
,,,,,,,,,,,,,,,,,,,,,3,7.201772803004133,,,,,,,,,099,001,2019_Sep_03_1307,MusicAffectPsychophysiology2019,3.0.5,59.875223628518455,
,,,,,,,,,,,,,,,,,,,,,,,4,4.45170664699981,,,,,,,099,001,2019_Sep_03_1307,MusicAffectPsychophysiology2019,3.0.5,59.875223628518455,
,,,,,,,,,,,,,,,,,,,,,,,,,3,3.3690884509996977,,,,,099,001,2019_Sep_03_1307,MusicAffectPsychophysiology2019,3.0.5,59.875223628518455,
To what extent did the music make you feel ,EXCITED,,,,,,0,0,0,7,,,,,,,,,,,,,,,,,2,6.65271623202716,,,099,001,2019_Sep_03_1307,MusicAffectPsychophysiology2019,3.0.5,59.875223628518455,
To what extent did the music make you feel ,TENDER,,,,,,0,1,1,10,,,,,,,,,,,,,,,,,3,1.8688767590210773,,,099,001,2019_Sep_03_1307,MusicAffectPsychophysiology2019,3.0.5,59.875223628518455,
To what extent did the music make you feel ,SCARED,,,,,,0,2,2,11,,,,,,,,,,,,,,,,,1,2.6856931789952796,,,099,001,2019_Sep_03_1307,MusicAffectPsychophysiology2019,3.0.5,59.875223628518455,
To what extent did the music make you feel ,SAD,,,,,,0,3,3,0,,,,,,,,,,,,,,,,,1,2.0854993170069065,,,099,001,2019_Sep_03_1307,MusicAffectPsychophysiology2019,3.0.5,59.875223628518455,
To what extent did the music make you feel ,ACTIVE,,,,,,0,4,4,9,,,,,,,,,,,,,,,,,2,4.718540375994053,,,099,001,2019_Sep_03_1307,MusicAffectPsychophysiology2019,3.0.5,59.875223628518455,
To what extent did the music make you feel ,GUILTY,,,,,,0,5,5,5,,,,,,,,,,,,,,,,,1,2.554555879003601,,,099,001,2019_Sep_03_1307,MusicAffectPsychophysiology2019,3.0.5,59.875223628518455,
To what extent did the music make you feel ,FRUSTRATED,,,,,,0,6,6,3,,,,,,,,,,,,,,,,,1,1.0996997460024431,,,099,001,2019_Sep_03_1307,MusicAffectPsychophysiology2019,3.0.5,59.875223628518455,
To what extent did the music make you feel ,ASHAMED,,,,,,0,7,7,4,,,,,,,,,,,,,,,,,1,0.8857802400016226,,,099,001,2019_Sep_03_1307,MusicAffectPsychophysiology2019,3.0.5,59.875223628518455,
To what extent did the music make you feel ,ANXIOUS ,,,,,,0,8,8,1,,,,,,,,,,,,,,,,,1,1.519162847980624,,,099,001,2019_Sep_03_1307,MusicAffectPsychophysiology2019,3.0.5,59.875223628518455,
To what extent did the music make you feel ,ALERT,,,,,,0,9,9,8,,,,,,,,,,,,,,,,,1,1.5544414320029318,,,099,001,2019_Sep_03_1307,MusicAffectPsychophysiology2019,3.0.5,59.875223628518455,
To what extent did the music make you feel ,ANGRY,,,,,,0,10,10,2,,,,,,,,,,,,,,,,,1,0.8189522089960519,,,099,001,2019_Sep_03_1307,MusicAffectPsychophysiology2019,3.0.5,59.875223628518455,
To what extent did the music make you feel ,HAPPY,,,,,,0,11,11,6,,,,,,,,,,,,,,,,,3,1.7020160999963991,,,099,001,2019_Sep_03_1307,MusicAffectPsychophysiology2019,3.0.5,59.875223628518455,
To what extent did the music make you feel ,ASHAMED,30MonoWAV/30MonoH1.wav,2,2,1,5,,,,,0,0,0,4,0,0,0,4,,,3,4.268516877986258,4,1.6031718580052257,4,2.3346911720000207,1,2.778002959996229,,,099,001,2019_Sep_03_1307,MusicAffectPsychophysiology2019,3.0.5,59.875223628518455,
To what extent did the music make you feel ,EXCITED,30MonoWAV/30MonoH1.wav,2,2,1,5,,,,,0,0,0,4,0,1,1,7,,,,,,,,,3,1.2037490780057851,,,099,001,2019_Sep_03_1307,MusicAffectPsychophysiology2019,3.0.5,59.875223628518455,
To what extent did the music make you feel ,HAPPY,30MonoWAV/30MonoH1.wav,2,2,1,5,,,,,0,0,0,4,0,2,2,6,,,,,,,,,3,1.1689356669958215,,,099,001,2019_Sep_03_1307,MusicAffectPsychophysiology2019,3.0.5,59.875223628518455,
To what extent did the music make you feel ,SCARED,30MonoWAV/30MonoH1.wav,2,2,1,5,,,,,0,0,0,4,0,3,3,11,,,,,,,,,1,1.8022780450119171,,,099,001,2019_Sep_03_1307,MusicAffectPsychophysiology2019,3.0.5,59.875223628518455,
To what extent did the music make you feel ,ALERT,30MonoWAV/30MonoH1.wav,2,2,1,5,,,,,0,0,0,4,0,4,4,8,,,,,,,,,2,2.43692813400412,,,099,001,2019_Sep_03_1307,MusicAffectPsychophysiology2019,3.0.5,59.875223628518455,
To what extent did the music make you feel ,ANXIOUS ,30MonoWAV/30MonoH1.wav,2,2,1,5,,,,,0,0,0,4,0,5,5,1,,,,,,,,,1,1.0517983330064453,,,099,001,2019_Sep_03_1307,MusicAffectPsychophysiology2019,3.0.5,59.875223628518455,
To what extent did the music make you feel ,GUILTY,30MonoWAV/30MonoH1.wav,2,2,1,5,,,,,0,0,0,4,0,6,6,5,,,,,,,,,1,0.8851386309834197,,,099,001,2019_Sep_03_1307,MusicAffectPsychophysiology2019,3.0.5,59.875223628518455,
To what extent did the music make you feel ,FRUSTRATED,30MonoWAV/30MonoH1.wav,2,2,1,5,,,,,0,0,0,4,0,7,7,3,,,,,,,,,1,2.020135422993917,,,099,001,2019_Sep_03_1307,MusicAffectPsychophysiology2019,3.0.5,59.875223628518455,
To what extent did the music make you feel ,SAD,30MonoWAV/30MonoH1.wav,2,2,1,5,,,,,0,0,0,4,0,8,8,0,,,,,,,,,1,1.652309522003634,,,099,001,2019_Sep_03_1307,MusicAffectPsychophysiology2019,3.0.5,59.875223628518455,
To what extent did the music make you feel ,ANGRY,30MonoWAV/30MonoH1.wav,2,2,1,5,,,,,0,0,0,4,0,9,9,2,,,,,,,,,1,0.9866523510136176,,,099,001,2019_Sep_03_1307,MusicAffectPsychophysiology2019,3.0.5,59.875223628518455,
To what extent did the music make you feel ,ACTIVE,30MonoWAV/30MonoH1.wav,2,2,1,5,,,,,0,0,0,4,0,10,10,9,,,,,,,,,2,1.8195730389852542,,,099,001,2019_Sep_03_1307,MusicAffectPsychophysiology2019,3.0.5,59.875223628518455,
To what extent did the music make you feel ,TENDER,30MonoWAV/30MonoH1.wav,2,2,1,5,,,,,0,0,0,4,0,11,11,10,,,,,,,,,2,1.4034292040159926,,,099,001,2019_Sep_03_1307,MusicAffectPsychophysiology2019,3.0.5,59.875223628518455,
,,30MonoWAV/30MonoH1.wav,2,2,1,5,,,,,0,0,0,4,,,,,,,,,,,,,,,,,099,001,2019_Sep_03_1307,MusicAffectPsychophysiology2019,3.0.5,59.875223628518455,
To what extent did the music make you feel ,ALERT,30MonoWAV/30MonoT4.wav,2,1,4,16,,,,,0,1,1,15,0,0,0,8,,,2,4.818143932992825,2,2.1526691189792473,3,1.9880354710039683,1,6.187235383986263,,,099,001,2019_Sep_03_1307,MusicAffectPsychophysiology2019,3.0.5,59.875223628518455,
To what extent did the music make you feel ,TENDER,30MonoWAV/30MonoT4.wav,2,1,4,16,,,,,0,1,1,15,0,1,1,10,,,,,,,,,2,1.2889725929999258,,,099,001,2019_Sep_03_1307,MusicAffectPsychophysiology2019,3.0.5,59.875223628518455,
To what extent did the music make you feel ,FRUSTRATED,30MonoWAV/30MonoT4.wav,2,1,4,16,,,,,0,1,1,15,0,2,2,3,,,,,,,,,1,1.067975027981447,,,099,001,2019_Sep_03_1307,MusicAffectPsychophysiology2019,3.0.5,59.875223628518455,
To what extent did the music make you feel ,EXCITED,30MonoWAV/30MonoT4.wav,2,1,4,16,,,,,0,1,1,15,0,3,3,7,,,,,,,,,2,1.5184688050067052,,,099,001,2019_Sep_03_1307,MusicAffectPsychophysiology2019,3.0.5,59.875223628518455,
To what extent did the music make you feel ,ANXIOUS ,30MonoWAV/30MonoT4.wav,2,1,4,16,,,,,0,1,1,15,0,4,4,1,,,,,,,,,2,1.6845607430150267,,,099,001,2019_Sep_03_1307,MusicAffectPsychophysiology2019,3.0.5,59.875223628518455,
To what extent did the music make you feel ,ACTIVE,30MonoWAV/30MonoT4.wav,2,1,4,16,,,,,0,1,1,15,0,5,5,9,,,,,,,,,1,2.685894547990756,,,099,001,2019_Sep_03_1307,MusicAffectPsychophysiology2019,3.0.5,59.875223628518455,
To what extent did the music make you feel ,ASHAMED,30MonoWAV/30MonoT4.wav,2,1,4,16,,,,,0,1,1,15,0,6,6,4,,,,,,,,,1,1.2021980530116707,,,099,001,2019_Sep_03_1307,MusicAffectPsychophysiology2019,3.0.5,59.875223628518455,
To what extent did the music make you feel ,GUILTY,30MonoWAV/30MonoT4.wav,2,1,4,16,,,,,0,1,1,15,0,7,7,5,,,,,,,,,2,3.635860740992939,,,099,001,2019_Sep_03_1307,MusicAffectPsychophysiology2019,3.0.5,59.875223628518455,
To what extent did the music make you feel ,SAD,30MonoWAV/30MonoT4.wav,2,1,4,16,,,,,0,1,1,15,0,8,8,0,,,,,,,,,3,1.82062359599513,,,099,001,2019_Sep_03_1307,MusicAffectPsychophysiology2019,3.0.5,59.875223628518455,
To what extent did the music make you feel ,SCARED,30MonoWAV/30MonoT4.wav,2,1,4,16,,,,,0,1,1,15,0,9,9,11,,,,,,,,,1,1.2849324290000368,,,099,001,2019_Sep_03_1307,MusicAffectPsychophysiology2019,3.0.5,59.875223628518455,
To what extent did the music make you feel ,HAPPY,30MonoWAV/30MonoT4.wav,2,1,4,16,,,,,0,1,1,15,0,10,10,6,,,,,,,,,1,1.3358843219757546,,,099,001,2019_Sep_03_1307,MusicAffectPsychophysiology2019,3.0.5,59.875223628518455,
To what extent did the music make you feel ,ANGRY,30MonoWAV/30MonoT4.wav,2,1,4,16,,,,,0,1,1,15,0,11,11,2,,,,,,,,,1,5.653244407003513,,,099,001,2019_Sep_03_1307,MusicAffectPsychophysiology2019,3.0.5,59.875223628518455,
,,30MonoWAV/30MonoT4.wav,2,1,4,16,,,,,0,1,1,15,,,,,,,,,,,,,,,,,099,001,2019_Sep_03_1307,MusicAffectPsychophysiology2019,3.0.5,59.875223628518455,
To what extent did the music make you feel ,FRUSTRATED,30MonoWAV/30MonoS4.wav,1,1,3,12,,,,,0,2,2,11,0,0,0,3,,,1,3.6685016849951353,2,2.3189284180116374,2,2.202322038006969,1,2.276706416014349,,,099,001,2019_Sep_03_1307,MusicAffectPsychophysiology2019,3.0.5,59.875223628518455,
To what extent did the music make you feel ,GUILTY,30MonoWAV/30MonoS4.wav,1,1,3,12,,,,,0,2,2,11,0,1,1,5,,,,,,,,,2,0.9692915480118245,,,099,001,2019_Sep_03_1307,MusicAffectPsychophysiology2019,3.0.5,59.875223628518455,
To what extent did the music make you feel ,ASHAMED,30MonoWAV/30MonoS4.wav,1,1,3,12,,,,,0,2,2,11,0,2,2,4,,,,,,,,,1,1.0516604339936748,,,099,001,2019_Sep_03_1307,MusicAffectPsychophysiology2019,3.0.5,59.875223628518455,
To what extent did the music make you feel ,TENDER,30MonoWAV/30MonoS4.wav,1,1,3,12,,,,,0,2,2,11,0,3,3,10,,,,,,,,,2,1.2200338769762311,,,099,001,2019_Sep_03_1307,MusicAffectPsychophysiology2019,3.0.5,59.875223628518455,
To what extent did the music make you feel ,ANGRY,30MonoWAV/30MonoS4.wav,1,1,3,12,,,,,0,2,2,11,0,4,4,2,,,,,,,,,1,3.402369253017241,,,099,001,2019_Sep_03_1307,MusicAffectPsychophysiology2019,3.0.5,59.875223628518455,
To what extent did the music make you feel ,HAPPY,30MonoWAV/30MonoS4.wav,1,1,3,12,,,,,0,2,2,11,0,5,5,6,,,,,,,,,1,1.1500051099865232,,,099,001,2019_Sep_03_1307,MusicAffectPsychophysiology2019,3.0.5,59.875223628518455,
To what extent did the music make you feel ,ANXIOUS ,30MonoWAV/30MonoS4.wav,1,1,3,12,,,,,0,2,2,11,0,6,6,1,,,,,,,,,2,4.252957610995509,,,099,001,2019_Sep_03_1307,MusicAffectPsychophysiology2019,3.0.5,59.875223628518455,
To what extent did the music make you feel ,ALERT,30MonoWAV/30MonoS4.wav,1,1,3,12,,,,,0,2,2,11,0,7,7,8,,,,,,,,,1,1.9380320770142134,,,099,001,2019_Sep_03_1307,MusicAffectPsychophysiology2019,3.0.5,59.875223628518455,
To what extent did the music make you feel ,EXCITED,30MonoWAV/30MonoS4.wav,1,1,3,12,,,,,0,2,2,11,0,8,8,7,,,,,,,,,1,0.8365442260110285,,,099,001,2019_Sep_03_1307,MusicAffectPsychophysiology2019,3.0.5,59.875223628518455,
To what extent did the music make you feel ,SCARED,30MonoWAV/30MonoS4.wav,1,1,3,12,,,,,0,2,2,11,0,9,9,11,,,,,,,,,1,0.691681240015896,,,099,001,2019_Sep_03_1307,MusicAffectPsychophysiology2019,3.0.5,59.875223628518455,
To what extent did the music make you feel ,ACTIVE,30MonoWAV/30MonoS4.wav,1,1,3,12,,,,,0,2,2,11,0,10,10,9,,,,,,,,,1,0.7193476920074318,,,099,001,2019_Sep_03_1307,MusicAffectPsychophysiology2019,3.0.5,59.875223628518455,
To what extent did the music make you feel ,SAD,30MonoWAV/30MonoS4.wav,1,1,3,12,,,,,0,2,2,11,0,11,11,0,,,,,,,,,3,2.667352241987828,,,099,001,2019_Sep_03_1307,MusicAffectPsychophysiology2019,3.0.5,59.875223628518455,
,,30MonoWAV/30MonoS4.wav,1,1,3,12,,,,,0,2,2,11,,,,,,,,,,,,,,,,,099,001,2019_Sep_03_1307,MusicAffectPsychophysiology2019,3.0.5,59.875223628518455,
To what extent did the music make you feel ,GUILTY,30MonoWAV/30MonoF4.wav,1,2,2,4,,,,,0,3,3,3,0,0,0,5,,,3,5.8996216020022985,1,2.234231565002119,1,1.9700855249830056,1,1.320643648999976,,,099,001,2019_Sep_03_1307,MusicAffectPsychophysiology2019,3.0.5,59.875223628518455,
To what extent did the music make you feel ,EXCITED,30MonoWAV/30MonoF4.wav,1,2,2,4,,,,,0,3,3,3,0,1,1,7,,,,,,,,,2,1.4008302339934744,,,099,001,2019_Sep_03_1307,MusicAffectPsychophysiology2019,3.0.5,59.875223628518455,
To what extent did the music make you feel ,TENDER,30MonoWAV/30MonoF4.wav,1,2,2,4,,,,,0,3,3,3,0,2,2,10,,,,,,,,,1,1.1036474400025327,,,099,001,2019_Sep_03_1307,MusicAffectPsychophysiology2019,3.0.5,59.875223628518455,
To what extent did the music make you feel ,ACTIVE,30MonoWAV/30MonoF4.wav,1,2,2,4,,,,,0,3,3,3,0,3,3,9,,,,,,,,,3,1.5190451579983346,,,099,001,2019_Sep_03_1307,MusicAffectPsychophysiology2019,3.0.5,59.875223628518455,
To what extent did the music make you feel ,HAPPY,30MonoWAV/30MonoF4.wav,1,2,2,4,,,,,0,3,3,3,0,4,4,6,,,,,,,,,1,1.0696233519993257,,,099,001,2019_Sep_03_1307,MusicAffectPsychophysiology2019,3.0.5,59.875223628518455,
To what extent did the music make you feel ,FRUSTRATED,30MonoWAV/30MonoF4.wav,1,2,2,4,,,,,0,3,3,3,0,5,5,3,,,,,,,,,1,1.3696538730000611,,,099,001,2019_Sep_03_1307,MusicAffectPsychophysiology2019,3.0.5,59.875223628518455,
To what extent did the music make you feel ,ALERT,30MonoWAV/30MonoF4.wav,1,2,2,4,,,,,0,3,3,3,0,6,6,8,,,,,,,,,3,1.3524213760101702,,,099,001,2019_Sep_03_1307,MusicAffectPsychophysiology2019,3.0.5,59.875223628518455,
To what extent did the music make you feel ,SCARED,30MonoWAV/30MonoF4.wav,1,2,2,4,,,,,0,3,3,3,0,7,7,11,,,,,,,,,2,3.3850935960072093,,,099,001,2019_Sep_03_1307,MusicAffectPsychophysiology2019,3.0.5,59.875223628518455,
To what extent did the music make you feel ,ASHAMED,30MonoWAV/30MonoF4.wav,1,2,2,4,,,,,0,3,3,3,0,8,8,4,,,,,,,,,1,1.086527652980294,,,099,001,2019_Sep_03_1307,MusicAffectPsychophysiology2019,3.0.5,59.875223628518455,
To what extent did the music make you feel ,ANXIOUS ,30MonoWAV/30MonoF4.wav,1,2,2,4,,,,,0,3,3,3,0,9,9,1,,,,,,,,,3,1.0687725850148126,,,099,001,2019_Sep_03_1307,MusicAffectPsychophysiology2019,3.0.5,59.875223628518455,
To what extent did the music make you feel ,ANGRY,30MonoWAV/30MonoF4.wav,1,2,2,4,,,,,0,3,3,3,0,10,10,2,,,,,,,,,2,2.5359250050096307,,,099,001,2019_Sep_03_1307,MusicAffectPsychophysiology2019,3.0.5,59.875223628518455,
To what extent did the music make you feel ,SAD,30MonoWAV/30MonoF4.wav,1,2,2,4,,,,,0,3,3,3,0,11,11,0,,,,,,,,,1,2.8162266470026225,,,099,001,2019_Sep_03_1307,MusicAffectPsychophysiology2019,3.0.5,59.875223628518455,
,,30MonoWAV/30MonoF4.wav,1,2,2,4,,,,,0,3,3,3,,,,,,,,,,,,,,,,,099,001,2019_Sep_03_1307,MusicAffectPsychophysiology2019,3.0.5,59.875223628518455,
To what extent did the music make you feel ,ANGRY,30MonoWAV/30MonoF1.wav,1,2,2,1,,,,,0,4,4,0,0,0,0,2,,,3,3.0834452270064503,1,4.202576094015967,1,2.118208436993882,2,3.212309780996293,,,099,001,2019_Sep_03_1307,MusicAffectPsychophysiology2019,3.0.5,59.875223628518455,
To what extent did the music make you feel ,ALERT,30MonoWAV/30MonoF1.wav,1,2,2,1,,,,,0,4,4,0,0,1,1,8,,,,,,,,,4,1.4039853980066255,,,099,001,2019_Sep_03_1307,MusicAffectPsychophysiology2019,3.0.5,59.875223628518455,
To what extent did the music make you feel ,SCARED,30MonoWAV/30MonoF1.wav,1,2,2,1,,,,,0,4,4,0,0,2,2,11,,,,,,,,,2,2.021245153999189,,,099,001,2019_Sep_03_1307,MusicAffectPsychophysiology2019,3.0.5,59.875223628518455,
To what extent did the music make you feel ,ASHAMED,30MonoWAV/30MonoF1.wav,1,2,2,1,,,,,0,4,4,0,0,3,3,4,,,,,,,,,1,1.1662017030175775,,,099,001,2019_Sep_03_1307,MusicAffectPsychophysiology2019,3.0.5,59.875223628518455,
To what extent did the music make you feel ,ANXIOUS ,30MonoWAV/30MonoF1.wav,1,2,2,1,,,,,0,4,4,0,0,4,4,1,,,,,,,,,3,3.4165396710159257,,,099,001,2019_Sep_03_1307,MusicAffectPsychophysiology2019,3.0.5,59.875223628518455,
To what extent did the music make you feel ,EXCITED,30MonoWAV/30MonoF1.wav,1,2,2,1,,,,,0,4,4,0,0,5,5,7,,,,,,,,,2,1.6847767010040116,,,099,001,2019_Sep_03_1307,MusicAffectPsychophysiology2019,3.0.5,59.875223628518455,
To what extent did the music make you feel ,ACTIVE,30MonoWAV/30MonoF1.wav,1,2,2,1,,,,,0,4,4,0,0,6,6,9,,,,,,,,,4,1.6521317820006516,,,099,001,2019_Sep_03_1307,MusicAffectPsychophysiology2019,3.0.5,59.875223628518455,
To what extent did the music make you feel ,FRUSTRATED,30MonoWAV/30MonoF1.wav,1,2,2,1,,,,,0,4,4,0,0,7,7,3,,,,,,,,,2,1.944187521992717,,,099,001,2019_Sep_03_1307,MusicAffectPsychophysiology2019,3.0.5,59.875223628518455,
To what extent did the music make you feel ,HAPPY,30MonoWAV/30MonoF1.wav,1,2,2,1,,,,,0,4,4,0,0,8,8,6,,,,,,,,,1,1.119320855999831,,,099,001,2019_Sep_03_1307,MusicAffectPsychophysiology2019,3.0.5,59.875223628518455,
To what extent did the music make you feel ,TENDER,30MonoWAV/30MonoF1.wav,1,2,2,1,,,,,0,4,4,0,0,9,9,10,,,,,,,,,1,2.0179992580087855,,,099,001,2019_Sep_03_1307,MusicAffectPsychophysiology2019,3.0.5,59.875223628518455,
To what extent did the music make you feel ,SAD,30MonoWAV/30MonoF1.wav,1,2,2,1,,,,,0,4,4,0,0,10,10,0,,,,,,,,,1,1.3853575929824729,,,099,001,2019_Sep_03_1307,MusicAffectPsychophysiology2019,3.0.5,59.875223628518455,
To what extent did the music make you feel ,GUILTY,30MonoWAV/30MonoF1.wav,1,2,2,1,,,,,0,4,4,0,0,11,11,5,,,,,,,,,1,1.0201187799975742,,,099,001,2019_Sep_03_1307,MusicAffectPsychophysiology2019,3.0.5,59.875223628518455,
,,30MonoWAV/30MonoF1.wav,1,2,2,1,,,,,0,4,4,0,,,,,,,,,,,,,,,,,099,001,2019_Sep_03_1307,MusicAffectPsychophysiology2019,3.0.5,59.875223628518455,
To what extent did the music make you feel ,SAD,30MonoWAV/30MonoS2.wav,1,1,3,10,,,,,0,5,5,9,0,0,0,0,,,1,3.335506319999695,2,5.335240999003872,2,1.8189036100229714,3,3.4885257860005368,,,099,001,2019_Sep_03_1307,MusicAffectPsychophysiology2019,3.0.5,59.875223628518455,
To what extent did the music make you feel ,ALERT,30MonoWAV/30MonoS2.wav,1,1,3,10,,,,,0,5,5,9,0,1,1,8,,,,,,,,,1,1.452598324016435,,,099,001,2019_Sep_03_1307,MusicAffectPsychophysiology2019,3.0.5,59.875223628518455,
To what extent did the music make you feel ,FRUSTRATED,30MonoWAV/30MonoS2.wav,1,1,3,10,,,,,0,5,5,9,0,2,2,3,,,,,,,,,1,2.8031669040210545,,,099,001,2019_Sep_03_1307,MusicAffectPsychophysiology2019,3.0.5,59.875223628518455,
To what extent did the music make you feel ,ASHAMED,30MonoWAV/30MonoS2.wav,1,1,3,10,,,,,0,5,5,9,0,3,3,4,,,,,,,,,3,1.6501597170135938,,,099,001,2019_Sep_03_1307,MusicAffectPsychophysiology2019,3.0.5,59.875223628518455,
To what extent did the music make you feel ,ACTIVE,30MonoWAV/30MonoS2.wav,1,1,3,10,,,,,0,5,5,9,0,4,4,9,,,,,,,,,1,1.9686775669979397,,,099,001,2019_Sep_03_1307,MusicAffectPsychophysiology2019,3.0.5,59.875223628518455,
To what extent did the music make you feel ,SCARED,30MonoWAV/30MonoS2.wav,1,1,3,10,,,,,0,5,5,9,0,5,5,11,,,,,,,,,2,0.9853516160219442,,,099,001,2019_Sep_03_1307,MusicAffectPsychophysiology2019,3.0.5,59.875223628518455,
To what extent did the music make you feel ,GUILTY,30MonoWAV/30MonoS2.wav,1,1,3,10,,,,,0,5,5,9,0,6,6,5,,,,,,,,,2,0.9857746810012031,,,099,001,2019_Sep_03_1307,MusicAffectPsychophysiology2019,3.0.5,59.875223628518455,
To what extent did the music make you feel ,TENDER,30MonoWAV/30MonoS2.wav,1,1,3,10,,,,,0,5,5,9,0,7,7,10,,,,,,,,,1,0.7358935679949354,,,099,001,2019_Sep_03_1307,MusicAffectPsychophysiology2019,3.0.5,59.875223628518455,
To what extent did the music make you feel ,ANGRY,30MonoWAV/30MonoS2.wav,1,1,3,10,,,,,0,5,5,9,0,8,8,2,,,,,,,,,3,1.4359558080032002,,,099,001,2019_Sep_03_1307,MusicAffectPsychophysiology2019,3.0.5,59.875223628518455,
To what extent did the music make you feel ,ANXIOUS ,30MonoWAV/30MonoS2.wav,1,1,3,10,,,,,0,5,5,9,0,9,9,1,,,,,,,,,3,2.1695740440045483,,,099,001,2019_Sep_03_1307,MusicAffectPsychophysiology2019,3.0.5,59.875223628518455,
To what extent did the music make you feel ,HAPPY,30MonoWAV/30MonoS2.wav,1,1,3,10,,,,,0,5,5,9,0,10,10,6,,,,,,,,,1,1.5520951930084266,,,099,001,2019_Sep_03_1307,MusicAffectPsychophysiology2019,3.0.5,59.875223628518455,
To what extent did the music make you feel ,EXCITED,30MonoWAV/30MonoS2.wav,1,1,3,10,,,,,0,5,5,9,0,11,11,7,,,,,,,,,1,2.252588959003333,,,099,001,2019_Sep_03_1307,MusicAffectPsychophysiology2019,3.0.5,59.875223628518455,
,,30MonoWAV/30MonoS2.wav,1,1,3,10,,,,,0,5,5,9,,,,,,,,,,,,,,,,,099,001,2019_Sep_03_1307,MusicAffectPsychophysiology2019,3.0.5,59.875223628518455,
To what extent did the music make you feel ,ACTIVE,30MonoWAV/30MonoF3.wav,1,2,2,3,,,,,0,6,6,2,0,0,0,9,,,2,3.2357687139883637,1,1.5688918859814294,2,1.4023989970155526,3,1.931569991982542,,,099,001,2019_Sep_03_1307,MusicAffectPsychophysiology2019,3.0.5,59.875223628518455,
To what extent did the music make you feel ,ASHAMED,30MonoWAV/30MonoF3.wav,1,2,2,3,,,,,0,6,6,2,0,1,1,4,,,,,,,,,1,2.9518602970056236,,,099,001,2019_Sep_03_1307,MusicAffectPsychophysiology2019,3.0.5,59.875223628518455,
To what extent did the music make you feel ,TENDER,30MonoWAV/30MonoF3.wav,1,2,2,3,,,,,0,6,6,2,0,2,2,10,,,,,,,,,1,0.85245620898786,,,099,001,2019_Sep_03_1307,MusicAffectPsychophysiology2019,3.0.5,59.875223628518455,
To what extent did the music make you feel ,ANXIOUS ,30MonoWAV/30MonoF3.wav,1,2,2,3,,,,,0,6,6,2,0,3,3,1,,,,,,,,,4,1.2366864869836718,,,099,001,2019_Sep_03_1307,MusicAffectPsychophysiology2019,3.0.5,59.875223628518455,
To what extent did the music make you feel ,SAD,30MonoWAV/30MonoF3.wav,1,2,2,3,,,,,0,6,6,2,0,4,4,0,,,,,,,,,2,1.5861506040091626,,,099,001,2019_Sep_03_1307,MusicAffectPsychophysiology2019,3.0.5,59.875223628518455,
To what extent did the music make you feel ,SCARED,30MonoWAV/30MonoF3.wav,1,2,2,3,,,,,0,6,6,2,0,5,5,11,,,,,,,,,3,3.4196012470056303,,,099,001,2019_Sep_03_1307,MusicAffectPsychophysiology2019,3.0.5,59.875223628518455,
To what extent did the music make you feel ,GUILTY,30MonoWAV/30MonoF3.wav,1,2,2,3,,,,,0,6,6,2,0,6,6,5,,,,,,,,,1,2.136359654017724,,,099,001,2019_Sep_03_1307,MusicAffectPsychophysiology2019,3.0.5,59.875223628518455,
To what extent did the music make you feel ,FRUSTRATED,30MonoWAV/30MonoF3.wav,1,2,2,3,,,,,0,6,6,2,0,7,7,3,,,,,,,,,1,1.395993615995394,,,099,001,2019_Sep_03_1307,MusicAffectPsychophysiology2019,3.0.5,59.875223628518455,
To what extent did the music make you feel ,EXCITED,30MonoWAV/30MonoF3.wav,1,2,2,3,,,,,0,6,6,2,0,8,8,7,,,,,,,,,2,1.6354764760180842,,,099,001,2019_Sep_03_1307,MusicAffectPsychophysiology2019,3.0.5,59.875223628518455,
To what extent did the music make you feel ,ALERT,30MonoWAV/30MonoF3.wav,1,2,2,3,,,,,0,6,6,2,0,9,9,8,,,,,,,,,3,1.26835776201915,,,099,001,2019_Sep_03_1307,MusicAffectPsychophysiology2019,3.0.5,59.875223628518455,
To what extent did the music make you feel ,HAPPY,30MonoWAV/30MonoF3.wav,1,2,2,3,,,,,0,6,6,2,0,10,10,6,,,,,,,,,1,2.0188776509894524,,,099,001,2019_Sep_03_1307,MusicAffectPsychophysiology2019,3.0.5,59.875223628518455,
To what extent did the music make you feel ,ANGRY,30MonoWAV/30MonoF3.wav,1,2,2,3,,,,,0,6,6,2,0,11,11,2,,,,,,,,,2,1.1504691329901107,,,099,001,2019_Sep_03_1307,MusicAffectPsychophysiology2019,3.0.5,59.875223628518455,
,,30MonoWAV/30MonoF3.wav,1,2,2,3,,,,,0,6,6,2,,,,,,,,,,,,,,,,,099,001,2019_Sep_03_1307,MusicAffectPsychophysiology2019,3.0.5,59.875223628518455,
To what extent did the music make you feel ,ANGRY,30MonoWAV/30MonoT1.wav,2,1,4,13,,,,,0,7,7,12,0,0,0,2,,,2,2.967791124014184,3,1.469040780008072,2,3.785785900981864,1,1.3371061900106724,,,099,001,2019_Sep_03_1307,MusicAffectPsychophysiology2019,3.0.5,59.875223628518455,
To what extent did the music make you feel ,ASHAMED,30MonoWAV/30MonoT1.wav,2,1,4,13,,,,,0,7,7,12,0,1,1,4,,,,,,,,,1,0.6872419469873421,,,099,001,2019_Sep_03_1307,MusicAffectPsychophysiology2019,3.0.5,59.875223628518455,
To what extent did the music make you feel ,ANXIOUS ,30MonoWAV/30MonoT1.wav,2,1,4,13,,,,,0,7,7,12,0,2,2,1,,,,,,,,,1,0.9198220489779487,,,099,001,2019_Sep_03_1307,MusicAffectPsychophysiology2019,3.0.5,59.875223628518455,
To what extent did the music make you feel ,ACTIVE,30MonoWAV/30MonoT1.wav,2,1,4,13,,,,,0,7,7,12,0,3,3,9,,,,,,,,,2,1.8853183810133487,,,099,001,2019_Sep_03_1307,MusicAffectPsychophysiology2019,3.0.5,59.875223628518455,
To what extent did the music make you feel ,EXCITED,30MonoWAV/30MonoT1.wav,2,1,4,13,,,,,0,7,7,12,0,4,4,7,,,,,,,,,3,1.9038333099742886,,,099,001,2019_Sep_03_1307,MusicAffectPsychophysiology2019,3.0.5,59.875223628518455,
To what extent did the music make you feel ,SAD,30MonoWAV/30MonoT1.wav,2,1,4,13,,,,,0,7,7,12,0,5,5,0,,,,,,,,,1,1.4015960240212735,,,099,001,2019_Sep_03_1307,MusicAffectPsychophysiology2019,3.0.5,59.875223628518455,
To what extent did the music make you feel ,SCARED,30MonoWAV/30MonoT1.wav,2,1,4,13,,,,,0,7,7,12,0,6,6,11,,,,,,,,,1,1.603363782982342,,,099,001,2019_Sep_03_1307,MusicAffectPsychophysiology2019,3.0.5,59.875223628518455,
To what extent did the music make you feel ,GUILTY,30MonoWAV/30MonoT1.wav,2,1,4,13,,,,,0,7,7,12,0,7,7,5,,,,,,,,,1,0.6027752450027037,,,099,001,2019_Sep_03_1307,MusicAffectPsychophysiology2019,3.0.5,59.875223628518455,
To what extent did the music make you feel ,TENDER,30MonoWAV/30MonoT1.wav,2,1,4,13,,,,,0,7,7,12,0,8,8,10,,,,,,,,,1,0.4179727209848352,,,099,001,2019_Sep_03_1307,MusicAffectPsychophysiology2019,3.0.5,59.875223628518455,
To what extent did the music make you feel ,FRUSTRATED,30MonoWAV/30MonoT1.wav,2,1,4,13,,,,,0,7,7,12,0,9,9,3,,,,,,,,,1,3.5671678769867867,,,099,001,2019_Sep_03_1307,MusicAffectPsychophysiology2019,3.0.5,59.875223628518455,
To what extent did the music make you feel ,HAPPY,30MonoWAV/30MonoT1.wav,2,1,4,13,,,,,0,7,7,12,0,10,10,6,,,,,,,,,3,1.5354685760103166,,,099,001,2019_Sep_03_1307,MusicAffectPsychophysiology2019,3.0.5,59.875223628518455,
To what extent did the music make you feel ,ALERT,30MonoWAV/30MonoT1.wav,2,1,4,13,,,,,0,7,7,12,0,11,11,8,,,,,,,,,2,3.985551285004476,,,099,001,2019_Sep_03_1307,MusicAffectPsychophysiology2019,3.0.5,59.875223628518455,
,,30MonoWAV/30MonoT1.wav,2,1,4,13,,,,,0,7,7,12,,,,,,,,,,,,,,,,,099,001,2019_Sep_03_1307,MusicAffectPsychophysiology2019,3.0.5,59.875223628518455,
To what extent did the music make you feel ,SCARED,30MonoWAV/30MonoH2.wav,2,2,1,6,,,,,0,8,8,5,0,0,0,11,,,2,3.0528456949978136,2,2.269055534998188,2,1.7354683089943137,2,2.3017200590111315,,,099,001,2019_Sep_03_1307,MusicAffectPsychophysiology2019,3.0.5,59.875223628518455,
To what extent did the music make you feel ,HAPPY,30MonoWAV/30MonoH2.wav,2,2,1,6,,,,,0,8,8,5,0,1,1,6,,,,,,,,,2,2.069475716998568,,,099,001,2019_Sep_03_1307,MusicAffectPsychophysiology2019,3.0.5,59.875223628518455,
To what extent did the music make you feel ,FRUSTRATED,30MonoWAV/30MonoH2.wav,2,2,1,6,,,,,0,8,8,5,0,2,2,3,,,,,,,,,1,1.1359412230085582,,,099,001,2019_Sep_03_1307,MusicAffectPsychophysiology2019,3.0.5,59.875223628518455,
To what extent did the music make you feel ,ANXIOUS ,30MonoWAV/30MonoH2.wav,2,2,1,6,,,,,0,8,8,5,0,3,3,1,,,,,,,,,3,2.385827783989953,,,099,001,2019_Sep_03_1307,MusicAffectPsychophysiology2019,3.0.5,59.875223628518455,
To what extent did the music make you feel ,EXCITED,30MonoWAV/30MonoH2.wav,2,2,1,6,,,,,0,8,8,5,0,4,4,7,,,,,,,,,3,0.8152075530088041,,,099,001,2019_Sep_03_1307,MusicAffectPsychophysiology2019,3.0.5,59.875223628518455,
To what extent did the music make you feel ,SAD,30MonoWAV/30MonoH2.wav,2,2,1,6,,,,,0,8,8,5,0,5,5,0,,,,,,,,,1,1.1530893980234396,,,099,001,2019_Sep_03_1307,MusicAffectPsychophysiology2019,3.0.5,59.875223628518455,
To what extent did the music make you feel ,ASHAMED,30MonoWAV/30MonoH2.wav,2,2,1,6,,,,,0,8,8,5,0,6,6,4,,,,,,,,,1,3.699992658017436,,,099,001,2019_Sep_03_1307,MusicAffectPsychophysiology2019,3.0.5,59.875223628518455,
To what extent did the music make you feel ,TENDER,30MonoWAV/30MonoH2.wav,2,2,1,6,,,,,0,8,8,5,0,7,7,10,,,,,,,,,1,2.617162550013745,,,099,001,2019_Sep_03_1307,MusicAffectPsychophysiology2019,3.0.5,59.875223628518455,
To what extent did the music make you feel ,ACTIVE,30MonoWAV/30MonoH2.wav,2,2,1,6,,,,,0,8,8,5,0,8,8,9,,,,,,,,,3,0.9498384539911058,,,099,001,2019_Sep_03_1307,MusicAffectPsychophysiology2019,3.0.5,59.875223628518455,
To what extent did the music make you feel ,ANGRY,30MonoWAV/30MonoH2.wav,2,2,1,6,,,,,0,8,8,5,0,9,9,2,,,,,,,,,1,2.085110337997321,,,099,001,2019_Sep_03_1307,MusicAffectPsychophysiology2019,3.0.5,59.875223628518455,
To what extent did the music make you feel ,ALERT,30MonoWAV/30MonoH2.wav,2,2,1,6,,,,,0,8,8,5,0,10,10,8,,,,,,,,,2,1.0696190030139405,,,099,001,2019_Sep_03_1307,MusicAffectPsychophysiology2019,3.0.5,59.875223628518455,
To what extent did the music make you feel ,GUILTY,30MonoWAV/30MonoH2.wav,2,2,1,6,,,,,0,8,8,5,0,11,11,5,,,,,,,,,1,0.6525874380022287,,,099,001,2019_Sep_03_1307,MusicAffectPsychophysiology2019,3.0.5,59.875223628518455,
,,30MonoWAV/30MonoH2.wav,2,2,1,6,,,,,0,8,8,5,,,,,,,,,,,,,,,,,099,001,2019_Sep_03_1307,MusicAffectPsychophysiology2019,3.0.5,59.875223628518455,
To what extent did the music make you feel ,ANGRY,30MonoWAV/30MonoT2.wav,2,1,4,14,,,,,0,9,9,13,0,0,0,2,,,2,3.370632000005571,3,1.484068600984756,3,1.199383630999364,1,1.0915589559881482,,,099,001,2019_Sep_03_1307,MusicAffectPsychophysiology2019,3.0.5,59.875223628518455,
To what extent did the music make you feel ,ACTIVE,30MonoWAV/30MonoT2.wav,2,1,4,14,,,,,0,9,9,13,0,1,1,9,,,,,,,,,2,4.801594780001324,,,099,001,2019_Sep_03_1307,MusicAffectPsychophysiology2019,3.0.5,59.875223628518455,
To what extent did the music make you feel ,ALERT,30MonoWAV/30MonoT2.wav,2,1,4,14,,,,,0,9,9,13,0,2,2,8,,,,,,,,,2,1.385311391990399,,,099,001,2019_Sep_03_1307,MusicAffectPsychophysiology2019,3.0.5,59.875223628518455,
To what extent did the music make you feel ,TENDER,30MonoWAV/30MonoT2.wav,2,1,4,14,,,,,0,9,9,13,0,3,3,10,,,,,,,,,3,1.3694705509988125,,,099,001,2019_Sep_03_1307,MusicAffectPsychophysiology2019,3.0.5,59.875223628518455,
To what extent did the music make you feel ,ASHAMED,30MonoWAV/30MonoT2.wav,2,1,4,14,,,,,0,9,9,13,0,4,4,4,,,,,,,,,1,1.052433229982853,,,099,001,2019_Sep_03_1307,MusicAffectPsychophysiology2019,3.0.5,59.875223628518455,
To what extent did the music make you feel ,SCARED,30MonoWAV/30MonoT2.wav,2,1,4,14,,,,,0,9,9,13,0,5,5,11,,,,,,,,,1,1.9046790600114036,,,099,001,2019_Sep_03_1307,MusicAffectPsychophysiology2019,3.0.5,59.875223628518455,
To what extent did the music make you feel ,FRUSTRATED,30MonoWAV/30MonoT2.wav,2,1,4,14,,,,,0,9,9,13,0,6,6,3,,,,,,,,,1,0.9519756090012379,,,099,001,2019_Sep_03_1307,MusicAffectPsychophysiology2019,3.0.5,59.875223628518455,
To what extent did the music make you feel ,EXCITED,30MonoWAV/30MonoT2.wav,2,1,4,14,,,,,0,9,9,13,0,7,7,7,,,,,,,,,2,0.9520162459812127,,,099,001,2019_Sep_03_1307,MusicAffectPsychophysiology2019,3.0.5,59.875223628518455,
To what extent did the music make you feel ,SAD,30MonoWAV/30MonoT2.wav,2,1,4,14,,,,,0,9,9,13,0,8,8,0,,,,,,,,,1,0.9224345039983746,,,099,001,2019_Sep_03_1307,MusicAffectPsychophysiology2019,3.0.5,59.875223628518455,
To what extent did the music make you feel ,GUILTY,30MonoWAV/30MonoT2.wav,2,1,4,14,,,,,0,9,9,13,0,9,9,5,,,,,,,,,2,2.06952016701689,,,099,001,2019_Sep_03_1307,MusicAffectPsychophysiology2019,3.0.5,59.875223628518455,
To what extent did the music make you feel ,ANXIOUS ,30MonoWAV/30MonoT2.wav,2,1,4,14,,,,,0,9,9,13,0,10,10,1,,,,,,,,,2,3.269205949996831,,,099,001,2019_Sep_03_1307,MusicAffectPsychophysiology2019,3.0.5,59.875223628518455,
To what extent did the music make you feel ,HAPPY,30MonoWAV/30MonoT2.wav,2,1,4,14,,,,,0,9,9,13,0,11,11,6,,,,,,,,,2,1.4689939350064378,,,099,001,2019_Sep_03_1307,MusicAffectPsychophysiology2019,3.0.5,59.875223628518455,
,,30MonoWAV/30MonoT2.wav,2,1,4,14,,,,,0,9,9,13,,,,,,,,,,,,,,,,,099,001,2019_Sep_03_1307,MusicAffectPsychophysiology2019,3.0.5,59.875223628518455,
To what extent did the music make you feel ,HAPPY,30MonoWAV/30MonoS1.wav,1,1,3,9,,,,,0,10,10,8,0,0,0,6,,,2,4.0032395090092905,1,1.5687245900044218,3,2.1357078610162716,1,1.0859059979848098,,,099,001,2019_Sep_03_1307,MusicAffectPsychophysiology2019,3.0.5,59.875223628518455,
To what extent did the music make you feel ,GUILTY,30MonoWAV/30MonoS1.wav,1,1,3,9,,,,,0,10,10,8,0,1,1,5,,,,,,,,,2,1.0505671110004187,,,099,001,2019_Sep_03_1307,MusicAffectPsychophysiology2019,3.0.5,59.875223628518455,
To what extent did the music make you feel ,SAD,30MonoWAV/30MonoS1.wav,1,1,3,9,,,,,0,10,10,8,0,2,2,0,,,,,,,,,3,0.7853797860152554,,,099,001,2019_Sep_03_1307,MusicAffectPsychophysiology2019,3.0.5,59.875223628518455,
To what extent did the music make you feel ,SCARED,30MonoWAV/30MonoS1.wav,1,1,3,9,,,,,0,10,10,8,0,3,3,11,,,,,,,,,1,1.5360348450194579,,,099,001,2019_Sep_03_1307,MusicAffectPsychophysiology2019,3.0.5,59.875223628518455,
To what extent did the music make you feel ,EXCITED,30MonoWAV/30MonoS1.wav,1,1,3,9,,,,,0,10,10,8,0,4,4,7,,,,,,,,,1,3.034865814988734,,,099,001,2019_Sep_03_1307,MusicAffectPsychophysiology2019,3.0.5,59.875223628518455,
To what extent did the music make you feel ,ANXIOUS ,30MonoWAV/30MonoS1.wav,1,1,3,9,,,,,0,10,10,8,0,5,5,1,,,,,,,,,2,0.7524527119821869,,,099,001,2019_Sep_03_1307,MusicAffectPsychophysiology2019,3.0.5,59.875223628518455,
To what extent did the music make you feel ,ACTIVE,30MonoWAV/30MonoS1.wav,1,1,3,9,,,,,0,10,10,8,0,6,6,9,,,,,,,,,1,1.501854327012552,,,099,001,2019_Sep_03_1307,MusicAffectPsychophysiology2019,3.0.5,59.875223628518455,
To what extent did the music make you feel ,ANGRY,30MonoWAV/30MonoS1.wav,1,1,3,9,,,,,0,10,10,8,0,7,7,2,,,,,,,,,2,1.8515208870230708,,,099,001,2019_Sep_03_1307,MusicAffectPsychophysiology2019,3.0.5,59.875223628518455,
To what extent did the music make you feel ,ASHAMED,30MonoWAV/30MonoS1.wav,1,1,3,9,,,,,0,10,10,8,0,8,8,4,,,,,,,,,2,1.3519422849931289,,,099,001,2019_Sep_03_1307,MusicAffectPsychophysiology2019,3.0.5,59.875223628518455,
To what extent did the music make you feel ,FRUSTRATED,30MonoWAV/30MonoS1.wav,1,1,3,9,,,,,0,10,10,8,0,9,9,3,,,,,,,,,1,1.7200427390052937,,,099,001,2019_Sep_03_1307,MusicAffectPsychophysiology2019,3.0.5,59.875223628518455,
To what extent did the music make you feel ,TENDER,30MonoWAV/30MonoS1.wav,1,1,3,9,,,,,0,10,10,8,0,10,10,10,,,,,,,,,2,1.285778435994871,,,099,001,2019_Sep_03_1307,MusicAffectPsychophysiology2019,3.0.5,59.875223628518455,
To what extent did the music make you feel ,ALERT,30MonoWAV/30MonoS1.wav,1,1,3,9,,,,,0,10,10,8,0,11,11,8,,,,,,,,,2,1.7027749729750212,,,099,001,2019_Sep_03_1307,MusicAffectPsychophysiology2019,3.0.5,59.875223628518455,
,,30MonoWAV/30MonoS1.wav,1,1,3,9,,,,,0,10,10,8,,,,,,,,,,,,,,,,,099,001,2019_Sep_03_1307,MusicAffectPsychophysiology2019,3.0.5,59.875223628518455,
To what extent did the music make you feel ,TENDER,30MonoWAV/30MonoH3.wav,2,2,1,7,,,,,0,11,11,6,0,0,0,10,,,3,4.6358033290016465,4,0.9348698149842676,4,4.151863069011597,2,1.3607940369984135,,,099,001,2019_Sep_03_1307,MusicAffectPsychophysiology2019,3.0.5,59.875223628518455,
To what extent did the music make you feel ,ASHAMED,30MonoWAV/30MonoH3.wav,2,2,1,7,,,,,0,11,11,6,0,1,1,4,,,,,,,,,1,0.818716712994501,,,099,001,2019_Sep_03_1307,MusicAffectPsychophysiology2019,3.0.5,59.875223628518455,
To what extent did the music make you feel ,ACTIVE,30MonoWAV/30MonoH3.wav,2,2,1,7,,,,,0,11,11,6,0,2,2,9,,,,,,,,,3,1.3347163869766518,,,099,001,2019_Sep_03_1307,MusicAffectPsychophysiology2019,3.0.5,59.875223628518455,
To what extent did the music make you feel ,ANGRY,30MonoWAV/30MonoH3.wav,2,2,1,7,,,,,0,11,11,6,0,3,3,2,,,,,,,,,1,0.968797467998229,,,099,001,2019_Sep_03_1307,MusicAffectPsychophysiology2019,3.0.5,59.875223628518455,
To what extent did the music make you feel ,EXCITED,30MonoWAV/30MonoH3.wav,2,2,1,7,,,,,0,11,11,6,0,4,4,7,,,,,,,,,4,1.8032720500195865,,,099,001,2019_Sep_03_1307,MusicAffectPsychophysiology2019,3.0.5,59.875223628518455,
To what extent did the music make you feel ,SAD,30MonoWAV/30MonoH3.wav,2,2,1,7,,,,,0,11,11,6,0,5,5,0,,,,,,,,,1,1.1850126569916029,,,099,001,2019_Sep_03_1307,MusicAffectPsychophysiology2019,3.0.5,59.875223628518455,
To what extent did the music make you feel ,ANXIOUS ,30MonoWAV/30MonoH3.wav,2,2,1,7,,,,,0,11,11,6,0,6,6,1,,,,,,,,,2,1.4516444189939648,,,099,001,2019_Sep_03_1307,MusicAffectPsychophysiology2019,3.0.5,59.875223628518455,
To what extent did the music make you feel ,ALERT,30MonoWAV/30MonoH3.wav,2,2,1,7,,,,,0,11,11,6,0,7,7,8,,,,,,,,,3,2.001779518002877,,,099,001,2019_Sep_03_1307,MusicAffectPsychophysiology2019,3.0.5,59.875223628518455,
To what extent did the music make you feel ,SCARED,30MonoWAV/30MonoH3.wav,2,2,1,7,,,,,0,11,11,6,0,8,8,11,,,,,,,,,1,0.9528797889943235,,,099,001,2019_Sep_03_1307,MusicAffectPsychophysiology2019,3.0.5,59.875223628518455,
To what extent did the music make you feel ,GUILTY,30MonoWAV/30MonoH3.wav,2,2,1,7,,,,,0,11,11,6,0,9,9,5,,,,,,,,,1,0.8020282679935917,,,099,001,2019_Sep_03_1307,MusicAffectPsychophysiology2019,3.0.5,59.875223628518455,
To what extent did the music make you feel ,FRUSTRATED,30MonoWAV/30MonoH3.wav,2,2,1,7,,,,,0,11,11,6,0,10,10,3,,,,,,,,,1,0.5251863730081823,,,099,001,2019_Sep_03_1307,MusicAffectPsychophysiology2019,3.0.5,59.875223628518455,
To what extent did the music make you feel ,HAPPY,30MonoWAV/30MonoH3.wav,2,2,1,7,,,,,0,11,11,6,0,11,11,6,,,,,,,,,3,1.0349223160010297,,,099,001,2019_Sep_03_1307,MusicAffectPsychophysiology2019,3.0.5,59.875223628518455,
,,30MonoWAV/30MonoH3.wav,2,2,1,7,,,,,0,11,11,6,,,,,,,,,,,,,,,,,099,001,2019_Sep_03_1307,MusicAffectPsychophysiology2019,3.0.5,59.875223628518455,
To what extent did the music make you feel ,HAPPY,30MonoWAV/30MonoT3.wav,2,1,4,15,,,,,0,12,12,14,0,0,0,6,,,2,3.085791103017982,2,5.151500578009291,2,6.068838539998978,2,1.6030025990039576,,,099,001,2019_Sep_03_1307,MusicAffectPsychophysiology2019,3.0.5,59.875223628518455,
To what extent did the music make you feel ,SCARED,30MonoWAV/30MonoT3.wav,2,1,4,15,,,,,0,12,12,14,0,1,1,11,,,,,,,,,1,1.4023368970083538,,,099,001,2019_Sep_03_1307,MusicAffectPsychophysiology2019,3.0.5,59.875223628518455,
To what extent did the music make you feel ,EXCITED,30MonoWAV/30MonoT3.wav,2,1,4,15,,,,,0,12,12,14,0,2,2,7,,,,,,,,,2,2.3692224280093797,,,099,001,2019_Sep_03_1307,MusicAffectPsychophysiology2019,3.0.5,59.875223628518455,
To what extent did the music make you feel ,ANGRY,30MonoWAV/30MonoT3.wav,2,1,4,15,,,,,0,12,12,14,0,3,3,2,,,,,,,,,1,1.1869599079946056,,,099,001,2019_Sep_03_1307,MusicAffectPsychophysiology2019,3.0.5,59.875223628518455,
To what extent did the music make you feel ,TENDER,30MonoWAV/30MonoT3.wav,2,1,4,15,,,,,0,12,12,14,0,4,4,10,,,,,,,,,3,1.4358119489916135,,,099,001,2019_Sep_03_1307,MusicAffectPsychophysiology2019,3.0.5,59.875223628518455,
To what extent did the music make you feel ,ASHAMED,30MonoWAV/30MonoT3.wav,2,1,4,15,,,,,0,12,12,14,0,5,5,4,,,,,,,,,1,1.2005743340123445,,,099,001,2019_Sep_03_1307,MusicAffectPsychophysiology2019,3.0.5,59.875223628518455,
To what extent did the music make you feel ,FRUSTRATED,30MonoWAV/30MonoT3.wav,2,1,4,15,,,,,0,12,12,14,0,6,6,3,,,,,,,,,1,1.3365913830057252,,,099,001,2019_Sep_03_1307,MusicAffectPsychophysiology2019,3.0.5,59.875223628518455,
To what extent did the music make you feel ,GUILTY,30MonoWAV/30MonoT3.wav,2,1,4,15,,,,,0,12,12,14,0,7,7,5,,,,,,,,,1,0.5191827540111262,,,099,001,2019_Sep_03_1307,MusicAffectPsychophysiology2019,3.0.5,59.875223628518455,
To what extent did the music make you feel ,ANXIOUS ,30MonoWAV/30MonoT3.wav,2,1,4,15,,,,,0,12,12,14,0,8,8,1,,,,,,,,,2,1.0527186870167498,,,099,001,2019_Sep_03_1307,MusicAffectPsychophysiology2019,3.0.5,59.875223628518455,
To what extent did the music make you feel ,SAD,30MonoWAV/30MonoT3.wav,2,1,4,15,,,,,0,12,12,14,0,9,9,0,,,,,,,,,1,0.7353210939909332,,,099,001,2019_Sep_03_1307,MusicAffectPsychophysiology2019,3.0.5,59.875223628518455,
To what extent did the music make you feel ,ALERT,30MonoWAV/30MonoT3.wav,2,1,4,15,,,,,0,12,12,14,0,10,10,8,,,,,,,,,1,1.8858453769935295,,,099,001,2019_Sep_03_1307,MusicAffectPsychophysiology2019,3.0.5,59.875223628518455,
To what extent did the music make you feel ,ACTIVE,30MonoWAV/30MonoT3.wav,2,1,4,15,,,,,0,12,12,14,0,11,11,9,,,,,,,,,1,3.4338966780051123,,,099,001,2019_Sep_03_1307,MusicAffectPsychophysiology2019,3.0.5,59.875223628518455,
,,30MonoWAV/30MonoT3.wav,2,1,4,15,,,,,0,12,12,14,,,,,,,,,,,,,,,,,099,001,2019_Sep_03_1307,MusicAffectPsychophysiology2019,3.0.5,59.875223628518455,
To what extent did the music make you feel ,ALERT,30MonoWAV/30MonoH4.wav,2,2,1,8,,,,,0,13,13,7,0,0,0,8,,,3,3.486281560995849,3,1.7358887149894144,3,1.6511713459913153,1,2.0444195860181935,,,099,001,2019_Sep_03_1307,MusicAffectPsychophysiology2019,3.0.5,59.875223628518455,
To what extent did the music make you feel ,SCARED,30MonoWAV/30MonoH4.wav,2,2,1,8,,,,,0,13,13,7,0,1,1,11,,,,,,,,,1,0.9012597929977346,,,099,001,2019_Sep_03_1307,MusicAffectPsychophysiology2019,3.0.5,59.875223628518455,
To what extent did the music make you feel ,FRUSTRATED,30MonoWAV/30MonoH4.wav,2,2,1,8,,,,,0,13,13,7,0,2,2,3,,,,,,,,,1,0.6018696050159633,,,099,001,2019_Sep_03_1307,MusicAffectPsychophysiology2019,3.0.5,59.875223628518455,
To what extent did the music make you feel ,TENDER,30MonoWAV/30MonoH4.wav,2,2,1,8,,,,,0,13,13,7,0,3,3,10,,,,,,,,,2,0.8515030349954031,,,099,001,2019_Sep_03_1307,MusicAffectPsychophysiology2019,3.0.5,59.875223628518455,
To what extent did the music make you feel ,ACTIVE,30MonoWAV/30MonoH4.wav,2,2,1,8,,,,,0,13,13,7,0,4,4,9,,,,,,,,,3,1.1850476679974236,,,099,001,2019_Sep_03_1307,MusicAffectPsychophysiology2019,3.0.5,59.875223628518455,
To what extent did the music make you feel ,ANXIOUS ,30MonoWAV/30MonoH4.wav,2,2,1,8,,,,,0,13,13,7,0,5,5,1,,,,,,,,,1,0.8036354439973366,,,099,001,2019_Sep_03_1307,MusicAffectPsychophysiology2019,3.0.5,59.875223628518455,
To what extent did the music make you feel ,EXCITED,30MonoWAV/30MonoH4.wav,2,2,1,8,,,,,0,13,13,7,0,6,6,7,,,,,,,,,3,1.0360669050132856,,,099,001,2019_Sep_03_1307,MusicAffectPsychophysiology2019,3.0.5,59.875223628518455,
To what extent did the music make you feel ,ASHAMED,30MonoWAV/30MonoH4.wav,2,2,1,8,,,,,0,13,13,7,0,7,7,4,,,,,,,,,1,0.7365293079928961,,,099,001,2019_Sep_03_1307,MusicAffectPsychophysiology2019,3.0.5,59.875223628518455,
To what extent did the music make you feel ,ANGRY,30MonoWAV/30MonoH4.wav,2,2,1,8,,,,,0,13,13,7,0,8,8,2,,,,,,,,,1,1.7002616779936943,,,099,001,2019_Sep_03_1307,MusicAffectPsychophysiology2019,3.0.5,59.875223628518455,
To what extent did the music make you feel ,SAD,30MonoWAV/30MonoH4.wav,2,2,1,8,,,,,0,13,13,7,0,9,9,0,,,,,,,,,1,1.8863191110140178,,,099,001,2019_Sep_03_1307,MusicAffectPsychophysiology2019,3.0.5,59.875223628518455,
To what extent did the music make you feel ,HAPPY,30MonoWAV/30MonoH4.wav,2,2,1,8,,,,,0,13,13,7,0,10,10,6,,,,,,,,,3,0.7861968370270915,,,099,001,2019_Sep_03_1307,MusicAffectPsychophysiology2019,3.0.5,59.875223628518455,
To what extent did the music make you feel ,GUILTY,30MonoWAV/30MonoH4.wav,2,2,1,8,,,,,0,13,13,7,0,11,11,5,,,,,,,,,1,1.4692943209956866,,,099,001,2019_Sep_03_1307,MusicAffectPsychophysiology2019,3.0.5,59.875223628518455,
,,30MonoWAV/30MonoH4.wav,2,2,1,8,,,,,0,13,13,7,,,,,,,,,,,,,,,,,099,001,2019_Sep_03_1307,MusicAffectPsychophysiology2019,3.0.5,59.875223628518455,
To what extent did the music make you feel ,EXCITED,30MonoWAV/30MonoS3.wav,1,1,3,11,,,,,0,14,14,10,0,0,0,7,,,2,6.185574105998967,1,1.28851042399765,2,1.5868662869906984,1,1.8210911299975123,,,099,001,2019_Sep_03_1307,MusicAffectPsychophysiology2019,3.0.5,59.875223628518455,
To what extent did the music make you feel ,ACTIVE,30MonoWAV/30MonoS3.wav,1,1,3,11,,,,,0,14,14,10,0,1,1,9,,,,,,,,,1,0.9861818189965561,,,099,001,2019_Sep_03_1307,MusicAffectPsychophysiology2019,3.0.5,59.875223628518455,
To what extent did the music make you feel ,FRUSTRATED,30MonoWAV/30MonoS3.wav,1,1,3,11,,,,,0,14,14,10,0,2,2,3,,,,,,,,,2,0.7532198289991356,,,099,001,2019_Sep_03_1307,MusicAffectPsychophysiology2019,3.0.5,59.875223628518455,
To what extent did the music make you feel ,SAD,30MonoWAV/30MonoS3.wav,1,1,3,11,,,,,0,14,14,10,0,3,3,0,,,,,,,,,3,0.7202988379867747,,,099,001,2019_Sep_03_1307,MusicAffectPsychophysiology2019,3.0.5,59.875223628518455,
To what extent did the music make you feel ,ANXIOUS ,30MonoWAV/30MonoS3.wav,1,1,3,11,,,,,0,14,14,10,0,4,4,1,,,,,,,,,4,2.0870412169897463,,,099,001,2019_Sep_03_1307,MusicAffectPsychophysiology2019,3.0.5,59.875223628518455,
To what extent did the music make you feel ,ALERT,30MonoWAV/30MonoS3.wav,1,1,3,11,,,,,0,14,14,10,0,5,5,8,,,,,,,,,3,0.9341163389908615,,,099,001,2019_Sep_03_1307,MusicAffectPsychophysiology2019,3.0.5,59.875223628518455,
To what extent did the music make you feel ,TENDER,30MonoWAV/30MonoS3.wav,1,1,3,11,,,,,0,14,14,10,0,6,6,10,,,,,,,,,2,1.3357776399934664,,,099,001,2019_Sep_03_1307,MusicAffectPsychophysiology2019,3.0.5,59.875223628518455,
To what extent did the music make you feel ,SCARED,30MonoWAV/30MonoS3.wav,1,1,3,11,,,,,0,14,14,10,0,7,7,11,,,,,,,,,2,2.90189237400773,,,099,001,2019_Sep_03_1307,MusicAffectPsychophysiology2019,3.0.5,59.875223628518455,
To what extent did the music make you feel ,HAPPY,30MonoWAV/30MonoS3.wav,1,1,3,11,,,,,0,14,14,10,0,8,8,6,,,,,,,,,1,0.801063132006675,,,099,001,2019_Sep_03_1307,MusicAffectPsychophysiology2019,3.0.5,59.875223628518455,
To what extent did the music make you feel ,ANGRY,30MonoWAV/30MonoS3.wav,1,1,3,11,,,,,0,14,14,10,0,9,9,2,,,,,,,,,2,0.8204677999892738,,,099,001,2019_Sep_03_1307,MusicAffectPsychophysiology2019,3.0.5,59.875223628518455,
To what extent did the music make you feel ,GUILTY,30MonoWAV/30MonoS3.wav,1,1,3,11,,,,,0,14,14,10,0,10,10,5,,,,,,,,,2,1.533776279015001,,,099,001,2019_Sep_03_1307,MusicAffectPsychophysiology2019,3.0.5,59.875223628518455,
To what extent did the music make you feel ,ASHAMED,30MonoWAV/30MonoS3.wav,1,1,3,11,,,,,0,14,14,10,0,11,11,4,,,,,,,,,2,1.5351952879864257,,,099,001,2019_Sep_03_1307,MusicAffectPsychophysiology2019,3.0.5,59.875223628518455,
,,30MonoWAV/30MonoS3.wav,1,1,3,11,,,,,0,14,14,10,,,,,,,,,,,,,,,,,099,001,2019_Sep_03_1307,MusicAffectPsychophysiology2019,3.0.5,59.875223628518455,
To what extent did the music make you feel ,ANGRY,30MonoWAV/30MonoF2.wav,1,2,2,2,,,,,0,15,15,1,0,0,0,2,,,2,2.6530687210033648,1,0.5857842750265263,1,0.23351129298680462,2,5.449219421978341,,,099,001,2019_Sep_03_1307,MusicAffectPsychophysiology2019,3.0.5,59.875223628518455,
To what extent did the music make you feel ,ANXIOUS ,30MonoWAV/30MonoF2.wav,1,2,2,2,,,,,0,15,15,1,0,1,1,1,,,,,,,,,4,1.3713927149947267,,,099,001,2019_Sep_03_1307,MusicAffectPsychophysiology2019,3.0.5,59.875223628518455,
To what extent did the music make you feel ,FRUSTRATED,30MonoWAV/30MonoF2.wav,1,2,2,2,,,,,0,15,15,1,0,2,2,3,,,,,,,,,2,2.3027455089904834,,,099,001,2019_Sep_03_1307,MusicAffectPsychophysiology2019,3.0.5,59.875223628518455,
To what extent did the music make you feel ,GUILTY,30MonoWAV/30MonoF2.wav,1,2,2,2,,,,,0,15,15,1,0,3,3,5,,,,,,,,,2,1.4039388169767335,,,099,001,2019_Sep_03_1307,MusicAffectPsychophysiology2019,3.0.5,59.875223628518455,
To what extent did the music make you feel ,EXCITED,30MonoWAV/30MonoF2.wav,1,2,2,2,,,,,0,15,15,1,0,4,4,7,,,,,,,,,2,2.018954909988679,,,099,001,2019_Sep_03_1307,MusicAffectPsychophysiology2019,3.0.5,59.875223628518455,
To what extent did the music make you feel ,ASHAMED,30MonoWAV/30MonoF2.wav,1,2,2,2,,,,,0,15,15,1,0,5,5,4,,,,,,,,,1,1.418975622014841,,,099,001,2019_Sep_03_1307,MusicAffectPsychophysiology2019,3.0.5,59.875223628518455,
To what extent did the music make you feel ,ALERT,30MonoWAV/30MonoF2.wav,1,2,2,2,,,,,0,15,15,1,0,6,6,8,,,,,,,,,5,3.6187203240115196,,,099,001,2019_Sep_03_1307,MusicAffectPsychophysiology2019,3.0.5,59.875223628518455,
To what extent did the music make you feel ,TENDER,30MonoWAV/30MonoF2.wav,1,2,2,2,,,,,0,15,15,1,0,7,7,10,,,,,,,,,2,2.234185606997926,,,099,001,2019_Sep_03_1307,MusicAffectPsychophysiology2019,3.0.5,59.875223628518455,
To what extent did the music make you feel ,SCARED,30MonoWAV/30MonoF2.wav,1,2,2,2,,,,,0,15,15,1,0,8,8,11,,,,,,,,,2,1.6854295679950155,,,099,001,2019_Sep_03_1307,MusicAffectPsychophysiology2019,3.0.5,59.875223628518455,
To what extent did the music make you feel ,HAPPY,30MonoWAV/30MonoF2.wav,1,2,2,2,,,,,0,15,15,1,0,9,9,6,,,,,,,,,1,0.8533242859994061,,,099,001,2019_Sep_03_1307,MusicAffectPsychophysiology2019,3.0.5,59.875223628518455,
To what extent did the music make you feel ,ACTIVE,30MonoWAV/30MonoF2.wav,1,2,2,2,,,,,0,15,15,1,0,10,10,9,,,,,,,,,2,1.0529061359993648,,,099,001,2019_Sep_03_1307,MusicAffectPsychophysiology2019,3.0.5,59.875223628518455,
To what extent did the music make you feel ,SAD,30MonoWAV/30MonoF2.wav,1,2,2,2,,,,,0,15,15,1,0,11,11,0,,,,,,,,,1,0.9528640449861996,,,099,001,2019_Sep_03_1307,MusicAffectPsychophysiology2019,3.0.5,59.875223628518455,
,,30MonoWAV/30MonoF2.wav,1,2,2,2,,,,,0,15,15,1,,,,,,,,,,,,,,,,,099,001,2019_Sep_03_1307,MusicAffectPsychophysiology2019,3.0.5,59.875223628518455,
To what extent did the music make you feel ,GUILTY,30MonoWAV/30MonoT1.wav,2,1,4,13,,,,,1,0,16,12,0,0,0,5,,,2,3.902828947000671,2,1.5003399169945624,3,1.3520480080042034,1,4.490495506994193,,,099,001,2019_Sep_03_1307,MusicAffectPsychophysiology2019,3.0.5,59.875223628518455,
To what extent did the music make you feel ,ALERT,30MonoWAV/30MonoT1.wav,2,1,4,13,,,,,1,0,16,12,0,1,1,8,,,,,,,,,2,1.31541837201803,,,099,001,2019_Sep_03_1307,MusicAffectPsychophysiology2019,3.0.5,59.875223628518455,
To what extent did the music make you feel ,TENDER,30MonoWAV/30MonoT1.wav,2,1,4,13,,,,,1,0,16,12,0,2,2,10,,,,,,,,,3,0.8695277239894494,,,099,001,2019_Sep_03_1307,MusicAffectPsychophysiology2019,3.0.5,59.875223628518455,
To what extent did the music make you feel ,FRUSTRATED,30MonoWAV/30MonoT1.wav,2,1,4,13,,,,,1,0,16,12,0,3,3,3,,,,,,,,,1,1.4529307070188224,,,099,001,2019_Sep_03_1307,MusicAffectPsychophysiology2019,3.0.5,59.875223628518455,
To what extent did the music make you feel ,EXCITED,30MonoWAV/30MonoT1.wav,2,1,4,13,,,,,1,0,16,12,0,4,4,7,,,,,,,,,2,0.9862265959964134,,,099,001,2019_Sep_03_1307,MusicAffectPsychophysiology2019,3.0.5,59.875223628518455,
To what extent did the music make you feel ,ACTIVE,30MonoWAV/30MonoT1.wav,2,1,4,13,,,,,1,0,16,12,0,5,5,9,,,,,,,,,2,0.902476587012643,,,099,001,2019_Sep_03_1307,MusicAffectPsychophysiology2019,3.0.5,59.875223628518455,
To what extent did the music make you feel ,SCARED,30MonoWAV/30MonoT1.wav,2,1,4,13,,,,,1,0,16,12,0,6,6,11,,,,,,,,,1,0.6697844339942094,,,099,001,2019_Sep_03_1307,MusicAffectPsychophysiology2019,3.0.5,59.875223628518455,
To what extent did the music make you feel ,ANXIOUS ,30MonoWAV/30MonoT1.wav,2,1,4,13,,,,,1,0,16,12,0,7,7,1,,,,,,,,,2,1.8500941789825447,,,099,001,2019_Sep_03_1307,MusicAffectPsychophysiology2019,3.0.5,59.875223628518455,
To what extent did the music make you feel ,ASHAMED,30MonoWAV/30MonoT1.wav,2,1,4,13,,,,,1,0,16,12,0,8,8,4,,,,,,,,,1,0.669541961979121,,,099,001,2019_Sep_03_1307,MusicAffectPsychophysiology2019,3.0.5,59.875223628518455,
To what extent did the music make you feel ,ANGRY,30MonoWAV/30MonoT1.wav,2,1,4,13,,,,,1,0,16,12,0,9,9,2,,,,,,,,,1,2.0853786170191597,,,099,001,2019_Sep_03_1307,MusicAffectPsychophysiology2019,3.0.5,59.875223628518455,
To what extent did the music make you feel ,HAPPY,30MonoWAV/30MonoT1.wav,2,1,4,13,,,,,1,0,16,12,0,10,10,6,,,,,,,,,3,0.9863895129819866,,,099,001,2019_Sep_03_1307,MusicAffectPsychophysiology2019,3.0.5,59.875223628518455,
To what extent did the music make you feel ,SAD,30MonoWAV/30MonoT1.wav,2,1,4,13,,,,,1,0,16,12,0,11,11,0,,,,,,,,,2,2.351902569993399,,,099,001,2019_Sep_03_1307,MusicAffectPsychophysiology2019,3.0.5,59.875223628518455,
,,30MonoWAV/30MonoT1.wav,2,1,4,13,,,,,1,0,16,12,,,,,,,,,,,,,,,,,099,001,2019_Sep_03_1307,MusicAffectPsychophysiology2019,3.0.5,59.875223628518455,
To what extent did the music make you feel ,FRUSTRATED,30MonoWAV/30MonoS2.wav,1,1,3,10,,,,,1,1,17,9,0,0,0,3,,,2,4.601279641996371,2,1.7498088469728827,2,1.3199162560049444,1,3.1527483180107083,,,099,001,2019_Sep_03_1307,MusicAffectPsychophysiology2019,3.0.5,59.875223628518455,
To what extent did the music make you feel ,GUILTY,30MonoWAV/30MonoS2.wav,1,1,3,10,,,,,1,1,17,9,0,1,1,5,,,,,,,,,1,1.3362484629906248,,,099,001,2019_Sep_03_1307,MusicAffectPsychophysiology2019,3.0.5,59.875223628518455,
To what extent did the music make you feel ,SCARED,30MonoWAV/30MonoS2.wav,1,1,3,10,,,,,1,1,17,9,0,2,2,11,,,,,,,,,2,0.8348867120221257,,,099,001,2019_Sep_03_1307,MusicAffectPsychophysiology2019,3.0.5,59.875223628518455,
To what extent did the music make you feel ,ACTIVE,30MonoWAV/30MonoS2.wav,1,1,3,10,,,,,1,1,17,9,0,3,3,9,,,,,,,,,2,1.8186593689897563,,,099,001,2019_Sep_03_1307,MusicAffectPsychophysiology2019,3.0.5,59.875223628518455,
To what extent did the music make you feel ,ANXIOUS ,30MonoWAV/30MonoS2.wav,1,1,3,10,,,,,1,1,17,9,0,4,4,1,,,,,,,,,2,1.3348773640173022,,,099,001,2019_Sep_03_1307,MusicAffectPsychophysiology2019,3.0.5,59.875223628518455,
To what extent did the music make you feel ,SAD,30MonoWAV/30MonoS2.wav,1,1,3,10,,,,,1,1,17,9,0,5,5,0,,,,,,,,,2,1.169019748980645,,,099,001,2019_Sep_03_1307,MusicAffectPsychophysiology2019,3.0.5,59.875223628518455,
To what extent did the music make you feel ,ALERT,30MonoWAV/30MonoS2.wav,1,1,3,10,,,,,1,1,17,9,0,6,6,8,,,,,,,,,3,2.43549560700194,,,099,001,2019_Sep_03_1307,MusicAffectPsychophysiology2019,3.0.5,59.875223628518455,
To what extent did the music make you feel ,ANGRY,30MonoWAV/30MonoS2.wav,1,1,3,10,,,,,1,1,17,9,0,7,7,2,,,,,,,,,1,1.6693162439914886,,,099,001,2019_Sep_03_1307,MusicAffectPsychophysiology2019,3.0.5,59.875223628518455,
To what extent did the music make you feel ,HAPPY,30MonoWAV/30MonoS2.wav,1,1,3,10,,,,,1,1,17,9,0,8,8,6,,,,,,,,,1,1.2851476199866738,,,099,001,2019_Sep_03_1307,MusicAffectPsychophysiology2019,3.0.5,59.875223628518455,
To what extent did the music make you feel ,ASHAMED,30MonoWAV/30MonoS2.wav,1,1,3,10,,,,,1,1,17,9,0,9,9,4,,,,,,,,,1,1.1032337899960112,,,099,001,2019_Sep_03_1307,MusicAffectPsychophysiology2019,3.0.5,59.875223628518455,
To what extent did the music make you feel ,TENDER,30MonoWAV/30MonoS2.wav,1,1,3,10,,,,,1,1,17,9,0,10,10,10,,,,,,,,,2,0.7838436740275938,,,099,001,2019_Sep_03_1307,MusicAffectPsychophysiology2019,3.0.5,59.875223628518455,
To what extent did the music make you feel ,EXCITED,30MonoWAV/30MonoS2.wav,1,1,3,10,,,,,1,1,17,9,0,11,11,7,,,,,,,,,3,0.9370657000108622,,,099,001,2019_Sep_03_1307,MusicAffectPsychophysiology2019,3.0.5,59.875223628518455,
,,30MonoWAV/30MonoS2.wav,1,1,3,10,,,,,1,1,17,9,,,,,,,,,,,,,,,,,099,001,2019_Sep_03_1307,MusicAffectPsychophysiology2019,3.0.5,59.875223628518455,
To what extent did the music make you feel ,FRUSTRATED,30MonoWAV/30MonoF1.wav,1,2,2,1,,,,,1,2,18,0,0,0,0,3,,,3,3.335490775993094,1,2.536087829997996,2,2.536211051978171,2,2.2255195369943976,,,099,001,2019_Sep_03_1307,MusicAffectPsychophysiology2019,3.0.5,59.875223628518455,
To what extent did the music make you feel ,GUILTY,30MonoWAV/30MonoF1.wav,1,2,2,1,,,,,1,2,18,0,0,1,1,5,,,,,,,,,1,0.9688658400264103,,,099,001,2019_Sep_03_1307,MusicAffectPsychophysiology2019,3.0.5,59.875223628518455,
To what extent did the music make you feel ,ANXIOUS ,30MonoWAV/30MonoF1.wav,1,2,2,1,,,,,1,2,18,0,0,2,2,1,,,,,,,,,5,2.836426156980451,,,099,001,2019_Sep_03_1307,MusicAffectPsychophysiology2019,3.0.5,59.875223628518455,
To what extent did the music make you feel ,SAD,30MonoWAV/30MonoF1.wav,1,2,2,1,,,,,1,2,18,0,0,3,3,0,,,,,,,,,1,1.6189452200196683,,,099,001,2019_Sep_03_1307,MusicAffectPsychophysiology2019,3.0.5,59.875223628518455,
To what extent did the music make you feel ,ACTIVE,30MonoWAV/30MonoF1.wav,1,2,2,1,,,,,1,2,18,0,0,4,4,9,,,,,,,,,3,1.337499677989399,,,099,001,2019_Sep_03_1307,MusicAffectPsychophysiology2019,3.0.5,59.875223628518455,
To what extent did the music make you feel ,EXCITED,30MonoWAV/30MonoF1.wav,1,2,2,1,,,,,1,2,18,0,0,5,5,7,,,,,,,,,3,2.7534539560147095,,,099,001,2019_Sep_03_1307,MusicAffectPsychophysiology2019,3.0.5,59.875223628518455,
To what extent did the music make you feel ,TENDER,30MonoWAV/30MonoF1.wav,1,2,2,1,,,,,1,2,18,0,0,6,6,10,,,,,,,,,1,2.585457641980611,,,099,001,2019_Sep_03_1307,MusicAffectPsychophysiology2019,3.0.5,59.875223628518455,
To what extent did the music make you feel ,ALERT,30MonoWAV/30MonoF1.wav,1,2,2,1,,,,,1,2,18,0,0,7,7,8,,,,,,,,,4,2.5002631139941514,,,099,001,2019_Sep_03_1307,MusicAffectPsychophysiology2019,3.0.5,59.875223628518455,
To what extent did the music make you feel ,ANGRY,30MonoWAV/30MonoF1.wav,1,2,2,1,,,,,1,2,18,0,0,8,8,2,,,,,,,,,1,2.2196839550160803,,,099,001,2019_Sep_03_1307,MusicAffectPsychophysiology2019,3.0.5,59.875223628518455,
To what extent did the music make you feel ,HAPPY,30MonoWAV/30MonoF1.wav,1,2,2,1,,,,,1,2,18,0,0,9,9,6,,,,,,,,,1,0.9527342040091753,,,099,001,2019_Sep_03_1307,MusicAffectPsychophysiology2019,3.0.5,59.875223628518455,
To what extent did the music make you feel ,SCARED,30MonoWAV/30MonoF1.wav,1,2,2,1,,,,,1,2,18,0,0,10,10,11,,,,,,,,,3,1.8526013219961897,,,099,001,2019_Sep_03_1307,MusicAffectPsychophysiology2019,3.0.5,59.875223628518455,
To what extent did the music make you feel ,ASHAMED,30MonoWAV/30MonoF1.wav,1,2,2,1,,,,,1,2,18,0,0,11,11,4,,,,,,,,,1,1.584556502988562,,,099,001,2019_Sep_03_1307,MusicAffectPsychophysiology2019,3.0.5,59.875223628518455,
,,30MonoWAV/30MonoF1.wav,1,2,2,1,,,,,1,2,18,0,,,,,,,,,,,,,,,,,099,001,2019_Sep_03_1307,MusicAffectPsychophysiology2019,3.0.5,59.875223628518455,
To what extent did the music make you feel ,TENDER,30MonoWAV/30MonoT3.wav,2,1,4,15,,,,,1,3,19,14,0,0,0,10,,,2,7.018333053973038,2,1.552887934987666,2,1.2692105660098605,2,4.068198130000383,,,099,001,2019_Sep_03_1307,MusicAffectPsychophysiology2019,3.0.5,59.875223628518455,
To what extent did the music make you feel ,ASHAMED,30MonoWAV/30MonoT3.wav,2,1,4,15,,,,,1,3,19,14,0,1,1,4,,,,,,,,,1,1.7198406060051639,,,099,001,2019_Sep_03_1307,MusicAffectPsychophysiology2019,3.0.5,59.875223628518455,
To what extent did the music make you feel ,HAPPY,30MonoWAV/30MonoT3.wav,2,1,4,15,,,,,1,3,19,14,0,2,2,6,,,,,,,,,1,1.1504769369785208,,,099,001,2019_Sep_03_1307,MusicAffectPsychophysiology2019,3.0.5,59.875223628518455,
To what extent did the music make you feel ,ALERT,30MonoWAV/30MonoT3.wav,2,1,4,15,,,,,1,3,19,14,0,3,3,8,,,,,,,,,3,1.2013895379786845,,,099,001,2019_Sep_03_1307,MusicAffectPsychophysiology2019,3.0.5,59.875223628518455,
To what extent did the music make you feel ,FRUSTRATED,30MonoWAV/30MonoT3.wav,2,1,4,15,,,,,1,3,19,14,0,4,4,3,,,,,,,,,2,1.0518216750060674,,,099,001,2019_Sep_03_1307,MusicAffectPsychophysiology2019,3.0.5,59.875223628518455,
To what extent did the music make you feel ,ACTIVE,30MonoWAV/30MonoT3.wav,2,1,4,15,,,,,1,3,19,14,0,5,5,9,,,,,,,,,2,1.2527070799842477,,,099,001,2019_Sep_03_1307,MusicAffectPsychophysiology2019,3.0.5,59.875223628518455,
To what extent did the music make you feel ,SAD,30MonoWAV/30MonoT3.wav,2,1,4,15,,,,,1,3,19,14,0,6,6,0,,,,,,,,,3,2.4341811860213056,,,099,001,2019_Sep_03_1307,MusicAffectPsychophysiology2019,3.0.5,59.875223628518455,
To what extent did the music make you feel ,EXCITED,30MonoWAV/30MonoT3.wav,2,1,4,15,,,,,1,3,19,14,0,7,7,7,,,,,,,,,1,1.8325311470252927,,,099,001,2019_Sep_03_1307,MusicAffectPsychophysiology2019,3.0.5,59.875223628518455,
To what extent did the music make you feel ,ANXIOUS ,30MonoWAV/30MonoT3.wav,2,1,4,15,,,,,1,3,19,14,0,8,8,1,,,,,,,,,2,0.9024031049921177,,,099,001,2019_Sep_03_1307,MusicAffectPsychophysiology2019,3.0.5,59.875223628518455,
To what extent did the music make you feel ,ANGRY,30MonoWAV/30MonoT3.wav,2,1,4,15,,,,,1,3,19,14,0,9,9,2,,,,,,,,,1,1.3197939300152939,,,099,001,2019_Sep_03_1307,MusicAffectPsychophysiology2019,3.0.5,59.875223628518455,
To what extent did the music make you feel ,GUILTY,30MonoWAV/30MonoT3.wav,2,1,4,15,,,,,1,3,19,14,0,10,10,5,,,,,,,,,2,1.652663095999742,,,099,001,2019_Sep_03_1307,MusicAffectPsychophysiology2019,3.0.5,59.875223628518455,
To what extent did the music make you feel ,SCARED,30MonoWAV/30MonoT3.wav,2,1,4,15,,,,,1,3,19,14,0,11,11,11,,,,,,,,,3,1.0852115569869056,,,099,001,2019_Sep_03_1307,MusicAffectPsychophysiology2019,3.0.5,59.875223628518455,
,,30MonoWAV/30MonoT3.wav,2,1,4,15,,,,,1,3,19,14,,,,,,,,,,,,,,,,,099,001,2019_Sep_03_1307,MusicAffectPsychophysiology2019,3.0.5,59.875223628518455,
To what extent did the music make you feel ,ANXIOUS ,30MonoWAV/30MonoS1.wav,1,1,3,9,,,,,1,4,20,8,0,0,0,1,,,2,4.3527645010035485,1,1.9192294459789991,2,1.4860667120083235,3,1.8097846260061488,,,099,001,2019_Sep_03_1307,MusicAffectPsychophysiology2019,3.0.5,59.875223628518455,
To what extent did the music make you feel ,EXCITED,30MonoWAV/30MonoS1.wav,1,1,3,9,,,,,1,4,20,8,0,1,1,7,,,,,,,,,2,1.1195270649914164,,,099,001,2019_Sep_03_1307,MusicAffectPsychophysiology2019,3.0.5,59.875223628518455,
To what extent did the music make you feel ,SCARED,30MonoWAV/30MonoS1.wav,1,1,3,9,,,,,1,4,20,8,0,2,2,11,,,,,,,,,3,0.7849469590000808,,,099,001,2019_Sep_03_1307,MusicAffectPsychophysiology2019,3.0.5,59.875223628518455,
To what extent did the music make you feel ,TENDER,30MonoWAV/30MonoS1.wav,1,1,3,9,,,,,1,4,20,8,0,3,3,10,,,,,,,,,1,1.2356525080103893,,,099,001,2019_Sep_03_1307,MusicAffectPsychophysiology2019,3.0.5,59.875223628518455,
To what extent did the music make you feel ,ALERT,30MonoWAV/30MonoS1.wav,1,1,3,9,,,,,1,4,20,8,0,4,4,8,,,,,,,,,2,0.8843941419909243,,,099,001,2019_Sep_03_1307,MusicAffectPsychophysiology2019,3.0.5,59.875223628518455,
To what extent did the music make you feel ,ANGRY,30MonoWAV/30MonoS1.wav,1,1,3,9,,,,,1,4,20,8,0,5,5,2,,,,,,,,,1,0.9683394980092999,,,099,001,2019_Sep_03_1307,MusicAffectPsychophysiology2019,3.0.5,59.875223628518455,
To what extent did the music make you feel ,GUILTY,30MonoWAV/30MonoS1.wav,1,1,3,9,,,,,1,4,20,8,0,6,6,5,,,,,,,,,3,0.8863770239986479,,,099,001,2019_Sep_03_1307,MusicAffectPsychophysiology2019,3.0.5,59.875223628518455,
To what extent did the music make you feel ,ASHAMED,30MonoWAV/30MonoS1.wav,1,1,3,9,,,,,1,4,20,8,0,7,7,4,,,,,,,,,2,2.019373353017727,,,099,001,2019_Sep_03_1307,MusicAffectPsychophysiology2019,3.0.5,59.875223628518455,
To what extent did the music make you feel ,SAD,30MonoWAV/30MonoS1.wav,1,1,3,9,,,,,1,4,20,8,0,8,8,0,,,,,,,,,3,0.8342971430101898,,,099,001,2019_Sep_03_1307,MusicAffectPsychophysiology2019,3.0.5,59.875223628518455,
To what extent did the music make you feel ,HAPPY,30MonoWAV/30MonoS1.wav,1,1,3,9,,,,,1,4,20,8,0,9,9,6,,,,,,,,,1,0.8681848429841921,,,099,001,2019_Sep_03_1307,MusicAffectPsychophysiology2019,3.0.5,59.875223628518455,
To what extent did the music make you feel ,FRUSTRATED,30MonoWAV/30MonoS1.wav,1,1,3,9,,,,,1,4,20,8,0,10,10,3,,,,,,,,,2,0.8204031019995455,,,099,001,2019_Sep_03_1307,MusicAffectPsychophysiology2019,3.0.5,59.875223628518455,
To what extent did the music make you feel ,ACTIVE,30MonoWAV/30MonoS1.wav,1,1,3,9,,,,,1,4,20,8,0,11,11,9,,,,,,,,,1,1.0581055700022262,,,099,001,2019_Sep_03_1307,MusicAffectPsychophysiology2019,3.0.5,59.875223628518455,
,,30MonoWAV/30MonoS1.wav,1,1,3,9,,,,,1,4,20,8,,,,,,,,,,,,,,,,,099,001,2019_Sep_03_1307,MusicAffectPsychophysiology2019,3.0.5,59.875223628518455,
To what extent did the music make you feel ,HAPPY,30MonoWAV/30MonoH1.wav,2,2,1,5,,,,,1,5,21,4,0,0,0,6,,,3,2.885856387001695,3,0.985540622001281,2,1.3355126250244211,3,2.838650793011766,,,099,001,2019_Sep_03_1307,MusicAffectPsychophysiology2019,3.0.5,59.875223628518455,
To what extent did the music make you feel ,ACTIVE,30MonoWAV/30MonoH1.wav,2,2,1,5,,,,,1,5,21,4,0,1,1,9,,,,,,,,,3,0.6328275609994307,,,099,001,2019_Sep_03_1307,MusicAffectPsychophysiology2019,3.0.5,59.875223628518455,
To what extent did the music make you feel ,ASHAMED,30MonoWAV/30MonoH1.wav,2,2,1,5,,,,,1,5,21,4,0,2,2,4,,,,,,,,,1,1.2697920339996926,,,099,001,2019_Sep_03_1307,MusicAffectPsychophysiology2019,3.0.5,59.875223628518455,
To what extent did the music make you feel ,FRUSTRATED,30MonoWAV/30MonoH1.wav,2,2,1,5,,,,,1,5,21,4,0,3,3,3,,,,,,,,,1,0.6682377849938348,,,099,001,2019_Sep_03_1307,MusicAffectPsychophysiology2019,3.0.5,59.875223628518455,
To what extent did the music make you feel ,ANXIOUS ,30MonoWAV/30MonoH1.wav,2,2,1,5,,,,,1,5,21,4,0,4,4,1,,,,,,,,,2,0.9188408390036784,,,099,001,2019_Sep_03_1307,MusicAffectPsychophysiology2019,3.0.5,59.875223628518455,
To what extent did the music make you feel ,SAD,30MonoWAV/30MonoH1.wav,2,2,1,5,,,,,1,5,21,4,0,5,5,0,,,,,,,,,1,0.7034804350114428,,,099,001,2019_Sep_03_1307,MusicAffectPsychophysiology2019,3.0.5,59.875223628518455,
To what extent did the music make you feel ,GUILTY,30MonoWAV/30MonoH1.wav,2,2,1,5,,,,,1,5,21,4,0,6,6,5,,,,,,,,,1,0.6189701370021794,,,099,001,2019_Sep_03_1307,MusicAffectPsychophysiology2019,3.0.5,59.875223628518455,
To what extent did the music make you feel ,TENDER,30MonoWAV/30MonoH1.wav,2,2,1,5,,,,,1,5,21,4,0,7,7,10,,,,,,,,,2,1.1526887649961282,,,099,001,2019_Sep_03_1307,MusicAffectPsychophysiology2019,3.0.5,59.875223628518455,
To what extent did the music make you feel ,ANGRY,30MonoWAV/30MonoH1.wav,2,2,1,5,,,,,1,5,21,4,0,8,8,2,,,,,,,,,1,0.6857428110088222,,,099,001,2019_Sep_03_1307,MusicAffectPsychophysiology2019,3.0.5,59.875223628518455,
To what extent did the music make you feel ,EXCITED,30MonoWAV/30MonoH1.wav,2,2,1,5,,,,,1,5,21,4,0,9,9,7,,,,,,,,,4,1.319163173000561,,,099,001,2019_Sep_03_1307,MusicAffectPsychophysiology2019,3.0.5,59.875223628518455,
To what extent did the music make you feel ,SCARED,30MonoWAV/30MonoH1.wav,2,2,1,5,,,,,1,5,21,4,0,10,10,11,,,,,,,,,1,1.752402179990895,,,099,001,2019_Sep_03_1307,MusicAffectPsychophysiology2019,3.0.5,59.875223628518455,
To what extent did the music make you feel ,ALERT,30MonoWAV/30MonoH1.wav,2,2,1,5,,,,,1,5,21,4,0,11,11,8,,,,,,,,,2,1.1027261349954642,,,099,001,2019_Sep_03_1307,MusicAffectPsychophysiology2019,3.0.5,59.875223628518455,
,,30MonoWAV/30MonoH1.wav,2,2,1,5,,,,,1,5,21,4,,,,,,,,,,,,,,,,,099,001,2019_Sep_03_1307,MusicAffectPsychophysiology2019,3.0.5,59.875223628518455,
To what extent did the music make you feel ,ALERT,30MonoWAV/30MonoF2.wav,1,2,2,2,,,,,1,6,22,1,0,0,0,8,,,2,2.802713423006935,1,1.0184089730028063,2,1.25196622198564,4,3.919133099989267,,,099,001,2019_Sep_03_1307,MusicAffectPsychophysiology2019,3.0.5,59.875223628518455,
To what extent did the music make you feel ,ANGRY,30MonoWAV/30MonoF2.wav,1,2,2,2,,,,,1,6,22,1,0,1,1,2,,,,,,,,,2,1.5686944019980729,,,099,001,2019_Sep_03_1307,MusicAffectPsychophysiology2019,3.0.5,59.875223628518455,
To what extent did the music make you feel ,HAPPY,30MonoWAV/30MonoF2.wav,1,2,2,2,,,,,1,6,22,1,0,2,2,6,,,,,,,,,1,0.8202744620211888,,,099,001,2019_Sep_03_1307,MusicAffectPsychophysiology2019,3.0.5,59.875223628518455,
To what extent did the music make you feel ,EXCITED,30MonoWAV/30MonoF2.wav,1,2,2,2,,,,,1,6,22,1,0,3,3,7,,,,,,,,,2,0.88408228798653,,,099,001,2019_Sep_03_1307,MusicAffectPsychophysiology2019,3.0.5,59.875223628518455,
To what extent did the music make you feel ,ASHAMED,30MonoWAV/30MonoF2.wav,1,2,2,2,,,,,1,6,22,1,0,4,4,4,,,,,,,,,1,3.385362803004682,,,099,001,2019_Sep_03_1307,MusicAffectPsychophysiology2019,3.0.5,59.875223628518455,
To what extent did the music make you feel ,FRUSTRATED,30MonoWAV/30MonoF2.wav,1,2,2,2,,,,,1,6,22,1,0,5,5,3,,,,,,,,,2,4.886896870011697,,,099,001,2019_Sep_03_1307,MusicAffectPsychophysiology2019,3.0.5,59.875223628518455,
To what extent did the music make you feel ,GUILTY,30MonoWAV/30MonoF2.wav,1,2,2,2,,,,,1,6,22,1,0,6,6,5,,,,,,,,,2,3.9682407880027313,,,099,001,2019_Sep_03_1307,MusicAffectPsychophysiology2019,3.0.5,59.875223628518455,
To what extent did the music make you feel ,TENDER,30MonoWAV/30MonoF2.wav,1,2,2,2,,,,,1,6,22,1,0,7,7,10,,,,,,,,,1,2.0350396640133113,,,099,001,2019_Sep_03_1307,MusicAffectPsychophysiology2019,3.0.5,59.875223628518455,
To what extent did the music make you feel ,SCARED,30MonoWAV/30MonoF2.wav,1,2,2,2,,,,,1,6,22,1,0,8,8,11,,,,,,,,,3,1.2042618810082786,,,099,001,2019_Sep_03_1307,MusicAffectPsychophysiology2019,3.0.5,59.875223628518455,
To what extent did the music make you feel ,ACTIVE,30MonoWAV/30MonoF2.wav,1,2,2,2,,,,,1,6,22,1,0,9,9,9,,,,,,,,,3,1.6453635119833052,,,099,001,2019_Sep_03_1307,MusicAffectPsychophysiology2019,3.0.5,59.875223628518455,
To what extent did the music make you feel ,SAD,30MonoWAV/30MonoF2.wav,1,2,2,2,,,,,1,6,22,1,0,10,10,0,,,,,,,,,2,2.800246060010977,,,099,001,2019_Sep_03_1307,MusicAffectPsychophysiology2019,3.0.5,59.875223628518455,
To what extent did the music make you feel ,ANXIOUS ,30MonoWAV/30MonoF2.wav,1,2,2,2,,,,,1,6,22,1,0,11,11,1,,,,,,,,,3,0.7865454689890612,,,099,001,2019_Sep_03_1307,MusicAffectPsychophysiology2019,3.0.5,59.875223628518455,
,,30MonoWAV/30MonoF2.wav,1,2,2,2,,,,,1,6,22,1,,,,,,,,,,,,,,,,,099,001,2019_Sep_03_1307,MusicAffectPsychophysiology2019,3.0.5,59.875223628518455,
To what extent did the music make you feel ,SAD,30MonoWAV/30MonoF3.wav,1,2,2,3,,,,,1,7,23,2,0,0,0,0,,,2,2.8036163359938655,1,1.2364079899853095,1,1.0359002399782185,2,2.4553687250008807,,,099,001,2019_Sep_03_1307,MusicAffectPsychophysiology2019,3.0.5,59.875223628518455,
To what extent did the music make you feel ,ASHAMED,30MonoWAV/30MonoF3.wav,1,2,2,3,,,,,1,7,23,2,0,1,1,4,,,,,,,,,1,1.418470795993926,,,099,001,2019_Sep_03_1307,MusicAffectPsychophysiology2019,3.0.5,59.875223628518455,
To what extent did the music make you feel ,GUILTY,30MonoWAV/30MonoF3.wav,1,2,2,3,,,,,1,7,23,2,0,2,2,5,,,,,,,,,2,1.0858329019974917,,,099,001,2019_Sep_03_1307,MusicAffectPsychophysiology2019,3.0.5,59.875223628518455,
To what extent did the music make you feel ,ALERT,30MonoWAV/30MonoF3.wav,1,2,2,3,,,,,1,7,23,2,0,3,3,8,,,,,,,,,3,2.401916381990304,,,099,001,2019_Sep_03_1307,MusicAffectPsychophysiology2019,3.0.5,59.875223628518455,
To what extent did the music make you feel ,ACTIVE,30MonoWAV/30MonoF3.wav,1,2,2,3,,,,,1,7,23,2,0,4,4,9,,,,,,,,,3,1.219357273017522,,,099,001,2019_Sep_03_1307,MusicAffectPsychophysiology2019,3.0.5,59.875223628518455,
To what extent did the music make you feel ,ANXIOUS ,30MonoWAV/30MonoF3.wav,1,2,2,3,,,,,1,7,23,2,0,5,5,1,,,,,,,,,3,0.6522156239952892,,,099,001,2019_Sep_03_1307,MusicAffectPsychophysiology2019,3.0.5,59.875223628518455,
To what extent did the music make you feel ,SCARED,30MonoWAV/30MonoF3.wav,1,2,2,3,,,,,1,7,23,2,0,6,6,11,,,,,,,,,3,0.7694766809872817,,,099,001,2019_Sep_03_1307,MusicAffectPsychophysiology2019,3.0.5,59.875223628518455,
To what extent did the music make you feel ,ANGRY,30MonoWAV/30MonoF3.wav,1,2,2,3,,,,,1,7,23,2,0,7,7,2,,,,,,,,,3,0.9520496600016486,,,099,001,2019_Sep_03_1307,MusicAffectPsychophysiology2019,3.0.5,59.875223628518455,
To what extent did the music make you feel ,HAPPY,30MonoWAV/30MonoF3.wav,1,2,2,3,,,,,1,7,23,2,0,8,8,6,,,,,,,,,1,1.1197981560253538,,,099,001,2019_Sep_03_1307,MusicAffectPsychophysiology2019,3.0.5,59.875223628518455,
To what extent did the music make you feel ,EXCITED,30MonoWAV/30MonoF3.wav,1,2,2,3,,,,,1,7,23,2,0,9,9,7,,,,,,,,,2,1.2003901140124071,,,099,001,2019_Sep_03_1307,MusicAffectPsychophysiology2019,3.0.5,59.875223628518455,
To what extent did the music make you feel ,TENDER,30MonoWAV/30MonoF3.wav,1,2,2,3,,,,,1,7,23,2,0,10,10,10,,,,,,,,,1,0.8021832310187165,,,099,001,2019_Sep_03_1307,MusicAffectPsychophysiology2019,3.0.5,59.875223628518455,
To what extent did the music make you feel ,FRUSTRATED,30MonoWAV/30MonoF3.wav,1,2,2,3,,,,,1,7,23,2,0,11,11,3,,,,,,,,,1,2.120592309976928,,,099,001,2019_Sep_03_1307,MusicAffectPsychophysiology2019,3.0.5,59.875223628518455,
,,30MonoWAV/30MonoF3.wav,1,2,2,3,,,,,1,7,23,2,,,,,,,,,,,,,,,,,099,001,2019_Sep_03_1307,MusicAffectPsychophysiology2019,3.0.5,59.875223628518455,
To what extent did the music make you feel ,HAPPY,30MonoWAV/30MonoH3.wav,2,2,1,7,,,,,1,8,24,6,0,0,0,6,,,3,3.0022605959966313,2,1.1357675530016422,2,1.4528263609972782,2,1.50057499401737,,,099,001,2019_Sep_03_1307,MusicAffectPsychophysiology2019,3.0.5,59.875223628518455,
To what extent did the music make you feel ,FRUSTRATED,30MonoWAV/30MonoH3.wav,2,2,1,7,,,,,1,8,24,6,0,1,1,3,,,,,,,,,1,0.9668141570000444,,,099,001,2019_Sep_03_1307,MusicAffectPsychophysiology2019,3.0.5,59.875223628518455,
To what extent did the music make you feel ,ANXIOUS ,30MonoWAV/30MonoH3.wav,2,2,1,7,,,,,1,8,24,6,0,2,2,1,,,,,,,,,3,1.1521418550109956,,,099,001,2019_Sep_03_1307,MusicAffectPsychophysiology2019,3.0.5,59.875223628518455,
To what extent did the music make you feel ,ANGRY,30MonoWAV/30MonoH3.wav,2,2,1,7,,,,,1,8,24,6,0,3,3,2,,,,,,,,,1,2.0857788780122064,,,099,001,2019_Sep_03_1307,MusicAffectPsychophysiology2019,3.0.5,59.875223628518455,
To what extent did the music make you feel ,TENDER,30MonoWAV/30MonoH3.wav,2,2,1,7,,,,,1,8,24,6,0,4,4,10,,,,,,,,,2,1.069747419009218,,,099,001,2019_Sep_03_1307,MusicAffectPsychophysiology2019,3.0.5,59.875223628518455,
To what extent did the music make you feel ,ALERT,30MonoWAV/30MonoH3.wav,2,2,1,7,,,,,1,8,24,6,0,5,5,8,,,,,,,,,1,0.7365357910166495,,,099,001,2019_Sep_03_1307,MusicAffectPsychophysiology2019,3.0.5,59.875223628518455,
To what extent did the music make you feel ,SCARED,30MonoWAV/30MonoH3.wav,2,2,1,7,,,,,1,8,24,6,0,6,6,11,,,,,,,,,1,1.369348487991374,,,099,001,2019_Sep_03_1307,MusicAffectPsychophysiology2019,3.0.5,59.875223628518455,
To what extent did the music make you feel ,ASHAMED,30MonoWAV/30MonoH3.wav,2,2,1,7,,,,,1,8,24,6,0,7,7,4,,,,,,,,,1,2.768932810984552,,,099,001,2019_Sep_03_1307,MusicAffectPsychophysiology2019,3.0.5,59.875223628518455,
To what extent did the music make you feel ,GUILTY,30MonoWAV/30MonoH3.wav,2,2,1,7,,,,,1,8,24,6,0,8,8,5,,,,,,,,,1,0.5697412930021528,,,099,001,2019_Sep_03_1307,MusicAffectPsychophysiology2019,3.0.5,59.875223628518455,
To what extent did the music make you feel ,SAD,30MonoWAV/30MonoH3.wav,2,2,1,7,,,,,1,8,24,6,0,9,9,0,,,,,,,,,1,0.5528885679959785,,,099,001,2019_Sep_03_1307,MusicAffectPsychophysiology2019,3.0.5,59.875223628518455,
To what extent did the music make you feel ,ACTIVE,30MonoWAV/30MonoH3.wav,2,2,1,7,,,,,1,8,24,6,0,10,10,9,,,,,,,,,3,1.0366953350021504,,,099,001,2019_Sep_03_1307,MusicAffectPsychophysiology2019,3.0.5,59.875223628518455,
To what extent did the music make you feel ,EXCITED,30MonoWAV/30MonoH3.wav,2,2,1,7,,,,,1,8,24,6,0,11,11,7,,,,,,,,,3,1.218976187024964,,,099,001,2019_Sep_03_1307,MusicAffectPsychophysiology2019,3.0.5,59.875223628518455,
,,30MonoWAV/30MonoH3.wav,2,2,1,7,,,,,1,8,24,6,,,,,,,,,,,,,,,,,099,001,2019_Sep_03_1307,MusicAffectPsychophysiology2019,3.0.5,59.875223628518455,
To what extent did the music make you feel ,TENDER,30MonoWAV/30MonoT2.wav,2,1,4,14,,,,,1,9,25,13,0,0,0,10,,,2,2.3862054409983102,1,2.084777566982666,2,1.5340688629949,2,1.5561065499787219,,,099,001,2019_Sep_03_1307,MusicAffectPsychophysiology2019,3.0.5,59.875223628518455,
To what extent did the music make you feel ,ASHAMED,30MonoWAV/30MonoT2.wav,2,1,4,14,,,,,1,9,25,13,0,1,1,4,,,,,,,,,2,1.184526939992793,,,099,001,2019_Sep_03_1307,MusicAffectPsychophysiology2019,3.0.5,59.875223628518455,
To what extent did the music make you feel ,ANXIOUS ,30MonoWAV/30MonoT2.wav,2,1,4,14,,,,,1,9,25,13,0,2,2,1,,,,,,,,,3,0.7019751100160647,,,099,001,2019_Sep_03_1307,MusicAffectPsychophysiology2019,3.0.5,59.875223628518455,
To what extent did the music make you feel ,HAPPY,30MonoWAV/30MonoT2.wav,2,1,4,14,,,,,1,9,25,13,0,3,3,6,,,,,,,,,1,0.9033344629860949,,,099,001,2019_Sep_03_1307,MusicAffectPsychophysiology2019,3.0.5,59.875223628518455,
To what extent did the music make you feel ,SCARED,30MonoWAV/30MonoT2.wav,2,1,4,14,,,,,1,9,25,13,0,4,4,11,,,,,,,,,2,1.0855317180103157,,,099,001,2019_Sep_03_1307,MusicAffectPsychophysiology2019,3.0.5,59.875223628518455,
To what extent did the music make you feel ,ALERT,30MonoWAV/30MonoT2.wav,2,1,4,14,,,,,1,9,25,13,0,5,5,8,,,,,,,,,2,1.2198308570077643,,,099,001,2019_Sep_03_1307,MusicAffectPsychophysiology2019,3.0.5,59.875223628518455,
To what extent did the music make you feel ,FRUSTRATED,30MonoWAV/30MonoT2.wav,2,1,4,14,,,,,1,9,25,13,0,6,6,3,,,,,,,,,1,3.307451091008261,,,099,001,2019_Sep_03_1307,MusicAffectPsychophysiology2019,3.0.5,59.875223628518455,
To what extent did the music make you feel ,SAD,30MonoWAV/30MonoT2.wav,2,1,4,14,,,,,1,9,25,13,0,7,7,0,,,,,,,,,3,1.5521971069974825,,,099,001,2019_Sep_03_1307,MusicAffectPsychophysiology2019,3.0.5,59.875223628518455,
To what extent did the music make you feel ,ACTIVE,30MonoWAV/30MonoT2.wav,2,1,4,14,,,,,1,9,25,13,0,8,8,9,,,,,,,,,1,0.9853539080068003,,,099,001,2019_Sep_03_1307,MusicAffectPsychophysiology2019,3.0.5,59.875223628518455,
To what extent did the music make you feel ,GUILTY,30MonoWAV/30MonoT2.wav,2,1,4,14,,,,,1,9,25,13,0,9,9,5,,,,,,,,,2,1.018982909998158,,,099,001,2019_Sep_03_1307,MusicAffectPsychophysiology2019,3.0.5,59.875223628518455,
To what extent did the music make you feel ,ANGRY,30MonoWAV/30MonoT2.wav,2,1,4,14,,,,,1,9,25,13,0,10,10,2,,,,,,,,,2,1.7331864750012755,,,099,001,2019_Sep_03_1307,MusicAffectPsychophysiology2019,3.0.5,59.875223628518455,
To what extent did the music make you feel ,EXCITED,30MonoWAV/30MonoT2.wav,2,1,4,14,,,,,1,9,25,13,0,11,11,7,,,,,,,,,1,1.1825804870168213,,,099,001,2019_Sep_03_1307,MusicAffectPsychophysiology2019,3.0.5,59.875223628518455,
,,30MonoWAV/30MonoT2.wav,2,1,4,14,,,,,1,9,25,13,,,,,,,,,,,,,,,,,099,001,2019_Sep_03_1307,MusicAffectPsychophysiology2019,3.0.5,59.875223628518455,
To what extent did the music make you feel ,SCARED,30MonoWAV/30MonoS4.wav,1,1,3,12,,,,,1,10,26,11,0,0,0,11,,,1,5.119388060993515,1,1.335564164997777,1,1.050693113997113,1,1.702399596979376,,,099,001,2019_Sep_03_1307,MusicAffectPsychophysiology2019,3.0.5,59.875223628518455,
To what extent did the music make you feel ,TENDER,30MonoWAV/30MonoS4.wav,1,1,3,12,,,,,1,10,26,11,0,1,1,10,,,,,,,,,2,0.7353948350064456,,,099,001,2019_Sep_03_1307,MusicAffectPsychophysiology2019,3.0.5,59.875223628518455,
To what extent did the music make you feel ,ANXIOUS ,30MonoWAV/30MonoS4.wav,1,1,3,12,,,,,1,10,26,11,0,2,2,1,,,,,,,,,2,1.3354965510079637,,,099,001,2019_Sep_03_1307,MusicAffectPsychophysiology2019,3.0.5,59.875223628518455,
To what extent did the music make you feel ,SAD,30MonoWAV/30MonoS4.wav,1,1,3,12,,,,,1,10,26,11,0,3,3,0,,,,,,,,,2,0.586196858988842,,,099,001,2019_Sep_03_1307,MusicAffectPsychophysiology2019,3.0.5,59.875223628518455,
To what extent did the music make you feel ,ACTIVE,30MonoWAV/30MonoS4.wav,1,1,3,12,,,,,1,10,26,11,0,4,4,9,,,,,,,,,1,1.1694171769777313,,,099,001,2019_Sep_03_1307,MusicAffectPsychophysiology2019,3.0.5,59.875223628518455,
To what extent did the music make you feel ,ASHAMED,30MonoWAV/30MonoS4.wav,1,1,3,12,,,,,1,10,26,11,0,5,5,4,,,,,,,,,2,0.8355186260014307,,,099,001,2019_Sep_03_1307,MusicAffectPsychophysiology2019,3.0.5,59.875223628518455,
To what extent did the music make you feel ,ALERT,30MonoWAV/30MonoS4.wav,1,1,3,12,,,,,1,10,26,11,0,6,6,8,,,,,,,,,1,1.5848367160069756,,,099,001,2019_Sep_03_1307,MusicAffectPsychophysiology2019,3.0.5,59.875223628518455,
To what extent did the music make you feel ,ANGRY,30MonoWAV/30MonoS4.wav,1,1,3,12,,,,,1,10,26,11,0,7,7,2,,,,,,,,,2,1.1510665280220564,,,099,001,2019_Sep_03_1307,MusicAffectPsychophysiology2019,3.0.5,59.875223628518455,
To what extent did the music make you feel ,EXCITED,30MonoWAV/30MonoS4.wav,1,1,3,12,,,,,1,10,26,11,0,8,8,7,,,,,,,,,1,0.8861056760069914,,,099,001,2019_Sep_03_1307,MusicAffectPsychophysiology2019,3.0.5,59.875223628518455,
To what extent did the music make you feel ,GUILTY,30MonoWAV/30MonoS4.wav,1,1,3,12,,,,,1,10,26,11,0,9,9,5,,,,,,,,,2,0.9188777469971683,,,099,001,2019_Sep_03_1307,MusicAffectPsychophysiology2019,3.0.5,59.875223628518455,
To what extent did the music make you feel ,HAPPY,30MonoWAV/30MonoS4.wav,1,1,3,12,,,,,1,10,26,11,0,10,10,6,,,,,,,,,1,0.7336137770034838,,,099,001,2019_Sep_03_1307,MusicAffectPsychophysiology2019,3.0.5,59.875223628518455,
To what extent did the music make you feel ,FRUSTRATED,30MonoWAV/30MonoS4.wav,1,1,3,12,,,,,1,10,26,11,0,11,11,3,,,,,,,,,2,0.8021087519882713,,,099,001,2019_Sep_03_1307,MusicAffectPsychophysiology2019,3.0.5,59.875223628518455,
,,30MonoWAV/30MonoS4.wav,1,1,3,12,,,,,1,10,26,11,,,,,,,,,,,,,,,,,099,001,2019_Sep_03_1307,MusicAffectPsychophysiology2019,3.0.5,59.875223628518455,
To what extent did the music make you feel ,SAD,30MonoWAV/30MonoT4.wav,2,1,4,16,,,,,1,11,27,15,0,0,0,0,,,3,4.036811404017499,1,1.08731274298043,2,1.4026669609884266,3,1.279409212002065,,,099,001,2019_Sep_03_1307,MusicAffectPsychophysiology2019,3.0.5,59.875223628518455,
To what extent did the music make you feel ,SCARED,30MonoWAV/30MonoT4.wav,2,1,4,16,,,,,1,11,27,15,0,1,1,11,,,,,,,,,2,1.179302706004819,,,099,001,2019_Sep_03_1307,MusicAffectPsychophysiology2019,3.0.5,59.875223628518455,
To what extent did the music make you feel ,ANGRY,30MonoWAV/30MonoT4.wav,2,1,4,16,,,,,1,11,27,15,0,2,2,2,,,,,,,,,2,1.6353015869972296,,,099,001,2019_Sep_03_1307,MusicAffectPsychophysiology2019,3.0.5,59.875223628518455,
To what extent did the music make you feel ,TENDER,30MonoWAV/30MonoT4.wav,2,1,4,16,,,,,1,11,27,15,0,3,3,10,,,,,,,,,2,0.8698115959996358,,,099,001,2019_Sep_03_1307,MusicAffectPsychophysiology2019,3.0.5,59.875223628518455,
To what extent did the music make you feel ,ACTIVE,30MonoWAV/30MonoT4.wav,2,1,4,16,,,,,1,11,27,15,0,4,4,9,,,,,,,,,1,1.3685996739950497,,,099,001,2019_Sep_03_1307,MusicAffectPsychophysiology2019,3.0.5,59.875223628518455,
To what extent did the music make you feel ,EXCITED,30MonoWAV/30MonoT4.wav,2,1,4,16,,,,,1,11,27,15,0,5,5,7,,,,,,,,,1,0.9025499210110866,,,099,001,2019_Sep_03_1307,MusicAffectPsychophysiology2019,3.0.5,59.875223628518455,
To what extent did the music make you feel ,ALERT,30MonoWAV/30MonoT4.wav,2,1,4,16,,,,,1,11,27,15,0,6,6,8,,,,,,,,,1,1.2691158110101242,,,099,001,2019_Sep_03_1307,MusicAffectPsychophysiology2019,3.0.5,59.875223628518455,
To what extent did the music make you feel ,ANXIOUS ,30MonoWAV/30MonoT4.wav,2,1,4,16,,,,,1,11,27,15,0,7,7,1,,,,,,,,,3,1.0023584469745401,,,099,001,2019_Sep_03_1307,MusicAffectPsychophysiology2019,3.0.5,59.875223628518455,
To what extent did the music make you feel ,HAPPY,30MonoWAV/30MonoT4.wav,2,1,4,16,,,,,1,11,27,15,0,8,8,6,,,,,,,,,1,1.2494822060107253,,,099,001,2019_Sep_03_1307,MusicAffectPsychophysiology2019,3.0.5,59.875223628518455,
To what extent did the music make you feel ,ASHAMED,30MonoWAV/30MonoT4.wav,2,1,4,16,,,,,1,11,27,15,0,9,9,4,,,,,,,,,2,2.2360919140046462,,,099,001,2019_Sep_03_1307,MusicAffectPsychophysiology2019,3.0.5,59.875223628518455,
To what extent did the music make you feel ,GUILTY,30MonoWAV/30MonoT4.wav,2,1,4,16,,,,,1,11,27,15,0,10,10,5,,,,,,,,,3,0.9334191560046747,,,099,001,2019_Sep_03_1307,MusicAffectPsychophysiology2019,3.0.5,59.875223628518455,
To what extent did the music make you feel ,FRUSTRATED,30MonoWAV/30MonoT4.wav,2,1,4,16,,,,,1,11,27,15,0,11,11,3,,,,,,,,,2,1.4192851379921194,,,099,001,2019_Sep_03_1307,MusicAffectPsychophysiology2019,3.0.5,59.875223628518455,
,,30MonoWAV/30MonoT4.wav,2,1,4,16,,,,,1,11,27,15,,,,,,,,,,,,,,,,,099,001,2019_Sep_03_1307,MusicAffectPsychophysiology2019,3.0.5,59.875223628518455,
To what extent did the music make you feel ,SAD,30MonoWAV/30MonoF4.wav,1,2,2,4,,,,,1,12,28,3,0,0,0,0,,,3,3.8191896330099553,2,1.6526505280053243,3,1.6366932060045656,2,1.437913298024796,,,099,001,2019_Sep_03_1307,MusicAffectPsychophysiology2019,3.0.5,59.875223628518455,
To what extent did the music make you feel ,ALERT,30MonoWAV/30MonoF4.wav,1,2,2,4,,,,,1,12,28,3,0,1,1,8,,,,,,,,,4,1.0685369279817678,,,099,001,2019_Sep_03_1307,MusicAffectPsychophysiology2019,3.0.5,59.875223628518455,
To what extent did the music make you feel ,GUILTY,30MonoWAV/30MonoF4.wav,1,2,2,4,,,,,1,12,28,3,0,2,2,5,,,,,,,,,2,2.252223294985015,,,099,001,2019_Sep_03_1307,MusicAffectPsychophysiology2019,3.0.5,59.875223628518455,
To what extent did the music make you feel ,SCARED,30MonoWAV/30MonoF4.wav,1,2,2,4,,,,,1,12,28,3,0,3,3,11,,,,,,,,,4,1.3174209050193895,,,099,001,2019_Sep_03_1307,MusicAffectPsychophysiology2019,3.0.5,59.875223628518455,
To what extent did the music make you feel ,ANGRY,30MonoWAV/30MonoF4.wav,1,2,2,4,,,,,1,12,28,3,0,4,4,2,,,,,,,,,2,1.1186276039807126,,,099,001,2019_Sep_03_1307,MusicAffectPsychophysiology2019,3.0.5,59.875223628518455,
To what extent did the music make you feel ,ANXIOUS ,30MonoWAV/30MonoF4.wav,1,2,2,4,,,,,1,12,28,3,0,5,5,1,,,,,,,,,4,2.2496252819837537,,,099,001,2019_Sep_03_1307,MusicAffectPsychophysiology2019,3.0.5,59.875223628518455,
To what extent did the music make you feel ,HAPPY,30MonoWAV/30MonoF4.wav,1,2,2,4,,,,,1,12,28,3,0,6,6,6,,,,,,,,,1,1.1363099139998667,,,099,001,2019_Sep_03_1307,MusicAffectPsychophysiology2019,3.0.5,59.875223628518455,
To what extent did the music make you feel ,ACTIVE,30MonoWAV/30MonoF4.wav,1,2,2,4,,,,,1,12,28,3,0,7,7,9,,,,,,,,,4,1.435353695997037,,,099,001,2019_Sep_03_1307,MusicAffectPsychophysiology2019,3.0.5,59.875223628518455,
To what extent did the music make you feel ,ASHAMED,30MonoWAV/30MonoF4.wav,1,2,2,4,,,,,1,12,28,3,0,8,8,4,,,,,,,,,2,1.702268588996958,,,099,001,2019_Sep_03_1307,MusicAffectPsychophysiology2019,3.0.5,59.875223628518455,
To what extent did the music make you feel ,FRUSTRATED,30MonoWAV/30MonoF4.wav,1,2,2,4,,,,,1,12,28,3,0,9,9,3,,,,,,,,,2,1.1856077240081504,,,099,001,2019_Sep_03_1307,MusicAffectPsychophysiology2019,3.0.5,59.875223628518455,
To what extent did the music make you feel ,EXCITED,30MonoWAV/30MonoF4.wav,1,2,2,4,,,,,1,12,28,3,0,10,10,7,,,,,,,,,2,1.3027712990005966,,,099,001,2019_Sep_03_1307,MusicAffectPsychophysiology2019,3.0.5,59.875223628518455,
To what extent did the music make you feel ,TENDER,30MonoWAV/30MonoF4.wav,1,2,2,4,,,,,1,12,28,3,0,11,11,10,,,,,,,,,1,0.8851287169964053,,,099,001,2019_Sep_03_1307,MusicAffectPsychophysiology2019,3.0.5,59.875223628518455,
,,30MonoWAV/30MonoF4.wav,1,2,2,4,,,,,1,12,28,3,,,,,,,,,,,,,,,,,099,001,2019_Sep_03_1307,MusicAffectPsychophysiology2019,3.0.5,59.875223628518455,
To what extent did the music make you feel ,FRUSTRATED,30MonoWAV/30MonoH2.wav,2,2,1,6,,,,,1,13,29,5,0,0,0,3,,,2,3.0029913949838374,1,1.6694520059973001,2,1.2028295120107941,1,1.2003241830097977,,,099,001,2019_Sep_03_1307,MusicAffectPsychophysiology2019,3.0.5,59.875223628518455,
To what extent did the music make you feel ,SCARED,30MonoWAV/30MonoH2.wav,2,2,1,6,,,,,1,13,29,5,0,1,1,11,,,,,,,,,1,0.6853421469859313,,,099,001,2019_Sep_03_1307,MusicAffectPsychophysiology2019,3.0.5,59.875223628518455,
To what extent did the music make you feel ,TENDER,30MonoWAV/30MonoH2.wav,2,2,1,6,,,,,1,13,29,5,0,2,2,10,,,,,,,,,1,1.2350761470152065,,,099,001,2019_Sep_03_1307,MusicAffectPsychophysiology2019,3.0.5,59.875223628518455,
To what extent did the music make you feel ,ANGRY,30MonoWAV/30MonoH2.wav,2,2,1,6,,,,,1,13,29,5,0,3,3,2,,,,,,,,,1,0.6199265019968152,,,099,001,2019_Sep_03_1307,MusicAffectPsychophysiology2019,3.0.5,59.875223628518455,
To what extent did the music make you feel ,GUILTY,30MonoWAV/30MonoH2.wav,2,2,1,6,,,,,1,13,29,5,0,4,4,5,,,,,,,,,1,1.1215988509939052,,,099,001,2019_Sep_03_1307,MusicAffectPsychophysiology2019,3.0.5,59.875223628518455,
To what extent did the music make you feel ,ACTIVE,30MonoWAV/30MonoH2.wav,2,2,1,6,,,,,1,13,29,5,0,5,5,9,,,,,,,,,3,1.347893430996919,,,099,001,2019_Sep_03_1307,MusicAffectPsychophysiology2019,3.0.5,59.875223628518455,
To what extent did the music make you feel ,ALERT,30MonoWAV/30MonoH2.wav,2,2,1,6,,,,,1,13,29,5,0,6,6,8,,,,,,,,,2,1.3365283299935982,,,099,001,2019_Sep_03_1307,MusicAffectPsychophysiology2019,3.0.5,59.875223628518455,
To what extent did the music make you feel ,EXCITED,30MonoWAV/30MonoH2.wav,2,2,1,6,,,,,1,13,29,5,0,7,7,7,,,,,,,,,3,1.0041091809980571,,,099,001,2019_Sep_03_1307,MusicAffectPsychophysiology2019,3.0.5,59.875223628518455,
To what extent did the music make you feel ,HAPPY,30MonoWAV/30MonoH2.wav,2,2,1,6,,,,,1,13,29,5,0,8,8,6,,,,,,,,,2,1.0185870450222865,,,099,001,2019_Sep_03_1307,MusicAffectPsychophysiology2019,3.0.5,59.875223628518455,
To what extent did the music make you feel ,ANXIOUS ,30MonoWAV/30MonoH2.wav,2,2,1,6,,,,,1,13,29,5,0,9,9,1,,,,,,,,,3,2.135315833002096,,,099,001,2019_Sep_03_1307,MusicAffectPsychophysiology2019,3.0.5,59.875223628518455,
To what extent did the music make you feel ,ASHAMED,30MonoWAV/30MonoH2.wav,2,2,1,6,,,,,1,13,29,5,0,10,10,4,,,,,,,,,1,0.952416699990863,,,099,001,2019_Sep_03_1307,MusicAffectPsychophysiology2019,3.0.5,59.875223628518455,
To what extent did the music make you feel ,SAD,30MonoWAV/30MonoH2.wav,2,2,1,6,,,,,1,13,29,5,0,11,11,0,,,,,,,,,1,0.6526273599884007,,,099,001,2019_Sep_03_1307,MusicAffectPsychophysiology2019,3.0.5,59.875223628518455,
,,30MonoWAV/30MonoH2.wav,2,2,1,6,,,,,1,13,29,5,,,,,,,,,,,,,,,,,099,001,2019_Sep_03_1307,MusicAffectPsychophysiology2019,3.0.5,59.875223628518455,
To what extent did the music make you feel ,TENDER,30MonoWAV/30MonoH4.wav,2,2,1,8,,,,,1,14,30,7,0,0,0,10,,,3,4.253130508004688,3,1.102811399003258,3,1.1357611839775927,2,1.5750383910199162,,,099,001,2019_Sep_03_1307,MusicAffectPsychophysiology2019,3.0.5,59.875223628518455,
To what extent did the music make you feel ,HAPPY,30MonoWAV/30MonoH4.wav,2,2,1,8,,,,,1,14,30,7,0,1,1,6,,,,,,,,,3,0.8684738769952673,,,099,001,2019_Sep_03_1307,MusicAffectPsychophysiology2019,3.0.5,59.875223628518455,
To what extent did the music make you feel ,ANGRY,30MonoWAV/30MonoH4.wav,2,2,1,8,,,,,1,14,30,7,0,2,2,2,,,,,,,,,1,0.8691251109994482,,,099,001,2019_Sep_03_1307,MusicAffectPsychophysiology2019,3.0.5,59.875223628518455,
To what extent did the music make you feel ,ACTIVE,30MonoWAV/30MonoH4.wav,2,2,1,8,,,,,1,14,30,7,0,3,3,9,,,,,,,,,3,0.9698506369895767,,,099,001,2019_Sep_03_1307,MusicAffectPsychophysiology2019,3.0.5,59.875223628518455,
To what extent did the music make you feel ,SAD,30MonoWAV/30MonoH4.wav,2,2,1,8,,,,,1,14,30,7,0,4,4,0,,,,,,,,,1,0.7194720559928101,,,099,001,2019_Sep_03_1307,MusicAffectPsychophysiology2019,3.0.5,59.875223628518455,
To what extent did the music make you feel ,FRUSTRATED,30MonoWAV/30MonoH4.wav,2,2,1,8,,,,,1,14,30,7,0,5,5,3,,,,,,,,,1,0.7250486760167405,,,099,001,2019_Sep_03_1307,MusicAffectPsychophysiology2019,3.0.5,59.875223628518455,
To what extent did the music make you feel ,EXCITED,30MonoWAV/30MonoH4.wav,2,2,1,8,,,,,1,14,30,7,0,6,6,7,,,,,,,,,3,0.8015780209971126,,,099,001,2019_Sep_03_1307,MusicAffectPsychophysiology2019,3.0.5,59.875223628518455,
To what extent did the music make you feel ,ANXIOUS ,30MonoWAV/30MonoH4.wav,2,2,1,8,,,,,1,14,30,7,0,7,7,1,,,,,,,,,2,1.9332062650064472,,,099,001,2019_Sep_03_1307,MusicAffectPsychophysiology2019,3.0.5,59.875223628518455,
To what extent did the music make you feel ,ASHAMED,30MonoWAV/30MonoH4.wav,2,2,1,8,,,,,1,14,30,7,0,8,8,4,,,,,,,,,1,0.7532019319769461,,,099,001,2019_Sep_03_1307,MusicAffectPsychophysiology2019,3.0.5,59.875223628518455,
To what extent did the music make you feel ,SCARED,30MonoWAV/30MonoH4.wav,2,2,1,8,,,,,1,14,30,7,0,9,9,11,,,,,,,,,1,1.4500061139988247,,,099,001,2019_Sep_03_1307,MusicAffectPsychophysiology2019,3.0.5,59.875223628518455,
To what extent did the music make you feel ,GUILTY,30MonoWAV/30MonoH4.wav,2,2,1,8,,,,,1,14,30,7,0,10,10,5,,,,,,,,,1,0.7188182109966874,,,099,001,2019_Sep_03_1307,MusicAffectPsychophysiology2019,3.0.5,59.875223628518455,
To what extent did the music make you feel ,ALERT,30MonoWAV/30MonoH4.wav,2,2,1,8,,,,,1,14,30,7,0,11,11,8,,,,,,,,,3,0.8188635839906055,,,099,001,2019_Sep_03_1307,MusicAffectPsychophysiology2019,3.0.5,59.875223628518455,
,,30MonoWAV/30MonoH4.wav,2,2,1,8,,,,,1,14,30,7,,,,,,,,,,,,,,,,,099,001,2019_Sep_03_1307,MusicAffectPsychophysiology2019,3.0.5,59.875223628518455,
To what extent did the music make you feel ,ASHAMED,30MonoWAV/30MonoS3.wav,1,1,3,11,,,,,1,15,31,10,0,0,0,4,,,2,3.6340056080080103,2,1.5876286060083658,3,1.3354767480050214,1,1.0016339599969797,,,099,001,2019_Sep_03_1307,MusicAffectPsychophysiology2019,3.0.5,59.875223628518455,
To what extent did the music make you feel ,SCARED,30MonoWAV/30MonoS3.wav,1,1,3,11,,,,,1,15,31,10,0,1,1,11,,,,,,,,,2,0.986122873990098,,,099,001,2019_Sep_03_1307,MusicAffectPsychophysiology2019,3.0.5,59.875223628518455,
To what extent did the music make you feel ,ANXIOUS ,30MonoWAV/30MonoS3.wav,1,1,3,11,,,,,1,15,31,10,0,2,2,1,,,,,,,,,3,1.0019360199803486,,,099,001,2019_Sep_03_1307,MusicAffectPsychophysiology2019,3.0.5,59.875223628518455,
To what extent did the music make you feel ,GUILTY,30MonoWAV/30MonoS3.wav,1,1,3,11,,,,,1,15,31,10,0,3,3,5,,,,,,,,,2,0.7853304130258039,,,099,001,2019_Sep_03_1307,MusicAffectPsychophysiology2019,3.0.5,59.875223628518455,
To what extent did the music make you feel ,ANGRY,30MonoWAV/30MonoS3.wav,1,1,3,11,,,,,1,15,31,10,0,4,4,2,,,,,,,,,2,1.435523207008373,,,099,001,2019_Sep_03_1307,MusicAffectPsychophysiology2019,3.0.5,59.875223628518455,
To what extent did the music make you feel ,FRUSTRATED,30MonoWAV/30MonoS3.wav,1,1,3,11,,,,,1,15,31,10,0,5,5,3,,,,,,,,,3,1.6018849639804102,,,099,001,2019_Sep_03_1307,MusicAffectPsychophysiology2019,3.0.5,59.875223628518455,
To what extent did the music make you feel ,SAD,30MonoWAV/30MonoS3.wav,1,1,3,11,,,,,1,15,31,10,0,6,6,0,,,,,,,,,3,1.9200990130193532,,,099,001,2019_Sep_03_1307,MusicAffectPsychophysiology2019,3.0.5,59.875223628518455,
To what extent did the music make you feel ,TENDER,30MonoWAV/30MonoS3.wav,1,1,3,11,,,,,1,15,31,10,0,7,7,10,,,,,,,,,2,1.0176356439769734,,,099,001,2019_Sep_03_1307,MusicAffectPsychophysiology2019,3.0.5,59.875223628518455,
To what extent did the music make you feel ,ALERT,30MonoWAV/30MonoS3.wav,1,1,3,11,,,,,1,15,31,10,0,8,8,8,,,,,,,,,3,1.3849657470127568,,,099,001,2019_Sep_03_1307,MusicAffectPsychophysiology2019,3.0.5,59.875223628518455,
To what extent did the music make you feel ,EXCITED,30MonoWAV/30MonoS3.wav,1,1,3,11,,,,,1,15,31,10,0,9,9,7,,,,,,,,,1,0.7695700480253436,,,099,001,2019_Sep_03_1307,MusicAffectPsychophysiology2019,3.0.5,59.875223628518455,
To what extent did the music make you feel ,ACTIVE,30MonoWAV/30MonoS3.wav,1,1,3,11,,,,,1,15,31,10,0,10,10,9,,,,,,,,,2,0.9697195950138848,,,099,001,2019_Sep_03_1307,MusicAffectPsychophysiology2019,3.0.5,59.875223628518455,
To what extent did the music make you feel ,HAPPY,30MonoWAV/30MonoS3.wav,1,1,3,11,,,,,1,15,31,10,0,11,11,6,,,,,,,,,1,1.0171481640136335,,,099,001,2019_Sep_03_1307,MusicAffectPsychophysiology2019,3.0.5,59.875223628518455,
,,30MonoWAV/30MonoS3.wav,1,1,3,11,,,,,1,15,31,10,,,,,,,,,,,,,,,,,099,001,2019_Sep_03_1307,MusicAffectPsychophysiology2019,3.0.5,59.875223628518455,
,,,,,,,,,,,,,,,,,,,,,,,,,,,,,space,6.283553857996594,099,001,2019_Sep_03_1307,MusicAffectPsychophysiology2019,3.0.5,59.875223628518455,
