Instruction,Word,song,valence,arousal,affectcat,songmark,pracwords.thisRepN,pracwords.thisTrialN,pracwords.thisN,pracwords.thisIndex,songtrials.thisRepN,songtrials.thisTrialN,songtrials.thisN,songtrials.thisIndex,words.thisRepN,words.thisTrialN,words.thisN,words.thisIndex,begin.keys,begin.rt,arousalkey.keys,arousalkey.rt,valencekey.keys,valencekey.rt,likekey.keys,likekey.rt,WordResponse.keys,WordResponse.rt,participant,session,date,expName,psychopyVersion,frameRate,
,,,,,,,,,,,,,,,,,,,return,12.30360791401472,,,,,,,,,100,001,2019_Sep_03_1412,MusicAffectPsychophysiology2019,3.0.5,59.917101460635855,
,,,,,,,,,,,,,,,,,,,,,3,4.658459152997239,,,,,,,100,001,2019_Sep_03_1412,MusicAffectPsychophysiology2019,3.0.5,59.917101460635855,
,,,,,,,,,,,,,,,,,,,,,,,3,3.0657123279816005,,,,,100,001,2019_Sep_03_1412,MusicAffectPsychophysiology2019,3.0.5,59.917101460635855,
,,,,,,,,,,,,,,,,,,,,,,,,,4,5.032246135990135,,,100,001,2019_Sep_03_1412,MusicAffectPsychophysiology2019,3.0.5,59.917101460635855,
To what extent did the music make you feel ,GUILTY,,,,,,0,0,0,5,,,,,,,,,,,,,,,,,1,3.149212557997089,100,001,2019_Sep_03_1412,MusicAffectPsychophysiology2019,3.0.5,59.917101460635855,
To what extent did the music make you feel ,SCARED,,,,,,0,1,1,11,,,,,,,,,,,,,,,,,1,2.0171746689884458,100,001,2019_Sep_03_1412,MusicAffectPsychophysiology2019,3.0.5,59.917101460635855,
To what extent did the music make you feel ,ANGRY,,,,,,0,2,2,2,,,,,,,,,,,,,,,,,1,1.051824782975018,100,001,2019_Sep_03_1412,MusicAffectPsychophysiology2019,3.0.5,59.917101460635855,
To what extent did the music make you feel ,EXCITED,,,,,,0,3,3,7,,,,,,,,,,,,,,,,,2,1.5521088919776957,100,001,2019_Sep_03_1412,MusicAffectPsychophysiology2019,3.0.5,59.917101460635855,
To what extent did the music make you feel ,FRUSTRATED,,,,,,0,4,4,3,,,,,,,,,,,,,,,,,1,0.8309693879855331,100,001,2019_Sep_03_1412,MusicAffectPsychophysiology2019,3.0.5,59.917101460635855,
To what extent did the music make you feel ,ACTIVE,,,,,,0,5,5,9,,,,,,,,,,,,,,,,,2,5.868834235006943,100,001,2019_Sep_03_1412,MusicAffectPsychophysiology2019,3.0.5,59.917101460635855,
To what extent did the music make you feel ,ALERT,,,,,,0,6,6,8,,,,,,,,,,,,,,,,,2,2.4023766519967467,100,001,2019_Sep_03_1412,MusicAffectPsychophysiology2019,3.0.5,59.917101460635855,
To what extent did the music make you feel ,ASHAMED,,,,,,0,7,7,4,,,,,,,,,,,,,,,,,1,0.9363941519986838,100,001,2019_Sep_03_1412,MusicAffectPsychophysiology2019,3.0.5,59.917101460635855,
To what extent did the music make you feel ,ANXIOUS ,,,,,,0,8,8,1,,,,,,,,,,,,,,,,,1,0.8835675719892606,100,001,2019_Sep_03_1412,MusicAffectPsychophysiology2019,3.0.5,59.917101460635855,
To what extent did the music make you feel ,HAPPY,,,,,,0,9,9,6,,,,,,,,,,,,,,,,,3,1.702577896998264,100,001,2019_Sep_03_1412,MusicAffectPsychophysiology2019,3.0.5,59.917101460635855,
To what extent did the music make you feel ,SAD,,,,,,0,10,10,0,,,,,,,,,,,,,,,,,1,4.101800712000113,100,001,2019_Sep_03_1412,MusicAffectPsychophysiology2019,3.0.5,59.917101460635855,
To what extent did the music make you feel ,TENDER,,,,,,0,11,11,10,,,,,,,,,,,,,,,,,3,3.43665367399808,100,001,2019_Sep_03_1412,MusicAffectPsychophysiology2019,3.0.5,59.917101460635855,
To what extent did the music make you feel ,FRUSTRATED,30MonoWAV/30MonoH1.wav,2,2,1,5,,,,,0,0,0,4,0,0,0,3,,,3,4.119536385987885,3,2.384789253002964,4,1.9195083809900098,1,1.9902439390134532,100,001,2019_Sep_03_1412,MusicAffectPsychophysiology2019,3.0.5,59.917101460635855,
To what extent did the music make you feel ,SAD,30MonoWAV/30MonoH1.wav,2,2,1,5,,,,,0,0,0,4,0,1,1,0,,,,,,,,,1,0.6686506849946454,100,001,2019_Sep_03_1412,MusicAffectPsychophysiology2019,3.0.5,59.917101460635855,
To what extent did the music make you feel ,ALERT,30MonoWAV/30MonoH1.wav,2,2,1,5,,,,,0,0,0,4,0,2,2,8,,,,,,,,,2,1.3354056129755918,100,001,2019_Sep_03_1412,MusicAffectPsychophysiology2019,3.0.5,59.917101460635855,
To what extent did the music make you feel ,TENDER,30MonoWAV/30MonoH1.wav,2,2,1,5,,,,,0,0,0,4,0,3,3,10,,,,,,,,,1,1.3713645499956328,100,001,2019_Sep_03_1412,MusicAffectPsychophysiology2019,3.0.5,59.917101460635855,
To what extent did the music make you feel ,ASHAMED,30MonoWAV/30MonoH1.wav,2,2,1,5,,,,,0,0,0,4,0,4,4,4,,,,,,,,,1,0.7501678300031926,100,001,2019_Sep_03_1412,MusicAffectPsychophysiology2019,3.0.5,59.917101460635855,
To what extent did the music make you feel ,ANGRY,30MonoWAV/30MonoH1.wav,2,2,1,5,,,,,0,0,0,4,0,5,5,2,,,,,,,,,1,0.8169936669874005,100,001,2019_Sep_03_1412,MusicAffectPsychophysiology2019,3.0.5,59.917101460635855,
To what extent did the music make you feel ,ACTIVE,30MonoWAV/30MonoH1.wav,2,2,1,5,,,,,0,0,0,4,0,6,6,9,,,,,,,,,4,1.4400971569993999,100,001,2019_Sep_03_1412,MusicAffectPsychophysiology2019,3.0.5,59.917101460635855,
To what extent did the music make you feel ,ANXIOUS ,30MonoWAV/30MonoH1.wav,2,2,1,5,,,,,0,0,0,4,0,7,7,1,,,,,,,,,1,1.0860857759835199,100,001,2019_Sep_03_1412,MusicAffectPsychophysiology2019,3.0.5,59.917101460635855,
To what extent did the music make you feel ,GUILTY,30MonoWAV/30MonoH1.wav,2,2,1,5,,,,,0,0,0,4,0,8,8,5,,,,,,,,,1,0.9029571499850135,100,001,2019_Sep_03_1412,MusicAffectPsychophysiology2019,3.0.5,59.917101460635855,
To what extent did the music make you feel ,HAPPY,30MonoWAV/30MonoH1.wav,2,2,1,5,,,,,0,0,0,4,0,9,9,6,,,,,,,,,4,1.8525287680095062,100,001,2019_Sep_03_1412,MusicAffectPsychophysiology2019,3.0.5,59.917101460635855,
To what extent did the music make you feel ,EXCITED,30MonoWAV/30MonoH1.wav,2,2,1,5,,,,,0,0,0,4,0,10,10,7,,,,,,,,,3,0.9323178299819119,100,001,2019_Sep_03_1412,MusicAffectPsychophysiology2019,3.0.5,59.917101460635855,
To what extent did the music make you feel ,SCARED,30MonoWAV/30MonoH1.wav,2,2,1,5,,,,,0,0,0,4,0,11,11,11,,,,,,,,,1,0.9363825419859495,100,001,2019_Sep_03_1412,MusicAffectPsychophysiology2019,3.0.5,59.917101460635855,
,,30MonoWAV/30MonoH1.wav,2,2,1,5,,,,,0,0,0,4,,,,,,,,,,,,,,,100,001,2019_Sep_03_1412,MusicAffectPsychophysiology2019,3.0.5,59.917101460635855,
To what extent did the music make you feel ,ALERT,30MonoWAV/30MonoF2.wav,1,2,2,2,,,,,0,1,1,1,0,0,0,8,,,1,4.285221818019636,1,2.852672156994231,2,3.0855561280041,3,3.1187297659926116,100,001,2019_Sep_03_1412,MusicAffectPsychophysiology2019,3.0.5,59.917101460635855,
To what extent did the music make you feel ,TENDER,30MonoWAV/30MonoF2.wav,1,2,2,2,,,,,0,1,1,1,0,1,1,10,,,,,,,,,1,1.1351100839965511,100,001,2019_Sep_03_1412,MusicAffectPsychophysiology2019,3.0.5,59.917101460635855,
To what extent did the music make you feel ,GUILTY,30MonoWAV/30MonoF2.wav,1,2,2,2,,,,,0,1,1,1,0,2,2,5,,,,,,,,,1,1.1197218429879285,100,001,2019_Sep_03_1412,MusicAffectPsychophysiology2019,3.0.5,59.917101460635855,
To what extent did the music make you feel ,ASHAMED,30MonoWAV/30MonoF2.wav,1,2,2,2,,,,,0,1,1,1,0,3,3,4,,,,,,,,,1,0.7697260889981408,100,001,2019_Sep_03_1412,MusicAffectPsychophysiology2019,3.0.5,59.917101460635855,
To what extent did the music make you feel ,EXCITED,30MonoWAV/30MonoF2.wav,1,2,2,2,,,,,0,1,1,1,0,4,4,7,,,,,,,,,1,4.93446243199287,100,001,2019_Sep_03_1412,MusicAffectPsychophysiology2019,3.0.5,59.917101460635855,
To what extent did the music make you feel ,ACTIVE,30MonoWAV/30MonoF2.wav,1,2,2,2,,,,,0,1,1,1,0,5,5,9,,,,,,,,,3,2.385051810008008,100,001,2019_Sep_03_1412,MusicAffectPsychophysiology2019,3.0.5,59.917101460635855,
To what extent did the music make you feel ,HAPPY,30MonoWAV/30MonoF2.wav,1,2,2,2,,,,,0,1,1,1,0,6,6,6,,,,,,,,,1,0.9021956670039799,100,001,2019_Sep_03_1412,MusicAffectPsychophysiology2019,3.0.5,59.917101460635855,
To what extent did the music make you feel ,FRUSTRATED,30MonoWAV/30MonoF2.wav,1,2,2,2,,,,,0,1,1,1,0,7,7,3,,,,,,,,,1,0.9022430870099925,100,001,2019_Sep_03_1412,MusicAffectPsychophysiology2019,3.0.5,59.917101460635855,
To what extent did the music make you feel ,ANGRY,30MonoWAV/30MonoF2.wav,1,2,2,2,,,,,0,1,1,1,0,8,8,2,,,,,,,,,1,1.0016730859933887,100,001,2019_Sep_03_1412,MusicAffectPsychophysiology2019,3.0.5,59.917101460635855,
To what extent did the music make you feel ,SCARED,30MonoWAV/30MonoF2.wav,1,2,2,2,,,,,0,1,1,1,0,9,9,11,,,,,,,,,3,4.1684753890149295,100,001,2019_Sep_03_1412,MusicAffectPsychophysiology2019,3.0.5,59.917101460635855,
To what extent did the music make you feel ,ANXIOUS ,30MonoWAV/30MonoF2.wav,1,2,2,2,,,,,0,1,1,1,0,10,10,1,,,,,,,,,4,1.76872615198954,100,001,2019_Sep_03_1412,MusicAffectPsychophysiology2019,3.0.5,59.917101460635855,
To what extent did the music make you feel ,SAD,30MonoWAV/30MonoF2.wav,1,2,2,2,,,,,0,1,1,1,0,11,11,0,,,,,,,,,1,2.5019369919900782,100,001,2019_Sep_03_1412,MusicAffectPsychophysiology2019,3.0.5,59.917101460635855,
,,30MonoWAV/30MonoF2.wav,1,2,2,2,,,,,0,1,1,1,,,,,,,,,,,,,,,100,001,2019_Sep_03_1412,MusicAffectPsychophysiology2019,3.0.5,59.917101460635855,
To what extent did the music make you feel ,HAPPY,30MonoWAV/30MonoF3.wav,1,2,2,3,,,,,0,2,2,2,0,0,0,6,,,1,4.484590237989323,1,2.2359106490039267,2,1.4033969099982642,1,2.2255242399987765,100,001,2019_Sep_03_1412,MusicAffectPsychophysiology2019,3.0.5,59.917101460635855,
To what extent did the music make you feel ,ACTIVE,30MonoWAV/30MonoF3.wav,1,2,2,3,,,,,0,2,2,2,0,1,1,9,,,,,,,,,1,0.8191092959896196,100,001,2019_Sep_03_1412,MusicAffectPsychophysiology2019,3.0.5,59.917101460635855,
To what extent did the music make you feel ,ANGRY,30MonoWAV/30MonoF3.wav,1,2,2,3,,,,,0,2,2,2,0,2,2,2,,,,,,,,,1,1.4866212109918706,100,001,2019_Sep_03_1412,MusicAffectPsychophysiology2019,3.0.5,59.917101460635855,
To what extent did the music make you feel ,FRUSTRATED,30MonoWAV/30MonoF3.wav,1,2,2,3,,,,,0,2,2,2,0,3,3,3,,,,,,,,,1,1.2083577880111989,100,001,2019_Sep_03_1412,MusicAffectPsychophysiology2019,3.0.5,59.917101460635855,
To what extent did the music make you feel ,ANXIOUS ,30MonoWAV/30MonoF3.wav,1,2,2,3,,,,,0,2,2,2,0,4,4,1,,,,,,,,,2,1.3528863289975561,100,001,2019_Sep_03_1412,MusicAffectPsychophysiology2019,3.0.5,59.917101460635855,
To what extent did the music make you feel ,TENDER,30MonoWAV/30MonoF3.wav,1,2,2,3,,,,,0,2,2,2,0,5,5,10,,,,,,,,,1,0.9994366409955546,100,001,2019_Sep_03_1412,MusicAffectPsychophysiology2019,3.0.5,59.917101460635855,
To what extent did the music make you feel ,SCARED,30MonoWAV/30MonoF3.wav,1,2,2,3,,,,,0,2,2,2,0,6,6,11,,,,,,,,,1,2.2189862400118727,100,001,2019_Sep_03_1412,MusicAffectPsychophysiology2019,3.0.5,59.917101460635855,
To what extent did the music make you feel ,ALERT,30MonoWAV/30MonoF3.wav,1,2,2,3,,,,,0,2,2,2,0,7,7,8,,,,,,,,,3,1.9184347359987441,100,001,2019_Sep_03_1412,MusicAffectPsychophysiology2019,3.0.5,59.917101460635855,
To what extent did the music make you feel ,EXCITED,30MonoWAV/30MonoF3.wav,1,2,2,3,,,,,0,2,2,2,0,8,8,7,,,,,,,,,1,1.6509970000188332,100,001,2019_Sep_03_1412,MusicAffectPsychophysiology2019,3.0.5,59.917101460635855,
To what extent did the music make you feel ,ASHAMED,30MonoWAV/30MonoF3.wav,1,2,2,3,,,,,0,2,2,2,0,9,9,4,,,,,,,,,1,0.7188362830202095,100,001,2019_Sep_03_1412,MusicAffectPsychophysiology2019,3.0.5,59.917101460635855,
To what extent did the music make you feel ,SAD,30MonoWAV/30MonoF3.wav,1,2,2,3,,,,,0,2,2,2,0,10,10,0,,,,,,,,,1,0.768985621019965,100,001,2019_Sep_03_1412,MusicAffectPsychophysiology2019,3.0.5,59.917101460635855,
To what extent did the music make you feel ,GUILTY,30MonoWAV/30MonoF3.wav,1,2,2,3,,,,,0,2,2,2,0,11,11,5,,,,,,,,,1,0.6853717909834813,100,001,2019_Sep_03_1412,MusicAffectPsychophysiology2019,3.0.5,59.917101460635855,
,,30MonoWAV/30MonoF3.wav,1,2,2,3,,,,,0,2,2,2,,,,,,,,,,,,,,,100,001,2019_Sep_03_1412,MusicAffectPsychophysiology2019,3.0.5,59.917101460635855,
To what extent did the music make you feel ,SCARED,30MonoWAV/30MonoT1.wav,2,1,4,13,,,,,0,3,3,12,0,0,0,11,,,2,5.485947656008648,3,6.301591730007203,3,1.903411667997716,1,3.517262239009142,100,001,2019_Sep_03_1412,MusicAffectPsychophysiology2019,3.0.5,59.917101460635855,
To what extent did the music make you feel ,SAD,30MonoWAV/30MonoT1.wav,2,1,4,13,,,,,0,3,3,12,0,1,1,0,,,,,,,,,1,0.669774555019103,100,001,2019_Sep_03_1412,MusicAffectPsychophysiology2019,3.0.5,59.917101460635855,
To what extent did the music make you feel ,GUILTY,30MonoWAV/30MonoT1.wav,2,1,4,13,,,,,0,3,3,12,0,2,2,5,,,,,,,,,1,2.484795509983087,100,001,2019_Sep_03_1412,MusicAffectPsychophysiology2019,3.0.5,59.917101460635855,
To what extent did the music make you feel ,HAPPY,30MonoWAV/30MonoT1.wav,2,1,4,13,,,,,0,3,3,12,0,3,3,6,,,,,,,,,3,4.585573371005012,100,001,2019_Sep_03_1412,MusicAffectPsychophysiology2019,3.0.5,59.917101460635855,
To what extent did the music make you feel ,ALERT,30MonoWAV/30MonoT1.wav,2,1,4,13,,,,,0,3,3,12,0,4,4,8,,,,,,,,,2,2.8194014900072943,100,001,2019_Sep_03_1412,MusicAffectPsychophysiology2019,3.0.5,59.917101460635855,
To what extent did the music make you feel ,ASHAMED,30MonoWAV/30MonoT1.wav,2,1,4,13,,,,,0,3,3,12,0,5,5,4,,,,,,,,,1,1.520652009989135,100,001,2019_Sep_03_1412,MusicAffectPsychophysiology2019,3.0.5,59.917101460635855,
To what extent did the music make you feel ,ANGRY,30MonoWAV/30MonoT1.wav,2,1,4,13,,,,,0,3,3,12,0,6,6,2,,,,,,,,,1,0.9006850740115624,100,001,2019_Sep_03_1412,MusicAffectPsychophysiology2019,3.0.5,59.917101460635855,
To what extent did the music make you feel ,TENDER,30MonoWAV/30MonoT1.wav,2,1,4,13,,,,,0,3,3,12,0,7,7,10,,,,,,,,,4,5.319909977988573,100,001,2019_Sep_03_1412,MusicAffectPsychophysiology2019,3.0.5,59.917101460635855,
To what extent did the music make you feel ,ACTIVE,30MonoWAV/30MonoT1.wav,2,1,4,13,,,,,0,3,3,12,0,8,8,9,,,,,,,,,1,1.152850332990056,100,001,2019_Sep_03_1412,MusicAffectPsychophysiology2019,3.0.5,59.917101460635855,
To what extent did the music make you feel ,EXCITED,30MonoWAV/30MonoT1.wav,2,1,4,13,,,,,0,3,3,12,0,9,9,7,,,,,,,,,1,3.652708100999007,100,001,2019_Sep_03_1412,MusicAffectPsychophysiology2019,3.0.5,59.917101460635855,
To what extent did the music make you feel ,ANXIOUS ,30MonoWAV/30MonoT1.wav,2,1,4,13,,,,,0,3,3,12,0,10,10,1,,,,,,,,,1,1.44999722900684,100,001,2019_Sep_03_1412,MusicAffectPsychophysiology2019,3.0.5,59.917101460635855,
To what extent did the music make you feel ,FRUSTRATED,30MonoWAV/30MonoT1.wav,2,1,4,13,,,,,0,3,3,12,0,11,11,3,,,,,,,,,1,0.6519318729988299,100,001,2019_Sep_03_1412,MusicAffectPsychophysiology2019,3.0.5,59.917101460635855,
,,30MonoWAV/30MonoT1.wav,2,1,4,13,,,,,0,3,3,12,,,,,,,,,,,,,,,100,001,2019_Sep_03_1412,MusicAffectPsychophysiology2019,3.0.5,59.917101460635855,
To what extent did the music make you feel ,SAD,30MonoWAV/30MonoS1.wav,1,1,3,9,,,,,0,4,4,8,0,0,0,0,,,2,3.135085809015436,1,2.883756284980336,4,1.9687981460010633,4,4.1901149899931625,100,001,2019_Sep_03_1412,MusicAffectPsychophysiology2019,3.0.5,59.917101460635855,
To what extent did the music make you feel ,ANXIOUS ,30MonoWAV/30MonoS1.wav,1,1,3,9,,,,,0,4,4,8,0,1,1,1,,,,,,,,,4,3.816599899000721,100,001,2019_Sep_03_1412,MusicAffectPsychophysiology2019,3.0.5,59.917101460635855,
To what extent did the music make you feel ,ANGRY,30MonoWAV/30MonoS1.wav,1,1,3,9,,,,,0,4,4,8,0,2,2,2,,,,,,,,,1,1.069002955016913,100,001,2019_Sep_03_1412,MusicAffectPsychophysiology2019,3.0.5,59.917101460635855,
To what extent did the music make you feel ,HAPPY,30MonoWAV/30MonoS1.wav,1,1,3,9,,,,,0,4,4,8,0,3,3,6,,,,,,,,,1,1.5700935250206385,100,001,2019_Sep_03_1412,MusicAffectPsychophysiology2019,3.0.5,59.917101460635855,
To what extent did the music make you feel ,FRUSTRATED,30MonoWAV/30MonoS1.wav,1,1,3,9,,,,,0,4,4,8,0,4,4,3,,,,,,,,,1,2.225541191000957,100,001,2019_Sep_03_1412,MusicAffectPsychophysiology2019,3.0.5,59.917101460635855,
To what extent did the music make you feel ,ALERT,30MonoWAV/30MonoS1.wav,1,1,3,9,,,,,0,4,4,8,0,5,5,8,,,,,,,,,3,1.1352428079990204,100,001,2019_Sep_03_1412,MusicAffectPsychophysiology2019,3.0.5,59.917101460635855,
To what extent did the music make you feel ,EXCITED,30MonoWAV/30MonoS1.wav,1,1,3,9,,,,,0,4,4,8,0,6,6,7,,,,,,,,,1,1.0698594630230218,100,001,2019_Sep_03_1412,MusicAffectPsychophysiology2019,3.0.5,59.917101460635855,
To what extent did the music make you feel ,GUILTY,30MonoWAV/30MonoS1.wav,1,1,3,9,,,,,0,4,4,8,0,7,7,5,,,,,,,,,1,1.518383835995337,100,001,2019_Sep_03_1412,MusicAffectPsychophysiology2019,3.0.5,59.917101460635855,
To what extent did the music make you feel ,SCARED,30MonoWAV/30MonoS1.wav,1,1,3,9,,,,,0,4,4,8,0,8,8,11,,,,,,,,,1,1.136456393986009,100,001,2019_Sep_03_1412,MusicAffectPsychophysiology2019,3.0.5,59.917101460635855,
To what extent did the music make you feel ,ASHAMED,30MonoWAV/30MonoS1.wav,1,1,3,9,,,,,0,4,4,8,0,9,9,4,,,,,,,,,1,0.9506989500077907,100,001,2019_Sep_03_1412,MusicAffectPsychophysiology2019,3.0.5,59.917101460635855,
To what extent did the music make you feel ,TENDER,30MonoWAV/30MonoS1.wav,1,1,3,9,,,,,0,4,4,8,0,10,10,10,,,,,,,,,3,1.4352724729978945,100,001,2019_Sep_03_1412,MusicAffectPsychophysiology2019,3.0.5,59.917101460635855,
To what extent did the music make you feel ,ACTIVE,30MonoWAV/30MonoS1.wav,1,1,3,9,,,,,0,4,4,8,0,11,11,9,,,,,,,,,2,3.502873706020182,100,001,2019_Sep_03_1412,MusicAffectPsychophysiology2019,3.0.5,59.917101460635855,
,,30MonoWAV/30MonoS1.wav,1,1,3,9,,,,,0,4,4,8,,,,,,,,,,,,,,,100,001,2019_Sep_03_1412,MusicAffectPsychophysiology2019,3.0.5,59.917101460635855,
To what extent did the music make you feel ,TENDER,30MonoWAV/30MonoS4.wav,1,1,3,12,,,,,0,5,5,11,0,0,0,10,,,2,3.419038477994036,1,2.0033154340053443,3,2.152673953009071,4,2.6524754030106124,100,001,2019_Sep_03_1412,MusicAffectPsychophysiology2019,3.0.5,59.917101460635855,
To what extent did the music make you feel ,SAD,30MonoWAV/30MonoS4.wav,1,1,3,12,,,,,0,5,5,11,0,1,1,0,,,,,,,,,3,2.5355006100144237,100,001,2019_Sep_03_1412,MusicAffectPsychophysiology2019,3.0.5,59.917101460635855,
To what extent did the music make you feel ,FRUSTRATED,30MonoWAV/30MonoS4.wav,1,1,3,12,,,,,0,5,5,11,0,2,2,3,,,,,,,,,1,0.8701321910193656,100,001,2019_Sep_03_1412,MusicAffectPsychophysiology2019,3.0.5,59.917101460635855,
To what extent did the music make you feel ,EXCITED,30MonoWAV/30MonoS4.wav,1,1,3,12,,,,,0,5,5,11,0,3,3,7,,,,,,,,,1,0.9858805020048749,100,001,2019_Sep_03_1412,MusicAffectPsychophysiology2019,3.0.5,59.917101460635855,
To what extent did the music make you feel ,SCARED,30MonoWAV/30MonoS4.wav,1,1,3,12,,,,,0,5,5,11,0,4,4,11,,,,,,,,,1,0.5998862650012597,100,001,2019_Sep_03_1412,MusicAffectPsychophysiology2019,3.0.5,59.917101460635855,
To what extent did the music make you feel ,HAPPY,30MonoWAV/30MonoS4.wav,1,1,3,12,,,,,0,5,5,11,0,5,5,6,,,,,,,,,2,3.469189853989519,100,001,2019_Sep_03_1412,MusicAffectPsychophysiology2019,3.0.5,59.917101460635855,
To what extent did the music make you feel ,ACTIVE,30MonoWAV/30MonoS4.wav,1,1,3,12,,,,,0,5,5,11,0,6,6,9,,,,,,,,,1,1.852291724004317,100,001,2019_Sep_03_1412,MusicAffectPsychophysiology2019,3.0.5,59.917101460635855,
To what extent did the music make you feel ,ANGRY,30MonoWAV/30MonoS4.wav,1,1,3,12,,,,,0,5,5,11,0,7,7,2,,,,,,,,,1,0.7695508470060304,100,001,2019_Sep_03_1412,MusicAffectPsychophysiology2019,3.0.5,59.917101460635855,
To what extent did the music make you feel ,ALERT,30MonoWAV/30MonoS4.wav,1,1,3,12,,,,,0,5,5,11,0,8,8,8,,,,,,,,,2,1.5685593439848162,100,001,2019_Sep_03_1412,MusicAffectPsychophysiology2019,3.0.5,59.917101460635855,
To what extent did the music make you feel ,ASHAMED,30MonoWAV/30MonoS4.wav,1,1,3,12,,,,,0,5,5,11,0,9,9,4,,,,,,,,,1,1.5336892989871558,100,001,2019_Sep_03_1412,MusicAffectPsychophysiology2019,3.0.5,59.917101460635855,
To what extent did the music make you feel ,ANXIOUS ,30MonoWAV/30MonoS4.wav,1,1,3,12,,,,,0,5,5,11,0,10,10,1,,,,,,,,,3,1.3839468069782015,100,001,2019_Sep_03_1412,MusicAffectPsychophysiology2019,3.0.5,59.917101460635855,
To what extent did the music make you feel ,GUILTY,30MonoWAV/30MonoS4.wav,1,1,3,12,,,,,0,5,5,11,0,11,11,5,,,,,,,,,1,1.2698621610179543,100,001,2019_Sep_03_1412,MusicAffectPsychophysiology2019,3.0.5,59.917101460635855,
,,30MonoWAV/30MonoS4.wav,1,1,3,12,,,,,0,5,5,11,,,,,,,,,,,,,,,100,001,2019_Sep_03_1412,MusicAffectPsychophysiology2019,3.0.5,59.917101460635855,
To what extent did the music make you feel ,ANXIOUS ,30MonoWAV/30MonoT3.wav,2,1,4,15,,,,,0,6,6,14,0,0,0,1,,,3,4.503388904005988,4,1.4856838269915897,4,1.4026441449823324,3,2.2434140279947314,100,001,2019_Sep_03_1412,MusicAffectPsychophysiology2019,3.0.5,59.917101460635855,
To what extent did the music make you feel ,FRUSTRATED,30MonoWAV/30MonoT3.wav,2,1,4,15,,,,,0,6,6,14,0,1,1,3,,,,,,,,,1,0.8703055859950837,100,001,2019_Sep_03_1412,MusicAffectPsychophysiology2019,3.0.5,59.917101460635855,
To what extent did the music make you feel ,ASHAMED,30MonoWAV/30MonoT3.wav,2,1,4,15,,,,,0,6,6,14,0,2,2,4,,,,,,,,,1,1.0516728420043364,100,001,2019_Sep_03_1412,MusicAffectPsychophysiology2019,3.0.5,59.917101460635855,
To what extent did the music make you feel ,HAPPY,30MonoWAV/30MonoT3.wav,2,1,4,15,,,,,0,6,6,14,0,3,3,6,,,,,,,,,4,0.9037405739945825,100,001,2019_Sep_03_1412,MusicAffectPsychophysiology2019,3.0.5,59.917101460635855,
To what extent did the music make you feel ,EXCITED,30MonoWAV/30MonoT3.wav,2,1,4,15,,,,,0,6,6,14,0,4,4,7,,,,,,,,,3,1.0517772790044546,100,001,2019_Sep_03_1412,MusicAffectPsychophysiology2019,3.0.5,59.917101460635855,
To what extent did the music make you feel ,ALERT,30MonoWAV/30MonoT3.wav,2,1,4,15,,,,,0,6,6,14,0,5,5,8,,,,,,,,,3,1.419609702017624,100,001,2019_Sep_03_1412,MusicAffectPsychophysiology2019,3.0.5,59.917101460635855,
To what extent did the music make you feel ,SAD,30MonoWAV/30MonoT3.wav,2,1,4,15,,,,,0,6,6,14,0,6,6,0,,,,,,,,,2,1.669591727986699,100,001,2019_Sep_03_1412,MusicAffectPsychophysiology2019,3.0.5,59.917101460635855,
To what extent did the music make you feel ,ACTIVE,30MonoWAV/30MonoT3.wav,2,1,4,15,,,,,0,6,6,14,0,7,7,9,,,,,,,,,3,1.05238130397629,100,001,2019_Sep_03_1412,MusicAffectPsychophysiology2019,3.0.5,59.917101460635855,
To what extent did the music make you feel ,TENDER,30MonoWAV/30MonoT3.wav,2,1,4,15,,,,,0,6,6,14,0,8,8,10,,,,,,,,,3,1.0691021110105794,100,001,2019_Sep_03_1412,MusicAffectPsychophysiology2019,3.0.5,59.917101460635855,
To what extent did the music make you feel ,SCARED,30MonoWAV/30MonoT3.wav,2,1,4,15,,,,,0,6,6,14,0,9,9,11,,,,,,,,,1,0.8695014779805206,100,001,2019_Sep_03_1412,MusicAffectPsychophysiology2019,3.0.5,59.917101460635855,
To what extent did the music make you feel ,ANGRY,30MonoWAV/30MonoT3.wav,2,1,4,15,,,,,0,6,6,14,0,10,10,2,,,,,,,,,1,0.7185065649973694,100,001,2019_Sep_03_1412,MusicAffectPsychophysiology2019,3.0.5,59.917101460635855,
To what extent did the music make you feel ,GUILTY,30MonoWAV/30MonoT3.wav,2,1,4,15,,,,,0,6,6,14,0,11,11,5,,,,,,,,,1,0.5533280600211583,100,001,2019_Sep_03_1412,MusicAffectPsychophysiology2019,3.0.5,59.917101460635855,
,,30MonoWAV/30MonoT3.wav,2,1,4,15,,,,,0,6,6,14,,,,,,,,,,,,,,,100,001,2019_Sep_03_1412,MusicAffectPsychophysiology2019,3.0.5,59.917101460635855,
To what extent did the music make you feel ,EXCITED,30MonoWAV/30MonoF1.wav,1,2,2,1,,,,,0,7,7,0,0,0,0,7,,,3,3.066763323993655,3,2.352138118003495,4,1.9526618260133546,4,2.6893391540215816,100,001,2019_Sep_03_1412,MusicAffectPsychophysiology2019,3.0.5,59.917101460635855,
To what extent did the music make you feel ,GUILTY,30MonoWAV/30MonoF1.wav,1,2,2,1,,,,,0,7,7,0,0,1,1,5,,,,,,,,,1,1.5359581270022318,100,001,2019_Sep_03_1412,MusicAffectPsychophysiology2019,3.0.5,59.917101460635855,
To what extent did the music make you feel ,ACTIVE,30MonoWAV/30MonoF1.wav,1,2,2,1,,,,,0,7,7,0,0,2,2,9,,,,,,,,,3,1.0504388659901451,100,001,2019_Sep_03_1412,MusicAffectPsychophysiology2019,3.0.5,59.917101460635855,
To what extent did the music make you feel ,HAPPY,30MonoWAV/30MonoF1.wav,1,2,2,1,,,,,0,7,7,0,0,3,3,6,,,,,,,,,2,1.4856544609938283,100,001,2019_Sep_03_1412,MusicAffectPsychophysiology2019,3.0.5,59.917101460635855,
To what extent did the music make you feel ,SAD,30MonoWAV/30MonoF1.wav,1,2,2,1,,,,,0,7,7,0,0,4,4,0,,,,,,,,,2,0.92163018201245,100,001,2019_Sep_03_1412,MusicAffectPsychophysiology2019,3.0.5,59.917101460635855,
To what extent did the music make you feel ,ALERT,30MonoWAV/30MonoF1.wav,1,2,2,1,,,,,0,7,7,0,0,5,5,8,,,,,,,,,3,4.453102256986313,100,001,2019_Sep_03_1412,MusicAffectPsychophysiology2019,3.0.5,59.917101460635855,
To what extent did the music make you feel ,ASHAMED,30MonoWAV/30MonoF1.wav,1,2,2,1,,,,,0,7,7,0,0,6,6,4,,,,,,,,,1,2.670463757007383,100,001,2019_Sep_03_1412,MusicAffectPsychophysiology2019,3.0.5,59.917101460635855,
To what extent did the music make you feel ,ANGRY,30MonoWAV/30MonoF1.wav,1,2,2,1,,,,,0,7,7,0,0,7,7,2,,,,,,,,,1,0.6689034329901915,100,001,2019_Sep_03_1412,MusicAffectPsychophysiology2019,3.0.5,59.917101460635855,
To what extent did the music make you feel ,TENDER,30MonoWAV/30MonoF1.wav,1,2,2,1,,,,,0,7,7,0,0,8,8,10,,,,,,,,,1,0.969112299993867,100,001,2019_Sep_03_1412,MusicAffectPsychophysiology2019,3.0.5,59.917101460635855,
To what extent did the music make you feel ,FRUSTRATED,30MonoWAV/30MonoF1.wav,1,2,2,1,,,,,0,7,7,0,0,9,9,3,,,,,,,,,1,0.9698661720030941,100,001,2019_Sep_03_1412,MusicAffectPsychophysiology2019,3.0.5,59.917101460635855,
To what extent did the music make you feel ,ANXIOUS ,30MonoWAV/30MonoF1.wav,1,2,2,1,,,,,0,7,7,0,0,10,10,1,,,,,,,,,4,1.236748439987423,100,001,2019_Sep_03_1412,MusicAffectPsychophysiology2019,3.0.5,59.917101460635855,
To what extent did the music make you feel ,SCARED,30MonoWAV/30MonoF1.wav,1,2,2,1,,,,,0,7,7,0,0,11,11,11,,,,,,,,,2,1.551240731991129,100,001,2019_Sep_03_1412,MusicAffectPsychophysiology2019,3.0.5,59.917101460635855,
,,30MonoWAV/30MonoF1.wav,1,2,2,1,,,,,0,7,7,0,,,,,,,,,,,,,,,100,001,2019_Sep_03_1412,MusicAffectPsychophysiology2019,3.0.5,59.917101460635855,
To what extent did the music make you feel ,ANGRY,30MonoWAV/30MonoH3.wav,2,2,1,7,,,,,0,8,8,6,0,0,0,2,,,3,7.25274956098292,3,1.8033605620148592,3,1.9681942170136608,1,2.16076853001141,100,001,2019_Sep_03_1412,MusicAffectPsychophysiology2019,3.0.5,59.917101460635855,
To what extent did the music make you feel ,ALERT,30MonoWAV/30MonoH3.wav,2,2,1,7,,,,,0,8,8,6,0,1,1,8,,,,,,,,,3,1.7667979770048987,100,001,2019_Sep_03_1412,MusicAffectPsychophysiology2019,3.0.5,59.917101460635855,
To what extent did the music make you feel ,FRUSTRATED,30MonoWAV/30MonoH3.wav,2,2,1,7,,,,,0,8,8,6,0,2,2,3,,,,,,,,,1,0.6524314380076248,100,001,2019_Sep_03_1412,MusicAffectPsychophysiology2019,3.0.5,59.917101460635855,
To what extent did the music make you feel ,EXCITED,30MonoWAV/30MonoH3.wav,2,2,1,7,,,,,0,8,8,6,0,3,3,7,,,,,,,,,4,2.9520311500236858,100,001,2019_Sep_03_1412,MusicAffectPsychophysiology2019,3.0.5,59.917101460635855,
To what extent did the music make you feel ,GUILTY,30MonoWAV/30MonoH3.wav,2,2,1,7,,,,,0,8,8,6,0,4,4,5,,,,,,,,,1,0.8190744140010793,100,001,2019_Sep_03_1412,MusicAffectPsychophysiology2019,3.0.5,59.917101460635855,
To what extent did the music make you feel ,ANXIOUS ,30MonoWAV/30MonoH3.wav,2,2,1,7,,,,,0,8,8,6,0,5,5,1,,,,,,,,,1,0.9031147279893048,100,001,2019_Sep_03_1412,MusicAffectPsychophysiology2019,3.0.5,59.917101460635855,
To what extent did the music make you feel ,SAD,30MonoWAV/30MonoH3.wav,2,2,1,7,,,,,0,8,8,6,0,6,6,0,,,,,,,,,1,0.6616785709920805,100,001,2019_Sep_03_1412,MusicAffectPsychophysiology2019,3.0.5,59.917101460635855,
To what extent did the music make you feel ,TENDER,30MonoWAV/30MonoH3.wav,2,2,1,7,,,,,0,8,8,6,0,7,7,10,,,,,,,,,1,0.9028797660139389,100,001,2019_Sep_03_1412,MusicAffectPsychophysiology2019,3.0.5,59.917101460635855,
To what extent did the music make you feel ,HAPPY,30MonoWAV/30MonoH3.wav,2,2,1,7,,,,,0,8,8,6,0,8,8,6,,,,,,,,,3,0.9016251009888947,100,001,2019_Sep_03_1412,MusicAffectPsychophysiology2019,3.0.5,59.917101460635855,
To what extent did the music make you feel ,ACTIVE,30MonoWAV/30MonoH3.wav,2,2,1,7,,,,,0,8,8,6,0,9,9,9,,,,,,,,,4,0.852260034007486,100,001,2019_Sep_03_1412,MusicAffectPsychophysiology2019,3.0.5,59.917101460635855,
To what extent did the music make you feel ,ASHAMED,30MonoWAV/30MonoH3.wav,2,2,1,7,,,,,0,8,8,6,0,10,10,4,,,,,,,,,1,0.7517986829916481,100,001,2019_Sep_03_1412,MusicAffectPsychophysiology2019,3.0.5,59.917101460635855,
To what extent did the music make you feel ,SCARED,30MonoWAV/30MonoH3.wav,2,2,1,7,,,,,0,8,8,6,0,11,11,11,,,,,,,,,1,0.619279667007504,100,001,2019_Sep_03_1412,MusicAffectPsychophysiology2019,3.0.5,59.917101460635855,
,,30MonoWAV/30MonoH3.wav,2,2,1,7,,,,,0,8,8,6,,,,,,,,,,,,,,,100,001,2019_Sep_03_1412,MusicAffectPsychophysiology2019,3.0.5,59.917101460635855,
To what extent did the music make you feel ,ALERT,30MonoWAV/30MonoS3.wav,1,1,3,11,,,,,0,9,9,10,0,0,0,8,,,1,6.868497856979957,1,0.9029572029830888,3,2.3840763909975067,2,3.007203994988231,100,001,2019_Sep_03_1412,MusicAffectPsychophysiology2019,3.0.5,59.917101460635855,
To what extent did the music make you feel ,SCARED,30MonoWAV/30MonoS3.wav,1,1,3,11,,,,,0,9,9,10,0,1,1,11,,,,,,,,,3,1.7732022080163006,100,001,2019_Sep_03_1412,MusicAffectPsychophysiology2019,3.0.5,59.917101460635855,
To what extent did the music make you feel ,ANGRY,30MonoWAV/30MonoS3.wav,1,1,3,11,,,,,0,9,9,10,0,2,2,2,,,,,,,,,1,1.4356688960106112,100,001,2019_Sep_03_1412,MusicAffectPsychophysiology2019,3.0.5,59.917101460635855,
To what extent did the music make you feel ,ANXIOUS ,30MonoWAV/30MonoS3.wav,1,1,3,11,,,,,0,9,9,10,0,3,3,1,,,,,,,,,3,1.9857203300052788,100,001,2019_Sep_03_1412,MusicAffectPsychophysiology2019,3.0.5,59.917101460635855,
To what extent did the music make you feel ,EXCITED,30MonoWAV/30MonoS3.wav,1,1,3,11,,,,,0,9,9,10,0,4,4,7,,,,,,,,,1,0.9524482269771397,100,001,2019_Sep_03_1412,MusicAffectPsychophysiology2019,3.0.5,59.917101460635855,
To what extent did the music make you feel ,HAPPY,30MonoWAV/30MonoS3.wav,1,1,3,11,,,,,0,9,9,10,0,5,5,6,,,,,,,,,1,0.8184027649986092,100,001,2019_Sep_03_1412,MusicAffectPsychophysiology2019,3.0.5,59.917101460635855,
To what extent did the music make you feel ,GUILTY,30MonoWAV/30MonoS3.wav,1,1,3,11,,,,,0,9,9,10,0,6,6,5,,,,,,,,,1,1.9180738290015142,100,001,2019_Sep_03_1412,MusicAffectPsychophysiology2019,3.0.5,59.917101460635855,
To what extent did the music make you feel ,FRUSTRATED,30MonoWAV/30MonoS3.wav,1,1,3,11,,,,,0,9,9,10,0,7,7,3,,,,,,,,,1,0.7185058339964598,100,001,2019_Sep_03_1412,MusicAffectPsychophysiology2019,3.0.5,59.917101460635855,
To what extent did the music make you feel ,ACTIVE,30MonoWAV/30MonoS3.wav,1,1,3,11,,,,,0,9,9,10,0,8,8,9,,,,,,,,,1,0.9865510440140497,100,001,2019_Sep_03_1412,MusicAffectPsychophysiology2019,3.0.5,59.917101460635855,
To what extent did the music make you feel ,TENDER,30MonoWAV/30MonoS3.wav,1,1,3,11,,,,,0,9,9,10,0,9,9,10,,,,,,,,,1,2.352327114000218,100,001,2019_Sep_03_1412,MusicAffectPsychophysiology2019,3.0.5,59.917101460635855,
To what extent did the music make you feel ,ASHAMED,30MonoWAV/30MonoS3.wav,1,1,3,11,,,,,0,9,9,10,0,10,10,4,,,,,,,,,1,0.8521164010162465,100,001,2019_Sep_03_1412,MusicAffectPsychophysiology2019,3.0.5,59.917101460635855,
To what extent did the music make you feel ,SAD,30MonoWAV/30MonoS3.wav,1,1,3,11,,,,,0,9,9,10,0,11,11,0,,,,,,,,,2,1.4171874129970092,100,001,2019_Sep_03_1412,MusicAffectPsychophysiology2019,3.0.5,59.917101460635855,
,,30MonoWAV/30MonoS3.wav,1,1,3,11,,,,,0,9,9,10,,,,,,,,,,,,,,,100,001,2019_Sep_03_1412,MusicAffectPsychophysiology2019,3.0.5,59.917101460635855,
To what extent did the music make you feel ,SAD,30MonoWAV/30MonoT2.wav,2,1,4,14,,,,,0,10,10,13,0,0,0,0,,,4,5.466634133015759,4,1.5359739889972843,4,1.5521788350015413,3,1.6674246760085225,100,001,2019_Sep_03_1412,MusicAffectPsychophysiology2019,3.0.5,59.917101460635855,
To what extent did the music make you feel ,FRUSTRATED,30MonoWAV/30MonoT2.wav,2,1,4,14,,,,,0,10,10,13,0,1,1,3,,,,,,,,,3,4.634714471991174,100,001,2019_Sep_03_1412,MusicAffectPsychophysiology2019,3.0.5,59.917101460635855,
To what extent did the music make you feel ,ASHAMED,30MonoWAV/30MonoT2.wav,2,1,4,14,,,,,0,10,10,13,0,2,2,4,,,,,,,,,1,3.0354755019943696,100,001,2019_Sep_03_1412,MusicAffectPsychophysiology2019,3.0.5,59.917101460635855,
To what extent did the music make you feel ,GUILTY,30MonoWAV/30MonoT2.wav,2,1,4,14,,,,,0,10,10,13,0,3,3,5,,,,,,,,,1,2.5337629219866358,100,001,2019_Sep_03_1412,MusicAffectPsychophysiology2019,3.0.5,59.917101460635855,
To what extent did the music make you feel ,ANGRY,30MonoWAV/30MonoT2.wav,2,1,4,14,,,,,0,10,10,13,0,4,4,2,,,,,,,,,1,0.8674937989853788,100,001,2019_Sep_03_1412,MusicAffectPsychophysiology2019,3.0.5,59.917101460635855,
To what extent did the music make you feel ,ALERT,30MonoWAV/30MonoT2.wav,2,1,4,14,,,,,0,10,10,13,0,5,5,8,,,,,,,,,3,1.5688577349937987,100,001,2019_Sep_03_1412,MusicAffectPsychophysiology2019,3.0.5,59.917101460635855,
To what extent did the music make you feel ,TENDER,30MonoWAV/30MonoT2.wav,2,1,4,14,,,,,0,10,10,13,0,6,6,10,,,,,,,,,4,1.5530859899881762,100,001,2019_Sep_03_1412,MusicAffectPsychophysiology2019,3.0.5,59.917101460635855,
To what extent did the music make you feel ,ACTIVE,30MonoWAV/30MonoT2.wav,2,1,4,14,,,,,0,10,10,13,0,7,7,9,,,,,,,,,3,2.5182999200187624,100,001,2019_Sep_03_1412,MusicAffectPsychophysiology2019,3.0.5,59.917101460635855,
To what extent did the music make you feel ,HAPPY,30MonoWAV/30MonoT2.wav,2,1,4,14,,,,,0,10,10,13,0,8,8,6,,,,,,,,,3,3.5521645179833286,100,001,2019_Sep_03_1412,MusicAffectPsychophysiology2019,3.0.5,59.917101460635855,
To what extent did the music make you feel ,EXCITED,30MonoWAV/30MonoT2.wav,2,1,4,14,,,,,0,10,10,13,0,9,9,7,,,,,,,,,2,2.1519724589888938,100,001,2019_Sep_03_1412,MusicAffectPsychophysiology2019,3.0.5,59.917101460635855,
To what extent did the music make you feel ,ANXIOUS ,30MonoWAV/30MonoT2.wav,2,1,4,14,,,,,0,10,10,13,0,10,10,1,,,,,,,,,4,1.6198057330038864,100,001,2019_Sep_03_1412,MusicAffectPsychophysiology2019,3.0.5,59.917101460635855,
To what extent did the music make you feel ,SCARED,30MonoWAV/30MonoT2.wav,2,1,4,14,,,,,0,10,10,13,0,11,11,11,,,,,,,,,1,1.6371958770032506,100,001,2019_Sep_03_1412,MusicAffectPsychophysiology2019,3.0.5,59.917101460635855,
,,30MonoWAV/30MonoT2.wav,2,1,4,14,,,,,0,10,10,13,,,,,,,,,,,,,,,100,001,2019_Sep_03_1412,MusicAffectPsychophysiology2019,3.0.5,59.917101460635855,
To what extent did the music make you feel ,TENDER,30MonoWAV/30MonoH4.wav,2,2,1,8,,,,,0,11,11,7,0,0,0,10,,,3,3.6367337580013555,4,2.318972779001342,4,1.9859932749823201,2,2.33826211001724,100,001,2019_Sep_03_1412,MusicAffectPsychophysiology2019,3.0.5,59.917101460635855,
To what extent did the music make you feel ,SCARED,30MonoWAV/30MonoH4.wav,2,2,1,8,,,,,0,11,11,7,0,1,1,11,,,,,,,,,1,0.9523863639915362,100,001,2019_Sep_03_1412,MusicAffectPsychophysiology2019,3.0.5,59.917101460635855,
To what extent did the music make you feel ,HAPPY,30MonoWAV/30MonoH4.wav,2,2,1,8,,,,,0,11,11,7,0,2,2,6,,,,,,,,,4,1.6198344670119695,100,001,2019_Sep_03_1412,MusicAffectPsychophysiology2019,3.0.5,59.917101460635855,
To what extent did the music make you feel ,ANXIOUS ,30MonoWAV/30MonoH4.wav,2,2,1,8,,,,,0,11,11,7,0,3,3,1,,,,,,,,,1,1.186608921008883,100,001,2019_Sep_03_1412,MusicAffectPsychophysiology2019,3.0.5,59.917101460635855,
To what extent did the music make you feel ,GUILTY,30MonoWAV/30MonoH4.wav,2,2,1,8,,,,,0,11,11,7,0,4,4,5,,,,,,,,,1,0.8164836649957579,100,001,2019_Sep_03_1412,MusicAffectPsychophysiology2019,3.0.5,59.917101460635855,
To what extent did the music make you feel ,SAD,30MonoWAV/30MonoH4.wav,2,2,1,8,,,,,0,11,11,7,0,5,5,0,,,,,,,,,1,0.7655385719845071,100,001,2019_Sep_03_1412,MusicAffectPsychophysiology2019,3.0.5,59.917101460635855,
To what extent did the music make you feel ,EXCITED,30MonoWAV/30MonoH4.wav,2,2,1,8,,,,,0,11,11,7,0,6,6,7,,,,,,,,,3,1.6856251809804235,100,001,2019_Sep_03_1412,MusicAffectPsychophysiology2019,3.0.5,59.917101460635855,
To what extent did the music make you feel ,ACTIVE,30MonoWAV/30MonoH4.wav,2,2,1,8,,,,,0,11,11,7,0,7,7,9,,,,,,,,,3,1.1334387469978537,100,001,2019_Sep_03_1412,MusicAffectPsychophysiology2019,3.0.5,59.917101460635855,
To what extent did the music make you feel ,ALERT,30MonoWAV/30MonoH4.wav,2,2,1,8,,,,,0,11,11,7,0,8,8,8,,,,,,,,,3,1.1709028469922487,100,001,2019_Sep_03_1412,MusicAffectPsychophysiology2019,3.0.5,59.917101460635855,
To what extent did the music make you feel ,ASHAMED,30MonoWAV/30MonoH4.wav,2,2,1,8,,,,,0,11,11,7,0,9,9,4,,,,,,,,,1,0.9006611100048758,100,001,2019_Sep_03_1412,MusicAffectPsychophysiology2019,3.0.5,59.917101460635855,
To what extent did the music make you feel ,FRUSTRATED,30MonoWAV/30MonoH4.wav,2,2,1,8,,,,,0,11,11,7,0,10,10,3,,,,,,,,,1,0.5851170980022289,100,001,2019_Sep_03_1412,MusicAffectPsychophysiology2019,3.0.5,59.917101460635855,
To what extent did the music make you feel ,ANGRY,30MonoWAV/30MonoH4.wav,2,2,1,8,,,,,0,11,11,7,0,11,11,2,,,,,,,,,1,0.5195726689998992,100,001,2019_Sep_03_1412,MusicAffectPsychophysiology2019,3.0.5,59.917101460635855,
,,30MonoWAV/30MonoH4.wav,2,2,1,8,,,,,0,11,11,7,,,,,,,,,,,,,,,100,001,2019_Sep_03_1412,MusicAffectPsychophysiology2019,3.0.5,59.917101460635855,
To what extent did the music make you feel ,ASHAMED,30MonoWAV/30MonoS2.wav,1,1,3,10,,,,,0,12,12,9,0,0,0,4,,,2,10.385746667976491,2,1.2195166029850952,3,1.469493288983358,1,2.096720525994897,100,001,2019_Sep_03_1412,MusicAffectPsychophysiology2019,3.0.5,59.917101460635855,
To what extent did the music make you feel ,ANXIOUS ,30MonoWAV/30MonoS2.wav,1,1,3,10,,,,,0,12,12,9,0,1,1,1,,,,,,,,,2,1.4364063770044595,100,001,2019_Sep_03_1412,MusicAffectPsychophysiology2019,3.0.5,59.917101460635855,
To what extent did the music make you feel ,ACTIVE,30MonoWAV/30MonoS2.wav,1,1,3,10,,,,,0,12,12,9,0,2,2,9,,,,,,,,,1,0.8198315059999004,100,001,2019_Sep_03_1412,MusicAffectPsychophysiology2019,3.0.5,59.917101460635855,
To what extent did the music make you feel ,ALERT,30MonoWAV/30MonoS2.wav,1,1,3,10,,,,,0,12,12,9,0,3,3,8,,,,,,,,,1,1.7021215519926045,100,001,2019_Sep_03_1412,MusicAffectPsychophysiology2019,3.0.5,59.917101460635855,
To what extent did the music make you feel ,EXCITED,30MonoWAV/30MonoS2.wav,1,1,3,10,,,,,0,12,12,9,0,4,4,7,,,,,,,,,1,1.2197763720178045,100,001,2019_Sep_03_1412,MusicAffectPsychophysiology2019,3.0.5,59.917101460635855,
To what extent did the music make you feel ,TENDER,30MonoWAV/30MonoS2.wav,1,1,3,10,,,,,0,12,12,9,0,5,5,10,,,,,,,,,3,1.2355708320101257,100,001,2019_Sep_03_1412,MusicAffectPsychophysiology2019,3.0.5,59.917101460635855,
To what extent did the music make you feel ,GUILTY,30MonoWAV/30MonoS2.wav,1,1,3,10,,,,,0,12,12,9,0,6,6,5,,,,,,,,,1,1.052104103990132,100,001,2019_Sep_03_1412,MusicAffectPsychophysiology2019,3.0.5,59.917101460635855,
To what extent did the music make you feel ,SCARED,30MonoWAV/30MonoS2.wav,1,1,3,10,,,,,0,12,12,9,0,7,7,11,,,,,,,,,1,2.3365166999865323,100,001,2019_Sep_03_1412,MusicAffectPsychophysiology2019,3.0.5,59.917101460635855,
To what extent did the music make you feel ,FRUSTRATED,30MonoWAV/30MonoS2.wav,1,1,3,10,,,,,0,12,12,9,0,8,8,3,,,,,,,,,1,0.7024402730166912,100,001,2019_Sep_03_1412,MusicAffectPsychophysiology2019,3.0.5,59.917101460635855,
To what extent did the music make you feel ,ANGRY,30MonoWAV/30MonoS2.wav,1,1,3,10,,,,,0,12,12,9,0,9,9,2,,,,,,,,,1,0.4859803860017564,100,001,2019_Sep_03_1412,MusicAffectPsychophysiology2019,3.0.5,59.917101460635855,
To what extent did the music make you feel ,SAD,30MonoWAV/30MonoS2.wav,1,1,3,10,,,,,0,12,12,9,0,10,10,0,,,,,,,,,4,2.8517782679991797,100,001,2019_Sep_03_1412,MusicAffectPsychophysiology2019,3.0.5,59.917101460635855,
To what extent did the music make you feel ,HAPPY,30MonoWAV/30MonoS2.wav,1,1,3,10,,,,,0,12,12,9,0,11,11,6,,,,,,,,,1,0.7863388080149889,100,001,2019_Sep_03_1412,MusicAffectPsychophysiology2019,3.0.5,59.917101460635855,
,,30MonoWAV/30MonoS2.wav,1,1,3,10,,,,,0,12,12,9,,,,,,,,,,,,,,,100,001,2019_Sep_03_1412,MusicAffectPsychophysiology2019,3.0.5,59.917101460635855,
To what extent did the music make you feel ,ACTIVE,30MonoWAV/30MonoH2.wav,2,2,1,6,,,,,0,13,13,5,0,0,0,9,,,3,4.969590592983877,3,0.9872676650120411,3,0.6364937949983869,3,2.4765831280092243,100,001,2019_Sep_03_1412,MusicAffectPsychophysiology2019,3.0.5,59.917101460635855,
To what extent did the music make you feel ,ANGRY,30MonoWAV/30MonoH2.wav,2,2,1,6,,,,,0,13,13,5,0,1,1,2,,,,,,,,,1,2.852179147012066,100,001,2019_Sep_03_1412,MusicAffectPsychophysiology2019,3.0.5,59.917101460635855,
To what extent did the music make you feel ,EXCITED,30MonoWAV/30MonoH2.wav,2,2,1,6,,,,,0,13,13,5,0,2,2,7,,,,,,,,,4,0.769243267015554,100,001,2019_Sep_03_1412,MusicAffectPsychophysiology2019,3.0.5,59.917101460635855,
To what extent did the music make you feel ,ALERT,30MonoWAV/30MonoH2.wav,2,2,1,6,,,,,0,13,13,5,0,3,3,8,,,,,,,,,3,1.3869705309916753,100,001,2019_Sep_03_1412,MusicAffectPsychophysiology2019,3.0.5,59.917101460635855,
To what extent did the music make you feel ,SAD,30MonoWAV/30MonoH2.wav,2,2,1,6,,,,,0,13,13,5,0,4,4,0,,,,,,,,,1,0.8030412569933105,100,001,2019_Sep_03_1412,MusicAffectPsychophysiology2019,3.0.5,59.917101460635855,
To what extent did the music make you feel ,ASHAMED,30MonoWAV/30MonoH2.wav,2,2,1,6,,,,,0,13,13,5,0,5,5,4,,,,,,,,,1,0.8359532419999596,100,001,2019_Sep_03_1412,MusicAffectPsychophysiology2019,3.0.5,59.917101460635855,
To what extent did the music make you feel ,FRUSTRATED,30MonoWAV/30MonoH2.wav,2,2,1,6,,,,,0,13,13,5,0,6,6,3,,,,,,,,,1,0.5253283390193246,100,001,2019_Sep_03_1412,MusicAffectPsychophysiology2019,3.0.5,59.917101460635855,
To what extent did the music make you feel ,SCARED,30MonoWAV/30MonoH2.wav,2,2,1,6,,,,,0,13,13,5,0,7,7,11,,,,,,,,,1,0.7532509939919692,100,001,2019_Sep_03_1412,MusicAffectPsychophysiology2019,3.0.5,59.917101460635855,
To what extent did the music make you feel ,ANXIOUS ,30MonoWAV/30MonoH2.wav,2,2,1,6,,,,,0,13,13,5,0,8,8,1,,,,,,,,,2,1.4699372130271513,100,001,2019_Sep_03_1412,MusicAffectPsychophysiology2019,3.0.5,59.917101460635855,
To what extent did the music make you feel ,TENDER,30MonoWAV/30MonoH2.wav,2,2,1,6,,,,,0,13,13,5,0,9,9,10,,,,,,,,,1,1.3191276830038987,100,001,2019_Sep_03_1412,MusicAffectPsychophysiology2019,3.0.5,59.917101460635855,
To what extent did the music make you feel ,HAPPY,30MonoWAV/30MonoH2.wav,2,2,1,6,,,,,0,13,13,5,0,10,10,6,,,,,,,,,3,1.3361217860074248,100,001,2019_Sep_03_1412,MusicAffectPsychophysiology2019,3.0.5,59.917101460635855,
To what extent did the music make you feel ,GUILTY,30MonoWAV/30MonoH2.wav,2,2,1,6,,,,,0,13,13,5,0,11,11,5,,,,,,,,,1,1.2525874109996948,100,001,2019_Sep_03_1412,MusicAffectPsychophysiology2019,3.0.5,59.917101460635855,
,,30MonoWAV/30MonoH2.wav,2,2,1,6,,,,,0,13,13,5,,,,,,,,,,,,,,,100,001,2019_Sep_03_1412,MusicAffectPsychophysiology2019,3.0.5,59.917101460635855,
To what extent did the music make you feel ,ALERT,30MonoWAV/30MonoT4.wav,2,1,4,16,,,,,0,14,14,15,0,0,0,8,,,4,3.7693503169866744,4,1.0513894129835535,4,1.3519795399915893,2,2.717280490003759,100,001,2019_Sep_03_1412,MusicAffectPsychophysiology2019,3.0.5,59.917101460635855,
To what extent did the music make you feel ,SAD,30MonoWAV/30MonoT4.wav,2,1,4,16,,,,,0,14,14,15,0,1,1,0,,,,,,,,,4,1.4862611620046664,100,001,2019_Sep_03_1412,MusicAffectPsychophysiology2019,3.0.5,59.917101460635855,
To what extent did the music make you feel ,ANGRY,30MonoWAV/30MonoT4.wav,2,1,4,16,,,,,0,14,14,15,0,2,2,2,,,,,,,,,1,1.1349681100109592,100,001,2019_Sep_03_1412,MusicAffectPsychophysiology2019,3.0.5,59.917101460635855,
To what extent did the music make you feel ,ANXIOUS ,30MonoWAV/30MonoT4.wav,2,1,4,16,,,,,0,14,14,15,0,3,3,1,,,,,,,,,4,1.3702239510021172,100,001,2019_Sep_03_1412,MusicAffectPsychophysiology2019,3.0.5,59.917101460635855,
To what extent did the music make you feel ,HAPPY,30MonoWAV/30MonoT4.wav,2,1,4,16,,,,,0,14,14,15,0,4,4,6,,,,,,,,,3,1.0193074740236625,100,001,2019_Sep_03_1412,MusicAffectPsychophysiology2019,3.0.5,59.917101460635855,
To what extent did the music make you feel ,ASHAMED,30MonoWAV/30MonoT4.wav,2,1,4,16,,,,,0,14,14,15,0,5,5,4,,,,,,,,,1,3.8180193419975694,100,001,2019_Sep_03_1412,MusicAffectPsychophysiology2019,3.0.5,59.917101460635855,
To what extent did the music make you feel ,GUILTY,30MonoWAV/30MonoT4.wav,2,1,4,16,,,,,0,14,14,15,0,6,6,5,,,,,,,,,1,0.48375824399408884,100,001,2019_Sep_03_1412,MusicAffectPsychophysiology2019,3.0.5,59.917101460635855,
To what extent did the music make you feel ,SCARED,30MonoWAV/30MonoT4.wav,2,1,4,16,,,,,0,14,14,15,0,7,7,11,,,,,,,,,2,1.4356308210117277,100,001,2019_Sep_03_1412,MusicAffectPsychophysiology2019,3.0.5,59.917101460635855,
To what extent did the music make you feel ,FRUSTRATED,30MonoWAV/30MonoT4.wav,2,1,4,16,,,,,0,14,14,15,0,8,8,3,,,,,,,,,1,2.319083113980014,100,001,2019_Sep_03_1412,MusicAffectPsychophysiology2019,3.0.5,59.917101460635855,
To what extent did the music make you feel ,TENDER,30MonoWAV/30MonoT4.wav,2,1,4,16,,,,,0,14,14,15,0,9,9,10,,,,,,,,,3,3.5184175570029765,100,001,2019_Sep_03_1412,MusicAffectPsychophysiology2019,3.0.5,59.917101460635855,
To what extent did the music make you feel ,EXCITED,30MonoWAV/30MonoT4.wav,2,1,4,16,,,,,0,14,14,15,0,10,10,7,,,,,,,,,2,1.2687974589935038,100,001,2019_Sep_03_1412,MusicAffectPsychophysiology2019,3.0.5,59.917101460635855,
To what extent did the music make you feel ,ACTIVE,30MonoWAV/30MonoT4.wav,2,1,4,16,,,,,0,14,14,15,0,11,11,9,,,,,,,,,2,1.30343837098917,100,001,2019_Sep_03_1412,MusicAffectPsychophysiology2019,3.0.5,59.917101460635855,
,,30MonoWAV/30MonoT4.wav,2,1,4,16,,,,,0,14,14,15,,,,,,,,,,,,,,,100,001,2019_Sep_03_1412,MusicAffectPsychophysiology2019,3.0.5,59.917101460635855,
To what extent did the music make you feel ,ASHAMED,30MonoWAV/30MonoF4.wav,1,2,2,4,,,,,0,15,15,3,0,0,0,4,,,3,13.63406565200421,3,1.5857360100199003,2,2.219270225992659,1,1.723753055994166,100,001,2019_Sep_03_1412,MusicAffectPsychophysiology2019,3.0.5,59.917101460635855,
To what extent did the music make you feel ,ALERT,30MonoWAV/30MonoF4.wav,1,2,2,4,,,,,0,15,15,3,0,1,1,8,,,,,,,,,2,1.0861569860135205,100,001,2019_Sep_03_1412,MusicAffectPsychophysiology2019,3.0.5,59.917101460635855,
To what extent did the music make you feel ,ACTIVE,30MonoWAV/30MonoF4.wav,1,2,2,4,,,,,0,15,15,3,0,2,2,9,,,,,,,,,3,2.102874903008342,100,001,2019_Sep_03_1412,MusicAffectPsychophysiology2019,3.0.5,59.917101460635855,
To what extent did the music make you feel ,SAD,30MonoWAV/30MonoF4.wav,1,2,2,4,,,,,0,15,15,3,0,3,3,0,,,,,,,,,1,2.068505700008245,100,001,2019_Sep_03_1412,MusicAffectPsychophysiology2019,3.0.5,59.917101460635855,
To what extent did the music make you feel ,SCARED,30MonoWAV/30MonoF4.wav,1,2,2,4,,,,,0,15,15,3,0,4,4,11,,,,,,,,,1,0.8017201350012328,100,001,2019_Sep_03_1412,MusicAffectPsychophysiology2019,3.0.5,59.917101460635855,
To what extent did the music make you feel ,ANGRY,30MonoWAV/30MonoF4.wav,1,2,2,4,,,,,0,15,15,3,0,5,5,2,,,,,,,,,1,0.7523876650084276,100,001,2019_Sep_03_1412,MusicAffectPsychophysiology2019,3.0.5,59.917101460635855,
To what extent did the music make you feel ,TENDER,30MonoWAV/30MonoF4.wav,1,2,2,4,,,,,0,15,15,3,0,6,6,10,,,,,,,,,1,1.8365317520219833,100,001,2019_Sep_03_1412,MusicAffectPsychophysiology2019,3.0.5,59.917101460635855,
To what extent did the music make you feel ,FRUSTRATED,30MonoWAV/30MonoF4.wav,1,2,2,4,,,,,0,15,15,3,0,7,7,3,,,,,,,,,1,2.4352544900029898,100,001,2019_Sep_03_1412,MusicAffectPsychophysiology2019,3.0.5,59.917101460635855,
To what extent did the music make you feel ,HAPPY,30MonoWAV/30MonoF4.wav,1,2,2,4,,,,,0,15,15,3,0,8,8,6,,,,,,,,,3,1.2187015160161536,100,001,2019_Sep_03_1412,MusicAffectPsychophysiology2019,3.0.5,59.917101460635855,
To what extent did the music make you feel ,EXCITED,30MonoWAV/30MonoF4.wav,1,2,2,4,,,,,0,15,15,3,0,9,9,7,,,,,,,,,4,1.3529137080186047,100,001,2019_Sep_03_1412,MusicAffectPsychophysiology2019,3.0.5,59.917101460635855,
To what extent did the music make you feel ,GUILTY,30MonoWAV/30MonoF4.wav,1,2,2,4,,,,,0,15,15,3,0,10,10,5,,,,,,,,,1,0.967949520010734,100,001,2019_Sep_03_1412,MusicAffectPsychophysiology2019,3.0.5,59.917101460635855,
To what extent did the music make you feel ,ANXIOUS ,30MonoWAV/30MonoF4.wav,1,2,2,4,,,,,0,15,15,3,0,11,11,1,,,,,,,,,2,1.0365329140040558,100,001,2019_Sep_03_1412,MusicAffectPsychophysiology2019,3.0.5,59.917101460635855,
,,30MonoWAV/30MonoF4.wav,1,2,2,4,,,,,0,15,15,3,,,,,,,,,,,,,,,100,001,2019_Sep_03_1412,MusicAffectPsychophysiology2019,3.0.5,59.917101460635855,
To what extent did the music make you feel ,ACTIVE,30MonoWAV/30MonoT3.wav,2,1,4,15,,,,,1,0,16,14,0,0,0,9,,,3,6.219836236006813,4,1.652525732992217,4,1.7850940090138465,3,3.502662129001692,100,001,2019_Sep_03_1412,MusicAffectPsychophysiology2019,3.0.5,59.917101460635855,
To what extent did the music make you feel ,SAD,30MonoWAV/30MonoT3.wav,2,1,4,15,,,,,1,0,16,14,0,1,1,0,,,,,,,,,3,1.6865792280004825,100,001,2019_Sep_03_1412,MusicAffectPsychophysiology2019,3.0.5,59.917101460635855,
To what extent did the music make you feel ,GUILTY,30MonoWAV/30MonoT3.wav,2,1,4,15,,,,,1,0,16,14,0,2,2,5,,,,,,,,,1,2.002390120003838,100,001,2019_Sep_03_1412,MusicAffectPsychophysiology2019,3.0.5,59.917101460635855,
To what extent did the music make you feel ,SCARED,30MonoWAV/30MonoT3.wav,2,1,4,15,,,,,1,0,16,14,0,3,3,11,,,,,,,,,1,1.2852693519962486,100,001,2019_Sep_03_1412,MusicAffectPsychophysiology2019,3.0.5,59.917101460635855,
To what extent did the music make you feel ,ANGRY,30MonoWAV/30MonoT3.wav,2,1,4,15,,,,,1,0,16,14,0,4,4,2,,,,,,,,,1,0.6867471299774479,100,001,2019_Sep_03_1412,MusicAffectPsychophysiology2019,3.0.5,59.917101460635855,
To what extent did the music make you feel ,TENDER,30MonoWAV/30MonoT3.wav,2,1,4,15,,,,,1,0,16,14,0,5,5,10,,,,,,,,,3,1.5698230919952039,100,001,2019_Sep_03_1412,MusicAffectPsychophysiology2019,3.0.5,59.917101460635855,
To what extent did the music make you feel ,ANXIOUS ,30MonoWAV/30MonoT3.wav,2,1,4,15,,,,,1,0,16,14,0,6,6,1,,,,,,,,,2,1.5529565859760623,100,001,2019_Sep_03_1412,MusicAffectPsychophysiology2019,3.0.5,59.917101460635855,
To what extent did the music make you feel ,ALERT,30MonoWAV/30MonoT3.wav,2,1,4,15,,,,,1,0,16,14,0,7,7,8,,,,,,,,,3,1.3357573190005496,100,001,2019_Sep_03_1412,MusicAffectPsychophysiology2019,3.0.5,59.917101460635855,
To what extent did the music make you feel ,EXCITED,30MonoWAV/30MonoT3.wav,2,1,4,15,,,,,1,0,16,14,0,8,8,7,,,,,,,,,3,1.7352863629930653,100,001,2019_Sep_03_1412,MusicAffectPsychophysiology2019,3.0.5,59.917101460635855,
To what extent did the music make you feel ,FRUSTRATED,30MonoWAV/30MonoT3.wav,2,1,4,15,,,,,1,0,16,14,0,9,9,3,,,,,,,,,1,0.7526853239978664,100,001,2019_Sep_03_1412,MusicAffectPsychophysiology2019,3.0.5,59.917101460635855,
To what extent did the music make you feel ,HAPPY,30MonoWAV/30MonoT3.wav,2,1,4,15,,,,,1,0,16,14,0,10,10,6,,,,,,,,,3,2.036552233999828,100,001,2019_Sep_03_1412,MusicAffectPsychophysiology2019,3.0.5,59.917101460635855,
To what extent did the music make you feel ,ASHAMED,30MonoWAV/30MonoT3.wav,2,1,4,15,,,,,1,0,16,14,0,11,11,4,,,,,,,,,1,1.501806217012927,100,001,2019_Sep_03_1412,MusicAffectPsychophysiology2019,3.0.5,59.917101460635855,
,,30MonoWAV/30MonoT3.wav,2,1,4,15,,,,,1,0,16,14,,,,,,,,,,,,,,,100,001,2019_Sep_03_1412,MusicAffectPsychophysiology2019,3.0.5,59.917101460635855,
To what extent did the music make you feel ,TENDER,30MonoWAV/30MonoF1.wav,1,2,2,1,,,,,1,1,17,0,0,0,0,10,,,3,3.3196814710099716,3,1.2688270880025811,4,0.8193007200025022,1,3.8455417590157595,100,001,2019_Sep_03_1412,MusicAffectPsychophysiology2019,3.0.5,59.917101460635855,
To what extent did the music make you feel ,SCARED,30MonoWAV/30MonoF1.wav,1,2,2,1,,,,,1,1,17,0,0,1,1,11,,,,,,,,,2,1.5860076700046193,100,001,2019_Sep_03_1412,MusicAffectPsychophysiology2019,3.0.5,59.917101460635855,
To what extent did the music make you feel ,EXCITED,30MonoWAV/30MonoF1.wav,1,2,2,1,,,,,1,1,17,0,0,2,2,7,,,,,,,,,4,1.0359024599893019,100,001,2019_Sep_03_1412,MusicAffectPsychophysiology2019,3.0.5,59.917101460635855,
To what extent did the music make you feel ,ASHAMED,30MonoWAV/30MonoF1.wav,1,2,2,1,,,,,1,1,17,0,0,3,3,4,,,,,,,,,1,0.803232428006595,100,001,2019_Sep_03_1412,MusicAffectPsychophysiology2019,3.0.5,59.917101460635855,
To what extent did the music make you feel ,ANXIOUS ,30MonoWAV/30MonoF1.wav,1,2,2,1,,,,,1,1,17,0,0,4,4,1,,,,,,,,,3,1.429363530012779,100,001,2019_Sep_03_1412,MusicAffectPsychophysiology2019,3.0.5,59.917101460635855,
To what extent did the music make you feel ,SAD,30MonoWAV/30MonoF1.wav,1,2,2,1,,,,,1,1,17,0,0,5,5,0,,,,,,,,,1,1.1196403009817004,100,001,2019_Sep_03_1412,MusicAffectPsychophysiology2019,3.0.5,59.917101460635855,
To what extent did the music make you feel ,ANGRY,30MonoWAV/30MonoF1.wav,1,2,2,1,,,,,1,1,17,0,0,6,6,2,,,,,,,,,1,1.2691107869904954,100,001,2019_Sep_03_1412,MusicAffectPsychophysiology2019,3.0.5,59.917101460635855,
To what extent did the music make you feel ,GUILTY,30MonoWAV/30MonoF1.wav,1,2,2,1,,,,,1,1,17,0,0,7,7,5,,,,,,,,,1,1.886321513011353,100,001,2019_Sep_03_1412,MusicAffectPsychophysiology2019,3.0.5,59.917101460635855,
To what extent did the music make you feel ,HAPPY,30MonoWAV/30MonoF1.wav,1,2,2,1,,,,,1,1,17,0,0,8,8,6,,,,,,,,,2,2.685842896986287,100,001,2019_Sep_03_1412,MusicAffectPsychophysiology2019,3.0.5,59.917101460635855,
To what extent did the music make you feel ,ALERT,30MonoWAV/30MonoF1.wav,1,2,2,1,,,,,1,1,17,0,0,9,9,8,,,,,,,,,3,0.9050135280122049,100,001,2019_Sep_03_1412,MusicAffectPsychophysiology2019,3.0.5,59.917101460635855,
To what extent did the music make you feel ,ACTIVE,30MonoWAV/30MonoF1.wav,1,2,2,1,,,,,1,1,17,0,0,10,10,9,,,,,,,,,4,1.103449621994514,100,001,2019_Sep_03_1412,MusicAffectPsychophysiology2019,3.0.5,59.917101460635855,
To what extent did the music make you feel ,FRUSTRATED,30MonoWAV/30MonoF1.wav,1,2,2,1,,,,,1,1,17,0,0,11,11,3,,,,,,,,,1,1.018312000989681,100,001,2019_Sep_03_1412,MusicAffectPsychophysiology2019,3.0.5,59.917101460635855,
,,30MonoWAV/30MonoF1.wav,1,2,2,1,,,,,1,1,17,0,,,,,,,,,,,,,,,100,001,2019_Sep_03_1412,MusicAffectPsychophysiology2019,3.0.5,59.917101460635855,
To what extent did the music make you feel ,ANGRY,30MonoWAV/30MonoH4.wav,2,2,1,8,,,,,1,2,18,7,0,0,0,2,,,4,2.868435429991223,4,1.2360731860098895,4,0.8343271730118431,1,2.3397460949781816,100,001,2019_Sep_03_1412,MusicAffectPsychophysiology2019,3.0.5,59.917101460635855,
To what extent did the music make you feel ,ACTIVE,30MonoWAV/30MonoH4.wav,2,2,1,8,,,,,1,2,18,7,0,1,1,9,,,,,,,,,4,1.0869526830210816,100,001,2019_Sep_03_1412,MusicAffectPsychophysiology2019,3.0.5,59.917101460635855,
To what extent did the music make you feel ,HAPPY,30MonoWAV/30MonoH4.wav,2,2,1,8,,,,,1,2,18,7,0,2,2,6,,,,,,,,,3,0.7361900279938709,100,001,2019_Sep_03_1412,MusicAffectPsychophysiology2019,3.0.5,59.917101460635855,
To what extent did the music make you feel ,SCARED,30MonoWAV/30MonoH4.wav,2,2,1,8,,,,,1,2,18,7,0,3,3,11,,,,,,,,,1,0.8892682940058876,100,001,2019_Sep_03_1412,MusicAffectPsychophysiology2019,3.0.5,59.917101460635855,
To what extent did the music make you feel ,ANXIOUS ,30MonoWAV/30MonoH4.wav,2,2,1,8,,,,,1,2,18,7,0,4,4,1,,,,,,,,,1,2.116834207001375,100,001,2019_Sep_03_1412,MusicAffectPsychophysiology2019,3.0.5,59.917101460635855,
To what extent did the music make you feel ,ASHAMED,30MonoWAV/30MonoH4.wav,2,2,1,8,,,,,1,2,18,7,0,5,5,4,,,,,,,,,1,0.6870410679839551,100,001,2019_Sep_03_1412,MusicAffectPsychophysiology2019,3.0.5,59.917101460635855,
To what extent did the music make you feel ,TENDER,30MonoWAV/30MonoH4.wav,2,2,1,8,,,,,1,2,18,7,0,6,6,10,,,,,,,,,1,0.9530517020029947,100,001,2019_Sep_03_1412,MusicAffectPsychophysiology2019,3.0.5,59.917101460635855,
To what extent did the music make you feel ,ALERT,30MonoWAV/30MonoH4.wav,2,2,1,8,,,,,1,2,18,7,0,7,7,8,,,,,,,,,4,0.969860979996156,100,001,2019_Sep_03_1412,MusicAffectPsychophysiology2019,3.0.5,59.917101460635855,
To what extent did the music make you feel ,FRUSTRATED,30MonoWAV/30MonoH4.wav,2,2,1,8,,,,,1,2,18,7,0,8,8,3,,,,,,,,,1,0.8517575399891939,100,001,2019_Sep_03_1412,MusicAffectPsychophysiology2019,3.0.5,59.917101460635855,
To what extent did the music make you feel ,GUILTY,30MonoWAV/30MonoH4.wav,2,2,1,8,,,,,1,2,18,7,0,9,9,5,,,,,,,,,2,0.9684356149809901,100,001,2019_Sep_03_1412,MusicAffectPsychophysiology2019,3.0.5,59.917101460635855,
To what extent did the music make you feel ,SAD,30MonoWAV/30MonoH4.wav,2,2,1,8,,,,,1,2,18,7,0,10,10,0,,,,,,,,,1,1.2831145109958015,100,001,2019_Sep_03_1412,MusicAffectPsychophysiology2019,3.0.5,59.917101460635855,
To what extent did the music make you feel ,EXCITED,30MonoWAV/30MonoH4.wav,2,2,1,8,,,,,1,2,18,7,0,11,11,7,,,,,,,,,4,2.4855851480097044,100,001,2019_Sep_03_1412,MusicAffectPsychophysiology2019,3.0.5,59.917101460635855,
,,30MonoWAV/30MonoH4.wav,2,2,1,8,,,,,1,2,18,7,,,,,,,,,,,,,,,100,001,2019_Sep_03_1412,MusicAffectPsychophysiology2019,3.0.5,59.917101460635855,
To what extent did the music make you feel ,ANGRY,30MonoWAV/30MonoF2.wav,1,2,2,2,,,,,1,3,19,1,0,0,0,2,,,2,3.9186580649984535,1,2.717991700017592,1,2.7859196630015504,2,2.898895883001387,100,001,2019_Sep_03_1412,MusicAffectPsychophysiology2019,3.0.5,59.917101460635855,
To what extent did the music make you feel ,ALERT,30MonoWAV/30MonoF2.wav,1,2,2,2,,,,,1,3,19,1,0,1,1,8,,,,,,,,,1,0.9021766740188468,100,001,2019_Sep_03_1412,MusicAffectPsychophysiology2019,3.0.5,59.917101460635855,
To what extent did the music make you feel ,EXCITED,30MonoWAV/30MonoF2.wav,1,2,2,2,,,,,1,3,19,1,0,2,2,7,,,,,,,,,1,2.369359258998884,100,001,2019_Sep_03_1412,MusicAffectPsychophysiology2019,3.0.5,59.917101460635855,
To what extent did the music make you feel ,SCARED,30MonoWAV/30MonoF2.wav,1,2,2,2,,,,,1,3,19,1,0,3,3,11,,,,,,,,,2,2.7863135400111787,100,001,2019_Sep_03_1412,MusicAffectPsychophysiology2019,3.0.5,59.917101460635855,
To what extent did the music make you feel ,ANXIOUS ,30MonoWAV/30MonoF2.wav,1,2,2,2,,,,,1,3,19,1,0,4,4,1,,,,,,,,,2,1.9011041140183806,100,001,2019_Sep_03_1412,MusicAffectPsychophysiology2019,3.0.5,59.917101460635855,
To what extent did the music make you feel ,ACTIVE,30MonoWAV/30MonoF2.wav,1,2,2,2,,,,,1,3,19,1,0,5,5,9,,,,,,,,,3,1.9362731659784913,100,001,2019_Sep_03_1412,MusicAffectPsychophysiology2019,3.0.5,59.917101460635855,
To what extent did the music make you feel ,FRUSTRATED,30MonoWAV/30MonoF2.wav,1,2,2,2,,,,,1,3,19,1,0,6,6,3,,,,,,,,,1,2.763434894004604,100,001,2019_Sep_03_1412,MusicAffectPsychophysiology2019,3.0.5,59.917101460635855,
To what extent did the music make you feel ,ASHAMED,30MonoWAV/30MonoF2.wav,1,2,2,2,,,,,1,3,19,1,0,7,7,4,,,,,,,,,1,2.5866249020036776,100,001,2019_Sep_03_1412,MusicAffectPsychophysiology2019,3.0.5,59.917101460635855,
To what extent did the music make you feel ,TENDER,30MonoWAV/30MonoF2.wav,1,2,2,2,,,,,1,3,19,1,0,8,8,10,,,,,,,,,1,0.9689082030090503,100,001,2019_Sep_03_1412,MusicAffectPsychophysiology2019,3.0.5,59.917101460635855,
To what extent did the music make you feel ,GUILTY,30MonoWAV/30MonoF2.wav,1,2,2,2,,,,,1,3,19,1,0,9,9,5,,,,,,,,,1,0.8870719219848979,100,001,2019_Sep_03_1412,MusicAffectPsychophysiology2019,3.0.5,59.917101460635855,
To what extent did the music make you feel ,HAPPY,30MonoWAV/30MonoF2.wav,1,2,2,2,,,,,1,3,19,1,0,10,10,6,,,,,,,,,1,1.235783880983945,100,001,2019_Sep_03_1412,MusicAffectPsychophysiology2019,3.0.5,59.917101460635855,
To what extent did the music make you feel ,SAD,30MonoWAV/30MonoF2.wav,1,2,2,2,,,,,1,3,19,1,0,11,11,0,,,,,,,,,1,3.566521467990242,100,001,2019_Sep_03_1412,MusicAffectPsychophysiology2019,3.0.5,59.917101460635855,
,,30MonoWAV/30MonoF2.wav,1,2,2,2,,,,,1,3,19,1,,,,,,,,,,,,,,,100,001,2019_Sep_03_1412,MusicAffectPsychophysiology2019,3.0.5,59.917101460635855,
To what extent did the music make you feel ,FRUSTRATED,30MonoWAV/30MonoS4.wav,1,1,3,12,,,,,1,4,20,11,0,0,0,3,,,3,7.535735790006584,3,1.5507049809966702,4,1.8690685209876392,1,2.3564035019953735,100,001,2019_Sep_03_1412,MusicAffectPsychophysiology2019,3.0.5,59.917101460635855,
To what extent did the music make you feel ,SCARED,30MonoWAV/30MonoS4.wav,1,1,3,12,,,,,1,4,20,11,0,1,1,11,,,,,,,,,1,1.0699701650009956,100,001,2019_Sep_03_1412,MusicAffectPsychophysiology2019,3.0.5,59.917101460635855,
To what extent did the music make you feel ,ACTIVE,30MonoWAV/30MonoS4.wav,1,1,3,12,,,,,1,4,20,11,0,2,2,9,,,,,,,,,2,0.9035219679935835,100,001,2019_Sep_03_1412,MusicAffectPsychophysiology2019,3.0.5,59.917101460635855,
To what extent did the music make you feel ,ALERT,30MonoWAV/30MonoS4.wav,1,1,3,12,,,,,1,4,20,11,0,3,3,8,,,,,,,,,2,1.1198015980189666,100,001,2019_Sep_03_1412,MusicAffectPsychophysiology2019,3.0.5,59.917101460635855,
To what extent did the music make you feel ,ANXIOUS ,30MonoWAV/30MonoS4.wav,1,1,3,12,,,,,1,4,20,11,0,4,4,1,,,,,,,,,3,2.000372843001969,100,001,2019_Sep_03_1412,MusicAffectPsychophysiology2019,3.0.5,59.917101460635855,
To what extent did the music make you feel ,SAD,30MonoWAV/30MonoS4.wav,1,1,3,12,,,,,1,4,20,11,0,5,5,0,,,,,,,,,4,1.0034104670048691,100,001,2019_Sep_03_1412,MusicAffectPsychophysiology2019,3.0.5,59.917101460635855,
To what extent did the music make you feel ,HAPPY,30MonoWAV/30MonoS4.wav,1,1,3,12,,,,,1,4,20,11,0,6,6,6,,,,,,,,,1,1.051249270007247,100,001,2019_Sep_03_1412,MusicAffectPsychophysiology2019,3.0.5,59.917101460635855,
To what extent did the music make you feel ,EXCITED,30MonoWAV/30MonoS4.wav,1,1,3,12,,,,,1,4,20,11,0,7,7,7,,,,,,,,,1,2.4535518889897503,100,001,2019_Sep_03_1412,MusicAffectPsychophysiology2019,3.0.5,59.917101460635855,
To what extent did the music make you feel ,ANGRY,30MonoWAV/30MonoS4.wav,1,1,3,12,,,,,1,4,20,11,0,8,8,2,,,,,,,,,1,2.7520502919796854,100,001,2019_Sep_03_1412,MusicAffectPsychophysiology2019,3.0.5,59.917101460635855,
To what extent did the music make you feel ,ASHAMED,30MonoWAV/30MonoS4.wav,1,1,3,12,,,,,1,4,20,11,0,9,9,4,,,,,,,,,1,0.8998743609990925,100,001,2019_Sep_03_1412,MusicAffectPsychophysiology2019,3.0.5,59.917101460635855,
To what extent did the music make you feel ,TENDER,30MonoWAV/30MonoS4.wav,1,1,3,12,,,,,1,4,20,11,0,10,10,10,,,,,,,,,3,2.6861022539960686,100,001,2019_Sep_03_1412,MusicAffectPsychophysiology2019,3.0.5,59.917101460635855,
To what extent did the music make you feel ,GUILTY,30MonoWAV/30MonoS4.wav,1,1,3,12,,,,,1,4,20,11,0,11,11,5,,,,,,,,,1,5.085340292018373,100,001,2019_Sep_03_1412,MusicAffectPsychophysiology2019,3.0.5,59.917101460635855,
,,30MonoWAV/30MonoS4.wav,1,1,3,12,,,,,1,4,20,11,,,,,,,,,,,,,,,100,001,2019_Sep_03_1412,MusicAffectPsychophysiology2019,3.0.5,59.917101460635855,
To what extent did the music make you feel ,GUILTY,30MonoWAV/30MonoS1.wav,1,1,3,9,,,,,1,5,21,8,0,0,0,5,,,2,3.352345024002716,3,2.4374419800005853,4,1.2024628089857288,2,9.952379669004586,100,001,2019_Sep_03_1412,MusicAffectPsychophysiology2019,3.0.5,59.917101460635855,
To what extent did the music make you feel ,TENDER,30MonoWAV/30MonoS1.wav,1,1,3,9,,,,,1,5,21,8,0,1,1,10,,,,,,,,,4,2.1537719650077634,100,001,2019_Sep_03_1412,MusicAffectPsychophysiology2019,3.0.5,59.917101460635855,
To what extent did the music make you feel ,HAPPY,30MonoWAV/30MonoS1.wav,1,1,3,9,,,,,1,5,21,8,0,2,2,6,,,,,,,,,1,1.4356589899980463,100,001,2019_Sep_03_1412,MusicAffectPsychophysiology2019,3.0.5,59.917101460635855,
To what extent did the music make you feel ,ALERT,30MonoWAV/30MonoS1.wav,1,1,3,9,,,,,1,5,21,8,0,3,3,8,,,,,,,,,1,3.370107059017755,100,001,2019_Sep_03_1412,MusicAffectPsychophysiology2019,3.0.5,59.917101460635855,
To what extent did the music make you feel ,EXCITED,30MonoWAV/30MonoS1.wav,1,1,3,9,,,,,1,5,21,8,0,4,4,7,,,,,,,,,1,6.752571513003204,100,001,2019_Sep_03_1412,MusicAffectPsychophysiology2019,3.0.5,59.917101460635855,
To what extent did the music make you feel ,SCARED,30MonoWAV/30MonoS1.wav,1,1,3,9,,,,,1,5,21,8,0,5,5,11,,,,,,,,,3,2.4181822779937647,100,001,2019_Sep_03_1412,MusicAffectPsychophysiology2019,3.0.5,59.917101460635855,
To what extent did the music make you feel ,ANXIOUS ,30MonoWAV/30MonoS1.wav,1,1,3,9,,,,,1,5,21,8,0,6,6,1,,,,,,,,,4,1.402427570981672,100,001,2019_Sep_03_1412,MusicAffectPsychophysiology2019,3.0.5,59.917101460635855,
To what extent did the music make you feel ,FRUSTRATED,30MonoWAV/30MonoS1.wav,1,1,3,9,,,,,1,5,21,8,0,7,7,3,,,,,,,,,1,1.220515257009538,100,001,2019_Sep_03_1412,MusicAffectPsychophysiology2019,3.0.5,59.917101460635855,
To what extent did the music make you feel ,ASHAMED,30MonoWAV/30MonoS1.wav,1,1,3,9,,,,,1,5,21,8,0,8,8,4,,,,,,,,,1,2.2850542329833843,100,001,2019_Sep_03_1412,MusicAffectPsychophysiology2019,3.0.5,59.917101460635855,
To what extent did the music make you feel ,ANGRY,30MonoWAV/30MonoS1.wav,1,1,3,9,,,,,1,5,21,8,0,9,9,2,,,,,,,,,1,3.799660421005683,100,001,2019_Sep_03_1412,MusicAffectPsychophysiology2019,3.0.5,59.917101460635855,
To what extent did the music make you feel ,ACTIVE,30MonoWAV/30MonoS1.wav,1,1,3,9,,,,,1,5,21,8,0,10,10,9,,,,,,,,,2,1.4361099100206047,100,001,2019_Sep_03_1412,MusicAffectPsychophysiology2019,3.0.5,59.917101460635855,
To what extent did the music make you feel ,SAD,30MonoWAV/30MonoS1.wav,1,1,3,9,,,,,1,5,21,8,0,11,11,0,,,,,,,,,4,1.2691577470104676,100,001,2019_Sep_03_1412,MusicAffectPsychophysiology2019,3.0.5,59.917101460635855,
,,30MonoWAV/30MonoS1.wav,1,1,3,9,,,,,1,5,21,8,,,,,,,,,,,,,,,100,001,2019_Sep_03_1412,MusicAffectPsychophysiology2019,3.0.5,59.917101460635855,
To what extent did the music make you feel ,SAD,30MonoWAV/30MonoF4.wav,1,2,2,4,,,,,1,6,22,3,0,0,0,0,,,3,6.018170022987761,3,1.6862842410046142,4,1.6670681090035941,1,2.5664412589976564,100,001,2019_Sep_03_1412,MusicAffectPsychophysiology2019,3.0.5,59.917101460635855,
To what extent did the music make you feel ,ANGRY,30MonoWAV/30MonoF4.wav,1,2,2,4,,,,,1,6,22,3,0,1,1,2,,,,,,,,,1,0.9363177309860475,100,001,2019_Sep_03_1412,MusicAffectPsychophysiology2019,3.0.5,59.917101460635855,
To what extent did the music make you feel ,HAPPY,30MonoWAV/30MonoF4.wav,1,2,2,4,,,,,1,6,22,3,0,2,2,6,,,,,,,,,3,2.1369375349895563,100,001,2019_Sep_03_1412,MusicAffectPsychophysiology2019,3.0.5,59.917101460635855,
To what extent did the music make you feel ,ANXIOUS ,30MonoWAV/30MonoF4.wav,1,2,2,4,,,,,1,6,22,3,0,3,3,1,,,,,,,,,3,2.1529986500099767,100,001,2019_Sep_03_1412,MusicAffectPsychophysiology2019,3.0.5,59.917101460635855,
To what extent did the music make you feel ,SCARED,30MonoWAV/30MonoF4.wav,1,2,2,4,,,,,1,6,22,3,0,4,4,11,,,,,,,,,2,1.0526451629993971,100,001,2019_Sep_03_1412,MusicAffectPsychophysiology2019,3.0.5,59.917101460635855,
To what extent did the music make you feel ,GUILTY,30MonoWAV/30MonoF4.wav,1,2,2,4,,,,,1,6,22,3,0,5,5,5,,,,,,,,,1,0.9218626029905863,100,001,2019_Sep_03_1412,MusicAffectPsychophysiology2019,3.0.5,59.917101460635855,
To what extent did the music make you feel ,ASHAMED,30MonoWAV/30MonoF4.wav,1,2,2,4,,,,,1,6,22,3,0,6,6,4,,,,,,,,,1,1.1374886350240558,100,001,2019_Sep_03_1412,MusicAffectPsychophysiology2019,3.0.5,59.917101460635855,
To what extent did the music make you feel ,TENDER,30MonoWAV/30MonoF4.wav,1,2,2,4,,,,,1,6,22,3,0,7,7,10,,,,,,,,,1,0.8355165659741033,100,001,2019_Sep_03_1412,MusicAffectPsychophysiology2019,3.0.5,59.917101460635855,
To what extent did the music make you feel ,ACTIVE,30MonoWAV/30MonoF4.wav,1,2,2,4,,,,,1,6,22,3,0,8,8,9,,,,,,,,,4,1.086127515998669,100,001,2019_Sep_03_1412,MusicAffectPsychophysiology2019,3.0.5,59.917101460635855,
To what extent did the music make you feel ,EXCITED,30MonoWAV/30MonoF4.wav,1,2,2,4,,,,,1,6,22,3,0,9,9,7,,,,,,,,,3,1.53595789798419,100,001,2019_Sep_03_1412,MusicAffectPsychophysiology2019,3.0.5,59.917101460635855,
To what extent did the music make you feel ,ALERT,30MonoWAV/30MonoF4.wav,1,2,2,4,,,,,1,6,22,3,0,10,10,8,,,,,,,,,4,0.7869734929990955,100,001,2019_Sep_03_1412,MusicAffectPsychophysiology2019,3.0.5,59.917101460635855,
To what extent did the music make you feel ,FRUSTRATED,30MonoWAV/30MonoF4.wav,1,2,2,4,,,,,1,6,22,3,0,11,11,3,,,,,,,,,1,1.2898532940016594,100,001,2019_Sep_03_1412,MusicAffectPsychophysiology2019,3.0.5,59.917101460635855,
,,30MonoWAV/30MonoF4.wav,1,2,2,4,,,,,1,6,22,3,,,,,,,,,,,,,,,100,001,2019_Sep_03_1412,MusicAffectPsychophysiology2019,3.0.5,59.917101460635855,
To what extent did the music make you feel ,SAD,30MonoWAV/30MonoT4.wav,2,1,4,16,,,,,1,7,23,15,0,0,0,0,,,2,3.7519413150148466,3,2.4021251350059174,3,0.7525775599933695,4,2.000336093013175,100,001,2019_Sep_03_1412,MusicAffectPsychophysiology2019,3.0.5,59.917101460635855,
To what extent did the music make you feel ,ANXIOUS ,30MonoWAV/30MonoT4.wav,2,1,4,16,,,,,1,7,23,15,0,1,1,1,,,,,,,,,3,1.1332563380128704,100,001,2019_Sep_03_1412,MusicAffectPsychophysiology2019,3.0.5,59.917101460635855,
To what extent did the music make you feel ,ACTIVE,30MonoWAV/30MonoT4.wav,2,1,4,16,,,,,1,7,23,15,0,2,2,9,,,,,,,,,1,1.2848544260195922,100,001,2019_Sep_03_1412,MusicAffectPsychophysiology2019,3.0.5,59.917101460635855,
To what extent did the music make you feel ,ALERT,30MonoWAV/30MonoT4.wav,2,1,4,16,,,,,1,7,23,15,0,3,3,8,,,,,,,,,1,0.9524946350138634,100,001,2019_Sep_03_1412,MusicAffectPsychophysiology2019,3.0.5,59.917101460635855,
To what extent did the music make you feel ,EXCITED,30MonoWAV/30MonoT4.wav,2,1,4,16,,,,,1,7,23,15,0,4,4,7,,,,,,,,,1,0.9699983299942687,100,001,2019_Sep_03_1412,MusicAffectPsychophysiology2019,3.0.5,59.917101460635855,
To what extent did the music make you feel ,ANGRY,30MonoWAV/30MonoT4.wav,2,1,4,16,,,,,1,7,23,15,0,5,5,2,,,,,,,,,1,0.9521569439966697,100,001,2019_Sep_03_1412,MusicAffectPsychophysiology2019,3.0.5,59.917101460635855,
To what extent did the music make you feel ,GUILTY,30MonoWAV/30MonoT4.wav,2,1,4,16,,,,,1,7,23,15,0,6,6,5,,,,,,,,,1,5.702178880019346,100,001,2019_Sep_03_1412,MusicAffectPsychophysiology2019,3.0.5,59.917101460635855,
To what extent did the music make you feel ,TENDER,30MonoWAV/30MonoT4.wav,2,1,4,16,,,,,1,7,23,15,0,7,7,10,,,,,,,,,4,1.385393289005151,100,001,2019_Sep_03_1412,MusicAffectPsychophysiology2019,3.0.5,59.917101460635855,
To what extent did the music make you feel ,FRUSTRATED,30MonoWAV/30MonoT4.wav,2,1,4,16,,,,,1,7,23,15,0,8,8,3,,,,,,,,,1,1.1534178930160124,100,001,2019_Sep_03_1412,MusicAffectPsychophysiology2019,3.0.5,59.917101460635855,
To what extent did the music make you feel ,ASHAMED,30MonoWAV/30MonoT4.wav,2,1,4,16,,,,,1,7,23,15,0,9,9,4,,,,,,,,,1,2.1029635480081197,100,001,2019_Sep_03_1412,MusicAffectPsychophysiology2019,3.0.5,59.917101460635855,
To what extent did the music make you feel ,SCARED,30MonoWAV/30MonoT4.wav,2,1,4,16,,,,,1,7,23,15,0,10,10,11,,,,,,,,,1,3.552017206995515,100,001,2019_Sep_03_1412,MusicAffectPsychophysiology2019,3.0.5,59.917101460635855,
To what extent did the music make you feel ,HAPPY,30MonoWAV/30MonoT4.wav,2,1,4,16,,,,,1,7,23,15,0,11,11,6,,,,,,,,,2,1.5701428549946286,100,001,2019_Sep_03_1412,MusicAffectPsychophysiology2019,3.0.5,59.917101460635855,
,,30MonoWAV/30MonoT4.wav,2,1,4,16,,,,,1,7,23,15,,,,,,,,,,,,,,,100,001,2019_Sep_03_1412,MusicAffectPsychophysiology2019,3.0.5,59.917101460635855,
To what extent did the music make you feel ,SCARED,30MonoWAV/30MonoS2.wav,1,1,3,10,,,,,1,8,24,9,0,0,0,11,,,3,6.084509311011061,3,2.1860571569995955,3,2.0028779470012523,2,1.8404176319891121,100,001,2019_Sep_03_1412,MusicAffectPsychophysiology2019,3.0.5,59.917101460635855,
To what extent did the music make you feel ,ASHAMED,30MonoWAV/30MonoS2.wav,1,1,3,10,,,,,1,8,24,9,0,1,1,4,,,,,,,,,1,0.7366601540124975,100,001,2019_Sep_03_1412,MusicAffectPsychophysiology2019,3.0.5,59.917101460635855,
To what extent did the music make you feel ,TENDER,30MonoWAV/30MonoS2.wav,1,1,3,10,,,,,1,8,24,9,0,2,2,10,,,,,,,,,3,1.1195881509920582,100,001,2019_Sep_03_1412,MusicAffectPsychophysiology2019,3.0.5,59.917101460635855,
To what extent did the music make you feel ,ANGRY,30MonoWAV/30MonoS2.wav,1,1,3,10,,,,,1,8,24,9,0,3,3,2,,,,,,,,,1,0.7362693469913211,100,001,2019_Sep_03_1412,MusicAffectPsychophysiology2019,3.0.5,59.917101460635855,
To what extent did the music make you feel ,SAD,30MonoWAV/30MonoS2.wav,1,1,3,10,,,,,1,8,24,9,0,4,4,0,,,,,,,,,4,0.7506577280000784,100,001,2019_Sep_03_1412,MusicAffectPsychophysiology2019,3.0.5,59.917101460635855,
To what extent did the music make you feel ,GUILTY,30MonoWAV/30MonoS2.wav,1,1,3,10,,,,,1,8,24,9,0,5,5,5,,,,,,,,,2,2.801600384991616,100,001,2019_Sep_03_1412,MusicAffectPsychophysiology2019,3.0.5,59.917101460635855,
To what extent did the music make you feel ,ANXIOUS ,30MonoWAV/30MonoS2.wav,1,1,3,10,,,,,1,8,24,9,0,6,6,1,,,,,,,,,3,0.9031533240049612,100,001,2019_Sep_03_1412,MusicAffectPsychophysiology2019,3.0.5,59.917101460635855,
To what extent did the music make you feel ,FRUSTRATED,30MonoWAV/30MonoS2.wav,1,1,3,10,,,,,1,8,24,9,0,7,7,3,,,,,,,,,1,4.157886384986341,100,001,2019_Sep_03_1412,MusicAffectPsychophysiology2019,3.0.5,59.917101460635855,
To what extent did the music make you feel ,HAPPY,30MonoWAV/30MonoS2.wav,1,1,3,10,,,,,1,8,24,9,0,8,8,6,,,,,,,,,1,0.9851098390063271,100,001,2019_Sep_03_1412,MusicAffectPsychophysiology2019,3.0.5,59.917101460635855,
To what extent did the music make you feel ,ALERT,30MonoWAV/30MonoS2.wav,1,1,3,10,,,,,1,8,24,9,0,9,9,8,,,,,,,,,1,0.8033996489830315,100,001,2019_Sep_03_1412,MusicAffectPsychophysiology2019,3.0.5,59.917101460635855,
To what extent did the music make you feel ,ACTIVE,30MonoWAV/30MonoS2.wav,1,1,3,10,,,,,1,8,24,9,0,10,10,9,,,,,,,,,1,0.4863235969969537,100,001,2019_Sep_03_1412,MusicAffectPsychophysiology2019,3.0.5,59.917101460635855,
To what extent did the music make you feel ,EXCITED,30MonoWAV/30MonoS2.wav,1,1,3,10,,,,,1,8,24,9,0,11,11,7,,,,,,,,,1,0.5519146890146658,100,001,2019_Sep_03_1412,MusicAffectPsychophysiology2019,3.0.5,59.917101460635855,
,,30MonoWAV/30MonoS2.wav,1,1,3,10,,,,,1,8,24,9,,,,,,,,,,,,,,,100,001,2019_Sep_03_1412,MusicAffectPsychophysiology2019,3.0.5,59.917101460635855,
To what extent did the music make you feel ,ANXIOUS ,30MonoWAV/30MonoH2.wav,2,2,1,6,,,,,1,9,25,5,0,0,0,1,,,3,3.469129189994419,3,1.1022297570016235,4,0.9168926970160101,1,1.5024976569984574,100,001,2019_Sep_03_1412,MusicAffectPsychophysiology2019,3.0.5,59.917101460635855,
To what extent did the music make you feel ,ALERT,30MonoWAV/30MonoH2.wav,2,2,1,6,,,,,1,9,25,5,0,1,1,8,,,,,,,,,4,1.3021320390107576,100,001,2019_Sep_03_1412,MusicAffectPsychophysiology2019,3.0.5,59.917101460635855,
To what extent did the music make you feel ,ANGRY,30MonoWAV/30MonoH2.wav,2,2,1,6,,,,,1,9,25,5,0,2,2,2,,,,,,,,,1,1.0855284089921042,100,001,2019_Sep_03_1412,MusicAffectPsychophysiology2019,3.0.5,59.917101460635855,
To what extent did the music make you feel ,FRUSTRATED,30MonoWAV/30MonoH2.wav,2,2,1,6,,,,,1,9,25,5,0,3,3,3,,,,,,,,,1,0.7021961220016237,100,001,2019_Sep_03_1412,MusicAffectPsychophysiology2019,3.0.5,59.917101460635855,
To what extent did the music make you feel ,SCARED,30MonoWAV/30MonoH2.wav,2,2,1,6,,,,,1,9,25,5,0,4,4,11,,,,,,,,,1,1.1528550570074003,100,001,2019_Sep_03_1412,MusicAffectPsychophysiology2019,3.0.5,59.917101460635855,
To what extent did the music make you feel ,HAPPY,30MonoWAV/30MonoH2.wav,2,2,1,6,,,,,1,9,25,5,0,5,5,6,,,,,,,,,3,0.902547466015676,100,001,2019_Sep_03_1412,MusicAffectPsychophysiology2019,3.0.5,59.917101460635855,
To what extent did the music make you feel ,EXCITED,30MonoWAV/30MonoH2.wav,2,2,1,6,,,,,1,9,25,5,0,6,6,7,,,,,,,,,4,1.0698042349831667,100,001,2019_Sep_03_1412,MusicAffectPsychophysiology2019,3.0.5,59.917101460635855,
To what extent did the music make you feel ,SAD,30MonoWAV/30MonoH2.wav,2,2,1,6,,,,,1,9,25,5,0,7,7,0,,,,,,,,,1,0.8528955320070963,100,001,2019_Sep_03_1412,MusicAffectPsychophysiology2019,3.0.5,59.917101460635855,
To what extent did the music make you feel ,TENDER,30MonoWAV/30MonoH2.wav,2,2,1,6,,,,,1,9,25,5,0,8,8,10,,,,,,,,,1,1.0706525510177016,100,001,2019_Sep_03_1412,MusicAffectPsychophysiology2019,3.0.5,59.917101460635855,
To what extent did the music make you feel ,GUILTY,30MonoWAV/30MonoH2.wav,2,2,1,6,,,,,1,9,25,5,0,9,9,5,,,,,,,,,1,0.7694986720161978,100,001,2019_Sep_03_1412,MusicAffectPsychophysiology2019,3.0.5,59.917101460635855,
To what extent did the music make you feel ,ASHAMED,30MonoWAV/30MonoH2.wav,2,2,1,6,,,,,1,9,25,5,0,10,10,4,,,,,,,,,1,0.6197415519854985,100,001,2019_Sep_03_1412,MusicAffectPsychophysiology2019,3.0.5,59.917101460635855,
To what extent did the music make you feel ,ACTIVE,30MonoWAV/30MonoH2.wav,2,2,1,6,,,,,1,9,25,5,0,11,11,9,,,,,,,,,3,1.3689369529893156,100,001,2019_Sep_03_1412,MusicAffectPsychophysiology2019,3.0.5,59.917101460635855,
,,30MonoWAV/30MonoH2.wav,2,2,1,6,,,,,1,9,25,5,,,,,,,,,,,,,,,100,001,2019_Sep_03_1412,MusicAffectPsychophysiology2019,3.0.5,59.917101460635855,
To what extent did the music make you feel ,EXCITED,30MonoWAV/30MonoF3.wav,1,2,2,3,,,,,1,10,26,2,0,0,0,7,,,3,4.549575160985114,3,1.418717122025555,4,1.9348661289841402,3,1.9783349570061546,100,001,2019_Sep_03_1412,MusicAffectPsychophysiology2019,3.0.5,59.917101460635855,
To what extent did the music make you feel ,TENDER,30MonoWAV/30MonoF3.wav,1,2,2,3,,,,,1,10,26,2,0,1,1,10,,,,,,,,,1,1.3191408090060577,100,001,2019_Sep_03_1412,MusicAffectPsychophysiology2019,3.0.5,59.917101460635855,
To what extent did the music make you feel ,ASHAMED,30MonoWAV/30MonoF3.wav,1,2,2,3,,,,,1,10,26,2,0,2,2,4,,,,,,,,,1,1.85145092397579,100,001,2019_Sep_03_1412,MusicAffectPsychophysiology2019,3.0.5,59.917101460635855,
To what extent did the music make you feel ,FRUSTRATED,30MonoWAV/30MonoF3.wav,1,2,2,3,,,,,1,10,26,2,0,3,3,3,,,,,,,,,1,0.8253350189770572,100,001,2019_Sep_03_1412,MusicAffectPsychophysiology2019,3.0.5,59.917101460635855,
To what extent did the music make you feel ,ANXIOUS ,30MonoWAV/30MonoF3.wav,1,2,2,3,,,,,1,10,26,2,0,4,4,1,,,,,,,,,3,2.3695466769859195,100,001,2019_Sep_03_1412,MusicAffectPsychophysiology2019,3.0.5,59.917101460635855,
To what extent did the music make you feel ,ALERT,30MonoWAV/30MonoF3.wav,1,2,2,3,,,,,1,10,26,2,0,5,5,8,,,,,,,,,3,1.2349585769989062,100,001,2019_Sep_03_1412,MusicAffectPsychophysiology2019,3.0.5,59.917101460635855,
To what extent did the music make you feel ,GUILTY,30MonoWAV/30MonoF3.wav,1,2,2,3,,,,,1,10,26,2,0,6,6,5,,,,,,,,,1,1.0532852319884114,100,001,2019_Sep_03_1412,MusicAffectPsychophysiology2019,3.0.5,59.917101460635855,
To what extent did the music make you feel ,SCARED,30MonoWAV/30MonoF3.wav,1,2,2,3,,,,,1,10,26,2,0,7,7,11,,,,,,,,,3,2.0860081279824954,100,001,2019_Sep_03_1412,MusicAffectPsychophysiology2019,3.0.5,59.917101460635855,
To what extent did the music make you feel ,ACTIVE,30MonoWAV/30MonoF3.wav,1,2,2,3,,,,,1,10,26,2,0,8,8,9,,,,,,,,,4,2.68590856299852,100,001,2019_Sep_03_1412,MusicAffectPsychophysiology2019,3.0.5,59.917101460635855,
To what extent did the music make you feel ,HAPPY,30MonoWAV/30MonoF3.wav,1,2,2,3,,,,,1,10,26,2,0,9,9,6,,,,,,,,,1,3.002064280997729,100,001,2019_Sep_03_1412,MusicAffectPsychophysiology2019,3.0.5,59.917101460635855,
To what extent did the music make you feel ,ANGRY,30MonoWAV/30MonoF3.wav,1,2,2,3,,,,,1,10,26,2,0,10,10,2,,,,,,,,,1,0.785907286015572,100,001,2019_Sep_03_1412,MusicAffectPsychophysiology2019,3.0.5,59.917101460635855,
To what extent did the music make you feel ,SAD,30MonoWAV/30MonoF3.wav,1,2,2,3,,,,,1,10,26,2,0,11,11,0,,,,,,,,,1,0.9008926590031479,100,001,2019_Sep_03_1412,MusicAffectPsychophysiology2019,3.0.5,59.917101460635855,
,,30MonoWAV/30MonoF3.wav,1,2,2,3,,,,,1,10,26,2,,,,,,,,,,,,,,,100,001,2019_Sep_03_1412,MusicAffectPsychophysiology2019,3.0.5,59.917101460635855,
To what extent did the music make you feel ,TENDER,30MonoWAV/30MonoS3.wav,1,1,3,11,,,,,1,11,27,10,0,0,0,10,,,2,3.8683966969838366,2,0.5522337550064549,3,1.8363923209835775,2,2.6357599979965016,100,001,2019_Sep_03_1412,MusicAffectPsychophysiology2019,3.0.5,59.917101460635855,
To what extent did the music make you feel ,ASHAMED,30MonoWAV/30MonoS3.wav,1,1,3,11,,,,,1,11,27,10,0,1,1,4,,,,,,,,,2,1.4852438759990036,100,001,2019_Sep_03_1412,MusicAffectPsychophysiology2019,3.0.5,59.917101460635855,
To what extent did the music make you feel ,ALERT,30MonoWAV/30MonoS3.wav,1,1,3,11,,,,,1,11,27,10,0,2,2,8,,,,,,,,,3,1.5694008319987915,100,001,2019_Sep_03_1412,MusicAffectPsychophysiology2019,3.0.5,59.917101460635855,
To what extent did the music make you feel ,SCARED,30MonoWAV/30MonoS3.wav,1,1,3,11,,,,,1,11,27,10,0,3,3,11,,,,,,,,,2,2.2854842680098955,100,001,2019_Sep_03_1412,MusicAffectPsychophysiology2019,3.0.5,59.917101460635855,
To what extent did the music make you feel ,HAPPY,30MonoWAV/30MonoS3.wav,1,1,3,11,,,,,1,11,27,10,0,4,4,6,,,,,,,,,1,0.835558435996063,100,001,2019_Sep_03_1412,MusicAffectPsychophysiology2019,3.0.5,59.917101460635855,
To what extent did the music make you feel ,ACTIVE,30MonoWAV/30MonoS3.wav,1,1,3,11,,,,,1,11,27,10,0,5,5,9,,,,,,,,,2,2.2024781410000287,100,001,2019_Sep_03_1412,MusicAffectPsychophysiology2019,3.0.5,59.917101460635855,
To what extent did the music make you feel ,SAD,30MonoWAV/30MonoS3.wav,1,1,3,11,,,,,1,11,27,10,0,6,6,0,,,,,,,,,4,1.4864329769916367,100,001,2019_Sep_03_1412,MusicAffectPsychophysiology2019,3.0.5,59.917101460635855,
To what extent did the music make you feel ,FRUSTRATED,30MonoWAV/30MonoS3.wav,1,1,3,11,,,,,1,11,27,10,0,7,7,3,,,,,,,,,1,1.335981783020543,100,001,2019_Sep_03_1412,MusicAffectPsychophysiology2019,3.0.5,59.917101460635855,
To what extent did the music make you feel ,ANGRY,30MonoWAV/30MonoS3.wav,1,1,3,11,,,,,1,11,27,10,0,8,8,2,,,,,,,,,1,1.1856958220014349,100,001,2019_Sep_03_1412,MusicAffectPsychophysiology2019,3.0.5,59.917101460635855,
To what extent did the music make you feel ,ANXIOUS ,30MonoWAV/30MonoS3.wav,1,1,3,11,,,,,1,11,27,10,0,9,9,1,,,,,,,,,4,3.918990735983243,100,001,2019_Sep_03_1412,MusicAffectPsychophysiology2019,3.0.5,59.917101460635855,
To what extent did the music make you feel ,GUILTY,30MonoWAV/30MonoS3.wav,1,1,3,11,,,,,1,11,27,10,0,10,10,5,,,,,,,,,1,2.667046479007695,100,001,2019_Sep_03_1412,MusicAffectPsychophysiology2019,3.0.5,59.917101460635855,
To what extent did the music make you feel ,EXCITED,30MonoWAV/30MonoS3.wav,1,1,3,11,,,,,1,11,27,10,0,11,11,7,,,,,,,,,1,1.5184533729916438,100,001,2019_Sep_03_1412,MusicAffectPsychophysiology2019,3.0.5,59.917101460635855,
,,30MonoWAV/30MonoS3.wav,1,1,3,11,,,,,1,11,27,10,,,,,,,,,,,,,,,100,001,2019_Sep_03_1412,MusicAffectPsychophysiology2019,3.0.5,59.917101460635855,
To what extent did the music make you feel ,ALERT,30MonoWAV/30MonoH1.wav,2,2,1,5,,,,,1,12,28,4,0,0,0,8,,,4,3.6533854239969514,4,1.8022687149932608,4,2.0033450339979026,4,1.8796800450072624,100,001,2019_Sep_03_1412,MusicAffectPsychophysiology2019,3.0.5,59.917101460635855,
To what extent did the music make you feel ,ACTIVE,30MonoWAV/30MonoH1.wav,2,2,1,5,,,,,1,12,28,4,0,1,1,9,,,,,,,,,4,1.1838360939873382,100,001,2019_Sep_03_1412,MusicAffectPsychophysiology2019,3.0.5,59.917101460635855,
To what extent did the music make you feel ,HAPPY,30MonoWAV/30MonoH1.wav,2,2,1,5,,,,,1,12,28,4,0,2,2,6,,,,,,,,,3,0.7688945600239094,100,001,2019_Sep_03_1412,MusicAffectPsychophysiology2019,3.0.5,59.917101460635855,
To what extent did the music make you feel ,FRUSTRATED,30MonoWAV/30MonoH1.wav,2,2,1,5,,,,,1,12,28,4,0,3,3,3,,,,,,,,,1,1.4514037529879715,100,001,2019_Sep_03_1412,MusicAffectPsychophysiology2019,3.0.5,59.917101460635855,
To what extent did the music make you feel ,TENDER,30MonoWAV/30MonoH1.wav,2,2,1,5,,,,,1,12,28,4,0,4,4,10,,,,,,,,,2,0.9860262139991391,100,001,2019_Sep_03_1412,MusicAffectPsychophysiology2019,3.0.5,59.917101460635855,
To what extent did the music make you feel ,EXCITED,30MonoWAV/30MonoH1.wav,2,2,1,5,,,,,1,12,28,4,0,5,5,7,,,,,,,,,4,1.2850425420037936,100,001,2019_Sep_03_1412,MusicAffectPsychophysiology2019,3.0.5,59.917101460635855,
To what extent did the music make you feel ,GUILTY,30MonoWAV/30MonoH1.wav,2,2,1,5,,,,,1,12,28,4,0,6,6,5,,,,,,,,,1,0.9516824189922772,100,001,2019_Sep_03_1412,MusicAffectPsychophysiology2019,3.0.5,59.917101460635855,
To what extent did the music make you feel ,ANXIOUS ,30MonoWAV/30MonoH1.wav,2,2,1,5,,,,,1,12,28,4,0,7,7,1,,,,,,,,,1,1.4204586750129238,100,001,2019_Sep_03_1412,MusicAffectPsychophysiology2019,3.0.5,59.917101460635855,
To what extent did the music make you feel ,ASHAMED,30MonoWAV/30MonoH1.wav,2,2,1,5,,,,,1,12,28,4,0,8,8,4,,,,,,,,,1,0.4694244870042894,100,001,2019_Sep_03_1412,MusicAffectPsychophysiology2019,3.0.5,59.917101460635855,
To what extent did the music make you feel ,ANGRY,30MonoWAV/30MonoH1.wav,2,2,1,5,,,,,1,12,28,4,0,9,9,2,,,,,,,,,1,0.4869556619960349,100,001,2019_Sep_03_1412,MusicAffectPsychophysiology2019,3.0.5,59.917101460635855,
To what extent did the music make you feel ,SAD,30MonoWAV/30MonoH1.wav,2,2,1,5,,,,,1,12,28,4,0,10,10,0,,,,,,,,,1,0.7164080530055799,100,001,2019_Sep_03_1412,MusicAffectPsychophysiology2019,3.0.5,59.917101460635855,
To what extent did the music make you feel ,SCARED,30MonoWAV/30MonoH1.wav,2,2,1,5,,,,,1,12,28,4,0,11,11,11,,,,,,,,,1,1.2526873530005105,100,001,2019_Sep_03_1412,MusicAffectPsychophysiology2019,3.0.5,59.917101460635855,
,,30MonoWAV/30MonoH1.wav,2,2,1,5,,,,,1,12,28,4,,,,,,,,,,,,,,,100,001,2019_Sep_03_1412,MusicAffectPsychophysiology2019,3.0.5,59.917101460635855,
To what extent did the music make you feel ,SCARED,30MonoWAV/30MonoT1.wav,2,1,4,13,,,,,1,13,29,12,0,0,0,11,,,2,9.702567492000526,3,1.3192349949968047,3,0.8365319820004515,1,1.55362834801781,100,001,2019_Sep_03_1412,MusicAffectPsychophysiology2019,3.0.5,59.917101460635855,
To what extent did the music make you feel ,ALERT,30MonoWAV/30MonoT1.wav,2,1,4,13,,,,,1,13,29,12,0,1,1,8,,,,,,,,,2,0.8519807289994787,100,001,2019_Sep_03_1412,MusicAffectPsychophysiology2019,3.0.5,59.917101460635855,
To what extent did the music make you feel ,SAD,30MonoWAV/30MonoT1.wav,2,1,4,13,,,,,1,13,29,12,0,2,2,0,,,,,,,,,3,1.1850276770128403,100,001,2019_Sep_03_1412,MusicAffectPsychophysiology2019,3.0.5,59.917101460635855,
To what extent did the music make you feel ,ANXIOUS ,30MonoWAV/30MonoT1.wav,2,1,4,13,,,,,1,13,29,12,0,3,3,1,,,,,,,,,4,1.3530920619959943,100,001,2019_Sep_03_1412,MusicAffectPsychophysiology2019,3.0.5,59.917101460635855,
To what extent did the music make you feel ,TENDER,30MonoWAV/30MonoT1.wav,2,1,4,13,,,,,1,13,29,12,0,4,4,10,,,,,,,,,4,2.1694464840111323,100,001,2019_Sep_03_1412,MusicAffectPsychophysiology2019,3.0.5,59.917101460635855,
To what extent did the music make you feel ,ANGRY,30MonoWAV/30MonoT1.wav,2,1,4,13,,,,,1,13,29,12,0,5,5,2,,,,,,,,,1,0.9345869519747794,100,001,2019_Sep_03_1412,MusicAffectPsychophysiology2019,3.0.5,59.917101460635855,
To what extent did the music make you feel ,HAPPY,30MonoWAV/30MonoT1.wav,2,1,4,13,,,,,1,13,29,12,0,6,6,6,,,,,,,,,2,1.6377855410100892,100,001,2019_Sep_03_1412,MusicAffectPsychophysiology2019,3.0.5,59.917101460635855,
To what extent did the music make you feel ,GUILTY,30MonoWAV/30MonoT1.wav,2,1,4,13,,,,,1,13,29,12,0,7,7,5,,,,,,,,,1,1.501634111016756,100,001,2019_Sep_03_1412,MusicAffectPsychophysiology2019,3.0.5,59.917101460635855,
To what extent did the music make you feel ,EXCITED,30MonoWAV/30MonoT1.wav,2,1,4,13,,,,,1,13,29,12,0,8,8,7,,,,,,,,,2,1.1677735379780643,100,001,2019_Sep_03_1412,MusicAffectPsychophysiology2019,3.0.5,59.917101460635855,
To what extent did the music make you feel ,ASHAMED,30MonoWAV/30MonoT1.wav,2,1,4,13,,,,,1,13,29,12,0,9,9,4,,,,,,,,,1,0.8181197349913418,100,001,2019_Sep_03_1412,MusicAffectPsychophysiology2019,3.0.5,59.917101460635855,
To what extent did the music make you feel ,ACTIVE,30MonoWAV/30MonoT1.wav,2,1,4,13,,,,,1,13,29,12,0,10,10,9,,,,,,,,,2,1.4036726200138219,100,001,2019_Sep_03_1412,MusicAffectPsychophysiology2019,3.0.5,59.917101460635855,
To what extent did the music make you feel ,FRUSTRATED,30MonoWAV/30MonoT1.wav,2,1,4,13,,,,,1,13,29,12,0,11,11,3,,,,,,,,,1,0.6532206159899943,100,001,2019_Sep_03_1412,MusicAffectPsychophysiology2019,3.0.5,59.917101460635855,
,,30MonoWAV/30MonoT1.wav,2,1,4,13,,,,,1,13,29,12,,,,,,,,,,,,,,,100,001,2019_Sep_03_1412,MusicAffectPsychophysiology2019,3.0.5,59.917101460635855,
To what extent did the music make you feel ,ALERT,30MonoWAV/30MonoH3.wav,2,2,1,7,,,,,1,14,30,6,0,0,0,8,,,3,3.6375414929934777,4,1.4853732509945985,3,1.369195663020946,4,2.335046873020474,100,001,2019_Sep_03_1412,MusicAffectPsychophysiology2019,3.0.5,59.917101460635855,
To what extent did the music make you feel ,ANGRY,30MonoWAV/30MonoH3.wav,2,2,1,7,,,,,1,14,30,6,0,1,1,2,,,,,,,,,1,1.0686354599893093,100,001,2019_Sep_03_1412,MusicAffectPsychophysiology2019,3.0.5,59.917101460635855,
To what extent did the music make you feel ,HAPPY,30MonoWAV/30MonoH3.wav,2,2,1,7,,,,,1,14,30,6,0,2,2,6,,,,,,,,,3,1.102587391011184,100,001,2019_Sep_03_1412,MusicAffectPsychophysiology2019,3.0.5,59.917101460635855,
To what extent did the music make you feel ,EXCITED,30MonoWAV/30MonoH3.wav,2,2,1,7,,,,,1,14,30,6,0,3,3,7,,,,,,,,,4,0.9349513800116256,100,001,2019_Sep_03_1412,MusicAffectPsychophysiology2019,3.0.5,59.917101460635855,
To what extent did the music make you feel ,ACTIVE,30MonoWAV/30MonoH3.wav,2,2,1,7,,,,,1,14,30,6,0,4,4,9,,,,,,,,,3,0.9026843989850022,100,001,2019_Sep_03_1412,MusicAffectPsychophysiology2019,3.0.5,59.917101460635855,
To what extent did the music make you feel ,GUILTY,30MonoWAV/30MonoH3.wav,2,2,1,7,,,,,1,14,30,6,0,5,5,5,,,,,,,,,1,0.9695364869839977,100,001,2019_Sep_03_1412,MusicAffectPsychophysiology2019,3.0.5,59.917101460635855,
To what extent did the music make you feel ,SCARED,30MonoWAV/30MonoH3.wav,2,2,1,7,,,,,1,14,30,6,0,6,6,11,,,,,,,,,1,0.8700309980195016,100,001,2019_Sep_03_1412,MusicAffectPsychophysiology2019,3.0.5,59.917101460635855,
To what extent did the music make you feel ,TENDER,30MonoWAV/30MonoH3.wav,2,2,1,7,,,,,1,14,30,6,0,7,7,10,,,,,,,,,1,1.102251658012392,100,001,2019_Sep_03_1412,MusicAffectPsychophysiology2019,3.0.5,59.917101460635855,
To what extent did the music make you feel ,SAD,30MonoWAV/30MonoH3.wav,2,2,1,7,,,,,1,14,30,6,0,8,8,0,,,,,,,,,1,1.6851288120087702,100,001,2019_Sep_03_1412,MusicAffectPsychophysiology2019,3.0.5,59.917101460635855,
To what extent did the music make you feel ,FRUSTRATED,30MonoWAV/30MonoH3.wav,2,2,1,7,,,,,1,14,30,6,0,9,9,3,,,,,,,,,1,0.5703699639998376,100,001,2019_Sep_03_1412,MusicAffectPsychophysiology2019,3.0.5,59.917101460635855,
To what extent did the music make you feel ,ANXIOUS ,30MonoWAV/30MonoH3.wav,2,2,1,7,,,,,1,14,30,6,0,10,10,1,,,,,,,,,1,1.4535343280003872,100,001,2019_Sep_03_1412,MusicAffectPsychophysiology2019,3.0.5,59.917101460635855,
To what extent did the music make you feel ,ASHAMED,30MonoWAV/30MonoH3.wav,2,2,1,7,,,,,1,14,30,6,0,11,11,4,,,,,,,,,1,0.6368317769956775,100,001,2019_Sep_03_1412,MusicAffectPsychophysiology2019,3.0.5,59.917101460635855,
,,30MonoWAV/30MonoH3.wav,2,2,1,7,,,,,1,14,30,6,,,,,,,,,,,,,,,100,001,2019_Sep_03_1412,MusicAffectPsychophysiology2019,3.0.5,59.917101460635855,
To what extent did the music make you feel ,HAPPY,30MonoWAV/30MonoT2.wav,2,1,4,14,,,,,1,15,31,13,0,0,0,6,,,3,10.836457392026205,4,1.7017209389887284,4,1.052954057988245,4,1.70854490599595,100,001,2019_Sep_03_1412,MusicAffectPsychophysiology2019,3.0.5,59.917101460635855,
To what extent did the music make you feel ,EXCITED,30MonoWAV/30MonoT2.wav,2,1,4,14,,,,,1,15,31,13,0,1,1,7,,,,,,,,,1,1.6352757810091134,100,001,2019_Sep_03_1412,MusicAffectPsychophysiology2019,3.0.5,59.917101460635855,
To what extent did the music make you feel ,ACTIVE,30MonoWAV/30MonoT2.wav,2,1,4,14,,,,,1,15,31,13,0,2,2,9,,,,,,,,,2,1.3021036589925643,100,001,2019_Sep_03_1412,MusicAffectPsychophysiology2019,3.0.5,59.917101460635855,
To what extent did the music make you feel ,GUILTY,30MonoWAV/30MonoT2.wav,2,1,4,14,,,,,1,15,31,13,0,3,3,5,,,,,,,,,1,0.7367739809851628,100,001,2019_Sep_03_1412,MusicAffectPsychophysiology2019,3.0.5,59.917101460635855,
To what extent did the music make you feel ,ALERT,30MonoWAV/30MonoT2.wav,2,1,4,14,,,,,1,15,31,13,0,4,4,8,,,,,,,,,2,1.1341419039817993,100,001,2019_Sep_03_1412,MusicAffectPsychophysiology2019,3.0.5,59.917101460635855,
To what extent did the music make you feel ,ASHAMED,30MonoWAV/30MonoT2.wav,2,1,4,14,,,,,1,15,31,13,0,5,5,4,,,,,,,,,1,1.5036210810067132,100,001,2019_Sep_03_1412,MusicAffectPsychophysiology2019,3.0.5,59.917101460635855,
To what extent did the music make you feel ,FRUSTRATED,30MonoWAV/30MonoT2.wav,2,1,4,14,,,,,1,15,31,13,0,6,6,3,,,,,,,,,1,0.6011711600003764,100,001,2019_Sep_03_1412,MusicAffectPsychophysiology2019,3.0.5,59.917101460635855,
To what extent did the music make you feel ,TENDER,30MonoWAV/30MonoT2.wav,2,1,4,14,,,,,1,15,31,13,0,7,7,10,,,,,,,,,4,1.2072961450030562,100,001,2019_Sep_03_1412,MusicAffectPsychophysiology2019,3.0.5,59.917101460635855,
To what extent did the music make you feel ,ANGRY,30MonoWAV/30MonoT2.wav,2,1,4,14,,,,,1,15,31,13,0,8,8,2,,,,,,,,,1,1.2710007469868287,100,001,2019_Sep_03_1412,MusicAffectPsychophysiology2019,3.0.5,59.917101460635855,
To what extent did the music make you feel ,SCARED,30MonoWAV/30MonoT2.wav,2,1,4,14,,,,,1,15,31,13,0,9,9,11,,,,,,,,,1,1.0572558309941087,100,001,2019_Sep_03_1412,MusicAffectPsychophysiology2019,3.0.5,59.917101460635855,
To what extent did the music make you feel ,ANXIOUS ,30MonoWAV/30MonoT2.wav,2,1,4,14,,,,,1,15,31,13,0,10,10,1,,,,,,,,,2,1.3024874910188373,100,001,2019_Sep_03_1412,MusicAffectPsychophysiology2019,3.0.5,59.917101460635855,
To what extent did the music make you feel ,SAD,30MonoWAV/30MonoT2.wav,2,1,4,14,,,,,1,15,31,13,0,11,11,0,,,,,,,,,3,1.1197820349771064,100,001,2019_Sep_03_1412,MusicAffectPsychophysiology2019,3.0.5,59.917101460635855,
,,30MonoWAV/30MonoT2.wav,2,1,4,14,,,,,1,15,31,13,,,,,,,,,,,,,,,100,001,2019_Sep_03_1412,MusicAffectPsychophysiology2019,3.0.5,59.917101460635855,
