Instruction,Word,song,valence,arousal,affectcat,songmark,pracwords.thisRepN,pracwords.thisTrialN,pracwords.thisN,pracwords.thisIndex,songtrials.thisRepN,songtrials.thisTrialN,songtrials.thisN,songtrials.thisIndex,words.thisRepN,words.thisTrialN,words.thisN,words.thisIndex,begin.keys,begin.rt,arousalkey.keys,arousalkey.rt,valencekey.keys,valencekey.rt,likekey.keys,likekey.rt,WordResponse.keys,WordResponse.rt,participant,session,date,expName,psychopyVersion,frameRate,
,,,,,,,,,,,,,,,,,,,h,13.434829210018506,,,,,,,,,101,001,2019_Sep_04_0905,MusicAffectPsychophysiology2019,3.0.5,60.160025425907385,
,,,,,,,,,,,,,,,,,,,,,2,7.168111567007145,,,,,,,101,001,2019_Sep_04_0905,MusicAffectPsychophysiology2019,3.0.5,60.160025425907385,
,,,,,,,,,,,,,,,,,,,,,,,3,6.048811904998729,,,,,101,001,2019_Sep_04_0905,MusicAffectPsychophysiology2019,3.0.5,60.160025425907385,
,,,,,,,,,,,,,,,,,,,,,,,,,2,5.13623052201001,,,101,001,2019_Sep_04_0905,MusicAffectPsychophysiology2019,3.0.5,60.160025425907385,
To what extent did the music make you feel ,ANGRY,,,,,,0,0,0,2,,,,,,,,,,,,,,,,,1,4.431389125995338,101,001,2019_Sep_04_0905,MusicAffectPsychophysiology2019,3.0.5,60.160025425907385,
To what extent did the music make you feel ,TENDER,,,,,,0,1,1,10,,,,,,,,,,,,,,,,,1,2.7779261880205013,101,001,2019_Sep_04_0905,MusicAffectPsychophysiology2019,3.0.5,60.160025425907385,
To what extent did the music make you feel ,ALERT,,,,,,0,2,2,8,,,,,,,,,,,,,,,,,1,2.2855908980127424,101,001,2019_Sep_04_0905,MusicAffectPsychophysiology2019,3.0.5,60.160025425907385,
To what extent did the music make you feel ,FRUSTRATED,,,,,,0,3,3,3,,,,,,,,,,,,,,,,,1,4.0143030299805105,101,001,2019_Sep_04_0905,MusicAffectPsychophysiology2019,3.0.5,60.160025425907385,
To what extent did the music make you feel ,SAD,,,,,,0,4,4,0,,,,,,,,,,,,,,,,,1,3.2199295070022345,101,001,2019_Sep_04_0905,MusicAffectPsychophysiology2019,3.0.5,60.160025425907385,
To what extent did the music make you feel ,HAPPY,,,,,,0,5,5,6,,,,,,,,,,,,,,,,,2,3.5025784820027184,101,001,2019_Sep_04_0905,MusicAffectPsychophysiology2019,3.0.5,60.160025425907385,
To what extent did the music make you feel ,GUILTY,,,,,,0,6,6,5,,,,,,,,,,,,,,,,,1,1.486149784992449,101,001,2019_Sep_04_0905,MusicAffectPsychophysiology2019,3.0.5,60.160025425907385,
To what extent did the music make you feel ,EXCITED,,,,,,0,7,7,7,,,,,,,,,,,,,,,,,1,5.442968949995702,101,001,2019_Sep_04_0905,MusicAffectPsychophysiology2019,3.0.5,60.160025425907385,
To what extent did the music make you feel ,ASHAMED,,,,,,0,8,8,4,,,,,,,,,,,,,,,,,1,1.6196538310032338,101,001,2019_Sep_04_0905,MusicAffectPsychophysiology2019,3.0.5,60.160025425907385,
To what extent did the music make you feel ,ANXIOUS ,,,,,,0,9,9,1,,,,,,,,,,,,,,,,,2,2.4853558450122364,101,001,2019_Sep_04_0905,MusicAffectPsychophysiology2019,3.0.5,60.160025425907385,
To what extent did the music make you feel ,SCARED,,,,,,0,10,10,11,,,,,,,,,,,,,,,,,1,2.98656225099694,101,001,2019_Sep_04_0905,MusicAffectPsychophysiology2019,3.0.5,60.160025425907385,
To what extent did the music make you feel ,ACTIVE,,,,,,0,11,11,9,,,,,,,,,,,,,,,,,2,3.551809933996992,101,001,2019_Sep_04_0905,MusicAffectPsychophysiology2019,3.0.5,60.160025425907385,
To what extent did the music make you feel ,EXCITED,30MonoWAV/30MonoS1.wav,1,1,3,9,,,,,0,0,0,8,0,0,0,7,,,3,4.7702909170184284,2,7.00257147900993,3,4.784346783999354,2,6.004993062000722,101,001,2019_Sep_04_0905,MusicAffectPsychophysiology2019,3.0.5,60.160025425907385,
To what extent did the music make you feel ,SAD,30MonoWAV/30MonoS1.wav,1,1,3,9,,,,,0,0,0,8,0,1,1,0,,,,,,,,,3,5.336629138007993,101,001,2019_Sep_04_0905,MusicAffectPsychophysiology2019,3.0.5,60.160025425907385,
To what extent did the music make you feel ,ALERT,30MonoWAV/30MonoS1.wav,1,1,3,9,,,,,0,0,0,8,0,2,2,8,,,,,,,,,2,5.203856415027985,101,001,2019_Sep_04_0905,MusicAffectPsychophysiology2019,3.0.5,60.160025425907385,
To what extent did the music make you feel ,TENDER,30MonoWAV/30MonoS1.wav,1,1,3,9,,,,,0,0,0,8,0,3,3,10,,,,,,,,,4,3.4517194539948832,101,001,2019_Sep_04_0905,MusicAffectPsychophysiology2019,3.0.5,60.160025425907385,
To what extent did the music make you feel ,ASHAMED,30MonoWAV/30MonoS1.wav,1,1,3,9,,,,,0,0,0,8,0,4,4,4,,,,,,,,,1,2.152509387000464,101,001,2019_Sep_04_0905,MusicAffectPsychophysiology2019,3.0.5,60.160025425907385,
To what extent did the music make you feel ,SCARED,30MonoWAV/30MonoS1.wav,1,1,3,9,,,,,0,0,0,8,0,5,5,11,,,,,,,,,1,1.7172009760106448,101,001,2019_Sep_04_0905,MusicAffectPsychophysiology2019,3.0.5,60.160025425907385,
To what extent did the music make you feel ,HAPPY,30MonoWAV/30MonoS1.wav,1,1,3,9,,,,,0,0,0,8,0,6,6,6,,,,,,,,,2,3.1362132299982477,101,001,2019_Sep_04_0905,MusicAffectPsychophysiology2019,3.0.5,60.160025425907385,
To what extent did the music make you feel ,ACTIVE,30MonoWAV/30MonoS1.wav,1,1,3,9,,,,,0,0,0,8,0,7,7,9,,,,,,,,,2,3.5702830530062784,101,001,2019_Sep_04_0905,MusicAffectPsychophysiology2019,3.0.5,60.160025425907385,
To what extent did the music make you feel ,FRUSTRATED,30MonoWAV/30MonoS1.wav,1,1,3,9,,,,,0,0,0,8,0,8,8,3,,,,,,,,,1,1.7683466259913985,101,001,2019_Sep_04_0905,MusicAffectPsychophysiology2019,3.0.5,60.160025425907385,
To what extent did the music make you feel ,ANXIOUS ,30MonoWAV/30MonoS1.wav,1,1,3,9,,,,,0,0,0,8,0,9,9,1,,,,,,,,,1,4.132761654007481,101,001,2019_Sep_04_0905,MusicAffectPsychophysiology2019,3.0.5,60.160025425907385,
To what extent did the music make you feel ,ANGRY,30MonoWAV/30MonoS1.wav,1,1,3,9,,,,,0,0,0,8,0,10,10,2,,,,,,,,,1,1.7669952849973924,101,001,2019_Sep_04_0905,MusicAffectPsychophysiology2019,3.0.5,60.160025425907385,
To what extent did the music make you feel ,GUILTY,30MonoWAV/30MonoS1.wav,1,1,3,9,,,,,0,0,0,8,0,11,11,5,,,,,,,,,1,2.019413853995502,101,001,2019_Sep_04_0905,MusicAffectPsychophysiology2019,3.0.5,60.160025425907385,
,,30MonoWAV/30MonoS1.wav,1,1,3,9,,,,,0,0,0,8,,,,,,,,,,,,,,,101,001,2019_Sep_04_0905,MusicAffectPsychophysiology2019,3.0.5,60.160025425907385,
To what extent did the music make you feel ,ALERT,30MonoWAV/30MonoT3.wav,2,1,4,15,,,,,0,1,1,14,0,0,0,8,,,1,4.654719006008236,4,4.6869910349778365,4,5.552294960012659,1,7.125579677987844,101,001,2019_Sep_04_0905,MusicAffectPsychophysiology2019,3.0.5,60.160025425907385,
To what extent did the music make you feel ,ASHAMED,30MonoWAV/30MonoT3.wav,2,1,4,15,,,,,0,1,1,14,0,1,1,4,,,,,,,,,1,3.1355685239832383,101,001,2019_Sep_04_0905,MusicAffectPsychophysiology2019,3.0.5,60.160025425907385,
To what extent did the music make you feel ,SCARED,30MonoWAV/30MonoT3.wav,2,1,4,15,,,,,0,1,1,14,0,2,2,11,,,,,,,,,1,1.9695955099887215,101,001,2019_Sep_04_0905,MusicAffectPsychophysiology2019,3.0.5,60.160025425907385,
To what extent did the music make you feel ,HAPPY,30MonoWAV/30MonoT3.wav,2,1,4,15,,,,,0,1,1,14,0,3,3,6,,,,,,,,,3,3.434877966006752,101,001,2019_Sep_04_0905,MusicAffectPsychophysiology2019,3.0.5,60.160025425907385,
To what extent did the music make you feel ,ACTIVE,30MonoWAV/30MonoT3.wav,2,1,4,15,,,,,0,1,1,14,0,4,4,9,,,,,,,,,1,2.502795737993438,101,001,2019_Sep_04_0905,MusicAffectPsychophysiology2019,3.0.5,60.160025425907385,
To what extent did the music make you feel ,TENDER,30MonoWAV/30MonoT3.wav,2,1,4,15,,,,,0,1,1,14,0,5,5,10,,,,,,,,,4,1.7536171039973851,101,001,2019_Sep_04_0905,MusicAffectPsychophysiology2019,3.0.5,60.160025425907385,
To what extent did the music make you feel ,SAD,30MonoWAV/30MonoT3.wav,2,1,4,15,,,,,0,1,1,14,0,6,6,0,,,,,,,,,1,3.199820539011853,101,001,2019_Sep_04_0905,MusicAffectPsychophysiology2019,3.0.5,60.160025425907385,
To what extent did the music make you feel ,ANXIOUS ,30MonoWAV/30MonoT3.wav,2,1,4,15,,,,,0,1,1,14,0,7,7,1,,,,,,,,,1,2.0173335669969674,101,001,2019_Sep_04_0905,MusicAffectPsychophysiology2019,3.0.5,60.160025425907385,
To what extent did the music make you feel ,FRUSTRATED,30MonoWAV/30MonoT3.wav,2,1,4,15,,,,,0,1,1,14,0,8,8,3,,,,,,,,,1,2.103773959999671,101,001,2019_Sep_04_0905,MusicAffectPsychophysiology2019,3.0.5,60.160025425907385,
To what extent did the music make you feel ,ANGRY,30MonoWAV/30MonoT3.wav,2,1,4,15,,,,,0,1,1,14,0,9,9,2,,,,,,,,,1,1.5691310839902144,101,001,2019_Sep_04_0905,MusicAffectPsychophysiology2019,3.0.5,60.160025425907385,
To what extent did the music make you feel ,GUILTY,30MonoWAV/30MonoT3.wav,2,1,4,15,,,,,0,1,1,14,0,10,10,5,,,,,,,,,1,0.9019698379852343,101,001,2019_Sep_04_0905,MusicAffectPsychophysiology2019,3.0.5,60.160025425907385,
To what extent did the music make you feel ,EXCITED,30MonoWAV/30MonoT3.wav,2,1,4,15,,,,,0,1,1,14,0,11,11,7,,,,,,,,,1,3.720850020996295,101,001,2019_Sep_04_0905,MusicAffectPsychophysiology2019,3.0.5,60.160025425907385,
,,30MonoWAV/30MonoT3.wav,2,1,4,15,,,,,0,1,1,14,,,,,,,,,,,,,,,101,001,2019_Sep_04_0905,MusicAffectPsychophysiology2019,3.0.5,60.160025425907385,
To what extent did the music make you feel ,ACTIVE,30MonoWAV/30MonoH4.wav,2,2,1,8,,,,,0,2,2,7,0,0,0,9,,,4,3.9532738129782956,4,2.8360715029994026,4,2.9525360649859067,4,3.6527425840031356,101,001,2019_Sep_04_0905,MusicAffectPsychophysiology2019,3.0.5,60.160025425907385,
To what extent did the music make you feel ,GUILTY,30MonoWAV/30MonoH4.wav,2,2,1,8,,,,,0,2,2,7,0,1,1,5,,,,,,,,,1,1.6699570110067725,101,001,2019_Sep_04_0905,MusicAffectPsychophysiology2019,3.0.5,60.160025425907385,
To what extent did the music make you feel ,SAD,30MonoWAV/30MonoH4.wav,2,2,1,8,,,,,0,2,2,7,0,2,2,0,,,,,,,,,1,1.3015501810004935,101,001,2019_Sep_04_0905,MusicAffectPsychophysiology2019,3.0.5,60.160025425907385,
To what extent did the music make you feel ,EXCITED,30MonoWAV/30MonoH4.wav,2,2,1,8,,,,,0,2,2,7,0,3,3,7,,,,,,,,,4,1.4036145450081676,101,001,2019_Sep_04_0905,MusicAffectPsychophysiology2019,3.0.5,60.160025425907385,
To what extent did the music make you feel ,FRUSTRATED,30MonoWAV/30MonoH4.wav,2,2,1,8,,,,,0,2,2,7,0,4,4,3,,,,,,,,,1,1.019419251009822,101,001,2019_Sep_04_0905,MusicAffectPsychophysiology2019,3.0.5,60.160025425907385,
To what extent did the music make you feel ,HAPPY,30MonoWAV/30MonoH4.wav,2,2,1,8,,,,,0,2,2,7,0,5,5,6,,,,,,,,,4,3.851503560988931,101,001,2019_Sep_04_0905,MusicAffectPsychophysiology2019,3.0.5,60.160025425907385,
To what extent did the music make you feel ,ASHAMED,30MonoWAV/30MonoH4.wav,2,2,1,8,,,,,0,2,2,7,0,6,6,4,,,,,,,,,1,0.8194170260103419,101,001,2019_Sep_04_0905,MusicAffectPsychophysiology2019,3.0.5,60.160025425907385,
To what extent did the music make you feel ,SCARED,30MonoWAV/30MonoH4.wav,2,2,1,8,,,,,0,2,2,7,0,7,7,11,,,,,,,,,1,1.1684837440261617,101,001,2019_Sep_04_0905,MusicAffectPsychophysiology2019,3.0.5,60.160025425907385,
To what extent did the music make you feel ,TENDER,30MonoWAV/30MonoH4.wav,2,2,1,8,,,,,0,2,2,7,0,8,8,10,,,,,,,,,2,3.119351519009797,101,001,2019_Sep_04_0905,MusicAffectPsychophysiology2019,3.0.5,60.160025425907385,
To what extent did the music make you feel ,ALERT,30MonoWAV/30MonoH4.wav,2,2,1,8,,,,,0,2,2,7,0,9,9,8,,,,,,,,,3,5.084741648985073,101,001,2019_Sep_04_0905,MusicAffectPsychophysiology2019,3.0.5,60.160025425907385,
To what extent did the music make you feel ,ANGRY,30MonoWAV/30MonoH4.wav,2,2,1,8,,,,,0,2,2,7,0,10,10,2,,,,,,,,,1,1.5860938259866089,101,001,2019_Sep_04_0905,MusicAffectPsychophysiology2019,3.0.5,60.160025425907385,
To what extent did the music make you feel ,ANXIOUS ,30MonoWAV/30MonoH4.wav,2,2,1,8,,,,,0,2,2,7,0,11,11,1,,,,,,,,,1,0.9690869449987076,101,001,2019_Sep_04_0905,MusicAffectPsychophysiology2019,3.0.5,60.160025425907385,
,,30MonoWAV/30MonoH4.wav,2,2,1,8,,,,,0,2,2,7,,,,,,,,,,,,,,,101,001,2019_Sep_04_0905,MusicAffectPsychophysiology2019,3.0.5,60.160025425907385,
To what extent did the music make you feel ,TENDER,30MonoWAV/30MonoT4.wav,2,1,4,16,,,,,0,3,3,15,0,0,0,10,,,2,7.735070914000971,2,6.766235713992501,2,11.234091166988946,3,2.9096800300176255,101,001,2019_Sep_04_0905,MusicAffectPsychophysiology2019,3.0.5,60.160025425907385,
To what extent did the music make you feel ,ANGRY,30MonoWAV/30MonoT4.wav,2,1,4,16,,,,,0,3,3,15,0,1,1,2,,,,,,,,,1,1.7737467089900747,101,001,2019_Sep_04_0905,MusicAffectPsychophysiology2019,3.0.5,60.160025425907385,
To what extent did the music make you feel ,FRUSTRATED,30MonoWAV/30MonoT4.wav,2,1,4,16,,,,,0,3,3,15,0,2,2,3,,,,,,,,,2,1.4071716029720847,101,001,2019_Sep_04_0905,MusicAffectPsychophysiology2019,3.0.5,60.160025425907385,
To what extent did the music make you feel ,ACTIVE,30MonoWAV/30MonoT4.wav,2,1,4,16,,,,,0,3,3,15,0,3,3,9,,,,,,,,,1,3.200225376000162,101,001,2019_Sep_04_0905,MusicAffectPsychophysiology2019,3.0.5,60.160025425907385,
To what extent did the music make you feel ,GUILTY,30MonoWAV/30MonoT4.wav,2,1,4,16,,,,,0,3,3,15,0,4,4,5,,,,,,,,,1,2.018566196988104,101,001,2019_Sep_04_0905,MusicAffectPsychophysiology2019,3.0.5,60.160025425907385,
To what extent did the music make you feel ,ASHAMED,30MonoWAV/30MonoT4.wav,2,1,4,16,,,,,0,3,3,15,0,5,5,4,,,,,,,,,1,1.3837922460224945,101,001,2019_Sep_04_0905,MusicAffectPsychophysiology2019,3.0.5,60.160025425907385,
To what extent did the music make you feel ,EXCITED,30MonoWAV/30MonoT4.wav,2,1,4,16,,,,,0,3,3,15,0,6,6,7,,,,,,,,,1,2.8169670820061583,101,001,2019_Sep_04_0905,MusicAffectPsychophysiology2019,3.0.5,60.160025425907385,
To what extent did the music make you feel ,SAD,30MonoWAV/30MonoT4.wav,2,1,4,16,,,,,0,3,3,15,0,7,7,0,,,,,,,,,3,2.818627792003099,101,001,2019_Sep_04_0905,MusicAffectPsychophysiology2019,3.0.5,60.160025425907385,
To what extent did the music make you feel ,ALERT,30MonoWAV/30MonoT4.wav,2,1,4,16,,,,,0,3,3,15,0,8,8,8,,,,,,,,,1,2.334921895992011,101,001,2019_Sep_04_0905,MusicAffectPsychophysiology2019,3.0.5,60.160025425907385,
To what extent did the music make you feel ,HAPPY,30MonoWAV/30MonoT4.wav,2,1,4,16,,,,,0,3,3,15,0,9,9,6,,,,,,,,,1,7.5660386239760555,101,001,2019_Sep_04_0905,MusicAffectPsychophysiology2019,3.0.5,60.160025425907385,
To what extent did the music make you feel ,ANXIOUS ,30MonoWAV/30MonoT4.wav,2,1,4,16,,,,,0,3,3,15,0,10,10,1,,,,,,,,,2,3.9690693320007995,101,001,2019_Sep_04_0905,MusicAffectPsychophysiology2019,3.0.5,60.160025425907385,
To what extent did the music make you feel ,SCARED,30MonoWAV/30MonoT4.wav,2,1,4,16,,,,,0,3,3,15,0,11,11,11,,,,,,,,,1,2.10320850397693,101,001,2019_Sep_04_0905,MusicAffectPsychophysiology2019,3.0.5,60.160025425907385,
,,30MonoWAV/30MonoT4.wav,2,1,4,16,,,,,0,3,3,15,,,,,,,,,,,,,,,101,001,2019_Sep_04_0905,MusicAffectPsychophysiology2019,3.0.5,60.160025425907385,
To what extent did the music make you feel ,GUILTY,30MonoWAV/30MonoS2.wav,1,1,3,10,,,,,0,4,4,9,0,0,0,5,,,1,5.535045902011916,1,2.0017024409899022,1,2.6689556979981717,2,6.352345775987487,101,001,2019_Sep_04_0905,MusicAffectPsychophysiology2019,3.0.5,60.160025425907385,
To what extent did the music make you feel ,ALERT,30MonoWAV/30MonoS2.wav,1,1,3,10,,,,,0,4,4,9,0,1,1,8,,,,,,,,,1,1.3199152949964628,101,001,2019_Sep_04_0905,MusicAffectPsychophysiology2019,3.0.5,60.160025425907385,
To what extent did the music make you feel ,ACTIVE,30MonoWAV/30MonoS2.wav,1,1,3,10,,,,,0,4,4,9,0,2,2,9,,,,,,,,,1,0.8672786690003704,101,001,2019_Sep_04_0905,MusicAffectPsychophysiology2019,3.0.5,60.160025425907385,
To what extent did the music make you feel ,ANXIOUS ,30MonoWAV/30MonoS2.wav,1,1,3,10,,,,,0,4,4,9,0,3,3,1,,,,,,,,,2,0.9998246390023269,101,001,2019_Sep_04_0905,MusicAffectPsychophysiology2019,3.0.5,60.160025425907385,
To what extent did the music make you feel ,FRUSTRATED,30MonoWAV/30MonoS2.wav,1,1,3,10,,,,,0,4,4,9,0,4,4,3,,,,,,,,,2,7.001926254975842,101,001,2019_Sep_04_0905,MusicAffectPsychophysiology2019,3.0.5,60.160025425907385,
To what extent did the music make you feel ,ANGRY,30MonoWAV/30MonoS2.wav,1,1,3,10,,,,,0,4,4,9,0,5,5,2,,,,,,,,,1,1.669003312010318,101,001,2019_Sep_04_0905,MusicAffectPsychophysiology2019,3.0.5,60.160025425907385,
To what extent did the music make you feel ,ASHAMED,30MonoWAV/30MonoS2.wav,1,1,3,10,,,,,0,4,4,9,0,6,6,4,,,,,,,,,2,3.116537429013988,101,001,2019_Sep_04_0905,MusicAffectPsychophysiology2019,3.0.5,60.160025425907385,
To what extent did the music make you feel ,TENDER,30MonoWAV/30MonoS2.wav,1,1,3,10,,,,,0,4,4,9,0,7,7,10,,,,,,,,,3,1.6007839530066121,101,001,2019_Sep_04_0905,MusicAffectPsychophysiology2019,3.0.5,60.160025425907385,
To what extent did the music make you feel ,HAPPY,30MonoWAV/30MonoS2.wav,1,1,3,10,,,,,0,4,4,9,0,8,8,6,,,,,,,,,1,1.620005178003339,101,001,2019_Sep_04_0905,MusicAffectPsychophysiology2019,3.0.5,60.160025425907385,
To what extent did the music make you feel ,EXCITED,30MonoWAV/30MonoS2.wav,1,1,3,10,,,,,0,4,4,9,0,9,9,7,,,,,,,,,1,1.4029402239830233,101,001,2019_Sep_04_0905,MusicAffectPsychophysiology2019,3.0.5,60.160025425907385,
To what extent did the music make you feel ,SAD,30MonoWAV/30MonoS2.wav,1,1,3,10,,,,,0,4,4,9,0,10,10,0,,,,,,,,,4,2.7011403999931645,101,001,2019_Sep_04_0905,MusicAffectPsychophysiology2019,3.0.5,60.160025425907385,
To what extent did the music make you feel ,SCARED,30MonoWAV/30MonoS2.wav,1,1,3,10,,,,,0,4,4,9,0,11,11,11,,,,,,,,,1,1.052525630017044,101,001,2019_Sep_04_0905,MusicAffectPsychophysiology2019,3.0.5,60.160025425907385,
,,30MonoWAV/30MonoS2.wav,1,1,3,10,,,,,0,4,4,9,,,,,,,,,,,,,,,101,001,2019_Sep_04_0905,MusicAffectPsychophysiology2019,3.0.5,60.160025425907385,
To what extent did the music make you feel ,ASHAMED,30MonoWAV/30MonoF1.wav,1,2,2,1,,,,,0,5,5,0,0,0,0,4,,,1,2.4358552789781243,1,2.9853873120155185,1,2.619173953018617,1,2.525149021006655,101,001,2019_Sep_04_0905,MusicAffectPsychophysiology2019,3.0.5,60.160025425907385,
To what extent did the music make you feel ,SAD,30MonoWAV/30MonoF1.wav,1,2,2,1,,,,,0,5,5,0,0,1,1,0,,,,,,,,,1,1.4528101859905291,101,001,2019_Sep_04_0905,MusicAffectPsychophysiology2019,3.0.5,60.160025425907385,
To what extent did the music make you feel ,FRUSTRATED,30MonoWAV/30MonoF1.wav,1,2,2,1,,,,,0,5,5,0,0,2,2,3,,,,,,,,,1,1.4922182580048684,101,001,2019_Sep_04_0905,MusicAffectPsychophysiology2019,3.0.5,60.160025425907385,
To what extent did the music make you feel ,EXCITED,30MonoWAV/30MonoF1.wav,1,2,2,1,,,,,0,5,5,0,0,3,3,7,,,,,,,,,1,2.4845205490128137,101,001,2019_Sep_04_0905,MusicAffectPsychophysiology2019,3.0.5,60.160025425907385,
To what extent did the music make you feel ,SCARED,30MonoWAV/30MonoF1.wav,1,2,2,1,,,,,0,5,5,0,0,4,4,11,,,,,,,,,1,1.9034517029940616,101,001,2019_Sep_04_0905,MusicAffectPsychophysiology2019,3.0.5,60.160025425907385,
To what extent did the music make you feel ,GUILTY,30MonoWAV/30MonoF1.wav,1,2,2,1,,,,,0,5,5,0,0,5,5,5,,,,,,,,,1,0.6503342330106534,101,001,2019_Sep_04_0905,MusicAffectPsychophysiology2019,3.0.5,60.160025425907385,
To what extent did the music make you feel ,HAPPY,30MonoWAV/30MonoF1.wav,1,2,2,1,,,,,0,5,5,0,0,6,6,6,,,,,,,,,1,0.7357161170220934,101,001,2019_Sep_04_0905,MusicAffectPsychophysiology2019,3.0.5,60.160025425907385,
To what extent did the music make you feel ,ALERT,30MonoWAV/30MonoF1.wav,1,2,2,1,,,,,0,5,5,0,0,7,7,8,,,,,,,,,1,0.7687491590040736,101,001,2019_Sep_04_0905,MusicAffectPsychophysiology2019,3.0.5,60.160025425907385,
To what extent did the music make you feel ,TENDER,30MonoWAV/30MonoF1.wav,1,2,2,1,,,,,0,5,5,0,0,8,8,10,,,,,,,,,1,0.818651364010293,101,001,2019_Sep_04_0905,MusicAffectPsychophysiology2019,3.0.5,60.160025425907385,
To what extent did the music make you feel ,ANXIOUS ,30MonoWAV/30MonoF1.wav,1,2,2,1,,,,,0,5,5,0,0,9,9,1,,,,,,,,,1,0.8363089369959198,101,001,2019_Sep_04_0905,MusicAffectPsychophysiology2019,3.0.5,60.160025425907385,
To what extent did the music make you feel ,ACTIVE,30MonoWAV/30MonoF1.wav,1,2,2,1,,,,,0,5,5,0,0,10,10,9,,,,,,,,,1,0.8522634659893811,101,001,2019_Sep_04_0905,MusicAffectPsychophysiology2019,3.0.5,60.160025425907385,
To what extent did the music make you feel ,ANGRY,30MonoWAV/30MonoF1.wav,1,2,2,1,,,,,0,5,5,0,0,11,11,2,,,,,,,,,1,0.569666438997956,101,001,2019_Sep_04_0905,MusicAffectPsychophysiology2019,3.0.5,60.160025425907385,
,,30MonoWAV/30MonoF1.wav,1,2,2,1,,,,,0,5,5,0,,,,,,,,,,,,,,,101,001,2019_Sep_04_0905,MusicAffectPsychophysiology2019,3.0.5,60.160025425907385,
To what extent did the music make you feel ,EXCITED,30MonoWAV/30MonoF2.wav,1,2,2,2,,,,,0,6,6,1,0,0,0,7,,,3,4.75161600401043,1,3.3690284749900457,1,5.785634775005747,1,5.552051670994842,101,001,2019_Sep_04_0905,MusicAffectPsychophysiology2019,3.0.5,60.160025425907385,
To what extent did the music make you feel ,FRUSTRATED,30MonoWAV/30MonoF2.wav,1,2,2,2,,,,,0,6,6,1,0,1,1,3,,,,,,,,,1,1.1690538270049728,101,001,2019_Sep_04_0905,MusicAffectPsychophysiology2019,3.0.5,60.160025425907385,
To what extent did the music make you feel ,ASHAMED,30MonoWAV/30MonoF2.wav,1,2,2,2,,,,,0,6,6,1,0,2,2,4,,,,,,,,,2,2.4026893609843682,101,001,2019_Sep_04_0905,MusicAffectPsychophysiology2019,3.0.5,60.160025425907385,
To what extent did the music make you feel ,HAPPY,30MonoWAV/30MonoF2.wav,1,2,2,2,,,,,0,6,6,1,0,3,3,6,,,,,,,,,1,2.9691575360193383,101,001,2019_Sep_04_0905,MusicAffectPsychophysiology2019,3.0.5,60.160025425907385,
To what extent did the music make you feel ,GUILTY,30MonoWAV/30MonoF2.wav,1,2,2,2,,,,,0,6,6,1,0,4,4,5,,,,,,,,,1,3.4524646830104757,101,001,2019_Sep_04_0905,MusicAffectPsychophysiology2019,3.0.5,60.160025425907385,
To what extent did the music make you feel ,ANGRY,30MonoWAV/30MonoF2.wav,1,2,2,2,,,,,0,6,6,1,0,5,5,2,,,,,,,,,1,1.6687272709968966,101,001,2019_Sep_04_0905,MusicAffectPsychophysiology2019,3.0.5,60.160025425907385,
To what extent did the music make you feel ,SAD,30MonoWAV/30MonoF2.wav,1,2,2,2,,,,,0,6,6,1,0,6,6,0,,,,,,,,,3,4.552390483993804,101,001,2019_Sep_04_0905,MusicAffectPsychophysiology2019,3.0.5,60.160025425907385,
To what extent did the music make you feel ,TENDER,30MonoWAV/30MonoF2.wav,1,2,2,2,,,,,0,6,6,1,0,7,7,10,,,,,,,,,1,1.3850906739826314,101,001,2019_Sep_04_0905,MusicAffectPsychophysiology2019,3.0.5,60.160025425907385,
To what extent did the music make you feel ,ALERT,30MonoWAV/30MonoF2.wav,1,2,2,2,,,,,0,6,6,1,0,8,8,8,,,,,,,,,3,4.819168089015875,101,001,2019_Sep_04_0905,MusicAffectPsychophysiology2019,3.0.5,60.160025425907385,
To what extent did the music make you feel ,SCARED,30MonoWAV/30MonoF2.wav,1,2,2,2,,,,,0,6,6,1,0,9,9,11,,,,,,,,,3,4.098861423000926,101,001,2019_Sep_04_0905,MusicAffectPsychophysiology2019,3.0.5,60.160025425907385,
To what extent did the music make you feel ,ACTIVE,30MonoWAV/30MonoF2.wav,1,2,2,2,,,,,0,6,6,1,0,10,10,9,,,,,,,,,3,1.65130981898983,101,001,2019_Sep_04_0905,MusicAffectPsychophysiology2019,3.0.5,60.160025425907385,
To what extent did the music make you feel ,ANXIOUS ,30MonoWAV/30MonoF2.wav,1,2,2,2,,,,,0,6,6,1,0,11,11,1,,,,,,,,,4,3.7337990310043097,101,001,2019_Sep_04_0905,MusicAffectPsychophysiology2019,3.0.5,60.160025425907385,
,,30MonoWAV/30MonoF2.wav,1,2,2,2,,,,,0,6,6,1,,,,,,,,,,,,,,,101,001,2019_Sep_04_0905,MusicAffectPsychophysiology2019,3.0.5,60.160025425907385,
To what extent did the music make you feel ,ANGRY,30MonoWAV/30MonoT2.wav,2,1,4,14,,,,,0,7,7,13,0,0,0,2,,,2,2.8020515269890893,2,5.385778872994706,2,1.8501666770025622,1,4.540770540013909,101,001,2019_Sep_04_0905,MusicAffectPsychophysiology2019,3.0.5,60.160025425907385,
To what extent did the music make you feel ,HAPPY,30MonoWAV/30MonoT2.wav,2,1,4,14,,,,,0,7,7,13,0,1,1,6,,,,,,,,,2,2.668646712001646,101,001,2019_Sep_04_0905,MusicAffectPsychophysiology2019,3.0.5,60.160025425907385,
To what extent did the music make you feel ,TENDER,30MonoWAV/30MonoT2.wav,2,1,4,14,,,,,0,7,7,13,0,2,2,10,,,,,,,,,2,1.0733012889977545,101,001,2019_Sep_04_0905,MusicAffectPsychophysiology2019,3.0.5,60.160025425907385,
To what extent did the music make you feel ,ASHAMED,30MonoWAV/30MonoT2.wav,2,1,4,14,,,,,0,7,7,13,0,3,3,4,,,,,,,,,1,1.0536567399976775,101,001,2019_Sep_04_0905,MusicAffectPsychophysiology2019,3.0.5,60.160025425907385,
To what extent did the music make you feel ,ANXIOUS ,30MonoWAV/30MonoT2.wav,2,1,4,14,,,,,0,7,7,13,0,4,4,1,,,,,,,,,1,1.102231015014695,101,001,2019_Sep_04_0905,MusicAffectPsychophysiology2019,3.0.5,60.160025425907385,
To what extent did the music make you feel ,FRUSTRATED,30MonoWAV/30MonoT2.wav,2,1,4,14,,,,,0,7,7,13,0,5,5,3,,,,,,,,,1,1.802890994003974,101,001,2019_Sep_04_0905,MusicAffectPsychophysiology2019,3.0.5,60.160025425907385,
To what extent did the music make you feel ,GUILTY,30MonoWAV/30MonoT2.wav,2,1,4,14,,,,,0,7,7,13,0,6,6,5,,,,,,,,,1,1.3339785739954095,101,001,2019_Sep_04_0905,MusicAffectPsychophysiology2019,3.0.5,60.160025425907385,
To what extent did the music make you feel ,ACTIVE,30MonoWAV/30MonoT2.wav,2,1,4,14,,,,,0,7,7,13,0,7,7,9,,,,,,,,,2,4.570013066986576,101,001,2019_Sep_04_0905,MusicAffectPsychophysiology2019,3.0.5,60.160025425907385,
To what extent did the music make you feel ,SAD,30MonoWAV/30MonoT2.wav,2,1,4,14,,,,,0,7,7,13,0,8,8,0,,,,,,,,,3,5.752089885994792,101,001,2019_Sep_04_0905,MusicAffectPsychophysiology2019,3.0.5,60.160025425907385,
To what extent did the music make you feel ,SCARED,30MonoWAV/30MonoT2.wav,2,1,4,14,,,,,0,7,7,13,0,9,9,11,,,,,,,,,1,6.917840740003157,101,001,2019_Sep_04_0905,MusicAffectPsychophysiology2019,3.0.5,60.160025425907385,
To what extent did the music make you feel ,ALERT,30MonoWAV/30MonoT2.wav,2,1,4,14,,,,,0,7,7,13,0,10,10,8,,,,,,,,,1,2.9864428459841292,101,001,2019_Sep_04_0905,MusicAffectPsychophysiology2019,3.0.5,60.160025425907385,
To what extent did the music make you feel ,EXCITED,30MonoWAV/30MonoT2.wav,2,1,4,14,,,,,0,7,7,13,0,11,11,7,,,,,,,,,2,2.0181257400254253,101,001,2019_Sep_04_0905,MusicAffectPsychophysiology2019,3.0.5,60.160025425907385,
,,30MonoWAV/30MonoT2.wav,2,1,4,14,,,,,0,7,7,13,,,,,,,,,,,,,,,101,001,2019_Sep_04_0905,MusicAffectPsychophysiology2019,3.0.5,60.160025425907385,
To what extent did the music make you feel ,TENDER,30MonoWAV/30MonoS4.wav,1,1,3,12,,,,,0,8,8,11,0,0,0,10,,,1,3.9864990659989417,1,3.535066843003733,1,6.454772327997489,2,2.9228403410234023,101,001,2019_Sep_04_0905,MusicAffectPsychophysiology2019,3.0.5,60.160025425907385,
To what extent did the music make you feel ,HAPPY,30MonoWAV/30MonoS4.wav,1,1,3,12,,,,,0,8,8,11,0,1,1,6,,,,,,,,,1,3.17001218299265,101,001,2019_Sep_04_0905,MusicAffectPsychophysiology2019,3.0.5,60.160025425907385,
To what extent did the music make you feel ,SAD,30MonoWAV/30MonoS4.wav,1,1,3,12,,,,,0,8,8,11,0,2,2,0,,,,,,,,,2,1.6530587789893616,101,001,2019_Sep_04_0905,MusicAffectPsychophysiology2019,3.0.5,60.160025425907385,
To what extent did the music make you feel ,SCARED,30MonoWAV/30MonoS4.wav,1,1,3,12,,,,,0,8,8,11,0,3,3,11,,,,,,,,,1,2.2533621639886405,101,001,2019_Sep_04_0905,MusicAffectPsychophysiology2019,3.0.5,60.160025425907385,
To what extent did the music make you feel ,ASHAMED,30MonoWAV/30MonoS4.wav,1,1,3,12,,,,,0,8,8,11,0,4,4,4,,,,,,,,,1,1.452019128977554,101,001,2019_Sep_04_0905,MusicAffectPsychophysiology2019,3.0.5,60.160025425907385,
To what extent did the music make you feel ,ACTIVE,30MonoWAV/30MonoS4.wav,1,1,3,12,,,,,0,8,8,11,0,5,5,9,,,,,,,,,1,1.2364195070113055,101,001,2019_Sep_04_0905,MusicAffectPsychophysiology2019,3.0.5,60.160025425907385,
To what extent did the music make you feel ,EXCITED,30MonoWAV/30MonoS4.wav,1,1,3,12,,,,,0,8,8,11,0,6,6,7,,,,,,,,,1,2.4000070719921496,101,001,2019_Sep_04_0905,MusicAffectPsychophysiology2019,3.0.5,60.160025425907385,
To what extent did the music make you feel ,ANXIOUS ,30MonoWAV/30MonoS4.wav,1,1,3,12,,,,,0,8,8,11,0,7,7,1,,,,,,,,,2,3.452936037996551,101,001,2019_Sep_04_0905,MusicAffectPsychophysiology2019,3.0.5,60.160025425907385,
To what extent did the music make you feel ,GUILTY,30MonoWAV/30MonoS4.wav,1,1,3,12,,,,,0,8,8,11,0,8,8,5,,,,,,,,,1,1.2021641280152835,101,001,2019_Sep_04_0905,MusicAffectPsychophysiology2019,3.0.5,60.160025425907385,
To what extent did the music make you feel ,ALERT,30MonoWAV/30MonoS4.wav,1,1,3,12,,,,,0,8,8,11,0,9,9,8,,,,,,,,,1,2.3170354789763223,101,001,2019_Sep_04_0905,MusicAffectPsychophysiology2019,3.0.5,60.160025425907385,
To what extent did the music make you feel ,FRUSTRATED,30MonoWAV/30MonoS4.wav,1,1,3,12,,,,,0,8,8,11,0,10,10,3,,,,,,,,,1,3.766780183999799,101,001,2019_Sep_04_0905,MusicAffectPsychophysiology2019,3.0.5,60.160025425907385,
To what extent did the music make you feel ,ANGRY,30MonoWAV/30MonoS4.wav,1,1,3,12,,,,,0,8,8,11,0,11,11,2,,,,,,,,,1,1.1360407450119965,101,001,2019_Sep_04_0905,MusicAffectPsychophysiology2019,3.0.5,60.160025425907385,
,,30MonoWAV/30MonoS4.wav,1,1,3,12,,,,,0,8,8,11,,,,,,,,,,,,,,,101,001,2019_Sep_04_0905,MusicAffectPsychophysiology2019,3.0.5,60.160025425907385,
To what extent did the music make you feel ,ANXIOUS ,30MonoWAV/30MonoF3.wav,1,2,2,3,,,,,0,9,9,2,0,0,0,1,,,3,5.302945403003832,4,5.336117127997568,3,3.10288336200756,1,5.255319460004102,101,001,2019_Sep_04_0905,MusicAffectPsychophysiology2019,3.0.5,60.160025425907385,
To what extent did the music make you feel ,TENDER,30MonoWAV/30MonoF3.wav,1,2,2,3,,,,,0,9,9,2,0,1,1,10,,,,,,,,,1,1.286346967011923,101,001,2019_Sep_04_0905,MusicAffectPsychophysiology2019,3.0.5,60.160025425907385,
To what extent did the music make you feel ,SAD,30MonoWAV/30MonoF3.wav,1,2,2,3,,,,,0,9,9,2,0,2,2,0,,,,,,,,,1,1.3689413889951538,101,001,2019_Sep_04_0905,MusicAffectPsychophysiology2019,3.0.5,60.160025425907385,
To what extent did the music make you feel ,SCARED,30MonoWAV/30MonoF3.wav,1,2,2,3,,,,,0,9,9,2,0,3,3,11,,,,,,,,,1,2.266986119997455,101,001,2019_Sep_04_0905,MusicAffectPsychophysiology2019,3.0.5,60.160025425907385,
To what extent did the music make you feel ,ACTIVE,30MonoWAV/30MonoF3.wav,1,2,2,3,,,,,0,9,9,2,0,4,4,9,,,,,,,,,4,3.486082029994577,101,001,2019_Sep_04_0905,MusicAffectPsychophysiology2019,3.0.5,60.160025425907385,
To what extent did the music make you feel ,ASHAMED,30MonoWAV/30MonoF3.wav,1,2,2,3,,,,,0,9,9,2,0,5,5,4,,,,,,,,,1,2.5691428889986128,101,001,2019_Sep_04_0905,MusicAffectPsychophysiology2019,3.0.5,60.160025425907385,
To what extent did the music make you feel ,FRUSTRATED,30MonoWAV/30MonoF3.wav,1,2,2,3,,,,,0,9,9,2,0,6,6,3,,,,,,,,,1,1.3023017049999908,101,001,2019_Sep_04_0905,MusicAffectPsychophysiology2019,3.0.5,60.160025425907385,
To what extent did the music make you feel ,ANGRY,30MonoWAV/30MonoF3.wav,1,2,2,3,,,,,0,9,9,2,0,7,7,2,,,,,,,,,1,2.0025559730129316,101,001,2019_Sep_04_0905,MusicAffectPsychophysiology2019,3.0.5,60.160025425907385,
To what extent did the music make you feel ,EXCITED,30MonoWAV/30MonoF3.wav,1,2,2,3,,,,,0,9,9,2,0,8,8,7,,,,,,,,,4,2.635259287984809,101,001,2019_Sep_04_0905,MusicAffectPsychophysiology2019,3.0.5,60.160025425907385,
To what extent did the music make you feel ,GUILTY,30MonoWAV/30MonoF3.wav,1,2,2,3,,,,,0,9,9,2,0,9,9,5,,,,,,,,,1,0.917507267993642,101,001,2019_Sep_04_0905,MusicAffectPsychophysiology2019,3.0.5,60.160025425907385,
To what extent did the music make you feel ,ALERT,30MonoWAV/30MonoF3.wav,1,2,2,3,,,,,0,9,9,2,0,10,10,8,,,,,,,,,4,3.650923414999852,101,001,2019_Sep_04_0905,MusicAffectPsychophysiology2019,3.0.5,60.160025425907385,
To what extent did the music make you feel ,HAPPY,30MonoWAV/30MonoF3.wav,1,2,2,3,,,,,0,9,9,2,0,11,11,6,,,,,,,,,3,1.535997736005811,101,001,2019_Sep_04_0905,MusicAffectPsychophysiology2019,3.0.5,60.160025425907385,
,,30MonoWAV/30MonoF3.wav,1,2,2,3,,,,,0,9,9,2,,,,,,,,,,,,,,,101,001,2019_Sep_04_0905,MusicAffectPsychophysiology2019,3.0.5,60.160025425907385,
To what extent did the music make you feel ,FRUSTRATED,30MonoWAV/30MonoF4.wav,1,2,2,4,,,,,0,10,10,3,0,0,0,3,,,4,3.003304181009298,4,1.802891715982696,4,2.4031726400135085,1,2.352687086997321,101,001,2019_Sep_04_0905,MusicAffectPsychophysiology2019,3.0.5,60.160025425907385,
To what extent did the music make you feel ,EXCITED,30MonoWAV/30MonoF4.wav,1,2,2,4,,,,,0,10,10,3,0,1,1,7,,,,,,,,,4,2.5027175580034964,101,001,2019_Sep_04_0905,MusicAffectPsychophysiology2019,3.0.5,60.160025425907385,
To what extent did the music make you feel ,ACTIVE,30MonoWAV/30MonoF4.wav,1,2,2,4,,,,,0,10,10,3,0,2,2,9,,,,,,,,,4,1.4859563170175534,101,001,2019_Sep_04_0905,MusicAffectPsychophysiology2019,3.0.5,60.160025425907385,
To what extent did the music make you feel ,SCARED,30MonoWAV/30MonoF4.wav,1,2,2,4,,,,,0,10,10,3,0,3,3,11,,,,,,,,,1,1.2704352529835887,101,001,2019_Sep_04_0905,MusicAffectPsychophysiology2019,3.0.5,60.160025425907385,
To what extent did the music make you feel ,ANGRY,30MonoWAV/30MonoF4.wav,1,2,2,4,,,,,0,10,10,3,0,4,4,2,,,,,,,,,1,1.3856809829885606,101,001,2019_Sep_04_0905,MusicAffectPsychophysiology2019,3.0.5,60.160025425907385,
To what extent did the music make you feel ,HAPPY,30MonoWAV/30MonoF4.wav,1,2,2,4,,,,,0,10,10,3,0,5,5,6,,,,,,,,,4,3.486092641018331,101,001,2019_Sep_04_0905,MusicAffectPsychophysiology2019,3.0.5,60.160025425907385,
To what extent did the music make you feel ,GUILTY,30MonoWAV/30MonoF4.wav,1,2,2,4,,,,,0,10,10,3,0,6,6,5,,,,,,,,,1,1.102617900003679,101,001,2019_Sep_04_0905,MusicAffectPsychophysiology2019,3.0.5,60.160025425907385,
To what extent did the music make you feel ,TENDER,30MonoWAV/30MonoF4.wav,1,2,2,4,,,,,0,10,10,3,0,7,7,10,,,,,,,,,1,1.068198474997189,101,001,2019_Sep_04_0905,MusicAffectPsychophysiology2019,3.0.5,60.160025425907385,
To what extent did the music make you feel ,ANXIOUS ,30MonoWAV/30MonoF4.wav,1,2,2,4,,,,,0,10,10,3,0,8,8,1,,,,,,,,,2,7.635885218012845,101,001,2019_Sep_04_0905,MusicAffectPsychophysiology2019,3.0.5,60.160025425907385,
To what extent did the music make you feel ,SAD,30MonoWAV/30MonoF4.wav,1,2,2,4,,,,,0,10,10,3,0,9,9,0,,,,,,,,,1,3.4676459019829053,101,001,2019_Sep_04_0905,MusicAffectPsychophysiology2019,3.0.5,60.160025425907385,
To what extent did the music make you feel ,ASHAMED,30MonoWAV/30MonoF4.wav,1,2,2,4,,,,,0,10,10,3,0,10,10,4,,,,,,,,,1,2.3531374750018585,101,001,2019_Sep_04_0905,MusicAffectPsychophysiology2019,3.0.5,60.160025425907385,
To what extent did the music make you feel ,ALERT,30MonoWAV/30MonoF4.wav,1,2,2,4,,,,,0,10,10,3,0,11,11,8,,,,,,,,,4,1.7520363889925648,101,001,2019_Sep_04_0905,MusicAffectPsychophysiology2019,3.0.5,60.160025425907385,
,,30MonoWAV/30MonoF4.wav,1,2,2,4,,,,,0,10,10,3,,,,,,,,,,,,,,,101,001,2019_Sep_04_0905,MusicAffectPsychophysiology2019,3.0.5,60.160025425907385,
To what extent did the music make you feel ,ANGRY,30MonoWAV/30MonoT1.wav,2,1,4,13,,,,,0,11,11,12,0,0,0,2,,,1,5.351676877995487,3,3.3687720310117584,2,2.519918946985854,1,5.319539210991934,101,001,2019_Sep_04_0905,MusicAffectPsychophysiology2019,3.0.5,60.160025425907385,
To what extent did the music make you feel ,FRUSTRATED,30MonoWAV/30MonoT1.wav,2,1,4,13,,,,,0,11,11,12,0,1,1,3,,,,,,,,,2,3.0552795119874645,101,001,2019_Sep_04_0905,MusicAffectPsychophysiology2019,3.0.5,60.160025425907385,
To what extent did the music make you feel ,TENDER,30MonoWAV/30MonoT1.wav,2,1,4,13,,,,,0,11,11,12,0,2,2,10,,,,,,,,,3,5.332382515014615,101,001,2019_Sep_04_0905,MusicAffectPsychophysiology2019,3.0.5,60.160025425907385,
To what extent did the music make you feel ,GUILTY,30MonoWAV/30MonoT1.wav,2,1,4,13,,,,,0,11,11,12,0,3,3,5,,,,,,,,,1,1.2015617550059687,101,001,2019_Sep_04_0905,MusicAffectPsychophysiology2019,3.0.5,60.160025425907385,
To what extent did the music make you feel ,ALERT,30MonoWAV/30MonoT1.wav,2,1,4,13,,,,,0,11,11,12,0,4,4,8,,,,,,,,,1,3.1527474820031784,101,001,2019_Sep_04_0905,MusicAffectPsychophysiology2019,3.0.5,60.160025425907385,
To what extent did the music make you feel ,ANXIOUS ,30MonoWAV/30MonoT1.wav,2,1,4,13,,,,,0,11,11,12,0,5,5,1,,,,,,,,,1,1.953833253995981,101,001,2019_Sep_04_0905,MusicAffectPsychophysiology2019,3.0.5,60.160025425907385,
To what extent did the music make you feel ,ACTIVE,30MonoWAV/30MonoT1.wav,2,1,4,13,,,,,0,11,11,12,0,6,6,9,,,,,,,,,1,1.2711740490049124,101,001,2019_Sep_04_0905,MusicAffectPsychophysiology2019,3.0.5,60.160025425907385,
To what extent did the music make you feel ,EXCITED,30MonoWAV/30MonoT1.wav,2,1,4,13,,,,,0,11,11,12,0,7,7,7,,,,,,,,,2,7.653243512002518,101,001,2019_Sep_04_0905,MusicAffectPsychophysiology2019,3.0.5,60.160025425907385,
To what extent did the music make you feel ,ASHAMED,30MonoWAV/30MonoT1.wav,2,1,4,13,,,,,0,11,11,12,0,8,8,4,,,,,,,,,1,0.9855031470069662,101,001,2019_Sep_04_0905,MusicAffectPsychophysiology2019,3.0.5,60.160025425907385,
To what extent did the music make you feel ,SCARED,30MonoWAV/30MonoT1.wav,2,1,4,13,,,,,0,11,11,12,0,9,9,11,,,,,,,,,1,1.3707581969792955,101,001,2019_Sep_04_0905,MusicAffectPsychophysiology2019,3.0.5,60.160025425907385,
To what extent did the music make you feel ,SAD,30MonoWAV/30MonoT1.wav,2,1,4,13,,,,,0,11,11,12,0,10,10,0,,,,,,,,,1,4.3523046629852615,101,001,2019_Sep_04_0905,MusicAffectPsychophysiology2019,3.0.5,60.160025425907385,
To what extent did the music make you feel ,HAPPY,30MonoWAV/30MonoT1.wav,2,1,4,13,,,,,0,11,11,12,0,11,11,6,,,,,,,,,3,3.766576680005528,101,001,2019_Sep_04_0905,MusicAffectPsychophysiology2019,3.0.5,60.160025425907385,
,,30MonoWAV/30MonoT1.wav,2,1,4,13,,,,,0,11,11,12,,,,,,,,,,,,,,,101,001,2019_Sep_04_0905,MusicAffectPsychophysiology2019,3.0.5,60.160025425907385,
To what extent did the music make you feel ,ANXIOUS ,30MonoWAV/30MonoS3.wav,1,1,3,11,,,,,0,12,12,10,0,0,0,1,,,2,4.718407364998711,1,3.0370866370212752,1,1.71937758900458,2,6.668426774995169,101,001,2019_Sep_04_0905,MusicAffectPsychophysiology2019,3.0.5,60.160025425907385,
To what extent did the music make you feel ,EXCITED,30MonoWAV/30MonoS3.wav,1,1,3,11,,,,,0,12,12,10,0,1,1,7,,,,,,,,,1,1.484982107009273,101,001,2019_Sep_04_0905,MusicAffectPsychophysiology2019,3.0.5,60.160025425907385,
To what extent did the music make you feel ,FRUSTRATED,30MonoWAV/30MonoS3.wav,1,1,3,11,,,,,0,12,12,10,0,2,2,3,,,,,,,,,2,1.6863537000026554,101,001,2019_Sep_04_0905,MusicAffectPsychophysiology2019,3.0.5,60.160025425907385,
To what extent did the music make you feel ,HAPPY,30MonoWAV/30MonoS3.wav,1,1,3,11,,,,,0,12,12,10,0,3,3,6,,,,,,,,,1,1.2352760790090542,101,001,2019_Sep_04_0905,MusicAffectPsychophysiology2019,3.0.5,60.160025425907385,
To what extent did the music make you feel ,SCARED,30MonoWAV/30MonoS3.wav,1,1,3,11,,,,,0,12,12,10,0,4,4,11,,,,,,,,,1,2.2615736890002154,101,001,2019_Sep_04_0905,MusicAffectPsychophysiology2019,3.0.5,60.160025425907385,
To what extent did the music make you feel ,ANGRY,30MonoWAV/30MonoS3.wav,1,1,3,11,,,,,0,12,12,10,0,5,5,2,,,,,,,,,3,4.601380312000401,101,001,2019_Sep_04_0905,MusicAffectPsychophysiology2019,3.0.5,60.160025425907385,
To what extent did the music make you feel ,ACTIVE,30MonoWAV/30MonoS3.wav,1,1,3,11,,,,,0,12,12,10,0,6,6,9,,,,,,,,,1,3.618972393014701,101,001,2019_Sep_04_0905,MusicAffectPsychophysiology2019,3.0.5,60.160025425907385,
To what extent did the music make you feel ,SAD,30MonoWAV/30MonoS3.wav,1,1,3,11,,,,,0,12,12,10,0,7,7,0,,,,,,,,,4,2.25276486799703,101,001,2019_Sep_04_0905,MusicAffectPsychophysiology2019,3.0.5,60.160025425907385,
To what extent did the music make you feel ,ALERT,30MonoWAV/30MonoS3.wav,1,1,3,11,,,,,0,12,12,10,0,8,8,8,,,,,,,,,2,5.053039140009787,101,001,2019_Sep_04_0905,MusicAffectPsychophysiology2019,3.0.5,60.160025425907385,
To what extent did the music make you feel ,TENDER,30MonoWAV/30MonoS3.wav,1,1,3,11,,,,,0,12,12,10,0,9,9,10,,,,,,,,,2,2.667554012994515,101,001,2019_Sep_04_0905,MusicAffectPsychophysiology2019,3.0.5,60.160025425907385,
To what extent did the music make you feel ,ASHAMED,30MonoWAV/30MonoS3.wav,1,1,3,11,,,,,0,12,12,10,0,10,10,4,,,,,,,,,2,4.5352031819929834,101,001,2019_Sep_04_0905,MusicAffectPsychophysiology2019,3.0.5,60.160025425907385,
To what extent did the music make you feel ,GUILTY,30MonoWAV/30MonoS3.wav,1,1,3,11,,,,,0,12,12,10,0,11,11,5,,,,,,,,,2,3.5179147479939274,101,001,2019_Sep_04_0905,MusicAffectPsychophysiology2019,3.0.5,60.160025425907385,
,,30MonoWAV/30MonoS3.wav,1,1,3,11,,,,,0,12,12,10,,,,,,,,,,,,,,,101,001,2019_Sep_04_0905,MusicAffectPsychophysiology2019,3.0.5,60.160025425907385,
To what extent did the music make you feel ,ANXIOUS ,30MonoWAV/30MonoH3.wav,2,2,1,7,,,,,0,13,13,6,0,0,0,1,,,4,4.052005389006808,4,1.267733448999934,4,2.3868847870035097,1,2.4681351949984673,101,001,2019_Sep_04_0905,MusicAffectPsychophysiology2019,3.0.5,60.160025425907385,
To what extent did the music make you feel ,ACTIVE,30MonoWAV/30MonoH3.wav,2,2,1,7,,,,,0,13,13,6,0,1,1,9,,,,,,,,,3,1.8021386220061686,101,001,2019_Sep_04_0905,MusicAffectPsychophysiology2019,3.0.5,60.160025425907385,
To what extent did the music make you feel ,ANGRY,30MonoWAV/30MonoH3.wav,2,2,1,7,,,,,0,13,13,6,0,2,2,2,,,,,,,,,1,1.1526427579810843,101,001,2019_Sep_04_0905,MusicAffectPsychophysiology2019,3.0.5,60.160025425907385,
To what extent did the music make you feel ,HAPPY,30MonoWAV/30MonoH3.wav,2,2,1,7,,,,,0,13,13,6,0,3,3,6,,,,,,,,,4,2.1497573100205045,101,001,2019_Sep_04_0905,MusicAffectPsychophysiology2019,3.0.5,60.160025425907385,
To what extent did the music make you feel ,EXCITED,30MonoWAV/30MonoH3.wav,2,2,1,7,,,,,0,13,13,6,0,4,4,7,,,,,,,,,4,0.8524333440000191,101,001,2019_Sep_04_0905,MusicAffectPsychophysiology2019,3.0.5,60.160025425907385,
To what extent did the music make you feel ,TENDER,30MonoWAV/30MonoH3.wav,2,2,1,7,,,,,0,13,13,6,0,5,5,10,,,,,,,,,2,2.0184859210276045,101,001,2019_Sep_04_0905,MusicAffectPsychophysiology2019,3.0.5,60.160025425907385,
To what extent did the music make you feel ,ASHAMED,30MonoWAV/30MonoH3.wav,2,2,1,7,,,,,0,13,13,6,0,6,6,4,,,,,,,,,1,1.98622477799654,101,001,2019_Sep_04_0905,MusicAffectPsychophysiology2019,3.0.5,60.160025425907385,
To what extent did the music make you feel ,SAD,30MonoWAV/30MonoH3.wav,2,2,1,7,,,,,0,13,13,6,0,7,7,0,,,,,,,,,1,0.7350196590123232,101,001,2019_Sep_04_0905,MusicAffectPsychophysiology2019,3.0.5,60.160025425907385,
To what extent did the music make you feel ,GUILTY,30MonoWAV/30MonoH3.wav,2,2,1,7,,,,,0,13,13,6,0,8,8,5,,,,,,,,,1,1.552471492002951,101,001,2019_Sep_04_0905,MusicAffectPsychophysiology2019,3.0.5,60.160025425907385,
To what extent did the music make you feel ,FRUSTRATED,30MonoWAV/30MonoH3.wav,2,2,1,7,,,,,0,13,13,6,0,9,9,3,,,,,,,,,1,1.085035958996741,101,001,2019_Sep_04_0905,MusicAffectPsychophysiology2019,3.0.5,60.160025425907385,
To what extent did the music make you feel ,SCARED,30MonoWAV/30MonoH3.wav,2,2,1,7,,,,,0,13,13,6,0,10,10,11,,,,,,,,,1,2.3853819200012367,101,001,2019_Sep_04_0905,MusicAffectPsychophysiology2019,3.0.5,60.160025425907385,
To what extent did the music make you feel ,ALERT,30MonoWAV/30MonoH3.wav,2,2,1,7,,,,,0,13,13,6,0,11,11,8,,,,,,,,,3,1.1698779270227533,101,001,2019_Sep_04_0905,MusicAffectPsychophysiology2019,3.0.5,60.160025425907385,
,,30MonoWAV/30MonoH3.wav,2,2,1,7,,,,,0,13,13,6,,,,,,,,,,,,,,,101,001,2019_Sep_04_0905,MusicAffectPsychophysiology2019,3.0.5,60.160025425907385,
To what extent did the music make you feel ,ALERT,30MonoWAV/30MonoH2.wav,2,2,1,6,,,,,0,14,14,5,0,0,0,8,,,3,3.836081727000419,4,3.25382876599906,4,2.33414133900078,3,2.2521409390028566,101,001,2019_Sep_04_0905,MusicAffectPsychophysiology2019,3.0.5,60.160025425907385,
To what extent did the music make you feel ,EXCITED,30MonoWAV/30MonoH2.wav,2,2,1,6,,,,,0,14,14,5,0,1,1,7,,,,,,,,,4,1.1358043480140623,101,001,2019_Sep_04_0905,MusicAffectPsychophysiology2019,3.0.5,60.160025425907385,
To what extent did the music make you feel ,SAD,30MonoWAV/30MonoH2.wav,2,2,1,6,,,,,0,14,14,5,0,2,2,0,,,,,,,,,1,1.2356557860039175,101,001,2019_Sep_04_0905,MusicAffectPsychophysiology2019,3.0.5,60.160025425907385,
To what extent did the music make you feel ,TENDER,30MonoWAV/30MonoH2.wav,2,2,1,6,,,,,0,14,14,5,0,3,3,10,,,,,,,,,3,1.7020335249835625,101,001,2019_Sep_04_0905,MusicAffectPsychophysiology2019,3.0.5,60.160025425907385,
To what extent did the music make you feel ,ANGRY,30MonoWAV/30MonoH2.wav,2,2,1,6,,,,,0,14,14,5,0,4,4,2,,,,,,,,,1,2.367828746995656,101,001,2019_Sep_04_0905,MusicAffectPsychophysiology2019,3.0.5,60.160025425907385,
To what extent did the music make you feel ,ACTIVE,30MonoWAV/30MonoH2.wav,2,2,1,6,,,,,0,14,14,5,0,5,5,9,,,,,,,,,1,2.437024860002566,101,001,2019_Sep_04_0905,MusicAffectPsychophysiology2019,3.0.5,60.160025425907385,
To what extent did the music make you feel ,GUILTY,30MonoWAV/30MonoH2.wav,2,2,1,6,,,,,0,14,14,5,0,6,6,5,,,,,,,,,1,0.9538884409994353,101,001,2019_Sep_04_0905,MusicAffectPsychophysiology2019,3.0.5,60.160025425907385,
To what extent did the music make you feel ,ANXIOUS ,30MonoWAV/30MonoH2.wav,2,2,1,6,,,,,0,14,14,5,0,7,7,1,,,,,,,,,1,0.719552962022135,101,001,2019_Sep_04_0905,MusicAffectPsychophysiology2019,3.0.5,60.160025425907385,
To what extent did the music make you feel ,FRUSTRATED,30MonoWAV/30MonoH2.wav,2,2,1,6,,,,,0,14,14,5,0,8,8,3,,,,,,,,,1,1.72839605199988,101,001,2019_Sep_04_0905,MusicAffectPsychophysiology2019,3.0.5,60.160025425907385,
To what extent did the music make you feel ,HAPPY,30MonoWAV/30MonoH2.wav,2,2,1,6,,,,,0,14,14,5,0,9,9,6,,,,,,,,,4,1.3522359740163665,101,001,2019_Sep_04_0905,MusicAffectPsychophysiology2019,3.0.5,60.160025425907385,
To what extent did the music make you feel ,SCARED,30MonoWAV/30MonoH2.wav,2,2,1,6,,,,,0,14,14,5,0,10,10,11,,,,,,,,,1,1.1701531879953109,101,001,2019_Sep_04_0905,MusicAffectPsychophysiology2019,3.0.5,60.160025425907385,
To what extent did the music make you feel ,ASHAMED,30MonoWAV/30MonoH2.wav,2,2,1,6,,,,,0,14,14,5,0,11,11,4,,,,,,,,,1,1.052250782988267,101,001,2019_Sep_04_0905,MusicAffectPsychophysiology2019,3.0.5,60.160025425907385,
,,30MonoWAV/30MonoH2.wav,2,2,1,6,,,,,0,14,14,5,,,,,,,,,,,,,,,101,001,2019_Sep_04_0905,MusicAffectPsychophysiology2019,3.0.5,60.160025425907385,
To what extent did the music make you feel ,FRUSTRATED,30MonoWAV/30MonoH1.wav,2,2,1,5,,,,,0,15,15,4,0,0,0,3,,,5,5.534853532008128,4,1.686733849986922,4,1.1676901559985708,1,1.8398268180026207,101,001,2019_Sep_04_0905,MusicAffectPsychophysiology2019,3.0.5,60.160025425907385,
To what extent did the music make you feel ,GUILTY,30MonoWAV/30MonoH1.wav,2,2,1,5,,,,,0,15,15,4,0,1,1,5,,,,,,,,,1,0.8201368419977371,101,001,2019_Sep_04_0905,MusicAffectPsychophysiology2019,3.0.5,60.160025425907385,
To what extent did the music make you feel ,SCARED,30MonoWAV/30MonoH1.wav,2,2,1,5,,,,,0,15,15,4,0,2,2,11,,,,,,,,,1,0.9058708259835839,101,001,2019_Sep_04_0905,MusicAffectPsychophysiology2019,3.0.5,60.160025425907385,
To what extent did the music make you feel ,HAPPY,30MonoWAV/30MonoH1.wav,2,2,1,5,,,,,0,15,15,4,0,3,3,6,,,,,,,,,4,1.502471688989317,101,001,2019_Sep_04_0905,MusicAffectPsychophysiology2019,3.0.5,60.160025425907385,
To what extent did the music make you feel ,ALERT,30MonoWAV/30MonoH1.wav,2,2,1,5,,,,,0,15,15,4,0,4,4,8,,,,,,,,,4,1.4528555730066728,101,001,2019_Sep_04_0905,MusicAffectPsychophysiology2019,3.0.5,60.160025425907385,
To what extent did the music make you feel ,ASHAMED,30MonoWAV/30MonoH1.wav,2,2,1,5,,,,,0,15,15,4,0,5,5,4,,,,,,,,,1,1.5020241139864083,101,001,2019_Sep_04_0905,MusicAffectPsychophysiology2019,3.0.5,60.160025425907385,
To what extent did the music make you feel ,TENDER,30MonoWAV/30MonoH1.wav,2,2,1,5,,,,,0,15,15,4,0,6,6,10,,,,,,,,,3,1.352831023017643,101,001,2019_Sep_04_0905,MusicAffectPsychophysiology2019,3.0.5,60.160025425907385,
To what extent did the music make you feel ,ACTIVE,30MonoWAV/30MonoH1.wav,2,2,1,5,,,,,0,15,15,4,0,7,7,9,,,,,,,,,4,1.3197124330035876,101,001,2019_Sep_04_0905,MusicAffectPsychophysiology2019,3.0.5,60.160025425907385,
To what extent did the music make you feel ,ANGRY,30MonoWAV/30MonoH1.wav,2,2,1,5,,,,,0,15,15,4,0,8,8,2,,,,,,,,,1,0.8196026829828043,101,001,2019_Sep_04_0905,MusicAffectPsychophysiology2019,3.0.5,60.160025425907385,
To what extent did the music make you feel ,SAD,30MonoWAV/30MonoH1.wav,2,2,1,5,,,,,0,15,15,4,0,9,9,0,,,,,,,,,1,0.9853773670038208,101,001,2019_Sep_04_0905,MusicAffectPsychophysiology2019,3.0.5,60.160025425907385,
To what extent did the music make you feel ,ANXIOUS ,30MonoWAV/30MonoH1.wav,2,2,1,5,,,,,0,15,15,4,0,10,10,1,,,,,,,,,1,1.022018763993401,101,001,2019_Sep_04_0905,MusicAffectPsychophysiology2019,3.0.5,60.160025425907385,
To what extent did the music make you feel ,EXCITED,30MonoWAV/30MonoH1.wav,2,2,1,5,,,,,0,15,15,4,0,11,11,7,,,,,,,,,4,1.251589988998603,101,001,2019_Sep_04_0905,MusicAffectPsychophysiology2019,3.0.5,60.160025425907385,
,,30MonoWAV/30MonoH1.wav,2,2,1,5,,,,,0,15,15,4,,,,,,,,,,,,,,,101,001,2019_Sep_04_0905,MusicAffectPsychophysiology2019,3.0.5,60.160025425907385,
To what extent did the music make you feel ,ALERT,30MonoWAV/30MonoT2.wav,2,1,4,14,,,,,1,0,16,13,0,0,0,8,,,1,3.202923606004333,1,1.901768861018354,1,1.6167812189960387,1,5.766020509996451,101,001,2019_Sep_04_0905,MusicAffectPsychophysiology2019,3.0.5,60.160025425907385,
To what extent did the music make you feel ,EXCITED,30MonoWAV/30MonoT2.wav,2,1,4,14,,,,,1,0,16,13,0,1,1,7,,,,,,,,,1,2.216684431012254,101,001,2019_Sep_04_0905,MusicAffectPsychophysiology2019,3.0.5,60.160025425907385,
To what extent did the music make you feel ,FRUSTRATED,30MonoWAV/30MonoT2.wav,2,1,4,14,,,,,1,0,16,13,0,2,2,3,,,,,,,,,1,2.135901041008765,101,001,2019_Sep_04_0905,MusicAffectPsychophysiology2019,3.0.5,60.160025425907385,
To what extent did the music make you feel ,TENDER,30MonoWAV/30MonoT2.wav,2,1,4,14,,,,,1,0,16,13,0,3,3,10,,,,,,,,,3,2.230894169973908,101,001,2019_Sep_04_0905,MusicAffectPsychophysiology2019,3.0.5,60.160025425907385,
To what extent did the music make you feel ,ANXIOUS ,30MonoWAV/30MonoT2.wav,2,1,4,14,,,,,1,0,16,13,0,4,4,1,,,,,,,,,2,3.119979969022097,101,001,2019_Sep_04_0905,MusicAffectPsychophysiology2019,3.0.5,60.160025425907385,
To what extent did the music make you feel ,ACTIVE,30MonoWAV/30MonoT2.wav,2,1,4,14,,,,,1,0,16,13,0,5,5,9,,,,,,,,,1,1.1695893070136663,101,001,2019_Sep_04_0905,MusicAffectPsychophysiology2019,3.0.5,60.160025425907385,
To what extent did the music make you feel ,HAPPY,30MonoWAV/30MonoT2.wav,2,1,4,14,,,,,1,0,16,13,0,6,6,6,,,,,,,,,1,1.0861296620278154,101,001,2019_Sep_04_0905,MusicAffectPsychophysiology2019,3.0.5,60.160025425907385,
To what extent did the music make you feel ,SAD,30MonoWAV/30MonoT2.wav,2,1,4,14,,,,,1,0,16,13,0,7,7,0,,,,,,,,,5,2.2524990400124807,101,001,2019_Sep_04_0905,MusicAffectPsychophysiology2019,3.0.5,60.160025425907385,
To what extent did the music make you feel ,GUILTY,30MonoWAV/30MonoT2.wav,2,1,4,14,,,,,1,0,16,13,0,8,8,5,,,,,,,,,2,2.335149079997791,101,001,2019_Sep_04_0905,MusicAffectPsychophysiology2019,3.0.5,60.160025425907385,
To what extent did the music make you feel ,ASHAMED,30MonoWAV/30MonoT2.wav,2,1,4,14,,,,,1,0,16,13,0,9,9,4,,,,,,,,,2,1.1676178959896788,101,001,2019_Sep_04_0905,MusicAffectPsychophysiology2019,3.0.5,60.160025425907385,
To what extent did the music make you feel ,ANGRY,30MonoWAV/30MonoT2.wav,2,1,4,14,,,,,1,0,16,13,0,10,10,2,,,,,,,,,1,2.7127574869955424,101,001,2019_Sep_04_0905,MusicAffectPsychophysiology2019,3.0.5,60.160025425907385,
To what extent did the music make you feel ,SCARED,30MonoWAV/30MonoT2.wav,2,1,4,14,,,,,1,0,16,13,0,11,11,11,,,,,,,,,1,1.3349895339924842,101,001,2019_Sep_04_0905,MusicAffectPsychophysiology2019,3.0.5,60.160025425907385,
,,30MonoWAV/30MonoT2.wav,2,1,4,14,,,,,1,0,16,13,,,,,,,,,,,,,,,101,001,2019_Sep_04_0905,MusicAffectPsychophysiology2019,3.0.5,60.160025425907385,
To what extent did the music make you feel ,ASHAMED,30MonoWAV/30MonoF2.wav,1,2,2,2,,,,,1,1,17,1,0,0,0,4,,,3,4.019923068000935,1,6.41871491598431,1,2.3851056919957045,1,2.656770317989867,101,001,2019_Sep_04_0905,MusicAffectPsychophysiology2019,3.0.5,60.160025425907385,
To what extent did the music make you feel ,ALERT,30MonoWAV/30MonoF2.wav,1,2,2,2,,,,,1,1,17,1,0,1,1,8,,,,,,,,,2,1.889815678994637,101,001,2019_Sep_04_0905,MusicAffectPsychophysiology2019,3.0.5,60.160025425907385,
To what extent did the music make you feel ,SCARED,30MonoWAV/30MonoF2.wav,1,2,2,2,,,,,1,1,17,1,0,2,2,11,,,,,,,,,2,3.670109141006833,101,001,2019_Sep_04_0905,MusicAffectPsychophysiology2019,3.0.5,60.160025425907385,
To what extent did the music make you feel ,HAPPY,30MonoWAV/30MonoF2.wav,1,2,2,2,,,,,1,1,17,1,0,3,3,6,,,,,,,,,1,1.0191986940044444,101,001,2019_Sep_04_0905,MusicAffectPsychophysiology2019,3.0.5,60.160025425907385,
To what extent did the music make you feel ,ACTIVE,30MonoWAV/30MonoF2.wav,1,2,2,2,,,,,1,1,17,1,0,4,4,9,,,,,,,,,2,4.636286774009932,101,001,2019_Sep_04_0905,MusicAffectPsychophysiology2019,3.0.5,60.160025425907385,
To what extent did the music make you feel ,TENDER,30MonoWAV/30MonoF2.wav,1,2,2,2,,,,,1,1,17,1,0,5,5,10,,,,,,,,,1,1.0559762849879917,101,001,2019_Sep_04_0905,MusicAffectPsychophysiology2019,3.0.5,60.160025425907385,
To what extent did the music make you feel ,GUILTY,30MonoWAV/30MonoF2.wav,1,2,2,2,,,,,1,1,17,1,0,6,6,5,,,,,,,,,1,1.2514968749892432,101,001,2019_Sep_04_0905,MusicAffectPsychophysiology2019,3.0.5,60.160025425907385,
To what extent did the music make you feel ,SAD,30MonoWAV/30MonoF2.wav,1,2,2,2,,,,,1,1,17,1,0,7,7,0,,,,,,,,,1,1.7197463830234483,101,001,2019_Sep_04_0905,MusicAffectPsychophysiology2019,3.0.5,60.160025425907385,
To what extent did the music make you feel ,ANXIOUS ,30MonoWAV/30MonoF2.wav,1,2,2,2,,,,,1,1,17,1,0,8,8,1,,,,,,,,,2,2.968650887021795,101,001,2019_Sep_04_0905,MusicAffectPsychophysiology2019,3.0.5,60.160025425907385,
To what extent did the music make you feel ,EXCITED,30MonoWAV/30MonoF2.wav,1,2,2,2,,,,,1,1,17,1,0,9,9,7,,,,,,,,,2,3.435649952007225,101,001,2019_Sep_04_0905,MusicAffectPsychophysiology2019,3.0.5,60.160025425907385,
To what extent did the music make you feel ,ANGRY,30MonoWAV/30MonoF2.wav,1,2,2,2,,,,,1,1,17,1,0,10,10,2,,,,,,,,,2,3.1349703790037893,101,001,2019_Sep_04_0905,MusicAffectPsychophysiology2019,3.0.5,60.160025425907385,
To what extent did the music make you feel ,FRUSTRATED,30MonoWAV/30MonoF2.wav,1,2,2,2,,,,,1,1,17,1,0,11,11,3,,,,,,,,,3,2.0528580239915755,101,001,2019_Sep_04_0905,MusicAffectPsychophysiology2019,3.0.5,60.160025425907385,
,,30MonoWAV/30MonoF2.wav,1,2,2,2,,,,,1,1,17,1,,,,,,,,,,,,,,,101,001,2019_Sep_04_0905,MusicAffectPsychophysiology2019,3.0.5,60.160025425907385,
To what extent did the music make you feel ,HAPPY,30MonoWAV/30MonoF1.wav,1,2,2,1,,,,,1,2,18,0,0,0,0,6,,,3,2.9851818880124483,3,2.1199639450060204,3,3.218877392995637,2,4.929407514980994,101,001,2019_Sep_04_0905,MusicAffectPsychophysiology2019,3.0.5,60.160025425907385,
To what extent did the music make you feel ,GUILTY,30MonoWAV/30MonoF1.wav,1,2,2,1,,,,,1,2,18,0,0,1,1,5,,,,,,,,,1,0.9196998820116278,101,001,2019_Sep_04_0905,MusicAffectPsychophysiology2019,3.0.5,60.160025425907385,
To what extent did the music make you feel ,FRUSTRATED,30MonoWAV/30MonoF1.wav,1,2,2,1,,,,,1,2,18,0,0,2,2,3,,,,,,,,,3,1.5779615550127346,101,001,2019_Sep_04_0905,MusicAffectPsychophysiology2019,3.0.5,60.160025425907385,
To what extent did the music make you feel ,TENDER,30MonoWAV/30MonoF1.wav,1,2,2,1,,,,,1,2,18,0,0,3,3,10,,,,,,,,,1,1.4200380309775937,101,001,2019_Sep_04_0905,MusicAffectPsychophysiology2019,3.0.5,60.160025425907385,
To what extent did the music make you feel ,ASHAMED,30MonoWAV/30MonoF1.wav,1,2,2,1,,,,,1,2,18,0,0,4,4,4,,,,,,,,,1,2.7866764059872366,101,001,2019_Sep_04_0905,MusicAffectPsychophysiology2019,3.0.5,60.160025425907385,
To what extent did the music make you feel ,ALERT,30MonoWAV/30MonoF1.wav,1,2,2,1,,,,,1,2,18,0,0,5,5,8,,,,,,,,,3,1.4039385139767546,101,001,2019_Sep_04_0905,MusicAffectPsychophysiology2019,3.0.5,60.160025425907385,
To what extent did the music make you feel ,EXCITED,30MonoWAV/30MonoF1.wav,1,2,2,1,,,,,1,2,18,0,0,6,6,7,,,,,,,,,3,2.0196821659919806,101,001,2019_Sep_04_0905,MusicAffectPsychophysiology2019,3.0.5,60.160025425907385,
To what extent did the music make you feel ,ACTIVE,30MonoWAV/30MonoF1.wav,1,2,2,1,,,,,1,2,18,0,0,7,7,9,,,,,,,,,4,2.2201530800084583,101,001,2019_Sep_04_0905,MusicAffectPsychophysiology2019,3.0.5,60.160025425907385,
To what extent did the music make you feel ,SCARED,30MonoWAV/30MonoF1.wav,1,2,2,1,,,,,1,2,18,0,0,8,8,11,,,,,,,,,1,1.5690750860085245,101,001,2019_Sep_04_0905,MusicAffectPsychophysiology2019,3.0.5,60.160025425907385,
To what extent did the music make you feel ,ANGRY,30MonoWAV/30MonoF1.wav,1,2,2,1,,,,,1,2,18,0,0,9,9,2,,,,,,,,,1,3.668382462026784,101,001,2019_Sep_04_0905,MusicAffectPsychophysiology2019,3.0.5,60.160025425907385,
To what extent did the music make you feel ,SAD,30MonoWAV/30MonoF1.wav,1,2,2,1,,,,,1,2,18,0,0,10,10,0,,,,,,,,,1,3.4334240010066424,101,001,2019_Sep_04_0905,MusicAffectPsychophysiology2019,3.0.5,60.160025425907385,
To what extent did the music make you feel ,ANXIOUS ,30MonoWAV/30MonoF1.wav,1,2,2,1,,,,,1,2,18,0,0,11,11,1,,,,,,,,,2,1.0002202350005973,101,001,2019_Sep_04_0905,MusicAffectPsychophysiology2019,3.0.5,60.160025425907385,
,,30MonoWAV/30MonoF1.wav,1,2,2,1,,,,,1,2,18,0,,,,,,,,,,,,,,,101,001,2019_Sep_04_0905,MusicAffectPsychophysiology2019,3.0.5,60.160025425907385,
To what extent did the music make you feel ,ANXIOUS ,30MonoWAV/30MonoS2.wav,1,1,3,10,,,,,1,3,19,9,0,0,0,1,,,1,3.1170581720070913,2,5.76830538600916,1,2.7025549459795,1,4.554651053971611,101,001,2019_Sep_04_0905,MusicAffectPsychophysiology2019,3.0.5,60.160025425907385,
To what extent did the music make you feel ,ACTIVE,30MonoWAV/30MonoS2.wav,1,1,3,10,,,,,1,3,19,9,0,1,1,9,,,,,,,,,2,1.333421727991663,101,001,2019_Sep_04_0905,MusicAffectPsychophysiology2019,3.0.5,60.160025425907385,
To what extent did the music make you feel ,ANGRY,30MonoWAV/30MonoS2.wav,1,1,3,10,,,,,1,3,19,9,0,2,2,2,,,,,,,,,3,2.719952771993121,101,001,2019_Sep_04_0905,MusicAffectPsychophysiology2019,3.0.5,60.160025425907385,
To what extent did the music make you feel ,FRUSTRATED,30MonoWAV/30MonoS2.wav,1,1,3,10,,,,,1,3,19,9,0,3,3,3,,,,,,,,,3,2.97222733401577,101,001,2019_Sep_04_0905,MusicAffectPsychophysiology2019,3.0.5,60.160025425907385,
To what extent did the music make you feel ,EXCITED,30MonoWAV/30MonoS2.wav,1,1,3,10,,,,,1,3,19,9,0,4,4,7,,,,,,,,,1,3.1182319640065543,101,001,2019_Sep_04_0905,MusicAffectPsychophysiology2019,3.0.5,60.160025425907385,
To what extent did the music make you feel ,SAD,30MonoWAV/30MonoS2.wav,1,1,3,10,,,,,1,3,19,9,0,5,5,0,,,,,,,,,4,1.5530808519979473,101,001,2019_Sep_04_0905,MusicAffectPsychophysiology2019,3.0.5,60.160025425907385,
To what extent did the music make you feel ,HAPPY,30MonoWAV/30MonoS2.wav,1,1,3,10,,,,,1,3,19,9,0,6,6,6,,,,,,,,,1,0.8856439469964243,101,001,2019_Sep_04_0905,MusicAffectPsychophysiology2019,3.0.5,60.160025425907385,
To what extent did the music make you feel ,TENDER,30MonoWAV/30MonoS2.wav,1,1,3,10,,,,,1,3,19,9,0,7,7,10,,,,,,,,,4,1.4183876509778202,101,001,2019_Sep_04_0905,MusicAffectPsychophysiology2019,3.0.5,60.160025425907385,
To what extent did the music make you feel ,ALERT,30MonoWAV/30MonoS2.wav,1,1,3,10,,,,,1,3,19,9,0,8,8,8,,,,,,,,,4,3.502223549003247,101,001,2019_Sep_04_0905,MusicAffectPsychophysiology2019,3.0.5,60.160025425907385,
To what extent did the music make you feel ,ASHAMED,30MonoWAV/30MonoS2.wav,1,1,3,10,,,,,1,3,19,9,0,9,9,4,,,,,,,,,1,1.1209294620202854,101,001,2019_Sep_04_0905,MusicAffectPsychophysiology2019,3.0.5,60.160025425907385,
To what extent did the music make you feel ,GUILTY,30MonoWAV/30MonoS2.wav,1,1,3,10,,,,,1,3,19,9,0,10,10,5,,,,,,,,,1,1.1514810230000876,101,001,2019_Sep_04_0905,MusicAffectPsychophysiology2019,3.0.5,60.160025425907385,
To what extent did the music make you feel ,SCARED,30MonoWAV/30MonoS2.wav,1,1,3,10,,,,,1,3,19,9,0,11,11,11,,,,,,,,,1,0.8867946520040277,101,001,2019_Sep_04_0905,MusicAffectPsychophysiology2019,3.0.5,60.160025425907385,
,,30MonoWAV/30MonoS2.wav,1,1,3,10,,,,,1,3,19,9,,,,,,,,,,,,,,,101,001,2019_Sep_04_0905,MusicAffectPsychophysiology2019,3.0.5,60.160025425907385,
To what extent did the music make you feel ,EXCITED,30MonoWAV/30MonoH1.wav,2,2,1,5,,,,,1,4,20,4,0,0,0,7,,,4,4.269508489989676,4,3.535971409000922,4,1.7016597079928033,4,3.4807763650023844,101,001,2019_Sep_04_0905,MusicAffectPsychophysiology2019,3.0.5,60.160025425907385,
To what extent did the music make you feel ,FRUSTRATED,30MonoWAV/30MonoH1.wav,2,2,1,5,,,,,1,4,20,4,0,1,1,3,,,,,,,,,1,1.21221927399165,101,001,2019_Sep_04_0905,MusicAffectPsychophysiology2019,3.0.5,60.160025425907385,
To what extent did the music make you feel ,ASHAMED,30MonoWAV/30MonoH1.wav,2,2,1,5,,,,,1,4,20,4,0,2,2,4,,,,,,,,,1,1.487444961006986,101,001,2019_Sep_04_0905,MusicAffectPsychophysiology2019,3.0.5,60.160025425907385,
To what extent did the music make you feel ,TENDER,30MonoWAV/30MonoH1.wav,2,2,1,5,,,,,1,4,20,4,0,3,3,10,,,,,,,,,2,1.5865866170206573,101,001,2019_Sep_04_0905,MusicAffectPsychophysiology2019,3.0.5,60.160025425907385,
To what extent did the music make you feel ,SAD,30MonoWAV/30MonoH1.wav,2,2,1,5,,,,,1,4,20,4,0,4,4,0,,,,,,,,,1,1.321013351000147,101,001,2019_Sep_04_0905,MusicAffectPsychophysiology2019,3.0.5,60.160025425907385,
To what extent did the music make you feel ,SCARED,30MonoWAV/30MonoH1.wav,2,2,1,5,,,,,1,4,20,4,0,5,5,11,,,,,,,,,1,0.9812596639967524,101,001,2019_Sep_04_0905,MusicAffectPsychophysiology2019,3.0.5,60.160025425907385,
To what extent did the music make you feel ,HAPPY,30MonoWAV/30MonoH1.wav,2,2,1,5,,,,,1,4,20,4,0,6,6,6,,,,,,,,,4,1.0028333140071481,101,001,2019_Sep_04_0905,MusicAffectPsychophysiology2019,3.0.5,60.160025425907385,
To what extent did the music make you feel ,GUILTY,30MonoWAV/30MonoH1.wav,2,2,1,5,,,,,1,4,20,4,0,7,7,5,,,,,,,,,1,0.9353183099883609,101,001,2019_Sep_04_0905,MusicAffectPsychophysiology2019,3.0.5,60.160025425907385,
To what extent did the music make you feel ,ALERT,30MonoWAV/30MonoH1.wav,2,2,1,5,,,,,1,4,20,4,0,8,8,8,,,,,,,,,3,3.269349597976543,101,001,2019_Sep_04_0905,MusicAffectPsychophysiology2019,3.0.5,60.160025425907385,
To what extent did the music make you feel ,ANGRY,30MonoWAV/30MonoH1.wav,2,2,1,5,,,,,1,4,20,4,0,9,9,2,,,,,,,,,1,1.1007187659852207,101,001,2019_Sep_04_0905,MusicAffectPsychophysiology2019,3.0.5,60.160025425907385,
To what extent did the music make you feel ,ANXIOUS ,30MonoWAV/30MonoH1.wav,2,2,1,5,,,,,1,4,20,4,0,10,10,1,,,,,,,,,1,0.852592637995258,101,001,2019_Sep_04_0905,MusicAffectPsychophysiology2019,3.0.5,60.160025425907385,
To what extent did the music make you feel ,ACTIVE,30MonoWAV/30MonoH1.wav,2,2,1,5,,,,,1,4,20,4,0,11,11,9,,,,,,,,,3,2.2693556050071493,101,001,2019_Sep_04_0905,MusicAffectPsychophysiology2019,3.0.5,60.160025425907385,
,,30MonoWAV/30MonoH1.wav,2,2,1,5,,,,,1,4,20,4,,,,,,,,,,,,,,,101,001,2019_Sep_04_0905,MusicAffectPsychophysiology2019,3.0.5,60.160025425907385,
To what extent did the music make you feel ,HAPPY,30MonoWAV/30MonoH2.wav,2,2,1,6,,,,,1,5,21,5,0,0,0,6,,,1,5.551843605004251,2,1.4528687500278465,2,1.4875237619853579,2,4.1068401550001,101,001,2019_Sep_04_0905,MusicAffectPsychophysiology2019,3.0.5,60.160025425907385,
To what extent did the music make you feel ,ALERT,30MonoWAV/30MonoH2.wav,2,2,1,6,,,,,1,5,21,5,0,1,1,8,,,,,,,,,1,1.2028093069966417,101,001,2019_Sep_04_0905,MusicAffectPsychophysiology2019,3.0.5,60.160025425907385,
To what extent did the music make you feel ,FRUSTRATED,30MonoWAV/30MonoH2.wav,2,2,1,6,,,,,1,5,21,5,0,2,2,3,,,,,,,,,2,1.6394812719954643,101,001,2019_Sep_04_0905,MusicAffectPsychophysiology2019,3.0.5,60.160025425907385,
To what extent did the music make you feel ,SAD,30MonoWAV/30MonoH2.wav,2,2,1,6,,,,,1,5,21,5,0,3,3,0,,,,,,,,,1,3.3532100479933433,101,001,2019_Sep_04_0905,MusicAffectPsychophysiology2019,3.0.5,60.160025425907385,
To what extent did the music make you feel ,ASHAMED,30MonoWAV/30MonoH2.wav,2,2,1,6,,,,,1,5,21,5,0,4,4,4,,,,,,,,,1,0.7518608450191095,101,001,2019_Sep_04_0905,MusicAffectPsychophysiology2019,3.0.5,60.160025425907385,
To what extent did the music make you feel ,SCARED,30MonoWAV/30MonoH2.wav,2,2,1,6,,,,,1,5,21,5,0,5,5,11,,,,,,,,,1,0.7691550609888509,101,001,2019_Sep_04_0905,MusicAffectPsychophysiology2019,3.0.5,60.160025425907385,
To what extent did the music make you feel ,TENDER,30MonoWAV/30MonoH2.wav,2,2,1,6,,,,,1,5,21,5,0,6,6,10,,,,,,,,,3,1.5701234320004005,101,001,2019_Sep_04_0905,MusicAffectPsychophysiology2019,3.0.5,60.160025425907385,
To what extent did the music make you feel ,ACTIVE,30MonoWAV/30MonoH2.wav,2,2,1,6,,,,,1,5,21,5,0,7,7,9,,,,,,,,,1,2.73523357702652,101,001,2019_Sep_04_0905,MusicAffectPsychophysiology2019,3.0.5,60.160025425907385,
To what extent did the music make you feel ,EXCITED,30MonoWAV/30MonoH2.wav,2,2,1,6,,,,,1,5,21,5,0,8,8,7,,,,,,,,,2,4.969825195992598,101,001,2019_Sep_04_0905,MusicAffectPsychophysiology2019,3.0.5,60.160025425907385,
To what extent did the music make you feel ,ANXIOUS ,30MonoWAV/30MonoH2.wav,2,2,1,6,,,,,1,5,21,5,0,9,9,1,,,,,,,,,1,1.90177728200797,101,001,2019_Sep_04_0905,MusicAffectPsychophysiology2019,3.0.5,60.160025425907385,
To what extent did the music make you feel ,ANGRY,30MonoWAV/30MonoH2.wav,2,2,1,6,,,,,1,5,21,5,0,10,10,2,,,,,,,,,1,3.550079829990864,101,001,2019_Sep_04_0905,MusicAffectPsychophysiology2019,3.0.5,60.160025425907385,
To what extent did the music make you feel ,GUILTY,30MonoWAV/30MonoH2.wav,2,2,1,6,,,,,1,5,21,5,0,11,11,5,,,,,,,,,1,1.0866961179999635,101,001,2019_Sep_04_0905,MusicAffectPsychophysiology2019,3.0.5,60.160025425907385,
,,30MonoWAV/30MonoH2.wav,2,2,1,6,,,,,1,5,21,5,,,,,,,,,,,,,,,101,001,2019_Sep_04_0905,MusicAffectPsychophysiology2019,3.0.5,60.160025425907385,
To what extent did the music make you feel ,EXCITED,30MonoWAV/30MonoF4.wav,1,2,2,4,,,,,1,6,22,3,0,0,0,7,,,4,5.218968369998038,4,1.8191823129891418,4,1.369452791986987,4,2.9032801929861307,101,001,2019_Sep_04_0905,MusicAffectPsychophysiology2019,3.0.5,60.160025425907385,
To what extent did the music make you feel ,TENDER,30MonoWAV/30MonoF4.wav,1,2,2,4,,,,,1,6,22,3,0,1,1,10,,,,,,,,,1,1.2028481010056566,101,001,2019_Sep_04_0905,MusicAffectPsychophysiology2019,3.0.5,60.160025425907385,
To what extent did the music make you feel ,SAD,30MonoWAV/30MonoF4.wav,1,2,2,4,,,,,1,6,22,3,0,2,2,0,,,,,,,,,1,1.186231803992996,101,001,2019_Sep_04_0905,MusicAffectPsychophysiology2019,3.0.5,60.160025425907385,
To what extent did the music make you feel ,ACTIVE,30MonoWAV/30MonoF4.wav,1,2,2,4,,,,,1,6,22,3,0,3,3,9,,,,,,,,,4,1.3528923369885888,101,001,2019_Sep_04_0905,MusicAffectPsychophysiology2019,3.0.5,60.160025425907385,
To what extent did the music make you feel ,GUILTY,30MonoWAV/30MonoF4.wav,1,2,2,4,,,,,1,6,22,3,0,4,4,5,,,,,,,,,1,1.0166325510072056,101,001,2019_Sep_04_0905,MusicAffectPsychophysiology2019,3.0.5,60.160025425907385,
To what extent did the music make you feel ,SCARED,30MonoWAV/30MonoF4.wav,1,2,2,4,,,,,1,6,22,3,0,5,5,11,,,,,,,,,1,0.9861445610004012,101,001,2019_Sep_04_0905,MusicAffectPsychophysiology2019,3.0.5,60.160025425907385,
To what extent did the music make you feel ,ANGRY,30MonoWAV/30MonoF4.wav,1,2,2,4,,,,,1,6,22,3,0,6,6,2,,,,,,,,,4,1.5532329709967598,101,001,2019_Sep_04_0905,MusicAffectPsychophysiology2019,3.0.5,60.160025425907385,
To what extent did the music make you feel ,ASHAMED,30MonoWAV/30MonoF4.wav,1,2,2,4,,,,,1,6,22,3,0,7,7,4,,,,,,,,,1,2.318895173986675,101,001,2019_Sep_04_0905,MusicAffectPsychophysiology2019,3.0.5,60.160025425907385,
To what extent did the music make you feel ,HAPPY,30MonoWAV/30MonoF4.wav,1,2,2,4,,,,,1,6,22,3,0,8,8,6,,,,,,,,,3,6.584569365979405,101,001,2019_Sep_04_0905,MusicAffectPsychophysiology2019,3.0.5,60.160025425907385,
To what extent did the music make you feel ,FRUSTRATED,30MonoWAV/30MonoF4.wav,1,2,2,4,,,,,1,6,22,3,0,9,9,3,,,,,,,,,1,2.252704212005483,101,001,2019_Sep_04_0905,MusicAffectPsychophysiology2019,3.0.5,60.160025425907385,
To what extent did the music make you feel ,ALERT,30MonoWAV/30MonoF4.wav,1,2,2,4,,,,,1,6,22,3,0,10,10,8,,,,,,,,,4,1.6030916890013032,101,001,2019_Sep_04_0905,MusicAffectPsychophysiology2019,3.0.5,60.160025425907385,
To what extent did the music make you feel ,ANXIOUS ,30MonoWAV/30MonoF4.wav,1,2,2,4,,,,,1,6,22,3,0,11,11,1,,,,,,,,,1,2.8351383020053618,101,001,2019_Sep_04_0905,MusicAffectPsychophysiology2019,3.0.5,60.160025425907385,
,,30MonoWAV/30MonoF4.wav,1,2,2,4,,,,,1,6,22,3,,,,,,,,,,,,,,,101,001,2019_Sep_04_0905,MusicAffectPsychophysiology2019,3.0.5,60.160025425907385,
To what extent did the music make you feel ,SCARED,30MonoWAV/30MonoH4.wav,2,2,1,8,,,,,1,7,23,7,0,0,0,11,,,2,2.5029574100044556,2,2.30258656598744,3,3.636260913015576,1,3.491157721990021,101,001,2019_Sep_04_0905,MusicAffectPsychophysiology2019,3.0.5,60.160025425907385,
To what extent did the music make you feel ,ACTIVE,30MonoWAV/30MonoH4.wav,2,2,1,8,,,,,1,7,23,7,0,1,1,9,,,,,,,,,2,2.019085392996203,101,001,2019_Sep_04_0905,MusicAffectPsychophysiology2019,3.0.5,60.160025425907385,
To what extent did the music make you feel ,EXCITED,30MonoWAV/30MonoH4.wav,2,2,1,8,,,,,1,7,23,7,0,2,2,7,,,,,,,,,2,1.4363623110111803,101,001,2019_Sep_04_0905,MusicAffectPsychophysiology2019,3.0.5,60.160025425907385,
To what extent did the music make you feel ,ANGRY,30MonoWAV/30MonoH4.wav,2,2,1,8,,,,,1,7,23,7,0,3,3,2,,,,,,,,,1,2.5188150820031296,101,001,2019_Sep_04_0905,MusicAffectPsychophysiology2019,3.0.5,60.160025425907385,
To what extent did the music make you feel ,TENDER,30MonoWAV/30MonoH4.wav,2,2,1,8,,,,,1,7,23,7,0,4,4,10,,,,,,,,,1,1.003443794004852,101,001,2019_Sep_04_0905,MusicAffectPsychophysiology2019,3.0.5,60.160025425907385,
To what extent did the music make you feel ,ANXIOUS ,30MonoWAV/30MonoH4.wav,2,2,1,8,,,,,1,7,23,7,0,5,5,1,,,,,,,,,1,3.770254329981981,101,001,2019_Sep_04_0905,MusicAffectPsychophysiology2019,3.0.5,60.160025425907385,
To what extent did the music make you feel ,FRUSTRATED,30MonoWAV/30MonoH4.wav,2,2,1,8,,,,,1,7,23,7,0,6,6,3,,,,,,,,,2,1.0576469329826068,101,001,2019_Sep_04_0905,MusicAffectPsychophysiology2019,3.0.5,60.160025425907385,
To what extent did the music make you feel ,SAD,30MonoWAV/30MonoH4.wav,2,2,1,8,,,,,1,7,23,7,0,7,7,0,,,,,,,,,1,2.0681580990203656,101,001,2019_Sep_04_0905,MusicAffectPsychophysiology2019,3.0.5,60.160025425907385,
To what extent did the music make you feel ,ASHAMED,30MonoWAV/30MonoH4.wav,2,2,1,8,,,,,1,7,23,7,0,8,8,4,,,,,,,,,1,0.8697109839995392,101,001,2019_Sep_04_0905,MusicAffectPsychophysiology2019,3.0.5,60.160025425907385,
To what extent did the music make you feel ,GUILTY,30MonoWAV/30MonoH4.wav,2,2,1,8,,,,,1,7,23,7,0,9,9,5,,,,,,,,,1,1.3369159509893507,101,001,2019_Sep_04_0905,MusicAffectPsychophysiology2019,3.0.5,60.160025425907385,
To what extent did the music make you feel ,ALERT,30MonoWAV/30MonoH4.wav,2,2,1,8,,,,,1,7,23,7,0,10,10,8,,,,,,,,,2,1.6851454860006925,101,001,2019_Sep_04_0905,MusicAffectPsychophysiology2019,3.0.5,60.160025425907385,
To what extent did the music make you feel ,HAPPY,30MonoWAV/30MonoH4.wav,2,2,1,8,,,,,1,7,23,7,0,11,11,6,,,,,,,,,3,1.5525168679887429,101,001,2019_Sep_04_0905,MusicAffectPsychophysiology2019,3.0.5,60.160025425907385,
,,30MonoWAV/30MonoH4.wav,2,2,1,8,,,,,1,7,23,7,,,,,,,,,,,,,,,101,001,2019_Sep_04_0905,MusicAffectPsychophysiology2019,3.0.5,60.160025425907385,
To what extent did the music make you feel ,ACTIVE,30MonoWAV/30MonoF3.wav,1,2,2,3,,,,,1,8,24,2,0,0,0,9,,,4,3.5183423919952475,4,3.8037575490016025,3,3.203130494017387,4,2.5701116129930597,101,001,2019_Sep_04_0905,MusicAffectPsychophysiology2019,3.0.5,60.160025425907385,
To what extent did the music make you feel ,ANXIOUS ,30MonoWAV/30MonoF3.wav,1,2,2,3,,,,,1,8,24,2,0,1,1,1,,,,,,,,,1,2.1711111549811903,101,001,2019_Sep_04_0905,MusicAffectPsychophysiology2019,3.0.5,60.160025425907385,
To what extent did the music make you feel ,EXCITED,30MonoWAV/30MonoF3.wav,1,2,2,3,,,,,1,8,24,2,0,2,2,7,,,,,,,,,4,1.3872051819926128,101,001,2019_Sep_04_0905,MusicAffectPsychophysiology2019,3.0.5,60.160025425907385,
To what extent did the music make you feel ,ASHAMED,30MonoWAV/30MonoF3.wav,1,2,2,3,,,,,1,8,24,2,0,3,3,4,,,,,,,,,1,1.1529190779838245,101,001,2019_Sep_04_0905,MusicAffectPsychophysiology2019,3.0.5,60.160025425907385,
To what extent did the music make you feel ,TENDER,30MonoWAV/30MonoF3.wav,1,2,2,3,,,,,1,8,24,2,0,4,4,10,,,,,,,,,1,1.1514059889886994,101,001,2019_Sep_04_0905,MusicAffectPsychophysiology2019,3.0.5,60.160025425907385,
To what extent did the music make you feel ,FRUSTRATED,30MonoWAV/30MonoF3.wav,1,2,2,3,,,,,1,8,24,2,0,5,5,3,,,,,,,,,1,2.869624390004901,101,001,2019_Sep_04_0905,MusicAffectPsychophysiology2019,3.0.5,60.160025425907385,
To what extent did the music make you feel ,SCARED,30MonoWAV/30MonoF3.wav,1,2,2,3,,,,,1,8,24,2,0,6,6,11,,,,,,,,,1,1.301735297020059,101,001,2019_Sep_04_0905,MusicAffectPsychophysiology2019,3.0.5,60.160025425907385,
To what extent did the music make you feel ,HAPPY,30MonoWAV/30MonoF3.wav,1,2,2,3,,,,,1,8,24,2,0,7,7,6,,,,,,,,,3,7.199296128004789,101,001,2019_Sep_04_0905,MusicAffectPsychophysiology2019,3.0.5,60.160025425907385,
To what extent did the music make you feel ,GUILTY,30MonoWAV/30MonoF3.wav,1,2,2,3,,,,,1,8,24,2,0,8,8,5,,,,,,,,,1,1.1165335999976378,101,001,2019_Sep_04_0905,MusicAffectPsychophysiology2019,3.0.5,60.160025425907385,
To what extent did the music make you feel ,SAD,30MonoWAV/30MonoF3.wav,1,2,2,3,,,,,1,8,24,2,0,9,9,0,,,,,,,,,1,2.6853714319877326,101,001,2019_Sep_04_0905,MusicAffectPsychophysiology2019,3.0.5,60.160025425907385,
To what extent did the music make you feel ,ANGRY,30MonoWAV/30MonoF3.wav,1,2,2,3,,,,,1,8,24,2,0,10,10,2,,,,,,,,,3,3.3339685529936105,101,001,2019_Sep_04_0905,MusicAffectPsychophysiology2019,3.0.5,60.160025425907385,
To what extent did the music make you feel ,ALERT,30MonoWAV/30MonoF3.wav,1,2,2,3,,,,,1,8,24,2,0,11,11,8,,,,,,,,,3,2.0021197400055826,101,001,2019_Sep_04_0905,MusicAffectPsychophysiology2019,3.0.5,60.160025425907385,
,,30MonoWAV/30MonoF3.wav,1,2,2,3,,,,,1,8,24,2,,,,,,,,,,,,,,,101,001,2019_Sep_04_0905,MusicAffectPsychophysiology2019,3.0.5,60.160025425907385,
To what extent did the music make you feel ,EXCITED,30MonoWAV/30MonoS1.wav,1,1,3,9,,,,,1,9,25,8,0,0,0,7,,,1,3.187792597018415,2,2.0025638779916335,2,2.0198472169868182,1,2.5885673140001018,101,001,2019_Sep_04_0905,MusicAffectPsychophysiology2019,3.0.5,60.160025425907385,
To what extent did the music make you feel ,ANXIOUS ,30MonoWAV/30MonoS1.wav,1,1,3,9,,,,,1,9,25,8,0,1,1,1,,,,,,,,,1,1.319319917995017,101,001,2019_Sep_04_0905,MusicAffectPsychophysiology2019,3.0.5,60.160025425907385,
To what extent did the music make you feel ,GUILTY,30MonoWAV/30MonoS1.wav,1,1,3,9,,,,,1,9,25,8,0,2,2,5,,,,,,,,,1,2.651159135013586,101,001,2019_Sep_04_0905,MusicAffectPsychophysiology2019,3.0.5,60.160025425907385,
To what extent did the music make you feel ,ANGRY,30MonoWAV/30MonoS1.wav,1,1,3,9,,,,,1,9,25,8,0,3,3,2,,,,,,,,,1,1.3681086289871018,101,001,2019_Sep_04_0905,MusicAffectPsychophysiology2019,3.0.5,60.160025425907385,
To what extent did the music make you feel ,ACTIVE,30MonoWAV/30MonoS1.wav,1,1,3,9,,,,,1,9,25,8,0,4,4,9,,,,,,,,,1,3.1522452859790064,101,001,2019_Sep_04_0905,MusicAffectPsychophysiology2019,3.0.5,60.160025425907385,
To what extent did the music make you feel ,FRUSTRATED,30MonoWAV/30MonoS1.wav,1,1,3,9,,,,,1,9,25,8,0,5,5,3,,,,,,,,,2,1.2375477089954074,101,001,2019_Sep_04_0905,MusicAffectPsychophysiology2019,3.0.5,60.160025425907385,
To what extent did the music make you feel ,ALERT,30MonoWAV/30MonoS1.wav,1,1,3,9,,,,,1,9,25,8,0,6,6,8,,,,,,,,,1,3.9352602520084474,101,001,2019_Sep_04_0905,MusicAffectPsychophysiology2019,3.0.5,60.160025425907385,
To what extent did the music make you feel ,HAPPY,30MonoWAV/30MonoS1.wav,1,1,3,9,,,,,1,9,25,8,0,7,7,6,,,,,,,,,3,1.5036293939920142,101,001,2019_Sep_04_0905,MusicAffectPsychophysiology2019,3.0.5,60.160025425907385,
To what extent did the music make you feel ,SAD,30MonoWAV/30MonoS1.wav,1,1,3,9,,,,,1,9,25,8,0,8,8,0,,,,,,,,,2,2.186512271000538,101,001,2019_Sep_04_0905,MusicAffectPsychophysiology2019,3.0.5,60.160025425907385,
To what extent did the music make you feel ,ASHAMED,30MonoWAV/30MonoS1.wav,1,1,3,9,,,,,1,9,25,8,0,9,9,4,,,,,,,,,1,1.8688846550066955,101,001,2019_Sep_04_0905,MusicAffectPsychophysiology2019,3.0.5,60.160025425907385,
To what extent did the music make you feel ,TENDER,30MonoWAV/30MonoS1.wav,1,1,3,9,,,,,1,9,25,8,0,10,10,10,,,,,,,,,2,1.2500351709895767,101,001,2019_Sep_04_0905,MusicAffectPsychophysiology2019,3.0.5,60.160025425907385,
To what extent did the music make you feel ,SCARED,30MonoWAV/30MonoS1.wav,1,1,3,9,,,,,1,9,25,8,0,11,11,11,,,,,,,,,1,1.8343133199959993,101,001,2019_Sep_04_0905,MusicAffectPsychophysiology2019,3.0.5,60.160025425907385,
,,30MonoWAV/30MonoS1.wav,1,1,3,9,,,,,1,9,25,8,,,,,,,,,,,,,,,101,001,2019_Sep_04_0905,MusicAffectPsychophysiology2019,3.0.5,60.160025425907385,
To what extent did the music make you feel ,FRUSTRATED,30MonoWAV/30MonoT3.wav,2,1,4,15,,,,,1,10,26,14,0,0,0,3,,,1,3.770080838992726,1,2.9031208669766784,1,1.5522860439959913,2,1.7874152179865632,101,001,2019_Sep_04_0905,MusicAffectPsychophysiology2019,3.0.5,60.160025425907385,
To what extent did the music make you feel ,ALERT,30MonoWAV/30MonoT3.wav,2,1,4,15,,,,,1,10,26,14,0,1,1,8,,,,,,,,,1,1.7523485679994337,101,001,2019_Sep_04_0905,MusicAffectPsychophysiology2019,3.0.5,60.160025425907385,
To what extent did the music make you feel ,HAPPY,30MonoWAV/30MonoT3.wav,2,1,4,15,,,,,1,10,26,14,0,2,2,6,,,,,,,,,1,1.1026806669833604,101,001,2019_Sep_04_0905,MusicAffectPsychophysiology2019,3.0.5,60.160025425907385,
To what extent did the music make you feel ,SCARED,30MonoWAV/30MonoT3.wav,2,1,4,15,,,,,1,10,26,14,0,3,3,11,,,,,,,,,1,0.9024720239976887,101,001,2019_Sep_04_0905,MusicAffectPsychophysiology2019,3.0.5,60.160025425907385,
To what extent did the music make you feel ,ASHAMED,30MonoWAV/30MonoT3.wav,2,1,4,15,,,,,1,10,26,14,0,4,4,4,,,,,,,,,2,5.018381856003543,101,001,2019_Sep_04_0905,MusicAffectPsychophysiology2019,3.0.5,60.160025425907385,
To what extent did the music make you feel ,ANXIOUS ,30MonoWAV/30MonoT3.wav,2,1,4,15,,,,,1,10,26,14,0,5,5,1,,,,,,,,,1,1.6860824410105124,101,001,2019_Sep_04_0905,MusicAffectPsychophysiology2019,3.0.5,60.160025425907385,
To what extent did the music make you feel ,TENDER,30MonoWAV/30MonoT3.wav,2,1,4,15,,,,,1,10,26,14,0,6,6,10,,,,,,,,,2,1.3204551380185876,101,001,2019_Sep_04_0905,MusicAffectPsychophysiology2019,3.0.5,60.160025425907385,
To what extent did the music make you feel ,GUILTY,30MonoWAV/30MonoT3.wav,2,1,4,15,,,,,1,10,26,14,0,7,7,5,,,,,,,,,1,2.0520260430057533,101,001,2019_Sep_04_0905,MusicAffectPsychophysiology2019,3.0.5,60.160025425907385,
To what extent did the music make you feel ,ACTIVE,30MonoWAV/30MonoT3.wav,2,1,4,15,,,,,1,10,26,14,0,8,8,9,,,,,,,,,1,1.4363203610118944,101,001,2019_Sep_04_0905,MusicAffectPsychophysiology2019,3.0.5,60.160025425907385,
To what extent did the music make you feel ,SAD,30MonoWAV/30MonoT3.wav,2,1,4,15,,,,,1,10,26,14,0,9,9,0,,,,,,,,,4,1.3688807589933276,101,001,2019_Sep_04_0905,MusicAffectPsychophysiology2019,3.0.5,60.160025425907385,
To what extent did the music make you feel ,EXCITED,30MonoWAV/30MonoT3.wav,2,1,4,15,,,,,1,10,26,14,0,10,10,7,,,,,,,,,1,1.5534416500013322,101,001,2019_Sep_04_0905,MusicAffectPsychophysiology2019,3.0.5,60.160025425907385,
To what extent did the music make you feel ,ANGRY,30MonoWAV/30MonoT3.wav,2,1,4,15,,,,,1,10,26,14,0,11,11,2,,,,,,,,,1,3.235091654001735,101,001,2019_Sep_04_0905,MusicAffectPsychophysiology2019,3.0.5,60.160025425907385,
,,30MonoWAV/30MonoT3.wav,2,1,4,15,,,,,1,10,26,14,,,,,,,,,,,,,,,101,001,2019_Sep_04_0905,MusicAffectPsychophysiology2019,3.0.5,60.160025425907385,
To what extent did the music make you feel ,ALERT,30MonoWAV/30MonoH3.wav,2,2,1,7,,,,,1,11,27,6,0,0,0,8,,,2,3.8196644579875283,2,2.2365175250160974,2,2.5519504679832608,1,5.957416076009395,101,001,2019_Sep_04_0905,MusicAffectPsychophysiology2019,3.0.5,60.160025425907385,
To what extent did the music make you feel ,GUILTY,30MonoWAV/30MonoH3.wav,2,2,1,7,,,,,1,11,27,6,0,1,1,5,,,,,,,,,1,1.4191712210013065,101,001,2019_Sep_04_0905,MusicAffectPsychophysiology2019,3.0.5,60.160025425907385,
To what extent did the music make you feel ,ANXIOUS ,30MonoWAV/30MonoH3.wav,2,2,1,7,,,,,1,11,27,6,0,2,2,1,,,,,,,,,1,2.469639716000529,101,001,2019_Sep_04_0905,MusicAffectPsychophysiology2019,3.0.5,60.160025425907385,
To what extent did the music make you feel ,EXCITED,30MonoWAV/30MonoH3.wav,2,2,1,7,,,,,1,11,27,6,0,3,3,7,,,,,,,,,2,3.3686654540069867,101,001,2019_Sep_04_0905,MusicAffectPsychophysiology2019,3.0.5,60.160025425907385,
To what extent did the music make you feel ,ACTIVE,30MonoWAV/30MonoH3.wav,2,2,1,7,,,,,1,11,27,6,0,4,4,9,,,,,,,,,2,1.1359296109876595,101,001,2019_Sep_04_0905,MusicAffectPsychophysiology2019,3.0.5,60.160025425907385,
To what extent did the music make you feel ,SCARED,30MonoWAV/30MonoH3.wav,2,2,1,7,,,,,1,11,27,6,0,5,5,11,,,,,,,,,1,1.3521297999832314,101,001,2019_Sep_04_0905,MusicAffectPsychophysiology2019,3.0.5,60.160025425907385,
To what extent did the music make you feel ,ANGRY,30MonoWAV/30MonoH3.wav,2,2,1,7,,,,,1,11,27,6,0,6,6,2,,,,,,,,,1,1.818741263996344,101,001,2019_Sep_04_0905,MusicAffectPsychophysiology2019,3.0.5,60.160025425907385,
To what extent did the music make you feel ,SAD,30MonoWAV/30MonoH3.wav,2,2,1,7,,,,,1,11,27,6,0,7,7,0,,,,,,,,,1,2.736068893020274,101,001,2019_Sep_04_0905,MusicAffectPsychophysiology2019,3.0.5,60.160025425907385,
To what extent did the music make you feel ,TENDER,30MonoWAV/30MonoH3.wav,2,2,1,7,,,,,1,11,27,6,0,8,8,10,,,,,,,,,2,2.1195702080149204,101,001,2019_Sep_04_0905,MusicAffectPsychophysiology2019,3.0.5,60.160025425907385,
To what extent did the music make you feel ,ASHAMED,30MonoWAV/30MonoH3.wav,2,2,1,7,,,,,1,11,27,6,0,9,9,4,,,,,,,,,1,1.5039185229979921,101,001,2019_Sep_04_0905,MusicAffectPsychophysiology2019,3.0.5,60.160025425907385,
To what extent did the music make you feel ,HAPPY,30MonoWAV/30MonoH3.wav,2,2,1,7,,,,,1,11,27,6,0,10,10,6,,,,,,,,,1,1.3179368510027416,101,001,2019_Sep_04_0905,MusicAffectPsychophysiology2019,3.0.5,60.160025425907385,
To what extent did the music make you feel ,FRUSTRATED,30MonoWAV/30MonoH3.wav,2,2,1,7,,,,,1,11,27,6,0,11,11,3,,,,,,,,,2,1.2164613420027308,101,001,2019_Sep_04_0905,MusicAffectPsychophysiology2019,3.0.5,60.160025425907385,
,,30MonoWAV/30MonoH3.wav,2,2,1,7,,,,,1,11,27,6,,,,,,,,,,,,,,,101,001,2019_Sep_04_0905,MusicAffectPsychophysiology2019,3.0.5,60.160025425907385,
To what extent did the music make you feel ,TENDER,30MonoWAV/30MonoT4.wav,2,1,4,16,,,,,1,12,28,15,0,0,0,10,,,1,3.868464839004446,1,3.5844877200142946,1,1.7834149150003213,1,3.9703184560057707,101,001,2019_Sep_04_0905,MusicAffectPsychophysiology2019,3.0.5,60.160025425907385,
To what extent did the music make you feel ,ACTIVE,30MonoWAV/30MonoT4.wav,2,1,4,16,,,,,1,12,28,15,0,1,1,9,,,,,,,,,1,1.6360884350142442,101,001,2019_Sep_04_0905,MusicAffectPsychophysiology2019,3.0.5,60.160025425907385,
To what extent did the music make you feel ,FRUSTRATED,30MonoWAV/30MonoT4.wav,2,1,4,16,,,,,1,12,28,15,0,2,2,3,,,,,,,,,3,1.6030689160106704,101,001,2019_Sep_04_0905,MusicAffectPsychophysiology2019,3.0.5,60.160025425907385,
To what extent did the music make you feel ,ANGRY,30MonoWAV/30MonoT4.wav,2,1,4,16,,,,,1,12,28,15,0,3,3,2,,,,,,,,,1,1.169445205014199,101,001,2019_Sep_04_0905,MusicAffectPsychophysiology2019,3.0.5,60.160025425907385,
To what extent did the music make you feel ,ALERT,30MonoWAV/30MonoT4.wav,2,1,4,16,,,,,1,12,28,15,0,4,4,8,,,,,,,,,1,3.9855097609979566,101,001,2019_Sep_04_0905,MusicAffectPsychophysiology2019,3.0.5,60.160025425907385,
To what extent did the music make you feel ,GUILTY,30MonoWAV/30MonoT4.wav,2,1,4,16,,,,,1,12,28,15,0,5,5,5,,,,,,,,,1,1.6358137130155228,101,001,2019_Sep_04_0905,MusicAffectPsychophysiology2019,3.0.5,60.160025425907385,
To what extent did the music make you feel ,SAD,30MonoWAV/30MonoT4.wav,2,1,4,16,,,,,1,12,28,15,0,6,6,0,,,,,,,,,4,1.151224145985907,101,001,2019_Sep_04_0905,MusicAffectPsychophysiology2019,3.0.5,60.160025425907385,
To what extent did the music make you feel ,EXCITED,30MonoWAV/30MonoT4.wav,2,1,4,16,,,,,1,12,28,15,0,7,7,7,,,,,,,,,1,2.58607540599769,101,001,2019_Sep_04_0905,MusicAffectPsychophysiology2019,3.0.5,60.160025425907385,
To what extent did the music make you feel ,HAPPY,30MonoWAV/30MonoT4.wav,2,1,4,16,,,,,1,12,28,15,0,8,8,6,,,,,,,,,1,1.1842658569803461,101,001,2019_Sep_04_0905,MusicAffectPsychophysiology2019,3.0.5,60.160025425907385,
To what extent did the music make you feel ,SCARED,30MonoWAV/30MonoT4.wav,2,1,4,16,,,,,1,12,28,15,0,9,9,11,,,,,,,,,1,2.9185935410205275,101,001,2019_Sep_04_0905,MusicAffectPsychophysiology2019,3.0.5,60.160025425907385,
To what extent did the music make you feel ,ANXIOUS ,30MonoWAV/30MonoT4.wav,2,1,4,16,,,,,1,12,28,15,0,10,10,1,,,,,,,,,2,1.3859639859874733,101,001,2019_Sep_04_0905,MusicAffectPsychophysiology2019,3.0.5,60.160025425907385,
To what extent did the music make you feel ,ASHAMED,30MonoWAV/30MonoT4.wav,2,1,4,16,,,,,1,12,28,15,0,11,11,4,,,,,,,,,1,2.2836759880010504,101,001,2019_Sep_04_0905,MusicAffectPsychophysiology2019,3.0.5,60.160025425907385,
,,30MonoWAV/30MonoT4.wav,2,1,4,16,,,,,1,12,28,15,,,,,,,,,,,,,,,101,001,2019_Sep_04_0905,MusicAffectPsychophysiology2019,3.0.5,60.160025425907385,
To what extent did the music make you feel ,ACTIVE,30MonoWAV/30MonoS4.wav,1,1,3,12,,,,,1,13,29,11,0,0,0,9,,,1,3.6671340399770997,1,3.1183370070066303,1,1.4525357699894812,1,4.20853192100185,101,001,2019_Sep_04_0905,MusicAffectPsychophysiology2019,3.0.5,60.160025425907385,
To what extent did the music make you feel ,EXCITED,30MonoWAV/30MonoS4.wav,1,1,3,12,,,,,1,13,29,11,0,1,1,7,,,,,,,,,1,2.851875280000968,101,001,2019_Sep_04_0905,MusicAffectPsychophysiology2019,3.0.5,60.160025425907385,
To what extent did the music make you feel ,SCARED,30MonoWAV/30MonoS4.wav,1,1,3,12,,,,,1,13,29,11,0,2,2,11,,,,,,,,,1,5.602821233012946,101,001,2019_Sep_04_0905,MusicAffectPsychophysiology2019,3.0.5,60.160025425907385,
To what extent did the music make you feel ,ANXIOUS ,30MonoWAV/30MonoS4.wav,1,1,3,12,,,,,1,13,29,11,0,3,3,1,,,,,,,,,2,2.303564292989904,101,001,2019_Sep_04_0905,MusicAffectPsychophysiology2019,3.0.5,60.160025425907385,
To what extent did the music make you feel ,HAPPY,30MonoWAV/30MonoS4.wav,1,1,3,12,,,,,1,13,29,11,0,4,4,6,,,,,,,,,1,1.320302233012626,101,001,2019_Sep_04_0905,MusicAffectPsychophysiology2019,3.0.5,60.160025425907385,
To what extent did the music make you feel ,TENDER,30MonoWAV/30MonoS4.wav,1,1,3,12,,,,,1,13,29,11,0,5,5,10,,,,,,,,,1,1.1687202129978687,101,001,2019_Sep_04_0905,MusicAffectPsychophysiology2019,3.0.5,60.160025425907385,
To what extent did the music make you feel ,GUILTY,30MonoWAV/30MonoS4.wav,1,1,3,12,,,,,1,13,29,11,0,6,6,5,,,,,,,,,1,1.219111343001714,101,001,2019_Sep_04_0905,MusicAffectPsychophysiology2019,3.0.5,60.160025425907385,
To what extent did the music make you feel ,FRUSTRATED,30MonoWAV/30MonoS4.wav,1,1,3,12,,,,,1,13,29,11,0,7,7,3,,,,,,,,,2,2.271669045992894,101,001,2019_Sep_04_0905,MusicAffectPsychophysiology2019,3.0.5,60.160025425907385,
To what extent did the music make you feel ,ALERT,30MonoWAV/30MonoS4.wav,1,1,3,12,,,,,1,13,29,11,0,8,8,8,,,,,,,,,1,1.7845979740086477,101,001,2019_Sep_04_0905,MusicAffectPsychophysiology2019,3.0.5,60.160025425907385,
To what extent did the music make you feel ,SAD,30MonoWAV/30MonoS4.wav,1,1,3,12,,,,,1,13,29,11,0,9,9,0,,,,,,,,,5,3.0192558160051703,101,001,2019_Sep_04_0905,MusicAffectPsychophysiology2019,3.0.5,60.160025425907385,
To what extent did the music make you feel ,ASHAMED,30MonoWAV/30MonoS4.wav,1,1,3,12,,,,,1,13,29,11,0,10,10,4,,,,,,,,,2,5.601764350984013,101,001,2019_Sep_04_0905,MusicAffectPsychophysiology2019,3.0.5,60.160025425907385,
To what extent did the music make you feel ,ANGRY,30MonoWAV/30MonoS4.wav,1,1,3,12,,,,,1,13,29,11,0,11,11,2,,,,,,,,,1,1.7198572899797,101,001,2019_Sep_04_0905,MusicAffectPsychophysiology2019,3.0.5,60.160025425907385,
,,30MonoWAV/30MonoS4.wav,1,1,3,12,,,,,1,13,29,11,,,,,,,,,,,,,,,101,001,2019_Sep_04_0905,MusicAffectPsychophysiology2019,3.0.5,60.160025425907385,
To what extent did the music make you feel ,SCARED,30MonoWAV/30MonoT1.wav,2,1,4,13,,,,,1,14,30,12,0,0,0,11,,,2,8.701949445996433,2,3.1870081129891332,2,2.851929227996152,1,1.4227522560104262,101,001,2019_Sep_04_0905,MusicAffectPsychophysiology2019,3.0.5,60.160025425907385,
To what extent did the music make you feel ,ASHAMED,30MonoWAV/30MonoT1.wav,2,1,4,13,,,,,1,14,30,12,0,1,1,4,,,,,,,,,1,2.0004514809988905,101,001,2019_Sep_04_0905,MusicAffectPsychophysiology2019,3.0.5,60.160025425907385,
To what extent did the music make you feel ,ACTIVE,30MonoWAV/30MonoT1.wav,2,1,4,13,,,,,1,14,30,12,0,2,2,9,,,,,,,,,1,2.4689028410066385,101,001,2019_Sep_04_0905,MusicAffectPsychophysiology2019,3.0.5,60.160025425907385,
To what extent did the music make you feel ,ANXIOUS ,30MonoWAV/30MonoT1.wav,2,1,4,13,,,,,1,14,30,12,0,3,3,1,,,,,,,,,3,4.486685305018909,101,001,2019_Sep_04_0905,MusicAffectPsychophysiology2019,3.0.5,60.160025425907385,
To what extent did the music make you feel ,EXCITED,30MonoWAV/30MonoT1.wav,2,1,4,13,,,,,1,14,30,12,0,4,4,7,,,,,,,,,1,2.735231569997268,101,001,2019_Sep_04_0905,MusicAffectPsychophysiology2019,3.0.5,60.160025425907385,
To what extent did the music make you feel ,FRUSTRATED,30MonoWAV/30MonoT1.wav,2,1,4,13,,,,,1,14,30,12,0,5,5,3,,,,,,,,,2,2.8021093389834277,101,001,2019_Sep_04_0905,MusicAffectPsychophysiology2019,3.0.5,60.160025425907385,
To what extent did the music make you feel ,HAPPY,30MonoWAV/30MonoT1.wav,2,1,4,13,,,,,1,14,30,12,0,6,6,6,,,,,,,,,2,5.936518790986156,101,001,2019_Sep_04_0905,MusicAffectPsychophysiology2019,3.0.5,60.160025425907385,
To what extent did the music make you feel ,SAD,30MonoWAV/30MonoT1.wav,2,1,4,13,,,,,1,14,30,12,0,7,7,0,,,,,,,,,3,2.686297438980546,101,001,2019_Sep_04_0905,MusicAffectPsychophysiology2019,3.0.5,60.160025425907385,
To what extent did the music make you feel ,TENDER,30MonoWAV/30MonoT1.wav,2,1,4,13,,,,,1,14,30,12,0,8,8,10,,,,,,,,,2,3.7538815660227556,101,001,2019_Sep_04_0905,MusicAffectPsychophysiology2019,3.0.5,60.160025425907385,
To what extent did the music make you feel ,GUILTY,30MonoWAV/30MonoT1.wav,2,1,4,13,,,,,1,14,30,12,0,9,9,5,,,,,,,,,1,1.7669075980084017,101,001,2019_Sep_04_0905,MusicAffectPsychophysiology2019,3.0.5,60.160025425907385,
To what extent did the music make you feel ,ANGRY,30MonoWAV/30MonoT1.wav,2,1,4,13,,,,,1,14,30,12,0,10,10,2,,,,,,,,,1,2.5836742829997092,101,001,2019_Sep_04_0905,MusicAffectPsychophysiology2019,3.0.5,60.160025425907385,
To what extent did the music make you feel ,ALERT,30MonoWAV/30MonoT1.wav,2,1,4,13,,,,,1,14,30,12,0,11,11,8,,,,,,,,,1,0.8863116930006072,101,001,2019_Sep_04_0905,MusicAffectPsychophysiology2019,3.0.5,60.160025425907385,
,,30MonoWAV/30MonoT1.wav,2,1,4,13,,,,,1,14,30,12,,,,,,,,,,,,,,,101,001,2019_Sep_04_0905,MusicAffectPsychophysiology2019,3.0.5,60.160025425907385,
To what extent did the music make you feel ,TENDER,30MonoWAV/30MonoS3.wav,1,1,3,11,,,,,1,15,31,10,0,0,0,10,,,1,3.2164001560013276,1,1.4517777219880372,1,1.470135194977047,1,3.2224738629884087,101,001,2019_Sep_04_0905,MusicAffectPsychophysiology2019,3.0.5,60.160025425907385,
To what extent did the music make you feel ,ANXIOUS ,30MonoWAV/30MonoS3.wav,1,1,3,11,,,,,1,15,31,10,0,1,1,1,,,,,,,,,3,1.9830478609947022,101,001,2019_Sep_04_0905,MusicAffectPsychophysiology2019,3.0.5,60.160025425907385,
To what extent did the music make you feel ,SAD,30MonoWAV/30MonoS3.wav,1,1,3,11,,,,,1,15,31,10,0,2,2,0,,,,,,,,,3,1.819706494017737,101,001,2019_Sep_04_0905,MusicAffectPsychophysiology2019,3.0.5,60.160025425907385,
To what extent did the music make you feel ,ANGRY,30MonoWAV/30MonoS3.wav,1,1,3,11,,,,,1,15,31,10,0,3,3,2,,,,,,,,,2,3.6530361830082256,101,001,2019_Sep_04_0905,MusicAffectPsychophysiology2019,3.0.5,60.160025425907385,
To what extent did the music make you feel ,ASHAMED,30MonoWAV/30MonoS3.wav,1,1,3,11,,,,,1,15,31,10,0,4,4,4,,,,,,,,,1,1.487197342008585,101,001,2019_Sep_04_0905,MusicAffectPsychophysiology2019,3.0.5,60.160025425907385,
To what extent did the music make you feel ,EXCITED,30MonoWAV/30MonoS3.wav,1,1,3,11,,,,,1,15,31,10,0,5,5,7,,,,,,,,,1,2.718322550004814,101,001,2019_Sep_04_0905,MusicAffectPsychophysiology2019,3.0.5,60.160025425907385,
To what extent did the music make you feel ,FRUSTRATED,30MonoWAV/30MonoS3.wav,1,1,3,11,,,,,1,15,31,10,0,6,6,3,,,,,,,,,4,5.255350127001293,101,001,2019_Sep_04_0905,MusicAffectPsychophysiology2019,3.0.5,60.160025425907385,
To what extent did the music make you feel ,SCARED,30MonoWAV/30MonoS3.wav,1,1,3,11,,,,,1,15,31,10,0,7,7,11,,,,,,,,,1,3.0363068860024214,101,001,2019_Sep_04_0905,MusicAffectPsychophysiology2019,3.0.5,60.160025425907385,
To what extent did the music make you feel ,ALERT,30MonoWAV/30MonoS3.wav,1,1,3,11,,,,,1,15,31,10,0,8,8,8,,,,,,,,,2,2.6190673990058713,101,001,2019_Sep_04_0905,MusicAffectPsychophysiology2019,3.0.5,60.160025425907385,
To what extent did the music make you feel ,HAPPY,30MonoWAV/30MonoS3.wav,1,1,3,11,,,,,1,15,31,10,0,9,9,6,,,,,,,,,1,2.2526303449994884,101,001,2019_Sep_04_0905,MusicAffectPsychophysiology2019,3.0.5,60.160025425907385,
To what extent did the music make you feel ,GUILTY,30MonoWAV/30MonoS3.wav,1,1,3,11,,,,,1,15,31,10,0,10,10,5,,,,,,,,,1,1.63467571901856,101,001,2019_Sep_04_0905,MusicAffectPsychophysiology2019,3.0.5,60.160025425907385,
To what extent did the music make you feel ,ACTIVE,30MonoWAV/30MonoS3.wav,1,1,3,11,,,,,1,15,31,10,0,11,11,9,,,,,,,,,2,2.7371063440223224,101,001,2019_Sep_04_0905,MusicAffectPsychophysiology2019,3.0.5,60.160025425907385,
,,30MonoWAV/30MonoS3.wav,1,1,3,11,,,,,1,15,31,10,,,,,,,,,,,,,,,101,001,2019_Sep_04_0905,MusicAffectPsychophysiology2019,3.0.5,60.160025425907385,
