Instruction,Word,song,valence,arousal,affectcat,songmark,pracwords.thisRepN,pracwords.thisTrialN,pracwords.thisN,pracwords.thisIndex,songtrials.thisRepN,songtrials.thisTrialN,songtrials.thisN,songtrials.thisIndex,words.thisRepN,words.thisTrialN,words.thisN,words.thisIndex,begin.keys,begin.rt,arousalkey.keys,arousalkey.rt,valencekey.keys,valencekey.rt,likekey.keys,likekey.rt,WordResponse.keys,WordResponse.rt,participant,session,date,expName,psychopyVersion,frameRate,
,,,,,,,,,,,,,,,,,,,space,8.04683191498043,,,,,,,,,102,001,2019_Sep_04_1015,MusicAffectPsychophysiology2019,3.0.5,60.036125657811176,
,,,,,,,,,,,,,,,,,,,,,1,4.602637934993254,,,,,,,102,001,2019_Sep_04_1015,MusicAffectPsychophysiology2019,3.0.5,60.036125657811176,
,,,,,,,,,,,,,,,,,,,,,,,4,3.9170964999939315,,,,,102,001,2019_Sep_04_1015,MusicAffectPsychophysiology2019,3.0.5,60.036125657811176,
,,,,,,,,,,,,,,,,,,,,,,,,,2,2.601650920987595,,,102,001,2019_Sep_04_1015,MusicAffectPsychophysiology2019,3.0.5,60.036125657811176,
To what extent did the music make you feel ,EXCITED,,,,,,0,0,0,7,,,,,,,,,,,,,,,,,1,2.4445495449763257,102,001,2019_Sep_04_1015,MusicAffectPsychophysiology2019,3.0.5,60.036125657811176,
To what extent did the music make you feel ,ACTIVE,,,,,,0,1,1,9,,,,,,,,,,,,,,,,,1,1.4163352549949195,102,001,2019_Sep_04_1015,MusicAffectPsychophysiology2019,3.0.5,60.036125657811176,
To what extent did the music make you feel ,SAD,,,,,,0,2,2,0,,,,,,,,,,,,,,,,,1,1.250074740004493,102,001,2019_Sep_04_1015,MusicAffectPsychophysiology2019,3.0.5,60.036125657811176,
To what extent did the music make you feel ,ANGRY,,,,,,0,3,3,2,,,,,,,,,,,,,,,,,1,1.4545100439863745,102,001,2019_Sep_04_1015,MusicAffectPsychophysiology2019,3.0.5,60.036125657811176,
To what extent did the music make you feel ,ALERT,,,,,,0,4,4,8,,,,,,,,,,,,,,,,,1,1.2100302320031915,102,001,2019_Sep_04_1015,MusicAffectPsychophysiology2019,3.0.5,60.036125657811176,
To what extent did the music make you feel ,ANXIOUS ,,,,,,0,5,5,1,,,,,,,,,,,,,,,,,1,1.457091679010773,102,001,2019_Sep_04_1015,MusicAffectPsychophysiology2019,3.0.5,60.036125657811176,
To what extent did the music make you feel ,HAPPY,,,,,,0,6,6,6,,,,,,,,,,,,,,,,,2,2.7667602080036886,102,001,2019_Sep_04_1015,MusicAffectPsychophysiology2019,3.0.5,60.036125657811176,
To what extent did the music make you feel ,TENDER,,,,,,0,7,7,10,,,,,,,,,,,,,,,,,2,1.5190419579739682,102,001,2019_Sep_04_1015,MusicAffectPsychophysiology2019,3.0.5,60.036125657811176,
To what extent did the music make you feel ,GUILTY,,,,,,0,8,8,5,,,,,,,,,,,,,,,,,1,1.352559658989776,102,001,2019_Sep_04_1015,MusicAffectPsychophysiology2019,3.0.5,60.036125657811176,
To what extent did the music make you feel ,ASHAMED,,,,,,0,9,9,4,,,,,,,,,,,,,,,,,1,1.1683305840124376,102,001,2019_Sep_04_1015,MusicAffectPsychophysiology2019,3.0.5,60.036125657811176,
To what extent did the music make you feel ,FRUSTRATED,,,,,,0,10,10,3,,,,,,,,,,,,,,,,,1,1.069131019001361,102,001,2019_Sep_04_1015,MusicAffectPsychophysiology2019,3.0.5,60.036125657811176,
To what extent did the music make you feel ,SCARED,,,,,,0,11,11,11,,,,,,,,,,,,,,,,,1,0.7861717680061702,102,001,2019_Sep_04_1015,MusicAffectPsychophysiology2019,3.0.5,60.036125657811176,
To what extent did the music make you feel ,GUILTY,30MonoWAV/30MonoS2.wav,1,1,3,10,,,,,0,0,0,9,0,0,0,5,,,1,2.7541686500189826,2,1.6689608089800458,1,2.734846363979159,1,1.07052904900047,102,001,2019_Sep_04_1015,MusicAffectPsychophysiology2019,3.0.5,60.036125657811176,
To what extent did the music make you feel ,ACTIVE,30MonoWAV/30MonoS2.wav,1,1,3,10,,,,,0,0,0,9,0,1,1,9,,,,,,,,,1,0.46975933900102973,102,001,2019_Sep_04_1015,MusicAffectPsychophysiology2019,3.0.5,60.036125657811176,
To what extent did the music make you feel ,HAPPY,30MonoWAV/30MonoS2.wav,1,1,3,10,,,,,0,0,0,9,0,2,2,6,,,,,,,,,2,1.2869931900058873,102,001,2019_Sep_04_1015,MusicAffectPsychophysiology2019,3.0.5,60.036125657811176,
To what extent did the music make you feel ,ANGRY,30MonoWAV/30MonoS2.wav,1,1,3,10,,,,,0,0,0,9,0,3,3,2,,,,,,,,,1,0.4028033000067808,102,001,2019_Sep_04_1015,MusicAffectPsychophysiology2019,3.0.5,60.036125657811176,
To what extent did the music make you feel ,ASHAMED,30MonoWAV/30MonoS2.wav,1,1,3,10,,,,,0,0,0,9,0,4,4,4,,,,,,,,,1,0.535440756008029,102,001,2019_Sep_04_1015,MusicAffectPsychophysiology2019,3.0.5,60.036125657811176,
To what extent did the music make you feel ,ALERT,30MonoWAV/30MonoS2.wav,1,1,3,10,,,,,0,0,0,9,0,5,5,8,,,,,,,,,1,0.5205154760042205,102,001,2019_Sep_04_1015,MusicAffectPsychophysiology2019,3.0.5,60.036125657811176,
To what extent did the music make you feel ,FRUSTRATED,30MonoWAV/30MonoS2.wav,1,1,3,10,,,,,0,0,0,9,0,6,6,3,,,,,,,,,1,0.6050491700007115,102,001,2019_Sep_04_1015,MusicAffectPsychophysiology2019,3.0.5,60.036125657811176,
To what extent did the music make you feel ,TENDER,30MonoWAV/30MonoS2.wav,1,1,3,10,,,,,0,0,0,9,0,7,7,10,,,,,,,,,2,0.620308768004179,102,001,2019_Sep_04_1015,MusicAffectPsychophysiology2019,3.0.5,60.036125657811176,
To what extent did the music make you feel ,EXCITED,30MonoWAV/30MonoS2.wav,1,1,3,10,,,,,0,0,0,9,0,8,8,7,,,,,,,,,1,0.2841623100102879,102,001,2019_Sep_04_1015,MusicAffectPsychophysiology2019,3.0.5,60.036125657811176,
To what extent did the music make you feel ,ANXIOUS ,30MonoWAV/30MonoS2.wav,1,1,3,10,,,,,0,0,0,9,0,9,9,1,,,,,,,,,1,0.7018737730104476,102,001,2019_Sep_04_1015,MusicAffectPsychophysiology2019,3.0.5,60.036125657811176,
To what extent did the music make you feel ,SCARED,30MonoWAV/30MonoS2.wav,1,1,3,10,,,,,0,0,0,9,0,10,10,11,,,,,,,,,1,0.5034650109882932,102,001,2019_Sep_04_1015,MusicAffectPsychophysiology2019,3.0.5,60.036125657811176,
To what extent did the music make you feel ,SAD,30MonoWAV/30MonoS2.wav,1,1,3,10,,,,,0,0,0,9,0,11,11,0,,,,,,,,,1,0.5372657499974594,102,001,2019_Sep_04_1015,MusicAffectPsychophysiology2019,3.0.5,60.036125657811176,
,,30MonoWAV/30MonoS2.wav,1,1,3,10,,,,,0,0,0,9,,,,,,,,,,,,,,,102,001,2019_Sep_04_1015,MusicAffectPsychophysiology2019,3.0.5,60.036125657811176,
To what extent did the music make you feel ,ACTIVE,30MonoWAV/30MonoT1.wav,2,1,4,13,,,,,0,1,1,12,0,0,0,9,,,1,2.6863611879816744,3,2.203178772004321,3,1.2856213320046663,1,1.2717682330112439,102,001,2019_Sep_04_1015,MusicAffectPsychophysiology2019,3.0.5,60.036125657811176,
To what extent did the music make you feel ,SAD,30MonoWAV/30MonoT1.wav,2,1,4,13,,,,,0,1,1,12,0,1,1,0,,,,,,,,,2,1.3023896840168163,102,001,2019_Sep_04_1015,MusicAffectPsychophysiology2019,3.0.5,60.036125657811176,
To what extent did the music make you feel ,ANGRY,30MonoWAV/30MonoT1.wav,2,1,4,13,,,,,0,1,1,12,0,2,2,2,,,,,,,,,1,0.5353009810205549,102,001,2019_Sep_04_1015,MusicAffectPsychophysiology2019,3.0.5,60.036125657811176,
To what extent did the music make you feel ,SCARED,30MonoWAV/30MonoT1.wav,2,1,4,13,,,,,0,1,1,12,0,3,3,11,,,,,,,,,1,0.7152422420040239,102,001,2019_Sep_04_1015,MusicAffectPsychophysiology2019,3.0.5,60.036125657811176,
To what extent did the music make you feel ,ANXIOUS ,30MonoWAV/30MonoT1.wav,2,1,4,13,,,,,0,1,1,12,0,4,4,1,,,,,,,,,1,0.4865799800027162,102,001,2019_Sep_04_1015,MusicAffectPsychophysiology2019,3.0.5,60.036125657811176,
To what extent did the music make you feel ,FRUSTRATED,30MonoWAV/30MonoT1.wav,2,1,4,13,,,,,0,1,1,12,0,5,5,3,,,,,,,,,1,0.49871791401528753,102,001,2019_Sep_04_1015,MusicAffectPsychophysiology2019,3.0.5,60.036125657811176,
To what extent did the music make you feel ,TENDER,30MonoWAV/30MonoT1.wav,2,1,4,13,,,,,0,1,1,12,0,6,6,10,,,,,,,,,2,0.9210629390145186,102,001,2019_Sep_04_1015,MusicAffectPsychophysiology2019,3.0.5,60.036125657811176,
To what extent did the music make you feel ,ALERT,30MonoWAV/30MonoT1.wav,2,1,4,13,,,,,0,1,1,12,0,7,7,8,,,,,,,,,1,0.4673595169733744,102,001,2019_Sep_04_1015,MusicAffectPsychophysiology2019,3.0.5,60.036125657811176,
To what extent did the music make you feel ,HAPPY,30MonoWAV/30MonoT1.wav,2,1,4,13,,,,,0,1,1,12,0,8,8,6,,,,,,,,,1,0.6696500609978102,102,001,2019_Sep_04_1015,MusicAffectPsychophysiology2019,3.0.5,60.036125657811176,
To what extent did the music make you feel ,EXCITED,30MonoWAV/30MonoT1.wav,2,1,4,13,,,,,0,1,1,12,0,9,9,7,,,,,,,,,1,0.5193334700015839,102,001,2019_Sep_04_1015,MusicAffectPsychophysiology2019,3.0.5,60.036125657811176,
To what extent did the music make you feel ,ASHAMED,30MonoWAV/30MonoT1.wav,2,1,4,13,,,,,0,1,1,12,0,10,10,4,,,,,,,,,1,0.6701645469875075,102,001,2019_Sep_04_1015,MusicAffectPsychophysiology2019,3.0.5,60.036125657811176,
To what extent did the music make you feel ,GUILTY,30MonoWAV/30MonoT1.wav,2,1,4,13,,,,,0,1,1,12,0,11,11,5,,,,,,,,,1,0.6364030019904021,102,001,2019_Sep_04_1015,MusicAffectPsychophysiology2019,3.0.5,60.036125657811176,
,,30MonoWAV/30MonoT1.wav,2,1,4,13,,,,,0,1,1,12,,,,,,,,,,,,,,,102,001,2019_Sep_04_1015,MusicAffectPsychophysiology2019,3.0.5,60.036125657811176,
To what extent did the music make you feel ,GUILTY,30MonoWAV/30MonoS3.wav,1,1,3,11,,,,,0,2,2,10,0,0,0,5,,,1,2.518802965001669,1,2.3031031460268423,1,1.1516978400177322,1,1.3868228450010065,102,001,2019_Sep_04_1015,MusicAffectPsychophysiology2019,3.0.5,60.036125657811176,
To what extent did the music make you feel ,ASHAMED,30MonoWAV/30MonoS3.wav,1,1,3,11,,,,,0,2,2,10,0,1,1,4,,,,,,,,,1,0.7524195529986173,102,001,2019_Sep_04_1015,MusicAffectPsychophysiology2019,3.0.5,60.036125657811176,
To what extent did the music make you feel ,ACTIVE,30MonoWAV/30MonoS3.wav,1,1,3,11,,,,,0,2,2,10,0,2,2,9,,,,,,,,,1,0.736250043992186,102,001,2019_Sep_04_1015,MusicAffectPsychophysiology2019,3.0.5,60.036125657811176,
To what extent did the music make you feel ,EXCITED,30MonoWAV/30MonoS3.wav,1,1,3,11,,,,,0,2,2,10,0,3,3,7,,,,,,,,,1,0.7525752469955478,102,001,2019_Sep_04_1015,MusicAffectPsychophysiology2019,3.0.5,60.036125657811176,
To what extent did the music make you feel ,FRUSTRATED,30MonoWAV/30MonoS3.wav,1,1,3,11,,,,,0,2,2,10,0,4,4,3,,,,,,,,,1,0.7894078829849605,102,001,2019_Sep_04_1015,MusicAffectPsychophysiology2019,3.0.5,60.036125657811176,
To what extent did the music make you feel ,SCARED,30MonoWAV/30MonoS3.wav,1,1,3,11,,,,,0,2,2,10,0,5,5,11,,,,,,,,,1,1.816775676998077,102,001,2019_Sep_04_1015,MusicAffectPsychophysiology2019,3.0.5,60.036125657811176,
To what extent did the music make you feel ,TENDER,30MonoWAV/30MonoS3.wav,1,1,3,11,,,,,0,2,2,10,0,6,6,10,,,,,,,,,1,1.069470470014494,102,001,2019_Sep_04_1015,MusicAffectPsychophysiology2019,3.0.5,60.036125657811176,
To what extent did the music make you feel ,ALERT,30MonoWAV/30MonoS3.wav,1,1,3,11,,,,,0,2,2,10,0,7,7,8,,,,,,,,,2,1.6365508759918157,102,001,2019_Sep_04_1015,MusicAffectPsychophysiology2019,3.0.5,60.036125657811176,
To what extent did the music make you feel ,SAD,30MonoWAV/30MonoS3.wav,1,1,3,11,,,,,0,2,2,10,0,8,8,0,,,,,,,,,2,1.0695948320208117,102,001,2019_Sep_04_1015,MusicAffectPsychophysiology2019,3.0.5,60.036125657811176,
To what extent did the music make you feel ,ANXIOUS ,30MonoWAV/30MonoS3.wav,1,1,3,11,,,,,0,2,2,10,0,9,9,1,,,,,,,,,2,0.6193285890039988,102,001,2019_Sep_04_1015,MusicAffectPsychophysiology2019,3.0.5,60.036125657811176,
To what extent did the music make you feel ,ANGRY,30MonoWAV/30MonoS3.wav,1,1,3,11,,,,,0,2,2,10,0,10,10,2,,,,,,,,,1,0.6535788339970168,102,001,2019_Sep_04_1015,MusicAffectPsychophysiology2019,3.0.5,60.036125657811176,
To what extent did the music make you feel ,HAPPY,30MonoWAV/30MonoS3.wav,1,1,3,11,,,,,0,2,2,10,0,11,11,6,,,,,,,,,1,0.4031637510051951,102,001,2019_Sep_04_1015,MusicAffectPsychophysiology2019,3.0.5,60.036125657811176,
,,30MonoWAV/30MonoS3.wav,1,1,3,11,,,,,0,2,2,10,,,,,,,,,,,,,,,102,001,2019_Sep_04_1015,MusicAffectPsychophysiology2019,3.0.5,60.036125657811176,
To what extent did the music make you feel ,FRUSTRATED,30MonoWAV/30MonoS1.wav,1,1,3,9,,,,,0,3,3,8,0,0,0,3,,,1,2.419373943004757,1,1.6860719120013528,2,1.199934967997251,1,1.2024561559956055,102,001,2019_Sep_04_1015,MusicAffectPsychophysiology2019,3.0.5,60.036125657811176,
To what extent did the music make you feel ,TENDER,30MonoWAV/30MonoS1.wav,1,1,3,9,,,,,0,3,3,8,0,1,1,10,,,,,,,,,3,2.1372192650160287,102,001,2019_Sep_04_1015,MusicAffectPsychophysiology2019,3.0.5,60.036125657811176,
To what extent did the music make you feel ,ASHAMED,30MonoWAV/30MonoS1.wav,1,1,3,9,,,,,0,3,3,8,0,2,2,4,,,,,,,,,1,0.9030672730004881,102,001,2019_Sep_04_1015,MusicAffectPsychophysiology2019,3.0.5,60.036125657811176,
To what extent did the music make you feel ,HAPPY,30MonoWAV/30MonoS1.wav,1,1,3,9,,,,,0,3,3,8,0,3,3,6,,,,,,,,,1,1.369794489000924,102,001,2019_Sep_04_1015,MusicAffectPsychophysiology2019,3.0.5,60.036125657811176,
To what extent did the music make you feel ,ALERT,30MonoWAV/30MonoS1.wav,1,1,3,9,,,,,0,3,3,8,0,4,4,8,,,,,,,,,2,1.051941284997156,102,001,2019_Sep_04_1015,MusicAffectPsychophysiology2019,3.0.5,60.036125657811176,
To what extent did the music make you feel ,GUILTY,30MonoWAV/30MonoS1.wav,1,1,3,9,,,,,0,3,3,8,0,5,5,5,,,,,,,,,1,0.9868294699990656,102,001,2019_Sep_04_1015,MusicAffectPsychophysiology2019,3.0.5,60.036125657811176,
To what extent did the music make you feel ,ANXIOUS ,30MonoWAV/30MonoS1.wav,1,1,3,9,,,,,0,3,3,8,0,6,6,1,,,,,,,,,3,1.1187530090101063,102,001,2019_Sep_04_1015,MusicAffectPsychophysiology2019,3.0.5,60.036125657811176,
To what extent did the music make you feel ,SAD,30MonoWAV/30MonoS1.wav,1,1,3,9,,,,,0,3,3,8,0,7,7,0,,,,,,,,,3,0.8864773270033766,102,001,2019_Sep_04_1015,MusicAffectPsychophysiology2019,3.0.5,60.036125657811176,
To what extent did the music make you feel ,ANGRY,30MonoWAV/30MonoS1.wav,1,1,3,9,,,,,0,3,3,8,0,8,8,2,,,,,,,,,1,0.8367109469836578,102,001,2019_Sep_04_1015,MusicAffectPsychophysiology2019,3.0.5,60.036125657811176,
To what extent did the music make you feel ,SCARED,30MonoWAV/30MonoS1.wav,1,1,3,9,,,,,0,3,3,8,0,9,9,11,,,,,,,,,1,0.45276983999065123,102,001,2019_Sep_04_1015,MusicAffectPsychophysiology2019,3.0.5,60.036125657811176,
To what extent did the music make you feel ,EXCITED,30MonoWAV/30MonoS1.wav,1,1,3,9,,,,,0,3,3,8,0,10,10,7,,,,,,,,,1,0.46941757600870915,102,001,2019_Sep_04_1015,MusicAffectPsychophysiology2019,3.0.5,60.036125657811176,
To what extent did the music make you feel ,ACTIVE,30MonoWAV/30MonoS1.wav,1,1,3,9,,,,,0,3,3,8,0,11,11,9,,,,,,,,,1,0.6192104200017639,102,001,2019_Sep_04_1015,MusicAffectPsychophysiology2019,3.0.5,60.036125657811176,
,,30MonoWAV/30MonoS1.wav,1,1,3,9,,,,,0,3,3,8,,,,,,,,,,,,,,,102,001,2019_Sep_04_1015,MusicAffectPsychophysiology2019,3.0.5,60.036125657811176,
To what extent did the music make you feel ,SCARED,30MonoWAV/30MonoF3.wav,1,2,2,3,,,,,0,4,4,2,0,0,0,11,,,3,2.8688611289835535,1,1.4020059699832927,1,1.1858536700019613,2,2.178557284991257,102,001,2019_Sep_04_1015,MusicAffectPsychophysiology2019,3.0.5,60.036125657811176,
To what extent did the music make you feel ,ANGRY,30MonoWAV/30MonoF3.wav,1,2,2,3,,,,,0,4,4,2,0,1,1,2,,,,,,,,,1,1.5666588719759602,102,001,2019_Sep_04_1015,MusicAffectPsychophysiology2019,3.0.5,60.036125657811176,
To what extent did the music make you feel ,FRUSTRATED,30MonoWAV/30MonoF3.wav,1,2,2,3,,,,,0,4,4,2,0,2,2,3,,,,,,,,,1,0.817530017986428,102,001,2019_Sep_04_1015,MusicAffectPsychophysiology2019,3.0.5,60.036125657811176,
To what extent did the music make you feel ,GUILTY,30MonoWAV/30MonoF3.wav,1,2,2,3,,,,,0,4,4,2,0,3,3,5,,,,,,,,,1,0.6532270140014589,102,001,2019_Sep_04_1015,MusicAffectPsychophysiology2019,3.0.5,60.036125657811176,
To what extent did the music make you feel ,ASHAMED,30MonoWAV/30MonoF3.wav,1,2,2,3,,,,,0,4,4,2,0,4,4,4,,,,,,,,,1,0.652680570987286,102,001,2019_Sep_04_1015,MusicAffectPsychophysiology2019,3.0.5,60.036125657811176,
To what extent did the music make you feel ,ALERT,30MonoWAV/30MonoF3.wav,1,2,2,3,,,,,0,4,4,2,0,5,5,8,,,,,,,,,3,1.5047565390123054,102,001,2019_Sep_04_1015,MusicAffectPsychophysiology2019,3.0.5,60.036125657811176,
To what extent did the music make you feel ,TENDER,30MonoWAV/30MonoF3.wav,1,2,2,3,,,,,0,4,4,2,0,6,6,10,,,,,,,,,1,1.152926227019634,102,001,2019_Sep_04_1015,MusicAffectPsychophysiology2019,3.0.5,60.036125657811176,
To what extent did the music make you feel ,ACTIVE,30MonoWAV/30MonoF3.wav,1,2,2,3,,,,,0,4,4,2,0,7,7,9,,,,,,,,,3,1.9521343880041968,102,001,2019_Sep_04_1015,MusicAffectPsychophysiology2019,3.0.5,60.036125657811176,
To what extent did the music make you feel ,HAPPY,30MonoWAV/30MonoF3.wav,1,2,2,3,,,,,0,4,4,2,0,8,8,6,,,,,,,,,1,1.2522585010156035,102,001,2019_Sep_04_1015,MusicAffectPsychophysiology2019,3.0.5,60.036125657811176,
To what extent did the music make you feel ,ANXIOUS ,30MonoWAV/30MonoF3.wav,1,2,2,3,,,,,0,4,4,2,0,9,9,1,,,,,,,,,2,1.2864425749867223,102,001,2019_Sep_04_1015,MusicAffectPsychophysiology2019,3.0.5,60.036125657811176,
To what extent did the music make you feel ,EXCITED,30MonoWAV/30MonoF3.wav,1,2,2,3,,,,,0,4,4,2,0,10,10,7,,,,,,,,,1,1.012403457018081,102,001,2019_Sep_04_1015,MusicAffectPsychophysiology2019,3.0.5,60.036125657811176,
To what extent did the music make you feel ,SAD,30MonoWAV/30MonoF3.wav,1,2,2,3,,,,,0,4,4,2,0,11,11,0,,,,,,,,,1,1.5017205989861395,102,001,2019_Sep_04_1015,MusicAffectPsychophysiology2019,3.0.5,60.036125657811176,
,,30MonoWAV/30MonoF3.wav,1,2,2,3,,,,,0,4,4,2,,,,,,,,,,,,,,,102,001,2019_Sep_04_1015,MusicAffectPsychophysiology2019,3.0.5,60.036125657811176,
To what extent did the music make you feel ,TENDER,30MonoWAV/30MonoF1.wav,1,2,2,1,,,,,0,5,5,0,0,0,0,10,,,3,2.935586877982132,2,1.5533668819989543,1,1.6021026499802247,1,1.222591697005555,102,001,2019_Sep_04_1015,MusicAffectPsychophysiology2019,3.0.5,60.036125657811176,
To what extent did the music make you feel ,ASHAMED,30MonoWAV/30MonoF1.wav,1,2,2,1,,,,,0,5,5,0,0,1,1,4,,,,,,,,,1,1.0702210490126163,102,001,2019_Sep_04_1015,MusicAffectPsychophysiology2019,3.0.5,60.036125657811176,
To what extent did the music make you feel ,EXCITED,30MonoWAV/30MonoF1.wav,1,2,2,1,,,,,0,5,5,0,0,2,2,7,,,,,,,,,3,1.4525119099998847,102,001,2019_Sep_04_1015,MusicAffectPsychophysiology2019,3.0.5,60.036125657811176,
To what extent did the music make you feel ,ANXIOUS ,30MonoWAV/30MonoF1.wav,1,2,2,1,,,,,0,5,5,0,0,3,3,1,,,,,,,,,2,1.1531823470140807,102,001,2019_Sep_04_1015,MusicAffectPsychophysiology2019,3.0.5,60.036125657811176,
To what extent did the music make you feel ,FRUSTRATED,30MonoWAV/30MonoF1.wav,1,2,2,1,,,,,0,5,5,0,0,4,4,3,,,,,,,,,1,1.0720591720019002,102,001,2019_Sep_04_1015,MusicAffectPsychophysiology2019,3.0.5,60.036125657811176,
To what extent did the music make you feel ,SAD,30MonoWAV/30MonoF1.wav,1,2,2,1,,,,,0,5,5,0,0,5,5,0,,,,,,,,,1,1.1528843219857663,102,001,2019_Sep_04_1015,MusicAffectPsychophysiology2019,3.0.5,60.036125657811176,
To what extent did the music make you feel ,ANGRY,30MonoWAV/30MonoF1.wav,1,2,2,1,,,,,0,5,5,0,0,6,6,2,,,,,,,,,1,0.9865325700084213,102,001,2019_Sep_04_1015,MusicAffectPsychophysiology2019,3.0.5,60.036125657811176,
To what extent did the music make you feel ,HAPPY,30MonoWAV/30MonoF1.wav,1,2,2,1,,,,,0,5,5,0,0,7,7,6,,,,,,,,,1,1.0185010299901478,102,001,2019_Sep_04_1015,MusicAffectPsychophysiology2019,3.0.5,60.036125657811176,
To what extent did the music make you feel ,GUILTY,30MonoWAV/30MonoF1.wav,1,2,2,1,,,,,0,5,5,0,0,8,8,5,,,,,,,,,1,1.1688077009748667,102,001,2019_Sep_04_1015,MusicAffectPsychophysiology2019,3.0.5,60.036125657811176,
To what extent did the music make you feel ,ALERT,30MonoWAV/30MonoF1.wav,1,2,2,1,,,,,0,5,5,0,0,9,9,8,,,,,,,,,1,1.353237804985838,102,001,2019_Sep_04_1015,MusicAffectPsychophysiology2019,3.0.5,60.036125657811176,
To what extent did the music make you feel ,ACTIVE,30MonoWAV/30MonoF1.wav,1,2,2,1,,,,,0,5,5,0,0,10,10,9,,,,,,,,,3,2.9687736819905695,102,001,2019_Sep_04_1015,MusicAffectPsychophysiology2019,3.0.5,60.036125657811176,
To what extent did the music make you feel ,SCARED,30MonoWAV/30MonoF1.wav,1,2,2,1,,,,,0,5,5,0,0,11,11,11,,,,,,,,,1,1.0361677870096173,102,001,2019_Sep_04_1015,MusicAffectPsychophysiology2019,3.0.5,60.036125657811176,
,,30MonoWAV/30MonoF1.wav,1,2,2,1,,,,,0,5,5,0,,,,,,,,,,,,,,,102,001,2019_Sep_04_1015,MusicAffectPsychophysiology2019,3.0.5,60.036125657811176,
To what extent did the music make you feel ,ACTIVE,30MonoWAV/30MonoT3.wav,2,1,4,15,,,,,0,6,6,14,0,0,0,9,,,1,2.935480213986011,3,1.8168901519966312,3,1.56957662399509,1,1.2039838709752075,102,001,2019_Sep_04_1015,MusicAffectPsychophysiology2019,3.0.5,60.036125657811176,
To what extent did the music make you feel ,ANGRY,30MonoWAV/30MonoT3.wav,2,1,4,15,,,,,0,6,6,14,0,1,1,2,,,,,,,,,1,0.7354405049991328,102,001,2019_Sep_04_1015,MusicAffectPsychophysiology2019,3.0.5,60.036125657811176,
To what extent did the music make you feel ,ALERT,30MonoWAV/30MonoT3.wav,2,1,4,15,,,,,0,6,6,14,0,2,2,8,,,,,,,,,1,1.3861927279795054,102,001,2019_Sep_04_1015,MusicAffectPsychophysiology2019,3.0.5,60.036125657811176,
To what extent did the music make you feel ,SAD,30MonoWAV/30MonoT3.wav,2,1,4,15,,,,,0,6,6,14,0,3,3,0,,,,,,,,,2,1.31954274099553,102,001,2019_Sep_04_1015,MusicAffectPsychophysiology2019,3.0.5,60.036125657811176,
To what extent did the music make you feel ,SCARED,30MonoWAV/30MonoT3.wav,2,1,4,15,,,,,0,6,6,14,0,4,4,11,,,,,,,,,1,0.7028339639946353,102,001,2019_Sep_04_1015,MusicAffectPsychophysiology2019,3.0.5,60.036125657811176,
To what extent did the music make you feel ,ASHAMED,30MonoWAV/30MonoT3.wav,2,1,4,15,,,,,0,6,6,14,0,5,5,4,,,,,,,,,1,0.8355953209975269,102,001,2019_Sep_04_1015,MusicAffectPsychophysiology2019,3.0.5,60.036125657811176,
To what extent did the music make you feel ,GUILTY,30MonoWAV/30MonoT3.wav,2,1,4,15,,,,,0,6,6,14,0,6,6,5,,,,,,,,,1,0.6695905899978243,102,001,2019_Sep_04_1015,MusicAffectPsychophysiology2019,3.0.5,60.036125657811176,
To what extent did the music make you feel ,FRUSTRATED,30MonoWAV/30MonoT3.wav,2,1,4,15,,,,,0,6,6,14,0,7,7,3,,,,,,,,,1,0.7149871129950043,102,001,2019_Sep_04_1015,MusicAffectPsychophysiology2019,3.0.5,60.036125657811176,
To what extent did the music make you feel ,HAPPY,30MonoWAV/30MonoT3.wav,2,1,4,15,,,,,0,6,6,14,0,8,8,6,,,,,,,,,3,3.035598866001237,102,001,2019_Sep_04_1015,MusicAffectPsychophysiology2019,3.0.5,60.036125657811176,
To what extent did the music make you feel ,EXCITED,30MonoWAV/30MonoT3.wav,2,1,4,15,,,,,0,6,6,14,0,9,9,7,,,,,,,,,1,1.3686166430125013,102,001,2019_Sep_04_1015,MusicAffectPsychophysiology2019,3.0.5,60.036125657811176,
To what extent did the music make you feel ,ANXIOUS ,30MonoWAV/30MonoT3.wav,2,1,4,15,,,,,0,6,6,14,0,10,10,1,,,,,,,,,1,1.4353868069883902,102,001,2019_Sep_04_1015,MusicAffectPsychophysiology2019,3.0.5,60.036125657811176,
To what extent did the music make you feel ,TENDER,30MonoWAV/30MonoT3.wav,2,1,4,15,,,,,0,6,6,14,0,11,11,10,,,,,,,,,3,1.651928601990221,102,001,2019_Sep_04_1015,MusicAffectPsychophysiology2019,3.0.5,60.036125657811176,
,,30MonoWAV/30MonoT3.wav,2,1,4,15,,,,,0,6,6,14,,,,,,,,,,,,,,,102,001,2019_Sep_04_1015,MusicAffectPsychophysiology2019,3.0.5,60.036125657811176,
To what extent did the music make you feel ,TENDER,30MonoWAV/30MonoH1.wav,2,2,1,5,,,,,0,7,7,4,0,0,0,10,,,3,2.60411108401604,4,1.7184089869842865,5,1.669206018006662,1,1.7756557620014064,102,001,2019_Sep_04_1015,MusicAffectPsychophysiology2019,3.0.5,60.036125657811176,
To what extent did the music make you feel ,FRUSTRATED,30MonoWAV/30MonoH1.wav,2,2,1,5,,,,,0,7,7,4,0,1,1,3,,,,,,,,,1,0.7249136159953196,102,001,2019_Sep_04_1015,MusicAffectPsychophysiology2019,3.0.5,60.036125657811176,
To what extent did the music make you feel ,ANGRY,30MonoWAV/30MonoH1.wav,2,2,1,5,,,,,0,7,7,4,0,2,2,2,,,,,,,,,1,0.6703002360009123,102,001,2019_Sep_04_1015,MusicAffectPsychophysiology2019,3.0.5,60.036125657811176,
To what extent did the music make you feel ,ASHAMED,30MonoWAV/30MonoH1.wav,2,2,1,5,,,,,0,7,7,4,0,3,3,4,,,,,,,,,1,0.7039468720031437,102,001,2019_Sep_04_1015,MusicAffectPsychophysiology2019,3.0.5,60.036125657811176,
To what extent did the music make you feel ,SAD,30MonoWAV/30MonoH1.wav,2,2,1,5,,,,,0,7,7,4,0,4,4,0,,,,,,,,,1,0.802454721997492,102,001,2019_Sep_04_1015,MusicAffectPsychophysiology2019,3.0.5,60.036125657811176,
To what extent did the music make you feel ,GUILTY,30MonoWAV/30MonoH1.wav,2,2,1,5,,,,,0,7,7,4,0,5,5,5,,,,,,,,,1,0.7040738700015936,102,001,2019_Sep_04_1015,MusicAffectPsychophysiology2019,3.0.5,60.036125657811176,
To what extent did the music make you feel ,ACTIVE,30MonoWAV/30MonoH1.wav,2,2,1,5,,,,,0,7,7,4,0,6,6,9,,,,,,,,,3,1.4867794589954428,102,001,2019_Sep_04_1015,MusicAffectPsychophysiology2019,3.0.5,60.036125657811176,
To what extent did the music make you feel ,ALERT,30MonoWAV/30MonoH1.wav,2,2,1,5,,,,,0,7,7,4,0,7,7,8,,,,,,,,,2,1.369345049984986,102,001,2019_Sep_04_1015,MusicAffectPsychophysiology2019,3.0.5,60.036125657811176,
To what extent did the music make you feel ,ANXIOUS ,30MonoWAV/30MonoH1.wav,2,2,1,5,,,,,0,7,7,4,0,8,8,1,,,,,,,,,1,0.9194439369894098,102,001,2019_Sep_04_1015,MusicAffectPsychophysiology2019,3.0.5,60.036125657811176,
To what extent did the music make you feel ,EXCITED,30MonoWAV/30MonoH1.wav,2,2,1,5,,,,,0,7,7,4,0,9,9,7,,,,,,,,,3,3.1354430689825676,102,001,2019_Sep_04_1015,MusicAffectPsychophysiology2019,3.0.5,60.036125657811176,
To what extent did the music make you feel ,HAPPY,30MonoWAV/30MonoH1.wav,2,2,1,5,,,,,0,7,7,4,0,10,10,6,,,,,,,,,4,1.603245901002083,102,001,2019_Sep_04_1015,MusicAffectPsychophysiology2019,3.0.5,60.036125657811176,
To what extent did the music make you feel ,SCARED,30MonoWAV/30MonoH1.wav,2,2,1,5,,,,,0,7,7,4,0,11,11,11,,,,,,,,,1,0.9999473700008821,102,001,2019_Sep_04_1015,MusicAffectPsychophysiology2019,3.0.5,60.036125657811176,
,,30MonoWAV/30MonoH1.wav,2,2,1,5,,,,,0,7,7,4,,,,,,,,,,,,,,,102,001,2019_Sep_04_1015,MusicAffectPsychophysiology2019,3.0.5,60.036125657811176,
To what extent did the music make you feel ,GUILTY,30MonoWAV/30MonoT4.wav,2,1,4,16,,,,,0,8,8,15,0,0,0,5,,,2,4.218750200991053,3,2.2023660730046686,3,1.2028110090177506,1,1.400055997975869,102,001,2019_Sep_04_1015,MusicAffectPsychophysiology2019,3.0.5,60.036125657811176,
To what extent did the music make you feel ,SAD,30MonoWAV/30MonoT4.wav,2,1,4,16,,,,,0,8,8,15,0,1,1,0,,,,,,,,,3,2.250153479981236,102,001,2019_Sep_04_1015,MusicAffectPsychophysiology2019,3.0.5,60.036125657811176,
To what extent did the music make you feel ,TENDER,30MonoWAV/30MonoT4.wav,2,1,4,16,,,,,0,8,8,15,0,2,2,10,,,,,,,,,4,1.5032162969873752,102,001,2019_Sep_04_1015,MusicAffectPsychophysiology2019,3.0.5,60.036125657811176,
To what extent did the music make you feel ,ASHAMED,30MonoWAV/30MonoT4.wav,2,1,4,16,,,,,0,8,8,15,0,3,3,4,,,,,,,,,1,1.0692764059931505,102,001,2019_Sep_04_1015,MusicAffectPsychophysiology2019,3.0.5,60.036125657811176,
To what extent did the music make you feel ,ALERT,30MonoWAV/30MonoT4.wav,2,1,4,16,,,,,0,8,8,15,0,4,4,8,,,,,,,,,2,1.1031490229943302,102,001,2019_Sep_04_1015,MusicAffectPsychophysiology2019,3.0.5,60.036125657811176,
To what extent did the music make you feel ,ANXIOUS ,30MonoWAV/30MonoT4.wav,2,1,4,16,,,,,0,8,8,15,0,5,5,1,,,,,,,,,1,1.2483944179839455,102,001,2019_Sep_04_1015,MusicAffectPsychophysiology2019,3.0.5,60.036125657811176,
To what extent did the music make you feel ,ANGRY,30MonoWAV/30MonoT4.wav,2,1,4,16,,,,,0,8,8,15,0,6,6,2,,,,,,,,,1,0.932167324994225,102,001,2019_Sep_04_1015,MusicAffectPsychophysiology2019,3.0.5,60.036125657811176,
To what extent did the music make you feel ,EXCITED,30MonoWAV/30MonoT4.wav,2,1,4,16,,,,,0,8,8,15,0,7,7,7,,,,,,,,,1,0.9693498270062264,102,001,2019_Sep_04_1015,MusicAffectPsychophysiology2019,3.0.5,60.036125657811176,
To what extent did the music make you feel ,ACTIVE,30MonoWAV/30MonoT4.wav,2,1,4,16,,,,,0,8,8,15,0,8,8,9,,,,,,,,,1,1.0164736379811075,102,001,2019_Sep_04_1015,MusicAffectPsychophysiology2019,3.0.5,60.036125657811176,
To what extent did the music make you feel ,SCARED,30MonoWAV/30MonoT4.wav,2,1,4,16,,,,,0,8,8,15,0,9,9,11,,,,,,,,,1,0.6855931130121462,102,001,2019_Sep_04_1015,MusicAffectPsychophysiology2019,3.0.5,60.036125657811176,
To what extent did the music make you feel ,HAPPY,30MonoWAV/30MonoT4.wav,2,1,4,16,,,,,0,8,8,15,0,10,10,6,,,,,,,,,2,1.0523709190019872,102,001,2019_Sep_04_1015,MusicAffectPsychophysiology2019,3.0.5,60.036125657811176,
To what extent did the music make you feel ,FRUSTRATED,30MonoWAV/30MonoT4.wav,2,1,4,16,,,,,0,8,8,15,0,11,11,3,,,,,,,,,1,0.9006612440280151,102,001,2019_Sep_04_1015,MusicAffectPsychophysiology2019,3.0.5,60.036125657811176,
,,30MonoWAV/30MonoT4.wav,2,1,4,16,,,,,0,8,8,15,,,,,,,,,,,,,,,102,001,2019_Sep_04_1015,MusicAffectPsychophysiology2019,3.0.5,60.036125657811176,
To what extent did the music make you feel ,ASHAMED,30MonoWAV/30MonoH3.wav,2,2,1,7,,,,,0,9,9,6,0,0,0,4,,,2,2.7710846420086455,1,1.402646675996948,1,1.0022829989902675,1,1.0456717169727199,102,001,2019_Sep_04_1015,MusicAffectPsychophysiology2019,3.0.5,60.036125657811176,
To what extent did the music make you feel ,ACTIVE,30MonoWAV/30MonoH3.wav,2,2,1,7,,,,,0,9,9,6,0,1,1,9,,,,,,,,,2,1.4689813159930054,102,001,2019_Sep_04_1015,MusicAffectPsychophysiology2019,3.0.5,60.036125657811176,
To what extent did the music make you feel ,GUILTY,30MonoWAV/30MonoH3.wav,2,2,1,7,,,,,0,9,9,6,0,2,2,5,,,,,,,,,1,0.8337513540172949,102,001,2019_Sep_04_1015,MusicAffectPsychophysiology2019,3.0.5,60.036125657811176,
To what extent did the music make you feel ,ANXIOUS ,30MonoWAV/30MonoH3.wav,2,2,1,7,,,,,0,9,9,6,0,3,3,1,,,,,,,,,1,1.0001782350009307,102,001,2019_Sep_04_1015,MusicAffectPsychophysiology2019,3.0.5,60.036125657811176,
To what extent did the music make you feel ,SCARED,30MonoWAV/30MonoH3.wav,2,2,1,7,,,,,0,9,9,6,0,4,4,11,,,,,,,,,1,0.7361166639893781,102,001,2019_Sep_04_1015,MusicAffectPsychophysiology2019,3.0.5,60.036125657811176,
To what extent did the music make you feel ,HAPPY,30MonoWAV/30MonoH3.wav,2,2,1,7,,,,,0,9,9,6,0,5,5,6,,,,,,,,,1,1.049818782019429,102,001,2019_Sep_04_1015,MusicAffectPsychophysiology2019,3.0.5,60.036125657811176,
To what extent did the music make you feel ,ALERT,30MonoWAV/30MonoH3.wav,2,2,1,7,,,,,0,9,9,6,0,6,6,8,,,,,,,,,2,1.1354955199931283,102,001,2019_Sep_04_1015,MusicAffectPsychophysiology2019,3.0.5,60.036125657811176,
To what extent did the music make you feel ,EXCITED,30MonoWAV/30MonoH3.wav,2,2,1,7,,,,,0,9,9,6,0,7,7,7,,,,,,,,,1,1.0037237979995552,102,001,2019_Sep_04_1015,MusicAffectPsychophysiology2019,3.0.5,60.036125657811176,
To what extent did the music make you feel ,TENDER,30MonoWAV/30MonoH3.wav,2,2,1,7,,,,,0,9,9,6,0,8,8,10,,,,,,,,,1,0.8449149890220724,102,001,2019_Sep_04_1015,MusicAffectPsychophysiology2019,3.0.5,60.036125657811176,
To what extent did the music make you feel ,FRUSTRATED,30MonoWAV/30MonoH3.wav,2,2,1,7,,,,,0,9,9,6,0,9,9,3,,,,,,,,,1,1.2271855160070118,102,001,2019_Sep_04_1015,MusicAffectPsychophysiology2019,3.0.5,60.036125657811176,
To what extent did the music make you feel ,ANGRY,30MonoWAV/30MonoH3.wav,2,2,1,7,,,,,0,9,9,6,0,10,10,2,,,,,,,,,1,1.1523887700168416,102,001,2019_Sep_04_1015,MusicAffectPsychophysiology2019,3.0.5,60.036125657811176,
To what extent did the music make you feel ,SAD,30MonoWAV/30MonoH3.wav,2,2,1,7,,,,,0,9,9,6,0,11,11,0,,,,,,,,,1,1.0856521129899193,102,001,2019_Sep_04_1015,MusicAffectPsychophysiology2019,3.0.5,60.036125657811176,
,,30MonoWAV/30MonoH3.wav,2,2,1,7,,,,,0,9,9,6,,,,,,,,,,,,,,,102,001,2019_Sep_04_1015,MusicAffectPsychophysiology2019,3.0.5,60.036125657811176,
To what extent did the music make you feel ,ACTIVE,30MonoWAV/30MonoF2.wav,1,2,2,2,,,,,0,10,10,1,0,0,0,9,,,2,3.1183121369977016,1,1.1190708029898815,1,1.070027004025178,2,1.0887823090015445,102,001,2019_Sep_04_1015,MusicAffectPsychophysiology2019,3.0.5,60.036125657811176,
To what extent did the music make you feel ,GUILTY,30MonoWAV/30MonoF2.wav,1,2,2,2,,,,,0,10,10,1,0,1,1,5,,,,,,,,,1,0.8527872790000401,102,001,2019_Sep_04_1015,MusicAffectPsychophysiology2019,3.0.5,60.036125657811176,
To what extent did the music make you feel ,FRUSTRATED,30MonoWAV/30MonoF2.wav,1,2,2,2,,,,,0,10,10,1,0,2,2,3,,,,,,,,,2,0.9555933469964657,102,001,2019_Sep_04_1015,MusicAffectPsychophysiology2019,3.0.5,60.036125657811176,
To what extent did the music make you feel ,ANXIOUS ,30MonoWAV/30MonoF2.wav,1,2,2,2,,,,,0,10,10,1,0,3,3,1,,,,,,,,,3,1.5361579780001193,102,001,2019_Sep_04_1015,MusicAffectPsychophysiology2019,3.0.5,60.036125657811176,
To what extent did the music make you feel ,SCARED,30MonoWAV/30MonoF2.wav,1,2,2,2,,,,,0,10,10,1,0,4,4,11,,,,,,,,,3,1.0845365330169443,102,001,2019_Sep_04_1015,MusicAffectPsychophysiology2019,3.0.5,60.036125657811176,
To what extent did the music make you feel ,SAD,30MonoWAV/30MonoF2.wav,1,2,2,2,,,,,0,10,10,1,0,5,5,0,,,,,,,,,1,0.9353045730094891,102,001,2019_Sep_04_1015,MusicAffectPsychophysiology2019,3.0.5,60.036125657811176,
To what extent did the music make you feel ,ASHAMED,30MonoWAV/30MonoF2.wav,1,2,2,2,,,,,0,10,10,1,0,6,6,4,,,,,,,,,1,0.6363475449907128,102,001,2019_Sep_04_1015,MusicAffectPsychophysiology2019,3.0.5,60.036125657811176,
To what extent did the music make you feel ,ANGRY,30MonoWAV/30MonoF2.wav,1,2,2,2,,,,,0,10,10,1,0,7,7,2,,,,,,,,,1,0.6028231800009962,102,001,2019_Sep_04_1015,MusicAffectPsychophysiology2019,3.0.5,60.036125657811176,
To what extent did the music make you feel ,EXCITED,30MonoWAV/30MonoF2.wav,1,2,2,2,,,,,0,10,10,1,0,8,8,7,,,,,,,,,1,0.652524141012691,102,001,2019_Sep_04_1015,MusicAffectPsychophysiology2019,3.0.5,60.036125657811176,
To what extent did the music make you feel ,TENDER,30MonoWAV/30MonoF2.wav,1,2,2,2,,,,,0,10,10,1,0,9,9,10,,,,,,,,,1,0.7866274070111103,102,001,2019_Sep_04_1015,MusicAffectPsychophysiology2019,3.0.5,60.036125657811176,
To what extent did the music make you feel ,ALERT,30MonoWAV/30MonoF2.wav,1,2,2,2,,,,,0,10,10,1,0,10,10,8,,,,,,,,,4,3.25135121398489,102,001,2019_Sep_04_1015,MusicAffectPsychophysiology2019,3.0.5,60.036125657811176,
To what extent did the music make you feel ,HAPPY,30MonoWAV/30MonoF2.wav,1,2,2,2,,,,,0,10,10,1,0,11,11,6,,,,,,,,,1,1.1696907760051545,102,001,2019_Sep_04_1015,MusicAffectPsychophysiology2019,3.0.5,60.036125657811176,
,,30MonoWAV/30MonoF2.wav,1,2,2,2,,,,,0,10,10,1,,,,,,,,,,,,,,,102,001,2019_Sep_04_1015,MusicAffectPsychophysiology2019,3.0.5,60.036125657811176,
To what extent did the music make you feel ,SCARED,30MonoWAV/30MonoH2.wav,2,2,1,6,,,,,0,11,11,5,0,0,0,11,,,1,3.5191611839982215,1,2.535918576992117,2,1.918523792992346,1,1.3334748769993894,102,001,2019_Sep_04_1015,MusicAffectPsychophysiology2019,3.0.5,60.036125657811176,
To what extent did the music make you feel ,EXCITED,30MonoWAV/30MonoH2.wav,2,2,1,6,,,,,0,11,11,5,0,1,1,7,,,,,,,,,1,0.8864196719950996,102,001,2019_Sep_04_1015,MusicAffectPsychophysiology2019,3.0.5,60.036125657811176,
To what extent did the music make you feel ,ANXIOUS ,30MonoWAV/30MonoH2.wav,2,2,1,6,,,,,0,11,11,5,0,2,2,1,,,,,,,,,1,0.6685417379776482,102,001,2019_Sep_04_1015,MusicAffectPsychophysiology2019,3.0.5,60.036125657811176,
To what extent did the music make you feel ,ASHAMED,30MonoWAV/30MonoH2.wav,2,2,1,6,,,,,0,11,11,5,0,3,3,4,,,,,,,,,1,0.5024354179913644,102,001,2019_Sep_04_1015,MusicAffectPsychophysiology2019,3.0.5,60.036125657811176,
To what extent did the music make you feel ,ACTIVE,30MonoWAV/30MonoH2.wav,2,2,1,6,,,,,0,11,11,5,0,4,4,9,,,,,,,,,1,0.5001254829985555,102,001,2019_Sep_04_1015,MusicAffectPsychophysiology2019,3.0.5,60.036125657811176,
To what extent did the music make you feel ,FRUSTRATED,30MonoWAV/30MonoH2.wav,2,2,1,6,,,,,0,11,11,5,0,5,5,3,,,,,,,,,1,0.40370615699794143,102,001,2019_Sep_04_1015,MusicAffectPsychophysiology2019,3.0.5,60.036125657811176,
To what extent did the music make you feel ,ALERT,30MonoWAV/30MonoH2.wav,2,2,1,6,,,,,0,11,11,5,0,6,6,8,,,,,,,,,2,1.419542643998284,102,001,2019_Sep_04_1015,MusicAffectPsychophysiology2019,3.0.5,60.036125657811176,
To what extent did the music make you feel ,ANGRY,30MonoWAV/30MonoH2.wav,2,2,1,6,,,,,0,11,11,5,0,7,7,2,,,,,,,,,1,0.45343245897674933,102,001,2019_Sep_04_1015,MusicAffectPsychophysiology2019,3.0.5,60.036125657811176,
To what extent did the music make you feel ,HAPPY,30MonoWAV/30MonoH2.wav,2,2,1,6,,,,,0,11,11,5,0,8,8,6,,,,,,,,,1,0.8507679040194489,102,001,2019_Sep_04_1015,MusicAffectPsychophysiology2019,3.0.5,60.036125657811176,
To what extent did the music make you feel ,TENDER,30MonoWAV/30MonoH2.wav,2,2,1,6,,,,,0,11,11,5,0,9,9,10,,,,,,,,,1,0.6021521980001125,102,001,2019_Sep_04_1015,MusicAffectPsychophysiology2019,3.0.5,60.036125657811176,
To what extent did the music make you feel ,GUILTY,30MonoWAV/30MonoH2.wav,2,2,1,6,,,,,0,11,11,5,0,10,10,5,,,,,,,,,1,0.5359273859940004,102,001,2019_Sep_04_1015,MusicAffectPsychophysiology2019,3.0.5,60.036125657811176,
To what extent did the music make you feel ,SAD,30MonoWAV/30MonoH2.wav,2,2,1,6,,,,,0,11,11,5,0,11,11,0,,,,,,,,,1,0.6329454810183961,102,001,2019_Sep_04_1015,MusicAffectPsychophysiology2019,3.0.5,60.036125657811176,
,,30MonoWAV/30MonoH2.wav,2,2,1,6,,,,,0,11,11,5,,,,,,,,,,,,,,,102,001,2019_Sep_04_1015,MusicAffectPsychophysiology2019,3.0.5,60.036125657811176,
To what extent did the music make you feel ,SCARED,30MonoWAV/30MonoF4.wav,1,2,2,4,,,,,0,12,12,3,0,0,0,11,,,1,2.0348306949890684,1,2.1364831299870275,1,1.202015309012495,1,0.7929044590273406,102,001,2019_Sep_04_1015,MusicAffectPsychophysiology2019,3.0.5,60.036125657811176,
To what extent did the music make you feel ,GUILTY,30MonoWAV/30MonoF4.wav,1,2,2,4,,,,,0,12,12,3,0,1,1,5,,,,,,,,,1,0.6022181900043506,102,001,2019_Sep_04_1015,MusicAffectPsychophysiology2019,3.0.5,60.036125657811176,
To what extent did the music make you feel ,TENDER,30MonoWAV/30MonoF4.wav,1,2,2,4,,,,,0,12,12,3,0,2,2,10,,,,,,,,,1,0.5861639890063088,102,001,2019_Sep_04_1015,MusicAffectPsychophysiology2019,3.0.5,60.036125657811176,
To what extent did the music make you feel ,ALERT,30MonoWAV/30MonoF4.wav,1,2,2,4,,,,,0,12,12,3,0,3,3,8,,,,,,,,,2,1.3527400809980463,102,001,2019_Sep_04_1015,MusicAffectPsychophysiology2019,3.0.5,60.036125657811176,
To what extent did the music make you feel ,FRUSTRATED,30MonoWAV/30MonoF4.wav,1,2,2,4,,,,,0,12,12,3,0,4,4,3,,,,,,,,,1,0.684093549993122,102,001,2019_Sep_04_1015,MusicAffectPsychophysiology2019,3.0.5,60.036125657811176,
To what extent did the music make you feel ,ANGRY,30MonoWAV/30MonoF4.wav,1,2,2,4,,,,,0,12,12,3,0,5,5,2,,,,,,,,,1,0.36638600402511656,102,001,2019_Sep_04_1015,MusicAffectPsychophysiology2019,3.0.5,60.036125657811176,
To what extent did the music make you feel ,ACTIVE,30MonoWAV/30MonoF4.wav,1,2,2,4,,,,,0,12,12,3,0,6,6,9,,,,,,,,,1,0.3360807440185454,102,001,2019_Sep_04_1015,MusicAffectPsychophysiology2019,3.0.5,60.036125657811176,
To what extent did the music make you feel ,ASHAMED,30MonoWAV/30MonoF4.wav,1,2,2,4,,,,,0,12,12,3,0,7,7,4,,,,,,,,,1,0.6330539480259176,102,001,2019_Sep_04_1015,MusicAffectPsychophysiology2019,3.0.5,60.036125657811176,
To what extent did the music make you feel ,HAPPY,30MonoWAV/30MonoF4.wav,1,2,2,4,,,,,0,12,12,3,0,8,8,6,,,,,,,,,1,0.3359096609929111,102,001,2019_Sep_04_1015,MusicAffectPsychophysiology2019,3.0.5,60.036125657811176,
To what extent did the music make you feel ,EXCITED,30MonoWAV/30MonoF4.wav,1,2,2,4,,,,,0,12,12,3,0,9,9,7,,,,,,,,,1,0.4358747950172983,102,001,2019_Sep_04_1015,MusicAffectPsychophysiology2019,3.0.5,60.036125657811176,
To what extent did the music make you feel ,ANXIOUS ,30MonoWAV/30MonoF4.wav,1,2,2,4,,,,,0,12,12,3,0,10,10,1,,,,,,,,,1,0.46935137099353597,102,001,2019_Sep_04_1015,MusicAffectPsychophysiology2019,3.0.5,60.036125657811176,
To what extent did the music make you feel ,SAD,30MonoWAV/30MonoF4.wav,1,2,2,4,,,,,0,12,12,3,0,11,11,0,,,,,,,,,1,0.5854616120050196,102,001,2019_Sep_04_1015,MusicAffectPsychophysiology2019,3.0.5,60.036125657811176,
,,30MonoWAV/30MonoF4.wav,1,2,2,4,,,,,0,12,12,3,,,,,,,,,,,,,,,102,001,2019_Sep_04_1015,MusicAffectPsychophysiology2019,3.0.5,60.036125657811176,
To what extent did the music make you feel ,ALERT,30MonoWAV/30MonoS4.wav,1,1,3,12,,,,,0,13,13,11,0,0,0,8,,,1,3.067763559985906,3,1.5169391839881428,3,1.1354307709843852,1,1.3370860689901747,102,001,2019_Sep_04_1015,MusicAffectPsychophysiology2019,3.0.5,60.036125657811176,
To what extent did the music make you feel ,ANGRY,30MonoWAV/30MonoS4.wav,1,1,3,12,,,,,0,13,13,11,0,1,1,2,,,,,,,,,1,0.9853179669880774,102,001,2019_Sep_04_1015,MusicAffectPsychophysiology2019,3.0.5,60.036125657811176,
To what extent did the music make you feel ,ANXIOUS ,30MonoWAV/30MonoS4.wav,1,1,3,12,,,,,0,13,13,11,0,2,2,1,,,,,,,,,1,2.2700166089925915,102,001,2019_Sep_04_1015,MusicAffectPsychophysiology2019,3.0.5,60.036125657811176,
To what extent did the music make you feel ,EXCITED,30MonoWAV/30MonoS4.wav,1,1,3,12,,,,,0,13,13,11,0,3,3,7,,,,,,,,,1,0.7031389590119943,102,001,2019_Sep_04_1015,MusicAffectPsychophysiology2019,3.0.5,60.036125657811176,
To what extent did the music make you feel ,HAPPY,30MonoWAV/30MonoS4.wav,1,1,3,12,,,,,0,13,13,11,0,4,4,6,,,,,,,,,1,1.1007183800102212,102,001,2019_Sep_04_1015,MusicAffectPsychophysiology2019,3.0.5,60.036125657811176,
To what extent did the music make you feel ,SCARED,30MonoWAV/30MonoS4.wav,1,1,3,12,,,,,0,13,13,11,0,5,5,11,,,,,,,,,1,0.56933750200551,102,001,2019_Sep_04_1015,MusicAffectPsychophysiology2019,3.0.5,60.036125657811176,
To what extent did the music make you feel ,GUILTY,30MonoWAV/30MonoS4.wav,1,1,3,12,,,,,0,13,13,11,0,6,6,5,,,,,,,,,1,0.46951815698412247,102,001,2019_Sep_04_1015,MusicAffectPsychophysiology2019,3.0.5,60.036125657811176,
To what extent did the music make you feel ,ACTIVE,30MonoWAV/30MonoS4.wav,1,1,3,12,,,,,0,13,13,11,0,7,7,9,,,,,,,,,1,0.453121601982275,102,001,2019_Sep_04_1015,MusicAffectPsychophysiology2019,3.0.5,60.036125657811176,
To what extent did the music make you feel ,ASHAMED,30MonoWAV/30MonoS4.wav,1,1,3,12,,,,,0,13,13,11,0,8,8,4,,,,,,,,,1,0.5358719860087149,102,001,2019_Sep_04_1015,MusicAffectPsychophysiology2019,3.0.5,60.036125657811176,
To what extent did the music make you feel ,SAD,30MonoWAV/30MonoS4.wav,1,1,3,12,,,,,0,13,13,11,0,9,9,0,,,,,,,,,2,1.1533771110116504,102,001,2019_Sep_04_1015,MusicAffectPsychophysiology2019,3.0.5,60.036125657811176,
To what extent did the music make you feel ,TENDER,30MonoWAV/30MonoS4.wav,1,1,3,12,,,,,0,13,13,11,0,10,10,10,,,,,,,,,2,0.9528541969775688,102,001,2019_Sep_04_1015,MusicAffectPsychophysiology2019,3.0.5,60.036125657811176,
To what extent did the music make you feel ,FRUSTRATED,30MonoWAV/30MonoS4.wav,1,1,3,12,,,,,0,13,13,11,0,11,11,3,,,,,,,,,1,1.1858403719961643,102,001,2019_Sep_04_1015,MusicAffectPsychophysiology2019,3.0.5,60.036125657811176,
,,30MonoWAV/30MonoS4.wav,1,1,3,12,,,,,0,13,13,11,,,,,,,,,,,,,,,102,001,2019_Sep_04_1015,MusicAffectPsychophysiology2019,3.0.5,60.036125657811176,
To what extent did the music make you feel ,EXCITED,30MonoWAV/30MonoT2.wav,2,1,4,14,,,,,0,14,14,13,0,0,0,7,,,1,2.5184302540146746,3,2.3690433250158094,3,1.3699282229936216,1,1.380483857006766,102,001,2019_Sep_04_1015,MusicAffectPsychophysiology2019,3.0.5,60.036125657811176,
To what extent did the music make you feel ,SCARED,30MonoWAV/30MonoT2.wav,2,1,4,14,,,,,0,14,14,13,0,1,1,11,,,,,,,,,1,0.7699260049848817,102,001,2019_Sep_04_1015,MusicAffectPsychophysiology2019,3.0.5,60.036125657811176,
To what extent did the music make you feel ,ANXIOUS ,30MonoWAV/30MonoT2.wav,2,1,4,14,,,,,0,14,14,13,0,2,2,1,,,,,,,,,1,1.1040057700010948,102,001,2019_Sep_04_1015,MusicAffectPsychophysiology2019,3.0.5,60.036125657811176,
To what extent did the music make you feel ,ASHAMED,30MonoWAV/30MonoT2.wav,2,1,4,14,,,,,0,14,14,13,0,3,3,4,,,,,,,,,1,0.4191055950068403,102,001,2019_Sep_04_1015,MusicAffectPsychophysiology2019,3.0.5,60.036125657811176,
To what extent did the music make you feel ,HAPPY,30MonoWAV/30MonoT2.wav,2,1,4,14,,,,,0,14,14,13,0,4,4,6,,,,,,,,,2,0.8860737500071991,102,001,2019_Sep_04_1015,MusicAffectPsychophysiology2019,3.0.5,60.036125657811176,
To what extent did the music make you feel ,FRUSTRATED,30MonoWAV/30MonoT2.wav,2,1,4,14,,,,,0,14,14,13,0,5,5,3,,,,,,,,,1,0.8696352709957864,102,001,2019_Sep_04_1015,MusicAffectPsychophysiology2019,3.0.5,60.036125657811176,
To what extent did the music make you feel ,ACTIVE,30MonoWAV/30MonoT2.wav,2,1,4,14,,,,,0,14,14,13,0,6,6,9,,,,,,,,,1,2.186702332983259,102,001,2019_Sep_04_1015,MusicAffectPsychophysiology2019,3.0.5,60.036125657811176,
To what extent did the music make you feel ,SAD,30MonoWAV/30MonoT2.wav,2,1,4,14,,,,,0,14,14,13,0,7,7,0,,,,,,,,,1,1.065869340003701,102,001,2019_Sep_04_1015,MusicAffectPsychophysiology2019,3.0.5,60.036125657811176,
To what extent did the music make you feel ,GUILTY,30MonoWAV/30MonoT2.wav,2,1,4,14,,,,,0,14,14,13,0,8,8,5,,,,,,,,,1,0.6690339790075086,102,001,2019_Sep_04_1015,MusicAffectPsychophysiology2019,3.0.5,60.036125657811176,
To what extent did the music make you feel ,TENDER,30MonoWAV/30MonoT2.wav,2,1,4,14,,,,,0,14,14,13,0,9,9,10,,,,,,,,,2,0.9034678809985053,102,001,2019_Sep_04_1015,MusicAffectPsychophysiology2019,3.0.5,60.036125657811176,
To what extent did the music make you feel ,ALERT,30MonoWAV/30MonoT2.wav,2,1,4,14,,,,,0,14,14,13,0,10,10,8,,,,,,,,,2,1.5346639320196118,102,001,2019_Sep_04_1015,MusicAffectPsychophysiology2019,3.0.5,60.036125657811176,
To what extent did the music make you feel ,ANGRY,30MonoWAV/30MonoT2.wav,2,1,4,14,,,,,0,14,14,13,0,11,11,2,,,,,,,,,1,0.9862162079953123,102,001,2019_Sep_04_1015,MusicAffectPsychophysiology2019,3.0.5,60.036125657811176,
,,30MonoWAV/30MonoT2.wav,2,1,4,14,,,,,0,14,14,13,,,,,,,,,,,,,,,102,001,2019_Sep_04_1015,MusicAffectPsychophysiology2019,3.0.5,60.036125657811176,
To what extent did the music make you feel ,ANXIOUS ,30MonoWAV/30MonoH4.wav,2,2,1,8,,,,,0,15,15,7,0,0,0,1,,,4,2.9833737419976387,3,1.550682158995187,3,2.183119708992308,1,1.1027158529905137,102,001,2019_Sep_04_1015,MusicAffectPsychophysiology2019,3.0.5,60.036125657811176,
To what extent did the music make you feel ,HAPPY,30MonoWAV/30MonoH4.wav,2,2,1,8,,,,,0,15,15,7,0,1,1,6,,,,,,,,,3,1.3904692149953917,102,001,2019_Sep_04_1015,MusicAffectPsychophysiology2019,3.0.5,60.036125657811176,
To what extent did the music make you feel ,TENDER,30MonoWAV/30MonoH4.wav,2,2,1,8,,,,,0,15,15,7,0,2,2,10,,,,,,,,,1,1.4030156020016875,102,001,2019_Sep_04_1015,MusicAffectPsychophysiology2019,3.0.5,60.036125657811176,
To what extent did the music make you feel ,ASHAMED,30MonoWAV/30MonoH4.wav,2,2,1,8,,,,,0,15,15,7,0,3,3,4,,,,,,,,,1,0.7343092759838328,102,001,2019_Sep_04_1015,MusicAffectPsychophysiology2019,3.0.5,60.036125657811176,
To what extent did the music make you feel ,ALERT,30MonoWAV/30MonoH4.wav,2,2,1,8,,,,,0,15,15,7,0,4,4,8,,,,,,,,,2,1.4189166620199103,102,001,2019_Sep_04_1015,MusicAffectPsychophysiology2019,3.0.5,60.036125657811176,
To what extent did the music make you feel ,SCARED,30MonoWAV/30MonoH4.wav,2,2,1,8,,,,,0,15,15,7,0,5,5,11,,,,,,,,,1,0.7356526929943357,102,001,2019_Sep_04_1015,MusicAffectPsychophysiology2019,3.0.5,60.036125657811176,
To what extent did the music make you feel ,SAD,30MonoWAV/30MonoH4.wav,2,2,1,8,,,,,0,15,15,7,0,6,6,0,,,,,,,,,1,0.7521798730012961,102,001,2019_Sep_04_1015,MusicAffectPsychophysiology2019,3.0.5,60.036125657811176,
To what extent did the music make you feel ,GUILTY,30MonoWAV/30MonoH4.wav,2,2,1,8,,,,,0,15,15,7,0,7,7,5,,,,,,,,,1,0.6860932300041895,102,001,2019_Sep_04_1015,MusicAffectPsychophysiology2019,3.0.5,60.036125657811176,
To what extent did the music make you feel ,EXCITED,30MonoWAV/30MonoH4.wav,2,2,1,8,,,,,0,15,15,7,0,8,8,7,,,,,,,,,3,1.3355578669870738,102,001,2019_Sep_04_1015,MusicAffectPsychophysiology2019,3.0.5,60.036125657811176,
To what extent did the music make you feel ,ACTIVE,30MonoWAV/30MonoH4.wav,2,2,1,8,,,,,0,15,15,7,0,9,9,9,,,,,,,,,2,1.153918428986799,102,001,2019_Sep_04_1015,MusicAffectPsychophysiology2019,3.0.5,60.036125657811176,
To what extent did the music make you feel ,FRUSTRATED,30MonoWAV/30MonoH4.wav,2,2,1,8,,,,,0,15,15,7,0,10,10,3,,,,,,,,,1,0.6881512530089822,102,001,2019_Sep_04_1015,MusicAffectPsychophysiology2019,3.0.5,60.036125657811176,
To what extent did the music make you feel ,ANGRY,30MonoWAV/30MonoH4.wav,2,2,1,8,,,,,0,15,15,7,0,11,11,2,,,,,,,,,1,0.6355572350148577,102,001,2019_Sep_04_1015,MusicAffectPsychophysiology2019,3.0.5,60.036125657811176,
,,30MonoWAV/30MonoH4.wav,2,2,1,8,,,,,0,15,15,7,,,,,,,,,,,,,,,102,001,2019_Sep_04_1015,MusicAffectPsychophysiology2019,3.0.5,60.036125657811176,
To what extent did the music make you feel ,ASHAMED,30MonoWAV/30MonoH4.wav,2,2,1,8,,,,,1,0,16,7,0,0,0,4,,,3,3.4518268610117957,3,2.253751070005819,2,1.8682345490087755,1,1.0983530819939915,102,001,2019_Sep_04_1015,MusicAffectPsychophysiology2019,3.0.5,60.036125657811176,
To what extent did the music make you feel ,ALERT,30MonoWAV/30MonoH4.wav,2,2,1,8,,,,,1,0,16,7,0,1,1,8,,,,,,,,,2,1.3373197409964632,102,001,2019_Sep_04_1015,MusicAffectPsychophysiology2019,3.0.5,60.036125657811176,
To what extent did the music make you feel ,SCARED,30MonoWAV/30MonoH4.wav,2,2,1,8,,,,,1,0,16,7,0,2,2,11,,,,,,,,,1,0.7694621380069293,102,001,2019_Sep_04_1015,MusicAffectPsychophysiology2019,3.0.5,60.036125657811176,
To what extent did the music make you feel ,TENDER,30MonoWAV/30MonoH4.wav,2,2,1,8,,,,,1,0,16,7,0,3,3,10,,,,,,,,,1,0.9360502380004618,102,001,2019_Sep_04_1015,MusicAffectPsychophysiology2019,3.0.5,60.036125657811176,
To what extent did the music make you feel ,ANGRY,30MonoWAV/30MonoH4.wav,2,2,1,8,,,,,1,0,16,7,0,4,4,2,,,,,,,,,1,0.7024618909927085,102,001,2019_Sep_04_1015,MusicAffectPsychophysiology2019,3.0.5,60.036125657811176,
To what extent did the music make you feel ,HAPPY,30MonoWAV/30MonoH4.wav,2,2,1,8,,,,,1,0,16,7,0,5,5,6,,,,,,,,,3,1.5505792289914098,102,001,2019_Sep_04_1015,MusicAffectPsychophysiology2019,3.0.5,60.036125657811176,
To what extent did the music make you feel ,EXCITED,30MonoWAV/30MonoH4.wav,2,2,1,8,,,,,1,0,16,7,0,6,6,7,,,,,,,,,3,1.0008584109891672,102,001,2019_Sep_04_1015,MusicAffectPsychophysiology2019,3.0.5,60.036125657811176,
To what extent did the music make you feel ,GUILTY,30MonoWAV/30MonoH4.wav,2,2,1,8,,,,,1,0,16,7,0,7,7,5,,,,,,,,,1,0.8189957049908116,102,001,2019_Sep_04_1015,MusicAffectPsychophysiology2019,3.0.5,60.036125657811176,
To what extent did the music make you feel ,ANXIOUS ,30MonoWAV/30MonoH4.wav,2,2,1,8,,,,,1,0,16,7,0,8,8,1,,,,,,,,,1,0.70345389097929,102,001,2019_Sep_04_1015,MusicAffectPsychophysiology2019,3.0.5,60.036125657811176,
To what extent did the music make you feel ,FRUSTRATED,30MonoWAV/30MonoH4.wav,2,2,1,8,,,,,1,0,16,7,0,9,9,3,,,,,,,,,1,0.6346758129948284,102,001,2019_Sep_04_1015,MusicAffectPsychophysiology2019,3.0.5,60.036125657811176,
To what extent did the music make you feel ,ACTIVE,30MonoWAV/30MonoH4.wav,2,2,1,8,,,,,1,0,16,7,0,10,10,9,,,,,,,,,3,1.4007102270261385,102,001,2019_Sep_04_1015,MusicAffectPsychophysiology2019,3.0.5,60.036125657811176,
To what extent did the music make you feel ,SAD,30MonoWAV/30MonoH4.wav,2,2,1,8,,,,,1,0,16,7,0,11,11,0,,,,,,,,,1,1.337914727977477,102,001,2019_Sep_04_1015,MusicAffectPsychophysiology2019,3.0.5,60.036125657811176,
,,30MonoWAV/30MonoH4.wav,2,2,1,8,,,,,1,0,16,7,,,,,,,,,,,,,,,102,001,2019_Sep_04_1015,MusicAffectPsychophysiology2019,3.0.5,60.036125657811176,
To what extent did the music make you feel ,TENDER,30MonoWAV/30MonoS3.wav,1,1,3,11,,,,,1,1,17,10,0,0,0,10,,,1,2.635487499006558,1,1.8664207399997395,1,1.1523295819933992,1,0.7749672530044336,102,001,2019_Sep_04_1015,MusicAffectPsychophysiology2019,3.0.5,60.036125657811176,
To what extent did the music make you feel ,SAD,30MonoWAV/30MonoS3.wav,1,1,3,11,,,,,1,1,17,10,0,1,1,0,,,,,,,,,2,0.9357279679970816,102,001,2019_Sep_04_1015,MusicAffectPsychophysiology2019,3.0.5,60.036125657811176,
To what extent did the music make you feel ,FRUSTRATED,30MonoWAV/30MonoS3.wav,1,1,3,11,,,,,1,1,17,10,0,2,2,3,,,,,,,,,1,0.7694792119727936,102,001,2019_Sep_04_1015,MusicAffectPsychophysiology2019,3.0.5,60.036125657811176,
To what extent did the music make you feel ,EXCITED,30MonoWAV/30MonoS3.wav,1,1,3,11,,,,,1,1,17,10,0,3,3,7,,,,,,,,,1,0.5862572860205546,102,001,2019_Sep_04_1015,MusicAffectPsychophysiology2019,3.0.5,60.036125657811176,
To what extent did the music make you feel ,ACTIVE,30MonoWAV/30MonoS3.wav,1,1,3,11,,,,,1,1,17,10,0,4,4,9,,,,,,,,,1,0.7032780310255475,102,001,2019_Sep_04_1015,MusicAffectPsychophysiology2019,3.0.5,60.036125657811176,
To what extent did the music make you feel ,GUILTY,30MonoWAV/30MonoS3.wav,1,1,3,11,,,,,1,1,17,10,0,5,5,5,,,,,,,,,1,0.7673234069952741,102,001,2019_Sep_04_1015,MusicAffectPsychophysiology2019,3.0.5,60.036125657811176,
To what extent did the music make you feel ,SCARED,30MonoWAV/30MonoS3.wav,1,1,3,11,,,,,1,1,17,10,0,6,6,11,,,,,,,,,1,0.7360735819966067,102,001,2019_Sep_04_1015,MusicAffectPsychophysiology2019,3.0.5,60.036125657811176,
To what extent did the music make you feel ,ASHAMED,30MonoWAV/30MonoS3.wav,1,1,3,11,,,,,1,1,17,10,0,7,7,4,,,,,,,,,1,0.6690824709949084,102,001,2019_Sep_04_1015,MusicAffectPsychophysiology2019,3.0.5,60.036125657811176,
To what extent did the music make you feel ,HAPPY,30MonoWAV/30MonoS3.wav,1,1,3,11,,,,,1,1,17,10,0,8,8,6,,,,,,,,,1,0.7018207399814855,102,001,2019_Sep_04_1015,MusicAffectPsychophysiology2019,3.0.5,60.036125657811176,
To what extent did the music make you feel ,ANXIOUS ,30MonoWAV/30MonoS3.wav,1,1,3,11,,,,,1,1,17,10,0,9,9,1,,,,,,,,,1,0.7185378989961464,102,001,2019_Sep_04_1015,MusicAffectPsychophysiology2019,3.0.5,60.036125657811176,
To what extent did the music make you feel ,ANGRY,30MonoWAV/30MonoS3.wav,1,1,3,11,,,,,1,1,17,10,0,10,10,2,,,,,,,,,1,0.6530994499917142,102,001,2019_Sep_04_1015,MusicAffectPsychophysiology2019,3.0.5,60.036125657811176,
To what extent did the music make you feel ,ALERT,30MonoWAV/30MonoS3.wav,1,1,3,11,,,,,1,1,17,10,0,11,11,8,,,,,,,,,1,0.770464881992666,102,001,2019_Sep_04_1015,MusicAffectPsychophysiology2019,3.0.5,60.036125657811176,
,,30MonoWAV/30MonoS3.wav,1,1,3,11,,,,,1,1,17,10,,,,,,,,,,,,,,,102,001,2019_Sep_04_1015,MusicAffectPsychophysiology2019,3.0.5,60.036125657811176,
To what extent did the music make you feel ,EXCITED,30MonoWAV/30MonoT3.wav,2,1,4,15,,,,,1,2,18,14,0,0,0,7,,,1,2.7851335000013933,2,1.1193553420016542,2,1.3860289689910132,1,1.4719085280084983,102,001,2019_Sep_04_1015,MusicAffectPsychophysiology2019,3.0.5,60.036125657811176,
To what extent did the music make you feel ,HAPPY,30MonoWAV/30MonoT3.wav,2,1,4,15,,,,,1,2,18,14,0,1,1,6,,,,,,,,,3,1.2854289220122155,102,001,2019_Sep_04_1015,MusicAffectPsychophysiology2019,3.0.5,60.036125657811176,
To what extent did the music make you feel ,SCARED,30MonoWAV/30MonoT3.wav,2,1,4,15,,,,,1,2,18,14,0,2,2,11,,,,,,,,,1,0.9686668869981077,102,001,2019_Sep_04_1015,MusicAffectPsychophysiology2019,3.0.5,60.036125657811176,
To what extent did the music make you feel ,ACTIVE,30MonoWAV/30MonoT3.wav,2,1,4,15,,,,,1,2,18,14,0,3,3,9,,,,,,,,,2,1.0027889430057257,102,001,2019_Sep_04_1015,MusicAffectPsychophysiology2019,3.0.5,60.036125657811176,
To what extent did the music make you feel ,ALERT,30MonoWAV/30MonoT3.wav,2,1,4,15,,,,,1,2,18,14,0,4,4,8,,,,,,,,,1,0.768930020974949,102,001,2019_Sep_04_1015,MusicAffectPsychophysiology2019,3.0.5,60.036125657811176,
To what extent did the music make you feel ,ANXIOUS ,30MonoWAV/30MonoT3.wav,2,1,4,15,,,,,1,2,18,14,0,5,5,1,,,,,,,,,1,0.5855479049787391,102,001,2019_Sep_04_1015,MusicAffectPsychophysiology2019,3.0.5,60.036125657811176,
To what extent did the music make you feel ,TENDER,30MonoWAV/30MonoT3.wav,2,1,4,15,,,,,1,2,18,14,0,6,6,10,,,,,,,,,2,1.2336563289863989,102,001,2019_Sep_04_1015,MusicAffectPsychophysiology2019,3.0.5,60.036125657811176,
To what extent did the music make you feel ,ANGRY,30MonoWAV/30MonoT3.wav,2,1,4,15,,,,,1,2,18,14,0,7,7,2,,,,,,,,,1,0.6171294839878101,102,001,2019_Sep_04_1015,MusicAffectPsychophysiology2019,3.0.5,60.036125657811176,
To what extent did the music make you feel ,GUILTY,30MonoWAV/30MonoT3.wav,2,1,4,15,,,,,1,2,18,14,0,8,8,5,,,,,,,,,1,0.6373965079837944,102,001,2019_Sep_04_1015,MusicAffectPsychophysiology2019,3.0.5,60.036125657811176,
To what extent did the music make you feel ,SAD,30MonoWAV/30MonoT3.wav,2,1,4,15,,,,,1,2,18,14,0,9,9,0,,,,,,,,,1,0.802243021025788,102,001,2019_Sep_04_1015,MusicAffectPsychophysiology2019,3.0.5,60.036125657811176,
To what extent did the music make you feel ,FRUSTRATED,30MonoWAV/30MonoT3.wav,2,1,4,15,,,,,1,2,18,14,0,10,10,3,,,,,,,,,1,0.5029027920099907,102,001,2019_Sep_04_1015,MusicAffectPsychophysiology2019,3.0.5,60.036125657811176,
To what extent did the music make you feel ,ASHAMED,30MonoWAV/30MonoT3.wav,2,1,4,15,,,,,1,2,18,14,0,11,11,4,,,,,,,,,1,0.4032162709918339,102,001,2019_Sep_04_1015,MusicAffectPsychophysiology2019,3.0.5,60.036125657811176,
,,30MonoWAV/30MonoT3.wav,2,1,4,15,,,,,1,2,18,14,,,,,,,,,,,,,,,102,001,2019_Sep_04_1015,MusicAffectPsychophysiology2019,3.0.5,60.036125657811176,
To what extent did the music make you feel ,ANGRY,30MonoWAV/30MonoH1.wav,2,2,1,5,,,,,1,3,19,4,0,0,0,2,,,1,2.401425494987052,2,1.4501881440228317,3,1.0020802810031455,1,1.0185448630072642,102,001,2019_Sep_04_1015,MusicAffectPsychophysiology2019,3.0.5,60.036125657811176,
To what extent did the music make you feel ,ALERT,30MonoWAV/30MonoH1.wav,2,2,1,5,,,,,1,3,19,4,0,1,1,8,,,,,,,,,2,1.2017813519923948,102,001,2019_Sep_04_1015,MusicAffectPsychophysiology2019,3.0.5,60.036125657811176,
To what extent did the music make you feel ,TENDER,30MonoWAV/30MonoH1.wav,2,2,1,5,,,,,1,3,19,4,0,2,2,10,,,,,,,,,1,0.8527977119956631,102,001,2019_Sep_04_1015,MusicAffectPsychophysiology2019,3.0.5,60.036125657811176,
To what extent did the music make you feel ,GUILTY,30MonoWAV/30MonoH1.wav,2,2,1,5,,,,,1,3,19,4,0,3,3,5,,,,,,,,,1,0.653414534026524,102,001,2019_Sep_04_1015,MusicAffectPsychophysiology2019,3.0.5,60.036125657811176,
To what extent did the music make you feel ,ACTIVE,30MonoWAV/30MonoH1.wav,2,2,1,5,,,,,1,3,19,4,0,4,4,9,,,,,,,,,2,0.8519988089974504,102,001,2019_Sep_04_1015,MusicAffectPsychophysiology2019,3.0.5,60.036125657811176,
To what extent did the music make you feel ,EXCITED,30MonoWAV/30MonoH1.wav,2,2,1,5,,,,,1,3,19,4,0,5,5,7,,,,,,,,,2,1.6191832270123996,102,001,2019_Sep_04_1015,MusicAffectPsychophysiology2019,3.0.5,60.036125657811176,
To what extent did the music make you feel ,HAPPY,30MonoWAV/30MonoH1.wav,2,2,1,5,,,,,1,3,19,4,0,6,6,6,,,,,,,,,3,0.9524956209934317,102,001,2019_Sep_04_1015,MusicAffectPsychophysiology2019,3.0.5,60.036125657811176,
To what extent did the music make you feel ,ANXIOUS ,30MonoWAV/30MonoH1.wav,2,2,1,5,,,,,1,3,19,4,0,7,7,1,,,,,,,,,1,0.9194755920034368,102,001,2019_Sep_04_1015,MusicAffectPsychophysiology2019,3.0.5,60.036125657811176,
To what extent did the music make you feel ,FRUSTRATED,30MonoWAV/30MonoH1.wav,2,2,1,5,,,,,1,3,19,4,0,8,8,3,,,,,,,,,1,0.634911002998706,102,001,2019_Sep_04_1015,MusicAffectPsychophysiology2019,3.0.5,60.036125657811176,
To what extent did the music make you feel ,SAD,30MonoWAV/30MonoH1.wav,2,2,1,5,,,,,1,3,19,4,0,9,9,0,,,,,,,,,1,0.6695089910062961,102,001,2019_Sep_04_1015,MusicAffectPsychophysiology2019,3.0.5,60.036125657811176,
To what extent did the music make you feel ,ASHAMED,30MonoWAV/30MonoH1.wav,2,2,1,5,,,,,1,3,19,4,0,10,10,4,,,,,,,,,1,0.6194929240155034,102,001,2019_Sep_04_1015,MusicAffectPsychophysiology2019,3.0.5,60.036125657811176,
To what extent did the music make you feel ,SCARED,30MonoWAV/30MonoH1.wav,2,2,1,5,,,,,1,3,19,4,0,11,11,11,,,,,,,,,1,0.5862056769838091,102,001,2019_Sep_04_1015,MusicAffectPsychophysiology2019,3.0.5,60.036125657811176,
,,30MonoWAV/30MonoH1.wav,2,2,1,5,,,,,1,3,19,4,,,,,,,,,,,,,,,102,001,2019_Sep_04_1015,MusicAffectPsychophysiology2019,3.0.5,60.036125657811176,
To what extent did the music make you feel ,SCARED,30MonoWAV/30MonoS4.wav,1,1,3,12,,,,,1,4,20,11,0,0,0,11,,,1,2.002212024992332,2,1.1704150819859933,3,1.4858493809879292,1,1.0025336069811601,102,001,2019_Sep_04_1015,MusicAffectPsychophysiology2019,3.0.5,60.036125657811176,
To what extent did the music make you feel ,ANXIOUS ,30MonoWAV/30MonoS4.wav,1,1,3,12,,,,,1,4,20,11,0,1,1,1,,,,,,,,,1,0.6850645589875057,102,001,2019_Sep_04_1015,MusicAffectPsychophysiology2019,3.0.5,60.036125657811176,
To what extent did the music make you feel ,FRUSTRATED,30MonoWAV/30MonoS4.wav,1,1,3,12,,,,,1,4,20,11,0,2,2,3,,,,,,,,,1,0.5350165790005121,102,001,2019_Sep_04_1015,MusicAffectPsychophysiology2019,3.0.5,60.036125657811176,
To what extent did the music make you feel ,SAD,30MonoWAV/30MonoS4.wav,1,1,3,12,,,,,1,4,20,11,0,3,3,0,,,,,,,,,2,1.2860019149957225,102,001,2019_Sep_04_1015,MusicAffectPsychophysiology2019,3.0.5,60.036125657811176,
To what extent did the music make you feel ,HAPPY,30MonoWAV/30MonoS4.wav,1,1,3,12,,,,,1,4,20,11,0,4,4,6,,,,,,,,,1,0.8690865829994436,102,001,2019_Sep_04_1015,MusicAffectPsychophysiology2019,3.0.5,60.036125657811176,
To what extent did the music make you feel ,ALERT,30MonoWAV/30MonoS4.wav,1,1,3,12,,,,,1,4,20,11,0,5,5,8,,,,,,,,,2,0.9692399709892925,102,001,2019_Sep_04_1015,MusicAffectPsychophysiology2019,3.0.5,60.036125657811176,
To what extent did the music make you feel ,ASHAMED,30MonoWAV/30MonoS4.wav,1,1,3,12,,,,,1,4,20,11,0,6,6,4,,,,,,,,,1,0.5694008529826533,102,001,2019_Sep_04_1015,MusicAffectPsychophysiology2019,3.0.5,60.036125657811176,
To what extent did the music make you feel ,ACTIVE,30MonoWAV/30MonoS4.wav,1,1,3,12,,,,,1,4,20,11,0,7,7,9,,,,,,,,,1,0.8371260029962286,102,001,2019_Sep_04_1015,MusicAffectPsychophysiology2019,3.0.5,60.036125657811176,
To what extent did the music make you feel ,TENDER,30MonoWAV/30MonoS4.wav,1,1,3,12,,,,,1,4,20,11,0,8,8,10,,,,,,,,,3,1.5699516110180411,102,001,2019_Sep_04_1015,MusicAffectPsychophysiology2019,3.0.5,60.036125657811176,
To what extent did the music make you feel ,GUILTY,30MonoWAV/30MonoS4.wav,1,1,3,12,,,,,1,4,20,11,0,9,9,5,,,,,,,,,1,0.8333819909894373,102,001,2019_Sep_04_1015,MusicAffectPsychophysiology2019,3.0.5,60.036125657811176,
To what extent did the music make you feel ,EXCITED,30MonoWAV/30MonoS4.wav,1,1,3,12,,,,,1,4,20,11,0,10,10,7,,,,,,,,,1,0.8856356129981577,102,001,2019_Sep_04_1015,MusicAffectPsychophysiology2019,3.0.5,60.036125657811176,
To what extent did the music make you feel ,ANGRY,30MonoWAV/30MonoS4.wav,1,1,3,12,,,,,1,4,20,11,0,11,11,2,,,,,,,,,1,0.7003772720054258,102,001,2019_Sep_04_1015,MusicAffectPsychophysiology2019,3.0.5,60.036125657811176,
,,30MonoWAV/30MonoS4.wav,1,1,3,12,,,,,1,4,20,11,,,,,,,,,,,,,,,102,001,2019_Sep_04_1015,MusicAffectPsychophysiology2019,3.0.5,60.036125657811176,
To what extent did the music make you feel ,EXCITED,30MonoWAV/30MonoF3.wav,1,2,2,3,,,,,1,5,21,2,0,0,0,7,,,2,3.885787902021548,1,1.3837945639970712,1,1.1189090769912582,1,1.3198305040132254,102,001,2019_Sep_04_1015,MusicAffectPsychophysiology2019,3.0.5,60.036125657811176,
To what extent did the music make you feel ,ANXIOUS ,30MonoWAV/30MonoF3.wav,1,2,2,3,,,,,1,5,21,2,0,1,1,1,,,,,,,,,1,0.8351859169779345,102,001,2019_Sep_04_1015,MusicAffectPsychophysiology2019,3.0.5,60.036125657811176,
To what extent did the music make you feel ,ACTIVE,30MonoWAV/30MonoF3.wav,1,2,2,3,,,,,1,5,21,2,0,2,2,9,,,,,,,,,2,1.1526752439967822,102,001,2019_Sep_04_1015,MusicAffectPsychophysiology2019,3.0.5,60.036125657811176,
To what extent did the music make you feel ,SCARED,30MonoWAV/30MonoF3.wav,1,2,2,3,,,,,1,5,21,2,0,3,3,11,,,,,,,,,1,0.8666141870198771,102,001,2019_Sep_04_1015,MusicAffectPsychophysiology2019,3.0.5,60.036125657811176,
To what extent did the music make you feel ,SAD,30MonoWAV/30MonoF3.wav,1,2,2,3,,,,,1,5,21,2,0,4,4,0,,,,,,,,,1,0.9186324930051342,102,001,2019_Sep_04_1015,MusicAffectPsychophysiology2019,3.0.5,60.036125657811176,
To what extent did the music make you feel ,HAPPY,30MonoWAV/30MonoF3.wav,1,2,2,3,,,,,1,5,21,2,0,5,5,6,,,,,,,,,1,0.8859603620076086,102,001,2019_Sep_04_1015,MusicAffectPsychophysiology2019,3.0.5,60.036125657811176,
To what extent did the music make you feel ,ASHAMED,30MonoWAV/30MonoF3.wav,1,2,2,3,,,,,1,5,21,2,0,6,6,4,,,,,,,,,1,0.819943829003023,102,001,2019_Sep_04_1015,MusicAffectPsychophysiology2019,3.0.5,60.036125657811176,
To what extent did the music make you feel ,ALERT,30MonoWAV/30MonoF3.wav,1,2,2,3,,,,,1,5,21,2,0,7,7,8,,,,,,,,,1,0.8529204039950855,102,001,2019_Sep_04_1015,MusicAffectPsychophysiology2019,3.0.5,60.036125657811176,
To what extent did the music make you feel ,GUILTY,30MonoWAV/30MonoF3.wav,1,2,2,3,,,,,1,5,21,2,0,8,8,5,,,,,,,,,1,0.9016647990210913,102,001,2019_Sep_04_1015,MusicAffectPsychophysiology2019,3.0.5,60.036125657811176,
To what extent did the music make you feel ,TENDER,30MonoWAV/30MonoF3.wav,1,2,2,3,,,,,1,5,21,2,0,9,9,10,,,,,,,,,1,0.9187280570040457,102,001,2019_Sep_04_1015,MusicAffectPsychophysiology2019,3.0.5,60.036125657811176,
To what extent did the music make you feel ,FRUSTRATED,30MonoWAV/30MonoF3.wav,1,2,2,3,,,,,1,5,21,2,0,10,10,3,,,,,,,,,3,1.4026486340153497,102,001,2019_Sep_04_1015,MusicAffectPsychophysiology2019,3.0.5,60.036125657811176,
To what extent did the music make you feel ,ANGRY,30MonoWAV/30MonoF3.wav,1,2,2,3,,,,,1,5,21,2,0,11,11,2,,,,,,,,,2,3.0520922929863445,102,001,2019_Sep_04_1015,MusicAffectPsychophysiology2019,3.0.5,60.036125657811176,
,,30MonoWAV/30MonoF3.wav,1,2,2,3,,,,,1,5,21,2,,,,,,,,,,,,,,,102,001,2019_Sep_04_1015,MusicAffectPsychophysiology2019,3.0.5,60.036125657811176,
To what extent did the music make you feel ,TENDER,30MonoWAV/30MonoT1.wav,2,1,4,13,,,,,1,6,22,12,0,0,0,10,,,1,2.2855209579865914,2,2.7855626129894517,3,1.7195188839978073,2,1.0292845329968259,102,001,2019_Sep_04_1015,MusicAffectPsychophysiology2019,3.0.5,60.036125657811176,
To what extent did the music make you feel ,ACTIVE,30MonoWAV/30MonoT1.wav,2,1,4,13,,,,,1,6,22,12,0,1,1,9,,,,,,,,,1,1.0698868350009434,102,001,2019_Sep_04_1015,MusicAffectPsychophysiology2019,3.0.5,60.036125657811176,
To what extent did the music make you feel ,SAD,30MonoWAV/30MonoT1.wav,2,1,4,13,,,,,1,6,22,12,0,2,2,0,,,,,,,,,2,1.2935617409821134,102,001,2019_Sep_04_1015,MusicAffectPsychophysiology2019,3.0.5,60.036125657811176,
To what extent did the music make you feel ,SCARED,30MonoWAV/30MonoT1.wav,2,1,4,13,,,,,1,6,22,12,0,3,3,11,,,,,,,,,1,0.7019820910063572,102,001,2019_Sep_04_1015,MusicAffectPsychophysiology2019,3.0.5,60.036125657811176,
To what extent did the music make you feel ,EXCITED,30MonoWAV/30MonoT1.wav,2,1,4,13,,,,,1,6,22,12,0,4,4,7,,,,,,,,,1,0.7352761240035761,102,001,2019_Sep_04_1015,MusicAffectPsychophysiology2019,3.0.5,60.036125657811176,
To what extent did the music make you feel ,ANGRY,30MonoWAV/30MonoT1.wav,2,1,4,13,,,,,1,6,22,12,0,5,5,2,,,,,,,,,1,0.6699851579905953,102,001,2019_Sep_04_1015,MusicAffectPsychophysiology2019,3.0.5,60.036125657811176,
To what extent did the music make you feel ,GUILTY,30MonoWAV/30MonoT1.wav,2,1,4,13,,,,,1,6,22,12,0,6,6,5,,,,,,,,,1,0.7360668340115808,102,001,2019_Sep_04_1015,MusicAffectPsychophysiology2019,3.0.5,60.036125657811176,
To what extent did the music make you feel ,ASHAMED,30MonoWAV/30MonoT1.wav,2,1,4,13,,,,,1,6,22,12,0,7,7,4,,,,,,,,,1,0.7194736340024974,102,001,2019_Sep_04_1015,MusicAffectPsychophysiology2019,3.0.5,60.036125657811176,
To what extent did the music make you feel ,HAPPY,30MonoWAV/30MonoT1.wav,2,1,4,13,,,,,1,6,22,12,0,8,8,6,,,,,,,,,1,0.7670539600076154,102,001,2019_Sep_04_1015,MusicAffectPsychophysiology2019,3.0.5,60.036125657811176,
To what extent did the music make you feel ,ANXIOUS ,30MonoWAV/30MonoT1.wav,2,1,4,13,,,,,1,6,22,12,0,9,9,1,,,,,,,,,1,0.7336224270111416,102,001,2019_Sep_04_1015,MusicAffectPsychophysiology2019,3.0.5,60.036125657811176,
To what extent did the music make you feel ,FRUSTRATED,30MonoWAV/30MonoT1.wav,2,1,4,13,,,,,1,6,22,12,0,10,10,3,,,,,,,,,2,1.6162072409933899,102,001,2019_Sep_04_1015,MusicAffectPsychophysiology2019,3.0.5,60.036125657811176,
To what extent did the music make you feel ,ALERT,30MonoWAV/30MonoT1.wav,2,1,4,13,,,,,1,6,22,12,0,11,11,8,,,,,,,,,1,1.252219089976279,102,001,2019_Sep_04_1015,MusicAffectPsychophysiology2019,3.0.5,60.036125657811176,
,,30MonoWAV/30MonoT1.wav,2,1,4,13,,,,,1,6,22,12,,,,,,,,,,,,,,,102,001,2019_Sep_04_1015,MusicAffectPsychophysiology2019,3.0.5,60.036125657811176,
To what extent did the music make you feel ,TENDER,30MonoWAV/30MonoS2.wav,1,1,3,10,,,,,1,7,23,9,0,0,0,10,,,1,2.635706002009101,1,0.7040074139949866,1,0.6358407220104709,2,0.8401501790212933,102,001,2019_Sep_04_1015,MusicAffectPsychophysiology2019,3.0.5,60.036125657811176,
To what extent did the music make you feel ,HAPPY,30MonoWAV/30MonoS2.wav,1,1,3,10,,,,,1,7,23,9,0,1,1,6,,,,,,,,,1,0.8529996679862961,102,001,2019_Sep_04_1015,MusicAffectPsychophysiology2019,3.0.5,60.036125657811176,
To what extent did the music make you feel ,ANGRY,30MonoWAV/30MonoS2.wav,1,1,3,10,,,,,1,7,23,9,0,2,2,2,,,,,,,,,1,0.7516963359958027,102,001,2019_Sep_04_1015,MusicAffectPsychophysiology2019,3.0.5,60.036125657811176,
To what extent did the music make you feel ,ANXIOUS ,30MonoWAV/30MonoS2.wav,1,1,3,10,,,,,1,7,23,9,0,3,3,1,,,,,,,,,1,1.1534458849928342,102,001,2019_Sep_04_1015,MusicAffectPsychophysiology2019,3.0.5,60.036125657811176,
To what extent did the music make you feel ,SAD,30MonoWAV/30MonoS2.wav,1,1,3,10,,,,,1,7,23,9,0,4,4,0,,,,,,,,,2,0.9199255119892769,102,001,2019_Sep_04_1015,MusicAffectPsychophysiology2019,3.0.5,60.036125657811176,
To what extent did the music make you feel ,ALERT,30MonoWAV/30MonoS2.wav,1,1,3,10,,,,,1,7,23,9,0,5,5,8,,,,,,,,,1,0.752527945995098,102,001,2019_Sep_04_1015,MusicAffectPsychophysiology2019,3.0.5,60.036125657811176,
To what extent did the music make you feel ,GUILTY,30MonoWAV/30MonoS2.wav,1,1,3,10,,,,,1,7,23,9,0,6,6,5,,,,,,,,,1,0.653680927993264,102,001,2019_Sep_04_1015,MusicAffectPsychophysiology2019,3.0.5,60.036125657811176,
To what extent did the music make you feel ,EXCITED,30MonoWAV/30MonoS2.wav,1,1,3,10,,,,,1,7,23,9,0,7,7,7,,,,,,,,,1,0.5838447129935957,102,001,2019_Sep_04_1015,MusicAffectPsychophysiology2019,3.0.5,60.036125657811176,
To what extent did the music make you feel ,ACTIVE,30MonoWAV/30MonoS2.wav,1,1,3,10,,,,,1,7,23,9,0,8,8,9,,,,,,,,,1,0.5030298960045911,102,001,2019_Sep_04_1015,MusicAffectPsychophysiology2019,3.0.5,60.036125657811176,
To what extent did the music make you feel ,FRUSTRATED,30MonoWAV/30MonoS2.wav,1,1,3,10,,,,,1,7,23,9,0,9,9,3,,,,,,,,,2,0.9709564940130804,102,001,2019_Sep_04_1015,MusicAffectPsychophysiology2019,3.0.5,60.036125657811176,
To what extent did the music make you feel ,SCARED,30MonoWAV/30MonoS2.wav,1,1,3,10,,,,,1,7,23,9,0,10,10,11,,,,,,,,,1,0.46933242501108907,102,001,2019_Sep_04_1015,MusicAffectPsychophysiology2019,3.0.5,60.036125657811176,
To what extent did the music make you feel ,ASHAMED,30MonoWAV/30MonoS2.wav,1,1,3,10,,,,,1,7,23,9,0,11,11,4,,,,,,,,,1,0.4023805139877368,102,001,2019_Sep_04_1015,MusicAffectPsychophysiology2019,3.0.5,60.036125657811176,
,,30MonoWAV/30MonoS2.wav,1,1,3,10,,,,,1,7,23,9,,,,,,,,,,,,,,,102,001,2019_Sep_04_1015,MusicAffectPsychophysiology2019,3.0.5,60.036125657811176,
To what extent did the music make you feel ,ACTIVE,30MonoWAV/30MonoH3.wav,2,2,1,7,,,,,1,8,24,6,0,0,0,9,,,3,2.2696157099853735,2,1.5193802239955403,1,1.1157764020026661,2,2.5366134270152543,102,001,2019_Sep_04_1015,MusicAffectPsychophysiology2019,3.0.5,60.036125657811176,
To what extent did the music make you feel ,ANXIOUS ,30MonoWAV/30MonoH3.wav,2,2,1,7,,,,,1,8,24,6,0,1,1,1,,,,,,,,,1,0.8026501649874263,102,001,2019_Sep_04_1015,MusicAffectPsychophysiology2019,3.0.5,60.036125657811176,
To what extent did the music make you feel ,ASHAMED,30MonoWAV/30MonoH3.wav,2,2,1,7,,,,,1,8,24,6,0,2,2,4,,,,,,,,,1,0.6357449479983188,102,001,2019_Sep_04_1015,MusicAffectPsychophysiology2019,3.0.5,60.036125657811176,
To what extent did the music make you feel ,TENDER,30MonoWAV/30MonoH3.wav,2,2,1,7,,,,,1,8,24,6,0,3,3,10,,,,,,,,,1,1.101872311992338,102,001,2019_Sep_04_1015,MusicAffectPsychophysiology2019,3.0.5,60.036125657811176,
To what extent did the music make you feel ,GUILTY,30MonoWAV/30MonoH3.wav,2,2,1,7,,,,,1,8,24,6,0,4,4,5,,,,,,,,,1,0.5531319059955422,102,001,2019_Sep_04_1015,MusicAffectPsychophysiology2019,3.0.5,60.036125657811176,
To what extent did the music make you feel ,EXCITED,30MonoWAV/30MonoH3.wav,2,2,1,7,,,,,1,8,24,6,0,5,5,7,,,,,,,,,1,1.1697469730279408,102,001,2019_Sep_04_1015,MusicAffectPsychophysiology2019,3.0.5,60.036125657811176,
To what extent did the music make you feel ,SAD,30MonoWAV/30MonoH3.wav,2,2,1,7,,,,,1,8,24,6,0,6,6,0,,,,,,,,,1,0.9682324129971676,102,001,2019_Sep_04_1015,MusicAffectPsychophysiology2019,3.0.5,60.036125657811176,
To what extent did the music make you feel ,ALERT,30MonoWAV/30MonoH3.wav,2,2,1,7,,,,,1,8,24,6,0,7,7,8,,,,,,,,,2,0.86932394298492,102,001,2019_Sep_04_1015,MusicAffectPsychophysiology2019,3.0.5,60.036125657811176,
To what extent did the music make you feel ,HAPPY,30MonoWAV/30MonoH3.wav,2,2,1,7,,,,,1,8,24,6,0,8,8,6,,,,,,,,,2,1.2357002760109026,102,001,2019_Sep_04_1015,MusicAffectPsychophysiology2019,3.0.5,60.036125657811176,
To what extent did the music make you feel ,FRUSTRATED,30MonoWAV/30MonoH3.wav,2,2,1,7,,,,,1,8,24,6,0,9,9,3,,,,,,,,,2,0.965313093009172,102,001,2019_Sep_04_1015,MusicAffectPsychophysiology2019,3.0.5,60.036125657811176,
To what extent did the music make you feel ,SCARED,30MonoWAV/30MonoH3.wav,2,2,1,7,,,,,1,8,24,6,0,10,10,11,,,,,,,,,1,0.8026753629965242,102,001,2019_Sep_04_1015,MusicAffectPsychophysiology2019,3.0.5,60.036125657811176,
To what extent did the music make you feel ,ANGRY,30MonoWAV/30MonoH3.wav,2,2,1,7,,,,,1,8,24,6,0,11,11,2,,,,,,,,,1,0.7686307560070418,102,001,2019_Sep_04_1015,MusicAffectPsychophysiology2019,3.0.5,60.036125657811176,
,,30MonoWAV/30MonoH3.wav,2,2,1,7,,,,,1,8,24,6,,,,,,,,,,,,,,,102,001,2019_Sep_04_1015,MusicAffectPsychophysiology2019,3.0.5,60.036125657811176,
To what extent did the music make you feel ,EXCITED,30MonoWAV/30MonoT2.wav,2,1,4,14,,,,,1,9,25,13,0,0,0,7,,,2,2.8851740790123586,2,1.0529515149828512,2,1.0867455569969025,1,0.9273436299990863,102,001,2019_Sep_04_1015,MusicAffectPsychophysiology2019,3.0.5,60.036125657811176,
To what extent did the music make you feel ,ASHAMED,30MonoWAV/30MonoT2.wav,2,1,4,14,,,,,1,9,25,13,0,1,1,4,,,,,,,,,1,0.6690985989989713,102,001,2019_Sep_04_1015,MusicAffectPsychophysiology2019,3.0.5,60.036125657811176,
To what extent did the music make you feel ,ACTIVE,30MonoWAV/30MonoT2.wav,2,1,4,14,,,,,1,9,25,13,0,2,2,9,,,,,,,,,2,1.102089107997017,102,001,2019_Sep_04_1015,MusicAffectPsychophysiology2019,3.0.5,60.036125657811176,
To what extent did the music make you feel ,SAD,30MonoWAV/30MonoT2.wav,2,1,4,14,,,,,1,9,25,13,0,3,3,0,,,,,,,,,1,0.73597958200844,102,001,2019_Sep_04_1015,MusicAffectPsychophysiology2019,3.0.5,60.036125657811176,
To what extent did the music make you feel ,ANGRY,30MonoWAV/30MonoT2.wav,2,1,4,14,,,,,1,9,25,13,0,4,4,2,,,,,,,,,1,0.6025709310197271,102,001,2019_Sep_04_1015,MusicAffectPsychophysiology2019,3.0.5,60.036125657811176,
To what extent did the music make you feel ,GUILTY,30MonoWAV/30MonoT2.wav,2,1,4,14,,,,,1,9,25,13,0,5,5,5,,,,,,,,,1,0.5530498180014547,102,001,2019_Sep_04_1015,MusicAffectPsychophysiology2019,3.0.5,60.036125657811176,
To what extent did the music make you feel ,TENDER,30MonoWAV/30MonoT2.wav,2,1,4,14,,,,,1,9,25,13,0,6,6,10,,,,,,,,,2,0.8528430909791496,102,001,2019_Sep_04_1015,MusicAffectPsychophysiology2019,3.0.5,60.036125657811176,
To what extent did the music make you feel ,HAPPY,30MonoWAV/30MonoT2.wav,2,1,4,14,,,,,1,9,25,13,0,7,7,6,,,,,,,,,1,0.669251854007598,102,001,2019_Sep_04_1015,MusicAffectPsychophysiology2019,3.0.5,60.036125657811176,
To what extent did the music make you feel ,ALERT,30MonoWAV/30MonoT2.wav,2,1,4,14,,,,,1,9,25,13,0,8,8,8,,,,,,,,,1,0.6357339829846751,102,001,2019_Sep_04_1015,MusicAffectPsychophysiology2019,3.0.5,60.036125657811176,
To what extent did the music make you feel ,ANXIOUS ,30MonoWAV/30MonoT2.wav,2,1,4,14,,,,,1,9,25,13,0,9,9,1,,,,,,,,,1,0.5682502760028001,102,001,2019_Sep_04_1015,MusicAffectPsychophysiology2019,3.0.5,60.036125657811176,
To what extent did the music make you feel ,FRUSTRATED,30MonoWAV/30MonoT2.wav,2,1,4,14,,,,,1,9,25,13,0,10,10,3,,,,,,,,,1,0.6691989009850658,102,001,2019_Sep_04_1015,MusicAffectPsychophysiology2019,3.0.5,60.036125657811176,
To what extent did the music make you feel ,SCARED,30MonoWAV/30MonoT2.wav,2,1,4,14,,,,,1,9,25,13,0,11,11,11,,,,,,,,,1,0.6019726450031158,102,001,2019_Sep_04_1015,MusicAffectPsychophysiology2019,3.0.5,60.036125657811176,
,,30MonoWAV/30MonoT2.wav,2,1,4,14,,,,,1,9,25,13,,,,,,,,,,,,,,,102,001,2019_Sep_04_1015,MusicAffectPsychophysiology2019,3.0.5,60.036125657811176,
To what extent did the music make you feel ,ACTIVE,30MonoWAV/30MonoH2.wav,2,2,1,6,,,,,1,10,26,5,0,0,0,9,,,1,2.1531600739981513,1,0.7700491079885978,1,0.5681335639965255,1,0.72118271200452,102,001,2019_Sep_04_1015,MusicAffectPsychophysiology2019,3.0.5,60.036125657811176,
To what extent did the music make you feel ,SAD,30MonoWAV/30MonoH2.wav,2,2,1,6,,,,,1,10,26,5,0,1,1,0,,,,,,,,,1,0.3867654940113425,102,001,2019_Sep_04_1015,MusicAffectPsychophysiology2019,3.0.5,60.036125657811176,
To what extent did the music make you feel ,TENDER,30MonoWAV/30MonoH2.wav,2,2,1,6,,,,,1,10,26,5,0,2,2,10,,,,,,,,,1,0.4189652350032702,102,001,2019_Sep_04_1015,MusicAffectPsychophysiology2019,3.0.5,60.036125657811176,
To what extent did the music make you feel ,ANXIOUS ,30MonoWAV/30MonoH2.wav,2,2,1,6,,,,,1,10,26,5,0,3,3,1,,,,,,,,,1,1.0670310650020838,102,001,2019_Sep_04_1015,MusicAffectPsychophysiology2019,3.0.5,60.036125657811176,
To what extent did the music make you feel ,SCARED,30MonoWAV/30MonoH2.wav,2,2,1,6,,,,,1,10,26,5,0,4,4,11,,,,,,,,,1,0.48627737001515925,102,001,2019_Sep_04_1015,MusicAffectPsychophysiology2019,3.0.5,60.036125657811176,
To what extent did the music make you feel ,HAPPY,30MonoWAV/30MonoH2.wav,2,2,1,6,,,,,1,10,26,5,0,5,5,6,,,,,,,,,1,0.4862937180150766,102,001,2019_Sep_04_1015,MusicAffectPsychophysiology2019,3.0.5,60.036125657811176,
To what extent did the music make you feel ,ANGRY,30MonoWAV/30MonoH2.wav,2,2,1,6,,,,,1,10,26,5,0,6,6,2,,,,,,,,,1,0.5022828489891253,102,001,2019_Sep_04_1015,MusicAffectPsychophysiology2019,3.0.5,60.036125657811176,
To what extent did the music make you feel ,FRUSTRATED,30MonoWAV/30MonoH2.wav,2,2,1,6,,,,,1,10,26,5,0,7,7,3,,,,,,,,,2,1.2511139409907628,102,001,2019_Sep_04_1015,MusicAffectPsychophysiology2019,3.0.5,60.036125657811176,
To what extent did the music make you feel ,ASHAMED,30MonoWAV/30MonoH2.wav,2,2,1,6,,,,,1,10,26,5,0,8,8,4,,,,,,,,,1,0.8533306989993434,102,001,2019_Sep_04_1015,MusicAffectPsychophysiology2019,3.0.5,60.036125657811176,
To what extent did the music make you feel ,EXCITED,30MonoWAV/30MonoH2.wav,2,2,1,6,,,,,1,10,26,5,0,9,9,7,,,,,,,,,1,1.0203873209829908,102,001,2019_Sep_04_1015,MusicAffectPsychophysiology2019,3.0.5,60.036125657811176,
To what extent did the music make you feel ,ALERT,30MonoWAV/30MonoH2.wav,2,2,1,6,,,,,1,10,26,5,0,10,10,8,,,,,,,,,2,0.9523459959891625,102,001,2019_Sep_04_1015,MusicAffectPsychophysiology2019,3.0.5,60.036125657811176,
To what extent did the music make you feel ,GUILTY,30MonoWAV/30MonoH2.wav,2,2,1,6,,,,,1,10,26,5,0,11,11,5,,,,,,,,,1,0.6699222030001692,102,001,2019_Sep_04_1015,MusicAffectPsychophysiology2019,3.0.5,60.036125657811176,
,,30MonoWAV/30MonoH2.wav,2,2,1,6,,,,,1,10,26,5,,,,,,,,,,,,,,,102,001,2019_Sep_04_1015,MusicAffectPsychophysiology2019,3.0.5,60.036125657811176,
To what extent did the music make you feel ,SAD,30MonoWAV/30MonoF1.wav,1,2,2,1,,,,,1,11,27,0,0,0,0,0,,,3,2.235979734978173,1,1.535834756999975,1,1.8187415320135187,1,0.8005400149850175,102,001,2019_Sep_04_1015,MusicAffectPsychophysiology2019,3.0.5,60.036125657811176,
To what extent did the music make you feel ,ALERT,30MonoWAV/30MonoF1.wav,1,2,2,1,,,,,1,11,27,0,0,1,1,8,,,,,,,,,3,1.2186118440004066,102,001,2019_Sep_04_1015,MusicAffectPsychophysiology2019,3.0.5,60.036125657811176,
To what extent did the music make you feel ,TENDER,30MonoWAV/30MonoF1.wav,1,2,2,1,,,,,1,11,27,0,0,2,2,10,,,,,,,,,1,1.03427042500698,102,001,2019_Sep_04_1015,MusicAffectPsychophysiology2019,3.0.5,60.036125657811176,
To what extent did the music make you feel ,SCARED,30MonoWAV/30MonoF1.wav,1,2,2,1,,,,,1,11,27,0,0,3,3,11,,,,,,,,,1,1.6042736289964523,102,001,2019_Sep_04_1015,MusicAffectPsychophysiology2019,3.0.5,60.036125657811176,
To what extent did the music make you feel ,ASHAMED,30MonoWAV/30MonoF1.wav,1,2,2,1,,,,,1,11,27,0,0,4,4,4,,,,,,,,,1,0.9027758369920775,102,001,2019_Sep_04_1015,MusicAffectPsychophysiology2019,3.0.5,60.036125657811176,
To what extent did the music make you feel ,GUILTY,30MonoWAV/30MonoF1.wav,1,2,2,1,,,,,1,11,27,0,0,5,5,5,,,,,,,,,1,0.7532500509987585,102,001,2019_Sep_04_1015,MusicAffectPsychophysiology2019,3.0.5,60.036125657811176,
To what extent did the music make you feel ,FRUSTRATED,30MonoWAV/30MonoF1.wav,1,2,2,1,,,,,1,11,27,0,0,6,6,3,,,,,,,,,1,1.2199106519983616,102,001,2019_Sep_04_1015,MusicAffectPsychophysiology2019,3.0.5,60.036125657811176,
To what extent did the music make you feel ,ANXIOUS ,30MonoWAV/30MonoF1.wav,1,2,2,1,,,,,1,11,27,0,0,7,7,1,,,,,,,,,1,0.8527301049907692,102,001,2019_Sep_04_1015,MusicAffectPsychophysiology2019,3.0.5,60.036125657811176,
To what extent did the music make you feel ,ANGRY,30MonoWAV/30MonoF1.wav,1,2,2,1,,,,,1,11,27,0,0,8,8,2,,,,,,,,,1,0.8846254679956473,102,001,2019_Sep_04_1015,MusicAffectPsychophysiology2019,3.0.5,60.036125657811176,
To what extent did the music make you feel ,ACTIVE,30MonoWAV/30MonoF1.wav,1,2,2,1,,,,,1,11,27,0,0,9,9,9,,,,,,,,,2,0.9358226110052783,102,001,2019_Sep_04_1015,MusicAffectPsychophysiology2019,3.0.5,60.036125657811176,
To what extent did the music make you feel ,EXCITED,30MonoWAV/30MonoF1.wav,1,2,2,1,,,,,1,11,27,0,0,10,10,7,,,,,,,,,2,1.069354879000457,102,001,2019_Sep_04_1015,MusicAffectPsychophysiology2019,3.0.5,60.036125657811176,
To what extent did the music make you feel ,HAPPY,30MonoWAV/30MonoF1.wav,1,2,2,1,,,,,1,11,27,0,0,11,11,6,,,,,,,,,1,0.802779684017878,102,001,2019_Sep_04_1015,MusicAffectPsychophysiology2019,3.0.5,60.036125657811176,
,,30MonoWAV/30MonoF1.wav,1,2,2,1,,,,,1,11,27,0,,,,,,,,,,,,,,,102,001,2019_Sep_04_1015,MusicAffectPsychophysiology2019,3.0.5,60.036125657811176,
To what extent did the music make you feel ,ACTIVE,30MonoWAV/30MonoF4.wav,1,2,2,4,,,,,1,12,28,3,0,0,0,9,,,3,2.1534630540118087,1,1.7348180210101418,2,1.9180098370125052,2,0.9590538660122547,102,001,2019_Sep_04_1015,MusicAffectPsychophysiology2019,3.0.5,60.036125657811176,
To what extent did the music make you feel ,ANXIOUS ,30MonoWAV/30MonoF4.wav,1,2,2,4,,,,,1,12,28,3,0,1,1,1,,,,,,,,,1,0.671597437991295,102,001,2019_Sep_04_1015,MusicAffectPsychophysiology2019,3.0.5,60.036125657811176,
To what extent did the music make you feel ,SAD,30MonoWAV/30MonoF4.wav,1,2,2,4,,,,,1,12,28,3,0,2,2,0,,,,,,,,,1,2.101031281024916,102,001,2019_Sep_04_1015,MusicAffectPsychophysiology2019,3.0.5,60.036125657811176,
To what extent did the music make you feel ,HAPPY,30MonoWAV/30MonoF4.wav,1,2,2,4,,,,,1,12,28,3,0,3,3,6,,,,,,,,,1,0.6853566220088396,102,001,2019_Sep_04_1015,MusicAffectPsychophysiology2019,3.0.5,60.036125657811176,
To what extent did the music make you feel ,SCARED,30MonoWAV/30MonoF4.wav,1,2,2,4,,,,,1,12,28,3,0,4,4,11,,,,,,,,,1,0.5866582150047179,102,001,2019_Sep_04_1015,MusicAffectPsychophysiology2019,3.0.5,60.036125657811176,
To what extent did the music make you feel ,FRUSTRATED,30MonoWAV/30MonoF4.wav,1,2,2,4,,,,,1,12,28,3,0,5,5,3,,,,,,,,,2,3.342276382027194,102,001,2019_Sep_04_1015,MusicAffectPsychophysiology2019,3.0.5,60.036125657811176,
To what extent did the music make you feel ,ALERT,30MonoWAV/30MonoF4.wav,1,2,2,4,,,,,1,12,28,3,0,6,6,8,,,,,,,,,2,0.8549361889890861,102,001,2019_Sep_04_1015,MusicAffectPsychophysiology2019,3.0.5,60.036125657811176,
To what extent did the music make you feel ,ANGRY,30MonoWAV/30MonoF4.wav,1,2,2,4,,,,,1,12,28,3,0,7,7,2,,,,,,,,,1,0.7359675600018818,102,001,2019_Sep_04_1015,MusicAffectPsychophysiology2019,3.0.5,60.036125657811176,
To what extent did the music make you feel ,ASHAMED,30MonoWAV/30MonoF4.wav,1,2,2,4,,,,,1,12,28,3,0,8,8,4,,,,,,,,,1,0.6023734750051517,102,001,2019_Sep_04_1015,MusicAffectPsychophysiology2019,3.0.5,60.036125657811176,
To what extent did the music make you feel ,TENDER,30MonoWAV/30MonoF4.wav,1,2,2,4,,,,,1,12,28,3,0,9,9,10,,,,,,,,,1,0.7693220299843233,102,001,2019_Sep_04_1015,MusicAffectPsychophysiology2019,3.0.5,60.036125657811176,
To what extent did the music make you feel ,GUILTY,30MonoWAV/30MonoF4.wav,1,2,2,4,,,,,1,12,28,3,0,10,10,5,,,,,,,,,1,0.5021529119985644,102,001,2019_Sep_04_1015,MusicAffectPsychophysiology2019,3.0.5,60.036125657811176,
To what extent did the music make you feel ,EXCITED,30MonoWAV/30MonoF4.wav,1,2,2,4,,,,,1,12,28,3,0,11,11,7,,,,,,,,,2,2.168916859984165,102,001,2019_Sep_04_1015,MusicAffectPsychophysiology2019,3.0.5,60.036125657811176,
,,30MonoWAV/30MonoF4.wav,1,2,2,4,,,,,1,12,28,3,,,,,,,,,,,,,,,102,001,2019_Sep_04_1015,MusicAffectPsychophysiology2019,3.0.5,60.036125657811176,
To what extent did the music make you feel ,ASHAMED,30MonoWAV/30MonoT4.wav,2,1,4,16,,,,,1,13,29,15,0,0,0,4,,,1,2.002542806993006,3,1.5020907410071231,2,1.0519775960128754,1,0.9529166529828217,102,001,2019_Sep_04_1015,MusicAffectPsychophysiology2019,3.0.5,60.036125657811176,
To what extent did the music make you feel ,HAPPY,30MonoWAV/30MonoT4.wav,2,1,4,16,,,,,1,13,29,15,0,1,1,6,,,,,,,,,1,1.9862717689829879,102,001,2019_Sep_04_1015,MusicAffectPsychophysiology2019,3.0.5,60.036125657811176,
To what extent did the music make you feel ,EXCITED,30MonoWAV/30MonoT4.wav,2,1,4,16,,,,,1,13,29,15,0,2,2,7,,,,,,,,,1,1.001033856999129,102,001,2019_Sep_04_1015,MusicAffectPsychophysiology2019,3.0.5,60.036125657811176,
To what extent did the music make you feel ,TENDER,30MonoWAV/30MonoT4.wav,2,1,4,16,,,,,1,13,29,15,0,3,3,10,,,,,,,,,2,0.6670818989805412,102,001,2019_Sep_04_1015,MusicAffectPsychophysiology2019,3.0.5,60.036125657811176,
To what extent did the music make you feel ,ACTIVE,30MonoWAV/30MonoT4.wav,2,1,4,16,,,,,1,13,29,15,0,4,4,9,,,,,,,,,1,0.734681375004584,102,001,2019_Sep_04_1015,MusicAffectPsychophysiology2019,3.0.5,60.036125657811176,
To what extent did the music make you feel ,ANGRY,30MonoWAV/30MonoT4.wav,2,1,4,16,,,,,1,13,29,15,0,5,5,2,,,,,,,,,1,0.6365333949797787,102,001,2019_Sep_04_1015,MusicAffectPsychophysiology2019,3.0.5,60.036125657811176,
To what extent did the music make you feel ,SCARED,30MonoWAV/30MonoT4.wav,2,1,4,16,,,,,1,13,29,15,0,6,6,11,,,,,,,,,1,0.6525455529917963,102,001,2019_Sep_04_1015,MusicAffectPsychophysiology2019,3.0.5,60.036125657811176,
To what extent did the music make you feel ,ALERT,30MonoWAV/30MonoT4.wav,2,1,4,16,,,,,1,13,29,15,0,7,7,8,,,,,,,,,1,0.55299482299597,102,001,2019_Sep_04_1015,MusicAffectPsychophysiology2019,3.0.5,60.036125657811176,
To what extent did the music make you feel ,ANXIOUS ,30MonoWAV/30MonoT4.wav,2,1,4,16,,,,,1,13,29,15,0,8,8,1,,,,,,,,,1,1.5688327850075439,102,001,2019_Sep_04_1015,MusicAffectPsychophysiology2019,3.0.5,60.036125657811176,
To what extent did the music make you feel ,GUILTY,30MonoWAV/30MonoT4.wav,2,1,4,16,,,,,1,13,29,15,0,9,9,5,,,,,,,,,1,0.46926263099885546,102,001,2019_Sep_04_1015,MusicAffectPsychophysiology2019,3.0.5,60.036125657811176,
To what extent did the music make you feel ,FRUSTRATED,30MonoWAV/30MonoT4.wav,2,1,4,16,,,,,1,13,29,15,0,10,10,3,,,,,,,,,1,0.8822455370100215,102,001,2019_Sep_04_1015,MusicAffectPsychophysiology2019,3.0.5,60.036125657811176,
To what extent did the music make you feel ,SAD,30MonoWAV/30MonoT4.wav,2,1,4,16,,,,,1,13,29,15,0,11,11,0,,,,,,,,,2,0.9023529579862952,102,001,2019_Sep_04_1015,MusicAffectPsychophysiology2019,3.0.5,60.036125657811176,
,,30MonoWAV/30MonoT4.wav,2,1,4,16,,,,,1,13,29,15,,,,,,,,,,,,,,,102,001,2019_Sep_04_1015,MusicAffectPsychophysiology2019,3.0.5,60.036125657811176,
To what extent did the music make you feel ,EXCITED,30MonoWAV/30MonoF2.wav,1,2,2,2,,,,,1,14,30,1,0,0,0,7,,,2,1.569297114998335,1,0.9841360009741038,1,1.1178900969971437,2,1.1133473489899188,102,001,2019_Sep_04_1015,MusicAffectPsychophysiology2019,3.0.5,60.036125657811176,
To what extent did the music make you feel ,HAPPY,30MonoWAV/30MonoF2.wav,1,2,2,2,,,,,1,14,30,1,0,1,1,6,,,,,,,,,1,0.7694589979946613,102,001,2019_Sep_04_1015,MusicAffectPsychophysiology2019,3.0.5,60.036125657811176,
To what extent did the music make you feel ,FRUSTRATED,30MonoWAV/30MonoF2.wav,1,2,2,2,,,,,1,14,30,1,0,2,2,3,,,,,,,,,2,0.9480107609997503,102,001,2019_Sep_04_1015,MusicAffectPsychophysiology2019,3.0.5,60.036125657811176,
To what extent did the music make you feel ,ALERT,30MonoWAV/30MonoF2.wav,1,2,2,2,,,,,1,14,30,1,0,3,3,8,,,,,,,,,3,1.1359579720010515,102,001,2019_Sep_04_1015,MusicAffectPsychophysiology2019,3.0.5,60.036125657811176,
To what extent did the music make you feel ,ASHAMED,30MonoWAV/30MonoF2.wav,1,2,2,2,,,,,1,14,30,1,0,4,4,4,,,,,,,,,1,0.8864630339958239,102,001,2019_Sep_04_1015,MusicAffectPsychophysiology2019,3.0.5,60.036125657811176,
To what extent did the music make you feel ,ANXIOUS ,30MonoWAV/30MonoF2.wav,1,2,2,2,,,,,1,14,30,1,0,5,5,1,,,,,,,,,3,1.2358037719968706,102,001,2019_Sep_04_1015,MusicAffectPsychophysiology2019,3.0.5,60.036125657811176,
To what extent did the music make you feel ,GUILTY,30MonoWAV/30MonoF2.wav,1,2,2,2,,,,,1,14,30,1,0,6,6,5,,,,,,,,,1,1.050983188993996,102,001,2019_Sep_04_1015,MusicAffectPsychophysiology2019,3.0.5,60.036125657811176,
To what extent did the music make you feel ,ANGRY,30MonoWAV/30MonoF2.wav,1,2,2,2,,,,,1,14,30,1,0,7,7,2,,,,,,,,,1,0.8523310770106036,102,001,2019_Sep_04_1015,MusicAffectPsychophysiology2019,3.0.5,60.036125657811176,
To what extent did the music make you feel ,SAD,30MonoWAV/30MonoF2.wav,1,2,2,2,,,,,1,14,30,1,0,8,8,0,,,,,,,,,1,1.0354344380029943,102,001,2019_Sep_04_1015,MusicAffectPsychophysiology2019,3.0.5,60.036125657811176,
To what extent did the music make you feel ,ACTIVE,30MonoWAV/30MonoF2.wav,1,2,2,2,,,,,1,14,30,1,0,9,9,9,,,,,,,,,2,0.8524518939957488,102,001,2019_Sep_04_1015,MusicAffectPsychophysiology2019,3.0.5,60.036125657811176,
To what extent did the music make you feel ,SCARED,30MonoWAV/30MonoF2.wav,1,2,2,2,,,,,1,14,30,1,0,10,10,11,,,,,,,,,1,0.7856717790127732,102,001,2019_Sep_04_1015,MusicAffectPsychophysiology2019,3.0.5,60.036125657811176,
To what extent did the music make you feel ,TENDER,30MonoWAV/30MonoF2.wav,1,2,2,2,,,,,1,14,30,1,0,11,11,10,,,,,,,,,1,1.0359889449900948,102,001,2019_Sep_04_1015,MusicAffectPsychophysiology2019,3.0.5,60.036125657811176,
,,30MonoWAV/30MonoF2.wav,1,2,2,2,,,,,1,14,30,1,,,,,,,,,,,,,,,102,001,2019_Sep_04_1015,MusicAffectPsychophysiology2019,3.0.5,60.036125657811176,
To what extent did the music make you feel ,GUILTY,30MonoWAV/30MonoS1.wav,1,1,3,9,,,,,1,15,31,8,0,0,0,5,,,1,2.185864680999657,2,1.3852776489802636,1,0.9859681869857013,1,0.6911385009880178,102,001,2019_Sep_04_1015,MusicAffectPsychophysiology2019,3.0.5,60.036125657811176,
To what extent did the music make you feel ,SCARED,30MonoWAV/30MonoS1.wav,1,1,3,9,,,,,1,15,31,8,0,1,1,11,,,,,,,,,1,0.5034815729886759,102,001,2019_Sep_04_1015,MusicAffectPsychophysiology2019,3.0.5,60.036125657811176,
To what extent did the music make you feel ,FRUSTRATED,30MonoWAV/30MonoS1.wav,1,1,3,9,,,,,1,15,31,8,0,2,2,3,,,,,,,,,1,0.7234174509940203,102,001,2019_Sep_04_1015,MusicAffectPsychophysiology2019,3.0.5,60.036125657811176,
To what extent did the music make you feel ,SAD,30MonoWAV/30MonoS1.wav,1,1,3,9,,,,,1,15,31,8,0,3,3,0,,,,,,,,,2,1.4535559490032028,102,001,2019_Sep_04_1015,MusicAffectPsychophysiology2019,3.0.5,60.036125657811176,
To what extent did the music make you feel ,EXCITED,30MonoWAV/30MonoS1.wav,1,1,3,9,,,,,1,15,31,8,0,4,4,7,,,,,,,,,1,0.6865949000057299,102,001,2019_Sep_04_1015,MusicAffectPsychophysiology2019,3.0.5,60.036125657811176,
To what extent did the music make you feel ,HAPPY,30MonoWAV/30MonoS1.wav,1,1,3,9,,,,,1,15,31,8,0,5,5,6,,,,,,,,,1,0.9336803889891598,102,001,2019_Sep_04_1015,MusicAffectPsychophysiology2019,3.0.5,60.036125657811176,
To what extent did the music make you feel ,TENDER,30MonoWAV/30MonoS1.wav,1,1,3,9,,,,,1,15,31,8,0,6,6,10,,,,,,,,,2,0.8361639630165882,102,001,2019_Sep_04_1015,MusicAffectPsychophysiology2019,3.0.5,60.036125657811176,
To what extent did the music make you feel ,ALERT,30MonoWAV/30MonoS1.wav,1,1,3,9,,,,,1,15,31,8,0,7,7,8,,,,,,,,,1,0.6536367619992234,102,001,2019_Sep_04_1015,MusicAffectPsychophysiology2019,3.0.5,60.036125657811176,
To what extent did the music make you feel ,ANXIOUS ,30MonoWAV/30MonoS1.wav,1,1,3,9,,,,,1,15,31,8,0,8,8,1,,,,,,,,,2,0.9867282719933428,102,001,2019_Sep_04_1015,MusicAffectPsychophysiology2019,3.0.5,60.036125657811176,
To what extent did the music make you feel ,ANGRY,30MonoWAV/30MonoS1.wav,1,1,3,9,,,,,1,15,31,8,0,9,9,2,,,,,,,,,1,0.532250718009891,102,001,2019_Sep_04_1015,MusicAffectPsychophysiology2019,3.0.5,60.036125657811176,
To what extent did the music make you feel ,ASHAMED,30MonoWAV/30MonoS1.wav,1,1,3,9,,,,,1,15,31,8,0,10,10,4,,,,,,,,,1,1.1674803429923486,102,001,2019_Sep_04_1015,MusicAffectPsychophysiology2019,3.0.5,60.036125657811176,
To what extent did the music make you feel ,ACTIVE,30MonoWAV/30MonoS1.wav,1,1,3,9,,,,,1,15,31,8,0,11,11,9,,,,,,,,,1,0.6202003079815768,102,001,2019_Sep_04_1015,MusicAffectPsychophysiology2019,3.0.5,60.036125657811176,
,,30MonoWAV/30MonoS1.wav,1,1,3,9,,,,,1,15,31,8,,,,,,,,,,,,,,,102,001,2019_Sep_04_1015,MusicAffectPsychophysiology2019,3.0.5,60.036125657811176,
