Instruction,Word,song,valence,arousal,affectcat,songmark,pracwords.thisRepN,pracwords.thisTrialN,pracwords.thisN,pracwords.thisIndex,songtrials.thisRepN,songtrials.thisTrialN,songtrials.thisN,songtrials.thisIndex,words.thisRepN,words.thisTrialN,words.thisN,words.thisIndex,begin.keys,begin.rt,arousalkey.keys,arousalkey.rt,valencekey.keys,valencekey.rt,likekey.keys,likekey.rt,WordResponse.keys,WordResponse.rt,key_resp_2.keys,key_resp_2.rt,participant,session,date,expName,psychopyVersion,frameRate,
,,,,,,,,,,,,,,,,,,,space,23.194157527992502,,,,,,,,,,,103,001,2019_Sep_04_1112,MusicAffectPsychophysiology2019,3.0.5,59.938545009363544,
,,,,,,,,,,,,,,,,,,,,,3,8.003757507016417,,,,,,,,,103,001,2019_Sep_04_1112,MusicAffectPsychophysiology2019,3.0.5,59.938545009363544,
,,,,,,,,,,,,,,,,,,,,,,,3,4.267654333991231,,,,,,,103,001,2019_Sep_04_1112,MusicAffectPsychophysiology2019,3.0.5,59.938545009363544,
,,,,,,,,,,,,,,,,,,,,,,,,,2,4.7692796980263665,,,,,103,001,2019_Sep_04_1112,MusicAffectPsychophysiology2019,3.0.5,59.938545009363544,
To what extent did the music make you feel ,ACTIVE,,,,,,0,0,0,9,,,,,,,,,,,,,,,,,3,9.4865376020025,,,103,001,2019_Sep_04_1112,MusicAffectPsychophysiology2019,3.0.5,59.938545009363544,
To what extent did the music make you feel ,ANXIOUS ,,,,,,0,1,1,1,,,,,,,,,,,,,,,,,1,3.4675694789912086,,,103,001,2019_Sep_04_1112,MusicAffectPsychophysiology2019,3.0.5,59.938545009363544,
To what extent did the music make you feel ,EXCITED,,,,,,0,2,2,7,,,,,,,,,,,,,,,,,2,3.585573332005879,,,103,001,2019_Sep_04_1112,MusicAffectPsychophysiology2019,3.0.5,59.938545009363544,
To what extent did the music make you feel ,GUILTY,,,,,,0,3,3,5,,,,,,,,,,,,,,,,,1,2.7024861490062904,,,103,001,2019_Sep_04_1112,MusicAffectPsychophysiology2019,3.0.5,59.938545009363544,
To what extent did the music make you feel ,ASHAMED,,,,,,0,4,4,4,,,,,,,,,,,,,,,,,1,2.069592195999576,,,103,001,2019_Sep_04_1112,MusicAffectPsychophysiology2019,3.0.5,59.938545009363544,
To what extent did the music make you feel ,ALERT,,,,,,0,5,5,8,,,,,,,,,,,,,,,,,2,4.767637274984736,,,103,001,2019_Sep_04_1112,MusicAffectPsychophysiology2019,3.0.5,59.938545009363544,
To what extent did the music make you feel ,HAPPY,,,,,,0,6,6,6,,,,,,,,,,,,,,,,,3,2.268815273011569,,,103,001,2019_Sep_04_1112,MusicAffectPsychophysiology2019,3.0.5,59.938545009363544,
To what extent did the music make you feel ,FRUSTRATED,,,,,,0,7,7,3,,,,,,,,,,,,,,,,,1,2.300819161988329,,,103,001,2019_Sep_04_1112,MusicAffectPsychophysiology2019,3.0.5,59.938545009363544,
To what extent did the music make you feel ,TENDER,,,,,,0,8,8,10,,,,,,,,,,,,,,,,,3,6.917597689985996,,,103,001,2019_Sep_04_1112,MusicAffectPsychophysiology2019,3.0.5,59.938545009363544,
To what extent did the music make you feel ,ANGRY,,,,,,0,9,9,2,,,,,,,,,,,,,,,,,1,3.1689883680082858,,,103,001,2019_Sep_04_1112,MusicAffectPsychophysiology2019,3.0.5,59.938545009363544,
To what extent did the music make you feel ,SAD,,,,,,0,10,10,0,,,,,,,,,,,,,,,,,1,2.3664926610072143,,,103,001,2019_Sep_04_1112,MusicAffectPsychophysiology2019,3.0.5,59.938545009363544,
To what extent did the music make you feel ,SCARED,,,,,,0,11,11,11,,,,,,,,,,,,,,,,,1,1.253823919018032,,,103,001,2019_Sep_04_1112,MusicAffectPsychophysiology2019,3.0.5,59.938545009363544,
To what extent did the music make you feel ,HAPPY,30MonoWAV/30MonoH3.wav,2,2,1,7,,,,,0,0,0,6,0,0,0,6,,,5,6.4345874049759,4,4.91856526400079,4,5.68632973197964,4,2.9435126120224595,,,103,001,2019_Sep_04_1112,MusicAffectPsychophysiology2019,3.0.5,59.938545009363544,
To what extent did the music make you feel ,SCARED,30MonoWAV/30MonoH3.wav,2,2,1,7,,,,,0,0,0,6,0,1,1,11,,,,,,,,,1,1.8670628080144525,,,103,001,2019_Sep_04_1112,MusicAffectPsychophysiology2019,3.0.5,59.938545009363544,
To what extent did the music make you feel ,ANGRY,30MonoWAV/30MonoH3.wav,2,2,1,7,,,,,0,0,0,6,0,2,2,2,,,,,,,,,1,5.68638194000232,,,103,001,2019_Sep_04_1112,MusicAffectPsychophysiology2019,3.0.5,59.938545009363544,
To what extent did the music make you feel ,FRUSTRATED,30MonoWAV/30MonoH3.wav,2,2,1,7,,,,,0,0,0,6,0,3,3,3,,,,,,,,,1,1.0191448160039727,,,103,001,2019_Sep_04_1112,MusicAffectPsychophysiology2019,3.0.5,59.938545009363544,
To what extent did the music make you feel ,TENDER,30MonoWAV/30MonoH3.wav,2,2,1,7,,,,,0,0,0,6,0,4,4,10,,,,,,,,,1,6.068864543980453,,,103,001,2019_Sep_04_1112,MusicAffectPsychophysiology2019,3.0.5,59.938545009363544,
To what extent did the music make you feel ,EXCITED,30MonoWAV/30MonoH3.wav,2,2,1,7,,,,,0,0,0,6,0,5,5,7,,,,,,,,,5,2.836315107997507,,,103,001,2019_Sep_04_1112,MusicAffectPsychophysiology2019,3.0.5,59.938545009363544,
To what extent did the music make you feel ,ANXIOUS ,30MonoWAV/30MonoH3.wav,2,2,1,7,,,,,0,0,0,6,0,6,6,1,,,,,,,,,1,1.3191221950110048,,,103,001,2019_Sep_04_1112,MusicAffectPsychophysiology2019,3.0.5,59.938545009363544,
To what extent did the music make you feel ,ALERT,30MonoWAV/30MonoH3.wav,2,2,1,7,,,,,0,0,0,6,0,7,7,8,,,,,,,,,3,10.352021072001662,,,103,001,2019_Sep_04_1112,MusicAffectPsychophysiology2019,3.0.5,59.938545009363544,
To what extent did the music make you feel ,GUILTY,30MonoWAV/30MonoH3.wav,2,2,1,7,,,,,0,0,0,6,0,8,8,5,,,,,,,,,1,3.585914891009452,,,103,001,2019_Sep_04_1112,MusicAffectPsychophysiology2019,3.0.5,59.938545009363544,
To what extent did the music make you feel ,SAD,30MonoWAV/30MonoH3.wav,2,2,1,7,,,,,0,0,0,6,0,9,9,0,,,,,,,,,1,1.1686905169917736,,,103,001,2019_Sep_04_1112,MusicAffectPsychophysiology2019,3.0.5,59.938545009363544,
To what extent did the music make you feel ,ASHAMED,30MonoWAV/30MonoH3.wav,2,2,1,7,,,,,0,0,0,6,0,10,10,4,,,,,,,,,1,1.3019144439895172,,,103,001,2019_Sep_04_1112,MusicAffectPsychophysiology2019,3.0.5,59.938545009363544,
To what extent did the music make you feel ,ACTIVE,30MonoWAV/30MonoH3.wav,2,2,1,7,,,,,0,0,0,6,0,11,11,9,,,,,,,,,4,1.8025375769939274,,,103,001,2019_Sep_04_1112,MusicAffectPsychophysiology2019,3.0.5,59.938545009363544,
,,30MonoWAV/30MonoH3.wav,2,2,1,7,,,,,0,0,0,6,,,,,,,,,,,,,,,,,103,001,2019_Sep_04_1112,MusicAffectPsychophysiology2019,3.0.5,59.938545009363544,
To what extent did the music make you feel ,FRUSTRATED,30MonoWAV/30MonoS2.wav,1,1,3,10,,,,,0,1,1,9,0,0,0,3,,,1,4.035758926998824,1,3.7681487899972126,2,2.4701817339810077,2,5.9990229080140125,,,103,001,2019_Sep_04_1112,MusicAffectPsychophysiology2019,3.0.5,59.938545009363544,
To what extent did the music make you feel ,ANGRY,30MonoWAV/30MonoS2.wav,1,1,3,10,,,,,0,1,1,9,0,1,1,2,,,,,,,,,1,3.269203567993827,,,103,001,2019_Sep_04_1112,MusicAffectPsychophysiology2019,3.0.5,59.938545009363544,
To what extent did the music make you feel ,TENDER,30MonoWAV/30MonoS2.wav,1,1,3,10,,,,,0,1,1,9,0,2,2,10,,,,,,,,,3,20.10099135400378,,,103,001,2019_Sep_04_1112,MusicAffectPsychophysiology2019,3.0.5,59.938545009363544,
To what extent did the music make you feel ,EXCITED,30MonoWAV/30MonoS2.wav,1,1,3,10,,,,,0,1,1,9,0,3,3,7,,,,,,,,,1,4.002348610025365,,,103,001,2019_Sep_04_1112,MusicAffectPsychophysiology2019,3.0.5,59.938545009363544,
To what extent did the music make you feel ,HAPPY,30MonoWAV/30MonoS2.wav,1,1,3,10,,,,,0,1,1,9,0,4,4,6,,,,,,,,,1,2.269116762006888,,,103,001,2019_Sep_04_1112,MusicAffectPsychophysiology2019,3.0.5,59.938545009363544,
To what extent did the music make you feel ,ACTIVE,30MonoWAV/30MonoS2.wav,1,1,3,10,,,,,0,1,1,9,0,5,5,9,,,,,,,,,1,5.279019532987149,,,103,001,2019_Sep_04_1112,MusicAffectPsychophysiology2019,3.0.5,59.938545009363544,
To what extent did the music make you feel ,ANXIOUS ,30MonoWAV/30MonoS2.wav,1,1,3,10,,,,,0,1,1,9,0,6,6,1,,,,,,,,,2,2.0674605920212343,,,103,001,2019_Sep_04_1112,MusicAffectPsychophysiology2019,3.0.5,59.938545009363544,
To what extent did the music make you feel ,SAD,30MonoWAV/30MonoS2.wav,1,1,3,10,,,,,0,1,1,9,0,7,7,0,,,,,,,,,3,1.8871715480054263,,,103,001,2019_Sep_04_1112,MusicAffectPsychophysiology2019,3.0.5,59.938545009363544,
To what extent did the music make you feel ,GUILTY,30MonoWAV/30MonoS2.wav,1,1,3,10,,,,,0,1,1,9,0,8,8,5,,,,,,,,,3,2.500797622022219,,,103,001,2019_Sep_04_1112,MusicAffectPsychophysiology2019,3.0.5,59.938545009363544,
To what extent did the music make you feel ,ASHAMED,30MonoWAV/30MonoS2.wav,1,1,3,10,,,,,0,1,1,9,0,9,9,4,,,,,,,,,2,2.5191620940167923,,,103,001,2019_Sep_04_1112,MusicAffectPsychophysiology2019,3.0.5,59.938545009363544,
To what extent did the music make you feel ,ALERT,30MonoWAV/30MonoS2.wav,1,1,3,10,,,,,0,1,1,9,0,10,10,8,,,,,,,,,1,4.301736374007305,,,103,001,2019_Sep_04_1112,MusicAffectPsychophysiology2019,3.0.5,59.938545009363544,
To what extent did the music make you feel ,SCARED,30MonoWAV/30MonoS2.wav,1,1,3,10,,,,,0,1,1,9,0,11,11,11,,,,,,,,,1,5.20014110399643,,,103,001,2019_Sep_04_1112,MusicAffectPsychophysiology2019,3.0.5,59.938545009363544,
,,30MonoWAV/30MonoS2.wav,1,1,3,10,,,,,0,1,1,9,,,,,,,,,,,,,,,,,103,001,2019_Sep_04_1112,MusicAffectPsychophysiology2019,3.0.5,59.938545009363544,
To what extent did the music make you feel ,ANGRY,30MonoWAV/30MonoF1.wav,1,2,2,1,,,,,0,2,2,0,0,0,0,2,,,3,6.286326905013993,1,4.252656902972376,1,2.4822963509941474,3,3.904612240003189,,,103,001,2019_Sep_04_1112,MusicAffectPsychophysiology2019,3.0.5,59.938545009363544,
To what extent did the music make you feel ,FRUSTRATED,30MonoWAV/30MonoF1.wav,1,2,2,1,,,,,0,2,2,0,0,1,1,3,,,,,,,,,1,3.1220349799841642,,,103,001,2019_Sep_04_1112,MusicAffectPsychophysiology2019,3.0.5,59.938545009363544,
To what extent did the music make you feel ,TENDER,30MonoWAV/30MonoF1.wav,1,2,2,1,,,,,0,2,2,0,0,2,2,10,,,,,,,,,1,3.716189136990579,,,103,001,2019_Sep_04_1112,MusicAffectPsychophysiology2019,3.0.5,59.938545009363544,
To what extent did the music make you feel ,GUILTY,30MonoWAV/30MonoF1.wav,1,2,2,1,,,,,0,2,2,0,0,3,3,5,,,,,,,,,1,2.3523393369978294,,,103,001,2019_Sep_04_1112,MusicAffectPsychophysiology2019,3.0.5,59.938545009363544,
To what extent did the music make you feel ,ALERT,30MonoWAV/30MonoF1.wav,1,2,2,1,,,,,0,2,2,0,0,4,4,8,,,,,,,,,3,3.1539762709871866,,,103,001,2019_Sep_04_1112,MusicAffectPsychophysiology2019,3.0.5,59.938545009363544,
To what extent did the music make you feel ,SCARED,30MonoWAV/30MonoF1.wav,1,2,2,1,,,,,0,2,2,0,0,5,5,11,,,,,,,,,4,5.985273276979569,,,103,001,2019_Sep_04_1112,MusicAffectPsychophysiology2019,3.0.5,59.938545009363544,
To what extent did the music make you feel ,ANXIOUS ,30MonoWAV/30MonoF1.wav,1,2,2,1,,,,,0,2,2,0,0,6,6,1,,,,,,,,,4,2.08427646200289,,,103,001,2019_Sep_04_1112,MusicAffectPsychophysiology2019,3.0.5,59.938545009363544,
To what extent did the music make you feel ,ASHAMED,30MonoWAV/30MonoF1.wav,1,2,2,1,,,,,0,2,2,0,0,7,7,4,,,,,,,,,2,2.58433110799524,,,103,001,2019_Sep_04_1112,MusicAffectPsychophysiology2019,3.0.5,59.938545009363544,
To what extent did the music make you feel ,ACTIVE,30MonoWAV/30MonoF1.wav,1,2,2,1,,,,,0,2,2,0,0,8,8,9,,,,,,,,,2,3.185877157986397,,,103,001,2019_Sep_04_1112,MusicAffectPsychophysiology2019,3.0.5,59.938545009363544,
To what extent did the music make you feel ,HAPPY,30MonoWAV/30MonoF1.wav,1,2,2,1,,,,,0,2,2,0,0,9,9,6,,,,,,,,,1,1.0862111460010055,,,103,001,2019_Sep_04_1112,MusicAffectPsychophysiology2019,3.0.5,59.938545009363544,
To what extent did the music make you feel ,SAD,30MonoWAV/30MonoF1.wav,1,2,2,1,,,,,0,2,2,0,0,10,10,0,,,,,,,,,2,3.5357983200228773,,,103,001,2019_Sep_04_1112,MusicAffectPsychophysiology2019,3.0.5,59.938545009363544,
To what extent did the music make you feel ,EXCITED,30MonoWAV/30MonoF1.wav,1,2,2,1,,,,,0,2,2,0,0,11,11,7,,,,,,,,,1,1.7524373549968004,,,103,001,2019_Sep_04_1112,MusicAffectPsychophysiology2019,3.0.5,59.938545009363544,
,,30MonoWAV/30MonoF1.wav,1,2,2,1,,,,,0,2,2,0,,,,,,,,,,,,,,,,,103,001,2019_Sep_04_1112,MusicAffectPsychophysiology2019,3.0.5,59.938545009363544,
To what extent did the music make you feel ,SCARED,30MonoWAV/30MonoH1.wav,2,2,1,5,,,,,0,3,3,4,0,0,0,11,,,3,5.7842884059937205,4,2.751244562008651,3,3.0359880269970745,1,3.89324105301057,,,103,001,2019_Sep_04_1112,MusicAffectPsychophysiology2019,3.0.5,59.938545009363544,
To what extent did the music make you feel ,ALERT,30MonoWAV/30MonoH1.wav,2,2,1,5,,,,,0,3,3,4,0,1,1,8,,,,,,,,,2,3.967103633010993,,,103,001,2019_Sep_04_1112,MusicAffectPsychophysiology2019,3.0.5,59.938545009363544,
To what extent did the music make you feel ,TENDER,30MonoWAV/30MonoH1.wav,2,2,1,5,,,,,0,3,3,4,0,2,2,10,,,,,,,,,2,2.835605011001462,,,103,001,2019_Sep_04_1112,MusicAffectPsychophysiology2019,3.0.5,59.938545009363544,
To what extent did the music make you feel ,ASHAMED,30MonoWAV/30MonoH1.wav,2,2,1,5,,,,,0,3,3,4,0,3,3,4,,,,,,,,,1,1.1854047999950126,,,103,001,2019_Sep_04_1112,MusicAffectPsychophysiology2019,3.0.5,59.938545009363544,
To what extent did the music make you feel ,ANXIOUS ,30MonoWAV/30MonoH1.wav,2,2,1,5,,,,,0,3,3,4,0,4,4,1,,,,,,,,,1,3.5009833200019784,,,103,001,2019_Sep_04_1112,MusicAffectPsychophysiology2019,3.0.5,59.938545009363544,
To what extent did the music make you feel ,FRUSTRATED,30MonoWAV/30MonoH1.wav,2,2,1,5,,,,,0,3,3,4,0,5,5,3,,,,,,,,,1,3.720344790024683,,,103,001,2019_Sep_04_1112,MusicAffectPsychophysiology2019,3.0.5,59.938545009363544,
To what extent did the music make you feel ,GUILTY,30MonoWAV/30MonoH1.wav,2,2,1,5,,,,,0,3,3,4,0,6,6,5,,,,,,,,,1,7.002442109020194,,,103,001,2019_Sep_04_1112,MusicAffectPsychophysiology2019,3.0.5,59.938545009363544,
To what extent did the music make you feel ,HAPPY,30MonoWAV/30MonoH1.wav,2,2,1,5,,,,,0,3,3,4,0,7,7,6,,,,,,,,,4,1.8197926479915623,,,103,001,2019_Sep_04_1112,MusicAffectPsychophysiology2019,3.0.5,59.938545009363544,
To what extent did the music make you feel ,ANGRY,30MonoWAV/30MonoH1.wav,2,2,1,5,,,,,0,3,3,4,0,8,8,2,,,,,,,,,1,1.4526791530079208,,,103,001,2019_Sep_04_1112,MusicAffectPsychophysiology2019,3.0.5,59.938545009363544,
To what extent did the music make you feel ,ACTIVE,30MonoWAV/30MonoH1.wav,2,2,1,5,,,,,0,3,3,4,0,9,9,9,,,,,,,,,3,1.6199748719809577,,,103,001,2019_Sep_04_1112,MusicAffectPsychophysiology2019,3.0.5,59.938545009363544,
To what extent did the music make you feel ,SAD,30MonoWAV/30MonoH1.wav,2,2,1,5,,,,,0,3,3,4,0,10,10,0,,,,,,,,,1,3.3697828000003938,,,103,001,2019_Sep_04_1112,MusicAffectPsychophysiology2019,3.0.5,59.938545009363544,
To what extent did the music make you feel ,EXCITED,30MonoWAV/30MonoH1.wav,2,2,1,5,,,,,0,3,3,4,0,11,11,7,,,,,,,,,4,1.7706276760145556,,,103,001,2019_Sep_04_1112,MusicAffectPsychophysiology2019,3.0.5,59.938545009363544,
,,30MonoWAV/30MonoH1.wav,2,2,1,5,,,,,0,3,3,4,,,,,,,,,,,,,,,,,103,001,2019_Sep_04_1112,MusicAffectPsychophysiology2019,3.0.5,59.938545009363544,
To what extent did the music make you feel ,FRUSTRATED,30MonoWAV/30MonoS4.wav,1,1,3,12,,,,,0,4,4,11,0,0,0,3,,,1,4.4181185939814895,1,2.4705768630083185,1,3.2522063570213504,5,3.38406678600586,,,103,001,2019_Sep_04_1112,MusicAffectPsychophysiology2019,3.0.5,59.938545009363544,
To what extent did the music make you feel ,ACTIVE,30MonoWAV/30MonoS4.wav,1,1,3,12,,,,,0,4,4,11,0,1,1,9,,,,,,,,,1,1.5189930500055198,,,103,001,2019_Sep_04_1112,MusicAffectPsychophysiology2019,3.0.5,59.938545009363544,
To what extent did the music make you feel ,SCARED,30MonoWAV/30MonoS4.wav,1,1,3,12,,,,,0,4,4,11,0,2,2,11,,,,,,,,,1,1.9190544850134756,,,103,001,2019_Sep_04_1112,MusicAffectPsychophysiology2019,3.0.5,59.938545009363544,
To what extent did the music make you feel ,ASHAMED,30MonoWAV/30MonoS4.wav,1,1,3,12,,,,,0,4,4,11,0,3,3,4,,,,,,,,,3,2.267798273009248,,,103,001,2019_Sep_04_1112,MusicAffectPsychophysiology2019,3.0.5,59.938545009363544,
To what extent did the music make you feel ,ANGRY,30MonoWAV/30MonoS4.wav,1,1,3,12,,,,,0,4,4,11,0,4,4,2,,,,,,,,,1,1.553611406008713,,,103,001,2019_Sep_04_1112,MusicAffectPsychophysiology2019,3.0.5,59.938545009363544,
To what extent did the music make you feel ,HAPPY,30MonoWAV/30MonoS4.wav,1,1,3,12,,,,,0,4,4,11,0,5,5,6,,,,,,,,,1,2.45268512898474,,,103,001,2019_Sep_04_1112,MusicAffectPsychophysiology2019,3.0.5,59.938545009363544,
To what extent did the music make you feel ,EXCITED,30MonoWAV/30MonoS4.wav,1,1,3,12,,,,,0,4,4,11,0,6,6,7,,,,,,,,,1,1.2522524600208271,,,103,001,2019_Sep_04_1112,MusicAffectPsychophysiology2019,3.0.5,59.938545009363544,
To what extent did the music make you feel ,GUILTY,30MonoWAV/30MonoS4.wav,1,1,3,12,,,,,0,4,4,11,0,7,7,5,,,,,,,,,5,1.5693382100143936,,,103,001,2019_Sep_04_1112,MusicAffectPsychophysiology2019,3.0.5,59.938545009363544,
To what extent did the music make you feel ,SAD,30MonoWAV/30MonoS4.wav,1,1,3,12,,,,,0,4,4,11,0,8,8,0,,,,,,,,,4,2.0860191640094854,,,103,001,2019_Sep_04_1112,MusicAffectPsychophysiology2019,3.0.5,59.938545009363544,
To what extent did the music make you feel ,TENDER,30MonoWAV/30MonoS4.wav,1,1,3,12,,,,,0,4,4,11,0,9,9,10,,,,,,,,,4,1.8028931329899933,,,103,001,2019_Sep_04_1112,MusicAffectPsychophysiology2019,3.0.5,59.938545009363544,
To what extent did the music make you feel ,ALERT,30MonoWAV/30MonoS4.wav,1,1,3,12,,,,,0,4,4,11,0,10,10,8,,,,,,,,,1,1.9695738199807238,,,103,001,2019_Sep_04_1112,MusicAffectPsychophysiology2019,3.0.5,59.938545009363544,
To what extent did the music make you feel ,ANXIOUS ,30MonoWAV/30MonoS4.wav,1,1,3,12,,,,,0,4,4,11,0,11,11,1,,,,,,,,,2,5.2026202289853245,,,103,001,2019_Sep_04_1112,MusicAffectPsychophysiology2019,3.0.5,59.938545009363544,
,,30MonoWAV/30MonoS4.wav,1,1,3,12,,,,,0,4,4,11,,,,,,,,,,,,,,,,,103,001,2019_Sep_04_1112,MusicAffectPsychophysiology2019,3.0.5,59.938545009363544,
To what extent did the music make you feel ,ANGRY,30MonoWAV/30MonoT1.wav,2,1,4,13,,,,,0,5,5,12,0,0,0,2,,,1,3.9997171249997336,1,1.336226813000394,2,2.8501665410003625,1,3.576228546007769,,,103,001,2019_Sep_04_1112,MusicAffectPsychophysiology2019,3.0.5,59.938545009363544,
To what extent did the music make you feel ,ALERT,30MonoWAV/30MonoT1.wav,2,1,4,13,,,,,0,5,5,12,0,1,1,8,,,,,,,,,1,1.4844111040001735,,,103,001,2019_Sep_04_1112,MusicAffectPsychophysiology2019,3.0.5,59.938545009363544,
To what extent did the music make you feel ,ANXIOUS ,30MonoWAV/30MonoT1.wav,2,1,4,13,,,,,0,5,5,12,0,2,2,1,,,,,,,,,1,1.5860343509993982,,,103,001,2019_Sep_04_1112,MusicAffectPsychophysiology2019,3.0.5,59.938545009363544,
To what extent did the music make you feel ,SCARED,30MonoWAV/30MonoT1.wav,2,1,4,13,,,,,0,5,5,12,0,3,3,11,,,,,,,,,1,1.0355393700010609,,,103,001,2019_Sep_04_1112,MusicAffectPsychophysiology2019,3.0.5,59.938545009363544,
To what extent did the music make you feel ,ASHAMED,30MonoWAV/30MonoT1.wav,2,1,4,13,,,,,0,5,5,12,0,4,4,4,,,,,,,,,2,1.7853716070239898,,,103,001,2019_Sep_04_1112,MusicAffectPsychophysiology2019,3.0.5,59.938545009363544,
To what extent did the music make you feel ,SAD,30MonoWAV/30MonoT1.wav,2,1,4,13,,,,,0,5,5,12,0,5,5,0,,,,,,,,,3,2.8187434390129056,,,103,001,2019_Sep_04_1112,MusicAffectPsychophysiology2019,3.0.5,59.938545009363544,
To what extent did the music make you feel ,FRUSTRATED,30MonoWAV/30MonoT1.wav,2,1,4,13,,,,,0,5,5,12,0,6,6,3,,,,,,,,,2,1.8168611360015348,,,103,001,2019_Sep_04_1112,MusicAffectPsychophysiology2019,3.0.5,59.938545009363544,
To what extent did the music make you feel ,GUILTY,30MonoWAV/30MonoT1.wav,2,1,4,13,,,,,0,5,5,12,0,7,7,5,,,,,,,,,2,1.7668440919951536,,,103,001,2019_Sep_04_1112,MusicAffectPsychophysiology2019,3.0.5,59.938545009363544,
To what extent did the music make you feel ,EXCITED,30MonoWAV/30MonoT1.wav,2,1,4,13,,,,,0,5,5,12,0,8,8,7,,,,,,,,,1,1.5191304670006502,,,103,001,2019_Sep_04_1112,MusicAffectPsychophysiology2019,3.0.5,59.938545009363544,
To what extent did the music make you feel ,HAPPY,30MonoWAV/30MonoT1.wav,2,1,4,13,,,,,0,5,5,12,0,9,9,6,,,,,,,,,1,0.7695003559929319,,,103,001,2019_Sep_04_1112,MusicAffectPsychophysiology2019,3.0.5,59.938545009363544,
To what extent did the music make you feel ,ACTIVE,30MonoWAV/30MonoT1.wav,2,1,4,13,,,,,0,5,5,12,0,10,10,9,,,,,,,,,1,0.9000283069908619,,,103,001,2019_Sep_04_1112,MusicAffectPsychophysiology2019,3.0.5,59.938545009363544,
To what extent did the music make you feel ,TENDER,30MonoWAV/30MonoT1.wav,2,1,4,13,,,,,0,5,5,12,0,11,11,10,,,,,,,,,3,2.0190177029871847,,,103,001,2019_Sep_04_1112,MusicAffectPsychophysiology2019,3.0.5,59.938545009363544,
,,30MonoWAV/30MonoT1.wav,2,1,4,13,,,,,0,5,5,12,,,,,,,,,,,,,,,,,103,001,2019_Sep_04_1112,MusicAffectPsychophysiology2019,3.0.5,59.938545009363544,
To what extent did the music make you feel ,EXCITED,30MonoWAV/30MonoH2.wav,2,2,1,6,,,,,0,6,6,5,0,0,0,7,,,4,4.669124504987849,4,2.502959677018225,3,2.102372208988527,3,4.553880755993305,,,103,001,2019_Sep_04_1112,MusicAffectPsychophysiology2019,3.0.5,59.938545009363544,
To what extent did the music make you feel ,HAPPY,30MonoWAV/30MonoH2.wav,2,2,1,6,,,,,0,6,6,5,0,1,1,6,,,,,,,,,3,1.269288362993393,,,103,001,2019_Sep_04_1112,MusicAffectPsychophysiology2019,3.0.5,59.938545009363544,
To what extent did the music make you feel ,GUILTY,30MonoWAV/30MonoH2.wav,2,2,1,6,,,,,0,6,6,5,0,2,2,5,,,,,,,,,1,2.0035886190016754,,,103,001,2019_Sep_04_1112,MusicAffectPsychophysiology2019,3.0.5,59.938545009363544,
To what extent did the music make you feel ,ACTIVE,30MonoWAV/30MonoH2.wav,2,2,1,6,,,,,0,6,6,5,0,3,3,9,,,,,,,,,4,1.9512502040015534,,,103,001,2019_Sep_04_1112,MusicAffectPsychophysiology2019,3.0.5,59.938545009363544,
To what extent did the music make you feel ,SCARED,30MonoWAV/30MonoH2.wav,2,2,1,6,,,,,0,6,6,5,0,4,4,11,,,,,,,,,1,1.3537395590101369,,,103,001,2019_Sep_04_1112,MusicAffectPsychophysiology2019,3.0.5,59.938545009363544,
To what extent did the music make you feel ,ANGRY,30MonoWAV/30MonoH2.wav,2,2,1,6,,,,,0,6,6,5,0,5,5,2,,,,,,,,,1,2.766697576007573,,,103,001,2019_Sep_04_1112,MusicAffectPsychophysiology2019,3.0.5,59.938545009363544,
To what extent did the music make you feel ,ASHAMED,30MonoWAV/30MonoH2.wav,2,2,1,6,,,,,0,6,6,5,0,6,6,4,,,,,,,,,1,1.885107773996424,,,103,001,2019_Sep_04_1112,MusicAffectPsychophysiology2019,3.0.5,59.938545009363544,
To what extent did the music make you feel ,ANXIOUS ,30MonoWAV/30MonoH2.wav,2,2,1,6,,,,,0,6,6,5,0,7,7,1,,,,,,,,,1,1.0669169329921715,,,103,001,2019_Sep_04_1112,MusicAffectPsychophysiology2019,3.0.5,59.938545009363544,
To what extent did the music make you feel ,ALERT,30MonoWAV/30MonoH2.wav,2,2,1,6,,,,,0,6,6,5,0,8,8,8,,,,,,,,,2,2.452745741000399,,,103,001,2019_Sep_04_1112,MusicAffectPsychophysiology2019,3.0.5,59.938545009363544,
To what extent did the music make you feel ,TENDER,30MonoWAV/30MonoH2.wav,2,2,1,6,,,,,0,6,6,5,0,9,9,10,,,,,,,,,1,1.3522830420115497,,,103,001,2019_Sep_04_1112,MusicAffectPsychophysiology2019,3.0.5,59.938545009363544,
To what extent did the music make you feel ,SAD,30MonoWAV/30MonoH2.wav,2,2,1,6,,,,,0,6,6,5,0,10,10,0,,,,,,,,,1,1.5858153009903617,,,103,001,2019_Sep_04_1112,MusicAffectPsychophysiology2019,3.0.5,59.938545009363544,
To what extent did the music make you feel ,FRUSTRATED,30MonoWAV/30MonoH2.wav,2,2,1,6,,,,,0,6,6,5,0,11,11,3,,,,,,,,,1,0.9697815850086045,,,103,001,2019_Sep_04_1112,MusicAffectPsychophysiology2019,3.0.5,59.938545009363544,
,,30MonoWAV/30MonoH2.wav,2,2,1,6,,,,,0,6,6,5,,,,,,,,,,,,,,,,,103,001,2019_Sep_04_1112,MusicAffectPsychophysiology2019,3.0.5,59.938545009363544,
To what extent did the music make you feel ,ASHAMED,30MonoWAV/30MonoS1.wav,1,1,3,9,,,,,0,7,7,8,0,0,0,4,,,1,6.002190206985688,1,1.9857778340228833,1,2.1029305839911103,3,4.017060584999854,,,103,001,2019_Sep_04_1112,MusicAffectPsychophysiology2019,3.0.5,59.938545009363544,
To what extent did the music make you feel ,ANXIOUS ,30MonoWAV/30MonoS1.wav,1,1,3,9,,,,,0,7,7,8,0,1,1,1,,,,,,,,,2,1.669627727009356,,,103,001,2019_Sep_04_1112,MusicAffectPsychophysiology2019,3.0.5,59.938545009363544,
To what extent did the music make you feel ,ACTIVE,30MonoWAV/30MonoS1.wav,1,1,3,9,,,,,0,7,7,8,0,2,2,9,,,,,,,,,1,1.0522653739899397,,,103,001,2019_Sep_04_1112,MusicAffectPsychophysiology2019,3.0.5,59.938545009363544,
To what extent did the music make you feel ,EXCITED,30MonoWAV/30MonoS1.wav,1,1,3,9,,,,,0,7,7,8,0,3,3,7,,,,,,,,,1,1.7361835329793394,,,103,001,2019_Sep_04_1112,MusicAffectPsychophysiology2019,3.0.5,59.938545009363544,
To what extent did the music make you feel ,ALERT,30MonoWAV/30MonoS1.wav,1,1,3,9,,,,,0,7,7,8,0,4,4,8,,,,,,,,,1,1.251957989006769,,,103,001,2019_Sep_04_1112,MusicAffectPsychophysiology2019,3.0.5,59.938545009363544,
To what extent did the music make you feel ,FRUSTRATED,30MonoWAV/30MonoS1.wav,1,1,3,9,,,,,0,7,7,8,0,5,5,3,,,,,,,,,2,1.9864467389998026,,,103,001,2019_Sep_04_1112,MusicAffectPsychophysiology2019,3.0.5,59.938545009363544,
To what extent did the music make you feel ,GUILTY,30MonoWAV/30MonoS1.wav,1,1,3,9,,,,,0,7,7,8,0,6,6,5,,,,,,,,,3,1.319697508995887,,,103,001,2019_Sep_04_1112,MusicAffectPsychophysiology2019,3.0.5,59.938545009363544,
To what extent did the music make you feel ,HAPPY,30MonoWAV/30MonoS1.wav,1,1,3,9,,,,,0,7,7,8,0,7,7,6,,,,,,,,,1,2.186051451979438,,,103,001,2019_Sep_04_1112,MusicAffectPsychophysiology2019,3.0.5,59.938545009363544,
To what extent did the music make you feel ,TENDER,30MonoWAV/30MonoS1.wav,1,1,3,9,,,,,0,7,7,8,0,8,8,10,,,,,,,,,3,1.7022680429799948,,,103,001,2019_Sep_04_1112,MusicAffectPsychophysiology2019,3.0.5,59.938545009363544,
To what extent did the music make you feel ,SAD,30MonoWAV/30MonoS1.wav,1,1,3,9,,,,,0,7,7,8,0,9,9,0,,,,,,,,,4,3.5524422689923085,,,103,001,2019_Sep_04_1112,MusicAffectPsychophysiology2019,3.0.5,59.938545009363544,
To what extent did the music make you feel ,SCARED,30MonoWAV/30MonoS1.wav,1,1,3,9,,,,,0,7,7,8,0,10,10,11,,,,,,,,,1,1.0526438590022735,,,103,001,2019_Sep_04_1112,MusicAffectPsychophysiology2019,3.0.5,59.938545009363544,
To what extent did the music make you feel ,ANGRY,30MonoWAV/30MonoS1.wav,1,1,3,9,,,,,0,7,7,8,0,11,11,2,,,,,,,,,1,0.9693533199897502,,,103,001,2019_Sep_04_1112,MusicAffectPsychophysiology2019,3.0.5,59.938545009363544,
,,30MonoWAV/30MonoS1.wav,1,1,3,9,,,,,0,7,7,8,,,,,,,,,,,,,,,,,103,001,2019_Sep_04_1112,MusicAffectPsychophysiology2019,3.0.5,59.938545009363544,
To what extent did the music make you feel ,FRUSTRATED,30MonoWAV/30MonoF2.wav,1,2,2,2,,,,,0,8,8,1,0,0,0,3,,,1,7.386266065004747,1,1.1025894790072925,1,1.501363849005429,1,1.9714837560022715,,,103,001,2019_Sep_04_1112,MusicAffectPsychophysiology2019,3.0.5,59.938545009363544,
To what extent did the music make you feel ,ACTIVE,30MonoWAV/30MonoF2.wav,1,2,2,2,,,,,0,8,8,1,0,1,1,9,,,,,,,,,1,0.9679706509923562,,,103,001,2019_Sep_04_1112,MusicAffectPsychophysiology2019,3.0.5,59.938545009363544,
To what extent did the music make you feel ,ASHAMED,30MonoWAV/30MonoF2.wav,1,2,2,2,,,,,0,8,8,1,0,2,2,4,,,,,,,,,1,2.200092083978234,,,103,001,2019_Sep_04_1112,MusicAffectPsychophysiology2019,3.0.5,59.938545009363544,
To what extent did the music make you feel ,HAPPY,30MonoWAV/30MonoF2.wav,1,2,2,2,,,,,0,8,8,1,0,3,3,6,,,,,,,,,1,0.751169700990431,,,103,001,2019_Sep_04_1112,MusicAffectPsychophysiology2019,3.0.5,59.938545009363544,
To what extent did the music make you feel ,EXCITED,30MonoWAV/30MonoF2.wav,1,2,2,2,,,,,0,8,8,1,0,4,4,7,,,,,,,,,1,1.7022872550005559,,,103,001,2019_Sep_04_1112,MusicAffectPsychophysiology2019,3.0.5,59.938545009363544,
To what extent did the music make you feel ,ANXIOUS ,30MonoWAV/30MonoF2.wav,1,2,2,2,,,,,0,8,8,1,0,5,5,1,,,,,,,,,5,2.352741551992949,,,103,001,2019_Sep_04_1112,MusicAffectPsychophysiology2019,3.0.5,59.938545009363544,
To what extent did the music make you feel ,SAD,30MonoWAV/30MonoF2.wav,1,2,2,2,,,,,0,8,8,1,0,6,6,0,,,,,,,,,2,5.36867253400851,,,103,001,2019_Sep_04_1112,MusicAffectPsychophysiology2019,3.0.5,59.938545009363544,
To what extent did the music make you feel ,GUILTY,30MonoWAV/30MonoF2.wav,1,2,2,2,,,,,0,8,8,1,0,7,7,5,,,,,,,,,3,1.400569979014108,,,103,001,2019_Sep_04_1112,MusicAffectPsychophysiology2019,3.0.5,59.938545009363544,
To what extent did the music make you feel ,ANGRY,30MonoWAV/30MonoF2.wav,1,2,2,2,,,,,0,8,8,1,0,8,8,2,,,,,,,,,3,2.8360958389821462,,,103,001,2019_Sep_04_1112,MusicAffectPsychophysiology2019,3.0.5,59.938545009363544,
To what extent did the music make you feel ,ALERT,30MonoWAV/30MonoF2.wav,1,2,2,2,,,,,0,8,8,1,0,9,9,8,,,,,,,,,3,1.3362079240032472,,,103,001,2019_Sep_04_1112,MusicAffectPsychophysiology2019,3.0.5,59.938545009363544,
To what extent did the music make you feel ,TENDER,30MonoWAV/30MonoF2.wav,1,2,2,2,,,,,0,8,8,1,0,10,10,10,,,,,,,,,1,1.1677802990016062,,,103,001,2019_Sep_04_1112,MusicAffectPsychophysiology2019,3.0.5,59.938545009363544,
To what extent did the music make you feel ,SCARED,30MonoWAV/30MonoF2.wav,1,2,2,2,,,,,0,8,8,1,0,11,11,11,,,,,,,,,5,1.5190413939999416,,,103,001,2019_Sep_04_1112,MusicAffectPsychophysiology2019,3.0.5,59.938545009363544,
,,30MonoWAV/30MonoF2.wav,1,2,2,2,,,,,0,8,8,1,,,,,,,,,,,,,,,,,103,001,2019_Sep_04_1112,MusicAffectPsychophysiology2019,3.0.5,59.938545009363544,
To what extent did the music make you feel ,ACTIVE,30MonoWAV/30MonoF3.wav,1,2,2,3,,,,,0,9,9,2,0,0,0,9,,,2,4.5694257029972505,1,1.8534643200109713,1,3.1370282050047535,1,3.0970712369889952,,,103,001,2019_Sep_04_1112,MusicAffectPsychophysiology2019,3.0.5,59.938545009363544,
To what extent did the music make you feel ,GUILTY,30MonoWAV/30MonoF3.wav,1,2,2,3,,,,,0,9,9,2,0,1,1,5,,,,,,,,,1,3.2998636009870097,,,103,001,2019_Sep_04_1112,MusicAffectPsychophysiology2019,3.0.5,59.938545009363544,
To what extent did the music make you feel ,ALERT,30MonoWAV/30MonoF3.wav,1,2,2,3,,,,,0,9,9,2,0,2,2,8,,,,,,,,,3,1.902771972992923,,,103,001,2019_Sep_04_1112,MusicAffectPsychophysiology2019,3.0.5,59.938545009363544,
To what extent did the music make you feel ,HAPPY,30MonoWAV/30MonoF3.wav,1,2,2,3,,,,,0,9,9,2,0,3,3,6,,,,,,,,,1,1.7517464000266045,,,103,001,2019_Sep_04_1112,MusicAffectPsychophysiology2019,3.0.5,59.938545009363544,
To what extent did the music make you feel ,FRUSTRATED,30MonoWAV/30MonoF3.wav,1,2,2,3,,,,,0,9,9,2,0,4,4,3,,,,,,,,,1,1.3523196739843115,,,103,001,2019_Sep_04_1112,MusicAffectPsychophysiology2019,3.0.5,59.938545009363544,
To what extent did the music make you feel ,TENDER,30MonoWAV/30MonoF3.wav,1,2,2,3,,,,,0,9,9,2,0,5,5,10,,,,,,,,,1,0.8373617159959394,,,103,001,2019_Sep_04_1112,MusicAffectPsychophysiology2019,3.0.5,59.938545009363544,
To what extent did the music make you feel ,SCARED,30MonoWAV/30MonoF3.wav,1,2,2,3,,,,,0,9,9,2,0,6,6,11,,,,,,,,,4,1.9351002520124894,,,103,001,2019_Sep_04_1112,MusicAffectPsychophysiology2019,3.0.5,59.938545009363544,
To what extent did the music make you feel ,ANXIOUS ,30MonoWAV/30MonoF3.wav,1,2,2,3,,,,,0,9,9,2,0,7,7,1,,,,,,,,,4,1.2857127760071307,,,103,001,2019_Sep_04_1112,MusicAffectPsychophysiology2019,3.0.5,59.938545009363544,
To what extent did the music make you feel ,ASHAMED,30MonoWAV/30MonoF3.wav,1,2,2,3,,,,,0,9,9,2,0,8,8,4,,,,,,,,,3,1.3524434219871182,,,103,001,2019_Sep_04_1112,MusicAffectPsychophysiology2019,3.0.5,59.938545009363544,
To what extent did the music make you feel ,ANGRY,30MonoWAV/30MonoF3.wav,1,2,2,3,,,,,0,9,9,2,0,9,9,2,,,,,,,,,3,2.9849079069972504,,,103,001,2019_Sep_04_1112,MusicAffectPsychophysiology2019,3.0.5,59.938545009363544,
To what extent did the music make you feel ,SAD,30MonoWAV/30MonoF3.wav,1,2,2,3,,,,,0,9,9,2,0,10,10,0,,,,,,,,,1,1.6858913760224823,,,103,001,2019_Sep_04_1112,MusicAffectPsychophysiology2019,3.0.5,59.938545009363544,
To what extent did the music make you feel ,EXCITED,30MonoWAV/30MonoF3.wav,1,2,2,3,,,,,0,9,9,2,0,11,11,7,,,,,,,,,1,0.7859228779852856,,,103,001,2019_Sep_04_1112,MusicAffectPsychophysiology2019,3.0.5,59.938545009363544,
,,30MonoWAV/30MonoF3.wav,1,2,2,3,,,,,0,9,9,2,,,,,,,,,,,,,,,,,103,001,2019_Sep_04_1112,MusicAffectPsychophysiology2019,3.0.5,59.938545009363544,
To what extent did the music make you feel ,ANXIOUS ,30MonoWAV/30MonoS3.wav,1,1,3,11,,,,,0,10,10,10,0,0,0,1,,,1,2.1352980959927663,1,1.4702857539814431,1,2.736226364999311,2,2.8056334749853704,,,103,001,2019_Sep_04_1112,MusicAffectPsychophysiology2019,3.0.5,59.938545009363544,
To what extent did the music make you feel ,HAPPY,30MonoWAV/30MonoS3.wav,1,1,3,11,,,,,0,10,10,10,0,1,1,6,,,,,,,,,1,0.8511039849836379,,,103,001,2019_Sep_04_1112,MusicAffectPsychophysiology2019,3.0.5,59.938545009363544,
To what extent did the music make you feel ,ASHAMED,30MonoWAV/30MonoS3.wav,1,1,3,11,,,,,0,10,10,10,0,2,2,4,,,,,,,,,2,1.7028326120052952,,,103,001,2019_Sep_04_1112,MusicAffectPsychophysiology2019,3.0.5,59.938545009363544,
To what extent did the music make you feel ,ANGRY,30MonoWAV/30MonoS3.wav,1,1,3,11,,,,,0,10,10,10,0,3,3,2,,,,,,,,,1,1.6834663080226164,,,103,001,2019_Sep_04_1112,MusicAffectPsychophysiology2019,3.0.5,59.938545009363544,
To what extent did the music make you feel ,SCARED,30MonoWAV/30MonoS3.wav,1,1,3,11,,,,,0,10,10,10,0,4,4,11,,,,,,,,,1,1.1525250019913074,,,103,001,2019_Sep_04_1112,MusicAffectPsychophysiology2019,3.0.5,59.938545009363544,
To what extent did the music make you feel ,FRUSTRATED,30MonoWAV/30MonoS3.wav,1,1,3,11,,,,,0,10,10,10,0,5,5,3,,,,,,,,,3,2.2397377930174116,,,103,001,2019_Sep_04_1112,MusicAffectPsychophysiology2019,3.0.5,59.938545009363544,
To what extent did the music make you feel ,SAD,30MonoWAV/30MonoS3.wav,1,1,3,11,,,,,0,10,10,10,0,6,6,0,,,,,,,,,4,1.7359678549983073,,,103,001,2019_Sep_04_1112,MusicAffectPsychophysiology2019,3.0.5,59.938545009363544,
To what extent did the music make you feel ,ACTIVE,30MonoWAV/30MonoS3.wav,1,1,3,11,,,,,0,10,10,10,0,7,7,9,,,,,,,,,1,2.5196422080043703,,,103,001,2019_Sep_04_1112,MusicAffectPsychophysiology2019,3.0.5,59.938545009363544,
To what extent did the music make you feel ,EXCITED,30MonoWAV/30MonoS3.wav,1,1,3,11,,,,,0,10,10,10,0,8,8,7,,,,,,,,,1,1.0345780070056207,,,103,001,2019_Sep_04_1112,MusicAffectPsychophysiology2019,3.0.5,59.938545009363544,
To what extent did the music make you feel ,TENDER,30MonoWAV/30MonoS3.wav,1,1,3,11,,,,,0,10,10,10,0,9,9,10,,,,,,,,,1,1.3371139090158977,,,103,001,2019_Sep_04_1112,MusicAffectPsychophysiology2019,3.0.5,59.938545009363544,
To what extent did the music make you feel ,GUILTY,30MonoWAV/30MonoS3.wav,1,1,3,11,,,,,0,10,10,10,0,10,10,5,,,,,,,,,2,1.2854508409800474,,,103,001,2019_Sep_04_1112,MusicAffectPsychophysiology2019,3.0.5,59.938545009363544,
To what extent did the music make you feel ,ALERT,30MonoWAV/30MonoS3.wav,1,1,3,11,,,,,0,10,10,10,0,11,11,8,,,,,,,,,2,2.4515469040197786,,,103,001,2019_Sep_04_1112,MusicAffectPsychophysiology2019,3.0.5,59.938545009363544,
,,30MonoWAV/30MonoS3.wav,1,1,3,11,,,,,0,10,10,10,,,,,,,,,,,,,,,,,103,001,2019_Sep_04_1112,MusicAffectPsychophysiology2019,3.0.5,59.938545009363544,
To what extent did the music make you feel ,EXCITED,30MonoWAV/30MonoF4.wav,1,2,2,4,,,,,0,11,11,3,0,0,0,7,,,4,4.169091163988924,3,3.352422234020196,3,2.4194914039981086,2,6.048627700016368,,,103,001,2019_Sep_04_1112,MusicAffectPsychophysiology2019,3.0.5,59.938545009363544,
To what extent did the music make you feel ,ANGRY,30MonoWAV/30MonoF4.wav,1,2,2,4,,,,,0,11,11,3,0,1,1,2,,,,,,,,,1,1.6521081739920191,,,103,001,2019_Sep_04_1112,MusicAffectPsychophysiology2019,3.0.5,59.938545009363544,
To what extent did the music make you feel ,HAPPY,30MonoWAV/30MonoF4.wav,1,2,2,4,,,,,0,11,11,3,0,2,2,6,,,,,,,,,2,2.1343615600198973,,,103,001,2019_Sep_04_1112,MusicAffectPsychophysiology2019,3.0.5,59.938545009363544,
To what extent did the music make you feel ,ACTIVE,30MonoWAV/30MonoF4.wav,1,2,2,4,,,,,0,11,11,3,0,3,3,9,,,,,,,,,3,1.6363648010010365,,,103,001,2019_Sep_04_1112,MusicAffectPsychophysiology2019,3.0.5,59.938545009363544,
To what extent did the music make you feel ,FRUSTRATED,30MonoWAV/30MonoF4.wav,1,2,2,4,,,,,0,11,11,3,0,4,4,3,,,,,,,,,1,1.195663514023181,,,103,001,2019_Sep_04_1112,MusicAffectPsychophysiology2019,3.0.5,59.938545009363544,
To what extent did the music make you feel ,TENDER,30MonoWAV/30MonoF4.wav,1,2,2,4,,,,,0,11,11,3,0,5,5,10,,,,,,,,,1,1.1354021370061673,,,103,001,2019_Sep_04_1112,MusicAffectPsychophysiology2019,3.0.5,59.938545009363544,
To what extent did the music make you feel ,ALERT,30MonoWAV/30MonoF4.wav,1,2,2,4,,,,,0,11,11,3,0,6,6,8,,,,,,,,,3,1.702733485988574,,,103,001,2019_Sep_04_1112,MusicAffectPsychophysiology2019,3.0.5,59.938545009363544,
To what extent did the music make you feel ,GUILTY,30MonoWAV/30MonoF4.wav,1,2,2,4,,,,,0,11,11,3,0,7,7,5,,,,,,,,,1,1.1027361679880414,,,103,001,2019_Sep_04_1112,MusicAffectPsychophysiology2019,3.0.5,59.938545009363544,
To what extent did the music make you feel ,SAD,30MonoWAV/30MonoF4.wav,1,2,2,4,,,,,0,11,11,3,0,8,8,0,,,,,,,,,1,1.019086193991825,,,103,001,2019_Sep_04_1112,MusicAffectPsychophysiology2019,3.0.5,59.938545009363544,
To what extent did the music make you feel ,ANXIOUS ,30MonoWAV/30MonoF4.wav,1,2,2,4,,,,,0,11,11,3,0,9,9,1,,,,,,,,,1,0.9014482490019873,,,103,001,2019_Sep_04_1112,MusicAffectPsychophysiology2019,3.0.5,59.938545009363544,
To what extent did the music make you feel ,ASHAMED,30MonoWAV/30MonoF4.wav,1,2,2,4,,,,,0,11,11,3,0,10,10,4,,,,,,,,,1,0.8532900429854635,,,103,001,2019_Sep_04_1112,MusicAffectPsychophysiology2019,3.0.5,59.938545009363544,
To what extent did the music make you feel ,SCARED,30MonoWAV/30MonoF4.wav,1,2,2,4,,,,,0,11,11,3,0,11,11,11,,,,,,,,,1,0.8350096590002067,,,103,001,2019_Sep_04_1112,MusicAffectPsychophysiology2019,3.0.5,59.938545009363544,
,,30MonoWAV/30MonoF4.wav,1,2,2,4,,,,,0,11,11,3,,,,,,,,,,,,,,,,,103,001,2019_Sep_04_1112,MusicAffectPsychophysiology2019,3.0.5,59.938545009363544,
To what extent did the music make you feel ,ASHAMED,30MonoWAV/30MonoT3.wav,2,1,4,15,,,,,0,12,12,14,0,0,0,4,,,1,4.400493630004348,3,1.8694000040122773,2,1.7364156050025485,1,2.618380078987684,,,103,001,2019_Sep_04_1112,MusicAffectPsychophysiology2019,3.0.5,59.938545009363544,
To what extent did the music make you feel ,TENDER,30MonoWAV/30MonoT3.wav,2,1,4,15,,,,,0,12,12,14,0,1,1,10,,,,,,,,,4,1.7355937169922981,,,103,001,2019_Sep_04_1112,MusicAffectPsychophysiology2019,3.0.5,59.938545009363544,
To what extent did the music make you feel ,ALERT,30MonoWAV/30MonoT3.wav,2,1,4,15,,,,,0,12,12,14,0,2,2,8,,,,,,,,,1,3.718130444001872,,,103,001,2019_Sep_04_1112,MusicAffectPsychophysiology2019,3.0.5,59.938545009363544,
To what extent did the music make you feel ,HAPPY,30MonoWAV/30MonoT3.wav,2,1,4,15,,,,,0,12,12,14,0,3,3,6,,,,,,,,,2,1.4535876669979189,,,103,001,2019_Sep_04_1112,MusicAffectPsychophysiology2019,3.0.5,59.938545009363544,
To what extent did the music make you feel ,ANGRY,30MonoWAV/30MonoT3.wav,2,1,4,15,,,,,0,12,12,14,0,4,4,2,,,,,,,,,1,0.7520858249918092,,,103,001,2019_Sep_04_1112,MusicAffectPsychophysiology2019,3.0.5,59.938545009363544,
To what extent did the music make you feel ,SAD,30MonoWAV/30MonoT3.wav,2,1,4,15,,,,,0,12,12,14,0,5,5,0,,,,,,,,,1,0.5686834900116082,,,103,001,2019_Sep_04_1112,MusicAffectPsychophysiology2019,3.0.5,59.938545009363544,
To what extent did the music make you feel ,FRUSTRATED,30MonoWAV/30MonoT3.wav,2,1,4,15,,,,,0,12,12,14,0,6,6,3,,,,,,,,,1,0.9222440099983942,,,103,001,2019_Sep_04_1112,MusicAffectPsychophysiology2019,3.0.5,59.938545009363544,
To what extent did the music make you feel ,SCARED,30MonoWAV/30MonoT3.wav,2,1,4,15,,,,,0,12,12,14,0,7,7,11,,,,,,,,,1,0.8876642390096094,,,103,001,2019_Sep_04_1112,MusicAffectPsychophysiology2019,3.0.5,59.938545009363544,
To what extent did the music make you feel ,ACTIVE,30MonoWAV/30MonoT3.wav,2,1,4,15,,,,,0,12,12,14,0,8,8,9,,,,,,,,,1,1.0203563130053226,,,103,001,2019_Sep_04_1112,MusicAffectPsychophysiology2019,3.0.5,59.938545009363544,
To what extent did the music make you feel ,EXCITED,30MonoWAV/30MonoT3.wav,2,1,4,15,,,,,0,12,12,14,0,9,9,7,,,,,,,,,1,1.053170190018136,,,103,001,2019_Sep_04_1112,MusicAffectPsychophysiology2019,3.0.5,59.938545009363544,
To what extent did the music make you feel ,GUILTY,30MonoWAV/30MonoT3.wav,2,1,4,15,,,,,0,12,12,14,0,10,10,5,,,,,,,,,1,1.4517588930029888,,,103,001,2019_Sep_04_1112,MusicAffectPsychophysiology2019,3.0.5,59.938545009363544,
To what extent did the music make you feel ,ANXIOUS ,30MonoWAV/30MonoT3.wav,2,1,4,15,,,,,0,12,12,14,0,11,11,1,,,,,,,,,1,0.7686735639872495,,,103,001,2019_Sep_04_1112,MusicAffectPsychophysiology2019,3.0.5,59.938545009363544,
,,30MonoWAV/30MonoT3.wav,2,1,4,15,,,,,0,12,12,14,,,,,,,,,,,,,,,,,103,001,2019_Sep_04_1112,MusicAffectPsychophysiology2019,3.0.5,59.938545009363544,
To what extent did the music make you feel ,SAD,30MonoWAV/30MonoT2.wav,2,1,4,14,,,,,0,13,13,13,0,0,0,0,,,1,4.3693368780077435,2,1.7850997220375575,2,3.5181500790058635,2,3.0984631460160017,,,103,001,2019_Sep_04_1112,MusicAffectPsychophysiology2019,3.0.5,59.938545009363544,
To what extent did the music make you feel ,HAPPY,30MonoWAV/30MonoT2.wav,2,1,4,14,,,,,0,13,13,13,0,1,1,6,,,,,,,,,1,0.9004312570323236,,,103,001,2019_Sep_04_1112,MusicAffectPsychophysiology2019,3.0.5,59.938545009363544,
To what extent did the music make you feel ,GUILTY,30MonoWAV/30MonoT2.wav,2,1,4,14,,,,,0,13,13,13,0,2,2,5,,,,,,,,,1,4.136000166996382,,,103,001,2019_Sep_04_1112,MusicAffectPsychophysiology2019,3.0.5,59.938545009363544,
To what extent did the music make you feel ,ALERT,30MonoWAV/30MonoT2.wav,2,1,4,14,,,,,0,13,13,13,0,3,3,8,,,,,,,,,1,0.9689343540230766,,,103,001,2019_Sep_04_1112,MusicAffectPsychophysiology2019,3.0.5,59.938545009363544,
To what extent did the music make you feel ,FRUSTRATED,30MonoWAV/30MonoT2.wav,2,1,4,14,,,,,0,13,13,13,0,4,4,3,,,,,,,,,1,1.2814624050515704,,,103,001,2019_Sep_04_1112,MusicAffectPsychophysiology2019,3.0.5,59.938545009363544,
To what extent did the music make you feel ,EXCITED,30MonoWAV/30MonoT2.wav,2,1,4,14,,,,,0,13,13,13,0,5,5,7,,,,,,,,,1,0.7855883879819885,,,103,001,2019_Sep_04_1112,MusicAffectPsychophysiology2019,3.0.5,59.938545009363544,
To what extent did the music make you feel ,ACTIVE,30MonoWAV/30MonoT2.wav,2,1,4,14,,,,,0,13,13,13,0,6,6,9,,,,,,,,,1,0.8198796730139293,,,103,001,2019_Sep_04_1112,MusicAffectPsychophysiology2019,3.0.5,59.938545009363544,
To what extent did the music make you feel ,ASHAMED,30MonoWAV/30MonoT2.wav,2,1,4,14,,,,,0,13,13,13,0,7,7,4,,,,,,,,,1,1.3022768560331315,,,103,001,2019_Sep_04_1112,MusicAffectPsychophysiology2019,3.0.5,59.938545009363544,
To what extent did the music make you feel ,ANXIOUS ,30MonoWAV/30MonoT2.wav,2,1,4,14,,,,,0,13,13,13,0,8,8,1,,,,,,,,,1,2.9862326349830255,,,103,001,2019_Sep_04_1112,MusicAffectPsychophysiology2019,3.0.5,59.938545009363544,
To what extent did the music make you feel ,ANGRY,30MonoWAV/30MonoT2.wav,2,1,4,14,,,,,0,13,13,13,0,9,9,2,,,,,,,,,1,0.8501385290292092,,,103,001,2019_Sep_04_1112,MusicAffectPsychophysiology2019,3.0.5,59.938545009363544,
To what extent did the music make you feel ,TENDER,30MonoWAV/30MonoT2.wav,2,1,4,14,,,,,0,13,13,13,0,10,10,10,,,,,,,,,3,3.18250158400042,,,103,001,2019_Sep_04_1112,MusicAffectPsychophysiology2019,3.0.5,59.938545009363544,
To what extent did the music make you feel ,SCARED,30MonoWAV/30MonoT2.wav,2,1,4,14,,,,,0,13,13,13,0,11,11,11,,,,,,,,,1,1.2024368189740926,,,103,001,2019_Sep_04_1112,MusicAffectPsychophysiology2019,3.0.5,59.938545009363544,
,,30MonoWAV/30MonoT2.wav,2,1,4,14,,,,,0,13,13,13,,,,,,,,,,,,,,,,,103,001,2019_Sep_04_1112,MusicAffectPsychophysiology2019,3.0.5,59.938545009363544,
To what extent did the music make you feel ,HAPPY,30MonoWAV/30MonoH4.wav,2,2,1,8,,,,,0,14,14,7,0,0,0,6,,,5,2.5856229580240324,5,2.2857072760234587,5,2.3524835860007443,5,2.241899029002525,,,103,001,2019_Sep_04_1112,MusicAffectPsychophysiology2019,3.0.5,59.938545009363544,
To what extent did the music make you feel ,ACTIVE,30MonoWAV/30MonoH4.wav,2,2,1,8,,,,,0,14,14,7,0,1,1,9,,,,,,,,,4,1.352290589013137,,,103,001,2019_Sep_04_1112,MusicAffectPsychophysiology2019,3.0.5,59.938545009363544,
To what extent did the music make you feel ,GUILTY,30MonoWAV/30MonoH4.wav,2,2,1,8,,,,,0,14,14,7,0,2,2,5,,,,,,,,,1,3.1835809199837968,,,103,001,2019_Sep_04_1112,MusicAffectPsychophysiology2019,3.0.5,59.938545009363544,
To what extent did the music make you feel ,ANXIOUS ,30MonoWAV/30MonoH4.wav,2,2,1,8,,,,,0,14,14,7,0,3,3,1,,,,,,,,,1,0.7856884420034476,,,103,001,2019_Sep_04_1112,MusicAffectPsychophysiology2019,3.0.5,59.938545009363544,
To what extent did the music make you feel ,EXCITED,30MonoWAV/30MonoH4.wav,2,2,1,8,,,,,0,14,14,7,0,4,4,7,,,,,,,,,5,1.4355810830020346,,,103,001,2019_Sep_04_1112,MusicAffectPsychophysiology2019,3.0.5,59.938545009363544,
To what extent did the music make you feel ,ASHAMED,30MonoWAV/30MonoH4.wav,2,2,1,8,,,,,0,14,14,7,0,5,5,4,,,,,,,,,1,1.7698556679533795,,,103,001,2019_Sep_04_1112,MusicAffectPsychophysiology2019,3.0.5,59.938545009363544,
To what extent did the music make you feel ,FRUSTRATED,30MonoWAV/30MonoH4.wav,2,2,1,8,,,,,0,14,14,7,0,6,6,3,,,,,,,,,1,1.2405538780149072,,,103,001,2019_Sep_04_1112,MusicAffectPsychophysiology2019,3.0.5,59.938545009363544,
To what extent did the music make you feel ,TENDER,30MonoWAV/30MonoH4.wav,2,2,1,8,,,,,0,14,14,7,0,7,7,10,,,,,,,,,1,1.103820057993289,,,103,001,2019_Sep_04_1112,MusicAffectPsychophysiology2019,3.0.5,59.938545009363544,
To what extent did the music make you feel ,ANGRY,30MonoWAV/30MonoH4.wav,2,2,1,8,,,,,0,14,14,7,0,8,8,2,,,,,,,,,1,1.1026134199928492,,,103,001,2019_Sep_04_1112,MusicAffectPsychophysiology2019,3.0.5,59.938545009363544,
To what extent did the music make you feel ,ALERT,30MonoWAV/30MonoH4.wav,2,2,1,8,,,,,0,14,14,7,0,9,9,8,,,,,,,,,2,3.752307271002792,,,103,001,2019_Sep_04_1112,MusicAffectPsychophysiology2019,3.0.5,59.938545009363544,
To what extent did the music make you feel ,SCARED,30MonoWAV/30MonoH4.wav,2,2,1,8,,,,,0,14,14,7,0,10,10,11,,,,,,,,,1,1.0024756839848123,,,103,001,2019_Sep_04_1112,MusicAffectPsychophysiology2019,3.0.5,59.938545009363544,
To what extent did the music make you feel ,SAD,30MonoWAV/30MonoH4.wav,2,2,1,8,,,,,0,14,14,7,0,11,11,0,,,,,,,,,1,0.8499131909920834,,,103,001,2019_Sep_04_1112,MusicAffectPsychophysiology2019,3.0.5,59.938545009363544,
,,30MonoWAV/30MonoH4.wav,2,2,1,8,,,,,0,14,14,7,,,,,,,,,,,,,,,,,103,001,2019_Sep_04_1112,MusicAffectPsychophysiology2019,3.0.5,59.938545009363544,
To what extent did the music make you feel ,GUILTY,30MonoWAV/30MonoT4.wav,2,1,4,16,,,,,0,15,15,15,0,0,0,5,,,2,2.886714951018803,3,1.3391428989707492,3,1.2503191290306859,1,2.7828781050047837,,,103,001,2019_Sep_04_1112,MusicAffectPsychophysiology2019,3.0.5,59.938545009363544,
To what extent did the music make you feel ,EXCITED,30MonoWAV/30MonoT4.wav,2,1,4,16,,,,,0,15,15,15,0,1,1,7,,,,,,,,,1,1.3852859350154176,,,103,001,2019_Sep_04_1112,MusicAffectPsychophysiology2019,3.0.5,59.938545009363544,
To what extent did the music make you feel ,ALERT,30MonoWAV/30MonoT4.wav,2,1,4,16,,,,,0,15,15,15,0,2,2,8,,,,,,,,,1,1.167294014012441,,,103,001,2019_Sep_04_1112,MusicAffectPsychophysiology2019,3.0.5,59.938545009363544,
To what extent did the music make you feel ,ANXIOUS ,30MonoWAV/30MonoT4.wav,2,1,4,16,,,,,0,15,15,15,0,3,3,1,,,,,,,,,1,0.819964270980563,,,103,001,2019_Sep_04_1112,MusicAffectPsychophysiology2019,3.0.5,59.938545009363544,
To what extent did the music make you feel ,ANGRY,30MonoWAV/30MonoT4.wav,2,1,4,16,,,,,0,15,15,15,0,4,4,2,,,,,,,,,1,0.7037929060170427,,,103,001,2019_Sep_04_1112,MusicAffectPsychophysiology2019,3.0.5,59.938545009363544,
To what extent did the music make you feel ,HAPPY,30MonoWAV/30MonoT4.wav,2,1,4,16,,,,,0,15,15,15,0,5,5,6,,,,,,,,,2,1.6190508609870449,,,103,001,2019_Sep_04_1112,MusicAffectPsychophysiology2019,3.0.5,59.938545009363544,
To what extent did the music make you feel ,SCARED,30MonoWAV/30MonoT4.wav,2,1,4,16,,,,,0,15,15,15,0,6,6,11,,,,,,,,,1,0.9034145119949244,,,103,001,2019_Sep_04_1112,MusicAffectPsychophysiology2019,3.0.5,59.938545009363544,
To what extent did the music make you feel ,FRUSTRATED,30MonoWAV/30MonoT4.wav,2,1,4,16,,,,,0,15,15,15,0,7,7,3,,,,,,,,,1,0.9876903910189867,,,103,001,2019_Sep_04_1112,MusicAffectPsychophysiology2019,3.0.5,59.938545009363544,
To what extent did the music make you feel ,ASHAMED,30MonoWAV/30MonoT4.wav,2,1,4,16,,,,,0,15,15,15,0,8,8,4,,,,,,,,,1,1.2185430399840698,,,103,001,2019_Sep_04_1112,MusicAffectPsychophysiology2019,3.0.5,59.938545009363544,
To what extent did the music make you feel ,TENDER,30MonoWAV/30MonoT4.wav,2,1,4,16,,,,,0,15,15,15,0,9,9,10,,,,,,,,,2,1.6358286250033416,,,103,001,2019_Sep_04_1112,MusicAffectPsychophysiology2019,3.0.5,59.938545009363544,
To what extent did the music make you feel ,ACTIVE,30MonoWAV/30MonoT4.wav,2,1,4,16,,,,,0,15,15,15,0,10,10,9,,,,,,,,,1,4.335020376020111,,,103,001,2019_Sep_04_1112,MusicAffectPsychophysiology2019,3.0.5,59.938545009363544,
To what extent did the music make you feel ,SAD,30MonoWAV/30MonoT4.wav,2,1,4,16,,,,,0,15,15,15,0,11,11,0,,,,,,,,,1,1.0860564289614558,,,103,001,2019_Sep_04_1112,MusicAffectPsychophysiology2019,3.0.5,59.938545009363544,
,,30MonoWAV/30MonoT4.wav,2,1,4,16,,,,,0,15,15,15,,,,,,,,,,,,,,,,,103,001,2019_Sep_04_1112,MusicAffectPsychophysiology2019,3.0.5,59.938545009363544,
To what extent did the music make you feel ,SCARED,30MonoWAV/30MonoH2.wav,2,2,1,6,,,,,1,0,16,5,0,0,0,11,,,4,3.9699319339706562,4,1.7356488960213028,4,2.1029224100057036,1,1.4581186160212383,,,103,001,2019_Sep_04_1112,MusicAffectPsychophysiology2019,3.0.5,59.938545009363544,
To what extent did the music make you feel ,FRUSTRATED,30MonoWAV/30MonoH2.wav,2,2,1,6,,,,,1,0,16,5,0,1,1,3,,,,,,,,,1,1.5034396239789203,,,103,001,2019_Sep_04_1112,MusicAffectPsychophysiology2019,3.0.5,59.938545009363544,
To what extent did the music make you feel ,ANXIOUS ,30MonoWAV/30MonoH2.wav,2,2,1,6,,,,,1,0,16,5,0,2,2,1,,,,,,,,,1,0.7433874739799649,,,103,001,2019_Sep_04_1112,MusicAffectPsychophysiology2019,3.0.5,59.938545009363544,
To what extent did the music make you feel ,HAPPY,30MonoWAV/30MonoH2.wav,2,2,1,6,,,,,1,0,16,5,0,3,3,6,,,,,,,,,4,1.7515268819988705,,,103,001,2019_Sep_04_1112,MusicAffectPsychophysiology2019,3.0.5,59.938545009363544,
To what extent did the music make you feel ,SAD,30MonoWAV/30MonoH2.wav,2,2,1,6,,,,,1,0,16,5,0,4,4,0,,,,,,,,,1,1.0027109900256619,,,103,001,2019_Sep_04_1112,MusicAffectPsychophysiology2019,3.0.5,59.938545009363544,
To what extent did the music make you feel ,ASHAMED,30MonoWAV/30MonoH2.wav,2,2,1,6,,,,,1,0,16,5,0,5,5,4,,,,,,,,,1,1.1525507710175589,,,103,001,2019_Sep_04_1112,MusicAffectPsychophysiology2019,3.0.5,59.938545009363544,
To what extent did the music make you feel ,TENDER,30MonoWAV/30MonoH2.wav,2,2,1,6,,,,,1,0,16,5,0,6,6,10,,,,,,,,,1,1.6020869979984127,,,103,001,2019_Sep_04_1112,MusicAffectPsychophysiology2019,3.0.5,59.938545009363544,
To what extent did the music make you feel ,ANGRY,30MonoWAV/30MonoH2.wav,2,2,1,6,,,,,1,0,16,5,0,7,7,2,,,,,,,,,1,0.9025742060039192,,,103,001,2019_Sep_04_1112,MusicAffectPsychophysiology2019,3.0.5,59.938545009363544,
To what extent did the music make you feel ,ALERT,30MonoWAV/30MonoH2.wav,2,2,1,6,,,,,1,0,16,5,0,8,8,8,,,,,,,,,2,2.15346361103002,,,103,001,2019_Sep_04_1112,MusicAffectPsychophysiology2019,3.0.5,59.938545009363544,
To what extent did the music make you feel ,EXCITED,30MonoWAV/30MonoH2.wav,2,2,1,6,,,,,1,0,16,5,0,9,9,7,,,,,,,,,3,2.2860191620420665,,,103,001,2019_Sep_04_1112,MusicAffectPsychophysiology2019,3.0.5,59.938545009363544,
To what extent did the music make you feel ,GUILTY,30MonoWAV/30MonoH2.wav,2,2,1,6,,,,,1,0,16,5,0,10,10,5,,,,,,,,,1,0.9864474209607579,,,103,001,2019_Sep_04_1112,MusicAffectPsychophysiology2019,3.0.5,59.938545009363544,
To what extent did the music make you feel ,ACTIVE,30MonoWAV/30MonoH2.wav,2,2,1,6,,,,,1,0,16,5,0,11,11,9,,,,,,,,,3,2.1023976689903066,,,103,001,2019_Sep_04_1112,MusicAffectPsychophysiology2019,3.0.5,59.938545009363544,
,,30MonoWAV/30MonoH2.wav,2,2,1,6,,,,,1,0,16,5,,,,,,,,,,,,,,,,,103,001,2019_Sep_04_1112,MusicAffectPsychophysiology2019,3.0.5,59.938545009363544,
To what extent did the music make you feel ,FRUSTRATED,30MonoWAV/30MonoS3.wav,1,1,3,11,,,,,1,1,17,10,0,0,0,3,,,1,2.5864606990362518,1,1.369183756003622,1,1.0702488489914685,4,4.716870836971793,,,103,001,2019_Sep_04_1112,MusicAffectPsychophysiology2019,3.0.5,59.938545009363544,
To what extent did the music make you feel ,ACTIVE,30MonoWAV/30MonoS3.wav,1,1,3,11,,,,,1,1,17,10,0,1,1,9,,,,,,,,,1,1.1024383489857428,,,103,001,2019_Sep_04_1112,MusicAffectPsychophysiology2019,3.0.5,59.938545009363544,
To what extent did the music make you feel ,TENDER,30MonoWAV/30MonoS3.wav,1,1,3,11,,,,,1,1,17,10,0,2,2,10,,,,,,,,,1,1.567910481011495,,,103,001,2019_Sep_04_1112,MusicAffectPsychophysiology2019,3.0.5,59.938545009363544,
To what extent did the music make you feel ,ASHAMED,30MonoWAV/30MonoS3.wav,1,1,3,11,,,,,1,1,17,10,0,3,3,4,,,,,,,,,4,1.9191868049674667,,,103,001,2019_Sep_04_1112,MusicAffectPsychophysiology2019,3.0.5,59.938545009363544,
To what extent did the music make you feel ,SCARED,30MonoWAV/30MonoS3.wav,1,1,3,11,,,,,1,1,17,10,0,4,4,11,,,,,,,,,2,1.7023604700225405,,,103,001,2019_Sep_04_1112,MusicAffectPsychophysiology2019,3.0.5,59.938545009363544,
To what extent did the music make you feel ,ANXIOUS ,30MonoWAV/30MonoS3.wav,1,1,3,11,,,,,1,1,17,10,0,5,5,1,,,,,,,,,2,1.2873101829900406,,,103,001,2019_Sep_04_1112,MusicAffectPsychophysiology2019,3.0.5,59.938545009363544,
To what extent did the music make you feel ,SAD,30MonoWAV/30MonoS3.wav,1,1,3,11,,,,,1,1,17,10,0,6,6,0,,,,,,,,,3,1.6522850019973703,,,103,001,2019_Sep_04_1112,MusicAffectPsychophysiology2019,3.0.5,59.938545009363544,
To what extent did the music make you feel ,ALERT,30MonoWAV/30MonoS3.wav,1,1,3,11,,,,,1,1,17,10,0,7,7,8,,,,,,,,,1,3.2182909270050004,,,103,001,2019_Sep_04_1112,MusicAffectPsychophysiology2019,3.0.5,59.938545009363544,
To what extent did the music make you feel ,HAPPY,30MonoWAV/30MonoS3.wav,1,1,3,11,,,,,1,1,17,10,0,8,8,6,,,,,,,,,1,5.669820509036072,,,103,001,2019_Sep_04_1112,MusicAffectPsychophysiology2019,3.0.5,59.938545009363544,
To what extent did the music make you feel ,EXCITED,30MonoWAV/30MonoS3.wav,1,1,3,11,,,,,1,1,17,10,0,9,9,7,,,,,,,,,1,1.6354145479854196,,,103,001,2019_Sep_04_1112,MusicAffectPsychophysiology2019,3.0.5,59.938545009363544,
To what extent did the music make you feel ,GUILTY,30MonoWAV/30MonoS3.wav,1,1,3,11,,,,,1,1,17,10,0,10,10,5,,,,,,,,,4,3.201401265047025,,,103,001,2019_Sep_04_1112,MusicAffectPsychophysiology2019,3.0.5,59.938545009363544,
To what extent did the music make you feel ,ANGRY,30MonoWAV/30MonoS3.wav,1,1,3,11,,,,,1,1,17,10,0,11,11,2,,,,,,,,,1,1.0186520119896159,,,103,001,2019_Sep_04_1112,MusicAffectPsychophysiology2019,3.0.5,59.938545009363544,
,,30MonoWAV/30MonoS3.wav,1,1,3,11,,,,,1,1,17,10,,,,,,,,,,,,,,,,,103,001,2019_Sep_04_1112,MusicAffectPsychophysiology2019,3.0.5,59.938545009363544,
To what extent did the music make you feel ,ANXIOUS ,30MonoWAV/30MonoH1.wav,2,2,1,5,,,,,1,2,18,4,0,0,0,1,,,4,3.969218628015369,5,1.65166146698175,5,1.569038126966916,1,2.679241571982857,,,103,001,2019_Sep_04_1112,MusicAffectPsychophysiology2019,3.0.5,59.938545009363544,
To what extent did the music make you feel ,ASHAMED,30MonoWAV/30MonoH1.wav,2,2,1,5,,,,,1,2,18,4,0,1,1,4,,,,,,,,,1,1.0685920139658265,,,103,001,2019_Sep_04_1112,MusicAffectPsychophysiology2019,3.0.5,59.938545009363544,
To what extent did the music make you feel ,GUILTY,30MonoWAV/30MonoH1.wav,2,2,1,5,,,,,1,2,18,4,0,2,2,5,,,,,,,,,1,0.6858335069846362,,,103,001,2019_Sep_04_1112,MusicAffectPsychophysiology2019,3.0.5,59.938545009363544,
To what extent did the music make you feel ,ALERT,30MonoWAV/30MonoH1.wav,2,2,1,5,,,,,1,2,18,4,0,3,3,8,,,,,,,,,2,1.7022285429993644,,,103,001,2019_Sep_04_1112,MusicAffectPsychophysiology2019,3.0.5,59.938545009363544,
To what extent did the music make you feel ,ACTIVE,30MonoWAV/30MonoH1.wav,2,2,1,5,,,,,1,2,18,4,0,4,4,9,,,,,,,,,3,2.1189921890036203,,,103,001,2019_Sep_04_1112,MusicAffectPsychophysiology2019,3.0.5,59.938545009363544,
To what extent did the music make you feel ,ANGRY,30MonoWAV/30MonoH1.wav,2,2,1,5,,,,,1,2,18,4,0,5,5,2,,,,,,,,,1,1.1516251350403763,,,103,001,2019_Sep_04_1112,MusicAffectPsychophysiology2019,3.0.5,59.938545009363544,
To what extent did the music make you feel ,SAD,30MonoWAV/30MonoH1.wav,2,2,1,5,,,,,1,2,18,4,0,6,6,0,,,,,,,,,1,0.7858132459805347,,,103,001,2019_Sep_04_1112,MusicAffectPsychophysiology2019,3.0.5,59.938545009363544,
To what extent did the music make you feel ,TENDER,30MonoWAV/30MonoH1.wav,2,2,1,5,,,,,1,2,18,4,0,7,7,10,,,,,,,,,2,1.7688098920043558,,,103,001,2019_Sep_04_1112,MusicAffectPsychophysiology2019,3.0.5,59.938545009363544,
To what extent did the music make you feel ,SCARED,30MonoWAV/30MonoH1.wav,2,2,1,5,,,,,1,2,18,4,0,8,8,11,,,,,,,,,1,2.3358256359933876,,,103,001,2019_Sep_04_1112,MusicAffectPsychophysiology2019,3.0.5,59.938545009363544,
To what extent did the music make you feel ,FRUSTRATED,30MonoWAV/30MonoH1.wav,2,2,1,5,,,,,1,2,18,4,0,9,9,3,,,,,,,,,1,0.8447804679744877,,,103,001,2019_Sep_04_1112,MusicAffectPsychophysiology2019,3.0.5,59.938545009363544,
To what extent did the music make you feel ,EXCITED,30MonoWAV/30MonoH1.wav,2,2,1,5,,,,,1,2,18,4,0,10,10,7,,,,,,,,,3,3.5516188589972444,,,103,001,2019_Sep_04_1112,MusicAffectPsychophysiology2019,3.0.5,59.938545009363544,
To what extent did the music make you feel ,HAPPY,30MonoWAV/30MonoH1.wav,2,2,1,5,,,,,1,2,18,4,0,11,11,6,,,,,,,,,4,2.2527844489668496,,,103,001,2019_Sep_04_1112,MusicAffectPsychophysiology2019,3.0.5,59.938545009363544,
,,30MonoWAV/30MonoH1.wav,2,2,1,5,,,,,1,2,18,4,,,,,,,,,,,,,,,,,103,001,2019_Sep_04_1112,MusicAffectPsychophysiology2019,3.0.5,59.938545009363544,
To what extent did the music make you feel ,ASHAMED,30MonoWAV/30MonoS4.wav,1,1,3,12,,,,,1,3,19,11,0,0,0,4,,,1,2.3346281819976866,1,2.718514033011161,1,4.101141849998385,3,3.7370885289856233,,,103,001,2019_Sep_04_1112,MusicAffectPsychophysiology2019,3.0.5,59.938545009363544,
To what extent did the music make you feel ,HAPPY,30MonoWAV/30MonoS4.wav,1,1,3,12,,,,,1,3,19,11,0,1,1,6,,,,,,,,,1,0.9196809140266851,,,103,001,2019_Sep_04_1112,MusicAffectPsychophysiology2019,3.0.5,59.938545009363544,
To what extent did the music make you feel ,ANGRY,30MonoWAV/30MonoS4.wav,1,1,3,12,,,,,1,3,19,11,0,2,2,2,,,,,,,,,1,1.2825856019626372,,,103,001,2019_Sep_04_1112,MusicAffectPsychophysiology2019,3.0.5,59.938545009363544,
To what extent did the music make you feel ,EXCITED,30MonoWAV/30MonoS4.wav,1,1,3,12,,,,,1,3,19,11,0,3,3,7,,,,,,,,,1,0.9520406739902683,,,103,001,2019_Sep_04_1112,MusicAffectPsychophysiology2019,3.0.5,59.938545009363544,
To what extent did the music make you feel ,SCARED,30MonoWAV/30MonoS4.wav,1,1,3,12,,,,,1,3,19,11,0,4,4,11,,,,,,,,,1,0.9492807039641775,,,103,001,2019_Sep_04_1112,MusicAffectPsychophysiology2019,3.0.5,59.938545009363544,
To what extent did the music make you feel ,ANXIOUS ,30MonoWAV/30MonoS4.wav,1,1,3,12,,,,,1,3,19,11,0,5,5,1,,,,,,,,,1,4.649730417004321,,,103,001,2019_Sep_04_1112,MusicAffectPsychophysiology2019,3.0.5,59.938545009363544,
To what extent did the music make you feel ,GUILTY,30MonoWAV/30MonoS4.wav,1,1,3,12,,,,,1,3,19,11,0,6,6,5,,,,,,,,,3,1.5696930579724722,,,103,001,2019_Sep_04_1112,MusicAffectPsychophysiology2019,3.0.5,59.938545009363544,
To what extent did the music make you feel ,SAD,30MonoWAV/30MonoS4.wav,1,1,3,12,,,,,1,3,19,11,0,7,7,0,,,,,,,,,4,1.0526954579981975,,,103,001,2019_Sep_04_1112,MusicAffectPsychophysiology2019,3.0.5,59.938545009363544,
To what extent did the music make you feel ,ALERT,30MonoWAV/30MonoS4.wav,1,1,3,12,,,,,1,3,19,11,0,8,8,8,,,,,,,,,1,1.2527842999552377,,,103,001,2019_Sep_04_1112,MusicAffectPsychophysiology2019,3.0.5,59.938545009363544,
To what extent did the music make you feel ,ACTIVE,30MonoWAV/30MonoS4.wav,1,1,3,12,,,,,1,3,19,11,0,9,9,9,,,,,,,,,1,1.0028552220319398,,,103,001,2019_Sep_04_1112,MusicAffectPsychophysiology2019,3.0.5,59.938545009363544,
To what extent did the music make you feel ,TENDER,30MonoWAV/30MonoS4.wav,1,1,3,12,,,,,1,3,19,11,0,10,10,10,,,,,,,,,2,1.9028744399547577,,,103,001,2019_Sep_04_1112,MusicAffectPsychophysiology2019,3.0.5,59.938545009363544,
To what extent did the music make you feel ,FRUSTRATED,30MonoWAV/30MonoS4.wav,1,1,3,12,,,,,1,3,19,11,0,11,11,3,,,,,,,,,3,1.969788490969222,,,103,001,2019_Sep_04_1112,MusicAffectPsychophysiology2019,3.0.5,59.938545009363544,
,,30MonoWAV/30MonoS4.wav,1,1,3,12,,,,,1,3,19,11,,,,,,,,,,,,,,,,,103,001,2019_Sep_04_1112,MusicAffectPsychophysiology2019,3.0.5,59.938545009363544,
To what extent did the music make you feel ,HAPPY,30MonoWAV/30MonoF3.wav,1,2,2,3,,,,,1,4,20,2,0,0,0,6,,,2,3.1013561830041,1,1.8190699060214683,2,2.9868876190157607,1,2.0459240729687735,,,103,001,2019_Sep_04_1112,MusicAffectPsychophysiology2019,3.0.5,59.938545009363544,
To what extent did the music make you feel ,ASHAMED,30MonoWAV/30MonoF3.wav,1,2,2,3,,,,,1,4,20,2,0,1,1,4,,,,,,,,,1,0.9359155999845825,,,103,001,2019_Sep_04_1112,MusicAffectPsychophysiology2019,3.0.5,59.938545009363544,
To what extent did the music make you feel ,GUILTY,30MonoWAV/30MonoF3.wav,1,2,2,3,,,,,1,4,20,2,0,2,2,5,,,,,,,,,2,1.4197268259595148,,,103,001,2019_Sep_04_1112,MusicAffectPsychophysiology2019,3.0.5,59.938545009363544,
To what extent did the music make you feel ,TENDER,30MonoWAV/30MonoF3.wav,1,2,2,3,,,,,1,4,20,2,0,3,3,10,,,,,,,,,1,1.3462863579625264,,,103,001,2019_Sep_04_1112,MusicAffectPsychophysiology2019,3.0.5,59.938545009363544,
To what extent did the music make you feel ,ANGRY,30MonoWAV/30MonoF3.wav,1,2,2,3,,,,,1,4,20,2,0,4,4,2,,,,,,,,,3,1.9527737959870137,,,103,001,2019_Sep_04_1112,MusicAffectPsychophysiology2019,3.0.5,59.938545009363544,
To what extent did the music make you feel ,ANXIOUS ,30MonoWAV/30MonoF3.wav,1,2,2,3,,,,,1,4,20,2,0,5,5,1,,,,,,,,,3,1.5868345720227808,,,103,001,2019_Sep_04_1112,MusicAffectPsychophysiology2019,3.0.5,59.938545009363544,
To what extent did the music make you feel ,SCARED,30MonoWAV/30MonoF3.wav,1,2,2,3,,,,,1,4,20,2,0,6,6,11,,,,,,,,,2,3.317403253982775,,,103,001,2019_Sep_04_1112,MusicAffectPsychophysiology2019,3.0.5,59.938545009363544,
To what extent did the music make you feel ,ALERT,30MonoWAV/30MonoF3.wav,1,2,2,3,,,,,1,4,20,2,0,7,7,8,,,,,,,,,3,1.4859723970293999,,,103,001,2019_Sep_04_1112,MusicAffectPsychophysiology2019,3.0.5,59.938545009363544,
To what extent did the music make you feel ,EXCITED,30MonoWAV/30MonoF3.wav,1,2,2,3,,,,,1,4,20,2,0,8,8,7,,,,,,,,,1,1.500711140979547,,,103,001,2019_Sep_04_1112,MusicAffectPsychophysiology2019,3.0.5,59.938545009363544,
To what extent did the music make you feel ,SAD,30MonoWAV/30MonoF3.wav,1,2,2,3,,,,,1,4,20,2,0,9,9,0,,,,,,,,,1,1.2189390309504233,,,103,001,2019_Sep_04_1112,MusicAffectPsychophysiology2019,3.0.5,59.938545009363544,
To what extent did the music make you feel ,FRUSTRATED,30MonoWAV/30MonoF3.wav,1,2,2,3,,,,,1,4,20,2,0,10,10,3,,,,,,,,,1,0.9951478699804284,,,103,001,2019_Sep_04_1112,MusicAffectPsychophysiology2019,3.0.5,59.938545009363544,
To what extent did the music make you feel ,ACTIVE,30MonoWAV/30MonoF3.wav,1,2,2,3,,,,,1,4,20,2,0,11,11,9,,,,,,,,,1,0.8353239450370893,,,103,001,2019_Sep_04_1112,MusicAffectPsychophysiology2019,3.0.5,59.938545009363544,
,,30MonoWAV/30MonoF3.wav,1,2,2,3,,,,,1,4,20,2,,,,,,,,,,,,,,,,,103,001,2019_Sep_04_1112,MusicAffectPsychophysiology2019,3.0.5,59.938545009363544,
To what extent did the music make you feel ,TENDER,30MonoWAV/30MonoT3.wav,2,1,4,15,,,,,1,5,21,14,0,0,0,10,,,1,2.770120422996115,2,6.1356223479961045,1,1.4021988659515046,4,3.888318123994395,,,103,001,2019_Sep_04_1112,MusicAffectPsychophysiology2019,3.0.5,59.938545009363544,
To what extent did the music make you feel ,EXCITED,30MonoWAV/30MonoT3.wav,2,1,4,15,,,,,1,5,21,14,0,1,1,7,,,,,,,,,1,1.7692107670009136,,,103,001,2019_Sep_04_1112,MusicAffectPsychophysiology2019,3.0.5,59.938545009363544,
To what extent did the music make you feel ,ASHAMED,30MonoWAV/30MonoT3.wav,2,1,4,15,,,,,1,5,21,14,0,2,2,4,,,,,,,,,1,1.068003038992174,,,103,001,2019_Sep_04_1112,MusicAffectPsychophysiology2019,3.0.5,59.938545009363544,
To what extent did the music make you feel ,ACTIVE,30MonoWAV/30MonoT3.wav,2,1,4,15,,,,,1,5,21,14,0,3,3,9,,,,,,,,,1,0.7352130539948121,,,103,001,2019_Sep_04_1112,MusicAffectPsychophysiology2019,3.0.5,59.938545009363544,
To what extent did the music make you feel ,ALERT,30MonoWAV/30MonoT3.wav,2,1,4,15,,,,,1,5,21,14,0,4,4,8,,,,,,,,,1,0.9863861809717491,,,103,001,2019_Sep_04_1112,MusicAffectPsychophysiology2019,3.0.5,59.938545009363544,
To what extent did the music make you feel ,FRUSTRATED,30MonoWAV/30MonoT3.wav,2,1,4,15,,,,,1,5,21,14,0,5,5,3,,,,,,,,,1,0.8226254190085456,,,103,001,2019_Sep_04_1112,MusicAffectPsychophysiology2019,3.0.5,59.938545009363544,
To what extent did the music make you feel ,HAPPY,30MonoWAV/30MonoT3.wav,2,1,4,15,,,,,1,5,21,14,0,6,6,6,,,,,,,,,2,5.201790804043412,,,103,001,2019_Sep_04_1112,MusicAffectPsychophysiology2019,3.0.5,59.938545009363544,
To what extent did the music make you feel ,ANXIOUS ,30MonoWAV/30MonoT3.wav,2,1,4,15,,,,,1,5,21,14,0,7,7,1,,,,,,,,,1,0.9194491740199737,,,103,001,2019_Sep_04_1112,MusicAffectPsychophysiology2019,3.0.5,59.938545009363544,
To what extent did the music make you feel ,SAD,30MonoWAV/30MonoT3.wav,2,1,4,15,,,,,1,5,21,14,0,8,8,0,,,,,,,,,1,1.7866660539875738,,,103,001,2019_Sep_04_1112,MusicAffectPsychophysiology2019,3.0.5,59.938545009363544,
To what extent did the music make you feel ,SCARED,30MonoWAV/30MonoT3.wav,2,1,4,15,,,,,1,5,21,14,0,9,9,11,,,,,,,,,1,3.150749901018571,,,103,001,2019_Sep_04_1112,MusicAffectPsychophysiology2019,3.0.5,59.938545009363544,
To what extent did the music make you feel ,ANGRY,30MonoWAV/30MonoT3.wav,2,1,4,15,,,,,1,5,21,14,0,10,10,2,,,,,,,,,1,0.6701612540055066,,,103,001,2019_Sep_04_1112,MusicAffectPsychophysiology2019,3.0.5,59.938545009363544,
To what extent did the music make you feel ,GUILTY,30MonoWAV/30MonoT3.wav,2,1,4,15,,,,,1,5,21,14,0,11,11,5,,,,,,,,,1,0.6030796429840848,,,103,001,2019_Sep_04_1112,MusicAffectPsychophysiology2019,3.0.5,59.938545009363544,
,,30MonoWAV/30MonoT3.wav,2,1,4,15,,,,,1,5,21,14,,,,,,,,,,,,,,,,,103,001,2019_Sep_04_1112,MusicAffectPsychophysiology2019,3.0.5,59.938545009363544,
To what extent did the music make you feel ,EXCITED,30MonoWAV/30MonoT4.wav,2,1,4,16,,,,,1,6,22,15,0,0,0,7,,,3,2.65183700597845,3,1.404114497010596,3,1.3860782150295563,2,2.4518144110334106,,,103,001,2019_Sep_04_1112,MusicAffectPsychophysiology2019,3.0.5,59.938545009363544,
To what extent did the music make you feel ,ASHAMED,30MonoWAV/30MonoT4.wav,2,1,4,16,,,,,1,6,22,15,0,1,1,4,,,,,,,,,1,1.200667646015063,,,103,001,2019_Sep_04_1112,MusicAffectPsychophysiology2019,3.0.5,59.938545009363544,
To what extent did the music make you feel ,HAPPY,30MonoWAV/30MonoT4.wav,2,1,4,16,,,,,1,6,22,15,0,2,2,6,,,,,,,,,3,1.9684749689768068,,,103,001,2019_Sep_04_1112,MusicAffectPsychophysiology2019,3.0.5,59.938545009363544,
To what extent did the music make you feel ,ALERT,30MonoWAV/30MonoT4.wav,2,1,4,16,,,,,1,6,22,15,0,3,3,8,,,,,,,,,2,1.520096571999602,,,103,001,2019_Sep_04_1112,MusicAffectPsychophysiology2019,3.0.5,59.938545009363544,
To what extent did the music make you feel ,ANXIOUS ,30MonoWAV/30MonoT4.wav,2,1,4,16,,,,,1,6,22,15,0,4,4,1,,,,,,,,,1,1.036145965976175,,,103,001,2019_Sep_04_1112,MusicAffectPsychophysiology2019,3.0.5,59.938545009363544,
To what extent did the music make you feel ,ANGRY,30MonoWAV/30MonoT4.wav,2,1,4,16,,,,,1,6,22,15,0,5,5,2,,,,,,,,,1,0.7855915710097179,,,103,001,2019_Sep_04_1112,MusicAffectPsychophysiology2019,3.0.5,59.938545009363544,
To what extent did the music make you feel ,TENDER,30MonoWAV/30MonoT4.wav,2,1,4,16,,,,,1,6,22,15,0,6,6,10,,,,,,,,,2,1.2499247720115818,,,103,001,2019_Sep_04_1112,MusicAffectPsychophysiology2019,3.0.5,59.938545009363544,
To what extent did the music make you feel ,SAD,30MonoWAV/30MonoT4.wav,2,1,4,16,,,,,1,6,22,15,0,7,7,0,,,,,,,,,1,1.4357227819855325,,,103,001,2019_Sep_04_1112,MusicAffectPsychophysiology2019,3.0.5,59.938545009363544,
To what extent did the music make you feel ,ACTIVE,30MonoWAV/30MonoT4.wav,2,1,4,16,,,,,1,6,22,15,0,8,8,9,,,,,,,,,2,1.4029406110057607,,,103,001,2019_Sep_04_1112,MusicAffectPsychophysiology2019,3.0.5,59.938545009363544,
To what extent did the music make you feel ,FRUSTRATED,30MonoWAV/30MonoT4.wav,2,1,4,16,,,,,1,6,22,15,0,9,9,3,,,,,,,,,1,1.2362459300202318,,,103,001,2019_Sep_04_1112,MusicAffectPsychophysiology2019,3.0.5,59.938545009363544,
To what extent did the music make you feel ,GUILTY,30MonoWAV/30MonoT4.wav,2,1,4,16,,,,,1,6,22,15,0,10,10,5,,,,,,,,,1,1.3185067240265198,,,103,001,2019_Sep_04_1112,MusicAffectPsychophysiology2019,3.0.5,59.938545009363544,
To what extent did the music make you feel ,SCARED,30MonoWAV/30MonoT4.wav,2,1,4,16,,,,,1,6,22,15,0,11,11,11,,,,,,,,,1,0.7368480850127526,,,103,001,2019_Sep_04_1112,MusicAffectPsychophysiology2019,3.0.5,59.938545009363544,
,,30MonoWAV/30MonoT4.wav,2,1,4,16,,,,,1,6,22,15,,,,,,,,,,,,,,,,,103,001,2019_Sep_04_1112,MusicAffectPsychophysiology2019,3.0.5,59.938545009363544,
To what extent did the music make you feel ,ASHAMED,30MonoWAV/30MonoF1.wav,1,2,2,1,,,,,1,7,23,0,0,0,0,4,,,3,5.299874778022058,2,3.2686732090078294,2,1.5856179450056516,1,2.7751636180328205,,,103,001,2019_Sep_04_1112,MusicAffectPsychophysiology2019,3.0.5,59.938545009363544,
To what extent did the music make you feel ,ACTIVE,30MonoWAV/30MonoF1.wav,1,2,2,1,,,,,1,7,23,0,0,1,1,9,,,,,,,,,2,1.2521765229757875,,,103,001,2019_Sep_04_1112,MusicAffectPsychophysiology2019,3.0.5,59.938545009363544,
To what extent did the music make you feel ,ALERT,30MonoWAV/30MonoF1.wav,1,2,2,1,,,,,1,7,23,0,0,2,2,8,,,,,,,,,3,1.2523623580345884,,,103,001,2019_Sep_04_1112,MusicAffectPsychophysiology2019,3.0.5,59.938545009363544,
To what extent did the music make you feel ,SAD,30MonoWAV/30MonoF1.wav,1,2,2,1,,,,,1,7,23,0,0,3,3,0,,,,,,,,,1,1.7028883729944937,,,103,001,2019_Sep_04_1112,MusicAffectPsychophysiology2019,3.0.5,59.938545009363544,
To what extent did the music make you feel ,HAPPY,30MonoWAV/30MonoF1.wav,1,2,2,1,,,,,1,7,23,0,0,4,4,6,,,,,,,,,1,0.8701348560280167,,,103,001,2019_Sep_04_1112,MusicAffectPsychophysiology2019,3.0.5,59.938545009363544,
To what extent did the music make you feel ,TENDER,30MonoWAV/30MonoF1.wav,1,2,2,1,,,,,1,7,23,0,0,5,5,10,,,,,,,,,1,1.2018154579563998,,,103,001,2019_Sep_04_1112,MusicAffectPsychophysiology2019,3.0.5,59.938545009363544,
To what extent did the music make you feel ,FRUSTRATED,30MonoWAV/30MonoF1.wav,1,2,2,1,,,,,1,7,23,0,0,6,6,3,,,,,,,,,1,1.186141544021666,,,103,001,2019_Sep_04_1112,MusicAffectPsychophysiology2019,3.0.5,59.938545009363544,
To what extent did the music make you feel ,SCARED,30MonoWAV/30MonoF1.wav,1,2,2,1,,,,,1,7,23,0,0,7,7,11,,,,,,,,,2,1.3693621950224042,,,103,001,2019_Sep_04_1112,MusicAffectPsychophysiology2019,3.0.5,59.938545009363544,
To what extent did the music make you feel ,ANGRY,30MonoWAV/30MonoF1.wav,1,2,2,1,,,,,1,7,23,0,0,8,8,2,,,,,,,,,3,1.7195848819683306,,,103,001,2019_Sep_04_1112,MusicAffectPsychophysiology2019,3.0.5,59.938545009363544,
To what extent did the music make you feel ,ANXIOUS ,30MonoWAV/30MonoF1.wav,1,2,2,1,,,,,1,7,23,0,0,9,9,1,,,,,,,,,2,3.5561095100129023,,,103,001,2019_Sep_04_1112,MusicAffectPsychophysiology2019,3.0.5,59.938545009363544,
To what extent did the music make you feel ,GUILTY,30MonoWAV/30MonoF1.wav,1,2,2,1,,,,,1,7,23,0,0,10,10,5,,,,,,,,,1,6.0194863229990005,,,103,001,2019_Sep_04_1112,MusicAffectPsychophysiology2019,3.0.5,59.938545009363544,
To what extent did the music make you feel ,EXCITED,30MonoWAV/30MonoF1.wav,1,2,2,1,,,,,1,7,23,0,0,11,11,7,,,,,,,,,2,2.0389260089723393,,,103,001,2019_Sep_04_1112,MusicAffectPsychophysiology2019,3.0.5,59.938545009363544,
,,30MonoWAV/30MonoF1.wav,1,2,2,1,,,,,1,7,23,0,,,,,,,,,,,,,,,,,103,001,2019_Sep_04_1112,MusicAffectPsychophysiology2019,3.0.5,59.938545009363544,
To what extent did the music make you feel ,SAD,30MonoWAV/30MonoH3.wav,2,2,1,7,,,,,1,8,24,6,0,0,0,0,,,5,2.2858771850005724,5,1.4186438139877282,5,0.9849421870312653,1,2.332972439995501,,,103,001,2019_Sep_04_1112,MusicAffectPsychophysiology2019,3.0.5,59.938545009363544,
To what extent did the music make you feel ,EXCITED,30MonoWAV/30MonoH3.wav,2,2,1,7,,,,,1,8,24,6,0,1,1,7,,,,,,,,,4,2.0858434840338305,,,103,001,2019_Sep_04_1112,MusicAffectPsychophysiology2019,3.0.5,59.938545009363544,
To what extent did the music make you feel ,ASHAMED,30MonoWAV/30MonoH3.wav,2,2,1,7,,,,,1,8,24,6,0,2,2,4,,,,,,,,,1,0.9358605060260743,,,103,001,2019_Sep_04_1112,MusicAffectPsychophysiology2019,3.0.5,59.938545009363544,
To what extent did the music make you feel ,ACTIVE,30MonoWAV/30MonoH3.wav,2,2,1,7,,,,,1,8,24,6,0,3,3,9,,,,,,,,,4,1.5028607539716177,,,103,001,2019_Sep_04_1112,MusicAffectPsychophysiology2019,3.0.5,59.938545009363544,
To what extent did the music make you feel ,ANXIOUS ,30MonoWAV/30MonoH3.wav,2,2,1,7,,,,,1,8,24,6,0,4,4,1,,,,,,,,,1,1.1521617179969326,,,103,001,2019_Sep_04_1112,MusicAffectPsychophysiology2019,3.0.5,59.938545009363544,
To what extent did the music make you feel ,FRUSTRATED,30MonoWAV/30MonoH3.wav,2,2,1,7,,,,,1,8,24,6,0,5,5,3,,,,,,,,,1,1.4823799430159852,,,103,001,2019_Sep_04_1112,MusicAffectPsychophysiology2019,3.0.5,59.938545009363544,
To what extent did the music make you feel ,ALERT,30MonoWAV/30MonoH3.wav,2,2,1,7,,,,,1,8,24,6,0,6,6,8,,,,,,,,,2,3.052272007043939,,,103,001,2019_Sep_04_1112,MusicAffectPsychophysiology2019,3.0.5,59.938545009363544,
To what extent did the music make you feel ,SCARED,30MonoWAV/30MonoH3.wav,2,2,1,7,,,,,1,8,24,6,0,7,7,11,,,,,,,,,1,1.0019628970185295,,,103,001,2019_Sep_04_1112,MusicAffectPsychophysiology2019,3.0.5,59.938545009363544,
To what extent did the music make you feel ,GUILTY,30MonoWAV/30MonoH3.wav,2,2,1,7,,,,,1,8,24,6,0,8,8,5,,,,,,,,,1,0.8188612799858674,,,103,001,2019_Sep_04_1112,MusicAffectPsychophysiology2019,3.0.5,59.938545009363544,
To what extent did the music make you feel ,TENDER,30MonoWAV/30MonoH3.wav,2,2,1,7,,,,,1,8,24,6,0,9,9,10,,,,,,,,,1,0.8528850569855422,,,103,001,2019_Sep_04_1112,MusicAffectPsychophysiology2019,3.0.5,59.938545009363544,
To what extent did the music make you feel ,ANGRY,30MonoWAV/30MonoH3.wav,2,2,1,7,,,,,1,8,24,6,0,10,10,2,,,,,,,,,1,1.050965512986295,,,103,001,2019_Sep_04_1112,MusicAffectPsychophysiology2019,3.0.5,59.938545009363544,
To what extent did the music make you feel ,HAPPY,30MonoWAV/30MonoH3.wav,2,2,1,7,,,,,1,8,24,6,0,11,11,6,,,,,,,,,4,1.268565131991636,,,103,001,2019_Sep_04_1112,MusicAffectPsychophysiology2019,3.0.5,59.938545009363544,
,,30MonoWAV/30MonoH3.wav,2,2,1,7,,,,,1,8,24,6,,,,,,,,,,,,,,,,,103,001,2019_Sep_04_1112,MusicAffectPsychophysiology2019,3.0.5,59.938545009363544,
To what extent did the music make you feel ,ANXIOUS ,30MonoWAV/30MonoS2.wav,1,1,3,10,,,,,1,9,25,9,0,0,0,1,,,1,2.652514169982169,1,0.3693662929581478,1,1.3169193010544404,1,1.3908033830230124,,,103,001,2019_Sep_04_1112,MusicAffectPsychophysiology2019,3.0.5,59.938545009363544,
To what extent did the music make you feel ,TENDER,30MonoWAV/30MonoS2.wav,1,1,3,10,,,,,1,9,25,9,0,1,1,10,,,,,,,,,2,1.8362896379549056,,,103,001,2019_Sep_04_1112,MusicAffectPsychophysiology2019,3.0.5,59.938545009363544,
To what extent did the music make you feel ,ANGRY,30MonoWAV/30MonoS2.wav,1,1,3,10,,,,,1,9,25,9,0,2,2,2,,,,,,,,,1,1.5518819149583578,,,103,001,2019_Sep_04_1112,MusicAffectPsychophysiology2019,3.0.5,59.938545009363544,
To what extent did the music make you feel ,EXCITED,30MonoWAV/30MonoS2.wav,1,1,3,10,,,,,1,9,25,9,0,3,3,7,,,,,,,,,1,0.7029886890086345,,,103,001,2019_Sep_04_1112,MusicAffectPsychophysiology2019,3.0.5,59.938545009363544,
To what extent did the music make you feel ,GUILTY,30MonoWAV/30MonoS2.wav,1,1,3,10,,,,,1,9,25,9,0,4,4,5,,,,,,,,,3,1.6859492129879072,,,103,001,2019_Sep_04_1112,MusicAffectPsychophysiology2019,3.0.5,59.938545009363544,
To what extent did the music make you feel ,HAPPY,30MonoWAV/30MonoS2.wav,1,1,3,10,,,,,1,9,25,9,0,5,5,6,,,,,,,,,1,0.9026026289793663,,,103,001,2019_Sep_04_1112,MusicAffectPsychophysiology2019,3.0.5,59.938545009363544,
To what extent did the music make you feel ,ALERT,30MonoWAV/30MonoS2.wav,1,1,3,10,,,,,1,9,25,9,0,6,6,8,,,,,,,,,1,1.2672119670314714,,,103,001,2019_Sep_04_1112,MusicAffectPsychophysiology2019,3.0.5,59.938545009363544,
To what extent did the music make you feel ,ASHAMED,30MonoWAV/30MonoS2.wav,1,1,3,10,,,,,1,9,25,9,0,7,7,4,,,,,,,,,2,2.4043743219808675,,,103,001,2019_Sep_04_1112,MusicAffectPsychophysiology2019,3.0.5,59.938545009363544,
To what extent did the music make you feel ,SCARED,30MonoWAV/30MonoS2.wav,1,1,3,10,,,,,1,9,25,9,0,8,8,11,,,,,,,,,1,1.3747320509864949,,,103,001,2019_Sep_04_1112,MusicAffectPsychophysiology2019,3.0.5,59.938545009363544,
To what extent did the music make you feel ,FRUSTRATED,30MonoWAV/30MonoS2.wav,1,1,3,10,,,,,1,9,25,9,0,9,9,3,,,,,,,,,3,1.2367712619598024,,,103,001,2019_Sep_04_1112,MusicAffectPsychophysiology2019,3.0.5,59.938545009363544,
To what extent did the music make you feel ,SAD,30MonoWAV/30MonoS2.wav,1,1,3,10,,,,,1,9,25,9,0,10,10,0,,,,,,,,,4,1.186516220041085,,,103,001,2019_Sep_04_1112,MusicAffectPsychophysiology2019,3.0.5,59.938545009363544,
To what extent did the music make you feel ,ACTIVE,30MonoWAV/30MonoS2.wav,1,1,3,10,,,,,1,9,25,9,0,11,11,9,,,,,,,,,1,1.1522952450322919,,,103,001,2019_Sep_04_1112,MusicAffectPsychophysiology2019,3.0.5,59.938545009363544,
,,30MonoWAV/30MonoS2.wav,1,1,3,10,,,,,1,9,25,9,,,,,,,,,,,,,,,,,103,001,2019_Sep_04_1112,MusicAffectPsychophysiology2019,3.0.5,59.938545009363544,
To what extent did the music make you feel ,ANGRY,30MonoWAV/30MonoT2.wav,2,1,4,14,,,,,1,10,26,13,0,0,0,2,,,2,2.7359759410028346,3,2.2205390970339067,2,1.569812202011235,1,1.8523229410056956,,,103,001,2019_Sep_04_1112,MusicAffectPsychophysiology2019,3.0.5,59.938545009363544,
To what extent did the music make you feel ,ANXIOUS ,30MonoWAV/30MonoT2.wav,2,1,4,14,,,,,1,10,26,13,0,1,1,1,,,,,,,,,1,3.452118078013882,,,103,001,2019_Sep_04_1112,MusicAffectPsychophysiology2019,3.0.5,59.938545009363544,
To what extent did the music make you feel ,SAD,30MonoWAV/30MonoT2.wav,2,1,4,14,,,,,1,10,26,13,0,2,2,0,,,,,,,,,3,1.9352885829866864,,,103,001,2019_Sep_04_1112,MusicAffectPsychophysiology2019,3.0.5,59.938545009363544,
To what extent did the music make you feel ,ALERT,30MonoWAV/30MonoT2.wav,2,1,4,14,,,,,1,10,26,13,0,3,3,8,,,,,,,,,1,3.799912449961994,,,103,001,2019_Sep_04_1112,MusicAffectPsychophysiology2019,3.0.5,59.938545009363544,
To what extent did the music make you feel ,HAPPY,30MonoWAV/30MonoT2.wav,2,1,4,14,,,,,1,10,26,13,0,4,4,6,,,,,,,,,1,2.416130456025712,,,103,001,2019_Sep_04_1112,MusicAffectPsychophysiology2019,3.0.5,59.938545009363544,
To what extent did the music make you feel ,ACTIVE,30MonoWAV/30MonoT2.wav,2,1,4,14,,,,,1,10,26,13,0,5,5,9,,,,,,,,,2,1.4186562820104882,,,103,001,2019_Sep_04_1112,MusicAffectPsychophysiology2019,3.0.5,59.938545009363544,
To what extent did the music make you feel ,FRUSTRATED,30MonoWAV/30MonoT2.wav,2,1,4,14,,,,,1,10,26,13,0,6,6,3,,,,,,,,,1,0.8685043950099498,,,103,001,2019_Sep_04_1112,MusicAffectPsychophysiology2019,3.0.5,59.938545009363544,
To what extent did the music make you feel ,GUILTY,30MonoWAV/30MonoT2.wav,2,1,4,14,,,,,1,10,26,13,0,7,7,5,,,,,,,,,1,1.3187002529739402,,,103,001,2019_Sep_04_1112,MusicAffectPsychophysiology2019,3.0.5,59.938545009363544,
To what extent did the music make you feel ,ASHAMED,30MonoWAV/30MonoT2.wav,2,1,4,14,,,,,1,10,26,13,0,8,8,4,,,,,,,,,2,1.4361320650205016,,,103,001,2019_Sep_04_1112,MusicAffectPsychophysiology2019,3.0.5,59.938545009363544,
To what extent did the music make you feel ,SCARED,30MonoWAV/30MonoT2.wav,2,1,4,14,,,,,1,10,26,13,0,9,9,11,,,,,,,,,1,2.069130550022237,,,103,001,2019_Sep_04_1112,MusicAffectPsychophysiology2019,3.0.5,59.938545009363544,
To what extent did the music make you feel ,EXCITED,30MonoWAV/30MonoT2.wav,2,1,4,14,,,,,1,10,26,13,0,10,10,7,,,,,,,,,1,2.203157866024412,,,103,001,2019_Sep_04_1112,MusicAffectPsychophysiology2019,3.0.5,59.938545009363544,
To what extent did the music make you feel ,TENDER,30MonoWAV/30MonoT2.wav,2,1,4,14,,,,,1,10,26,13,0,11,11,10,,,,,,,,,3,2.2675143479718827,,,103,001,2019_Sep_04_1112,MusicAffectPsychophysiology2019,3.0.5,59.938545009363544,
,,30MonoWAV/30MonoT2.wav,2,1,4,14,,,,,1,10,26,13,,,,,,,,,,,,,,,,,103,001,2019_Sep_04_1112,MusicAffectPsychophysiology2019,3.0.5,59.938545009363544,
To what extent did the music make you feel ,HAPPY,30MonoWAV/30MonoT1.wav,2,1,4,13,,,,,1,11,27,12,0,0,0,6,,,2,2.770105674979277,2,2.8688382279942743,2,0.7189709020312876,2,4.547342591977213,,,103,001,2019_Sep_04_1112,MusicAffectPsychophysiology2019,3.0.5,59.938545009363544,
To what extent did the music make you feel ,ALERT,30MonoWAV/30MonoT1.wav,2,1,4,13,,,,,1,11,27,12,0,1,1,8,,,,,,,,,1,3.494041630998254,,,103,001,2019_Sep_04_1112,MusicAffectPsychophysiology2019,3.0.5,59.938545009363544,
To what extent did the music make you feel ,SAD,30MonoWAV/30MonoT1.wav,2,1,4,13,,,,,1,11,27,12,0,2,2,0,,,,,,,,,3,4.002283948997501,,,103,001,2019_Sep_04_1112,MusicAffectPsychophysiology2019,3.0.5,59.938545009363544,
To what extent did the music make you feel ,SCARED,30MonoWAV/30MonoT1.wav,2,1,4,13,,,,,1,11,27,12,0,3,3,11,,,,,,,,,1,0.9680431999731809,,,103,001,2019_Sep_04_1112,MusicAffectPsychophysiology2019,3.0.5,59.938545009363544,
To what extent did the music make you feel ,EXCITED,30MonoWAV/30MonoT1.wav,2,1,4,13,,,,,1,11,27,12,0,4,4,7,,,,,,,,,1,0.7710228550131433,,,103,001,2019_Sep_04_1112,MusicAffectPsychophysiology2019,3.0.5,59.938545009363544,
To what extent did the music make you feel ,ANXIOUS ,30MonoWAV/30MonoT1.wav,2,1,4,13,,,,,1,11,27,12,0,5,5,1,,,,,,,,,1,0.6599211540305987,,,103,001,2019_Sep_04_1112,MusicAffectPsychophysiology2019,3.0.5,59.938545009363544,
To what extent did the music make you feel ,ANGRY,30MonoWAV/30MonoT1.wav,2,1,4,13,,,,,1,11,27,12,0,6,6,2,,,,,,,,,1,0.6692304640309885,,,103,001,2019_Sep_04_1112,MusicAffectPsychophysiology2019,3.0.5,59.938545009363544,
To what extent did the music make you feel ,GUILTY,30MonoWAV/30MonoT1.wav,2,1,4,13,,,,,1,11,27,12,0,7,7,5,,,,,,,,,2,2.552227740001399,,,103,001,2019_Sep_04_1112,MusicAffectPsychophysiology2019,3.0.5,59.938545009363544,
To what extent did the music make you feel ,TENDER,30MonoWAV/30MonoT1.wav,2,1,4,13,,,,,1,11,27,12,0,8,8,10,,,,,,,,,3,1.8854256729828194,,,103,001,2019_Sep_04_1112,MusicAffectPsychophysiology2019,3.0.5,59.938545009363544,
To what extent did the music make you feel ,ACTIVE,30MonoWAV/30MonoT1.wav,2,1,4,13,,,,,1,11,27,12,0,9,9,9,,,,,,,,,1,2.4853694760240614,,,103,001,2019_Sep_04_1112,MusicAffectPsychophysiology2019,3.0.5,59.938545009363544,
To what extent did the music make you feel ,ASHAMED,30MonoWAV/30MonoT1.wav,2,1,4,13,,,,,1,11,27,12,0,10,10,4,,,,,,,,,1,0.8331510340212844,,,103,001,2019_Sep_04_1112,MusicAffectPsychophysiology2019,3.0.5,59.938545009363544,
To what extent did the music make you feel ,FRUSTRATED,30MonoWAV/30MonoT1.wav,2,1,4,13,,,,,1,11,27,12,0,11,11,3,,,,,,,,,1,0.9357684159767814,,,103,001,2019_Sep_04_1112,MusicAffectPsychophysiology2019,3.0.5,59.938545009363544,
,,30MonoWAV/30MonoT1.wav,2,1,4,13,,,,,1,11,27,12,,,,,,,,,,,,,,,,,103,001,2019_Sep_04_1112,MusicAffectPsychophysiology2019,3.0.5,59.938545009363544,
To what extent did the music make you feel ,ALERT,30MonoWAV/30MonoF4.wav,1,2,2,4,,,,,1,12,28,3,0,0,0,8,,,4,1.6681313050212339,2,1.6687043370329775,2,1.169164003978949,4,4.784536308026873,,,103,001,2019_Sep_04_1112,MusicAffectPsychophysiology2019,3.0.5,59.938545009363544,
To what extent did the music make you feel ,ASHAMED,30MonoWAV/30MonoF4.wav,1,2,2,4,,,,,1,12,28,3,0,1,1,4,,,,,,,,,1,1.2024540929705836,,,103,001,2019_Sep_04_1112,MusicAffectPsychophysiology2019,3.0.5,59.938545009363544,
To what extent did the music make you feel ,SCARED,30MonoWAV/30MonoF4.wav,1,2,2,4,,,,,1,12,28,3,0,2,2,11,,,,,,,,,2,3.019933214003686,,,103,001,2019_Sep_04_1112,MusicAffectPsychophysiology2019,3.0.5,59.938545009363544,
To what extent did the music make you feel ,SAD,30MonoWAV/30MonoF4.wav,1,2,2,4,,,,,1,12,28,3,0,3,3,0,,,,,,,,,1,1.1030651250039227,,,103,001,2019_Sep_04_1112,MusicAffectPsychophysiology2019,3.0.5,59.938545009363544,
To what extent did the music make you feel ,ANXIOUS ,30MonoWAV/30MonoF4.wav,1,2,2,4,,,,,1,12,28,3,0,4,4,1,,,,,,,,,3,1.6668795539881103,,,103,001,2019_Sep_04_1112,MusicAffectPsychophysiology2019,3.0.5,59.938545009363544,
To what extent did the music make you feel ,GUILTY,30MonoWAV/30MonoF4.wav,1,2,2,4,,,,,1,12,28,3,0,5,5,5,,,,,,,,,2,1.3521635390352458,,,103,001,2019_Sep_04_1112,MusicAffectPsychophysiology2019,3.0.5,59.938545009363544,
To what extent did the music make you feel ,ACTIVE,30MonoWAV/30MonoF4.wav,1,2,2,4,,,,,1,12,28,3,0,6,6,9,,,,,,,,,1,1.8355541540076956,,,103,001,2019_Sep_04_1112,MusicAffectPsychophysiology2019,3.0.5,59.938545009363544,
To what extent did the music make you feel ,HAPPY,30MonoWAV/30MonoF4.wav,1,2,2,4,,,,,1,12,28,3,0,7,7,6,,,,,,,,,1,2.018827931024134,,,103,001,2019_Sep_04_1112,MusicAffectPsychophysiology2019,3.0.5,59.938545009363544,
To what extent did the music make you feel ,ANGRY,30MonoWAV/30MonoF4.wav,1,2,2,4,,,,,1,12,28,3,0,8,8,2,,,,,,,,,3,1.4352039939840324,,,103,001,2019_Sep_04_1112,MusicAffectPsychophysiology2019,3.0.5,59.938545009363544,
To what extent did the music make you feel ,TENDER,30MonoWAV/30MonoF4.wav,1,2,2,4,,,,,1,12,28,3,0,9,9,10,,,,,,,,,1,0.9363857290009037,,,103,001,2019_Sep_04_1112,MusicAffectPsychophysiology2019,3.0.5,59.938545009363544,
To what extent did the music make you feel ,FRUSTRATED,30MonoWAV/30MonoF4.wav,1,2,2,4,,,,,1,12,28,3,0,10,10,3,,,,,,,,,1,1.1195506440126337,,,103,001,2019_Sep_04_1112,MusicAffectPsychophysiology2019,3.0.5,59.938545009363544,
To what extent did the music make you feel ,EXCITED,30MonoWAV/30MonoF4.wav,1,2,2,4,,,,,1,12,28,3,0,11,11,7,,,,,,,,,2,1.3693328009685501,,,103,001,2019_Sep_04_1112,MusicAffectPsychophysiology2019,3.0.5,59.938545009363544,
,,30MonoWAV/30MonoF4.wav,1,2,2,4,,,,,1,12,28,3,,,,,,,,,,,,,,,,,103,001,2019_Sep_04_1112,MusicAffectPsychophysiology2019,3.0.5,59.938545009363544,
To what extent did the music make you feel ,HAPPY,30MonoWAV/30MonoH4.wav,2,2,1,8,,,,,1,13,29,7,0,0,0,6,,,5,2.119585263018962,5,1.1500101900310256,5,0.569902753981296,5,2.211973591009155,,,103,001,2019_Sep_04_1112,MusicAffectPsychophysiology2019,3.0.5,59.938545009363544,
To what extent did the music make you feel ,ACTIVE,30MonoWAV/30MonoH4.wav,2,2,1,8,,,,,1,13,29,7,0,1,1,9,,,,,,,,,4,1.8167235539876856,,,103,001,2019_Sep_04_1112,MusicAffectPsychophysiology2019,3.0.5,59.938545009363544,
To what extent did the music make you feel ,GUILTY,30MonoWAV/30MonoH4.wav,2,2,1,8,,,,,1,13,29,7,0,2,2,5,,,,,,,,,1,1.118736620992422,,,103,001,2019_Sep_04_1112,MusicAffectPsychophysiology2019,3.0.5,59.938545009363544,
To what extent did the music make you feel ,SAD,30MonoWAV/30MonoH4.wav,2,2,1,8,,,,,1,13,29,7,0,3,3,0,,,,,,,,,1,0.8030695850029588,,,103,001,2019_Sep_04_1112,MusicAffectPsychophysiology2019,3.0.5,59.938545009363544,
To what extent did the music make you feel ,EXCITED,30MonoWAV/30MonoH4.wav,2,2,1,8,,,,,1,13,29,7,0,4,4,7,,,,,,,,,5,1.268496684031561,,,103,001,2019_Sep_04_1112,MusicAffectPsychophysiology2019,3.0.5,59.938545009363544,
To what extent did the music make you feel ,ANGRY,30MonoWAV/30MonoH4.wav,2,2,1,8,,,,,1,13,29,7,0,5,5,2,,,,,,,,,1,1.2017652270151302,,,103,001,2019_Sep_04_1112,MusicAffectPsychophysiology2019,3.0.5,59.938545009363544,
To what extent did the music make you feel ,TENDER,30MonoWAV/30MonoH4.wav,2,2,1,8,,,,,1,13,29,7,0,6,6,10,,,,,,,,,1,0.8353104619891383,,,103,001,2019_Sep_04_1112,MusicAffectPsychophysiology2019,3.0.5,59.938545009363544,
To what extent did the music make you feel ,ALERT,30MonoWAV/30MonoH4.wav,2,2,1,8,,,,,1,13,29,7,0,7,7,8,,,,,,,,,2,1.3548375300015323,,,103,001,2019_Sep_04_1112,MusicAffectPsychophysiology2019,3.0.5,59.938545009363544,
To what extent did the music make you feel ,FRUSTRATED,30MonoWAV/30MonoH4.wav,2,2,1,8,,,,,1,13,29,7,0,8,8,3,,,,,,,,,1,4.061910101037938,,,103,001,2019_Sep_04_1112,MusicAffectPsychophysiology2019,3.0.5,59.938545009363544,
To what extent did the music make you feel ,SCARED,30MonoWAV/30MonoH4.wav,2,2,1,8,,,,,1,13,29,7,0,9,9,11,,,,,,,,,1,0.8334212230402045,,,103,001,2019_Sep_04_1112,MusicAffectPsychophysiology2019,3.0.5,59.938545009363544,
To what extent did the music make you feel ,ASHAMED,30MonoWAV/30MonoH4.wav,2,2,1,8,,,,,1,13,29,7,0,10,10,4,,,,,,,,,1,1.1700143180205487,,,103,001,2019_Sep_04_1112,MusicAffectPsychophysiology2019,3.0.5,59.938545009363544,
To what extent did the music make you feel ,ANXIOUS ,30MonoWAV/30MonoH4.wav,2,2,1,8,,,,,1,13,29,7,0,11,11,1,,,,,,,,,1,0.7356968179810792,,,103,001,2019_Sep_04_1112,MusicAffectPsychophysiology2019,3.0.5,59.938545009363544,
,,30MonoWAV/30MonoH4.wav,2,2,1,8,,,,,1,13,29,7,,,,,,,,,,,,,,,,,103,001,2019_Sep_04_1112,MusicAffectPsychophysiology2019,3.0.5,59.938545009363544,
To what extent did the music make you feel ,FRUSTRATED,30MonoWAV/30MonoF2.wav,1,2,2,2,,,,,1,14,30,1,0,0,0,3,,,2,9.068944983009715,1,1.5362449319800362,1,0.8363003829726949,1,3.3903044289909303,,,103,001,2019_Sep_04_1112,MusicAffectPsychophysiology2019,3.0.5,59.938545009363544,
To what extent did the music make you feel ,EXCITED,30MonoWAV/30MonoF2.wav,1,2,2,2,,,,,1,14,30,1,0,1,1,7,,,,,,,,,1,0.9514791649999097,,,103,001,2019_Sep_04_1112,MusicAffectPsychophysiology2019,3.0.5,59.938545009363544,
To what extent did the music make you feel ,GUILTY,30MonoWAV/30MonoF2.wav,1,2,2,2,,,,,1,14,30,1,0,2,2,5,,,,,,,,,2,1.2016702629625797,,,103,001,2019_Sep_04_1112,MusicAffectPsychophysiology2019,3.0.5,59.938545009363544,
To what extent did the music make you feel ,ANXIOUS ,30MonoWAV/30MonoF2.wav,1,2,2,2,,,,,1,14,30,1,0,3,3,1,,,,,,,,,4,1.7688357830047607,,,103,001,2019_Sep_04_1112,MusicAffectPsychophysiology2019,3.0.5,59.938545009363544,
To what extent did the music make you feel ,SCARED,30MonoWAV/30MonoF2.wav,1,2,2,2,,,,,1,14,30,1,0,4,4,11,,,,,,,,,4,1.5196548420353793,,,103,001,2019_Sep_04_1112,MusicAffectPsychophysiology2019,3.0.5,59.938545009363544,
To what extent did the music make you feel ,TENDER,30MonoWAV/30MonoF2.wav,1,2,2,2,,,,,1,14,30,1,0,5,5,10,,,,,,,,,1,1.3525346349924803,,,103,001,2019_Sep_04_1112,MusicAffectPsychophysiology2019,3.0.5,59.938545009363544,
To what extent did the music make you feel ,SAD,30MonoWAV/30MonoF2.wav,1,2,2,2,,,,,1,14,30,1,0,6,6,0,,,,,,,,,1,1.3195772600010969,,,103,001,2019_Sep_04_1112,MusicAffectPsychophysiology2019,3.0.5,59.938545009363544,
To what extent did the music make you feel ,ANGRY,30MonoWAV/30MonoF2.wav,1,2,2,2,,,,,1,14,30,1,0,7,7,2,,,,,,,,,1,1.9021499670343474,,,103,001,2019_Sep_04_1112,MusicAffectPsychophysiology2019,3.0.5,59.938545009363544,
To what extent did the music make you feel ,ACTIVE,30MonoWAV/30MonoF2.wav,1,2,2,2,,,,,1,14,30,1,0,8,8,9,,,,,,,,,1,0.8694103950401768,,,103,001,2019_Sep_04_1112,MusicAffectPsychophysiology2019,3.0.5,59.938545009363544,
To what extent did the music make you feel ,ALERT,30MonoWAV/30MonoF2.wav,1,2,2,2,,,,,1,14,30,1,0,9,9,8,,,,,,,,,4,1.6352047079708427,,,103,001,2019_Sep_04_1112,MusicAffectPsychophysiology2019,3.0.5,59.938545009363544,
To what extent did the music make you feel ,ASHAMED,30MonoWAV/30MonoF2.wav,1,2,2,2,,,,,1,14,30,1,0,10,10,4,,,,,,,,,1,2.5345794280292466,,,103,001,2019_Sep_04_1112,MusicAffectPsychophysiology2019,3.0.5,59.938545009363544,
To what extent did the music make you feel ,HAPPY,30MonoWAV/30MonoF2.wav,1,2,2,2,,,,,1,14,30,1,0,11,11,6,,,,,,,,,1,0.7678778939880431,,,103,001,2019_Sep_04_1112,MusicAffectPsychophysiology2019,3.0.5,59.938545009363544,
,,30MonoWAV/30MonoF2.wav,1,2,2,2,,,,,1,14,30,1,,,,,,,,,,,,,,,,,103,001,2019_Sep_04_1112,MusicAffectPsychophysiology2019,3.0.5,59.938545009363544,
To what extent did the music make you feel ,FRUSTRATED,30MonoWAV/30MonoS1.wav,1,1,3,9,,,,,1,15,31,8,0,0,0,3,,,1,1.6862421020050533,1,1.205518161994405,1,1.7182600880041718,5,2.6864908240386285,,,103,001,2019_Sep_04_1112,MusicAffectPsychophysiology2019,3.0.5,59.938545009363544,
To what extent did the music make you feel ,TENDER,30MonoWAV/30MonoS1.wav,1,1,3,9,,,,,1,15,31,8,0,1,1,10,,,,,,,,,2,2.936064350011293,,,103,001,2019_Sep_04_1112,MusicAffectPsychophysiology2019,3.0.5,59.938545009363544,
To what extent did the music make you feel ,EXCITED,30MonoWAV/30MonoS1.wav,1,1,3,9,,,,,1,15,31,8,0,2,2,7,,,,,,,,,1,0.7520614610402845,,,103,001,2019_Sep_04_1112,MusicAffectPsychophysiology2019,3.0.5,59.938545009363544,
To what extent did the music make you feel ,SAD,30MonoWAV/30MonoS1.wav,1,1,3,9,,,,,1,15,31,8,0,3,3,0,,,,,,,,,3,1.4532999959774315,,,103,001,2019_Sep_04_1112,MusicAffectPsychophysiology2019,3.0.5,59.938545009363544,
To what extent did the music make you feel ,HAPPY,30MonoWAV/30MonoS1.wav,1,1,3,9,,,,,1,15,31,8,0,4,4,6,,,,,,,,,1,1.3361698610242456,,,103,001,2019_Sep_04_1112,MusicAffectPsychophysiology2019,3.0.5,59.938545009363544,
To what extent did the music make you feel ,GUILTY,30MonoWAV/30MonoS1.wav,1,1,3,9,,,,,1,15,31,8,0,5,5,5,,,,,,,,,2,3.3845557320164517,,,103,001,2019_Sep_04_1112,MusicAffectPsychophysiology2019,3.0.5,59.938545009363544,
To what extent did the music make you feel ,ASHAMED,30MonoWAV/30MonoS1.wav,1,1,3,9,,,,,1,15,31,8,0,6,6,4,,,,,,,,,2,1.3863200590130873,,,103,001,2019_Sep_04_1112,MusicAffectPsychophysiology2019,3.0.5,59.938545009363544,
To what extent did the music make you feel ,SCARED,30MonoWAV/30MonoS1.wav,1,1,3,9,,,,,1,15,31,8,0,7,7,11,,,,,,,,,1,1.2480836439644918,,,103,001,2019_Sep_04_1112,MusicAffectPsychophysiology2019,3.0.5,59.938545009363544,
To what extent did the music make you feel ,ALERT,30MonoWAV/30MonoS1.wav,1,1,3,9,,,,,1,15,31,8,0,8,8,8,,,,,,,,,1,2.1362903810222633,,,103,001,2019_Sep_04_1112,MusicAffectPsychophysiology2019,3.0.5,59.938545009363544,
To what extent did the music make you feel ,ACTIVE,30MonoWAV/30MonoS1.wav,1,1,3,9,,,,,1,15,31,8,0,9,9,9,,,,,,,,,1,0.7855812759953551,,,103,001,2019_Sep_04_1112,MusicAffectPsychophysiology2019,3.0.5,59.938545009363544,
To what extent did the music make you feel ,ANXIOUS ,30MonoWAV/30MonoS1.wav,1,1,3,9,,,,,1,15,31,8,0,10,10,1,,,,,,,,,3,1.2187581539619714,,,103,001,2019_Sep_04_1112,MusicAffectPsychophysiology2019,3.0.5,59.938545009363544,
To what extent did the music make you feel ,ANGRY,30MonoWAV/30MonoS1.wav,1,1,3,9,,,,,1,15,31,8,0,11,11,2,,,,,,,,,1,3.9162898780195974,,,103,001,2019_Sep_04_1112,MusicAffectPsychophysiology2019,3.0.5,59.938545009363544,
,,30MonoWAV/30MonoS1.wav,1,1,3,9,,,,,1,15,31,8,,,,,,,,,,,,,,,,,103,001,2019_Sep_04_1112,MusicAffectPsychophysiology2019,3.0.5,59.938545009363544,
,,,,,,,,,,,,,,,,,,,,,,,,,,,,,space,20.0247894449858,103,001,2019_Sep_04_1112,MusicAffectPsychophysiology2019,3.0.5,59.938545009363544,
