Instruction,Word,song,valence,arousal,affectcat,songmark,pracwords.thisRepN,pracwords.thisTrialN,pracwords.thisN,pracwords.thisIndex,songtrials.thisRepN,songtrials.thisTrialN,songtrials.thisN,songtrials.thisIndex,words.thisRepN,words.thisTrialN,words.thisN,words.thisIndex,begin.keys,begin.rt,arousalkey.keys,arousalkey.rt,valencekey.keys,valencekey.rt,likekey.keys,likekey.rt,WordResponse.keys,WordResponse.rt,participant,session,date,expName,psychopyVersion,frameRate,
,,,,,,,,,,,,,,,,,,,h,9.704279109020717,,,,,,,,,104,001,2019_Sep_05_0910,MusicAffectPsychophysiology2019,3.0.5,60.01793359292911,
,,,,,,,,,,,,,,,,,,,,,2,5.487553576997016,,,,,,,104,001,2019_Sep_05_0910,MusicAffectPsychophysiology2019,3.0.5,60.01793359292911,
,,,,,,,,,,,,,,,,,,,,,,,2,5.669210530992132,,,,,104,001,2019_Sep_05_0910,MusicAffectPsychophysiology2019,3.0.5,60.01793359292911,
,,,,,,,,,,,,,,,,,,,,,,,,,1,2.985112130991183,,,104,001,2019_Sep_05_0910,MusicAffectPsychophysiology2019,3.0.5,60.01793359292911,
To what extent did the music make you feel ,HAPPY,,,,,,0,0,0,6,,,,,,,,,,,,,,,,,3,3.4761223130044527,104,001,2019_Sep_05_0910,MusicAffectPsychophysiology2019,3.0.5,60.01793359292911,
To what extent did the music make you feel ,SAD,,,,,,0,1,1,0,,,,,,,,,,,,,,,,,1,2.6198336820234545,104,001,2019_Sep_05_0910,MusicAffectPsychophysiology2019,3.0.5,60.01793359292911,
To what extent did the music make you feel ,ANGRY,,,,,,0,2,2,2,,,,,,,,,,,,,,,,,1,1.6748502050177194,104,001,2019_Sep_05_0910,MusicAffectPsychophysiology2019,3.0.5,60.01793359292911,
To what extent did the music make you feel ,ACTIVE,,,,,,0,3,3,9,,,,,,,,,,,,,,,,,1,0.9529514010064304,104,001,2019_Sep_05_0910,MusicAffectPsychophysiology2019,3.0.5,60.01793359292911,
To what extent did the music make you feel ,EXCITED,,,,,,0,4,4,7,,,,,,,,,,,,,,,,,1,1.1029099629959092,104,001,2019_Sep_05_0910,MusicAffectPsychophysiology2019,3.0.5,60.01793359292911,
To what extent did the music make you feel ,ASHAMED,,,,,,0,5,5,4,,,,,,,,,,,,,,,,,1,0.7695011579780839,104,001,2019_Sep_05_0910,MusicAffectPsychophysiology2019,3.0.5,60.01793359292911,
To what extent did the music make you feel ,FRUSTRATED,,,,,,0,6,6,3,,,,,,,,,,,,,,,,,3,3.375260111002717,104,001,2019_Sep_05_0910,MusicAffectPsychophysiology2019,3.0.5,60.01793359292911,
To what extent did the music make you feel ,TENDER,,,,,,0,7,7,10,,,,,,,,,,,,,,,,,2,3.5189290450070985,104,001,2019_Sep_05_0910,MusicAffectPsychophysiology2019,3.0.5,60.01793359292911,
To what extent did the music make you feel ,ALERT,,,,,,0,8,8,8,,,,,,,,,,,,,,,,,2,1.2557121359859593,104,001,2019_Sep_05_0910,MusicAffectPsychophysiology2019,3.0.5,60.01793359292911,
To what extent did the music make you feel ,SCARED,,,,,,0,9,9,11,,,,,,,,,,,,,,,,,1,1.074209217040334,104,001,2019_Sep_05_0910,MusicAffectPsychophysiology2019,3.0.5,60.01793359292911,
To what extent did the music make you feel ,ANXIOUS ,,,,,,0,10,10,1,,,,,,,,,,,,,,,,,1,1.253143911017105,104,001,2019_Sep_05_0910,MusicAffectPsychophysiology2019,3.0.5,60.01793359292911,
To what extent did the music make you feel ,GUILTY,,,,,,0,11,11,5,,,,,,,,,,,,,,,,,1,1.0502184280194342,104,001,2019_Sep_05_0910,MusicAffectPsychophysiology2019,3.0.5,60.01793359292911,
To what extent did the music make you feel ,EXCITED,30MonoWAV/30MonoF1.wav,1,2,2,1,,,,,0,0,0,0,0,0,0,7,,,3,5.085631772002671,1,3.253490764996968,1,1.5503279360127635,1,12.435405360010918,104,001,2019_Sep_05_0910,MusicAffectPsychophysiology2019,3.0.5,60.01793359292911,
To what extent did the music make you feel ,GUILTY,30MonoWAV/30MonoF1.wav,1,2,2,1,,,,,0,0,0,0,0,1,1,5,,,,,,,,,1,0.9695908119902015,104,001,2019_Sep_05_0910,MusicAffectPsychophysiology2019,3.0.5,60.01793359292911,
To what extent did the music make you feel ,TENDER,30MonoWAV/30MonoF1.wav,1,2,2,1,,,,,0,0,0,0,0,2,2,10,,,,,,,,,1,0.8358800589921884,104,001,2019_Sep_05_0910,MusicAffectPsychophysiology2019,3.0.5,60.01793359292911,
To what extent did the music make you feel ,FRUSTRATED,30MonoWAV/30MonoF1.wav,1,2,2,1,,,,,0,0,0,0,0,3,3,3,,,,,,,,,1,0.769567214010749,104,001,2019_Sep_05_0910,MusicAffectPsychophysiology2019,3.0.5,60.01793359292911,
To what extent did the music make you feel ,ASHAMED,30MonoWAV/30MonoF1.wav,1,2,2,1,,,,,0,0,0,0,0,4,4,4,,,,,,,,,1,0.8528753699501976,104,001,2019_Sep_05_0910,MusicAffectPsychophysiology2019,3.0.5,60.01793359292911,
To what extent did the music make you feel ,ALERT,30MonoWAV/30MonoF1.wav,1,2,2,1,,,,,0,0,0,0,0,5,5,8,,,,,,,,,4,3.201804656011518,104,001,2019_Sep_05_0910,MusicAffectPsychophysiology2019,3.0.5,60.01793359292911,
To what extent did the music make you feel ,ACTIVE,30MonoWAV/30MonoF1.wav,1,2,2,1,,,,,0,0,0,0,0,6,6,9,,,,,,,,,2,1.985136593983043,104,001,2019_Sep_05_0910,MusicAffectPsychophysiology2019,3.0.5,60.01793359292911,
To what extent did the music make you feel ,SCARED,30MonoWAV/30MonoF1.wav,1,2,2,1,,,,,0,0,0,0,0,7,7,11,,,,,,,,,1,0.6875392940128222,104,001,2019_Sep_05_0910,MusicAffectPsychophysiology2019,3.0.5,60.01793359292911,
To what extent did the music make you feel ,SAD,30MonoWAV/30MonoF1.wav,1,2,2,1,,,,,0,0,0,0,0,8,8,0,,,,,,,,,1,0.8029022889677435,104,001,2019_Sep_05_0910,MusicAffectPsychophysiology2019,3.0.5,60.01793359292911,
To what extent did the music make you feel ,HAPPY,30MonoWAV/30MonoF1.wav,1,2,2,1,,,,,0,0,0,0,0,9,9,6,,,,,,,,,1,0.8201562759932131,104,001,2019_Sep_05_0910,MusicAffectPsychophysiology2019,3.0.5,60.01793359292911,
To what extent did the music make you feel ,ANXIOUS ,30MonoWAV/30MonoF1.wav,1,2,2,1,,,,,0,0,0,0,0,10,10,1,,,,,,,,,1,1.6857115289894864,104,001,2019_Sep_05_0910,MusicAffectPsychophysiology2019,3.0.5,60.01793359292911,
To what extent did the music make you feel ,ANGRY,30MonoWAV/30MonoF1.wav,1,2,2,1,,,,,0,0,0,0,0,11,11,2,,,,,,,,,1,1.3028120420058258,104,001,2019_Sep_05_0910,MusicAffectPsychophysiology2019,3.0.5,60.01793359292911,
,,30MonoWAV/30MonoF1.wav,1,2,2,1,,,,,0,0,0,0,,,,,,,,,,,,,,,104,001,2019_Sep_05_0910,MusicAffectPsychophysiology2019,3.0.5,60.01793359292911,
To what extent did the music make you feel ,SAD,30MonoWAV/30MonoT1.wav,2,1,4,13,,,,,0,1,1,12,0,0,0,0,,,2,5.1355613360065036,4,2.2165642149630003,4,1.536006179987453,1,3.061706973006949,104,001,2019_Sep_05_0910,MusicAffectPsychophysiology2019,3.0.5,60.01793359292911,
To what extent did the music make you feel ,EXCITED,30MonoWAV/30MonoT1.wav,2,1,4,13,,,,,0,1,1,12,0,1,1,7,,,,,,,,,1,0.7032019309699535,104,001,2019_Sep_05_0910,MusicAffectPsychophysiology2019,3.0.5,60.01793359292911,
To what extent did the music make you feel ,GUILTY,30MonoWAV/30MonoT1.wav,2,1,4,13,,,,,0,1,1,12,0,2,2,5,,,,,,,,,1,0.6530754729756154,104,001,2019_Sep_05_0910,MusicAffectPsychophysiology2019,3.0.5,60.01793359292911,
To what extent did the music make you feel ,ACTIVE,30MonoWAV/30MonoT1.wav,2,1,4,13,,,,,0,1,1,12,0,3,3,9,,,,,,,,,2,1.4001333829946816,104,001,2019_Sep_05_0910,MusicAffectPsychophysiology2019,3.0.5,60.01793359292911,
To what extent did the music make you feel ,ALERT,30MonoWAV/30MonoT1.wav,2,1,4,13,,,,,0,1,1,12,0,4,4,8,,,,,,,,,1,0.8007191779906861,104,001,2019_Sep_05_0910,MusicAffectPsychophysiology2019,3.0.5,60.01793359292911,
To what extent did the music make you feel ,HAPPY,30MonoWAV/30MonoT1.wav,2,1,4,13,,,,,0,1,1,12,0,5,5,6,,,,,,,,,4,1.7501943350071087,104,001,2019_Sep_05_0910,MusicAffectPsychophysiology2019,3.0.5,60.01793359292911,
To what extent did the music make you feel ,ANGRY,30MonoWAV/30MonoT1.wav,2,1,4,13,,,,,0,1,1,12,0,6,6,2,,,,,,,,,1,1.0685742549831048,104,001,2019_Sep_05_0910,MusicAffectPsychophysiology2019,3.0.5,60.01793359292911,
To what extent did the music make you feel ,FRUSTRATED,30MonoWAV/30MonoT1.wav,2,1,4,13,,,,,0,1,1,12,0,7,7,3,,,,,,,,,1,0.7853523700032383,104,001,2019_Sep_05_0910,MusicAffectPsychophysiology2019,3.0.5,60.01793359292911,
To what extent did the music make you feel ,ANXIOUS ,30MonoWAV/30MonoT1.wav,2,1,4,13,,,,,0,1,1,12,0,8,8,1,,,,,,,,,1,0.8043332670349628,104,001,2019_Sep_05_0910,MusicAffectPsychophysiology2019,3.0.5,60.01793359292911,
To what extent did the music make you feel ,SCARED,30MonoWAV/30MonoT1.wav,2,1,4,13,,,,,0,1,1,12,0,9,9,11,,,,,,,,,1,0.7081329089705832,104,001,2019_Sep_05_0910,MusicAffectPsychophysiology2019,3.0.5,60.01793359292911,
To what extent did the music make you feel ,ASHAMED,30MonoWAV/30MonoT1.wav,2,1,4,13,,,,,0,1,1,12,0,10,10,4,,,,,,,,,1,0.6361987150157802,104,001,2019_Sep_05_0910,MusicAffectPsychophysiology2019,3.0.5,60.01793359292911,
To what extent did the music make you feel ,TENDER,30MonoWAV/30MonoT1.wav,2,1,4,13,,,,,0,1,1,12,0,11,11,10,,,,,,,,,3,1.5199687439599074,104,001,2019_Sep_05_0910,MusicAffectPsychophysiology2019,3.0.5,60.01793359292911,
,,30MonoWAV/30MonoT1.wav,2,1,4,13,,,,,0,1,1,12,,,,,,,,,,,,,,,104,001,2019_Sep_05_0910,MusicAffectPsychophysiology2019,3.0.5,60.01793359292911,
To what extent did the music make you feel ,ANXIOUS ,30MonoWAV/30MonoF2.wav,1,2,2,2,,,,,0,2,2,1,0,0,0,1,,,1,3.0854878329555504,1,2.035683685040567,1,1.167838126013521,4,3.104527162038721,104,001,2019_Sep_05_0910,MusicAffectPsychophysiology2019,3.0.5,60.01793359292911,
To what extent did the music make you feel ,TENDER,30MonoWAV/30MonoF2.wav,1,2,2,2,,,,,0,2,2,1,0,1,1,10,,,,,,,,,1,1.0861105090007186,104,001,2019_Sep_05_0910,MusicAffectPsychophysiology2019,3.0.5,60.01793359292911,
To what extent did the music make you feel ,ASHAMED,30MonoWAV/30MonoF2.wav,1,2,2,2,,,,,0,2,2,1,0,2,2,4,,,,,,,,,1,0.950164349982515,104,001,2019_Sep_05_0910,MusicAffectPsychophysiology2019,3.0.5,60.01793359292911,
To what extent did the music make you feel ,EXCITED,30MonoWAV/30MonoF2.wav,1,2,2,2,,,,,0,2,2,1,0,3,3,7,,,,,,,,,1,0.5683232310111634,104,001,2019_Sep_05_0910,MusicAffectPsychophysiology2019,3.0.5,60.01793359292911,
To what extent did the music make you feel ,ACTIVE,30MonoWAV/30MonoF2.wav,1,2,2,2,,,,,0,2,2,1,0,4,4,9,,,,,,,,,2,1.3692786720348522,104,001,2019_Sep_05_0910,MusicAffectPsychophysiology2019,3.0.5,60.01793359292911,
To what extent did the music make you feel ,SAD,30MonoWAV/30MonoF2.wav,1,2,2,2,,,,,0,2,2,1,0,5,5,0,,,,,,,,,1,0.8355696060461923,104,001,2019_Sep_05_0910,MusicAffectPsychophysiology2019,3.0.5,60.01793359292911,
To what extent did the music make you feel ,ANGRY,30MonoWAV/30MonoF2.wav,1,2,2,2,,,,,0,2,2,1,0,6,6,2,,,,,,,,,1,0.8192650199634954,104,001,2019_Sep_05_0910,MusicAffectPsychophysiology2019,3.0.5,60.01793359292911,
To what extent did the music make you feel ,ALERT,30MonoWAV/30MonoF2.wav,1,2,2,2,,,,,0,2,2,1,0,7,7,8,,,,,,,,,4,1.8680972069851123,104,001,2019_Sep_05_0910,MusicAffectPsychophysiology2019,3.0.5,60.01793359292911,
To what extent did the music make you feel ,HAPPY,30MonoWAV/30MonoF2.wav,1,2,2,2,,,,,0,2,2,1,0,8,8,6,,,,,,,,,1,1.721292941016145,104,001,2019_Sep_05_0910,MusicAffectPsychophysiology2019,3.0.5,60.01793359292911,
To what extent did the music make you feel ,SCARED,30MonoWAV/30MonoF2.wav,1,2,2,2,,,,,0,2,2,1,0,9,9,11,,,,,,,,,3,1.3709330260171555,104,001,2019_Sep_05_0910,MusicAffectPsychophysiology2019,3.0.5,60.01793359292911,
To what extent did the music make you feel ,GUILTY,30MonoWAV/30MonoF2.wav,1,2,2,2,,,,,0,2,2,1,0,10,10,5,,,,,,,,,1,0.7019664019462653,104,001,2019_Sep_05_0910,MusicAffectPsychophysiology2019,3.0.5,60.01793359292911,
To what extent did the music make you feel ,FRUSTRATED,30MonoWAV/30MonoF2.wav,1,2,2,2,,,,,0,2,2,1,0,11,11,3,,,,,,,,,1,0.7038675640360452,104,001,2019_Sep_05_0910,MusicAffectPsychophysiology2019,3.0.5,60.01793359292911,
,,30MonoWAV/30MonoF2.wav,1,2,2,2,,,,,0,2,2,1,,,,,,,,,,,,,,,104,001,2019_Sep_05_0910,MusicAffectPsychophysiology2019,3.0.5,60.01793359292911,
To what extent did the music make you feel ,EXCITED,30MonoWAV/30MonoT3.wav,2,1,4,15,,,,,0,3,3,14,0,0,0,7,,,1,4.087114561989438,2,1.903181945963297,3,2.3353941490058787,1,0.9015811299905181,104,001,2019_Sep_05_0910,MusicAffectPsychophysiology2019,3.0.5,60.01793359292911,
To what extent did the music make you feel ,HAPPY,30MonoWAV/30MonoT3.wav,2,1,4,15,,,,,0,3,3,14,0,1,1,6,,,,,,,,,2,1.536985729006119,104,001,2019_Sep_05_0910,MusicAffectPsychophysiology2019,3.0.5,60.01793359292911,
To what extent did the music make you feel ,GUILTY,30MonoWAV/30MonoT3.wav,2,1,4,15,,,,,0,3,3,14,0,2,2,5,,,,,,,,,1,0.6192771979840472,104,001,2019_Sep_05_0910,MusicAffectPsychophysiology2019,3.0.5,60.01793359292911,
To what extent did the music make you feel ,ANXIOUS ,30MonoWAV/30MonoT3.wav,2,1,4,15,,,,,0,3,3,14,0,3,3,1,,,,,,,,,1,0.7035027770325541,104,001,2019_Sep_05_0910,MusicAffectPsychophysiology2019,3.0.5,60.01793359292911,
To what extent did the music make you feel ,ALERT,30MonoWAV/30MonoT3.wav,2,1,4,15,,,,,0,3,3,14,0,4,4,8,,,,,,,,,1,0.6025328700197861,104,001,2019_Sep_05_0910,MusicAffectPsychophysiology2019,3.0.5,60.01793359292911,
To what extent did the music make you feel ,ANGRY,30MonoWAV/30MonoT3.wav,2,1,4,15,,,,,0,3,3,14,0,5,5,2,,,,,,,,,1,0.7368370789918117,104,001,2019_Sep_05_0910,MusicAffectPsychophysiology2019,3.0.5,60.01793359292911,
To what extent did the music make you feel ,SAD,30MonoWAV/30MonoT3.wav,2,1,4,15,,,,,0,3,3,14,0,6,6,0,,,,,,,,,2,2.185983229021076,104,001,2019_Sep_05_0910,MusicAffectPsychophysiology2019,3.0.5,60.01793359292911,
To what extent did the music make you feel ,FRUSTRATED,30MonoWAV/30MonoT3.wav,2,1,4,15,,,,,0,3,3,14,0,7,7,3,,,,,,,,,1,0.614372740034014,104,001,2019_Sep_05_0910,MusicAffectPsychophysiology2019,3.0.5,60.01793359292911,
To what extent did the music make you feel ,SCARED,30MonoWAV/30MonoT3.wav,2,1,4,15,,,,,0,3,3,14,0,8,8,11,,,,,,,,,1,0.8709620609879494,104,001,2019_Sep_05_0910,MusicAffectPsychophysiology2019,3.0.5,60.01793359292911,
To what extent did the music make you feel ,TENDER,30MonoWAV/30MonoT3.wav,2,1,4,15,,,,,0,3,3,14,0,9,9,10,,,,,,,,,1,0.8018788250046782,104,001,2019_Sep_05_0910,MusicAffectPsychophysiology2019,3.0.5,60.01793359292911,
To what extent did the music make you feel ,ASHAMED,30MonoWAV/30MonoT3.wav,2,1,4,15,,,,,0,3,3,14,0,10,10,4,,,,,,,,,1,1.1865039409603924,104,001,2019_Sep_05_0910,MusicAffectPsychophysiology2019,3.0.5,60.01793359292911,
To what extent did the music make you feel ,ACTIVE,30MonoWAV/30MonoT3.wav,2,1,4,15,,,,,0,3,3,14,0,11,11,9,,,,,,,,,1,1.0704083800083026,104,001,2019_Sep_05_0910,MusicAffectPsychophysiology2019,3.0.5,60.01793359292911,
,,30MonoWAV/30MonoT3.wav,2,1,4,15,,,,,0,3,3,14,,,,,,,,,,,,,,,104,001,2019_Sep_05_0910,MusicAffectPsychophysiology2019,3.0.5,60.01793359292911,
To what extent did the music make you feel ,FRUSTRATED,30MonoWAV/30MonoT2.wav,2,1,4,14,,,,,0,4,4,13,0,0,0,3,,,3,3.5359585779951885,3,3.151746261981316,4,1.4688019250170328,1,2.4919240649905987,104,001,2019_Sep_05_0910,MusicAffectPsychophysiology2019,3.0.5,60.01793359292911,
To what extent did the music make you feel ,EXCITED,30MonoWAV/30MonoT2.wav,2,1,4,14,,,,,0,4,4,13,0,1,1,7,,,,,,,,,1,0.7539659250178374,104,001,2019_Sep_05_0910,MusicAffectPsychophysiology2019,3.0.5,60.01793359292911,
To what extent did the music make you feel ,SCARED,30MonoWAV/30MonoT2.wav,2,1,4,14,,,,,0,4,4,13,0,2,2,11,,,,,,,,,1,0.5527652350137942,104,001,2019_Sep_05_0910,MusicAffectPsychophysiology2019,3.0.5,60.01793359292911,
To what extent did the music make you feel ,SAD,30MonoWAV/30MonoT2.wav,2,1,4,14,,,,,0,4,4,13,0,3,3,0,,,,,,,,,2,1.7692695370060392,104,001,2019_Sep_05_0910,MusicAffectPsychophysiology2019,3.0.5,60.01793359292911,
To what extent did the music make you feel ,ANXIOUS ,30MonoWAV/30MonoT2.wav,2,1,4,14,,,,,0,4,4,13,0,4,4,1,,,,,,,,,1,0.7688152810442261,104,001,2019_Sep_05_0910,MusicAffectPsychophysiology2019,3.0.5,60.01793359292911,
To what extent did the music make you feel ,GUILTY,30MonoWAV/30MonoT2.wav,2,1,4,14,,,,,0,4,4,13,0,5,5,5,,,,,,,,,1,0.950073750980664,104,001,2019_Sep_05_0910,MusicAffectPsychophysiology2019,3.0.5,60.01793359292911,
To what extent did the music make you feel ,ANGRY,30MonoWAV/30MonoT2.wav,2,1,4,14,,,,,0,4,4,13,0,6,6,2,,,,,,,,,1,0.9846088729682378,104,001,2019_Sep_05_0910,MusicAffectPsychophysiology2019,3.0.5,60.01793359292911,
To what extent did the music make you feel ,ACTIVE,30MonoWAV/30MonoT2.wav,2,1,4,14,,,,,0,4,4,13,0,7,7,9,,,,,,,,,1,0.9202263159677386,104,001,2019_Sep_05_0910,MusicAffectPsychophysiology2019,3.0.5,60.01793359292911,
To what extent did the music make you feel ,TENDER,30MonoWAV/30MonoT2.wav,2,1,4,14,,,,,0,4,4,13,0,8,8,10,,,,,,,,,1,0.6374839420313947,104,001,2019_Sep_05_0910,MusicAffectPsychophysiology2019,3.0.5,60.01793359292911,
To what extent did the music make you feel ,HAPPY,30MonoWAV/30MonoT2.wav,2,1,4,14,,,,,0,4,4,13,0,9,9,6,,,,,,,,,4,2.0241683640051633,104,001,2019_Sep_05_0910,MusicAffectPsychophysiology2019,3.0.5,60.01793359292911,
To what extent did the music make you feel ,ALERT,30MonoWAV/30MonoT2.wav,2,1,4,14,,,,,0,4,4,13,0,10,10,8,,,,,,,,,1,1.2571086259558797,104,001,2019_Sep_05_0910,MusicAffectPsychophysiology2019,3.0.5,60.01793359292911,
To what extent did the music make you feel ,ASHAMED,30MonoWAV/30MonoT2.wav,2,1,4,14,,,,,0,4,4,13,0,11,11,4,,,,,,,,,1,0.6694359529647045,104,001,2019_Sep_05_0910,MusicAffectPsychophysiology2019,3.0.5,60.01793359292911,
,,30MonoWAV/30MonoT2.wav,2,1,4,14,,,,,0,4,4,13,,,,,,,,,,,,,,,104,001,2019_Sep_05_0910,MusicAffectPsychophysiology2019,3.0.5,60.01793359292911,
To what extent did the music make you feel ,ANXIOUS ,30MonoWAV/30MonoS1.wav,1,1,3,9,,,,,0,5,5,8,0,0,0,1,,,1,2.720776748028584,3,2.5192144259926863,4,1.7371357699739747,1,1.1848112199804746,104,001,2019_Sep_05_0910,MusicAffectPsychophysiology2019,3.0.5,60.01793359292911,
To what extent did the music make you feel ,SCARED,30MonoWAV/30MonoS1.wav,1,1,3,9,,,,,0,5,5,8,0,1,1,11,,,,,,,,,1,0.7528449950041249,104,001,2019_Sep_05_0910,MusicAffectPsychophysiology2019,3.0.5,60.01793359292911,
To what extent did the music make you feel ,GUILTY,30MonoWAV/30MonoS1.wav,1,1,3,9,,,,,0,5,5,8,0,2,2,5,,,,,,,,,1,0.5023635340039618,104,001,2019_Sep_05_0910,MusicAffectPsychophysiology2019,3.0.5,60.01793359292911,
To what extent did the music make you feel ,FRUSTRATED,30MonoWAV/30MonoS1.wav,1,1,3,9,,,,,0,5,5,8,0,3,3,3,,,,,,,,,1,0.5357726129586808,104,001,2019_Sep_05_0910,MusicAffectPsychophysiology2019,3.0.5,60.01793359292911,
To what extent did the music make you feel ,ANGRY,30MonoWAV/30MonoS1.wav,1,1,3,9,,,,,0,5,5,8,0,4,4,2,,,,,,,,,1,0.6527746769716032,104,001,2019_Sep_05_0910,MusicAffectPsychophysiology2019,3.0.5,60.01793359292911,
To what extent did the music make you feel ,ACTIVE,30MonoWAV/30MonoS1.wav,1,1,3,9,,,,,0,5,5,8,0,5,5,9,,,,,,,,,2,1.3688305800314993,104,001,2019_Sep_05_0910,MusicAffectPsychophysiology2019,3.0.5,60.01793359292911,
To what extent did the music make you feel ,ALERT,30MonoWAV/30MonoS1.wav,1,1,3,9,,,,,0,5,5,8,0,6,6,8,,,,,,,,,1,0.5671472219983116,104,001,2019_Sep_05_0910,MusicAffectPsychophysiology2019,3.0.5,60.01793359292911,
To what extent did the music make you feel ,SAD,30MonoWAV/30MonoS1.wav,1,1,3,9,,,,,0,5,5,8,0,7,7,0,,,,,,,,,1,2.4190141730359755,104,001,2019_Sep_05_0910,MusicAffectPsychophysiology2019,3.0.5,60.01793359292911,
To what extent did the music make you feel ,TENDER,30MonoWAV/30MonoS1.wav,1,1,3,9,,,,,0,5,5,8,0,8,8,10,,,,,,,,,4,1.3029920479748398,104,001,2019_Sep_05_0910,MusicAffectPsychophysiology2019,3.0.5,60.01793359292911,
To what extent did the music make you feel ,ASHAMED,30MonoWAV/30MonoS1.wav,1,1,3,9,,,,,0,5,5,8,0,9,9,4,,,,,,,,,1,0.9352274779812433,104,001,2019_Sep_05_0910,MusicAffectPsychophysiology2019,3.0.5,60.01793359292911,
To what extent did the music make you feel ,HAPPY,30MonoWAV/30MonoS1.wav,1,1,3,9,,,,,0,5,5,8,0,10,10,6,,,,,,,,,4,1.0871804490452632,104,001,2019_Sep_05_0910,MusicAffectPsychophysiology2019,3.0.5,60.01793359292911,
To what extent did the music make you feel ,EXCITED,30MonoWAV/30MonoS1.wav,1,1,3,9,,,,,0,5,5,8,0,11,11,7,,,,,,,,,1,1.4517302900203504,104,001,2019_Sep_05_0910,MusicAffectPsychophysiology2019,3.0.5,60.01793359292911,
,,30MonoWAV/30MonoS1.wav,1,1,3,9,,,,,0,5,5,8,,,,,,,,,,,,,,,104,001,2019_Sep_05_0910,MusicAffectPsychophysiology2019,3.0.5,60.01793359292911,
To what extent did the music make you feel ,TENDER,30MonoWAV/30MonoS4.wav,1,1,3,12,,,,,0,6,6,11,0,0,0,10,,,3,5.535235862014815,4,1.735372147988528,4,1.3698688460281119,4,1.4953226540237665,104,001,2019_Sep_05_0910,MusicAffectPsychophysiology2019,3.0.5,60.01793359292911,
To what extent did the music make you feel ,ASHAMED,30MonoWAV/30MonoS4.wav,1,1,3,12,,,,,0,6,6,11,0,1,1,4,,,,,,,,,1,0.6356380570214242,104,001,2019_Sep_05_0910,MusicAffectPsychophysiology2019,3.0.5,60.01793359292911,
To what extent did the music make you feel ,SAD,30MonoWAV/30MonoS4.wav,1,1,3,12,,,,,0,6,6,11,0,2,2,0,,,,,,,,,1,0.8531724769854918,104,001,2019_Sep_05_0910,MusicAffectPsychophysiology2019,3.0.5,60.01793359292911,
To what extent did the music make you feel ,EXCITED,30MonoWAV/30MonoS4.wav,1,1,3,12,,,,,0,6,6,11,0,3,3,7,,,,,,,,,1,1.2347373759839684,104,001,2019_Sep_05_0910,MusicAffectPsychophysiology2019,3.0.5,60.01793359292911,
To what extent did the music make you feel ,ALERT,30MonoWAV/30MonoS4.wav,1,1,3,12,,,,,0,6,6,11,0,4,4,8,,,,,,,,,1,1.5341811990365386,104,001,2019_Sep_05_0910,MusicAffectPsychophysiology2019,3.0.5,60.01793359292911,
To what extent did the music make you feel ,SCARED,30MonoWAV/30MonoS4.wav,1,1,3,12,,,,,0,6,6,11,0,5,5,11,,,,,,,,,1,2.367267597990576,104,001,2019_Sep_05_0910,MusicAffectPsychophysiology2019,3.0.5,60.01793359292911,
To what extent did the music make you feel ,ACTIVE,30MonoWAV/30MonoS4.wav,1,1,3,12,,,,,0,6,6,11,0,6,6,9,,,,,,,,,2,1.2691188940079883,104,001,2019_Sep_05_0910,MusicAffectPsychophysiology2019,3.0.5,60.01793359292911,
To what extent did the music make you feel ,ANXIOUS ,30MonoWAV/30MonoS4.wav,1,1,3,12,,,,,0,6,6,11,0,7,7,1,,,,,,,,,1,1.4839073959738016,104,001,2019_Sep_05_0910,MusicAffectPsychophysiology2019,3.0.5,60.01793359292911,
To what extent did the music make you feel ,ANGRY,30MonoWAV/30MonoS4.wav,1,1,3,12,,,,,0,6,6,11,0,8,8,2,,,,,,,,,1,0.7693672919995151,104,001,2019_Sep_05_0910,MusicAffectPsychophysiology2019,3.0.5,60.01793359292911,
To what extent did the music make you feel ,HAPPY,30MonoWAV/30MonoS4.wav,1,1,3,12,,,,,0,6,6,11,0,9,9,6,,,,,,,,,4,0.8176754989544861,104,001,2019_Sep_05_0910,MusicAffectPsychophysiology2019,3.0.5,60.01793359292911,
To what extent did the music make you feel ,FRUSTRATED,30MonoWAV/30MonoS4.wav,1,1,3,12,,,,,0,6,6,11,0,10,10,3,,,,,,,,,1,0.5834493840229698,104,001,2019_Sep_05_0910,MusicAffectPsychophysiology2019,3.0.5,60.01793359292911,
To what extent did the music make you feel ,GUILTY,30MonoWAV/30MonoS4.wav,1,1,3,12,,,,,0,6,6,11,0,11,11,5,,,,,,,,,1,0.9356712179724127,104,001,2019_Sep_05_0910,MusicAffectPsychophysiology2019,3.0.5,60.01793359292911,
,,30MonoWAV/30MonoS4.wav,1,1,3,12,,,,,0,6,6,11,,,,,,,,,,,,,,,104,001,2019_Sep_05_0910,MusicAffectPsychophysiology2019,3.0.5,60.01793359292911,
To what extent did the music make you feel ,GUILTY,30MonoWAV/30MonoH1.wav,2,2,1,5,,,,,0,7,7,4,0,0,0,5,,,4,2.4712355859810486,4,1.636253242031671,5,1.3016575920046307,1,1.1535836860421114,104,001,2019_Sep_05_0910,MusicAffectPsychophysiology2019,3.0.5,60.01793359292911,
To what extent did the music make you feel ,ASHAMED,30MonoWAV/30MonoH1.wav,2,2,1,5,,,,,0,7,7,4,0,1,1,4,,,,,,,,,1,0.6867212990182452,104,001,2019_Sep_05_0910,MusicAffectPsychophysiology2019,3.0.5,60.01793359292911,
To what extent did the music make you feel ,ANXIOUS ,30MonoWAV/30MonoH1.wav,2,2,1,5,,,,,0,7,7,4,0,2,2,1,,,,,,,,,1,1.1691966470098123,104,001,2019_Sep_05_0910,MusicAffectPsychophysiology2019,3.0.5,60.01793359292911,
To what extent did the music make you feel ,FRUSTRATED,30MonoWAV/30MonoH1.wav,2,2,1,5,,,,,0,7,7,4,0,3,3,3,,,,,,,,,1,0.6706809200113639,104,001,2019_Sep_05_0910,MusicAffectPsychophysiology2019,3.0.5,60.01793359292911,
To what extent did the music make you feel ,EXCITED,30MonoWAV/30MonoH1.wav,2,2,1,5,,,,,0,7,7,4,0,4,4,7,,,,,,,,,4,1.0683221420040354,104,001,2019_Sep_05_0910,MusicAffectPsychophysiology2019,3.0.5,60.01793359292911,
To what extent did the music make you feel ,SAD,30MonoWAV/30MonoH1.wav,2,2,1,5,,,,,0,7,7,4,0,5,5,0,,,,,,,,,1,1.3204649100080132,104,001,2019_Sep_05_0910,MusicAffectPsychophysiology2019,3.0.5,60.01793359292911,
To what extent did the music make you feel ,HAPPY,30MonoWAV/30MonoH1.wav,2,2,1,5,,,,,0,7,7,4,0,6,6,6,,,,,,,,,5,1.1856605989742093,104,001,2019_Sep_05_0910,MusicAffectPsychophysiology2019,3.0.5,60.01793359292911,
To what extent did the music make you feel ,TENDER,30MonoWAV/30MonoH1.wav,2,2,1,5,,,,,0,7,7,4,0,7,7,10,,,,,,,,,3,2.701150207023602,104,001,2019_Sep_05_0910,MusicAffectPsychophysiology2019,3.0.5,60.01793359292911,
To what extent did the music make you feel ,SCARED,30MonoWAV/30MonoH1.wav,2,2,1,5,,,,,0,7,7,4,0,8,8,11,,,,,,,,,2,0.8550688939867541,104,001,2019_Sep_05_0910,MusicAffectPsychophysiology2019,3.0.5,60.01793359292911,
To what extent did the music make you feel ,ALERT,30MonoWAV/30MonoH1.wav,2,2,1,5,,,,,0,7,7,4,0,9,9,8,,,,,,,,,1,1.1355984599795192,104,001,2019_Sep_05_0910,MusicAffectPsychophysiology2019,3.0.5,60.01793359292911,
To what extent did the music make you feel ,ANGRY,30MonoWAV/30MonoH1.wav,2,2,1,5,,,,,0,7,7,4,0,10,10,2,,,,,,,,,1,0.6683990249875933,104,001,2019_Sep_05_0910,MusicAffectPsychophysiology2019,3.0.5,60.01793359292911,
To what extent did the music make you feel ,ACTIVE,30MonoWAV/30MonoH1.wav,2,2,1,5,,,,,0,7,7,4,0,11,11,9,,,,,,,,,4,2.1340334260021336,104,001,2019_Sep_05_0910,MusicAffectPsychophysiology2019,3.0.5,60.01793359292911,
,,30MonoWAV/30MonoH1.wav,2,2,1,5,,,,,0,7,7,4,,,,,,,,,,,,,,,104,001,2019_Sep_05_0910,MusicAffectPsychophysiology2019,3.0.5,60.01793359292911,
To what extent did the music make you feel ,ANGRY,30MonoWAV/30MonoH3.wav,2,2,1,7,,,,,0,8,8,6,0,0,0,2,,,4,3.104490873985924,4,1.4026238129590638,4,1.4526118260109797,1,0.9475891340407543,104,001,2019_Sep_05_0910,MusicAffectPsychophysiology2019,3.0.5,60.01793359292911,
To what extent did the music make you feel ,FRUSTRATED,30MonoWAV/30MonoH3.wav,2,2,1,7,,,,,0,8,8,6,0,1,1,3,,,,,,,,,1,0.5808604930061847,104,001,2019_Sep_05_0910,MusicAffectPsychophysiology2019,3.0.5,60.01793359292911,
To what extent did the music make you feel ,ANXIOUS ,30MonoWAV/30MonoH3.wav,2,2,1,7,,,,,0,8,8,6,0,2,2,1,,,,,,,,,1,0.819117475009989,104,001,2019_Sep_05_0910,MusicAffectPsychophysiology2019,3.0.5,60.01793359292911,
To what extent did the music make you feel ,HAPPY,30MonoWAV/30MonoH3.wav,2,2,1,7,,,,,0,8,8,6,0,3,3,6,,,,,,,,,4,0.8026342859957367,104,001,2019_Sep_05_0910,MusicAffectPsychophysiology2019,3.0.5,60.01793359292911,
To what extent did the music make you feel ,SAD,30MonoWAV/30MonoH3.wav,2,2,1,7,,,,,0,8,8,6,0,4,4,0,,,,,,,,,1,0.7204387889942154,104,001,2019_Sep_05_0910,MusicAffectPsychophysiology2019,3.0.5,60.01793359292911,
To what extent did the music make you feel ,ALERT,30MonoWAV/30MonoH3.wav,2,2,1,7,,,,,0,8,8,6,0,5,5,8,,,,,,,,,1,0.4638532410026528,104,001,2019_Sep_05_0910,MusicAffectPsychophysiology2019,3.0.5,60.01793359292911,
To what extent did the music make you feel ,EXCITED,30MonoWAV/30MonoH3.wav,2,2,1,7,,,,,0,8,8,6,0,6,6,7,,,,,,,,,4,0.9865978820016608,104,001,2019_Sep_05_0910,MusicAffectPsychophysiology2019,3.0.5,60.01793359292911,
To what extent did the music make you feel ,TENDER,30MonoWAV/30MonoH3.wav,2,2,1,7,,,,,0,8,8,6,0,7,7,10,,,,,,,,,2,1.5043018819997087,104,001,2019_Sep_05_0910,MusicAffectPsychophysiology2019,3.0.5,60.01793359292911,
To what extent did the music make you feel ,SCARED,30MonoWAV/30MonoH3.wav,2,2,1,7,,,,,0,8,8,6,0,8,8,11,,,,,,,,,1,1.0693437390145846,104,001,2019_Sep_05_0910,MusicAffectPsychophysiology2019,3.0.5,60.01793359292911,
To what extent did the music make you feel ,ACTIVE,30MonoWAV/30MonoH3.wav,2,2,1,7,,,,,0,8,8,6,0,9,9,9,,,,,,,,,4,1.670191368961241,104,001,2019_Sep_05_0910,MusicAffectPsychophysiology2019,3.0.5,60.01793359292911,
To what extent did the music make you feel ,ASHAMED,30MonoWAV/30MonoH3.wav,2,2,1,7,,,,,0,8,8,6,0,10,10,4,,,,,,,,,1,1.8973536859848537,104,001,2019_Sep_05_0910,MusicAffectPsychophysiology2019,3.0.5,60.01793359292911,
To what extent did the music make you feel ,GUILTY,30MonoWAV/30MonoH3.wav,2,2,1,7,,,,,0,8,8,6,0,11,11,5,,,,,,,,,1,1.1867563899722882,104,001,2019_Sep_05_0910,MusicAffectPsychophysiology2019,3.0.5,60.01793359292911,
,,30MonoWAV/30MonoH3.wav,2,2,1,7,,,,,0,8,8,6,,,,,,,,,,,,,,,104,001,2019_Sep_05_0910,MusicAffectPsychophysiology2019,3.0.5,60.01793359292911,
To what extent did the music make you feel ,HAPPY,30MonoWAV/30MonoH4.wav,2,2,1,8,,,,,0,9,9,7,0,0,0,6,,,4,3.15257360303076,4,1.4857070739963092,4,1.1847710110014305,4,0.9904786469996907,104,001,2019_Sep_05_0910,MusicAffectPsychophysiology2019,3.0.5,60.01793359292911,
To what extent did the music make you feel ,GUILTY,30MonoWAV/30MonoH4.wav,2,2,1,8,,,,,0,9,9,7,0,1,1,5,,,,,,,,,1,0.7853488849941641,104,001,2019_Sep_05_0910,MusicAffectPsychophysiology2019,3.0.5,60.01793359292911,
To what extent did the music make you feel ,SCARED,30MonoWAV/30MonoH4.wav,2,2,1,8,,,,,0,9,9,7,0,2,2,11,,,,,,,,,1,0.7198086939752102,104,001,2019_Sep_05_0910,MusicAffectPsychophysiology2019,3.0.5,60.01793359292911,
To what extent did the music make you feel ,FRUSTRATED,30MonoWAV/30MonoH4.wav,2,2,1,8,,,,,0,9,9,7,0,3,3,3,,,,,,,,,1,1.1084008159814402,104,001,2019_Sep_05_0910,MusicAffectPsychophysiology2019,3.0.5,60.01793359292911,
To what extent did the music make you feel ,TENDER,30MonoWAV/30MonoH4.wav,2,2,1,8,,,,,0,9,9,7,0,4,4,10,,,,,,,,,4,1.5412909089936875,104,001,2019_Sep_05_0910,MusicAffectPsychophysiology2019,3.0.5,60.01793359292911,
To what extent did the music make you feel ,ANXIOUS ,30MonoWAV/30MonoH4.wav,2,2,1,8,,,,,0,9,9,7,0,5,5,1,,,,,,,,,1,1.9363879979937337,104,001,2019_Sep_05_0910,MusicAffectPsychophysiology2019,3.0.5,60.01793359292911,
To what extent did the music make you feel ,EXCITED,30MonoWAV/30MonoH4.wav,2,2,1,8,,,,,0,9,9,7,0,6,6,7,,,,,,,,,4,1.236280684999656,104,001,2019_Sep_05_0910,MusicAffectPsychophysiology2019,3.0.5,60.01793359292911,
To what extent did the music make you feel ,ASHAMED,30MonoWAV/30MonoH4.wav,2,2,1,8,,,,,0,9,9,7,0,7,7,4,,,,,,,,,1,0.5852236949722283,104,001,2019_Sep_05_0910,MusicAffectPsychophysiology2019,3.0.5,60.01793359292911,
To what extent did the music make you feel ,SAD,30MonoWAV/30MonoH4.wav,2,2,1,8,,,,,0,9,9,7,0,8,8,0,,,,,,,,,1,0.7365581900230609,104,001,2019_Sep_05_0910,MusicAffectPsychophysiology2019,3.0.5,60.01793359292911,
To what extent did the music make you feel ,ANGRY,30MonoWAV/30MonoH4.wav,2,2,1,8,,,,,0,9,9,7,0,9,9,2,,,,,,,,,1,1.3578897549887188,104,001,2019_Sep_05_0910,MusicAffectPsychophysiology2019,3.0.5,60.01793359292911,
To what extent did the music make you feel ,ALERT,30MonoWAV/30MonoH4.wav,2,2,1,8,,,,,0,9,9,7,0,10,10,8,,,,,,,,,1,1.085505400027614,104,001,2019_Sep_05_0910,MusicAffectPsychophysiology2019,3.0.5,60.01793359292911,
To what extent did the music make you feel ,ACTIVE,30MonoWAV/30MonoH4.wav,2,2,1,8,,,,,0,9,9,7,0,11,11,9,,,,,,,,,1,1.5031847810023464,104,001,2019_Sep_05_0910,MusicAffectPsychophysiology2019,3.0.5,60.01793359292911,
,,30MonoWAV/30MonoH4.wav,2,2,1,8,,,,,0,9,9,7,,,,,,,,,,,,,,,104,001,2019_Sep_05_0910,MusicAffectPsychophysiology2019,3.0.5,60.01793359292911,
To what extent did the music make you feel ,TENDER,30MonoWAV/30MonoH2.wav,2,2,1,6,,,,,0,10,10,5,0,0,0,10,,,4,3.318531601980794,4,1.5169701359700412,3,1.852717208035756,1,1.152584163006395,104,001,2019_Sep_05_0910,MusicAffectPsychophysiology2019,3.0.5,60.01793359292911,
To what extent did the music make you feel ,SCARED,30MonoWAV/30MonoH2.wav,2,2,1,6,,,,,0,10,10,5,0,1,1,11,,,,,,,,,1,0.9372081269975752,104,001,2019_Sep_05_0910,MusicAffectPsychophysiology2019,3.0.5,60.01793359292911,
To what extent did the music make you feel ,ASHAMED,30MonoWAV/30MonoH2.wav,2,2,1,6,,,,,0,10,10,5,0,2,2,4,,,,,,,,,1,0.8030160780181177,104,001,2019_Sep_05_0910,MusicAffectPsychophysiology2019,3.0.5,60.01793359292911,
To what extent did the music make you feel ,FRUSTRATED,30MonoWAV/30MonoH2.wav,2,2,1,6,,,,,0,10,10,5,0,3,3,3,,,,,,,,,1,0.8532063700258732,104,001,2019_Sep_05_0910,MusicAffectPsychophysiology2019,3.0.5,60.01793359292911,
To what extent did the music make you feel ,HAPPY,30MonoWAV/30MonoH2.wav,2,2,1,6,,,,,0,10,10,5,0,4,4,6,,,,,,,,,4,0.8519745639641769,104,001,2019_Sep_05_0910,MusicAffectPsychophysiology2019,3.0.5,60.01793359292911,
To what extent did the music make you feel ,SAD,30MonoWAV/30MonoH2.wav,2,2,1,6,,,,,0,10,10,5,0,5,5,0,,,,,,,,,1,0.7696892319945619,104,001,2019_Sep_05_0910,MusicAffectPsychophysiology2019,3.0.5,60.01793359292911,
To what extent did the music make you feel ,ANGRY,30MonoWAV/30MonoH2.wav,2,2,1,6,,,,,0,10,10,5,0,6,6,2,,,,,,,,,1,0.7198228930355981,104,001,2019_Sep_05_0910,MusicAffectPsychophysiology2019,3.0.5,60.01793359292911,
To what extent did the music make you feel ,ANXIOUS ,30MonoWAV/30MonoH2.wav,2,2,1,6,,,,,0,10,10,5,0,7,7,1,,,,,,,,,2,1.3526700300280936,104,001,2019_Sep_05_0910,MusicAffectPsychophysiology2019,3.0.5,60.01793359292911,
To what extent did the music make you feel ,GUILTY,30MonoWAV/30MonoH2.wav,2,2,1,6,,,,,0,10,10,5,0,8,8,5,,,,,,,,,1,0.6528302550432272,104,001,2019_Sep_05_0910,MusicAffectPsychophysiology2019,3.0.5,60.01793359292911,
To what extent did the music make you feel ,EXCITED,30MonoWAV/30MonoH2.wav,2,2,1,6,,,,,0,10,10,5,0,9,9,7,,,,,,,,,4,1.2695408800500445,104,001,2019_Sep_05_0910,MusicAffectPsychophysiology2019,3.0.5,60.01793359292911,
To what extent did the music make you feel ,ALERT,30MonoWAV/30MonoH2.wav,2,2,1,6,,,,,0,10,10,5,0,10,10,8,,,,,,,,,1,0.6857122349902056,104,001,2019_Sep_05_0910,MusicAffectPsychophysiology2019,3.0.5,60.01793359292911,
To what extent did the music make you feel ,ACTIVE,30MonoWAV/30MonoH2.wav,2,2,1,6,,,,,0,10,10,5,0,11,11,9,,,,,,,,,5,0.8199306840542704,104,001,2019_Sep_05_0910,MusicAffectPsychophysiology2019,3.0.5,60.01793359292911,
,,30MonoWAV/30MonoH2.wav,2,2,1,6,,,,,0,10,10,5,,,,,,,,,,,,,,,104,001,2019_Sep_05_0910,MusicAffectPsychophysiology2019,3.0.5,60.01793359292911,
To what extent did the music make you feel ,ALERT,30MonoWAV/30MonoS2.wav,1,1,3,10,,,,,0,11,11,9,0,0,0,8,,,2,3.3994803359964862,3,1.5668967940146104,3,1.8001446580165066,1,1.2787844060221687,104,001,2019_Sep_05_0910,MusicAffectPsychophysiology2019,3.0.5,60.01793359292911,
To what extent did the music make you feel ,ANXIOUS ,30MonoWAV/30MonoS2.wav,1,1,3,10,,,,,0,11,11,9,0,1,1,1,,,,,,,,,1,1.3451548249577172,104,001,2019_Sep_05_0910,MusicAffectPsychophysiology2019,3.0.5,60.01793359292911,
To what extent did the music make you feel ,ASHAMED,30MonoWAV/30MonoS2.wav,1,1,3,10,,,,,0,11,11,9,0,2,2,4,,,,,,,,,1,0.9348727649776265,104,001,2019_Sep_05_0910,MusicAffectPsychophysiology2019,3.0.5,60.01793359292911,
To what extent did the music make you feel ,EXCITED,30MonoWAV/30MonoS2.wav,1,1,3,10,,,,,0,11,11,9,0,3,3,7,,,,,,,,,1,1.285462939995341,104,001,2019_Sep_05_0910,MusicAffectPsychophysiology2019,3.0.5,60.01793359292911,
To what extent did the music make you feel ,ACTIVE,30MonoWAV/30MonoS2.wav,1,1,3,10,,,,,0,11,11,9,0,4,4,9,,,,,,,,,1,1.2520951390033588,104,001,2019_Sep_05_0910,MusicAffectPsychophysiology2019,3.0.5,60.01793359292911,
To what extent did the music make you feel ,GUILTY,30MonoWAV/30MonoS2.wav,1,1,3,10,,,,,0,11,11,9,0,5,5,5,,,,,,,,,1,0.8353907870477997,104,001,2019_Sep_05_0910,MusicAffectPsychophysiology2019,3.0.5,60.01793359292911,
To what extent did the music make you feel ,TENDER,30MonoWAV/30MonoS2.wav,1,1,3,10,,,,,0,11,11,9,0,6,6,10,,,,,,,,,2,1.1352870549890213,104,001,2019_Sep_05_0910,MusicAffectPsychophysiology2019,3.0.5,60.01793359292911,
To what extent did the music make you feel ,FRUSTRATED,30MonoWAV/30MonoS2.wav,1,1,3,10,,,,,0,11,11,9,0,7,7,3,,,,,,,,,1,0.6432621920248494,104,001,2019_Sep_05_0910,MusicAffectPsychophysiology2019,3.0.5,60.01793359292911,
To what extent did the music make you feel ,SCARED,30MonoWAV/30MonoS2.wav,1,1,3,10,,,,,0,11,11,9,0,8,8,11,,,,,,,,,1,0.6531691870186478,104,001,2019_Sep_05_0910,MusicAffectPsychophysiology2019,3.0.5,60.01793359292911,
To what extent did the music make you feel ,HAPPY,30MonoWAV/30MonoS2.wav,1,1,3,10,,,,,0,11,11,9,0,9,9,6,,,,,,,,,1,1.4363410510122776,104,001,2019_Sep_05_0910,MusicAffectPsychophysiology2019,3.0.5,60.01793359292911,
To what extent did the music make you feel ,ANGRY,30MonoWAV/30MonoS2.wav,1,1,3,10,,,,,0,11,11,9,0,10,10,2,,,,,,,,,1,0.6851445159991272,104,001,2019_Sep_05_0910,MusicAffectPsychophysiology2019,3.0.5,60.01793359292911,
To what extent did the music make you feel ,SAD,30MonoWAV/30MonoS2.wav,1,1,3,10,,,,,0,11,11,9,0,11,11,0,,,,,,,,,1,0.40200874395668507,104,001,2019_Sep_05_0910,MusicAffectPsychophysiology2019,3.0.5,60.01793359292911,
,,30MonoWAV/30MonoS2.wav,1,1,3,10,,,,,0,11,11,9,,,,,,,,,,,,,,,104,001,2019_Sep_05_0910,MusicAffectPsychophysiology2019,3.0.5,60.01793359292911,
To what extent did the music make you feel ,TENDER,30MonoWAV/30MonoT4.wav,2,1,4,16,,,,,0,12,12,15,0,0,0,10,,,4,3.0036719819763675,4,0.9032010299852118,4,0.6022466290160082,3,2.0554462769650854,104,001,2019_Sep_05_0910,MusicAffectPsychophysiology2019,3.0.5,60.01793359292911,
To what extent did the music make you feel ,ANXIOUS ,30MonoWAV/30MonoT4.wav,2,1,4,16,,,,,0,12,12,15,0,1,1,1,,,,,,,,,1,1.0363642019801773,104,001,2019_Sep_05_0910,MusicAffectPsychophysiology2019,3.0.5,60.01793359292911,
To what extent did the music make you feel ,ALERT,30MonoWAV/30MonoT4.wav,2,1,4,16,,,,,0,12,12,15,0,2,2,8,,,,,,,,,1,1.0355310899903998,104,001,2019_Sep_05_0910,MusicAffectPsychophysiology2019,3.0.5,60.01793359292911,
To what extent did the music make you feel ,ACTIVE,30MonoWAV/30MonoT4.wav,2,1,4,16,,,,,0,12,12,15,0,3,3,9,,,,,,,,,2,1.468702359998133,104,001,2019_Sep_05_0910,MusicAffectPsychophysiology2019,3.0.5,60.01793359292911,
To what extent did the music make you feel ,SAD,30MonoWAV/30MonoT4.wav,2,1,4,16,,,,,0,12,12,15,0,4,4,0,,,,,,,,,1,1.35355898499256,104,001,2019_Sep_05_0910,MusicAffectPsychophysiology2019,3.0.5,60.01793359292911,
To what extent did the music make you feel ,SCARED,30MonoWAV/30MonoT4.wav,2,1,4,16,,,,,0,12,12,15,0,5,5,11,,,,,,,,,1,0.5051179160363972,104,001,2019_Sep_05_0910,MusicAffectPsychophysiology2019,3.0.5,60.01793359292911,
To what extent did the music make you feel ,GUILTY,30MonoWAV/30MonoT4.wav,2,1,4,16,,,,,0,12,12,15,0,6,6,5,,,,,,,,,1,0.48575558001175523,104,001,2019_Sep_05_0910,MusicAffectPsychophysiology2019,3.0.5,60.01793359292911,
To what extent did the music make you feel ,ANGRY,30MonoWAV/30MonoT4.wav,2,1,4,16,,,,,0,12,12,15,0,7,7,2,,,,,,,,,1,0.6526449010125361,104,001,2019_Sep_05_0910,MusicAffectPsychophysiology2019,3.0.5,60.01793359292911,
To what extent did the music make you feel ,HAPPY,30MonoWAV/30MonoT4.wav,2,1,4,16,,,,,0,12,12,15,0,8,8,6,,,,,,,,,4,1.269268681993708,104,001,2019_Sep_05_0910,MusicAffectPsychophysiology2019,3.0.5,60.01793359292911,
To what extent did the music make you feel ,EXCITED,30MonoWAV/30MonoT4.wav,2,1,4,16,,,,,0,12,12,15,0,9,9,7,,,,,,,,,4,2.851426481967792,104,001,2019_Sep_05_0910,MusicAffectPsychophysiology2019,3.0.5,60.01793359292911,
To what extent did the music make you feel ,ASHAMED,30MonoWAV/30MonoT4.wav,2,1,4,16,,,,,0,12,12,15,0,10,10,4,,,,,,,,,1,0.7346850010217167,104,001,2019_Sep_05_0910,MusicAffectPsychophysiology2019,3.0.5,60.01793359292911,
To what extent did the music make you feel ,FRUSTRATED,30MonoWAV/30MonoT4.wav,2,1,4,16,,,,,0,12,12,15,0,11,11,3,,,,,,,,,1,0.5177022140123881,104,001,2019_Sep_05_0910,MusicAffectPsychophysiology2019,3.0.5,60.01793359292911,
,,30MonoWAV/30MonoT4.wav,2,1,4,16,,,,,0,12,12,15,,,,,,,,,,,,,,,104,001,2019_Sep_05_0910,MusicAffectPsychophysiology2019,3.0.5,60.01793359292911,
To what extent did the music make you feel ,ALERT,30MonoWAV/30MonoF3.wav,1,2,2,3,,,,,0,13,13,2,0,0,0,8,,,2,4.169107883994002,1,2.6023479140130803,2,1.2501971310121007,3,1.481287740985863,104,001,2019_Sep_05_0910,MusicAffectPsychophysiology2019,3.0.5,60.01793359292911,
To what extent did the music make you feel ,SCARED,30MonoWAV/30MonoF3.wav,1,2,2,3,,,,,0,13,13,2,0,1,1,11,,,,,,,,,2,1.2382233970565721,104,001,2019_Sep_05_0910,MusicAffectPsychophysiology2019,3.0.5,60.01793359292911,
To what extent did the music make you feel ,EXCITED,30MonoWAV/30MonoF3.wav,1,2,2,3,,,,,0,13,13,2,0,2,2,7,,,,,,,,,1,1.3860788840102032,104,001,2019_Sep_05_0910,MusicAffectPsychophysiology2019,3.0.5,60.01793359292911,
To what extent did the music make you feel ,ANXIOUS ,30MonoWAV/30MonoF3.wav,1,2,2,3,,,,,0,13,13,2,0,3,3,1,,,,,,,,,3,1.0005581350415014,104,001,2019_Sep_05_0910,MusicAffectPsychophysiology2019,3.0.5,60.01793359292911,
To what extent did the music make you feel ,SAD,30MonoWAV/30MonoF3.wav,1,2,2,3,,,,,0,13,13,2,0,4,4,0,,,,,,,,,1,1.1529399790451862,104,001,2019_Sep_05_0910,MusicAffectPsychophysiology2019,3.0.5,60.01793359292911,
To what extent did the music make you feel ,ACTIVE,30MonoWAV/30MonoF3.wav,1,2,2,3,,,,,0,13,13,2,0,5,5,9,,,,,,,,,2,2.503358514048159,104,001,2019_Sep_05_0910,MusicAffectPsychophysiology2019,3.0.5,60.01793359292911,
To what extent did the music make you feel ,GUILTY,30MonoWAV/30MonoF3.wav,1,2,2,3,,,,,0,13,13,2,0,6,6,5,,,,,,,,,1,0.7167774129775353,104,001,2019_Sep_05_0910,MusicAffectPsychophysiology2019,3.0.5,60.01793359292911,
To what extent did the music make you feel ,FRUSTRATED,30MonoWAV/30MonoF3.wav,1,2,2,3,,,,,0,13,13,2,0,7,7,3,,,,,,,,,1,1.0867776939994656,104,001,2019_Sep_05_0910,MusicAffectPsychophysiology2019,3.0.5,60.01793359292911,
To what extent did the music make you feel ,ASHAMED,30MonoWAV/30MonoF3.wav,1,2,2,3,,,,,0,13,13,2,0,8,8,4,,,,,,,,,1,0.7190767370047979,104,001,2019_Sep_05_0910,MusicAffectPsychophysiology2019,3.0.5,60.01793359292911,
To what extent did the music make you feel ,ANGRY,30MonoWAV/30MonoF3.wav,1,2,2,3,,,,,0,13,13,2,0,9,9,2,,,,,,,,,1,0.9194544779602438,104,001,2019_Sep_05_0910,MusicAffectPsychophysiology2019,3.0.5,60.01793359292911,
To what extent did the music make you feel ,HAPPY,30MonoWAV/30MonoF3.wav,1,2,2,3,,,,,0,13,13,2,0,10,10,6,,,,,,,,,1,1.4035678139771335,104,001,2019_Sep_05_0910,MusicAffectPsychophysiology2019,3.0.5,60.01793359292911,
To what extent did the music make you feel ,TENDER,30MonoWAV/30MonoF3.wav,1,2,2,3,,,,,0,13,13,2,0,11,11,10,,,,,,,,,1,0.9021794010186568,104,001,2019_Sep_05_0910,MusicAffectPsychophysiology2019,3.0.5,60.01793359292911,
,,30MonoWAV/30MonoF3.wav,1,2,2,3,,,,,0,13,13,2,,,,,,,,,,,,,,,104,001,2019_Sep_05_0910,MusicAffectPsychophysiology2019,3.0.5,60.01793359292911,
To what extent did the music make you feel ,FRUSTRATED,30MonoWAV/30MonoS3.wav,1,1,3,11,,,,,0,14,14,10,0,0,0,3,,,2,15.698160884028766,2,1.5521704289712943,2,1.5692339819506742,1,0.8901989349978976,104,001,2019_Sep_05_0910,MusicAffectPsychophysiology2019,3.0.5,60.01793359292911,
To what extent did the music make you feel ,ACTIVE,30MonoWAV/30MonoS3.wav,1,1,3,11,,,,,0,14,14,10,0,1,1,9,,,,,,,,,1,0.38571917201625183,104,001,2019_Sep_05_0910,MusicAffectPsychophysiology2019,3.0.5,60.01793359292911,
To what extent did the music make you feel ,TENDER,30MonoWAV/30MonoS3.wav,1,1,3,11,,,,,0,14,14,10,0,2,2,10,,,,,,,,,1,1.9200542350299656,104,001,2019_Sep_05_0910,MusicAffectPsychophysiology2019,3.0.5,60.01793359292911,
To what extent did the music make you feel ,GUILTY,30MonoWAV/30MonoS3.wav,1,1,3,11,,,,,0,14,14,10,0,3,3,5,,,,,,,,,1,0.6526155879837461,104,001,2019_Sep_05_0910,MusicAffectPsychophysiology2019,3.0.5,60.01793359292911,
To what extent did the music make you feel ,ANXIOUS ,30MonoWAV/30MonoS3.wav,1,1,3,11,,,,,0,14,14,10,0,4,4,1,,,,,,,,,3,1.1356819850043394,104,001,2019_Sep_05_0910,MusicAffectPsychophysiology2019,3.0.5,60.01793359292911,
To what extent did the music make you feel ,SCARED,30MonoWAV/30MonoS3.wav,1,1,3,11,,,,,0,14,14,10,0,5,5,11,,,,,,,,,1,1.5029349070391618,104,001,2019_Sep_05_0910,MusicAffectPsychophysiology2019,3.0.5,60.01793359292911,
To what extent did the music make you feel ,ANGRY,30MonoWAV/30MonoS3.wav,1,1,3,11,,,,,0,14,14,10,0,6,6,2,,,,,,,,,1,1.5366559990216047,104,001,2019_Sep_05_0910,MusicAffectPsychophysiology2019,3.0.5,60.01793359292911,
To what extent did the music make you feel ,ASHAMED,30MonoWAV/30MonoS3.wav,1,1,3,11,,,,,0,14,14,10,0,7,7,4,,,,,,,,,1,0.6020089689991437,104,001,2019_Sep_05_0910,MusicAffectPsychophysiology2019,3.0.5,60.01793359292911,
To what extent did the music make you feel ,SAD,30MonoWAV/30MonoS3.wav,1,1,3,11,,,,,0,14,14,10,0,8,8,0,,,,,,,,,2,1.2698865259881131,104,001,2019_Sep_05_0910,MusicAffectPsychophysiology2019,3.0.5,60.01793359292911,
To what extent did the music make you feel ,EXCITED,30MonoWAV/30MonoS3.wav,1,1,3,11,,,,,0,14,14,10,0,9,9,7,,,,,,,,,1,1.0388193220132962,104,001,2019_Sep_05_0910,MusicAffectPsychophysiology2019,3.0.5,60.01793359292911,
To what extent did the music make you feel ,ALERT,30MonoWAV/30MonoS3.wav,1,1,3,11,,,,,0,14,14,10,0,10,10,8,,,,,,,,,1,0.7364307070383802,104,001,2019_Sep_05_0910,MusicAffectPsychophysiology2019,3.0.5,60.01793359292911,
To what extent did the music make you feel ,HAPPY,30MonoWAV/30MonoS3.wav,1,1,3,11,,,,,0,14,14,10,0,11,11,6,,,,,,,,,1,3.2525771190412343,104,001,2019_Sep_05_0910,MusicAffectPsychophysiology2019,3.0.5,60.01793359292911,
,,30MonoWAV/30MonoS3.wav,1,1,3,11,,,,,0,14,14,10,,,,,,,,,,,,,,,104,001,2019_Sep_05_0910,MusicAffectPsychophysiology2019,3.0.5,60.01793359292911,
To what extent did the music make you feel ,ALERT,30MonoWAV/30MonoF4.wav,1,2,2,4,,,,,0,15,15,3,0,0,0,8,,,3,6.569957816973329,2,2.01813756901538,2,2.4853783730068244,1,0.8504118249984458,104,001,2019_Sep_05_0910,MusicAffectPsychophysiology2019,3.0.5,60.01793359292911,
To what extent did the music make you feel ,EXCITED,30MonoWAV/30MonoF4.wav,1,2,2,4,,,,,0,15,15,3,0,1,1,7,,,,,,,,,3,1.3034401810145937,104,001,2019_Sep_05_0910,MusicAffectPsychophysiology2019,3.0.5,60.01793359292911,
To what extent did the music make you feel ,ACTIVE,30MonoWAV/30MonoF4.wav,1,2,2,4,,,,,0,15,15,3,0,2,2,9,,,,,,,,,3,1.8671229440369643,104,001,2019_Sep_05_0910,MusicAffectPsychophysiology2019,3.0.5,60.01793359292911,
To what extent did the music make you feel ,SAD,30MonoWAV/30MonoF4.wav,1,2,2,4,,,,,0,15,15,3,0,3,3,0,,,,,,,,,1,1.054469490016345,104,001,2019_Sep_05_0910,MusicAffectPsychophysiology2019,3.0.5,60.01793359292911,
To what extent did the music make you feel ,ANXIOUS ,30MonoWAV/30MonoF4.wav,1,2,2,4,,,,,0,15,15,3,0,4,4,1,,,,,,,,,1,1.4171296220156364,104,001,2019_Sep_05_0910,MusicAffectPsychophysiology2019,3.0.5,60.01793359292911,
To what extent did the music make you feel ,ASHAMED,30MonoWAV/30MonoF4.wav,1,2,2,4,,,,,0,15,15,3,0,5,5,4,,,,,,,,,1,0.46982280298834667,104,001,2019_Sep_05_0910,MusicAffectPsychophysiology2019,3.0.5,60.01793359292911,
To what extent did the music make you feel ,ANGRY,30MonoWAV/30MonoF4.wav,1,2,2,4,,,,,0,15,15,3,0,6,6,2,,,,,,,,,1,1.433736921986565,104,001,2019_Sep_05_0910,MusicAffectPsychophysiology2019,3.0.5,60.01793359292911,
To what extent did the music make you feel ,HAPPY,30MonoWAV/30MonoF4.wav,1,2,2,4,,,,,0,15,15,3,0,7,7,6,,,,,,,,,1,2.037120175024029,104,001,2019_Sep_05_0910,MusicAffectPsychophysiology2019,3.0.5,60.01793359292911,
To what extent did the music make you feel ,SCARED,30MonoWAV/30MonoF4.wav,1,2,2,4,,,,,0,15,15,3,0,8,8,11,,,,,,,,,1,0.6147447199909948,104,001,2019_Sep_05_0910,MusicAffectPsychophysiology2019,3.0.5,60.01793359292911,
To what extent did the music make you feel ,FRUSTRATED,30MonoWAV/30MonoF4.wav,1,2,2,4,,,,,0,15,15,3,0,9,9,3,,,,,,,,,1,0.4790461450465955,104,001,2019_Sep_05_0910,MusicAffectPsychophysiology2019,3.0.5,60.01793359292911,
To what extent did the music make you feel ,TENDER,30MonoWAV/30MonoF4.wav,1,2,2,4,,,,,0,15,15,3,0,10,10,10,,,,,,,,,1,1.4526762180030346,104,001,2019_Sep_05_0910,MusicAffectPsychophysiology2019,3.0.5,60.01793359292911,
To what extent did the music make you feel ,GUILTY,30MonoWAV/30MonoF4.wav,1,2,2,4,,,,,0,15,15,3,0,11,11,5,,,,,,,,,1,0.585812471981626,104,001,2019_Sep_05_0910,MusicAffectPsychophysiology2019,3.0.5,60.01793359292911,
,,30MonoWAV/30MonoF4.wav,1,2,2,4,,,,,0,15,15,3,,,,,,,,,,,,,,,104,001,2019_Sep_05_0910,MusicAffectPsychophysiology2019,3.0.5,60.01793359292911,
To what extent did the music make you feel ,ALERT,30MonoWAV/30MonoF2.wav,1,2,2,2,,,,,1,0,16,1,0,0,0,8,,,1,3.4023678459925577,1,1.3190836319699883,1,1.051119212002959,3,2.6427617400186136,104,001,2019_Sep_05_0910,MusicAffectPsychophysiology2019,3.0.5,60.01793359292911,
To what extent did the music make you feel ,ANXIOUS ,30MonoWAV/30MonoF2.wav,1,2,2,2,,,,,1,0,16,1,0,1,1,1,,,,,,,,,4,1.4688306199968792,104,001,2019_Sep_05_0910,MusicAffectPsychophysiology2019,3.0.5,60.01793359292911,
To what extent did the music make you feel ,GUILTY,30MonoWAV/30MonoF2.wav,1,2,2,2,,,,,1,0,16,1,0,2,2,5,,,,,,,,,1,1.3353237640112638,104,001,2019_Sep_05_0910,MusicAffectPsychophysiology2019,3.0.5,60.01793359292911,
To what extent did the music make you feel ,SCARED,30MonoWAV/30MonoF2.wav,1,2,2,2,,,,,1,0,16,1,0,3,3,11,,,,,,,,,3,1.0189319789642468,104,001,2019_Sep_05_0910,MusicAffectPsychophysiology2019,3.0.5,60.01793359292911,
To what extent did the music make you feel ,FRUSTRATED,30MonoWAV/30MonoF2.wav,1,2,2,2,,,,,1,0,16,1,0,4,4,3,,,,,,,,,1,1.6854895880096592,104,001,2019_Sep_05_0910,MusicAffectPsychophysiology2019,3.0.5,60.01793359292911,
To what extent did the music make you feel ,SAD,30MonoWAV/30MonoF2.wav,1,2,2,2,,,,,1,0,16,1,0,5,5,0,,,,,,,,,1,1.1696109849726781,104,001,2019_Sep_05_0910,MusicAffectPsychophysiology2019,3.0.5,60.01793359292911,
To what extent did the music make you feel ,ASHAMED,30MonoWAV/30MonoF2.wav,1,2,2,2,,,,,1,0,16,1,0,6,6,4,,,,,,,,,1,0.9196559569681995,104,001,2019_Sep_05_0910,MusicAffectPsychophysiology2019,3.0.5,60.01793359292911,
To what extent did the music make you feel ,ACTIVE,30MonoWAV/30MonoF2.wav,1,2,2,2,,,,,1,0,16,1,0,7,7,9,,,,,,,,,1,0.9203736989875324,104,001,2019_Sep_05_0910,MusicAffectPsychophysiology2019,3.0.5,60.01793359292911,
To what extent did the music make you feel ,ANGRY,30MonoWAV/30MonoF2.wav,1,2,2,2,,,,,1,0,16,1,0,8,8,2,,,,,,,,,1,1.9667153280461207,104,001,2019_Sep_05_0910,MusicAffectPsychophysiology2019,3.0.5,60.01793359292911,
To what extent did the music make you feel ,EXCITED,30MonoWAV/30MonoF2.wav,1,2,2,2,,,,,1,0,16,1,0,9,9,7,,,,,,,,,1,1.3355541950440966,104,001,2019_Sep_05_0910,MusicAffectPsychophysiology2019,3.0.5,60.01793359292911,
To what extent did the music make you feel ,TENDER,30MonoWAV/30MonoF2.wav,1,2,2,2,,,,,1,0,16,1,0,10,10,10,,,,,,,,,1,0.8176594139658846,104,001,2019_Sep_05_0910,MusicAffectPsychophysiology2019,3.0.5,60.01793359292911,
To what extent did the music make you feel ,HAPPY,30MonoWAV/30MonoF2.wav,1,2,2,2,,,,,1,0,16,1,0,11,11,6,,,,,,,,,1,0.8690343989874236,104,001,2019_Sep_05_0910,MusicAffectPsychophysiology2019,3.0.5,60.01793359292911,
,,30MonoWAV/30MonoF2.wav,1,2,2,2,,,,,1,0,16,1,,,,,,,,,,,,,,,104,001,2019_Sep_05_0910,MusicAffectPsychophysiology2019,3.0.5,60.01793359292911,
To what extent did the music make you feel ,TENDER,30MonoWAV/30MonoH4.wav,2,2,1,8,,,,,1,1,17,7,0,0,0,10,,,4,2.4541224050335586,4,1.3203358860337175,4,0.6852707299985923,1,1.4358090700116009,104,001,2019_Sep_05_0910,MusicAffectPsychophysiology2019,3.0.5,60.01793359292911,
To what extent did the music make you feel ,ANXIOUS ,30MonoWAV/30MonoH4.wav,2,2,1,8,,,,,1,1,17,7,0,1,1,1,,,,,,,,,1,0.9525113629642874,104,001,2019_Sep_05_0910,MusicAffectPsychophysiology2019,3.0.5,60.01793359292911,
To what extent did the music make you feel ,ANGRY,30MonoWAV/30MonoH4.wav,2,2,1,8,,,,,1,1,17,7,0,2,2,2,,,,,,,,,1,0.6527745479834266,104,001,2019_Sep_05_0910,MusicAffectPsychophysiology2019,3.0.5,60.01793359292911,
To what extent did the music make you feel ,ASHAMED,30MonoWAV/30MonoH4.wav,2,2,1,8,,,,,1,1,17,7,0,3,3,4,,,,,,,,,1,0.5525735230185091,104,001,2019_Sep_05_0910,MusicAffectPsychophysiology2019,3.0.5,60.01793359292911,
To what extent did the music make you feel ,EXCITED,30MonoWAV/30MonoH4.wav,2,2,1,8,,,,,1,1,17,7,0,4,4,7,,,,,,,,,4,0.9534463469753973,104,001,2019_Sep_05_0910,MusicAffectPsychophysiology2019,3.0.5,60.01793359292911,
To what extent did the music make you feel ,SAD,30MonoWAV/30MonoH4.wav,2,2,1,8,,,,,1,1,17,7,0,5,5,0,,,,,,,,,1,0.9034762280061841,104,001,2019_Sep_05_0910,MusicAffectPsychophysiology2019,3.0.5,60.01793359292911,
To what extent did the music make you feel ,FRUSTRATED,30MonoWAV/30MonoH4.wav,2,2,1,8,,,,,1,1,17,7,0,6,6,3,,,,,,,,,1,0.8368370920070447,104,001,2019_Sep_05_0910,MusicAffectPsychophysiology2019,3.0.5,60.01793359292911,
To what extent did the music make you feel ,ALERT,30MonoWAV/30MonoH4.wav,2,2,1,8,,,,,1,1,17,7,0,7,7,8,,,,,,,,,1,0.5856021119980142,104,001,2019_Sep_05_0910,MusicAffectPsychophysiology2019,3.0.5,60.01793359292911,
To what extent did the music make you feel ,SCARED,30MonoWAV/30MonoH4.wav,2,2,1,8,,,,,1,1,17,7,0,8,8,11,,,,,,,,,1,0.7199636989971623,104,001,2019_Sep_05_0910,MusicAffectPsychophysiology2019,3.0.5,60.01793359292911,
To what extent did the music make you feel ,ACTIVE,30MonoWAV/30MonoH4.wav,2,2,1,8,,,,,1,1,17,7,0,9,9,9,,,,,,,,,4,0.7856709219631739,104,001,2019_Sep_05_0910,MusicAffectPsychophysiology2019,3.0.5,60.01793359292911,
To what extent did the music make you feel ,GUILTY,30MonoWAV/30MonoH4.wav,2,2,1,8,,,,,1,1,17,7,0,10,10,5,,,,,,,,,1,0.4682076989556663,104,001,2019_Sep_05_0910,MusicAffectPsychophysiology2019,3.0.5,60.01793359292911,
To what extent did the music make you feel ,HAPPY,30MonoWAV/30MonoH4.wav,2,2,1,8,,,,,1,1,17,7,0,11,11,6,,,,,,,,,4,0.933731630037073,104,001,2019_Sep_05_0910,MusicAffectPsychophysiology2019,3.0.5,60.01793359292911,
,,30MonoWAV/30MonoH4.wav,2,2,1,8,,,,,1,1,17,7,,,,,,,,,,,,,,,104,001,2019_Sep_05_0910,MusicAffectPsychophysiology2019,3.0.5,60.01793359292911,
To what extent did the music make you feel ,SCARED,30MonoWAV/30MonoH1.wav,2,2,1,5,,,,,1,2,18,4,0,0,0,11,,,3,4.318968490988482,3,0.7522451370023191,4,0.6691779960528947,1,0.7688165630097501,104,001,2019_Sep_05_0910,MusicAffectPsychophysiology2019,3.0.5,60.01793359292911,
To what extent did the music make you feel ,ANXIOUS ,30MonoWAV/30MonoH1.wav,2,2,1,5,,,,,1,2,18,4,0,1,1,1,,,,,,,,,1,0.3698208429850638,104,001,2019_Sep_05_0910,MusicAffectPsychophysiology2019,3.0.5,60.01793359292911,
To what extent did the music make you feel ,ASHAMED,30MonoWAV/30MonoH1.wav,2,2,1,5,,,,,1,2,18,4,0,2,2,4,,,,,,,,,1,8.085128564969636,104,001,2019_Sep_05_0910,MusicAffectPsychophysiology2019,3.0.5,60.01793359292911,
To what extent did the music make you feel ,ANGRY,30MonoWAV/30MonoH1.wav,2,2,1,5,,,,,1,2,18,4,0,3,3,2,,,,,,,,,1,0.5351672070100904,104,001,2019_Sep_05_0910,MusicAffectPsychophysiology2019,3.0.5,60.01793359292911,
To what extent did the music make you feel ,GUILTY,30MonoWAV/30MonoH1.wav,2,2,1,5,,,,,1,2,18,4,0,4,4,5,,,,,,,,,1,0.5024843529681675,104,001,2019_Sep_05_0910,MusicAffectPsychophysiology2019,3.0.5,60.01793359292911,
To what extent did the music make you feel ,HAPPY,30MonoWAV/30MonoH1.wav,2,2,1,5,,,,,1,2,18,4,0,5,5,6,,,,,,,,,4,2.20285481197061,104,001,2019_Sep_05_0910,MusicAffectPsychophysiology2019,3.0.5,60.01793359292911,
To what extent did the music make you feel ,FRUSTRATED,30MonoWAV/30MonoH1.wav,2,2,1,5,,,,,1,2,18,4,0,6,6,3,,,,,,,,,1,1.6958341469871812,104,001,2019_Sep_05_0910,MusicAffectPsychophysiology2019,3.0.5,60.01793359292911,
To what extent did the music make you feel ,ACTIVE,30MonoWAV/30MonoH1.wav,2,2,1,5,,,,,1,2,18,4,0,7,7,9,,,,,,,,,4,1.4703936540172435,104,001,2019_Sep_05_0910,MusicAffectPsychophysiology2019,3.0.5,60.01793359292911,
To what extent did the music make you feel ,SAD,30MonoWAV/30MonoH1.wav,2,2,1,5,,,,,1,2,18,4,0,8,8,0,,,,,,,,,1,1.0195413610199466,104,001,2019_Sep_05_0910,MusicAffectPsychophysiology2019,3.0.5,60.01793359292911,
To what extent did the music make you feel ,EXCITED,30MonoWAV/30MonoH1.wav,2,2,1,5,,,,,1,2,18,4,0,9,9,7,,,,,,,,,4,1.9036855669692159,104,001,2019_Sep_05_0910,MusicAffectPsychophysiology2019,3.0.5,60.01793359292911,
To what extent did the music make you feel ,TENDER,30MonoWAV/30MonoH1.wav,2,2,1,5,,,,,1,2,18,4,0,10,10,10,,,,,,,,,1,0.9369527680100873,104,001,2019_Sep_05_0910,MusicAffectPsychophysiology2019,3.0.5,60.01793359292911,
To what extent did the music make you feel ,ALERT,30MonoWAV/30MonoH1.wav,2,2,1,5,,,,,1,2,18,4,0,11,11,8,,,,,,,,,2,1.0691750770201907,104,001,2019_Sep_05_0910,MusicAffectPsychophysiology2019,3.0.5,60.01793359292911,
,,30MonoWAV/30MonoH1.wav,2,2,1,5,,,,,1,2,18,4,,,,,,,,,,,,,,,104,001,2019_Sep_05_0910,MusicAffectPsychophysiology2019,3.0.5,60.01793359292911,
To what extent did the music make you feel ,HAPPY,30MonoWAV/30MonoT2.wav,2,1,4,14,,,,,1,3,19,13,0,0,0,6,,,2,2.6667922369670123,3,3.069935418025125,3,2.8682831510086544,2,2.288550961005967,104,001,2019_Sep_05_0910,MusicAffectPsychophysiology2019,3.0.5,60.01793359292911,
To what extent did the music make you feel ,SCARED,30MonoWAV/30MonoT2.wav,2,1,4,14,,,,,1,3,19,13,0,1,1,11,,,,,,,,,1,1.7522758290288039,104,001,2019_Sep_05_0910,MusicAffectPsychophysiology2019,3.0.5,60.01793359292911,
To what extent did the music make you feel ,EXCITED,30MonoWAV/30MonoT2.wav,2,1,4,14,,,,,1,3,19,13,0,2,2,7,,,,,,,,,2,1.6369295780314133,104,001,2019_Sep_05_0910,MusicAffectPsychophysiology2019,3.0.5,60.01793359292911,
To what extent did the music make you feel ,FRUSTRATED,30MonoWAV/30MonoT2.wav,2,1,4,14,,,,,1,3,19,13,0,3,3,3,,,,,,,,,1,0.5218963470542803,104,001,2019_Sep_05_0910,MusicAffectPsychophysiology2019,3.0.5,60.01793359292911,
To what extent did the music make you feel ,ANGRY,30MonoWAV/30MonoT2.wav,2,1,4,14,,,,,1,3,19,13,0,4,4,2,,,,,,,,,1,0.5504817780456506,104,001,2019_Sep_05_0910,MusicAffectPsychophysiology2019,3.0.5,60.01793359292911,
To what extent did the music make you feel ,TENDER,30MonoWAV/30MonoT2.wav,2,1,4,14,,,,,1,3,19,13,0,5,5,10,,,,,,,,,4,1.886218973028008,104,001,2019_Sep_05_0910,MusicAffectPsychophysiology2019,3.0.5,60.01793359292911,
To what extent did the music make you feel ,ASHAMED,30MonoWAV/30MonoT2.wav,2,1,4,14,,,,,1,3,19,13,0,6,6,4,,,,,,,,,1,1.8190328810014762,104,001,2019_Sep_05_0910,MusicAffectPsychophysiology2019,3.0.5,60.01793359292911,
To what extent did the music make you feel ,ALERT,30MonoWAV/30MonoT2.wav,2,1,4,14,,,,,1,3,19,13,0,7,7,8,,,,,,,,,1,1.053060488018673,104,001,2019_Sep_05_0910,MusicAffectPsychophysiology2019,3.0.5,60.01793359292911,
To what extent did the music make you feel ,GUILTY,30MonoWAV/30MonoT2.wav,2,1,4,14,,,,,1,3,19,13,0,8,8,5,,,,,,,,,1,0.7859525799867697,104,001,2019_Sep_05_0910,MusicAffectPsychophysiology2019,3.0.5,60.01793359292911,
To what extent did the music make you feel ,SAD,30MonoWAV/30MonoT2.wav,2,1,4,14,,,,,1,3,19,13,0,9,9,0,,,,,,,,,1,1.2035437609883957,104,001,2019_Sep_05_0910,MusicAffectPsychophysiology2019,3.0.5,60.01793359292911,
To what extent did the music make you feel ,ACTIVE,30MonoWAV/30MonoT2.wav,2,1,4,14,,,,,1,3,19,13,0,10,10,9,,,,,,,,,4,1.216456026013475,104,001,2019_Sep_05_0910,MusicAffectPsychophysiology2019,3.0.5,60.01793359292911,
To what extent did the music make you feel ,ANXIOUS ,30MonoWAV/30MonoT2.wav,2,1,4,14,,,,,1,3,19,13,0,11,11,1,,,,,,,,,1,0.8697385719860904,104,001,2019_Sep_05_0910,MusicAffectPsychophysiology2019,3.0.5,60.01793359292911,
,,30MonoWAV/30MonoT2.wav,2,1,4,14,,,,,1,3,19,13,,,,,,,,,,,,,,,104,001,2019_Sep_05_0910,MusicAffectPsychophysiology2019,3.0.5,60.01793359292911,
To what extent did the music make you feel ,ANGRY,30MonoWAV/30MonoS1.wav,1,1,3,9,,,,,1,4,20,8,0,0,0,2,,,2,4.770316726004239,3,2.234244705992751,3,1.366889099997934,1,0.7168996759573929,104,001,2019_Sep_05_0910,MusicAffectPsychophysiology2019,3.0.5,60.01793359292911,
To what extent did the music make you feel ,EXCITED,30MonoWAV/30MonoS1.wav,1,1,3,9,,,,,1,4,20,8,0,1,1,7,,,,,,,,,1,0.4694857900030911,104,001,2019_Sep_05_0910,MusicAffectPsychophysiology2019,3.0.5,60.01793359292911,
To what extent did the music make you feel ,ASHAMED,30MonoWAV/30MonoS1.wav,1,1,3,9,,,,,1,4,20,8,0,2,2,4,,,,,,,,,1,0.585522530018352,104,001,2019_Sep_05_0910,MusicAffectPsychophysiology2019,3.0.5,60.01793359292911,
To what extent did the music make you feel ,TENDER,30MonoWAV/30MonoS1.wav,1,1,3,9,,,,,1,4,20,8,0,3,3,10,,,,,,,,,1,0.7702713329927064,104,001,2019_Sep_05_0910,MusicAffectPsychophysiology2019,3.0.5,60.01793359292911,
To what extent did the music make you feel ,FRUSTRATED,30MonoWAV/30MonoS1.wav,1,1,3,9,,,,,1,4,20,8,0,4,4,3,,,,,,,,,1,0.6319375259918161,104,001,2019_Sep_05_0910,MusicAffectPsychophysiology2019,3.0.5,60.01793359292911,
To what extent did the music make you feel ,ANXIOUS ,30MonoWAV/30MonoS1.wav,1,1,3,9,,,,,1,4,20,8,0,5,5,1,,,,,,,,,1,1.0522031689761207,104,001,2019_Sep_05_0910,MusicAffectPsychophysiology2019,3.0.5,60.01793359292911,
To what extent did the music make you feel ,SCARED,30MonoWAV/30MonoS1.wav,1,1,3,9,,,,,1,4,20,8,0,6,6,11,,,,,,,,,1,0.46831554296659306,104,001,2019_Sep_05_0910,MusicAffectPsychophysiology2019,3.0.5,60.01793359292911,
To what extent did the music make you feel ,HAPPY,30MonoWAV/30MonoS1.wav,1,1,3,9,,,,,1,4,20,8,0,7,7,6,,,,,,,,,3,1.4024252999806777,104,001,2019_Sep_05_0910,MusicAffectPsychophysiology2019,3.0.5,60.01793359292911,
To what extent did the music make you feel ,GUILTY,30MonoWAV/30MonoS1.wav,1,1,3,9,,,,,1,4,20,8,0,8,8,5,,,,,,,,,1,0.71972505497979,104,001,2019_Sep_05_0910,MusicAffectPsychophysiology2019,3.0.5,60.01793359292911,
To what extent did the music make you feel ,SAD,30MonoWAV/30MonoS1.wav,1,1,3,9,,,,,1,4,20,8,0,9,9,0,,,,,,,,,2,1.7186976360389963,104,001,2019_Sep_05_0910,MusicAffectPsychophysiology2019,3.0.5,60.01793359292911,
To what extent did the music make you feel ,ACTIVE,30MonoWAV/30MonoS1.wav,1,1,3,9,,,,,1,4,20,8,0,10,10,9,,,,,,,,,4,0.9199225130141713,104,001,2019_Sep_05_0910,MusicAffectPsychophysiology2019,3.0.5,60.01793359292911,
To what extent did the music make you feel ,ALERT,30MonoWAV/30MonoS1.wav,1,1,3,9,,,,,1,4,20,8,0,11,11,8,,,,,,,,,1,2.1530897389748134,104,001,2019_Sep_05_0910,MusicAffectPsychophysiology2019,3.0.5,60.01793359292911,
,,30MonoWAV/30MonoS1.wav,1,1,3,9,,,,,1,4,20,8,,,,,,,,,,,,,,,104,001,2019_Sep_05_0910,MusicAffectPsychophysiology2019,3.0.5,60.01793359292911,
To what extent did the music make you feel ,SAD,30MonoWAV/30MonoF3.wav,1,2,2,3,,,,,1,5,21,2,0,0,0,0,,,3,2.685432650963776,2,1.619263164990116,2,1.6526073509594426,1,0.7922724229865707,104,001,2019_Sep_05_0910,MusicAffectPsychophysiology2019,3.0.5,60.01793359292911,
To what extent did the music make you feel ,ALERT,30MonoWAV/30MonoF3.wav,1,2,2,3,,,,,1,5,21,2,0,1,1,8,,,,,,,,,4,2.083586163993459,104,001,2019_Sep_05_0910,MusicAffectPsychophysiology2019,3.0.5,60.01793359292911,
To what extent did the music make you feel ,FRUSTRATED,30MonoWAV/30MonoF3.wav,1,2,2,3,,,,,1,5,21,2,0,2,2,3,,,,,,,,,4,0.5520192420226522,104,001,2019_Sep_05_0910,MusicAffectPsychophysiology2019,3.0.5,60.01793359292911,
To what extent did the music make you feel ,GUILTY,30MonoWAV/30MonoF3.wav,1,2,2,3,,,,,1,5,21,2,0,3,3,5,,,,,,,,,1,1.1861595569644123,104,001,2019_Sep_05_0910,MusicAffectPsychophysiology2019,3.0.5,60.01793359292911,
To what extent did the music make you feel ,EXCITED,30MonoWAV/30MonoF3.wav,1,2,2,3,,,,,1,5,21,2,0,4,4,7,,,,,,,,,2,1.4502790439873934,104,001,2019_Sep_05_0910,MusicAffectPsychophysiology2019,3.0.5,60.01793359292911,
To what extent did the music make you feel ,ANXIOUS ,30MonoWAV/30MonoF3.wav,1,2,2,3,,,,,1,5,21,2,0,5,5,1,,,,,,,,,4,1.251615930988919,104,001,2019_Sep_05_0910,MusicAffectPsychophysiology2019,3.0.5,60.01793359292911,
To what extent did the music make you feel ,ACTIVE,30MonoWAV/30MonoF3.wav,1,2,2,3,,,,,1,5,21,2,0,6,6,9,,,,,,,,,4,0.8866777720395476,104,001,2019_Sep_05_0910,MusicAffectPsychophysiology2019,3.0.5,60.01793359292911,
To what extent did the music make you feel ,SCARED,30MonoWAV/30MonoF3.wav,1,2,2,3,,,,,1,5,21,2,0,7,7,11,,,,,,,,,1,0.7036483520059846,104,001,2019_Sep_05_0910,MusicAffectPsychophysiology2019,3.0.5,60.01793359292911,
To what extent did the music make you feel ,HAPPY,30MonoWAV/30MonoF3.wav,1,2,2,3,,,,,1,5,21,2,0,8,8,6,,,,,,,,,1,1.488643743970897,104,001,2019_Sep_05_0910,MusicAffectPsychophysiology2019,3.0.5,60.01793359292911,
To what extent did the music make you feel ,TENDER,30MonoWAV/30MonoF3.wav,1,2,2,3,,,,,1,5,21,2,0,9,9,10,,,,,,,,,1,0.6864870340214111,104,001,2019_Sep_05_0910,MusicAffectPsychophysiology2019,3.0.5,60.01793359292911,
To what extent did the music make you feel ,ASHAMED,30MonoWAV/30MonoF3.wav,1,2,2,3,,,,,1,5,21,2,0,10,10,4,,,,,,,,,1,0.501771398994606,104,001,2019_Sep_05_0910,MusicAffectPsychophysiology2019,3.0.5,60.01793359292911,
To what extent did the music make you feel ,ANGRY,30MonoWAV/30MonoF3.wav,1,2,2,3,,,,,1,5,21,2,0,11,11,2,,,,,,,,,1,1.002252179023344,104,001,2019_Sep_05_0910,MusicAffectPsychophysiology2019,3.0.5,60.01793359292911,
,,30MonoWAV/30MonoF3.wav,1,2,2,3,,,,,1,5,21,2,,,,,,,,,,,,,,,104,001,2019_Sep_05_0910,MusicAffectPsychophysiology2019,3.0.5,60.01793359292911,
To what extent did the music make you feel ,ANXIOUS ,30MonoWAV/30MonoH3.wav,2,2,1,7,,,,,1,6,22,6,0,0,0,1,,,3,1.8026869600289501,3,1.1857103509828448,3,1.2699066509958357,1,1.3184735979884863,104,001,2019_Sep_05_0910,MusicAffectPsychophysiology2019,3.0.5,60.01793359292911,
To what extent did the music make you feel ,HAPPY,30MonoWAV/30MonoH3.wav,2,2,1,7,,,,,1,6,22,6,0,1,1,6,,,,,,,,,3,1.7193753169849515,104,001,2019_Sep_05_0910,MusicAffectPsychophysiology2019,3.0.5,60.01793359292911,
To what extent did the music make you feel ,FRUSTRATED,30MonoWAV/30MonoH3.wav,2,2,1,7,,,,,1,6,22,6,0,2,2,3,,,,,,,,,1,1.9691096270107664,104,001,2019_Sep_05_0910,MusicAffectPsychophysiology2019,3.0.5,60.01793359292911,
To what extent did the music make you feel ,SCARED,30MonoWAV/30MonoH3.wav,2,2,1,7,,,,,1,6,22,6,0,3,3,11,,,,,,,,,1,1.7541355259600095,104,001,2019_Sep_05_0910,MusicAffectPsychophysiology2019,3.0.5,60.01793359292911,
To what extent did the music make you feel ,ASHAMED,30MonoWAV/30MonoH3.wav,2,2,1,7,,,,,1,6,22,6,0,4,4,4,,,,,,,,,1,0.5693576919729821,104,001,2019_Sep_05_0910,MusicAffectPsychophysiology2019,3.0.5,60.01793359292911,
To what extent did the music make you feel ,ANGRY,30MonoWAV/30MonoH3.wav,2,2,1,7,,,,,1,6,22,6,0,5,5,2,,,,,,,,,1,0.6535005620098673,104,001,2019_Sep_05_0910,MusicAffectPsychophysiology2019,3.0.5,60.01793359292911,
To what extent did the music make you feel ,EXCITED,30MonoWAV/30MonoH3.wav,2,2,1,7,,,,,1,6,22,6,0,6,6,7,,,,,,,,,4,1.2362905769841745,104,001,2019_Sep_05_0910,MusicAffectPsychophysiology2019,3.0.5,60.01793359292911,
To what extent did the music make you feel ,SAD,30MonoWAV/30MonoH3.wav,2,2,1,7,,,,,1,6,22,6,0,7,7,0,,,,,,,,,1,0.9681703589740209,104,001,2019_Sep_05_0910,MusicAffectPsychophysiology2019,3.0.5,60.01793359292911,
To what extent did the music make you feel ,GUILTY,30MonoWAV/30MonoH3.wav,2,2,1,7,,,,,1,6,22,6,0,8,8,5,,,,,,,,,1,0.6018080159556121,104,001,2019_Sep_05_0910,MusicAffectPsychophysiology2019,3.0.5,60.01793359292911,
To what extent did the music make you feel ,ALERT,30MonoWAV/30MonoH3.wav,2,2,1,7,,,,,1,6,22,6,0,9,9,8,,,,,,,,,2,1.3696958820219152,104,001,2019_Sep_05_0910,MusicAffectPsychophysiology2019,3.0.5,60.01793359292911,
To what extent did the music make you feel ,TENDER,30MonoWAV/30MonoH3.wav,2,2,1,7,,,,,1,6,22,6,0,10,10,10,,,,,,,,,1,1.4529230569605716,104,001,2019_Sep_05_0910,MusicAffectPsychophysiology2019,3.0.5,60.01793359292911,
To what extent did the music make you feel ,ACTIVE,30MonoWAV/30MonoH3.wav,2,2,1,7,,,,,1,6,22,6,0,11,11,9,,,,,,,,,4,2.235446711012628,104,001,2019_Sep_05_0910,MusicAffectPsychophysiology2019,3.0.5,60.01793359292911,
,,30MonoWAV/30MonoH3.wav,2,2,1,7,,,,,1,6,22,6,,,,,,,,,,,,,,,104,001,2019_Sep_05_0910,MusicAffectPsychophysiology2019,3.0.5,60.01793359292911,
To what extent did the music make you feel ,SAD,30MonoWAV/30MonoS2.wav,1,1,3,10,,,,,1,7,23,9,0,0,0,0,,,1,3.3542513760039583,1,1.4858322759973817,3,1.150269217963796,3,1.5123771819635294,104,001,2019_Sep_05_0910,MusicAffectPsychophysiology2019,3.0.5,60.01793359292911,
To what extent did the music make you feel ,ASHAMED,30MonoWAV/30MonoS2.wav,1,1,3,10,,,,,1,7,23,9,0,1,1,4,,,,,,,,,1,0.9686462549725547,104,001,2019_Sep_05_0910,MusicAffectPsychophysiology2019,3.0.5,60.01793359292911,
To what extent did the music make you feel ,EXCITED,30MonoWAV/30MonoS2.wav,1,1,3,10,,,,,1,7,23,9,0,2,2,7,,,,,,,,,1,1.0695311639574356,104,001,2019_Sep_05_0910,MusicAffectPsychophysiology2019,3.0.5,60.01793359292911,
To what extent did the music make you feel ,ANGRY,30MonoWAV/30MonoS2.wav,1,1,3,10,,,,,1,7,23,9,0,3,3,2,,,,,,,,,1,0.8332600319990888,104,001,2019_Sep_05_0910,MusicAffectPsychophysiology2019,3.0.5,60.01793359292911,
To what extent did the music make you feel ,GUILTY,30MonoWAV/30MonoS2.wav,1,1,3,10,,,,,1,7,23,9,0,4,4,5,,,,,,,,,1,0.5204068430466577,104,001,2019_Sep_05_0910,MusicAffectPsychophysiology2019,3.0.5,60.01793359292911,
To what extent did the music make you feel ,SCARED,30MonoWAV/30MonoS2.wav,1,1,3,10,,,,,1,7,23,9,0,5,5,11,,,,,,,,,1,1.2955197260016575,104,001,2019_Sep_05_0910,MusicAffectPsychophysiology2019,3.0.5,60.01793359292911,
To what extent did the music make you feel ,TENDER,30MonoWAV/30MonoS2.wav,1,1,3,10,,,,,1,7,23,9,0,6,6,10,,,,,,,,,3,1.988594545982778,104,001,2019_Sep_05_0910,MusicAffectPsychophysiology2019,3.0.5,60.01793359292911,
To what extent did the music make you feel ,ANXIOUS ,30MonoWAV/30MonoS2.wav,1,1,3,10,,,,,1,7,23,9,0,7,7,1,,,,,,,,,2,1.2781636519939639,104,001,2019_Sep_05_0910,MusicAffectPsychophysiology2019,3.0.5,60.01793359292911,
To what extent did the music make you feel ,ACTIVE,30MonoWAV/30MonoS2.wav,1,1,3,10,,,,,1,7,23,9,0,8,8,9,,,,,,,,,1,1.1036370410001837,104,001,2019_Sep_05_0910,MusicAffectPsychophysiology2019,3.0.5,60.01793359292911,
To what extent did the music make you feel ,ALERT,30MonoWAV/30MonoS2.wav,1,1,3,10,,,,,1,7,23,9,0,9,9,8,,,,,,,,,1,1.5868666799506173,104,001,2019_Sep_05_0910,MusicAffectPsychophysiology2019,3.0.5,60.01793359292911,
To what extent did the music make you feel ,FRUSTRATED,30MonoWAV/30MonoS2.wav,1,1,3,10,,,,,1,7,23,9,0,10,10,3,,,,,,,,,1,2.5941031540278345,104,001,2019_Sep_05_0910,MusicAffectPsychophysiology2019,3.0.5,60.01793359292911,
To what extent did the music make you feel ,HAPPY,30MonoWAV/30MonoS2.wav,1,1,3,10,,,,,1,7,23,9,0,11,11,6,,,,,,,,,1,1.7872183159925044,104,001,2019_Sep_05_0910,MusicAffectPsychophysiology2019,3.0.5,60.01793359292911,
,,30MonoWAV/30MonoS2.wav,1,1,3,10,,,,,1,7,23,9,,,,,,,,,,,,,,,104,001,2019_Sep_05_0910,MusicAffectPsychophysiology2019,3.0.5,60.01793359292911,
To what extent did the music make you feel ,FRUSTRATED,30MonoWAV/30MonoT4.wav,2,1,4,16,,,,,1,8,24,15,0,0,0,3,,,2,2.44886669004336,3,1.5031793710077181,3,2.3698353829677217,1,1.0058740370441228,104,001,2019_Sep_05_0910,MusicAffectPsychophysiology2019,3.0.5,60.01793359292911,
To what extent did the music make you feel ,TENDER,30MonoWAV/30MonoT4.wav,2,1,4,16,,,,,1,8,24,15,0,1,1,10,,,,,,,,,3,1.5374522469937801,104,001,2019_Sep_05_0910,MusicAffectPsychophysiology2019,3.0.5,60.01793359292911,
To what extent did the music make you feel ,SAD,30MonoWAV/30MonoT4.wav,2,1,4,16,,,,,1,8,24,15,0,2,2,0,,,,,,,,,1,1.1218360250350088,104,001,2019_Sep_05_0910,MusicAffectPsychophysiology2019,3.0.5,60.01793359292911,
To what extent did the music make you feel ,SCARED,30MonoWAV/30MonoT4.wav,2,1,4,16,,,,,1,8,24,15,0,3,3,11,,,,,,,,,1,0.718744351004716,104,001,2019_Sep_05_0910,MusicAffectPsychophysiology2019,3.0.5,60.01793359292911,
To what extent did the music make you feel ,HAPPY,30MonoWAV/30MonoT4.wav,2,1,4,16,,,,,1,8,24,15,0,4,4,6,,,,,,,,,4,1.9990493569639511,104,001,2019_Sep_05_0910,MusicAffectPsychophysiology2019,3.0.5,60.01793359292911,
To what extent did the music make you feel ,ALERT,30MonoWAV/30MonoT4.wav,2,1,4,16,,,,,1,8,24,15,0,5,5,8,,,,,,,,,1,1.0516363760107197,104,001,2019_Sep_05_0910,MusicAffectPsychophysiology2019,3.0.5,60.01793359292911,
To what extent did the music make you feel ,ASHAMED,30MonoWAV/30MonoT4.wav,2,1,4,16,,,,,1,8,24,15,0,6,6,4,,,,,,,,,1,1.3514220789656974,104,001,2019_Sep_05_0910,MusicAffectPsychophysiology2019,3.0.5,60.01793359292911,
To what extent did the music make you feel ,ANXIOUS ,30MonoWAV/30MonoT4.wav,2,1,4,16,,,,,1,8,24,15,0,7,7,1,,,,,,,,,1,0.6016236320137978,104,001,2019_Sep_05_0910,MusicAffectPsychophysiology2019,3.0.5,60.01793359292911,
To what extent did the music make you feel ,ACTIVE,30MonoWAV/30MonoT4.wav,2,1,4,16,,,,,1,8,24,15,0,8,8,9,,,,,,,,,3,1.5856724560144357,104,001,2019_Sep_05_0910,MusicAffectPsychophysiology2019,3.0.5,60.01793359292911,
To what extent did the music make you feel ,ANGRY,30MonoWAV/30MonoT4.wav,2,1,4,16,,,,,1,8,24,15,0,9,9,2,,,,,,,,,1,1.1002684329869226,104,001,2019_Sep_05_0910,MusicAffectPsychophysiology2019,3.0.5,60.01793359292911,
To what extent did the music make you feel ,EXCITED,30MonoWAV/30MonoT4.wav,2,1,4,16,,,,,1,8,24,15,0,10,10,7,,,,,,,,,4,2.1702045609708875,104,001,2019_Sep_05_0910,MusicAffectPsychophysiology2019,3.0.5,60.01793359292911,
To what extent did the music make you feel ,GUILTY,30MonoWAV/30MonoT4.wav,2,1,4,16,,,,,1,8,24,15,0,11,11,5,,,,,,,,,1,1.5511654429719783,104,001,2019_Sep_05_0910,MusicAffectPsychophysiology2019,3.0.5,60.01793359292911,
,,30MonoWAV/30MonoT4.wav,2,1,4,16,,,,,1,8,24,15,,,,,,,,,,,,,,,104,001,2019_Sep_05_0910,MusicAffectPsychophysiology2019,3.0.5,60.01793359292911,
To what extent did the music make you feel ,ASHAMED,30MonoWAV/30MonoS4.wav,1,1,3,12,,,,,1,9,25,11,0,0,0,4,,,1,9.851309566001873,1,1.7695676619769074,4,1.4524772680015303,1,0.9479624940431677,104,001,2019_Sep_05_0910,MusicAffectPsychophysiology2019,3.0.5,60.01793359292911,
To what extent did the music make you feel ,HAPPY,30MonoWAV/30MonoS4.wav,1,1,3,12,,,,,1,9,25,11,0,1,1,6,,,,,,,,,1,1.269600305997301,104,001,2019_Sep_05_0910,MusicAffectPsychophysiology2019,3.0.5,60.01793359292911,
To what extent did the music make you feel ,ACTIVE,30MonoWAV/30MonoS4.wav,1,1,3,12,,,,,1,9,25,11,0,2,2,9,,,,,,,,,1,0.9852747280383483,104,001,2019_Sep_05_0910,MusicAffectPsychophysiology2019,3.0.5,60.01793359292911,
To what extent did the music make you feel ,SCARED,30MonoWAV/30MonoS4.wav,1,1,3,12,,,,,1,9,25,11,0,3,3,11,,,,,,,,,1,0.8176859070081264,104,001,2019_Sep_05_0910,MusicAffectPsychophysiology2019,3.0.5,60.01793359292911,
To what extent did the music make you feel ,ANXIOUS ,30MonoWAV/30MonoS4.wav,1,1,3,12,,,,,1,9,25,11,0,4,4,1,,,,,,,,,1,1.2862331319483928,104,001,2019_Sep_05_0910,MusicAffectPsychophysiology2019,3.0.5,60.01793359292911,
To what extent did the music make you feel ,FRUSTRATED,30MonoWAV/30MonoS4.wav,1,1,3,12,,,,,1,9,25,11,0,5,5,3,,,,,,,,,2,2.5301204649731517,104,001,2019_Sep_05_0910,MusicAffectPsychophysiology2019,3.0.5,60.01793359292911,
To what extent did the music make you feel ,SAD,30MonoWAV/30MonoS4.wav,1,1,3,12,,,,,1,9,25,11,0,6,6,0,,,,,,,,,3,1.0536595360026695,104,001,2019_Sep_05_0910,MusicAffectPsychophysiology2019,3.0.5,60.01793359292911,
To what extent did the music make you feel ,GUILTY,30MonoWAV/30MonoS4.wav,1,1,3,12,,,,,1,9,25,11,0,7,7,5,,,,,,,,,1,1.052855913003441,104,001,2019_Sep_05_0910,MusicAffectPsychophysiology2019,3.0.5,60.01793359292911,
To what extent did the music make you feel ,EXCITED,30MonoWAV/30MonoS4.wav,1,1,3,12,,,,,1,9,25,11,0,8,8,7,,,,,,,,,1,0.9524092850042507,104,001,2019_Sep_05_0910,MusicAffectPsychophysiology2019,3.0.5,60.01793359292911,
To what extent did the music make you feel ,TENDER,30MonoWAV/30MonoS4.wav,1,1,3,12,,,,,1,9,25,11,0,9,9,10,,,,,,,,,3,1.2835441599600017,104,001,2019_Sep_05_0910,MusicAffectPsychophysiology2019,3.0.5,60.01793359292911,
To what extent did the music make you feel ,ANGRY,30MonoWAV/30MonoS4.wav,1,1,3,12,,,,,1,9,25,11,0,10,10,2,,,,,,,,,1,1.1357904620235786,104,001,2019_Sep_05_0910,MusicAffectPsychophysiology2019,3.0.5,60.01793359292911,
To what extent did the music make you feel ,ALERT,30MonoWAV/30MonoS4.wav,1,1,3,12,,,,,1,9,25,11,0,11,11,8,,,,,,,,,1,1.992362973978743,104,001,2019_Sep_05_0910,MusicAffectPsychophysiology2019,3.0.5,60.01793359292911,
,,30MonoWAV/30MonoS4.wav,1,1,3,12,,,,,1,9,25,11,,,,,,,,,,,,,,,104,001,2019_Sep_05_0910,MusicAffectPsychophysiology2019,3.0.5,60.01793359292911,
To what extent did the music make you feel ,TENDER,30MonoWAV/30MonoS3.wav,1,1,3,11,,,,,1,10,26,10,0,0,0,10,,,3,2.8849301749723963,2,3.8852912489674054,3,1.9341376849915832,1,4.9732276310096495,104,001,2019_Sep_05_0910,MusicAffectPsychophysiology2019,3.0.5,60.01793359292911,
To what extent did the music make you feel ,ANXIOUS ,30MonoWAV/30MonoS3.wav,1,1,3,11,,,,,1,10,26,10,0,1,1,1,,,,,,,,,2,1.3528424570104107,104,001,2019_Sep_05_0910,MusicAffectPsychophysiology2019,3.0.5,60.01793359292911,
To what extent did the music make you feel ,ACTIVE,30MonoWAV/30MonoS3.wav,1,1,3,11,,,,,1,10,26,10,0,2,2,9,,,,,,,,,1,1.13597918296,104,001,2019_Sep_05_0910,MusicAffectPsychophysiology2019,3.0.5,60.01793359292911,
To what extent did the music make you feel ,ANGRY,30MonoWAV/30MonoS3.wav,1,1,3,11,,,,,1,10,26,10,0,3,3,2,,,,,,,,,1,0.6367956339963712,104,001,2019_Sep_05_0910,MusicAffectPsychophysiology2019,3.0.5,60.01793359292911,
To what extent did the music make you feel ,GUILTY,30MonoWAV/30MonoS3.wav,1,1,3,11,,,,,1,10,26,10,0,4,4,5,,,,,,,,,1,0.5213366579846479,104,001,2019_Sep_05_0910,MusicAffectPsychophysiology2019,3.0.5,60.01793359292911,
To what extent did the music make you feel ,ASHAMED,30MonoWAV/30MonoS3.wav,1,1,3,11,,,,,1,10,26,10,0,5,5,4,,,,,,,,,1,1.1365740810288116,104,001,2019_Sep_05_0910,MusicAffectPsychophysiology2019,3.0.5,60.01793359292911,
To what extent did the music make you feel ,SAD,30MonoWAV/30MonoS3.wav,1,1,3,11,,,,,1,10,26,10,0,6,6,0,,,,,,,,,3,1.4185651369625703,104,001,2019_Sep_05_0910,MusicAffectPsychophysiology2019,3.0.5,60.01793359292911,
To what extent did the music make you feel ,SCARED,30MonoWAV/30MonoS3.wav,1,1,3,11,,,,,1,10,26,10,0,7,7,11,,,,,,,,,1,1.0520742950029671,104,001,2019_Sep_05_0910,MusicAffectPsychophysiology2019,3.0.5,60.01793359292911,
To what extent did the music make you feel ,EXCITED,30MonoWAV/30MonoS3.wav,1,1,3,11,,,,,1,10,26,10,0,8,8,7,,,,,,,,,2,2.05040970799746,104,001,2019_Sep_05_0910,MusicAffectPsychophysiology2019,3.0.5,60.01793359292911,
To what extent did the music make you feel ,FRUSTRATED,30MonoWAV/30MonoS3.wav,1,1,3,11,,,,,1,10,26,10,0,9,9,3,,,,,,,,,1,0.6685454010148533,104,001,2019_Sep_05_0910,MusicAffectPsychophysiology2019,3.0.5,60.01793359292911,
To what extent did the music make you feel ,ALERT,30MonoWAV/30MonoS3.wav,1,1,3,11,,,,,1,10,26,10,0,10,10,8,,,,,,,,,1,1.33393010601867,104,001,2019_Sep_05_0910,MusicAffectPsychophysiology2019,3.0.5,60.01793359292911,
To what extent did the music make you feel ,HAPPY,30MonoWAV/30MonoS3.wav,1,1,3,11,,,,,1,10,26,10,0,11,11,6,,,,,,,,,1,1.4032336869859137,104,001,2019_Sep_05_0910,MusicAffectPsychophysiology2019,3.0.5,60.01793359292911,
,,30MonoWAV/30MonoS3.wav,1,1,3,11,,,,,1,10,26,10,,,,,,,,,,,,,,,104,001,2019_Sep_05_0910,MusicAffectPsychophysiology2019,3.0.5,60.01793359292911,
To what extent did the music make you feel ,ANGRY,30MonoWAV/30MonoT3.wav,2,1,4,15,,,,,1,11,27,14,0,0,0,2,,,1,3.5707280169590376,1,2.1517547470284626,2,1.719558065989986,1,0.9692923090187833,104,001,2019_Sep_05_0910,MusicAffectPsychophysiology2019,3.0.5,60.01793359292911,
To what extent did the music make you feel ,SAD,30MonoWAV/30MonoT3.wav,2,1,4,15,,,,,1,11,27,14,0,1,1,0,,,,,,,,,1,1.7025726470164955,104,001,2019_Sep_05_0910,MusicAffectPsychophysiology2019,3.0.5,60.01793359292911,
To what extent did the music make you feel ,FRUSTRATED,30MonoWAV/30MonoT3.wav,2,1,4,15,,,,,1,11,27,14,0,2,2,3,,,,,,,,,1,0.5842051189974882,104,001,2019_Sep_05_0910,MusicAffectPsychophysiology2019,3.0.5,60.01793359292911,
To what extent did the music make you feel ,ACTIVE,30MonoWAV/30MonoT3.wav,2,1,4,15,,,,,1,11,27,14,0,3,3,9,,,,,,,,,1,0.9499450540170074,104,001,2019_Sep_05_0910,MusicAffectPsychophysiology2019,3.0.5,60.01793359292911,
To what extent did the music make you feel ,GUILTY,30MonoWAV/30MonoT3.wav,2,1,4,15,,,,,1,11,27,14,0,4,4,5,,,,,,,,,1,0.5166287900065072,104,001,2019_Sep_05_0910,MusicAffectPsychophysiology2019,3.0.5,60.01793359292911,
To what extent did the music make you feel ,TENDER,30MonoWAV/30MonoT3.wav,2,1,4,15,,,,,1,11,27,14,0,5,5,10,,,,,,,,,4,1.999749006005004,104,001,2019_Sep_05_0910,MusicAffectPsychophysiology2019,3.0.5,60.01793359292911,
To what extent did the music make you feel ,ANXIOUS ,30MonoWAV/30MonoT3.wav,2,1,4,15,,,,,1,11,27,14,0,6,6,1,,,,,,,,,1,3.3172223729779944,104,001,2019_Sep_05_0910,MusicAffectPsychophysiology2019,3.0.5,60.01793359292911,
To what extent did the music make you feel ,EXCITED,30MonoWAV/30MonoT3.wav,2,1,4,15,,,,,1,11,27,14,0,7,7,7,,,,,,,,,1,1.2526016290066764,104,001,2019_Sep_05_0910,MusicAffectPsychophysiology2019,3.0.5,60.01793359292911,
To what extent did the music make you feel ,HAPPY,30MonoWAV/30MonoT3.wav,2,1,4,15,,,,,1,11,27,14,0,8,8,6,,,,,,,,,3,1.1682017979910597,104,001,2019_Sep_05_0910,MusicAffectPsychophysiology2019,3.0.5,60.01793359292911,
To what extent did the music make you feel ,SCARED,30MonoWAV/30MonoT3.wav,2,1,4,15,,,,,1,11,27,14,0,9,9,11,,,,,,,,,1,1.0484885170008056,104,001,2019_Sep_05_0910,MusicAffectPsychophysiology2019,3.0.5,60.01793359292911,
To what extent did the music make you feel ,ASHAMED,30MonoWAV/30MonoT3.wav,2,1,4,15,,,,,1,11,27,14,0,10,10,4,,,,,,,,,1,0.45258306595496833,104,001,2019_Sep_05_0910,MusicAffectPsychophysiology2019,3.0.5,60.01793359292911,
To what extent did the music make you feel ,ALERT,30MonoWAV/30MonoT3.wav,2,1,4,15,,,,,1,11,27,14,0,11,11,8,,,,,,,,,1,0.7854742750059813,104,001,2019_Sep_05_0910,MusicAffectPsychophysiology2019,3.0.5,60.01793359292911,
,,30MonoWAV/30MonoT3.wav,2,1,4,15,,,,,1,11,27,14,,,,,,,,,,,,,,,104,001,2019_Sep_05_0910,MusicAffectPsychophysiology2019,3.0.5,60.01793359292911,
To what extent did the music make you feel ,ASHAMED,30MonoWAV/30MonoF1.wav,1,2,2,1,,,,,1,12,28,0,0,0,0,4,,,3,12.598726962984074,1,1.268602128024213,1,1.235957596974913,1,1.0765455110231414,104,001,2019_Sep_05_0910,MusicAffectPsychophysiology2019,3.0.5,60.01793359292911,
To what extent did the music make you feel ,TENDER,30MonoWAV/30MonoF1.wav,1,2,2,1,,,,,1,12,28,0,0,1,1,10,,,,,,,,,1,0.5417689310270362,104,001,2019_Sep_05_0910,MusicAffectPsychophysiology2019,3.0.5,60.01793359292911,
To what extent did the music make you feel ,FRUSTRATED,30MonoWAV/30MonoF1.wav,1,2,2,1,,,,,1,12,28,0,0,2,2,3,,,,,,,,,1,1.1494146139593795,104,001,2019_Sep_05_0910,MusicAffectPsychophysiology2019,3.0.5,60.01793359292911,
To what extent did the music make you feel ,ANGRY,30MonoWAV/30MonoF1.wav,1,2,2,1,,,,,1,12,28,0,0,3,3,2,,,,,,,,,2,1.3704354820074514,104,001,2019_Sep_05_0910,MusicAffectPsychophysiology2019,3.0.5,60.01793359292911,
To what extent did the music make you feel ,EXCITED,30MonoWAV/30MonoF1.wav,1,2,2,1,,,,,1,12,28,0,0,4,4,7,,,,,,,,,3,1.3189327950240113,104,001,2019_Sep_05_0910,MusicAffectPsychophysiology2019,3.0.5,60.01793359292911,
To what extent did the music make you feel ,GUILTY,30MonoWAV/30MonoF1.wav,1,2,2,1,,,,,1,12,28,0,0,5,5,5,,,,,,,,,1,1.4865520389867015,104,001,2019_Sep_05_0910,MusicAffectPsychophysiology2019,3.0.5,60.01793359292911,
To what extent did the music make you feel ,ANXIOUS ,30MonoWAV/30MonoF1.wav,1,2,2,1,,,,,1,12,28,0,0,6,6,1,,,,,,,,,4,2.934821972041391,104,001,2019_Sep_05_0910,MusicAffectPsychophysiology2019,3.0.5,60.01793359292911,
To what extent did the music make you feel ,HAPPY,30MonoWAV/30MonoF1.wav,1,2,2,1,,,,,1,12,28,0,0,7,7,6,,,,,,,,,1,0.7356522069894709,104,001,2019_Sep_05_0910,MusicAffectPsychophysiology2019,3.0.5,60.01793359292911,
To what extent did the music make you feel ,ALERT,30MonoWAV/30MonoF1.wav,1,2,2,1,,,,,1,12,28,0,0,8,8,8,,,,,,,,,4,1.235329216986429,104,001,2019_Sep_05_0910,MusicAffectPsychophysiology2019,3.0.5,60.01793359292911,
To what extent did the music make you feel ,SCARED,30MonoWAV/30MonoF1.wav,1,2,2,1,,,,,1,12,28,0,0,9,9,11,,,,,,,,,1,0.5517665409715846,104,001,2019_Sep_05_0910,MusicAffectPsychophysiology2019,3.0.5,60.01793359292911,
To what extent did the music make you feel ,ACTIVE,30MonoWAV/30MonoF1.wav,1,2,2,1,,,,,1,12,28,0,0,10,10,9,,,,,,,,,2,1.836104632995557,104,001,2019_Sep_05_0910,MusicAffectPsychophysiology2019,3.0.5,60.01793359292911,
To what extent did the music make you feel ,SAD,30MonoWAV/30MonoF1.wav,1,2,2,1,,,,,1,12,28,0,0,11,11,0,,,,,,,,,1,0.6498436910333112,104,001,2019_Sep_05_0910,MusicAffectPsychophysiology2019,3.0.5,60.01793359292911,
,,30MonoWAV/30MonoF1.wav,1,2,2,1,,,,,1,12,28,0,,,,,,,,,,,,,,,104,001,2019_Sep_05_0910,MusicAffectPsychophysiology2019,3.0.5,60.01793359292911,
To what extent did the music make you feel ,SAD,30MonoWAV/30MonoT1.wav,2,1,4,13,,,,,1,13,29,12,0,0,0,0,,,3,3.720509850012604,3,1.9022237909957767,3,1.23531559901312,1,0.6861134839709848,104,001,2019_Sep_05_0910,MusicAffectPsychophysiology2019,3.0.5,60.01793359292911,
To what extent did the music make you feel ,FRUSTRATED,30MonoWAV/30MonoT1.wav,2,1,4,13,,,,,1,13,29,12,0,1,1,3,,,,,,,,,1,0.985143543977756,104,001,2019_Sep_05_0910,MusicAffectPsychophysiology2019,3.0.5,60.01793359292911,
To what extent did the music make you feel ,ALERT,30MonoWAV/30MonoT1.wav,2,1,4,13,,,,,1,13,29,12,0,2,2,8,,,,,,,,,1,0.6358126680133864,104,001,2019_Sep_05_0910,MusicAffectPsychophysiology2019,3.0.5,60.01793359292911,
To what extent did the music make you feel ,TENDER,30MonoWAV/30MonoT1.wav,2,1,4,13,,,,,1,13,29,12,0,3,3,10,,,,,,,,,4,1.186851835984271,104,001,2019_Sep_05_0910,MusicAffectPsychophysiology2019,3.0.5,60.01793359292911,
To what extent did the music make you feel ,ANXIOUS ,30MonoWAV/30MonoT1.wav,2,1,4,13,,,,,1,13,29,12,0,4,4,1,,,,,,,,,1,0.7190237200120464,104,001,2019_Sep_05_0910,MusicAffectPsychophysiology2019,3.0.5,60.01793359292911,
To what extent did the music make you feel ,GUILTY,30MonoWAV/30MonoT1.wav,2,1,4,13,,,,,1,13,29,12,0,5,5,5,,,,,,,,,1,0.5868391790427268,104,001,2019_Sep_05_0910,MusicAffectPsychophysiology2019,3.0.5,60.01793359292911,
To what extent did the music make you feel ,HAPPY,30MonoWAV/30MonoT1.wav,2,1,4,13,,,,,1,13,29,12,0,6,6,6,,,,,,,,,4,0.5853275679983199,104,001,2019_Sep_05_0910,MusicAffectPsychophysiology2019,3.0.5,60.01793359292911,
To what extent did the music make you feel ,ANGRY,30MonoWAV/30MonoT1.wav,2,1,4,13,,,,,1,13,29,12,0,7,7,2,,,,,,,,,1,1.336635451996699,104,001,2019_Sep_05_0910,MusicAffectPsychophysiology2019,3.0.5,60.01793359292911,
To what extent did the music make you feel ,ASHAMED,30MonoWAV/30MonoT1.wav,2,1,4,13,,,,,1,13,29,12,0,8,8,4,,,,,,,,,1,0.5700191060313955,104,001,2019_Sep_05_0910,MusicAffectPsychophysiology2019,3.0.5,60.01793359292911,
To what extent did the music make you feel ,SCARED,30MonoWAV/30MonoT1.wav,2,1,4,13,,,,,1,13,29,12,0,9,9,11,,,,,,,,,1,0.7016808309708722,104,001,2019_Sep_05_0910,MusicAffectPsychophysiology2019,3.0.5,60.01793359292911,
To what extent did the music make you feel ,ACTIVE,30MonoWAV/30MonoT1.wav,2,1,4,13,,,,,1,13,29,12,0,10,10,9,,,,,,,,,2,1.2363829420064576,104,001,2019_Sep_05_0910,MusicAffectPsychophysiology2019,3.0.5,60.01793359292911,
To what extent did the music make you feel ,EXCITED,30MonoWAV/30MonoT1.wav,2,1,4,13,,,,,1,13,29,12,0,11,11,7,,,,,,,,,2,1.3849928710260428,104,001,2019_Sep_05_0910,MusicAffectPsychophysiology2019,3.0.5,60.01793359292911,
,,30MonoWAV/30MonoT1.wav,2,1,4,13,,,,,1,13,29,12,,,,,,,,,,,,,,,104,001,2019_Sep_05_0910,MusicAffectPsychophysiology2019,3.0.5,60.01793359292911,
To what extent did the music make you feel ,ASHAMED,30MonoWAV/30MonoH2.wav,2,2,1,6,,,,,1,14,30,5,0,0,0,4,,,2,4.103160933009349,1,3.1996116419904865,2,0.0026603990118019283,1,1.3798859620001167,104,001,2019_Sep_05_0910,MusicAffectPsychophysiology2019,3.0.5,60.01793359292911,
To what extent did the music make you feel ,HAPPY,30MonoWAV/30MonoH2.wav,2,2,1,6,,,,,1,14,30,5,0,1,1,6,,,,,,,,,3,1.2345131339970976,104,001,2019_Sep_05_0910,MusicAffectPsychophysiology2019,3.0.5,60.01793359292911,
To what extent did the music make you feel ,FRUSTRATED,30MonoWAV/30MonoH2.wav,2,2,1,6,,,,,1,14,30,5,0,2,2,3,,,,,,,,,1,0.6201743719866499,104,001,2019_Sep_05_0910,MusicAffectPsychophysiology2019,3.0.5,60.01793359292911,
To what extent did the music make you feel ,TENDER,30MonoWAV/30MonoH2.wav,2,2,1,6,,,,,1,14,30,5,0,3,3,10,,,,,,,,,1,0.5043896909919567,104,001,2019_Sep_05_0910,MusicAffectPsychophysiology2019,3.0.5,60.01793359292911,
To what extent did the music make you feel ,ANGRY,30MonoWAV/30MonoH2.wav,2,2,1,6,,,,,1,14,30,5,0,4,4,2,,,,,,,,,1,0.48569685296388343,104,001,2019_Sep_05_0910,MusicAffectPsychophysiology2019,3.0.5,60.01793359292911,
To what extent did the music make you feel ,EXCITED,30MonoWAV/30MonoH2.wav,2,2,1,6,,,,,1,14,30,5,0,5,5,7,,,,,,,,,1,0.43610613798955455,104,001,2019_Sep_05_0910,MusicAffectPsychophysiology2019,3.0.5,60.01793359292911,
To what extent did the music make you feel ,ACTIVE,30MonoWAV/30MonoH2.wav,2,2,1,6,,,,,1,14,30,5,0,6,6,9,,,,,,,,,3,1.3687293630209751,104,001,2019_Sep_05_0910,MusicAffectPsychophysiology2019,3.0.5,60.01793359292911,
To what extent did the music make you feel ,SAD,30MonoWAV/30MonoH2.wav,2,2,1,6,,,,,1,14,30,5,0,7,7,0,,,,,,,,,1,0.8167081919964403,104,001,2019_Sep_05_0910,MusicAffectPsychophysiology2019,3.0.5,60.01793359292911,
To what extent did the music make you feel ,ANXIOUS ,30MonoWAV/30MonoH2.wav,2,2,1,6,,,,,1,14,30,5,0,8,8,1,,,,,,,,,1,1.2352748530101962,104,001,2019_Sep_05_0910,MusicAffectPsychophysiology2019,3.0.5,60.01793359292911,
To what extent did the music make you feel ,SCARED,30MonoWAV/30MonoH2.wav,2,2,1,6,,,,,1,14,30,5,0,9,9,11,,,,,,,,,1,0.7026970759616233,104,001,2019_Sep_05_0910,MusicAffectPsychophysiology2019,3.0.5,60.01793359292911,
To what extent did the music make you feel ,GUILTY,30MonoWAV/30MonoH2.wav,2,2,1,6,,,,,1,14,30,5,0,10,10,5,,,,,,,,,1,0.4684446669998579,104,001,2019_Sep_05_0910,MusicAffectPsychophysiology2019,3.0.5,60.01793359292911,
To what extent did the music make you feel ,ALERT,30MonoWAV/30MonoH2.wav,2,2,1,6,,,,,1,14,30,5,0,11,11,8,,,,,,,,,1,0.6186619820073247,104,001,2019_Sep_05_0910,MusicAffectPsychophysiology2019,3.0.5,60.01793359292911,
,,30MonoWAV/30MonoH2.wav,2,2,1,6,,,,,1,14,30,5,,,,,,,,,,,,,,,104,001,2019_Sep_05_0910,MusicAffectPsychophysiology2019,3.0.5,60.01793359292911,
To what extent did the music make you feel ,ASHAMED,30MonoWAV/30MonoF4.wav,1,2,2,4,,,,,1,15,31,3,0,0,0,4,,,3,6.11875315499492,1,2.0690298989648,2,1.1693680940079503,1,0.9899440230219625,104,001,2019_Sep_05_0910,MusicAffectPsychophysiology2019,3.0.5,60.01793359292911,
To what extent did the music make you feel ,SCARED,30MonoWAV/30MonoF4.wav,1,2,2,4,,,,,1,15,31,3,0,1,1,11,,,,,,,,,1,0.6527371010161005,104,001,2019_Sep_05_0910,MusicAffectPsychophysiology2019,3.0.5,60.01793359292911,
To what extent did the music make you feel ,ACTIVE,30MonoWAV/30MonoF4.wav,1,2,2,4,,,,,1,15,31,3,0,2,2,9,,,,,,,,,1,1.3193491220008582,104,001,2019_Sep_05_0910,MusicAffectPsychophysiology2019,3.0.5,60.01793359292911,
To what extent did the music make you feel ,ANXIOUS ,30MonoWAV/30MonoF4.wav,1,2,2,4,,,,,1,15,31,3,0,3,3,1,,,,,,,,,3,0.8504872980411164,104,001,2019_Sep_05_0910,MusicAffectPsychophysiology2019,3.0.5,60.01793359292911,
To what extent did the music make you feel ,HAPPY,30MonoWAV/30MonoF4.wav,1,2,2,4,,,,,1,15,31,3,0,4,4,6,,,,,,,,,1,0.636819414969068,104,001,2019_Sep_05_0910,MusicAffectPsychophysiology2019,3.0.5,60.01793359292911,
To what extent did the music make you feel ,ALERT,30MonoWAV/30MonoF4.wav,1,2,2,4,,,,,1,15,31,3,0,5,5,8,,,,,,,,,3,1.0524266730062664,104,001,2019_Sep_05_0910,MusicAffectPsychophysiology2019,3.0.5,60.01793359292911,
To what extent did the music make you feel ,TENDER,30MonoWAV/30MonoF4.wav,1,2,2,4,,,,,1,15,31,3,0,6,6,10,,,,,,,,,1,0.6023569550015964,104,001,2019_Sep_05_0910,MusicAffectPsychophysiology2019,3.0.5,60.01793359292911,
To what extent did the music make you feel ,ANGRY,30MonoWAV/30MonoF4.wav,1,2,2,4,,,,,1,15,31,3,0,7,7,2,,,,,,,,,1,0.7354723699972965,104,001,2019_Sep_05_0910,MusicAffectPsychophysiology2019,3.0.5,60.01793359292911,
To what extent did the music make you feel ,FRUSTRATED,30MonoWAV/30MonoF4.wav,1,2,2,4,,,,,1,15,31,3,0,8,8,3,,,,,,,,,1,0.6548862759955227,104,001,2019_Sep_05_0910,MusicAffectPsychophysiology2019,3.0.5,60.01793359292911,
To what extent did the music make you feel ,EXCITED,30MonoWAV/30MonoF4.wav,1,2,2,4,,,,,1,15,31,3,0,9,9,7,,,,,,,,,2,1.186066955968272,104,001,2019_Sep_05_0910,MusicAffectPsychophysiology2019,3.0.5,60.01793359292911,
To what extent did the music make you feel ,GUILTY,30MonoWAV/30MonoF4.wav,1,2,2,4,,,,,1,15,31,3,0,10,10,5,,,,,,,,,1,0.5842476499965414,104,001,2019_Sep_05_0910,MusicAffectPsychophysiology2019,3.0.5,60.01793359292911,
To what extent did the music make you feel ,SAD,30MonoWAV/30MonoF4.wav,1,2,2,4,,,,,1,15,31,3,0,11,11,0,,,,,,,,,1,0.5686503970064223,104,001,2019_Sep_05_0910,MusicAffectPsychophysiology2019,3.0.5,60.01793359292911,
,,30MonoWAV/30MonoF4.wav,1,2,2,4,,,,,1,15,31,3,,,,,,,,,,,,,,,104,001,2019_Sep_05_0910,MusicAffectPsychophysiology2019,3.0.5,60.01793359292911,
