Instruction,Word,song,valence,arousal,affectcat,songmark,pracwords.thisRepN,pracwords.thisTrialN,pracwords.thisN,pracwords.thisIndex,songtrials.thisRepN,songtrials.thisTrialN,songtrials.thisN,songtrials.thisIndex,words.thisRepN,words.thisTrialN,words.thisN,words.thisIndex,begin.keys,begin.rt,arousalkey.keys,arousalkey.rt,valencekey.keys,valencekey.rt,likekey.keys,likekey.rt,WordResponse.keys,WordResponse.rt,key_resp_2.keys,key_resp_2.rt,participant,session,date,expName,psychopyVersion,frameRate,
,,,,,,,,,,,,,,,,,,,space,18.378929707047064,,,,,,,,,,,105,001,2019_Sep_05_1012,MusicAffectPsychophysiology2019,3.0.5,60.022539662431086,
,,,,,,,,,,,,,,,,,,,,,3,5.335799893015064,,,,,,,,,105,001,2019_Sep_05_1012,MusicAffectPsychophysiology2019,3.0.5,60.022539662431086,
,,,,,,,,,,,,,,,,,,,,,,,3,5.152283931034617,,,,,,,105,001,2019_Sep_05_1012,MusicAffectPsychophysiology2019,3.0.5,60.022539662431086,
,,,,,,,,,,,,,,,,,,,,,,,,,2,5.186906569986604,,,,,105,001,2019_Sep_05_1012,MusicAffectPsychophysiology2019,3.0.5,60.022539662431086,
To what extent did the music make you feel ,ASHAMED,,,,,,0,0,0,4,,,,,,,,,,,,,,,,,1,4.36917523201555,,,105,001,2019_Sep_05_1012,MusicAffectPsychophysiology2019,3.0.5,60.022539662431086,
To what extent did the music make you feel ,FRUSTRATED,,,,,,0,1,1,3,,,,,,,,,,,,,,,,,1,3.169570053985808,,,105,001,2019_Sep_05_1012,MusicAffectPsychophysiology2019,3.0.5,60.022539662431086,
To what extent did the music make you feel ,HAPPY,,,,,,0,2,2,6,,,,,,,,,,,,,,,,,2,3.0672179789980873,,,105,001,2019_Sep_05_1012,MusicAffectPsychophysiology2019,3.0.5,60.022539662431086,
To what extent did the music make you feel ,SAD,,,,,,0,3,3,0,,,,,,,,,,,,,,,,,1,2.8008218689938076,,,105,001,2019_Sep_05_1012,MusicAffectPsychophysiology2019,3.0.5,60.022539662431086,
To what extent did the music make you feel ,SCARED,,,,,,0,4,4,11,,,,,,,,,,,,,,,,,1,2.5027629760443233,,,105,001,2019_Sep_05_1012,MusicAffectPsychophysiology2019,3.0.5,60.022539662431086,
To what extent did the music make you feel ,ACTIVE,,,,,,0,5,5,9,,,,,,,,,,,,,,,,,3,2.768653347971849,,,105,001,2019_Sep_05_1012,MusicAffectPsychophysiology2019,3.0.5,60.022539662431086,
To what extent did the music make you feel ,ANGRY,,,,,,0,6,6,2,,,,,,,,,,,,,,,,,1,2.402474878996145,,,105,001,2019_Sep_05_1012,MusicAffectPsychophysiology2019,3.0.5,60.022539662431086,
To what extent did the music make you feel ,GUILTY,,,,,,0,7,7,5,,,,,,,,,,,,,,,,,1,2.0528580929967575,,,105,001,2019_Sep_05_1012,MusicAffectPsychophysiology2019,3.0.5,60.022539662431086,
To what extent did the music make you feel ,ALERT,,,,,,0,8,8,8,,,,,,,,,,,,,,,,,3,2.2662443059962243,,,105,001,2019_Sep_05_1012,MusicAffectPsychophysiology2019,3.0.5,60.022539662431086,
To what extent did the music make you feel ,EXCITED,,,,,,0,9,9,7,,,,,,,,,,,,,,,,,2,2.652174326009117,,,105,001,2019_Sep_05_1012,MusicAffectPsychophysiology2019,3.0.5,60.022539662431086,
To what extent did the music make you feel ,ANXIOUS ,,,,,,0,10,10,1,,,,,,,,,,,,,,,,,1,1.6356456050416455,,,105,001,2019_Sep_05_1012,MusicAffectPsychophysiology2019,3.0.5,60.022539662431086,
To what extent did the music make you feel ,TENDER,,,,,,0,11,11,10,,,,,,,,,,,,,,,,,1,2.2190815320354886,,,105,001,2019_Sep_05_1012,MusicAffectPsychophysiology2019,3.0.5,60.022539662431086,
To what extent did the music make you feel ,EXCITED,30MonoWAV/30MonoT1.wav,2,1,4,13,,,,,0,0,0,12,0,0,0,7,,,1,7.151846149994526,4,3.5190483719925396,4,3.036153998982627,1,3.2416028439765796,,,105,001,2019_Sep_05_1012,MusicAffectPsychophysiology2019,3.0.5,60.022539662431086,
To what extent did the music make you feel ,ANXIOUS ,30MonoWAV/30MonoT1.wav,2,1,4,13,,,,,0,0,0,12,0,1,1,1,,,,,,,,,1,1.4360228480072692,,,105,001,2019_Sep_05_1012,MusicAffectPsychophysiology2019,3.0.5,60.022539662431086,
To what extent did the music make you feel ,FRUSTRATED,30MonoWAV/30MonoT1.wav,2,1,4,13,,,,,0,0,0,12,0,2,2,3,,,,,,,,,1,1.2108352219802327,,,105,001,2019_Sep_05_1012,MusicAffectPsychophysiology2019,3.0.5,60.022539662431086,
To what extent did the music make you feel ,GUILTY,30MonoWAV/30MonoT1.wav,2,1,4,13,,,,,0,0,0,12,0,3,3,5,,,,,,,,,1,1.002243932976853,,,105,001,2019_Sep_05_1012,MusicAffectPsychophysiology2019,3.0.5,60.022539662431086,
To what extent did the music make you feel ,SCARED,30MonoWAV/30MonoT1.wav,2,1,4,13,,,,,0,0,0,12,0,4,4,11,,,,,,,,,1,1.3361553380382247,,,105,001,2019_Sep_05_1012,MusicAffectPsychophysiology2019,3.0.5,60.022539662431086,
To what extent did the music make you feel ,ACTIVE,30MonoWAV/30MonoT1.wav,2,1,4,13,,,,,0,0,0,12,0,5,5,9,,,,,,,,,1,2.653532566037029,,,105,001,2019_Sep_05_1012,MusicAffectPsychophysiology2019,3.0.5,60.022539662431086,
To what extent did the music make you feel ,HAPPY,30MonoWAV/30MonoT1.wav,2,1,4,13,,,,,0,0,0,12,0,6,6,6,,,,,,,,,3,1.9166846919688396,,,105,001,2019_Sep_05_1012,MusicAffectPsychophysiology2019,3.0.5,60.022539662431086,
To what extent did the music make you feel ,ANGRY,30MonoWAV/30MonoT1.wav,2,1,4,13,,,,,0,0,0,12,0,7,7,2,,,,,,,,,1,1.1019847560091875,,,105,001,2019_Sep_05_1012,MusicAffectPsychophysiology2019,3.0.5,60.022539662431086,
To what extent did the music make you feel ,ASHAMED,30MonoWAV/30MonoT1.wav,2,1,4,13,,,,,0,0,0,12,0,8,8,4,,,,,,,,,1,1.1691533629782498,,,105,001,2019_Sep_05_1012,MusicAffectPsychophysiology2019,3.0.5,60.022539662431086,
To what extent did the music make you feel ,ALERT,30MonoWAV/30MonoT1.wav,2,1,4,13,,,,,0,0,0,12,0,9,9,8,,,,,,,,,1,2.1858729500090703,,,105,001,2019_Sep_05_1012,MusicAffectPsychophysiology2019,3.0.5,60.022539662431086,
To what extent did the music make you feel ,TENDER,30MonoWAV/30MonoT1.wav,2,1,4,13,,,,,0,0,0,12,0,10,10,10,,,,,,,,,2,1.49998957302887,,,105,001,2019_Sep_05_1012,MusicAffectPsychophysiology2019,3.0.5,60.022539662431086,
To what extent did the music make you feel ,SAD,30MonoWAV/30MonoT1.wav,2,1,4,13,,,,,0,0,0,12,0,11,11,0,,,,,,,,,1,2.9355964239803143,,,105,001,2019_Sep_05_1012,MusicAffectPsychophysiology2019,3.0.5,60.022539662431086,
,,30MonoWAV/30MonoT1.wav,2,1,4,13,,,,,0,0,0,12,,,,,,,,,,,,,,,,,105,001,2019_Sep_05_1012,MusicAffectPsychophysiology2019,3.0.5,60.022539662431086,
To what extent did the music make you feel ,ACTIVE,30MonoWAV/30MonoH4.wav,2,2,1,8,,,,,0,1,1,7,0,0,0,9,,,4,5.785629868041724,3,2.8201465889578685,2,3.1520398370339535,4,2.4189803119516,,,105,001,2019_Sep_05_1012,MusicAffectPsychophysiology2019,3.0.5,60.022539662431086,
To what extent did the music make you feel ,ASHAMED,30MonoWAV/30MonoH4.wav,2,2,1,8,,,,,0,1,1,7,0,1,1,4,,,,,,,,,1,1.300170277012512,,,105,001,2019_Sep_05_1012,MusicAffectPsychophysiology2019,3.0.5,60.022539662431086,
To what extent did the music make you feel ,ANGRY,30MonoWAV/30MonoH4.wav,2,2,1,8,,,,,0,1,1,7,0,2,2,2,,,,,,,,,1,1.1863292309571989,,,105,001,2019_Sep_05_1012,MusicAffectPsychophysiology2019,3.0.5,60.022539662431086,
To what extent did the music make you feel ,EXCITED,30MonoWAV/30MonoH4.wav,2,2,1,8,,,,,0,1,1,7,0,3,3,7,,,,,,,,,2,2.5025550330174156,,,105,001,2019_Sep_05_1012,MusicAffectPsychophysiology2019,3.0.5,60.022539662431086,
To what extent did the music make you feel ,GUILTY,30MonoWAV/30MonoH4.wav,2,2,1,8,,,,,0,1,1,7,0,4,4,5,,,,,,,,,1,1.252291927987244,,,105,001,2019_Sep_05_1012,MusicAffectPsychophysiology2019,3.0.5,60.022539662431086,
To what extent did the music make you feel ,TENDER,30MonoWAV/30MonoH4.wav,2,2,1,8,,,,,0,1,1,7,0,5,5,10,,,,,,,,,1,2.136890518013388,,,105,001,2019_Sep_05_1012,MusicAffectPsychophysiology2019,3.0.5,60.022539662431086,
To what extent did the music make you feel ,SAD,30MonoWAV/30MonoH4.wav,2,2,1,8,,,,,0,1,1,7,0,6,6,0,,,,,,,,,1,1.1023101710015908,,,105,001,2019_Sep_05_1012,MusicAffectPsychophysiology2019,3.0.5,60.022539662431086,
To what extent did the music make you feel ,HAPPY,30MonoWAV/30MonoH4.wav,2,2,1,8,,,,,0,1,1,7,0,7,7,6,,,,,,,,,2,2.3667627300019376,,,105,001,2019_Sep_05_1012,MusicAffectPsychophysiology2019,3.0.5,60.022539662431086,
To what extent did the music make you feel ,FRUSTRATED,30MonoWAV/30MonoH4.wav,2,2,1,8,,,,,0,1,1,7,0,8,8,3,,,,,,,,,1,1.4520039799972437,,,105,001,2019_Sep_05_1012,MusicAffectPsychophysiology2019,3.0.5,60.022539662431086,
To what extent did the music make you feel ,ANXIOUS ,30MonoWAV/30MonoH4.wav,2,2,1,8,,,,,0,1,1,7,0,9,9,1,,,,,,,,,1,1.1516239059856161,,,105,001,2019_Sep_05_1012,MusicAffectPsychophysiology2019,3.0.5,60.022539662431086,
To what extent did the music make you feel ,SCARED,30MonoWAV/30MonoH4.wav,2,2,1,8,,,,,0,1,1,7,0,10,10,11,,,,,,,,,1,1.1170452170190401,,,105,001,2019_Sep_05_1012,MusicAffectPsychophysiology2019,3.0.5,60.022539662431086,
To what extent did the music make you feel ,ALERT,30MonoWAV/30MonoH4.wav,2,2,1,8,,,,,0,1,1,7,0,11,11,8,,,,,,,,,4,3.0336488250177354,,,105,001,2019_Sep_05_1012,MusicAffectPsychophysiology2019,3.0.5,60.022539662431086,
,,30MonoWAV/30MonoH4.wav,2,2,1,8,,,,,0,1,1,7,,,,,,,,,,,,,,,,,105,001,2019_Sep_05_1012,MusicAffectPsychophysiology2019,3.0.5,60.022539662431086,
To what extent did the music make you feel ,ASHAMED,30MonoWAV/30MonoT2.wav,2,1,4,14,,,,,0,2,2,13,0,0,0,4,,,1,5.066488207958173,2,3.019711413013283,2,1.919019321037922,1,3.525934742996469,,,105,001,2019_Sep_05_1012,MusicAffectPsychophysiology2019,3.0.5,60.022539662431086,
To what extent did the music make you feel ,ACTIVE,30MonoWAV/30MonoT2.wav,2,1,4,14,,,,,0,2,2,13,0,1,1,9,,,,,,,,,1,1.620889288955368,,,105,001,2019_Sep_05_1012,MusicAffectPsychophysiology2019,3.0.5,60.022539662431086,
To what extent did the music make you feel ,EXCITED,30MonoWAV/30MonoT2.wav,2,1,4,14,,,,,0,2,2,13,0,2,2,7,,,,,,,,,1,0.9931423700181767,,,105,001,2019_Sep_05_1012,MusicAffectPsychophysiology2019,3.0.5,60.022539662431086,
To what extent did the music make you feel ,TENDER,30MonoWAV/30MonoT2.wav,2,1,4,14,,,,,0,2,2,13,0,3,3,10,,,,,,,,,2,1.8867836400168017,,,105,001,2019_Sep_05_1012,MusicAffectPsychophysiology2019,3.0.5,60.022539662431086,
To what extent did the music make you feel ,ALERT,30MonoWAV/30MonoT2.wav,2,1,4,14,,,,,0,2,2,13,0,4,4,8,,,,,,,,,1,1.2928841849789023,,,105,001,2019_Sep_05_1012,MusicAffectPsychophysiology2019,3.0.5,60.022539662431086,
To what extent did the music make you feel ,ANXIOUS ,30MonoWAV/30MonoT2.wav,2,1,4,14,,,,,0,2,2,13,0,5,5,1,,,,,,,,,1,2.901358557981439,,,105,001,2019_Sep_05_1012,MusicAffectPsychophysiology2019,3.0.5,60.022539662431086,
To what extent did the music make you feel ,GUILTY,30MonoWAV/30MonoT2.wav,2,1,4,14,,,,,0,2,2,13,0,6,6,5,,,,,,,,,1,0.9854179850080982,,,105,001,2019_Sep_05_1012,MusicAffectPsychophysiology2019,3.0.5,60.022539662431086,
To what extent did the music make you feel ,HAPPY,30MonoWAV/30MonoT2.wav,2,1,4,14,,,,,0,2,2,13,0,7,7,6,,,,,,,,,1,3.7535296360147186,,,105,001,2019_Sep_05_1012,MusicAffectPsychophysiology2019,3.0.5,60.022539662431086,
To what extent did the music make you feel ,SAD,30MonoWAV/30MonoT2.wav,2,1,4,14,,,,,0,2,2,13,0,8,8,0,,,,,,,,,2,2.382747374009341,,,105,001,2019_Sep_05_1012,MusicAffectPsychophysiology2019,3.0.5,60.022539662431086,
To what extent did the music make you feel ,ANGRY,30MonoWAV/30MonoT2.wav,2,1,4,14,,,,,0,2,2,13,0,9,9,2,,,,,,,,,1,1.1196870940038934,,,105,001,2019_Sep_05_1012,MusicAffectPsychophysiology2019,3.0.5,60.022539662431086,
To what extent did the music make you feel ,FRUSTRATED,30MonoWAV/30MonoT2.wav,2,1,4,14,,,,,0,2,2,13,0,10,10,3,,,,,,,,,1,0.9754720050259493,,,105,001,2019_Sep_05_1012,MusicAffectPsychophysiology2019,3.0.5,60.022539662431086,
To what extent did the music make you feel ,SCARED,30MonoWAV/30MonoT2.wav,2,1,4,14,,,,,0,2,2,13,0,11,11,11,,,,,,,,,1,1.1009563370025717,,,105,001,2019_Sep_05_1012,MusicAffectPsychophysiology2019,3.0.5,60.022539662431086,
,,30MonoWAV/30MonoT2.wav,2,1,4,14,,,,,0,2,2,13,,,,,,,,,,,,,,,,,105,001,2019_Sep_05_1012,MusicAffectPsychophysiology2019,3.0.5,60.022539662431086,
To what extent did the music make you feel ,EXCITED,30MonoWAV/30MonoS3.wav,1,1,3,11,,,,,0,3,3,10,0,0,0,7,,,1,4.5362814129912294,1,6.385581898968667,2,2.78516241395846,1,3.049503728048876,,,105,001,2019_Sep_05_1012,MusicAffectPsychophysiology2019,3.0.5,60.022539662431086,
To what extent did the music make you feel ,TENDER,30MonoWAV/30MonoS3.wav,1,1,3,11,,,,,0,3,3,10,0,1,1,10,,,,,,,,,2,1.602109091996681,,,105,001,2019_Sep_05_1012,MusicAffectPsychophysiology2019,3.0.5,60.022539662431086,
To what extent did the music make you feel ,SAD,30MonoWAV/30MonoS3.wav,1,1,3,11,,,,,0,3,3,10,0,2,2,0,,,,,,,,,3,1.8194364240043797,,,105,001,2019_Sep_05_1012,MusicAffectPsychophysiology2019,3.0.5,60.022539662431086,
To what extent did the music make you feel ,ASHAMED,30MonoWAV/30MonoS3.wav,1,1,3,11,,,,,0,3,3,10,0,3,3,4,,,,,,,,,1,1.5360525730066001,,,105,001,2019_Sep_05_1012,MusicAffectPsychophysiology2019,3.0.5,60.022539662431086,
To what extent did the music make you feel ,ANXIOUS ,30MonoWAV/30MonoS3.wav,1,1,3,11,,,,,0,3,3,10,0,4,4,1,,,,,,,,,1,1.1522841580444947,,,105,001,2019_Sep_05_1012,MusicAffectPsychophysiology2019,3.0.5,60.022539662431086,
To what extent did the music make you feel ,SCARED,30MonoWAV/30MonoS3.wav,1,1,3,11,,,,,0,3,3,10,0,5,5,11,,,,,,,,,1,1.1199282999732532,,,105,001,2019_Sep_05_1012,MusicAffectPsychophysiology2019,3.0.5,60.022539662431086,
To what extent did the music make you feel ,GUILTY,30MonoWAV/30MonoS3.wav,1,1,3,11,,,,,0,3,3,10,0,6,6,5,,,,,,,,,1,1.0020077830413356,,,105,001,2019_Sep_05_1012,MusicAffectPsychophysiology2019,3.0.5,60.022539662431086,
To what extent did the music make you feel ,HAPPY,30MonoWAV/30MonoS3.wav,1,1,3,11,,,,,0,3,3,10,0,7,7,6,,,,,,,,,1,3.0354909850284457,,,105,001,2019_Sep_05_1012,MusicAffectPsychophysiology2019,3.0.5,60.022539662431086,
To what extent did the music make you feel ,ALERT,30MonoWAV/30MonoS3.wav,1,1,3,11,,,,,0,3,3,10,0,8,8,8,,,,,,,,,1,1.6511744719464332,,,105,001,2019_Sep_05_1012,MusicAffectPsychophysiology2019,3.0.5,60.022539662431086,
To what extent did the music make you feel ,ACTIVE,30MonoWAV/30MonoS3.wav,1,1,3,11,,,,,0,3,3,10,0,9,9,9,,,,,,,,,1,1.0697650749934837,,,105,001,2019_Sep_05_1012,MusicAffectPsychophysiology2019,3.0.5,60.022539662431086,
To what extent did the music make you feel ,FRUSTRATED,30MonoWAV/30MonoS3.wav,1,1,3,11,,,,,0,3,3,10,0,10,10,3,,,,,,,,,1,1.1155291899922304,,,105,001,2019_Sep_05_1012,MusicAffectPsychophysiology2019,3.0.5,60.022539662431086,
To what extent did the music make you feel ,ANGRY,30MonoWAV/30MonoS3.wav,1,1,3,11,,,,,0,3,3,10,0,11,11,2,,,,,,,,,1,2.3360425810096785,,,105,001,2019_Sep_05_1012,MusicAffectPsychophysiology2019,3.0.5,60.022539662431086,
,,30MonoWAV/30MonoS3.wav,1,1,3,11,,,,,0,3,3,10,,,,,,,,,,,,,,,,,105,001,2019_Sep_05_1012,MusicAffectPsychophysiology2019,3.0.5,60.022539662431086,
To what extent did the music make you feel ,FRUSTRATED,30MonoWAV/30MonoH3.wav,2,2,1,7,,,,,0,4,4,6,0,0,0,3,,,4,4.235431398032233,4,2.3181737309787422,4,2.7671860289992765,1,2.394495199958328,,,105,001,2019_Sep_05_1012,MusicAffectPsychophysiology2019,3.0.5,60.022539662431086,
To what extent did the music make you feel ,ANXIOUS ,30MonoWAV/30MonoH3.wav,2,2,1,7,,,,,0,4,4,6,0,1,1,1,,,,,,,,,1,1.0024266010150313,,,105,001,2019_Sep_05_1012,MusicAffectPsychophysiology2019,3.0.5,60.022539662431086,
To what extent did the music make you feel ,ALERT,30MonoWAV/30MonoH3.wav,2,2,1,7,,,,,0,4,4,6,0,2,2,8,,,,,,,,,4,2.0029812430148013,,,105,001,2019_Sep_05_1012,MusicAffectPsychophysiology2019,3.0.5,60.022539662431086,
To what extent did the music make you feel ,ASHAMED,30MonoWAV/30MonoH3.wav,2,2,1,7,,,,,0,4,4,6,0,3,3,4,,,,,,,,,1,1.3853469009627588,,,105,001,2019_Sep_05_1012,MusicAffectPsychophysiology2019,3.0.5,60.022539662431086,
To what extent did the music make you feel ,SAD,30MonoWAV/30MonoH3.wav,2,2,1,7,,,,,0,4,4,6,0,4,4,0,,,,,,,,,1,1.1030032850103453,,,105,001,2019_Sep_05_1012,MusicAffectPsychophysiology2019,3.0.5,60.022539662431086,
To what extent did the music make you feel ,GUILTY,30MonoWAV/30MonoH3.wav,2,2,1,7,,,,,0,4,4,6,0,5,5,5,,,,,,,,,1,0.8527172990143299,,,105,001,2019_Sep_05_1012,MusicAffectPsychophysiology2019,3.0.5,60.022539662431086,
To what extent did the music make you feel ,HAPPY,30MonoWAV/30MonoH3.wav,2,2,1,7,,,,,0,4,4,6,0,6,6,6,,,,,,,,,4,2.2526217330014333,,,105,001,2019_Sep_05_1012,MusicAffectPsychophysiology2019,3.0.5,60.022539662431086,
To what extent did the music make you feel ,TENDER,30MonoWAV/30MonoH3.wav,2,2,1,7,,,,,0,4,4,6,0,7,7,10,,,,,,,,,1,2.2024472940247506,,,105,001,2019_Sep_05_1012,MusicAffectPsychophysiology2019,3.0.5,60.022539662431086,
To what extent did the music make you feel ,ACTIVE,30MonoWAV/30MonoH3.wav,2,2,1,7,,,,,0,4,4,6,0,8,8,9,,,,,,,,,4,1.418771248019766,,,105,001,2019_Sep_05_1012,MusicAffectPsychophysiology2019,3.0.5,60.022539662431086,
To what extent did the music make you feel ,SCARED,30MonoWAV/30MonoH3.wav,2,2,1,7,,,,,0,4,4,6,0,9,9,11,,,,,,,,,1,1.220154654001817,,,105,001,2019_Sep_05_1012,MusicAffectPsychophysiology2019,3.0.5,60.022539662431086,
To what extent did the music make you feel ,EXCITED,30MonoWAV/30MonoH3.wav,2,2,1,7,,,,,0,4,4,6,0,10,10,7,,,,,,,,,4,2.1849583400180563,,,105,001,2019_Sep_05_1012,MusicAffectPsychophysiology2019,3.0.5,60.022539662431086,
To what extent did the music make you feel ,ANGRY,30MonoWAV/30MonoH3.wav,2,2,1,7,,,,,0,4,4,6,0,11,11,2,,,,,,,,,1,1.001262969977688,,,105,001,2019_Sep_05_1012,MusicAffectPsychophysiology2019,3.0.5,60.022539662431086,
,,30MonoWAV/30MonoH3.wav,2,2,1,7,,,,,0,4,4,6,,,,,,,,,,,,,,,,,105,001,2019_Sep_05_1012,MusicAffectPsychophysiology2019,3.0.5,60.022539662431086,
To what extent did the music make you feel ,SCARED,30MonoWAV/30MonoF1.wav,1,2,2,1,,,,,0,5,5,0,0,0,0,11,,,3,5.617468216980342,2,2.702441433968488,2,1.569154539029114,1,3.937467537005432,,,105,001,2019_Sep_05_1012,MusicAffectPsychophysiology2019,3.0.5,60.022539662431086,
To what extent did the music make you feel ,EXCITED,30MonoWAV/30MonoF1.wav,1,2,2,1,,,,,0,5,5,0,0,1,1,7,,,,,,,,,1,1.902157509000972,,,105,001,2019_Sep_05_1012,MusicAffectPsychophysiology2019,3.0.5,60.022539662431086,
To what extent did the music make you feel ,ASHAMED,30MonoWAV/30MonoF1.wav,1,2,2,1,,,,,0,5,5,0,0,2,2,4,,,,,,,,,1,1.4687733090249822,,,105,001,2019_Sep_05_1012,MusicAffectPsychophysiology2019,3.0.5,60.022539662431086,
To what extent did the music make you feel ,FRUSTRATED,30MonoWAV/30MonoF1.wav,1,2,2,1,,,,,0,5,5,0,0,3,3,3,,,,,,,,,1,3.752252520993352,,,105,001,2019_Sep_05_1012,MusicAffectPsychophysiology2019,3.0.5,60.022539662431086,
To what extent did the music make you feel ,ANXIOUS ,30MonoWAV/30MonoF1.wav,1,2,2,1,,,,,0,5,5,0,0,4,4,1,,,,,,,,,1,0.9349610279896297,,,105,001,2019_Sep_05_1012,MusicAffectPsychophysiology2019,3.0.5,60.022539662431086,
To what extent did the music make you feel ,HAPPY,30MonoWAV/30MonoF1.wav,1,2,2,1,,,,,0,5,5,0,0,5,5,6,,,,,,,,,1,3.419020173023455,,,105,001,2019_Sep_05_1012,MusicAffectPsychophysiology2019,3.0.5,60.022539662431086,
To what extent did the music make you feel ,SAD,30MonoWAV/30MonoF1.wav,1,2,2,1,,,,,0,5,5,0,0,6,6,0,,,,,,,,,1,1.4041555320145562,,,105,001,2019_Sep_05_1012,MusicAffectPsychophysiology2019,3.0.5,60.022539662431086,
To what extent did the music make you feel ,ACTIVE,30MonoWAV/30MonoF1.wav,1,2,2,1,,,,,0,5,5,0,0,7,7,9,,,,,,,,,2,2.1351120219915174,,,105,001,2019_Sep_05_1012,MusicAffectPsychophysiology2019,3.0.5,60.022539662431086,
To what extent did the music make you feel ,TENDER,30MonoWAV/30MonoF1.wav,1,2,2,1,,,,,0,5,5,0,0,8,8,10,,,,,,,,,1,1.2862900639884174,,,105,001,2019_Sep_05_1012,MusicAffectPsychophysiology2019,3.0.5,60.022539662431086,
To what extent did the music make you feel ,GUILTY,30MonoWAV/30MonoF1.wav,1,2,2,1,,,,,0,5,5,0,0,9,9,5,,,,,,,,,1,1.733067277004011,,,105,001,2019_Sep_05_1012,MusicAffectPsychophysiology2019,3.0.5,60.022539662431086,
To what extent did the music make you feel ,ANGRY,30MonoWAV/30MonoF1.wav,1,2,2,1,,,,,0,5,5,0,0,10,10,2,,,,,,,,,1,1.4192279449780472,,,105,001,2019_Sep_05_1012,MusicAffectPsychophysiology2019,3.0.5,60.022539662431086,
To what extent did the music make you feel ,ALERT,30MonoWAV/30MonoF1.wav,1,2,2,1,,,,,0,5,5,0,0,11,11,8,,,,,,,,,2,1.3035223970073275,,,105,001,2019_Sep_05_1012,MusicAffectPsychophysiology2019,3.0.5,60.022539662431086,
,,30MonoWAV/30MonoF1.wav,1,2,2,1,,,,,0,5,5,0,,,,,,,,,,,,,,,,,105,001,2019_Sep_05_1012,MusicAffectPsychophysiology2019,3.0.5,60.022539662431086,
To what extent did the music make you feel ,FRUSTRATED,30MonoWAV/30MonoH1.wav,2,2,1,5,,,,,0,6,6,4,0,0,0,3,,,2,4.050828752981033,3,4.152143343992066,2,1.63378112699138,1,3.328660900995601,,,105,001,2019_Sep_05_1012,MusicAffectPsychophysiology2019,3.0.5,60.022539662431086,
To what extent did the music make you feel ,ACTIVE,30MonoWAV/30MonoH1.wav,2,2,1,5,,,,,0,6,6,4,0,1,1,9,,,,,,,,,1,3.3692484549828805,,,105,001,2019_Sep_05_1012,MusicAffectPsychophysiology2019,3.0.5,60.022539662431086,
To what extent did the music make you feel ,SCARED,30MonoWAV/30MonoH1.wav,2,2,1,5,,,,,0,6,6,4,0,2,2,11,,,,,,,,,1,1.303131585009396,,,105,001,2019_Sep_05_1012,MusicAffectPsychophysiology2019,3.0.5,60.022539662431086,
To what extent did the music make you feel ,ANXIOUS ,30MonoWAV/30MonoH1.wav,2,2,1,5,,,,,0,6,6,4,0,3,3,1,,,,,,,,,1,0.9856872919481248,,,105,001,2019_Sep_05_1012,MusicAffectPsychophysiology2019,3.0.5,60.022539662431086,
To what extent did the music make you feel ,TENDER,30MonoWAV/30MonoH1.wav,2,2,1,5,,,,,0,6,6,4,0,4,4,10,,,,,,,,,2,2.116629895986989,,,105,001,2019_Sep_05_1012,MusicAffectPsychophysiology2019,3.0.5,60.022539662431086,
To what extent did the music make you feel ,ALERT,30MonoWAV/30MonoH1.wav,2,2,1,5,,,,,0,6,6,4,0,5,5,8,,,,,,,,,2,2.8351902390131727,,,105,001,2019_Sep_05_1012,MusicAffectPsychophysiology2019,3.0.5,60.022539662431086,
To what extent did the music make you feel ,ANGRY,30MonoWAV/30MonoH1.wav,2,2,1,5,,,,,0,6,6,4,0,6,6,2,,,,,,,,,1,1.3190838859882206,,,105,001,2019_Sep_05_1012,MusicAffectPsychophysiology2019,3.0.5,60.022539662431086,
To what extent did the music make you feel ,HAPPY,30MonoWAV/30MonoH1.wav,2,2,1,5,,,,,0,6,6,4,0,7,7,6,,,,,,,,,2,1.5027193109854124,,,105,001,2019_Sep_05_1012,MusicAffectPsychophysiology2019,3.0.5,60.022539662431086,
To what extent did the music make you feel ,SAD,30MonoWAV/30MonoH1.wav,2,2,1,5,,,,,0,6,6,4,0,8,8,0,,,,,,,,,1,1.4029028880177066,,,105,001,2019_Sep_05_1012,MusicAffectPsychophysiology2019,3.0.5,60.022539662431086,
To what extent did the music make you feel ,GUILTY,30MonoWAV/30MonoH1.wav,2,2,1,5,,,,,0,6,6,4,0,9,9,5,,,,,,,,,1,0.9857832210254855,,,105,001,2019_Sep_05_1012,MusicAffectPsychophysiology2019,3.0.5,60.022539662431086,
To what extent did the music make you feel ,ASHAMED,30MonoWAV/30MonoH1.wav,2,2,1,5,,,,,0,6,6,4,0,10,10,4,,,,,,,,,1,0.8362929719733074,,,105,001,2019_Sep_05_1012,MusicAffectPsychophysiology2019,3.0.5,60.022539662431086,
To what extent did the music make you feel ,EXCITED,30MonoWAV/30MonoH1.wav,2,2,1,5,,,,,0,6,6,4,0,11,11,7,,,,,,,,,1,1.2533108919742517,,,105,001,2019_Sep_05_1012,MusicAffectPsychophysiology2019,3.0.5,60.022539662431086,
,,30MonoWAV/30MonoH1.wav,2,2,1,5,,,,,0,6,6,4,,,,,,,,,,,,,,,,,105,001,2019_Sep_05_1012,MusicAffectPsychophysiology2019,3.0.5,60.022539662431086,
To what extent did the music make you feel ,SAD,30MonoWAV/30MonoS1.wav,1,1,3,9,,,,,0,7,7,8,0,0,0,0,,,1,3.9524896100047044,2,1.935166368028149,2,2.43571322504431,2,2.33975054504117,,,105,001,2019_Sep_05_1012,MusicAffectPsychophysiology2019,3.0.5,60.022539662431086,
To what extent did the music make you feel ,EXCITED,30MonoWAV/30MonoS1.wav,1,1,3,9,,,,,0,7,7,8,0,1,1,7,,,,,,,,,1,1.6380384410149418,,,105,001,2019_Sep_05_1012,MusicAffectPsychophysiology2019,3.0.5,60.022539662431086,
To what extent did the music make you feel ,ALERT,30MonoWAV/30MonoS1.wav,1,1,3,9,,,,,0,7,7,8,0,2,2,8,,,,,,,,,1,1.8047907380387187,,,105,001,2019_Sep_05_1012,MusicAffectPsychophysiology2019,3.0.5,60.022539662431086,
To what extent did the music make you feel ,FRUSTRATED,30MonoWAV/30MonoS1.wav,1,1,3,9,,,,,0,7,7,8,0,3,3,3,,,,,,,,,1,1.7053686910076067,,,105,001,2019_Sep_05_1012,MusicAffectPsychophysiology2019,3.0.5,60.022539662431086,
To what extent did the music make you feel ,TENDER,30MonoWAV/30MonoS1.wav,1,1,3,9,,,,,0,7,7,8,0,4,4,10,,,,,,,,,3,3.219364668999333,,,105,001,2019_Sep_05_1012,MusicAffectPsychophysiology2019,3.0.5,60.022539662431086,
To what extent did the music make you feel ,HAPPY,30MonoWAV/30MonoS1.wav,1,1,3,9,,,,,0,7,7,8,0,5,5,6,,,,,,,,,2,2.3707203630474396,,,105,001,2019_Sep_05_1012,MusicAffectPsychophysiology2019,3.0.5,60.022539662431086,
To what extent did the music make you feel ,ANXIOUS ,30MonoWAV/30MonoS1.wav,1,1,3,9,,,,,0,7,7,8,0,6,6,1,,,,,,,,,1,1.3837558899540454,,,105,001,2019_Sep_05_1012,MusicAffectPsychophysiology2019,3.0.5,60.022539662431086,
To what extent did the music make you feel ,ASHAMED,30MonoWAV/30MonoS1.wav,1,1,3,9,,,,,0,7,7,8,0,7,7,4,,,,,,,,,1,1.0853232010267675,,,105,001,2019_Sep_05_1012,MusicAffectPsychophysiology2019,3.0.5,60.022539662431086,
To what extent did the music make you feel ,SCARED,30MonoWAV/30MonoS1.wav,1,1,3,9,,,,,0,7,7,8,0,8,8,11,,,,,,,,,1,1.019229449040722,,,105,001,2019_Sep_05_1012,MusicAffectPsychophysiology2019,3.0.5,60.022539662431086,
To what extent did the music make you feel ,GUILTY,30MonoWAV/30MonoS1.wav,1,1,3,9,,,,,0,7,7,8,0,9,9,5,,,,,,,,,1,1.0688320790068246,,,105,001,2019_Sep_05_1012,MusicAffectPsychophysiology2019,3.0.5,60.022539662431086,
To what extent did the music make you feel ,ANGRY,30MonoWAV/30MonoS1.wav,1,1,3,9,,,,,0,7,7,8,0,10,10,2,,,,,,,,,1,1.1701150410226546,,,105,001,2019_Sep_05_1012,MusicAffectPsychophysiology2019,3.0.5,60.022539662431086,
To what extent did the music make you feel ,ACTIVE,30MonoWAV/30MonoS1.wav,1,1,3,9,,,,,0,7,7,8,0,11,11,9,,,,,,,,,1,1.1348391369683668,,,105,001,2019_Sep_05_1012,MusicAffectPsychophysiology2019,3.0.5,60.022539662431086,
,,30MonoWAV/30MonoS1.wav,1,1,3,9,,,,,0,7,7,8,,,,,,,,,,,,,,,,,105,001,2019_Sep_05_1012,MusicAffectPsychophysiology2019,3.0.5,60.022539662431086,
To what extent did the music make you feel ,ASHAMED,30MonoWAV/30MonoH2.wav,2,2,1,6,,,,,0,8,8,5,0,0,0,4,,,3,4.552318325964734,3,3.635551471961662,3,1.8517606559908018,1,1.747651888988912,,,105,001,2019_Sep_05_1012,MusicAffectPsychophysiology2019,3.0.5,60.022539662431086,
To what extent did the music make you feel ,ALERT,30MonoWAV/30MonoH2.wav,2,2,1,6,,,,,0,8,8,5,0,1,1,8,,,,,,,,,3,1.4659241460030898,,,105,001,2019_Sep_05_1012,MusicAffectPsychophysiology2019,3.0.5,60.022539662431086,
To what extent did the music make you feel ,EXCITED,30MonoWAV/30MonoH2.wav,2,2,1,6,,,,,0,8,8,5,0,2,2,7,,,,,,,,,3,1.5024666329845786,,,105,001,2019_Sep_05_1012,MusicAffectPsychophysiology2019,3.0.5,60.022539662431086,
To what extent did the music make you feel ,SAD,30MonoWAV/30MonoH2.wav,2,2,1,6,,,,,0,8,8,5,0,3,3,0,,,,,,,,,1,1.8352373919915408,,,105,001,2019_Sep_05_1012,MusicAffectPsychophysiology2019,3.0.5,60.022539662431086,
To what extent did the music make you feel ,ANGRY,30MonoWAV/30MonoH2.wav,2,2,1,6,,,,,0,8,8,5,0,4,4,2,,,,,,,,,1,1.1856702180230059,,,105,001,2019_Sep_05_1012,MusicAffectPsychophysiology2019,3.0.5,60.022539662431086,
To what extent did the music make you feel ,TENDER,30MonoWAV/30MonoH2.wav,2,2,1,6,,,,,0,8,8,5,0,5,5,10,,,,,,,,,1,1.8863574070273899,,,105,001,2019_Sep_05_1012,MusicAffectPsychophysiology2019,3.0.5,60.022539662431086,
To what extent did the music make you feel ,HAPPY,30MonoWAV/30MonoH2.wav,2,2,1,6,,,,,0,8,8,5,0,6,6,6,,,,,,,,,2,1.7363766100024804,,,105,001,2019_Sep_05_1012,MusicAffectPsychophysiology2019,3.0.5,60.022539662431086,
To what extent did the music make you feel ,FRUSTRATED,30MonoWAV/30MonoH2.wav,2,2,1,6,,,,,0,8,8,5,0,7,7,3,,,,,,,,,1,1.5117967610131018,,,105,001,2019_Sep_05_1012,MusicAffectPsychophysiology2019,3.0.5,60.022539662431086,
To what extent did the music make you feel ,ANXIOUS ,30MonoWAV/30MonoH2.wav,2,2,1,6,,,,,0,8,8,5,0,8,8,1,,,,,,,,,1,0.9698443440138362,,,105,001,2019_Sep_05_1012,MusicAffectPsychophysiology2019,3.0.5,60.022539662431086,
To what extent did the music make you feel ,GUILTY,30MonoWAV/30MonoH2.wav,2,2,1,6,,,,,0,8,8,5,0,9,9,5,,,,,,,,,1,1.2202541390433908,,,105,001,2019_Sep_05_1012,MusicAffectPsychophysiology2019,3.0.5,60.022539662431086,
To what extent did the music make you feel ,SCARED,30MonoWAV/30MonoH2.wav,2,2,1,6,,,,,0,8,8,5,0,10,10,11,,,,,,,,,1,1.285006444028113,,,105,001,2019_Sep_05_1012,MusicAffectPsychophysiology2019,3.0.5,60.022539662431086,
To what extent did the music make you feel ,ACTIVE,30MonoWAV/30MonoH2.wav,2,2,1,6,,,,,0,8,8,5,0,11,11,9,,,,,,,,,2,1.6681775720207952,,,105,001,2019_Sep_05_1012,MusicAffectPsychophysiology2019,3.0.5,60.022539662431086,
,,30MonoWAV/30MonoH2.wav,2,2,1,6,,,,,0,8,8,5,,,,,,,,,,,,,,,,,105,001,2019_Sep_05_1012,MusicAffectPsychophysiology2019,3.0.5,60.022539662431086,
To what extent did the music make you feel ,TENDER,30MonoWAV/30MonoS4.wav,1,1,3,12,,,,,0,9,9,11,0,0,0,10,,,1,4.13616977102356,1,2.6696671929676086,2,2.4872801459860057,3,2.323371615028009,,,105,001,2019_Sep_05_1012,MusicAffectPsychophysiology2019,3.0.5,60.022539662431086,
To what extent did the music make you feel ,ASHAMED,30MonoWAV/30MonoS4.wav,1,1,3,12,,,,,0,9,9,11,0,1,1,4,,,,,,,,,1,1.9526246410096064,,,105,001,2019_Sep_05_1012,MusicAffectPsychophysiology2019,3.0.5,60.022539662431086,
To what extent did the music make you feel ,SCARED,30MonoWAV/30MonoS4.wav,1,1,3,12,,,,,0,9,9,11,0,2,2,11,,,,,,,,,2,2.535673381004017,,,105,001,2019_Sep_05_1012,MusicAffectPsychophysiology2019,3.0.5,60.022539662431086,
To what extent did the music make you feel ,HAPPY,30MonoWAV/30MonoS4.wav,1,1,3,12,,,,,0,9,9,11,0,3,3,6,,,,,,,,,1,1.4364943600376137,,,105,001,2019_Sep_05_1012,MusicAffectPsychophysiology2019,3.0.5,60.022539662431086,
To what extent did the music make you feel ,ALERT,30MonoWAV/30MonoS4.wav,1,1,3,12,,,,,0,9,9,11,0,4,4,8,,,,,,,,,2,4.567161854007281,,,105,001,2019_Sep_05_1012,MusicAffectPsychophysiology2019,3.0.5,60.022539662431086,
To what extent did the music make you feel ,GUILTY,30MonoWAV/30MonoS4.wav,1,1,3,12,,,,,0,9,9,11,0,5,5,5,,,,,,,,,1,1.369492771977093,,,105,001,2019_Sep_05_1012,MusicAffectPsychophysiology2019,3.0.5,60.022539662431086,
To what extent did the music make you feel ,EXCITED,30MonoWAV/30MonoS4.wav,1,1,3,12,,,,,0,9,9,11,0,6,6,7,,,,,,,,,1,1.6000502750393935,,,105,001,2019_Sep_05_1012,MusicAffectPsychophysiology2019,3.0.5,60.022539662431086,
To what extent did the music make you feel ,SAD,30MonoWAV/30MonoS4.wav,1,1,3,12,,,,,0,9,9,11,0,7,7,0,,,,,,,,,4,1.903369923995342,,,105,001,2019_Sep_05_1012,MusicAffectPsychophysiology2019,3.0.5,60.022539662431086,
To what extent did the music make you feel ,ANXIOUS ,30MonoWAV/30MonoS4.wav,1,1,3,12,,,,,0,9,9,11,0,8,8,1,,,,,,,,,2,1.686889789009001,,,105,001,2019_Sep_05_1012,MusicAffectPsychophysiology2019,3.0.5,60.022539662431086,
To what extent did the music make you feel ,ANGRY,30MonoWAV/30MonoS4.wav,1,1,3,12,,,,,0,9,9,11,0,9,9,2,,,,,,,,,1,2.670859848964028,,,105,001,2019_Sep_05_1012,MusicAffectPsychophysiology2019,3.0.5,60.022539662431086,
To what extent did the music make you feel ,ACTIVE,30MonoWAV/30MonoS4.wav,1,1,3,12,,,,,0,9,9,11,0,10,10,9,,,,,,,,,1,1.369292882969603,,,105,001,2019_Sep_05_1012,MusicAffectPsychophysiology2019,3.0.5,60.022539662431086,
To what extent did the music make you feel ,FRUSTRATED,30MonoWAV/30MonoS4.wav,1,1,3,12,,,,,0,9,9,11,0,11,11,3,,,,,,,,,1,1.0873279719962738,,,105,001,2019_Sep_05_1012,MusicAffectPsychophysiology2019,3.0.5,60.022539662431086,
,,30MonoWAV/30MonoS4.wav,1,1,3,12,,,,,0,9,9,11,,,,,,,,,,,,,,,,,105,001,2019_Sep_05_1012,MusicAffectPsychophysiology2019,3.0.5,60.022539662431086,
To what extent did the music make you feel ,FRUSTRATED,30MonoWAV/30MonoT3.wav,2,1,4,15,,,,,0,10,10,14,0,0,0,3,,,3,3.269448779989034,4,2.2695591149968095,4,1.485683182021603,1,1.7034066240303218,,,105,001,2019_Sep_05_1012,MusicAffectPsychophysiology2019,3.0.5,60.022539662431086,
To what extent did the music make you feel ,ALERT,30MonoWAV/30MonoT3.wav,2,1,4,15,,,,,0,10,10,14,0,1,1,8,,,,,,,,,2,1.9877046740148216,,,105,001,2019_Sep_05_1012,MusicAffectPsychophysiology2019,3.0.5,60.022539662431086,
To what extent did the music make you feel ,ASHAMED,30MonoWAV/30MonoT3.wav,2,1,4,15,,,,,0,10,10,14,0,2,2,4,,,,,,,,,1,1.3521272710058838,,,105,001,2019_Sep_05_1012,MusicAffectPsychophysiology2019,3.0.5,60.022539662431086,
To what extent did the music make you feel ,ACTIVE,30MonoWAV/30MonoT3.wav,2,1,4,15,,,,,0,10,10,14,0,3,3,9,,,,,,,,,1,1.3362557049840689,,,105,001,2019_Sep_05_1012,MusicAffectPsychophysiology2019,3.0.5,60.022539662431086,
To what extent did the music make you feel ,HAPPY,30MonoWAV/30MonoT3.wav,2,1,4,15,,,,,0,10,10,14,0,4,4,6,,,,,,,,,4,3.0034973089932464,,,105,001,2019_Sep_05_1012,MusicAffectPsychophysiology2019,3.0.5,60.022539662431086,
To what extent did the music make you feel ,SCARED,30MonoWAV/30MonoT3.wav,2,1,4,15,,,,,0,10,10,14,0,5,5,11,,,,,,,,,1,1.219324927951675,,,105,001,2019_Sep_05_1012,MusicAffectPsychophysiology2019,3.0.5,60.022539662431086,
To what extent did the music make you feel ,SAD,30MonoWAV/30MonoT3.wav,2,1,4,15,,,,,0,10,10,14,0,6,6,0,,,,,,,,,1,1.602414004970342,,,105,001,2019_Sep_05_1012,MusicAffectPsychophysiology2019,3.0.5,60.022539662431086,
To what extent did the music make you feel ,EXCITED,30MonoWAV/30MonoT3.wav,2,1,4,15,,,,,0,10,10,14,0,7,7,7,,,,,,,,,3,1.8695729109458625,,,105,001,2019_Sep_05_1012,MusicAffectPsychophysiology2019,3.0.5,60.022539662431086,
To what extent did the music make you feel ,TENDER,30MonoWAV/30MonoT3.wav,2,1,4,15,,,,,0,10,10,14,0,8,8,10,,,,,,,,,3,2.102282643027138,,,105,001,2019_Sep_05_1012,MusicAffectPsychophysiology2019,3.0.5,60.022539662431086,
To what extent did the music make you feel ,ANXIOUS ,30MonoWAV/30MonoT3.wav,2,1,4,15,,,,,0,10,10,14,0,9,9,1,,,,,,,,,1,1.2529354100115597,,,105,001,2019_Sep_05_1012,MusicAffectPsychophysiology2019,3.0.5,60.022539662431086,
To what extent did the music make you feel ,ANGRY,30MonoWAV/30MonoT3.wav,2,1,4,15,,,,,0,10,10,14,0,10,10,2,,,,,,,,,1,0.9024417389882728,,,105,001,2019_Sep_05_1012,MusicAffectPsychophysiology2019,3.0.5,60.022539662431086,
To what extent did the music make you feel ,GUILTY,30MonoWAV/30MonoT3.wav,2,1,4,15,,,,,0,10,10,14,0,11,11,5,,,,,,,,,1,0.7664592349901795,,,105,001,2019_Sep_05_1012,MusicAffectPsychophysiology2019,3.0.5,60.022539662431086,
,,30MonoWAV/30MonoT3.wav,2,1,4,15,,,,,0,10,10,14,,,,,,,,,,,,,,,,,105,001,2019_Sep_05_1012,MusicAffectPsychophysiology2019,3.0.5,60.022539662431086,
To what extent did the music make you feel ,TENDER,30MonoWAV/30MonoS2.wav,1,1,3,10,,,,,0,11,11,9,0,0,0,10,,,1,2.9855618579895236,1,4.001824818027671,2,1.5865064579993486,2,2.106899701000657,,,105,001,2019_Sep_05_1012,MusicAffectPsychophysiology2019,3.0.5,60.022539662431086,
To what extent did the music make you feel ,EXCITED,30MonoWAV/30MonoS2.wav,1,1,3,10,,,,,0,11,11,9,0,1,1,7,,,,,,,,,1,1.5006737109506503,,,105,001,2019_Sep_05_1012,MusicAffectPsychophysiology2019,3.0.5,60.022539662431086,
To what extent did the music make you feel ,ALERT,30MonoWAV/30MonoS2.wav,1,1,3,10,,,,,0,11,11,9,0,2,2,8,,,,,,,,,1,1.288109824003186,,,105,001,2019_Sep_05_1012,MusicAffectPsychophysiology2019,3.0.5,60.022539662431086,
To what extent did the music make you feel ,HAPPY,30MonoWAV/30MonoS2.wav,1,1,3,10,,,,,0,11,11,9,0,3,3,6,,,,,,,,,1,2.1352415889850818,,,105,001,2019_Sep_05_1012,MusicAffectPsychophysiology2019,3.0.5,60.022539662431086,
To what extent did the music make you feel ,ANGRY,30MonoWAV/30MonoS2.wav,1,1,3,10,,,,,0,11,11,9,0,4,4,2,,,,,,,,,1,2.503329765982926,,,105,001,2019_Sep_05_1012,MusicAffectPsychophysiology2019,3.0.5,60.022539662431086,
To what extent did the music make you feel ,ANXIOUS ,30MonoWAV/30MonoS2.wav,1,1,3,10,,,,,0,11,11,9,0,5,5,1,,,,,,,,,1,1.1690543430158868,,,105,001,2019_Sep_05_1012,MusicAffectPsychophysiology2019,3.0.5,60.022539662431086,
To what extent did the music make you feel ,SAD,30MonoWAV/30MonoS2.wav,1,1,3,10,,,,,0,11,11,9,0,6,6,0,,,,,,,,,2,1.8011728139827028,,,105,001,2019_Sep_05_1012,MusicAffectPsychophysiology2019,3.0.5,60.022539662431086,
To what extent did the music make you feel ,SCARED,30MonoWAV/30MonoS2.wav,1,1,3,10,,,,,0,11,11,9,0,7,7,11,,,,,,,,,1,1.3194455039920285,,,105,001,2019_Sep_05_1012,MusicAffectPsychophysiology2019,3.0.5,60.022539662431086,
To what extent did the music make you feel ,ACTIVE,30MonoWAV/30MonoS2.wav,1,1,3,10,,,,,0,11,11,9,0,8,8,9,,,,,,,,,1,1.135912487981841,,,105,001,2019_Sep_05_1012,MusicAffectPsychophysiology2019,3.0.5,60.022539662431086,
To what extent did the music make you feel ,FRUSTRATED,30MonoWAV/30MonoS2.wav,1,1,3,10,,,,,0,11,11,9,0,9,9,3,,,,,,,,,1,1.1347162650199607,,,105,001,2019_Sep_05_1012,MusicAffectPsychophysiology2019,3.0.5,60.022539662431086,
To what extent did the music make you feel ,ASHAMED,30MonoWAV/30MonoS2.wav,1,1,3,10,,,,,0,11,11,9,0,10,10,4,,,,,,,,,1,1.48550733999582,,,105,001,2019_Sep_05_1012,MusicAffectPsychophysiology2019,3.0.5,60.022539662431086,
To what extent did the music make you feel ,GUILTY,30MonoWAV/30MonoS2.wav,1,1,3,10,,,,,0,11,11,9,0,11,11,5,,,,,,,,,1,1.4035068659577519,,,105,001,2019_Sep_05_1012,MusicAffectPsychophysiology2019,3.0.5,60.022539662431086,
,,30MonoWAV/30MonoS2.wav,1,1,3,10,,,,,0,11,11,9,,,,,,,,,,,,,,,,,105,001,2019_Sep_05_1012,MusicAffectPsychophysiology2019,3.0.5,60.022539662431086,
To what extent did the music make you feel ,ALERT,30MonoWAV/30MonoT4.wav,2,1,4,16,,,,,0,12,12,15,0,0,0,8,,,2,3.6339010240044445,2,5.4192992630414665,2,1.4360034799901769,3,2.633153179020155,,,105,001,2019_Sep_05_1012,MusicAffectPsychophysiology2019,3.0.5,60.022539662431086,
To what extent did the music make you feel ,EXCITED,30MonoWAV/30MonoT4.wav,2,1,4,16,,,,,0,12,12,15,0,1,1,7,,,,,,,,,2,1.9197173630236648,,,105,001,2019_Sep_05_1012,MusicAffectPsychophysiology2019,3.0.5,60.022539662431086,
To what extent did the music make you feel ,ACTIVE,30MonoWAV/30MonoT4.wav,2,1,4,16,,,,,0,12,12,15,0,2,2,9,,,,,,,,,2,1.7349475740338676,,,105,001,2019_Sep_05_1012,MusicAffectPsychophysiology2019,3.0.5,60.022539662431086,
To what extent did the music make you feel ,FRUSTRATED,30MonoWAV/30MonoT4.wav,2,1,4,16,,,,,0,12,12,15,0,3,3,3,,,,,,,,,1,2.03589366102824,,,105,001,2019_Sep_05_1012,MusicAffectPsychophysiology2019,3.0.5,60.022539662431086,
To what extent did the music make you feel ,GUILTY,30MonoWAV/30MonoT4.wav,2,1,4,16,,,,,0,12,12,15,0,4,4,5,,,,,,,,,1,1.3860314199700952,,,105,001,2019_Sep_05_1012,MusicAffectPsychophysiology2019,3.0.5,60.022539662431086,
To what extent did the music make you feel ,ANXIOUS ,30MonoWAV/30MonoT4.wav,2,1,4,16,,,,,0,12,12,15,0,5,5,1,,,,,,,,,1,1.136410197999794,,,105,001,2019_Sep_05_1012,MusicAffectPsychophysiology2019,3.0.5,60.022539662431086,
To what extent did the music make you feel ,TENDER,30MonoWAV/30MonoT4.wav,2,1,4,16,,,,,0,12,12,15,0,6,6,10,,,,,,,,,3,1.6854776020045392,,,105,001,2019_Sep_05_1012,MusicAffectPsychophysiology2019,3.0.5,60.022539662431086,
To what extent did the music make you feel ,ANGRY,30MonoWAV/30MonoT4.wav,2,1,4,16,,,,,0,12,12,15,0,7,7,2,,,,,,,,,1,1.7208313090377487,,,105,001,2019_Sep_05_1012,MusicAffectPsychophysiology2019,3.0.5,60.022539662431086,
To what extent did the music make you feel ,SCARED,30MonoWAV/30MonoT4.wav,2,1,4,16,,,,,0,12,12,15,0,8,8,11,,,,,,,,,1,1.4036581609980203,,,105,001,2019_Sep_05_1012,MusicAffectPsychophysiology2019,3.0.5,60.022539662431086,
To what extent did the music make you feel ,SAD,30MonoWAV/30MonoT4.wav,2,1,4,16,,,,,0,12,12,15,0,9,9,0,,,,,,,,,3,1.5691371380235069,,,105,001,2019_Sep_05_1012,MusicAffectPsychophysiology2019,3.0.5,60.022539662431086,
To what extent did the music make you feel ,HAPPY,30MonoWAV/30MonoT4.wav,2,1,4,16,,,,,0,12,12,15,0,10,10,6,,,,,,,,,1,2.23632348299725,,,105,001,2019_Sep_05_1012,MusicAffectPsychophysiology2019,3.0.5,60.022539662431086,
To what extent did the music make you feel ,ASHAMED,30MonoWAV/30MonoT4.wav,2,1,4,16,,,,,0,12,12,15,0,11,11,4,,,,,,,,,1,1.169742270023562,,,105,001,2019_Sep_05_1012,MusicAffectPsychophysiology2019,3.0.5,60.022539662431086,
,,30MonoWAV/30MonoT4.wav,2,1,4,16,,,,,0,12,12,15,,,,,,,,,,,,,,,,,105,001,2019_Sep_05_1012,MusicAffectPsychophysiology2019,3.0.5,60.022539662431086,
To what extent did the music make you feel ,SCARED,30MonoWAV/30MonoF2.wav,1,2,2,2,,,,,0,13,13,1,0,0,0,11,,,3,5.102394345973153,1,4.719203037035186,1,3.2684043379849754,3,3.0750472680083476,,,105,001,2019_Sep_05_1012,MusicAffectPsychophysiology2019,3.0.5,60.022539662431086,
To what extent did the music make you feel ,ALERT,30MonoWAV/30MonoF2.wav,1,2,2,2,,,,,0,13,13,1,0,1,1,8,,,,,,,,,4,2.9536786699900404,,,105,001,2019_Sep_05_1012,MusicAffectPsychophysiology2019,3.0.5,60.022539662431086,
To what extent did the music make you feel ,SAD,30MonoWAV/30MonoF2.wav,1,2,2,2,,,,,0,13,13,1,0,2,2,0,,,,,,,,,1,2.632111426035408,,,105,001,2019_Sep_05_1012,MusicAffectPsychophysiology2019,3.0.5,60.022539662431086,
To what extent did the music make you feel ,ANGRY,30MonoWAV/30MonoF2.wav,1,2,2,2,,,,,0,13,13,1,0,3,3,2,,,,,,,,,1,1.567016540968325,,,105,001,2019_Sep_05_1012,MusicAffectPsychophysiology2019,3.0.5,60.022539662431086,
To what extent did the music make you feel ,ANXIOUS ,30MonoWAV/30MonoF2.wav,1,2,2,2,,,,,0,13,13,1,0,4,4,1,,,,,,,,,3,1.7186372409923933,,,105,001,2019_Sep_05_1012,MusicAffectPsychophysiology2019,3.0.5,60.022539662431086,
To what extent did the music make you feel ,ASHAMED,30MonoWAV/30MonoF2.wav,1,2,2,2,,,,,0,13,13,1,0,5,5,4,,,,,,,,,1,1.500444689008873,,,105,001,2019_Sep_05_1012,MusicAffectPsychophysiology2019,3.0.5,60.022539662431086,
To what extent did the music make you feel ,ACTIVE,30MonoWAV/30MonoF2.wav,1,2,2,2,,,,,0,13,13,1,0,6,6,9,,,,,,,,,2,3.2196946809999645,,,105,001,2019_Sep_05_1012,MusicAffectPsychophysiology2019,3.0.5,60.022539662431086,
To what extent did the music make you feel ,FRUSTRATED,30MonoWAV/30MonoF2.wav,1,2,2,2,,,,,0,13,13,1,0,7,7,3,,,,,,,,,1,1.272575645998586,,,105,001,2019_Sep_05_1012,MusicAffectPsychophysiology2019,3.0.5,60.022539662431086,
To what extent did the music make you feel ,HAPPY,30MonoWAV/30MonoF2.wav,1,2,2,2,,,,,0,13,13,1,0,8,8,6,,,,,,,,,1,1.1860885469941422,,,105,001,2019_Sep_05_1012,MusicAffectPsychophysiology2019,3.0.5,60.022539662431086,
To what extent did the music make you feel ,TENDER,30MonoWAV/30MonoF2.wav,1,2,2,2,,,,,0,13,13,1,0,9,9,10,,,,,,,,,1,1.0357083689887077,,,105,001,2019_Sep_05_1012,MusicAffectPsychophysiology2019,3.0.5,60.022539662431086,
To what extent did the music make you feel ,GUILTY,30MonoWAV/30MonoF2.wav,1,2,2,2,,,,,0,13,13,1,0,10,10,5,,,,,,,,,1,1.200293590023648,,,105,001,2019_Sep_05_1012,MusicAffectPsychophysiology2019,3.0.5,60.022539662431086,
To what extent did the music make you feel ,EXCITED,30MonoWAV/30MonoF2.wav,1,2,2,2,,,,,0,13,13,1,0,11,11,7,,,,,,,,,1,1.3193944790400565,,,105,001,2019_Sep_05_1012,MusicAffectPsychophysiology2019,3.0.5,60.022539662431086,
,,30MonoWAV/30MonoF2.wav,1,2,2,2,,,,,0,13,13,1,,,,,,,,,,,,,,,,,105,001,2019_Sep_05_1012,MusicAffectPsychophysiology2019,3.0.5,60.022539662431086,
To what extent did the music make you feel ,ANGRY,30MonoWAV/30MonoF4.wav,1,2,2,4,,,,,0,14,14,3,0,0,0,2,,,2,4.702182332985103,1,2.5346794659853913,1,1.300719786027912,2,2.4001972780097276,,,105,001,2019_Sep_05_1012,MusicAffectPsychophysiology2019,3.0.5,60.022539662431086,
To what extent did the music make you feel ,FRUSTRATED,30MonoWAV/30MonoF4.wav,1,2,2,4,,,,,0,14,14,3,0,1,1,3,,,,,,,,,2,2.0822629450121894,,,105,001,2019_Sep_05_1012,MusicAffectPsychophysiology2019,3.0.5,60.022539662431086,
To what extent did the music make you feel ,TENDER,30MonoWAV/30MonoF4.wav,1,2,2,4,,,,,0,14,14,3,0,2,2,10,,,,,,,,,1,1.1860363520099781,,,105,001,2019_Sep_05_1012,MusicAffectPsychophysiology2019,3.0.5,60.022539662431086,
To what extent did the music make you feel ,ANXIOUS ,30MonoWAV/30MonoF4.wav,1,2,2,4,,,,,0,14,14,3,0,3,3,1,,,,,,,,,1,1.1851780409924686,,,105,001,2019_Sep_05_1012,MusicAffectPsychophysiology2019,3.0.5,60.022539662431086,
To what extent did the music make you feel ,SCARED,30MonoWAV/30MonoF4.wav,1,2,2,4,,,,,0,14,14,3,0,4,4,11,,,,,,,,,1,0.9024855170282535,,,105,001,2019_Sep_05_1012,MusicAffectPsychophysiology2019,3.0.5,60.022539662431086,
To what extent did the music make you feel ,EXCITED,30MonoWAV/30MonoF4.wav,1,2,2,4,,,,,0,14,14,3,0,5,5,7,,,,,,,,,1,1.7665241099894047,,,105,001,2019_Sep_05_1012,MusicAffectPsychophysiology2019,3.0.5,60.022539662431086,
To what extent did the music make you feel ,GUILTY,30MonoWAV/30MonoF4.wav,1,2,2,4,,,,,0,14,14,3,0,6,6,5,,,,,,,,,1,1.319145451998338,,,105,001,2019_Sep_05_1012,MusicAffectPsychophysiology2019,3.0.5,60.022539662431086,
To what extent did the music make you feel ,ACTIVE,30MonoWAV/30MonoF4.wav,1,2,2,4,,,,,0,14,14,3,0,7,7,9,,,,,,,,,1,1.1182972449460067,,,105,001,2019_Sep_05_1012,MusicAffectPsychophysiology2019,3.0.5,60.022539662431086,
To what extent did the music make you feel ,SAD,30MonoWAV/30MonoF4.wav,1,2,2,4,,,,,0,14,14,3,0,8,8,0,,,,,,,,,1,1.7529315230203792,,,105,001,2019_Sep_05_1012,MusicAffectPsychophysiology2019,3.0.5,60.022539662431086,
To what extent did the music make you feel ,ALERT,30MonoWAV/30MonoF4.wav,1,2,2,4,,,,,0,14,14,3,0,9,9,8,,,,,,,,,2,1.7530279490165412,,,105,001,2019_Sep_05_1012,MusicAffectPsychophysiology2019,3.0.5,60.022539662431086,
To what extent did the music make you feel ,ASHAMED,30MonoWAV/30MonoF4.wav,1,2,2,4,,,,,0,14,14,3,0,10,10,4,,,,,,,,,1,1.7189437170163728,,,105,001,2019_Sep_05_1012,MusicAffectPsychophysiology2019,3.0.5,60.022539662431086,
To what extent did the music make you feel ,HAPPY,30MonoWAV/30MonoF4.wav,1,2,2,4,,,,,0,14,14,3,0,11,11,6,,,,,,,,,1,1.4356717260088772,,,105,001,2019_Sep_05_1012,MusicAffectPsychophysiology2019,3.0.5,60.022539662431086,
,,30MonoWAV/30MonoF4.wav,1,2,2,4,,,,,0,14,14,3,,,,,,,,,,,,,,,,,105,001,2019_Sep_05_1012,MusicAffectPsychophysiology2019,3.0.5,60.022539662431086,
To what extent did the music make you feel ,FRUSTRATED,30MonoWAV/30MonoF3.wav,1,2,2,3,,,,,0,15,15,2,0,0,0,3,,,3,3.4361962379771285,3,3.319246352009941,3,2.2198696749983355,1,1.8098734950181097,,,105,001,2019_Sep_05_1012,MusicAffectPsychophysiology2019,3.0.5,60.022539662431086,
To what extent did the music make you feel ,SAD,30MonoWAV/30MonoF3.wav,1,2,2,3,,,,,0,15,15,2,0,1,1,0,,,,,,,,,1,3.0528505370020866,,,105,001,2019_Sep_05_1012,MusicAffectPsychophysiology2019,3.0.5,60.022539662431086,
To what extent did the music make you feel ,ANGRY,30MonoWAV/30MonoF3.wav,1,2,2,3,,,,,0,15,15,2,0,2,2,2,,,,,,,,,1,0.952454175974708,,,105,001,2019_Sep_05_1012,MusicAffectPsychophysiology2019,3.0.5,60.022539662431086,
To what extent did the music make you feel ,GUILTY,30MonoWAV/30MonoF3.wav,1,2,2,3,,,,,0,15,15,2,0,3,3,5,,,,,,,,,1,0.952675401000306,,,105,001,2019_Sep_05_1012,MusicAffectPsychophysiology2019,3.0.5,60.022539662431086,
To what extent did the music make you feel ,HAPPY,30MonoWAV/30MonoF3.wav,1,2,2,3,,,,,0,15,15,2,0,4,4,6,,,,,,,,,2,1.4701764050405473,,,105,001,2019_Sep_05_1012,MusicAffectPsychophysiology2019,3.0.5,60.022539662431086,
To what extent did the music make you feel ,EXCITED,30MonoWAV/30MonoF3.wav,1,2,2,3,,,,,0,15,15,2,0,5,5,7,,,,,,,,,2,4.135658918006811,,,105,001,2019_Sep_05_1012,MusicAffectPsychophysiology2019,3.0.5,60.022539662431086,
To what extent did the music make you feel ,SCARED,30MonoWAV/30MonoF3.wav,1,2,2,3,,,,,0,15,15,2,0,6,6,11,,,,,,,,,1,1.458607345004566,,,105,001,2019_Sep_05_1012,MusicAffectPsychophysiology2019,3.0.5,60.022539662431086,
To what extent did the music make you feel ,ACTIVE,30MonoWAV/30MonoF3.wav,1,2,2,3,,,,,0,15,15,2,0,7,7,9,,,,,,,,,2,1.4696943779708818,,,105,001,2019_Sep_05_1012,MusicAffectPsychophysiology2019,3.0.5,60.022539662431086,
To what extent did the music make you feel ,ASHAMED,30MonoWAV/30MonoF3.wav,1,2,2,3,,,,,0,15,15,2,0,8,8,4,,,,,,,,,1,1.1003920399816707,,,105,001,2019_Sep_05_1012,MusicAffectPsychophysiology2019,3.0.5,60.022539662431086,
To what extent did the music make you feel ,ALERT,30MonoWAV/30MonoF3.wav,1,2,2,3,,,,,0,15,15,2,0,9,9,8,,,,,,,,,3,1.4192901830538176,,,105,001,2019_Sep_05_1012,MusicAffectPsychophysiology2019,3.0.5,60.022539662431086,
To what extent did the music make you feel ,TENDER,30MonoWAV/30MonoF3.wav,1,2,2,3,,,,,0,15,15,2,0,10,10,10,,,,,,,,,1,1.2693380540004,,,105,001,2019_Sep_05_1012,MusicAffectPsychophysiology2019,3.0.5,60.022539662431086,
To what extent did the music make you feel ,ANXIOUS ,30MonoWAV/30MonoF3.wav,1,2,2,3,,,,,0,15,15,2,0,11,11,1,,,,,,,,,1,1.1527908790158108,,,105,001,2019_Sep_05_1012,MusicAffectPsychophysiology2019,3.0.5,60.022539662431086,
,,30MonoWAV/30MonoF3.wav,1,2,2,3,,,,,0,15,15,2,,,,,,,,,,,,,,,,,105,001,2019_Sep_05_1012,MusicAffectPsychophysiology2019,3.0.5,60.022539662431086,
To what extent did the music make you feel ,EXCITED,30MonoWAV/30MonoS4.wav,1,1,3,12,,,,,1,0,16,11,0,0,0,7,,,1,4.502993101021275,1,4.317502753983717,2,2.767085705010686,1,2.5501151970238425,,,105,001,2019_Sep_05_1012,MusicAffectPsychophysiology2019,3.0.5,60.022539662431086,
To what extent did the music make you feel ,ASHAMED,30MonoWAV/30MonoS4.wav,1,1,3,12,,,,,1,0,16,11,0,1,1,4,,,,,,,,,1,1.8363155539846048,,,105,001,2019_Sep_05_1012,MusicAffectPsychophysiology2019,3.0.5,60.022539662431086,
To what extent did the music make you feel ,SAD,30MonoWAV/30MonoS4.wav,1,1,3,12,,,,,1,0,16,11,0,2,2,0,,,,,,,,,4,2.0187089150422253,,,105,001,2019_Sep_05_1012,MusicAffectPsychophysiology2019,3.0.5,60.022539662431086,
To what extent did the music make you feel ,FRUSTRATED,30MonoWAV/30MonoS4.wav,1,1,3,12,,,,,1,0,16,11,0,3,3,3,,,,,,,,,1,3.417765875987243,,,105,001,2019_Sep_05_1012,MusicAffectPsychophysiology2019,3.0.5,60.022539662431086,
To what extent did the music make you feel ,TENDER,30MonoWAV/30MonoS4.wav,1,1,3,12,,,,,1,0,16,11,0,4,4,10,,,,,,,,,4,2.304070067999419,,,105,001,2019_Sep_05_1012,MusicAffectPsychophysiology2019,3.0.5,60.022539662431086,
To what extent did the music make you feel ,ACTIVE,30MonoWAV/30MonoS4.wav,1,1,3,12,,,,,1,0,16,11,0,5,5,9,,,,,,,,,2,1.8193096640170552,,,105,001,2019_Sep_05_1012,MusicAffectPsychophysiology2019,3.0.5,60.022539662431086,
To what extent did the music make you feel ,HAPPY,30MonoWAV/30MonoS4.wav,1,1,3,12,,,,,1,0,16,11,0,6,6,6,,,,,,,,,1,1.2862508550169878,,,105,001,2019_Sep_05_1012,MusicAffectPsychophysiology2019,3.0.5,60.022539662431086,
To what extent did the music make you feel ,GUILTY,30MonoWAV/30MonoS4.wav,1,1,3,12,,,,,1,0,16,11,0,7,7,5,,,,,,,,,1,2.019709118991159,,,105,001,2019_Sep_05_1012,MusicAffectPsychophysiology2019,3.0.5,60.022539662431086,
To what extent did the music make you feel ,ALERT,30MonoWAV/30MonoS4.wav,1,1,3,12,,,,,1,0,16,11,0,8,8,8,,,,,,,,,2,2.2333445240510628,,,105,001,2019_Sep_05_1012,MusicAffectPsychophysiology2019,3.0.5,60.022539662431086,
To what extent did the music make you feel ,ANGRY,30MonoWAV/30MonoS4.wav,1,1,3,12,,,,,1,0,16,11,0,9,9,2,,,,,,,,,1,2.9827939700335264,,,105,001,2019_Sep_05_1012,MusicAffectPsychophysiology2019,3.0.5,60.022539662431086,
To what extent did the music make you feel ,SCARED,30MonoWAV/30MonoS4.wav,1,1,3,12,,,,,1,0,16,11,0,10,10,11,,,,,,,,,1,1.0692389819887467,,,105,001,2019_Sep_05_1012,MusicAffectPsychophysiology2019,3.0.5,60.022539662431086,
To what extent did the music make you feel ,ANXIOUS ,30MonoWAV/30MonoS4.wav,1,1,3,12,,,,,1,0,16,11,0,11,11,1,,,,,,,,,2,1.3523489949875511,,,105,001,2019_Sep_05_1012,MusicAffectPsychophysiology2019,3.0.5,60.022539662431086,
,,30MonoWAV/30MonoS4.wav,1,1,3,12,,,,,1,0,16,11,,,,,,,,,,,,,,,,,105,001,2019_Sep_05_1012,MusicAffectPsychophysiology2019,3.0.5,60.022539662431086,
To what extent did the music make you feel ,SAD,30MonoWAV/30MonoT1.wav,2,1,4,13,,,,,1,1,17,12,0,0,0,0,,,2,4.487310567987151,2,2.0028623589896597,3,3.5026056259521283,2,3.191159064997919,,,105,001,2019_Sep_05_1012,MusicAffectPsychophysiology2019,3.0.5,60.022539662431086,
To what extent did the music make you feel ,ANXIOUS ,30MonoWAV/30MonoT1.wav,2,1,4,13,,,,,1,1,17,12,0,1,1,1,,,,,,,,,1,1.2690611280268058,,,105,001,2019_Sep_05_1012,MusicAffectPsychophysiology2019,3.0.5,60.022539662431086,
To what extent did the music make you feel ,ALERT,30MonoWAV/30MonoT1.wav,2,1,4,13,,,,,1,1,17,12,0,2,2,8,,,,,,,,,2,2.051992894965224,,,105,001,2019_Sep_05_1012,MusicAffectPsychophysiology2019,3.0.5,60.022539662431086,
To what extent did the music make you feel ,ACTIVE,30MonoWAV/30MonoT1.wav,2,1,4,13,,,,,1,1,17,12,0,3,3,9,,,,,,,,,1,1.4351313880179077,,,105,001,2019_Sep_05_1012,MusicAffectPsychophysiology2019,3.0.5,60.022539662431086,
To what extent did the music make you feel ,FRUSTRATED,30MonoWAV/30MonoT1.wav,2,1,4,13,,,,,1,1,17,12,0,4,4,3,,,,,,,,,1,1.2427307600155473,,,105,001,2019_Sep_05_1012,MusicAffectPsychophysiology2019,3.0.5,60.022539662431086,
To what extent did the music make you feel ,HAPPY,30MonoWAV/30MonoT1.wav,2,1,4,13,,,,,1,1,17,12,0,5,5,6,,,,,,,,,1,3.5353243260178715,,,105,001,2019_Sep_05_1012,MusicAffectPsychophysiology2019,3.0.5,60.022539662431086,
To what extent did the music make you feel ,SCARED,30MonoWAV/30MonoT1.wav,2,1,4,13,,,,,1,1,17,12,0,6,6,11,,,,,,,,,1,0.9696021790150553,,,105,001,2019_Sep_05_1012,MusicAffectPsychophysiology2019,3.0.5,60.022539662431086,
To what extent did the music make you feel ,ASHAMED,30MonoWAV/30MonoT1.wav,2,1,4,13,,,,,1,1,17,12,0,7,7,4,,,,,,,,,1,0.6356950050103478,,,105,001,2019_Sep_05_1012,MusicAffectPsychophysiology2019,3.0.5,60.022539662431086,
To what extent did the music make you feel ,ANGRY,30MonoWAV/30MonoT1.wav,2,1,4,13,,,,,1,1,17,12,0,8,8,2,,,,,,,,,1,0.8693059720098972,,,105,001,2019_Sep_05_1012,MusicAffectPsychophysiology2019,3.0.5,60.022539662431086,
To what extent did the music make you feel ,EXCITED,30MonoWAV/30MonoT1.wav,2,1,4,13,,,,,1,1,17,12,0,9,9,7,,,,,,,,,1,0.9863876820309088,,,105,001,2019_Sep_05_1012,MusicAffectPsychophysiology2019,3.0.5,60.022539662431086,
To what extent did the music make you feel ,TENDER,30MonoWAV/30MonoT1.wav,2,1,4,13,,,,,1,1,17,12,0,10,10,10,,,,,,,,,3,1.5365542779909447,,,105,001,2019_Sep_05_1012,MusicAffectPsychophysiology2019,3.0.5,60.022539662431086,
To what extent did the music make you feel ,GUILTY,30MonoWAV/30MonoT1.wav,2,1,4,13,,,,,1,1,17,12,0,11,11,5,,,,,,,,,1,1.167263405979611,,,105,001,2019_Sep_05_1012,MusicAffectPsychophysiology2019,3.0.5,60.022539662431086,
,,30MonoWAV/30MonoT1.wav,2,1,4,13,,,,,1,1,17,12,,,,,,,,,,,,,,,,,105,001,2019_Sep_05_1012,MusicAffectPsychophysiology2019,3.0.5,60.022539662431086,
To what extent did the music make you feel ,HAPPY,30MonoWAV/30MonoH4.wav,2,2,1,8,,,,,1,2,18,7,0,0,0,6,,,3,3.3360209729871713,3,1.7020194999640808,3,2.002740799973253,3,1.2213580620009452,,,105,001,2019_Sep_05_1012,MusicAffectPsychophysiology2019,3.0.5,60.022539662431086,
To what extent did the music make you feel ,GUILTY,30MonoWAV/30MonoH4.wav,2,2,1,8,,,,,1,2,18,7,0,1,1,5,,,,,,,,,1,1.1855251929955557,,,105,001,2019_Sep_05_1012,MusicAffectPsychophysiology2019,3.0.5,60.022539662431086,
To what extent did the music make you feel ,ANXIOUS ,30MonoWAV/30MonoH4.wav,2,2,1,8,,,,,1,2,18,7,0,2,2,1,,,,,,,,,1,1.0520525199826807,,,105,001,2019_Sep_05_1012,MusicAffectPsychophysiology2019,3.0.5,60.022539662431086,
To what extent did the music make you feel ,ANGRY,30MonoWAV/30MonoH4.wav,2,2,1,8,,,,,1,2,18,7,0,3,3,2,,,,,,,,,1,1.00253389403224,,,105,001,2019_Sep_05_1012,MusicAffectPsychophysiology2019,3.0.5,60.022539662431086,
To what extent did the music make you feel ,FRUSTRATED,30MonoWAV/30MonoH4.wav,2,2,1,8,,,,,1,2,18,7,0,4,4,3,,,,,,,,,1,0.7696400340064429,,,105,001,2019_Sep_05_1012,MusicAffectPsychophysiology2019,3.0.5,60.022539662431086,
To what extent did the music make you feel ,TENDER,30MonoWAV/30MonoH4.wav,2,2,1,8,,,,,1,2,18,7,0,5,5,10,,,,,,,,,1,1.067159493046347,,,105,001,2019_Sep_05_1012,MusicAffectPsychophysiology2019,3.0.5,60.022539662431086,
To what extent did the music make you feel ,ACTIVE,30MonoWAV/30MonoH4.wav,2,2,1,8,,,,,1,2,18,7,0,6,6,9,,,,,,,,,3,1.5528761129826307,,,105,001,2019_Sep_05_1012,MusicAffectPsychophysiology2019,3.0.5,60.022539662431086,
To what extent did the music make you feel ,SAD,30MonoWAV/30MonoH4.wav,2,2,1,8,,,,,1,2,18,7,0,7,7,0,,,,,,,,,1,1.1860776160028763,,,105,001,2019_Sep_05_1012,MusicAffectPsychophysiology2019,3.0.5,60.022539662431086,
To what extent did the music make you feel ,EXCITED,30MonoWAV/30MonoH4.wav,2,2,1,8,,,,,1,2,18,7,0,8,8,7,,,,,,,,,2,1.3197815640014596,,,105,001,2019_Sep_05_1012,MusicAffectPsychophysiology2019,3.0.5,60.022539662431086,
To what extent did the music make you feel ,SCARED,30MonoWAV/30MonoH4.wav,2,2,1,8,,,,,1,2,18,7,0,9,9,11,,,,,,,,,1,1.0533687939750962,,,105,001,2019_Sep_05_1012,MusicAffectPsychophysiology2019,3.0.5,60.022539662431086,
To what extent did the music make you feel ,ALERT,30MonoWAV/30MonoH4.wav,2,2,1,8,,,,,1,2,18,7,0,10,10,8,,,,,,,,,3,1.4178047309978865,,,105,001,2019_Sep_05_1012,MusicAffectPsychophysiology2019,3.0.5,60.022539662431086,
To what extent did the music make you feel ,ASHAMED,30MonoWAV/30MonoH4.wav,2,2,1,8,,,,,1,2,18,7,0,11,11,4,,,,,,,,,1,1.0367041759891436,,,105,001,2019_Sep_05_1012,MusicAffectPsychophysiology2019,3.0.5,60.022539662431086,
,,30MonoWAV/30MonoH4.wav,2,2,1,8,,,,,1,2,18,7,,,,,,,,,,,,,,,,,105,001,2019_Sep_05_1012,MusicAffectPsychophysiology2019,3.0.5,60.022539662431086,
To what extent did the music make you feel ,FRUSTRATED,30MonoWAV/30MonoS2.wav,1,1,3,10,,,,,1,3,19,9,0,0,0,3,,,1,6.836464643012732,3,3.7854497589869425,3,1.4691188519936986,1,1.9622513300273567,,,105,001,2019_Sep_05_1012,MusicAffectPsychophysiology2019,3.0.5,60.022539662431086,
To what extent did the music make you feel ,ANXIOUS ,30MonoWAV/30MonoS2.wav,1,1,3,10,,,,,1,3,19,9,0,1,1,1,,,,,,,,,1,0.9862236519693397,,,105,001,2019_Sep_05_1012,MusicAffectPsychophysiology2019,3.0.5,60.022539662431086,
To what extent did the music make you feel ,HAPPY,30MonoWAV/30MonoS2.wav,1,1,3,10,,,,,1,3,19,9,0,2,2,6,,,,,,,,,2,3.018316352972761,,,105,001,2019_Sep_05_1012,MusicAffectPsychophysiology2019,3.0.5,60.022539662431086,
To what extent did the music make you feel ,EXCITED,30MonoWAV/30MonoS2.wav,1,1,3,10,,,,,1,3,19,9,0,3,3,7,,,,,,,,,1,2.9534482159651816,,,105,001,2019_Sep_05_1012,MusicAffectPsychophysiology2019,3.0.5,60.022539662431086,
To what extent did the music make you feel ,ACTIVE,30MonoWAV/30MonoS2.wav,1,1,3,10,,,,,1,3,19,9,0,4,4,9,,,,,,,,,1,1.018820005003363,,,105,001,2019_Sep_05_1012,MusicAffectPsychophysiology2019,3.0.5,60.022539662431086,
To what extent did the music make you feel ,GUILTY,30MonoWAV/30MonoS2.wav,1,1,3,10,,,,,1,3,19,9,0,5,5,5,,,,,,,,,1,0.7689249280374497,,,105,001,2019_Sep_05_1012,MusicAffectPsychophysiology2019,3.0.5,60.022539662431086,
To what extent did the music make you feel ,TENDER,30MonoWAV/30MonoS2.wav,1,1,3,10,,,,,1,3,19,9,0,6,6,10,,,,,,,,,3,1.3499591189902276,,,105,001,2019_Sep_05_1012,MusicAffectPsychophysiology2019,3.0.5,60.022539662431086,
To what extent did the music make you feel ,ALERT,30MonoWAV/30MonoS2.wav,1,1,3,10,,,,,1,3,19,9,0,7,7,8,,,,,,,,,1,1.767109036038164,,,105,001,2019_Sep_05_1012,MusicAffectPsychophysiology2019,3.0.5,60.022539662431086,
To what extent did the music make you feel ,SAD,30MonoWAV/30MonoS2.wav,1,1,3,10,,,,,1,3,19,9,0,8,8,0,,,,,,,,,1,4.335063164995518,,,105,001,2019_Sep_05_1012,MusicAffectPsychophysiology2019,3.0.5,60.022539662431086,
To what extent did the music make you feel ,SCARED,30MonoWAV/30MonoS2.wav,1,1,3,10,,,,,1,3,19,9,0,9,9,11,,,,,,,,,1,0.9016748039866798,,,105,001,2019_Sep_05_1012,MusicAffectPsychophysiology2019,3.0.5,60.022539662431086,
To what extent did the music make you feel ,ANGRY,30MonoWAV/30MonoS2.wav,1,1,3,10,,,,,1,3,19,9,0,10,10,2,,,,,,,,,1,0.8007697580032982,,,105,001,2019_Sep_05_1012,MusicAffectPsychophysiology2019,3.0.5,60.022539662431086,
To what extent did the music make you feel ,ASHAMED,30MonoWAV/30MonoS2.wav,1,1,3,10,,,,,1,3,19,9,0,11,11,4,,,,,,,,,1,0.7021269639953971,,,105,001,2019_Sep_05_1012,MusicAffectPsychophysiology2019,3.0.5,60.022539662431086,
,,30MonoWAV/30MonoS2.wav,1,1,3,10,,,,,1,3,19,9,,,,,,,,,,,,,,,,,105,001,2019_Sep_05_1012,MusicAffectPsychophysiology2019,3.0.5,60.022539662431086,
To what extent did the music make you feel ,ASHAMED,30MonoWAV/30MonoT2.wav,2,1,4,14,,,,,1,4,20,13,0,0,0,4,,,2,4.419718709017616,3,1.918830010050442,2,3.269278309016954,1,1.6204066789941862,,,105,001,2019_Sep_05_1012,MusicAffectPsychophysiology2019,3.0.5,60.022539662431086,
To what extent did the music make you feel ,ANXIOUS ,30MonoWAV/30MonoT2.wav,2,1,4,14,,,,,1,4,20,13,0,1,1,1,,,,,,,,,1,0.9863756460254081,,,105,001,2019_Sep_05_1012,MusicAffectPsychophysiology2019,3.0.5,60.022539662431086,
To what extent did the music make you feel ,EXCITED,30MonoWAV/30MonoT2.wav,2,1,4,14,,,,,1,4,20,13,0,2,2,7,,,,,,,,,2,2.6026544659980573,,,105,001,2019_Sep_05_1012,MusicAffectPsychophysiology2019,3.0.5,60.022539662431086,
To what extent did the music make you feel ,GUILTY,30MonoWAV/30MonoT2.wav,2,1,4,14,,,,,1,4,20,13,0,3,3,5,,,,,,,,,1,0.9698618040420115,,,105,001,2019_Sep_05_1012,MusicAffectPsychophysiology2019,3.0.5,60.022539662431086,
To what extent did the music make you feel ,HAPPY,30MonoWAV/30MonoT2.wav,2,1,4,14,,,,,1,4,20,13,0,4,4,6,,,,,,,,,2,1.067254148016218,,,105,001,2019_Sep_05_1012,MusicAffectPsychophysiology2019,3.0.5,60.022539662431086,
To what extent did the music make you feel ,ACTIVE,30MonoWAV/30MonoT2.wav,2,1,4,14,,,,,1,4,20,13,0,5,5,9,,,,,,,,,2,2.28584485698957,,,105,001,2019_Sep_05_1012,MusicAffectPsychophysiology2019,3.0.5,60.022539662431086,
To what extent did the music make you feel ,FRUSTRATED,30MonoWAV/30MonoT2.wav,2,1,4,14,,,,,1,4,20,13,0,6,6,3,,,,,,,,,1,0.8677658360102214,,,105,001,2019_Sep_05_1012,MusicAffectPsychophysiology2019,3.0.5,60.022539662431086,
To what extent did the music make you feel ,SCARED,30MonoWAV/30MonoT2.wav,2,1,4,14,,,,,1,4,20,13,0,7,7,11,,,,,,,,,1,0.9353792640031315,,,105,001,2019_Sep_05_1012,MusicAffectPsychophysiology2019,3.0.5,60.022539662431086,
To what extent did the music make you feel ,ANGRY,30MonoWAV/30MonoT2.wav,2,1,4,14,,,,,1,4,20,13,0,8,8,2,,,,,,,,,1,0.8361441080342047,,,105,001,2019_Sep_05_1012,MusicAffectPsychophysiology2019,3.0.5,60.022539662431086,
To what extent did the music make you feel ,TENDER,30MonoWAV/30MonoT2.wav,2,1,4,14,,,,,1,4,20,13,0,9,9,10,,,,,,,,,1,1.1517413500114344,,,105,001,2019_Sep_05_1012,MusicAffectPsychophysiology2019,3.0.5,60.022539662431086,
To what extent did the music make you feel ,SAD,30MonoWAV/30MonoT2.wav,2,1,4,14,,,,,1,4,20,13,0,10,10,0,,,,,,,,,1,1.2835229670163244,,,105,001,2019_Sep_05_1012,MusicAffectPsychophysiology2019,3.0.5,60.022539662431086,
To what extent did the music make you feel ,ALERT,30MonoWAV/30MonoT2.wav,2,1,4,14,,,,,1,4,20,13,0,11,11,8,,,,,,,,,2,2.2529282990144566,,,105,001,2019_Sep_05_1012,MusicAffectPsychophysiology2019,3.0.5,60.022539662431086,
,,30MonoWAV/30MonoT2.wav,2,1,4,14,,,,,1,4,20,13,,,,,,,,,,,,,,,,,105,001,2019_Sep_05_1012,MusicAffectPsychophysiology2019,3.0.5,60.022539662431086,
To what extent did the music make you feel ,TENDER,30MonoWAV/30MonoH3.wav,2,2,1,7,,,,,1,5,21,6,0,0,0,10,,,4,3.0021142389741726,4,1.2688812100095674,4,1.5373119880096056,3,2.719387270975858,,,105,001,2019_Sep_05_1012,MusicAffectPsychophysiology2019,3.0.5,60.022539662431086,
To what extent did the music make you feel ,ALERT,30MonoWAV/30MonoH3.wav,2,2,1,7,,,,,1,5,21,6,0,1,1,8,,,,,,,,,4,1.3369205869967118,,,105,001,2019_Sep_05_1012,MusicAffectPsychophysiology2019,3.0.5,60.022539662431086,
To what extent did the music make you feel ,ASHAMED,30MonoWAV/30MonoH3.wav,2,2,1,7,,,,,1,5,21,6,0,2,2,4,,,,,,,,,1,1.336285723024048,,,105,001,2019_Sep_05_1012,MusicAffectPsychophysiology2019,3.0.5,60.022539662431086,
To what extent did the music make you feel ,ANGRY,30MonoWAV/30MonoH3.wav,2,2,1,7,,,,,1,5,21,6,0,3,3,2,,,,,,,,,1,0.8837195410160348,,,105,001,2019_Sep_05_1012,MusicAffectPsychophysiology2019,3.0.5,60.022539662431086,
To what extent did the music make you feel ,ACTIVE,30MonoWAV/30MonoH3.wav,2,2,1,7,,,,,1,5,21,6,0,4,4,9,,,,,,,,,3,1.5189279399928637,,,105,001,2019_Sep_05_1012,MusicAffectPsychophysiology2019,3.0.5,60.022539662431086,
To what extent did the music make you feel ,FRUSTRATED,30MonoWAV/30MonoH3.wav,2,2,1,7,,,,,1,5,21,6,0,5,5,3,,,,,,,,,1,1.0311456079944037,,,105,001,2019_Sep_05_1012,MusicAffectPsychophysiology2019,3.0.5,60.022539662431086,
To what extent did the music make you feel ,HAPPY,30MonoWAV/30MonoH3.wav,2,2,1,7,,,,,1,5,21,6,0,6,6,6,,,,,,,,,4,1.2869017210323364,,,105,001,2019_Sep_05_1012,MusicAffectPsychophysiology2019,3.0.5,60.022539662431086,
To what extent did the music make you feel ,ANXIOUS ,30MonoWAV/30MonoH3.wav,2,2,1,7,,,,,1,5,21,6,0,7,7,1,,,,,,,,,1,1.0204328239778988,,,105,001,2019_Sep_05_1012,MusicAffectPsychophysiology2019,3.0.5,60.022539662431086,
To what extent did the music make you feel ,EXCITED,30MonoWAV/30MonoH3.wav,2,2,1,7,,,,,1,5,21,6,0,8,8,7,,,,,,,,,4,1.2198186549940147,,,105,001,2019_Sep_05_1012,MusicAffectPsychophysiology2019,3.0.5,60.022539662431086,
To what extent did the music make you feel ,SAD,30MonoWAV/30MonoH3.wav,2,2,1,7,,,,,1,5,21,6,0,9,9,0,,,,,,,,,1,1.0874229219625704,,,105,001,2019_Sep_05_1012,MusicAffectPsychophysiology2019,3.0.5,60.022539662431086,
To what extent did the music make you feel ,GUILTY,30MonoWAV/30MonoH3.wav,2,2,1,7,,,,,1,5,21,6,0,10,10,5,,,,,,,,,1,1.1487536130007356,,,105,001,2019_Sep_05_1012,MusicAffectPsychophysiology2019,3.0.5,60.022539662431086,
To what extent did the music make you feel ,SCARED,30MonoWAV/30MonoH3.wav,2,2,1,7,,,,,1,5,21,6,0,11,11,11,,,,,,,,,1,1.0300346079748124,,,105,001,2019_Sep_05_1012,MusicAffectPsychophysiology2019,3.0.5,60.022539662431086,
,,30MonoWAV/30MonoH3.wav,2,2,1,7,,,,,1,5,21,6,,,,,,,,,,,,,,,,,105,001,2019_Sep_05_1012,MusicAffectPsychophysiology2019,3.0.5,60.022539662431086,
To what extent did the music make you feel ,ASHAMED,30MonoWAV/30MonoF2.wav,1,2,2,2,,,,,1,6,22,1,0,0,0,4,,,2,5.2863491650205106,1,1.66913386201486,1,1.5195073210052215,1,1.5736886879894882,,,105,001,2019_Sep_05_1012,MusicAffectPsychophysiology2019,3.0.5,60.022539662431086,
To what extent did the music make you feel ,ANGRY,30MonoWAV/30MonoF2.wav,1,2,2,2,,,,,1,6,22,1,0,1,1,2,,,,,,,,,1,2.2359740089741535,,,105,001,2019_Sep_05_1012,MusicAffectPsychophysiology2019,3.0.5,60.022539662431086,
To what extent did the music make you feel ,ANXIOUS ,30MonoWAV/30MonoF2.wav,1,2,2,2,,,,,1,6,22,1,0,2,2,1,,,,,,,,,2,1.903620155993849,,,105,001,2019_Sep_05_1012,MusicAffectPsychophysiology2019,3.0.5,60.022539662431086,
To what extent did the music make you feel ,SCARED,30MonoWAV/30MonoF2.wav,1,2,2,2,,,,,1,6,22,1,0,3,3,11,,,,,,,,,2,1.5364974100375548,,,105,001,2019_Sep_05_1012,MusicAffectPsychophysiology2019,3.0.5,60.022539662431086,
To what extent did the music make you feel ,HAPPY,30MonoWAV/30MonoF2.wav,1,2,2,2,,,,,1,6,22,1,0,4,4,6,,,,,,,,,1,1.30629196803784,,,105,001,2019_Sep_05_1012,MusicAffectPsychophysiology2019,3.0.5,60.022539662431086,
To what extent did the music make you feel ,SAD,30MonoWAV/30MonoF2.wav,1,2,2,2,,,,,1,6,22,1,0,5,5,0,,,,,,,,,1,1.3196996960323304,,,105,001,2019_Sep_05_1012,MusicAffectPsychophysiology2019,3.0.5,60.022539662431086,
To what extent did the music make you feel ,FRUSTRATED,30MonoWAV/30MonoF2.wav,1,2,2,2,,,,,1,6,22,1,0,6,6,3,,,,,,,,,1,1.1211779750301503,,,105,001,2019_Sep_05_1012,MusicAffectPsychophysiology2019,3.0.5,60.022539662431086,
To what extent did the music make you feel ,ACTIVE,30MonoWAV/30MonoF2.wav,1,2,2,2,,,,,1,6,22,1,0,7,7,9,,,,,,,,,2,1.968538637040183,,,105,001,2019_Sep_05_1012,MusicAffectPsychophysiology2019,3.0.5,60.022539662431086,
To what extent did the music make you feel ,TENDER,30MonoWAV/30MonoF2.wav,1,2,2,2,,,,,1,6,22,1,0,8,8,10,,,,,,,,,1,1.0525879689957947,,,105,001,2019_Sep_05_1012,MusicAffectPsychophysiology2019,3.0.5,60.022539662431086,
To what extent did the music make you feel ,GUILTY,30MonoWAV/30MonoF2.wav,1,2,2,2,,,,,1,6,22,1,0,9,9,5,,,,,,,,,1,0.9338313519838266,,,105,001,2019_Sep_05_1012,MusicAffectPsychophysiology2019,3.0.5,60.022539662431086,
To what extent did the music make you feel ,EXCITED,30MonoWAV/30MonoF2.wav,1,2,2,2,,,,,1,6,22,1,0,10,10,7,,,,,,,,,1,1.1191604970372282,,,105,001,2019_Sep_05_1012,MusicAffectPsychophysiology2019,3.0.5,60.022539662431086,
To what extent did the music make you feel ,ALERT,30MonoWAV/30MonoF2.wav,1,2,2,2,,,,,1,6,22,1,0,11,11,8,,,,,,,,,3,1.7527976849814877,,,105,001,2019_Sep_05_1012,MusicAffectPsychophysiology2019,3.0.5,60.022539662431086,
,,30MonoWAV/30MonoF2.wav,1,2,2,2,,,,,1,6,22,1,,,,,,,,,,,,,,,,,105,001,2019_Sep_05_1012,MusicAffectPsychophysiology2019,3.0.5,60.022539662431086,
To what extent did the music make you feel ,FRUSTRATED,30MonoWAV/30MonoF1.wav,1,2,2,1,,,,,1,7,23,0,0,0,0,3,,,3,5.736091419996228,2,2.5694503629929386,2,1.1020816250238568,1,2.3540067299618386,,,105,001,2019_Sep_05_1012,MusicAffectPsychophysiology2019,3.0.5,60.022539662431086,
To what extent did the music make you feel ,ALERT,30MonoWAV/30MonoF1.wav,1,2,2,1,,,,,1,7,23,0,0,1,1,8,,,,,,,,,3,1.5677389560150914,,,105,001,2019_Sep_05_1012,MusicAffectPsychophysiology2019,3.0.5,60.022539662431086,
To what extent did the music make you feel ,ANGRY,30MonoWAV/30MonoF1.wav,1,2,2,1,,,,,1,7,23,0,0,2,2,2,,,,,,,,,1,1.4030191279598512,,,105,001,2019_Sep_05_1012,MusicAffectPsychophysiology2019,3.0.5,60.022539662431086,
To what extent did the music make you feel ,ANXIOUS ,30MonoWAV/30MonoF1.wav,1,2,2,1,,,,,1,7,23,0,0,3,3,1,,,,,,,,,1,1.3494981999974698,,,105,001,2019_Sep_05_1012,MusicAffectPsychophysiology2019,3.0.5,60.022539662431086,
To what extent did the music make you feel ,TENDER,30MonoWAV/30MonoF1.wav,1,2,2,1,,,,,1,7,23,0,0,4,4,10,,,,,,,,,1,0.9032674490008503,,,105,001,2019_Sep_05_1012,MusicAffectPsychophysiology2019,3.0.5,60.022539662431086,
To what extent did the music make you feel ,GUILTY,30MonoWAV/30MonoF1.wav,1,2,2,1,,,,,1,7,23,0,0,5,5,5,,,,,,,,,1,0.7014122779946774,,,105,001,2019_Sep_05_1012,MusicAffectPsychophysiology2019,3.0.5,60.022539662431086,
To what extent did the music make you feel ,HAPPY,30MonoWAV/30MonoF1.wav,1,2,2,1,,,,,1,7,23,0,0,6,6,6,,,,,,,,,1,0.9673788410145789,,,105,001,2019_Sep_05_1012,MusicAffectPsychophysiology2019,3.0.5,60.022539662431086,
To what extent did the music make you feel ,ACTIVE,30MonoWAV/30MonoF1.wav,1,2,2,1,,,,,1,7,23,0,0,7,7,9,,,,,,,,,2,1.9861699049943127,,,105,001,2019_Sep_05_1012,MusicAffectPsychophysiology2019,3.0.5,60.022539662431086,
To what extent did the music make you feel ,EXCITED,30MonoWAV/30MonoF1.wav,1,2,2,1,,,,,1,7,23,0,0,8,8,7,,,,,,,,,2,1.6312942450167611,,,105,001,2019_Sep_05_1012,MusicAffectPsychophysiology2019,3.0.5,60.022539662431086,
To what extent did the music make you feel ,SCARED,30MonoWAV/30MonoF1.wav,1,2,2,1,,,,,1,7,23,0,0,9,9,11,,,,,,,,,1,3.5828013209975325,,,105,001,2019_Sep_05_1012,MusicAffectPsychophysiology2019,3.0.5,60.022539662431086,
To what extent did the music make you feel ,ASHAMED,30MonoWAV/30MonoF1.wav,1,2,2,1,,,,,1,7,23,0,0,10,10,4,,,,,,,,,1,0.9678544769994915,,,105,001,2019_Sep_05_1012,MusicAffectPsychophysiology2019,3.0.5,60.022539662431086,
To what extent did the music make you feel ,SAD,30MonoWAV/30MonoF1.wav,1,2,2,1,,,,,1,7,23,0,0,11,11,0,,,,,,,,,1,0.9019465990131721,,,105,001,2019_Sep_05_1012,MusicAffectPsychophysiology2019,3.0.5,60.022539662431086,
,,30MonoWAV/30MonoF1.wav,1,2,2,1,,,,,1,7,23,0,,,,,,,,,,,,,,,,,105,001,2019_Sep_05_1012,MusicAffectPsychophysiology2019,3.0.5,60.022539662431086,
To what extent did the music make you feel ,SAD,30MonoWAV/30MonoF3.wav,1,2,2,3,,,,,1,8,24,2,0,0,0,0,,,2,4.052432795986533,2,2.286307167960331,2,1.6164791220217012,1,1.986444951966405,,,105,001,2019_Sep_05_1012,MusicAffectPsychophysiology2019,3.0.5,60.022539662431086,
To what extent did the music make you feel ,ANXIOUS ,30MonoWAV/30MonoF3.wav,1,2,2,3,,,,,1,8,24,2,0,1,1,1,,,,,,,,,1,1.086186341010034,,,105,001,2019_Sep_05_1012,MusicAffectPsychophysiology2019,3.0.5,60.022539662431086,
To what extent did the music make you feel ,ACTIVE,30MonoWAV/30MonoF3.wav,1,2,2,3,,,,,1,8,24,2,0,2,2,9,,,,,,,,,2,1.9857465159730054,,,105,001,2019_Sep_05_1012,MusicAffectPsychophysiology2019,3.0.5,60.022539662431086,
To what extent did the music make you feel ,SCARED,30MonoWAV/30MonoF3.wav,1,2,2,3,,,,,1,8,24,2,0,3,3,11,,,,,,,,,1,1.3192624170333147,,,105,001,2019_Sep_05_1012,MusicAffectPsychophysiology2019,3.0.5,60.022539662431086,
To what extent did the music make you feel ,FRUSTRATED,30MonoWAV/30MonoF3.wav,1,2,2,3,,,,,1,8,24,2,0,4,4,3,,,,,,,,,1,1.3091930440277793,,,105,001,2019_Sep_05_1012,MusicAffectPsychophysiology2019,3.0.5,60.022539662431086,
To what extent did the music make you feel ,GUILTY,30MonoWAV/30MonoF3.wav,1,2,2,3,,,,,1,8,24,2,0,5,5,5,,,,,,,,,1,1.0198389979777858,,,105,001,2019_Sep_05_1012,MusicAffectPsychophysiology2019,3.0.5,60.022539662431086,
To what extent did the music make you feel ,TENDER,30MonoWAV/30MonoF3.wav,1,2,2,3,,,,,1,8,24,2,0,6,6,10,,,,,,,,,1,1.0356882649939507,,,105,001,2019_Sep_05_1012,MusicAffectPsychophysiology2019,3.0.5,60.022539662431086,
To what extent did the music make you feel ,ASHAMED,30MonoWAV/30MonoF3.wav,1,2,2,3,,,,,1,8,24,2,0,7,7,4,,,,,,,,,1,1.18593062995933,,,105,001,2019_Sep_05_1012,MusicAffectPsychophysiology2019,3.0.5,60.022539662431086,
To what extent did the music make you feel ,EXCITED,30MonoWAV/30MonoF3.wav,1,2,2,3,,,,,1,8,24,2,0,8,8,7,,,,,,,,,1,1.368883304996416,,,105,001,2019_Sep_05_1012,MusicAffectPsychophysiology2019,3.0.5,60.022539662431086,
To what extent did the music make you feel ,HAPPY,30MonoWAV/30MonoF3.wav,1,2,2,3,,,,,1,8,24,2,0,9,9,6,,,,,,,,,2,4.486024000972975,,,105,001,2019_Sep_05_1012,MusicAffectPsychophysiology2019,3.0.5,60.022539662431086,
To what extent did the music make you feel ,ALERT,30MonoWAV/30MonoF3.wav,1,2,2,3,,,,,1,8,24,2,0,10,10,8,,,,,,,,,2,1.4363885310012847,,,105,001,2019_Sep_05_1012,MusicAffectPsychophysiology2019,3.0.5,60.022539662431086,
To what extent did the music make you feel ,ANGRY,30MonoWAV/30MonoF3.wav,1,2,2,3,,,,,1,8,24,2,0,11,11,2,,,,,,,,,1,1.33648631995311,,,105,001,2019_Sep_05_1012,MusicAffectPsychophysiology2019,3.0.5,60.022539662431086,
,,30MonoWAV/30MonoF3.wav,1,2,2,3,,,,,1,8,24,2,,,,,,,,,,,,,,,,,105,001,2019_Sep_05_1012,MusicAffectPsychophysiology2019,3.0.5,60.022539662431086,
To what extent did the music make you feel ,SCARED,30MonoWAV/30MonoF4.wav,1,2,2,4,,,,,1,9,25,3,0,0,0,11,,,3,4.182879929023329,2,3.9356799370143563,3,2.1026366479927674,1,3.2191543779917993,,,105,001,2019_Sep_05_1012,MusicAffectPsychophysiology2019,3.0.5,60.022539662431086,
To what extent did the music make you feel ,ASHAMED,30MonoWAV/30MonoF4.wav,1,2,2,4,,,,,1,9,25,3,0,1,1,4,,,,,,,,,1,0.9696098809945397,,,105,001,2019_Sep_05_1012,MusicAffectPsychophysiology2019,3.0.5,60.022539662431086,
To what extent did the music make you feel ,GUILTY,30MonoWAV/30MonoF4.wav,1,2,2,4,,,,,1,9,25,3,0,2,2,5,,,,,,,,,1,0.7188067079987377,,,105,001,2019_Sep_05_1012,MusicAffectPsychophysiology2019,3.0.5,60.022539662431086,
To what extent did the music make you feel ,ACTIVE,30MonoWAV/30MonoF4.wav,1,2,2,4,,,,,1,9,25,3,0,3,3,9,,,,,,,,,2,1.4358460219809785,,,105,001,2019_Sep_05_1012,MusicAffectPsychophysiology2019,3.0.5,60.022539662431086,
To what extent did the music make you feel ,ANGRY,30MonoWAV/30MonoF4.wav,1,2,2,4,,,,,1,9,25,3,0,4,4,2,,,,,,,,,1,1.6027637399965897,,,105,001,2019_Sep_05_1012,MusicAffectPsychophysiology2019,3.0.5,60.022539662431086,
To what extent did the music make you feel ,EXCITED,30MonoWAV/30MonoF4.wav,1,2,2,4,,,,,1,9,25,3,0,5,5,7,,,,,,,,,3,2.8020681249909103,,,105,001,2019_Sep_05_1012,MusicAffectPsychophysiology2019,3.0.5,60.022539662431086,
To what extent did the music make you feel ,SAD,30MonoWAV/30MonoF4.wav,1,2,2,4,,,,,1,9,25,3,0,6,6,0,,,,,,,,,1,1.435428231023252,,,105,001,2019_Sep_05_1012,MusicAffectPsychophysiology2019,3.0.5,60.022539662431086,
To what extent did the music make you feel ,FRUSTRATED,30MonoWAV/30MonoF4.wav,1,2,2,4,,,,,1,9,25,3,0,7,7,3,,,,,,,,,1,1.1180987649713643,,,105,001,2019_Sep_05_1012,MusicAffectPsychophysiology2019,3.0.5,60.022539662431086,
To what extent did the music make you feel ,ALERT,30MonoWAV/30MonoF4.wav,1,2,2,4,,,,,1,9,25,3,0,8,8,8,,,,,,,,,3,1.369030105008278,,,105,001,2019_Sep_05_1012,MusicAffectPsychophysiology2019,3.0.5,60.022539662431086,
To what extent did the music make you feel ,ANXIOUS ,30MonoWAV/30MonoF4.wav,1,2,2,4,,,,,1,9,25,3,0,9,9,1,,,,,,,,,1,1.1028618940035813,,,105,001,2019_Sep_05_1012,MusicAffectPsychophysiology2019,3.0.5,60.022539662431086,
To what extent did the music make you feel ,TENDER,30MonoWAV/30MonoF4.wav,1,2,2,4,,,,,1,9,25,3,0,10,10,10,,,,,,,,,1,1.1528876859811135,,,105,001,2019_Sep_05_1012,MusicAffectPsychophysiology2019,3.0.5,60.022539662431086,
To what extent did the music make you feel ,HAPPY,30MonoWAV/30MonoF4.wav,1,2,2,4,,,,,1,9,25,3,0,11,11,6,,,,,,,,,2,2.8188595470273867,,,105,001,2019_Sep_05_1012,MusicAffectPsychophysiology2019,3.0.5,60.022539662431086,
,,30MonoWAV/30MonoF4.wav,1,2,2,4,,,,,1,9,25,3,,,,,,,,,,,,,,,,,105,001,2019_Sep_05_1012,MusicAffectPsychophysiology2019,3.0.5,60.022539662431086,
To what extent did the music make you feel ,ALERT,30MonoWAV/30MonoS3.wav,1,1,3,11,,,,,1,10,26,10,0,0,0,8,,,1,3.9529147659777664,2,2.1016549749765545,2,2.7192221180303022,1,2.7447207589866593,,,105,001,2019_Sep_05_1012,MusicAffectPsychophysiology2019,3.0.5,60.022539662431086,
To what extent did the music make you feel ,ANXIOUS ,30MonoWAV/30MonoS3.wav,1,1,3,11,,,,,1,10,26,10,0,1,1,1,,,,,,,,,1,1.369439992995467,,,105,001,2019_Sep_05_1012,MusicAffectPsychophysiology2019,3.0.5,60.022539662431086,
To what extent did the music make you feel ,SCARED,30MonoWAV/30MonoS3.wav,1,1,3,11,,,,,1,10,26,10,0,2,2,11,,,,,,,,,1,0.9857557190116495,,,105,001,2019_Sep_05_1012,MusicAffectPsychophysiology2019,3.0.5,60.022539662431086,
To what extent did the music make you feel ,HAPPY,30MonoWAV/30MonoS3.wav,1,1,3,11,,,,,1,10,26,10,0,3,3,6,,,,,,,,,2,1.4030897680204362,,,105,001,2019_Sep_05_1012,MusicAffectPsychophysiology2019,3.0.5,60.022539662431086,
To what extent did the music make you feel ,EXCITED,30MonoWAV/30MonoS3.wav,1,1,3,11,,,,,1,10,26,10,0,4,4,7,,,,,,,,,1,1.159974202979356,,,105,001,2019_Sep_05_1012,MusicAffectPsychophysiology2019,3.0.5,60.022539662431086,
To what extent did the music make you feel ,ANGRY,30MonoWAV/30MonoS3.wav,1,1,3,11,,,,,1,10,26,10,0,5,5,2,,,,,,,,,1,1.4861153889796697,,,105,001,2019_Sep_05_1012,MusicAffectPsychophysiology2019,3.0.5,60.022539662431086,
To what extent did the music make you feel ,FRUSTRATED,30MonoWAV/30MonoS3.wav,1,1,3,11,,,,,1,10,26,10,0,6,6,3,,,,,,,,,1,0.7599383579799905,,,105,001,2019_Sep_05_1012,MusicAffectPsychophysiology2019,3.0.5,60.022539662431086,
To what extent did the music make you feel ,SAD,30MonoWAV/30MonoS3.wav,1,1,3,11,,,,,1,10,26,10,0,7,7,0,,,,,,,,,1,1.1857008159859106,,,105,001,2019_Sep_05_1012,MusicAffectPsychophysiology2019,3.0.5,60.022539662431086,
To what extent did the music make you feel ,ACTIVE,30MonoWAV/30MonoS3.wav,1,1,3,11,,,,,1,10,26,10,0,8,8,9,,,,,,,,,1,0.953258185996674,,,105,001,2019_Sep_05_1012,MusicAffectPsychophysiology2019,3.0.5,60.022539662431086,
To what extent did the music make you feel ,TENDER,30MonoWAV/30MonoS3.wav,1,1,3,11,,,,,1,10,26,10,0,9,9,10,,,,,,,,,2,1.3033893929678015,,,105,001,2019_Sep_05_1012,MusicAffectPsychophysiology2019,3.0.5,60.022539662431086,
To what extent did the music make you feel ,GUILTY,30MonoWAV/30MonoS3.wav,1,1,3,11,,,,,1,10,26,10,0,10,10,5,,,,,,,,,1,1.2701214760309085,,,105,001,2019_Sep_05_1012,MusicAffectPsychophysiology2019,3.0.5,60.022539662431086,
To what extent did the music make you feel ,ASHAMED,30MonoWAV/30MonoS3.wav,1,1,3,11,,,,,1,10,26,10,0,11,11,4,,,,,,,,,1,0.9030708509963006,,,105,001,2019_Sep_05_1012,MusicAffectPsychophysiology2019,3.0.5,60.022539662431086,
,,30MonoWAV/30MonoS3.wav,1,1,3,11,,,,,1,10,26,10,,,,,,,,,,,,,,,,,105,001,2019_Sep_05_1012,MusicAffectPsychophysiology2019,3.0.5,60.022539662431086,
To what extent did the music make you feel ,ANGRY,30MonoWAV/30MonoH1.wav,2,2,1,5,,,,,1,11,27,4,0,0,0,2,,,3,4.63664024299942,3,1.6520972309517674,3,1.7872396089951508,1,1.67067160399165,,,105,001,2019_Sep_05_1012,MusicAffectPsychophysiology2019,3.0.5,60.022539662431086,
To what extent did the music make you feel ,ALERT,30MonoWAV/30MonoH1.wav,2,2,1,5,,,,,1,11,27,4,0,1,1,8,,,,,,,,,3,1.6693250960088335,,,105,001,2019_Sep_05_1012,MusicAffectPsychophysiology2019,3.0.5,60.022539662431086,
To what extent did the music make you feel ,HAPPY,30MonoWAV/30MonoH1.wav,2,2,1,5,,,,,1,11,27,4,0,2,2,6,,,,,,,,,3,1.8360768830170855,,,105,001,2019_Sep_05_1012,MusicAffectPsychophysiology2019,3.0.5,60.022539662431086,
To what extent did the music make you feel ,ANXIOUS ,30MonoWAV/30MonoH1.wav,2,2,1,5,,,,,1,11,27,4,0,3,3,1,,,,,,,,,1,1.2020298999850638,,,105,001,2019_Sep_05_1012,MusicAffectPsychophysiology2019,3.0.5,60.022539662431086,
To what extent did the music make you feel ,ACTIVE,30MonoWAV/30MonoH1.wav,2,2,1,5,,,,,1,11,27,4,0,4,4,9,,,,,,,,,2,1.652431539958343,,,105,001,2019_Sep_05_1012,MusicAffectPsychophysiology2019,3.0.5,60.022539662431086,
To what extent did the music make you feel ,ASHAMED,30MonoWAV/30MonoH1.wav,2,2,1,5,,,,,1,11,27,4,0,5,5,4,,,,,,,,,1,1.1168732839869335,,,105,001,2019_Sep_05_1012,MusicAffectPsychophysiology2019,3.0.5,60.022539662431086,
To what extent did the music make you feel ,GUILTY,30MonoWAV/30MonoH1.wav,2,2,1,5,,,,,1,11,27,4,0,6,6,5,,,,,,,,,1,0.7363479189807549,,,105,001,2019_Sep_05_1012,MusicAffectPsychophysiology2019,3.0.5,60.022539662431086,
To what extent did the music make you feel ,SCARED,30MonoWAV/30MonoH1.wav,2,2,1,5,,,,,1,11,27,4,0,7,7,11,,,,,,,,,1,0.7708190490375273,,,105,001,2019_Sep_05_1012,MusicAffectPsychophysiology2019,3.0.5,60.022539662431086,
To what extent did the music make you feel ,FRUSTRATED,30MonoWAV/30MonoH1.wav,2,2,1,5,,,,,1,11,27,4,0,8,8,3,,,,,,,,,1,0.6856004660367034,,,105,001,2019_Sep_05_1012,MusicAffectPsychophysiology2019,3.0.5,60.022539662431086,
To what extent did the music make you feel ,SAD,30MonoWAV/30MonoH1.wav,2,2,1,5,,,,,1,11,27,4,0,9,9,0,,,,,,,,,1,0.9860907309921458,,,105,001,2019_Sep_05_1012,MusicAffectPsychophysiology2019,3.0.5,60.022539662431086,
To what extent did the music make you feel ,EXCITED,30MonoWAV/30MonoH1.wav,2,2,1,5,,,,,1,11,27,4,0,10,10,7,,,,,,,,,2,1.4540454859961756,,,105,001,2019_Sep_05_1012,MusicAffectPsychophysiology2019,3.0.5,60.022539662431086,
To what extent did the music make you feel ,TENDER,30MonoWAV/30MonoH1.wav,2,2,1,5,,,,,1,11,27,4,0,11,11,10,,,,,,,,,1,1.1861180969863199,,,105,001,2019_Sep_05_1012,MusicAffectPsychophysiology2019,3.0.5,60.022539662431086,
,,30MonoWAV/30MonoH1.wav,2,2,1,5,,,,,1,11,27,4,,,,,,,,,,,,,,,,,105,001,2019_Sep_05_1012,MusicAffectPsychophysiology2019,3.0.5,60.022539662431086,
To what extent did the music make you feel ,ALERT,30MonoWAV/30MonoT3.wav,2,1,4,15,,,,,1,12,28,14,0,0,0,8,,,1,5.102228417992592,2,4.136252698954195,2,4.468888670031447,1,1.130101629998535,,,105,001,2019_Sep_05_1012,MusicAffectPsychophysiology2019,3.0.5,60.022539662431086,
To what extent did the music make you feel ,EXCITED,30MonoWAV/30MonoT3.wav,2,1,4,15,,,,,1,12,28,14,0,1,1,7,,,,,,,,,1,0.9022193410200998,,,105,001,2019_Sep_05_1012,MusicAffectPsychophysiology2019,3.0.5,60.022539662431086,
To what extent did the music make you feel ,FRUSTRATED,30MonoWAV/30MonoT3.wav,2,1,4,15,,,,,1,12,28,14,0,2,2,3,,,,,,,,,1,0.8122531669796444,,,105,001,2019_Sep_05_1012,MusicAffectPsychophysiology2019,3.0.5,60.022539662431086,
To what extent did the music make you feel ,ASHAMED,30MonoWAV/30MonoT3.wav,2,1,4,15,,,,,1,12,28,14,0,3,3,4,,,,,,,,,1,1.2514672940014862,,,105,001,2019_Sep_05_1012,MusicAffectPsychophysiology2019,3.0.5,60.022539662431086,
To what extent did the music make you feel ,ACTIVE,30MonoWAV/30MonoT3.wav,2,1,4,15,,,,,1,12,28,14,0,4,4,9,,,,,,,,,1,1.1525828660232946,,,105,001,2019_Sep_05_1012,MusicAffectPsychophysiology2019,3.0.5,60.022539662431086,
To what extent did the music make you feel ,HAPPY,30MonoWAV/30MonoT3.wav,2,1,4,15,,,,,1,12,28,14,0,5,5,6,,,,,,,,,1,4.1356495170039125,,,105,001,2019_Sep_05_1012,MusicAffectPsychophysiology2019,3.0.5,60.022539662431086,
To what extent did the music make you feel ,SAD,30MonoWAV/30MonoT3.wav,2,1,4,15,,,,,1,12,28,14,0,6,6,0,,,,,,,,,2,1.6694087730138563,,,105,001,2019_Sep_05_1012,MusicAffectPsychophysiology2019,3.0.5,60.022539662431086,
To what extent did the music make you feel ,GUILTY,30MonoWAV/30MonoT3.wav,2,1,4,15,,,,,1,12,28,14,0,7,7,5,,,,,,,,,1,1.2361917269881815,,,105,001,2019_Sep_05_1012,MusicAffectPsychophysiology2019,3.0.5,60.022539662431086,
To what extent did the music make you feel ,ANGRY,30MonoWAV/30MonoT3.wav,2,1,4,15,,,,,1,12,28,14,0,8,8,2,,,,,,,,,1,0.9996524949674495,,,105,001,2019_Sep_05_1012,MusicAffectPsychophysiology2019,3.0.5,60.022539662431086,
To what extent did the music make you feel ,SCARED,30MonoWAV/30MonoT3.wav,2,1,4,15,,,,,1,12,28,14,0,9,9,11,,,,,,,,,1,1.085309148998931,,,105,001,2019_Sep_05_1012,MusicAffectPsychophysiology2019,3.0.5,60.022539662431086,
To what extent did the music make you feel ,TENDER,30MonoWAV/30MonoT3.wav,2,1,4,15,,,,,1,12,28,14,0,10,10,10,,,,,,,,,2,1.1168132010498084,,,105,001,2019_Sep_05_1012,MusicAffectPsychophysiology2019,3.0.5,60.022539662431086,
To what extent did the music make you feel ,ANXIOUS ,30MonoWAV/30MonoT3.wav,2,1,4,15,,,,,1,12,28,14,0,11,11,1,,,,,,,,,1,1.552787418011576,,,105,001,2019_Sep_05_1012,MusicAffectPsychophysiology2019,3.0.5,60.022539662431086,
,,30MonoWAV/30MonoT3.wav,2,1,4,15,,,,,1,12,28,14,,,,,,,,,,,,,,,,,105,001,2019_Sep_05_1012,MusicAffectPsychophysiology2019,3.0.5,60.022539662431086,
To what extent did the music make you feel ,ANGRY,30MonoWAV/30MonoS1.wav,1,1,3,9,,,,,1,13,29,8,0,0,0,2,,,2,4.669404402957298,2,2.3360995260300115,3,3.7534160899813287,1,1.588377189997118,,,105,001,2019_Sep_05_1012,MusicAffectPsychophysiology2019,3.0.5,60.022539662431086,
To what extent did the music make you feel ,GUILTY,30MonoWAV/30MonoS1.wav,1,1,3,9,,,,,1,13,29,8,0,1,1,5,,,,,,,,,1,0.9022162670153193,,,105,001,2019_Sep_05_1012,MusicAffectPsychophysiology2019,3.0.5,60.022539662431086,
To what extent did the music make you feel ,FRUSTRATED,30MonoWAV/30MonoS1.wav,1,1,3,9,,,,,1,13,29,8,0,2,2,3,,,,,,,,,1,0.8886510059819557,,,105,001,2019_Sep_05_1012,MusicAffectPsychophysiology2019,3.0.5,60.022539662431086,
To what extent did the music make you feel ,ALERT,30MonoWAV/30MonoS1.wav,1,1,3,9,,,,,1,13,29,8,0,3,3,8,,,,,,,,,2,1.219848447944969,,,105,001,2019_Sep_05_1012,MusicAffectPsychophysiology2019,3.0.5,60.022539662431086,
To what extent did the music make you feel ,ANXIOUS ,30MonoWAV/30MonoS1.wav,1,1,3,9,,,,,1,13,29,8,0,4,4,1,,,,,,,,,1,2.402280480018817,,,105,001,2019_Sep_05_1012,MusicAffectPsychophysiology2019,3.0.5,60.022539662431086,
To what extent did the music make you feel ,TENDER,30MonoWAV/30MonoS1.wav,1,1,3,9,,,,,1,13,29,8,0,5,5,10,,,,,,,,,2,1.1018440990010276,,,105,001,2019_Sep_05_1012,MusicAffectPsychophysiology2019,3.0.5,60.022539662431086,
To what extent did the music make you feel ,ACTIVE,30MonoWAV/30MonoS1.wav,1,1,3,9,,,,,1,13,29,8,0,6,6,9,,,,,,,,,1,3.2515201430069283,,,105,001,2019_Sep_05_1012,MusicAffectPsychophysiology2019,3.0.5,60.022539662431086,
To what extent did the music make you feel ,SCARED,30MonoWAV/30MonoS1.wav,1,1,3,9,,,,,1,13,29,8,0,7,7,11,,,,,,,,,1,0.9003894590423442,,,105,001,2019_Sep_05_1012,MusicAffectPsychophysiology2019,3.0.5,60.022539662431086,
To what extent did the music make you feel ,SAD,30MonoWAV/30MonoS1.wav,1,1,3,9,,,,,1,13,29,8,0,8,8,0,,,,,,,,,1,1.70238601899473,,,105,001,2019_Sep_05_1012,MusicAffectPsychophysiology2019,3.0.5,60.022539662431086,
To what extent did the music make you feel ,ASHAMED,30MonoWAV/30MonoS1.wav,1,1,3,9,,,,,1,13,29,8,0,9,9,4,,,,,,,,,1,0.6870666419854388,,,105,001,2019_Sep_05_1012,MusicAffectPsychophysiology2019,3.0.5,60.022539662431086,
To what extent did the music make you feel ,EXCITED,30MonoWAV/30MonoS1.wav,1,1,3,9,,,,,1,13,29,8,0,10,10,7,,,,,,,,,1,0.9350143980118446,,,105,001,2019_Sep_05_1012,MusicAffectPsychophysiology2019,3.0.5,60.022539662431086,
To what extent did the music make you feel ,HAPPY,30MonoWAV/30MonoS1.wav,1,1,3,9,,,,,1,13,29,8,0,11,11,6,,,,,,,,,2,2.8033712340402417,,,105,001,2019_Sep_05_1012,MusicAffectPsychophysiology2019,3.0.5,60.022539662431086,
,,30MonoWAV/30MonoS1.wav,1,1,3,9,,,,,1,13,29,8,,,,,,,,,,,,,,,,,105,001,2019_Sep_05_1012,MusicAffectPsychophysiology2019,3.0.5,60.022539662431086,
To what extent did the music make you feel ,TENDER,30MonoWAV/30MonoT4.wav,2,1,4,16,,,,,1,14,30,15,0,0,0,10,,,2,5.068798210006207,2,2.0026292910333723,3,2.268137419014238,3,2.0482910590362735,,,105,001,2019_Sep_05_1012,MusicAffectPsychophysiology2019,3.0.5,60.022539662431086,
To what extent did the music make you feel ,ACTIVE,30MonoWAV/30MonoT4.wav,2,1,4,16,,,,,1,14,30,15,0,1,1,9,,,,,,,,,1,3.6516013240325265,,,105,001,2019_Sep_05_1012,MusicAffectPsychophysiology2019,3.0.5,60.022539662431086,
To what extent did the music make you feel ,FRUSTRATED,30MonoWAV/30MonoT4.wav,2,1,4,16,,,,,1,14,30,15,0,2,2,3,,,,,,,,,1,0.9357948530232534,,,105,001,2019_Sep_05_1012,MusicAffectPsychophysiology2019,3.0.5,60.022539662431086,
To what extent did the music make you feel ,GUILTY,30MonoWAV/30MonoT4.wav,2,1,4,16,,,,,1,14,30,15,0,3,3,5,,,,,,,,,1,1.335324949992355,,,105,001,2019_Sep_05_1012,MusicAffectPsychophysiology2019,3.0.5,60.022539662431086,
To what extent did the music make you feel ,ANXIOUS ,30MonoWAV/30MonoT4.wav,2,1,4,16,,,,,1,14,30,15,0,4,4,1,,,,,,,,,1,1.0861551130074076,,,105,001,2019_Sep_05_1012,MusicAffectPsychophysiology2019,3.0.5,60.022539662431086,
To what extent did the music make you feel ,ANGRY,30MonoWAV/30MonoT4.wav,2,1,4,16,,,,,1,14,30,15,0,5,5,2,,,,,,,,,1,0.7671948270290159,,,105,001,2019_Sep_05_1012,MusicAffectPsychophysiology2019,3.0.5,60.022539662431086,
To what extent did the music make you feel ,ALERT,30MonoWAV/30MonoT4.wav,2,1,4,16,,,,,1,14,30,15,0,6,6,8,,,,,,,,,2,1.5702530179987662,,,105,001,2019_Sep_05_1012,MusicAffectPsychophysiology2019,3.0.5,60.022539662431086,
To what extent did the music make you feel ,SAD,30MonoWAV/30MonoT4.wav,2,1,4,16,,,,,1,14,30,15,0,7,7,0,,,,,,,,,2,2.0339703320059925,,,105,001,2019_Sep_05_1012,MusicAffectPsychophysiology2019,3.0.5,60.022539662431086,
To what extent did the music make you feel ,EXCITED,30MonoWAV/30MonoT4.wav,2,1,4,16,,,,,1,14,30,15,0,8,8,7,,,,,,,,,1,2.1534441109979525,,,105,001,2019_Sep_05_1012,MusicAffectPsychophysiology2019,3.0.5,60.022539662431086,
To what extent did the music make you feel ,HAPPY,30MonoWAV/30MonoT4.wav,2,1,4,16,,,,,1,14,30,15,0,9,9,6,,,,,,,,,1,0.9360178990173154,,,105,001,2019_Sep_05_1012,MusicAffectPsychophysiology2019,3.0.5,60.022539662431086,
To what extent did the music make you feel ,SCARED,30MonoWAV/30MonoT4.wav,2,1,4,16,,,,,1,14,30,15,0,10,10,11,,,,,,,,,1,1.0199637180194259,,,105,001,2019_Sep_05_1012,MusicAffectPsychophysiology2019,3.0.5,60.022539662431086,
To what extent did the music make you feel ,ASHAMED,30MonoWAV/30MonoT4.wav,2,1,4,16,,,,,1,14,30,15,0,11,11,4,,,,,,,,,1,0.6358152339817025,,,105,001,2019_Sep_05_1012,MusicAffectPsychophysiology2019,3.0.5,60.022539662431086,
,,30MonoWAV/30MonoT4.wav,2,1,4,16,,,,,1,14,30,15,,,,,,,,,,,,,,,,,105,001,2019_Sep_05_1012,MusicAffectPsychophysiology2019,3.0.5,60.022539662431086,
To what extent did the music make you feel ,ANGRY,30MonoWAV/30MonoH2.wav,2,2,1,6,,,,,1,15,31,5,0,0,0,2,,,3,4.09966250800062,3,1.9016345589770935,3,1.270034623972606,1,1.4908817399991676,,,105,001,2019_Sep_05_1012,MusicAffectPsychophysiology2019,3.0.5,60.022539662431086,
To what extent did the music make you feel ,ANXIOUS ,30MonoWAV/30MonoH2.wav,2,2,1,6,,,,,1,15,31,5,0,1,1,1,,,,,,,,,1,1.0038876719772816,,,105,001,2019_Sep_05_1012,MusicAffectPsychophysiology2019,3.0.5,60.022539662431086,
To what extent did the music make you feel ,SAD,30MonoWAV/30MonoH2.wav,2,2,1,6,,,,,1,15,31,5,0,2,2,0,,,,,,,,,1,1.0852673089830205,,,105,001,2019_Sep_05_1012,MusicAffectPsychophysiology2019,3.0.5,60.022539662431086,
To what extent did the music make you feel ,TENDER,30MonoWAV/30MonoH2.wav,2,2,1,6,,,,,1,15,31,5,0,3,3,10,,,,,,,,,1,1.2018513520015404,,,105,001,2019_Sep_05_1012,MusicAffectPsychophysiology2019,3.0.5,60.022539662431086,
To what extent did the music make you feel ,GUILTY,30MonoWAV/30MonoH2.wav,2,2,1,6,,,,,1,15,31,5,0,4,4,5,,,,,,,,,1,0.9698218950070441,,,105,001,2019_Sep_05_1012,MusicAffectPsychophysiology2019,3.0.5,60.022539662431086,
To what extent did the music make you feel ,ACTIVE,30MonoWAV/30MonoH2.wav,2,2,1,6,,,,,1,15,31,5,0,5,5,9,,,,,,,,,3,1.4034533519879915,,,105,001,2019_Sep_05_1012,MusicAffectPsychophysiology2019,3.0.5,60.022539662431086,
To what extent did the music make you feel ,EXCITED,30MonoWAV/30MonoH2.wav,2,2,1,6,,,,,1,15,31,5,0,6,6,7,,,,,,,,,2,1.8858557859784923,,,105,001,2019_Sep_05_1012,MusicAffectPsychophysiology2019,3.0.5,60.022539662431086,
To what extent did the music make you feel ,HAPPY,30MonoWAV/30MonoH2.wav,2,2,1,6,,,,,1,15,31,5,0,7,7,6,,,,,,,,,2,1.6022068149759434,,,105,001,2019_Sep_05_1012,MusicAffectPsychophysiology2019,3.0.5,60.022539662431086,
To what extent did the music make you feel ,ASHAMED,30MonoWAV/30MonoH2.wav,2,2,1,6,,,,,1,15,31,5,0,8,8,4,,,,,,,,,1,1.1192612909944728,,,105,001,2019_Sep_05_1012,MusicAffectPsychophysiology2019,3.0.5,60.022539662431086,
To what extent did the music make you feel ,FRUSTRATED,30MonoWAV/30MonoH2.wav,2,2,1,6,,,,,1,15,31,5,0,9,9,3,,,,,,,,,1,0.9564971060026437,,,105,001,2019_Sep_05_1012,MusicAffectPsychophysiology2019,3.0.5,60.022539662431086,
To what extent did the music make you feel ,ALERT,30MonoWAV/30MonoH2.wav,2,2,1,6,,,,,1,15,31,5,0,10,10,8,,,,,,,,,3,1.4690626530209556,,,105,001,2019_Sep_05_1012,MusicAffectPsychophysiology2019,3.0.5,60.022539662431086,
To what extent did the music make you feel ,SCARED,30MonoWAV/30MonoH2.wav,2,2,1,6,,,,,1,15,31,5,0,11,11,11,,,,,,,,,1,1.239188989973627,,,105,001,2019_Sep_05_1012,MusicAffectPsychophysiology2019,3.0.5,60.022539662431086,
,,30MonoWAV/30MonoH2.wav,2,2,1,6,,,,,1,15,31,5,,,,,,,,,,,,,,,,,105,001,2019_Sep_05_1012,MusicAffectPsychophysiology2019,3.0.5,60.022539662431086,
,,,,,,,,,,,,,,,,,,,,,,,,,,,,,space,8.96980624704156,105,001,2019_Sep_05_1012,MusicAffectPsychophysiology2019,3.0.5,60.022539662431086,
