Instruction,Word,song,valence,arousal,affectcat,songmark,pracwords.thisRepN,pracwords.thisTrialN,pracwords.thisN,pracwords.thisIndex,songtrials.thisRepN,songtrials.thisTrialN,songtrials.thisN,songtrials.thisIndex,words.thisRepN,words.thisTrialN,words.thisN,words.thisIndex,begin.keys,begin.rt,arousalkey.keys,arousalkey.rt,valencekey.keys,valencekey.rt,likekey.keys,likekey.rt,WordResponse.keys,WordResponse.rt,key_resp_2.keys,key_resp_2.rt,participant,session,date,expName,psychopyVersion,frameRate,
,,,,,,,,,,,,,,,,,,,space,16.35439045200019,,,,,,,,,,,107,001,2019_Sep_05_1408,MusicAffectPsychophysiology2019,3.0.5,60.28638347149369,
,,,,,,,,,,,,,,,,,,,,,1,7.818239693000123,,,,,,,,,107,001,2019_Sep_05_1408,MusicAffectPsychophysiology2019,3.0.5,60.28638347149369,
,,,,,,,,,,,,,,,,,,,,,,,3,5.484562054999969,,,,,,,107,001,2019_Sep_05_1408,MusicAffectPsychophysiology2019,3.0.5,60.28638347149369,
,,,,,,,,,,,,,,,,,,,,,,,,,1,4.667105687999992,,,,,107,001,2019_Sep_05_1408,MusicAffectPsychophysiology2019,3.0.5,60.28638347149369,
To what extent did the music make you feel ,HAPPY,,,,,,0,0,0,6,,,,,,,,,,,,,,,,,2,7.936507181000252,,,107,001,2019_Sep_05_1408,MusicAffectPsychophysiology2019,3.0.5,60.28638347149369,
To what extent did the music make you feel ,EXCITED,,,,,,0,1,1,7,,,,,,,,,,,,,,,,,1,1.6944405779995577,,,107,001,2019_Sep_05_1408,MusicAffectPsychophysiology2019,3.0.5,60.28638347149369,
To what extent did the music make you feel ,FRUSTRATED,,,,,,0,2,2,3,,,,,,,,,,,,,,,,,1,1.4618971550003153,,,107,001,2019_Sep_05_1408,MusicAffectPsychophysiology2019,3.0.5,60.28638347149369,
To what extent did the music make you feel ,ANGRY,,,,,,0,3,3,2,,,,,,,,,,,,,,,,,1,1.0031616600003872,,,107,001,2019_Sep_05_1408,MusicAffectPsychophysiology2019,3.0.5,60.28638347149369,
To what extent did the music make you feel ,ASHAMED,,,,,,0,4,4,4,,,,,,,,,,,,,,,,,1,1.0680264049997277,,,107,001,2019_Sep_05_1408,MusicAffectPsychophysiology2019,3.0.5,60.28638347149369,
To what extent did the music make you feel ,ANXIOUS ,,,,,,0,5,5,1,,,,,,,,,,,,,,,,,1,1.4210103840000556,,,107,001,2019_Sep_05_1408,MusicAffectPsychophysiology2019,3.0.5,60.28638347149369,
To what extent did the music make you feel ,SCARED,,,,,,0,6,6,11,,,,,,,,,,,,,,,,,1,0.6402895530000023,,,107,001,2019_Sep_05_1408,MusicAffectPsychophysiology2019,3.0.5,60.28638347149369,
To what extent did the music make you feel ,ACTIVE,,,,,,0,7,7,9,,,,,,,,,,,,,,,,,1,3.9361874210003407,,,107,001,2019_Sep_05_1408,MusicAffectPsychophysiology2019,3.0.5,60.28638347149369,
To what extent did the music make you feel ,GUILTY,,,,,,0,8,8,5,,,,,,,,,,,,,,,,,1,0.8197013160001916,,,107,001,2019_Sep_05_1408,MusicAffectPsychophysiology2019,3.0.5,60.28638347149369,
To what extent did the music make you feel ,TENDER,,,,,,0,9,9,10,,,,,,,,,,,,,,,,,3,3.883105667000109,,,107,001,2019_Sep_05_1408,MusicAffectPsychophysiology2019,3.0.5,60.28638347149369,
To what extent did the music make you feel ,ALERT,,,,,,0,10,10,8,,,,,,,,,,,,,,,,,1,1.6197938939999403,,,107,001,2019_Sep_05_1408,MusicAffectPsychophysiology2019,3.0.5,60.28638347149369,
To what extent did the music make you feel ,SAD,,,,,,0,11,11,0,,,,,,,,,,,,,,,,,1,2.957163491999836,,,107,001,2019_Sep_05_1408,MusicAffectPsychophysiology2019,3.0.5,60.28638347149369,
To what extent did the music make you feel ,FRUSTRATED,30MonoWAV/30MonoH3.wav,2,2,1,7,,,,,0,0,0,6,0,0,0,3,,,2,5.737017449000177,3,3.501895925000099,2,2.072117233999961,1,2.421419202999914,,,107,001,2019_Sep_05_1408,MusicAffectPsychophysiology2019,3.0.5,60.28638347149369,
To what extent did the music make you feel ,ALERT,30MonoWAV/30MonoH3.wav,2,2,1,7,,,,,0,0,0,6,0,1,1,8,,,,,,,,,3,3.339302342999872,,,107,001,2019_Sep_05_1408,MusicAffectPsychophysiology2019,3.0.5,60.28638347149369,
To what extent did the music make you feel ,ANXIOUS ,30MonoWAV/30MonoH3.wav,2,2,1,7,,,,,0,0,0,6,0,2,2,1,,,,,,,,,1,1.5832533170000715,,,107,001,2019_Sep_05_1408,MusicAffectPsychophysiology2019,3.0.5,60.28638347149369,
To what extent did the music make you feel ,ANGRY,30MonoWAV/30MonoH3.wav,2,2,1,7,,,,,0,0,0,6,0,3,3,2,,,,,,,,,1,0.7458262969998941,,,107,001,2019_Sep_05_1408,MusicAffectPsychophysiology2019,3.0.5,60.28638347149369,
To what extent did the music make you feel ,EXCITED,30MonoWAV/30MonoH3.wav,2,2,1,7,,,,,0,0,0,6,0,4,4,7,,,,,,,,,2,1.2874678220000533,,,107,001,2019_Sep_05_1408,MusicAffectPsychophysiology2019,3.0.5,60.28638347149369,
To what extent did the music make you feel ,ASHAMED,30MonoWAV/30MonoH3.wav,2,2,1,7,,,,,0,0,0,6,0,5,5,4,,,,,,,,,1,0.7215941410004234,,,107,001,2019_Sep_05_1408,MusicAffectPsychophysiology2019,3.0.5,60.28638347149369,
To what extent did the music make you feel ,TENDER,30MonoWAV/30MonoH3.wav,2,2,1,7,,,,,0,0,0,6,0,6,6,10,,,,,,,,,1,1.6096554979999382,,,107,001,2019_Sep_05_1408,MusicAffectPsychophysiology2019,3.0.5,60.28638347149369,
To what extent did the music make you feel ,SAD,30MonoWAV/30MonoH3.wav,2,2,1,7,,,,,0,0,0,6,0,7,7,0,,,,,,,,,1,1.0694959249999556,,,107,001,2019_Sep_05_1408,MusicAffectPsychophysiology2019,3.0.5,60.28638347149369,
To what extent did the music make you feel ,GUILTY,30MonoWAV/30MonoH3.wav,2,2,1,7,,,,,0,0,0,6,0,8,8,5,,,,,,,,,1,0.8351601590002247,,,107,001,2019_Sep_05_1408,MusicAffectPsychophysiology2019,3.0.5,60.28638347149369,
To what extent did the music make you feel ,ACTIVE,30MonoWAV/30MonoH3.wav,2,2,1,7,,,,,0,0,0,6,0,9,9,9,,,,,,,,,3,1.536327175000224,,,107,001,2019_Sep_05_1408,MusicAffectPsychophysiology2019,3.0.5,60.28638347149369,
To what extent did the music make you feel ,SCARED,30MonoWAV/30MonoH3.wav,2,2,1,7,,,,,0,0,0,6,0,10,10,11,,,,,,,,,1,0.7682282679998025,,,107,001,2019_Sep_05_1408,MusicAffectPsychophysiology2019,3.0.5,60.28638347149369,
To what extent did the music make you feel ,HAPPY,30MonoWAV/30MonoH3.wav,2,2,1,7,,,,,0,0,0,6,0,11,11,6,,,,,,,,,2,1.6187578819999544,,,107,001,2019_Sep_05_1408,MusicAffectPsychophysiology2019,3.0.5,60.28638347149369,
,,30MonoWAV/30MonoH3.wav,2,2,1,7,,,,,0,0,0,6,,,,,,,,,,,,,,,,,107,001,2019_Sep_05_1408,MusicAffectPsychophysiology2019,3.0.5,60.28638347149369,
To what extent did the music make you feel ,TENDER,30MonoWAV/30MonoF1.wav,1,2,2,1,,,,,0,1,1,0,0,0,0,10,,,4,8.718116291000115,3,2.5335914199999934,3,2.8546334849997947,1,2.3332427789996473,,,107,001,2019_Sep_05_1408,MusicAffectPsychophysiology2019,3.0.5,60.28638347149369,
To what extent did the music make you feel ,SAD,30MonoWAV/30MonoF1.wav,1,2,2,1,,,,,0,1,1,0,0,1,1,0,,,,,,,,,1,1.1528019049997056,,,107,001,2019_Sep_05_1408,MusicAffectPsychophysiology2019,3.0.5,60.28638347149369,
To what extent did the music make you feel ,GUILTY,30MonoWAV/30MonoF1.wav,1,2,2,1,,,,,0,1,1,0,0,2,2,5,,,,,,,,,1,0.599602053000126,,,107,001,2019_Sep_05_1408,MusicAffectPsychophysiology2019,3.0.5,60.28638347149369,
To what extent did the music make you feel ,ACTIVE,30MonoWAV/30MonoF1.wav,1,2,2,1,,,,,0,1,1,0,0,3,3,9,,,,,,,,,4,4.7267370479999045,,,107,001,2019_Sep_05_1408,MusicAffectPsychophysiology2019,3.0.5,60.28638347149369,
To what extent did the music make you feel ,SCARED,30MonoWAV/30MonoF1.wav,1,2,2,1,,,,,0,1,1,0,0,4,4,11,,,,,,,,,1,1.5892874169999232,,,107,001,2019_Sep_05_1408,MusicAffectPsychophysiology2019,3.0.5,60.28638347149369,
To what extent did the music make you feel ,ANXIOUS ,30MonoWAV/30MonoF1.wav,1,2,2,1,,,,,0,1,1,0,0,5,5,1,,,,,,,,,2,1.0671505489999618,,,107,001,2019_Sep_05_1408,MusicAffectPsychophysiology2019,3.0.5,60.28638347149369,
To what extent did the music make you feel ,EXCITED,30MonoWAV/30MonoF1.wav,1,2,2,1,,,,,0,1,1,0,0,6,6,7,,,,,,,,,3,3.3488240039996526,,,107,001,2019_Sep_05_1408,MusicAffectPsychophysiology2019,3.0.5,60.28638347149369,
To what extent did the music make you feel ,FRUSTRATED,30MonoWAV/30MonoF1.wav,1,2,2,1,,,,,0,1,1,0,0,7,7,3,,,,,,,,,1,1.2534902570000668,,,107,001,2019_Sep_05_1408,MusicAffectPsychophysiology2019,3.0.5,60.28638347149369,
To what extent did the music make you feel ,ASHAMED,30MonoWAV/30MonoF1.wav,1,2,2,1,,,,,0,1,1,0,0,8,8,4,,,,,,,,,1,0.6693416779999097,,,107,001,2019_Sep_05_1408,MusicAffectPsychophysiology2019,3.0.5,60.28638347149369,
To what extent did the music make you feel ,ALERT,30MonoWAV/30MonoF1.wav,1,2,2,1,,,,,0,1,1,0,0,9,9,8,,,,,,,,,4,2.986311065999871,,,107,001,2019_Sep_05_1408,MusicAffectPsychophysiology2019,3.0.5,60.28638347149369,
To what extent did the music make you feel ,ANGRY,30MonoWAV/30MonoF1.wav,1,2,2,1,,,,,0,1,1,0,0,10,10,2,,,,,,,,,1,1.0020103309998376,,,107,001,2019_Sep_05_1408,MusicAffectPsychophysiology2019,3.0.5,60.28638347149369,
To what extent did the music make you feel ,HAPPY,30MonoWAV/30MonoF1.wav,1,2,2,1,,,,,0,1,1,0,0,11,11,6,,,,,,,,,3,3.9876249430003554,,,107,001,2019_Sep_05_1408,MusicAffectPsychophysiology2019,3.0.5,60.28638347149369,
,,30MonoWAV/30MonoF1.wav,1,2,2,1,,,,,0,1,1,0,,,,,,,,,,,,,,,,,107,001,2019_Sep_05_1408,MusicAffectPsychophysiology2019,3.0.5,60.28638347149369,
To what extent did the music make you feel ,GUILTY,30MonoWAV/30MonoF3.wav,1,2,2,3,,,,,0,2,2,2,0,0,0,5,,,2,4.053265098000338,1,4.85483651200002,1,4.286034182000094,1,8.351178897999944,,,107,001,2019_Sep_05_1408,MusicAffectPsychophysiology2019,3.0.5,60.28638347149369,
To what extent did the music make you feel ,EXCITED,30MonoWAV/30MonoF3.wav,1,2,2,3,,,,,0,2,2,2,0,1,1,7,,,,,,,,,2,4.399448776999634,,,107,001,2019_Sep_05_1408,MusicAffectPsychophysiology2019,3.0.5,60.28638347149369,
To what extent did the music make you feel ,SCARED,30MonoWAV/30MonoF3.wav,1,2,2,3,,,,,0,2,2,2,0,2,2,11,,,,,,,,,2,1.4682386549998228,,,107,001,2019_Sep_05_1408,MusicAffectPsychophysiology2019,3.0.5,60.28638347149369,
To what extent did the music make you feel ,ANXIOUS ,30MonoWAV/30MonoF3.wav,1,2,2,3,,,,,0,2,2,2,0,3,3,1,,,,,,,,,2,0.700257818999944,,,107,001,2019_Sep_05_1408,MusicAffectPsychophysiology2019,3.0.5,60.28638347149369,
To what extent did the music make you feel ,SAD,30MonoWAV/30MonoF3.wav,1,2,2,3,,,,,0,2,2,2,0,4,4,0,,,,,,,,,2,2.253324285999952,,,107,001,2019_Sep_05_1408,MusicAffectPsychophysiology2019,3.0.5,60.28638347149369,
To what extent did the music make you feel ,ASHAMED,30MonoWAV/30MonoF3.wav,1,2,2,3,,,,,0,2,2,2,0,5,5,4,,,,,,,,,1,4.5026422699997966,,,107,001,2019_Sep_05_1408,MusicAffectPsychophysiology2019,3.0.5,60.28638347149369,
To what extent did the music make you feel ,FRUSTRATED,30MonoWAV/30MonoF3.wav,1,2,2,3,,,,,0,2,2,2,0,6,6,3,,,,,,,,,1,1.3526887079997323,,,107,001,2019_Sep_05_1408,MusicAffectPsychophysiology2019,3.0.5,60.28638347149369,
To what extent did the music make you feel ,ACTIVE,30MonoWAV/30MonoF3.wav,1,2,2,3,,,,,0,2,2,2,0,7,7,9,,,,,,,,,2,1.7863196140001492,,,107,001,2019_Sep_05_1408,MusicAffectPsychophysiology2019,3.0.5,60.28638347149369,
To what extent did the music make you feel ,TENDER,30MonoWAV/30MonoF3.wav,1,2,2,3,,,,,0,2,2,2,0,8,8,10,,,,,,,,,1,0.6798644010000316,,,107,001,2019_Sep_05_1408,MusicAffectPsychophysiology2019,3.0.5,60.28638347149369,
To what extent did the music make you feel ,HAPPY,30MonoWAV/30MonoF3.wav,1,2,2,3,,,,,0,2,2,2,0,9,9,6,,,,,,,,,1,4.38301757499994,,,107,001,2019_Sep_05_1408,MusicAffectPsychophysiology2019,3.0.5,60.28638347149369,
To what extent did the music make you feel ,ANGRY,30MonoWAV/30MonoF3.wav,1,2,2,3,,,,,0,2,2,2,0,10,10,2,,,,,,,,,1,1.6856251739995969,,,107,001,2019_Sep_05_1408,MusicAffectPsychophysiology2019,3.0.5,60.28638347149369,
To what extent did the music make you feel ,ALERT,30MonoWAV/30MonoF3.wav,1,2,2,3,,,,,0,2,2,2,0,11,11,8,,,,,,,,,2,1.9866611950001243,,,107,001,2019_Sep_05_1408,MusicAffectPsychophysiology2019,3.0.5,60.28638347149369,
,,30MonoWAV/30MonoF3.wav,1,2,2,3,,,,,0,2,2,2,,,,,,,,,,,,,,,,,107,001,2019_Sep_05_1408,MusicAffectPsychophysiology2019,3.0.5,60.28638347149369,
To what extent did the music make you feel ,GUILTY,30MonoWAV/30MonoS4.wav,1,1,3,12,,,,,0,3,3,11,0,0,0,5,,,1,3.452424006000001,1,2.9854286429999775,3,3.002470557000379,2,4.001604477000001,,,107,001,2019_Sep_05_1408,MusicAffectPsychophysiology2019,3.0.5,60.28638347149369,
To what extent did the music make you feel ,ANGRY,30MonoWAV/30MonoS4.wav,1,1,3,12,,,,,0,3,3,11,0,1,1,2,,,,,,,,,1,1.1525547740002366,,,107,001,2019_Sep_05_1408,MusicAffectPsychophysiology2019,3.0.5,60.28638347149369,
To what extent did the music make you feel ,SAD,30MonoWAV/30MonoS4.wav,1,1,3,12,,,,,0,3,3,11,0,2,2,0,,,,,,,,,3,5.500009313999726,,,107,001,2019_Sep_05_1408,MusicAffectPsychophysiology2019,3.0.5,60.28638347149369,
To what extent did the music make you feel ,ASHAMED,30MonoWAV/30MonoS4.wav,1,1,3,12,,,,,0,3,3,11,0,3,3,4,,,,,,,,,2,2.8162041319997115,,,107,001,2019_Sep_05_1408,MusicAffectPsychophysiology2019,3.0.5,60.28638347149369,
To what extent did the music make you feel ,HAPPY,30MonoWAV/30MonoS4.wav,1,1,3,12,,,,,0,3,3,11,0,4,4,6,,,,,,,,,1,0.981744370999877,,,107,001,2019_Sep_05_1408,MusicAffectPsychophysiology2019,3.0.5,60.28638347149369,
To what extent did the music make you feel ,ALERT,30MonoWAV/30MonoS4.wav,1,1,3,12,,,,,0,3,3,11,0,5,5,8,,,,,,,,,1,1.0349205689999508,,,107,001,2019_Sep_05_1408,MusicAffectPsychophysiology2019,3.0.5,60.28638347149369,
To what extent did the music make you feel ,ANXIOUS ,30MonoWAV/30MonoS4.wav,1,1,3,12,,,,,0,3,3,11,0,6,6,1,,,,,,,,,1,1.8055825679998634,,,107,001,2019_Sep_05_1408,MusicAffectPsychophysiology2019,3.0.5,60.28638347149369,
To what extent did the music make you feel ,FRUSTRATED,30MonoWAV/30MonoS4.wav,1,1,3,12,,,,,0,3,3,11,0,7,7,3,,,,,,,,,1,0.8538056510001297,,,107,001,2019_Sep_05_1408,MusicAffectPsychophysiology2019,3.0.5,60.28638347149369,
To what extent did the music make you feel ,ACTIVE,30MonoWAV/30MonoS4.wav,1,1,3,12,,,,,0,3,3,11,0,8,8,9,,,,,,,,,1,0.752959577999718,,,107,001,2019_Sep_05_1408,MusicAffectPsychophysiology2019,3.0.5,60.28638347149369,
To what extent did the music make you feel ,SCARED,30MonoWAV/30MonoS4.wav,1,1,3,12,,,,,0,3,3,11,0,9,9,11,,,,,,,,,1,1.718869763999919,,,107,001,2019_Sep_05_1408,MusicAffectPsychophysiology2019,3.0.5,60.28638347149369,
To what extent did the music make you feel ,EXCITED,30MonoWAV/30MonoS4.wav,1,1,3,12,,,,,0,3,3,11,0,10,10,7,,,,,,,,,1,0.936649148000015,,,107,001,2019_Sep_05_1408,MusicAffectPsychophysiology2019,3.0.5,60.28638347149369,
To what extent did the music make you feel ,TENDER,30MonoWAV/30MonoS4.wav,1,1,3,12,,,,,0,3,3,11,0,11,11,10,,,,,,,,,2,1.5810480639997877,,,107,001,2019_Sep_05_1408,MusicAffectPsychophysiology2019,3.0.5,60.28638347149369,
,,30MonoWAV/30MonoS4.wav,1,1,3,12,,,,,0,3,3,11,,,,,,,,,,,,,,,,,107,001,2019_Sep_05_1408,MusicAffectPsychophysiology2019,3.0.5,60.28638347149369,
To what extent did the music make you feel ,FRUSTRATED,30MonoWAV/30MonoH2.wav,2,2,1,6,,,,,0,4,4,5,0,0,0,3,,,2,3.9690781010003775,2,1.2835646450002969,2,1.352360664999651,1,1.3191996710002059,,,107,001,2019_Sep_05_1408,MusicAffectPsychophysiology2019,3.0.5,60.28638347149369,
To what extent did the music make you feel ,ANXIOUS ,30MonoWAV/30MonoH2.wav,2,2,1,6,,,,,0,4,4,5,0,1,1,1,,,,,,,,,1,1.036008541999763,,,107,001,2019_Sep_05_1408,MusicAffectPsychophysiology2019,3.0.5,60.28638347149369,
To what extent did the music make you feel ,SAD,30MonoWAV/30MonoH2.wav,2,2,1,6,,,,,0,4,4,5,0,2,2,0,,,,,,,,,1,0.6367008629999873,,,107,001,2019_Sep_05_1408,MusicAffectPsychophysiology2019,3.0.5,60.28638347149369,
To what extent did the music make you feel ,SCARED,30MonoWAV/30MonoH2.wav,2,2,1,6,,,,,0,4,4,5,0,3,3,11,,,,,,,,,2,4.012201232999814,,,107,001,2019_Sep_05_1408,MusicAffectPsychophysiology2019,3.0.5,60.28638347149369,
To what extent did the music make you feel ,ALERT,30MonoWAV/30MonoH2.wav,2,2,1,6,,,,,0,4,4,5,0,4,4,8,,,,,,,,,3,1.4022711540001183,,,107,001,2019_Sep_05_1408,MusicAffectPsychophysiology2019,3.0.5,60.28638347149369,
To what extent did the music make you feel ,TENDER,30MonoWAV/30MonoH2.wav,2,2,1,6,,,,,0,4,4,5,0,5,5,10,,,,,,,,,1,1.0853297650000968,,,107,001,2019_Sep_05_1408,MusicAffectPsychophysiology2019,3.0.5,60.28638347149369,
To what extent did the music make you feel ,GUILTY,30MonoWAV/30MonoH2.wav,2,2,1,6,,,,,0,4,4,5,0,6,6,5,,,,,,,,,1,0.9531171509997876,,,107,001,2019_Sep_05_1408,MusicAffectPsychophysiology2019,3.0.5,60.28638347149369,
To what extent did the music make you feel ,ASHAMED,30MonoWAV/30MonoH2.wav,2,2,1,6,,,,,0,4,4,5,0,7,7,4,,,,,,,,,1,1.1376684339998064,,,107,001,2019_Sep_05_1408,MusicAffectPsychophysiology2019,3.0.5,60.28638347149369,
To what extent did the music make you feel ,ANGRY,30MonoWAV/30MonoH2.wav,2,2,1,6,,,,,0,4,4,5,0,8,8,2,,,,,,,,,1,1.186065681999935,,,107,001,2019_Sep_05_1408,MusicAffectPsychophysiology2019,3.0.5,60.28638347149369,
To what extent did the music make you feel ,EXCITED,30MonoWAV/30MonoH2.wav,2,2,1,6,,,,,0,4,4,5,0,9,9,7,,,,,,,,,2,3.651829509000436,,,107,001,2019_Sep_05_1408,MusicAffectPsychophysiology2019,3.0.5,60.28638347149369,
To what extent did the music make you feel ,ACTIVE,30MonoWAV/30MonoH2.wav,2,2,1,6,,,,,0,4,4,5,0,10,10,9,,,,,,,,,3,2.5197742970003674,,,107,001,2019_Sep_05_1408,MusicAffectPsychophysiology2019,3.0.5,60.28638347149369,
To what extent did the music make you feel ,HAPPY,30MonoWAV/30MonoH2.wav,2,2,1,6,,,,,0,4,4,5,0,11,11,6,,,,,,,,,1,6.349475976999656,,,107,001,2019_Sep_05_1408,MusicAffectPsychophysiology2019,3.0.5,60.28638347149369,
,,30MonoWAV/30MonoH2.wav,2,2,1,6,,,,,0,4,4,5,,,,,,,,,,,,,,,,,107,001,2019_Sep_05_1408,MusicAffectPsychophysiology2019,3.0.5,60.28638347149369,
To what extent did the music make you feel ,TENDER,30MonoWAV/30MonoS3.wav,1,1,3,11,,,,,0,5,5,10,0,0,0,10,,,2,6.334841023000081,2,4.353749312000218,2,2.119661495999935,2,1.837634572999832,,,107,001,2019_Sep_05_1408,MusicAffectPsychophysiology2019,3.0.5,60.28638347149369,
To what extent did the music make you feel ,GUILTY,30MonoWAV/30MonoS3.wav,1,1,3,11,,,,,0,5,5,10,0,1,1,5,,,,,,,,,2,3.852632287999768,,,107,001,2019_Sep_05_1408,MusicAffectPsychophysiology2019,3.0.5,60.28638347149369,
To what extent did the music make you feel ,SCARED,30MonoWAV/30MonoS3.wav,1,1,3,11,,,,,0,5,5,10,0,2,2,11,,,,,,,,,1,1.0352475720001166,,,107,001,2019_Sep_05_1408,MusicAffectPsychophysiology2019,3.0.5,60.28638347149369,
To what extent did the music make you feel ,ACTIVE,30MonoWAV/30MonoS3.wav,1,1,3,11,,,,,0,5,5,10,0,3,3,9,,,,,,,,,1,1.5857604660000106,,,107,001,2019_Sep_05_1408,MusicAffectPsychophysiology2019,3.0.5,60.28638347149369,
To what extent did the music make you feel ,HAPPY,30MonoWAV/30MonoS3.wav,1,1,3,11,,,,,0,5,5,10,0,4,4,6,,,,,,,,,1,1.986387322000155,,,107,001,2019_Sep_05_1408,MusicAffectPsychophysiology2019,3.0.5,60.28638347149369,
To what extent did the music make you feel ,ASHAMED,30MonoWAV/30MonoS3.wav,1,1,3,11,,,,,0,5,5,10,0,5,5,4,,,,,,,,,1,1.1846603990002222,,,107,001,2019_Sep_05_1408,MusicAffectPsychophysiology2019,3.0.5,60.28638347149369,
To what extent did the music make you feel ,ANXIOUS ,30MonoWAV/30MonoS3.wav,1,1,3,11,,,,,0,5,5,10,0,6,6,1,,,,,,,,,2,1.084030734999942,,,107,001,2019_Sep_05_1408,MusicAffectPsychophysiology2019,3.0.5,60.28638347149369,
To what extent did the music make you feel ,SAD,30MonoWAV/30MonoS3.wav,1,1,3,11,,,,,0,5,5,10,0,7,7,0,,,,,,,,,2,1.3186065130003044,,,107,001,2019_Sep_05_1408,MusicAffectPsychophysiology2019,3.0.5,60.28638347149369,
To what extent did the music make you feel ,EXCITED,30MonoWAV/30MonoS3.wav,1,1,3,11,,,,,0,5,5,10,0,8,8,7,,,,,,,,,1,0.7868546849999802,,,107,001,2019_Sep_05_1408,MusicAffectPsychophysiology2019,3.0.5,60.28638347149369,
To what extent did the music make you feel ,FRUSTRATED,30MonoWAV/30MonoS3.wav,1,1,3,11,,,,,0,5,5,10,0,9,9,3,,,,,,,,,1,0.8363315189999412,,,107,001,2019_Sep_05_1408,MusicAffectPsychophysiology2019,3.0.5,60.28638347149369,
To what extent did the music make you feel ,ALERT,30MonoWAV/30MonoS3.wav,1,1,3,11,,,,,0,5,5,10,0,10,10,8,,,,,,,,,2,2.7359006389997376,,,107,001,2019_Sep_05_1408,MusicAffectPsychophysiology2019,3.0.5,60.28638347149369,
To what extent did the music make you feel ,ANGRY,30MonoWAV/30MonoS3.wav,1,1,3,11,,,,,0,5,5,10,0,11,11,2,,,,,,,,,1,1.2374397059998046,,,107,001,2019_Sep_05_1408,MusicAffectPsychophysiology2019,3.0.5,60.28638347149369,
,,30MonoWAV/30MonoS3.wav,1,1,3,11,,,,,0,5,5,10,,,,,,,,,,,,,,,,,107,001,2019_Sep_05_1408,MusicAffectPsychophysiology2019,3.0.5,60.28638347149369,
To what extent did the music make you feel ,ALERT,30MonoWAV/30MonoT3.wav,2,1,4,15,,,,,0,6,6,14,0,0,0,8,,,2,4.733161905999623,4,2.468905765999807,3,3.7864984959996946,2,2.3350494139999682,,,107,001,2019_Sep_05_1408,MusicAffectPsychophysiology2019,3.0.5,60.28638347149369,
To what extent did the music make you feel ,ANXIOUS ,30MonoWAV/30MonoT3.wav,2,1,4,15,,,,,0,6,6,14,0,1,1,1,,,,,,,,,1,0.9673091639997438,,,107,001,2019_Sep_05_1408,MusicAffectPsychophysiology2019,3.0.5,60.28638347149369,
To what extent did the music make you feel ,SAD,30MonoWAV/30MonoT3.wav,2,1,4,15,,,,,0,6,6,14,0,2,2,0,,,,,,,,,1,1.7529617879999932,,,107,001,2019_Sep_05_1408,MusicAffectPsychophysiology2019,3.0.5,60.28638347149369,
To what extent did the music make you feel ,ACTIVE,30MonoWAV/30MonoT3.wav,2,1,4,15,,,,,0,6,6,14,0,3,3,9,,,,,,,,,1,2.384472022999944,,,107,001,2019_Sep_05_1408,MusicAffectPsychophysiology2019,3.0.5,60.28638347149369,
To what extent did the music make you feel ,SCARED,30MonoWAV/30MonoT3.wav,2,1,4,15,,,,,0,6,6,14,0,4,4,11,,,,,,,,,1,0.9362966650000999,,,107,001,2019_Sep_05_1408,MusicAffectPsychophysiology2019,3.0.5,60.28638347149369,
To what extent did the music make you feel ,ANGRY,30MonoWAV/30MonoT3.wav,2,1,4,15,,,,,0,6,6,14,0,5,5,2,,,,,,,,,1,0.5845511170000464,,,107,001,2019_Sep_05_1408,MusicAffectPsychophysiology2019,3.0.5,60.28638347149369,
To what extent did the music make you feel ,HAPPY,30MonoWAV/30MonoT3.wav,2,1,4,15,,,,,0,6,6,14,0,6,6,6,,,,,,,,,3,2.6522761329997593,,,107,001,2019_Sep_05_1408,MusicAffectPsychophysiology2019,3.0.5,60.28638347149369,
To what extent did the music make you feel ,TENDER,30MonoWAV/30MonoT3.wav,2,1,4,15,,,,,0,6,6,14,0,7,7,10,,,,,,,,,2,1.9836143329998777,,,107,001,2019_Sep_05_1408,MusicAffectPsychophysiology2019,3.0.5,60.28638347149369,
To what extent did the music make you feel ,EXCITED,30MonoWAV/30MonoT3.wav,2,1,4,15,,,,,0,6,6,14,0,8,8,7,,,,,,,,,2,2.902578657000049,,,107,001,2019_Sep_05_1408,MusicAffectPsychophysiology2019,3.0.5,60.28638347149369,
To what extent did the music make you feel ,ASHAMED,30MonoWAV/30MonoT3.wav,2,1,4,15,,,,,0,6,6,14,0,9,9,4,,,,,,,,,1,0.7851399199998923,,,107,001,2019_Sep_05_1408,MusicAffectPsychophysiology2019,3.0.5,60.28638347149369,
To what extent did the music make you feel ,FRUSTRATED,30MonoWAV/30MonoT3.wav,2,1,4,15,,,,,0,6,6,14,0,10,10,3,,,,,,,,,1,0.71929910200015,,,107,001,2019_Sep_05_1408,MusicAffectPsychophysiology2019,3.0.5,60.28638347149369,
To what extent did the music make you feel ,GUILTY,30MonoWAV/30MonoT3.wav,2,1,4,15,,,,,0,6,6,14,0,11,11,5,,,,,,,,,1,0.6022166459997607,,,107,001,2019_Sep_05_1408,MusicAffectPsychophysiology2019,3.0.5,60.28638347149369,
,,30MonoWAV/30MonoT3.wav,2,1,4,15,,,,,0,6,6,14,,,,,,,,,,,,,,,,,107,001,2019_Sep_05_1408,MusicAffectPsychophysiology2019,3.0.5,60.28638347149369,
To what extent did the music make you feel ,SCARED,30MonoWAV/30MonoT1.wav,2,1,4,13,,,,,0,7,7,12,0,0,0,11,,,1,4.186263887999758,2,2.6351604110000153,1,4.0852325519999795,1,0.8030742569999347,,,107,001,2019_Sep_05_1408,MusicAffectPsychophysiology2019,3.0.5,60.28638347149369,
To what extent did the music make you feel ,ALERT,30MonoWAV/30MonoT1.wav,2,1,4,13,,,,,0,7,7,12,0,1,1,8,,,,,,,,,1,1.5348539540000274,,,107,001,2019_Sep_05_1408,MusicAffectPsychophysiology2019,3.0.5,60.28638347149369,
To what extent did the music make you feel ,GUILTY,30MonoWAV/30MonoT1.wav,2,1,4,13,,,,,0,7,7,12,0,2,2,5,,,,,,,,,1,3.085738344999754,,,107,001,2019_Sep_05_1408,MusicAffectPsychophysiology2019,3.0.5,60.28638347149369,
To what extent did the music make you feel ,EXCITED,30MonoWAV/30MonoT1.wav,2,1,4,13,,,,,0,7,7,12,0,3,3,7,,,,,,,,,1,0.5854664769999545,,,107,001,2019_Sep_05_1408,MusicAffectPsychophysiology2019,3.0.5,60.28638347149369,
To what extent did the music make you feel ,ACTIVE,30MonoWAV/30MonoT1.wav,2,1,4,13,,,,,0,7,7,12,0,4,4,9,,,,,,,,,1,0.7012033070000143,,,107,001,2019_Sep_05_1408,MusicAffectPsychophysiology2019,3.0.5,60.28638347149369,
To what extent did the music make you feel ,ANGRY,30MonoWAV/30MonoT1.wav,2,1,4,13,,,,,0,7,7,12,0,5,5,2,,,,,,,,,1,2.66859520800017,,,107,001,2019_Sep_05_1408,MusicAffectPsychophysiology2019,3.0.5,60.28638347149369,
To what extent did the music make you feel ,HAPPY,30MonoWAV/30MonoT1.wav,2,1,4,13,,,,,0,7,7,12,0,6,6,6,,,,,,,,,1,2.3681004489999395,,,107,001,2019_Sep_05_1408,MusicAffectPsychophysiology2019,3.0.5,60.28638347149369,
To what extent did the music make you feel ,ASHAMED,30MonoWAV/30MonoT1.wav,2,1,4,13,,,,,0,7,7,12,0,7,7,4,,,,,,,,,1,0.4863713250001638,,,107,001,2019_Sep_05_1408,MusicAffectPsychophysiology2019,3.0.5,60.28638347149369,
To what extent did the music make you feel ,ANXIOUS ,30MonoWAV/30MonoT1.wav,2,1,4,13,,,,,0,7,7,12,0,8,8,1,,,,,,,,,1,0.4170104079998964,,,107,001,2019_Sep_05_1408,MusicAffectPsychophysiology2019,3.0.5,60.28638347149369,
To what extent did the music make you feel ,TENDER,30MonoWAV/30MonoT1.wav,2,1,4,13,,,,,0,7,7,12,0,9,9,10,,,,,,,,,1,0.4860440639999979,,,107,001,2019_Sep_05_1408,MusicAffectPsychophysiology2019,3.0.5,60.28638347149369,
To what extent did the music make you feel ,SAD,30MonoWAV/30MonoT1.wav,2,1,4,13,,,,,0,7,7,12,0,10,10,0,,,,,,,,,1,1.767799105999984,,,107,001,2019_Sep_05_1408,MusicAffectPsychophysiology2019,3.0.5,60.28638347149369,
To what extent did the music make you feel ,FRUSTRATED,30MonoWAV/30MonoT1.wav,2,1,4,13,,,,,0,7,7,12,0,11,11,3,,,,,,,,,1,1.1032905619999838,,,107,001,2019_Sep_05_1408,MusicAffectPsychophysiology2019,3.0.5,60.28638347149369,
,,30MonoWAV/30MonoT1.wav,2,1,4,13,,,,,0,7,7,12,,,,,,,,,,,,,,,,,107,001,2019_Sep_05_1408,MusicAffectPsychophysiology2019,3.0.5,60.28638347149369,
To what extent did the music make you feel ,HAPPY,30MonoWAV/30MonoT4.wav,2,1,4,16,,,,,0,8,8,15,0,0,0,6,,,3,7.58464773500009,3,2.3693137049999677,3,1.5015924389999782,3,1.2629384570000184,,,107,001,2019_Sep_05_1408,MusicAffectPsychophysiology2019,3.0.5,60.28638347149369,
To what extent did the music make you feel ,SCARED,30MonoWAV/30MonoT4.wav,2,1,4,16,,,,,0,8,8,15,0,1,1,11,,,,,,,,,1,1.2690430030002062,,,107,001,2019_Sep_05_1408,MusicAffectPsychophysiology2019,3.0.5,60.28638347149369,
To what extent did the music make you feel ,ACTIVE,30MonoWAV/30MonoT4.wav,2,1,4,16,,,,,0,8,8,15,0,2,2,9,,,,,,,,,2,1.2668061039998975,,,107,001,2019_Sep_05_1408,MusicAffectPsychophysiology2019,3.0.5,60.28638347149369,
To what extent did the music make you feel ,ANGRY,30MonoWAV/30MonoT4.wav,2,1,4,16,,,,,0,8,8,15,0,3,3,2,,,,,,,,,1,0.5507571429998279,,,107,001,2019_Sep_05_1408,MusicAffectPsychophysiology2019,3.0.5,60.28638347149369,
To what extent did the music make you feel ,EXCITED,30MonoWAV/30MonoT4.wav,2,1,4,16,,,,,0,8,8,15,0,4,4,7,,,,,,,,,2,1.1668491689997609,,,107,001,2019_Sep_05_1408,MusicAffectPsychophysiology2019,3.0.5,60.28638347149369,
To what extent did the music make you feel ,TENDER,30MonoWAV/30MonoT4.wav,2,1,4,16,,,,,0,8,8,15,0,5,5,10,,,,,,,,,3,1.5681961280001815,,,107,001,2019_Sep_05_1408,MusicAffectPsychophysiology2019,3.0.5,60.28638347149369,
To what extent did the music make you feel ,ASHAMED,30MonoWAV/30MonoT4.wav,2,1,4,16,,,,,0,8,8,15,0,6,6,4,,,,,,,,,1,2.8500063350002165,,,107,001,2019_Sep_05_1408,MusicAffectPsychophysiology2019,3.0.5,60.28638347149369,
To what extent did the music make you feel ,GUILTY,30MonoWAV/30MonoT4.wav,2,1,4,16,,,,,0,8,8,15,0,7,7,5,,,,,,,,,1,2.1537002900004154,,,107,001,2019_Sep_05_1408,MusicAffectPsychophysiology2019,3.0.5,60.28638347149369,
To what extent did the music make you feel ,ALERT,30MonoWAV/30MonoT4.wav,2,1,4,16,,,,,0,8,8,15,0,8,8,8,,,,,,,,,2,1.2849796219998098,,,107,001,2019_Sep_05_1408,MusicAffectPsychophysiology2019,3.0.5,60.28638347149369,
To what extent did the music make you feel ,FRUSTRATED,30MonoWAV/30MonoT4.wav,2,1,4,16,,,,,0,8,8,15,0,9,9,3,,,,,,,,,1,0.6355810569998539,,,107,001,2019_Sep_05_1408,MusicAffectPsychophysiology2019,3.0.5,60.28638347149369,
To what extent did the music make you feel ,ANXIOUS ,30MonoWAV/30MonoT4.wav,2,1,4,16,,,,,0,8,8,15,0,10,10,1,,,,,,,,,1,0.7691543079999974,,,107,001,2019_Sep_05_1408,MusicAffectPsychophysiology2019,3.0.5,60.28638347149369,
To what extent did the music make you feel ,SAD,30MonoWAV/30MonoT4.wav,2,1,4,16,,,,,0,8,8,15,0,11,11,0,,,,,,,,,1,1.1357762880002156,,,107,001,2019_Sep_05_1408,MusicAffectPsychophysiology2019,3.0.5,60.28638347149369,
,,30MonoWAV/30MonoT4.wav,2,1,4,16,,,,,0,8,8,15,,,,,,,,,,,,,,,,,107,001,2019_Sep_05_1408,MusicAffectPsychophysiology2019,3.0.5,60.28638347149369,
To what extent did the music make you feel ,ANGRY,30MonoWAV/30MonoF2.wav,1,2,2,2,,,,,0,9,9,1,0,0,0,2,,,4,8.401502383999741,3,2.9361923020001086,3,1.602740693999749,1,1.7601901309999448,,,107,001,2019_Sep_05_1408,MusicAffectPsychophysiology2019,3.0.5,60.28638347149369,
To what extent did the music make you feel ,EXCITED,30MonoWAV/30MonoF2.wav,1,2,2,2,,,,,0,9,9,1,0,1,1,7,,,,,,,,,3,1.4529915550001533,,,107,001,2019_Sep_05_1408,MusicAffectPsychophysiology2019,3.0.5,60.28638347149369,
To what extent did the music make you feel ,ASHAMED,30MonoWAV/30MonoF2.wav,1,2,2,2,,,,,0,9,9,1,0,2,2,4,,,,,,,,,1,0.8339076130000649,,,107,001,2019_Sep_05_1408,MusicAffectPsychophysiology2019,3.0.5,60.28638347149369,
To what extent did the music make you feel ,HAPPY,30MonoWAV/30MonoF2.wav,1,2,2,2,,,,,0,9,9,1,0,3,3,6,,,,,,,,,2,2.4338438509998923,,,107,001,2019_Sep_05_1408,MusicAffectPsychophysiology2019,3.0.5,60.28638347149369,
To what extent did the music make you feel ,ACTIVE,30MonoWAV/30MonoF2.wav,1,2,2,2,,,,,0,9,9,1,0,4,4,9,,,,,,,,,3,4.118568594000408,,,107,001,2019_Sep_05_1408,MusicAffectPsychophysiology2019,3.0.5,60.28638347149369,
To what extent did the music make you feel ,TENDER,30MonoWAV/30MonoF2.wav,1,2,2,2,,,,,0,9,9,1,0,5,5,10,,,,,,,,,1,1.1347722219998104,,,107,001,2019_Sep_05_1408,MusicAffectPsychophysiology2019,3.0.5,60.28638347149369,
To what extent did the music make you feel ,ALERT,30MonoWAV/30MonoF2.wav,1,2,2,2,,,,,0,9,9,1,0,6,6,8,,,,,,,,,4,2.4862655530000666,,,107,001,2019_Sep_05_1408,MusicAffectPsychophysiology2019,3.0.5,60.28638347149369,
To what extent did the music make you feel ,SCARED,30MonoWAV/30MonoF2.wav,1,2,2,2,,,,,0,9,9,1,0,7,7,11,,,,,,,,,1,3.896120775000327,,,107,001,2019_Sep_05_1408,MusicAffectPsychophysiology2019,3.0.5,60.28638347149369,
To what extent did the music make you feel ,FRUSTRATED,30MonoWAV/30MonoF2.wav,1,2,2,2,,,,,0,9,9,1,0,8,8,3,,,,,,,,,1,0.7801400880002802,,,107,001,2019_Sep_05_1408,MusicAffectPsychophysiology2019,3.0.5,60.28638347149369,
To what extent did the music make you feel ,GUILTY,30MonoWAV/30MonoF2.wav,1,2,2,2,,,,,0,9,9,1,0,9,9,5,,,,,,,,,1,0.9030954079998992,,,107,001,2019_Sep_05_1408,MusicAffectPsychophysiology2019,3.0.5,60.28638347149369,
To what extent did the music make you feel ,ANXIOUS ,30MonoWAV/30MonoF2.wav,1,2,2,2,,,,,0,9,9,1,0,10,10,1,,,,,,,,,1,2.9365549149997605,,,107,001,2019_Sep_05_1408,MusicAffectPsychophysiology2019,3.0.5,60.28638347149369,
To what extent did the music make you feel ,SAD,30MonoWAV/30MonoF2.wav,1,2,2,2,,,,,0,9,9,1,0,11,11,0,,,,,,,,,1,1.1521993820001626,,,107,001,2019_Sep_05_1408,MusicAffectPsychophysiology2019,3.0.5,60.28638347149369,
,,30MonoWAV/30MonoF2.wav,1,2,2,2,,,,,0,9,9,1,,,,,,,,,,,,,,,,,107,001,2019_Sep_05_1408,MusicAffectPsychophysiology2019,3.0.5,60.28638347149369,
To what extent did the music make you feel ,ANGRY,30MonoWAV/30MonoS2.wav,1,1,3,10,,,,,0,10,10,9,0,0,0,2,,,1,3.800173094999991,1,2.2184413029999632,1,7.352168090000305,1,0.8855039850000139,,,107,001,2019_Sep_05_1408,MusicAffectPsychophysiology2019,3.0.5,60.28638347149369,
To what extent did the music make you feel ,ANXIOUS ,30MonoWAV/30MonoS2.wav,1,1,3,10,,,,,0,10,10,9,0,1,1,1,,,,,,,,,2,1.5020688089998657,,,107,001,2019_Sep_05_1408,MusicAffectPsychophysiology2019,3.0.5,60.28638347149369,
To what extent did the music make you feel ,FRUSTRATED,30MonoWAV/30MonoS2.wav,1,1,3,10,,,,,0,10,10,9,0,2,2,3,,,,,,,,,1,0.9496722079998108,,,107,001,2019_Sep_05_1408,MusicAffectPsychophysiology2019,3.0.5,60.28638347149369,
To what extent did the music make you feel ,HAPPY,30MonoWAV/30MonoS2.wav,1,1,3,10,,,,,0,10,10,9,0,3,3,6,,,,,,,,,1,0.9524470279998241,,,107,001,2019_Sep_05_1408,MusicAffectPsychophysiology2019,3.0.5,60.28638347149369,
To what extent did the music make you feel ,EXCITED,30MonoWAV/30MonoS2.wav,1,1,3,10,,,,,0,10,10,9,0,4,4,7,,,,,,,,,1,0.8853322299996762,,,107,001,2019_Sep_05_1408,MusicAffectPsychophysiology2019,3.0.5,60.28638347149369,
To what extent did the music make you feel ,SAD,30MonoWAV/30MonoS2.wav,1,1,3,10,,,,,0,10,10,9,0,5,5,0,,,,,,,,,3,1.8528908749999573,,,107,001,2019_Sep_05_1408,MusicAffectPsychophysiology2019,3.0.5,60.28638347149369,
To what extent did the music make you feel ,ASHAMED,30MonoWAV/30MonoS2.wav,1,1,3,10,,,,,0,10,10,9,0,6,6,4,,,,,,,,,2,1.6998924459999216,,,107,001,2019_Sep_05_1408,MusicAffectPsychophysiology2019,3.0.5,60.28638347149369,
To what extent did the music make you feel ,SCARED,30MonoWAV/30MonoS2.wav,1,1,3,10,,,,,0,10,10,9,0,7,7,11,,,,,,,,,1,1.3503616670000156,,,107,001,2019_Sep_05_1408,MusicAffectPsychophysiology2019,3.0.5,60.28638347149369,
To what extent did the music make you feel ,ACTIVE,30MonoWAV/30MonoS2.wav,1,1,3,10,,,,,0,10,10,9,0,8,8,9,,,,,,,,,1,0.6691760509997948,,,107,001,2019_Sep_05_1408,MusicAffectPsychophysiology2019,3.0.5,60.28638347149369,
To what extent did the music make you feel ,ALERT,30MonoWAV/30MonoS2.wav,1,1,3,10,,,,,0,10,10,9,0,9,9,8,,,,,,,,,1,0.9531624440000996,,,107,001,2019_Sep_05_1408,MusicAffectPsychophysiology2019,3.0.5,60.28638347149369,
To what extent did the music make you feel ,TENDER,30MonoWAV/30MonoS2.wav,1,1,3,10,,,,,0,10,10,9,0,10,10,10,,,,,,,,,2,1.351483675000054,,,107,001,2019_Sep_05_1408,MusicAffectPsychophysiology2019,3.0.5,60.28638347149369,
To what extent did the music make you feel ,GUILTY,30MonoWAV/30MonoS2.wav,1,1,3,10,,,,,0,10,10,9,0,11,11,5,,,,,,,,,3,1.9022483600001578,,,107,001,2019_Sep_05_1408,MusicAffectPsychophysiology2019,3.0.5,60.28638347149369,
,,30MonoWAV/30MonoS2.wav,1,1,3,10,,,,,0,10,10,9,,,,,,,,,,,,,,,,,107,001,2019_Sep_05_1408,MusicAffectPsychophysiology2019,3.0.5,60.28638347149369,
To what extent did the music make you feel ,ACTIVE,30MonoWAV/30MonoH4.wav,2,2,1,8,,,,,0,11,11,7,0,0,0,9,,,4,8.69989156299971,4,1.3690688890001184,4,2.5685881809999955,5,4.216598222999892,,,107,001,2019_Sep_05_1408,MusicAffectPsychophysiology2019,3.0.5,60.28638347149369,
To what extent did the music make you feel ,FRUSTRATED,30MonoWAV/30MonoH4.wav,2,2,1,8,,,,,0,11,11,7,0,1,1,3,,,,,,,,,1,1.3352710660001321,,,107,001,2019_Sep_05_1408,MusicAffectPsychophysiology2019,3.0.5,60.28638347149369,
To what extent did the music make you feel ,ASHAMED,30MonoWAV/30MonoH4.wav,2,2,1,8,,,,,0,11,11,7,0,2,2,4,,,,,,,,,1,0.6193982810000307,,,107,001,2019_Sep_05_1408,MusicAffectPsychophysiology2019,3.0.5,60.28638347149369,
To what extent did the music make you feel ,SAD,30MonoWAV/30MonoH4.wav,2,2,1,8,,,,,0,11,11,7,0,3,3,0,,,,,,,,,1,0.5191238209999938,,,107,001,2019_Sep_05_1408,MusicAffectPsychophysiology2019,3.0.5,60.28638347149369,
To what extent did the music make you feel ,ALERT,30MonoWAV/30MonoH4.wav,2,2,1,8,,,,,0,11,11,7,0,4,4,8,,,,,,,,,3,2.4197622739998224,,,107,001,2019_Sep_05_1408,MusicAffectPsychophysiology2019,3.0.5,60.28638347149369,
To what extent did the music make you feel ,EXCITED,30MonoWAV/30MonoH4.wav,2,2,1,8,,,,,0,11,11,7,0,5,5,7,,,,,,,,,4,2.7220075870000073,,,107,001,2019_Sep_05_1408,MusicAffectPsychophysiology2019,3.0.5,60.28638347149369,
To what extent did the music make you feel ,ANGRY,30MonoWAV/30MonoH4.wav,2,2,1,8,,,,,0,11,11,7,0,6,6,2,,,,,,,,,1,0.9836781000003612,,,107,001,2019_Sep_05_1408,MusicAffectPsychophysiology2019,3.0.5,60.28638347149369,
To what extent did the music make you feel ,SCARED,30MonoWAV/30MonoH4.wav,2,2,1,8,,,,,0,11,11,7,0,7,7,11,,,,,,,,,1,0.7358841099999154,,,107,001,2019_Sep_05_1408,MusicAffectPsychophysiology2019,3.0.5,60.28638347149369,
To what extent did the music make you feel ,TENDER,30MonoWAV/30MonoH4.wav,2,2,1,8,,,,,0,11,11,7,0,8,8,10,,,,,,,,,1,1.3184841909996976,,,107,001,2019_Sep_05_1408,MusicAffectPsychophysiology2019,3.0.5,60.28638347149369,
To what extent did the music make you feel ,GUILTY,30MonoWAV/30MonoH4.wav,2,2,1,8,,,,,0,11,11,7,0,9,9,5,,,,,,,,,1,0.8516984939997201,,,107,001,2019_Sep_05_1408,MusicAffectPsychophysiology2019,3.0.5,60.28638347149369,
To what extent did the music make you feel ,ANXIOUS ,30MonoWAV/30MonoH4.wav,2,2,1,8,,,,,0,11,11,7,0,10,10,1,,,,,,,,,1,0.7182284499999696,,,107,001,2019_Sep_05_1408,MusicAffectPsychophysiology2019,3.0.5,60.28638347149369,
To what extent did the music make you feel ,HAPPY,30MonoWAV/30MonoH4.wav,2,2,1,8,,,,,0,11,11,7,0,11,11,6,,,,,,,,,4,2.4691738249998707,,,107,001,2019_Sep_05_1408,MusicAffectPsychophysiology2019,3.0.5,60.28638347149369,
,,30MonoWAV/30MonoH4.wav,2,2,1,8,,,,,0,11,11,7,,,,,,,,,,,,,,,,,107,001,2019_Sep_05_1408,MusicAffectPsychophysiology2019,3.0.5,60.28638347149369,
To what extent did the music make you feel ,SCARED,30MonoWAV/30MonoT2.wav,2,1,4,14,,,,,0,12,12,13,0,0,0,11,,,3,4.651865027999975,3,1.3352876899998591,3,1.6856891789998372,1,1.967176295000172,,,107,001,2019_Sep_05_1408,MusicAffectPsychophysiology2019,3.0.5,60.28638347149369,
To what extent did the music make you feel ,ANGRY,30MonoWAV/30MonoT2.wav,2,1,4,14,,,,,0,12,12,13,0,1,1,2,,,,,,,,,1,0.7527939980000156,,,107,001,2019_Sep_05_1408,MusicAffectPsychophysiology2019,3.0.5,60.28638347149369,
To what extent did the music make you feel ,ASHAMED,30MonoWAV/30MonoT2.wav,2,1,4,14,,,,,0,12,12,13,0,2,2,4,,,,,,,,,1,0.693478265000067,,,107,001,2019_Sep_05_1408,MusicAffectPsychophysiology2019,3.0.5,60.28638347149369,
To what extent did the music make you feel ,FRUSTRATED,30MonoWAV/30MonoT2.wav,2,1,4,14,,,,,0,12,12,13,0,3,3,3,,,,,,,,,1,0.7685760399999708,,,107,001,2019_Sep_05_1408,MusicAffectPsychophysiology2019,3.0.5,60.28638347149369,
To what extent did the music make you feel ,TENDER,30MonoWAV/30MonoT2.wav,2,1,4,14,,,,,0,12,12,13,0,4,4,10,,,,,,,,,3,2.9699622339999223,,,107,001,2019_Sep_05_1408,MusicAffectPsychophysiology2019,3.0.5,60.28638347149369,
To what extent did the music make you feel ,ACTIVE,30MonoWAV/30MonoT2.wav,2,1,4,14,,,,,0,12,12,13,0,5,5,9,,,,,,,,,2,1.2859799070001827,,,107,001,2019_Sep_05_1408,MusicAffectPsychophysiology2019,3.0.5,60.28638347149369,
To what extent did the music make you feel ,GUILTY,30MonoWAV/30MonoT2.wav,2,1,4,14,,,,,0,12,12,13,0,6,6,5,,,,,,,,,1,1.0359171519999109,,,107,001,2019_Sep_05_1408,MusicAffectPsychophysiology2019,3.0.5,60.28638347149369,
To what extent did the music make you feel ,ALERT,30MonoWAV/30MonoT2.wav,2,1,4,14,,,,,0,12,12,13,0,7,7,8,,,,,,,,,1,1.5029004950001763,,,107,001,2019_Sep_05_1408,MusicAffectPsychophysiology2019,3.0.5,60.28638347149369,
To what extent did the music make you feel ,ANXIOUS ,30MonoWAV/30MonoT2.wav,2,1,4,14,,,,,0,12,12,13,0,8,8,1,,,,,,,,,1,1.3197429900001225,,,107,001,2019_Sep_05_1408,MusicAffectPsychophysiology2019,3.0.5,60.28638347149369,
To what extent did the music make you feel ,EXCITED,30MonoWAV/30MonoT2.wav,2,1,4,14,,,,,0,12,12,13,0,9,9,7,,,,,,,,,2,1.768458432999978,,,107,001,2019_Sep_05_1408,MusicAffectPsychophysiology2019,3.0.5,60.28638347149369,
To what extent did the music make you feel ,HAPPY,30MonoWAV/30MonoT2.wav,2,1,4,14,,,,,0,12,12,13,0,10,10,6,,,,,,,,,3,1.5357177189998765,,,107,001,2019_Sep_05_1408,MusicAffectPsychophysiology2019,3.0.5,60.28638347149369,
To what extent did the music make you feel ,SAD,30MonoWAV/30MonoT2.wav,2,1,4,14,,,,,0,12,12,13,0,11,11,0,,,,,,,,,1,0.8358427549997032,,,107,001,2019_Sep_05_1408,MusicAffectPsychophysiology2019,3.0.5,60.28638347149369,
,,30MonoWAV/30MonoT2.wav,2,1,4,14,,,,,0,12,12,13,,,,,,,,,,,,,,,,,107,001,2019_Sep_05_1408,MusicAffectPsychophysiology2019,3.0.5,60.28638347149369,
To what extent did the music make you feel ,ACTIVE,30MonoWAV/30MonoF4.wav,1,2,2,4,,,,,0,13,13,3,0,0,0,9,,,4,6.652940999999828,2,2.3684178369999245,2,1.6187860119998732,4,5.048856538000109,,,107,001,2019_Sep_05_1408,MusicAffectPsychophysiology2019,3.0.5,60.28638347149369,
To what extent did the music make you feel ,ANGRY,30MonoWAV/30MonoF4.wav,1,2,2,4,,,,,0,13,13,3,0,1,1,2,,,,,,,,,1,3.701721927000108,,,107,001,2019_Sep_05_1408,MusicAffectPsychophysiology2019,3.0.5,60.28638347149369,
To what extent did the music make you feel ,SAD,30MonoWAV/30MonoF4.wav,1,2,2,4,,,,,0,13,13,3,0,2,2,0,,,,,,,,,1,1.0366243370003758,,,107,001,2019_Sep_05_1408,MusicAffectPsychophysiology2019,3.0.5,60.28638347149369,
To what extent did the music make you feel ,FRUSTRATED,30MonoWAV/30MonoF4.wav,1,2,2,4,,,,,0,13,13,3,0,3,3,3,,,,,,,,,1,1.603135093000219,,,107,001,2019_Sep_05_1408,MusicAffectPsychophysiology2019,3.0.5,60.28638347149369,
To what extent did the music make you feel ,SCARED,30MonoWAV/30MonoF4.wav,1,2,2,4,,,,,0,13,13,3,0,4,4,11,,,,,,,,,2,2.2183929910002007,,,107,001,2019_Sep_05_1408,MusicAffectPsychophysiology2019,3.0.5,60.28638347149369,
To what extent did the music make you feel ,GUILTY,30MonoWAV/30MonoF4.wav,1,2,2,4,,,,,0,13,13,3,0,5,5,5,,,,,,,,,1,1.1999681079996662,,,107,001,2019_Sep_05_1408,MusicAffectPsychophysiology2019,3.0.5,60.28638347149369,
To what extent did the music make you feel ,EXCITED,30MonoWAV/30MonoF4.wav,1,2,2,4,,,,,0,13,13,3,0,6,6,7,,,,,,,,,4,2.6533894619997227,,,107,001,2019_Sep_05_1408,MusicAffectPsychophysiology2019,3.0.5,60.28638347149369,
To what extent did the music make you feel ,TENDER,30MonoWAV/30MonoF4.wav,1,2,2,4,,,,,0,13,13,3,0,7,7,10,,,,,,,,,1,1.3701135260002957,,,107,001,2019_Sep_05_1408,MusicAffectPsychophysiology2019,3.0.5,60.28638347149369,
To what extent did the music make you feel ,ASHAMED,30MonoWAV/30MonoF4.wav,1,2,2,4,,,,,0,13,13,3,0,8,8,4,,,,,,,,,1,0.8024685609998414,,,107,001,2019_Sep_05_1408,MusicAffectPsychophysiology2019,3.0.5,60.28638347149369,
To what extent did the music make you feel ,ANXIOUS ,30MonoWAV/30MonoF4.wav,1,2,2,4,,,,,0,13,13,3,0,9,9,1,,,,,,,,,2,1.4861882320001314,,,107,001,2019_Sep_05_1408,MusicAffectPsychophysiology2019,3.0.5,60.28638347149369,
To what extent did the music make you feel ,HAPPY,30MonoWAV/30MonoF4.wav,1,2,2,4,,,,,0,13,13,3,0,10,10,6,,,,,,,,,3,4.5689460059998055,,,107,001,2019_Sep_05_1408,MusicAffectPsychophysiology2019,3.0.5,60.28638347149369,
To what extent did the music make you feel ,ALERT,30MonoWAV/30MonoF4.wav,1,2,2,4,,,,,0,13,13,3,0,11,11,8,,,,,,,,,5,3.6188767809999263,,,107,001,2019_Sep_05_1408,MusicAffectPsychophysiology2019,3.0.5,60.28638347149369,
,,30MonoWAV/30MonoF4.wav,1,2,2,4,,,,,0,13,13,3,,,,,,,,,,,,,,,,,107,001,2019_Sep_05_1408,MusicAffectPsychophysiology2019,3.0.5,60.28638347149369,
To what extent did the music make you feel ,SCARED,30MonoWAV/30MonoS1.wav,1,1,3,9,,,,,0,14,14,8,0,0,0,11,,,2,5.686003079999864,2,2.185335238999869,4,4.883910968999771,1,1.7362934230000064,,,107,001,2019_Sep_05_1408,MusicAffectPsychophysiology2019,3.0.5,60.28638347149369,
To what extent did the music make you feel ,ASHAMED,30MonoWAV/30MonoS1.wav,1,1,3,9,,,,,0,14,14,8,0,1,1,4,,,,,,,,,3,2.2359673260002637,,,107,001,2019_Sep_05_1408,MusicAffectPsychophysiology2019,3.0.5,60.28638347149369,
To what extent did the music make you feel ,GUILTY,30MonoWAV/30MonoS1.wav,1,1,3,9,,,,,0,14,14,8,0,2,2,5,,,,,,,,,3,1.1023867779999819,,,107,001,2019_Sep_05_1408,MusicAffectPsychophysiology2019,3.0.5,60.28638347149369,
To what extent did the music make you feel ,HAPPY,30MonoWAV/30MonoS1.wav,1,1,3,9,,,,,0,14,14,8,0,3,3,6,,,,,,,,,2,3.8873421430002963,,,107,001,2019_Sep_05_1408,MusicAffectPsychophysiology2019,3.0.5,60.28638347149369,
To what extent did the music make you feel ,ALERT,30MonoWAV/30MonoS1.wav,1,1,3,9,,,,,0,14,14,8,0,4,4,8,,,,,,,,,1,1.919713666000007,,,107,001,2019_Sep_05_1408,MusicAffectPsychophysiology2019,3.0.5,60.28638347149369,
To what extent did the music make you feel ,ACTIVE,30MonoWAV/30MonoS1.wav,1,1,3,9,,,,,0,14,14,8,0,5,5,9,,,,,,,,,2,1.5360449370000424,,,107,001,2019_Sep_05_1408,MusicAffectPsychophysiology2019,3.0.5,60.28638347149369,
To what extent did the music make you feel ,EXCITED,30MonoWAV/30MonoS1.wav,1,1,3,9,,,,,0,14,14,8,0,6,6,7,,,,,,,,,2,2.6513645589998305,,,107,001,2019_Sep_05_1408,MusicAffectPsychophysiology2019,3.0.5,60.28638347149369,
To what extent did the music make you feel ,TENDER,30MonoWAV/30MonoS1.wav,1,1,3,9,,,,,0,14,14,8,0,7,7,10,,,,,,,,,4,2.7194608710001376,,,107,001,2019_Sep_05_1408,MusicAffectPsychophysiology2019,3.0.5,60.28638347149369,
To what extent did the music make you feel ,ANGRY,30MonoWAV/30MonoS1.wav,1,1,3,9,,,,,0,14,14,8,0,8,8,2,,,,,,,,,1,1.3165821449997566,,,107,001,2019_Sep_05_1408,MusicAffectPsychophysiology2019,3.0.5,60.28638347149369,
To what extent did the music make you feel ,FRUSTRATED,30MonoWAV/30MonoS1.wav,1,1,3,9,,,,,0,14,14,8,0,9,9,3,,,,,,,,,1,0.9014689900000121,,,107,001,2019_Sep_05_1408,MusicAffectPsychophysiology2019,3.0.5,60.28638347149369,
To what extent did the music make you feel ,ANXIOUS ,30MonoWAV/30MonoS1.wav,1,1,3,9,,,,,0,14,14,8,0,10,10,1,,,,,,,,,2,0.9864837559998705,,,107,001,2019_Sep_05_1408,MusicAffectPsychophysiology2019,3.0.5,60.28638347149369,
To what extent did the music make you feel ,SAD,30MonoWAV/30MonoS1.wav,1,1,3,9,,,,,0,14,14,8,0,11,11,0,,,,,,,,,2,1.6666627879999396,,,107,001,2019_Sep_05_1408,MusicAffectPsychophysiology2019,3.0.5,60.28638347149369,
,,30MonoWAV/30MonoS1.wav,1,1,3,9,,,,,0,14,14,8,,,,,,,,,,,,,,,,,107,001,2019_Sep_05_1408,MusicAffectPsychophysiology2019,3.0.5,60.28638347149369,
To what extent did the music make you feel ,ALERT,30MonoWAV/30MonoH1.wav,2,2,1,5,,,,,0,15,15,4,0,0,0,8,,,4,7.484895417999724,5,3.5364056290000008,4,2.618484855999668,1,3.6753233949993955,,,107,001,2019_Sep_05_1408,MusicAffectPsychophysiology2019,3.0.5,60.28638347149369,
To what extent did the music make you feel ,ASHAMED,30MonoWAV/30MonoH1.wav,2,2,1,5,,,,,0,15,15,4,0,1,1,4,,,,,,,,,1,0.6362054360006368,,,107,001,2019_Sep_05_1408,MusicAffectPsychophysiology2019,3.0.5,60.28638347149369,
To what extent did the music make you feel ,FRUSTRATED,30MonoWAV/30MonoH1.wav,2,2,1,5,,,,,0,15,15,4,0,2,2,3,,,,,,,,,1,0.5031533540004602,,,107,001,2019_Sep_05_1408,MusicAffectPsychophysiology2019,3.0.5,60.28638347149369,
To what extent did the music make you feel ,ACTIVE,30MonoWAV/30MonoH1.wav,2,2,1,5,,,,,0,15,15,4,0,3,3,9,,,,,,,,,4,2.166999276999377,,,107,001,2019_Sep_05_1408,MusicAffectPsychophysiology2019,3.0.5,60.28638347149369,
To what extent did the music make you feel ,ANGRY,30MonoWAV/30MonoH1.wav,2,2,1,5,,,,,0,15,15,4,0,4,4,2,,,,,,,,,1,0.9021594460000415,,,107,001,2019_Sep_05_1408,MusicAffectPsychophysiology2019,3.0.5,60.28638347149369,
To what extent did the music make you feel ,GUILTY,30MonoWAV/30MonoH1.wav,2,2,1,5,,,,,0,15,15,4,0,5,5,5,,,,,,,,,1,0.8663368950001313,,,107,001,2019_Sep_05_1408,MusicAffectPsychophysiology2019,3.0.5,60.28638347149369,
To what extent did the music make you feel ,EXCITED,30MonoWAV/30MonoH1.wav,2,2,1,5,,,,,0,15,15,4,0,6,6,7,,,,,,,,,4,1.3357085140005438,,,107,001,2019_Sep_05_1408,MusicAffectPsychophysiology2019,3.0.5,60.28638347149369,
To what extent did the music make you feel ,TENDER,30MonoWAV/30MonoH1.wav,2,2,1,5,,,,,0,15,15,4,0,7,7,10,,,,,,,,,1,0.8340364019995832,,,107,001,2019_Sep_05_1408,MusicAffectPsychophysiology2019,3.0.5,60.28638347149369,
To what extent did the music make you feel ,HAPPY,30MonoWAV/30MonoH1.wav,2,2,1,5,,,,,0,15,15,4,0,8,8,6,,,,,,,,,5,2.635104308999871,,,107,001,2019_Sep_05_1408,MusicAffectPsychophysiology2019,3.0.5,60.28638347149369,
To what extent did the music make you feel ,ANXIOUS ,30MonoWAV/30MonoH1.wav,2,2,1,5,,,,,0,15,15,4,0,9,9,1,,,,,,,,,1,0.8358043429998361,,,107,001,2019_Sep_05_1408,MusicAffectPsychophysiology2019,3.0.5,60.28638347149369,
To what extent did the music make you feel ,SAD,30MonoWAV/30MonoH1.wav,2,2,1,5,,,,,0,15,15,4,0,10,10,0,,,,,,,,,1,0.9167117159995541,,,107,001,2019_Sep_05_1408,MusicAffectPsychophysiology2019,3.0.5,60.28638347149369,
To what extent did the music make you feel ,SCARED,30MonoWAV/30MonoH1.wav,2,2,1,5,,,,,0,15,15,4,0,11,11,11,,,,,,,,,1,0.9033619949996137,,,107,001,2019_Sep_05_1408,MusicAffectPsychophysiology2019,3.0.5,60.28638347149369,
,,30MonoWAV/30MonoH1.wav,2,2,1,5,,,,,0,15,15,4,,,,,,,,,,,,,,,,,107,001,2019_Sep_05_1408,MusicAffectPsychophysiology2019,3.0.5,60.28638347149369,
To what extent did the music make you feel ,TENDER,30MonoWAV/30MonoS4.wav,1,1,3,12,,,,,1,0,16,11,0,0,0,10,,,3,7.934632649000378,3,2.1195543789999647,3,1.5353294400001687,4,2.7222422519998872,,,107,001,2019_Sep_05_1408,MusicAffectPsychophysiology2019,3.0.5,60.28638347149369,
To what extent did the music make you feel ,FRUSTRATED,30MonoWAV/30MonoS4.wav,1,1,3,12,,,,,1,0,16,11,0,1,1,3,,,,,,,,,1,1.0015130380006667,,,107,001,2019_Sep_05_1408,MusicAffectPsychophysiology2019,3.0.5,60.28638347149369,
To what extent did the music make you feel ,ANGRY,30MonoWAV/30MonoS4.wav,1,1,3,12,,,,,1,0,16,11,0,2,2,2,,,,,,,,,1,0.8516418210001575,,,107,001,2019_Sep_05_1408,MusicAffectPsychophysiology2019,3.0.5,60.28638347149369,
To what extent did the music make you feel ,ANXIOUS ,30MonoWAV/30MonoS4.wav,1,1,3,12,,,,,1,0,16,11,0,3,3,1,,,,,,,,,1,1.1689794499998243,,,107,001,2019_Sep_05_1408,MusicAffectPsychophysiology2019,3.0.5,60.28638347149369,
To what extent did the music make you feel ,HAPPY,30MonoWAV/30MonoS4.wav,1,1,3,12,,,,,1,0,16,11,0,4,4,6,,,,,,,,,2,1.3700314400002753,,,107,001,2019_Sep_05_1408,MusicAffectPsychophysiology2019,3.0.5,60.28638347149369,
To what extent did the music make you feel ,SCARED,30MonoWAV/30MonoS4.wav,1,1,3,12,,,,,1,0,16,11,0,5,5,11,,,,,,,,,1,0.6189008460005425,,,107,001,2019_Sep_05_1408,MusicAffectPsychophysiology2019,3.0.5,60.28638347149369,
To what extent did the music make you feel ,SAD,30MonoWAV/30MonoS4.wav,1,1,3,12,,,,,1,0,16,11,0,6,6,0,,,,,,,,,2,2.8187057059994913,,,107,001,2019_Sep_05_1408,MusicAffectPsychophysiology2019,3.0.5,60.28638347149369,
To what extent did the music make you feel ,EXCITED,30MonoWAV/30MonoS4.wav,1,1,3,12,,,,,1,0,16,11,0,7,7,7,,,,,,,,,2,2.7338117749995945,,,107,001,2019_Sep_05_1408,MusicAffectPsychophysiology2019,3.0.5,60.28638347149369,
To what extent did the music make you feel ,ACTIVE,30MonoWAV/30MonoS4.wav,1,1,3,12,,,,,1,0,16,11,0,8,8,9,,,,,,,,,3,1.0860950120004418,,,107,001,2019_Sep_05_1408,MusicAffectPsychophysiology2019,3.0.5,60.28638347149369,
To what extent did the music make you feel ,ASHAMED,30MonoWAV/30MonoS4.wav,1,1,3,12,,,,,1,0,16,11,0,9,9,4,,,,,,,,,1,0.896034712999608,,,107,001,2019_Sep_05_1408,MusicAffectPsychophysiology2019,3.0.5,60.28638347149369,
To what extent did the music make you feel ,GUILTY,30MonoWAV/30MonoS4.wav,1,1,3,12,,,,,1,0,16,11,0,10,10,5,,,,,,,,,1,1.1330181210005321,,,107,001,2019_Sep_05_1408,MusicAffectPsychophysiology2019,3.0.5,60.28638347149369,
To what extent did the music make you feel ,ALERT,30MonoWAV/30MonoS4.wav,1,1,3,12,,,,,1,0,16,11,0,11,11,8,,,,,,,,,1,1.2915482470007191,,,107,001,2019_Sep_05_1408,MusicAffectPsychophysiology2019,3.0.5,60.28638347149369,
,,30MonoWAV/30MonoS4.wav,1,1,3,12,,,,,1,0,16,11,,,,,,,,,,,,,,,,,107,001,2019_Sep_05_1408,MusicAffectPsychophysiology2019,3.0.5,60.28638347149369,
To what extent did the music make you feel ,SAD,30MonoWAV/30MonoS1.wav,1,1,3,9,,,,,1,1,17,8,0,0,0,0,,,2,3.918615072000648,3,1.7520721760001834,2,1.585578336999788,3,2.938697427000079,,,107,001,2019_Sep_05_1408,MusicAffectPsychophysiology2019,3.0.5,60.28638347149369,
To what extent did the music make you feel ,SCARED,30MonoWAV/30MonoS1.wav,1,1,3,9,,,,,1,1,17,8,0,1,1,11,,,,,,,,,1,1.2019891249992725,,,107,001,2019_Sep_05_1408,MusicAffectPsychophysiology2019,3.0.5,60.28638347149369,
To what extent did the music make you feel ,FRUSTRATED,30MonoWAV/30MonoS1.wav,1,1,3,9,,,,,1,1,17,8,0,2,2,3,,,,,,,,,1,0.6527437340000688,,,107,001,2019_Sep_05_1408,MusicAffectPsychophysiology2019,3.0.5,60.28638347149369,
To what extent did the music make you feel ,EXCITED,30MonoWAV/30MonoS1.wav,1,1,3,9,,,,,1,1,17,8,0,3,3,7,,,,,,,,,2,2.3020928239993736,,,107,001,2019_Sep_05_1408,MusicAffectPsychophysiology2019,3.0.5,60.28638347149369,
To what extent did the music make you feel ,ASHAMED,30MonoWAV/30MonoS1.wav,1,1,3,9,,,,,1,1,17,8,0,4,4,4,,,,,,,,,1,0.568969441000263,,,107,001,2019_Sep_05_1408,MusicAffectPsychophysiology2019,3.0.5,60.28638347149369,
To what extent did the music make you feel ,HAPPY,30MonoWAV/30MonoS1.wav,1,1,3,9,,,,,1,1,17,8,0,5,5,6,,,,,,,,,2,1.6021810720003486,,,107,001,2019_Sep_05_1408,MusicAffectPsychophysiology2019,3.0.5,60.28638347149369,
To what extent did the music make you feel ,ACTIVE,30MonoWAV/30MonoS1.wav,1,1,3,9,,,,,1,1,17,8,0,6,6,9,,,,,,,,,2,2.752456842999891,,,107,001,2019_Sep_05_1408,MusicAffectPsychophysiology2019,3.0.5,60.28638347149369,
To what extent did the music make you feel ,TENDER,30MonoWAV/30MonoS1.wav,1,1,3,9,,,,,1,1,17,8,0,7,7,10,,,,,,,,,3,1.2020038530008605,,,107,001,2019_Sep_05_1408,MusicAffectPsychophysiology2019,3.0.5,60.28638347149369,
To what extent did the music make you feel ,ANGRY,30MonoWAV/30MonoS1.wav,1,1,3,9,,,,,1,1,17,8,0,8,8,2,,,,,,,,,1,0.6851799810001467,,,107,001,2019_Sep_05_1408,MusicAffectPsychophysiology2019,3.0.5,60.28638347149369,
To what extent did the music make you feel ,ALERT,30MonoWAV/30MonoS1.wav,1,1,3,9,,,,,1,1,17,8,0,9,9,8,,,,,,,,,1,0.9847842479994142,,,107,001,2019_Sep_05_1408,MusicAffectPsychophysiology2019,3.0.5,60.28638347149369,
To what extent did the music make you feel ,GUILTY,30MonoWAV/30MonoS1.wav,1,1,3,9,,,,,1,1,17,8,0,10,10,5,,,,,,,,,1,0.8529715040003794,,,107,001,2019_Sep_05_1408,MusicAffectPsychophysiology2019,3.0.5,60.28638347149369,
To what extent did the music make you feel ,ANXIOUS ,30MonoWAV/30MonoS1.wav,1,1,3,9,,,,,1,1,17,8,0,11,11,1,,,,,,,,,1,0.7853621890008071,,,107,001,2019_Sep_05_1408,MusicAffectPsychophysiology2019,3.0.5,60.28638347149369,
,,30MonoWAV/30MonoS1.wav,1,1,3,9,,,,,1,1,17,8,,,,,,,,,,,,,,,,,107,001,2019_Sep_05_1408,MusicAffectPsychophysiology2019,3.0.5,60.28638347149369,
To what extent did the music make you feel ,ANGRY,30MonoWAV/30MonoF1.wav,1,2,2,1,,,,,1,2,18,0,0,0,0,2,,,4,2.8850443249993987,3,1.9339941839998573,3,1.967071290999229,2,3.876142393000009,,,107,001,2019_Sep_05_1408,MusicAffectPsychophysiology2019,3.0.5,60.28638347149369,
To what extent did the music make you feel ,ALERT,30MonoWAV/30MonoF1.wav,1,2,2,1,,,,,1,2,18,0,0,1,1,8,,,,,,,,,4,2.3023890640006357,,,107,001,2019_Sep_05_1408,MusicAffectPsychophysiology2019,3.0.5,60.28638347149369,
To what extent did the music make you feel ,EXCITED,30MonoWAV/30MonoF1.wav,1,2,2,1,,,,,1,2,18,0,0,2,2,7,,,,,,,,,4,1.1015301289999115,,,107,001,2019_Sep_05_1408,MusicAffectPsychophysiology2019,3.0.5,60.28638347149369,
To what extent did the music make you feel ,TENDER,30MonoWAV/30MonoF1.wav,1,2,2,1,,,,,1,2,18,0,0,3,3,10,,,,,,,,,1,1.1355171659997723,,,107,001,2019_Sep_05_1408,MusicAffectPsychophysiology2019,3.0.5,60.28638347149369,
To what extent did the music make you feel ,GUILTY,30MonoWAV/30MonoF1.wav,1,2,2,1,,,,,1,2,18,0,0,4,4,5,,,,,,,,,1,1.1354276430001846,,,107,001,2019_Sep_05_1408,MusicAffectPsychophysiology2019,3.0.5,60.28638347149369,
To what extent did the music make you feel ,SCARED,30MonoWAV/30MonoF1.wav,1,2,2,1,,,,,1,2,18,0,0,5,5,11,,,,,,,,,2,2.4187377559992456,,,107,001,2019_Sep_05_1408,MusicAffectPsychophysiology2019,3.0.5,60.28638347149369,
To what extent did the music make you feel ,HAPPY,30MonoWAV/30MonoF1.wav,1,2,2,1,,,,,1,2,18,0,0,6,6,6,,,,,,,,,3,1.2526815729997907,,,107,001,2019_Sep_05_1408,MusicAffectPsychophysiology2019,3.0.5,60.28638347149369,
To what extent did the music make you feel ,FRUSTRATED,30MonoWAV/30MonoF1.wav,1,2,2,1,,,,,1,2,18,0,0,7,7,3,,,,,,,,,1,1.0868393579994517,,,107,001,2019_Sep_05_1408,MusicAffectPsychophysiology2019,3.0.5,60.28638347149369,
To what extent did the music make you feel ,ASHAMED,30MonoWAV/30MonoF1.wav,1,2,2,1,,,,,1,2,18,0,0,8,8,4,,,,,,,,,1,0.9191880010002933,,,107,001,2019_Sep_05_1408,MusicAffectPsychophysiology2019,3.0.5,60.28638347149369,
To what extent did the music make you feel ,SAD,30MonoWAV/30MonoF1.wav,1,2,2,1,,,,,1,2,18,0,0,9,9,0,,,,,,,,,1,0.7687042709994785,,,107,001,2019_Sep_05_1408,MusicAffectPsychophysiology2019,3.0.5,60.28638347149369,
To what extent did the music make you feel ,ANXIOUS ,30MonoWAV/30MonoF1.wav,1,2,2,1,,,,,1,2,18,0,0,10,10,1,,,,,,,,,2,1.152209170999413,,,107,001,2019_Sep_05_1408,MusicAffectPsychophysiology2019,3.0.5,60.28638347149369,
To what extent did the music make you feel ,ACTIVE,30MonoWAV/30MonoF1.wav,1,2,2,1,,,,,1,2,18,0,0,11,11,9,,,,,,,,,4,1.6702586629999132,,,107,001,2019_Sep_05_1408,MusicAffectPsychophysiology2019,3.0.5,60.28638347149369,
,,30MonoWAV/30MonoF1.wav,1,2,2,1,,,,,1,2,18,0,,,,,,,,,,,,,,,,,107,001,2019_Sep_05_1408,MusicAffectPsychophysiology2019,3.0.5,60.28638347149369,
To what extent did the music make you feel ,HAPPY,30MonoWAV/30MonoF3.wav,1,2,2,3,,,,,1,3,19,2,0,0,0,6,,,3,3.4359605469999224,2,1.502596684999844,3,2.134653666000304,2,1.468472417999692,,,107,001,2019_Sep_05_1408,MusicAffectPsychophysiology2019,3.0.5,60.28638347149369,
To what extent did the music make you feel ,SAD,30MonoWAV/30MonoF3.wav,1,2,2,3,,,,,1,3,19,2,0,1,1,0,,,,,,,,,1,2.2526629229996615,,,107,001,2019_Sep_05_1408,MusicAffectPsychophysiology2019,3.0.5,60.28638347149369,
To what extent did the music make you feel ,ANXIOUS ,30MonoWAV/30MonoF3.wav,1,2,2,3,,,,,1,3,19,2,0,2,2,1,,,,,,,,,2,2.73544319299981,,,107,001,2019_Sep_05_1408,MusicAffectPsychophysiology2019,3.0.5,60.28638347149369,
To what extent did the music make you feel ,SCARED,30MonoWAV/30MonoF3.wav,1,2,2,3,,,,,1,3,19,2,0,3,3,11,,,,,,,,,2,1.1691023660005158,,,107,001,2019_Sep_05_1408,MusicAffectPsychophysiology2019,3.0.5,60.28638347149369,
To what extent did the music make you feel ,TENDER,30MonoWAV/30MonoF3.wav,1,2,2,3,,,,,1,3,19,2,0,4,4,10,,,,,,,,,1,1.1696706100001393,,,107,001,2019_Sep_05_1408,MusicAffectPsychophysiology2019,3.0.5,60.28638347149369,
To what extent did the music make you feel ,ANGRY,30MonoWAV/30MonoF3.wav,1,2,2,3,,,,,1,3,19,2,0,5,5,2,,,,,,,,,1,0.9533869950000735,,,107,001,2019_Sep_05_1408,MusicAffectPsychophysiology2019,3.0.5,60.28638347149369,
To what extent did the music make you feel ,ASHAMED,30MonoWAV/30MonoF3.wav,1,2,2,3,,,,,1,3,19,2,0,6,6,4,,,,,,,,,1,0.8685883600001034,,,107,001,2019_Sep_05_1408,MusicAffectPsychophysiology2019,3.0.5,60.28638347149369,
To what extent did the music make you feel ,EXCITED,30MonoWAV/30MonoF3.wav,1,2,2,3,,,,,1,3,19,2,0,7,7,7,,,,,,,,,3,1.4504568319998725,,,107,001,2019_Sep_05_1408,MusicAffectPsychophysiology2019,3.0.5,60.28638347149369,
To what extent did the music make you feel ,FRUSTRATED,30MonoWAV/30MonoF3.wav,1,2,2,3,,,,,1,3,19,2,0,8,8,3,,,,,,,,,1,0.9024376770003073,,,107,001,2019_Sep_05_1408,MusicAffectPsychophysiology2019,3.0.5,60.28638347149369,
To what extent did the music make you feel ,ACTIVE,30MonoWAV/30MonoF3.wav,1,2,2,3,,,,,1,3,19,2,0,9,9,9,,,,,,,,,3,1.0866429100005917,,,107,001,2019_Sep_05_1408,MusicAffectPsychophysiology2019,3.0.5,60.28638347149369,
To what extent did the music make you feel ,GUILTY,30MonoWAV/30MonoF3.wav,1,2,2,3,,,,,1,3,19,2,0,10,10,5,,,,,,,,,1,0.7366846360000636,,,107,001,2019_Sep_05_1408,MusicAffectPsychophysiology2019,3.0.5,60.28638347149369,
To what extent did the music make you feel ,ALERT,30MonoWAV/30MonoF3.wav,1,2,2,3,,,,,1,3,19,2,0,11,11,8,,,,,,,,,5,3.734948825999709,,,107,001,2019_Sep_05_1408,MusicAffectPsychophysiology2019,3.0.5,60.28638347149369,
,,30MonoWAV/30MonoF3.wav,1,2,2,3,,,,,1,3,19,2,,,,,,,,,,,,,,,,,107,001,2019_Sep_05_1408,MusicAffectPsychophysiology2019,3.0.5,60.28638347149369,
To what extent did the music make you feel ,ALERT,30MonoWAV/30MonoH1.wav,2,2,1,5,,,,,1,4,20,4,0,0,0,8,,,3,4.669304572999863,4,2.7678964910001014,3,1.7700164729994867,2,2.1023711429998,,,107,001,2019_Sep_05_1408,MusicAffectPsychophysiology2019,3.0.5,60.28638347149369,
To what extent did the music make you feel ,ANGRY,30MonoWAV/30MonoH1.wav,2,2,1,5,,,,,1,4,20,4,0,1,1,2,,,,,,,,,1,1.0686364409993985,,,107,001,2019_Sep_05_1408,MusicAffectPsychophysiology2019,3.0.5,60.28638347149369,
To what extent did the music make you feel ,EXCITED,30MonoWAV/30MonoH1.wav,2,2,1,5,,,,,1,4,20,4,0,2,2,7,,,,,,,,,3,1.5023668730000281,,,107,001,2019_Sep_05_1408,MusicAffectPsychophysiology2019,3.0.5,60.28638347149369,
To what extent did the music make you feel ,TENDER,30MonoWAV/30MonoH1.wav,2,2,1,5,,,,,1,4,20,4,0,3,3,10,,,,,,,,,1,1.1347090469998875,,,107,001,2019_Sep_05_1408,MusicAffectPsychophysiology2019,3.0.5,60.28638347149369,
To what extent did the music make you feel ,ANXIOUS ,30MonoWAV/30MonoH1.wav,2,2,1,5,,,,,1,4,20,4,0,4,4,1,,,,,,,,,1,0.9034202449993245,,,107,001,2019_Sep_05_1408,MusicAffectPsychophysiology2019,3.0.5,60.28638347149369,
To what extent did the music make you feel ,ASHAMED,30MonoWAV/30MonoH1.wav,2,2,1,5,,,,,1,4,20,4,0,5,5,4,,,,,,,,,1,0.7023327480001171,,,107,001,2019_Sep_05_1408,MusicAffectPsychophysiology2019,3.0.5,60.28638347149369,
To what extent did the music make you feel ,SCARED,30MonoWAV/30MonoH1.wav,2,2,1,5,,,,,1,4,20,4,0,6,6,11,,,,,,,,,1,0.7532766980002634,,,107,001,2019_Sep_05_1408,MusicAffectPsychophysiology2019,3.0.5,60.28638347149369,
To what extent did the music make you feel ,ACTIVE,30MonoWAV/30MonoH1.wav,2,2,1,5,,,,,1,4,20,4,0,7,7,9,,,,,,,,,3,0.9340404260001378,,,107,001,2019_Sep_05_1408,MusicAffectPsychophysiology2019,3.0.5,60.28638347149369,
To what extent did the music make you feel ,GUILTY,30MonoWAV/30MonoH1.wav,2,2,1,5,,,,,1,4,20,4,0,8,8,5,,,,,,,,,1,2.269232491999901,,,107,001,2019_Sep_05_1408,MusicAffectPsychophysiology2019,3.0.5,60.28638347149369,
To what extent did the music make you feel ,FRUSTRATED,30MonoWAV/30MonoH1.wav,2,2,1,5,,,,,1,4,20,4,0,9,9,3,,,,,,,,,1,0.6833678439998039,,,107,001,2019_Sep_05_1408,MusicAffectPsychophysiology2019,3.0.5,60.28638347149369,
To what extent did the music make you feel ,HAPPY,30MonoWAV/30MonoH1.wav,2,2,1,5,,,,,1,4,20,4,0,10,10,6,,,,,,,,,4,3.8343114400004197,,,107,001,2019_Sep_05_1408,MusicAffectPsychophysiology2019,3.0.5,60.28638347149369,
To what extent did the music make you feel ,SAD,30MonoWAV/30MonoH1.wav,2,2,1,5,,,,,1,4,20,4,0,11,11,0,,,,,,,,,1,1.4029707469999266,,,107,001,2019_Sep_05_1408,MusicAffectPsychophysiology2019,3.0.5,60.28638347149369,
,,30MonoWAV/30MonoH1.wav,2,2,1,5,,,,,1,4,20,4,,,,,,,,,,,,,,,,,107,001,2019_Sep_05_1408,MusicAffectPsychophysiology2019,3.0.5,60.28638347149369,
To what extent did the music make you feel ,FRUSTRATED,30MonoWAV/30MonoS3.wav,1,1,3,11,,,,,1,5,21,10,0,0,0,3,,,2,4.551387194999734,2,1.7674764339999456,2,1.4183019920001243,2,5.575120593000065,,,107,001,2019_Sep_05_1408,MusicAffectPsychophysiology2019,3.0.5,60.28638347149369,
To what extent did the music make you feel ,TENDER,30MonoWAV/30MonoS3.wav,1,1,3,11,,,,,1,5,21,10,0,1,1,10,,,,,,,,,1,1.8840651740001704,,,107,001,2019_Sep_05_1408,MusicAffectPsychophysiology2019,3.0.5,60.28638347149369,
To what extent did the music make you feel ,HAPPY,30MonoWAV/30MonoS3.wav,1,1,3,11,,,,,1,5,21,10,0,2,2,6,,,,,,,,,1,0.99898901799952,,,107,001,2019_Sep_05_1408,MusicAffectPsychophysiology2019,3.0.5,60.28638347149369,
To what extent did the music make you feel ,ANGRY,30MonoWAV/30MonoS3.wav,1,1,3,11,,,,,1,5,21,10,0,3,3,2,,,,,,,,,1,1.602283793999959,,,107,001,2019_Sep_05_1408,MusicAffectPsychophysiology2019,3.0.5,60.28638347149369,
To what extent did the music make you feel ,GUILTY,30MonoWAV/30MonoS3.wav,1,1,3,11,,,,,1,5,21,10,0,4,4,5,,,,,,,,,1,0.9858348600000681,,,107,001,2019_Sep_05_1408,MusicAffectPsychophysiology2019,3.0.5,60.28638347149369,
To what extent did the music make you feel ,EXCITED,30MonoWAV/30MonoS3.wav,1,1,3,11,,,,,1,5,21,10,0,5,5,7,,,,,,,,,1,2.035889329999918,,,107,001,2019_Sep_05_1408,MusicAffectPsychophysiology2019,3.0.5,60.28638347149369,
To what extent did the music make you feel ,SAD,30MonoWAV/30MonoS3.wav,1,1,3,11,,,,,1,5,21,10,0,6,6,0,,,,,,,,,1,0.8858747669992226,,,107,001,2019_Sep_05_1408,MusicAffectPsychophysiology2019,3.0.5,60.28638347149369,
To what extent did the music make you feel ,ANXIOUS ,30MonoWAV/30MonoS3.wav,1,1,3,11,,,,,1,5,21,10,0,7,7,1,,,,,,,,,1,1.50276363499961,,,107,001,2019_Sep_05_1408,MusicAffectPsychophysiology2019,3.0.5,60.28638347149369,
To what extent did the music make you feel ,ALERT,30MonoWAV/30MonoS3.wav,1,1,3,11,,,,,1,5,21,10,0,8,8,8,,,,,,,,,1,2.052907426999809,,,107,001,2019_Sep_05_1408,MusicAffectPsychophysiology2019,3.0.5,60.28638347149369,
To what extent did the music make you feel ,SCARED,30MonoWAV/30MonoS3.wav,1,1,3,11,,,,,1,5,21,10,0,9,9,11,,,,,,,,,1,1.0343494570006442,,,107,001,2019_Sep_05_1408,MusicAffectPsychophysiology2019,3.0.5,60.28638347149369,
To what extent did the music make you feel ,ACTIVE,30MonoWAV/30MonoS3.wav,1,1,3,11,,,,,1,5,21,10,0,10,10,9,,,,,,,,,2,1.1524686659995496,,,107,001,2019_Sep_05_1408,MusicAffectPsychophysiology2019,3.0.5,60.28638347149369,
To what extent did the music make you feel ,ASHAMED,30MonoWAV/30MonoS3.wav,1,1,3,11,,,,,1,5,21,10,0,11,11,4,,,,,,,,,1,1.7193493889999445,,,107,001,2019_Sep_05_1408,MusicAffectPsychophysiology2019,3.0.5,60.28638347149369,
,,30MonoWAV/30MonoS3.wav,1,1,3,11,,,,,1,5,21,10,,,,,,,,,,,,,,,,,107,001,2019_Sep_05_1408,MusicAffectPsychophysiology2019,3.0.5,60.28638347149369,
To what extent did the music make you feel ,SAD,30MonoWAV/30MonoF2.wav,1,2,2,2,,,,,1,6,22,1,0,0,0,0,,,2,4.219585554000332,2,5.019579159000386,3,1.5364949049999268,1,1.4217578120005783,,,107,001,2019_Sep_05_1408,MusicAffectPsychophysiology2019,3.0.5,60.28638347149369,
To what extent did the music make you feel ,ANGRY,30MonoWAV/30MonoF2.wav,1,2,2,2,,,,,1,6,22,1,0,1,1,2,,,,,,,,,1,0.7861406149995673,,,107,001,2019_Sep_05_1408,MusicAffectPsychophysiology2019,3.0.5,60.28638347149369,
To what extent did the music make you feel ,HAPPY,30MonoWAV/30MonoF2.wav,1,2,2,2,,,,,1,6,22,1,0,2,2,6,,,,,,,,,2,1.1190445400006865,,,107,001,2019_Sep_05_1408,MusicAffectPsychophysiology2019,3.0.5,60.28638347149369,
To what extent did the music make you feel ,EXCITED,30MonoWAV/30MonoF2.wav,1,2,2,2,,,,,1,6,22,1,0,3,3,7,,,,,,,,,4,2.6513904829998864,,,107,001,2019_Sep_05_1408,MusicAffectPsychophysiology2019,3.0.5,60.28638347149369,
To what extent did the music make you feel ,ANXIOUS ,30MonoWAV/30MonoF2.wav,1,2,2,2,,,,,1,6,22,1,0,4,4,1,,,,,,,,,2,1.3688655320002,,,107,001,2019_Sep_05_1408,MusicAffectPsychophysiology2019,3.0.5,60.28638347149369,
To what extent did the music make you feel ,GUILTY,30MonoWAV/30MonoF2.wav,1,2,2,2,,,,,1,6,22,1,0,5,5,5,,,,,,,,,1,0.9024583919999714,,,107,001,2019_Sep_05_1408,MusicAffectPsychophysiology2019,3.0.5,60.28638347149369,
To what extent did the music make you feel ,SCARED,30MonoWAV/30MonoF2.wav,1,2,2,2,,,,,1,6,22,1,0,6,6,11,,,,,,,,,2,1.0189245279998431,,,107,001,2019_Sep_05_1408,MusicAffectPsychophysiology2019,3.0.5,60.28638347149369,
To what extent did the music make you feel ,ASHAMED,30MonoWAV/30MonoF2.wav,1,2,2,2,,,,,1,6,22,1,0,7,7,4,,,,,,,,,1,0.6692775410001559,,,107,001,2019_Sep_05_1408,MusicAffectPsychophysiology2019,3.0.5,60.28638347149369,
To what extent did the music make you feel ,TENDER,30MonoWAV/30MonoF2.wav,1,2,2,2,,,,,1,6,22,1,0,8,8,10,,,,,,,,,1,0.8681946290007545,,,107,001,2019_Sep_05_1408,MusicAffectPsychophysiology2019,3.0.5,60.28638347149369,
To what extent did the music make you feel ,ALERT,30MonoWAV/30MonoF2.wav,1,2,2,2,,,,,1,6,22,1,0,9,9,8,,,,,,,,,4,2.1340315130000818,,,107,001,2019_Sep_05_1408,MusicAffectPsychophysiology2019,3.0.5,60.28638347149369,
To what extent did the music make you feel ,FRUSTRATED,30MonoWAV/30MonoF2.wav,1,2,2,2,,,,,1,6,22,1,0,10,10,3,,,,,,,,,1,1.818603780999183,,,107,001,2019_Sep_05_1408,MusicAffectPsychophysiology2019,3.0.5,60.28638347149369,
To what extent did the music make you feel ,ACTIVE,30MonoWAV/30MonoF2.wav,1,2,2,2,,,,,1,6,22,1,0,11,11,9,,,,,,,,,3,4.268133114000193,,,107,001,2019_Sep_05_1408,MusicAffectPsychophysiology2019,3.0.5,60.28638347149369,
,,30MonoWAV/30MonoF2.wav,1,2,2,2,,,,,1,6,22,1,,,,,,,,,,,,,,,,,107,001,2019_Sep_05_1408,MusicAffectPsychophysiology2019,3.0.5,60.28638347149369,
To what extent did the music make you feel ,ANXIOUS ,30MonoWAV/30MonoT2.wav,2,1,4,14,,,,,1,7,23,13,0,0,0,1,,,2,3.28520169300009,3,3.517376814999807,2,5.2017280039999605,1,1.8014555969994035,,,107,001,2019_Sep_05_1408,MusicAffectPsychophysiology2019,3.0.5,60.28638347149369,
To what extent did the music make you feel ,ACTIVE,30MonoWAV/30MonoT2.wav,2,1,4,14,,,,,1,7,23,13,0,1,1,9,,,,,,,,,1,1.169390041999577,,,107,001,2019_Sep_05_1408,MusicAffectPsychophysiology2019,3.0.5,60.28638347149369,
To what extent did the music make you feel ,HAPPY,30MonoWAV/30MonoT2.wav,2,1,4,14,,,,,1,7,23,13,0,2,2,6,,,,,,,,,2,1.0690407149995735,,,107,001,2019_Sep_05_1408,MusicAffectPsychophysiology2019,3.0.5,60.28638347149369,
To what extent did the music make you feel ,ASHAMED,30MonoWAV/30MonoT2.wav,2,1,4,14,,,,,1,7,23,13,0,3,3,4,,,,,,,,,1,0.768796514999849,,,107,001,2019_Sep_05_1408,MusicAffectPsychophysiology2019,3.0.5,60.28638347149369,
To what extent did the music make you feel ,EXCITED,30MonoWAV/30MonoT2.wav,2,1,4,14,,,,,1,7,23,13,0,4,4,7,,,,,,,,,2,0.8359898549997524,,,107,001,2019_Sep_05_1408,MusicAffectPsychophysiology2019,3.0.5,60.28638347149369,
To what extent did the music make you feel ,GUILTY,30MonoWAV/30MonoT2.wav,2,1,4,14,,,,,1,7,23,13,0,5,5,5,,,,,,,,,1,1.1353485279996676,,,107,001,2019_Sep_05_1408,MusicAffectPsychophysiology2019,3.0.5,60.28638347149369,
To what extent did the music make you feel ,TENDER,30MonoWAV/30MonoT2.wav,2,1,4,14,,,,,1,7,23,13,0,6,6,10,,,,,,,,,4,2.168658749000315,,,107,001,2019_Sep_05_1408,MusicAffectPsychophysiology2019,3.0.5,60.28638347149369,
To what extent did the music make you feel ,FRUSTRATED,30MonoWAV/30MonoT2.wav,2,1,4,14,,,,,1,7,23,13,0,7,7,3,,,,,,,,,1,0.802266896999754,,,107,001,2019_Sep_05_1408,MusicAffectPsychophysiology2019,3.0.5,60.28638347149369,
To what extent did the music make you feel ,SCARED,30MonoWAV/30MonoT2.wav,2,1,4,14,,,,,1,7,23,13,0,8,8,11,,,,,,,,,1,0.8523309430001973,,,107,001,2019_Sep_05_1408,MusicAffectPsychophysiology2019,3.0.5,60.28638347149369,
To what extent did the music make you feel ,ANGRY,30MonoWAV/30MonoT2.wav,2,1,4,14,,,,,1,7,23,13,0,9,9,2,,,,,,,,,1,0.7356879249991835,,,107,001,2019_Sep_05_1408,MusicAffectPsychophysiology2019,3.0.5,60.28638347149369,
To what extent did the music make you feel ,ALERT,30MonoWAV/30MonoT2.wav,2,1,4,14,,,,,1,7,23,13,0,10,10,8,,,,,,,,,1,0.969212478999907,,,107,001,2019_Sep_05_1408,MusicAffectPsychophysiology2019,3.0.5,60.28638347149369,
To what extent did the music make you feel ,SAD,30MonoWAV/30MonoT2.wav,2,1,4,14,,,,,1,7,23,13,0,11,11,0,,,,,,,,,1,1.1165928489999715,,,107,001,2019_Sep_05_1408,MusicAffectPsychophysiology2019,3.0.5,60.28638347149369,
,,30MonoWAV/30MonoT2.wav,2,1,4,14,,,,,1,7,23,13,,,,,,,,,,,,,,,,,107,001,2019_Sep_05_1408,MusicAffectPsychophysiology2019,3.0.5,60.28638347149369,
To what extent did the music make you feel ,FRUSTRATED,30MonoWAV/30MonoF4.wav,1,2,2,4,,,,,1,8,24,3,0,0,0,3,,,3,3.1187817569998515,2,5.418594920999567,2,1.2524520520000806,1,0.9531880559998172,,,107,001,2019_Sep_05_1408,MusicAffectPsychophysiology2019,3.0.5,60.28638347149369,
To what extent did the music make you feel ,SCARED,30MonoWAV/30MonoF4.wav,1,2,2,4,,,,,1,8,24,3,0,1,1,11,,,,,,,,,2,1.1851393540000572,,,107,001,2019_Sep_05_1408,MusicAffectPsychophysiology2019,3.0.5,60.28638347149369,
To what extent did the music make you feel ,ANGRY,30MonoWAV/30MonoF4.wav,1,2,2,4,,,,,1,8,24,3,0,2,2,2,,,,,,,,,2,2.5533833680001408,,,107,001,2019_Sep_05_1408,MusicAffectPsychophysiology2019,3.0.5,60.28638347149369,
To what extent did the music make you feel ,ALERT,30MonoWAV/30MonoF4.wav,1,2,2,4,,,,,1,8,24,3,0,3,3,8,,,,,,,,,4,3.1349253029993633,,,107,001,2019_Sep_05_1408,MusicAffectPsychophysiology2019,3.0.5,60.28638347149369,
To what extent did the music make you feel ,EXCITED,30MonoWAV/30MonoF4.wav,1,2,2,4,,,,,1,8,24,3,0,4,4,7,,,,,,,,,2,2.535700544000065,,,107,001,2019_Sep_05_1408,MusicAffectPsychophysiology2019,3.0.5,60.28638347149369,
To what extent did the music make you feel ,ASHAMED,30MonoWAV/30MonoF4.wav,1,2,2,4,,,,,1,8,24,3,0,5,5,4,,,,,,,,,1,1.2189124799997444,,,107,001,2019_Sep_05_1408,MusicAffectPsychophysiology2019,3.0.5,60.28638347149369,
To what extent did the music make you feel ,GUILTY,30MonoWAV/30MonoF4.wav,1,2,2,4,,,,,1,8,24,3,0,6,6,5,,,,,,,,,1,0.751852837000115,,,107,001,2019_Sep_05_1408,MusicAffectPsychophysiology2019,3.0.5,60.28638347149369,
To what extent did the music make you feel ,ANXIOUS ,30MonoWAV/30MonoF4.wav,1,2,2,4,,,,,1,8,24,3,0,7,7,1,,,,,,,,,2,1.0185972650006079,,,107,001,2019_Sep_05_1408,MusicAffectPsychophysiology2019,3.0.5,60.28638347149369,
To what extent did the music make you feel ,SAD,30MonoWAV/30MonoF4.wav,1,2,2,4,,,,,1,8,24,3,0,8,8,0,,,,,,,,,1,0.7201452859999335,,,107,001,2019_Sep_05_1408,MusicAffectPsychophysiology2019,3.0.5,60.28638347149369,
To what extent did the music make you feel ,ACTIVE,30MonoWAV/30MonoF4.wav,1,2,2,4,,,,,1,8,24,3,0,9,9,9,,,,,,,,,3,1.5020243779999873,,,107,001,2019_Sep_05_1408,MusicAffectPsychophysiology2019,3.0.5,60.28638347149369,
To what extent did the music make you feel ,HAPPY,30MonoWAV/30MonoF4.wav,1,2,2,4,,,,,1,8,24,3,0,10,10,6,,,,,,,,,2,1.8171662710001328,,,107,001,2019_Sep_05_1408,MusicAffectPsychophysiology2019,3.0.5,60.28638347149369,
To what extent did the music make you feel ,TENDER,30MonoWAV/30MonoF4.wav,1,2,2,4,,,,,1,8,24,3,0,11,11,10,,,,,,,,,1,1.6858174199996938,,,107,001,2019_Sep_05_1408,MusicAffectPsychophysiology2019,3.0.5,60.28638347149369,
,,30MonoWAV/30MonoF4.wav,1,2,2,4,,,,,1,8,24,3,,,,,,,,,,,,,,,,,107,001,2019_Sep_05_1408,MusicAffectPsychophysiology2019,3.0.5,60.28638347149369,
To what extent did the music make you feel ,GUILTY,30MonoWAV/30MonoT3.wav,2,1,4,15,,,,,1,9,25,14,0,0,0,5,,,2,3.8687554890002502,4,2.0858663879998858,2,3.850861590999557,1,1.2006027879997418,,,107,001,2019_Sep_05_1408,MusicAffectPsychophysiology2019,3.0.5,60.28638347149369,
To what extent did the music make you feel ,ACTIVE,30MonoWAV/30MonoT3.wav,2,1,4,15,,,,,1,9,25,14,0,1,1,9,,,,,,,,,2,0.9358584970004813,,,107,001,2019_Sep_05_1408,MusicAffectPsychophysiology2019,3.0.5,60.28638347149369,
To what extent did the music make you feel ,ANGRY,30MonoWAV/30MonoT3.wav,2,1,4,15,,,,,1,9,25,14,0,2,2,2,,,,,,,,,1,0.4516002460004529,,,107,001,2019_Sep_05_1408,MusicAffectPsychophysiology2019,3.0.5,60.28638347149369,
To what extent did the music make you feel ,ANXIOUS ,30MonoWAV/30MonoT3.wav,2,1,4,15,,,,,1,9,25,14,0,3,3,1,,,,,,,,,1,0.9022127130001536,,,107,001,2019_Sep_05_1408,MusicAffectPsychophysiology2019,3.0.5,60.28638347149369,
To what extent did the music make you feel ,SAD,30MonoWAV/30MonoT3.wav,2,1,4,15,,,,,1,9,25,14,0,4,4,0,,,,,,,,,1,1.2204176819996064,,,107,001,2019_Sep_05_1408,MusicAffectPsychophysiology2019,3.0.5,60.28638347149369,
To what extent did the music make you feel ,ASHAMED,30MonoWAV/30MonoT3.wav,2,1,4,15,,,,,1,9,25,14,0,5,5,4,,,,,,,,,1,0.6357118010000704,,,107,001,2019_Sep_05_1408,MusicAffectPsychophysiology2019,3.0.5,60.28638347149369,
To what extent did the music make you feel ,SCARED,30MonoWAV/30MonoT3.wav,2,1,4,15,,,,,1,9,25,14,0,6,6,11,,,,,,,,,1,0.6025569129997166,,,107,001,2019_Sep_05_1408,MusicAffectPsychophysiology2019,3.0.5,60.28638347149369,
To what extent did the music make you feel ,ALERT,30MonoWAV/30MonoT3.wav,2,1,4,15,,,,,1,9,25,14,0,7,7,8,,,,,,,,,2,0.9027015559995561,,,107,001,2019_Sep_05_1408,MusicAffectPsychophysiology2019,3.0.5,60.28638347149369,
To what extent did the music make you feel ,EXCITED,30MonoWAV/30MonoT3.wav,2,1,4,15,,,,,1,9,25,14,0,8,8,7,,,,,,,,,2,1.2016676139992342,,,107,001,2019_Sep_05_1408,MusicAffectPsychophysiology2019,3.0.5,60.28638347149369,
To what extent did the music make you feel ,TENDER,30MonoWAV/30MonoT3.wav,2,1,4,15,,,,,1,9,25,14,0,9,9,10,,,,,,,,,4,2.0859000079999532,,,107,001,2019_Sep_05_1408,MusicAffectPsychophysiology2019,3.0.5,60.28638347149369,
To what extent did the music make you feel ,HAPPY,30MonoWAV/30MonoT3.wav,2,1,4,15,,,,,1,9,25,14,0,10,10,6,,,,,,,,,3,1.901548286000434,,,107,001,2019_Sep_05_1408,MusicAffectPsychophysiology2019,3.0.5,60.28638347149369,
To what extent did the music make you feel ,FRUSTRATED,30MonoWAV/30MonoT3.wav,2,1,4,15,,,,,1,9,25,14,0,11,11,3,,,,,,,,,1,0.9328122480001184,,,107,001,2019_Sep_05_1408,MusicAffectPsychophysiology2019,3.0.5,60.28638347149369,
,,30MonoWAV/30MonoT3.wav,2,1,4,15,,,,,1,9,25,14,,,,,,,,,,,,,,,,,107,001,2019_Sep_05_1408,MusicAffectPsychophysiology2019,3.0.5,60.28638347149369,
To what extent did the music make you feel ,TENDER,30MonoWAV/30MonoS2.wav,1,1,3,10,,,,,1,10,26,9,0,0,0,10,,,1,3.052071785999942,1,3.584532751000552,1,0.9370474369998192,2,5.506217131000085,,,107,001,2019_Sep_05_1408,MusicAffectPsychophysiology2019,3.0.5,60.28638347149369,
To what extent did the music make you feel ,FRUSTRATED,30MonoWAV/30MonoS2.wav,1,1,3,10,,,,,1,10,26,9,0,1,1,3,,,,,,,,,1,1.2195746970000982,,,107,001,2019_Sep_05_1408,MusicAffectPsychophysiology2019,3.0.5,60.28638347149369,
To what extent did the music make you feel ,SAD,30MonoWAV/30MonoS2.wav,1,1,3,10,,,,,1,10,26,9,0,2,2,0,,,,,,,,,2,1.0855309739999939,,,107,001,2019_Sep_05_1408,MusicAffectPsychophysiology2019,3.0.5,60.28638347149369,
To what extent did the music make you feel ,ANGRY,30MonoWAV/30MonoS2.wav,1,1,3,10,,,,,1,10,26,9,0,3,3,2,,,,,,,,,1,1.0344975119996889,,,107,001,2019_Sep_05_1408,MusicAffectPsychophysiology2019,3.0.5,60.28638347149369,
To what extent did the music make you feel ,ACTIVE,30MonoWAV/30MonoS2.wav,1,1,3,10,,,,,1,10,26,9,0,4,4,9,,,,,,,,,1,1.6165935509998235,,,107,001,2019_Sep_05_1408,MusicAffectPsychophysiology2019,3.0.5,60.28638347149369,
To what extent did the music make you feel ,ALERT,30MonoWAV/30MonoS2.wav,1,1,3,10,,,,,1,10,26,9,0,5,5,8,,,,,,,,,1,0.8525690799997392,,,107,001,2019_Sep_05_1408,MusicAffectPsychophysiology2019,3.0.5,60.28638347149369,
To what extent did the music make you feel ,ANXIOUS ,30MonoWAV/30MonoS2.wav,1,1,3,10,,,,,1,10,26,9,0,6,6,1,,,,,,,,,1,0.9681971720001457,,,107,001,2019_Sep_05_1408,MusicAffectPsychophysiology2019,3.0.5,60.28638347149369,
To what extent did the music make you feel ,SCARED,30MonoWAV/30MonoS2.wav,1,1,3,10,,,,,1,10,26,9,0,7,7,11,,,,,,,,,1,0.7366127790000974,,,107,001,2019_Sep_05_1408,MusicAffectPsychophysiology2019,3.0.5,60.28638347149369,
To what extent did the music make you feel ,GUILTY,30MonoWAV/30MonoS2.wav,1,1,3,10,,,,,1,10,26,9,0,8,8,5,,,,,,,,,1,0.7189009949997853,,,107,001,2019_Sep_05_1408,MusicAffectPsychophysiology2019,3.0.5,60.28638347149369,
To what extent did the music make you feel ,ASHAMED,30MonoWAV/30MonoS2.wav,1,1,3,10,,,,,1,10,26,9,0,9,9,4,,,,,,,,,1,0.7188769919994229,,,107,001,2019_Sep_05_1408,MusicAffectPsychophysiology2019,3.0.5,60.28638347149369,
To what extent did the music make you feel ,EXCITED,30MonoWAV/30MonoS2.wav,1,1,3,10,,,,,1,10,26,9,0,10,10,7,,,,,,,,,1,0.9356089299999439,,,107,001,2019_Sep_05_1408,MusicAffectPsychophysiology2019,3.0.5,60.28638347149369,
To what extent did the music make you feel ,HAPPY,30MonoWAV/30MonoS2.wav,1,1,3,10,,,,,1,10,26,9,0,11,11,6,,,,,,,,,1,0.7517056649994629,,,107,001,2019_Sep_05_1408,MusicAffectPsychophysiology2019,3.0.5,60.28638347149369,
,,30MonoWAV/30MonoS2.wav,1,1,3,10,,,,,1,10,26,9,,,,,,,,,,,,,,,,,107,001,2019_Sep_05_1408,MusicAffectPsychophysiology2019,3.0.5,60.28638347149369,
To what extent did the music make you feel ,SCARED,30MonoWAV/30MonoH3.wav,2,2,1,7,,,,,1,11,27,6,0,0,0,11,,,3,3.6689937989995087,3,1.0533106250004494,2,1.0337052639997637,1,1.0121089389995177,,,107,001,2019_Sep_05_1408,MusicAffectPsychophysiology2019,3.0.5,60.28638347149369,
To what extent did the music make you feel ,ANXIOUS ,30MonoWAV/30MonoH3.wav,2,2,1,7,,,,,1,11,27,6,0,1,1,1,,,,,,,,,1,0.7023117810003896,,,107,001,2019_Sep_05_1408,MusicAffectPsychophysiology2019,3.0.5,60.28638347149369,
To what extent did the music make you feel ,SAD,30MonoWAV/30MonoH3.wav,2,2,1,7,,,,,1,11,27,6,0,2,2,0,,,,,,,,,1,0.6528178169992316,,,107,001,2019_Sep_05_1408,MusicAffectPsychophysiology2019,3.0.5,60.28638347149369,
To what extent did the music make you feel ,FRUSTRATED,30MonoWAV/30MonoH3.wav,2,2,1,7,,,,,1,11,27,6,0,3,3,3,,,,,,,,,1,0.6361909620000006,,,107,001,2019_Sep_05_1408,MusicAffectPsychophysiology2019,3.0.5,60.28638347149369,
To what extent did the music make you feel ,GUILTY,30MonoWAV/30MonoH3.wav,2,2,1,7,,,,,1,11,27,6,0,4,4,5,,,,,,,,,1,0.6857848480003668,,,107,001,2019_Sep_05_1408,MusicAffectPsychophysiology2019,3.0.5,60.28638347149369,
To what extent did the music make you feel ,TENDER,30MonoWAV/30MonoH3.wav,2,2,1,7,,,,,1,11,27,6,0,5,5,10,,,,,,,,,1,1.1354703200004224,,,107,001,2019_Sep_05_1408,MusicAffectPsychophysiology2019,3.0.5,60.28638347149369,
To what extent did the music make you feel ,HAPPY,30MonoWAV/30MonoH3.wav,2,2,1,7,,,,,1,11,27,6,0,6,6,6,,,,,,,,,2,1.4692535189997216,,,107,001,2019_Sep_05_1408,MusicAffectPsychophysiology2019,3.0.5,60.28638347149369,
To what extent did the music make you feel ,EXCITED,30MonoWAV/30MonoH3.wav,2,2,1,7,,,,,1,11,27,6,0,7,7,7,,,,,,,,,3,1.4022669999994832,,,107,001,2019_Sep_05_1408,MusicAffectPsychophysiology2019,3.0.5,60.28638347149369,
To what extent did the music make you feel ,ASHAMED,30MonoWAV/30MonoH3.wav,2,2,1,7,,,,,1,11,27,6,0,8,8,4,,,,,,,,,1,1.3167097360001208,,,107,001,2019_Sep_05_1408,MusicAffectPsychophysiology2019,3.0.5,60.28638347149369,
To what extent did the music make you feel ,ANGRY,30MonoWAV/30MonoH3.wav,2,2,1,7,,,,,1,11,27,6,0,9,9,2,,,,,,,,,1,0.8357980759992643,,,107,001,2019_Sep_05_1408,MusicAffectPsychophysiology2019,3.0.5,60.28638347149369,
To what extent did the music make you feel ,ALERT,30MonoWAV/30MonoH3.wav,2,2,1,7,,,,,1,11,27,6,0,10,10,8,,,,,,,,,3,1.136062452999795,,,107,001,2019_Sep_05_1408,MusicAffectPsychophysiology2019,3.0.5,60.28638347149369,
To what extent did the music make you feel ,ACTIVE,30MonoWAV/30MonoH3.wav,2,2,1,7,,,,,1,11,27,6,0,11,11,9,,,,,,,,,3,1.0686881940000603,,,107,001,2019_Sep_05_1408,MusicAffectPsychophysiology2019,3.0.5,60.28638347149369,
,,30MonoWAV/30MonoH3.wav,2,2,1,7,,,,,1,11,27,6,,,,,,,,,,,,,,,,,107,001,2019_Sep_05_1408,MusicAffectPsychophysiology2019,3.0.5,60.28638347149369,
To what extent did the music make you feel ,EXCITED,30MonoWAV/30MonoT4.wav,2,1,4,16,,,,,1,12,28,15,0,0,0,7,,,2,3.5185272170001554,3,2.4698194619995775,2,1.0359238600003664,2,1.3854668539997874,,,107,001,2019_Sep_05_1408,MusicAffectPsychophysiology2019,3.0.5,60.28638347149369,
To what extent did the music make you feel ,SCARED,30MonoWAV/30MonoT4.wav,2,1,4,16,,,,,1,12,28,15,0,1,1,11,,,,,,,,,1,0.8421873010001946,,,107,001,2019_Sep_05_1408,MusicAffectPsychophysiology2019,3.0.5,60.28638347149369,
To what extent did the music make you feel ,ASHAMED,30MonoWAV/30MonoT4.wav,2,1,4,16,,,,,1,12,28,15,0,2,2,4,,,,,,,,,1,0.6699379330002557,,,107,001,2019_Sep_05_1408,MusicAffectPsychophysiology2019,3.0.5,60.28638347149369,
To what extent did the music make you feel ,SAD,30MonoWAV/30MonoT4.wav,2,1,4,16,,,,,1,12,28,15,0,3,3,0,,,,,,,,,1,0.7309884959995543,,,107,001,2019_Sep_05_1408,MusicAffectPsychophysiology2019,3.0.5,60.28638347149369,
To what extent did the music make you feel ,HAPPY,30MonoWAV/30MonoT4.wav,2,1,4,16,,,,,1,12,28,15,0,4,4,6,,,,,,,,,3,1.668892061000406,,,107,001,2019_Sep_05_1408,MusicAffectPsychophysiology2019,3.0.5,60.28638347149369,
To what extent did the music make you feel ,FRUSTRATED,30MonoWAV/30MonoT4.wav,2,1,4,16,,,,,1,12,28,15,0,5,5,3,,,,,,,,,1,0.9036767879997569,,,107,001,2019_Sep_05_1408,MusicAffectPsychophysiology2019,3.0.5,60.28638347149369,
To what extent did the music make you feel ,ACTIVE,30MonoWAV/30MonoT4.wav,2,1,4,16,,,,,1,12,28,15,0,6,6,9,,,,,,,,,2,1.3861730530006753,,,107,001,2019_Sep_05_1408,MusicAffectPsychophysiology2019,3.0.5,60.28638347149369,
To what extent did the music make you feel ,ANXIOUS ,30MonoWAV/30MonoT4.wav,2,1,4,16,,,,,1,12,28,15,0,7,7,1,,,,,,,,,1,0.7035862220000126,,,107,001,2019_Sep_05_1408,MusicAffectPsychophysiology2019,3.0.5,60.28638347149369,
To what extent did the music make you feel ,GUILTY,30MonoWAV/30MonoT4.wav,2,1,4,16,,,,,1,12,28,15,0,8,8,5,,,,,,,,,1,0.7691601819997231,,,107,001,2019_Sep_05_1408,MusicAffectPsychophysiology2019,3.0.5,60.28638347149369,
To what extent did the music make you feel ,TENDER,30MonoWAV/30MonoT4.wav,2,1,4,16,,,,,1,12,28,15,0,9,9,10,,,,,,,,,4,1.2347254140004225,,,107,001,2019_Sep_05_1408,MusicAffectPsychophysiology2019,3.0.5,60.28638347149369,
To what extent did the music make you feel ,ALERT,30MonoWAV/30MonoT4.wav,2,1,4,16,,,,,1,12,28,15,0,10,10,8,,,,,,,,,1,2.6189034259996333,,,107,001,2019_Sep_05_1408,MusicAffectPsychophysiology2019,3.0.5,60.28638347149369,
To what extent did the music make you feel ,ANGRY,30MonoWAV/30MonoT4.wav,2,1,4,16,,,,,1,12,28,15,0,11,11,2,,,,,,,,,1,0.902899855999749,,,107,001,2019_Sep_05_1408,MusicAffectPsychophysiology2019,3.0.5,60.28638347149369,
,,30MonoWAV/30MonoT4.wav,2,1,4,16,,,,,1,12,28,15,,,,,,,,,,,,,,,,,107,001,2019_Sep_05_1408,MusicAffectPsychophysiology2019,3.0.5,60.28638347149369,
To what extent did the music make you feel ,EXCITED,30MonoWAV/30MonoH4.wav,2,2,1,8,,,,,1,13,29,7,0,0,0,7,,,4,3.61796011899969,4,1.233797551999487,4,3.6336737559995527,4,1.0183177090002573,,,107,001,2019_Sep_05_1408,MusicAffectPsychophysiology2019,3.0.5,60.28638347149369,
To what extent did the music make you feel ,ANXIOUS ,30MonoWAV/30MonoH4.wav,2,2,1,8,,,,,1,13,29,7,0,1,1,1,,,,,,,,,1,0.9858620940003675,,,107,001,2019_Sep_05_1408,MusicAffectPsychophysiology2019,3.0.5,60.28638347149369,
To what extent did the music make you feel ,ANGRY,30MonoWAV/30MonoH4.wav,2,2,1,8,,,,,1,13,29,7,0,2,2,2,,,,,,,,,1,0.7032337380005629,,,107,001,2019_Sep_05_1408,MusicAffectPsychophysiology2019,3.0.5,60.28638347149369,
To what extent did the music make you feel ,GUILTY,30MonoWAV/30MonoH4.wav,2,2,1,8,,,,,1,13,29,7,0,3,3,5,,,,,,,,,1,0.6524583919999714,,,107,001,2019_Sep_05_1408,MusicAffectPsychophysiology2019,3.0.5,60.28638347149369,
To what extent did the music make you feel ,SAD,30MonoWAV/30MonoH4.wav,2,2,1,8,,,,,1,13,29,7,0,4,4,0,,,,,,,,,1,0.6692870980004955,,,107,001,2019_Sep_05_1408,MusicAffectPsychophysiology2019,3.0.5,60.28638347149369,
To what extent did the music make you feel ,TENDER,30MonoWAV/30MonoH4.wav,2,2,1,8,,,,,1,13,29,7,0,5,5,10,,,,,,,,,1,1.0690233169998464,,,107,001,2019_Sep_05_1408,MusicAffectPsychophysiology2019,3.0.5,60.28638347149369,
To what extent did the music make you feel ,SCARED,30MonoWAV/30MonoH4.wav,2,2,1,8,,,,,1,13,29,7,0,6,6,11,,,,,,,,,1,0.6850196490004237,,,107,001,2019_Sep_05_1408,MusicAffectPsychophysiology2019,3.0.5,60.28638347149369,
To what extent did the music make you feel ,ACTIVE,30MonoWAV/30MonoH4.wav,2,2,1,8,,,,,1,13,29,7,0,7,7,9,,,,,,,,,4,1.0865905000000566,,,107,001,2019_Sep_05_1408,MusicAffectPsychophysiology2019,3.0.5,60.28638347149369,
To what extent did the music make you feel ,FRUSTRATED,30MonoWAV/30MonoH4.wav,2,2,1,8,,,,,1,13,29,7,0,8,8,3,,,,,,,,,1,0.782078090000141,,,107,001,2019_Sep_05_1408,MusicAffectPsychophysiology2019,3.0.5,60.28638347149369,
To what extent did the music make you feel ,ASHAMED,30MonoWAV/30MonoH4.wav,2,2,1,8,,,,,1,13,29,7,0,9,9,4,,,,,,,,,1,0.8353000580000298,,,107,001,2019_Sep_05_1408,MusicAffectPsychophysiology2019,3.0.5,60.28638347149369,
To what extent did the music make you feel ,ALERT,30MonoWAV/30MonoH4.wav,2,2,1,8,,,,,1,13,29,7,0,10,10,8,,,,,,,,,4,1.06930508700043,,,107,001,2019_Sep_05_1408,MusicAffectPsychophysiology2019,3.0.5,60.28638347149369,
To what extent did the music make you feel ,HAPPY,30MonoWAV/30MonoH4.wav,2,2,1,8,,,,,1,13,29,7,0,11,11,6,,,,,,,,,4,1.2502118760003214,,,107,001,2019_Sep_05_1408,MusicAffectPsychophysiology2019,3.0.5,60.28638347149369,
,,30MonoWAV/30MonoH4.wav,2,2,1,8,,,,,1,13,29,7,,,,,,,,,,,,,,,,,107,001,2019_Sep_05_1408,MusicAffectPsychophysiology2019,3.0.5,60.28638347149369,
To what extent did the music make you feel ,TENDER,30MonoWAV/30MonoH2.wav,2,2,1,6,,,,,1,14,30,5,0,0,0,10,,,3,5.751349702999505,2,1.152312721999806,2,5.4681555070001195,1,1.2250816069999928,,,107,001,2019_Sep_05_1408,MusicAffectPsychophysiology2019,3.0.5,60.28638347149369,
To what extent did the music make you feel ,SCARED,30MonoWAV/30MonoH2.wav,2,2,1,6,,,,,1,14,30,5,0,1,1,11,,,,,,,,,1,0.6687219120003647,,,107,001,2019_Sep_05_1408,MusicAffectPsychophysiology2019,3.0.5,60.28638347149369,
To what extent did the music make you feel ,HAPPY,30MonoWAV/30MonoH2.wav,2,2,1,6,,,,,1,14,30,5,0,2,2,6,,,,,,,,,2,1.0707905990002473,,,107,001,2019_Sep_05_1408,MusicAffectPsychophysiology2019,3.0.5,60.28638347149369,
To what extent did the music make you feel ,ACTIVE,30MonoWAV/30MonoH2.wav,2,2,1,6,,,,,1,14,30,5,0,3,3,9,,,,,,,,,3,1.1184109199994055,,,107,001,2019_Sep_05_1408,MusicAffectPsychophysiology2019,3.0.5,60.28638347149369,
To what extent did the music make you feel ,EXCITED,30MonoWAV/30MonoH2.wav,2,2,1,6,,,,,1,14,30,5,0,4,4,7,,,,,,,,,3,1.085840279999502,,,107,001,2019_Sep_05_1408,MusicAffectPsychophysiology2019,3.0.5,60.28638347149369,
To what extent did the music make you feel ,FRUSTRATED,30MonoWAV/30MonoH2.wav,2,2,1,6,,,,,1,14,30,5,0,5,5,3,,,,,,,,,1,1.536577331999979,,,107,001,2019_Sep_05_1408,MusicAffectPsychophysiology2019,3.0.5,60.28638347149369,
To what extent did the music make you feel ,ANGRY,30MonoWAV/30MonoH2.wav,2,2,1,6,,,,,1,14,30,5,0,6,6,2,,,,,,,,,1,0.6190374440002415,,,107,001,2019_Sep_05_1408,MusicAffectPsychophysiology2019,3.0.5,60.28638347149369,
To what extent did the music make you feel ,ANXIOUS ,30MonoWAV/30MonoH2.wav,2,2,1,6,,,,,1,14,30,5,0,7,7,1,,,,,,,,,1,1.1519595769996158,,,107,001,2019_Sep_05_1408,MusicAffectPsychophysiology2019,3.0.5,60.28638347149369,
To what extent did the music make you feel ,SAD,30MonoWAV/30MonoH2.wav,2,2,1,6,,,,,1,14,30,5,0,8,8,0,,,,,,,,,1,0.8030687079999552,,,107,001,2019_Sep_05_1408,MusicAffectPsychophysiology2019,3.0.5,60.28638347149369,
To what extent did the music make you feel ,GUILTY,30MonoWAV/30MonoH2.wav,2,2,1,6,,,,,1,14,30,5,0,9,9,5,,,,,,,,,1,0.5864917029994103,,,107,001,2019_Sep_05_1408,MusicAffectPsychophysiology2019,3.0.5,60.28638347149369,
To what extent did the music make you feel ,ASHAMED,30MonoWAV/30MonoH2.wav,2,2,1,6,,,,,1,14,30,5,0,10,10,4,,,,,,,,,1,0.5511081649992775,,,107,001,2019_Sep_05_1408,MusicAffectPsychophysiology2019,3.0.5,60.28638347149369,
To what extent did the music make you feel ,ALERT,30MonoWAV/30MonoH2.wav,2,2,1,6,,,,,1,14,30,5,0,11,11,8,,,,,,,,,2,1.9025159000002532,,,107,001,2019_Sep_05_1408,MusicAffectPsychophysiology2019,3.0.5,60.28638347149369,
,,30MonoWAV/30MonoH2.wav,2,2,1,6,,,,,1,14,30,5,,,,,,,,,,,,,,,,,107,001,2019_Sep_05_1408,MusicAffectPsychophysiology2019,3.0.5,60.28638347149369,
To what extent did the music make you feel ,ANGRY,30MonoWAV/30MonoT1.wav,2,1,4,13,,,,,1,15,31,12,0,0,0,2,,,2,2.919428850999793,3,1.5193658079997476,3,1.303010816999631,1,1.716390894000142,,,107,001,2019_Sep_05_1408,MusicAffectPsychophysiology2019,3.0.5,60.28638347149369,
To what extent did the music make you feel ,HAPPY,30MonoWAV/30MonoT1.wav,2,1,4,13,,,,,1,15,31,12,0,1,1,6,,,,,,,,,3,0.9849175449999166,,,107,001,2019_Sep_05_1408,MusicAffectPsychophysiology2019,3.0.5,60.28638347149369,
To what extent did the music make you feel ,ASHAMED,30MonoWAV/30MonoT1.wav,2,1,4,13,,,,,1,15,31,12,0,2,2,4,,,,,,,,,1,0.6336924320003163,,,107,001,2019_Sep_05_1408,MusicAffectPsychophysiology2019,3.0.5,60.28638347149369,
To what extent did the music make you feel ,ACTIVE,30MonoWAV/30MonoT1.wav,2,1,4,13,,,,,1,15,31,12,0,3,3,9,,,,,,,,,2,1.4187073999992208,,,107,001,2019_Sep_05_1408,MusicAffectPsychophysiology2019,3.0.5,60.28638347149369,
To what extent did the music make you feel ,SCARED,30MonoWAV/30MonoT1.wav,2,1,4,13,,,,,1,15,31,12,0,4,4,11,,,,,,,,,1,0.7512835540001106,,,107,001,2019_Sep_05_1408,MusicAffectPsychophysiology2019,3.0.5,60.28638347149369,
To what extent did the music make you feel ,GUILTY,30MonoWAV/30MonoT1.wav,2,1,4,13,,,,,1,15,31,12,0,5,5,5,,,,,,,,,1,0.7030136839994157,,,107,001,2019_Sep_05_1408,MusicAffectPsychophysiology2019,3.0.5,60.28638347149369,
To what extent did the music make you feel ,ANXIOUS ,30MonoWAV/30MonoT1.wav,2,1,4,13,,,,,1,15,31,12,0,6,6,1,,,,,,,,,1,0.63595718400029,,,107,001,2019_Sep_05_1408,MusicAffectPsychophysiology2019,3.0.5,60.28638347149369,
To what extent did the music make you feel ,FRUSTRATED,30MonoWAV/30MonoT1.wav,2,1,4,13,,,,,1,15,31,12,0,7,7,3,,,,,,,,,1,0.4687707989996852,,,107,001,2019_Sep_05_1408,MusicAffectPsychophysiology2019,3.0.5,60.28638347149369,
To what extent did the music make you feel ,EXCITED,30MonoWAV/30MonoT1.wav,2,1,4,13,,,,,1,15,31,12,0,8,8,7,,,,,,,,,2,1.0687357360002352,,,107,001,2019_Sep_05_1408,MusicAffectPsychophysiology2019,3.0.5,60.28638347149369,
To what extent did the music make you feel ,SAD,30MonoWAV/30MonoT1.wav,2,1,4,13,,,,,1,15,31,12,0,9,9,0,,,,,,,,,1,0.6024378609999985,,,107,001,2019_Sep_05_1408,MusicAffectPsychophysiology2019,3.0.5,60.28638347149369,
To what extent did the music make you feel ,TENDER,30MonoWAV/30MonoT1.wav,2,1,4,13,,,,,1,15,31,12,0,10,10,10,,,,,,,,,3,0.9179636779999782,,,107,001,2019_Sep_05_1408,MusicAffectPsychophysiology2019,3.0.5,60.28638347149369,
To what extent did the music make you feel ,ALERT,30MonoWAV/30MonoT1.wav,2,1,4,13,,,,,1,15,31,12,0,11,11,8,,,,,,,,,1,2.0188362560002133,,,107,001,2019_Sep_05_1408,MusicAffectPsychophysiology2019,3.0.5,60.28638347149369,
,,30MonoWAV/30MonoT1.wav,2,1,4,13,,,,,1,15,31,12,,,,,,,,,,,,,,,,,107,001,2019_Sep_05_1408,MusicAffectPsychophysiology2019,3.0.5,60.28638347149369,
,,,,,,,,,,,,,,,,,,,,,,,,,,,,,space,6.189232829999128,107,001,2019_Sep_05_1408,MusicAffectPsychophysiology2019,3.0.5,60.28638347149369,
