Instruction,Word,song,valence,arousal,affectcat,songmark,pracwords.thisRepN,pracwords.thisTrialN,pracwords.thisN,pracwords.thisIndex,songtrials.thisRepN,songtrials.thisTrialN,songtrials.thisN,songtrials.thisIndex,words.thisRepN,words.thisTrialN,words.thisN,words.thisIndex,begin.keys,begin.rt,arousalkey.keys,arousalkey.rt,valencekey.keys,valencekey.rt,likekey.keys,likekey.rt,WordResponse.keys,WordResponse.rt,participant,session,date,expName,psychopyVersion,frameRate,
,,,,,,,,,,,,,,,,,,,right,8.586123932999726,,,,,,,,,108,001,2019_Sep_05_1512,MusicAffectPsychophysiology2019,3.0.5,60.25800779674487,
,,,,,,,,,,,,,,,,,,,,,3,10.15154092100056,,,,,,,108,001,2019_Sep_05_1512,MusicAffectPsychophysiology2019,3.0.5,60.25800779674487,
,,,,,,,,,,,,,,,,,,,,,,,1,4.883100052999907,,,,,108,001,2019_Sep_05_1512,MusicAffectPsychophysiology2019,3.0.5,60.25800779674487,
,,,,,,,,,,,,,,,,,,,,,,,,,2,3.5176441499997964,,,108,001,2019_Sep_05_1512,MusicAffectPsychophysiology2019,3.0.5,60.25800779674487,
To what extent did the music make you feel ,GUILTY,,,,,,0,0,0,5,,,,,,,,,,,,,,,,,1,3.2501516960001027,108,001,2019_Sep_05_1512,MusicAffectPsychophysiology2019,3.0.5,60.25800779674487,
To what extent did the music make you feel ,ALERT,,,,,,0,1,1,8,,,,,,,,,,,,,,,,,3,2.7518832880004993,108,001,2019_Sep_05_1512,MusicAffectPsychophysiology2019,3.0.5,60.25800779674487,
To what extent did the music make you feel ,SAD,,,,,,0,2,2,0,,,,,,,,,,,,,,,,,1,2.2007459679998647,108,001,2019_Sep_05_1512,MusicAffectPsychophysiology2019,3.0.5,60.25800779674487,
To what extent did the music make you feel ,EXCITED,,,,,,0,3,3,7,,,,,,,,,,,,,,,,,1,2.6170305579998967,108,001,2019_Sep_05_1512,MusicAffectPsychophysiology2019,3.0.5,60.25800779674487,
To what extent did the music make you feel ,TENDER,,,,,,0,4,4,10,,,,,,,,,,,,,,,,,2,2.485461579999537,108,001,2019_Sep_05_1512,MusicAffectPsychophysiology2019,3.0.5,60.25800779674487,
To what extent did the music make you feel ,ASHAMED,,,,,,0,5,5,4,,,,,,,,,,,,,,,,,1,1.3002442980005071,108,001,2019_Sep_05_1512,MusicAffectPsychophysiology2019,3.0.5,60.25800779674487,
To what extent did the music make you feel ,SCARED,,,,,,0,6,6,11,,,,,,,,,,,,,,,,,4,3.402273239999886,108,001,2019_Sep_05_1512,MusicAffectPsychophysiology2019,3.0.5,60.25800779674487,
To what extent did the music make you feel ,FRUSTRATED,,,,,,0,7,7,3,,,,,,,,,,,,,,,,,1,1.4363301879993742,108,001,2019_Sep_05_1512,MusicAffectPsychophysiology2019,3.0.5,60.25800779674487,
To what extent did the music make you feel ,ACTIVE,,,,,,0,8,8,9,,,,,,,,,,,,,,,,,2,4.084350989999621,108,001,2019_Sep_05_1512,MusicAffectPsychophysiology2019,3.0.5,60.25800779674487,
To what extent did the music make you feel ,HAPPY,,,,,,0,9,9,6,,,,,,,,,,,,,,,,,2,2.3354786519994377,108,001,2019_Sep_05_1512,MusicAffectPsychophysiology2019,3.0.5,60.25800779674487,
To what extent did the music make you feel ,ANXIOUS ,,,,,,0,10,10,1,,,,,,,,,,,,,,,,,4,7.602127383000152,108,001,2019_Sep_05_1512,MusicAffectPsychophysiology2019,3.0.5,60.25800779674487,
To what extent did the music make you feel ,ANGRY,,,,,,0,11,11,2,,,,,,,,,,,,,,,,,1,1.3851569230000678,108,001,2019_Sep_05_1512,MusicAffectPsychophysiology2019,3.0.5,60.25800779674487,
To what extent did the music make you feel ,EXCITED,30MonoWAV/30MonoH3.wav,2,2,1,7,,,,,0,0,0,6,0,0,0,7,,,3,3.1188027380003405,3,2.0536108719998083,2,2.1525363099999595,3,2.9297808490000534,108,001,2019_Sep_05_1512,MusicAffectPsychophysiology2019,3.0.5,60.25800779674487,
To what extent did the music make you feel ,ACTIVE,30MonoWAV/30MonoH3.wav,2,2,1,7,,,,,0,0,0,6,0,1,1,9,,,,,,,,,3,1.235531778999757,108,001,2019_Sep_05_1512,MusicAffectPsychophysiology2019,3.0.5,60.25800779674487,
To what extent did the music make you feel ,ANXIOUS ,30MonoWAV/30MonoH3.wav,2,2,1,7,,,,,0,0,0,6,0,2,2,1,,,,,,,,,1,2.9009526549998554,108,001,2019_Sep_05_1512,MusicAffectPsychophysiology2019,3.0.5,60.25800779674487,
To what extent did the music make you feel ,ALERT,30MonoWAV/30MonoH3.wav,2,2,1,7,,,,,0,0,0,6,0,3,3,8,,,,,,,,,3,1.618435327000043,108,001,2019_Sep_05_1512,MusicAffectPsychophysiology2019,3.0.5,60.25800779674487,
To what extent did the music make you feel ,SCARED,30MonoWAV/30MonoH3.wav,2,2,1,7,,,,,0,0,0,6,0,4,4,11,,,,,,,,,1,1.885232630000246,108,001,2019_Sep_05_1512,MusicAffectPsychophysiology2019,3.0.5,60.25800779674487,
To what extent did the music make you feel ,SAD,30MonoWAV/30MonoH3.wav,2,2,1,7,,,,,0,0,0,6,0,5,5,0,,,,,,,,,1,2.486439367999992,108,001,2019_Sep_05_1512,MusicAffectPsychophysiology2019,3.0.5,60.25800779674487,
To what extent did the music make you feel ,ANGRY,30MonoWAV/30MonoH3.wav,2,2,1,7,,,,,0,0,0,6,0,6,6,2,,,,,,,,,1,2.5836666370005332,108,001,2019_Sep_05_1512,MusicAffectPsychophysiology2019,3.0.5,60.25800779674487,
To what extent did the music make you feel ,ASHAMED,30MonoWAV/30MonoH3.wav,2,2,1,7,,,,,0,0,0,6,0,7,7,4,,,,,,,,,1,1.3857647519998864,108,001,2019_Sep_05_1512,MusicAffectPsychophysiology2019,3.0.5,60.25800779674487,
To what extent did the music make you feel ,HAPPY,30MonoWAV/30MonoH3.wav,2,2,1,7,,,,,0,0,0,6,0,8,8,6,,,,,,,,,2,1.335933512000338,108,001,2019_Sep_05_1512,MusicAffectPsychophysiology2019,3.0.5,60.25800779674487,
To what extent did the music make you feel ,TENDER,30MonoWAV/30MonoH3.wav,2,2,1,7,,,,,0,0,0,6,0,9,9,10,,,,,,,,,2,3.3180038909995346,108,001,2019_Sep_05_1512,MusicAffectPsychophysiology2019,3.0.5,60.25800779674487,
To what extent did the music make you feel ,FRUSTRATED,30MonoWAV/30MonoH3.wav,2,2,1,7,,,,,0,0,0,6,0,10,10,3,,,,,,,,,1,1.4358781910004836,108,001,2019_Sep_05_1512,MusicAffectPsychophysiology2019,3.0.5,60.25800779674487,
To what extent did the music make you feel ,GUILTY,30MonoWAV/30MonoH3.wav,2,2,1,7,,,,,0,0,0,6,0,11,11,5,,,,,,,,,1,1.0194483559998844,108,001,2019_Sep_05_1512,MusicAffectPsychophysiology2019,3.0.5,60.25800779674487,
,,30MonoWAV/30MonoH3.wav,2,2,1,7,,,,,0,0,0,6,,,,,,,,,,,,,,,108,001,2019_Sep_05_1512,MusicAffectPsychophysiology2019,3.0.5,60.25800779674487,
To what extent did the music make you feel ,SAD,30MonoWAV/30MonoS4.wav,1,1,3,12,,,,,0,1,1,11,0,0,0,0,,,2,2.9017080680005165,2,2.1193123809998724,3,2.452789355999812,2,2.6223733239994544,108,001,2019_Sep_05_1512,MusicAffectPsychophysiology2019,3.0.5,60.25800779674487,
To what extent did the music make you feel ,SCARED,30MonoWAV/30MonoS4.wav,1,1,3,12,,,,,0,1,1,11,0,1,1,11,,,,,,,,,2,1.2507445729997926,108,001,2019_Sep_05_1512,MusicAffectPsychophysiology2019,3.0.5,60.25800779674487,
To what extent did the music make you feel ,TENDER,30MonoWAV/30MonoS4.wav,1,1,3,12,,,,,0,1,1,11,0,2,2,10,,,,,,,,,3,1.4695758239995484,108,001,2019_Sep_05_1512,MusicAffectPsychophysiology2019,3.0.5,60.25800779674487,
To what extent did the music make you feel ,GUILTY,30MonoWAV/30MonoS4.wav,1,1,3,12,,,,,0,1,1,11,0,3,3,5,,,,,,,,,2,1.152313805000631,108,001,2019_Sep_05_1512,MusicAffectPsychophysiology2019,3.0.5,60.25800779674487,
To what extent did the music make you feel ,FRUSTRATED,30MonoWAV/30MonoS4.wav,1,1,3,12,,,,,0,1,1,11,0,4,4,3,,,,,,,,,1,1.5536494419993687,108,001,2019_Sep_05_1512,MusicAffectPsychophysiology2019,3.0.5,60.25800779674487,
To what extent did the music make you feel ,HAPPY,30MonoWAV/30MonoS4.wav,1,1,3,12,,,,,0,1,1,11,0,5,5,6,,,,,,,,,2,1.7837459839993244,108,001,2019_Sep_05_1512,MusicAffectPsychophysiology2019,3.0.5,60.25800779674487,
To what extent did the music make you feel ,ASHAMED,30MonoWAV/30MonoS4.wav,1,1,3,12,,,,,0,1,1,11,0,6,6,4,,,,,,,,,2,2.3360908049999125,108,001,2019_Sep_05_1512,MusicAffectPsychophysiology2019,3.0.5,60.25800779674487,
To what extent did the music make you feel ,EXCITED,30MonoWAV/30MonoS4.wav,1,1,3,12,,,,,0,1,1,11,0,7,7,7,,,,,,,,,2,4.567196770999544,108,001,2019_Sep_05_1512,MusicAffectPsychophysiology2019,3.0.5,60.25800779674487,
To what extent did the music make you feel ,ANGRY,30MonoWAV/30MonoS4.wav,1,1,3,12,,,,,0,1,1,11,0,8,8,2,,,,,,,,,1,5.5017305430001215,108,001,2019_Sep_05_1512,MusicAffectPsychophysiology2019,3.0.5,60.25800779674487,
To what extent did the music make you feel ,ANXIOUS ,30MonoWAV/30MonoS4.wav,1,1,3,12,,,,,0,1,1,11,0,9,9,1,,,,,,,,,1,2.452656007999394,108,001,2019_Sep_05_1512,MusicAffectPsychophysiology2019,3.0.5,60.25800779674487,
To what extent did the music make you feel ,ALERT,30MonoWAV/30MonoS4.wav,1,1,3,12,,,,,0,1,1,11,0,10,10,8,,,,,,,,,1,3.3361083680001684,108,001,2019_Sep_05_1512,MusicAffectPsychophysiology2019,3.0.5,60.25800779674487,
To what extent did the music make you feel ,ACTIVE,30MonoWAV/30MonoS4.wav,1,1,3,12,,,,,0,1,1,11,0,11,11,9,,,,,,,,,1,1.734745920000023,108,001,2019_Sep_05_1512,MusicAffectPsychophysiology2019,3.0.5,60.25800779674487,
,,30MonoWAV/30MonoS4.wav,1,1,3,12,,,,,0,1,1,11,,,,,,,,,,,,,,,108,001,2019_Sep_05_1512,MusicAffectPsychophysiology2019,3.0.5,60.25800779674487,
To what extent did the music make you feel ,GUILTY,30MonoWAV/30MonoF3.wav,1,2,2,3,,,,,0,2,2,2,0,0,0,5,,,3,2.8865412659997673,1,4.051749147999544,1,1.7857411999993928,1,1.713065177000317,108,001,2019_Sep_05_1512,MusicAffectPsychophysiology2019,3.0.5,60.25800779674487,
To what extent did the music make you feel ,ANXIOUS ,30MonoWAV/30MonoF3.wav,1,2,2,3,,,,,0,2,2,2,0,1,1,1,,,,,,,,,3,1.1860860879996835,108,001,2019_Sep_05_1512,MusicAffectPsychophysiology2019,3.0.5,60.25800779674487,
To what extent did the music make you feel ,SCARED,30MonoWAV/30MonoF3.wav,1,2,2,3,,,,,0,2,2,2,0,2,2,11,,,,,,,,,3,1.8859914630002095,108,001,2019_Sep_05_1512,MusicAffectPsychophysiology2019,3.0.5,60.25800779674487,
To what extent did the music make you feel ,ASHAMED,30MonoWAV/30MonoF3.wav,1,2,2,3,,,,,0,2,2,2,0,3,3,4,,,,,,,,,1,1.3190947670000241,108,001,2019_Sep_05_1512,MusicAffectPsychophysiology2019,3.0.5,60.25800779674487,
To what extent did the music make you feel ,EXCITED,30MonoWAV/30MonoF3.wav,1,2,2,3,,,,,0,2,2,2,0,4,4,7,,,,,,,,,3,1.6697568170002342,108,001,2019_Sep_05_1512,MusicAffectPsychophysiology2019,3.0.5,60.25800779674487,
To what extent did the music make you feel ,SAD,30MonoWAV/30MonoF3.wav,1,2,2,3,,,,,0,2,2,2,0,5,5,0,,,,,,,,,1,2.1033822589997726,108,001,2019_Sep_05_1512,MusicAffectPsychophysiology2019,3.0.5,60.25800779674487,
To what extent did the music make you feel ,ACTIVE,30MonoWAV/30MonoF3.wav,1,2,2,3,,,,,0,2,2,2,0,6,6,9,,,,,,,,,4,1.967947973000264,108,001,2019_Sep_05_1512,MusicAffectPsychophysiology2019,3.0.5,60.25800779674487,
To what extent did the music make you feel ,HAPPY,30MonoWAV/30MonoF3.wav,1,2,2,3,,,,,0,2,2,2,0,7,7,6,,,,,,,,,1,3.0024039399995672,108,001,2019_Sep_05_1512,MusicAffectPsychophysiology2019,3.0.5,60.25800779674487,
To what extent did the music make you feel ,FRUSTRATED,30MonoWAV/30MonoF3.wav,1,2,2,3,,,,,0,2,2,2,0,8,8,3,,,,,,,,,2,4.335480543999438,108,001,2019_Sep_05_1512,MusicAffectPsychophysiology2019,3.0.5,60.25800779674487,
To what extent did the music make you feel ,TENDER,30MonoWAV/30MonoF3.wav,1,2,2,3,,,,,0,2,2,2,0,9,9,10,,,,,,,,,1,1.3533804950002377,108,001,2019_Sep_05_1512,MusicAffectPsychophysiology2019,3.0.5,60.25800779674487,
To what extent did the music make you feel ,ANGRY,30MonoWAV/30MonoF3.wav,1,2,2,3,,,,,0,2,2,2,0,10,10,2,,,,,,,,,2,1.718154613000479,108,001,2019_Sep_05_1512,MusicAffectPsychophysiology2019,3.0.5,60.25800779674487,
To what extent did the music make you feel ,ALERT,30MonoWAV/30MonoF3.wav,1,2,2,3,,,,,0,2,2,2,0,11,11,8,,,,,,,,,4,1.7362944140004402,108,001,2019_Sep_05_1512,MusicAffectPsychophysiology2019,3.0.5,60.25800779674487,
,,30MonoWAV/30MonoF3.wav,1,2,2,3,,,,,0,2,2,2,,,,,,,,,,,,,,,108,001,2019_Sep_05_1512,MusicAffectPsychophysiology2019,3.0.5,60.25800779674487,
To what extent did the music make you feel ,SCARED,30MonoWAV/30MonoT2.wav,2,1,4,14,,,,,0,3,3,13,0,0,0,11,,,3,2.9678959339998983,4,1.8018157189999329,4,0.9189550769997368,1,2.1272129730004963,108,001,2019_Sep_05_1512,MusicAffectPsychophysiology2019,3.0.5,60.25800779674487,
To what extent did the music make you feel ,FRUSTRATED,30MonoWAV/30MonoT2.wav,2,1,4,14,,,,,0,3,3,13,0,1,1,3,,,,,,,,,1,0.953727783999966,108,001,2019_Sep_05_1512,MusicAffectPsychophysiology2019,3.0.5,60.25800779674487,
To what extent did the music make you feel ,GUILTY,30MonoWAV/30MonoT2.wav,2,1,4,14,,,,,0,3,3,13,0,2,2,5,,,,,,,,,1,0.8176855550000255,108,001,2019_Sep_05_1512,MusicAffectPsychophysiology2019,3.0.5,60.25800779674487,
To what extent did the music make you feel ,ACTIVE,30MonoWAV/30MonoT2.wav,2,1,4,14,,,,,0,3,3,13,0,3,3,9,,,,,,,,,3,1.4531600460004483,108,001,2019_Sep_05_1512,MusicAffectPsychophysiology2019,3.0.5,60.25800779674487,
To what extent did the music make you feel ,ANXIOUS ,30MonoWAV/30MonoT2.wav,2,1,4,14,,,,,0,3,3,13,0,4,4,1,,,,,,,,,1,2.0680726860000505,108,001,2019_Sep_05_1512,MusicAffectPsychophysiology2019,3.0.5,60.25800779674487,
To what extent did the music make you feel ,TENDER,30MonoWAV/30MonoT2.wav,2,1,4,14,,,,,0,3,3,13,0,5,5,10,,,,,,,,,4,1.3012039330005791,108,001,2019_Sep_05_1512,MusicAffectPsychophysiology2019,3.0.5,60.25800779674487,
To what extent did the music make you feel ,SAD,30MonoWAV/30MonoT2.wav,2,1,4,14,,,,,0,3,3,13,0,6,6,0,,,,,,,,,2,3.452403434000189,108,001,2019_Sep_05_1512,MusicAffectPsychophysiology2019,3.0.5,60.25800779674487,
To what extent did the music make you feel ,ANGRY,30MonoWAV/30MonoT2.wav,2,1,4,14,,,,,0,3,3,13,0,7,7,2,,,,,,,,,1,1.4352259379993484,108,001,2019_Sep_05_1512,MusicAffectPsychophysiology2019,3.0.5,60.25800779674487,
To what extent did the music make you feel ,ASHAMED,30MonoWAV/30MonoT2.wav,2,1,4,14,,,,,0,3,3,13,0,8,8,4,,,,,,,,,1,1.051611824000247,108,001,2019_Sep_05_1512,MusicAffectPsychophysiology2019,3.0.5,60.25800779674487,
To what extent did the music make you feel ,EXCITED,30MonoWAV/30MonoT2.wav,2,1,4,14,,,,,0,3,3,13,0,9,9,7,,,,,,,,,3,2.2848093849997895,108,001,2019_Sep_05_1512,MusicAffectPsychophysiology2019,3.0.5,60.25800779674487,
To what extent did the music make you feel ,HAPPY,30MonoWAV/30MonoT2.wav,2,1,4,14,,,,,0,3,3,13,0,10,10,6,,,,,,,,,4,2.6028487519997725,108,001,2019_Sep_05_1512,MusicAffectPsychophysiology2019,3.0.5,60.25800779674487,
To what extent did the music make you feel ,ALERT,30MonoWAV/30MonoT2.wav,2,1,4,14,,,,,0,3,3,13,0,11,11,8,,,,,,,,,3,1.3185538730003827,108,001,2019_Sep_05_1512,MusicAffectPsychophysiology2019,3.0.5,60.25800779674487,
,,30MonoWAV/30MonoT2.wav,2,1,4,14,,,,,0,3,3,13,,,,,,,,,,,,,,,108,001,2019_Sep_05_1512,MusicAffectPsychophysiology2019,3.0.5,60.25800779674487,
To what extent did the music make you feel ,GUILTY,30MonoWAV/30MonoF4.wav,1,2,2,4,,,,,0,4,4,3,0,0,0,5,,,2,3.9358609159999105,1,1.6352664529995309,1,1.7847933040002317,1,1.339852131999578,108,001,2019_Sep_05_1512,MusicAffectPsychophysiology2019,3.0.5,60.25800779674487,
To what extent did the music make you feel ,ASHAMED,30MonoWAV/30MonoF4.wav,1,2,2,4,,,,,0,4,4,3,0,1,1,4,,,,,,,,,1,0.91635771700021,108,001,2019_Sep_05_1512,MusicAffectPsychophysiology2019,3.0.5,60.25800779674487,
To what extent did the music make you feel ,ANGRY,30MonoWAV/30MonoF4.wav,1,2,2,4,,,,,0,4,4,3,0,2,2,2,,,,,,,,,2,1.268642063999323,108,001,2019_Sep_05_1512,MusicAffectPsychophysiology2019,3.0.5,60.25800779674487,
To what extent did the music make you feel ,EXCITED,30MonoWAV/30MonoF4.wav,1,2,2,4,,,,,0,4,4,3,0,3,3,7,,,,,,,,,2,1.6182794849992206,108,001,2019_Sep_05_1512,MusicAffectPsychophysiology2019,3.0.5,60.25800779674487,
To what extent did the music make you feel ,FRUSTRATED,30MonoWAV/30MonoF4.wav,1,2,2,4,,,,,0,4,4,3,0,4,4,3,,,,,,,,,1,1.9877645229998961,108,001,2019_Sep_05_1512,MusicAffectPsychophysiology2019,3.0.5,60.25800779674487,
To what extent did the music make you feel ,TENDER,30MonoWAV/30MonoF4.wav,1,2,2,4,,,,,0,4,4,3,0,5,5,10,,,,,,,,,1,1.5342293409994454,108,001,2019_Sep_05_1512,MusicAffectPsychophysiology2019,3.0.5,60.25800779674487,
To what extent did the music make you feel ,ACTIVE,30MonoWAV/30MonoF4.wav,1,2,2,4,,,,,0,4,4,3,0,6,6,9,,,,,,,,,3,1.3191728829997373,108,001,2019_Sep_05_1512,MusicAffectPsychophysiology2019,3.0.5,60.25800779674487,
To what extent did the music make you feel ,SAD,30MonoWAV/30MonoF4.wav,1,2,2,4,,,,,0,4,4,3,0,7,7,0,,,,,,,,,1,2.2171241760006524,108,001,2019_Sep_05_1512,MusicAffectPsychophysiology2019,3.0.5,60.25800779674487,
To what extent did the music make you feel ,HAPPY,30MonoWAV/30MonoF4.wav,1,2,2,4,,,,,0,4,4,3,0,8,8,6,,,,,,,,,2,2.352012694000223,108,001,2019_Sep_05_1512,MusicAffectPsychophysiology2019,3.0.5,60.25800779674487,
To what extent did the music make you feel ,ANXIOUS ,30MonoWAV/30MonoF4.wav,1,2,2,4,,,,,0,4,4,3,0,9,9,1,,,,,,,,,2,4.433516900000541,108,001,2019_Sep_05_1512,MusicAffectPsychophysiology2019,3.0.5,60.25800779674487,
To what extent did the music make you feel ,SCARED,30MonoWAV/30MonoF4.wav,1,2,2,4,,,,,0,4,4,3,0,10,10,11,,,,,,,,,2,1.3190075109996542,108,001,2019_Sep_05_1512,MusicAffectPsychophysiology2019,3.0.5,60.25800779674487,
To what extent did the music make you feel ,ALERT,30MonoWAV/30MonoF4.wav,1,2,2,4,,,,,0,4,4,3,0,11,11,8,,,,,,,,,3,2.0661902900001223,108,001,2019_Sep_05_1512,MusicAffectPsychophysiology2019,3.0.5,60.25800779674487,
,,30MonoWAV/30MonoF4.wav,1,2,2,4,,,,,0,4,4,3,,,,,,,,,,,,,,,108,001,2019_Sep_05_1512,MusicAffectPsychophysiology2019,3.0.5,60.25800779674487,
To what extent did the music make you feel ,ALERT,30MonoWAV/30MonoS1.wav,1,1,3,9,,,,,0,5,5,8,0,0,0,8,,,2,3.0857320770001024,2,5.052439195000261,4,2.001380433000122,1,3.418802833999507,108,001,2019_Sep_05_1512,MusicAffectPsychophysiology2019,3.0.5,60.25800779674487,
To what extent did the music make you feel ,EXCITED,30MonoWAV/30MonoS1.wav,1,1,3,9,,,,,0,5,5,8,0,1,1,7,,,,,,,,,2,3.534997656000087,108,001,2019_Sep_05_1512,MusicAffectPsychophysiology2019,3.0.5,60.25800779674487,
To what extent did the music make you feel ,SAD,30MonoWAV/30MonoS1.wav,1,1,3,9,,,,,0,5,5,8,0,2,2,0,,,,,,,,,2,1.317140154000299,108,001,2019_Sep_05_1512,MusicAffectPsychophysiology2019,3.0.5,60.25800779674487,
To what extent did the music make you feel ,ANGRY,30MonoWAV/30MonoS1.wav,1,1,3,9,,,,,0,5,5,8,0,3,3,2,,,,,,,,,1,1.3350494320002326,108,001,2019_Sep_05_1512,MusicAffectPsychophysiology2019,3.0.5,60.25800779674487,
To what extent did the music make you feel ,FRUSTRATED,30MonoWAV/30MonoS1.wav,1,1,3,9,,,,,0,5,5,8,0,4,4,3,,,,,,,,,1,1.035613440999441,108,001,2019_Sep_05_1512,MusicAffectPsychophysiology2019,3.0.5,60.25800779674487,
To what extent did the music make you feel ,ANXIOUS ,30MonoWAV/30MonoS1.wav,1,1,3,9,,,,,0,5,5,8,0,5,5,1,,,,,,,,,2,1.1023614570003701,108,001,2019_Sep_05_1512,MusicAffectPsychophysiology2019,3.0.5,60.25800779674487,
To what extent did the music make you feel ,SCARED,30MonoWAV/30MonoS1.wav,1,1,3,9,,,,,0,5,5,8,0,6,6,11,,,,,,,,,2,0.9358622950003337,108,001,2019_Sep_05_1512,MusicAffectPsychophysiology2019,3.0.5,60.25800779674487,
To what extent did the music make you feel ,ACTIVE,30MonoWAV/30MonoS1.wav,1,1,3,9,,,,,0,5,5,8,0,7,7,9,,,,,,,,,1,3.619003523000174,108,001,2019_Sep_05_1512,MusicAffectPsychophysiology2019,3.0.5,60.25800779674487,
To what extent did the music make you feel ,GUILTY,30MonoWAV/30MonoS1.wav,1,1,3,9,,,,,0,5,5,8,0,8,8,5,,,,,,,,,2,1.550311024999246,108,001,2019_Sep_05_1512,MusicAffectPsychophysiology2019,3.0.5,60.25800779674487,
To what extent did the music make you feel ,TENDER,30MonoWAV/30MonoS1.wav,1,1,3,9,,,,,0,5,5,8,0,9,9,10,,,,,,,,,2,1.7661898020005538,108,001,2019_Sep_05_1512,MusicAffectPsychophysiology2019,3.0.5,60.25800779674487,
To what extent did the music make you feel ,HAPPY,30MonoWAV/30MonoS1.wav,1,1,3,9,,,,,0,5,5,8,0,10,10,6,,,,,,,,,1,1.2690734650004742,108,001,2019_Sep_05_1512,MusicAffectPsychophysiology2019,3.0.5,60.25800779674487,
To what extent did the music make you feel ,ASHAMED,30MonoWAV/30MonoS1.wav,1,1,3,9,,,,,0,5,5,8,0,11,11,4,,,,,,,,,2,8.418569102999754,108,001,2019_Sep_05_1512,MusicAffectPsychophysiology2019,3.0.5,60.25800779674487,
,,30MonoWAV/30MonoS1.wav,1,1,3,9,,,,,0,5,5,8,,,,,,,,,,,,,,,108,001,2019_Sep_05_1512,MusicAffectPsychophysiology2019,3.0.5,60.25800779674487,
To what extent did the music make you feel ,EXCITED,30MonoWAV/30MonoS3.wav,1,1,3,11,,,,,0,6,6,10,0,0,0,7,,,1,2.816309849999925,1,1.668519988999833,1,4.451648541000395,1,1.4921625819997644,108,001,2019_Sep_05_1512,MusicAffectPsychophysiology2019,3.0.5,60.25800779674487,
To what extent did the music make you feel ,ASHAMED,30MonoWAV/30MonoS3.wav,1,1,3,11,,,,,0,6,6,10,0,1,1,4,,,,,,,,,1,0.7676992950000567,108,001,2019_Sep_05_1512,MusicAffectPsychophysiology2019,3.0.5,60.25800779674487,
To what extent did the music make you feel ,ACTIVE,30MonoWAV/30MonoS3.wav,1,1,3,11,,,,,0,6,6,10,0,2,2,9,,,,,,,,,1,1.086397308999949,108,001,2019_Sep_05_1512,MusicAffectPsychophysiology2019,3.0.5,60.25800779674487,
To what extent did the music make you feel ,ANGRY,30MonoWAV/30MonoS3.wav,1,1,3,11,,,,,0,6,6,10,0,3,3,2,,,,,,,,,1,0.6849247449999893,108,001,2019_Sep_05_1512,MusicAffectPsychophysiology2019,3.0.5,60.25800779674487,
To what extent did the music make you feel ,ALERT,30MonoWAV/30MonoS3.wav,1,1,3,11,,,,,0,6,6,10,0,4,4,8,,,,,,,,,1,2.3338403040006597,108,001,2019_Sep_05_1512,MusicAffectPsychophysiology2019,3.0.5,60.25800779674487,
To what extent did the music make you feel ,SAD,30MonoWAV/30MonoS3.wav,1,1,3,11,,,,,0,6,6,10,0,5,5,0,,,,,,,,,1,2.2196854469993923,108,001,2019_Sep_05_1512,MusicAffectPsychophysiology2019,3.0.5,60.25800779674487,
To what extent did the music make you feel ,GUILTY,30MonoWAV/30MonoS3.wav,1,1,3,11,,,,,0,6,6,10,0,6,6,5,,,,,,,,,2,1.8005303139998432,108,001,2019_Sep_05_1512,MusicAffectPsychophysiology2019,3.0.5,60.25800779674487,
To what extent did the music make you feel ,ANXIOUS ,30MonoWAV/30MonoS3.wav,1,1,3,11,,,,,0,6,6,10,0,7,7,1,,,,,,,,,2,0.9016502159993252,108,001,2019_Sep_05_1512,MusicAffectPsychophysiology2019,3.0.5,60.25800779674487,
To what extent did the music make you feel ,HAPPY,30MonoWAV/30MonoS3.wav,1,1,3,11,,,,,0,6,6,10,0,8,8,6,,,,,,,,,1,0.8017183720003231,108,001,2019_Sep_05_1512,MusicAffectPsychophysiology2019,3.0.5,60.25800779674487,
To what extent did the music make you feel ,FRUSTRATED,30MonoWAV/30MonoS3.wav,1,1,3,11,,,,,0,6,6,10,0,9,9,3,,,,,,,,,1,0.7032050369998615,108,001,2019_Sep_05_1512,MusicAffectPsychophysiology2019,3.0.5,60.25800779674487,
To what extent did the music make you feel ,SCARED,30MonoWAV/30MonoS3.wav,1,1,3,11,,,,,0,6,6,10,0,10,10,11,,,,,,,,,1,4.3867585409998355,108,001,2019_Sep_05_1512,MusicAffectPsychophysiology2019,3.0.5,60.25800779674487,
To what extent did the music make you feel ,TENDER,30MonoWAV/30MonoS3.wav,1,1,3,11,,,,,0,6,6,10,0,11,11,10,,,,,,,,,1,3.749797457000568,108,001,2019_Sep_05_1512,MusicAffectPsychophysiology2019,3.0.5,60.25800779674487,
,,30MonoWAV/30MonoS3.wav,1,1,3,11,,,,,0,6,6,10,,,,,,,,,,,,,,,108,001,2019_Sep_05_1512,MusicAffectPsychophysiology2019,3.0.5,60.25800779674487,
To what extent did the music make you feel ,HAPPY,30MonoWAV/30MonoT1.wav,2,1,4,13,,,,,0,7,7,12,0,0,0,6,,,3,3.268803408000167,2,1.469073451999975,2,1.701303777999783,2,2.2708866259999922,108,001,2019_Sep_05_1512,MusicAffectPsychophysiology2019,3.0.5,60.25800779674487,
To what extent did the music make you feel ,ANGRY,30MonoWAV/30MonoT1.wav,2,1,4,13,,,,,0,7,7,12,0,1,1,2,,,,,,,,,1,1.4021804029998748,108,001,2019_Sep_05_1512,MusicAffectPsychophysiology2019,3.0.5,60.25800779674487,
To what extent did the music make you feel ,SAD,30MonoWAV/30MonoT1.wav,2,1,4,13,,,,,0,7,7,12,0,2,2,0,,,,,,,,,1,2.7008232490006776,108,001,2019_Sep_05_1512,MusicAffectPsychophysiology2019,3.0.5,60.25800779674487,
To what extent did the music make you feel ,TENDER,30MonoWAV/30MonoT1.wav,2,1,4,13,,,,,0,7,7,12,0,3,3,10,,,,,,,,,3,2.452430624000044,108,001,2019_Sep_05_1512,MusicAffectPsychophysiology2019,3.0.5,60.25800779674487,
To what extent did the music make you feel ,GUILTY,30MonoWAV/30MonoT1.wav,2,1,4,13,,,,,0,7,7,12,0,4,4,5,,,,,,,,,1,1.468373568000061,108,001,2019_Sep_05_1512,MusicAffectPsychophysiology2019,3.0.5,60.25800779674487,
To what extent did the music make you feel ,ASHAMED,30MonoWAV/30MonoT1.wav,2,1,4,13,,,,,0,7,7,12,0,5,5,4,,,,,,,,,1,1.3357019309996758,108,001,2019_Sep_05_1512,MusicAffectPsychophysiology2019,3.0.5,60.25800779674487,
To what extent did the music make you feel ,FRUSTRATED,30MonoWAV/30MonoT1.wav,2,1,4,13,,,,,0,7,7,12,0,6,6,3,,,,,,,,,1,0.7533041460001186,108,001,2019_Sep_05_1512,MusicAffectPsychophysiology2019,3.0.5,60.25800779674487,
To what extent did the music make you feel ,ALERT,30MonoWAV/30MonoT1.wav,2,1,4,13,,,,,0,7,7,12,0,7,7,8,,,,,,,,,2,1.5358354370000598,108,001,2019_Sep_05_1512,MusicAffectPsychophysiology2019,3.0.5,60.25800779674487,
To what extent did the music make you feel ,EXCITED,30MonoWAV/30MonoT1.wav,2,1,4,13,,,,,0,7,7,12,0,8,8,7,,,,,,,,,1,1.1683626940002796,108,001,2019_Sep_05_1512,MusicAffectPsychophysiology2019,3.0.5,60.25800779674487,
To what extent did the music make you feel ,SCARED,30MonoWAV/30MonoT1.wav,2,1,4,13,,,,,0,7,7,12,0,9,9,11,,,,,,,,,1,1.0332922529996722,108,001,2019_Sep_05_1512,MusicAffectPsychophysiology2019,3.0.5,60.25800779674487,
To what extent did the music make you feel ,ACTIVE,30MonoWAV/30MonoT1.wav,2,1,4,13,,,,,0,7,7,12,0,10,10,9,,,,,,,,,3,4.518744750000224,108,001,2019_Sep_05_1512,MusicAffectPsychophysiology2019,3.0.5,60.25800779674487,
To what extent did the music make you feel ,ANXIOUS ,30MonoWAV/30MonoT1.wav,2,1,4,13,,,,,0,7,7,12,0,11,11,1,,,,,,,,,1,5.751816900999984,108,001,2019_Sep_05_1512,MusicAffectPsychophysiology2019,3.0.5,60.25800779674487,
,,30MonoWAV/30MonoT1.wav,2,1,4,13,,,,,0,7,7,12,,,,,,,,,,,,,,,108,001,2019_Sep_05_1512,MusicAffectPsychophysiology2019,3.0.5,60.25800779674487,
To what extent did the music make you feel ,ANGRY,30MonoWAV/30MonoT4.wav,2,1,4,16,,,,,0,8,8,15,0,0,0,2,,,3,3.5353207429998292,4,2.9532927959999142,4,0.8356594679999034,1,1.8966161500002272,108,001,2019_Sep_05_1512,MusicAffectPsychophysiology2019,3.0.5,60.25800779674487,
To what extent did the music make you feel ,ALERT,30MonoWAV/30MonoT4.wav,2,1,4,16,,,,,0,8,8,15,0,1,1,8,,,,,,,,,2,1.369234265999694,108,001,2019_Sep_05_1512,MusicAffectPsychophysiology2019,3.0.5,60.25800779674487,
To what extent did the music make you feel ,GUILTY,30MonoWAV/30MonoT4.wav,2,1,4,16,,,,,0,8,8,15,0,2,2,5,,,,,,,,,1,1.9854720860003,108,001,2019_Sep_05_1512,MusicAffectPsychophysiology2019,3.0.5,60.25800779674487,
To what extent did the music make you feel ,ACTIVE,30MonoWAV/30MonoT4.wav,2,1,4,16,,,,,0,8,8,15,0,3,3,9,,,,,,,,,3,1.0343804049998653,108,001,2019_Sep_05_1512,MusicAffectPsychophysiology2019,3.0.5,60.25800779674487,
To what extent did the music make you feel ,SAD,30MonoWAV/30MonoT4.wav,2,1,4,16,,,,,0,8,8,15,0,4,4,0,,,,,,,,,1,5.702695549999589,108,001,2019_Sep_05_1512,MusicAffectPsychophysiology2019,3.0.5,60.25800779674487,
To what extent did the music make you feel ,EXCITED,30MonoWAV/30MonoT4.wav,2,1,4,16,,,,,0,8,8,15,0,5,5,7,,,,,,,,,3,2.6519508809997205,108,001,2019_Sep_05_1512,MusicAffectPsychophysiology2019,3.0.5,60.25800779674487,
To what extent did the music make you feel ,ANXIOUS ,30MonoWAV/30MonoT4.wav,2,1,4,16,,,,,0,8,8,15,0,6,6,1,,,,,,,,,1,1.6014564180004527,108,001,2019_Sep_05_1512,MusicAffectPsychophysiology2019,3.0.5,60.25800779674487,
To what extent did the music make you feel ,ASHAMED,30MonoWAV/30MonoT4.wav,2,1,4,16,,,,,0,8,8,15,0,7,7,4,,,,,,,,,1,0.9352556620005998,108,001,2019_Sep_05_1512,MusicAffectPsychophysiology2019,3.0.5,60.25800779674487,
To what extent did the music make you feel ,FRUSTRATED,30MonoWAV/30MonoT4.wav,2,1,4,16,,,,,0,8,8,15,0,8,8,3,,,,,,,,,1,2.9195462640000187,108,001,2019_Sep_05_1512,MusicAffectPsychophysiology2019,3.0.5,60.25800779674487,
To what extent did the music make you feel ,SCARED,30MonoWAV/30MonoT4.wav,2,1,4,16,,,,,0,8,8,15,0,9,9,11,,,,,,,,,1,0.8766794729999674,108,001,2019_Sep_05_1512,MusicAffectPsychophysiology2019,3.0.5,60.25800779674487,
To what extent did the music make you feel ,TENDER,30MonoWAV/30MonoT4.wav,2,1,4,16,,,,,0,8,8,15,0,10,10,10,,,,,,,,,3,3.6358469520000654,108,001,2019_Sep_05_1512,MusicAffectPsychophysiology2019,3.0.5,60.25800779674487,
To what extent did the music make you feel ,HAPPY,30MonoWAV/30MonoT4.wav,2,1,4,16,,,,,0,8,8,15,0,11,11,6,,,,,,,,,3,1.6519287660003101,108,001,2019_Sep_05_1512,MusicAffectPsychophysiology2019,3.0.5,60.25800779674487,
,,30MonoWAV/30MonoT4.wav,2,1,4,16,,,,,0,8,8,15,,,,,,,,,,,,,,,108,001,2019_Sep_05_1512,MusicAffectPsychophysiology2019,3.0.5,60.25800779674487,
To what extent did the music make you feel ,ALERT,30MonoWAV/30MonoS2.wav,1,1,3,10,,,,,0,9,9,9,0,0,0,8,,,1,6.000920075000067,2,1.366474926000592,2,2.7512120820001655,1,3.506404659000509,108,001,2019_Sep_05_1512,MusicAffectPsychophysiology2019,3.0.5,60.25800779674487,
To what extent did the music make you feel ,FRUSTRATED,30MonoWAV/30MonoS2.wav,1,1,3,10,,,,,0,9,9,9,0,1,1,3,,,,,,,,,1,0.703095919999214,108,001,2019_Sep_05_1512,MusicAffectPsychophysiology2019,3.0.5,60.25800779674487,
To what extent did the music make you feel ,ANXIOUS ,30MonoWAV/30MonoS2.wav,1,1,3,10,,,,,0,9,9,9,0,2,2,1,,,,,,,,,1,4.835384555000019,108,001,2019_Sep_05_1512,MusicAffectPsychophysiology2019,3.0.5,60.25800779674487,
To what extent did the music make you feel ,TENDER,30MonoWAV/30MonoS2.wav,1,1,3,10,,,,,0,9,9,9,0,3,3,10,,,,,,,,,2,3.5696739979994163,108,001,2019_Sep_05_1512,MusicAffectPsychophysiology2019,3.0.5,60.25800779674487,
To what extent did the music make you feel ,EXCITED,30MonoWAV/30MonoS2.wav,1,1,3,10,,,,,0,9,9,9,0,4,4,7,,,,,,,,,1,1.2857631890001358,108,001,2019_Sep_05_1512,MusicAffectPsychophysiology2019,3.0.5,60.25800779674487,
To what extent did the music make you feel ,HAPPY,30MonoWAV/30MonoS2.wav,1,1,3,10,,,,,0,9,9,9,0,5,5,6,,,,,,,,,1,1.0842673510005625,108,001,2019_Sep_05_1512,MusicAffectPsychophysiology2019,3.0.5,60.25800779674487,
To what extent did the music make you feel ,SAD,30MonoWAV/30MonoS2.wav,1,1,3,10,,,,,0,9,9,9,0,6,6,0,,,,,,,,,2,3.400111277999713,108,001,2019_Sep_05_1512,MusicAffectPsychophysiology2019,3.0.5,60.25800779674487,
To what extent did the music make you feel ,ASHAMED,30MonoWAV/30MonoS2.wav,1,1,3,10,,,,,0,9,9,9,0,7,7,4,,,,,,,,,2,3.6522208779997527,108,001,2019_Sep_05_1512,MusicAffectPsychophysiology2019,3.0.5,60.25800779674487,
To what extent did the music make you feel ,SCARED,30MonoWAV/30MonoS2.wav,1,1,3,10,,,,,0,9,9,9,0,8,8,11,,,,,,,,,1,1.6026781259997733,108,001,2019_Sep_05_1512,MusicAffectPsychophysiology2019,3.0.5,60.25800779674487,
To what extent did the music make you feel ,ANGRY,30MonoWAV/30MonoS2.wav,1,1,3,10,,,,,0,9,9,9,0,9,9,2,,,,,,,,,1,3.7521302260001903,108,001,2019_Sep_05_1512,MusicAffectPsychophysiology2019,3.0.5,60.25800779674487,
To what extent did the music make you feel ,ACTIVE,30MonoWAV/30MonoS2.wav,1,1,3,10,,,,,0,9,9,9,0,10,10,9,,,,,,,,,1,5.41899361600008,108,001,2019_Sep_05_1512,MusicAffectPsychophysiology2019,3.0.5,60.25800779674487,
To what extent did the music make you feel ,GUILTY,30MonoWAV/30MonoS2.wav,1,1,3,10,,,,,0,9,9,9,0,11,11,5,,,,,,,,,1,1.7331986340004732,108,001,2019_Sep_05_1512,MusicAffectPsychophysiology2019,3.0.5,60.25800779674487,
,,30MonoWAV/30MonoS2.wav,1,1,3,10,,,,,0,9,9,9,,,,,,,,,,,,,,,108,001,2019_Sep_05_1512,MusicAffectPsychophysiology2019,3.0.5,60.25800779674487,
To what extent did the music make you feel ,SCARED,30MonoWAV/30MonoT3.wav,2,1,4,15,,,,,0,10,10,14,0,0,0,11,,,2,3.70246950299952,3,3.4345732940000744,3,0.768991069000549,1,2.325101974000063,108,001,2019_Sep_05_1512,MusicAffectPsychophysiology2019,3.0.5,60.25800779674487,
To what extent did the music make you feel ,ASHAMED,30MonoWAV/30MonoT3.wav,2,1,4,15,,,,,0,10,10,14,0,1,1,4,,,,,,,,,1,1.0858837779996975,108,001,2019_Sep_05_1512,MusicAffectPsychophysiology2019,3.0.5,60.25800779674487,
To what extent did the music make you feel ,ANXIOUS ,30MonoWAV/30MonoT3.wav,2,1,4,15,,,,,0,10,10,14,0,2,2,1,,,,,,,,,1,0.8695727140002418,108,001,2019_Sep_05_1512,MusicAffectPsychophysiology2019,3.0.5,60.25800779674487,
To what extent did the music make you feel ,ALERT,30MonoWAV/30MonoT3.wav,2,1,4,15,,,,,0,10,10,14,0,3,3,8,,,,,,,,,2,1.002669915000297,108,001,2019_Sep_05_1512,MusicAffectPsychophysiology2019,3.0.5,60.25800779674487,
To what extent did the music make you feel ,HAPPY,30MonoWAV/30MonoT3.wav,2,1,4,15,,,,,0,10,10,14,0,4,4,6,,,,,,,,,3,3.568830724999316,108,001,2019_Sep_05_1512,MusicAffectPsychophysiology2019,3.0.5,60.25800779674487,
To what extent did the music make you feel ,SAD,30MonoWAV/30MonoT3.wav,2,1,4,15,,,,,0,10,10,14,0,5,5,0,,,,,,,,,1,1.8172282389996326,108,001,2019_Sep_05_1512,MusicAffectPsychophysiology2019,3.0.5,60.25800779674487,
To what extent did the music make you feel ,TENDER,30MonoWAV/30MonoT3.wav,2,1,4,15,,,,,0,10,10,14,0,6,6,10,,,,,,,,,2,3.235155985000347,108,001,2019_Sep_05_1512,MusicAffectPsychophysiology2019,3.0.5,60.25800779674487,
To what extent did the music make you feel ,ACTIVE,30MonoWAV/30MonoT3.wav,2,1,4,15,,,,,0,10,10,14,0,7,7,9,,,,,,,,,2,2.1027328340005624,108,001,2019_Sep_05_1512,MusicAffectPsychophysiology2019,3.0.5,60.25800779674487,
To what extent did the music make you feel ,GUILTY,30MonoWAV/30MonoT3.wav,2,1,4,15,,,,,0,10,10,14,0,8,8,5,,,,,,,,,1,6.234478535000562,108,001,2019_Sep_05_1512,MusicAffectPsychophysiology2019,3.0.5,60.25800779674487,
To what extent did the music make you feel ,ANGRY,30MonoWAV/30MonoT3.wav,2,1,4,15,,,,,0,10,10,14,0,9,9,2,,,,,,,,,1,0.8363421890007885,108,001,2019_Sep_05_1512,MusicAffectPsychophysiology2019,3.0.5,60.25800779674487,
To what extent did the music make you feel ,EXCITED,30MonoWAV/30MonoT3.wav,2,1,4,15,,,,,0,10,10,14,0,10,10,7,,,,,,,,,2,1.5033690529999149,108,001,2019_Sep_05_1512,MusicAffectPsychophysiology2019,3.0.5,60.25800779674487,
To what extent did the music make you feel ,FRUSTRATED,30MonoWAV/30MonoT3.wav,2,1,4,15,,,,,0,10,10,14,0,11,11,3,,,,,,,,,1,4.618918821999614,108,001,2019_Sep_05_1512,MusicAffectPsychophysiology2019,3.0.5,60.25800779674487,
,,30MonoWAV/30MonoT3.wav,2,1,4,15,,,,,0,10,10,14,,,,,,,,,,,,,,,108,001,2019_Sep_05_1512,MusicAffectPsychophysiology2019,3.0.5,60.25800779674487,
To what extent did the music make you feel ,ANGRY,30MonoWAV/30MonoF1.wav,1,2,2,1,,,,,0,11,11,0,0,0,0,2,,,3,4.984933648000151,2,2.2354417349997675,2,2.051760485000159,2,3.4964349050005694,108,001,2019_Sep_05_1512,MusicAffectPsychophysiology2019,3.0.5,60.25800779674487,
To what extent did the music make you feel ,ACTIVE,30MonoWAV/30MonoF1.wav,1,2,2,1,,,,,0,11,11,0,0,1,1,9,,,,,,,,,3,1.0861188039998524,108,001,2019_Sep_05_1512,MusicAffectPsychophysiology2019,3.0.5,60.25800779674487,
To what extent did the music make you feel ,GUILTY,30MonoWAV/30MonoF1.wav,1,2,2,1,,,,,0,11,11,0,0,2,2,5,,,,,,,,,1,1.7691466109999965,108,001,2019_Sep_05_1512,MusicAffectPsychophysiology2019,3.0.5,60.25800779674487,
To what extent did the music make you feel ,FRUSTRATED,30MonoWAV/30MonoF1.wav,1,2,2,1,,,,,0,11,11,0,0,3,3,3,,,,,,,,,2,0.8536859010000626,108,001,2019_Sep_05_1512,MusicAffectPsychophysiology2019,3.0.5,60.25800779674487,
To what extent did the music make you feel ,ASHAMED,30MonoWAV/30MonoF1.wav,1,2,2,1,,,,,0,11,11,0,0,4,4,4,,,,,,,,,1,1.000849351999932,108,001,2019_Sep_05_1512,MusicAffectPsychophysiology2019,3.0.5,60.25800779674487,
To what extent did the music make you feel ,EXCITED,30MonoWAV/30MonoF1.wav,1,2,2,1,,,,,0,11,11,0,0,5,5,7,,,,,,,,,2,1.3184638960001394,108,001,2019_Sep_05_1512,MusicAffectPsychophysiology2019,3.0.5,60.25800779674487,
To what extent did the music make you feel ,SAD,30MonoWAV/30MonoF1.wav,1,2,2,1,,,,,0,11,11,0,0,6,6,0,,,,,,,,,1,2.385737855000116,108,001,2019_Sep_05_1512,MusicAffectPsychophysiology2019,3.0.5,60.25800779674487,
To what extent did the music make you feel ,TENDER,30MonoWAV/30MonoF1.wav,1,2,2,1,,,,,0,11,11,0,0,7,7,10,,,,,,,,,1,2.6683855219998804,108,001,2019_Sep_05_1512,MusicAffectPsychophysiology2019,3.0.5,60.25800779674487,
To what extent did the music make you feel ,HAPPY,30MonoWAV/30MonoF1.wav,1,2,2,1,,,,,0,11,11,0,0,8,8,6,,,,,,,,,1,1.4678821800007427,108,001,2019_Sep_05_1512,MusicAffectPsychophysiology2019,3.0.5,60.25800779674487,
To what extent did the music make you feel ,ANXIOUS ,30MonoWAV/30MonoF1.wav,1,2,2,1,,,,,0,11,11,0,0,9,9,1,,,,,,,,,2,4.45367965800051,108,001,2019_Sep_05_1512,MusicAffectPsychophysiology2019,3.0.5,60.25800779674487,
To what extent did the music make you feel ,ALERT,30MonoWAV/30MonoF1.wav,1,2,2,1,,,,,0,11,11,0,0,10,10,8,,,,,,,,,3,1.7377460099996824,108,001,2019_Sep_05_1512,MusicAffectPsychophysiology2019,3.0.5,60.25800779674487,
To what extent did the music make you feel ,SCARED,30MonoWAV/30MonoF1.wav,1,2,2,1,,,,,0,11,11,0,0,11,11,11,,,,,,,,,2,13.40162272499947,108,001,2019_Sep_05_1512,MusicAffectPsychophysiology2019,3.0.5,60.25800779674487,
,,30MonoWAV/30MonoF1.wav,1,2,2,1,,,,,0,11,11,0,,,,,,,,,,,,,,,108,001,2019_Sep_05_1512,MusicAffectPsychophysiology2019,3.0.5,60.25800779674487,
To what extent did the music make you feel ,ALERT,30MonoWAV/30MonoF2.wav,1,2,2,2,,,,,0,12,12,1,0,0,0,8,,,3,4.652348037000593,1,2.0030759410001338,1,2.4852295030004825,3,1.5971072730008018,108,001,2019_Sep_05_1512,MusicAffectPsychophysiology2019,3.0.5,60.25800779674487,
To what extent did the music make you feel ,FRUSTRATED,30MonoWAV/30MonoF2.wav,1,2,2,2,,,,,0,12,12,1,0,1,1,3,,,,,,,,,2,1.3582056699997338,108,001,2019_Sep_05_1512,MusicAffectPsychophysiology2019,3.0.5,60.25800779674487,
To what extent did the music make you feel ,ACTIVE,30MonoWAV/30MonoF2.wav,1,2,2,2,,,,,0,12,12,1,0,2,2,9,,,,,,,,,3,2.3184740010001406,108,001,2019_Sep_05_1512,MusicAffectPsychophysiology2019,3.0.5,60.25800779674487,
To what extent did the music make you feel ,SCARED,30MonoWAV/30MonoF2.wav,1,2,2,2,,,,,0,12,12,1,0,3,3,11,,,,,,,,,4,0.9853562329999477,108,001,2019_Sep_05_1512,MusicAffectPsychophysiology2019,3.0.5,60.25800779674487,
To what extent did the music make you feel ,TENDER,30MonoWAV/30MonoF2.wav,1,2,2,2,,,,,0,12,12,1,0,4,4,10,,,,,,,,,1,5.5685318250007185,108,001,2019_Sep_05_1512,MusicAffectPsychophysiology2019,3.0.5,60.25800779674487,
To what extent did the music make you feel ,HAPPY,30MonoWAV/30MonoF2.wav,1,2,2,2,,,,,0,12,12,1,0,5,5,6,,,,,,,,,1,1.8689011429996754,108,001,2019_Sep_05_1512,MusicAffectPsychophysiology2019,3.0.5,60.25800779674487,
To what extent did the music make you feel ,SAD,30MonoWAV/30MonoF2.wav,1,2,2,2,,,,,0,12,12,1,0,6,6,0,,,,,,,,,1,1.0195259199999782,108,001,2019_Sep_05_1512,MusicAffectPsychophysiology2019,3.0.5,60.25800779674487,
To what extent did the music make you feel ,ANGRY,30MonoWAV/30MonoF2.wav,1,2,2,2,,,,,0,12,12,1,0,7,7,2,,,,,,,,,1,3.1864438190004876,108,001,2019_Sep_05_1512,MusicAffectPsychophysiology2019,3.0.5,60.25800779674487,
To what extent did the music make you feel ,GUILTY,30MonoWAV/30MonoF2.wav,1,2,2,2,,,,,0,12,12,1,0,8,8,5,,,,,,,,,1,0.8849836299996241,108,001,2019_Sep_05_1512,MusicAffectPsychophysiology2019,3.0.5,60.25800779674487,
To what extent did the music make you feel ,EXCITED,30MonoWAV/30MonoF2.wav,1,2,2,2,,,,,0,12,12,1,0,9,9,7,,,,,,,,,2,1.2518425210000714,108,001,2019_Sep_05_1512,MusicAffectPsychophysiology2019,3.0.5,60.25800779674487,
To what extent did the music make you feel ,ASHAMED,30MonoWAV/30MonoF2.wav,1,2,2,2,,,,,0,12,12,1,0,10,10,4,,,,,,,,,2,3.7019553029995222,108,001,2019_Sep_05_1512,MusicAffectPsychophysiology2019,3.0.5,60.25800779674487,
To what extent did the music make you feel ,ANXIOUS ,30MonoWAV/30MonoF2.wav,1,2,2,2,,,,,0,12,12,1,0,11,11,1,,,,,,,,,4,7.484916333999536,108,001,2019_Sep_05_1512,MusicAffectPsychophysiology2019,3.0.5,60.25800779674487,
,,30MonoWAV/30MonoF2.wav,1,2,2,2,,,,,0,12,12,1,,,,,,,,,,,,,,,108,001,2019_Sep_05_1512,MusicAffectPsychophysiology2019,3.0.5,60.25800779674487,
To what extent did the music make you feel ,TENDER,30MonoWAV/30MonoH1.wav,2,2,1,5,,,,,0,13,13,4,0,0,0,10,,,4,4.717366816999856,3,2.1171104150007523,2,2.1017870490004498,2,1.552608095999858,108,001,2019_Sep_05_1512,MusicAffectPsychophysiology2019,3.0.5,60.25800779674487,
To what extent did the music make you feel ,ACTIVE,30MonoWAV/30MonoH1.wav,2,2,1,5,,,,,0,13,13,4,0,1,1,9,,,,,,,,,2,0.6676388790001511,108,001,2019_Sep_05_1512,MusicAffectPsychophysiology2019,3.0.5,60.25800779674487,
To what extent did the music make you feel ,HAPPY,30MonoWAV/30MonoH1.wav,2,2,1,5,,,,,0,13,13,4,0,2,2,6,,,,,,,,,2,1.1825797350002176,108,001,2019_Sep_05_1512,MusicAffectPsychophysiology2019,3.0.5,60.25800779674487,
To what extent did the music make you feel ,GUILTY,30MonoWAV/30MonoH1.wav,2,2,1,5,,,,,0,13,13,4,0,3,3,5,,,,,,,,,1,1.6177602150000894,108,001,2019_Sep_05_1512,MusicAffectPsychophysiology2019,3.0.5,60.25800779674487,
To what extent did the music make you feel ,ANGRY,30MonoWAV/30MonoH1.wav,2,2,1,5,,,,,0,13,13,4,0,4,4,2,,,,,,,,,1,1.9860460130003048,108,001,2019_Sep_05_1512,MusicAffectPsychophysiology2019,3.0.5,60.25800779674487,
To what extent did the music make you feel ,ANXIOUS ,30MonoWAV/30MonoH1.wav,2,2,1,5,,,,,0,13,13,4,0,5,5,1,,,,,,,,,1,2.569085038000594,108,001,2019_Sep_05_1512,MusicAffectPsychophysiology2019,3.0.5,60.25800779674487,
To what extent did the music make you feel ,ASHAMED,30MonoWAV/30MonoH1.wav,2,2,1,5,,,,,0,13,13,4,0,6,6,4,,,,,,,,,1,0.7844832989994757,108,001,2019_Sep_05_1512,MusicAffectPsychophysiology2019,3.0.5,60.25800779674487,
To what extent did the music make you feel ,SAD,30MonoWAV/30MonoH1.wav,2,2,1,5,,,,,0,13,13,4,0,7,7,0,,,,,,,,,1,1.0360359739997875,108,001,2019_Sep_05_1512,MusicAffectPsychophysiology2019,3.0.5,60.25800779674487,
To what extent did the music make you feel ,EXCITED,30MonoWAV/30MonoH1.wav,2,2,1,5,,,,,0,13,13,4,0,8,8,7,,,,,,,,,3,1.1525352350008689,108,001,2019_Sep_05_1512,MusicAffectPsychophysiology2019,3.0.5,60.25800779674487,
To what extent did the music make you feel ,ALERT,30MonoWAV/30MonoH1.wav,2,2,1,5,,,,,0,13,13,4,0,9,9,8,,,,,,,,,3,1.453159974999835,108,001,2019_Sep_05_1512,MusicAffectPsychophysiology2019,3.0.5,60.25800779674487,
To what extent did the music make you feel ,FRUSTRATED,30MonoWAV/30MonoH1.wav,2,2,1,5,,,,,0,13,13,4,0,10,10,3,,,,,,,,,1,1.3532365010005378,108,001,2019_Sep_05_1512,MusicAffectPsychophysiology2019,3.0.5,60.25800779674487,
To what extent did the music make you feel ,SCARED,30MonoWAV/30MonoH1.wav,2,2,1,5,,,,,0,13,13,4,0,11,11,11,,,,,,,,,1,0.8021813909999764,108,001,2019_Sep_05_1512,MusicAffectPsychophysiology2019,3.0.5,60.25800779674487,
,,30MonoWAV/30MonoH1.wav,2,2,1,5,,,,,0,13,13,4,,,,,,,,,,,,,,,108,001,2019_Sep_05_1512,MusicAffectPsychophysiology2019,3.0.5,60.25800779674487,
To what extent did the music make you feel ,ALERT,30MonoWAV/30MonoH4.wav,2,2,1,8,,,,,0,14,14,7,0,0,0,8,,,3,6.136052293999455,3,1.2361121660005665,2,1.187217855000199,3,1.7862458449999394,108,001,2019_Sep_05_1512,MusicAffectPsychophysiology2019,3.0.5,60.25800779674487,
To what extent did the music make you feel ,ANXIOUS ,30MonoWAV/30MonoH4.wav,2,2,1,8,,,,,0,14,14,7,0,1,1,1,,,,,,,,,1,0.9186398910005664,108,001,2019_Sep_05_1512,MusicAffectPsychophysiology2019,3.0.5,60.25800779674487,
To what extent did the music make you feel ,HAPPY,30MonoWAV/30MonoH4.wav,2,2,1,8,,,,,0,14,14,7,0,2,2,6,,,,,,,,,2,1.2520666310001616,108,001,2019_Sep_05_1512,MusicAffectPsychophysiology2019,3.0.5,60.25800779674487,
To what extent did the music make you feel ,FRUSTRATED,30MonoWAV/30MonoH4.wav,2,2,1,8,,,,,0,14,14,7,0,3,3,3,,,,,,,,,1,0.6805089809995479,108,001,2019_Sep_05_1512,MusicAffectPsychophysiology2019,3.0.5,60.25800779674487,
To what extent did the music make you feel ,ANGRY,30MonoWAV/30MonoH4.wav,2,2,1,8,,,,,0,14,14,7,0,4,4,2,,,,,,,,,1,0.750775407999754,108,001,2019_Sep_05_1512,MusicAffectPsychophysiology2019,3.0.5,60.25800779674487,
To what extent did the music make you feel ,GUILTY,30MonoWAV/30MonoH4.wav,2,2,1,8,,,,,0,14,14,7,0,5,5,5,,,,,,,,,1,1.185865370999636,108,001,2019_Sep_05_1512,MusicAffectPsychophysiology2019,3.0.5,60.25800779674487,
To what extent did the music make you feel ,ASHAMED,30MonoWAV/30MonoH4.wav,2,2,1,8,,,,,0,14,14,7,0,6,6,4,,,,,,,,,1,0.6193355409996002,108,001,2019_Sep_05_1512,MusicAffectPsychophysiology2019,3.0.5,60.25800779674487,
To what extent did the music make you feel ,ACTIVE,30MonoWAV/30MonoH4.wav,2,2,1,8,,,,,0,14,14,7,0,7,7,9,,,,,,,,,3,1.7839325009999811,108,001,2019_Sep_05_1512,MusicAffectPsychophysiology2019,3.0.5,60.25800779674487,
To what extent did the music make you feel ,EXCITED,30MonoWAV/30MonoH4.wav,2,2,1,8,,,,,0,14,14,7,0,8,8,7,,,,,,,,,2,0.9033872820000397,108,001,2019_Sep_05_1512,MusicAffectPsychophysiology2019,3.0.5,60.25800779674487,
To what extent did the music make you feel ,SAD,30MonoWAV/30MonoH4.wav,2,2,1,8,,,,,0,14,14,7,0,9,9,0,,,,,,,,,1,0.8329302629999802,108,001,2019_Sep_05_1512,MusicAffectPsychophysiology2019,3.0.5,60.25800779674487,
To what extent did the music make you feel ,TENDER,30MonoWAV/30MonoH4.wav,2,2,1,8,,,,,0,14,14,7,0,10,10,10,,,,,,,,,2,1.0191091209999286,108,001,2019_Sep_05_1512,MusicAffectPsychophysiology2019,3.0.5,60.25800779674487,
To what extent did the music make you feel ,SCARED,30MonoWAV/30MonoH4.wav,2,2,1,8,,,,,0,14,14,7,0,11,11,11,,,,,,,,,1,1.3673433490002935,108,001,2019_Sep_05_1512,MusicAffectPsychophysiology2019,3.0.5,60.25800779674487,
,,30MonoWAV/30MonoH4.wav,2,2,1,8,,,,,0,14,14,7,,,,,,,,,,,,,,,108,001,2019_Sep_05_1512,MusicAffectPsychophysiology2019,3.0.5,60.25800779674487,
To what extent did the music make you feel ,EXCITED,30MonoWAV/30MonoH2.wav,2,2,1,6,,,,,0,15,15,5,0,0,0,7,,,3,2.2535026109999308,2,1.0667796200004886,2,0.9029724190004345,2,1.324991542999669,108,001,2019_Sep_05_1512,MusicAffectPsychophysiology2019,3.0.5,60.25800779674487,
To what extent did the music make you feel ,SCARED,30MonoWAV/30MonoH2.wav,2,2,1,6,,,,,0,15,15,5,0,1,1,11,,,,,,,,,1,0.7168156940006156,108,001,2019_Sep_05_1512,MusicAffectPsychophysiology2019,3.0.5,60.25800779674487,
To what extent did the music make you feel ,FRUSTRATED,30MonoWAV/30MonoH2.wav,2,2,1,6,,,,,0,15,15,5,0,2,2,3,,,,,,,,,1,1.3690083419996881,108,001,2019_Sep_05_1512,MusicAffectPsychophysiology2019,3.0.5,60.25800779674487,
To what extent did the music make you feel ,ANXIOUS ,30MonoWAV/30MonoH2.wav,2,2,1,6,,,,,0,15,15,5,0,3,3,1,,,,,,,,,1,1.2677589289996831,108,001,2019_Sep_05_1512,MusicAffectPsychophysiology2019,3.0.5,60.25800779674487,
To what extent did the music make you feel ,ALERT,30MonoWAV/30MonoH2.wav,2,2,1,6,,,,,0,15,15,5,0,4,4,8,,,,,,,,,3,1.3024472460001562,108,001,2019_Sep_05_1512,MusicAffectPsychophysiology2019,3.0.5,60.25800779674487,
To what extent did the music make you feel ,ASHAMED,30MonoWAV/30MonoH2.wav,2,2,1,6,,,,,0,15,15,5,0,5,5,4,,,,,,,,,1,1.519570419000047,108,001,2019_Sep_05_1512,MusicAffectPsychophysiology2019,3.0.5,60.25800779674487,
To what extent did the music make you feel ,TENDER,30MonoWAV/30MonoH2.wav,2,2,1,6,,,,,0,15,15,5,0,6,6,10,,,,,,,,,2,1.9526664670001992,108,001,2019_Sep_05_1512,MusicAffectPsychophysiology2019,3.0.5,60.25800779674487,
To what extent did the music make you feel ,ANGRY,30MonoWAV/30MonoH2.wav,2,2,1,6,,,,,0,15,15,5,0,7,7,2,,,,,,,,,1,0.7173661400001947,108,001,2019_Sep_05_1512,MusicAffectPsychophysiology2019,3.0.5,60.25800779674487,
To what extent did the music make you feel ,GUILTY,30MonoWAV/30MonoH2.wav,2,2,1,6,,,,,0,15,15,5,0,8,8,5,,,,,,,,,1,1.0691276560000915,108,001,2019_Sep_05_1512,MusicAffectPsychophysiology2019,3.0.5,60.25800779674487,
To what extent did the music make you feel ,ACTIVE,30MonoWAV/30MonoH2.wav,2,2,1,6,,,,,0,15,15,5,0,9,9,9,,,,,,,,,3,0.9530548080001608,108,001,2019_Sep_05_1512,MusicAffectPsychophysiology2019,3.0.5,60.25800779674487,
To what extent did the music make you feel ,SAD,30MonoWAV/30MonoH2.wav,2,2,1,6,,,,,0,15,15,5,0,10,10,0,,,,,,,,,1,0.8689774899994518,108,001,2019_Sep_05_1512,MusicAffectPsychophysiology2019,3.0.5,60.25800779674487,
To what extent did the music make you feel ,HAPPY,30MonoWAV/30MonoH2.wav,2,2,1,6,,,,,0,15,15,5,0,11,11,6,,,,,,,,,2,1.2201036740007112,108,001,2019_Sep_05_1512,MusicAffectPsychophysiology2019,3.0.5,60.25800779674487,
,,30MonoWAV/30MonoH2.wav,2,2,1,6,,,,,0,15,15,5,,,,,,,,,,,,,,,108,001,2019_Sep_05_1512,MusicAffectPsychophysiology2019,3.0.5,60.25800779674487,
To what extent did the music make you feel ,GUILTY,30MonoWAV/30MonoS4.wav,1,1,3,12,,,,,1,0,16,11,0,0,0,5,,,3,3.7519341649995113,3,1.324116597000284,3,1.813509526999951,2,2.3620446019995143,108,001,2019_Sep_05_1512,MusicAffectPsychophysiology2019,3.0.5,60.25800779674487,
To what extent did the music make you feel ,ANGRY,30MonoWAV/30MonoS4.wav,1,1,3,12,,,,,1,0,16,11,0,1,1,2,,,,,,,,,1,0.7523320580003201,108,001,2019_Sep_05_1512,MusicAffectPsychophysiology2019,3.0.5,60.25800779674487,
To what extent did the music make you feel ,SCARED,30MonoWAV/30MonoS4.wav,1,1,3,12,,,,,1,0,16,11,0,2,2,11,,,,,,,,,2,2.9011281929997494,108,001,2019_Sep_05_1512,MusicAffectPsychophysiology2019,3.0.5,60.25800779674487,
To what extent did the music make you feel ,HAPPY,30MonoWAV/30MonoS4.wav,1,1,3,12,,,,,1,0,16,11,0,3,3,6,,,,,,,,,2,1.5198569740005041,108,001,2019_Sep_05_1512,MusicAffectPsychophysiology2019,3.0.5,60.25800779674487,
To what extent did the music make you feel ,ALERT,30MonoWAV/30MonoS4.wav,1,1,3,12,,,,,1,0,16,11,0,4,4,8,,,,,,,,,2,1.7196646200000032,108,001,2019_Sep_05_1512,MusicAffectPsychophysiology2019,3.0.5,60.25800779674487,
To what extent did the music make you feel ,ANXIOUS ,30MonoWAV/30MonoS4.wav,1,1,3,12,,,,,1,0,16,11,0,5,5,1,,,,,,,,,1,2.0358501770006114,108,001,2019_Sep_05_1512,MusicAffectPsychophysiology2019,3.0.5,60.25800779674487,
To what extent did the music make you feel ,EXCITED,30MonoWAV/30MonoS4.wav,1,1,3,12,,,,,1,0,16,11,0,6,6,7,,,,,,,,,2,1.8846241499995813,108,001,2019_Sep_05_1512,MusicAffectPsychophysiology2019,3.0.5,60.25800779674487,
To what extent did the music make you feel ,ACTIVE,30MonoWAV/30MonoS4.wav,1,1,3,12,,,,,1,0,16,11,0,7,7,9,,,,,,,,,2,2.1683597470000677,108,001,2019_Sep_05_1512,MusicAffectPsychophysiology2019,3.0.5,60.25800779674487,
To what extent did the music make you feel ,FRUSTRATED,30MonoWAV/30MonoS4.wav,1,1,3,12,,,,,1,0,16,11,0,8,8,3,,,,,,,,,1,1.6168152379996172,108,001,2019_Sep_05_1512,MusicAffectPsychophysiology2019,3.0.5,60.25800779674487,
To what extent did the music make you feel ,ASHAMED,30MonoWAV/30MonoS4.wav,1,1,3,12,,,,,1,0,16,11,0,9,9,4,,,,,,,,,1,0.7168553820001762,108,001,2019_Sep_05_1512,MusicAffectPsychophysiology2019,3.0.5,60.25800779674487,
To what extent did the music make you feel ,TENDER,30MonoWAV/30MonoS4.wav,1,1,3,12,,,,,1,0,16,11,0,10,10,10,,,,,,,,,2,6.2002773549993435,108,001,2019_Sep_05_1512,MusicAffectPsychophysiology2019,3.0.5,60.25800779674487,
To what extent did the music make you feel ,SAD,30MonoWAV/30MonoS4.wav,1,1,3,12,,,,,1,0,16,11,0,11,11,0,,,,,,,,,2,2.234989173000031,108,001,2019_Sep_05_1512,MusicAffectPsychophysiology2019,3.0.5,60.25800779674487,
,,30MonoWAV/30MonoS4.wav,1,1,3,12,,,,,1,0,16,11,,,,,,,,,,,,,,,108,001,2019_Sep_05_1512,MusicAffectPsychophysiology2019,3.0.5,60.25800779674487,
To what extent did the music make you feel ,TENDER,30MonoWAV/30MonoT3.wav,2,1,4,15,,,,,1,1,17,14,0,0,0,10,,,2,2.7691797899997255,2,1.2999578310000288,2,1.1866625459997522,2,3.692985829999998,108,001,2019_Sep_05_1512,MusicAffectPsychophysiology2019,3.0.5,60.25800779674487,
To what extent did the music make you feel ,ANGRY,30MonoWAV/30MonoT3.wav,2,1,4,15,,,,,1,1,17,14,0,1,1,2,,,,,,,,,1,1.286274477999541,108,001,2019_Sep_05_1512,MusicAffectPsychophysiology2019,3.0.5,60.25800779674487,
To what extent did the music make you feel ,FRUSTRATED,30MonoWAV/30MonoT3.wav,2,1,4,15,,,,,1,1,17,14,0,2,2,3,,,,,,,,,1,0.6867615790006312,108,001,2019_Sep_05_1512,MusicAffectPsychophysiology2019,3.0.5,60.25800779674487,
To what extent did the music make you feel ,ACTIVE,30MonoWAV/30MonoT3.wav,2,1,4,15,,,,,1,1,17,14,0,3,3,9,,,,,,,,,3,3.235881509000137,108,001,2019_Sep_05_1512,MusicAffectPsychophysiology2019,3.0.5,60.25800779674487,
To what extent did the music make you feel ,HAPPY,30MonoWAV/30MonoT3.wav,2,1,4,15,,,,,1,1,17,14,0,4,4,6,,,,,,,,,2,2.0859987559997535,108,001,2019_Sep_05_1512,MusicAffectPsychophysiology2019,3.0.5,60.25800779674487,
To what extent did the music make you feel ,ANXIOUS ,30MonoWAV/30MonoT3.wav,2,1,4,15,,,,,1,1,17,14,0,5,5,1,,,,,,,,,2,2.235426990000633,108,001,2019_Sep_05_1512,MusicAffectPsychophysiology2019,3.0.5,60.25800779674487,
To what extent did the music make you feel ,EXCITED,30MonoWAV/30MonoT3.wav,2,1,4,15,,,,,1,1,17,14,0,6,6,7,,,,,,,,,2,1.15160703499987,108,001,2019_Sep_05_1512,MusicAffectPsychophysiology2019,3.0.5,60.25800779674487,
To what extent did the music make you feel ,SAD,30MonoWAV/30MonoT3.wav,2,1,4,15,,,,,1,1,17,14,0,7,7,0,,,,,,,,,1,0.7357659039998907,108,001,2019_Sep_05_1512,MusicAffectPsychophysiology2019,3.0.5,60.25800779674487,
To what extent did the music make you feel ,ALERT,30MonoWAV/30MonoT3.wav,2,1,4,15,,,,,1,1,17,14,0,8,8,8,,,,,,,,,2,1.5838865059995442,108,001,2019_Sep_05_1512,MusicAffectPsychophysiology2019,3.0.5,60.25800779674487,
To what extent did the music make you feel ,SCARED,30MonoWAV/30MonoT3.wav,2,1,4,15,,,,,1,1,17,14,0,9,9,11,,,,,,,,,1,0.8518381690000751,108,001,2019_Sep_05_1512,MusicAffectPsychophysiology2019,3.0.5,60.25800779674487,
To what extent did the music make you feel ,ASHAMED,30MonoWAV/30MonoT3.wav,2,1,4,15,,,,,1,1,17,14,0,10,10,4,,,,,,,,,1,1.346286457000133,108,001,2019_Sep_05_1512,MusicAffectPsychophysiology2019,3.0.5,60.25800779674487,
To what extent did the music make you feel ,GUILTY,30MonoWAV/30MonoT3.wav,2,1,4,15,,,,,1,1,17,14,0,11,11,5,,,,,,,,,1,0.8918304280005032,108,001,2019_Sep_05_1512,MusicAffectPsychophysiology2019,3.0.5,60.25800779674487,
,,30MonoWAV/30MonoT3.wav,2,1,4,15,,,,,1,1,17,14,,,,,,,,,,,,,,,108,001,2019_Sep_05_1512,MusicAffectPsychophysiology2019,3.0.5,60.25800779674487,
To what extent did the music make you feel ,SCARED,30MonoWAV/30MonoT4.wav,2,1,4,16,,,,,1,2,18,15,0,0,0,11,,,2,3.385274383000251,3,5.901986889,3,1.202916352000102,1,1.853500823000104,108,001,2019_Sep_05_1512,MusicAffectPsychophysiology2019,3.0.5,60.25800779674487,
To what extent did the music make you feel ,EXCITED,30MonoWAV/30MonoT4.wav,2,1,4,16,,,,,1,2,18,15,0,1,1,7,,,,,,,,,2,1.0361815030000798,108,001,2019_Sep_05_1512,MusicAffectPsychophysiology2019,3.0.5,60.25800779674487,
To what extent did the music make you feel ,ACTIVE,30MonoWAV/30MonoT4.wav,2,1,4,16,,,,,1,2,18,15,0,2,2,9,,,,,,,,,3,1.3526235119998091,108,001,2019_Sep_05_1512,MusicAffectPsychophysiology2019,3.0.5,60.25800779674487,
To what extent did the music make you feel ,ALERT,30MonoWAV/30MonoT4.wav,2,1,4,16,,,,,1,2,18,15,0,3,3,8,,,,,,,,,2,0.9356653330005429,108,001,2019_Sep_05_1512,MusicAffectPsychophysiology2019,3.0.5,60.25800779674487,
To what extent did the music make you feel ,ANXIOUS ,30MonoWAV/30MonoT4.wav,2,1,4,16,,,,,1,2,18,15,0,4,4,1,,,,,,,,,1,1.0856074820003414,108,001,2019_Sep_05_1512,MusicAffectPsychophysiology2019,3.0.5,60.25800779674487,
To what extent did the music make you feel ,TENDER,30MonoWAV/30MonoT4.wav,2,1,4,16,,,,,1,2,18,15,0,5,5,10,,,,,,,,,3,0.9034567569997307,108,001,2019_Sep_05_1512,MusicAffectPsychophysiology2019,3.0.5,60.25800779674487,
To what extent did the music make you feel ,HAPPY,30MonoWAV/30MonoT4.wav,2,1,4,16,,,,,1,2,18,15,0,6,6,6,,,,,,,,,2,0.9515553239998553,108,001,2019_Sep_05_1512,MusicAffectPsychophysiology2019,3.0.5,60.25800779674487,
To what extent did the music make you feel ,GUILTY,30MonoWAV/30MonoT4.wav,2,1,4,16,,,,,1,2,18,15,0,7,7,5,,,,,,,,,1,1.435801292999713,108,001,2019_Sep_05_1512,MusicAffectPsychophysiology2019,3.0.5,60.25800779674487,
To what extent did the music make you feel ,ASHAMED,30MonoWAV/30MonoT4.wav,2,1,4,16,,,,,1,2,18,15,0,8,8,4,,,,,,,,,1,0.7843137999998362,108,001,2019_Sep_05_1512,MusicAffectPsychophysiology2019,3.0.5,60.25800779674487,
To what extent did the music make you feel ,SAD,30MonoWAV/30MonoT4.wav,2,1,4,16,,,,,1,2,18,15,0,9,9,0,,,,,,,,,1,3.2853605099999186,108,001,2019_Sep_05_1512,MusicAffectPsychophysiology2019,3.0.5,60.25800779674487,
To what extent did the music make you feel ,FRUSTRATED,30MonoWAV/30MonoT4.wav,2,1,4,16,,,,,1,2,18,15,0,10,10,3,,,,,,,,,1,0.6863572859992928,108,001,2019_Sep_05_1512,MusicAffectPsychophysiology2019,3.0.5,60.25800779674487,
To what extent did the music make you feel ,ANGRY,30MonoWAV/30MonoT4.wav,2,1,4,16,,,,,1,2,18,15,0,11,11,2,,,,,,,,,1,0.6679581150001468,108,001,2019_Sep_05_1512,MusicAffectPsychophysiology2019,3.0.5,60.25800779674487,
,,30MonoWAV/30MonoT4.wav,2,1,4,16,,,,,1,2,18,15,,,,,,,,,,,,,,,108,001,2019_Sep_05_1512,MusicAffectPsychophysiology2019,3.0.5,60.25800779674487,
To what extent did the music make you feel ,ANGRY,30MonoWAV/30MonoT1.wav,2,1,4,13,,,,,1,3,19,12,0,0,0,2,,,2,2.8527581880007347,2,1.5015624200004822,2,1.283602712001084,1,1.2025249889993574,108,001,2019_Sep_05_1512,MusicAffectPsychophysiology2019,3.0.5,60.25800779674487,
To what extent did the music make you feel ,SAD,30MonoWAV/30MonoT1.wav,2,1,4,13,,,,,1,3,19,12,0,1,1,0,,,,,,,,,1,2.7853999309991195,108,001,2019_Sep_05_1512,MusicAffectPsychophysiology2019,3.0.5,60.25800779674487,
To what extent did the music make you feel ,GUILTY,30MonoWAV/30MonoT1.wav,2,1,4,13,,,,,1,3,19,12,0,2,2,5,,,,,,,,,1,3.3026796800004377,108,001,2019_Sep_05_1512,MusicAffectPsychophysiology2019,3.0.5,60.25800779674487,
To what extent did the music make you feel ,ASHAMED,30MonoWAV/30MonoT1.wav,2,1,4,13,,,,,1,3,19,12,0,3,3,4,,,,,,,,,1,0.6666757200000575,108,001,2019_Sep_05_1512,MusicAffectPsychophysiology2019,3.0.5,60.25800779674487,
To what extent did the music make you feel ,ALERT,30MonoWAV/30MonoT1.wav,2,1,4,13,,,,,1,3,19,12,0,4,4,8,,,,,,,,,1,1.1827340370000456,108,001,2019_Sep_05_1512,MusicAffectPsychophysiology2019,3.0.5,60.25800779674487,
To what extent did the music make you feel ,EXCITED,30MonoWAV/30MonoT1.wav,2,1,4,13,,,,,1,3,19,12,0,5,5,7,,,,,,,,,2,1.1038928649995796,108,001,2019_Sep_05_1512,MusicAffectPsychophysiology2019,3.0.5,60.25800779674487,
To what extent did the music make you feel ,FRUSTRATED,30MonoWAV/30MonoT1.wav,2,1,4,13,,,,,1,3,19,12,0,6,6,3,,,,,,,,,2,2.186365173000013,108,001,2019_Sep_05_1512,MusicAffectPsychophysiology2019,3.0.5,60.25800779674487,
To what extent did the music make you feel ,ANXIOUS ,30MonoWAV/30MonoT1.wav,2,1,4,13,,,,,1,3,19,12,0,7,7,1,,,,,,,,,1,6.769070965998253,108,001,2019_Sep_05_1512,MusicAffectPsychophysiology2019,3.0.5,60.25800779674487,
To what extent did the music make you feel ,ACTIVE,30MonoWAV/30MonoT1.wav,2,1,4,13,,,,,1,3,19,12,0,8,8,9,,,,,,,,,1,1.4027086309997685,108,001,2019_Sep_05_1512,MusicAffectPsychophysiology2019,3.0.5,60.25800779674487,
To what extent did the music make you feel ,HAPPY,30MonoWAV/30MonoT1.wav,2,1,4,13,,,,,1,3,19,12,0,9,9,6,,,,,,,,,1,1.866131292999853,108,001,2019_Sep_05_1512,MusicAffectPsychophysiology2019,3.0.5,60.25800779674487,
To what extent did the music make you feel ,SCARED,30MonoWAV/30MonoT1.wav,2,1,4,13,,,,,1,3,19,12,0,10,10,11,,,,,,,,,1,2.8682091339996987,108,001,2019_Sep_05_1512,MusicAffectPsychophysiology2019,3.0.5,60.25800779674487,
To what extent did the music make you feel ,TENDER,30MonoWAV/30MonoT1.wav,2,1,4,13,,,,,1,3,19,12,0,11,11,10,,,,,,,,,2,0.9687123680014338,108,001,2019_Sep_05_1512,MusicAffectPsychophysiology2019,3.0.5,60.25800779674487,
,,30MonoWAV/30MonoT1.wav,2,1,4,13,,,,,1,3,19,12,,,,,,,,,,,,,,,108,001,2019_Sep_05_1512,MusicAffectPsychophysiology2019,3.0.5,60.25800779674487,
To what extent did the music make you feel ,ACTIVE,30MonoWAV/30MonoF1.wav,1,2,2,1,,,,,1,4,20,0,0,0,0,9,,,3,4.534371838999505,2,1.2852074389993504,1,3.050883812000393,3,2.6016415809990576,108,001,2019_Sep_05_1512,MusicAffectPsychophysiology2019,3.0.5,60.25800779674487,
To what extent did the music make you feel ,SAD,30MonoWAV/30MonoF1.wav,1,2,2,1,,,,,1,4,20,0,0,1,1,0,,,,,,,,,1,1.2355782850008836,108,001,2019_Sep_05_1512,MusicAffectPsychophysiology2019,3.0.5,60.25800779674487,
To what extent did the music make you feel ,HAPPY,30MonoWAV/30MonoF1.wav,1,2,2,1,,,,,1,4,20,0,0,2,2,6,,,,,,,,,1,1.302522638001392,108,001,2019_Sep_05_1512,MusicAffectPsychophysiology2019,3.0.5,60.25800779674487,
To what extent did the music make you feel ,GUILTY,30MonoWAV/30MonoF1.wav,1,2,2,1,,,,,1,4,20,0,0,3,3,5,,,,,,,,,1,0.7338624189997063,108,001,2019_Sep_05_1512,MusicAffectPsychophysiology2019,3.0.5,60.25800779674487,
To what extent did the music make you feel ,SCARED,30MonoWAV/30MonoF1.wav,1,2,2,1,,,,,1,4,20,0,0,4,4,11,,,,,,,,,1,0.7521449369996844,108,001,2019_Sep_05_1512,MusicAffectPsychophysiology2019,3.0.5,60.25800779674487,
To what extent did the music make you feel ,FRUSTRATED,30MonoWAV/30MonoF1.wav,1,2,2,1,,,,,1,4,20,0,0,5,5,3,,,,,,,,,2,1.2526484509999136,108,001,2019_Sep_05_1512,MusicAffectPsychophysiology2019,3.0.5,60.25800779674487,
To what extent did the music make you feel ,EXCITED,30MonoWAV/30MonoF1.wav,1,2,2,1,,,,,1,4,20,0,0,6,6,7,,,,,,,,,1,2.5359875390004163,108,001,2019_Sep_05_1512,MusicAffectPsychophysiology2019,3.0.5,60.25800779674487,
To what extent did the music make you feel ,ANGRY,30MonoWAV/30MonoF1.wav,1,2,2,1,,,,,1,4,20,0,0,7,7,2,,,,,,,,,2,3.5194070170000487,108,001,2019_Sep_05_1512,MusicAffectPsychophysiology2019,3.0.5,60.25800779674487,
To what extent did the music make you feel ,TENDER,30MonoWAV/30MonoF1.wav,1,2,2,1,,,,,1,4,20,0,0,8,8,10,,,,,,,,,1,2.9367807550006546,108,001,2019_Sep_05_1512,MusicAffectPsychophysiology2019,3.0.5,60.25800779674487,
To what extent did the music make you feel ,ASHAMED,30MonoWAV/30MonoF1.wav,1,2,2,1,,,,,1,4,20,0,0,9,9,4,,,,,,,,,1,1.0675438510006643,108,001,2019_Sep_05_1512,MusicAffectPsychophysiology2019,3.0.5,60.25800779674487,
To what extent did the music make you feel ,ALERT,30MonoWAV/30MonoF1.wav,1,2,2,1,,,,,1,4,20,0,0,10,10,8,,,,,,,,,2,1.3536830089997238,108,001,2019_Sep_05_1512,MusicAffectPsychophysiology2019,3.0.5,60.25800779674487,
To what extent did the music make you feel ,ANXIOUS ,30MonoWAV/30MonoF1.wav,1,2,2,1,,,,,1,4,20,0,0,11,11,1,,,,,,,,,1,0.802742362000572,108,001,2019_Sep_05_1512,MusicAffectPsychophysiology2019,3.0.5,60.25800779674487,
,,30MonoWAV/30MonoF1.wav,1,2,2,1,,,,,1,4,20,0,,,,,,,,,,,,,,,108,001,2019_Sep_05_1512,MusicAffectPsychophysiology2019,3.0.5,60.25800779674487,
To what extent did the music make you feel ,FRUSTRATED,30MonoWAV/30MonoH4.wav,2,2,1,8,,,,,1,5,21,7,0,0,0,3,,,3,3.4515897070014034,3,2.334788360998573,2,2.667560504998619,1,2.2354169940008433,108,001,2019_Sep_05_1512,MusicAffectPsychophysiology2019,3.0.5,60.25800779674487,
To what extent did the music make you feel ,ANXIOUS ,30MonoWAV/30MonoH4.wav,2,2,1,8,,,,,1,5,21,7,0,1,1,1,,,,,,,,,1,5.085387400999025,108,001,2019_Sep_05_1512,MusicAffectPsychophysiology2019,3.0.5,60.25800779674487,
To what extent did the music make you feel ,EXCITED,30MonoWAV/30MonoH4.wav,2,2,1,8,,,,,1,5,21,7,0,2,2,7,,,,,,,,,2,7.7681778139995,108,001,2019_Sep_05_1512,MusicAffectPsychophysiology2019,3.0.5,60.25800779674487,
To what extent did the music make you feel ,SAD,30MonoWAV/30MonoH4.wav,2,2,1,8,,,,,1,5,21,7,0,3,3,0,,,,,,,,,1,0.7352324160001444,108,001,2019_Sep_05_1512,MusicAffectPsychophysiology2019,3.0.5,60.25800779674487,
To what extent did the music make you feel ,ASHAMED,30MonoWAV/30MonoH4.wav,2,2,1,8,,,,,1,5,21,7,0,4,4,4,,,,,,,,,1,1.4841917529993225,108,001,2019_Sep_05_1512,MusicAffectPsychophysiology2019,3.0.5,60.25800779674487,
To what extent did the music make you feel ,GUILTY,30MonoWAV/30MonoH4.wav,2,2,1,8,,,,,1,5,21,7,0,5,5,5,,,,,,,,,1,0.652437087999715,108,001,2019_Sep_05_1512,MusicAffectPsychophysiology2019,3.0.5,60.25800779674487,
To what extent did the music make you feel ,ANGRY,30MonoWAV/30MonoH4.wav,2,2,1,8,,,,,1,5,21,7,0,6,6,2,,,,,,,,,1,0.9851998619997175,108,001,2019_Sep_05_1512,MusicAffectPsychophysiology2019,3.0.5,60.25800779674487,
To what extent did the music make you feel ,TENDER,30MonoWAV/30MonoH4.wav,2,2,1,8,,,,,1,5,21,7,0,7,7,10,,,,,,,,,2,1.7519830339988403,108,001,2019_Sep_05_1512,MusicAffectPsychophysiology2019,3.0.5,60.25800779674487,
To what extent did the music make you feel ,ACTIVE,30MonoWAV/30MonoH4.wav,2,2,1,8,,,,,1,5,21,7,0,8,8,9,,,,,,,,,3,1.9852267119986209,108,001,2019_Sep_05_1512,MusicAffectPsychophysiology2019,3.0.5,60.25800779674487,
To what extent did the music make you feel ,SCARED,30MonoWAV/30MonoH4.wav,2,2,1,8,,,,,1,5,21,7,0,9,9,11,,,,,,,,,1,1.635106669000379,108,001,2019_Sep_05_1512,MusicAffectPsychophysiology2019,3.0.5,60.25800779674487,
To what extent did the music make you feel ,ALERT,30MonoWAV/30MonoH4.wav,2,2,1,8,,,,,1,5,21,7,0,10,10,8,,,,,,,,,2,1.1362990519992309,108,001,2019_Sep_05_1512,MusicAffectPsychophysiology2019,3.0.5,60.25800779674487,
To what extent did the music make you feel ,HAPPY,30MonoWAV/30MonoH4.wav,2,2,1,8,,,,,1,5,21,7,0,11,11,6,,,,,,,,,2,1.3361129050008458,108,001,2019_Sep_05_1512,MusicAffectPsychophysiology2019,3.0.5,60.25800779674487,
,,30MonoWAV/30MonoH4.wav,2,2,1,8,,,,,1,5,21,7,,,,,,,,,,,,,,,108,001,2019_Sep_05_1512,MusicAffectPsychophysiology2019,3.0.5,60.25800779674487,
To what extent did the music make you feel ,ANGRY,30MonoWAV/30MonoF3.wav,1,2,2,3,,,,,1,6,22,2,0,0,0,2,,,3,2.7359138209994853,1,3.949333584998385,1,1.502707494999413,1,2.0877181710002333,108,001,2019_Sep_05_1512,MusicAffectPsychophysiology2019,3.0.5,60.25800779674487,
To what extent did the music make you feel ,HAPPY,30MonoWAV/30MonoF3.wav,1,2,2,3,,,,,1,6,22,2,0,1,1,6,,,,,,,,,1,2.3855891290004365,108,001,2019_Sep_05_1512,MusicAffectPsychophysiology2019,3.0.5,60.25800779674487,
To what extent did the music make you feel ,ACTIVE,30MonoWAV/30MonoF3.wav,1,2,2,3,,,,,1,6,22,2,0,2,2,9,,,,,,,,,3,1.0699679469998955,108,001,2019_Sep_05_1512,MusicAffectPsychophysiology2019,3.0.5,60.25800779674487,
To what extent did the music make you feel ,GUILTY,30MonoWAV/30MonoF3.wav,1,2,2,3,,,,,1,6,22,2,0,3,3,5,,,,,,,,,1,0.7188834199987468,108,001,2019_Sep_05_1512,MusicAffectPsychophysiology2019,3.0.5,60.25800779674487,
To what extent did the music make you feel ,EXCITED,30MonoWAV/30MonoF3.wav,1,2,2,3,,,,,1,6,22,2,0,4,4,7,,,,,,,,,1,1.768709336000029,108,001,2019_Sep_05_1512,MusicAffectPsychophysiology2019,3.0.5,60.25800779674487,
To what extent did the music make you feel ,SCARED,30MonoWAV/30MonoF3.wav,1,2,2,3,,,,,1,6,22,2,0,5,5,11,,,,,,,,,2,1.4852694580004027,108,001,2019_Sep_05_1512,MusicAffectPsychophysiology2019,3.0.5,60.25800779674487,
To what extent did the music make you feel ,ALERT,30MonoWAV/30MonoF3.wav,1,2,2,3,,,,,1,6,22,2,0,6,6,8,,,,,,,,,3,1.1198757990005106,108,001,2019_Sep_05_1512,MusicAffectPsychophysiology2019,3.0.5,60.25800779674487,
To what extent did the music make you feel ,SAD,30MonoWAV/30MonoF3.wav,1,2,2,3,,,,,1,6,22,2,0,7,7,0,,,,,,,,,1,1.0023993070008146,108,001,2019_Sep_05_1512,MusicAffectPsychophysiology2019,3.0.5,60.25800779674487,
To what extent did the music make you feel ,TENDER,30MonoWAV/30MonoF3.wav,1,2,2,3,,,,,1,6,22,2,0,8,8,10,,,,,,,,,1,1.220055510999373,108,001,2019_Sep_05_1512,MusicAffectPsychophysiology2019,3.0.5,60.25800779674487,
To what extent did the music make you feel ,FRUSTRATED,30MonoWAV/30MonoF3.wav,1,2,2,3,,,,,1,6,22,2,0,9,9,3,,,,,,,,,1,1.9522787570003857,108,001,2019_Sep_05_1512,MusicAffectPsychophysiology2019,3.0.5,60.25800779674487,
To what extent did the music make you feel ,ANXIOUS ,30MonoWAV/30MonoF3.wav,1,2,2,3,,,,,1,6,22,2,0,10,10,1,,,,,,,,,3,1.2519828810000035,108,001,2019_Sep_05_1512,MusicAffectPsychophysiology2019,3.0.5,60.25800779674487,
To what extent did the music make you feel ,ASHAMED,30MonoWAV/30MonoF3.wav,1,2,2,3,,,,,1,6,22,2,0,11,11,4,,,,,,,,,1,1.813014300998475,108,001,2019_Sep_05_1512,MusicAffectPsychophysiology2019,3.0.5,60.25800779674487,
,,30MonoWAV/30MonoF3.wav,1,2,2,3,,,,,1,6,22,2,,,,,,,,,,,,,,,108,001,2019_Sep_05_1512,MusicAffectPsychophysiology2019,3.0.5,60.25800779674487,
To what extent did the music make you feel ,EXCITED,30MonoWAV/30MonoF4.wav,1,2,2,4,,,,,1,7,23,3,0,0,0,7,,,2,2.519040119001147,1,2.417173134999757,1,1.603146695999385,2,1.4788441279997642,108,001,2019_Sep_05_1512,MusicAffectPsychophysiology2019,3.0.5,60.25800779674487,
To what extent did the music make you feel ,HAPPY,30MonoWAV/30MonoF4.wav,1,2,2,4,,,,,1,7,23,3,0,1,1,6,,,,,,,,,1,1.3172880919992167,108,001,2019_Sep_05_1512,MusicAffectPsychophysiology2019,3.0.5,60.25800779674487,
To what extent did the music make you feel ,SAD,30MonoWAV/30MonoF4.wav,1,2,2,4,,,,,1,7,23,3,0,2,2,0,,,,,,,,,1,1.0696451010007877,108,001,2019_Sep_05_1512,MusicAffectPsychophysiology2019,3.0.5,60.25800779674487,
To what extent did the music make you feel ,SCARED,30MonoWAV/30MonoF4.wav,1,2,2,4,,,,,1,7,23,3,0,3,3,11,,,,,,,,,1,0.9859892839995155,108,001,2019_Sep_05_1512,MusicAffectPsychophysiology2019,3.0.5,60.25800779674487,
To what extent did the music make you feel ,ANXIOUS ,30MonoWAV/30MonoF4.wav,1,2,2,4,,,,,1,7,23,3,0,4,4,1,,,,,,,,,2,1.8358251839999866,108,001,2019_Sep_05_1512,MusicAffectPsychophysiology2019,3.0.5,60.25800779674487,
To what extent did the music make you feel ,ASHAMED,30MonoWAV/30MonoF4.wav,1,2,2,4,,,,,1,7,23,3,0,5,5,4,,,,,,,,,1,2.502357071000006,108,001,2019_Sep_05_1512,MusicAffectPsychophysiology2019,3.0.5,60.25800779674487,
To what extent did the music make you feel ,FRUSTRATED,30MonoWAV/30MonoF4.wav,1,2,2,4,,,,,1,7,23,3,0,6,6,3,,,,,,,,,1,1.6022722460002115,108,001,2019_Sep_05_1512,MusicAffectPsychophysiology2019,3.0.5,60.25800779674487,
To what extent did the music make you feel ,ANGRY,30MonoWAV/30MonoF4.wav,1,2,2,4,,,,,1,7,23,3,0,7,7,2,,,,,,,,,1,1.2843141789999208,108,001,2019_Sep_05_1512,MusicAffectPsychophysiology2019,3.0.5,60.25800779674487,
To what extent did the music make you feel ,ACTIVE,30MonoWAV/30MonoF4.wav,1,2,2,4,,,,,1,7,23,3,0,8,8,9,,,,,,,,,2,1.103293473001031,108,001,2019_Sep_05_1512,MusicAffectPsychophysiology2019,3.0.5,60.25800779674487,
To what extent did the music make you feel ,TENDER,30MonoWAV/30MonoF4.wav,1,2,2,4,,,,,1,7,23,3,0,9,9,10,,,,,,,,,1,1.0352454309995665,108,001,2019_Sep_05_1512,MusicAffectPsychophysiology2019,3.0.5,60.25800779674487,
To what extent did the music make you feel ,GUILTY,30MonoWAV/30MonoF4.wav,1,2,2,4,,,,,1,7,23,3,0,10,10,5,,,,,,,,,1,1.086045934998765,108,001,2019_Sep_05_1512,MusicAffectPsychophysiology2019,3.0.5,60.25800779674487,
To what extent did the music make you feel ,ALERT,30MonoWAV/30MonoF4.wav,1,2,2,4,,,,,1,7,23,3,0,11,11,8,,,,,,,,,3,2.1039947609988303,108,001,2019_Sep_05_1512,MusicAffectPsychophysiology2019,3.0.5,60.25800779674487,
,,30MonoWAV/30MonoF4.wav,1,2,2,4,,,,,1,7,23,3,,,,,,,,,,,,,,,108,001,2019_Sep_05_1512,MusicAffectPsychophysiology2019,3.0.5,60.25800779674487,
To what extent did the music make you feel ,ACTIVE,30MonoWAV/30MonoS1.wav,1,1,3,9,,,,,1,8,24,8,0,0,0,9,,,2,9.953065911999147,3,1.352663109999412,3,1.335587764999218,2,3.3252312800013897,108,001,2019_Sep_05_1512,MusicAffectPsychophysiology2019,3.0.5,60.25800779674487,
To what extent did the music make you feel ,EXCITED,30MonoWAV/30MonoS1.wav,1,1,3,9,,,,,1,8,24,8,0,1,1,7,,,,,,,,,2,1.484014756999386,108,001,2019_Sep_05_1512,MusicAffectPsychophysiology2019,3.0.5,60.25800779674487,
To what extent did the music make you feel ,GUILTY,30MonoWAV/30MonoS1.wav,1,1,3,9,,,,,1,8,24,8,0,2,2,5,,,,,,,,,1,1.5860898829996586,108,001,2019_Sep_05_1512,MusicAffectPsychophysiology2019,3.0.5,60.25800779674487,
To what extent did the music make you feel ,SAD,30MonoWAV/30MonoS1.wav,1,1,3,9,,,,,1,8,24,8,0,3,3,0,,,,,,,,,1,0.5862341210013255,108,001,2019_Sep_05_1512,MusicAffectPsychophysiology2019,3.0.5,60.25800779674487,
To what extent did the music make you feel ,TENDER,30MonoWAV/30MonoS1.wav,1,1,3,9,,,,,1,8,24,8,0,4,4,10,,,,,,,,,2,1.0338200299993332,108,001,2019_Sep_05_1512,MusicAffectPsychophysiology2019,3.0.5,60.25800779674487,
To what extent did the music make you feel ,ANGRY,30MonoWAV/30MonoS1.wav,1,1,3,9,,,,,1,8,24,8,0,5,5,2,,,,,,,,,1,1.0352679190000345,108,001,2019_Sep_05_1512,MusicAffectPsychophysiology2019,3.0.5,60.25800779674487,
To what extent did the music make you feel ,FRUSTRATED,30MonoWAV/30MonoS1.wav,1,1,3,9,,,,,1,8,24,8,0,6,6,3,,,,,,,,,1,0.917921401998683,108,001,2019_Sep_05_1512,MusicAffectPsychophysiology2019,3.0.5,60.25800779674487,
To what extent did the music make you feel ,SCARED,30MonoWAV/30MonoS1.wav,1,1,3,9,,,,,1,8,24,8,0,7,7,11,,,,,,,,,1,1.46899213100005,108,001,2019_Sep_05_1512,MusicAffectPsychophysiology2019,3.0.5,60.25800779674487,
To what extent did the music make you feel ,HAPPY,30MonoWAV/30MonoS1.wav,1,1,3,9,,,,,1,8,24,8,0,8,8,6,,,,,,,,,2,1.7684222030002275,108,001,2019_Sep_05_1512,MusicAffectPsychophysiology2019,3.0.5,60.25800779674487,
To what extent did the music make you feel ,ASHAMED,30MonoWAV/30MonoS1.wav,1,1,3,9,,,,,1,8,24,8,0,9,9,4,,,,,,,,,1,1.069229388000167,108,001,2019_Sep_05_1512,MusicAffectPsychophysiology2019,3.0.5,60.25800779674487,
To what extent did the music make you feel ,ALERT,30MonoWAV/30MonoS1.wav,1,1,3,9,,,,,1,8,24,8,0,10,10,8,,,,,,,,,1,1.9187328009993507,108,001,2019_Sep_05_1512,MusicAffectPsychophysiology2019,3.0.5,60.25800779674487,
To what extent did the music make you feel ,ANXIOUS ,30MonoWAV/30MonoS1.wav,1,1,3,9,,,,,1,8,24,8,0,11,11,1,,,,,,,,,1,0.9858398229989689,108,001,2019_Sep_05_1512,MusicAffectPsychophysiology2019,3.0.5,60.25800779674487,
,,30MonoWAV/30MonoS1.wav,1,1,3,9,,,,,1,8,24,8,,,,,,,,,,,,,,,108,001,2019_Sep_05_1512,MusicAffectPsychophysiology2019,3.0.5,60.25800779674487,
To what extent did the music make you feel ,SAD,30MonoWAV/30MonoF2.wav,1,2,2,2,,,,,1,9,25,1,0,0,0,0,,,3,2.7852290910013835,1,2.685456205999799,1,3.285509858000296,1,1.3721277759996156,108,001,2019_Sep_05_1512,MusicAffectPsychophysiology2019,3.0.5,60.25800779674487,
To what extent did the music make you feel ,ANGRY,30MonoWAV/30MonoF2.wav,1,2,2,2,,,,,1,9,25,1,0,1,1,2,,,,,,,,,2,1.0505624580000585,108,001,2019_Sep_05_1512,MusicAffectPsychophysiology2019,3.0.5,60.25800779674487,
To what extent did the music make you feel ,ALERT,30MonoWAV/30MonoF2.wav,1,2,2,2,,,,,1,9,25,1,0,2,2,8,,,,,,,,,3,1.035154228000465,108,001,2019_Sep_05_1512,MusicAffectPsychophysiology2019,3.0.5,60.25800779674487,
To what extent did the music make you feel ,ACTIVE,30MonoWAV/30MonoF2.wav,1,2,2,2,,,,,1,9,25,1,0,3,3,9,,,,,,,,,3,0.9683283790000132,108,001,2019_Sep_05_1512,MusicAffectPsychophysiology2019,3.0.5,60.25800779674487,
To what extent did the music make you feel ,FRUSTRATED,30MonoWAV/30MonoF2.wav,1,2,2,2,,,,,1,9,25,1,0,4,4,3,,,,,,,,,1,1.152612482999757,108,001,2019_Sep_05_1512,MusicAffectPsychophysiology2019,3.0.5,60.25800779674487,
To what extent did the music make you feel ,EXCITED,30MonoWAV/30MonoF2.wav,1,2,2,2,,,,,1,9,25,1,0,5,5,7,,,,,,,,,2,2.400428193999687,108,001,2019_Sep_05_1512,MusicAffectPsychophysiology2019,3.0.5,60.25800779674487,
To what extent did the music make you feel ,ASHAMED,30MonoWAV/30MonoF2.wav,1,2,2,2,,,,,1,9,25,1,0,6,6,4,,,,,,,,,1,3.3015966279999702,108,001,2019_Sep_05_1512,MusicAffectPsychophysiology2019,3.0.5,60.25800779674487,
To what extent did the music make you feel ,ANXIOUS ,30MonoWAV/30MonoF2.wav,1,2,2,2,,,,,1,9,25,1,0,7,7,1,,,,,,,,,4,1.5197963969985722,108,001,2019_Sep_05_1512,MusicAffectPsychophysiology2019,3.0.5,60.25800779674487,
To what extent did the music make you feel ,SCARED,30MonoWAV/30MonoF2.wav,1,2,2,2,,,,,1,9,25,1,0,8,8,11,,,,,,,,,4,0.885290423000697,108,001,2019_Sep_05_1512,MusicAffectPsychophysiology2019,3.0.5,60.25800779674487,
To what extent did the music make you feel ,GUILTY,30MonoWAV/30MonoF2.wav,1,2,2,2,,,,,1,9,25,1,0,9,9,5,,,,,,,,,1,2.3355890630009526,108,001,2019_Sep_05_1512,MusicAffectPsychophysiology2019,3.0.5,60.25800779674487,
To what extent did the music make you feel ,HAPPY,30MonoWAV/30MonoF2.wav,1,2,2,2,,,,,1,9,25,1,0,10,10,6,,,,,,,,,1,1.485192902999188,108,001,2019_Sep_05_1512,MusicAffectPsychophysiology2019,3.0.5,60.25800779674487,
To what extent did the music make you feel ,TENDER,30MonoWAV/30MonoF2.wav,1,2,2,2,,,,,1,9,25,1,0,11,11,10,,,,,,,,,1,1.0688262090006901,108,001,2019_Sep_05_1512,MusicAffectPsychophysiology2019,3.0.5,60.25800779674487,
,,30MonoWAV/30MonoF2.wav,1,2,2,2,,,,,1,9,25,1,,,,,,,,,,,,,,,108,001,2019_Sep_05_1512,MusicAffectPsychophysiology2019,3.0.5,60.25800779674487,
To what extent did the music make you feel ,SCARED,30MonoWAV/30MonoS2.wav,1,1,3,10,,,,,1,10,26,9,0,0,0,11,,,2,14.218305062999207,3,1.8186878609994892,4,5.002277352999954,1,1.9262299570000323,108,001,2019_Sep_05_1512,MusicAffectPsychophysiology2019,3.0.5,60.25800779674487,
To what extent did the music make you feel ,FRUSTRATED,30MonoWAV/30MonoS2.wav,1,1,3,10,,,,,1,10,26,9,0,1,1,3,,,,,,,,,1,4.752155591000701,108,001,2019_Sep_05_1512,MusicAffectPsychophysiology2019,3.0.5,60.25800779674487,
To what extent did the music make you feel ,EXCITED,30MonoWAV/30MonoS2.wav,1,1,3,10,,,,,1,10,26,9,0,2,2,7,,,,,,,,,2,0.784668423999392,108,001,2019_Sep_05_1512,MusicAffectPsychophysiology2019,3.0.5,60.25800779674487,
To what extent did the music make you feel ,HAPPY,30MonoWAV/30MonoS2.wav,1,1,3,10,,,,,1,10,26,9,0,3,3,6,,,,,,,,,2,1.469822953999028,108,001,2019_Sep_05_1512,MusicAffectPsychophysiology2019,3.0.5,60.25800779674487,
To what extent did the music make you feel ,ANGRY,30MonoWAV/30MonoS2.wav,1,1,3,10,,,,,1,10,26,9,0,4,4,2,,,,,,,,,1,0.9528077079994546,108,001,2019_Sep_05_1512,MusicAffectPsychophysiology2019,3.0.5,60.25800779674487,
To what extent did the music make you feel ,ANXIOUS ,30MonoWAV/30MonoS2.wav,1,1,3,10,,,,,1,10,26,9,0,5,5,1,,,,,,,,,2,1.4501918669993756,108,001,2019_Sep_05_1512,MusicAffectPsychophysiology2019,3.0.5,60.25800779674487,
To what extent did the music make you feel ,GUILTY,30MonoWAV/30MonoS2.wav,1,1,3,10,,,,,1,10,26,9,0,6,6,5,,,,,,,,,1,3.0161337360004836,108,001,2019_Sep_05_1512,MusicAffectPsychophysiology2019,3.0.5,60.25800779674487,
To what extent did the music make you feel ,TENDER,30MonoWAV/30MonoS2.wav,1,1,3,10,,,,,1,10,26,9,0,7,7,10,,,,,,,,,2,1.10298646100091,108,001,2019_Sep_05_1512,MusicAffectPsychophysiology2019,3.0.5,60.25800779674487,
To what extent did the music make you feel ,SAD,30MonoWAV/30MonoS2.wav,1,1,3,10,,,,,1,10,26,9,0,8,8,0,,,,,,,,,1,1.4688233859997126,108,001,2019_Sep_05_1512,MusicAffectPsychophysiology2019,3.0.5,60.25800779674487,
To what extent did the music make you feel ,ASHAMED,30MonoWAV/30MonoS2.wav,1,1,3,10,,,,,1,10,26,9,0,9,9,4,,,,,,,,,1,0.8701067519996286,108,001,2019_Sep_05_1512,MusicAffectPsychophysiology2019,3.0.5,60.25800779674487,
To what extent did the music make you feel ,ACTIVE,30MonoWAV/30MonoS2.wav,1,1,3,10,,,,,1,10,26,9,0,10,10,9,,,,,,,,,2,1.0029134109990991,108,001,2019_Sep_05_1512,MusicAffectPsychophysiology2019,3.0.5,60.25800779674487,
To what extent did the music make you feel ,ALERT,30MonoWAV/30MonoS2.wav,1,1,3,10,,,,,1,10,26,9,0,11,11,8,,,,,,,,,1,2.109781113000281,108,001,2019_Sep_05_1512,MusicAffectPsychophysiology2019,3.0.5,60.25800779674487,
,,30MonoWAV/30MonoS2.wav,1,1,3,10,,,,,1,10,26,9,,,,,,,,,,,,,,,108,001,2019_Sep_05_1512,MusicAffectPsychophysiology2019,3.0.5,60.25800779674487,
To what extent did the music make you feel ,SCARED,30MonoWAV/30MonoH1.wav,2,2,1,5,,,,,1,11,27,4,0,0,0,11,,,4,3.869021934999182,3,1.370371579001585,3,1.3859831570007373,1,3.727919347000352,108,001,2019_Sep_05_1512,MusicAffectPsychophysiology2019,3.0.5,60.25800779674487,
To what extent did the music make you feel ,EXCITED,30MonoWAV/30MonoH1.wav,2,2,1,5,,,,,1,11,27,4,0,1,1,7,,,,,,,,,3,1.053496806000112,108,001,2019_Sep_05_1512,MusicAffectPsychophysiology2019,3.0.5,60.25800779674487,
To what extent did the music make you feel ,FRUSTRATED,30MonoWAV/30MonoH1.wav,2,2,1,5,,,,,1,11,27,4,0,2,2,3,,,,,,,,,1,1.1050780770001438,108,001,2019_Sep_05_1512,MusicAffectPsychophysiology2019,3.0.5,60.25800779674487,
To what extent did the music make you feel ,SAD,30MonoWAV/30MonoH1.wav,2,2,1,5,,,,,1,11,27,4,0,3,3,0,,,,,,,,,1,1.002649867999935,108,001,2019_Sep_05_1512,MusicAffectPsychophysiology2019,3.0.5,60.25800779674487,
To what extent did the music make you feel ,TENDER,30MonoWAV/30MonoH1.wav,2,2,1,5,,,,,1,11,27,4,0,4,4,10,,,,,,,,,2,1.0360848450000049,108,001,2019_Sep_05_1512,MusicAffectPsychophysiology2019,3.0.5,60.25800779674487,
To what extent did the music make you feel ,ACTIVE,30MonoWAV/30MonoH1.wav,2,2,1,5,,,,,1,11,27,4,0,5,5,9,,,,,,,,,3,0.8865001649992337,108,001,2019_Sep_05_1512,MusicAffectPsychophysiology2019,3.0.5,60.25800779674487,
To what extent did the music make you feel ,HAPPY,30MonoWAV/30MonoH1.wav,2,2,1,5,,,,,1,11,27,4,0,6,6,6,,,,,,,,,3,1.9528969940001843,108,001,2019_Sep_05_1512,MusicAffectPsychophysiology2019,3.0.5,60.25800779674487,
To what extent did the music make you feel ,ALERT,30MonoWAV/30MonoH1.wav,2,2,1,5,,,,,1,11,27,4,0,7,7,8,,,,,,,,,3,4.6516399510001065,108,001,2019_Sep_05_1512,MusicAffectPsychophysiology2019,3.0.5,60.25800779674487,
To what extent did the music make you feel ,GUILTY,30MonoWAV/30MonoH1.wav,2,2,1,5,,,,,1,11,27,4,0,8,8,5,,,,,,,,,1,0.6685855730011099,108,001,2019_Sep_05_1512,MusicAffectPsychophysiology2019,3.0.5,60.25800779674487,
To what extent did the music make you feel ,ANGRY,30MonoWAV/30MonoH1.wav,2,2,1,5,,,,,1,11,27,4,0,9,9,2,,,,,,,,,1,0.7861406920001173,108,001,2019_Sep_05_1512,MusicAffectPsychophysiology2019,3.0.5,60.25800779674487,
To what extent did the music make you feel ,ASHAMED,30MonoWAV/30MonoH1.wav,2,2,1,5,,,,,1,11,27,4,0,10,10,4,,,,,,,,,1,0.7358147810009541,108,001,2019_Sep_05_1512,MusicAffectPsychophysiology2019,3.0.5,60.25800779674487,
To what extent did the music make you feel ,ANXIOUS ,30MonoWAV/30MonoH1.wav,2,2,1,5,,,,,1,11,27,4,0,11,11,1,,,,,,,,,1,0.6030558530001144,108,001,2019_Sep_05_1512,MusicAffectPsychophysiology2019,3.0.5,60.25800779674487,
,,30MonoWAV/30MonoH1.wav,2,2,1,5,,,,,1,11,27,4,,,,,,,,,,,,,,,108,001,2019_Sep_05_1512,MusicAffectPsychophysiology2019,3.0.5,60.25800779674487,
To what extent did the music make you feel ,SCARED,30MonoWAV/30MonoT2.wav,2,1,4,14,,,,,1,12,28,13,0,0,0,11,,,3,2.7869616339994536,5,1.9505585309998423,5,0.851927079998859,1,2.895258725000531,108,001,2019_Sep_05_1512,MusicAffectPsychophysiology2019,3.0.5,60.25800779674487,
To what extent did the music make you feel ,SAD,30MonoWAV/30MonoT2.wav,2,1,4,14,,,,,1,12,28,13,0,1,1,0,,,,,,,,,1,0.7015470959995582,108,001,2019_Sep_05_1512,MusicAffectPsychophysiology2019,3.0.5,60.25800779674487,
To what extent did the music make you feel ,ASHAMED,30MonoWAV/30MonoT2.wav,2,1,4,14,,,,,1,12,28,13,0,2,2,4,,,,,,,,,1,0.7690702199997759,108,001,2019_Sep_05_1512,MusicAffectPsychophysiology2019,3.0.5,60.25800779674487,
To what extent did the music make you feel ,TENDER,30MonoWAV/30MonoT2.wav,2,1,4,14,,,,,1,12,28,13,0,3,3,10,,,,,,,,,4,1.9329531769999448,108,001,2019_Sep_05_1512,MusicAffectPsychophysiology2019,3.0.5,60.25800779674487,
To what extent did the music make you feel ,ANXIOUS ,30MonoWAV/30MonoT2.wav,2,1,4,14,,,,,1,12,28,13,0,4,4,1,,,,,,,,,1,4.1506369870003255,108,001,2019_Sep_05_1512,MusicAffectPsychophysiology2019,3.0.5,60.25800779674487,
To what extent did the music make you feel ,ACTIVE,30MonoWAV/30MonoT2.wav,2,1,4,14,,,,,1,12,28,13,0,5,5,9,,,,,,,,,3,2.9693358069998794,108,001,2019_Sep_05_1512,MusicAffectPsychophysiology2019,3.0.5,60.25800779674487,
To what extent did the music make you feel ,ANGRY,30MonoWAV/30MonoT2.wav,2,1,4,14,,,,,1,12,28,13,0,6,6,2,,,,,,,,,1,4.535342204999324,108,001,2019_Sep_05_1512,MusicAffectPsychophysiology2019,3.0.5,60.25800779674487,
To what extent did the music make you feel ,EXCITED,30MonoWAV/30MonoT2.wav,2,1,4,14,,,,,1,12,28,13,0,7,7,7,,,,,,,,,4,1.7866238309998153,108,001,2019_Sep_05_1512,MusicAffectPsychophysiology2019,3.0.5,60.25800779674487,
To what extent did the music make you feel ,HAPPY,30MonoWAV/30MonoT2.wav,2,1,4,14,,,,,1,12,28,13,0,8,8,6,,,,,,,,,4,2.486173831999622,108,001,2019_Sep_05_1512,MusicAffectPsychophysiology2019,3.0.5,60.25800779674487,
To what extent did the music make you feel ,FRUSTRATED,30MonoWAV/30MonoT2.wav,2,1,4,14,,,,,1,12,28,13,0,9,9,3,,,,,,,,,1,1.5033219390006707,108,001,2019_Sep_05_1512,MusicAffectPsychophysiology2019,3.0.5,60.25800779674487,
To what extent did the music make you feel ,GUILTY,30MonoWAV/30MonoT2.wav,2,1,4,14,,,,,1,12,28,13,0,10,10,5,,,,,,,,,1,7.785762255000009,108,001,2019_Sep_05_1512,MusicAffectPsychophysiology2019,3.0.5,60.25800779674487,
To what extent did the music make you feel ,ALERT,30MonoWAV/30MonoT2.wav,2,1,4,14,,,,,1,12,28,13,0,11,11,8,,,,,,,,,3,1.4181782699997711,108,001,2019_Sep_05_1512,MusicAffectPsychophysiology2019,3.0.5,60.25800779674487,
,,30MonoWAV/30MonoT2.wav,2,1,4,14,,,,,1,12,28,13,,,,,,,,,,,,,,,108,001,2019_Sep_05_1512,MusicAffectPsychophysiology2019,3.0.5,60.25800779674487,
To what extent did the music make you feel ,ANXIOUS ,30MonoWAV/30MonoH3.wav,2,2,1,7,,,,,1,13,29,6,0,0,0,1,,,4,3.154012444001637,4,5.2529151550006645,3,1.2015292159994715,1,1.4632450620010786,108,001,2019_Sep_05_1512,MusicAffectPsychophysiology2019,3.0.5,60.25800779674487,
To what extent did the music make you feel ,HAPPY,30MonoWAV/30MonoH3.wav,2,2,1,7,,,,,1,13,29,6,0,1,1,6,,,,,,,,,2,1.519361160999324,108,001,2019_Sep_05_1512,MusicAffectPsychophysiology2019,3.0.5,60.25800779674487,
To what extent did the music make you feel ,SCARED,30MonoWAV/30MonoH3.wav,2,2,1,7,,,,,1,13,29,6,0,2,2,11,,,,,,,,,1,2.799229315000048,108,001,2019_Sep_05_1512,MusicAffectPsychophysiology2019,3.0.5,60.25800779674487,
To what extent did the music make you feel ,ACTIVE,30MonoWAV/30MonoH3.wav,2,2,1,7,,,,,1,13,29,6,0,3,3,9,,,,,,,,,3,1.4858148940002138,108,001,2019_Sep_05_1512,MusicAffectPsychophysiology2019,3.0.5,60.25800779674487,
To what extent did the music make you feel ,EXCITED,30MonoWAV/30MonoH3.wav,2,2,1,7,,,,,1,13,29,6,0,4,4,7,,,,,,,,,3,1.051655020999533,108,001,2019_Sep_05_1512,MusicAffectPsychophysiology2019,3.0.5,60.25800779674487,
To what extent did the music make you feel ,SAD,30MonoWAV/30MonoH3.wav,2,2,1,7,,,,,1,13,29,6,0,5,5,0,,,,,,,,,1,0.6520315190009569,108,001,2019_Sep_05_1512,MusicAffectPsychophysiology2019,3.0.5,60.25800779674487,
To what extent did the music make you feel ,TENDER,30MonoWAV/30MonoH3.wav,2,2,1,7,,,,,1,13,29,6,0,6,6,10,,,,,,,,,3,1.9527028080010496,108,001,2019_Sep_05_1512,MusicAffectPsychophysiology2019,3.0.5,60.25800779674487,
To what extent did the music make you feel ,GUILTY,30MonoWAV/30MonoH3.wav,2,2,1,7,,,,,1,13,29,6,0,7,7,5,,,,,,,,,1,1.1850672920008947,108,001,2019_Sep_05_1512,MusicAffectPsychophysiology2019,3.0.5,60.25800779674487,
To what extent did the music make you feel ,FRUSTRATED,30MonoWAV/30MonoH3.wav,2,2,1,7,,,,,1,13,29,6,0,8,8,3,,,,,,,,,1,0.5872453169995424,108,001,2019_Sep_05_1512,MusicAffectPsychophysiology2019,3.0.5,60.25800779674487,
To what extent did the music make you feel ,ALERT,30MonoWAV/30MonoH3.wav,2,2,1,7,,,,,1,13,29,6,0,9,9,8,,,,,,,,,3,0.9193539650004823,108,001,2019_Sep_05_1512,MusicAffectPsychophysiology2019,3.0.5,60.25800779674487,
To what extent did the music make you feel ,ASHAMED,30MonoWAV/30MonoH3.wav,2,2,1,7,,,,,1,13,29,6,0,10,10,4,,,,,,,,,1,2.4027454930001113,108,001,2019_Sep_05_1512,MusicAffectPsychophysiology2019,3.0.5,60.25800779674487,
To what extent did the music make you feel ,ANGRY,30MonoWAV/30MonoH3.wav,2,2,1,7,,,,,1,13,29,6,0,11,11,2,,,,,,,,,1,0.9359292630015261,108,001,2019_Sep_05_1512,MusicAffectPsychophysiology2019,3.0.5,60.25800779674487,
,,30MonoWAV/30MonoH3.wav,2,2,1,7,,,,,1,13,29,6,,,,,,,,,,,,,,,108,001,2019_Sep_05_1512,MusicAffectPsychophysiology2019,3.0.5,60.25800779674487,
To what extent did the music make you feel ,ACTIVE,30MonoWAV/30MonoS3.wav,1,1,3,11,,,,,1,14,30,10,0,0,0,9,,,2,13.666646781000964,2,1.3524780539992207,2,1.3843008759995428,2,1.4734749589988496,108,001,2019_Sep_05_1512,MusicAffectPsychophysiology2019,3.0.5,60.25800779674487,
To what extent did the music make you feel ,ALERT,30MonoWAV/30MonoS3.wav,1,1,3,11,,,,,1,14,30,10,0,1,1,8,,,,,,,,,3,1.3862383180003235,108,001,2019_Sep_05_1512,MusicAffectPsychophysiology2019,3.0.5,60.25800779674487,
To what extent did the music make you feel ,EXCITED,30MonoWAV/30MonoS3.wav,1,1,3,11,,,,,1,14,30,10,0,2,2,7,,,,,,,,,2,1.6680026590001944,108,001,2019_Sep_05_1512,MusicAffectPsychophysiology2019,3.0.5,60.25800779674487,
To what extent did the music make you feel ,GUILTY,30MonoWAV/30MonoS3.wav,1,1,3,11,,,,,1,14,30,10,0,3,3,5,,,,,,,,,1,1.170245753999552,108,001,2019_Sep_05_1512,MusicAffectPsychophysiology2019,3.0.5,60.25800779674487,
To what extent did the music make you feel ,SAD,30MonoWAV/30MonoS3.wav,1,1,3,11,,,,,1,14,30,10,0,4,4,0,,,,,,,,,1,2.235389747998852,108,001,2019_Sep_05_1512,MusicAffectPsychophysiology2019,3.0.5,60.25800779674487,
To what extent did the music make you feel ,TENDER,30MonoWAV/30MonoS3.wav,1,1,3,11,,,,,1,14,30,10,0,5,5,10,,,,,,,,,2,1.3525721979985974,108,001,2019_Sep_05_1512,MusicAffectPsychophysiology2019,3.0.5,60.25800779674487,
To what extent did the music make you feel ,ANGRY,30MonoWAV/30MonoS3.wav,1,1,3,11,,,,,1,14,30,10,0,6,6,2,,,,,,,,,2,4.382655651999812,108,001,2019_Sep_05_1512,MusicAffectPsychophysiology2019,3.0.5,60.25800779674487,
To what extent did the music make you feel ,ANXIOUS ,30MonoWAV/30MonoS3.wav,1,1,3,11,,,,,1,14,30,10,0,7,7,1,,,,,,,,,2,0.45238432500082126,108,001,2019_Sep_05_1512,MusicAffectPsychophysiology2019,3.0.5,60.25800779674487,
To what extent did the music make you feel ,HAPPY,30MonoWAV/30MonoS3.wav,1,1,3,11,,,,,1,14,30,10,0,8,8,6,,,,,,,,,1,1.8521164869998756,108,001,2019_Sep_05_1512,MusicAffectPsychophysiology2019,3.0.5,60.25800779674487,
To what extent did the music make you feel ,FRUSTRATED,30MonoWAV/30MonoS3.wav,1,1,3,11,,,,,1,14,30,10,0,9,9,3,,,,,,,,,2,2.4553190719998383,108,001,2019_Sep_05_1512,MusicAffectPsychophysiology2019,3.0.5,60.25800779674487,
To what extent did the music make you feel ,SCARED,30MonoWAV/30MonoS3.wav,1,1,3,11,,,,,1,14,30,10,0,10,10,11,,,,,,,,,1,2.5186808639991796,108,001,2019_Sep_05_1512,MusicAffectPsychophysiology2019,3.0.5,60.25800779674487,
To what extent did the music make you feel ,ASHAMED,30MonoWAV/30MonoS3.wav,1,1,3,11,,,,,1,14,30,10,0,11,11,4,,,,,,,,,2,1.9352790119992278,108,001,2019_Sep_05_1512,MusicAffectPsychophysiology2019,3.0.5,60.25800779674487,
,,30MonoWAV/30MonoS3.wav,1,1,3,11,,,,,1,14,30,10,,,,,,,,,,,,,,,108,001,2019_Sep_05_1512,MusicAffectPsychophysiology2019,3.0.5,60.25800779674487,
To what extent did the music make you feel ,HAPPY,30MonoWAV/30MonoH2.wav,2,2,1,6,,,,,1,15,31,5,0,0,0,6,,,3,2.2190616480002063,2,0.48642479199952504,2,2.1679206440003327,2,1.3354908560013428,108,001,2019_Sep_05_1512,MusicAffectPsychophysiology2019,3.0.5,60.25800779674487,
To what extent did the music make you feel ,ANXIOUS ,30MonoWAV/30MonoH2.wav,2,2,1,6,,,,,1,15,31,5,0,1,1,1,,,,,,,,,1,0.953699127998334,108,001,2019_Sep_05_1512,MusicAffectPsychophysiology2019,3.0.5,60.25800779674487,
To what extent did the music make you feel ,ANGRY,30MonoWAV/30MonoH2.wav,2,2,1,6,,,,,1,15,31,5,0,2,2,2,,,,,,,,,1,0.8346822940002312,108,001,2019_Sep_05_1512,MusicAffectPsychophysiology2019,3.0.5,60.25800779674487,
To what extent did the music make you feel ,TENDER,30MonoWAV/30MonoH2.wav,2,2,1,6,,,,,1,15,31,5,0,3,3,10,,,,,,,,,2,1.0845325130012498,108,001,2019_Sep_05_1512,MusicAffectPsychophysiology2019,3.0.5,60.25800779674487,
To what extent did the music make you feel ,FRUSTRATED,30MonoWAV/30MonoH2.wav,2,2,1,6,,,,,1,15,31,5,0,4,4,3,,,,,,,,,1,1.0690896659998543,108,001,2019_Sep_05_1512,MusicAffectPsychophysiology2019,3.0.5,60.25800779674487,
To what extent did the music make you feel ,ALERT,30MonoWAV/30MonoH2.wav,2,2,1,6,,,,,1,15,31,5,0,5,5,8,,,,,,,,,3,1.336819239999386,108,001,2019_Sep_05_1512,MusicAffectPsychophysiology2019,3.0.5,60.25800779674487,
To what extent did the music make you feel ,SAD,30MonoWAV/30MonoH2.wav,2,2,1,6,,,,,1,15,31,5,0,6,6,0,,,,,,,,,1,1.43412976000036,108,001,2019_Sep_05_1512,MusicAffectPsychophysiology2019,3.0.5,60.25800779674487,
To what extent did the music make you feel ,SCARED,30MonoWAV/30MonoH2.wav,2,2,1,6,,,,,1,15,31,5,0,7,7,11,,,,,,,,,1,0.936131929000112,108,001,2019_Sep_05_1512,MusicAffectPsychophysiology2019,3.0.5,60.25800779674487,
To what extent did the music make you feel ,ACTIVE,30MonoWAV/30MonoH2.wav,2,2,1,6,,,,,1,15,31,5,0,8,8,9,,,,,,,,,3,0.9230534620000981,108,001,2019_Sep_05_1512,MusicAffectPsychophysiology2019,3.0.5,60.25800779674487,
To what extent did the music make you feel ,GUILTY,30MonoWAV/30MonoH2.wav,2,2,1,6,,,,,1,15,31,5,0,9,9,5,,,,,,,,,1,0.6290078349993564,108,001,2019_Sep_05_1512,MusicAffectPsychophysiology2019,3.0.5,60.25800779674487,
To what extent did the music make you feel ,EXCITED,30MonoWAV/30MonoH2.wav,2,2,1,6,,,,,1,15,31,5,0,10,10,7,,,,,,,,,2,1.0190786099992692,108,001,2019_Sep_05_1512,MusicAffectPsychophysiology2019,3.0.5,60.25800779674487,
To what extent did the music make you feel ,ASHAMED,30MonoWAV/30MonoH2.wav,2,2,1,6,,,,,1,15,31,5,0,11,11,4,,,,,,,,,1,0.6850482649988408,108,001,2019_Sep_05_1512,MusicAffectPsychophysiology2019,3.0.5,60.25800779674487,
,,30MonoWAV/30MonoH2.wav,2,2,1,6,,,,,1,15,31,5,,,,,,,,,,,,,,,108,001,2019_Sep_05_1512,MusicAffectPsychophysiology2019,3.0.5,60.25800779674487,
