Instruction,Word,song,valence,arousal,affectcat,songmark,pracwords.thisRepN,pracwords.thisTrialN,pracwords.thisN,pracwords.thisIndex,songtrials.thisRepN,songtrials.thisTrialN,songtrials.thisN,songtrials.thisIndex,words.thisRepN,words.thisTrialN,words.thisN,words.thisIndex,begin.keys,begin.rt,arousalkey.keys,arousalkey.rt,valencekey.keys,valencekey.rt,likekey.keys,likekey.rt,WordResponse.keys,WordResponse.rt,participant,session,date,expName,psychopyVersion,frameRate,
,,,,,,,,,,,,,,,,,,,num_enter,59.71552251700086,,,,,,,,,109,001,2019_Sep_05_1612,MusicAffectPsychophysiology2019,3.0.5,59.8026704436107,
,,,,,,,,,,,,,,,,,,,,,4,17.267798127999413,,,,,,,109,001,2019_Sep_05_1612,MusicAffectPsychophysiology2019,3.0.5,59.8026704436107,
,,,,,,,,,,,,,,,,,,,,,,,5,5.000245306000579,,,,,109,001,2019_Sep_05_1612,MusicAffectPsychophysiology2019,3.0.5,59.8026704436107,
,,,,,,,,,,,,,,,,,,,,,,,,,4,3.6851615790001233,,,109,001,2019_Sep_05_1612,MusicAffectPsychophysiology2019,3.0.5,59.8026704436107,
To what extent did the music make you feel ,SAD,,,,,,0,0,0,0,,,,,,,,,,,,,,,,,1,6.283505621000586,109,001,2019_Sep_05_1612,MusicAffectPsychophysiology2019,3.0.5,59.8026704436107,
To what extent did the music make you feel ,ASHAMED,,,,,,0,1,1,4,,,,,,,,,,,,,,,,,1,3.30252041499989,109,001,2019_Sep_05_1612,MusicAffectPsychophysiology2019,3.0.5,59.8026704436107,
To what extent did the music make you feel ,FRUSTRATED,,,,,,0,2,2,3,,,,,,,,,,,,,,,,,1,5.42242627899941,109,001,2019_Sep_05_1612,MusicAffectPsychophysiology2019,3.0.5,59.8026704436107,
To what extent did the music make you feel ,EXCITED,,,,,,0,3,3,7,,,,,,,,,,,,,,,,,4,5.735611181999047,109,001,2019_Sep_05_1612,MusicAffectPsychophysiology2019,3.0.5,59.8026704436107,
To what extent did the music make you feel ,GUILTY,,,,,,0,4,4,5,,,,,,,,,,,,,,,,,1,2.2197608549995493,109,001,2019_Sep_05_1612,MusicAffectPsychophysiology2019,3.0.5,59.8026704436107,
To what extent did the music make you feel ,ALERT,,,,,,0,5,5,8,,,,,,,,,,,,,,,,,1,3.098994040999969,109,001,2019_Sep_05_1612,MusicAffectPsychophysiology2019,3.0.5,59.8026704436107,
To what extent did the music make you feel ,TENDER,,,,,,0,6,6,10,,,,,,,,,,,,,,,,,2,21.133534251999663,109,001,2019_Sep_05_1612,MusicAffectPsychophysiology2019,3.0.5,59.8026704436107,
To what extent did the music make you feel ,ACTIVE,,,,,,0,7,7,9,,,,,,,,,,,,,,,,,5,3.4832330219996948,109,001,2019_Sep_05_1612,MusicAffectPsychophysiology2019,3.0.5,59.8026704436107,
To what extent did the music make you feel ,ANXIOUS ,,,,,,0,8,8,1,,,,,,,,,,,,,,,,,1,2.503207604000636,109,001,2019_Sep_05_1612,MusicAffectPsychophysiology2019,3.0.5,59.8026704436107,
To what extent did the music make you feel ,ANGRY,,,,,,0,9,9,2,,,,,,,,,,,,,,,,,1,0.8683580160013662,109,001,2019_Sep_05_1612,MusicAffectPsychophysiology2019,3.0.5,59.8026704436107,
To what extent did the music make you feel ,HAPPY,,,,,,0,10,10,6,,,,,,,,,,,,,,,,,4,2.085514084999886,109,001,2019_Sep_05_1612,MusicAffectPsychophysiology2019,3.0.5,59.8026704436107,
To what extent did the music make you feel ,SCARED,,,,,,0,11,11,11,,,,,,,,,,,,,,,,,1,1.5533157869995193,109,001,2019_Sep_05_1612,MusicAffectPsychophysiology2019,3.0.5,59.8026704436107,
To what extent did the music make you feel ,ASHAMED,30MonoWAV/30MonoH2.wav,2,2,1,6,,,,,0,0,0,5,0,0,0,4,,,5,5.1363261959995725,5,1.5514966560003813,4,3.7187990189995617,1,1.5649475159989379,109,001,2019_Sep_05_1612,MusicAffectPsychophysiology2019,3.0.5,59.8026704436107,
To what extent did the music make you feel ,ACTIVE,30MonoWAV/30MonoH2.wav,2,2,1,6,,,,,0,0,0,5,0,1,1,9,,,,,,,,,5,1.5356836859991745,109,001,2019_Sep_05_1612,MusicAffectPsychophysiology2019,3.0.5,59.8026704436107,
To what extent did the music make you feel ,GUILTY,30MonoWAV/30MonoH2.wav,2,2,1,6,,,,,0,0,0,5,0,2,2,5,,,,,,,,,1,1.2525455880004301,109,001,2019_Sep_05_1612,MusicAffectPsychophysiology2019,3.0.5,59.8026704436107,
To what extent did the music make you feel ,HAPPY,30MonoWAV/30MonoH2.wav,2,2,1,6,,,,,0,0,0,5,0,3,3,6,,,,,,,,,3,3.2517820749999373,109,001,2019_Sep_05_1612,MusicAffectPsychophysiology2019,3.0.5,59.8026704436107,
To what extent did the music make you feel ,FRUSTRATED,30MonoWAV/30MonoH2.wav,2,2,1,6,,,,,0,0,0,5,0,4,4,3,,,,,,,,,1,32.71591815899956,109,001,2019_Sep_05_1612,MusicAffectPsychophysiology2019,3.0.5,59.8026704436107,
To what extent did the music make you feel ,SCARED,30MonoWAV/30MonoH2.wav,2,2,1,6,,,,,0,0,0,5,0,5,5,11,,,,,,,,,1,1.0200832099999388,109,001,2019_Sep_05_1612,MusicAffectPsychophysiology2019,3.0.5,59.8026704436107,
To what extent did the music make you feel ,ANXIOUS ,30MonoWAV/30MonoH2.wav,2,2,1,6,,,,,0,0,0,5,0,6,6,1,,,,,,,,,1,1.0171683980006492,109,001,2019_Sep_05_1612,MusicAffectPsychophysiology2019,3.0.5,59.8026704436107,
To what extent did the music make you feel ,ANGRY,30MonoWAV/30MonoH2.wav,2,2,1,6,,,,,0,0,0,5,0,7,7,2,,,,,,,,,1,1.88541703699957,109,001,2019_Sep_05_1612,MusicAffectPsychophysiology2019,3.0.5,59.8026704436107,
To what extent did the music make you feel ,EXCITED,30MonoWAV/30MonoH2.wav,2,2,1,6,,,,,0,0,0,5,0,8,8,7,,,,,,,,,4,3.0512314490006247,109,001,2019_Sep_05_1612,MusicAffectPsychophysiology2019,3.0.5,59.8026704436107,
To what extent did the music make you feel ,ALERT,30MonoWAV/30MonoH2.wav,2,2,1,6,,,,,0,0,0,5,0,9,9,8,,,,,,,,,1,1.602033733001008,109,001,2019_Sep_05_1612,MusicAffectPsychophysiology2019,3.0.5,59.8026704436107,
To what extent did the music make you feel ,TENDER,30MonoWAV/30MonoH2.wav,2,2,1,6,,,,,0,0,0,5,0,10,10,10,,,,,,,,,2,12.633939696001107,109,001,2019_Sep_05_1612,MusicAffectPsychophysiology2019,3.0.5,59.8026704436107,
To what extent did the music make you feel ,SAD,30MonoWAV/30MonoH2.wav,2,2,1,6,,,,,0,0,0,5,0,11,11,0,,,,,,,,,1,1.1526311409998016,109,001,2019_Sep_05_1612,MusicAffectPsychophysiology2019,3.0.5,59.8026704436107,
,,30MonoWAV/30MonoH2.wav,2,2,1,6,,,,,0,0,0,5,,,,,,,,,,,,,,,109,001,2019_Sep_05_1612,MusicAffectPsychophysiology2019,3.0.5,59.8026704436107,
To what extent did the music make you feel ,ALERT,30MonoWAV/30MonoF2.wav,1,2,2,2,,,,,0,1,1,1,0,0,0,8,,,2,10.117637109000498,1,4.802174536000166,1,1.9530887599994458,5,4.318336652000653,109,001,2019_Sep_05_1612,MusicAffectPsychophysiology2019,3.0.5,59.8026704436107,
To what extent did the music make you feel ,ANXIOUS ,30MonoWAV/30MonoF2.wav,1,2,2,2,,,,,0,1,1,1,0,1,1,1,,,,,,,,,4,1.7529924459995527,109,001,2019_Sep_05_1612,MusicAffectPsychophysiology2019,3.0.5,59.8026704436107,
To what extent did the music make you feel ,EXCITED,30MonoWAV/30MonoF2.wav,1,2,2,2,,,,,0,1,1,1,0,2,2,7,,,,,,,,,4,4.968708836000587,109,001,2019_Sep_05_1612,MusicAffectPsychophysiology2019,3.0.5,59.8026704436107,
To what extent did the music make you feel ,FRUSTRATED,30MonoWAV/30MonoF2.wav,1,2,2,2,,,,,0,1,1,1,0,3,3,3,,,,,,,,,3,4.373679670999991,109,001,2019_Sep_05_1612,MusicAffectPsychophysiology2019,3.0.5,59.8026704436107,
To what extent did the music make you feel ,ASHAMED,30MonoWAV/30MonoF2.wav,1,2,2,2,,,,,0,1,1,1,0,4,4,4,,,,,,,,,1,1.8507702890001383,109,001,2019_Sep_05_1612,MusicAffectPsychophysiology2019,3.0.5,59.8026704436107,
To what extent did the music make you feel ,GUILTY,30MonoWAV/30MonoF2.wav,1,2,2,2,,,,,0,1,1,1,0,5,5,5,,,,,,,,,1,3.0358218170003965,109,001,2019_Sep_05_1612,MusicAffectPsychophysiology2019,3.0.5,59.8026704436107,
To what extent did the music make you feel ,SCARED,30MonoWAV/30MonoF2.wav,1,2,2,2,,,,,0,1,1,1,0,6,6,11,,,,,,,,,4,2.5184614429999783,109,001,2019_Sep_05_1612,MusicAffectPsychophysiology2019,3.0.5,59.8026704436107,
To what extent did the music make you feel ,TENDER,30MonoWAV/30MonoF2.wav,1,2,2,2,,,,,0,1,1,1,0,7,7,10,,,,,,,,,3,3.186818725998819,109,001,2019_Sep_05_1612,MusicAffectPsychophysiology2019,3.0.5,59.8026704436107,
To what extent did the music make you feel ,ACTIVE,30MonoWAV/30MonoF2.wav,1,2,2,2,,,,,0,1,1,1,0,8,8,9,,,,,,,,,2,2.901757498999359,109,001,2019_Sep_05_1612,MusicAffectPsychophysiology2019,3.0.5,59.8026704436107,
To what extent did the music make you feel ,SAD,30MonoWAV/30MonoF2.wav,1,2,2,2,,,,,0,1,1,1,0,9,9,0,,,,,,,,,1,5.301769931000308,109,001,2019_Sep_05_1612,MusicAffectPsychophysiology2019,3.0.5,59.8026704436107,
To what extent did the music make you feel ,ANGRY,30MonoWAV/30MonoF2.wav,1,2,2,2,,,,,0,1,1,1,0,10,10,2,,,,,,,,,1,1.1530163119987265,109,001,2019_Sep_05_1612,MusicAffectPsychophysiology2019,3.0.5,59.8026704436107,
To what extent did the music make you feel ,HAPPY,30MonoWAV/30MonoF2.wav,1,2,2,2,,,,,0,1,1,1,0,11,11,6,,,,,,,,,1,2.335754933001226,109,001,2019_Sep_05_1612,MusicAffectPsychophysiology2019,3.0.5,59.8026704436107,
,,30MonoWAV/30MonoF2.wav,1,2,2,2,,,,,0,1,1,1,,,,,,,,,,,,,,,109,001,2019_Sep_05_1612,MusicAffectPsychophysiology2019,3.0.5,59.8026704436107,
To what extent did the music make you feel ,ANGRY,30MonoWAV/30MonoT2.wav,2,1,4,14,,,,,0,2,2,13,0,0,0,2,,,3,9.119420984001408,4,4.752190266999605,4,3.8182890680000128,1,1.9240753279991623,109,001,2019_Sep_05_1612,MusicAffectPsychophysiology2019,3.0.5,59.8026704436107,
To what extent did the music make you feel ,ASHAMED,30MonoWAV/30MonoT2.wav,2,1,4,14,,,,,0,2,2,13,0,1,1,4,,,,,,,,,1,0.9189940779997414,109,001,2019_Sep_05_1612,MusicAffectPsychophysiology2019,3.0.5,59.8026704436107,
To what extent did the music make you feel ,SCARED,30MonoWAV/30MonoT2.wav,2,1,4,14,,,,,0,2,2,13,0,2,2,11,,,,,,,,,1,0.7853249569998297,109,001,2019_Sep_05_1612,MusicAffectPsychophysiology2019,3.0.5,59.8026704436107,
To what extent did the music make you feel ,ANXIOUS ,30MonoWAV/30MonoT2.wav,2,1,4,14,,,,,0,2,2,13,0,3,3,1,,,,,,,,,1,1.0524969830003101,109,001,2019_Sep_05_1612,MusicAffectPsychophysiology2019,3.0.5,59.8026704436107,
To what extent did the music make you feel ,SAD,30MonoWAV/30MonoT2.wav,2,1,4,14,,,,,0,2,2,13,0,4,4,0,,,,,,,,,1,1.002735396999924,109,001,2019_Sep_05_1612,MusicAffectPsychophysiology2019,3.0.5,59.8026704436107,
To what extent did the music make you feel ,HAPPY,30MonoWAV/30MonoT2.wav,2,1,4,14,,,,,0,2,2,13,0,5,5,6,,,,,,,,,4,3.533735691000402,109,001,2019_Sep_05_1612,MusicAffectPsychophysiology2019,3.0.5,59.8026704436107,
To what extent did the music make you feel ,TENDER,30MonoWAV/30MonoT2.wav,2,1,4,14,,,,,0,2,2,13,0,6,6,10,,,,,,,,,2,5.368210593000185,109,001,2019_Sep_05_1612,MusicAffectPsychophysiology2019,3.0.5,59.8026704436107,
To what extent did the music make you feel ,EXCITED,30MonoWAV/30MonoT2.wav,2,1,4,14,,,,,0,2,2,13,0,7,7,7,,,,,,,,,2,4.652981518000161,109,001,2019_Sep_05_1612,MusicAffectPsychophysiology2019,3.0.5,59.8026704436107,
To what extent did the music make you feel ,ACTIVE,30MonoWAV/30MonoT2.wav,2,1,4,14,,,,,0,2,2,13,0,8,8,9,,,,,,,,,5,2.000977764999334,109,001,2019_Sep_05_1612,MusicAffectPsychophysiology2019,3.0.5,59.8026704436107,
To what extent did the music make you feel ,FRUSTRATED,30MonoWAV/30MonoT2.wav,2,1,4,14,,,,,0,2,2,13,0,9,9,3,,,,,,,,,2,2.1363404749990877,109,001,2019_Sep_05_1612,MusicAffectPsychophysiology2019,3.0.5,59.8026704436107,
To what extent did the music make you feel ,ALERT,30MonoWAV/30MonoT2.wav,2,1,4,14,,,,,0,2,2,13,0,10,10,8,,,,,,,,,1,2.0176260130010633,109,001,2019_Sep_05_1612,MusicAffectPsychophysiology2019,3.0.5,59.8026704436107,
To what extent did the music make you feel ,GUILTY,30MonoWAV/30MonoT2.wav,2,1,4,14,,,,,0,2,2,13,0,11,11,5,,,,,,,,,1,0.9693669190000946,109,001,2019_Sep_05_1612,MusicAffectPsychophysiology2019,3.0.5,59.8026704436107,
,,30MonoWAV/30MonoT2.wav,2,1,4,14,,,,,0,2,2,13,,,,,,,,,,,,,,,109,001,2019_Sep_05_1612,MusicAffectPsychophysiology2019,3.0.5,59.8026704436107,
To what extent did the music make you feel ,ANXIOUS ,30MonoWAV/30MonoT3.wav,2,1,4,15,,,,,0,3,3,14,0,0,0,1,,,3,10.999043902998892,4,8.268319136999708,5,2.0837199320012587,1,1.635277674999088,109,001,2019_Sep_05_1612,MusicAffectPsychophysiology2019,3.0.5,59.8026704436107,
To what extent did the music make you feel ,EXCITED,30MonoWAV/30MonoT3.wav,2,1,4,15,,,,,0,3,3,14,0,1,1,7,,,,,,,,,1,1.4183582859986927,109,001,2019_Sep_05_1612,MusicAffectPsychophysiology2019,3.0.5,59.8026704436107,
To what extent did the music make you feel ,ANGRY,30MonoWAV/30MonoT3.wav,2,1,4,15,,,,,0,3,3,14,0,2,2,2,,,,,,,,,1,1.0193482480008242,109,001,2019_Sep_05_1612,MusicAffectPsychophysiology2019,3.0.5,59.8026704436107,
To what extent did the music make you feel ,SAD,30MonoWAV/30MonoT3.wav,2,1,4,15,,,,,0,3,3,14,0,3,3,0,,,,,,,,,1,0.6528164429983008,109,001,2019_Sep_05_1612,MusicAffectPsychophysiology2019,3.0.5,59.8026704436107,
To what extent did the music make you feel ,FRUSTRATED,30MonoWAV/30MonoT3.wav,2,1,4,15,,,,,0,3,3,14,0,4,4,3,,,,,,,,,1,5.50175331399987,109,001,2019_Sep_05_1612,MusicAffectPsychophysiology2019,3.0.5,59.8026704436107,
To what extent did the music make you feel ,TENDER,30MonoWAV/30MonoT3.wav,2,1,4,15,,,,,0,3,3,14,0,5,5,10,,,,,,,,,1,9.435674647000269,109,001,2019_Sep_05_1612,MusicAffectPsychophysiology2019,3.0.5,59.8026704436107,
To what extent did the music make you feel ,ASHAMED,30MonoWAV/30MonoT3.wav,2,1,4,15,,,,,0,3,3,14,0,6,6,4,,,,,,,,,1,1.0024072950000118,109,001,2019_Sep_05_1612,MusicAffectPsychophysiology2019,3.0.5,59.8026704436107,
To what extent did the music make you feel ,GUILTY,30MonoWAV/30MonoT3.wav,2,1,4,15,,,,,0,3,3,14,0,7,7,5,,,,,,,,,1,0.8194269669984351,109,001,2019_Sep_05_1612,MusicAffectPsychophysiology2019,3.0.5,59.8026704436107,
To what extent did the music make you feel ,SCARED,30MonoWAV/30MonoT3.wav,2,1,4,15,,,,,0,3,3,14,0,8,8,11,,,,,,,,,1,1.119225358001131,109,001,2019_Sep_05_1612,MusicAffectPsychophysiology2019,3.0.5,59.8026704436107,
To what extent did the music make you feel ,ALERT,30MonoWAV/30MonoT3.wav,2,1,4,15,,,,,0,3,3,14,0,9,9,8,,,,,,,,,1,1.5191564379983902,109,001,2019_Sep_05_1612,MusicAffectPsychophysiology2019,3.0.5,59.8026704436107,
To what extent did the music make you feel ,ACTIVE,30MonoWAV/30MonoT3.wav,2,1,4,15,,,,,0,3,3,14,0,10,10,9,,,,,,,,,2,3.10320006099937,109,001,2019_Sep_05_1612,MusicAffectPsychophysiology2019,3.0.5,59.8026704436107,
To what extent did the music make you feel ,HAPPY,30MonoWAV/30MonoT3.wav,2,1,4,15,,,,,0,3,3,14,0,11,11,6,,,,,,,,,4,2.6363777089991345,109,001,2019_Sep_05_1612,MusicAffectPsychophysiology2019,3.0.5,59.8026704436107,
,,30MonoWAV/30MonoT3.wav,2,1,4,15,,,,,0,3,3,14,,,,,,,,,,,,,,,109,001,2019_Sep_05_1612,MusicAffectPsychophysiology2019,3.0.5,59.8026704436107,
To what extent did the music make you feel ,FRUSTRATED,30MonoWAV/30MonoF3.wav,1,2,2,3,,,,,0,4,4,2,0,0,0,3,,,3,4.201893190000192,2,3.5682692490008776,2,2.9189572329996736,2,19.57065392200093,109,001,2019_Sep_05_1612,MusicAffectPsychophysiology2019,3.0.5,59.8026704436107,
To what extent did the music make you feel ,HAPPY,30MonoWAV/30MonoF3.wav,1,2,2,3,,,,,0,4,4,2,0,1,1,6,,,,,,,,,2,2.5011134529995616,109,001,2019_Sep_05_1612,MusicAffectPsychophysiology2019,3.0.5,59.8026704436107,
To what extent did the music make you feel ,TENDER,30MonoWAV/30MonoF3.wav,1,2,2,3,,,,,0,4,4,2,0,2,2,10,,,,,,,,,2,1.4188064340014535,109,001,2019_Sep_05_1612,MusicAffectPsychophysiology2019,3.0.5,59.8026704436107,
To what extent did the music make you feel ,ANXIOUS ,30MonoWAV/30MonoF3.wav,1,2,2,3,,,,,0,4,4,2,0,3,3,1,,,,,,,,,2,0.08585341400066682,109,001,2019_Sep_05_1612,MusicAffectPsychophysiology2019,3.0.5,59.8026704436107,
To what extent did the music make you feel ,SCARED,30MonoWAV/30MonoF3.wav,1,2,2,3,,,,,0,4,4,2,0,4,4,11,,,,,,,,,3,3.8845626679994893,109,001,2019_Sep_05_1612,MusicAffectPsychophysiology2019,3.0.5,59.8026704436107,
To what extent did the music make you feel ,ALERT,30MonoWAV/30MonoF3.wav,1,2,2,3,,,,,0,4,4,2,0,5,5,8,,,,,,,,,5,1.6941076919993066,109,001,2019_Sep_05_1612,MusicAffectPsychophysiology2019,3.0.5,59.8026704436107,
To what extent did the music make you feel ,ACTIVE,30MonoWAV/30MonoF3.wav,1,2,2,3,,,,,0,4,4,2,0,6,6,9,,,,,,,,,2,1.4936530270006187,109,001,2019_Sep_05_1612,MusicAffectPsychophysiology2019,3.0.5,59.8026704436107,
To what extent did the music make you feel ,ASHAMED,30MonoWAV/30MonoF3.wav,1,2,2,3,,,,,0,4,4,2,0,7,7,4,,,,,,,,,1,1.7190891579994059,109,001,2019_Sep_05_1612,MusicAffectPsychophysiology2019,3.0.5,59.8026704436107,
To what extent did the music make you feel ,EXCITED,30MonoWAV/30MonoF3.wav,1,2,2,3,,,,,0,4,4,2,0,8,8,7,,,,,,,,,3,1.9008124800002406,109,001,2019_Sep_05_1612,MusicAffectPsychophysiology2019,3.0.5,59.8026704436107,
To what extent did the music make you feel ,SAD,30MonoWAV/30MonoF3.wav,1,2,2,3,,,,,0,4,4,2,0,9,9,0,,,,,,,,,1,1.2533803880014602,109,001,2019_Sep_05_1612,MusicAffectPsychophysiology2019,3.0.5,59.8026704436107,
To what extent did the music make you feel ,ANGRY,30MonoWAV/30MonoF3.wav,1,2,2,3,,,,,0,4,4,2,0,10,10,2,,,,,,,,,2,3.4513329199999134,109,001,2019_Sep_05_1612,MusicAffectPsychophysiology2019,3.0.5,59.8026704436107,
To what extent did the music make you feel ,GUILTY,30MonoWAV/30MonoF3.wav,1,2,2,3,,,,,0,4,4,2,0,11,11,5,,,,,,,,,1,0.9850322720012628,109,001,2019_Sep_05_1612,MusicAffectPsychophysiology2019,3.0.5,59.8026704436107,
,,30MonoWAV/30MonoF3.wav,1,2,2,3,,,,,0,4,4,2,,,,,,,,,,,,,,,109,001,2019_Sep_05_1612,MusicAffectPsychophysiology2019,3.0.5,59.8026704436107,
To what extent did the music make you feel ,ALERT,30MonoWAV/30MonoS2.wav,1,1,3,10,,,,,0,5,5,9,0,0,0,8,,,2,8.720011594001335,2,1.5672920690012688,3,4.217815973001052,1,1.7291159930009599,109,001,2019_Sep_05_1612,MusicAffectPsychophysiology2019,3.0.5,59.8026704436107,
To what extent did the music make you feel ,ANGRY,30MonoWAV/30MonoS2.wav,1,1,3,10,,,,,0,5,5,9,0,1,1,2,,,,,,,,,1,1.4514774959989154,109,001,2019_Sep_05_1612,MusicAffectPsychophysiology2019,3.0.5,59.8026704436107,
To what extent did the music make you feel ,ACTIVE,30MonoWAV/30MonoS2.wav,1,1,3,10,,,,,0,5,5,9,0,2,2,9,,,,,,,,,2,2.23477498200009,109,001,2019_Sep_05_1612,MusicAffectPsychophysiology2019,3.0.5,59.8026704436107,
To what extent did the music make you feel ,GUILTY,30MonoWAV/30MonoS2.wav,1,1,3,10,,,,,0,5,5,9,0,3,3,5,,,,,,,,,1,2.749996569000359,109,001,2019_Sep_05_1612,MusicAffectPsychophysiology2019,3.0.5,59.8026704436107,
To what extent did the music make you feel ,ASHAMED,30MonoWAV/30MonoS2.wav,1,1,3,10,,,,,0,5,5,9,0,4,4,4,,,,,,,,,1,3.583714513999439,109,001,2019_Sep_05_1612,MusicAffectPsychophysiology2019,3.0.5,59.8026704436107,
To what extent did the music make you feel ,SAD,30MonoWAV/30MonoS2.wav,1,1,3,10,,,,,0,5,5,9,0,5,5,0,,,,,,,,,4,2.0026561689992377,109,001,2019_Sep_05_1612,MusicAffectPsychophysiology2019,3.0.5,59.8026704436107,
To what extent did the music make you feel ,HAPPY,30MonoWAV/30MonoS2.wav,1,1,3,10,,,,,0,5,5,9,0,6,6,6,,,,,,,,,1,2.149669520000316,109,001,2019_Sep_05_1612,MusicAffectPsychophysiology2019,3.0.5,59.8026704436107,
To what extent did the music make you feel ,TENDER,30MonoWAV/30MonoS2.wav,1,1,3,10,,,,,0,5,5,9,0,7,7,10,,,,,,,,,1,2.0348494089994347,109,001,2019_Sep_05_1612,MusicAffectPsychophysiology2019,3.0.5,59.8026704436107,
To what extent did the music make you feel ,FRUSTRATED,30MonoWAV/30MonoS2.wav,1,1,3,10,,,,,0,5,5,9,0,8,8,3,,,,,,,,,1,1.3691191489997436,109,001,2019_Sep_05_1612,MusicAffectPsychophysiology2019,3.0.5,59.8026704436107,
To what extent did the music make you feel ,EXCITED,30MonoWAV/30MonoS2.wav,1,1,3,10,,,,,0,5,5,9,0,9,9,7,,,,,,,,,1,2.167003067999758,109,001,2019_Sep_05_1612,MusicAffectPsychophysiology2019,3.0.5,59.8026704436107,
To what extent did the music make you feel ,ANXIOUS ,30MonoWAV/30MonoS2.wav,1,1,3,10,,,,,0,5,5,9,0,10,10,1,,,,,,,,,1,1.6363180320004176,109,001,2019_Sep_05_1612,MusicAffectPsychophysiology2019,3.0.5,59.8026704436107,
To what extent did the music make you feel ,SCARED,30MonoWAV/30MonoS2.wav,1,1,3,10,,,,,0,5,5,9,0,11,11,11,,,,,,,,,1,1.2357976409984985,109,001,2019_Sep_05_1612,MusicAffectPsychophysiology2019,3.0.5,59.8026704436107,
,,30MonoWAV/30MonoS2.wav,1,1,3,10,,,,,0,5,5,9,,,,,,,,,,,,,,,109,001,2019_Sep_05_1612,MusicAffectPsychophysiology2019,3.0.5,59.8026704436107,
To what extent did the music make you feel ,EXCITED,30MonoWAV/30MonoF1.wav,1,2,2,1,,,,,0,6,6,0,0,0,0,7,,,4,7.351464497000052,2,3.618538627999442,2,2.801313181998921,4,2.3980708319995756,109,001,2019_Sep_05_1612,MusicAffectPsychophysiology2019,3.0.5,59.8026704436107,
To what extent did the music make you feel ,ALERT,30MonoWAV/30MonoF1.wav,1,2,2,1,,,,,0,6,6,0,0,1,1,8,,,,,,,,,5,1.4185646519999864,109,001,2019_Sep_05_1612,MusicAffectPsychophysiology2019,3.0.5,59.8026704436107,
To what extent did the music make you feel ,ASHAMED,30MonoWAV/30MonoF1.wav,1,2,2,1,,,,,0,6,6,0,0,2,2,4,,,,,,,,,1,1.1194937889995344,109,001,2019_Sep_05_1612,MusicAffectPsychophysiology2019,3.0.5,59.8026704436107,
To what extent did the music make you feel ,SAD,30MonoWAV/30MonoF1.wav,1,2,2,1,,,,,0,6,6,0,0,3,3,0,,,,,,,,,1,1.2684424580002087,109,001,2019_Sep_05_1612,MusicAffectPsychophysiology2019,3.0.5,59.8026704436107,
To what extent did the music make you feel ,ACTIVE,30MonoWAV/30MonoF1.wav,1,2,2,1,,,,,0,6,6,0,0,4,4,9,,,,,,,,,2,3.0521891719999985,109,001,2019_Sep_05_1612,MusicAffectPsychophysiology2019,3.0.5,59.8026704436107,
To what extent did the music make you feel ,HAPPY,30MonoWAV/30MonoF1.wav,1,2,2,1,,,,,0,6,6,0,0,5,5,6,,,,,,,,,2,1.804518293000001,109,001,2019_Sep_05_1612,MusicAffectPsychophysiology2019,3.0.5,59.8026704436107,
To what extent did the music make you feel ,FRUSTRATED,30MonoWAV/30MonoF1.wav,1,2,2,1,,,,,0,6,6,0,0,6,6,3,,,,,,,,,2,1.390875077999226,109,001,2019_Sep_05_1612,MusicAffectPsychophysiology2019,3.0.5,59.8026704436107,
To what extent did the music make you feel ,ANXIOUS ,30MonoWAV/30MonoF1.wav,1,2,2,1,,,,,0,6,6,0,0,7,7,1,,,,,,,,,5,2.618744246999995,109,001,2019_Sep_05_1612,MusicAffectPsychophysiology2019,3.0.5,59.8026704436107,
To what extent did the music make you feel ,TENDER,30MonoWAV/30MonoF1.wav,1,2,2,1,,,,,0,6,6,0,0,8,8,10,,,,,,,,,3,7.185504334000143,109,001,2019_Sep_05_1612,MusicAffectPsychophysiology2019,3.0.5,59.8026704436107,
To what extent did the music make you feel ,GUILTY,30MonoWAV/30MonoF1.wav,1,2,2,1,,,,,0,6,6,0,0,9,9,5,,,,,,,,,1,2.1696421510005166,109,001,2019_Sep_05_1612,MusicAffectPsychophysiology2019,3.0.5,59.8026704436107,
To what extent did the music make you feel ,ANGRY,30MonoWAV/30MonoF1.wav,1,2,2,1,,,,,0,6,6,0,0,10,10,2,,,,,,,,,3,2.6517271590000746,109,001,2019_Sep_05_1612,MusicAffectPsychophysiology2019,3.0.5,59.8026704436107,
To what extent did the music make you feel ,SCARED,30MonoWAV/30MonoF1.wav,1,2,2,1,,,,,0,6,6,0,0,11,11,11,,,,,,,,,4,5.635713154999394,109,001,2019_Sep_05_1612,MusicAffectPsychophysiology2019,3.0.5,59.8026704436107,
,,30MonoWAV/30MonoF1.wav,1,2,2,1,,,,,0,6,6,0,,,,,,,,,,,,,,,109,001,2019_Sep_05_1612,MusicAffectPsychophysiology2019,3.0.5,59.8026704436107,
To what extent did the music make you feel ,SAD,30MonoWAV/30MonoS4.wav,1,1,3,12,,,,,0,7,7,11,0,0,0,0,,,1,10.332215331000043,2,3.9016742700005125,2,1.7021148960011487,5,2.515038863000882,109,001,2019_Sep_05_1612,MusicAffectPsychophysiology2019,3.0.5,59.8026704436107,
To what extent did the music make you feel ,ANXIOUS ,30MonoWAV/30MonoS4.wav,1,1,3,12,,,,,0,7,7,11,0,1,1,1,,,,,,,,,1,1.4515741530012747,109,001,2019_Sep_05_1612,MusicAffectPsychophysiology2019,3.0.5,59.8026704436107,
To what extent did the music make you feel ,ALERT,30MonoWAV/30MonoS4.wav,1,1,3,12,,,,,0,7,7,11,0,2,2,8,,,,,,,,,1,1.5697967239993886,109,001,2019_Sep_05_1612,MusicAffectPsychophysiology2019,3.0.5,59.8026704436107,
To what extent did the music make you feel ,ANGRY,30MonoWAV/30MonoS4.wav,1,1,3,12,,,,,0,7,7,11,0,3,3,2,,,,,,,,,1,1.6866864179992263,109,001,2019_Sep_05_1612,MusicAffectPsychophysiology2019,3.0.5,59.8026704436107,
To what extent did the music make you feel ,ACTIVE,30MonoWAV/30MonoS4.wav,1,1,3,12,,,,,0,7,7,11,0,4,4,9,,,,,,,,,2,1.5673981090003508,109,001,2019_Sep_05_1612,MusicAffectPsychophysiology2019,3.0.5,59.8026704436107,
To what extent did the music make you feel ,SCARED,30MonoWAV/30MonoS4.wav,1,1,3,12,,,,,0,7,7,11,0,5,5,11,,,,,,,,,1,1.3526043629990454,109,001,2019_Sep_05_1612,MusicAffectPsychophysiology2019,3.0.5,59.8026704436107,
To what extent did the music make you feel ,FRUSTRATED,30MonoWAV/30MonoS4.wav,1,1,3,12,,,,,0,7,7,11,0,6,6,3,,,,,,,,,1,2.601870784001221,109,001,2019_Sep_05_1612,MusicAffectPsychophysiology2019,3.0.5,59.8026704436107,
To what extent did the music make you feel ,TENDER,30MonoWAV/30MonoS4.wav,1,1,3,12,,,,,0,7,7,11,0,7,7,10,,,,,,,,,1,1.0694900440012134,109,001,2019_Sep_05_1612,MusicAffectPsychophysiology2019,3.0.5,59.8026704436107,
To what extent did the music make you feel ,GUILTY,30MonoWAV/30MonoS4.wav,1,1,3,12,,,,,0,7,7,11,0,8,8,5,,,,,,,,,3,2.3859338910006045,109,001,2019_Sep_05_1612,MusicAffectPsychophysiology2019,3.0.5,59.8026704436107,
To what extent did the music make you feel ,ASHAMED,30MonoWAV/30MonoS4.wav,1,1,3,12,,,,,0,7,7,11,0,9,9,4,,,,,,,,,1,1.6183626799993363,109,001,2019_Sep_05_1612,MusicAffectPsychophysiology2019,3.0.5,59.8026704436107,
To what extent did the music make you feel ,EXCITED,30MonoWAV/30MonoS4.wav,1,1,3,12,,,,,0,7,7,11,0,10,10,7,,,,,,,,,1,3.0034298069986107,109,001,2019_Sep_05_1612,MusicAffectPsychophysiology2019,3.0.5,59.8026704436107,
To what extent did the music make you feel ,HAPPY,30MonoWAV/30MonoS4.wav,1,1,3,12,,,,,0,7,7,11,0,11,11,6,,,,,,,,,2,2.152611302999503,109,001,2019_Sep_05_1612,MusicAffectPsychophysiology2019,3.0.5,59.8026704436107,
,,30MonoWAV/30MonoS4.wav,1,1,3,12,,,,,0,7,7,11,,,,,,,,,,,,,,,109,001,2019_Sep_05_1612,MusicAffectPsychophysiology2019,3.0.5,59.8026704436107,
To what extent did the music make you feel ,HAPPY,30MonoWAV/30MonoS3.wav,1,1,3,11,,,,,0,8,8,10,0,0,0,6,,,2,3.902208535999307,2,2.2349084630004654,2,3.736247454000477,2,1.9349118840000301,109,001,2019_Sep_05_1612,MusicAffectPsychophysiology2019,3.0.5,59.8026704436107,
To what extent did the music make you feel ,TENDER,30MonoWAV/30MonoS3.wav,1,1,3,11,,,,,0,8,8,10,0,1,1,10,,,,,,,,,3,6.1520985280003515,109,001,2019_Sep_05_1612,MusicAffectPsychophysiology2019,3.0.5,59.8026704436107,
To what extent did the music make you feel ,ANXIOUS ,30MonoWAV/30MonoS3.wav,1,1,3,11,,,,,0,8,8,10,0,2,2,1,,,,,,,,,3,3.318457663999652,109,001,2019_Sep_05_1612,MusicAffectPsychophysiology2019,3.0.5,59.8026704436107,
To what extent did the music make you feel ,FRUSTRATED,30MonoWAV/30MonoS3.wav,1,1,3,11,,,,,0,8,8,10,0,3,3,3,,,,,,,,,2,1.8027656079993903,109,001,2019_Sep_05_1612,MusicAffectPsychophysiology2019,3.0.5,59.8026704436107,
To what extent did the music make you feel ,ALERT,30MonoWAV/30MonoS3.wav,1,1,3,11,,,,,0,8,8,10,0,4,4,8,,,,,,,,,3,1.8438435349999054,109,001,2019_Sep_05_1612,MusicAffectPsychophysiology2019,3.0.5,59.8026704436107,
To what extent did the music make you feel ,GUILTY,30MonoWAV/30MonoS3.wav,1,1,3,11,,,,,0,8,8,10,0,5,5,5,,,,,,,,,4,5.342651752000165,109,001,2019_Sep_05_1612,MusicAffectPsychophysiology2019,3.0.5,59.8026704436107,
To what extent did the music make you feel ,ASHAMED,30MonoWAV/30MonoS3.wav,1,1,3,11,,,,,0,8,8,10,0,6,6,4,,,,,,,,,2,2.3019500040009007,109,001,2019_Sep_05_1612,MusicAffectPsychophysiology2019,3.0.5,59.8026704436107,
To what extent did the music make you feel ,ANGRY,30MonoWAV/30MonoS3.wav,1,1,3,11,,,,,0,8,8,10,0,7,7,2,,,,,,,,,3,3.0847914819987636,109,001,2019_Sep_05_1612,MusicAffectPsychophysiology2019,3.0.5,59.8026704436107,
To what extent did the music make you feel ,SCARED,30MonoWAV/30MonoS3.wav,1,1,3,11,,,,,0,8,8,10,0,8,8,11,,,,,,,,,3,3.5022927669997443,109,001,2019_Sep_05_1612,MusicAffectPsychophysiology2019,3.0.5,59.8026704436107,
To what extent did the music make you feel ,EXCITED,30MonoWAV/30MonoS3.wav,1,1,3,11,,,,,0,8,8,10,0,9,9,7,,,,,,,,,2,2.602348038000855,109,001,2019_Sep_05_1612,MusicAffectPsychophysiology2019,3.0.5,59.8026704436107,
To what extent did the music make you feel ,SAD,30MonoWAV/30MonoS3.wav,1,1,3,11,,,,,0,8,8,10,0,10,10,0,,,,,,,,,4,1.9507230279996293,109,001,2019_Sep_05_1612,MusicAffectPsychophysiology2019,3.0.5,59.8026704436107,
To what extent did the music make you feel ,ACTIVE,30MonoWAV/30MonoS3.wav,1,1,3,11,,,,,0,8,8,10,0,11,11,9,,,,,,,,,2,1.3354678399991826,109,001,2019_Sep_05_1612,MusicAffectPsychophysiology2019,3.0.5,59.8026704436107,
,,30MonoWAV/30MonoS3.wav,1,1,3,11,,,,,0,8,8,10,,,,,,,,,,,,,,,109,001,2019_Sep_05_1612,MusicAffectPsychophysiology2019,3.0.5,59.8026704436107,
To what extent did the music make you feel ,HAPPY,30MonoWAV/30MonoH3.wav,2,2,1,7,,,,,0,9,9,6,0,0,0,6,,,5,2.5861130970006343,5,5.001142716999311,4,1.102132898000491,5,3.9031353589998616,109,001,2019_Sep_05_1612,MusicAffectPsychophysiology2019,3.0.5,59.8026704436107,
To what extent did the music make you feel ,ANXIOUS ,30MonoWAV/30MonoH3.wav,2,2,1,7,,,,,0,9,9,6,0,1,1,1,,,,,,,,,2,1.8866361759992287,109,001,2019_Sep_05_1612,MusicAffectPsychophysiology2019,3.0.5,59.8026704436107,
To what extent did the music make you feel ,ALERT,30MonoWAV/30MonoH3.wav,2,2,1,7,,,,,0,9,9,6,0,2,2,8,,,,,,,,,3,2.0340771099999984,109,001,2019_Sep_05_1612,MusicAffectPsychophysiology2019,3.0.5,59.8026704436107,
To what extent did the music make you feel ,FRUSTRATED,30MonoWAV/30MonoH3.wav,2,2,1,7,,,,,0,9,9,6,0,3,3,3,,,,,,,,,2,1.1022346839999955,109,001,2019_Sep_05_1612,MusicAffectPsychophysiology2019,3.0.5,59.8026704436107,
To what extent did the music make you feel ,TENDER,30MonoWAV/30MonoH3.wav,2,2,1,7,,,,,0,9,9,6,0,4,4,10,,,,,,,,,2,0.9855482439998013,109,001,2019_Sep_05_1612,MusicAffectPsychophysiology2019,3.0.5,59.8026704436107,
To what extent did the music make you feel ,ANGRY,30MonoWAV/30MonoH3.wav,2,2,1,7,,,,,0,9,9,6,0,5,5,2,,,,,,,,,1,1.451477321999846,109,001,2019_Sep_05_1612,MusicAffectPsychophysiology2019,3.0.5,59.8026704436107,
To what extent did the music make you feel ,GUILTY,30MonoWAV/30MonoH3.wav,2,2,1,7,,,,,0,9,9,6,0,6,6,5,,,,,,,,,1,0.8849422599996615,109,001,2019_Sep_05_1612,MusicAffectPsychophysiology2019,3.0.5,59.8026704436107,
To what extent did the music make you feel ,ACTIVE,30MonoWAV/30MonoH3.wav,2,2,1,7,,,,,0,9,9,6,0,7,7,9,,,,,,,,,5,2.2532362839992857,109,001,2019_Sep_05_1612,MusicAffectPsychophysiology2019,3.0.5,59.8026704436107,
To what extent did the music make you feel ,ASHAMED,30MonoWAV/30MonoH3.wav,2,2,1,7,,,,,0,9,9,6,0,8,8,4,,,,,,,,,1,2.435136648999105,109,001,2019_Sep_05_1612,MusicAffectPsychophysiology2019,3.0.5,59.8026704436107,
To what extent did the music make you feel ,EXCITED,30MonoWAV/30MonoH3.wav,2,2,1,7,,,,,0,9,9,6,0,9,9,7,,,,,,,,,5,3.518724855999608,109,001,2019_Sep_05_1612,MusicAffectPsychophysiology2019,3.0.5,59.8026704436107,
To what extent did the music make you feel ,SAD,30MonoWAV/30MonoH3.wav,2,2,1,7,,,,,0,9,9,6,0,10,10,0,,,,,,,,,1,1.2849879669993243,109,001,2019_Sep_05_1612,MusicAffectPsychophysiology2019,3.0.5,59.8026704436107,
To what extent did the music make you feel ,SCARED,30MonoWAV/30MonoH3.wav,2,2,1,7,,,,,0,9,9,6,0,11,11,11,,,,,,,,,1,1.5020454330006032,109,001,2019_Sep_05_1612,MusicAffectPsychophysiology2019,3.0.5,59.8026704436107,
,,30MonoWAV/30MonoH3.wav,2,2,1,7,,,,,0,9,9,6,,,,,,,,,,,,,,,109,001,2019_Sep_05_1612,MusicAffectPsychophysiology2019,3.0.5,59.8026704436107,
To what extent did the music make you feel ,SCARED,30MonoWAV/30MonoS1.wav,1,1,3,9,,,,,0,10,10,8,0,0,0,11,,,2,2.712274116000117,2,5.957511709000755,2,2.41887869600032,2,2.6183709420001833,109,001,2019_Sep_05_1612,MusicAffectPsychophysiology2019,3.0.5,59.8026704436107,
To what extent did the music make you feel ,HAPPY,30MonoWAV/30MonoS1.wav,1,1,3,9,,,,,0,10,10,8,0,1,1,6,,,,,,,,,2,1.2023598310006491,109,001,2019_Sep_05_1612,MusicAffectPsychophysiology2019,3.0.5,59.8026704436107,
To what extent did the music make you feel ,GUILTY,30MonoWAV/30MonoS1.wav,1,1,3,9,,,,,0,10,10,8,0,2,2,5,,,,,,,,,1,1.5361585979990195,109,001,2019_Sep_05_1612,MusicAffectPsychophysiology2019,3.0.5,59.8026704436107,
To what extent did the music make you feel ,ACTIVE,30MonoWAV/30MonoS1.wav,1,1,3,9,,,,,0,10,10,8,0,3,3,9,,,,,,,,,1,2.935320139999021,109,001,2019_Sep_05_1612,MusicAffectPsychophysiology2019,3.0.5,59.8026704436107,
To what extent did the music make you feel ,FRUSTRATED,30MonoWAV/30MonoS1.wav,1,1,3,9,,,,,0,10,10,8,0,4,4,3,,,,,,,,,1,2.2700384159998066,109,001,2019_Sep_05_1612,MusicAffectPsychophysiology2019,3.0.5,59.8026704436107,
To what extent did the music make you feel ,ANGRY,30MonoWAV/30MonoS1.wav,1,1,3,9,,,,,0,10,10,8,0,5,5,2,,,,,,,,,1,2.285658634998981,109,001,2019_Sep_05_1612,MusicAffectPsychophysiology2019,3.0.5,59.8026704436107,
To what extent did the music make you feel ,EXCITED,30MonoWAV/30MonoS1.wav,1,1,3,9,,,,,0,10,10,8,0,6,6,7,,,,,,,,,2,1.4031242320015735,109,001,2019_Sep_05_1612,MusicAffectPsychophysiology2019,3.0.5,59.8026704436107,
To what extent did the music make you feel ,SAD,30MonoWAV/30MonoS1.wav,1,1,3,9,,,,,0,10,10,8,0,7,7,0,,,,,,,,,5,3.569251730999895,109,001,2019_Sep_05_1612,MusicAffectPsychophysiology2019,3.0.5,59.8026704436107,
To what extent did the music make you feel ,ASHAMED,30MonoWAV/30MonoS1.wav,1,1,3,9,,,,,0,10,10,8,0,8,8,4,,,,,,,,,2,2.2694871709991276,109,001,2019_Sep_05_1612,MusicAffectPsychophysiology2019,3.0.5,59.8026704436107,
To what extent did the music make you feel ,ANXIOUS ,30MonoWAV/30MonoS1.wav,1,1,3,9,,,,,0,10,10,8,0,9,9,1,,,,,,,,,1,1.5694951360001141,109,001,2019_Sep_05_1612,MusicAffectPsychophysiology2019,3.0.5,59.8026704436107,
To what extent did the music make you feel ,ALERT,30MonoWAV/30MonoS1.wav,1,1,3,9,,,,,0,10,10,8,0,10,10,8,,,,,,,,,1,1.5164150660002633,109,001,2019_Sep_05_1612,MusicAffectPsychophysiology2019,3.0.5,59.8026704436107,
To what extent did the music make you feel ,TENDER,30MonoWAV/30MonoS1.wav,1,1,3,9,,,,,0,10,10,8,0,11,11,10,,,,,,,,,2,1.3519810650013824,109,001,2019_Sep_05_1612,MusicAffectPsychophysiology2019,3.0.5,59.8026704436107,
,,30MonoWAV/30MonoS1.wav,1,1,3,9,,,,,0,10,10,8,,,,,,,,,,,,,,,109,001,2019_Sep_05_1612,MusicAffectPsychophysiology2019,3.0.5,59.8026704436107,
To what extent did the music make you feel ,SAD,30MonoWAV/30MonoH1.wav,2,2,1,5,,,,,0,11,11,4,0,0,0,0,,,5,2.916322899000079,4,3.285827722000249,5,1.7185586450013943,1,1.3433575439994456,109,001,2019_Sep_05_1612,MusicAffectPsychophysiology2019,3.0.5,59.8026704436107,
To what extent did the music make you feel ,EXCITED,30MonoWAV/30MonoH1.wav,2,2,1,5,,,,,0,11,11,4,0,1,1,7,,,,,,,,,4,1.5521886280002946,109,001,2019_Sep_05_1612,MusicAffectPsychophysiology2019,3.0.5,59.8026704436107,
To what extent did the music make you feel ,ANGRY,30MonoWAV/30MonoH1.wav,2,2,1,5,,,,,0,11,11,4,0,2,2,2,,,,,,,,,1,1.1374532350000663,109,001,2019_Sep_05_1612,MusicAffectPsychophysiology2019,3.0.5,59.8026704436107,
To what extent did the music make you feel ,FRUSTRATED,30MonoWAV/30MonoH1.wav,2,2,1,5,,,,,0,11,11,4,0,3,3,3,,,,,,,,,2,1.4731565649999538,109,001,2019_Sep_05_1612,MusicAffectPsychophysiology2019,3.0.5,59.8026704436107,
To what extent did the music make you feel ,ANXIOUS ,30MonoWAV/30MonoH1.wav,2,2,1,5,,,,,0,11,11,4,0,4,4,1,,,,,,,,,2,2.685209286000827,109,001,2019_Sep_05_1612,MusicAffectPsychophysiology2019,3.0.5,59.8026704436107,
To what extent did the music make you feel ,GUILTY,30MonoWAV/30MonoH1.wav,2,2,1,5,,,,,0,11,11,4,0,5,5,5,,,,,,,,,1,1.2189309780005715,109,001,2019_Sep_05_1612,MusicAffectPsychophysiology2019,3.0.5,59.8026704436107,
To what extent did the music make you feel ,ALERT,30MonoWAV/30MonoH1.wav,2,2,1,5,,,,,0,11,11,4,0,6,6,8,,,,,,,,,2,1.7353818619994854,109,001,2019_Sep_05_1612,MusicAffectPsychophysiology2019,3.0.5,59.8026704436107,
To what extent did the music make you feel ,SCARED,30MonoWAV/30MonoH1.wav,2,2,1,5,,,,,0,11,11,4,0,7,7,11,,,,,,,,,1,1.2525405490014236,109,001,2019_Sep_05_1612,MusicAffectPsychophysiology2019,3.0.5,59.8026704436107,
To what extent did the music make you feel ,ACTIVE,30MonoWAV/30MonoH1.wav,2,2,1,5,,,,,0,11,11,4,0,8,8,9,,,,,,,,,5,1.536540936000165,109,001,2019_Sep_05_1612,MusicAffectPsychophysiology2019,3.0.5,59.8026704436107,
To what extent did the music make you feel ,ASHAMED,30MonoWAV/30MonoH1.wav,2,2,1,5,,,,,0,11,11,4,0,9,9,4,,,,,,,,,1,2.6686979090009117,109,001,2019_Sep_05_1612,MusicAffectPsychophysiology2019,3.0.5,59.8026704436107,
To what extent did the music make you feel ,HAPPY,30MonoWAV/30MonoH1.wav,2,2,1,5,,,,,0,11,11,4,0,10,10,6,,,,,,,,,5,3.1845884899994417,109,001,2019_Sep_05_1612,MusicAffectPsychophysiology2019,3.0.5,59.8026704436107,
To what extent did the music make you feel ,TENDER,30MonoWAV/30MonoH1.wav,2,2,1,5,,,,,0,11,11,4,0,11,11,10,,,,,,,,,2,1.249696426999435,109,001,2019_Sep_05_1612,MusicAffectPsychophysiology2019,3.0.5,59.8026704436107,
,,30MonoWAV/30MonoH1.wav,2,2,1,5,,,,,0,11,11,4,,,,,,,,,,,,,,,109,001,2019_Sep_05_1612,MusicAffectPsychophysiology2019,3.0.5,59.8026704436107,
To what extent did the music make you feel ,FRUSTRATED,30MonoWAV/30MonoT1.wav,2,1,4,13,,,,,0,12,12,12,0,0,0,3,,,3,5.018652328999451,3,1.5538077410001279,3,2.0854804549999244,2,1.5586341960006393,109,001,2019_Sep_05_1612,MusicAffectPsychophysiology2019,3.0.5,59.8026704436107,
To what extent did the music make you feel ,ANXIOUS ,30MonoWAV/30MonoT1.wav,2,1,4,13,,,,,0,12,12,12,0,1,1,1,,,,,,,,,1,1.9860229749992868,109,001,2019_Sep_05_1612,MusicAffectPsychophysiology2019,3.0.5,59.8026704436107,
To what extent did the music make you feel ,ALERT,30MonoWAV/30MonoT1.wav,2,1,4,13,,,,,0,12,12,12,0,2,2,8,,,,,,,,,1,0.9516187490007724,109,001,2019_Sep_05_1612,MusicAffectPsychophysiology2019,3.0.5,59.8026704436107,
To what extent did the music make you feel ,GUILTY,30MonoWAV/30MonoT1.wav,2,1,4,13,,,,,0,12,12,12,0,3,3,5,,,,,,,,,1,0.9345253749997937,109,001,2019_Sep_05_1612,MusicAffectPsychophysiology2019,3.0.5,59.8026704436107,
To what extent did the music make you feel ,TENDER,30MonoWAV/30MonoT1.wav,2,1,4,13,,,,,0,12,12,12,0,4,4,10,,,,,,,,,2,1.5505569230008405,109,001,2019_Sep_05_1612,MusicAffectPsychophysiology2019,3.0.5,59.8026704436107,
To what extent did the music make you feel ,EXCITED,30MonoWAV/30MonoT1.wav,2,1,4,13,,,,,0,12,12,12,0,5,5,7,,,,,,,,,2,1.4859454790002928,109,001,2019_Sep_05_1612,MusicAffectPsychophysiology2019,3.0.5,59.8026704436107,
To what extent did the music make you feel ,ACTIVE,30MonoWAV/30MonoT1.wav,2,1,4,13,,,,,0,12,12,12,0,6,6,9,,,,,,,,,3,2.018667717999051,109,001,2019_Sep_05_1612,MusicAffectPsychophysiology2019,3.0.5,59.8026704436107,
To what extent did the music make you feel ,ASHAMED,30MonoWAV/30MonoT1.wav,2,1,4,13,,,,,0,12,12,12,0,7,7,4,,,,,,,,,1,1.38566692600034,109,001,2019_Sep_05_1612,MusicAffectPsychophysiology2019,3.0.5,59.8026704436107,
To what extent did the music make you feel ,HAPPY,30MonoWAV/30MonoT1.wav,2,1,4,13,,,,,0,12,12,12,0,8,8,6,,,,,,,,,4,2.902935558000536,109,001,2019_Sep_05_1612,MusicAffectPsychophysiology2019,3.0.5,59.8026704436107,
To what extent did the music make you feel ,ANGRY,30MonoWAV/30MonoT1.wav,2,1,4,13,,,,,0,12,12,12,0,9,9,2,,,,,,,,,1,8.900863754000966,109,001,2019_Sep_05_1612,MusicAffectPsychophysiology2019,3.0.5,59.8026704436107,
To what extent did the music make you feel ,SCARED,30MonoWAV/30MonoT1.wav,2,1,4,13,,,,,0,12,12,12,0,10,10,11,,,,,,,,,1,1.3022092769988376,109,001,2019_Sep_05_1612,MusicAffectPsychophysiology2019,3.0.5,59.8026704436107,
To what extent did the music make you feel ,SAD,30MonoWAV/30MonoT1.wav,2,1,4,13,,,,,0,12,12,12,0,11,11,0,,,,,,,,,1,1.6525372690011864,109,001,2019_Sep_05_1612,MusicAffectPsychophysiology2019,3.0.5,59.8026704436107,
,,30MonoWAV/30MonoT1.wav,2,1,4,13,,,,,0,12,12,12,,,,,,,,,,,,,,,109,001,2019_Sep_05_1612,MusicAffectPsychophysiology2019,3.0.5,59.8026704436107,
To what extent did the music make you feel ,ANGRY,30MonoWAV/30MonoH4.wav,2,2,1,8,,,,,0,13,13,7,0,0,0,2,,,5,3.9183139619999565,5,0.9014631980007834,4,1.4187962409996544,1,1.2857406499988429,109,001,2019_Sep_05_1612,MusicAffectPsychophysiology2019,3.0.5,59.8026704436107,
To what extent did the music make you feel ,HAPPY,30MonoWAV/30MonoH4.wav,2,2,1,8,,,,,0,13,13,7,0,1,1,6,,,,,,,,,5,1.4853493199989316,109,001,2019_Sep_05_1612,MusicAffectPsychophysiology2019,3.0.5,59.8026704436107,
To what extent did the music make you feel ,FRUSTRATED,30MonoWAV/30MonoH4.wav,2,2,1,8,,,,,0,13,13,7,0,2,2,3,,,,,,,,,2,3.3039145359998656,109,001,2019_Sep_05_1612,MusicAffectPsychophysiology2019,3.0.5,59.8026704436107,
To what extent did the music make you feel ,EXCITED,30MonoWAV/30MonoH4.wav,2,2,1,8,,,,,0,13,13,7,0,3,3,7,,,,,,,,,4,2.367077960001552,109,001,2019_Sep_05_1612,MusicAffectPsychophysiology2019,3.0.5,59.8026704436107,
To what extent did the music make you feel ,SAD,30MonoWAV/30MonoH4.wav,2,2,1,8,,,,,0,13,13,7,0,4,4,0,,,,,,,,,1,1.2859516609987622,109,001,2019_Sep_05_1612,MusicAffectPsychophysiology2019,3.0.5,59.8026704436107,
To what extent did the music make you feel ,ACTIVE,30MonoWAV/30MonoH4.wav,2,2,1,8,,,,,0,13,13,7,0,5,5,9,,,,,,,,,5,1.2671863479990861,109,001,2019_Sep_05_1612,MusicAffectPsychophysiology2019,3.0.5,59.8026704436107,
To what extent did the music make you feel ,GUILTY,30MonoWAV/30MonoH4.wav,2,2,1,8,,,,,0,13,13,7,0,6,6,5,,,,,,,,,1,1.0190732020000723,109,001,2019_Sep_05_1612,MusicAffectPsychophysiology2019,3.0.5,59.8026704436107,
To what extent did the music make you feel ,SCARED,30MonoWAV/30MonoH4.wav,2,2,1,8,,,,,0,13,13,7,0,7,7,11,,,,,,,,,1,1.6358696520001104,109,001,2019_Sep_05_1612,MusicAffectPsychophysiology2019,3.0.5,59.8026704436107,
To what extent did the music make you feel ,ASHAMED,30MonoWAV/30MonoH4.wav,2,2,1,8,,,,,0,13,13,7,0,8,8,4,,,,,,,,,1,1.1039416049989086,109,001,2019_Sep_05_1612,MusicAffectPsychophysiology2019,3.0.5,59.8026704436107,
To what extent did the music make you feel ,TENDER,30MonoWAV/30MonoH4.wav,2,2,1,8,,,,,0,13,13,7,0,9,9,10,,,,,,,,,2,1.2189066010014358,109,001,2019_Sep_05_1612,MusicAffectPsychophysiology2019,3.0.5,59.8026704436107,
To what extent did the music make you feel ,ALERT,30MonoWAV/30MonoH4.wav,2,2,1,8,,,,,0,13,13,7,0,10,10,8,,,,,,,,,2,2.0679620539995085,109,001,2019_Sep_05_1612,MusicAffectPsychophysiology2019,3.0.5,59.8026704436107,
To what extent did the music make you feel ,ANXIOUS ,30MonoWAV/30MonoH4.wav,2,2,1,8,,,,,0,13,13,7,0,11,11,1,,,,,,,,,3,3.7676265249992866,109,001,2019_Sep_05_1612,MusicAffectPsychophysiology2019,3.0.5,59.8026704436107,
,,30MonoWAV/30MonoH4.wav,2,2,1,8,,,,,0,13,13,7,,,,,,,,,,,,,,,109,001,2019_Sep_05_1612,MusicAffectPsychophysiology2019,3.0.5,59.8026704436107,
To what extent did the music make you feel ,GUILTY,30MonoWAV/30MonoT4.wav,2,1,4,16,,,,,0,14,14,15,0,0,0,5,,,3,4.303233533000821,4,1.5331403100008174,4,1.518603174999953,1,2.3316698290000204,109,001,2019_Sep_05_1612,MusicAffectPsychophysiology2019,3.0.5,59.8026704436107,
To what extent did the music make you feel ,HAPPY,30MonoWAV/30MonoT4.wav,2,1,4,16,,,,,0,14,14,15,0,1,1,6,,,,,,,,,4,4.535360341000342,109,001,2019_Sep_05_1612,MusicAffectPsychophysiology2019,3.0.5,59.8026704436107,
To what extent did the music make you feel ,EXCITED,30MonoWAV/30MonoT4.wav,2,1,4,16,,,,,0,14,14,15,0,2,2,7,,,,,,,,,3,1.385458254999321,109,001,2019_Sep_05_1612,MusicAffectPsychophysiology2019,3.0.5,59.8026704436107,
To what extent did the music make you feel ,ANGRY,30MonoWAV/30MonoT4.wav,2,1,4,16,,,,,0,14,14,15,0,3,3,2,,,,,,,,,1,1.3027274340001895,109,001,2019_Sep_05_1612,MusicAffectPsychophysiology2019,3.0.5,59.8026704436107,
To what extent did the music make you feel ,ACTIVE,30MonoWAV/30MonoT4.wav,2,1,4,16,,,,,0,14,14,15,0,4,4,9,,,,,,,,,4,2.6192525639999076,109,001,2019_Sep_05_1612,MusicAffectPsychophysiology2019,3.0.5,59.8026704436107,
To what extent did the music make you feel ,TENDER,30MonoWAV/30MonoT4.wav,2,1,4,16,,,,,0,14,14,15,0,5,5,10,,,,,,,,,2,1.5686842149989388,109,001,2019_Sep_05_1612,MusicAffectPsychophysiology2019,3.0.5,59.8026704436107,
To what extent did the music make you feel ,ANXIOUS ,30MonoWAV/30MonoT4.wav,2,1,4,16,,,,,0,14,14,15,0,6,6,1,,,,,,,,,1,1.6024334739995538,109,001,2019_Sep_05_1612,MusicAffectPsychophysiology2019,3.0.5,59.8026704436107,
To what extent did the music make you feel ,ASHAMED,30MonoWAV/30MonoT4.wav,2,1,4,16,,,,,0,14,14,15,0,7,7,4,,,,,,,,,1,0.8028324139995675,109,001,2019_Sep_05_1612,MusicAffectPsychophysiology2019,3.0.5,59.8026704436107,
To what extent did the music make you feel ,SCARED,30MonoWAV/30MonoT4.wav,2,1,4,16,,,,,0,14,14,15,0,8,8,11,,,,,,,,,1,0.7859840199998871,109,001,2019_Sep_05_1612,MusicAffectPsychophysiology2019,3.0.5,59.8026704436107,
To what extent did the music make you feel ,SAD,30MonoWAV/30MonoT4.wav,2,1,4,16,,,,,0,14,14,15,0,9,9,0,,,,,,,,,1,1.3678066470001795,109,001,2019_Sep_05_1612,MusicAffectPsychophysiology2019,3.0.5,59.8026704436107,
To what extent did the music make you feel ,ALERT,30MonoWAV/30MonoT4.wav,2,1,4,16,,,,,0,14,14,15,0,10,10,8,,,,,,,,,1,0.8181020499996521,109,001,2019_Sep_05_1612,MusicAffectPsychophysiology2019,3.0.5,59.8026704436107,
To what extent did the music make you feel ,FRUSTRATED,30MonoWAV/30MonoT4.wav,2,1,4,16,,,,,0,14,14,15,0,11,11,3,,,,,,,,,1,0.9029890020010498,109,001,2019_Sep_05_1612,MusicAffectPsychophysiology2019,3.0.5,59.8026704436107,
,,30MonoWAV/30MonoT4.wav,2,1,4,16,,,,,0,14,14,15,,,,,,,,,,,,,,,109,001,2019_Sep_05_1612,MusicAffectPsychophysiology2019,3.0.5,59.8026704436107,
To what extent did the music make you feel ,SCARED,30MonoWAV/30MonoF4.wav,1,2,2,4,,,,,0,15,15,3,0,0,0,11,,,3,3.435545076999915,2,1.5357482069994148,2,1.8198380260000704,5,2.334647434001454,109,001,2019_Sep_05_1612,MusicAffectPsychophysiology2019,3.0.5,59.8026704436107,
To what extent did the music make you feel ,FRUSTRATED,30MonoWAV/30MonoF4.wav,1,2,2,4,,,,,0,15,15,3,0,1,1,3,,,,,,,,,3,1.5692928040007246,109,001,2019_Sep_05_1612,MusicAffectPsychophysiology2019,3.0.5,59.8026704436107,
To what extent did the music make you feel ,TENDER,30MonoWAV/30MonoF4.wav,1,2,2,4,,,,,0,15,15,3,0,2,2,10,,,,,,,,,3,0.8515164689997619,109,001,2019_Sep_05_1612,MusicAffectPsychophysiology2019,3.0.5,59.8026704436107,
To what extent did the music make you feel ,ANGRY,30MonoWAV/30MonoF4.wav,1,2,2,4,,,,,0,15,15,3,0,3,3,2,,,,,,,,,2,4.320032846999311,109,001,2019_Sep_05_1612,MusicAffectPsychophysiology2019,3.0.5,59.8026704436107,
To what extent did the music make you feel ,SAD,30MonoWAV/30MonoF4.wav,1,2,2,4,,,,,0,15,15,3,0,4,4,0,,,,,,,,,3,2.0181390329998976,109,001,2019_Sep_05_1612,MusicAffectPsychophysiology2019,3.0.5,59.8026704436107,
To what extent did the music make you feel ,ALERT,30MonoWAV/30MonoF4.wav,1,2,2,4,,,,,0,15,15,3,0,5,5,8,,,,,,,,,5,1.5199706929997774,109,001,2019_Sep_05_1612,MusicAffectPsychophysiology2019,3.0.5,59.8026704436107,
To what extent did the music make you feel ,EXCITED,30MonoWAV/30MonoF4.wav,1,2,2,4,,,,,0,15,15,3,0,6,6,7,,,,,,,,,3,1.6531604009996954,109,001,2019_Sep_05_1612,MusicAffectPsychophysiology2019,3.0.5,59.8026704436107,
To what extent did the music make you feel ,HAPPY,30MonoWAV/30MonoF4.wav,1,2,2,4,,,,,0,15,15,3,0,7,7,6,,,,,,,,,2,1.1523675169992202,109,001,2019_Sep_05_1612,MusicAffectPsychophysiology2019,3.0.5,59.8026704436107,
To what extent did the music make you feel ,GUILTY,30MonoWAV/30MonoF4.wav,1,2,2,4,,,,,0,15,15,3,0,8,8,5,,,,,,,,,1,1.2014100750002399,109,001,2019_Sep_05_1612,MusicAffectPsychophysiology2019,3.0.5,59.8026704436107,
To what extent did the music make you feel ,ANXIOUS ,30MonoWAV/30MonoF4.wav,1,2,2,4,,,,,0,15,15,3,0,9,9,1,,,,,,,,,5,1.6695863620007003,109,001,2019_Sep_05_1612,MusicAffectPsychophysiology2019,3.0.5,59.8026704436107,
To what extent did the music make you feel ,ASHAMED,30MonoWAV/30MonoF4.wav,1,2,2,4,,,,,0,15,15,3,0,10,10,4,,,,,,,,,1,1.168443437998576,109,001,2019_Sep_05_1612,MusicAffectPsychophysiology2019,3.0.5,59.8026704436107,
To what extent did the music make you feel ,ACTIVE,30MonoWAV/30MonoF4.wav,1,2,2,4,,,,,0,15,15,3,0,11,11,9,,,,,,,,,2,4.382841179000025,109,001,2019_Sep_05_1612,MusicAffectPsychophysiology2019,3.0.5,59.8026704436107,
,,30MonoWAV/30MonoF4.wav,1,2,2,4,,,,,0,15,15,3,,,,,,,,,,,,,,,109,001,2019_Sep_05_1612,MusicAffectPsychophysiology2019,3.0.5,59.8026704436107,
To what extent did the music make you feel ,ACTIVE,30MonoWAV/30MonoF1.wav,1,2,2,1,,,,,1,0,16,0,0,0,0,9,,,3,6.36896800699833,2,2.5350336610008526,2,2.0193744270000025,2,1.9822876739999629,109,001,2019_Sep_05_1612,MusicAffectPsychophysiology2019,3.0.5,59.8026704436107,
To what extent did the music make you feel ,ANXIOUS ,30MonoWAV/30MonoF1.wav,1,2,2,1,,,,,1,0,16,0,0,1,1,1,,,,,,,,,5,2.4858231700000033,109,001,2019_Sep_05_1612,MusicAffectPsychophysiology2019,3.0.5,59.8026704436107,
To what extent did the music make you feel ,SCARED,30MonoWAV/30MonoF1.wav,1,2,2,1,,,,,1,0,16,0,0,2,2,11,,,,,,,,,4,1.518617304000145,109,001,2019_Sep_05_1612,MusicAffectPsychophysiology2019,3.0.5,59.8026704436107,
To what extent did the music make you feel ,ANGRY,30MonoWAV/30MonoF1.wav,1,2,2,1,,,,,1,0,16,0,0,3,3,2,,,,,,,,,2,1.4866274150008394,109,001,2019_Sep_05_1612,MusicAffectPsychophysiology2019,3.0.5,59.8026704436107,
To what extent did the music make you feel ,ASHAMED,30MonoWAV/30MonoF1.wav,1,2,2,1,,,,,1,0,16,0,0,4,4,4,,,,,,,,,1,0.9693831109998428,109,001,2019_Sep_05_1612,MusicAffectPsychophysiology2019,3.0.5,59.8026704436107,
To what extent did the music make you feel ,ALERT,30MonoWAV/30MonoF1.wav,1,2,2,1,,,,,1,0,16,0,0,5,5,8,,,,,,,,,5,1.4860789150006894,109,001,2019_Sep_05_1612,MusicAffectPsychophysiology2019,3.0.5,59.8026704436107,
To what extent did the music make you feel ,FRUSTRATED,30MonoWAV/30MonoF1.wav,1,2,2,1,,,,,1,0,16,0,0,6,6,3,,,,,,,,,3,1.448321608999322,109,001,2019_Sep_05_1612,MusicAffectPsychophysiology2019,3.0.5,59.8026704436107,
To what extent did the music make you feel ,HAPPY,30MonoWAV/30MonoF1.wav,1,2,2,1,,,,,1,0,16,0,0,7,7,6,,,,,,,,,2,1.0196667270010948,109,001,2019_Sep_05_1612,MusicAffectPsychophysiology2019,3.0.5,59.8026704436107,
To what extent did the music make you feel ,SAD,30MonoWAV/30MonoF1.wav,1,2,2,1,,,,,1,0,16,0,0,8,8,0,,,,,,,,,2,3.083177948001321,109,001,2019_Sep_05_1612,MusicAffectPsychophysiology2019,3.0.5,59.8026704436107,
To what extent did the music make you feel ,TENDER,30MonoWAV/30MonoF1.wav,1,2,2,1,,,,,1,0,16,0,0,9,9,10,,,,,,,,,3,8.9014868330014,109,001,2019_Sep_05_1612,MusicAffectPsychophysiology2019,3.0.5,59.8026704436107,
To what extent did the music make you feel ,EXCITED,30MonoWAV/30MonoF1.wav,1,2,2,1,,,,,1,0,16,0,0,10,10,7,,,,,,,,,3,5.718820461001087,109,001,2019_Sep_05_1612,MusicAffectPsychophysiology2019,3.0.5,59.8026704436107,
To what extent did the music make you feel ,GUILTY,30MonoWAV/30MonoF1.wav,1,2,2,1,,,,,1,0,16,0,0,11,11,5,,,,,,,,,1,1.383600231998571,109,001,2019_Sep_05_1612,MusicAffectPsychophysiology2019,3.0.5,59.8026704436107,
,,30MonoWAV/30MonoF1.wav,1,2,2,1,,,,,1,0,16,0,,,,,,,,,,,,,,,109,001,2019_Sep_05_1612,MusicAffectPsychophysiology2019,3.0.5,59.8026704436107,
To what extent did the music make you feel ,TENDER,30MonoWAV/30MonoS3.wav,1,1,3,11,,,,,1,1,17,10,0,0,0,10,,,1,2.8524342700002308,1,1.185996215999694,1,2.1524554030002037,2,2.779754769999272,109,001,2019_Sep_05_1612,MusicAffectPsychophysiology2019,3.0.5,59.8026704436107,
To what extent did the music make you feel ,GUILTY,30MonoWAV/30MonoS3.wav,1,1,3,11,,,,,1,1,17,10,0,1,1,5,,,,,,,,,3,2.6689310149995435,109,001,2019_Sep_05_1612,MusicAffectPsychophysiology2019,3.0.5,59.8026704436107,
To what extent did the music make you feel ,FRUSTRATED,30MonoWAV/30MonoS3.wav,1,1,3,11,,,,,1,1,17,10,0,2,2,3,,,,,,,,,2,1.4029977879999933,109,001,2019_Sep_05_1612,MusicAffectPsychophysiology2019,3.0.5,59.8026704436107,
To what extent did the music make you feel ,ASHAMED,30MonoWAV/30MonoS3.wav,1,1,3,11,,,,,1,1,17,10,0,3,3,4,,,,,,,,,3,1.7844478750012058,109,001,2019_Sep_05_1612,MusicAffectPsychophysiology2019,3.0.5,59.8026704436107,
To what extent did the music make you feel ,EXCITED,30MonoWAV/30MonoS3.wav,1,1,3,11,,,,,1,1,17,10,0,4,4,7,,,,,,,,,2,1.0343151580000267,109,001,2019_Sep_05_1612,MusicAffectPsychophysiology2019,3.0.5,59.8026704436107,
To what extent did the music make you feel ,ANGRY,30MonoWAV/30MonoS3.wav,1,1,3,11,,,,,1,1,17,10,0,5,5,2,,,,,,,,,2,2.601348975000292,109,001,2019_Sep_05_1612,MusicAffectPsychophysiology2019,3.0.5,59.8026704436107,
To what extent did the music make you feel ,HAPPY,30MonoWAV/30MonoS3.wav,1,1,3,11,,,,,1,1,17,10,0,6,6,6,,,,,,,,,2,0.9362343049997435,109,001,2019_Sep_05_1612,MusicAffectPsychophysiology2019,3.0.5,59.8026704436107,
To what extent did the music make you feel ,SAD,30MonoWAV/30MonoS3.wav,1,1,3,11,,,,,1,1,17,10,0,7,7,0,,,,,,,,,5,1.8025891190009133,109,001,2019_Sep_05_1612,MusicAffectPsychophysiology2019,3.0.5,59.8026704436107,
To what extent did the music make you feel ,ALERT,30MonoWAV/30MonoS3.wav,1,1,3,11,,,,,1,1,17,10,0,8,8,8,,,,,,,,,3,1.752920920998804,109,001,2019_Sep_05_1612,MusicAffectPsychophysiology2019,3.0.5,59.8026704436107,
To what extent did the music make you feel ,ANXIOUS ,30MonoWAV/30MonoS3.wav,1,1,3,11,,,,,1,1,17,10,0,9,9,1,,,,,,,,,5,3.3193023650001123,109,001,2019_Sep_05_1612,MusicAffectPsychophysiology2019,3.0.5,59.8026704436107,
To what extent did the music make you feel ,SCARED,30MonoWAV/30MonoS3.wav,1,1,3,11,,,,,1,1,17,10,0,10,10,11,,,,,,,,,2,1.9697021970005153,109,001,2019_Sep_05_1612,MusicAffectPsychophysiology2019,3.0.5,59.8026704436107,
To what extent did the music make you feel ,ACTIVE,30MonoWAV/30MonoS3.wav,1,1,3,11,,,,,1,1,17,10,0,11,11,9,,,,,,,,,1,2.002549390999775,109,001,2019_Sep_05_1612,MusicAffectPsychophysiology2019,3.0.5,59.8026704436107,
,,30MonoWAV/30MonoS3.wav,1,1,3,11,,,,,1,1,17,10,,,,,,,,,,,,,,,109,001,2019_Sep_05_1612,MusicAffectPsychophysiology2019,3.0.5,59.8026704436107,
To what extent did the music make you feel ,ANXIOUS ,30MonoWAV/30MonoH3.wav,2,2,1,7,,,,,1,2,18,6,0,0,0,1,,,5,3.217015733998778,5,2.068114018000415,4,1.0670683900007134,2,1.776543126001343,109,001,2019_Sep_05_1612,MusicAffectPsychophysiology2019,3.0.5,59.8026704436107,
To what extent did the music make you feel ,TENDER,30MonoWAV/30MonoH3.wav,2,2,1,7,,,,,1,2,18,6,0,1,1,10,,,,,,,,,2,2.3849574989999383,109,001,2019_Sep_05_1612,MusicAffectPsychophysiology2019,3.0.5,59.8026704436107,
To what extent did the music make you feel ,FRUSTRATED,30MonoWAV/30MonoH3.wav,2,2,1,7,,,,,1,2,18,6,0,2,2,3,,,,,,,,,2,5.384888270998999,109,001,2019_Sep_05_1612,MusicAffectPsychophysiology2019,3.0.5,59.8026704436107,
To what extent did the music make you feel ,ALERT,30MonoWAV/30MonoH3.wav,2,2,1,7,,,,,1,2,18,6,0,3,3,8,,,,,,,,,3,1.736323547000211,109,001,2019_Sep_05_1612,MusicAffectPsychophysiology2019,3.0.5,59.8026704436107,
To what extent did the music make you feel ,SAD,30MonoWAV/30MonoH3.wav,2,2,1,7,,,,,1,2,18,6,0,4,4,0,,,,,,,,,1,1.633928138999181,109,001,2019_Sep_05_1612,MusicAffectPsychophysiology2019,3.0.5,59.8026704436107,
To what extent did the music make you feel ,ASHAMED,30MonoWAV/30MonoH3.wav,2,2,1,7,,,,,1,2,18,6,0,5,5,4,,,,,,,,,1,1.269427111999903,109,001,2019_Sep_05_1612,MusicAffectPsychophysiology2019,3.0.5,59.8026704436107,
To what extent did the music make you feel ,GUILTY,30MonoWAV/30MonoH3.wav,2,2,1,7,,,,,1,2,18,6,0,6,6,5,,,,,,,,,1,0.8857354049996502,109,001,2019_Sep_05_1612,MusicAffectPsychophysiology2019,3.0.5,59.8026704436107,
To what extent did the music make you feel ,HAPPY,30MonoWAV/30MonoH3.wav,2,2,1,7,,,,,1,2,18,6,0,7,7,6,,,,,,,,,4,1.6163591650001763,109,001,2019_Sep_05_1612,MusicAffectPsychophysiology2019,3.0.5,59.8026704436107,
To what extent did the music make you feel ,SCARED,30MonoWAV/30MonoH3.wav,2,2,1,7,,,,,1,2,18,6,0,8,8,11,,,,,,,,,2,1.4517902640000102,109,001,2019_Sep_05_1612,MusicAffectPsychophysiology2019,3.0.5,59.8026704436107,
To what extent did the music make you feel ,ACTIVE,30MonoWAV/30MonoH3.wav,2,2,1,7,,,,,1,2,18,6,0,9,9,9,,,,,,,,,5,1.8188896310002747,109,001,2019_Sep_05_1612,MusicAffectPsychophysiology2019,3.0.5,59.8026704436107,
To what extent did the music make you feel ,ANGRY,30MonoWAV/30MonoH3.wav,2,2,1,7,,,,,1,2,18,6,0,10,10,2,,,,,,,,,1,1.3203027759991528,109,001,2019_Sep_05_1612,MusicAffectPsychophysiology2019,3.0.5,59.8026704436107,
To what extent did the music make you feel ,EXCITED,30MonoWAV/30MonoH3.wav,2,2,1,7,,,,,1,2,18,6,0,11,11,7,,,,,,,,,4,1.2190555140005017,109,001,2019_Sep_05_1612,MusicAffectPsychophysiology2019,3.0.5,59.8026704436107,
,,30MonoWAV/30MonoH3.wav,2,2,1,7,,,,,1,2,18,6,,,,,,,,,,,,,,,109,001,2019_Sep_05_1612,MusicAffectPsychophysiology2019,3.0.5,59.8026704436107,
To what extent did the music make you feel ,EXCITED,30MonoWAV/30MonoT4.wav,2,1,4,16,,,,,1,3,19,15,0,0,0,7,,,3,3.635258612999678,3,4.635495997999897,3,2.2011010450005415,2,2.634951746000297,109,001,2019_Sep_05_1612,MusicAffectPsychophysiology2019,3.0.5,59.8026704436107,
To what extent did the music make you feel ,GUILTY,30MonoWAV/30MonoT4.wav,2,1,4,16,,,,,1,3,19,15,0,1,1,5,,,,,,,,,2,1.8857313570006227,109,001,2019_Sep_05_1612,MusicAffectPsychophysiology2019,3.0.5,59.8026704436107,
To what extent did the music make you feel ,TENDER,30MonoWAV/30MonoT4.wav,2,1,4,16,,,,,1,3,19,15,0,2,2,10,,,,,,,,,2,1.0691672110006039,109,001,2019_Sep_05_1612,MusicAffectPsychophysiology2019,3.0.5,59.8026704436107,
To what extent did the music make you feel ,ANXIOUS ,30MonoWAV/30MonoT4.wav,2,1,4,16,,,,,1,3,19,15,0,3,3,1,,,,,,,,,2,2.5531458759996895,109,001,2019_Sep_05_1612,MusicAffectPsychophysiology2019,3.0.5,59.8026704436107,
To what extent did the music make you feel ,ACTIVE,30MonoWAV/30MonoT4.wav,2,1,4,16,,,,,1,3,19,15,0,4,4,9,,,,,,,,,3,4.199544540000716,109,001,2019_Sep_05_1612,MusicAffectPsychophysiology2019,3.0.5,59.8026704436107,
To what extent did the music make you feel ,SAD,30MonoWAV/30MonoT4.wav,2,1,4,16,,,,,1,3,19,15,0,5,5,0,,,,,,,,,2,1.2024793020009383,109,001,2019_Sep_05_1612,MusicAffectPsychophysiology2019,3.0.5,59.8026704436107,
To what extent did the music make you feel ,HAPPY,30MonoWAV/30MonoT4.wav,2,1,4,16,,,,,1,3,19,15,0,6,6,6,,,,,,,,,4,1.91751105000003,109,001,2019_Sep_05_1612,MusicAffectPsychophysiology2019,3.0.5,59.8026704436107,
To what extent did the music make you feel ,FRUSTRATED,30MonoWAV/30MonoT4.wav,2,1,4,16,,,,,1,3,19,15,0,7,7,3,,,,,,,,,2,1.8860449519997928,109,001,2019_Sep_05_1612,MusicAffectPsychophysiology2019,3.0.5,59.8026704436107,
To what extent did the music make you feel ,ALERT,30MonoWAV/30MonoT4.wav,2,1,4,16,,,,,1,3,19,15,0,8,8,8,,,,,,,,,3,1.68528470199999,109,001,2019_Sep_05_1612,MusicAffectPsychophysiology2019,3.0.5,59.8026704436107,
To what extent did the music make you feel ,SCARED,30MonoWAV/30MonoT4.wav,2,1,4,16,,,,,1,3,19,15,0,9,9,11,,,,,,,,,2,1.4501646039989282,109,001,2019_Sep_05_1612,MusicAffectPsychophysiology2019,3.0.5,59.8026704436107,
To what extent did the music make you feel ,ANGRY,30MonoWAV/30MonoT4.wav,2,1,4,16,,,,,1,3,19,15,0,10,10,2,,,,,,,,,1,2.6689201959998172,109,001,2019_Sep_05_1612,MusicAffectPsychophysiology2019,3.0.5,59.8026704436107,
To what extent did the music make you feel ,ASHAMED,30MonoWAV/30MonoT4.wav,2,1,4,16,,,,,1,3,19,15,0,11,11,4,,,,,,,,,1,2.669137610000689,109,001,2019_Sep_05_1612,MusicAffectPsychophysiology2019,3.0.5,59.8026704436107,
,,30MonoWAV/30MonoT4.wav,2,1,4,16,,,,,1,3,19,15,,,,,,,,,,,,,,,109,001,2019_Sep_05_1612,MusicAffectPsychophysiology2019,3.0.5,59.8026704436107,
To what extent did the music make you feel ,HAPPY,30MonoWAV/30MonoT2.wav,2,1,4,14,,,,,1,4,20,13,0,0,0,6,,,2,6.168362980999518,3,1.567113576000338,4,1.7347700070004066,3,4.409792534999724,109,001,2019_Sep_05_1612,MusicAffectPsychophysiology2019,3.0.5,59.8026704436107,
To what extent did the music make you feel ,FRUSTRATED,30MonoWAV/30MonoT2.wav,2,1,4,14,,,,,1,4,20,13,0,1,1,3,,,,,,,,,3,1.1903853780004283,109,001,2019_Sep_05_1612,MusicAffectPsychophysiology2019,3.0.5,59.8026704436107,
To what extent did the music make you feel ,ANGRY,30MonoWAV/30MonoT2.wav,2,1,4,14,,,,,1,4,20,13,0,2,2,2,,,,,,,,,1,2.053748448999613,109,001,2019_Sep_05_1612,MusicAffectPsychophysiology2019,3.0.5,59.8026704436107,
To what extent did the music make you feel ,ALERT,30MonoWAV/30MonoT2.wav,2,1,4,14,,,,,1,4,20,13,0,3,3,8,,,,,,,,,1,1.5891021719999117,109,001,2019_Sep_05_1612,MusicAffectPsychophysiology2019,3.0.5,59.8026704436107,
To what extent did the music make you feel ,SCARED,30MonoWAV/30MonoT2.wav,2,1,4,14,,,,,1,4,20,13,0,4,4,11,,,,,,,,,1,1.453113913999914,109,001,2019_Sep_05_1612,MusicAffectPsychophysiology2019,3.0.5,59.8026704436107,
To what extent did the music make you feel ,GUILTY,30MonoWAV/30MonoT2.wav,2,1,4,14,,,,,1,4,20,13,0,5,5,5,,,,,,,,,1,1.35272644899851,109,001,2019_Sep_05_1612,MusicAffectPsychophysiology2019,3.0.5,59.8026704436107,
To what extent did the music make you feel ,ACTIVE,30MonoWAV/30MonoT2.wav,2,1,4,14,,,,,1,4,20,13,0,6,6,9,,,,,,,,,3,2.1852467720000277,109,001,2019_Sep_05_1612,MusicAffectPsychophysiology2019,3.0.5,59.8026704436107,
To what extent did the music make you feel ,TENDER,30MonoWAV/30MonoT2.wav,2,1,4,14,,,,,1,4,20,13,0,7,7,10,,,,,,,,,2,1.0686340390002442,109,001,2019_Sep_05_1612,MusicAffectPsychophysiology2019,3.0.5,59.8026704436107,
To what extent did the music make you feel ,EXCITED,30MonoWAV/30MonoT2.wav,2,1,4,14,,,,,1,4,20,13,0,8,8,7,,,,,,,,,3,1.636116330000732,109,001,2019_Sep_05_1612,MusicAffectPsychophysiology2019,3.0.5,59.8026704436107,
To what extent did the music make you feel ,SAD,30MonoWAV/30MonoT2.wav,2,1,4,14,,,,,1,4,20,13,0,9,9,0,,,,,,,,,3,2.1368555030003336,109,001,2019_Sep_05_1612,MusicAffectPsychophysiology2019,3.0.5,59.8026704436107,
To what extent did the music make you feel ,ASHAMED,30MonoWAV/30MonoT2.wav,2,1,4,14,,,,,1,4,20,13,0,10,10,4,,,,,,,,,1,1.7689723300009064,109,001,2019_Sep_05_1612,MusicAffectPsychophysiology2019,3.0.5,59.8026704436107,
To what extent did the music make you feel ,ANXIOUS ,30MonoWAV/30MonoT2.wav,2,1,4,14,,,,,1,4,20,13,0,11,11,1,,,,,,,,,1,1.1871930509987578,109,001,2019_Sep_05_1612,MusicAffectPsychophysiology2019,3.0.5,59.8026704436107,
,,30MonoWAV/30MonoT2.wav,2,1,4,14,,,,,1,4,20,13,,,,,,,,,,,,,,,109,001,2019_Sep_05_1612,MusicAffectPsychophysiology2019,3.0.5,59.8026704436107,
To what extent did the music make you feel ,SAD,30MonoWAV/30MonoT1.wav,2,1,4,13,,,,,1,5,21,12,0,0,0,0,,,2,5.518997559000127,3,4.23496349099878,3,1.6183080379996682,2,2.673253046001264,109,001,2019_Sep_05_1612,MusicAffectPsychophysiology2019,3.0.5,59.8026704436107,
To what extent did the music make you feel ,ACTIVE,30MonoWAV/30MonoT1.wav,2,1,4,13,,,,,1,5,21,12,0,1,1,9,,,,,,,,,3,1.385673623999537,109,001,2019_Sep_05_1612,MusicAffectPsychophysiology2019,3.0.5,59.8026704436107,
To what extent did the music make you feel ,ALERT,30MonoWAV/30MonoT1.wav,2,1,4,13,,,,,1,5,21,12,0,2,2,8,,,,,,,,,1,3.8825745300000563,109,001,2019_Sep_05_1612,MusicAffectPsychophysiology2019,3.0.5,59.8026704436107,
To what extent did the music make you feel ,ANXIOUS ,30MonoWAV/30MonoT1.wav,2,1,4,13,,,,,1,5,21,12,0,3,3,1,,,,,,,,,1,1.1023766770013026,109,001,2019_Sep_05_1612,MusicAffectPsychophysiology2019,3.0.5,59.8026704436107,
To what extent did the music make you feel ,EXCITED,30MonoWAV/30MonoT1.wav,2,1,4,13,,,,,1,5,21,12,0,4,4,7,,,,,,,,,2,2.1688726249994943,109,001,2019_Sep_05_1612,MusicAffectPsychophysiology2019,3.0.5,59.8026704436107,
To what extent did the music make you feel ,ASHAMED,30MonoWAV/30MonoT1.wav,2,1,4,13,,,,,1,5,21,12,0,5,5,4,,,,,,,,,1,1.4195544860012888,109,001,2019_Sep_05_1612,MusicAffectPsychophysiology2019,3.0.5,59.8026704436107,
To what extent did the music make you feel ,GUILTY,30MonoWAV/30MonoT1.wav,2,1,4,13,,,,,1,5,21,12,0,6,6,5,,,,,,,,,1,0.7017470530008723,109,001,2019_Sep_05_1612,MusicAffectPsychophysiology2019,3.0.5,59.8026704436107,
To what extent did the music make you feel ,SCARED,30MonoWAV/30MonoT1.wav,2,1,4,13,,,,,1,5,21,12,0,7,7,11,,,,,,,,,1,1.4356530790009856,109,001,2019_Sep_05_1612,MusicAffectPsychophysiology2019,3.0.5,59.8026704436107,
To what extent did the music make you feel ,HAPPY,30MonoWAV/30MonoT1.wav,2,1,4,13,,,,,1,5,21,12,0,8,8,6,,,,,,,,,3,1.819155684001089,109,001,2019_Sep_05_1612,MusicAffectPsychophysiology2019,3.0.5,59.8026704436107,
To what extent did the music make you feel ,TENDER,30MonoWAV/30MonoT1.wav,2,1,4,13,,,,,1,5,21,12,0,9,9,10,,,,,,,,,2,1.0689585679992888,109,001,2019_Sep_05_1612,MusicAffectPsychophysiology2019,3.0.5,59.8026704436107,
To what extent did the music make you feel ,FRUSTRATED,30MonoWAV/30MonoT1.wav,2,1,4,13,,,,,1,5,21,12,0,10,10,3,,,,,,,,,2,1.1196115640013886,109,001,2019_Sep_05_1612,MusicAffectPsychophysiology2019,3.0.5,59.8026704436107,
To what extent did the music make you feel ,ANGRY,30MonoWAV/30MonoT1.wav,2,1,4,13,,,,,1,5,21,12,0,11,11,2,,,,,,,,,1,1.302532973999405,109,001,2019_Sep_05_1612,MusicAffectPsychophysiology2019,3.0.5,59.8026704436107,
,,30MonoWAV/30MonoT1.wav,2,1,4,13,,,,,1,5,21,12,,,,,,,,,,,,,,,109,001,2019_Sep_05_1612,MusicAffectPsychophysiology2019,3.0.5,59.8026704436107,
To what extent did the music make you feel ,ACTIVE,30MonoWAV/30MonoS4.wav,1,1,3,12,,,,,1,6,22,11,0,0,0,9,,,1,3.4332718350015057,1,4.198468837999826,1,1.9348358570005075,2,2.8359233749997657,109,001,2019_Sep_05_1612,MusicAffectPsychophysiology2019,3.0.5,59.8026704436107,
To what extent did the music make you feel ,FRUSTRATED,30MonoWAV/30MonoS4.wav,1,1,3,12,,,,,1,6,22,11,0,1,1,3,,,,,,,,,2,0.8486151779998181,109,001,2019_Sep_05_1612,MusicAffectPsychophysiology2019,3.0.5,59.8026704436107,
To what extent did the music make you feel ,TENDER,30MonoWAV/30MonoS4.wav,1,1,3,12,,,,,1,6,22,11,0,2,2,10,,,,,,,,,2,2.753779387998293,109,001,2019_Sep_05_1612,MusicAffectPsychophysiology2019,3.0.5,59.8026704436107,
To what extent did the music make you feel ,GUILTY,30MonoWAV/30MonoS4.wav,1,1,3,12,,,,,1,6,22,11,0,3,3,5,,,,,,,,,3,2.6687312419999216,109,001,2019_Sep_05_1612,MusicAffectPsychophysiology2019,3.0.5,59.8026704436107,
To what extent did the music make you feel ,SAD,30MonoWAV/30MonoS4.wav,1,1,3,12,,,,,1,6,22,11,0,4,4,0,,,,,,,,,5,1.3346287710010074,109,001,2019_Sep_05_1612,MusicAffectPsychophysiology2019,3.0.5,59.8026704436107,
To what extent did the music make you feel ,SCARED,30MonoWAV/30MonoS4.wav,1,1,3,12,,,,,1,6,22,11,0,5,5,11,,,,,,,,,1,2.0191206660001626,109,001,2019_Sep_05_1612,MusicAffectPsychophysiology2019,3.0.5,59.8026704436107,
To what extent did the music make you feel ,ANGRY,30MonoWAV/30MonoS4.wav,1,1,3,12,,,,,1,6,22,11,0,6,6,2,,,,,,,,,1,1.4361788349997369,109,001,2019_Sep_05_1612,MusicAffectPsychophysiology2019,3.0.5,59.8026704436107,
To what extent did the music make you feel ,EXCITED,30MonoWAV/30MonoS4.wav,1,1,3,12,,,,,1,6,22,11,0,7,7,7,,,,,,,,,1,1.8195868820002943,109,001,2019_Sep_05_1612,MusicAffectPsychophysiology2019,3.0.5,59.8026704436107,
To what extent did the music make you feel ,HAPPY,30MonoWAV/30MonoS4.wav,1,1,3,12,,,,,1,6,22,11,0,8,8,6,,,,,,,,,1,1.818733271000383,109,001,2019_Sep_05_1612,MusicAffectPsychophysiology2019,3.0.5,59.8026704436107,
To what extent did the music make you feel ,ALERT,30MonoWAV/30MonoS4.wav,1,1,3,12,,,,,1,6,22,11,0,9,9,8,,,,,,,,,1,1.3190916900002776,109,001,2019_Sep_05_1612,MusicAffectPsychophysiology2019,3.0.5,59.8026704436107,
To what extent did the music make you feel ,ASHAMED,30MonoWAV/30MonoS4.wav,1,1,3,12,,,,,1,6,22,11,0,10,10,4,,,,,,,,,3,1.6506322040004306,109,001,2019_Sep_05_1612,MusicAffectPsychophysiology2019,3.0.5,59.8026704436107,
To what extent did the music make you feel ,ANXIOUS ,30MonoWAV/30MonoS4.wav,1,1,3,12,,,,,1,6,22,11,0,11,11,1,,,,,,,,,1,1.684448406998854,109,001,2019_Sep_05_1612,MusicAffectPsychophysiology2019,3.0.5,59.8026704436107,
,,30MonoWAV/30MonoS4.wav,1,1,3,12,,,,,1,6,22,11,,,,,,,,,,,,,,,109,001,2019_Sep_05_1612,MusicAffectPsychophysiology2019,3.0.5,59.8026704436107,
To what extent did the music make you feel ,ASHAMED,30MonoWAV/30MonoS1.wav,1,1,3,9,,,,,1,7,23,8,0,0,0,4,,,2,8.268513596000048,2,1.3180299089999608,2,2.753160668999044,2,5.178413874000398,109,001,2019_Sep_05_1612,MusicAffectPsychophysiology2019,3.0.5,59.8026704436107,
To what extent did the music make you feel ,SCARED,30MonoWAV/30MonoS1.wav,1,1,3,9,,,,,1,7,23,8,0,1,1,11,,,,,,,,,1,2.1674890279991814,109,001,2019_Sep_05_1612,MusicAffectPsychophysiology2019,3.0.5,59.8026704436107,
To what extent did the music make you feel ,ANGRY,30MonoWAV/30MonoS1.wav,1,1,3,9,,,,,1,7,23,8,0,2,2,2,,,,,,,,,1,0.9349481569988711,109,001,2019_Sep_05_1612,MusicAffectPsychophysiology2019,3.0.5,59.8026704436107,
To what extent did the music make you feel ,ACTIVE,30MonoWAV/30MonoS1.wav,1,1,3,9,,,,,1,7,23,8,0,3,3,9,,,,,,,,,2,1.2852705530003732,109,001,2019_Sep_05_1612,MusicAffectPsychophysiology2019,3.0.5,59.8026704436107,
To what extent did the music make you feel ,HAPPY,30MonoWAV/30MonoS1.wav,1,1,3,9,,,,,1,7,23,8,0,4,4,6,,,,,,,,,2,1.3872017529993173,109,001,2019_Sep_05_1612,MusicAffectPsychophysiology2019,3.0.5,59.8026704436107,
To what extent did the music make you feel ,ALERT,30MonoWAV/30MonoS1.wav,1,1,3,9,,,,,1,7,23,8,0,5,5,8,,,,,,,,,1,4.352646788000129,109,001,2019_Sep_05_1612,MusicAffectPsychophysiology2019,3.0.5,59.8026704436107,
To what extent did the music make you feel ,SAD,30MonoWAV/30MonoS1.wav,1,1,3,9,,,,,1,7,23,8,0,6,6,0,,,,,,,,,5,1.701429325999925,109,001,2019_Sep_05_1612,MusicAffectPsychophysiology2019,3.0.5,59.8026704436107,
To what extent did the music make you feel ,TENDER,30MonoWAV/30MonoS1.wav,1,1,3,9,,,,,1,7,23,8,0,7,7,10,,,,,,,,,2,1.8363902869987214,109,001,2019_Sep_05_1612,MusicAffectPsychophysiology2019,3.0.5,59.8026704436107,
To what extent did the music make you feel ,ANXIOUS ,30MonoWAV/30MonoS1.wav,1,1,3,9,,,,,1,7,23,8,0,8,8,1,,,,,,,,,3,1.6694585629993526,109,001,2019_Sep_05_1612,MusicAffectPsychophysiology2019,3.0.5,59.8026704436107,
To what extent did the music make you feel ,EXCITED,30MonoWAV/30MonoS1.wav,1,1,3,9,,,,,1,7,23,8,0,9,9,7,,,,,,,,,2,3.7180680989986286,109,001,2019_Sep_05_1612,MusicAffectPsychophysiology2019,3.0.5,59.8026704436107,
To what extent did the music make you feel ,FRUSTRATED,30MonoWAV/30MonoS1.wav,1,1,3,9,,,,,1,7,23,8,0,10,10,3,,,,,,,,,3,1.137433713000064,109,001,2019_Sep_05_1612,MusicAffectPsychophysiology2019,3.0.5,59.8026704436107,
To what extent did the music make you feel ,GUILTY,30MonoWAV/30MonoS1.wav,1,1,3,9,,,,,1,7,23,8,0,11,11,5,,,,,,,,,1,1.7346664819997386,109,001,2019_Sep_05_1612,MusicAffectPsychophysiology2019,3.0.5,59.8026704436107,
,,30MonoWAV/30MonoS1.wav,1,1,3,9,,,,,1,7,23,8,,,,,,,,,,,,,,,109,001,2019_Sep_05_1612,MusicAffectPsychophysiology2019,3.0.5,59.8026704436107,
To what extent did the music make you feel ,GUILTY,30MonoWAV/30MonoF2.wav,1,2,2,2,,,,,1,8,24,1,0,0,0,5,,,1,4.686374783999781,1,1.5020119040000282,1,0.9196834699996543,1,2.019384313000046,109,001,2019_Sep_05_1612,MusicAffectPsychophysiology2019,3.0.5,59.8026704436107,
To what extent did the music make you feel ,SAD,30MonoWAV/30MonoF2.wav,1,2,2,2,,,,,1,8,24,1,0,1,1,0,,,,,,,,,3,3.1517475450000347,109,001,2019_Sep_05_1612,MusicAffectPsychophysiology2019,3.0.5,59.8026704436107,
To what extent did the music make you feel ,TENDER,30MonoWAV/30MonoF2.wav,1,2,2,2,,,,,1,8,24,1,0,2,2,10,,,,,,,,,3,1.802291411000624,109,001,2019_Sep_05_1612,MusicAffectPsychophysiology2019,3.0.5,59.8026704436107,
To what extent did the music make you feel ,ALERT,30MonoWAV/30MonoF2.wav,1,2,2,2,,,,,1,8,24,1,0,3,3,8,,,,,,,,,5,1.6852645420003682,109,001,2019_Sep_05_1612,MusicAffectPsychophysiology2019,3.0.5,59.8026704436107,
To what extent did the music make you feel ,FRUSTRATED,30MonoWAV/30MonoF2.wav,1,2,2,2,,,,,1,8,24,1,0,4,4,3,,,,,,,,,3,1.752564059001088,109,001,2019_Sep_05_1612,MusicAffectPsychophysiology2019,3.0.5,59.8026704436107,
To what extent did the music make you feel ,ACTIVE,30MonoWAV/30MonoF2.wav,1,2,2,2,,,,,1,8,24,1,0,5,5,9,,,,,,,,,2,1.5195451480012707,109,001,2019_Sep_05_1612,MusicAffectPsychophysiology2019,3.0.5,59.8026704436107,
To what extent did the music make you feel ,ANXIOUS ,30MonoWAV/30MonoF2.wav,1,2,2,2,,,,,1,8,24,1,0,6,6,1,,,,,,,,,5,2.85197015400081,109,001,2019_Sep_05_1612,MusicAffectPsychophysiology2019,3.0.5,59.8026704436107,
To what extent did the music make you feel ,ANGRY,30MonoWAV/30MonoF2.wav,1,2,2,2,,,,,1,8,24,1,0,7,7,2,,,,,,,,,2,1.4693994600002043,109,001,2019_Sep_05_1612,MusicAffectPsychophysiology2019,3.0.5,59.8026704436107,
To what extent did the music make you feel ,ASHAMED,30MonoWAV/30MonoF2.wav,1,2,2,2,,,,,1,8,24,1,0,8,8,4,,,,,,,,,1,1.2524790530005703,109,001,2019_Sep_05_1612,MusicAffectPsychophysiology2019,3.0.5,59.8026704436107,
To what extent did the music make you feel ,EXCITED,30MonoWAV/30MonoF2.wav,1,2,2,2,,,,,1,8,24,1,0,9,9,7,,,,,,,,,2,1.4356589279996115,109,001,2019_Sep_05_1612,MusicAffectPsychophysiology2019,3.0.5,59.8026704436107,
To what extent did the music make you feel ,HAPPY,30MonoWAV/30MonoF2.wav,1,2,2,2,,,,,1,8,24,1,0,10,10,6,,,,,,,,,1,1.5027337550000084,109,001,2019_Sep_05_1612,MusicAffectPsychophysiology2019,3.0.5,59.8026704436107,
To what extent did the music make you feel ,SCARED,30MonoWAV/30MonoF2.wav,1,2,2,2,,,,,1,8,24,1,0,11,11,11,,,,,,,,,5,1.5021621579999191,109,001,2019_Sep_05_1612,MusicAffectPsychophysiology2019,3.0.5,59.8026704436107,
,,30MonoWAV/30MonoF2.wav,1,2,2,2,,,,,1,8,24,1,,,,,,,,,,,,,,,109,001,2019_Sep_05_1612,MusicAffectPsychophysiology2019,3.0.5,59.8026704436107,
To what extent did the music make you feel ,GUILTY,30MonoWAV/30MonoT3.wav,2,1,4,15,,,,,1,9,25,14,0,0,0,5,,,3,5.682254633999037,4,3.3689760850011226,3,0.23640631200032658,1,2.115625201000512,109,001,2019_Sep_05_1612,MusicAffectPsychophysiology2019,3.0.5,59.8026704436107,
To what extent did the music make you feel ,ANGRY,30MonoWAV/30MonoT3.wav,2,1,4,15,,,,,1,9,25,14,0,1,1,2,,,,,,,,,1,0.7029855519995181,109,001,2019_Sep_05_1612,MusicAffectPsychophysiology2019,3.0.5,59.8026704436107,
To what extent did the music make you feel ,SAD,30MonoWAV/30MonoT3.wav,2,1,4,15,,,,,1,9,25,14,0,2,2,0,,,,,,,,,1,1.666630396999608,109,001,2019_Sep_05_1612,MusicAffectPsychophysiology2019,3.0.5,59.8026704436107,
To what extent did the music make you feel ,FRUSTRATED,30MonoWAV/30MonoT3.wav,2,1,4,15,,,,,1,9,25,14,0,3,3,3,,,,,,,,,2,2.1186121970004024,109,001,2019_Sep_05_1612,MusicAffectPsychophysiology2019,3.0.5,59.8026704436107,
To what extent did the music make you feel ,ACTIVE,30MonoWAV/30MonoT3.wav,2,1,4,15,,,,,1,9,25,14,0,4,4,9,,,,,,,,,3,6.851124958000582,109,001,2019_Sep_05_1612,MusicAffectPsychophysiology2019,3.0.5,59.8026704436107,
To what extent did the music make you feel ,SCARED,30MonoWAV/30MonoT3.wav,2,1,4,15,,,,,1,9,25,14,0,5,5,11,,,,,,,,,1,1.5199951810009225,109,001,2019_Sep_05_1612,MusicAffectPsychophysiology2019,3.0.5,59.8026704436107,
To what extent did the music make you feel ,ALERT,30MonoWAV/30MonoT3.wav,2,1,4,15,,,,,1,9,25,14,0,6,6,8,,,,,,,,,1,1.5524545059997763,109,001,2019_Sep_05_1612,MusicAffectPsychophysiology2019,3.0.5,59.8026704436107,
To what extent did the music make you feel ,HAPPY,30MonoWAV/30MonoT3.wav,2,1,4,15,,,,,1,9,25,14,0,7,7,6,,,,,,,,,3,2.3684603330002574,109,001,2019_Sep_05_1612,MusicAffectPsychophysiology2019,3.0.5,59.8026704436107,
To what extent did the music make you feel ,ASHAMED,30MonoWAV/30MonoT3.wav,2,1,4,15,,,,,1,9,25,14,0,8,8,4,,,,,,,,,1,1.1332471579989942,109,001,2019_Sep_05_1612,MusicAffectPsychophysiology2019,3.0.5,59.8026704436107,
To what extent did the music make you feel ,EXCITED,30MonoWAV/30MonoT3.wav,2,1,4,15,,,,,1,9,25,14,0,9,9,7,,,,,,,,,2,1.2494479619999765,109,001,2019_Sep_05_1612,MusicAffectPsychophysiology2019,3.0.5,59.8026704436107,
To what extent did the music make you feel ,TENDER,30MonoWAV/30MonoT3.wav,2,1,4,15,,,,,1,9,25,14,0,10,10,10,,,,,,,,,2,1.2366932280001492,109,001,2019_Sep_05_1612,MusicAffectPsychophysiology2019,3.0.5,59.8026704436107,
To what extent did the music make you feel ,ANXIOUS ,30MonoWAV/30MonoT3.wav,2,1,4,15,,,,,1,9,25,14,0,11,11,1,,,,,,,,,1,1.4356642219991045,109,001,2019_Sep_05_1612,MusicAffectPsychophysiology2019,3.0.5,59.8026704436107,
,,30MonoWAV/30MonoT3.wav,2,1,4,15,,,,,1,9,25,14,,,,,,,,,,,,,,,109,001,2019_Sep_05_1612,MusicAffectPsychophysiology2019,3.0.5,59.8026704436107,
To what extent did the music make you feel ,ACTIVE,30MonoWAV/30MonoH2.wav,2,2,1,6,,,,,1,10,26,5,0,0,0,9,,,4,3.5519307479989948,4,1.7857564099995216,3,2.1181079449997924,4,3.691604928999368,109,001,2019_Sep_05_1612,MusicAffectPsychophysiology2019,3.0.5,59.8026704436107,
To what extent did the music make you feel ,ANXIOUS ,30MonoWAV/30MonoH2.wav,2,2,1,6,,,,,1,10,26,5,0,1,1,1,,,,,,,,,2,1.567466582000634,109,001,2019_Sep_05_1612,MusicAffectPsychophysiology2019,3.0.5,59.8026704436107,
To what extent did the music make you feel ,FRUSTRATED,30MonoWAV/30MonoH2.wav,2,2,1,6,,,,,1,10,26,5,0,2,2,3,,,,,,,,,2,0.9506934710007044,109,001,2019_Sep_05_1612,MusicAffectPsychophysiology2019,3.0.5,59.8026704436107,
To what extent did the music make you feel ,ASHAMED,30MonoWAV/30MonoH2.wav,2,2,1,6,,,,,1,10,26,5,0,3,3,4,,,,,,,,,1,1.2002074909996736,109,001,2019_Sep_05_1612,MusicAffectPsychophysiology2019,3.0.5,59.8026704436107,
To what extent did the music make you feel ,HAPPY,30MonoWAV/30MonoH2.wav,2,2,1,6,,,,,1,10,26,5,0,4,4,6,,,,,,,,,4,1.5832678750011837,109,001,2019_Sep_05_1612,MusicAffectPsychophysiology2019,3.0.5,59.8026704436107,
To what extent did the music make you feel ,EXCITED,30MonoWAV/30MonoH2.wav,2,2,1,6,,,,,1,10,26,5,0,5,5,7,,,,,,,,,4,1.7512206669998704,109,001,2019_Sep_05_1612,MusicAffectPsychophysiology2019,3.0.5,59.8026704436107,
To what extent did the music make you feel ,ANGRY,30MonoWAV/30MonoH2.wav,2,2,1,6,,,,,1,10,26,5,0,6,6,2,,,,,,,,,1,4.917609001999153,109,001,2019_Sep_05_1612,MusicAffectPsychophysiology2019,3.0.5,59.8026704436107,
To what extent did the music make you feel ,SAD,30MonoWAV/30MonoH2.wav,2,2,1,6,,,,,1,10,26,5,0,7,7,0,,,,,,,,,1,1.219346437999775,109,001,2019_Sep_05_1612,MusicAffectPsychophysiology2019,3.0.5,59.8026704436107,
To what extent did the music make you feel ,TENDER,30MonoWAV/30MonoH2.wav,2,2,1,6,,,,,1,10,26,5,0,8,8,10,,,,,,,,,3,1.3862547279986757,109,001,2019_Sep_05_1612,MusicAffectPsychophysiology2019,3.0.5,59.8026704436107,
To what extent did the music make you feel ,SCARED,30MonoWAV/30MonoH2.wav,2,2,1,6,,,,,1,10,26,5,0,9,9,11,,,,,,,,,1,1.6353584850003244,109,001,2019_Sep_05_1612,MusicAffectPsychophysiology2019,3.0.5,59.8026704436107,
To what extent did the music make you feel ,ALERT,30MonoWAV/30MonoH2.wav,2,2,1,6,,,,,1,10,26,5,0,10,10,8,,,,,,,,,2,1.435932280999623,109,001,2019_Sep_05_1612,MusicAffectPsychophysiology2019,3.0.5,59.8026704436107,
To what extent did the music make you feel ,GUILTY,30MonoWAV/30MonoH2.wav,2,2,1,6,,,,,1,10,26,5,0,11,11,5,,,,,,,,,1,1.2499834890004422,109,001,2019_Sep_05_1612,MusicAffectPsychophysiology2019,3.0.5,59.8026704436107,
,,30MonoWAV/30MonoH2.wav,2,2,1,6,,,,,1,10,26,5,,,,,,,,,,,,,,,109,001,2019_Sep_05_1612,MusicAffectPsychophysiology2019,3.0.5,59.8026704436107,
To what extent did the music make you feel ,ANGRY,30MonoWAV/30MonoH4.wav,2,2,1,8,,,,,1,11,27,7,0,0,0,2,,,4,6.234674568000628,4,4.534926640999402,4,1.102610605999871,1,1.4022700660007104,109,001,2019_Sep_05_1612,MusicAffectPsychophysiology2019,3.0.5,59.8026704436107,
To what extent did the music make you feel ,ASHAMED,30MonoWAV/30MonoH4.wav,2,2,1,8,,,,,1,11,27,7,0,1,1,4,,,,,,,,,1,0.801958456999273,109,001,2019_Sep_05_1612,MusicAffectPsychophysiology2019,3.0.5,59.8026704436107,
To what extent did the music make you feel ,ANXIOUS ,30MonoWAV/30MonoH4.wav,2,2,1,8,,,,,1,11,27,7,0,2,2,1,,,,,,,,,1,0.9690551019994018,109,001,2019_Sep_05_1612,MusicAffectPsychophysiology2019,3.0.5,59.8026704436107,
To what extent did the music make you feel ,SAD,30MonoWAV/30MonoH4.wav,2,2,1,8,,,,,1,11,27,7,0,3,3,0,,,,,,,,,1,0.9351892440008669,109,001,2019_Sep_05_1612,MusicAffectPsychophysiology2019,3.0.5,59.8026704436107,
To what extent did the music make you feel ,SCARED,30MonoWAV/30MonoH4.wav,2,2,1,8,,,,,1,11,27,7,0,4,4,11,,,,,,,,,1,0.9506990560003032,109,001,2019_Sep_05_1612,MusicAffectPsychophysiology2019,3.0.5,59.8026704436107,
To what extent did the music make you feel ,FRUSTRATED,30MonoWAV/30MonoH4.wav,2,2,1,8,,,,,1,11,27,7,0,5,5,3,,,,,,,,,1,1.2689314920007746,109,001,2019_Sep_05_1612,MusicAffectPsychophysiology2019,3.0.5,59.8026704436107,
To what extent did the music make you feel ,GUILTY,30MonoWAV/30MonoH4.wav,2,2,1,8,,,,,1,11,27,7,0,6,6,5,,,,,,,,,1,0.951880878999873,109,001,2019_Sep_05_1612,MusicAffectPsychophysiology2019,3.0.5,59.8026704436107,
To what extent did the music make you feel ,EXCITED,30MonoWAV/30MonoH4.wav,2,2,1,8,,,,,1,11,27,7,0,7,7,7,,,,,,,,,4,1.8195369530003518,109,001,2019_Sep_05_1612,MusicAffectPsychophysiology2019,3.0.5,59.8026704436107,
To what extent did the music make you feel ,HAPPY,30MonoWAV/30MonoH4.wav,2,2,1,8,,,,,1,11,27,7,0,8,8,6,,,,,,,,,5,2.8990668379992712,109,001,2019_Sep_05_1612,MusicAffectPsychophysiology2019,3.0.5,59.8026704436107,
To what extent did the music make you feel ,TENDER,30MonoWAV/30MonoH4.wav,2,2,1,8,,,,,1,11,27,7,0,9,9,10,,,,,,,,,2,1.3361325959995156,109,001,2019_Sep_05_1612,MusicAffectPsychophysiology2019,3.0.5,59.8026704436107,
To what extent did the music make you feel ,ACTIVE,30MonoWAV/30MonoH4.wav,2,2,1,8,,,,,1,11,27,7,0,10,10,9,,,,,,,,,4,1.7359377689990652,109,001,2019_Sep_05_1612,MusicAffectPsychophysiology2019,3.0.5,59.8026704436107,
To what extent did the music make you feel ,ALERT,30MonoWAV/30MonoH4.wav,2,2,1,8,,,,,1,11,27,7,0,11,11,8,,,,,,,,,1,1.1857075770003576,109,001,2019_Sep_05_1612,MusicAffectPsychophysiology2019,3.0.5,59.8026704436107,
,,30MonoWAV/30MonoH4.wav,2,2,1,8,,,,,1,11,27,7,,,,,,,,,,,,,,,109,001,2019_Sep_05_1612,MusicAffectPsychophysiology2019,3.0.5,59.8026704436107,
To what extent did the music make you feel ,ASHAMED,30MonoWAV/30MonoF4.wav,1,2,2,4,,,,,1,12,28,3,0,0,0,4,,,3,6.534951098999954,3,2.9507692819988733,2,1.3679833330006659,1,1.252237321999928,109,001,2019_Sep_05_1612,MusicAffectPsychophysiology2019,3.0.5,59.8026704436107,
To what extent did the music make you feel ,EXCITED,30MonoWAV/30MonoF4.wav,1,2,2,4,,,,,1,12,28,3,0,1,1,7,,,,,,,,,3,1.1688082389991905,109,001,2019_Sep_05_1612,MusicAffectPsychophysiology2019,3.0.5,59.8026704436107,
To what extent did the music make you feel ,SAD,30MonoWAV/30MonoF4.wav,1,2,2,4,,,,,1,12,28,3,0,2,2,0,,,,,,,,,1,1.7187061950007774,109,001,2019_Sep_05_1612,MusicAffectPsychophysiology2019,3.0.5,59.8026704436107,
To what extent did the music make you feel ,ALERT,30MonoWAV/30MonoF4.wav,1,2,2,4,,,,,1,12,28,3,0,3,3,8,,,,,,,,,4,1.6533711490010319,109,001,2019_Sep_05_1612,MusicAffectPsychophysiology2019,3.0.5,59.8026704436107,
To what extent did the music make you feel ,TENDER,30MonoWAV/30MonoF4.wav,1,2,2,4,,,,,1,12,28,3,0,4,4,10,,,,,,,,,2,1.3714691380009754,109,001,2019_Sep_05_1612,MusicAffectPsychophysiology2019,3.0.5,59.8026704436107,
To what extent did the music make you feel ,GUILTY,30MonoWAV/30MonoF4.wav,1,2,2,4,,,,,1,12,28,3,0,5,5,5,,,,,,,,,1,1.1162929619986244,109,001,2019_Sep_05_1612,MusicAffectPsychophysiology2019,3.0.5,59.8026704436107,
To what extent did the music make you feel ,HAPPY,30MonoWAV/30MonoF4.wav,1,2,2,4,,,,,1,12,28,3,0,6,6,6,,,,,,,,,2,1.5179192929990677,109,001,2019_Sep_05_1612,MusicAffectPsychophysiology2019,3.0.5,59.8026704436107,
To what extent did the music make you feel ,ACTIVE,30MonoWAV/30MonoF4.wav,1,2,2,4,,,,,1,12,28,3,0,7,7,9,,,,,,,,,2,1.136111918998722,109,001,2019_Sep_05_1612,MusicAffectPsychophysiology2019,3.0.5,59.8026704436107,
To what extent did the music make you feel ,ANGRY,30MonoWAV/30MonoF4.wav,1,2,2,4,,,,,1,12,28,3,0,8,8,2,,,,,,,,,1,1.5354916609994689,109,001,2019_Sep_05_1612,MusicAffectPsychophysiology2019,3.0.5,59.8026704436107,
To what extent did the music make you feel ,FRUSTRATED,30MonoWAV/30MonoF4.wav,1,2,2,4,,,,,1,12,28,3,0,9,9,3,,,,,,,,,2,1.1356425350004429,109,001,2019_Sep_05_1612,MusicAffectPsychophysiology2019,3.0.5,59.8026704436107,
To what extent did the music make you feel ,SCARED,30MonoWAV/30MonoF4.wav,1,2,2,4,,,,,1,12,28,3,0,10,10,11,,,,,,,,,4,1.1350179170003685,109,001,2019_Sep_05_1612,MusicAffectPsychophysiology2019,3.0.5,59.8026704436107,
To what extent did the music make you feel ,ANXIOUS ,30MonoWAV/30MonoF4.wav,1,2,2,4,,,,,1,12,28,3,0,11,11,1,,,,,,,,,5,1.6187823229993228,109,001,2019_Sep_05_1612,MusicAffectPsychophysiology2019,3.0.5,59.8026704436107,
,,30MonoWAV/30MonoF4.wav,1,2,2,4,,,,,1,12,28,3,,,,,,,,,,,,,,,109,001,2019_Sep_05_1612,MusicAffectPsychophysiology2019,3.0.5,59.8026704436107,
To what extent did the music make you feel ,EXCITED,30MonoWAV/30MonoF3.wav,1,2,2,3,,,,,1,13,29,2,0,0,0,7,,,3,11.834915985000407,2,1.2520730659998662,2,1.833332167001572,3,1.316749275998518,109,001,2019_Sep_05_1612,MusicAffectPsychophysiology2019,3.0.5,59.8026704436107,
To what extent did the music make you feel ,ALERT,30MonoWAV/30MonoF3.wav,1,2,2,3,,,,,1,13,29,2,0,1,1,8,,,,,,,,,4,1.593634672000917,109,001,2019_Sep_05_1612,MusicAffectPsychophysiology2019,3.0.5,59.8026704436107,
To what extent did the music make you feel ,ANXIOUS ,30MonoWAV/30MonoF3.wav,1,2,2,3,,,,,1,13,29,2,0,2,2,1,,,,,,,,,4,1.1951311490010994,109,001,2019_Sep_05_1612,MusicAffectPsychophysiology2019,3.0.5,59.8026704436107,
To what extent did the music make you feel ,ASHAMED,30MonoWAV/30MonoF3.wav,1,2,2,3,,,,,1,13,29,2,0,3,3,4,,,,,,,,,1,1.118404434000695,109,001,2019_Sep_05_1612,MusicAffectPsychophysiology2019,3.0.5,59.8026704436107,
To what extent did the music make you feel ,TENDER,30MonoWAV/30MonoF3.wav,1,2,2,3,,,,,1,13,29,2,0,4,4,10,,,,,,,,,2,1.2688769569995202,109,001,2019_Sep_05_1612,MusicAffectPsychophysiology2019,3.0.5,59.8026704436107,
To what extent did the music make you feel ,GUILTY,30MonoWAV/30MonoF3.wav,1,2,2,3,,,,,1,13,29,2,0,5,5,5,,,,,,,,,1,1.0022618499988312,109,001,2019_Sep_05_1612,MusicAffectPsychophysiology2019,3.0.5,59.8026704436107,
To what extent did the music make you feel ,ACTIVE,30MonoWAV/30MonoF3.wav,1,2,2,3,,,,,1,13,29,2,0,6,6,9,,,,,,,,,3,1.8501794530002371,109,001,2019_Sep_05_1612,MusicAffectPsychophysiology2019,3.0.5,59.8026704436107,
To what extent did the music make you feel ,HAPPY,30MonoWAV/30MonoF3.wav,1,2,2,3,,,,,1,13,29,2,0,7,7,6,,,,,,,,,2,1.3691752340000676,109,001,2019_Sep_05_1612,MusicAffectPsychophysiology2019,3.0.5,59.8026704436107,
To what extent did the music make you feel ,FRUSTRATED,30MonoWAV/30MonoF3.wav,1,2,2,3,,,,,1,13,29,2,0,8,8,3,,,,,,,,,2,1.2683865970011539,109,001,2019_Sep_05_1612,MusicAffectPsychophysiology2019,3.0.5,59.8026704436107,
To what extent did the music make you feel ,ANGRY,30MonoWAV/30MonoF3.wav,1,2,2,3,,,,,1,13,29,2,0,9,9,2,,,,,,,,,1,1.269918564999898,109,001,2019_Sep_05_1612,MusicAffectPsychophysiology2019,3.0.5,59.8026704436107,
To what extent did the music make you feel ,SAD,30MonoWAV/30MonoF3.wav,1,2,2,3,,,,,1,13,29,2,0,10,10,0,,,,,,,,,1,0.9525146199994197,109,001,2019_Sep_05_1612,MusicAffectPsychophysiology2019,3.0.5,59.8026704436107,
To what extent did the music make you feel ,SCARED,30MonoWAV/30MonoF3.wav,1,2,2,3,,,,,1,13,29,2,0,11,11,11,,,,,,,,,2,2.0837592219995713,109,001,2019_Sep_05_1612,MusicAffectPsychophysiology2019,3.0.5,59.8026704436107,
